#2023/06/08 14:00:00
time,wx,wy,wz,ax,ay,az,yy,MM,dd,hh,mm,ss,ms
1.93400,0.04795,0.19600,0.00000,0.03013,0.97441,-0.18837,2023,6,8,14,0,0,71
1.93410,0.08295,0.12600,0.00000,0.03050,0.97698,-0.18837,2023,6,8,14,0,0,82
1.93420,0.08295,0.09100,0.00000,0.03074,0.97624,-0.18947,2023,6,8,14,0,0,94
1.93430,-0.05705,0.03850,0.00000,0.02855,0.97490,-0.18922,2023,6,8,14,0,0,105
1.93440,-0.03955,0.12600,0.00000,0.02855,0.97283,-0.18788,2023,6,8,14,0,0,116
1.93450,0.03045,0.00350,0.00000,0.03111,0.97612,-0.18995,2023,6,8,14,0,0,127
1.93460,-0.03955,0.12600,0.00000,0.02977,0.97478,-0.18910,2023,6,8,14,0,0,138
1.93470,0.15295,-0.32900,0.00000,0.03172,0.97624,-0.18764,2023,6,8,14,0,0,149
1.93480,-0.03955,0.02100,0.00000,0.03209,0.97698,-0.18825,2023,6,8,14,0,0,160
1.93490,0.01295,-0.15400,0.00000,0.03099,0.97661,-0.18947,2023,6,8,14,0,0,171
1.93500,-0.05705,0.03850,0.00000,0.03135,0.97722,-0.18934,2023,6,8,14,0,0,182
1.93510,0.20545,-0.03150,0.00000,0.03050,0.97624,-0.19008,2023,6,8,14,0,0,194
1.93520,-0.00455,0.09100,0.00000,0.03026,0.97478,-0.19117,2023,6,8,14,0,0,205
1.93530,0.20545,-0.11900,0.00000,0.03135,0.97441,-0.18971,2023,6,8,14,0,0,216
1.93540,-0.00455,0.00350,0.00000,0.03050,0.97527,-0.19130,2023,6,8,14,0,0,227
1.93550,-0.07455,0.14350,0.00000,0.03160,0.97576,-0.19008,2023,6,8,14,0,0,238
1.93560,0.08295,0.02100,0.00000,0.03074,0.97649,-0.18934,2023,6,8,14,0,0,249
1.93570,-0.07455,-0.18900,0.00000,0.02843,0.97563,-0.18861,2023,6,8,14,0,0,260
1.93580,0.04795,0.07350,0.00000,0.02867,0.97612,-0.18983,2023,6,8,14,0,0,271
1.93590,0.08295,0.09100,0.00000,0.02965,0.97612,-0.18886,2023,6,8,14,0,0,282
1.93600,-0.02205,0.03850,0.00000,0.03074,0.97478,-0.19117,2023,6,8,14,0,0,294
1.93610,0.06545,0.02100,0.00000,0.02916,0.97307,-0.18812,2023,6,8,14,0,0,305
1.93620,0.20545,0.03850,0.00000,0.02952,0.97661,-0.18812,2023,6,8,14,0,0,316
1.93630,-0.12705,-0.03150,0.00000,0.03074,0.97588,-0.18922,2023,6,8,14,0,0,327
1.93640,-0.02205,-0.03150,0.00000,0.03282,0.97515,-0.18886,2023,6,8,14,0,0,338
1.93650,-0.10955,-0.03150,0.00000,0.03257,0.97551,-0.18837,2023,6,8,14,0,0,349
1.93660,-0.07455,0.14350,0.00000,0.03123,0.97466,-0.19044,2023,6,8,14,0,0,360
1.93670,-0.00455,-0.04900,0.00000,0.03135,0.97380,-0.19069,2023,6,8,14,0,0,371
1.93680,-0.09205,0.03850,0.00000,0.02891,0.97661,-0.18971,2023,6,8,14,0,0,382
1.93690,-0.16205,0.17850,0.00000,0.03123,0.97563,-0.19056,2023,6,8,14,0,0,394
1.93700,-0.19705,0.09100,0.00000,0.02721,0.97393,-0.18812,2023,6,8,14,0,0,405
1.93710,0.04795,-0.06650,0.00000,0.03038,0.97502,-0.18947,2023,6,8,14,0,0,416
1.93720,0.08295,-0.03150,0.00000,0.02977,0.97417,-0.18886,2023,6,8,14,0,0,427
1.93730,0.18795,0.05600,0.00000,0.02928,0.97673,-0.18886,2023,6,8,14,0,0,438
1.93740,0.17045,-0.10150,0.00000,0.03013,0.97673,-0.18934,2023,6,8,14,0,0,449
1.93750,-0.10955,-0.01400,0.00000,0.02818,0.97466,-0.18898,2023,6,8,14,0,0,460
1.93760,-0.12705,-0.04900,0.00000,0.03026,0.97551,-0.18947,2023,6,8,14,0,0,471
1.93770,0.17045,-0.04900,0.00000,0.03038,0.97441,-0.19044,2023,6,8,14,0,0,482
1.93780,-0.09205,0.05600,0.00000,0.03013,0.97502,-0.18983,2023,6,8,14,0,0,494
1.93790,-0.10955,0.02100,0.00000,0.03111,0.97441,-0.18910,2023,6,8,14,0,0,505
1.93800,-0.00455,-0.01400,0.00000,0.03013,0.97624,-0.18934,2023,6,8,14,0,0,516
1.93810,0.01295,-0.01400,0.00000,0.03111,0.97380,-0.18971,2023,6,8,14,0,0,527
1.93820,0.15295,-0.06650,0.00000,0.03099,0.97393,-0.18837,2023,6,8,14,0,0,538
1.93830,0.01295,-0.06650,0.00000,0.03233,0.97637,-0.18825,2023,6,8,14,0,0,549
1.93840,0.04795,-0.11900,0.00000,0.02904,0.97576,-0.18873,2023,6,8,14,0,0,560
1.93850,-0.10955,0.03850,0.00000,0.02867,0.97673,-0.18849,2023,6,8,14,0,0,571
1.93860,-0.09205,0.09100,0.00000,0.02782,0.97649,-0.18764,2023,6,8,14,0,0,582
1.93870,0.10045,0.02100,0.00000,0.03172,0.97502,-0.19056,2023,6,8,14,0,0,594
1.93880,0.04795,-0.17150,0.00000,0.03026,0.97576,-0.18825,2023,6,8,14,0,0,605
1.93890,0.08295,-0.01400,0.00000,0.02965,0.97393,-0.19105,2023,6,8,14,0,0,616
1.93900,-0.00455,-0.01400,0.00000,0.03318,0.97612,-0.18910,2023,6,8,14,0,0,627
1.93910,-0.03955,0.02100,0.00000,0.03209,0.97624,-0.18886,2023,6,8,14,0,0,638
1.93920,0.10045,-0.03150,0.00000,0.03111,0.97466,-0.19105,2023,6,8,14,0,0,649
1.93930,0.06545,-0.22400,0.00000,0.03038,0.97478,-0.19020,2023,6,8,14,0,0,660
1.93940,-0.02205,0.07350,0.00000,0.03160,0.97332,-0.18971,2023,6,8,14,0,0,671
1.93950,0.03045,0.07350,0.00000,0.02977,0.97490,-0.19239,2023,6,8,14,0,0,682
1.93960,-0.09205,0.02100,0.00000,0.03172,0.97319,-0.18934,2023,6,8,14,0,0,694
1.93970,-0.17955,0.00350,0.00000,0.02891,0.97441,-0.18873,2023,6,8,14,0,0,705
1.93980,-0.00455,-0.01400,0.00000,0.03270,0.97490,-0.18959,2023,6,8,14,0,0,716
1.93990,0.03045,0.12600,0.00000,0.03196,0.97600,-0.19117,2023,6,8,14,0,0,727
1.94000,-0.05705,0.12600,0.00000,0.03087,0.97551,-0.18898,2023,6,8,14,0,0,738
1.94010,-0.00455,-0.10150,0.00000,0.03038,0.97466,-0.18983,2023,6,8,14,0,0,749
1.94020,0.01295,-0.08400,0.00000,0.03026,0.97405,-0.19044,2023,6,8,14,0,0,760
1.94030,-0.05705,-0.01400,0.00000,0.03074,0.97563,-0.18788,2023,6,8,14,0,0,771
1.94040,0.08295,-0.10150,0.00000,0.03001,0.97868,-0.18934,2023,6,8,14,0,0,782
1.94050,-0.14455,0.14350,0.00000,0.02928,0.97722,-0.19056,2023,6,8,14,0,0,794
1.94060,-0.05705,-0.08400,0.00000,0.03209,0.97612,-0.18788,2023,6,8,14,0,0,805
1.94070,0.08295,0.09100,0.00000,0.03221,0.97612,-0.18959,2023,6,8,14,0,0,816
1.94080,0.10045,-0.01400,0.00000,0.02952,0.97661,-0.19032,2023,6,8,14,0,0,827
1.94090,-0.03955,-0.29400,0.00000,0.02879,0.97441,-0.18910,2023,6,8,14,0,0,838
1.94100,-0.03955,-0.08400,0.00000,0.03111,0.97393,-0.18947,2023,6,8,14,0,0,849
1.94110,-0.10955,0.12600,0.00000,0.02818,0.97454,-0.18910,2023,6,8,14,0,0,860
1.94120,0.04795,-0.20650,0.00000,0.03233,0.97673,-0.19142,2023,6,8,14,0,0,871
1.94130,0.17045,-0.22400,0.00000,0.03001,0.97429,-0.19178,2023,6,8,14,0,0,882
1.94140,-0.09205,-0.03150,0.00000,0.03087,0.97466,-0.18898,2023,6,8,14,0,0,894
1.94150,0.03045,0.21350,0.00000,0.03135,0.97637,-0.18959,2023,6,8,14,0,0,905
1.94160,0.08295,-0.11900,0.00000,0.03172,0.97283,-0.18922,2023,6,8,14,0,0,916
1.94170,0.10045,-0.04900,0.00000,0.03062,0.97405,-0.19056,2023,6,8,14,0,0,927
1.94180,0.13545,-0.13650,0.00000,0.03282,0.97490,-0.19154,2023,6,8,14,0,0,938
1.94190,-0.10955,0.02100,0.00000,0.02830,0.97612,-0.18983,2023,6,8,14,0,0,949
1.94200,0.04795,-0.03150,0.00000,0.02928,0.97551,-0.19166,2023,6,8,14,0,0,960
1.94210,-0.00455,0.19600,0.00000,0.03160,0.97734,-0.18800,2023,6,8,14,0,0,971
1.94220,-0.07455,0.14350,0.00000,0.02965,0.97417,-0.19117,2023,6,8,14,0,0,982
1.94230,-0.16205,0.03850,0.00000,0.03111,0.97710,-0.18873,2023,6,8,14,0,0,994
1.94240,-0.03955,-0.04900,0.00000,0.03135,0.97393,-0.19166,2023,6,8,14,0,1,5
1.94250,0.04795,-0.06650,0.00000,0.02965,0.97454,-0.19142,2023,6,8,14,0,1,16
1.94260,0.13545,-0.01400,0.00000,0.03196,0.97502,-0.18934,2023,6,8,14,0,1,27
1.94270,0.06545,-0.04900,0.00000,0.03160,0.97637,-0.18873,2023,6,8,14,0,1,38
1.94280,0.32795,0.03850,0.00000,0.03026,0.97380,-0.18776,2023,6,8,14,0,1,49
1.94290,0.03045,-0.24150,0.00000,0.02989,0.97405,-0.19191,2023,6,8,14,0,1,60
1.94300,0.17045,-0.06650,0.00000,0.03013,0.97539,-0.19081,2023,6,8,14,0,1,71
1.94310,-0.09205,0.10850,0.00000,0.03062,0.97307,-0.18764,2023,6,8,14,0,1,82
1.94320,-0.12705,-0.03150,0.00000,0.03087,0.97563,-0.18995,2023,6,8,14,0,1,94
1.94330,-0.02205,0.03850,0.00000,0.03001,0.97576,-0.18995,2023,6,8,14,0,1,105
1.94340,-0.03955,0.12600,0.00000,0.03062,0.97405,-0.18995,2023,6,8,14,0,1,116
1.94350,0.03045,0.05600,0.00000,0.03074,0.97466,-0.19142,2023,6,8,14,0,1,127
1.94360,0.03045,0.03850,0.00000,0.02952,0.97429,-0.19142,2023,6,8,14,0,1,138
1.94370,-0.05705,0.07350,0.00000,0.03099,0.97624,-0.18983,2023,6,8,14,0,1,149
1.94380,-0.09205,0.12600,0.00000,0.03209,0.97515,-0.19069,2023,6,8,14,0,1,160
1.94390,-0.00455,0.12600,0.00000,0.02977,0.97380,-0.18983,2023,6,8,14,0,1,171
1.94400,0.11795,-0.10150,0.00000,0.02989,0.97368,-0.19142,2023,6,8,14,0,1,182
1.94410,0.25795,-0.04900,0.00000,0.03111,0.97478,-0.19105,2023,6,8,14,0,1,194
1.94420,0.08295,-0.08400,0.00000,0.02904,0.97624,-0.18873,2023,6,8,14,0,1,205
1.94430,-0.14455,0.07350,0.00000,0.03038,0.97722,-0.18861,2023,6,8,14,0,1,216
1.94440,0.01295,0.00350,0.00000,0.03111,0.97649,-0.19032,2023,6,8,14,0,1,227
1.94450,-0.03955,-0.04900,0.00000,0.03257,0.97344,-0.18776,2023,6,8,14,0,1,238
1.94460,-0.09205,0.17850,0.00000,0.03038,0.97624,-0.19191,2023,6,8,14,0,1,249
1.94470,0.15295,0.09100,0.00000,0.03270,0.97417,-0.18715,2023,6,8,14,0,1,260
1.94480,0.01295,0.03850,0.00000,0.03184,0.97490,-0.18568,2023,6,8,14,0,1,271
1.94490,0.03045,0.03850,0.00000,0.03050,0.97698,-0.18812,2023,6,8,14,0,1,282
1.94500,-0.23205,0.26600,0.00000,0.03160,0.97551,-0.18861,2023,6,8,14,0,1,294
1.94510,0.10045,-0.04900,0.00000,0.02965,0.97698,-0.18934,2023,6,8,14,0,1,305
1.94520,-0.03955,-0.11900,0.00000,0.03013,0.97563,-0.19093,2023,6,8,14,0,1,316
1.94530,-0.10955,-0.01400,0.00000,0.03160,0.97368,-0.18983,2023,6,8,14,0,1,327
1.94540,-0.02205,-0.06650,0.00000,0.02843,0.97307,-0.19032,2023,6,8,14,0,1,338
1.94550,0.10045,-0.06650,0.00000,0.02891,0.97515,-0.19069,2023,6,8,14,0,1,349
1.94560,-0.14455,0.03850,0.00000,0.02855,0.97649,-0.18898,2023,6,8,14,0,1,360
1.94570,-0.00455,-0.08400,0.00000,0.03282,0.97527,-0.18971,2023,6,8,14,0,1,371
1.94580,-0.10955,0.16100,0.00000,0.03123,0.97502,-0.18983,2023,6,8,14,0,1,382
1.94590,-0.03955,-0.04900,0.00000,0.03135,0.97478,-0.18886,2023,6,8,14,0,1,394
1.94600,0.11795,-0.08400,0.00000,0.03221,0.97405,-0.18873,2023,6,8,14,0,1,405
1.94610,-0.14455,0.14350,0.00000,0.03123,0.97490,-0.18873,2023,6,8,14,0,1,416
1.94620,-0.14455,0.02100,0.00000,0.02952,0.97563,-0.19008,2023,6,8,14,0,1,427
1.94630,0.13545,-0.27650,0.00000,0.02891,0.97576,-0.18703,2023,6,8,14,0,1,438
1.94640,-0.02205,0.12600,0.00000,0.02940,0.97515,-0.18800,2023,6,8,14,0,1,449
1.94650,-0.00455,0.16100,0.00000,0.03087,0.97515,-0.18556,2023,6,8,14,0,1,460
1.94660,0.06545,-0.06650,0.00000,0.02989,0.97661,-0.18886,2023,6,8,14,0,1,471
1.94670,0.08295,0.12600,0.00000,0.03160,0.97661,-0.18666,2023,6,8,14,0,1,482
1.94680,-0.00455,0.00350,0.00000,0.03184,0.97429,-0.18910,2023,6,8,14,0,1,494
1.94690,0.13545,-0.03150,0.00000,0.02782,0.97490,-0.18776,2023,6,8,14,0,1,505
1.94700,-0.07455,-0.06650,0.00000,0.03050,0.97624,-0.19032,2023,6,8,14,0,1,516
1.94710,0.06545,-0.04900,0.00000,0.02928,0.97502,-0.18727,2023,6,8,14,0,1,527
1.94720,0.08295,-0.13650,0.00000,0.03062,0.97490,-0.18910,2023,6,8,14,0,1,538
1.94730,0.03045,0.19600,0.00000,0.02879,0.97441,-0.18886,2023,6,8,14,0,1,549
1.94740,0.01295,-0.08400,0.00000,0.03111,0.97795,-0.18922,2023,6,8,14,0,1,560
1.94750,0.06545,0.03850,0.00000,0.03050,0.97405,-0.18739,2023,6,8,14,0,1,571
1.94760,-0.00455,-0.04900,0.00000,0.03172,0.97649,-0.18873,2023,6,8,14,0,1,582
1.94770,-0.03955,0.02100,0.00000,0.02940,0.97600,-0.19044,2023,6,8,14,0,1,594
1.94780,0.06545,-0.18900,0.00000,0.03257,0.97527,-0.19081,2023,6,8,14,0,1,605
1.94790,-0.02205,0.03850,0.00000,0.03038,0.97649,-0.19008,2023,6,8,14,0,1,616
1.94800,0.11795,-0.01400,0.00000,0.03135,0.97637,-0.18849,2023,6,8,14,0,1,627
1.94810,-0.10955,0.21350,0.00000,0.03087,0.97515,-0.18995,2023,6,8,14,0,1,638
1.94820,0.15295,-0.17150,0.00000,0.02904,0.97466,-0.19044,2023,6,8,14,0,1,649
1.94830,-0.21455,-0.03150,0.00000,0.02940,0.97527,-0.18922,2023,6,8,14,0,1,660
1.94840,-0.12705,-0.08400,0.00000,0.03074,0.97515,-0.18825,2023,6,8,14,0,1,671
1.94850,0.11795,-0.03150,0.00000,0.03184,0.97527,-0.19117,2023,6,8,14,0,1,682
1.94860,-0.10955,0.00350,0.00000,0.03026,0.97466,-0.19142,2023,6,8,14,0,1,694
1.94870,0.10045,0.07350,0.00000,0.02916,0.97551,-0.18837,2023,6,8,14,0,1,705
1.94880,0.06545,-0.04900,0.00000,0.03087,0.97527,-0.19130,2023,6,8,14,0,1,716
1.94890,-0.16205,0.02100,0.00000,0.02928,0.97539,-0.19117,2023,6,8,14,0,1,727
1.94900,0.13545,-0.11900,0.00000,0.02977,0.97685,-0.19044,2023,6,8,14,0,1,738
1.94910,-0.07455,0.00350,0.00000,0.02940,0.97393,-0.19093,2023,6,8,14,0,1,749
1.94920,0.08295,-0.03150,0.00000,0.03013,0.97856,-0.19117,2023,6,8,14,0,1,760
1.94930,-0.09205,-0.03150,0.00000,0.02867,0.97624,-0.18934,2023,6,8,14,0,1,771
1.94940,0.11795,0.00350,0.00000,0.03050,0.97490,-0.19056,2023,6,8,14,0,1,782
1.94950,0.20545,0.00350,0.00000,0.03257,0.97515,-0.19215,2023,6,8,14,0,1,794
1.94960,-0.05705,-0.03150,0.00000,0.03318,0.97539,-0.18934,2023,6,8,14,0,1,805
1.94970,0.08295,-0.13650,0.00000,0.03001,0.97588,-0.18922,2023,6,8,14,0,1,816
1.94980,-0.00455,0.02100,0.00000,0.03123,0.97673,-0.19081,2023,6,8,14,0,1,827
1.94990,0.01295,0.16100,0.00000,0.03074,0.97673,-0.18995,2023,6,8,14,0,1,838
1.95000,-0.03955,0.14350,0.00000,0.02879,0.97502,-0.18861,2023,6,8,14,0,1,849
1.95010,-0.07455,0.03850,0.00000,0.03257,0.97490,-0.18873,2023,6,8,14,0,1,860
1.95020,0.15295,0.05600,0.00000,0.02965,0.97454,-0.19105,2023,6,8,14,0,1,871
1.95030,-0.02205,0.10850,0.00000,0.02794,0.97441,-0.18995,2023,6,8,14,0,1,882
1.95040,-0.12705,0.07350,0.00000,0.03160,0.97551,-0.18947,2023,6,8,14,0,1,894
1.95050,-0.02205,-0.03150,0.00000,0.02952,0.97454,-0.19020,2023,6,8,14,0,1,905
1.95060,-0.07455,-0.03150,0.00000,0.03038,0.97807,-0.18873,2023,6,8,14,0,1,916
1.95070,-0.09205,0.03850,0.00000,0.03013,0.97588,-0.18800,2023,6,8,14,0,1,927
1.95080,-0.00455,0.05600,0.00000,0.03099,0.97612,-0.18922,2023,6,8,14,0,1,938
1.95090,0.13545,0.02100,0.00000,0.02916,0.97637,-0.18727,2023,6,8,14,0,1,949
1.95100,0.17045,0.03850,0.00000,0.03013,0.97502,-0.18983,2023,6,8,14,0,1,960
1.95110,0.06545,-0.06650,0.00000,0.03148,0.97539,-0.18593,2023,6,8,14,0,1,971
1.95120,0.03045,-0.06650,0.00000,0.02940,0.97405,-0.18715,2023,6,8,14,0,1,982
1.95130,0.17045,0.10850,0.00000,0.03148,0.97612,-0.18898,2023,6,8,14,0,2,4
1.95140,-0.16205,0.09100,0.00000,0.03074,0.97746,-0.18910,2023,6,8,14,0,2,15
1.95150,-0.10955,0.02100,0.00000,0.03111,0.97588,-0.19069,2023,6,8,14,0,2,26
1.95160,-0.14455,0.03850,0.00000,0.03209,0.97551,-0.18788,2023,6,8,14,0,2,37
1.95170,0.10045,-0.17150,0.00000,0.03050,0.97685,-0.18959,2023,6,8,14,0,2,48
1.95180,0.06545,0.03850,0.00000,0.02940,0.97417,-0.19032,2023,6,8,14,0,2,59
1.95190,-0.03955,-0.03150,0.00000,0.03074,0.97478,-0.18800,2023,6,8,14,0,2,70
1.95200,0.06545,0.07350,0.00000,0.02708,0.97368,-0.18886,2023,6,8,14,0,2,81
1.95210,-0.16205,0.23100,0.00000,0.03001,0.97551,-0.18983,2023,6,8,14,0,2,92
1.95220,0.06545,-0.06650,0.00000,0.03026,0.97600,-0.19166,2023,6,8,14,0,2,104
1.95230,-0.12705,0.03850,0.00000,0.03209,0.97624,-0.18861,2023,6,8,14,0,2,115
1.95240,-0.00455,0.23100,0.00000,0.03062,0.97746,-0.18788,2023,6,8,14,0,2,126
1.95250,0.11795,-0.17150,0.00000,0.02830,0.97576,-0.19032,2023,6,8,14,0,2,137
1.95260,-0.05705,-0.04900,0.00000,0.02977,0.97466,-0.18971,2023,6,8,14,0,2,148
1.95270,0.18795,-0.04900,0.00000,0.02965,0.97722,-0.18971,2023,6,8,14,0,2,159
1.95280,-0.14455,-0.10150,0.00000,0.02806,0.97100,-0.18617,2023,6,8,14,0,2,170
1.95290,0.10045,0.17850,0.00000,0.03038,0.98003,-0.18825,2023,6,8,14,0,2,181
1.95300,0.01295,-0.08400,0.00000,0.03148,0.96929,-0.18800,2023,6,8,14,0,2,192
1.95310,-0.05705,-0.08400,0.00000,0.03135,0.98259,-0.19069,2023,6,8,14,0,2,204
1.95320,0.10045,-0.04900,0.00000,0.03294,0.97185,-0.19044,2023,6,8,14,0,2,215
1.95330,-0.03955,0.10850,0.00000,0.03172,0.97563,-0.18776,2023,6,8,14,0,2,226
1.95340,0.08295,0.05600,0.00000,0.02794,0.97624,-0.19008,2023,6,8,14,0,2,237
1.95350,0.08295,-0.04900,0.00000,0.02928,0.97478,-0.19008,2023,6,8,14,0,2,248
1.95360,0.17045,-0.06650,0.00000,0.03062,0.97405,-0.18654,2023,6,8,14,0,2,259
1.95370,-0.02205,-0.06650,0.00000,0.02879,0.97576,-0.19117,2023,6,8,14,0,2,270
1.95380,-0.02205,0.09100,0.00000,0.02904,0.97185,-0.18898,2023,6,8,14,0,2,281
1.95390,-0.02205,0.03850,0.00000,0.03148,0.97807,-0.19117,2023,6,8,14,0,2,292
1.95400,0.01295,0.03850,0.00000,0.03001,0.97344,-0.19008,2023,6,8,14,0,2,304
1.95410,-0.03955,-0.04900,0.00000,0.03135,0.97698,-0.18898,2023,6,8,14,0,2,315
1.95420,-0.07455,0.23100,0.00000,0.03148,0.97405,-0.18837,2023,6,8,14,0,2,326
1.95430,-0.03955,0.19600,0.00000,0.03099,0.97710,-0.19081,2023,6,8,14,0,2,337
1.95440,0.04795,0.05600,0.00000,0.03221,0.97539,-0.18959,2023,6,8,14,0,2,348
1.95450,-0.00455,0.17850,0.00000,0.03050,0.97515,-0.18995,2023,6,8,14,0,2,359
1.95460,-0.14455,0.12600,0.00000,0.03111,0.97637,-0.18617,2023,6,8,14,0,2,370
1.95470,0.04795,-0.04900,0.00000,0.03172,0.97466,-0.18922,2023,6,8,14,0,2,381
1.95480,-0.00455,0.00350,0.00000,0.03050,0.97527,-0.18812,2023,6,8,14,0,2,392
1.95490,0.03045,-0.03150,0.00000,0.03221,0.97502,-0.19081,2023,6,8,14,0,2,404
1.95500,0.08295,0.03850,0.00000,0.03026,0.97478,-0.18983,2023,6,8,14,0,2,415
1.95510,0.22295,-0.06650,0.00000,0.02769,0.97685,-0.19020,2023,6,8,14,0,2,426
1.95520,0.20545,0.07350,0.00000,0.02989,0.97393,-0.19069,2023,6,8,14,0,2,437
1.95530,-0.02205,-0.06650,0.00000,0.03184,0.97563,-0.19093,2023,6,8,14,0,2,448
1.95540,0.08295,0.16100,0.00000,0.03074,0.97454,-0.18910,2023,6,8,14,0,2,459
1.95550,-0.03955,-0.03150,0.00000,0.03123,0.97820,-0.19093,2023,6,8,14,0,2,470
1.95560,0.08295,-0.10150,0.00000,0.02855,0.97332,-0.18922,2023,6,8,14,0,2,481
1.95570,-0.19705,0.00350,0.00000,0.02904,0.97563,-0.18751,2023,6,8,14,0,2,492
1.95580,-0.09205,-0.11900,0.00000,0.03172,0.97551,-0.19044,2023,6,8,14,0,2,504
1.95590,0.22295,-0.11900,0.00000,0.02843,0.97490,-0.19154,2023,6,8,14,0,2,515
1.95600,-0.16205,0.05600,0.00000,0.02952,0.97905,-0.18739,2023,6,8,14,0,2,526
1.95610,-0.07455,-0.24150,0.00000,0.02940,0.97478,-0.19032,2023,6,8,14,0,2,537
1.95620,-0.14455,0.10850,0.00000,0.03062,0.97466,-0.19081,2023,6,8,14,0,2,548
1.95630,0.01295,-0.03150,0.00000,0.03221,0.97210,-0.18983,2023,6,8,14,0,2,559
1.95640,0.08295,-0.06650,0.00000,0.03392,0.97807,-0.18910,2023,6,8,14,0,2,570
1.95650,0.13545,-0.13650,0.00000,0.03062,0.97356,-0.18971,2023,6,8,14,0,2,581
1.95660,-0.03955,-0.08400,0.00000,0.03087,0.97380,-0.18849,2023,6,8,14,0,2,592
1.95670,0.15295,-0.04900,0.00000,0.03257,0.97588,-0.18959,2023,6,8,14,0,2,604
1.95680,0.17045,-0.06650,0.00000,0.03111,0.97588,-0.18971,2023,6,8,14,0,2,615
1.95690,0.04795,-0.13650,0.00000,0.03148,0.97417,-0.18886,2023,6,8,14,0,2,626
1.95700,-0.10955,0.30100,0.00000,0.03135,0.97673,-0.19020,2023,6,8,14,0,2,637
1.95710,-0.00455,-0.24150,0.00000,0.03050,0.97600,-0.18959,2023,6,8,14,0,2,648
1.95720,0.06545,0.14350,0.00000,0.02977,0.97539,-0.19044,2023,6,8,14,0,2,659
1.95730,0.27545,-0.13650,0.00000,0.02916,0.97637,-0.19069,2023,6,8,14,0,2,670
1.95740,0.01295,0.16100,0.00000,0.03294,0.97551,-0.18849,2023,6,8,14,0,2,681
1.95750,-0.00455,0.16100,0.00000,0.02928,0.97710,-0.18812,2023,6,8,14,0,2,692
1.95760,0.08295,0.07350,0.00000,0.02952,0.97698,-0.19081,2023,6,8,14,0,2,704
1.95770,0.11795,-0.08400,0.00000,0.03148,0.97466,-0.19020,2023,6,8,14,0,2,715
1.95780,-0.10955,0.03850,0.00000,0.02965,0.97563,-0.18861,2023,6,8,14,0,2,726
1.95790,-0.09205,0.10850,0.00000,0.03013,0.97722,-0.18617,2023,6,8,14,0,2,737
1.95800,-0.09205,0.09100,0.00000,0.03135,0.97515,-0.18910,2023,6,8,14,0,2,748
1.95810,-0.00455,0.03850,0.00000,0.03099,0.97417,-0.19020,2023,6,8,14,0,2,759
1.95820,0.03045,-0.04900,0.00000,0.03013,0.97490,-0.19032,2023,6,8,14,0,2,770
1.95830,-0.02205,0.07350,0.00000,0.02830,0.97527,-0.18544,2023,6,8,14,0,2,781
1.95840,0.08295,-0.22400,0.00000,0.03074,0.97612,-0.18886,2023,6,8,14,0,2,792
1.95850,-0.00455,0.02100,0.00000,0.02757,0.97588,-0.18629,2023,6,8,14,0,2,804
1.95860,0.01295,-0.01400,0.00000,0.03184,0.97393,-0.18654,2023,6,8,14,0,2,815
1.95870,0.11795,0.02100,0.00000,0.03013,0.97551,-0.18776,2023,6,8,14,0,2,826
1.95880,-0.07455,0.00350,0.00000,0.03111,0.97502,-0.18812,2023,6,8,14,0,2,837
1.95890,0.08295,0.05600,0.00000,0.02879,0.97527,-0.19044,2023,6,8,14,0,2,848
1.95900,0.13545,-0.03150,0.00000,0.03050,0.97502,-0.18654,2023,6,8,14,0,2,859
1.95910,-0.10955,-0.04900,0.00000,0.03148,0.97380,-0.19056,2023,6,8,14,0,2,870
1.95920,-0.02205,0.00350,0.00000,0.02867,0.97454,-0.18617,2023,6,8,14,0,2,881
1.95930,-0.03955,0.03850,0.00000,0.03074,0.97588,-0.18825,2023,6,8,14,0,2,892
1.95940,0.11795,-0.22400,0.00000,0.03087,0.97551,-0.18690,2023,6,8,14,0,2,904
1.95950,0.01295,0.12600,0.00000,0.02989,0.97685,-0.19008,2023,6,8,14,0,2,915
1.95960,-0.07455,0.16100,0.00000,0.03123,0.97417,-0.19032,2023,6,8,14,0,2,926
1.95970,0.13545,0.05600,0.00000,0.02916,0.97441,-0.18788,2023,6,8,14,0,2,937
1.95980,0.08295,0.02100,0.00000,0.02708,0.97417,-0.18971,2023,6,8,14,0,2,948
1.95990,0.10045,0.14350,0.00000,0.02818,0.97600,-0.18751,2023,6,8,14,0,2,959
1.96000,0.01295,-0.01400,0.00000,0.03062,0.97624,-0.19117,2023,6,8,14,0,2,970
1.96010,0.17045,0.24850,0.00000,0.03074,0.97588,-0.18666,2023,6,8,14,0,2,981
1.96020,0.08295,-0.03150,0.00000,0.03135,0.97600,-0.18995,2023,6,8,14,0,2,992
1.96030,0.04795,-0.08400,0.00000,0.03074,0.97527,-0.18788,2023,6,8,14,0,3,4
1.96040,0.06545,-0.11900,0.00000,0.03160,0.97673,-0.18739,2023,6,8,14,0,3,15
1.96050,-0.14455,0.14350,0.00000,0.03123,0.97600,-0.18629,2023,6,8,14,0,3,26
1.96060,0.18795,-0.04900,0.00000,0.03111,0.97441,-0.19008,2023,6,8,14,0,3,37
1.96070,0.15295,-0.11900,0.00000,0.03050,0.97661,-0.18898,2023,6,8,14,0,3,48
1.96080,0.06545,0.00350,0.00000,0.03160,0.97307,-0.18739,2023,6,8,14,0,3,59
1.96090,0.15295,-0.08400,0.00000,0.03074,0.97466,-0.18690,2023,6,8,14,0,3,70
1.96100,-0.02205,-0.11900,0.00000,0.03135,0.97368,-0.18971,2023,6,8,14,0,3,81
1.96110,0.11795,-0.06650,0.00000,0.03123,0.97576,-0.18751,2023,6,8,14,0,3,92
1.96120,0.01295,0.14350,0.00000,0.03001,0.97661,-0.18678,2023,6,8,14,0,3,104
1.96130,0.11795,-0.20650,0.00000,0.02965,0.97673,-0.18764,2023,6,8,14,0,3,115
1.96140,0.18795,-0.13650,0.00000,0.02855,0.97563,-0.19032,2023,6,8,14,0,3,126
1.96150,0.20545,-0.17150,0.00000,0.02879,0.97698,-0.18898,2023,6,8,14,0,3,137
1.96160,0.11795,-0.18900,0.00000,0.03087,0.97515,-0.18666,2023,6,8,14,0,3,148
1.96170,0.10045,-0.18900,0.00000,0.03001,0.97722,-0.18837,2023,6,8,14,0,3,159
1.96180,0.08295,-0.01400,0.00000,0.03306,0.97576,-0.18983,2023,6,8,14,0,3,170
1.96190,0.03045,-0.06650,0.00000,0.03038,0.97624,-0.18898,2023,6,8,14,0,3,181
1.96200,0.03045,0.00350,0.00000,0.03026,0.97539,-0.18825,2023,6,8,14,0,3,192
1.96210,0.17045,-0.10150,0.00000,0.03087,0.97454,-0.18629,2023,6,8,14,0,3,204
1.96220,-0.05705,0.03850,0.00000,0.03062,0.97673,-0.18690,2023,6,8,14,0,3,215
1.96230,0.04795,-0.22400,0.00000,0.03282,0.97563,-0.18934,2023,6,8,14,0,3,226
1.96240,-0.10955,0.14350,0.00000,0.02855,0.97600,-0.18654,2023,6,8,14,0,3,237
1.96250,0.22295,-0.04900,0.00000,0.03038,0.97807,-0.18727,2023,6,8,14,0,3,248
1.96260,0.06545,0.05600,0.00000,0.02879,0.97637,-0.18812,2023,6,8,14,0,3,259
1.96270,0.08295,0.07350,0.00000,0.02830,0.97502,-0.18788,2023,6,8,14,0,3,270
1.96280,0.01295,0.14350,0.00000,0.03148,0.97502,-0.18715,2023,6,8,14,0,3,281
1.96290,0.22295,-0.03150,0.00000,0.02940,0.97661,-0.18849,2023,6,8,14,0,3,292
1.96300,0.11795,0.12600,0.00000,0.02843,0.97563,-0.18825,2023,6,8,14,0,3,304
1.96310,0.15295,0.12600,0.00000,0.03013,0.97466,-0.18800,2023,6,8,14,0,3,315
1.96320,-0.10955,0.05600,0.00000,0.03062,0.97539,-0.18764,2023,6,8,14,0,3,326
1.96330,0.18795,0.02100,0.00000,0.03074,0.97673,-0.18727,2023,6,8,14,0,3,337
1.96340,0.22295,-0.01400,0.00000,0.02977,0.97624,-0.18910,2023,6,8,14,0,3,348
1.96350,-0.05705,-0.03150,0.00000,0.03111,0.97624,-0.18703,2023,6,8,14,0,3,359
1.96360,0.04795,-0.15400,0.00000,0.03026,0.97612,-0.18837,2023,6,8,14,0,3,370
1.96370,0.11795,0.16100,0.00000,0.03196,0.97368,-0.18934,2023,6,8,14,0,3,381
1.96380,0.06545,-0.11900,0.00000,0.03062,0.97271,-0.18617,2023,6,8,14,0,3,392
1.96390,-0.21455,-0.03150,0.00000,0.03282,0.97832,-0.18898,2023,6,8,14,0,3,404
1.96400,0.22295,-0.04900,0.00000,0.03050,0.97234,-0.18739,2023,6,8,14,0,3,415
1.96410,-0.05705,0.07350,0.00000,0.03099,0.98064,-0.18751,2023,6,8,14,0,3,426
1.96420,0.25795,0.17850,0.00000,0.03209,0.97661,-0.19069,2023,6,8,14,0,3,437
1.96430,-0.05705,0.02100,0.00000,0.03038,0.97649,-0.19056,2023,6,8,14,0,3,448
1.96440,-0.17955,0.02100,0.00000,0.03135,0.97332,-0.18825,2023,6,8,14,0,3,459
1.96450,0.03045,-0.11900,0.00000,0.03026,0.97698,-0.19069,2023,6,8,14,0,3,470
1.96460,0.03045,0.05600,0.00000,0.02965,0.97466,-0.18544,2023,6,8,14,0,3,481
1.96470,-0.00455,0.05600,0.00000,0.03062,0.98015,-0.18800,2023,6,8,14,0,3,492
1.96480,0.03045,-0.15400,0.00000,0.03318,0.97393,-0.18751,2023,6,8,14,0,3,504
1.96490,-0.12705,0.10850,0.00000,0.02879,0.97698,-0.18837,2023,6,8,14,0,3,515
1.96500,-0.02205,-0.04900,0.00000,0.02989,0.97319,-0.18642,2023,6,8,14,0,3,526
1.96510,0.01295,0.09100,0.00000,0.02940,0.96844,-0.18385,2023,6,8,14,0,3,537
1.96520,-0.23205,-0.18900,0.00000,0.03087,0.98186,-0.19105,2023,6,8,14,0,3,548
1.96530,0.36295,-0.18900,0.00000,0.02989,0.97039,-0.18922,2023,6,8,14,0,3,559
1.96540,-0.14455,0.28350,0.00000,0.03135,0.97429,-0.18873,2023,6,8,14,0,3,570
1.96550,0.04795,-0.08400,0.00000,0.03270,0.97942,-0.18690,2023,6,8,14,0,3,581
1.96560,-0.12705,-0.01400,0.00000,0.03074,0.97319,-0.18556,2023,6,8,14,0,3,592
1.96570,0.15295,0.05600,0.00000,0.02928,0.97734,-0.18776,2023,6,8,14,0,3,604
1.96580,0.17045,-0.08400,0.00000,0.03026,0.97527,-0.18898,2023,6,8,14,0,3,615
1.96590,0.11795,-0.17150,0.00000,0.03270,0.97576,-0.18654,2023,6,8,14,0,3,626
1.96600,-0.09205,-0.17150,0.00000,0.02940,0.97771,-0.19020,2023,6,8,14,0,3,637
1.96610,0.13545,-0.17150,0.00000,0.02977,0.97222,-0.18629,2023,6,8,14,0,3,648
1.96620,-0.02205,-0.04900,0.00000,0.03038,0.97893,-0.18605,2023,6,8,14,0,3,659
1.96630,-0.10955,-0.01400,0.00000,0.03062,0.97490,-0.18446,2023,6,8,14,0,3,670
1.96640,-0.05705,0.10850,0.00000,0.03160,0.97124,-0.18690,2023,6,8,14,0,3,681
1.96650,0.13545,0.03850,0.00000,0.03123,0.97844,-0.18971,2023,6,8,14,0,3,692
1.96660,0.10045,-0.10150,0.00000,0.02928,0.97417,-0.18727,2023,6,8,14,0,3,704
1.96670,-0.02205,-0.04900,0.00000,0.03062,0.97783,-0.18727,2023,6,8,14,0,3,715
1.96680,0.08295,-0.03150,0.00000,0.03062,0.97722,-0.19056,2023,6,8,14,0,3,726
1.96690,0.04795,-0.17150,0.00000,0.02989,0.97746,-0.18886,2023,6,8,14,0,3,737
1.96700,-0.00455,0.28350,0.00000,0.02745,0.97234,-0.18861,2023,6,8,14,0,3,748
1.96710,-0.12705,0.03850,0.00000,0.02989,0.97551,-0.18642,2023,6,8,14,0,3,759
1.96720,-0.05705,-0.06650,0.00000,0.03148,0.97600,-0.18947,2023,6,8,14,0,3,770
1.96730,0.03045,0.10850,0.00000,0.02855,0.97661,-0.18825,2023,6,8,14,0,3,781
1.96740,0.13545,0.12600,0.00000,0.03001,0.97576,-0.18983,2023,6,8,14,0,3,792
1.96750,-0.02205,0.16100,0.00000,0.03135,0.97502,-0.18873,2023,6,8,14,0,3,804
1.96760,-0.05705,0.09100,0.00000,0.03026,0.97393,-0.18788,2023,6,8,14,0,3,815
1.96770,0.15295,0.02100,0.00000,0.03050,0.97856,-0.18922,2023,6,8,14,0,3,826
1.96780,0.20545,-0.04900,0.00000,0.03172,0.97429,-0.18873,2023,6,8,14,0,3,837
1.96790,0.10045,-0.18900,0.00000,0.03001,0.97856,-0.19032,2023,6,8,14,0,3,848
1.96800,0.03045,-0.03150,0.00000,0.02952,0.97283,-0.18788,2023,6,8,14,0,3,859
1.96810,-0.02205,-0.08400,0.00000,0.03013,0.97637,-0.18983,2023,6,8,14,0,3,870
1.96820,-0.23205,0.02100,0.00000,0.03160,0.97539,-0.18995,2023,6,8,14,0,3,881
1.96830,-0.09205,-0.01400,0.00000,0.03062,0.97515,-0.18910,2023,6,8,14,0,3,892
1.96840,0.03045,-0.15400,0.00000,0.02806,0.97722,-0.18995,2023,6,8,14,0,3,904
1.96850,0.11795,-0.15400,0.00000,0.02952,0.97551,-0.18727,2023,6,8,14,0,3,915
1.96860,-0.17955,-0.01400,0.00000,0.03209,0.97722,-0.18861,2023,6,8,14,0,3,926
1.96870,0.04795,-0.03150,0.00000,0.02977,0.97551,-0.19020,2023,6,8,14,0,3,937
1.96880,0.08295,-0.24150,0.00000,0.02867,0.97344,-0.18849,2023,6,8,14,0,3,948
1.96890,-0.12705,0.19600,0.00000,0.02965,0.97368,-0.18788,2023,6,8,14,0,3,959
1.96900,0.06545,-0.10150,0.00000,0.02977,0.97698,-0.18873,2023,6,8,14,0,3,970
1.96910,-0.10955,-0.08400,0.00000,0.02879,0.97588,-0.18910,2023,6,8,14,0,3,981
1.96920,0.20545,-0.06650,0.00000,0.03001,0.97624,-0.18812,2023,6,8,14,0,3,992
1.96930,0.13545,-0.01400,0.00000,0.03062,0.97734,-0.18800,2023,6,8,14,0,4,4
1.96940,-0.21455,0.03850,0.00000,0.02940,0.97502,-0.18751,2023,6,8,14,0,4,15
1.96950,-0.05705,-0.13650,0.00000,0.02965,0.97466,-0.18886,2023,6,8,14,0,4,26
1.96960,-0.10955,0.21350,0.00000,0.02977,0.97600,-0.18934,2023,6,8,14,0,4,37
1.96970,-0.00455,-0.01400,0.00000,0.03148,0.97551,-0.18678,2023,6,8,14,0,4,48
1.96980,0.06545,0.00350,0.00000,0.03038,0.97673,-0.18971,2023,6,8,14,0,4,59
1.96990,0.08295,-0.08400,0.00000,0.02928,0.97515,-0.18825,2023,6,8,14,0,4,70
1.97000,0.03045,0.09100,0.00000,0.03013,0.97637,-0.18995,2023,6,8,14,0,4,81
1.97010,-0.10955,0.14350,0.00000,0.03074,0.97539,-0.18703,2023,6,8,14,0,4,92
1.97020,0.03045,0.05600,0.00000,0.02843,0.97332,-0.18910,2023,6,8,14,0,4,104
1.97030,-0.00455,0.09100,0.00000,0.03294,0.97551,-0.18556,2023,6,8,14,0,4,115
1.97040,0.01295,-0.24150,0.00000,0.02721,0.97685,-0.18751,2023,6,8,14,0,4,126
1.97050,-0.00455,0.03850,0.00000,0.03123,0.97673,-0.18886,2023,6,8,14,0,4,137
1.97060,-0.00455,-0.04900,0.00000,0.03196,0.97661,-0.18715,2023,6,8,14,0,4,148
1.97070,0.03045,0.00350,0.00000,0.03148,0.97380,-0.18837,2023,6,8,14,0,4,159
1.97080,0.08295,0.10850,0.00000,0.03233,0.97563,-0.18739,2023,6,8,14,0,4,170
1.97090,0.13545,0.10850,0.00000,0.02989,0.97466,-0.18947,2023,6,8,14,0,4,181
1.97100,0.08295,-0.18900,0.00000,0.03123,0.97637,-0.18812,2023,6,8,14,0,4,192
1.97110,0.08295,0.02100,0.00000,0.03221,0.97319,-0.18825,2023,6,8,14,0,4,204
1.97120,-0.02205,0.07350,0.00000,0.03111,0.97795,-0.19032,2023,6,8,14,0,4,215
1.97130,-0.00455,0.23100,0.00000,0.02928,0.97417,-0.18776,2023,6,8,14,0,4,226
1.97140,0.04795,0.16100,0.00000,0.02965,0.97332,-0.18812,2023,6,8,14,0,4,237
1.97150,0.03045,0.16100,0.00000,0.03026,0.97600,-0.18837,2023,6,8,14,0,4,248
1.97160,0.04795,-0.13650,0.00000,0.02989,0.97624,-0.18764,2023,6,8,14,0,4,259
1.97170,-0.28455,-0.04900,0.00000,0.02952,0.97441,-0.18837,2023,6,8,14,0,4,270
1.97180,-0.00455,0.09100,0.00000,0.02928,0.97612,-0.18995,2023,6,8,14,0,4,281
1.97190,-0.02205,0.02100,0.00000,0.03135,0.97527,-0.18666,2023,6,8,14,0,4,292
1.97200,0.03045,0.17850,0.00000,0.03270,0.97441,-0.19044,2023,6,8,14,0,4,304
1.97210,0.01295,-0.04900,0.00000,0.03062,0.97795,-0.18922,2023,6,8,14,0,4,315
1.97220,0.15295,-0.06650,0.00000,0.02940,0.97612,-0.18788,2023,6,8,14,0,4,326
1.97230,0.03045,0.02100,0.00000,0.03026,0.97454,-0.18947,2023,6,8,14,0,4,337
1.97240,0.06545,-0.24150,0.00000,0.03099,0.97515,-0.18898,2023,6,8,14,0,4,348
1.97250,0.08295,-0.06650,0.00000,0.03013,0.97441,-0.18898,2023,6,8,14,0,4,359
1.97260,-0.00455,-0.13650,0.00000,0.03135,0.97466,-0.18788,2023,6,8,14,0,4,370
1.97270,0.11795,0.12600,0.00000,0.03050,0.97429,-0.18751,2023,6,8,14,0,4,381
1.97280,0.11795,0.16100,0.00000,0.03087,0.97637,-0.18556,2023,6,8,14,0,4,392
1.97290,-0.10955,-0.01400,0.00000,0.02843,0.97576,-0.18605,2023,6,8,14,0,4,404
1.97300,0.11795,-0.11900,0.00000,0.02891,0.97478,-0.18654,2023,6,8,14,0,4,415
1.97310,-0.02205,0.03850,0.00000,0.02989,0.97734,-0.18825,2023,6,8,14,0,4,426
1.97320,-0.00455,-0.10150,0.00000,0.03050,0.97393,-0.18812,2023,6,8,14,0,4,437
1.97330,0.06545,-0.11900,0.00000,0.02916,0.97588,-0.18361,2023,6,8,14,0,4,448
1.97340,0.11795,0.03850,0.00000,0.03172,0.97576,-0.18617,2023,6,8,14,0,4,459
1.97350,-0.03955,0.00350,0.00000,0.03001,0.97478,-0.18703,2023,6,8,14,0,4,470
1.97360,0.10045,-0.10150,0.00000,0.03087,0.97698,-0.18751,2023,6,8,14,0,4,481
1.97370,0.03045,0.14350,0.00000,0.03172,0.97539,-0.18849,2023,6,8,14,0,4,492
1.97380,-0.05705,0.09100,0.00000,0.02904,0.97698,-0.18690,2023,6,8,14,0,4,504
1.97390,-0.00455,-0.10150,0.00000,0.02965,0.97600,-0.18727,2023,6,8,14,0,4,515
1.97400,-0.00455,0.00350,0.00000,0.03074,0.97417,-0.18825,2023,6,8,14,0,4,526
1.97410,0.01295,-0.20650,0.00000,0.03111,0.97417,-0.18544,2023,6,8,14,0,4,537
1.97420,-0.00455,0.14350,0.00000,0.03050,0.97673,-0.18654,2023,6,8,14,0,4,548
1.97430,0.03045,0.07350,0.00000,0.02879,0.97368,-0.18947,2023,6,8,14,0,4,559
1.97440,0.04795,-0.03150,0.00000,0.03099,0.97844,-0.18947,2023,6,8,14,0,4,570
1.97450,-0.00455,0.05600,0.00000,0.03001,0.97588,-0.18849,2023,6,8,14,0,4,581
1.97460,-0.07455,0.12600,0.00000,0.03184,0.97502,-0.18812,2023,6,8,14,0,4,592
1.97470,0.17045,-0.01400,0.00000,0.02891,0.97710,-0.18837,2023,6,8,14,0,4,604
1.97480,0.08295,-0.04900,0.00000,0.02989,0.97612,-0.18727,2023,6,8,14,0,4,615
1.97490,0.04795,0.10850,0.00000,0.03160,0.97527,-0.18849,2023,6,8,14,0,4,626
1.97500,-0.02205,0.10850,0.00000,0.02843,0.97710,-0.18825,2023,6,8,14,0,4,637
1.97510,-0.05705,0.02100,0.00000,0.03135,0.97600,-0.18861,2023,6,8,14,0,4,648
1.97520,0.15295,-0.25900,0.00000,0.03111,0.97319,-0.18922,2023,6,8,14,0,4,659
1.97530,0.06545,-0.03150,0.00000,0.02904,0.97649,-0.18837,2023,6,8,14,0,4,670
1.97540,-0.00455,-0.22400,0.00000,0.02928,0.97673,-0.18849,2023,6,8,14,0,4,681
1.97550,-0.02205,0.30100,0.00000,0.02977,0.97637,-0.18873,2023,6,8,14,0,4,692
1.97560,-0.02205,0.03850,0.00000,0.02867,0.97551,-0.18886,2023,6,8,14,0,4,704
1.97570,0.27545,-0.22400,0.00000,0.03074,0.97319,-0.18605,2023,6,8,14,0,4,715
1.97580,0.10045,-0.31150,0.00000,0.03379,0.97405,-0.18690,2023,6,8,14,0,4,726
1.97590,0.11795,0.00350,0.00000,0.03184,0.97746,-0.18922,2023,6,8,14,0,4,737
1.97600,-0.05705,-0.06650,0.00000,0.03135,0.97551,-0.18727,2023,6,8,14,0,4,748
1.97610,0.04795,-0.18900,0.00000,0.03172,0.97673,-0.18947,2023,6,8,14,0,4,759
1.97620,0.17045,-0.25900,0.00000,0.02904,0.97539,-0.18825,2023,6,8,14,0,4,770
1.97630,0.18795,0.00350,0.00000,0.03148,0.97576,-0.18654,2023,6,8,14,0,4,781
1.97640,0.11795,-0.03150,0.00000,0.03038,0.97295,-0.18959,2023,6,8,14,0,4,792
1.97650,0.10045,-0.04900,0.00000,0.03013,0.97417,-0.18764,2023,6,8,14,0,4,804
1.97660,0.22295,-0.25900,0.00000,0.03050,0.97649,-0.18995,2023,6,8,14,0,4,815
1.97670,0.08295,-0.18900,0.00000,0.03087,0.97502,-0.18617,2023,6,8,14,0,4,826
1.97680,-0.00455,0.03850,0.00000,0.03196,0.97539,-0.18825,2023,6,8,14,0,4,837
1.97690,0.10045,0.02100,0.00000,0.02952,0.97600,-0.18678,2023,6,8,14,0,4,848
1.97700,0.01295,-0.03150,0.00000,0.03148,0.97380,-0.18825,2023,6,8,14,0,4,859
1.97710,0.13545,0.14350,0.00000,0.03026,0.97600,-0.19056,2023,6,8,14,0,4,870
1.97720,0.11795,0.00350,0.00000,0.03099,0.97210,-0.18703,2023,6,8,14,0,4,881
1.97730,-0.19705,0.14350,0.00000,0.02940,0.97649,-0.18861,2023,6,8,14,0,4,892
1.97740,-0.16205,-0.04900,0.00000,0.03160,0.97490,-0.18873,2023,6,8,14,0,4,904
1.97750,0.06545,0.00350,0.00000,0.02843,0.97746,-0.18776,2023,6,8,14,0,4,915
1.97760,0.03045,0.17850,0.00000,0.03148,0.97441,-0.18825,2023,6,8,14,0,4,926
1.97770,-0.02205,0.12600,0.00000,0.03270,0.97771,-0.18776,2023,6,8,14,0,4,937
1.97780,0.06545,-0.04900,0.00000,0.02989,0.97637,-0.18837,2023,6,8,14,0,4,948
1.97790,0.06545,0.12600,0.00000,0.03148,0.97539,-0.19130,2023,6,8,14,0,4,959
1.97800,0.01295,-0.08400,0.00000,0.02891,0.97490,-0.18825,2023,6,8,14,0,4,970
1.97810,-0.03955,-0.03150,0.00000,0.03050,0.97661,-0.18849,2023,6,8,14,0,4,981
1.97820,0.08295,0.16100,0.00000,0.03111,0.97356,-0.18934,2023,6,8,14,0,4,992
1.97830,-0.17955,0.23100,0.00000,0.03062,0.97515,-0.18898,2023,6,8,14,0,5,4
1.97840,-0.02205,0.00350,0.00000,0.02794,0.97417,-0.19056,2023,6,8,14,0,5,15
1.97850,-0.07455,-0.15400,0.00000,0.03001,0.97649,-0.19020,2023,6,8,14,0,5,26
1.97860,0.08295,0.03850,0.00000,0.03074,0.97746,-0.18983,2023,6,8,14,0,5,37
1.97870,-0.03955,0.21350,0.00000,0.02952,0.97466,-0.18873,2023,6,8,14,0,5,48
1.97880,-0.00455,0.09100,0.00000,0.03050,0.97332,-0.18812,2023,6,8,14,0,5,59
1.97890,-0.02205,0.07350,0.00000,0.03087,0.97600,-0.18934,2023,6,8,14,0,5,70
1.97900,0.10045,-0.29400,0.00000,0.03245,0.97185,-0.18947,2023,6,8,14,0,5,81
1.97910,0.04795,-0.04900,0.00000,0.02952,0.97539,-0.19032,2023,6,8,14,0,5,92
1.97920,-0.14455,-0.03150,0.00000,0.03062,0.97588,-0.18922,2023,6,8,14,0,5,104
1.97930,-0.10955,0.12600,0.00000,0.03123,0.97466,-0.18922,2023,6,8,14,0,5,115
1.97940,0.15295,0.30100,0.00000,0.02904,0.97136,-0.18727,2023,6,8,14,0,5,126
1.97950,-0.00455,0.07350,0.00000,0.03087,0.98844,-0.19227,2023,6,8,14,0,5,137
1.97960,0.20545,-0.08400,0.00000,0.03050,0.96795,-0.18788,2023,6,8,14,0,5,148
1.97970,0.18795,0.03850,0.00000,0.02928,0.97527,-0.19154,2023,6,8,14,0,5,159
1.97980,0.27545,0.02100,0.00000,0.02672,0.97905,-0.18812,2023,6,8,14,0,5,170
1.97990,-0.10955,0.16100,0.00000,0.03050,0.97478,-0.18544,2023,6,8,14,0,5,181
1.98000,-0.16205,0.02100,0.00000,0.03160,0.97673,-0.18739,2023,6,8,14,0,5,192
1.98010,0.18795,0.03850,0.00000,0.02940,0.97856,-0.19422,2023,6,8,14,0,5,204
1.98020,0.22295,0.03850,0.00000,0.03257,0.97197,-0.18520,2023,6,8,14,0,5,215
1.98030,-0.30205,0.10850,0.00000,0.03013,0.97734,-0.18934,2023,6,8,14,0,5,226
1.98040,-0.00455,0.00350,0.00000,0.03172,0.97149,-0.18642,2023,6,8,14,0,5,237
1.98050,-0.00455,0.26600,0.00000,0.02855,0.97746,-0.18788,2023,6,8,14,0,5,248
1.98060,-0.14455,-0.13650,0.00000,0.03099,0.97502,-0.18776,2023,6,8,14,0,5,259
1.98070,-0.16205,0.09100,0.00000,0.02965,0.97429,-0.18837,2023,6,8,14,0,5,270
1.98080,0.06545,-0.04900,0.00000,0.02940,0.97466,-0.18959,2023,6,8,14,0,5,281
1.98090,0.15295,0.10850,0.00000,0.03184,0.97319,-0.18922,2023,6,8,14,0,5,292
1.98100,-0.17955,0.23100,0.00000,0.03245,0.97722,-0.18703,2023,6,8,14,0,5,304
1.98110,0.03045,0.07350,0.00000,0.03111,0.97600,-0.18825,2023,6,8,14,0,5,315
1.98120,0.04795,0.05600,0.00000,0.02965,0.97551,-0.18898,2023,6,8,14,0,5,326
1.98130,0.25795,0.07350,0.00000,0.03038,0.97551,-0.18825,2023,6,8,14,0,5,337
1.98140,-0.16205,-0.01400,0.00000,0.02928,0.97685,-0.18910,2023,6,8,14,0,5,348
1.98150,-0.00455,-0.01400,0.00000,0.03050,0.97368,-0.18910,2023,6,8,14,0,5,359
1.98160,-0.09205,-0.06650,0.00000,0.03013,0.97759,-0.18947,2023,6,8,14,0,5,370
1.98170,-0.09205,-0.04900,0.00000,0.03148,0.97588,-0.18617,2023,6,8,14,0,5,381
1.98180,0.03045,-0.10150,0.00000,0.03184,0.97490,-0.18727,2023,6,8,14,0,5,392
1.98190,-0.09205,0.03850,0.00000,0.03062,0.97405,-0.18910,2023,6,8,14,0,5,404
1.98200,0.01295,-0.13650,0.00000,0.02879,0.97527,-0.18532,2023,6,8,14,0,5,415
1.98210,0.15295,-0.04900,0.00000,0.02867,0.97478,-0.18788,2023,6,8,14,0,5,426
1.98220,-0.23205,0.28350,0.00000,0.03026,0.97637,-0.18873,2023,6,8,14,0,5,437
1.98230,0.15295,0.07350,0.00000,0.02855,0.97563,-0.18825,2023,6,8,14,0,5,448
1.98240,-0.19705,0.14350,0.00000,0.03148,0.97563,-0.19081,2023,6,8,14,0,5,459
1.98250,0.13545,0.03850,0.00000,0.03160,0.97490,-0.18898,2023,6,8,14,0,5,470
1.98260,0.15295,0.02100,0.00000,0.03099,0.97344,-0.18764,2023,6,8,14,0,5,481
1.98270,-0.09205,0.19600,0.00000,0.03099,0.97637,-0.18520,2023,6,8,14,0,5,492
1.98280,-0.00455,-0.04900,0.00000,0.02928,0.97624,-0.18751,2023,6,8,14,0,5,504
1.98290,0.06545,0.00350,0.00000,0.03135,0.97637,-0.18837,2023,6,8,14,0,5,515
1.98300,-0.09205,0.07350,0.00000,0.02928,0.97600,-0.18898,2023,6,8,14,0,5,526
1.98310,-0.09205,0.09100,0.00000,0.03135,0.97429,-0.18788,2023,6,8,14,0,5,537
1.98320,0.13545,0.09100,0.00000,0.03172,0.97673,-0.18751,2023,6,8,14,0,5,548
1.98330,0.20545,-0.03150,0.00000,0.03257,0.97454,-0.18934,2023,6,8,14,0,5,559
1.98340,0.11795,0.10850,0.00000,0.02940,0.97222,-0.18666,2023,6,8,14,0,5,570
1.98350,0.13545,-0.24150,0.00000,0.03135,0.97441,-0.18947,2023,6,8,14,0,5,581
1.98360,-0.05705,0.10850,0.00000,0.03160,0.97746,-0.18605,2023,6,8,14,0,5,592
1.98370,-0.09205,0.12600,0.00000,0.03111,0.97624,-0.18727,2023,6,8,14,0,5,604
1.98380,-0.09205,0.10850,0.00000,0.03111,0.97563,-0.18788,2023,6,8,14,0,5,615
1.98390,0.31045,0.07350,0.00000,0.03148,0.97673,-0.18873,2023,6,8,14,0,5,626
1.98400,0.10045,-0.20650,0.00000,0.03123,0.97673,-0.18739,2023,6,8,14,0,5,637
1.98410,0.22295,0.02100,0.00000,0.03111,0.97820,-0.18617,2023,6,8,14,0,5,648
1.98420,0.13545,-0.18900,0.00000,0.03050,0.97393,-0.18690,2023,6,8,14,0,5,659
1.98430,-0.10955,0.00350,0.00000,0.03038,0.97624,-0.18617,2023,6,8,14,0,5,670
1.98440,0.01295,0.02100,0.00000,0.03306,0.97515,-0.18764,2023,6,8,14,0,5,681
1.98450,0.18795,0.02100,0.00000,0.02989,0.97746,-0.18678,2023,6,8,14,0,5,692
1.98460,-0.30205,0.05600,0.00000,0.03050,0.97502,-0.18703,2023,6,8,14,0,5,704
1.98470,0.04795,-0.03150,0.00000,0.03087,0.97490,-0.18703,2023,6,8,14,0,5,715
1.98480,0.06545,0.14350,0.00000,0.03111,0.97637,-0.18776,2023,6,8,14,0,5,726
1.98490,0.18795,0.05600,0.00000,0.02867,0.97527,-0.18971,2023,6,8,14,0,5,737
1.98500,0.04795,0.07350,0.00000,0.02965,0.97551,-0.18764,2023,6,8,14,0,5,748
1.98510,-0.00455,-0.18900,0.00000,0.02867,0.97661,-0.18800,2023,6,8,14,0,5,759
1.98520,0.15295,0.03850,0.00000,0.02977,0.97637,-0.18776,2023,6,8,14,0,5,770
1.98530,-0.09205,-0.04900,0.00000,0.02855,0.97624,-0.18715,2023,6,8,14,0,5,781
1.98540,0.06545,-0.01400,0.00000,0.03074,0.97588,-0.18861,2023,6,8,14,0,5,792
1.98550,0.04795,0.09100,0.00000,0.02867,0.97624,-0.18678,2023,6,8,14,0,5,804
1.98560,0.18795,0.10850,0.00000,0.03013,0.97698,-0.18715,2023,6,8,14,0,5,815
1.98570,0.01295,-0.03150,0.00000,0.02879,0.97551,-0.18678,2023,6,8,14,0,5,826
1.98580,0.11795,0.07350,0.00000,0.03099,0.97563,-0.18666,2023,6,8,14,0,5,837
1.98590,-0.05705,0.05600,0.00000,0.03001,0.97661,-0.18910,2023,6,8,14,0,5,848
1.98600,0.13545,-0.03150,0.00000,0.03111,0.97490,-0.18751,2023,6,8,14,0,5,859
1.98610,-0.07455,0.03850,0.00000,0.02989,0.97929,-0.18788,2023,6,8,14,0,5,870
1.98620,0.31045,-0.04900,0.00000,0.02904,0.97088,-0.18471,2023,6,8,14,0,5,881
1.98630,-0.03955,0.07350,0.00000,0.03392,0.98149,-0.18690,2023,6,8,14,0,5,892
1.98640,-0.19705,0.02100,0.00000,0.03074,0.97551,-0.18861,2023,6,8,14,0,5,904
1.98650,-0.16205,0.19600,0.00000,0.03050,0.97368,-0.18507,2023,6,8,14,0,5,915
1.98660,0.11795,0.07350,0.00000,0.02977,0.97990,-0.18532,2023,6,8,14,0,5,926
1.98670,0.31045,-0.15400,0.00000,0.03074,0.97490,-0.18544,2023,6,8,14,0,5,937
1.98680,-0.19705,0.02100,0.00000,0.03050,0.97271,-0.18666,2023,6,8,14,0,5,948
1.98690,-0.17955,-0.01400,0.00000,0.03026,0.97820,-0.18971,2023,6,8,14,0,5,959
1.98700,0.22295,0.19600,0.00000,0.03062,0.97685,-0.18837,2023,6,8,14,0,5,970
1.98710,-0.03955,-0.03150,0.00000,0.03001,0.97100,-0.18678,2023,6,8,14,0,6,1
1.98720,-0.02205,-0.10150,0.00000,0.03294,0.97881,-0.18751,2023,6,8,14,0,6,12
1.98730,0.10045,0.05600,0.00000,0.03135,0.97478,-0.18507,2023,6,8,14,0,6,24
1.98740,-0.07455,-0.11900,0.00000,0.03367,0.97759,-0.18764,2023,6,8,14,0,6,35
1.98750,-0.03955,0.10850,0.00000,0.03001,0.97368,-0.18776,2023,6,8,14,0,6,46
1.98760,0.01295,0.31850,0.00000,0.03355,0.97332,-0.18629,2023,6,8,14,0,6,57
1.98770,-0.16205,0.05600,0.00000,0.03038,0.97563,-0.18544,2023,6,8,14,0,6,68
1.98780,0.15295,-0.20650,0.00000,0.03001,0.97759,-0.18873,2023,6,8,14,0,6,79
1.98790,-0.12705,-0.08400,0.00000,0.03050,0.97380,-0.18764,2023,6,8,14,0,6,90
1.98800,0.01295,0.02100,0.00000,0.03038,0.97429,-0.18727,2023,6,8,14,0,6,101
1.98810,-0.03955,-0.06650,0.00000,0.03050,0.97673,-0.18617,2023,6,8,14,0,6,112
1.98820,0.32795,0.12600,0.00000,0.03172,0.97490,-0.18678,2023,6,8,14,0,6,124
1.98830,0.15295,-0.18900,0.00000,0.03355,0.97588,-0.18556,2023,6,8,14,0,6,135
1.98840,-0.00455,0.16100,0.00000,0.03087,0.97600,-0.18556,2023,6,8,14,0,6,146
1.98850,-0.07455,0.09100,0.00000,0.03087,0.97661,-0.18800,2023,6,8,14,0,6,157
1.98860,0.01295,0.03850,0.00000,0.03001,0.97417,-0.18727,2023,6,8,14,0,6,168
1.98870,-0.07455,0.07350,0.00000,0.03026,0.97637,-0.18642,2023,6,8,14,0,6,179
1.98880,0.11795,-0.10150,0.00000,0.02794,0.97576,-0.18642,2023,6,8,14,0,6,190
1.98890,-0.00455,0.00350,0.00000,0.03245,0.97576,-0.18727,2023,6,8,14,0,6,201
1.98900,0.10045,0.21350,0.00000,0.03099,0.97637,-0.18739,2023,6,8,14,0,6,212
1.98910,0.10045,-0.13650,0.00000,0.02904,0.97454,-0.18886,2023,6,8,14,0,6,224
1.98920,0.22295,-0.03150,0.00000,0.02952,0.97441,-0.18690,2023,6,8,14,0,6,235
1.98930,0.04795,-0.03150,0.00000,0.03111,0.97356,-0.18666,2023,6,8,14,0,6,246
1.98940,-0.16205,-0.08400,0.00000,0.03184,0.97856,-0.18593,2023,6,8,14,0,6,257
1.98950,-0.05705,0.28350,0.00000,0.03111,0.97271,-0.18605,2023,6,8,14,0,6,268
1.98960,0.03045,-0.06650,0.00000,0.02757,0.98015,-0.18800,2023,6,8,14,0,6,279
1.98970,0.01295,0.02100,0.00000,0.03087,0.97344,-0.18654,2023,6,8,14,0,6,290
1.98980,0.04795,-0.01400,0.00000,0.03001,0.97844,-0.18642,2023,6,8,14,0,6,301
1.98990,0.11795,-0.08400,0.00000,0.03062,0.97539,-0.18739,2023,6,8,14,0,6,312
1.99000,-0.02205,0.05600,0.00000,0.03013,0.97612,-0.18642,2023,6,8,14,0,6,324
1.99010,-0.14455,0.05600,0.00000,0.02989,0.97502,-0.18703,2023,6,8,14,0,6,335
1.99020,-0.07455,0.21350,0.00000,0.03233,0.97368,-0.18825,2023,6,8,14,0,6,346
1.99030,0.11795,-0.15400,0.00000,0.02928,0.97563,-0.18715,2023,6,8,14,0,6,357
1.99040,-0.03955,0.21350,0.00000,0.03013,0.97673,-0.18507,2023,6,8,14,0,6,368
1.99050,-0.09205,-0.06650,0.00000,0.03001,0.97527,-0.18678,2023,6,8,14,0,6,379
1.99060,0.01295,0.03850,0.00000,0.03087,0.97429,-0.18544,2023,6,8,14,0,6,390
1.99070,0.04795,0.16100,0.00000,0.02830,0.97344,-0.18581,2023,6,8,14,0,6,401
1.99080,-0.02205,0.12600,0.00000,0.03099,0.97637,-0.18739,2023,6,8,14,0,6,412
1.99090,-0.10955,-0.04900,0.00000,0.02867,0.97576,-0.18849,2023,6,8,14,0,6,424
1.99100,0.10045,0.05600,0.00000,0.02855,0.97624,-0.18788,2023,6,8,14,0,6,435
1.99110,0.01295,0.05600,0.00000,0.02965,0.97563,-0.18971,2023,6,8,14,0,6,446
1.99120,0.15295,-0.15400,0.00000,0.03087,0.97661,-0.18751,2023,6,8,14,0,6,457
1.99130,0.01295,-0.11900,0.00000,0.02965,0.97539,-0.18715,2023,6,8,14,0,6,468
1.99140,-0.10955,0.03850,0.00000,0.03270,0.97539,-0.18520,2023,6,8,14,0,6,479
1.99150,-0.10955,-0.01400,0.00000,0.03123,0.97673,-0.18764,2023,6,8,14,0,6,490
1.99160,-0.00455,0.09100,0.00000,0.03172,0.97551,-0.18703,2023,6,8,14,0,6,501
1.99170,-0.33705,0.09100,0.00000,0.02879,0.97356,-0.18739,2023,6,8,14,0,6,512
1.99180,0.03045,0.05600,0.00000,0.02989,0.97490,-0.18751,2023,6,8,14,0,6,524
1.99190,0.01295,-0.01400,0.00000,0.03123,0.97649,-0.18520,2023,6,8,14,0,6,535
1.99200,0.18795,-0.04900,0.00000,0.02977,0.97637,-0.18556,2023,6,8,14,0,6,546
1.99210,0.11795,0.14350,0.00000,0.03343,0.97515,-0.18971,2023,6,8,14,0,6,557
1.99220,-0.03955,0.16100,0.00000,0.03160,0.97454,-0.18947,2023,6,8,14,0,6,568
1.99230,-0.00455,-0.04900,0.00000,0.03087,0.97478,-0.18593,2023,6,8,14,0,6,579
1.99240,-0.00455,-0.10150,0.00000,0.02794,0.97612,-0.18910,2023,6,8,14,0,6,590
1.99250,0.15295,-0.08400,0.00000,0.03087,0.97515,-0.18556,2023,6,8,14,0,6,601
1.99260,-0.03955,0.02100,0.00000,0.03123,0.97576,-0.18568,2023,6,8,14,0,6,612
1.99270,-0.03955,0.14350,0.00000,0.03087,0.97856,-0.18568,2023,6,8,14,0,6,624
1.99280,0.25795,-0.15400,0.00000,0.03013,0.97527,-0.18617,2023,6,8,14,0,6,635
1.99290,0.08295,-0.17150,0.00000,0.02904,0.97600,-0.18788,2023,6,8,14,0,6,646
1.99300,-0.09205,0.10850,0.00000,0.03074,0.97417,-0.18776,2023,6,8,14,0,6,657
1.99310,-0.02205,0.12600,0.00000,0.03001,0.97466,-0.18861,2023,6,8,14,0,6,668
1.99320,0.03045,0.00350,0.00000,0.03123,0.97393,-0.18483,2023,6,8,14,0,6,679
1.99330,0.10045,-0.11900,0.00000,0.03074,0.97563,-0.18642,2023,6,8,14,0,6,690
1.99340,-0.00455,-0.15400,0.00000,0.02940,0.97441,-0.18568,2023,6,8,14,0,6,701
1.99350,0.11795,-0.08400,0.00000,0.03148,0.97210,-0.19130,2023,6,8,14,0,6,712
1.99360,0.04795,-0.03150,0.00000,0.03050,0.97771,-0.19032,2023,6,8,14,0,6,724
1.99370,-0.05705,-0.13650,0.00000,0.03148,0.97002,-0.18434,2023,6,8,14,0,6,735
1.99380,0.03045,-0.01400,0.00000,0.03196,0.97856,-0.18983,2023,6,8,14,0,6,746
1.99390,0.17045,-0.04900,0.00000,0.03001,0.97258,-0.18568,2023,6,8,14,0,6,757
1.99400,-0.03955,-0.06650,0.00000,0.03148,0.97710,-0.18605,2023,6,8,14,0,6,768
1.99410,0.10045,0.02100,0.00000,0.03343,0.97868,-0.18825,2023,6,8,14,0,6,779
1.99420,0.03045,0.07350,0.00000,0.03062,0.97722,-0.18654,2023,6,8,14,0,6,790
1.99430,-0.02205,-0.15400,0.00000,0.03148,0.97612,-0.18483,2023,6,8,14,0,6,801
1.99440,0.01295,-0.01400,0.00000,0.02928,0.97515,-0.18983,2023,6,8,14,0,6,812
1.99450,-0.03955,-0.08400,0.00000,0.03111,0.97307,-0.18703,2023,6,8,14,0,6,824
1.99460,-0.07455,0.09100,0.00000,0.03087,0.97759,-0.19130,2023,6,8,14,0,6,835
1.99470,0.15295,-0.13650,0.00000,0.03148,0.97722,-0.18934,2023,6,8,14,0,6,846
1.99480,-0.14455,0.05600,0.00000,0.02867,0.98112,-0.18629,2023,6,8,14,0,6,857
1.99490,0.32795,-0.01400,0.00000,0.02611,0.97417,-0.19093,2023,6,8,14,0,6,868
1.99500,-0.02205,0.23100,0.00000,0.03135,0.97771,-0.19374,2023,6,8,14,0,6,879
1.99510,0.22295,-0.20650,0.00000,0.02806,0.97356,-0.19032,2023,6,8,14,0,6,890
1.99520,0.17045,-0.13650,0.00000,0.03257,0.97502,-0.18825,2023,6,8,14,0,6,901
1.99530,0.13545,0.05600,0.00000,0.03099,0.97454,-0.18459,2023,6,8,14,0,6,912
1.99540,-0.17955,0.24850,0.00000,0.03099,0.97649,-0.18532,2023,6,8,14,0,6,924
1.99550,-0.21455,0.10850,0.00000,0.03001,0.97661,-0.18568,2023,6,8,14,0,6,935
1.99560,0.08295,-0.11900,0.00000,0.03184,0.97966,-0.18812,2023,6,8,14,0,6,946
1.99570,0.10045,-0.03150,0.00000,0.03026,0.97234,-0.18312,2023,6,8,14,0,6,957
1.99580,0.04795,0.03850,0.00000,0.03257,0.97539,-0.18617,2023,6,8,14,0,6,968
1.99590,-0.03955,-0.03150,0.00000,0.02965,0.97356,-0.18703,2023,6,8,14,0,6,979
1.99600,-0.05705,-0.08400,0.00000,0.02952,0.97502,-0.18837,2023,6,8,14,0,6,990
1.99610,0.01295,0.03850,0.00000,0.02855,0.97466,-0.18751,2023,6,8,14,0,7,1
1.99620,0.04795,0.00350,0.00000,0.03099,0.97649,-0.18776,2023,6,8,14,0,7,12
1.99630,-0.00455,-0.06650,0.00000,0.03074,0.97515,-0.18861,2023,6,8,14,0,7,24
1.99640,0.04795,0.21350,0.00000,0.03074,0.97771,-0.18703,2023,6,8,14,0,7,35
1.99650,0.03045,0.09100,0.00000,0.02965,0.97136,-0.18800,2023,6,8,14,0,7,46
1.99660,-0.07455,-0.01400,0.00000,0.03123,0.97673,-0.19166,2023,6,8,14,0,7,57
1.99670,0.01295,-0.15400,0.00000,0.03245,0.97649,-0.18727,2023,6,8,14,0,7,68
1.99680,-0.12705,-0.11900,0.00000,0.02989,0.97673,-0.18459,2023,6,8,14,0,7,79
1.99690,0.11795,-0.08400,0.00000,0.02977,0.97771,-0.18715,2023,6,8,14,0,7,90
1.99700,0.13545,0.07350,0.00000,0.02916,0.97429,-0.18837,2023,6,8,14,0,7,101
1.99710,-0.02205,0.05600,0.00000,0.02940,0.97527,-0.18642,2023,6,8,14,0,7,112
1.99720,0.03045,0.07350,0.00000,0.03038,0.97576,-0.18605,2023,6,8,14,0,7,124
1.99730,0.06545,0.17850,0.00000,0.03148,0.97832,-0.18800,2023,6,8,14,0,7,135
1.99740,0.03045,0.05600,0.00000,0.03050,0.97624,-0.18568,2023,6,8,14,0,7,146
1.99750,0.04795,-0.04900,0.00000,0.02904,0.97710,-0.18568,2023,6,8,14,0,7,157
1.99760,-0.14455,0.16100,0.00000,0.03257,0.97673,-0.18629,2023,6,8,14,0,7,168
1.99770,0.06545,0.02100,0.00000,0.02891,0.97478,-0.18690,2023,6,8,14,0,7,179
1.99780,-0.00455,-0.10150,0.00000,0.02794,0.97197,-0.18398,2023,6,8,14,0,7,190
1.99790,0.10045,0.00350,0.00000,0.03282,0.98222,-0.19154,2023,6,8,14,0,7,201
1.99800,0.18795,0.02100,0.00000,0.02940,0.97222,-0.18800,2023,6,8,14,0,7,212
1.99810,-0.33705,0.10850,0.00000,0.03050,0.98112,-0.18666,2023,6,8,14,0,7,224
1.99820,-0.12705,0.19600,0.00000,0.02928,0.97698,-0.18922,2023,6,8,14,0,7,235
1.99830,0.17045,-0.15400,0.00000,0.03013,0.97161,-0.18507,2023,6,8,14,0,7,246
1.99840,-0.07455,0.17850,0.00000,0.03074,0.97722,-0.18886,2023,6,8,14,0,7,257
1.99850,0.17045,0.12600,0.00000,0.02708,0.96953,-0.18422,2023,6,8,14,0,7,268
1.99860,-0.00455,-0.11900,0.00000,0.03050,0.97490,-0.18361,2023,6,8,14,0,7,279
1.99870,-0.21455,0.05600,0.00000,0.03111,0.98015,-0.18727,2023,6,8,14,0,7,290
1.99880,0.06545,0.09100,0.00000,0.03148,0.97295,-0.18642,2023,6,8,14,0,7,301
1.99890,-0.24955,0.28350,0.00000,0.02916,0.97978,-0.18715,2023,6,8,14,0,7,312
1.99900,-0.09205,0.12600,0.00000,0.03050,0.97441,-0.18825,2023,6,8,14,0,7,324
1.99910,0.08295,0.19600,0.00000,0.02721,0.97454,-0.18861,2023,6,8,14,0,7,335
1.99920,-0.07455,0.00350,0.00000,0.02843,0.97576,-0.18751,2023,6,8,14,0,7,346
1.99930,-0.07455,0.12600,0.00000,0.03074,0.98003,-0.18727,2023,6,8,14,0,7,357
1.99940,0.13545,0.10850,0.00000,0.03221,0.97905,-0.18751,2023,6,8,14,0,7,368
1.99950,0.11795,0.09100,0.00000,0.03099,0.98198,-0.19203,2023,6,8,14,0,7,379
1.99960,0.10045,-0.15400,0.00000,0.02818,0.96978,-0.18849,2023,6,8,14,0,7,390
1.99970,0.08295,0.05600,0.00000,0.03221,0.97490,-0.18873,2023,6,8,14,0,7,401
1.99980,-0.00455,-0.11900,0.00000,0.03099,0.97332,-0.18434,2023,6,8,14,0,7,412
1.99990,-0.00455,-0.01400,0.00000,0.02989,0.98210,-0.18812,2023,6,8,14,0,7,424
2.00000,0.17045,-0.13650,0.00000,0.02952,0.97417,-0.18678,2023,6,8,14,0,7,435
2.00010,0.04795,0.02100,0.00000,0.02806,0.97332,-0.18642,2023,6,8,14,0,7,446
2.00020,-0.02205,0.03850,0.00000,0.02965,0.97319,-0.18690,2023,6,8,14,0,7,457
2.00030,-0.03955,0.05600,0.00000,0.03184,0.97405,-0.18507,2023,6,8,14,0,7,468
2.00040,-0.14455,0.00350,0.00000,0.02879,0.97588,-0.18825,2023,6,8,14,0,7,479
2.00050,0.31045,-0.10150,0.00000,0.03135,0.97429,-0.18605,2023,6,8,14,0,7,490
2.00060,-0.03955,-0.04900,0.00000,0.02952,0.97490,-0.18507,2023,6,8,14,0,7,501
2.00070,0.04795,-0.17150,0.00000,0.03050,0.97600,-0.18812,2023,6,8,14,0,7,512
2.00080,-0.05705,-0.08400,0.00000,0.03050,0.97698,-0.18410,2023,6,8,14,0,7,524
2.00090,0.03045,-0.03150,0.00000,0.03172,0.97576,-0.18654,2023,6,8,14,0,7,535
2.00100,0.20545,-0.06650,0.00000,0.02867,0.97539,-0.18629,2023,6,8,14,0,7,546
2.00110,0.11795,0.21350,0.00000,0.03013,0.97576,-0.18861,2023,6,8,14,0,7,557
2.00120,-0.12705,-0.06650,0.00000,0.03306,0.97405,-0.18776,2023,6,8,14,0,7,568
2.00130,0.22295,-0.10150,0.00000,0.02989,0.97698,-0.18727,2023,6,8,14,0,7,579
2.00140,-0.02205,-0.06650,0.00000,0.03099,0.97563,-0.18617,2023,6,8,14,0,7,590
2.00150,-0.02205,-0.01400,0.00000,0.02879,0.97637,-0.18715,2023,6,8,14,0,7,601
2.00160,-0.07455,0.02100,0.00000,0.03013,0.97441,-0.18861,2023,6,8,14,0,7,612
2.00170,-0.05705,0.03850,0.00000,0.03221,0.97478,-0.18581,2023,6,8,14,0,7,624
2.00180,-0.14455,-0.08400,0.00000,0.02989,0.97502,-0.18849,2023,6,8,14,0,7,635
2.00190,0.06545,-0.13650,0.00000,0.03135,0.97332,-0.18568,2023,6,8,14,0,7,646
2.00200,-0.00455,0.03850,0.00000,0.02904,0.97771,-0.18678,2023,6,8,14,0,7,657
2.00210,-0.09205,-0.04900,0.00000,0.03001,0.97600,-0.18764,2023,6,8,14,0,7,668
2.00220,-0.00455,0.16100,0.00000,0.02904,0.97624,-0.18751,2023,6,8,14,0,7,679
2.00230,0.01295,0.12600,0.00000,0.03245,0.97197,-0.18471,2023,6,8,14,0,7,690
2.00240,0.27545,-0.06650,0.00000,0.03038,0.98759,-0.19239,2023,6,8,14,0,7,701
2.00250,0.22295,0.09100,0.00000,0.02965,0.95941,-0.18471,2023,6,8,14,0,7,712
2.00260,-0.21455,-0.06650,0.00000,0.03135,0.97466,-0.18703,2023,6,8,14,0,7,724
2.00270,-0.02205,0.02100,0.00000,0.03001,0.96844,-0.18703,2023,6,8,14,0,7,735
2.00280,0.06545,-0.01400,0.00000,0.03331,0.97271,-0.18410,2023,6,8,14,0,7,746
2.00290,-0.14455,0.00350,0.00000,0.03087,0.97795,-0.18690,2023,6,8,14,0,7,757
2.00300,0.22295,0.09100,0.00000,0.02879,0.97478,-0.18825,2023,6,8,14,0,7,768
2.00310,-0.10955,-0.13650,0.00000,0.03074,0.97088,-0.18617,2023,6,8,14,0,7,779
2.00320,-0.16205,0.03850,0.00000,0.03245,0.98271,-0.19008,2023,6,8,14,0,7,790
2.00330,0.15295,-0.08400,0.00000,0.02794,0.96966,-0.18788,2023,6,8,14,0,7,801
2.00340,-0.09205,-0.13650,0.00000,0.03196,0.98186,-0.18910,2023,6,8,14,0,7,812
2.00350,0.06545,0.17850,0.00000,0.02904,0.97307,-0.18593,2023,6,8,14,0,7,824
2.00360,0.04795,-0.03150,0.00000,0.03184,0.97771,-0.18812,2023,6,8,14,0,7,835
2.00370,0.10045,-0.18900,0.00000,0.03123,0.97344,-0.18886,2023,6,8,14,0,7,846
2.00380,0.13545,0.00350,0.00000,0.03087,0.97759,-0.18849,2023,6,8,14,0,7,857
2.00390,0.06545,-0.25900,0.00000,0.03209,0.97185,-0.18471,2023,6,8,14,0,7,868
2.00400,-0.17955,0.03850,0.00000,0.03013,0.97856,-0.18788,2023,6,8,14,0,7,879
2.00410,0.06545,-0.01400,0.00000,0.03001,0.97173,-0.18568,2023,6,8,14,0,7,890
2.00420,0.08295,0.07350,0.00000,0.03074,0.97783,-0.18581,2023,6,8,14,0,7,901
2.00430,-0.07455,-0.10150,0.00000,0.02867,0.97783,-0.18666,2023,6,8,14,0,7,912
2.00440,0.03045,-0.01400,0.00000,0.03148,0.97429,-0.18764,2023,6,8,14,0,7,924
2.00450,-0.17955,-0.04900,0.00000,0.03135,0.97710,-0.18544,2023,6,8,14,0,7,935
2.00460,-0.02205,-0.03150,0.00000,0.03013,0.97710,-0.18593,2023,6,8,14,0,7,946
2.00470,-0.17955,0.10850,0.00000,0.02769,0.97722,-0.18788,2023,6,8,14,0,7,957
2.00480,0.18795,0.16100,0.00000,0.02952,0.97685,-0.18788,2023,6,8,14,0,7,968
2.00490,0.03045,0.05600,0.00000,0.02952,0.97576,-0.18886,2023,6,8,14,0,7,979
2.00500,-0.21455,-0.03150,0.00000,0.03160,0.97551,-0.18617,2023,6,8,14,0,7,990
2.00510,0.10045,-0.04900,0.00000,0.02843,0.97063,-0.18922,2023,6,8,14,0,8,1
2.00520,-0.09205,0.03850,0.00000,0.03013,0.98649,-0.18995,2023,6,8,14,0,8,12
2.00530,0.43295,-0.11900,0.00000,0.03111,0.96331,-0.18715,2023,6,8,14,0,8,24
2.00540,-0.09205,-0.03150,0.00000,0.03123,0.97990,-0.18385,2023,6,8,14,0,8,35
2.00550,-0.07455,0.00350,0.00000,0.03196,0.97698,-0.19032,2023,6,8,14,0,8,46
2.00560,-0.10955,0.00350,0.00000,0.02989,0.97393,-0.18995,2023,6,8,14,0,8,57
2.00570,0.04795,0.07350,0.00000,0.02647,0.97881,-0.18995,2023,6,8,14,0,8,68
2.00580,0.10045,0.03850,0.00000,0.02977,0.97319,-0.18837,2023,6,8,14,0,8,79
2.00590,0.01295,0.00350,0.00000,0.02989,0.97429,-0.18507,2023,6,8,14,0,8,90
2.00600,0.03045,-0.18900,0.00000,0.03184,0.98503,-0.19215,2023,6,8,14,0,8,101
2.00610,0.22295,-0.06650,0.00000,0.02891,0.96209,-0.18837,2023,6,8,14,0,8,112
2.00620,-0.17955,-0.01400,0.00000,0.03123,0.97441,-0.18398,2023,6,8,14,0,8,124
2.00630,-0.02205,0.16100,0.00000,0.03013,0.98539,-0.19435,2023,6,8,14,0,8,135
2.00640,0.43295,-0.11900,0.00000,0.02928,0.97539,-0.19447,2023,6,8,14,0,8,146
2.00650,0.43295,-0.03150,0.00000,0.02952,0.97380,-0.18727,2023,6,8,14,0,8,157
2.00660,-0.30205,0.09100,0.00000,0.03221,0.98015,-0.18690,2023,6,8,14,0,8,168
2.00670,-0.16205,-0.20650,0.00000,0.02940,0.97551,-0.19032,2023,6,8,14,0,8,179
2.00680,0.06545,0.17850,0.00000,0.02794,0.97539,-0.19178,2023,6,8,14,0,8,190
2.00690,0.29295,0.05600,0.00000,0.03184,0.97600,-0.18886,2023,6,8,14,0,8,201
2.00700,0.01295,-0.06650,0.00000,0.03050,0.97149,-0.18727,2023,6,8,14,0,8,212
2.00710,-0.16205,-0.03150,0.00000,0.03038,0.97966,-0.18605,2023,6,8,14,0,8,224
2.00720,-0.12705,0.23100,0.00000,0.03160,0.97673,-0.18812,2023,6,8,14,0,8,235
2.00730,0.22295,-0.08400,0.00000,0.03257,0.97222,-0.18934,2023,6,8,14,0,8,246
2.00740,0.13545,0.00350,0.00000,0.02977,0.97856,-0.19154,2023,6,8,14,0,8,257
2.00750,0.41545,-0.01400,0.00000,0.03135,0.97942,-0.19117,2023,6,8,14,0,8,268
2.00760,0.11795,0.07350,0.00000,0.02989,0.97051,-0.18349,2023,6,8,14,0,8,279
2.00770,-0.30205,-0.04900,0.00000,0.03087,0.98173,-0.18947,2023,6,8,14,0,8,290
2.00780,-0.14455,0.05600,0.00000,0.02830,0.96795,-0.18715,2023,6,8,14,0,8,301
2.00790,0.10045,0.09100,0.00000,0.03367,0.97917,-0.18727,2023,6,8,14,0,8,312
2.00800,0.10045,0.03850,0.00000,0.03013,0.97173,-0.18886,2023,6,8,14,0,8,324
2.00810,-0.02205,0.07350,0.00000,0.03245,0.97612,-0.19081,2023,6,8,14,0,8,335
2.00820,-0.14455,0.12600,0.00000,0.02843,0.96917,-0.18605,2023,6,8,14,0,8,346
2.00830,0.01295,0.07350,0.00000,0.03087,0.97807,-0.19117,2023,6,8,14,0,8,357
2.00840,-0.00455,0.19600,0.00000,0.03001,0.97368,-0.18849,2023,6,8,14,0,8,368
2.00850,-0.10955,0.26600,0.00000,0.03050,0.97759,-0.18617,2023,6,8,14,0,8,379
2.00860,-0.05705,0.05600,0.00000,0.03111,0.97405,-0.18886,2023,6,8,14,0,8,390
2.00870,0.03045,0.09100,0.00000,0.03026,0.97490,-0.18654,2023,6,8,14,0,8,401
2.00880,0.22295,-0.01400,0.00000,0.03074,0.97319,-0.18690,2023,6,8,14,0,8,412
2.00890,0.08295,-0.15400,0.00000,0.02965,0.97783,-0.18849,2023,6,8,14,0,8,424
2.00900,0.13545,-0.17150,0.00000,0.03160,0.97527,-0.18971,2023,6,8,14,0,8,435
2.00910,0.18795,0.00350,0.00000,0.02952,0.97661,-0.18959,2023,6,8,14,0,8,446
2.00920,0.01295,0.21350,0.00000,0.03001,0.97307,-0.18678,2023,6,8,14,0,8,457
2.00930,0.01295,0.21350,0.00000,0.03074,0.97417,-0.18593,2023,6,8,14,0,8,468
2.00940,-0.03955,-0.06650,0.00000,0.03074,0.97563,-0.18898,2023,6,8,14,0,8,479
2.00950,0.15295,0.19600,0.00000,0.02989,0.97478,-0.18959,2023,6,8,14,0,8,490
2.00960,-0.26705,0.09100,0.00000,0.03233,0.97563,-0.18886,2023,6,8,14,0,8,501
2.00970,0.04795,-0.04900,0.00000,0.02879,0.97466,-0.18849,2023,6,8,14,0,8,512
2.00980,0.24045,-0.01400,0.00000,0.03148,0.97380,-0.18812,2023,6,8,14,0,8,524
2.00990,-0.02205,-0.03150,0.00000,0.03074,0.97478,-0.18715,2023,6,8,14,0,8,535
2.01000,0.04795,0.02100,0.00000,0.02989,0.97673,-0.18861,2023,6,8,14,0,8,546
2.01010,0.10045,0.02100,0.00000,0.03245,0.97051,-0.18568,2023,6,8,14,0,8,557
2.01020,-0.09205,0.00350,0.00000,0.02940,0.97917,-0.18800,2023,6,8,14,0,8,568
2.01030,-0.07455,-0.10150,0.00000,0.02952,0.97393,-0.18727,2023,6,8,14,0,8,579
2.01040,0.13545,0.07350,0.00000,0.03001,0.97624,-0.18593,2023,6,8,14,0,8,590
2.01050,0.22295,-0.11900,0.00000,0.03087,0.97624,-0.18873,2023,6,8,14,0,8,601
2.01060,-0.00455,-0.15400,0.00000,0.03160,0.97271,-0.18678,2023,6,8,14,0,8,612
2.01070,0.01295,0.09100,0.00000,0.03074,0.97515,-0.18971,2023,6,8,14,0,8,624
2.01080,-0.28455,0.24850,0.00000,0.03026,0.97551,-0.18812,2023,6,8,14,0,8,635
2.01090,0.03045,-0.08400,0.00000,0.03172,0.97624,-0.18886,2023,6,8,14,0,8,646
2.01100,0.10045,-0.06650,0.00000,0.02977,0.97844,-0.18825,2023,6,8,14,0,8,657
2.01110,0.06545,-0.10150,0.00000,0.03074,0.97344,-0.18934,2023,6,8,14,0,8,668
2.01120,0.06545,0.03850,0.00000,0.03306,0.97527,-0.18837,2023,6,8,14,0,8,679
2.01130,0.20545,0.03850,0.00000,0.03184,0.97295,-0.18825,2023,6,8,14,0,8,690
2.01140,0.04795,-0.03150,0.00000,0.03050,0.97624,-0.18690,2023,6,8,14,0,8,701
2.01150,0.06545,0.10850,0.00000,0.02940,0.97649,-0.18861,2023,6,8,14,0,8,712
2.01160,0.04795,0.14350,0.00000,0.02965,0.97332,-0.18751,2023,6,8,14,0,8,724
2.01170,-0.16205,0.07350,0.00000,0.03245,0.97502,-0.18556,2023,6,8,14,0,8,735
2.01180,-0.02205,0.14350,0.00000,0.03001,0.97795,-0.18690,2023,6,8,14,0,8,746
2.01190,0.01295,0.03850,0.00000,0.03172,0.97539,-0.18825,2023,6,8,14,0,8,757
2.01200,0.06545,0.05600,0.00000,0.03062,0.97576,-0.18593,2023,6,8,14,0,8,768
2.01210,-0.07455,-0.04900,0.00000,0.03209,0.97649,-0.18983,2023,6,8,14,0,8,779
2.01220,-0.03955,0.10850,0.00000,0.03245,0.97515,-0.18812,2023,6,8,14,0,8,790
2.01230,0.03045,-0.01400,0.00000,0.03038,0.97588,-0.18593,2023,6,8,14,0,8,801
2.01240,0.08295,-0.17150,0.00000,0.03087,0.97527,-0.18837,2023,6,8,14,0,8,812
2.01250,-0.30205,0.19600,0.00000,0.03038,0.97466,-0.18959,2023,6,8,14,0,8,824
2.01260,0.13545,-0.03150,0.00000,0.03013,0.97673,-0.18800,2023,6,8,14,0,8,835
2.01270,-0.09205,-0.04900,0.00000,0.03050,0.97576,-0.18837,2023,6,8,14,0,8,846
2.01280,0.04795,0.02100,0.00000,0.02940,0.97637,-0.18873,2023,6,8,14,0,8,857
2.01290,0.01295,0.21350,0.00000,0.03050,0.97319,-0.18849,2023,6,8,14,0,8,868
2.01300,-0.03955,-0.11900,0.00000,0.03160,0.97417,-0.18898,2023,6,8,14,0,8,879
2.01310,-0.02205,0.31850,0.00000,0.03148,0.97551,-0.18910,2023,6,8,14,0,8,890
2.01320,0.39795,-0.17150,0.00000,0.03038,0.97441,-0.18581,2023,6,8,14,0,8,901
2.01330,0.03045,-0.03150,0.00000,0.02891,0.97283,-0.18666,2023,6,8,14,0,8,912
2.01340,0.22295,-0.08400,0.00000,0.03111,0.97551,-0.18886,2023,6,8,14,0,8,924
2.01350,0.01295,0.09100,0.00000,0.03111,0.97612,-0.18764,2023,6,8,14,0,8,935
2.01360,0.10045,-0.08400,0.00000,0.03087,0.97441,-0.18703,2023,6,8,14,0,8,946
2.01370,0.13545,0.21350,0.00000,0.03111,0.97478,-0.18837,2023,6,8,14,0,8,957
2.01380,-0.07455,0.02100,0.00000,0.03123,0.97698,-0.18654,2023,6,8,14,0,8,968
2.01390,0.11795,-0.24150,0.00000,0.02904,0.97478,-0.18788,2023,6,8,14,0,8,979
2.01400,-0.05705,0.26600,0.00000,0.02940,0.97405,-0.18666,2023,6,8,14,0,8,990
2.01410,0.18795,-0.18900,0.00000,0.02904,0.97637,-0.18727,2023,6,8,14,0,9,1
2.01420,0.13545,0.02100,0.00000,0.03074,0.97380,-0.18983,2023,6,8,14,0,9,12
2.01430,0.11795,0.10850,0.00000,0.03001,0.97612,-0.18898,2023,6,8,14,0,9,24
2.01440,0.06545,-0.13650,0.00000,0.03062,0.97417,-0.18861,2023,6,8,14,0,9,35
2.01450,0.06545,-0.03150,0.00000,0.03001,0.97807,-0.18934,2023,6,8,14,0,9,46
2.01460,-0.02205,0.19600,0.00000,0.02989,0.97576,-0.18959,2023,6,8,14,0,9,57
2.01470,-0.02205,0.03850,0.00000,0.03074,0.97563,-0.18666,2023,6,8,14,0,9,68
2.01480,-0.12705,0.05600,0.00000,0.02794,0.96966,-0.18800,2023,6,8,14,0,9,79
2.01490,-0.05705,-0.15400,0.00000,0.03038,0.98234,-0.19044,2023,6,8,14,0,9,90
2.01500,-0.10955,0.12600,0.00000,0.03062,0.97161,-0.18788,2023,6,8,14,0,9,101
2.01510,-0.12705,0.03850,0.00000,0.03245,0.98027,-0.18800,2023,6,8,14,0,9,112
2.01520,0.22295,-0.04900,0.00000,0.02965,0.97197,-0.18751,2023,6,8,14,0,9,124
2.01530,-0.02205,0.00350,0.00000,0.03245,0.97917,-0.18727,2023,6,8,14,0,9,135
2.01540,-0.05705,-0.03150,0.00000,0.02916,0.97539,-0.18703,2023,6,8,14,0,9,146
2.01550,0.22295,-0.13650,0.00000,0.02965,0.97710,-0.18837,2023,6,8,14,0,9,157
2.01560,0.03045,0.05600,0.00000,0.03050,0.97332,-0.18861,2023,6,8,14,0,9,168
2.01570,0.06545,-0.11900,0.00000,0.02843,0.97881,-0.18812,2023,6,8,14,0,9,179
2.01580,-0.05705,0.09100,0.00000,0.03123,0.97234,-0.18715,2023,6,8,14,0,9,190
2.01590,0.10045,-0.13650,0.00000,0.02977,0.97722,-0.18788,2023,6,8,14,0,9,201
2.01600,-0.00455,0.10850,0.00000,0.03233,0.97368,-0.18995,2023,6,8,14,0,9,212
2.01610,0.03045,0.19600,0.00000,0.03099,0.97649,-0.18581,2023,6,8,14,0,9,224
2.01620,0.13545,-0.13650,0.00000,0.03111,0.97844,-0.19032,2023,6,8,14,0,9,235
2.01630,0.13545,-0.08400,0.00000,0.03135,0.97539,-0.18800,2023,6,8,14,0,9,246
2.01640,0.01295,-0.15400,0.00000,0.03172,0.97515,-0.18690,2023,6,8,14,0,9,257
2.01650,0.15295,-0.04900,0.00000,0.03013,0.97600,-0.18886,2023,6,8,14,0,9,268
2.01660,0.04795,-0.10150,0.00000,0.02940,0.98735,-0.18483,2023,6,8,14,0,9,279
2.01670,-0.40705,0.17850,0.00000,0.02940,0.96295,-0.18080,2023,6,8,14,0,9,290
2.01680,-0.58205,-0.15400,0.00000,0.03404,0.99991,-0.19117,2023,6,8,14,0,9,301
2.01690,0.06545,-0.01400,0.00000,0.02782,0.95502,-0.18800,2023,6,8,14,0,9,312
2.01700,-0.02205,-0.03150,0.00000,0.03172,0.99332,-0.19288,2023,6,8,14,0,9,324
2.01710,-0.00455,-0.06650,0.00000,0.03135,0.96539,-0.18349,2023,6,8,14,0,9,335
2.01720,0.01295,-0.27650,0.00000,0.03099,0.98161,-0.18483,2023,6,8,14,0,9,346
2.01730,-0.24955,-0.03150,0.00000,0.02952,0.97332,-0.18934,2023,6,8,14,0,9,357
2.01740,0.18795,0.10850,0.00000,0.03038,0.97649,-0.19105,2023,6,8,14,0,9,368
2.01750,-0.00455,-0.03150,0.00000,0.03111,0.96978,-0.18495,2023,6,8,14,0,9,379
2.01760,-0.17955,0.07350,0.00000,0.02904,0.98003,-0.18947,2023,6,8,14,0,9,390
2.01770,0.01295,-0.03150,0.00000,0.03074,0.96990,-0.18642,2023,6,8,14,0,9,401
2.01780,0.18795,0.02100,0.00000,0.03038,0.97990,-0.19093,2023,6,8,14,0,9,412
2.01790,0.13545,0.02100,0.00000,0.02855,0.97380,-0.18837,2023,6,8,14,0,9,424
2.01800,0.01295,-0.13650,0.00000,0.03270,0.97661,-0.18947,2023,6,8,14,0,9,435
2.01810,0.03045,-0.27650,0.00000,0.03148,0.97624,-0.18849,2023,6,8,14,0,9,446
2.01820,0.06545,0.05600,0.00000,0.03172,0.97368,-0.18690,2023,6,8,14,0,9,457
2.01830,-0.07455,0.14350,0.00000,0.02965,0.97319,-0.18971,2023,6,8,14,0,9,468
2.01840,-0.00455,0.23100,0.00000,0.03209,0.97673,-0.18861,2023,6,8,14,0,9,479
2.01850,0.04795,0.03850,0.00000,0.02928,0.97417,-0.18751,2023,6,8,14,0,9,490
2.01860,-0.07455,0.26600,0.00000,0.02782,0.97393,-0.18812,2023,6,8,14,0,9,501
2.01870,-0.09205,-0.10150,0.00000,0.03038,0.97685,-0.18922,2023,6,8,14,0,9,512
2.01880,0.20545,0.14350,0.00000,0.02843,0.97637,-0.18788,2023,6,8,14,0,9,524
2.01890,0.20545,-0.11900,0.00000,0.02904,0.97551,-0.18751,2023,6,8,14,0,9,535
2.01900,-0.12705,0.28350,0.00000,0.03160,0.97515,-0.18849,2023,6,8,14,0,9,546
2.01910,0.04795,-0.08400,0.00000,0.03099,0.97661,-0.18727,2023,6,8,14,0,9,557
2.01920,-0.02205,0.03850,0.00000,0.03148,0.97539,-0.18556,2023,6,8,14,0,9,568
2.01930,0.11795,-0.11900,0.00000,0.03050,0.97173,-0.18520,2023,6,8,14,0,9,579
2.01940,0.04795,-0.03150,0.00000,0.03074,0.97795,-0.18898,2023,6,8,14,0,9,590
2.01950,0.03045,-0.04900,0.00000,0.02843,0.97271,-0.18837,2023,6,8,14,0,9,601
2.01960,0.15295,-0.27650,0.00000,0.03160,0.97954,-0.18922,2023,6,8,14,0,9,612
2.01970,0.27545,-0.36400,0.00000,0.02867,0.97466,-0.18861,2023,6,8,14,0,9,624
2.01980,0.11795,-0.08400,0.00000,0.03209,0.97576,-0.18788,2023,6,8,14,0,9,635
2.01990,-0.00455,0.21350,0.00000,0.03087,0.97551,-0.19117,2023,6,8,14,0,9,646
2.02000,0.01295,-0.04900,0.00000,0.03050,0.97429,-0.18788,2023,6,8,14,0,9,657
2.02010,0.01295,-0.15400,0.00000,0.03026,0.97429,-0.18910,2023,6,8,14,0,9,668
2.02020,0.15295,0.16100,0.00000,0.02928,0.97710,-0.18873,2023,6,8,14,0,9,679
2.02030,0.18795,0.05600,0.00000,0.03062,0.97624,-0.18898,2023,6,8,14,0,9,690
2.02040,0.08295,0.03850,0.00000,0.03050,0.97588,-0.18873,2023,6,8,14,0,9,701
2.02050,0.01295,0.07350,0.00000,0.03062,0.97588,-0.18910,2023,6,8,14,0,9,712
2.02060,-0.12705,-0.10150,0.00000,0.03331,0.97576,-0.19044,2023,6,8,14,0,9,724
2.02070,-0.10955,-0.06650,0.00000,0.03111,0.97563,-0.18971,2023,6,8,14,0,9,735
2.02080,0.13545,-0.06650,0.00000,0.03001,0.97600,-0.18983,2023,6,8,14,0,9,746
2.02090,0.01295,-0.10150,0.00000,0.02879,0.97466,-0.18886,2023,6,8,14,0,9,757
2.02100,0.03045,-0.08400,0.00000,0.02843,0.97478,-0.18873,2023,6,8,14,0,9,768
2.02110,0.04795,0.09100,0.00000,0.02952,0.97441,-0.18971,2023,6,8,14,0,9,779
2.02120,-0.03955,0.12600,0.00000,0.03062,0.97624,-0.18861,2023,6,8,14,0,9,790
2.02130,0.11795,-0.13650,0.00000,0.03074,0.97649,-0.18715,2023,6,8,14,0,9,801
2.02140,0.06545,0.10850,0.00000,0.03111,0.97612,-0.18812,2023,6,8,14,0,9,812
2.02150,-0.12705,0.30100,0.00000,0.03196,0.97966,-0.19032,2023,6,8,14,0,9,824
2.02160,-0.07455,-0.06650,0.00000,0.03038,0.97405,-0.19008,2023,6,8,14,0,9,835
2.02170,0.06545,-0.08400,0.00000,0.03099,0.97454,-0.19008,2023,6,8,14,0,9,846
2.02180,0.03045,0.02100,0.00000,0.02928,0.97539,-0.18788,2023,6,8,14,0,9,857
2.02190,0.08295,-0.11900,0.00000,0.03087,0.97258,-0.18971,2023,6,8,14,0,9,868
2.02200,0.10045,0.00350,0.00000,0.02989,0.97637,-0.18825,2023,6,8,14,0,9,879
2.02210,0.11795,0.07350,0.00000,0.03123,0.97661,-0.18922,2023,6,8,14,0,9,890
2.02220,-0.03955,-0.06650,0.00000,0.03160,0.97454,-0.18727,2023,6,8,14,0,9,901
2.02230,-0.00455,-0.13650,0.00000,0.03062,0.97661,-0.18751,2023,6,8,14,0,9,912
2.02240,0.17045,-0.01400,0.00000,0.03062,0.97405,-0.18654,2023,6,8,14,0,9,924
2.02250,0.08295,0.09100,0.00000,0.03245,0.97197,-0.18959,2023,6,8,14,0,9,935
2.02260,0.08295,-0.08400,0.00000,0.02940,0.97600,-0.18727,2023,6,8,14,0,9,946
2.02270,-0.07455,0.12600,0.00000,0.02965,0.97698,-0.18886,2023,6,8,14,0,9,957
2.02280,0.20545,-0.10150,0.00000,0.03184,0.97807,-0.18764,2023,6,8,14,0,9,968
2.02290,0.01295,0.02100,0.00000,0.03221,0.97332,-0.18642,2023,6,8,14,0,9,979
2.02300,-0.10955,-0.15400,0.00000,0.02733,0.97271,-0.18886,2023,6,8,14,0,10,0
2.02310,-0.07455,0.00350,0.00000,0.03135,0.97551,-0.18788,2023,6,8,14,0,10,11
2.02320,0.06545,0.09100,0.00000,0.03001,0.97588,-0.18825,2023,6,8,14,0,10,22
2.02330,-0.14455,0.37100,0.00000,0.03087,0.97661,-0.18581,2023,6,8,14,0,10,34
2.02340,-0.00455,-0.08400,0.00000,0.02928,0.97795,-0.18788,2023,6,8,14,0,10,45
2.02350,-0.09205,-0.15400,0.00000,0.03013,0.97771,-0.18520,2023,6,8,14,0,10,56
2.02360,0.15295,-0.20650,0.00000,0.03245,0.97515,-0.18739,2023,6,8,14,0,10,67
2.02370,-0.19705,0.07350,0.00000,0.03087,0.97624,-0.18849,2023,6,8,14,0,10,78
2.02380,0.06545,-0.01400,0.00000,0.03001,0.97673,-0.18910,2023,6,8,14,0,10,89
2.02390,0.08295,0.03850,0.00000,0.03111,0.97600,-0.18703,2023,6,8,14,0,10,100
2.02400,0.20545,0.10850,0.00000,0.02879,0.97502,-0.18642,2023,6,8,14,0,10,111
2.02410,-0.05705,0.09100,0.00000,0.02867,0.97405,-0.18764,2023,6,8,14,0,10,122
2.02420,0.13545,-0.08400,0.00000,0.03001,0.97710,-0.18825,2023,6,8,14,0,10,134
2.02430,-0.05705,0.02100,0.00000,0.03013,0.97637,-0.18800,2023,6,8,14,0,10,145
2.02440,0.03045,-0.13650,0.00000,0.03160,0.97661,-0.18947,2023,6,8,14,0,10,156
2.02450,-0.03955,-0.04900,0.00000,0.03013,0.97539,-0.18617,2023,6,8,14,0,10,167
2.02460,0.01295,0.07350,0.00000,0.03416,0.97466,-0.18544,2023,6,8,14,0,10,178
2.02470,0.17045,-0.15400,0.00000,0.02989,0.97332,-0.18690,2023,6,8,14,0,10,189
2.02480,0.01295,-0.24150,0.00000,0.02867,0.97258,-0.19020,2023,6,8,14,0,10,200
2.02490,-0.02205,0.00350,0.00000,0.02879,0.97759,-0.18861,2023,6,8,14,0,10,211
2.02500,0.04795,-0.15400,0.00000,0.03050,0.97478,-0.18666,2023,6,8,14,0,10,222
2.02510,0.01295,-0.06650,0.00000,0.02782,0.97478,-0.18922,2023,6,8,14,0,10,234
2.02520,0.08295,-0.15400,0.00000,0.03209,0.97466,-0.18812,2023,6,8,14,0,10,245
2.02530,-0.12705,0.09100,0.00000,0.03062,0.97612,-0.18678,2023,6,8,14,0,10,256
2.02540,0.01295,0.19600,0.00000,0.03026,0.97478,-0.18910,2023,6,8,14,0,10,267
2.02550,0.13545,0.16100,0.00000,0.03099,0.97673,-0.18825,2023,6,8,14,0,10,278
2.02560,0.10045,0.12600,0.00000,0.02879,0.97502,-0.18764,2023,6,8,14,0,10,289
2.02570,-0.02205,0.03850,0.00000,0.03050,0.97478,-0.18739,2023,6,8,14,0,10,300
2.02580,-0.05705,-0.03150,0.00000,0.03038,0.97685,-0.18971,2023,6,8,14,0,10,311
2.02590,0.08295,-0.08400,0.00000,0.02904,0.97612,-0.18800,2023,6,8,14,0,10,322
2.02600,0.13545,-0.01400,0.00000,0.03050,0.97380,-0.18922,2023,6,8,14,0,10,334
2.02610,0.13545,0.03850,0.00000,0.02940,0.97429,-0.18934,2023,6,8,14,0,10,345
2.02620,0.06545,0.02100,0.00000,0.03038,0.97673,-0.18849,2023,6,8,14,0,10,356
2.02630,0.08295,-0.06650,0.00000,0.03257,0.97624,-0.19056,2023,6,8,14,0,10,367
2.02640,-0.05705,-0.13650,0.00000,0.03148,0.97454,-0.19044,2023,6,8,14,0,10,378
2.02650,-0.02205,0.07350,0.00000,0.02940,0.97319,-0.18812,2023,6,8,14,0,10,389
2.02660,0.04795,0.03850,0.00000,0.02867,0.97344,-0.18898,2023,6,8,14,0,10,400
2.02670,-0.07455,0.12600,0.00000,0.03111,0.97490,-0.18971,2023,6,8,14,0,10,411
2.02680,0.03045,-0.11900,0.00000,0.03062,0.97698,-0.18910,2023,6,8,14,0,10,422
2.02690,-0.05705,0.14350,0.00000,0.03111,0.97673,-0.18776,2023,6,8,14,0,10,434
2.02700,-0.03955,0.23100,0.00000,0.03233,0.97490,-0.18812,2023,6,8,14,0,10,445
2.02710,-0.03955,0.00350,0.00000,0.02830,0.97637,-0.18837,2023,6,8,14,0,10,456
2.02720,-0.03955,0.23100,0.00000,0.03038,0.97661,-0.18934,2023,6,8,14,0,10,467
2.02730,-0.10955,0.02100,0.00000,0.03123,0.97624,-0.18995,2023,6,8,14,0,10,478
2.02740,-0.00455,0.07350,0.00000,0.03050,0.97624,-0.19032,2023,6,8,14,0,10,489
2.02750,-0.07455,0.09100,0.00000,0.03221,0.97429,-0.18947,2023,6,8,14,0,10,500
2.02760,-0.00455,0.02100,0.00000,0.03050,0.97551,-0.18873,2023,6,8,14,0,10,511
2.02770,-0.14455,0.12600,0.00000,0.03111,0.97405,-0.18532,2023,6,8,14,0,10,522
2.02780,0.06545,-0.01400,0.00000,0.03013,0.97612,-0.18739,2023,6,8,14,0,10,534
2.02790,0.08295,0.12600,0.00000,0.03013,0.97441,-0.18825,2023,6,8,14,0,10,545
2.02800,-0.09205,0.00350,0.00000,0.03270,0.97600,-0.18947,2023,6,8,14,0,10,556
2.02810,0.08295,-0.15400,0.00000,0.02916,0.97502,-0.18812,2023,6,8,14,0,10,567
2.02820,0.10045,0.02100,0.00000,0.02928,0.97722,-0.18654,2023,6,8,14,0,10,578
2.02830,0.18795,0.10850,0.00000,0.02867,0.97746,-0.18727,2023,6,8,14,0,10,589
2.02840,0.10045,-0.01400,0.00000,0.03026,0.97502,-0.18849,2023,6,8,14,0,10,600
2.02850,-0.09205,0.05600,0.00000,0.03001,0.97551,-0.18446,2023,6,8,14,0,10,611
2.02860,0.03045,0.09100,0.00000,0.02928,0.97685,-0.18873,2023,6,8,14,0,10,622
2.02870,-0.16205,-0.01400,0.00000,0.03038,0.97332,-0.18739,2023,6,8,14,0,10,634
2.02880,0.03045,0.17850,0.00000,0.03026,0.97649,-0.18654,2023,6,8,14,0,10,645
2.02890,0.06545,0.02100,0.00000,0.03087,0.97734,-0.18715,2023,6,8,14,0,10,656
2.02900,0.03045,0.00350,0.00000,0.03196,0.97380,-0.18690,2023,6,8,14,0,10,667
2.02910,-0.02205,0.07350,0.00000,0.03074,0.97368,-0.18922,2023,6,8,14,0,10,678
2.02920,-0.12705,0.12600,0.00000,0.03148,0.97344,-0.18898,2023,6,8,14,0,10,689
2.02930,0.08295,0.07350,0.00000,0.03099,0.97515,-0.18910,2023,6,8,14,0,10,700
2.02940,-0.03955,0.00350,0.00000,0.02904,0.97576,-0.18837,2023,6,8,14,0,10,711
2.02950,0.13545,0.02100,0.00000,0.03111,0.97368,-0.19020,2023,6,8,14,0,10,722
2.02960,-0.09205,-0.10150,0.00000,0.03062,0.97490,-0.18703,2023,6,8,14,0,10,734
2.02970,-0.10955,0.17850,0.00000,0.03038,0.97576,-0.18910,2023,6,8,14,0,10,745
2.02980,0.11795,-0.13650,0.00000,0.02891,0.97490,-0.18886,2023,6,8,14,0,10,756
2.02990,-0.02205,-0.08400,0.00000,0.03087,0.97624,-0.18922,2023,6,8,14,0,10,767
2.03000,0.06545,0.10850,0.00000,0.02733,0.97429,-0.18739,2023,6,8,14,0,10,778
2.03010,0.10045,-0.03150,0.00000,0.03209,0.97441,-0.18959,2023,6,8,14,0,10,789
2.03020,-0.00455,-0.15400,0.00000,0.03196,0.97368,-0.18886,2023,6,8,14,0,10,800
2.03030,-0.05705,0.05600,0.00000,0.03050,0.97746,-0.18922,2023,6,8,14,0,10,811
2.03040,-0.16205,0.14350,0.00000,0.02904,0.97466,-0.18812,2023,6,8,14,0,10,822
2.03050,-0.02205,-0.11900,0.00000,0.03062,0.97588,-0.18959,2023,6,8,14,0,10,834
2.03060,0.20545,-0.01400,0.00000,0.03074,0.97710,-0.18703,2023,6,8,14,0,10,845
2.03070,-0.02205,0.16100,0.00000,0.03013,0.97539,-0.18959,2023,6,8,14,0,10,856
2.03080,0.11795,-0.04900,0.00000,0.03026,0.97588,-0.19056,2023,6,8,14,0,10,867
2.03090,-0.09205,0.07350,0.00000,0.03099,0.97673,-0.18873,2023,6,8,14,0,10,878
2.03100,0.15295,0.17850,0.00000,0.02977,0.97380,-0.19056,2023,6,8,14,0,10,889
2.03110,0.04795,-0.15400,0.00000,0.03099,0.97539,-0.18825,2023,6,8,14,0,10,900
2.03120,0.10045,0.10850,0.00000,0.03282,0.97734,-0.18971,2023,6,8,14,0,10,911
2.03130,0.04795,-0.20650,0.00000,0.03172,0.97417,-0.18776,2023,6,8,14,0,10,922
2.03140,0.03045,-0.01400,0.00000,0.03111,0.97466,-0.18983,2023,6,8,14,0,10,934
2.03150,-0.09205,-0.11900,0.00000,0.02879,0.97722,-0.19008,2023,6,8,14,0,10,945
2.03160,0.29295,0.09100,0.00000,0.03123,0.97710,-0.18764,2023,6,8,14,0,10,956
2.03170,-0.05705,0.09100,0.00000,0.02952,0.97502,-0.19081,2023,6,8,14,0,10,967
2.03180,0.03045,0.16100,0.00000,0.03148,0.97441,-0.18654,2023,6,8,14,0,10,978
2.03190,-0.03955,-0.03150,0.00000,0.03013,0.97746,-0.18934,2023,6,8,14,0,10,989
2.03200,-0.02205,0.16100,0.00000,0.03270,0.97502,-0.18837,2023,6,8,14,0,11,0
2.03210,0.20545,-0.06650,0.00000,0.03001,0.97551,-0.18922,2023,6,8,14,0,11,11
2.03220,0.10045,-0.04900,0.00000,0.03111,0.97624,-0.18886,2023,6,8,14,0,11,22
2.03230,0.06545,0.02100,0.00000,0.02879,0.97332,-0.18849,2023,6,8,14,0,11,34
2.03240,0.01295,0.09100,0.00000,0.03233,0.97490,-0.18825,2023,6,8,14,0,11,45
2.03250,-0.03955,0.00350,0.00000,0.03050,0.97588,-0.18788,2023,6,8,14,0,11,56
2.03260,0.13545,0.14350,0.00000,0.02940,0.97588,-0.18861,2023,6,8,14,0,11,67
2.03270,-0.05705,-0.13650,0.00000,0.03074,0.97576,-0.18837,2023,6,8,14,0,11,78
2.03280,-0.09205,0.05600,0.00000,0.03074,0.97600,-0.18922,2023,6,8,14,0,11,89
2.03290,0.10045,0.10850,0.00000,0.03074,0.97271,-0.18898,2023,6,8,14,0,11,100
2.03300,-0.05705,0.02100,0.00000,0.02891,0.97661,-0.18788,2023,6,8,14,0,11,111
2.03310,0.27545,-0.29400,0.00000,0.02952,0.97551,-0.18873,2023,6,8,14,0,11,122
2.03320,0.01295,-0.18900,0.00000,0.03135,0.97685,-0.18703,2023,6,8,14,0,11,134
2.03330,0.11795,-0.13650,0.00000,0.03233,0.97563,-0.18739,2023,6,8,14,0,11,145
2.03340,-0.02205,-0.18900,0.00000,0.02855,0.97624,-0.18959,2023,6,8,14,0,11,156
2.03350,-0.02205,0.10850,0.00000,0.03013,0.97441,-0.18703,2023,6,8,14,0,11,167
2.03360,0.04795,-0.03150,0.00000,0.03160,0.97795,-0.18800,2023,6,8,14,0,11,178
2.03370,0.04795,-0.01400,0.00000,0.03148,0.97649,-0.18910,2023,6,8,14,0,11,189
2.03380,-0.03955,0.33600,0.00000,0.02977,0.97417,-0.18861,2023,6,8,14,0,11,200
2.03390,0.06545,0.07350,0.00000,0.03099,0.97600,-0.18934,2023,6,8,14,0,11,211
2.03400,-0.33705,0.23100,0.00000,0.03184,0.97295,-0.18703,2023,6,8,14,0,11,222
2.03410,0.01295,-0.06650,0.00000,0.02989,0.97515,-0.19056,2023,6,8,14,0,11,234
2.03420,0.01295,0.19600,0.00000,0.03087,0.97539,-0.18922,2023,6,8,14,0,11,245
2.03430,-0.02205,0.05600,0.00000,0.02989,0.97771,-0.18934,2023,6,8,14,0,11,256
2.03440,0.13545,0.02100,0.00000,0.03111,0.97515,-0.18654,2023,6,8,14,0,11,267
2.03450,-0.00455,-0.03150,0.00000,0.03148,0.97502,-0.18727,2023,6,8,14,0,11,278
2.03460,-0.00455,0.02100,0.00000,0.03013,0.97588,-0.18898,2023,6,8,14,0,11,289
2.03470,0.11795,-0.11900,0.00000,0.02952,0.97466,-0.18886,2023,6,8,14,0,11,300
2.03480,-0.14455,0.16100,0.00000,0.03184,0.97588,-0.18898,2023,6,8,14,0,11,311
2.03490,-0.02205,0.17850,0.00000,0.03135,0.97637,-0.18873,2023,6,8,14,0,11,322
2.03500,0.10045,-0.01400,0.00000,0.03062,0.97380,-0.18910,2023,6,8,14,0,11,334
2.03510,-0.00455,-0.17150,0.00000,0.03257,0.97429,-0.18837,2023,6,8,14,0,11,345
2.03520,0.13545,-0.13650,0.00000,0.02940,0.97685,-0.18873,2023,6,8,14,0,11,356
2.03530,0.04795,0.07350,0.00000,0.03123,0.97551,-0.18934,2023,6,8,14,0,11,367
2.03540,0.04795,0.03850,0.00000,0.02904,0.97551,-0.18837,2023,6,8,14,0,11,378
2.03550,-0.05705,-0.13650,0.00000,0.03111,0.97490,-0.19166,2023,6,8,14,0,11,389
2.03560,-0.12705,0.44100,0.00000,0.02952,0.97539,-0.18715,2023,6,8,14,0,11,400
2.03570,0.10045,-0.17150,0.00000,0.03135,0.97454,-0.19130,2023,6,8,14,0,11,411
2.03580,0.08295,-0.29400,0.00000,0.03099,0.97551,-0.19008,2023,6,8,14,0,11,422
2.03590,0.03045,0.07350,0.00000,0.03099,0.97673,-0.18995,2023,6,8,14,0,11,434
2.03600,-0.03955,0.07350,0.00000,0.03099,0.97759,-0.19069,2023,6,8,14,0,11,445
2.03610,-0.12705,0.03850,0.00000,0.02940,0.97429,-0.18910,2023,6,8,14,0,11,456
2.03620,-0.12705,0.17850,0.00000,0.02806,0.97649,-0.18764,2023,6,8,14,0,11,467
2.03630,0.01295,0.02100,0.00000,0.02843,0.97588,-0.19008,2023,6,8,14,0,11,478
2.03640,0.04795,0.03850,0.00000,0.03038,0.97429,-0.18898,2023,6,8,14,0,11,489
2.03650,-0.16205,-0.08400,0.00000,0.03148,0.97576,-0.18971,2023,6,8,14,0,11,500
2.03660,-0.05705,0.03850,0.00000,0.03050,0.97551,-0.18910,2023,6,8,14,0,11,511
2.03670,-0.03955,0.14350,0.00000,0.02879,0.97637,-0.18788,2023,6,8,14,0,11,522
2.03680,0.04795,-0.04900,0.00000,0.03221,0.97563,-0.18922,2023,6,8,14,0,11,534
2.03690,0.03045,-0.11900,0.00000,0.03135,0.97685,-0.18947,2023,6,8,14,0,11,545
2.03700,-0.02205,-0.04900,0.00000,0.03050,0.97417,-0.18983,2023,6,8,14,0,11,556
2.03710,-0.02205,0.03850,0.00000,0.03038,0.97246,-0.18849,2023,6,8,14,0,11,567
2.03720,0.06545,0.05600,0.00000,0.02855,0.97600,-0.18898,2023,6,8,14,0,11,578
2.03730,-0.05705,-0.15400,0.00000,0.03111,0.97734,-0.19008,2023,6,8,14,0,11,589
2.03740,-0.10955,0.00350,0.00000,0.02952,0.97539,-0.19020,2023,6,8,14,0,11,600
2.03750,0.04795,-0.10150,0.00000,0.03148,0.97515,-0.18959,2023,6,8,14,0,11,611
2.03760,0.15295,0.00350,0.00000,0.02855,0.97600,-0.19154,2023,6,8,14,0,11,622
2.03770,0.06545,-0.01400,0.00000,0.02965,0.97490,-0.19056,2023,6,8,14,0,11,634
2.03780,-0.03955,0.31850,0.00000,0.02891,0.97490,-0.18995,2023,6,8,14,0,11,645
2.03790,0.01295,-0.04900,0.00000,0.03318,0.97405,-0.18922,2023,6,8,14,0,11,656
2.03800,-0.02205,-0.01400,0.00000,0.03135,0.97332,-0.18861,2023,6,8,14,0,11,667
2.03810,0.17045,0.03850,0.00000,0.03123,0.97551,-0.18764,2023,6,8,14,0,11,678
2.03820,0.03045,0.16100,0.00000,0.03026,0.97417,-0.18861,2023,6,8,14,0,11,689
2.03830,0.04795,0.09100,0.00000,0.03148,0.97722,-0.18776,2023,6,8,14,0,11,700
2.03840,-0.03955,0.00350,0.00000,0.02916,0.97551,-0.19154,2023,6,8,14,0,11,711
2.03850,-0.07455,-0.15400,0.00000,0.02965,0.97112,-0.19117,2023,6,8,14,0,11,722
2.03860,-0.07455,-0.08400,0.00000,0.03087,0.97393,-0.19142,2023,6,8,14,0,11,734
2.03870,0.01295,0.00350,0.00000,0.02940,0.97576,-0.19056,2023,6,8,14,0,11,745
2.03880,0.06545,0.02100,0.00000,0.02928,0.97539,-0.19252,2023,6,8,14,0,11,756
2.03890,-0.17955,0.10850,0.00000,0.03099,0.97588,-0.18910,2023,6,8,14,0,11,767
2.03900,-0.03955,0.00350,0.00000,0.03209,0.97515,-0.19020,2023,6,8,14,0,11,778
2.03910,-0.05705,0.12600,0.00000,0.03160,0.97685,-0.19130,2023,6,8,14,0,11,789
2.03920,0.04795,0.14350,0.00000,0.03233,0.97612,-0.19020,2023,6,8,14,0,11,800
2.03930,0.10045,-0.08400,0.00000,0.03209,0.97466,-0.19203,2023,6,8,14,0,11,811
2.03940,-0.03955,-0.08400,0.00000,0.03099,0.97515,-0.18947,2023,6,8,14,0,11,822
2.03950,-0.12705,0.00350,0.00000,0.02940,0.97612,-0.18898,2023,6,8,14,0,11,834
2.03960,0.08295,-0.03150,0.00000,0.03282,0.97502,-0.18922,2023,6,8,14,0,11,845
2.03970,-0.00455,0.03850,0.00000,0.03001,0.97588,-0.19227,2023,6,8,14,0,11,856
2.03980,0.25795,-0.06650,0.00000,0.02989,0.97515,-0.19227,2023,6,8,14,0,11,867
2.03990,0.03045,-0.13650,0.00000,0.02794,0.97746,-0.19117,2023,6,8,14,0,11,878
2.04000,0.10045,0.03850,0.00000,0.03172,0.97210,-0.18873,2023,6,8,14,0,11,889
2.04010,-0.00455,-0.06650,0.00000,0.03282,0.98137,-0.19020,2023,6,8,14,0,11,900
2.04020,-0.05705,0.09100,0.00000,0.03050,0.97454,-0.19349,2023,6,8,14,0,11,911
2.04030,-0.09205,-0.03150,0.00000,0.03038,0.97649,-0.18947,2023,6,8,14,0,11,922
2.04040,0.11795,-0.27650,0.00000,0.03001,0.97490,-0.18837,2023,6,8,14,0,11,934
2.04050,-0.02205,0.03850,0.00000,0.03038,0.97771,-0.18825,2023,6,8,14,0,11,945
2.04060,0.20545,-0.18900,0.00000,0.02977,0.97490,-0.18849,2023,6,8,14,0,11,956
2.04070,-0.00455,-0.13650,0.00000,0.02965,0.97502,-0.19020,2023,6,8,14,0,11,967
2.04080,0.06545,0.00350,0.00000,0.03013,0.97063,-0.18727,2023,6,8,14,0,11,978
2.04090,-0.07455,0.00350,0.00000,0.03209,0.97588,-0.19130,2023,6,8,14,0,11,989
2.04100,-0.21455,0.10850,0.00000,0.03013,0.96929,-0.18922,2023,6,8,14,0,12,0
2.04110,0.18795,-0.01400,0.00000,0.03160,0.97710,-0.18983,2023,6,8,14,0,12,11
2.04120,-0.14455,-0.15400,0.00000,0.02940,0.97344,-0.18837,2023,6,8,14,0,12,22
2.04130,-0.03955,-0.13650,0.00000,0.03123,0.97685,-0.18898,2023,6,8,14,0,12,34
2.04140,0.18795,-0.13650,0.00000,0.03074,0.97173,-0.18849,2023,6,8,14,0,12,45
2.04150,0.13545,-0.10150,0.00000,0.03074,0.97832,-0.18886,2023,6,8,14,0,12,56
2.04160,0.10045,-0.04900,0.00000,0.02977,0.97332,-0.18800,2023,6,8,14,0,12,67
2.04170,0.17045,0.02100,0.00000,0.03099,0.97673,-0.18776,2023,6,8,14,0,12,78
2.04180,0.27545,-0.06650,0.00000,0.02806,0.97344,-0.18788,2023,6,8,14,0,12,89
2.04190,0.17045,0.12600,0.00000,0.03001,0.97710,-0.18947,2023,6,8,14,0,12,100
2.04200,0.08295,-0.20650,0.00000,0.03087,0.97234,-0.18788,2023,6,8,14,0,12,111
2.04210,0.08295,0.16100,0.00000,0.02928,0.97649,-0.18764,2023,6,8,14,0,12,122
2.04220,0.04795,0.07350,0.00000,0.03135,0.97307,-0.18629,2023,6,8,14,0,12,134
2.04230,0.06545,-0.01400,0.00000,0.03050,0.97454,-0.18861,2023,6,8,14,0,12,145
2.04240,0.18795,0.10850,0.00000,0.03013,0.97771,-0.18959,2023,6,8,14,0,12,156
2.04250,0.22295,-0.06650,0.00000,0.02794,0.97722,-0.18995,2023,6,8,14,0,12,167
2.04260,0.01295,0.23100,0.00000,0.03160,0.97368,-0.18995,2023,6,8,14,0,12,178
2.04270,0.06545,-0.13650,0.00000,0.02916,0.97612,-0.19117,2023,6,8,14,0,12,189
2.04280,-0.00455,-0.04900,0.00000,0.03087,0.97490,-0.18886,2023,6,8,14,0,12,200
2.04290,-0.12705,-0.15400,0.00000,0.03135,0.97405,-0.19044,2023,6,8,14,0,12,211
2.04300,0.22295,0.19600,0.00000,0.03087,0.97441,-0.18959,2023,6,8,14,0,12,222
2.04310,-0.03955,-0.01400,0.00000,0.03038,0.97612,-0.18873,2023,6,8,14,0,12,234
2.04320,0.08295,0.19600,0.00000,0.03062,0.97637,-0.18922,2023,6,8,14,0,12,245
2.04330,-0.05705,0.12600,0.00000,0.03270,0.97405,-0.18971,2023,6,8,14,0,12,256
2.04340,-0.07455,0.09100,0.00000,0.03160,0.97771,-0.19008,2023,6,8,14,0,12,267
2.04350,-0.02205,-0.04900,0.00000,0.02904,0.97673,-0.18593,2023,6,8,14,0,12,278
2.04360,-0.26705,-0.10150,0.00000,0.03148,0.98064,-0.18983,2023,6,8,14,0,12,289
2.04370,-0.19705,0.02100,0.00000,0.02940,0.97088,-0.19154,2023,6,8,14,0,12,300
2.04380,-0.07455,0.10850,0.00000,0.03050,0.97454,-0.18886,2023,6,8,14,0,12,311
2.04390,0.11795,-0.04900,0.00000,0.03001,0.97356,-0.18776,2023,6,8,14,0,12,322
2.04400,0.31045,0.02100,0.00000,0.03172,0.97881,-0.19215,2023,6,8,14,0,12,334
2.04410,0.25795,-0.24150,0.00000,0.02940,0.97612,-0.19142,2023,6,8,14,0,12,345
2.04420,-0.17955,-0.06650,0.00000,0.03062,0.98051,-0.19239,2023,6,8,14,0,12,356
2.04430,0.06545,0.02100,0.00000,0.03074,0.97258,-0.19093,2023,6,8,14,0,12,367
2.04440,-0.14455,0.12600,0.00000,0.02757,0.97978,-0.18886,2023,6,8,14,0,12,378
2.04450,-0.16205,0.07350,0.00000,0.03245,0.97527,-0.18837,2023,6,8,14,0,12,389
2.04460,-0.09205,0.17850,0.00000,0.03257,0.98003,-0.18837,2023,6,8,14,0,12,400
2.04470,-0.05705,-0.11900,0.00000,0.03123,0.97490,-0.18922,2023,6,8,14,0,12,411
2.04480,-0.03955,-0.06650,0.00000,0.03013,0.97771,-0.18995,2023,6,8,14,0,12,422
2.04490,0.17045,-0.10150,0.00000,0.02928,0.97185,-0.18886,2023,6,8,14,0,12,434
2.04500,0.08295,0.10850,0.00000,0.02952,0.97820,-0.19227,2023,6,8,14,0,12,445
2.04510,-0.00455,-0.08400,0.00000,0.02989,0.97405,-0.18922,2023,6,8,14,0,12,456
2.04520,0.01295,-0.11900,0.00000,0.03196,0.97429,-0.18971,2023,6,8,14,0,12,467
2.04530,0.08295,0.23100,0.00000,0.03135,0.97502,-0.18995,2023,6,8,14,0,12,478
2.04540,0.04795,-0.08400,0.00000,0.03062,0.97527,-0.18898,2023,6,8,14,0,12,489
2.04550,0.22295,-0.10150,0.00000,0.03050,0.97466,-0.18861,2023,6,8,14,0,12,500
2.04560,0.11795,-0.22400,0.00000,0.03135,0.97527,-0.19130,2023,6,8,14,0,12,511
2.04570,0.10045,-0.04900,0.00000,0.03050,0.97527,-0.19252,2023,6,8,14,0,12,522
2.04580,-0.14455,0.14350,0.00000,0.02904,0.97612,-0.18922,2023,6,8,14,0,12,534
2.04590,0.01295,-0.06650,0.00000,0.02867,0.97551,-0.19130,2023,6,8,14,0,12,545
2.04600,-0.09205,-0.17150,0.00000,0.02769,0.97539,-0.19044,2023,6,8,14,0,12,556
2.04610,0.24045,-0.17150,0.00000,0.02879,0.97954,-0.19227,2023,6,8,14,0,12,567
2.04620,0.25795,-0.20650,0.00000,0.03196,0.98003,-0.19044,2023,6,8,14,0,12,578
2.04630,-0.03955,-0.18900,0.00000,0.03367,0.97673,-0.18776,2023,6,8,14,0,12,589
2.04640,-0.16205,-0.04900,0.00000,0.03123,0.98613,-0.19105,2023,6,8,14,0,12,600
2.04650,-0.10955,0.07350,0.00000,0.02843,0.97441,-0.18459,2023,6,8,14,0,12,611
2.04660,-0.09205,0.12600,0.00000,0.02830,0.97917,-0.19142,2023,6,8,14,0,12,622
2.04670,0.06545,0.16100,0.00000,0.03038,0.97088,-0.18947,2023,6,8,14,0,12,634
2.04680,-0.19705,0.10850,0.00000,0.03099,0.97771,-0.18751,2023,6,8,14,0,12,645
2.04690,-0.10955,-0.01400,0.00000,0.02904,0.97258,-0.19044,2023,6,8,14,0,12,656
2.04700,-0.07455,0.07350,0.00000,0.03148,0.97283,-0.18825,2023,6,8,14,0,12,667
2.04710,-0.05705,-0.03150,0.00000,0.03135,0.97783,-0.18837,2023,6,8,14,0,12,678
2.04720,0.24045,0.14350,0.00000,0.02952,0.97332,-0.19044,2023,6,8,14,0,12,689
2.04730,-0.05705,0.00350,0.00000,0.03062,0.97637,-0.18825,2023,6,8,14,0,12,700
2.04740,0.08295,-0.01400,0.00000,0.03184,0.97515,-0.18886,2023,6,8,14,0,12,711
2.04750,-0.14455,0.05600,0.00000,0.02916,0.97856,-0.18800,2023,6,8,14,0,12,722
2.04760,0.03045,0.03850,0.00000,0.03306,0.97576,-0.18764,2023,6,8,14,0,12,734
2.04770,0.04795,0.09100,0.00000,0.02904,0.97563,-0.18837,2023,6,8,14,0,12,745
2.04780,-0.10955,0.10850,0.00000,0.02818,0.97295,-0.18898,2023,6,8,14,0,12,756
2.04790,0.01295,0.21350,0.00000,0.02965,0.97783,-0.18800,2023,6,8,14,0,12,767
2.04800,0.11795,-0.15400,0.00000,0.03233,0.97600,-0.18947,2023,6,8,14,0,12,778
2.04810,-0.10955,0.17850,0.00000,0.03026,0.97600,-0.18727,2023,6,8,14,0,12,789
2.04820,0.10045,-0.11900,0.00000,0.02879,0.97490,-0.18849,2023,6,8,14,0,12,800
2.04830,0.10045,0.03850,0.00000,0.02843,0.97600,-0.18983,2023,6,8,14,0,12,811
2.04840,0.25795,-0.06650,0.00000,0.03196,0.97368,-0.18922,2023,6,8,14,0,12,822
2.04850,-0.00455,-0.10150,0.00000,0.03111,0.97734,-0.18934,2023,6,8,14,0,12,834
2.04860,-0.00455,0.28350,0.00000,0.03172,0.97380,-0.18825,2023,6,8,14,0,12,845
2.04870,-0.05705,0.14350,0.00000,0.03038,0.97515,-0.19044,2023,6,8,14,0,12,856
2.04880,0.17045,0.00350,0.00000,0.03196,0.97502,-0.18959,2023,6,8,14,0,12,867
2.04890,0.01295,0.07350,0.00000,0.02977,0.97515,-0.18812,2023,6,8,14,0,12,878
2.04900,0.25795,-0.03150,0.00000,0.02928,0.97466,-0.19154,2023,6,8,14,0,12,889
2.04910,0.31045,0.17850,0.00000,0.02867,0.98503,-0.19727,2023,6,8,14,0,12,900
2.04920,-0.17955,-0.03150,0.00000,0.02952,0.97539,-0.18739,2023,6,8,14,0,12,911
2.04930,-0.12705,0.03850,0.00000,0.03184,0.98308,-0.18910,2023,6,8,14,0,12,922
2.04940,-0.05705,-0.04900,0.00000,0.02855,0.96953,-0.18825,2023,6,8,14,0,12,934
2.04950,-0.03955,0.00350,0.00000,0.03062,0.97807,-0.18849,2023,6,8,14,0,12,945
2.04960,-0.10955,0.03850,0.00000,0.02928,0.97136,-0.18703,2023,6,8,14,0,12,956
2.04970,-0.03955,0.14350,0.00000,0.03270,0.97746,-0.19044,2023,6,8,14,0,12,967
2.04980,0.01295,0.00350,0.00000,0.03172,0.97039,-0.18947,2023,6,8,14,0,12,978
2.04990,-0.09205,0.00350,0.00000,0.02904,0.97515,-0.18995,2023,6,8,14,0,12,989
2.05000,0.04795,-0.31150,0.00000,0.02989,0.97283,-0.18873,2023,6,8,14,0,13,0
2.05010,-0.02205,-0.08400,0.00000,0.03135,0.97795,-0.18776,2023,6,8,14,0,13,11
2.05020,0.03045,0.05600,0.00000,0.03001,0.97307,-0.18825,2023,6,8,14,0,13,22
2.05030,0.03045,0.03850,0.00000,0.02757,0.97661,-0.18959,2023,6,8,14,0,13,34
2.05040,0.13545,0.12600,0.00000,0.03123,0.97563,-0.18642,2023,6,8,14,0,13,45
2.05050,-0.03955,0.09100,0.00000,0.02940,0.97612,-0.18886,2023,6,8,14,0,13,56
2.05060,0.13545,-0.15400,0.00000,0.03087,0.97661,-0.18690,2023,6,8,14,0,13,67
2.05070,0.06545,-0.06650,0.00000,0.03074,0.97600,-0.18898,2023,6,8,14,0,13,78
2.05080,0.06545,0.00350,0.00000,0.03099,0.97441,-0.19008,2023,6,8,14,0,13,89
2.05090,-0.03955,-0.11900,0.00000,0.03111,0.97466,-0.19020,2023,6,8,14,0,13,100
2.05100,0.01295,-0.03150,0.00000,0.03087,0.97771,-0.18873,2023,6,8,14,0,13,111
2.05110,0.13545,-0.08400,0.00000,0.03001,0.97466,-0.18886,2023,6,8,14,0,13,122
2.05120,0.01295,-0.10150,0.00000,0.03196,0.97515,-0.18959,2023,6,8,14,0,13,134
2.05130,0.01295,0.09100,0.00000,0.03087,0.97441,-0.18934,2023,6,8,14,0,13,145
2.05140,0.10045,0.07350,0.00000,0.03245,0.97466,-0.18910,2023,6,8,14,0,13,156
2.05150,0.15295,-0.08400,0.00000,0.03123,0.97661,-0.18776,2023,6,8,14,0,13,167
2.05160,-0.14455,-0.01400,0.00000,0.03074,0.97405,-0.18947,2023,6,8,14,0,13,178
2.05170,0.06545,-0.27650,0.00000,0.02977,0.97917,-0.18898,2023,6,8,14,0,13,189
2.05180,0.32795,-0.08400,0.00000,0.02891,0.98832,-0.19313,2023,6,8,14,0,13,200
2.05190,0.17045,0.02100,0.00000,0.02928,0.97222,-0.18544,2023,6,8,14,0,13,211
2.05200,-0.03955,0.14350,0.00000,0.02940,0.98747,-0.18886,2023,6,8,14,0,13,222
2.05210,0.08295,0.07350,0.00000,0.03087,0.96587,-0.18812,2023,6,8,14,0,13,234
2.05220,-0.02205,0.00350,0.00000,0.03294,0.97893,-0.18983,2023,6,8,14,0,13,245
2.05230,0.25795,-0.04900,0.00000,0.03013,0.97295,-0.18959,2023,6,8,14,0,13,256
2.05240,0.06545,0.10850,0.00000,0.02989,0.97771,-0.18764,2023,6,8,14,0,13,267
2.05250,-0.00455,0.03850,0.00000,0.02928,0.98015,-0.18825,2023,6,8,14,0,13,278
2.05260,0.24045,-0.22400,0.00000,0.03050,0.97673,-0.18873,2023,6,8,14,0,13,289
2.05270,0.15295,-0.18900,0.00000,0.03148,0.97441,-0.18873,2023,6,8,14,0,13,300
2.05280,0.06545,-0.01400,0.00000,0.02830,0.97393,-0.18751,2023,6,8,14,0,13,311
2.05290,0.04795,-0.04900,0.00000,0.03111,0.97454,-0.18788,2023,6,8,14,0,13,322
2.05300,-0.14455,0.21350,0.00000,0.03099,0.97649,-0.19142,2023,6,8,14,0,13,334
2.05310,0.10045,0.03850,0.00000,0.02806,0.97942,-0.18642,2023,6,8,14,0,13,345
2.05320,0.06545,0.00350,0.00000,0.03123,0.97295,-0.18898,2023,6,8,14,0,13,356
2.05330,-0.09205,0.00350,0.00000,0.02940,0.97502,-0.18690,2023,6,8,14,0,13,367
2.05340,-0.05705,0.12600,0.00000,0.02952,0.97271,-0.19081,2023,6,8,14,0,13,378
2.05350,0.18795,-0.06650,0.00000,0.03148,0.97576,-0.19069,2023,6,8,14,0,13,389
2.05360,0.11795,-0.06650,0.00000,0.03087,0.97368,-0.18922,2023,6,8,14,0,13,400
2.05370,-0.05705,0.17850,0.00000,0.03160,0.97563,-0.18995,2023,6,8,14,0,13,411
2.05380,-0.02205,-0.06650,0.00000,0.03135,0.97319,-0.18812,2023,6,8,14,0,13,422
2.05390,0.22295,-0.18900,0.00000,0.03001,0.97746,-0.18971,2023,6,8,14,0,13,434
2.05400,-0.05705,-0.01400,0.00000,0.03160,0.97551,-0.18971,2023,6,8,14,0,13,445
2.05410,-0.00455,-0.08400,0.00000,0.03184,0.97710,-0.18983,2023,6,8,14,0,13,456
2.05420,-0.03955,0.21350,0.00000,0.03087,0.97515,-0.18727,2023,6,8,14,0,13,467
2.05430,-0.07455,-0.06650,0.00000,0.02904,0.97490,-0.18825,2023,6,8,14,0,13,478
2.05440,0.17045,-0.11900,0.00000,0.03013,0.97624,-0.18910,2023,6,8,14,0,13,489
2.05450,0.25795,0.02100,0.00000,0.03172,0.98930,-0.19105,2023,6,8,14,0,13,500
2.05460,-0.17955,0.10850,0.00000,0.03001,0.97295,-0.18202,2023,6,8,14,0,13,511
2.05470,-0.16205,-0.10150,0.00000,0.03233,0.98259,-0.18861,2023,6,8,14,0,13,522
2.05480,-0.10955,0.12600,0.00000,0.03135,0.97490,-0.18556,2023,6,8,14,0,13,534
2.05490,-0.09205,-0.04900,0.00000,0.03087,0.97954,-0.18495,2023,6,8,14,0,13,545
2.05500,0.04795,0.14350,0.00000,0.03038,0.97319,-0.18495,2023,6,8,14,0,13,556
2.05510,0.08295,0.24850,0.00000,0.02977,0.97954,-0.18934,2023,6,8,14,0,13,567
2.05520,-0.07455,0.16100,0.00000,0.02818,0.97380,-0.19081,2023,6,8,14,0,13,578
2.05530,0.04795,0.12600,0.00000,0.03062,0.97942,-0.19117,2023,6,8,14,0,13,589
2.05540,0.10045,0.03850,0.00000,0.03074,0.97368,-0.18825,2023,6,8,14,0,13,600
2.05550,-0.05705,0.07350,0.00000,0.03062,0.97807,-0.18764,2023,6,8,14,0,13,611
2.05560,-0.07455,-0.10150,0.00000,0.03074,0.97454,-0.18849,2023,6,8,14,0,13,622
2.05570,0.10045,-0.03150,0.00000,0.03245,0.97661,-0.18922,2023,6,8,14,0,13,634
2.05580,0.04795,0.03850,0.00000,0.03062,0.97368,-0.18678,2023,6,8,14,0,13,645
2.05590,0.34545,-0.25900,0.00000,0.03233,0.97795,-0.19008,2023,6,8,14,0,13,656
2.05600,-0.05705,-0.01400,0.00000,0.03038,0.97429,-0.18849,2023,6,8,14,0,13,667
2.05610,0.01295,0.02100,0.00000,0.03001,0.97807,-0.18971,2023,6,8,14,0,13,678
2.05620,-0.00455,0.03850,0.00000,0.02855,0.97490,-0.18849,2023,6,8,14,0,13,689
2.05630,0.01295,-0.15400,0.00000,0.03160,0.97307,-0.18825,2023,6,8,14,0,13,700
2.05640,-0.02205,0.19600,0.00000,0.03026,0.97637,-0.18983,2023,6,8,14,0,13,711
2.05650,0.08295,-0.06650,0.00000,0.03209,0.97624,-0.18788,2023,6,8,14,0,13,722
2.05660,0.22295,0.00350,0.00000,0.02769,0.97393,-0.18812,2023,6,8,14,0,13,734
2.05670,-0.17955,0.03850,0.00000,0.03111,0.97673,-0.18788,2023,6,8,14,0,13,745
2.05680,0.03045,-0.13650,0.00000,0.02952,0.97698,-0.18654,2023,6,8,14,0,13,756
2.05690,-0.09205,0.19600,0.00000,0.02916,0.97551,-0.18849,2023,6,8,14,0,13,767
2.05700,0.10045,-0.01400,0.00000,0.02989,0.97661,-0.18751,2023,6,8,14,0,13,778
2.05710,0.11795,0.12600,0.00000,0.03135,0.97197,-0.18812,2023,6,8,14,0,13,789
2.05720,0.01295,0.02100,0.00000,0.02965,0.97600,-0.18654,2023,6,8,14,0,13,800
2.05730,-0.02205,0.12600,0.00000,0.03209,0.97588,-0.18739,2023,6,8,14,0,13,811
2.05740,0.06545,-0.04900,0.00000,0.03123,0.97673,-0.18947,2023,6,8,14,0,13,822
2.05750,0.13545,0.02100,0.00000,0.02916,0.97478,-0.19008,2023,6,8,14,0,13,834
2.05760,0.03045,0.21350,0.00000,0.02940,0.97490,-0.18910,2023,6,8,14,0,13,845
2.05770,-0.03955,-0.01400,0.00000,0.03074,0.97563,-0.18898,2023,6,8,14,0,13,856
2.05780,0.03045,0.03850,0.00000,0.03026,0.97783,-0.18849,2023,6,8,14,0,13,867
2.05790,0.18795,0.16100,0.00000,0.02965,0.98381,-0.19081,2023,6,8,14,0,13,878
2.05800,-0.37205,0.07350,0.00000,0.02989,0.97527,-0.18654,2023,6,8,14,0,13,889
2.05810,-0.28455,-0.06650,0.00000,0.03001,0.97502,-0.18983,2023,6,8,14,0,13,900
2.05820,-0.05705,-0.04900,0.00000,0.03087,0.97173,-0.18568,2023,6,8,14,0,13,911
2.05830,-0.00455,-0.11900,0.00000,0.03062,0.97734,-0.18934,2023,6,8,14,0,13,922
2.05840,0.18795,-0.25900,0.00000,0.03038,0.97441,-0.18837,2023,6,8,14,0,13,934
2.05850,-0.07455,0.09100,0.00000,0.03184,0.97637,-0.18812,2023,6,8,14,0,13,945
2.05860,-0.00455,0.07350,0.00000,0.03135,0.97649,-0.19093,2023,6,8,14,0,13,956
2.05870,0.17045,0.09100,0.00000,0.03135,0.97307,-0.18910,2023,6,8,14,0,13,967
2.05880,0.03045,-0.03150,0.00000,0.03038,0.97588,-0.18922,2023,6,8,14,0,13,978
2.05890,0.18795,0.05600,0.00000,0.03038,0.97063,-0.18788,2023,6,8,14,0,14,9
2.05900,-0.12705,0.02100,0.00000,0.03038,0.98027,-0.18922,2023,6,8,14,0,14,20
2.05910,0.11795,0.12600,0.00000,0.02989,0.97368,-0.18861,2023,6,8,14,0,14,31
2.05920,-0.05705,0.14350,0.00000,0.02843,0.97441,-0.19264,2023,6,8,14,0,14,42
2.05930,-0.00455,-0.11900,0.00000,0.02977,0.97466,-0.19044,2023,6,8,14,0,14,54
2.05940,0.11795,0.00350,0.00000,0.03001,0.97502,-0.18788,2023,6,8,14,0,14,65
2.05950,0.04795,-0.01400,0.00000,0.03196,0.97576,-0.18825,2023,6,8,14,0,14,76
2.05960,0.08295,0.02100,0.00000,0.03074,0.97441,-0.18849,2023,6,8,14,0,14,87
2.05970,0.17045,-0.11900,0.00000,0.02952,0.97441,-0.18886,2023,6,8,14,0,14,98
2.05980,0.25795,-0.18900,0.00000,0.03087,0.97380,-0.19081,2023,6,8,14,0,14,109
2.05990,-0.07455,-0.15400,0.00000,0.03160,0.97307,-0.18642,2023,6,8,14,0,14,120
2.06000,0.15295,0.07350,0.00000,0.02965,0.97441,-0.18886,2023,6,8,14,0,14,131
2.06010,-0.02205,-0.08400,0.00000,0.02977,0.97600,-0.18983,2023,6,8,14,0,14,142
2.06020,-0.09205,0.14350,0.00000,0.02879,0.97405,-0.18873,2023,6,8,14,0,14,154
2.06030,-0.12705,0.10850,0.00000,0.03050,0.97454,-0.18898,2023,6,8,14,0,14,165
2.06040,-0.00455,0.05600,0.00000,0.03074,0.97441,-0.19044,2023,6,8,14,0,14,176
2.06050,0.10045,-0.11900,0.00000,0.02916,0.97490,-0.18995,2023,6,8,14,0,14,187
2.06060,-0.10955,-0.06650,0.00000,0.03087,0.97637,-0.18995,2023,6,8,14,0,14,198
2.06070,0.15295,-0.04900,0.00000,0.02745,0.97588,-0.18739,2023,6,8,14,0,14,209
2.06080,0.11795,0.09100,0.00000,0.03062,0.97734,-0.18934,2023,6,8,14,0,14,220
2.06090,-0.05705,0.09100,0.00000,0.03013,0.97624,-0.18947,2023,6,8,14,0,14,231
2.06100,0.08295,-0.04900,0.00000,0.03050,0.97551,-0.18959,2023,6,8,14,0,14,242
2.06110,0.22295,-0.18900,0.00000,0.03050,0.97685,-0.18849,2023,6,8,14,0,14,254
2.06120,0.10045,0.07350,0.00000,0.02891,0.97539,-0.18983,2023,6,8,14,0,14,265
2.06130,-0.05705,0.09100,0.00000,0.03013,0.97759,-0.18873,2023,6,8,14,0,14,276
2.06140,0.08295,-0.13650,0.00000,0.02891,0.97637,-0.18849,2023,6,8,14,0,14,287
2.06150,0.01295,-0.17150,0.00000,0.03257,0.97551,-0.18886,2023,6,8,14,0,14,298
2.06160,-0.02205,0.00350,0.00000,0.02977,0.97368,-0.19044,2023,6,8,14,0,14,309
2.06170,-0.09205,-0.08400,0.00000,0.02916,0.97881,-0.18800,2023,6,8,14,0,14,320
2.06180,0.08295,-0.11900,0.00000,0.03111,0.97515,-0.18800,2023,6,8,14,0,14,331
2.06190,0.06545,0.37100,0.00000,0.02818,0.97429,-0.19008,2023,6,8,14,0,14,342
2.06200,0.10045,0.23100,0.00000,0.02794,0.97417,-0.18812,2023,6,8,14,0,14,354
2.06210,0.08295,-0.04900,0.00000,0.03184,0.97527,-0.19203,2023,6,8,14,0,14,365
2.06220,0.10045,0.03850,0.00000,0.03172,0.98039,-0.19300,2023,6,8,14,0,14,376
2.06230,0.24045,-0.15400,0.00000,0.02904,0.97258,-0.19056,2023,6,8,14,0,14,387
2.06240,0.24045,0.03850,0.00000,0.03257,0.97698,-0.19056,2023,6,8,14,0,14,398
2.06250,0.08295,0.03850,0.00000,0.02928,0.97380,-0.18800,2023,6,8,14,0,14,409
2.06260,-0.12705,0.14350,0.00000,0.02989,0.97734,-0.18910,2023,6,8,14,0,14,420
2.06270,0.20545,-0.04900,0.00000,0.02952,0.97588,-0.18898,2023,6,8,14,0,14,431
2.06280,0.01295,0.10850,0.00000,0.03306,0.97551,-0.18837,2023,6,8,14,0,14,442
2.06290,0.03045,0.07350,0.00000,0.03099,0.97649,-0.18678,2023,6,8,14,0,14,454
2.06300,-0.09205,-0.03150,0.00000,0.02965,0.97588,-0.18959,2023,6,8,14,0,14,465
2.06310,0.03045,0.00350,0.00000,0.03038,0.97490,-0.18898,2023,6,8,14,0,14,476
2.06320,0.13545,0.00350,0.00000,0.03013,0.97539,-0.18837,2023,6,8,14,0,14,487
2.06330,-0.02205,-0.03150,0.00000,0.03123,0.97685,-0.18849,2023,6,8,14,0,14,498
2.06340,0.11795,0.07350,0.00000,0.03074,0.97502,-0.18703,2023,6,8,14,0,14,509
2.06350,-0.02205,0.17850,0.00000,0.03038,0.97612,-0.18947,2023,6,8,14,0,14,520
2.06360,0.10045,0.02100,0.00000,0.03013,0.97576,-0.18861,2023,6,8,14,0,14,531
2.06370,-0.09205,-0.08400,0.00000,0.02879,0.97759,-0.18934,2023,6,8,14,0,14,542
2.06380,0.22295,-0.04900,0.00000,0.02940,0.97454,-0.18788,2023,6,8,14,0,14,554
2.06390,-0.02205,0.14350,0.00000,0.03062,0.97539,-0.18800,2023,6,8,14,0,14,565
2.06400,-0.05705,-0.17150,0.00000,0.02904,0.97405,-0.19008,2023,6,8,14,0,14,576
2.06410,-0.10955,-0.10150,0.00000,0.02977,0.97478,-0.18849,2023,6,8,14,0,14,587
2.06420,-0.09205,0.02100,0.00000,0.03160,0.97515,-0.18910,2023,6,8,14,0,14,598
2.06430,-0.03955,0.02100,0.00000,0.03123,0.97393,-0.18898,2023,6,8,14,0,14,609
2.06440,0.10045,-0.04900,0.00000,0.03257,0.97759,-0.18825,2023,6,8,14,0,14,620
2.06450,0.06545,0.05600,0.00000,0.02989,0.97783,-0.18739,2023,6,8,14,0,14,631
2.06460,0.22295,0.03850,0.00000,0.02977,0.97380,-0.18934,2023,6,8,14,0,14,642
2.06470,-0.19705,-0.03150,0.00000,0.03026,0.97478,-0.18776,2023,6,8,14,0,14,654
2.06480,-0.23205,0.16100,0.00000,0.03111,0.97441,-0.18947,2023,6,8,14,0,14,665
2.06490,-0.03955,0.21350,0.00000,0.03013,0.97612,-0.18764,2023,6,8,14,0,14,676
2.06500,0.10045,0.07350,0.00000,0.02940,0.97502,-0.19191,2023,6,8,14,0,14,687
2.06510,0.11795,-0.17150,0.00000,0.03172,0.97600,-0.19008,2023,6,8,14,0,14,698
2.06520,0.11795,-0.03150,0.00000,0.03148,0.97612,-0.18861,2023,6,8,14,0,14,709
2.06530,-0.03955,-0.11900,0.00000,0.02928,0.97478,-0.18934,2023,6,8,14,0,14,720
2.06540,-0.26705,-0.01400,0.00000,0.03111,0.97405,-0.19044,2023,6,8,14,0,14,731
2.06550,0.01295,0.10850,0.00000,0.03233,0.97637,-0.18922,2023,6,8,14,0,14,742
2.06560,-0.00455,-0.13650,0.00000,0.03013,0.97502,-0.19056,2023,6,8,14,0,14,754
2.06570,-0.14455,0.10850,0.00000,0.03172,0.97454,-0.18654,2023,6,8,14,0,14,765
2.06580,-0.03955,0.07350,0.00000,0.02879,0.97539,-0.18873,2023,6,8,14,0,14,776
2.06590,-0.21455,0.07350,0.00000,0.02940,0.97563,-0.18898,2023,6,8,14,0,14,787
2.06600,0.10045,0.05600,0.00000,0.02904,0.97637,-0.18898,2023,6,8,14,0,14,798
2.06610,0.08295,0.02100,0.00000,0.02989,0.97698,-0.19008,2023,6,8,14,0,14,809
2.06620,-0.00455,0.07350,0.00000,0.02830,0.97734,-0.18947,2023,6,8,14,0,14,820
2.06630,0.17045,-0.06650,0.00000,0.02904,0.97673,-0.19166,2023,6,8,14,0,14,831
2.06640,0.18795,0.02100,0.00000,0.02818,0.97454,-0.18983,2023,6,8,14,0,14,842
2.06650,0.08295,0.02100,0.00000,0.03062,0.97551,-0.18873,2023,6,8,14,0,14,854
2.06660,-0.09205,0.07350,0.00000,0.02830,0.97149,-0.18898,2023,6,8,14,0,14,865
2.06670,-0.16205,0.03850,0.00000,0.03148,0.97502,-0.19020,2023,6,8,14,0,14,876
2.06680,0.18795,-0.11900,0.00000,0.03196,0.97551,-0.18910,2023,6,8,14,0,14,887
2.06690,0.01295,-0.03150,0.00000,0.03196,0.97576,-0.18861,2023,6,8,14,0,14,898
2.06700,0.03045,0.10850,0.00000,0.03074,0.97612,-0.18995,2023,6,8,14,0,14,909
2.06710,0.01295,-0.06650,0.00000,0.02952,0.97734,-0.18995,2023,6,8,14,0,14,920
2.06720,-0.10955,0.02100,0.00000,0.02965,0.97527,-0.18910,2023,6,8,14,0,14,931
2.06730,0.17045,-0.06650,0.00000,0.03001,0.97563,-0.18922,2023,6,8,14,0,14,942
2.06740,-0.09205,-0.10150,0.00000,0.03184,0.97234,-0.19056,2023,6,8,14,0,14,954
2.06750,-0.00455,0.21350,0.00000,0.03245,0.97539,-0.18971,2023,6,8,14,0,14,965
2.06760,0.10045,0.00350,0.00000,0.02843,0.97319,-0.18922,2023,6,8,14,0,14,976
2.06770,0.11795,0.24850,0.00000,0.03221,0.97588,-0.18861,2023,6,8,14,0,14,987
2.06780,-0.10955,-0.18900,0.00000,0.03038,0.97734,-0.19008,2023,6,8,14,0,14,998
2.06790,-0.12705,-0.08400,0.00000,0.02965,0.97466,-0.18934,2023,6,8,14,0,15,9
2.06800,-0.00455,-0.01400,0.00000,0.02952,0.97746,-0.18898,2023,6,8,14,0,15,20
2.06810,0.06545,0.09100,0.00000,0.03099,0.97417,-0.18751,2023,6,8,14,0,15,31
2.06820,-0.10955,-0.03150,0.00000,0.03196,0.97624,-0.18837,2023,6,8,14,0,15,42
2.06830,-0.12705,-0.03150,0.00000,0.02928,0.97563,-0.19032,2023,6,8,14,0,15,54
2.06840,0.03045,-0.11900,0.00000,0.02928,0.97490,-0.19081,2023,6,8,14,0,15,65
2.06850,0.13545,-0.10150,0.00000,0.03160,0.97539,-0.18922,2023,6,8,14,0,15,76
2.06860,0.04795,-0.04900,0.00000,0.03026,0.97563,-0.19008,2023,6,8,14,0,15,87
2.06870,-0.02205,0.17850,0.00000,0.02952,0.97393,-0.18764,2023,6,8,14,0,15,98
2.06880,-0.07455,-0.03150,0.00000,0.03074,0.97673,-0.18995,2023,6,8,14,0,15,109
2.06890,0.15295,-0.13650,0.00000,0.02782,0.97710,-0.18910,2023,6,8,14,0,15,120
2.06900,-0.00455,-0.13650,0.00000,0.03099,0.97563,-0.18886,2023,6,8,14,0,15,131
2.06910,0.06545,-0.15400,0.00000,0.03099,0.97222,-0.18971,2023,6,8,14,0,15,142
2.06920,0.13545,-0.15400,0.00000,0.03001,0.97454,-0.18776,2023,6,8,14,0,15,154
2.06930,-0.05705,-0.01400,0.00000,0.02818,0.97539,-0.18837,2023,6,8,14,0,15,165
2.06940,0.03045,0.07350,0.00000,0.02977,0.97515,-0.18910,2023,6,8,14,0,15,176
2.06950,0.24045,-0.11900,0.00000,0.02952,0.97405,-0.18861,2023,6,8,14,0,15,187
2.06960,-0.05705,-0.08400,0.00000,0.03038,0.97551,-0.19081,2023,6,8,14,0,15,198
2.06970,-0.02205,0.02100,0.00000,0.02928,0.97563,-0.18861,2023,6,8,14,0,15,209
2.06980,-0.17955,-0.04900,0.00000,0.03001,0.97600,-0.19105,2023,6,8,14,0,15,220
2.06990,-0.10955,0.17850,0.00000,0.03123,0.97759,-0.18800,2023,6,8,14,0,15,231
2.07000,0.03045,-0.10150,0.00000,0.03099,0.97637,-0.18800,2023,6,8,14,0,15,242
2.07010,-0.10955,0.00350,0.00000,0.03038,0.97746,-0.19020,2023,6,8,14,0,15,254
2.07020,0.04795,0.14350,0.00000,0.03087,0.97393,-0.19056,2023,6,8,14,0,15,265
2.07030,-0.05705,0.10850,0.00000,0.02965,0.97490,-0.18947,2023,6,8,14,0,15,276
2.07040,0.08295,-0.25900,0.00000,0.03111,0.97563,-0.18922,2023,6,8,14,0,15,287
2.07050,0.01295,-0.03150,0.00000,0.03148,0.97612,-0.18800,2023,6,8,14,0,15,298
2.07060,-0.12705,0.10850,0.00000,0.03123,0.97502,-0.19008,2023,6,8,14,0,15,309
2.07070,0.11795,-0.29400,0.00000,0.02916,0.97417,-0.18751,2023,6,8,14,0,15,320
2.07080,-0.00455,-0.01400,0.00000,0.02977,0.97637,-0.18983,2023,6,8,14,0,15,331
2.07090,0.13545,-0.08400,0.00000,0.02940,0.97649,-0.19178,2023,6,8,14,0,15,342
2.07100,0.15295,0.10850,0.00000,0.03026,0.97710,-0.19056,2023,6,8,14,0,15,354
2.07110,0.06545,0.09100,0.00000,0.02965,0.97466,-0.18971,2023,6,8,14,0,15,365
2.07120,0.03045,0.10850,0.00000,0.02965,0.97429,-0.18947,2023,6,8,14,0,15,376
2.07130,0.08295,-0.25900,0.00000,0.02940,0.97612,-0.18910,2023,6,8,14,0,15,387
2.07140,0.13545,-0.15400,0.00000,0.02708,0.97624,-0.19008,2023,6,8,14,0,15,398
2.07150,-0.07455,0.09100,0.00000,0.03026,0.97685,-0.18947,2023,6,8,14,0,15,409
2.07160,-0.00455,-0.04900,0.00000,0.03196,0.97332,-0.19093,2023,6,8,14,0,15,420
2.07170,-0.00455,-0.20650,0.00000,0.02928,0.97490,-0.19105,2023,6,8,14,0,15,431
2.07180,0.08295,-0.11900,0.00000,0.02904,0.97539,-0.18910,2023,6,8,14,0,15,442
2.07190,0.03045,-0.10150,0.00000,0.03294,0.97551,-0.18947,2023,6,8,14,0,15,454
2.07200,0.06545,-0.11900,0.00000,0.03184,0.97576,-0.19069,2023,6,8,14,0,15,465
2.07210,-0.10955,-0.08400,0.00000,0.02952,0.97429,-0.18983,2023,6,8,14,0,15,476
2.07220,0.01295,0.05600,0.00000,0.02977,0.97429,-0.19081,2023,6,8,14,0,15,487
2.07230,-0.05705,-0.15400,0.00000,0.02879,0.97527,-0.18898,2023,6,8,14,0,15,498
2.07240,-0.09205,0.28350,0.00000,0.02928,0.97673,-0.18849,2023,6,8,14,0,15,509
2.07250,0.08295,-0.06650,0.00000,0.03135,0.97576,-0.18947,2023,6,8,14,0,15,520
2.07260,-0.21455,0.00350,0.00000,0.02855,0.97454,-0.19020,2023,6,8,14,0,15,531
2.07270,-0.16205,0.05600,0.00000,0.03074,0.97429,-0.18873,2023,6,8,14,0,15,542
2.07280,0.10045,-0.04900,0.00000,0.02904,0.97417,-0.19093,2023,6,8,14,0,15,554
2.07290,-0.17955,0.17850,0.00000,0.03001,0.97673,-0.19154,2023,6,8,14,0,15,565
2.07300,-0.00455,0.09100,0.00000,0.03257,0.97563,-0.18800,2023,6,8,14,0,15,576
2.07310,0.01295,-0.03150,0.00000,0.03013,0.97722,-0.18898,2023,6,8,14,0,15,587
2.07320,-0.16205,0.12600,0.00000,0.03050,0.97576,-0.19008,2023,6,8,14,0,15,598
2.07330,0.08295,-0.15400,0.00000,0.02818,0.97734,-0.19032,2023,6,8,14,0,15,609
2.07340,0.06545,0.02100,0.00000,0.03062,0.97393,-0.18861,2023,6,8,14,0,15,620
2.07350,0.04795,-0.08400,0.00000,0.02904,0.97429,-0.19069,2023,6,8,14,0,15,631
2.07360,-0.02205,0.03850,0.00000,0.03001,0.97722,-0.19130,2023,6,8,14,0,15,642
2.07370,0.03045,-0.20650,0.00000,0.03367,0.97515,-0.18947,2023,6,8,14,0,15,654
2.07380,0.10045,-0.11900,0.00000,0.03172,0.97795,-0.19252,2023,6,8,14,0,15,665
2.07390,0.11795,-0.10150,0.00000,0.02843,0.97417,-0.18995,2023,6,8,14,0,15,676
2.07400,0.01295,0.09100,0.00000,0.02891,0.97319,-0.19008,2023,6,8,14,0,15,687
2.07410,-0.26705,0.00350,0.00000,0.03160,0.97539,-0.18995,2023,6,8,14,0,15,698
2.07420,0.08295,-0.15400,0.00000,0.02977,0.97502,-0.19081,2023,6,8,14,0,15,709
2.07430,0.11795,0.10850,0.00000,0.02940,0.97478,-0.18983,2023,6,8,14,0,15,720
2.07440,0.06545,0.12600,0.00000,0.02940,0.97661,-0.19154,2023,6,8,14,0,15,731
2.07450,-0.03955,-0.04900,0.00000,0.03038,0.97722,-0.19374,2023,6,8,14,0,15,742
2.07460,0.18795,-0.15400,0.00000,0.02965,0.97624,-0.19130,2023,6,8,14,0,15,754
2.07470,0.01295,-0.04900,0.00000,0.03074,0.97588,-0.18983,2023,6,8,14,0,15,765
2.07480,-0.07455,-0.13650,0.00000,0.03233,0.97405,-0.18910,2023,6,8,14,0,15,776
2.07490,-0.00455,-0.34650,0.00000,0.03123,0.97417,-0.18910,2023,6,8,14,0,15,787
2.07500,-0.10955,0.19600,0.00000,0.02989,0.97539,-0.18898,2023,6,8,14,0,15,798
2.07510,0.18795,0.00350,0.00000,0.03111,0.97185,-0.18910,2023,6,8,14,0,15,809
2.07520,0.11795,0.26600,0.00000,0.03013,0.97734,-0.19227,2023,6,8,14,0,15,820
2.07530,0.04795,-0.04900,0.00000,0.03050,0.97490,-0.18910,2023,6,8,14,0,15,831
2.07540,-0.10955,-0.04900,0.00000,0.02977,0.97380,-0.19032,2023,6,8,14,0,15,842
2.07550,-0.00455,0.00350,0.00000,0.03160,0.97612,-0.19239,2023,6,8,14,0,15,854
2.07560,0.06545,0.09100,0.00000,0.03026,0.97563,-0.19130,2023,6,8,14,0,15,865
2.07570,-0.10955,0.10850,0.00000,0.03013,0.97393,-0.19069,2023,6,8,14,0,15,876
2.07580,0.03045,-0.15400,0.00000,0.03160,0.97673,-0.19032,2023,6,8,14,0,15,887
2.07590,-0.02205,0.09100,0.00000,0.03074,0.97344,-0.19117,2023,6,8,14,0,15,898
2.07600,0.04795,0.05600,0.00000,0.03026,0.97527,-0.19008,2023,6,8,14,0,15,909
2.07610,0.08295,-0.01400,0.00000,0.03123,0.97624,-0.18983,2023,6,8,14,0,15,920
2.07620,-0.09205,-0.18900,0.00000,0.03123,0.97405,-0.19178,2023,6,8,14,0,15,931
2.07630,-0.05705,-0.11900,0.00000,0.02989,0.97868,-0.19069,2023,6,8,14,0,15,942
2.07640,0.08295,-0.06650,0.00000,0.03135,0.97466,-0.18898,2023,6,8,14,0,15,954
2.07650,0.06545,0.03850,0.00000,0.03099,0.97576,-0.19300,2023,6,8,14,0,15,965
2.07660,-0.02205,0.07350,0.00000,0.02757,0.97332,-0.19191,2023,6,8,14,0,15,976
2.07670,-0.14455,0.14350,0.00000,0.03184,0.97722,-0.19288,2023,6,8,14,0,15,987
2.07680,0.10045,0.07350,0.00000,0.03050,0.97502,-0.19215,2023,6,8,14,0,15,998
2.07690,-0.10955,0.09100,0.00000,0.03099,0.97380,-0.18971,2023,6,8,14,0,16,9
2.07700,-0.02205,-0.13650,0.00000,0.03111,0.97612,-0.18812,2023,6,8,14,0,16,20
2.07710,0.10045,-0.01400,0.00000,0.03245,0.97710,-0.18898,2023,6,8,14,0,16,31
2.07720,-0.16205,-0.11900,0.00000,0.03050,0.97380,-0.19081,2023,6,8,14,0,16,42
2.07730,0.10045,-0.10150,0.00000,0.02891,0.97490,-0.19191,2023,6,8,14,0,16,54
2.07740,-0.09205,0.03850,0.00000,0.03160,0.97380,-0.19203,2023,6,8,14,0,16,65
2.07750,-0.00455,-0.01400,0.00000,0.02940,0.97405,-0.19239,2023,6,8,14,0,16,76
2.07760,0.01295,-0.08400,0.00000,0.03001,0.97759,-0.19191,2023,6,8,14,0,16,87
2.07770,-0.03955,0.21350,0.00000,0.03160,0.97380,-0.19105,2023,6,8,14,0,16,98
2.07780,0.01295,-0.11900,0.00000,0.03050,0.97624,-0.19227,2023,6,8,14,0,16,109
2.07790,-0.14455,0.16100,0.00000,0.03123,0.97612,-0.19056,2023,6,8,14,0,16,120
2.07800,0.08295,0.17850,0.00000,0.02977,0.97600,-0.19032,2023,6,8,14,0,16,131
2.07810,0.06545,-0.06650,0.00000,0.03111,0.97612,-0.18995,2023,6,8,14,0,16,142
2.07820,0.03045,0.14350,0.00000,0.02965,0.97588,-0.18971,2023,6,8,14,0,16,154
2.07830,-0.02205,-0.01400,0.00000,0.02989,0.97551,-0.19227,2023,6,8,14,0,16,165
2.07840,0.13545,0.02100,0.00000,0.03001,0.97368,-0.18751,2023,6,8,14,0,16,176
2.07850,0.17045,-0.03150,0.00000,0.03026,0.97600,-0.18922,2023,6,8,14,0,16,187
2.07860,-0.05705,0.12600,0.00000,0.03087,0.97441,-0.18934,2023,6,8,14,0,16,198
2.07870,0.03045,0.07350,0.00000,0.02855,0.97539,-0.18764,2023,6,8,14,0,16,209
2.07880,0.20545,0.00350,0.00000,0.03026,0.97405,-0.19056,2023,6,8,14,0,16,220
2.07890,0.10045,-0.11900,0.00000,0.02977,0.97588,-0.18873,2023,6,8,14,0,16,231
2.07900,-0.05705,-0.15400,0.00000,0.02794,0.97637,-0.19056,2023,6,8,14,0,16,242
2.07910,0.15295,-0.11900,0.00000,0.03050,0.97393,-0.18873,2023,6,8,14,0,16,254
2.07920,-0.00455,0.09100,0.00000,0.03111,0.97685,-0.19044,2023,6,8,14,0,16,265
2.07930,0.15295,-0.04900,0.00000,0.03074,0.97771,-0.18715,2023,6,8,14,0,16,276
2.07940,0.01295,0.12600,0.00000,0.03221,0.97332,-0.18764,2023,6,8,14,0,16,287
2.07950,0.03045,0.00350,0.00000,0.02989,0.97405,-0.19020,2023,6,8,14,0,16,298
2.07960,-0.05705,-0.04900,0.00000,0.03099,0.97429,-0.18898,2023,6,8,14,0,16,309
2.07970,0.08295,-0.08400,0.00000,0.02965,0.97515,-0.18934,2023,6,8,14,0,16,320
2.07980,0.10045,-0.11900,0.00000,0.03026,0.97661,-0.18947,2023,6,8,14,0,16,331
2.07990,0.08295,-0.17150,0.00000,0.03074,0.97563,-0.18800,2023,6,8,14,0,16,342
2.08000,-0.00455,-0.20650,0.00000,0.03050,0.97588,-0.18690,2023,6,8,14,0,16,354
2.08010,-0.02205,0.02100,0.00000,0.03367,0.97490,-0.18837,2023,6,8,14,0,16,365
2.08020,0.03045,0.09100,0.00000,0.03160,0.97624,-0.19032,2023,6,8,14,0,16,376
2.08030,0.13545,0.23100,0.00000,0.03270,0.97637,-0.18861,2023,6,8,14,0,16,387
2.08040,-0.12705,-0.08400,0.00000,0.03013,0.97490,-0.18934,2023,6,8,14,0,16,398
2.08050,0.11795,-0.13650,0.00000,0.02830,0.97441,-0.18995,2023,6,8,14,0,16,409
2.08060,-0.07455,0.05600,0.00000,0.02806,0.97454,-0.18959,2023,6,8,14,0,16,420
2.08070,-0.14455,-0.06650,0.00000,0.03184,0.97588,-0.18983,2023,6,8,14,0,16,431
2.08080,-0.05705,0.09100,0.00000,0.02977,0.97759,-0.18910,2023,6,8,14,0,16,442
2.08090,0.13545,0.05600,0.00000,0.03001,0.97649,-0.18959,2023,6,8,14,0,16,454
2.08100,0.04795,-0.06650,0.00000,0.02855,0.97417,-0.19008,2023,6,8,14,0,16,465
2.08110,-0.17955,0.03850,0.00000,0.02952,0.97441,-0.18690,2023,6,8,14,0,16,476
2.08120,-0.09205,0.05600,0.00000,0.03013,0.97563,-0.19288,2023,6,8,14,0,16,487
2.08130,-0.03955,0.05600,0.00000,0.03062,0.97649,-0.18873,2023,6,8,14,0,16,498
2.08140,0.15295,-0.08400,0.00000,0.03209,0.97600,-0.18788,2023,6,8,14,0,16,509
2.08150,0.04795,0.00350,0.00000,0.02977,0.97539,-0.18898,2023,6,8,14,0,16,520
2.08160,-0.03955,0.07350,0.00000,0.02928,0.97746,-0.18934,2023,6,8,14,0,16,531
2.08170,0.38045,-0.11900,0.00000,0.03196,0.97685,-0.18800,2023,6,8,14,0,16,542
2.08180,0.08295,-0.03150,0.00000,0.02904,0.97466,-0.18910,2023,6,8,14,0,16,554
2.08190,-0.19705,0.23100,0.00000,0.03038,0.97478,-0.19044,2023,6,8,14,0,16,565
2.08200,0.01295,0.05600,0.00000,0.03013,0.97478,-0.18910,2023,6,8,14,0,16,576
2.08210,0.01295,0.10850,0.00000,0.02916,0.97551,-0.18849,2023,6,8,14,0,16,587
2.08220,-0.00455,0.00350,0.00000,0.03160,0.97344,-0.18971,2023,6,8,14,0,16,598
2.08230,0.06545,-0.01400,0.00000,0.03050,0.97551,-0.18776,2023,6,8,14,0,16,609
2.08240,0.03045,-0.24150,0.00000,0.02977,0.97612,-0.18739,2023,6,8,14,0,16,620
2.08250,0.11795,0.00350,0.00000,0.02965,0.97441,-0.18642,2023,6,8,14,0,16,631
2.08260,0.11795,0.14350,0.00000,0.03087,0.97405,-0.18934,2023,6,8,14,0,16,642
2.08270,0.10045,0.03850,0.00000,0.03196,0.97734,-0.18825,2023,6,8,14,0,16,654
2.08280,0.06545,0.00350,0.00000,0.03135,0.97307,-0.18812,2023,6,8,14,0,16,665
2.08290,-0.05705,0.12600,0.00000,0.03135,0.97661,-0.18922,2023,6,8,14,0,16,676
2.08300,0.06545,0.07350,0.00000,0.03099,0.97807,-0.18886,2023,6,8,14,0,16,687
2.08310,0.03045,0.17850,0.00000,0.03196,0.97600,-0.18910,2023,6,8,14,0,16,698
2.08320,0.04795,0.09100,0.00000,0.02940,0.97661,-0.18849,2023,6,8,14,0,16,709
2.08330,0.06545,0.00350,0.00000,0.02879,0.97710,-0.19252,2023,6,8,14,0,16,720
2.08340,-0.07455,-0.10150,0.00000,0.03087,0.97746,-0.18971,2023,6,8,14,0,16,731
2.08350,0.08295,0.00350,0.00000,0.02952,0.97307,-0.18873,2023,6,8,14,0,16,742
2.08360,-0.07455,-0.04900,0.00000,0.03001,0.97710,-0.18751,2023,6,8,14,0,16,754
2.08370,0.10045,-0.10150,0.00000,0.03135,0.97576,-0.18849,2023,6,8,14,0,16,765
2.08380,0.10045,0.23100,0.00000,0.03050,0.97746,-0.18886,2023,6,8,14,0,16,776
2.08390,0.11795,-0.11900,0.00000,0.03013,0.97698,-0.18910,2023,6,8,14,0,16,787
2.08400,0.04795,0.00350,0.00000,0.03123,0.97527,-0.18800,2023,6,8,14,0,16,798
2.08410,-0.05705,0.05600,0.00000,0.03111,0.97490,-0.18788,2023,6,8,14,0,16,809
2.08420,0.06545,-0.03150,0.00000,0.03074,0.97807,-0.19008,2023,6,8,14,0,16,820
2.08430,0.03045,0.02100,0.00000,0.03135,0.97429,-0.18812,2023,6,8,14,0,16,831
2.08440,-0.09205,-0.18900,0.00000,0.03135,0.97368,-0.18776,2023,6,8,14,0,16,842
2.08450,0.01295,-0.11900,0.00000,0.03050,0.97722,-0.18654,2023,6,8,14,0,16,854
2.08460,0.08295,-0.04900,0.00000,0.02904,0.97466,-0.18849,2023,6,8,14,0,16,865
2.08470,0.10045,-0.13650,0.00000,0.03013,0.97478,-0.18995,2023,6,8,14,0,16,876
2.08480,0.03045,-0.08400,0.00000,0.03221,0.97405,-0.18983,2023,6,8,14,0,16,887
2.08490,-0.00455,-0.03150,0.00000,0.03062,0.97527,-0.18947,2023,6,8,14,0,16,898
2.08500,0.08295,0.03850,0.00000,0.03050,0.97649,-0.18825,2023,6,8,14,0,16,909
2.08510,0.17045,-0.18900,0.00000,0.03038,0.97649,-0.18788,2023,6,8,14,0,16,920
2.08520,0.06545,-0.10150,0.00000,0.02989,0.97661,-0.18947,2023,6,8,14,0,16,931
2.08530,0.15295,-0.08400,0.00000,0.03172,0.97588,-0.19142,2023,6,8,14,0,16,942
2.08540,0.08295,0.10850,0.00000,0.03074,0.97490,-0.18678,2023,6,8,14,0,16,954
2.08550,-0.05705,0.09100,0.00000,0.03050,0.97515,-0.18861,2023,6,8,14,0,16,965
2.08560,-0.03955,0.16100,0.00000,0.02928,0.97685,-0.19020,2023,6,8,14,0,16,976
2.08570,-0.10955,0.35350,0.00000,0.02794,0.97380,-0.19032,2023,6,8,14,0,16,987
2.08580,0.04795,-0.06650,0.00000,0.02916,0.97576,-0.18727,2023,6,8,14,0,17,8
2.08590,-0.09205,-0.10150,0.00000,0.03172,0.97746,-0.18764,2023,6,8,14,0,17,19
2.08600,-0.02205,0.23100,0.00000,0.03026,0.97356,-0.19093,2023,6,8,14,0,17,30
2.08610,0.03045,0.05600,0.00000,0.02940,0.97746,-0.18873,2023,6,8,14,0,17,41
2.08620,-0.02205,-0.01400,0.00000,0.02940,0.97466,-0.18703,2023,6,8,14,0,17,52
2.08630,0.10045,0.03850,0.00000,0.02843,0.97612,-0.18873,2023,6,8,14,0,17,64
2.08640,0.13545,-0.06650,0.00000,0.02879,0.97429,-0.18910,2023,6,8,14,0,17,75
2.08650,-0.07455,-0.03150,0.00000,0.02879,0.97576,-0.18764,2023,6,8,14,0,17,86
2.08660,0.03045,0.00350,0.00000,0.03013,0.97844,-0.19069,2023,6,8,14,0,17,97
2.08670,-0.02205,0.14350,0.00000,0.03160,0.97710,-0.18910,2023,6,8,14,0,17,108
2.08680,0.01295,-0.13650,0.00000,0.03160,0.97356,-0.18800,2023,6,8,14,0,17,119
2.08690,0.01295,-0.15400,0.00000,0.03172,0.97673,-0.18690,2023,6,8,14,0,17,130
2.08700,0.06545,0.10850,0.00000,0.02952,0.97478,-0.18788,2023,6,8,14,0,17,141
2.08710,0.18795,-0.24150,0.00000,0.03160,0.97588,-0.18849,2023,6,8,14,0,17,152
2.08720,0.13545,-0.08400,0.00000,0.03087,0.97600,-0.18971,2023,6,8,14,0,17,164
