#2023/06/08 13:26:11
time,wx,wy,wz,ax,ay,az,yy,MM,dd,hh,mm,ss,ms
0.01000,-0.03185,0.10938,0.00000,0.02977,0.97637,-0.17751,0.0,2023,6,8,13,26,12,261
0.01010,0.07315,0.10938,0.00000,0.03062,0.98088,-0.17519,0.0,2023,6,8,13,26,12,272
0.01020,0.07315,0.17938,0.00000,0.02940,0.97612,-0.17861,0.0,2023,6,8,13,26,12,283
0.01030,-0.08435,-0.13563,0.00000,0.03001,0.97905,-0.17739,0.0,2023,6,8,13,26,12,294
0.01040,0.05565,0.02187,0.00000,0.02891,0.97856,-0.17702,0.0,2023,6,8,13,26,12,305
0.01050,-0.13685,0.02187,0.00000,0.03001,0.97807,-0.17556,0.0,2023,6,8,13,26,12,316
0.01060,-0.03185,0.14438,0.00000,0.03038,0.98076,-0.17678,0.0,2023,6,8,13,26,12,327
0.01070,0.05565,-0.08312,0.00000,0.02965,0.97637,-0.17556,0.0,2023,6,8,13,26,12,338
0.01080,-0.11935,0.14438,0.00000,0.03038,0.97710,-0.17568,0.0,2023,6,8,13,26,12,349
0.01090,-0.06685,-0.03062,0.00000,0.03087,0.97856,-0.17629,0.0,2023,6,8,13,26,12,361
0.01100,-0.20685,0.07437,0.00000,0.03172,0.97783,-0.17470,0.0,2023,6,8,13,26,12,372
0.01110,-0.08435,0.10938,0.00000,0.02989,0.97820,-0.17714,0.0,2023,6,8,13,26,12,383
0.01120,-0.03185,0.02187,0.00000,0.03209,0.97783,-0.17397,0.0,2023,6,8,13,26,12,394
0.01130,-0.11935,-0.06562,0.00000,0.02757,0.97856,-0.17678,0.0,2023,6,8,13,26,12,405
0.01140,0.09065,-0.03062,0.00000,0.03404,0.97954,-0.17422,0.0,2023,6,8,13,26,12,416
0.01150,0.02065,0.10938,0.00000,0.02977,0.97539,-0.17409,0.0,2023,6,8,13,26,12,427
0.01160,-0.04935,0.02187,0.00000,0.03196,0.97661,-0.17336,0.0,2023,6,8,13,26,12,438
0.01170,-0.08435,0.03937,0.00000,0.02879,0.97868,-0.17653,0.0,2023,6,8,13,26,12,449
0.01180,0.03815,-0.15313,0.00000,0.03013,0.97807,-0.17483,0.0,2023,6,8,13,26,12,461
0.01190,0.03815,0.03937,0.00000,0.02782,0.97734,-0.17422,0.0,2023,6,8,13,26,12,472
0.01200,0.10815,0.10938,0.00000,0.02684,0.97795,-0.17409,0.0,2023,6,8,13,26,12,483
0.01210,-0.04935,0.17938,0.00000,0.03257,0.97600,-0.17507,0.0,2023,6,8,13,26,12,494
0.01220,0.00315,0.10938,0.00000,0.02867,0.97746,-0.17483,0.0,2023,6,8,13,26,12,505
0.01230,0.02065,0.10938,0.00000,0.02977,0.97759,-0.17605,0.0,2023,6,8,13,26,12,516
0.01240,0.03815,0.21437,0.00000,0.03074,0.97966,-0.17300,0.0,2023,6,8,13,26,12,527
0.01250,-0.03185,0.02187,0.00000,0.03013,0.97917,-0.17397,0.0,2023,6,8,13,26,12,538
0.01260,-0.03185,0.23187,0.00000,0.03013,0.97759,-0.17568,0.0,2023,6,8,13,26,12,549
0.01270,-0.08435,0.24937,0.00000,0.02818,0.97990,-0.17544,0.0,2023,6,8,13,26,12,561
0.01280,-0.24185,0.16188,0.00000,0.02928,0.97893,-0.17361,0.0,2023,6,8,13,26,12,572
0.01290,-0.10185,-0.03062,0.00000,0.02952,0.97942,-0.17556,0.0,2023,6,8,13,26,12,583
0.01300,-0.03185,0.09187,0.00000,0.02977,0.97820,-0.17409,0.0,2023,6,8,13,26,12,594
0.01310,-0.03185,-0.10062,0.00000,0.03038,0.97807,-0.17531,0.0,2023,6,8,13,26,12,605
0.01320,0.02065,0.07437,0.00000,0.02952,0.97832,-0.17629,0.0,2023,6,8,13,26,12,616
0.01330,-0.11935,-0.01312,0.00000,0.03148,0.97978,-0.17397,0.0,2023,6,8,13,26,12,627
0.01340,-0.01435,0.00437,0.00000,0.03013,0.97868,-0.17397,0.0,2023,6,8,13,26,12,638
0.01350,0.00315,0.07437,0.00000,0.03099,0.97917,-0.17470,0.0,2023,6,8,13,26,12,649
0.01360,0.02065,0.05687,0.00000,0.02916,0.97795,-0.17385,0.0,2023,6,8,13,26,12,661
0.01370,0.07315,0.09187,0.00000,0.03099,0.97759,-0.17226,0.0,2023,6,8,13,26,12,672
0.01380,0.07315,-0.08312,0.00000,0.03233,0.97685,-0.17507,0.0,2023,6,8,13,26,12,683
0.01390,0.00315,-0.01312,0.00000,0.02940,0.97710,-0.17397,0.0,2023,6,8,13,26,12,694
0.01400,-0.03185,0.09187,0.00000,0.02952,0.97990,-0.17153,0.0,2023,6,8,13,26,12,705
0.01410,0.07315,0.14438,0.00000,0.03026,0.97624,-0.17361,0.0,2023,6,8,13,26,12,716
0.01420,0.02065,0.00437,0.00000,0.03050,0.97807,-0.17373,0.0,2023,6,8,13,26,12,727
0.01430,0.02065,0.07437,0.00000,0.03123,0.97917,-0.17361,0.0,2023,6,8,13,26,12,738
0.01440,-0.20685,-0.11813,0.00000,0.03209,0.97905,-0.17470,0.0,2023,6,8,13,26,12,749
0.01450,0.05565,0.10938,0.00000,0.03050,0.97917,-0.17287,0.0,2023,6,8,13,26,12,761
0.01460,0.00315,0.03937,0.00000,0.03111,0.97929,-0.17531,0.0,2023,6,8,13,26,12,772
0.01470,0.33565,-0.18813,0.00000,0.02904,0.98149,-0.17556,0.0,2023,6,8,13,26,12,783
0.01480,0.02065,0.07437,0.00000,0.03160,0.97893,-0.17409,0.0,2023,6,8,13,26,12,794
0.01490,-0.17185,-0.01312,0.00000,0.03013,0.97881,-0.17409,0.0,2023,6,8,13,26,12,805
0.01500,0.09065,-0.06562,0.00000,0.03074,0.97746,-0.17287,0.0,2023,6,8,13,26,12,816
0.01510,-0.04935,0.24937,0.00000,0.03087,0.97685,-0.17434,0.0,2023,6,8,13,26,12,827
0.01520,-0.01435,0.05687,0.00000,0.03062,0.97844,-0.17312,0.0,2023,6,8,13,26,12,838
0.01530,0.00315,0.09187,0.00000,0.02818,0.97844,-0.17373,0.0,2023,6,8,13,26,12,849
0.01540,-0.11935,0.03937,0.00000,0.02818,0.97734,-0.17531,0.0,2023,6,8,13,26,12,861
0.01550,-0.08435,0.12688,0.00000,0.02952,0.98088,-0.17385,0.0,2023,6,8,13,26,12,872
0.01560,0.19565,-0.08312,0.00000,0.03026,0.97917,-0.17483,0.0,2023,6,8,13,26,12,883
0.01570,-0.10185,0.07437,0.00000,0.03111,0.97856,-0.17373,0.0,2023,6,8,13,26,12,894
0.01580,-0.01435,0.09187,0.00000,0.02977,0.97929,-0.17251,0.0,2023,6,8,13,26,12,905
0.01590,-0.06685,-0.01312,0.00000,0.03184,0.97698,-0.17385,0.0,2023,6,8,13,26,12,916
0.01600,0.09065,-0.17063,0.00000,0.03184,0.97868,-0.17092,0.0,2023,6,8,13,26,12,927
0.01610,-0.03185,0.12688,0.00000,0.03038,0.97807,-0.17458,0.0,2023,6,8,13,26,12,938
0.01620,0.07315,0.12688,0.00000,0.02855,0.97832,-0.17336,0.0,2023,6,8,13,26,12,949
0.01630,-0.08435,0.12688,0.00000,0.03001,0.97807,-0.17580,0.0,2023,6,8,13,26,12,961
0.01640,-0.22435,0.17938,0.00000,0.03135,0.97868,-0.17385,0.0,2023,6,8,13,26,12,972
0.01650,0.02065,-0.11813,0.00000,0.02904,0.97893,-0.17531,0.0,2023,6,8,13,26,12,983
0.01660,0.02065,0.05687,0.00000,0.02843,0.97698,-0.17458,0.0,2023,6,8,13,26,13,4
0.01670,0.09065,0.17938,0.00000,0.02830,0.97966,-0.17605,0.0,2023,6,8,13,26,13,15
0.01680,-0.04935,0.03937,0.00000,0.03184,0.97905,-0.17239,0.0,2023,6,8,13,26,13,26
0.01690,0.09065,-0.04812,0.00000,0.02830,0.97820,-0.17483,0.0,2023,6,8,13,26,13,37
0.01700,0.05565,-0.15313,0.00000,0.02867,0.97698,-0.17287,0.0,2023,6,8,13,26,13,48
0.01710,-0.03185,0.17938,0.00000,0.03135,0.97624,-0.17544,0.0,2023,6,8,13,26,13,59
0.01720,0.07315,-0.06562,0.00000,0.03038,0.97478,-0.17446,0.0,2023,6,8,13,26,13,71
0.01730,-0.04935,0.10938,0.00000,0.02916,0.97990,-0.17287,0.0,2023,6,8,13,26,13,82
0.01740,-0.27685,-0.10062,0.00000,0.03038,0.98112,-0.17287,0.0,2023,6,8,13,26,13,93
0.01750,-0.03185,0.23187,0.00000,0.03099,0.97783,-0.17653,0.0,2023,6,8,13,26,13,104
0.01760,-0.10185,-0.15313,0.00000,0.03050,0.98112,-0.17226,0.0,2023,6,8,13,26,13,115
0.01770,-0.03185,-0.06562,0.00000,0.03123,0.97942,-0.17434,0.0,2023,6,8,13,26,13,126
0.01780,-0.04935,0.14438,0.00000,0.03050,0.97868,-0.17446,0.0,2023,6,8,13,26,13,137
0.01790,-0.04935,0.03937,0.00000,0.03087,0.98112,-0.17336,0.0,2023,6,8,13,26,13,148
0.01800,0.00315,0.07437,0.00000,0.02891,0.97600,-0.17556,0.0,2023,6,8,13,26,13,159
0.01810,0.09065,0.21437,0.00000,0.03099,0.97820,-0.17483,0.0,2023,6,8,13,26,13,171
0.01820,0.07315,-0.01312,0.00000,0.02867,0.97966,-0.17653,0.0,2023,6,8,13,26,13,182
0.01830,-0.03185,0.19688,0.00000,0.03001,0.97734,-0.17507,0.0,2023,6,8,13,26,13,193
0.01840,-0.11935,-0.04812,0.00000,0.02965,0.97917,-0.17458,0.0,2023,6,8,13,26,13,204
0.01850,-0.08435,0.07437,0.00000,0.03111,0.97807,-0.17507,0.0,2023,6,8,13,26,13,215
0.01860,-0.13685,-0.04812,0.00000,0.02952,0.97722,-0.17361,0.0,2023,6,8,13,26,13,226
0.01870,-0.25935,0.05687,0.00000,0.03050,0.97905,-0.17470,0.0,2023,6,8,13,26,13,237
0.01880,0.03815,0.00437,0.00000,0.03184,0.97832,-0.17422,0.0,2023,6,8,13,26,13,248
0.01890,0.05565,-0.04812,0.00000,0.02904,0.97624,-0.17422,0.0,2023,6,8,13,26,13,259
0.01900,-0.08435,0.12688,0.00000,0.02904,0.97844,-0.17275,0.0,2023,6,8,13,26,13,271
0.01910,-0.17185,0.30187,0.00000,0.02952,0.97771,-0.17385,0.0,2023,6,8,13,26,13,282
0.01920,0.09065,0.09187,0.00000,0.03148,0.97881,-0.17409,0.0,2023,6,8,13,26,13,293
0.01930,-0.01435,0.09187,0.00000,0.03026,0.97844,-0.17422,0.0,2023,6,8,13,26,13,304
0.01940,-0.24185,0.16188,0.00000,0.02904,0.97490,-0.17385,0.0,2023,6,8,13,26,13,315
0.01950,0.00315,0.05687,0.00000,0.03001,0.97893,-0.17336,0.0,2023,6,8,13,26,13,326
0.01960,0.00315,-0.03062,0.00000,0.02952,0.97710,-0.17385,0.0,2023,6,8,13,26,13,337
0.01970,0.12565,-0.11813,0.00000,0.02891,0.97954,-0.17641,0.0,2023,6,8,13,26,13,348
0.01980,-0.29435,-0.01312,0.00000,0.03245,0.97710,-0.17592,0.0,2023,6,8,13,26,13,359
0.01990,0.00315,-0.01312,0.00000,0.02904,0.97612,-0.17434,0.0,2023,6,8,13,26,13,371
0.02000,0.07315,-0.04812,0.00000,0.03087,0.97868,-0.17385,0.0,2023,6,8,13,26,13,382
0.02010,0.10815,-0.20563,0.00000,0.03087,0.97576,-0.17226,0.0,2023,6,8,13,26,13,393
0.02020,0.33565,0.00437,0.00000,0.03221,0.97990,-0.17373,0.0,2023,6,8,13,26,13,404
0.02030,0.14315,-0.11813,0.00000,0.03233,0.97820,-0.17422,0.0,2023,6,8,13,26,13,415
0.02040,-0.13685,0.05687,0.00000,0.03123,0.97612,-0.17483,0.0,2023,6,8,13,26,13,426
0.02050,0.07315,-0.08312,0.00000,0.03087,0.97832,-0.17409,0.0,2023,6,8,13,26,13,437
0.02060,-0.17185,0.14438,0.00000,0.03001,0.97905,-0.17300,0.0,2023,6,8,13,26,13,448
0.02070,-0.17185,0.14438,0.00000,0.02830,0.97832,-0.17178,0.0,2023,6,8,13,26,13,459
0.02080,0.07315,0.23187,0.00000,0.02940,0.97661,-0.17495,0.0,2023,6,8,13,26,13,471
0.02090,-0.15435,-0.11813,0.00000,0.02891,0.97746,-0.17483,0.0,2023,6,8,13,26,13,482
0.02100,-0.01435,0.03937,0.00000,0.02830,0.97832,-0.17239,0.0,2023,6,8,13,26,13,493
0.02110,-0.01435,-0.04812,0.00000,0.03160,0.97807,-0.17397,0.0,2023,6,8,13,26,13,504
0.02120,0.00315,0.10938,0.00000,0.02830,0.97966,-0.17617,0.0,2023,6,8,13,26,13,515
0.02130,-0.13685,0.05687,0.00000,0.03050,0.97783,-0.17287,0.0,2023,6,8,13,26,13,526
0.02140,0.24815,-0.15313,0.00000,0.02843,0.97783,-0.17483,0.0,2023,6,8,13,26,13,537
0.02150,-0.18935,0.17938,0.00000,0.02855,0.97624,-0.17409,0.0,2023,6,8,13,26,13,548
0.02160,0.03815,0.12688,0.00000,0.02965,0.97734,-0.17409,0.0,2023,6,8,13,26,13,559
0.02170,-0.13685,0.24937,0.00000,0.02916,0.97966,-0.17348,0.0,2023,6,8,13,26,13,571
0.02180,-0.10185,0.02187,0.00000,0.03050,0.97588,-0.17312,0.0,2023,6,8,13,26,13,582
0.02190,0.10815,-0.03062,0.00000,0.02904,0.97868,-0.17483,0.0,2023,6,8,13,26,13,593
0.02200,0.17815,0.00437,0.00000,0.03172,0.97942,-0.17519,0.0,2023,6,8,13,26,13,604
0.02210,0.07315,-0.01312,0.00000,0.03074,0.97929,-0.17300,0.0,2023,6,8,13,26,13,615
0.02220,-0.24185,0.17938,0.00000,0.03050,0.97856,-0.17324,0.0,2023,6,8,13,26,13,626
0.02230,0.05565,-0.08312,0.00000,0.03172,0.97868,-0.17446,0.0,2023,6,8,13,26,13,637
0.02240,-0.03185,0.10938,0.00000,0.03026,0.97698,-0.17397,0.0,2023,6,8,13,26,13,648
0.02250,0.02065,-0.15313,0.00000,0.03099,0.97795,-0.17336,0.0,2023,6,8,13,26,13,659
0.02260,-0.22435,-0.03062,0.00000,0.03160,0.97734,-0.17312,0.0,2023,6,8,13,26,13,671
0.02270,-0.13685,0.03937,0.00000,0.03013,0.97771,-0.17300,0.0,2023,6,8,13,26,13,682
0.02280,0.02065,0.09187,0.00000,0.02867,0.97759,-0.17397,0.0,2023,6,8,13,26,13,693
0.02290,-0.17185,-0.01312,0.00000,0.02977,0.97600,-0.17556,0.0,2023,6,8,13,26,13,704
0.02300,0.07315,0.10938,0.00000,0.03209,0.97673,-0.17458,0.0,2023,6,8,13,26,13,715
0.02310,0.02065,0.02187,0.00000,0.03074,0.97832,-0.17300,0.0,2023,6,8,13,26,13,726
0.02320,0.10815,-0.13563,0.00000,0.03062,0.97832,-0.17312,0.0,2023,6,8,13,26,13,737
0.02330,-0.01435,-0.11813,0.00000,0.03233,0.97881,-0.17531,0.0,2023,6,8,13,26,13,748
0.02340,0.10815,0.16188,0.00000,0.03123,0.97685,-0.17617,0.0,2023,6,8,13,26,13,759
0.02350,0.05565,-0.01312,0.00000,0.03062,0.97844,-0.17568,0.0,2023,6,8,13,26,13,771
0.02360,-0.11935,0.00437,0.00000,0.03172,0.97783,-0.17470,0.0,2023,6,8,13,26,13,782
0.02370,0.05565,-0.20563,0.00000,0.02879,0.98039,-0.17361,0.0,2023,6,8,13,26,13,793
0.02380,0.03815,0.17938,0.00000,0.03087,0.97942,-0.17495,0.0,2023,6,8,13,26,13,804
0.02390,-0.13685,0.24937,0.00000,0.02843,0.97856,-0.17336,0.0,2023,6,8,13,26,13,815
0.02400,0.02065,-0.04812,0.00000,0.03221,0.97978,-0.17531,0.0,2023,6,8,13,26,13,826
0.02410,-0.01435,0.12688,0.00000,0.02989,0.97783,-0.17336,0.0,2023,6,8,13,26,13,837
0.02420,0.16065,-0.08312,0.00000,0.03172,0.97710,-0.17446,0.0,2023,6,8,13,26,13,848
0.02430,0.05565,0.03937,0.00000,0.03270,0.97942,-0.17483,0.0,2023,6,8,13,26,13,859
0.02440,-0.18935,0.03937,0.00000,0.03148,0.97868,-0.17336,0.0,2023,6,8,13,26,13,871
0.02450,0.09065,0.16188,0.00000,0.02977,0.97734,-0.17470,0.0,2023,6,8,13,26,13,882
0.02460,-0.10185,0.16188,0.00000,0.03123,0.97673,-0.17409,0.0,2023,6,8,13,26,13,893
0.02470,-0.04935,0.12688,0.00000,0.03087,0.97844,-0.17483,0.0,2023,6,8,13,26,13,904
0.02480,0.10815,0.17938,0.00000,0.03257,0.97881,-0.17312,0.0,2023,6,8,13,26,13,915
0.02490,-0.11935,-0.01312,0.00000,0.03026,0.97759,-0.17348,0.0,2023,6,8,13,26,13,926
0.02500,-0.13685,0.09187,0.00000,0.02904,0.97832,-0.17397,0.0,2023,6,8,13,26,13,937
0.02510,0.07315,0.16188,0.00000,0.03245,0.97661,-0.17275,0.0,2023,6,8,13,26,13,948
0.02520,-0.01435,0.09187,0.00000,0.02952,0.97771,-0.17324,0.0,2023,6,8,13,26,13,959
0.02530,0.09065,-0.22313,0.00000,0.02940,0.97795,-0.17214,0.0,2023,6,8,13,26,13,971
0.02540,-0.04935,0.03937,0.00000,0.02855,0.97771,-0.17422,0.0,2023,6,8,13,26,13,982
0.02550,-0.03185,-0.10062,0.00000,0.02904,0.98027,-0.17202,0.0,2023,6,8,13,26,14,3
0.02560,-0.01435,-0.04812,0.00000,0.02916,0.97771,-0.17409,0.0,2023,6,8,13,26,14,14
0.02570,-0.15435,0.05687,0.00000,0.03257,0.97710,-0.17251,0.0,2023,6,8,13,26,14,25
0.02580,0.12565,0.12688,0.00000,0.03209,0.97795,-0.17434,0.0,2023,6,8,13,26,14,36
0.02590,0.03815,-0.11813,0.00000,0.03038,0.97637,-0.17483,0.0,2023,6,8,13,26,14,47
0.02600,0.07315,0.02187,0.00000,0.03172,0.97649,-0.17397,0.0,2023,6,8,13,26,14,58
0.02610,0.02065,-0.10062,0.00000,0.02867,0.97856,-0.17592,0.0,2023,6,8,13,26,14,69
0.02620,-0.04935,0.09187,0.00000,0.02940,0.97832,-0.17263,0.0,2023,6,8,13,26,14,81
0.02630,-0.03185,-0.31062,0.00000,0.03270,0.97661,-0.17312,0.0,2023,6,8,13,26,14,92
0.02640,0.16065,-0.04812,0.00000,0.03209,0.97893,-0.17324,0.0,2023,6,8,13,26,14,103
0.02650,0.07315,-0.04812,0.00000,0.03026,0.97868,-0.17275,0.0,2023,6,8,13,26,14,114
0.02660,-0.10185,-0.04812,0.00000,0.03221,0.97539,-0.17202,0.0,2023,6,8,13,26,14,125
0.02670,-0.10185,0.12688,0.00000,0.03099,0.97868,-0.17275,0.0,2023,6,8,13,26,14,136
0.02680,0.09065,0.00437,0.00000,0.02952,0.97954,-0.17336,0.0,2023,6,8,13,26,14,147
0.02690,-0.10185,0.21437,0.00000,0.02952,0.98161,-0.17312,0.0,2023,6,8,13,26,14,158
0.02700,-0.08435,0.09187,0.00000,0.03221,0.97710,-0.17470,0.0,2023,6,8,13,26,14,169
0.02710,0.00315,-0.24062,0.00000,0.03087,0.97746,-0.17544,0.0,2023,6,8,13,26,14,181
0.02720,-0.01435,0.28437,0.00000,0.02843,0.97734,-0.17202,0.0,2023,6,8,13,26,14,192
0.02730,0.14315,0.00437,0.00000,0.03209,0.97783,-0.17409,0.0,2023,6,8,13,26,14,203
0.02740,0.07315,0.14438,0.00000,0.03026,0.97868,-0.17605,0.0,2023,6,8,13,26,14,214
0.02750,0.03815,0.02187,0.00000,0.03013,0.97759,-0.17519,0.0,2023,6,8,13,26,14,225
0.02760,-0.03185,-0.13563,0.00000,0.03148,0.97576,-0.17348,0.0,2023,6,8,13,26,14,236
0.02770,0.02065,0.00437,0.00000,0.02940,0.97807,-0.17190,0.0,2023,6,8,13,26,14,247
0.02780,-0.04935,-0.03062,0.00000,0.02806,0.97966,-0.17190,0.0,2023,6,8,13,26,14,258
0.02790,-0.01435,-0.03062,0.00000,0.03123,0.97746,-0.17434,0.0,2023,6,8,13,26,14,269
0.02800,-0.11935,0.23187,0.00000,0.03148,0.97820,-0.17666,0.0,2023,6,8,13,26,14,281
0.02810,0.09065,-0.03062,0.00000,0.03087,0.97832,-0.17507,0.0,2023,6,8,13,26,14,292
0.02820,0.14315,0.00437,0.00000,0.02965,0.97856,-0.17592,0.0,2023,6,8,13,26,14,303
0.02830,0.07315,-0.03062,0.00000,0.03026,0.97710,-0.17544,0.0,2023,6,8,13,26,14,314
0.02840,-0.01435,0.07437,0.00000,0.02989,0.97942,-0.17422,0.0,2023,6,8,13,26,14,325
0.02850,-0.11935,0.00437,0.00000,0.03135,0.97673,-0.17422,0.0,2023,6,8,13,26,14,336
0.02860,-0.15435,0.14438,0.00000,0.02989,0.97417,-0.17251,0.0,2023,6,8,13,26,14,347
0.02870,0.10815,0.02187,0.00000,0.03099,0.97856,-0.17336,0.0,2023,6,8,13,26,14,358
0.02880,-0.17185,0.03937,0.00000,0.03318,0.97795,-0.17409,0.0,2023,6,8,13,26,14,369
0.02890,-0.24185,0.10938,0.00000,0.03050,0.97942,-0.17031,0.0,2023,6,8,13,26,14,381
0.02900,-0.08435,0.09187,0.00000,0.03013,0.97917,-0.17483,0.0,2023,6,8,13,26,14,392
0.02910,-0.29435,0.02187,0.00000,0.03013,0.97868,-0.17397,0.0,2023,6,8,13,26,14,403
0.02920,0.03815,-0.11813,0.00000,0.03148,0.97685,-0.17226,0.0,2023,6,8,13,26,14,414
0.02930,0.02065,-0.11813,0.00000,0.02940,0.97807,-0.17446,0.0,2023,6,8,13,26,14,425
0.02940,-0.04935,0.10938,0.00000,0.02977,0.97905,-0.17312,0.0,2023,6,8,13,26,14,436
0.02950,-0.01435,-0.03062,0.00000,0.03111,0.97637,-0.17373,0.0,2023,6,8,13,26,14,447
0.02960,0.02065,0.19688,0.00000,0.03013,0.97710,-0.17470,0.0,2023,6,8,13,26,14,458
0.02970,-0.24185,-0.06562,0.00000,0.03270,0.97624,-0.17312,0.0,2023,6,8,13,26,14,469
0.02980,0.02065,0.12688,0.00000,0.02989,0.97685,-0.17580,0.0,2023,6,8,13,26,14,481
0.02990,-0.10185,-0.04812,0.00000,0.02928,0.97820,-0.17251,0.0,2023,6,8,13,26,14,492
0.03000,-0.08435,0.19688,0.00000,0.03148,0.97844,-0.17324,0.0,2023,6,8,13,26,14,503
0.03010,0.05565,0.16188,0.00000,0.03087,0.97978,-0.17409,0.0,2023,6,8,13,26,14,514
0.03020,0.00315,0.02187,0.00000,0.02879,0.97649,-0.17422,0.0,2023,6,8,13,26,14,525
0.03030,-0.06685,0.17938,0.00000,0.03001,0.97759,-0.17507,0.0,2023,6,8,13,26,14,536
0.03040,-0.11935,0.09187,0.00000,0.03074,0.97807,-0.17495,0.0,2023,6,8,13,26,14,547
0.03050,-0.22435,0.16188,0.00000,0.03111,0.97917,-0.17458,0.0,2023,6,8,13,26,14,558
0.03060,0.07315,0.23187,0.00000,0.03123,0.97783,-0.17214,0.0,2023,6,8,13,26,14,569
0.03070,0.12565,0.05687,0.00000,0.03026,0.98039,-0.17312,0.0,2023,6,8,13,26,14,581
0.03080,0.09065,0.09187,0.00000,0.02977,0.97795,-0.17226,0.0,2023,6,8,13,26,14,592
0.03090,0.03815,-0.17063,0.00000,0.02940,0.97795,-0.17422,0.0,2023,6,8,13,26,14,603
0.03100,-0.17185,-0.17063,0.00000,0.03038,0.97844,-0.17409,0.0,2023,6,8,13,26,14,614
0.03110,0.00315,0.02187,0.00000,0.02916,0.97868,-0.17263,0.0,2023,6,8,13,26,14,625
0.03120,-0.22435,0.21437,0.00000,0.03135,0.97844,-0.17251,0.0,2023,6,8,13,26,14,636
0.03130,-0.03185,0.03937,0.00000,0.02916,0.97795,-0.17422,0.0,2023,6,8,13,26,14,647
0.03140,0.00315,0.17938,0.00000,0.02940,0.97746,-0.17434,0.0,2023,6,8,13,26,14,658
0.03150,-0.15435,0.17938,0.00000,0.03245,0.97942,-0.17336,0.0,2023,6,8,13,26,14,669
0.03160,-0.01435,0.31937,0.00000,0.03270,0.97881,-0.17348,0.0,2023,6,8,13,26,14,681
0.03170,0.19565,-0.13563,0.00000,0.03184,0.97844,-0.17312,0.0,2023,6,8,13,26,14,692
0.03180,-0.18935,0.10938,0.00000,0.02965,0.97978,-0.17239,0.0,2023,6,8,13,26,14,703
0.03190,-0.01435,0.14438,0.00000,0.03172,0.97820,-0.17287,0.0,2023,6,8,13,26,14,714
0.03200,-0.11935,-0.06562,0.00000,0.03074,0.97795,-0.17263,0.0,2023,6,8,13,26,14,725
0.03210,0.10815,-0.17063,0.00000,0.03038,0.97881,-0.17263,0.0,2023,6,8,13,26,14,736
0.03220,-0.04935,0.12688,0.00000,0.03184,0.97990,-0.17336,0.0,2023,6,8,13,26,14,747
0.03230,-0.10185,0.16188,0.00000,0.02952,0.97832,-0.17568,0.0,2023,6,8,13,26,14,758
0.03240,0.02065,-0.03062,0.00000,0.03074,0.97954,-0.17263,0.0,2023,6,8,13,26,14,769
0.03250,0.09065,0.26687,0.00000,0.02940,0.97929,-0.17397,0.0,2023,6,8,13,26,14,781
0.03260,-0.10185,0.02187,0.00000,0.03026,0.98039,-0.17373,0.0,2023,6,8,13,26,14,792
0.03270,-0.06685,-0.03062,0.00000,0.02782,0.97832,-0.17409,0.0,2023,6,8,13,26,14,803
0.03280,-0.01435,0.17938,0.00000,0.03123,0.97710,-0.17446,0.0,2023,6,8,13,26,14,814
0.03290,-0.17185,-0.03062,0.00000,0.02855,0.97795,-0.17324,0.0,2023,6,8,13,26,14,825
0.03300,0.16065,0.03937,0.00000,0.03123,0.97868,-0.17263,0.0,2023,6,8,13,26,14,836
0.03310,0.05565,-0.08312,0.00000,0.02977,0.97771,-0.17507,0.0,2023,6,8,13,26,14,847
0.03320,0.07315,-0.03062,0.00000,0.03221,0.97551,-0.17556,0.0,2023,6,8,13,26,14,858
0.03330,-0.08435,0.23187,0.00000,0.02989,0.97942,-0.17519,0.0,2023,6,8,13,26,14,869
0.03340,0.02065,-0.03062,0.00000,0.03184,0.97856,-0.17361,0.0,2023,6,8,13,26,14,881
0.03350,0.30065,-0.15313,0.00000,0.03135,0.97783,-0.17531,0.0,2023,6,8,13,26,14,892
0.03360,-0.13685,0.10938,0.00000,0.02928,0.97771,-0.17141,0.0,2023,6,8,13,26,14,903
0.03370,-0.17185,-0.17063,0.00000,0.02965,0.97637,-0.17336,0.0,2023,6,8,13,26,14,914
0.03380,-0.11935,0.09187,0.00000,0.03099,0.97673,-0.17434,0.0,2023,6,8,13,26,14,925
0.03390,-0.04935,0.14438,0.00000,0.02891,0.97771,-0.17434,0.0,2023,6,8,13,26,14,936
0.03400,0.10815,-0.10062,0.00000,0.03001,0.97734,-0.17336,0.0,2023,6,8,13,26,14,947
0.03410,-0.08435,0.02187,0.00000,0.02879,0.97795,-0.17373,0.0,2023,6,8,13,26,14,958
0.03420,0.03815,-0.01312,0.00000,0.03221,0.97624,-0.17507,0.0,2023,6,8,13,26,14,969
0.03430,0.03815,-0.10062,0.00000,0.03343,0.97795,-0.17165,0.0,2023,6,8,13,26,14,981
0.03440,-0.03185,0.05687,0.00000,0.03026,0.97771,-0.17373,0.0,2023,6,8,13,26,14,992
0.03450,-0.04935,0.00437,0.00000,0.03233,0.97661,-0.17312,0.0,2023,6,8,13,26,15,3
0.03460,-0.11935,0.02187,0.00000,0.02928,0.97929,-0.17336,0.0,2023,6,8,13,26,15,14
0.03470,-0.15435,-0.15313,0.00000,0.03062,0.97612,-0.17409,0.0,2023,6,8,13,26,15,25
0.03480,-0.04935,0.19688,0.00000,0.03013,0.97795,-0.17544,0.0,2023,6,8,13,26,15,36
0.03490,0.03815,0.14438,0.00000,0.03038,0.97954,-0.17373,0.0,2023,6,8,13,26,15,47
0.03500,-0.06685,0.12688,0.00000,0.03001,0.97600,-0.17361,0.0,2023,6,8,13,26,15,58
0.03510,-0.08435,0.02187,0.00000,0.03026,0.97868,-0.17263,0.0,2023,6,8,13,26,15,69
0.03520,0.00315,-0.04812,0.00000,0.02989,0.97844,-0.17300,0.0,2023,6,8,13,26,15,81
0.03530,-0.06685,0.09187,0.00000,0.02989,0.97807,-0.17226,0.0,2023,6,8,13,26,15,92
0.03540,-0.08435,0.03937,0.00000,0.02989,0.97881,-0.17080,0.0,2023,6,8,13,26,15,103
0.03550,-0.08435,0.02187,0.00000,0.03160,0.97929,-0.17300,0.0,2023,6,8,13,26,15,114
0.03560,-0.06685,0.16188,0.00000,0.03209,0.97795,-0.17409,0.0,2023,6,8,13,26,15,125
0.03570,-0.06685,0.07437,0.00000,0.03062,0.97832,-0.17336,0.0,2023,6,8,13,26,15,136
0.03580,0.00315,0.02187,0.00000,0.03367,0.97759,-0.17324,0.0,2023,6,8,13,26,15,147
0.03590,-0.17185,-0.08312,0.00000,0.03074,0.97783,-0.17239,0.0,2023,6,8,13,26,15,158
0.03600,0.09065,0.19688,0.00000,0.02794,0.97795,-0.17422,0.0,2023,6,8,13,26,15,169
0.03610,0.21315,-0.25812,0.00000,0.03221,0.97856,-0.17446,0.0,2023,6,8,13,26,15,181
0.03620,0.19565,-0.06562,0.00000,0.02879,0.97795,-0.17397,0.0,2023,6,8,13,26,15,192
0.03630,-0.11935,0.16188,0.00000,0.02745,0.97722,-0.17251,0.0,2023,6,8,13,26,15,203
0.03640,0.02065,-0.34563,0.00000,0.03221,0.97807,-0.17519,0.0,2023,6,8,13,26,15,214
0.03650,-0.06685,0.14438,0.00000,0.03013,0.97954,-0.17336,0.0,2023,6,8,13,26,15,225
0.03660,0.14315,0.10938,0.00000,0.03172,0.97771,-0.17287,0.0,2023,6,8,13,26,15,236
0.03670,-0.11935,-0.04812,0.00000,0.03123,0.97868,-0.17202,0.0,2023,6,8,13,26,15,247
0.03680,-0.01435,0.12688,0.00000,0.02916,0.97868,-0.17202,0.0,2023,6,8,13,26,15,258
0.03690,-0.08435,0.19688,0.00000,0.03001,0.97820,-0.17239,0.0,2023,6,8,13,26,15,269
0.03700,-0.15435,0.09187,0.00000,0.03050,0.97759,-0.17446,0.0,2023,6,8,13,26,15,281
0.03710,0.10815,0.05687,0.00000,0.03001,0.97893,-0.17519,0.0,2023,6,8,13,26,15,292
0.03720,-0.04935,0.07437,0.00000,0.03257,0.97661,-0.17385,0.0,2023,6,8,13,26,15,303
0.03730,-0.01435,-0.11813,0.00000,0.03026,0.97783,-0.17409,0.0,2023,6,8,13,26,15,314
0.03740,-0.10185,0.28437,0.00000,0.03038,0.97820,-0.17324,0.0,2023,6,8,13,26,15,325
0.03750,0.00315,0.07437,0.00000,0.03111,0.97576,-0.17300,0.0,2023,6,8,13,26,15,336
0.03760,-0.04935,0.17938,0.00000,0.03001,0.97942,-0.17263,0.0,2023,6,8,13,26,15,347
0.03770,0.17815,-0.04812,0.00000,0.02904,0.97820,-0.17226,0.0,2023,6,8,13,26,15,358
0.03780,0.03815,0.09187,0.00000,0.03087,0.98027,-0.17129,0.0,2023,6,8,13,26,15,369
0.03790,-0.13685,0.10938,0.00000,0.02989,0.97905,-0.17348,0.0,2023,6,8,13,26,15,381
0.03800,0.02065,0.00437,0.00000,0.03148,0.97673,-0.17373,0.0,2023,6,8,13,26,15,392
0.03810,-0.04935,-0.10062,0.00000,0.03026,0.97795,-0.17202,0.0,2023,6,8,13,26,15,403
0.03820,-0.13685,0.33688,0.00000,0.02867,0.97820,-0.17495,0.0,2023,6,8,13,26,15,414
0.03830,0.02065,0.16188,0.00000,0.03135,0.97807,-0.17190,0.0,2023,6,8,13,26,15,425
0.03840,-0.08435,0.28437,0.00000,0.03026,0.97807,-0.17312,0.0,2023,6,8,13,26,15,436
0.03850,-0.04935,-0.15313,0.00000,0.02965,0.97868,-0.17385,0.0,2023,6,8,13,26,15,447
0.03860,0.19565,0.02187,0.00000,0.03050,0.97783,-0.17251,0.0,2023,6,8,13,26,15,458
0.03870,0.10815,0.12688,0.00000,0.02952,0.97844,-0.17336,0.0,2023,6,8,13,26,15,469
0.03880,0.19565,0.02187,0.00000,0.03062,0.98051,-0.17385,0.0,2023,6,8,13,26,15,481
0.03890,0.14315,-0.10062,0.00000,0.03050,0.97637,-0.17239,0.0,2023,6,8,13,26,15,492
0.03900,-0.01435,-0.04812,0.00000,0.02879,0.97856,-0.17385,0.0,2023,6,8,13,26,15,503
0.03910,0.00315,0.14438,0.00000,0.02928,0.97710,-0.17178,0.0,2023,6,8,13,26,15,514
0.03920,0.00315,0.02187,0.00000,0.03282,0.97893,-0.17422,0.0,2023,6,8,13,26,15,525
0.03930,0.05565,-0.03062,0.00000,0.03135,0.97844,-0.17263,0.0,2023,6,8,13,26,15,536
0.03940,-0.18935,0.17938,0.00000,0.02708,0.97795,-0.17275,0.0,2023,6,8,13,26,15,547
0.03950,-0.24185,0.23187,0.00000,0.02940,0.98198,-0.17348,0.0,2023,6,8,13,26,15,558
0.03960,-0.06685,0.02187,0.00000,0.03087,0.97649,-0.17287,0.0,2023,6,8,13,26,15,569
0.03970,-0.03185,0.02187,0.00000,0.03001,0.97710,-0.17495,0.0,2023,6,8,13,26,15,581
0.03980,0.05565,0.03937,0.00000,0.03074,0.98076,-0.17178,0.0,2023,6,8,13,26,15,592
0.03990,-0.04935,0.03937,0.00000,0.02904,0.97624,-0.17361,0.0,2023,6,8,13,26,15,603
0.04000,-0.08435,0.02187,0.00000,0.03148,0.97868,-0.17336,0.0,2023,6,8,13,26,15,614
0.04010,-0.03185,0.09187,0.00000,0.03062,0.97807,-0.17324,0.0,2023,6,8,13,26,15,625
0.04020,-0.03185,0.17938,0.00000,0.02977,0.98076,-0.17470,0.0,2023,6,8,13,26,15,636
0.04030,0.00315,-0.38063,0.00000,0.03087,0.97759,-0.17507,0.0,2023,6,8,13,26,15,647
0.04040,-0.04935,0.12688,0.00000,0.03257,0.97966,-0.17275,0.0,2023,6,8,13,26,15,658
0.04050,-0.04935,-0.04812,0.00000,0.03270,0.97600,-0.17397,0.0,2023,6,8,13,26,15,669
0.04060,0.16065,0.00437,0.00000,0.02916,0.97795,-0.17531,0.0,2023,6,8,13,26,15,681
0.04070,-0.10185,-0.10062,0.00000,0.02928,0.97771,-0.17446,0.0,2023,6,8,13,26,15,692
0.04080,-0.10185,0.00437,0.00000,0.03001,0.97710,-0.17275,0.0,2023,6,8,13,26,15,703
0.04090,-0.15435,0.16188,0.00000,0.03087,0.97807,-0.17373,0.0,2023,6,8,13,26,15,714
0.04100,-0.08435,0.16188,0.00000,0.03099,0.97588,-0.17422,0.0,2023,6,8,13,26,15,725
0.04110,-0.01435,0.12688,0.00000,0.03013,0.97771,-0.17300,0.0,2023,6,8,13,26,15,736
0.04120,-0.04935,0.05687,0.00000,0.03245,0.98039,-0.17312,0.0,2023,6,8,13,26,15,747
0.04130,-0.10185,0.00437,0.00000,0.03184,0.97954,-0.17373,0.0,2023,6,8,13,26,15,758
0.04140,0.02065,0.03937,0.00000,0.03062,0.97722,-0.17068,0.0,2023,6,8,13,26,15,769
0.04150,0.12565,0.19688,0.00000,0.02855,0.97710,-0.17446,0.0,2023,6,8,13,26,15,781
0.04160,0.00315,0.10938,0.00000,0.03087,0.98064,-0.17324,0.0,2023,6,8,13,26,15,792
0.04170,-0.15435,0.05687,0.00000,0.03221,0.97771,-0.17336,0.0,2023,6,8,13,26,15,803
0.04180,-0.03185,0.17938,0.00000,0.03050,0.97820,-0.17226,0.0,2023,6,8,13,26,15,814
0.04190,0.09065,-0.17063,0.00000,0.02916,0.97734,-0.17397,0.0,2023,6,8,13,26,15,825
0.04200,0.07315,-0.06562,0.00000,0.02952,0.97710,-0.17580,0.0,2023,6,8,13,26,15,836
0.04210,-0.03185,0.00437,0.00000,0.03123,0.97832,-0.17348,0.0,2023,6,8,13,26,15,847
0.04220,0.35315,-0.10062,0.00000,0.03172,0.97783,-0.17361,0.0,2023,6,8,13,26,15,858
0.04230,0.00315,0.03937,0.00000,0.03074,0.97807,-0.17373,0.0,2023,6,8,13,26,15,869
0.04240,0.16065,-0.29312,0.00000,0.03099,0.97881,-0.17495,0.0,2023,6,8,13,26,15,881
0.04250,0.07315,-0.13563,0.00000,0.03050,0.97624,-0.17373,0.0,2023,6,8,13,26,15,892
0.04260,-0.03185,0.10938,0.00000,0.03196,0.97820,-0.17239,0.0,2023,6,8,13,26,15,903
0.04270,-0.11935,0.05687,0.00000,0.03074,0.97734,-0.17385,0.0,2023,6,8,13,26,15,914
0.04280,0.03815,0.21437,0.00000,0.03282,0.97807,-0.17263,0.0,2023,6,8,13,26,15,925
0.04290,0.05565,0.05687,0.00000,0.03196,0.97832,-0.17043,0.0,2023,6,8,13,26,15,936
0.04300,-0.11935,0.12688,0.00000,0.03099,0.97795,-0.17519,0.0,2023,6,8,13,26,15,947
0.04310,-0.17185,0.09187,0.00000,0.03209,0.97637,-0.17446,0.0,2023,6,8,13,26,15,958
0.04320,0.03815,-0.04812,0.00000,0.03087,0.97710,-0.17263,0.0,2023,6,8,13,26,15,969
0.04330,0.00315,0.19688,0.00000,0.02916,0.97746,-0.17141,0.0,2023,6,8,13,26,15,981
0.04340,-0.11935,0.07437,0.00000,0.03038,0.98149,-0.17312,0.0,2023,6,8,13,26,16,2
0.04350,-0.10185,0.12688,0.00000,0.03074,0.97722,-0.17251,0.0,2023,6,8,13,26,16,13
0.04360,-0.06685,-0.25812,0.00000,0.03087,0.97844,-0.17214,0.0,2023,6,8,13,26,16,24
0.04370,-0.04935,0.07437,0.00000,0.02928,0.97832,-0.17434,0.0,2023,6,8,13,26,16,35
0.04380,0.03815,-0.20563,0.00000,0.03050,0.97881,-0.17080,0.0,2023,6,8,13,26,16,46
0.04390,0.09065,0.05687,0.00000,0.03074,0.97844,-0.17373,0.0,2023,6,8,13,26,16,57
0.04400,0.02065,0.35438,0.00000,0.03184,0.97881,-0.17434,0.0,2023,6,8,13,26,16,68
0.04410,-0.01435,0.00437,0.00000,0.03135,0.97612,-0.17397,0.0,2023,6,8,13,26,16,79
0.04420,0.05565,0.07437,0.00000,0.03038,0.97820,-0.17458,0.0,2023,6,8,13,26,16,91
0.04430,-0.01435,0.07437,0.00000,0.02952,0.97893,-0.17300,0.0,2023,6,8,13,26,16,102
0.04440,0.05565,0.05687,0.00000,0.03062,0.97783,-0.17458,0.0,2023,6,8,13,26,16,113
0.04450,0.02065,-0.06562,0.00000,0.03013,0.97832,-0.17141,0.0,2023,6,8,13,26,16,124
0.04460,0.02065,0.12688,0.00000,0.03074,0.97783,-0.17519,0.0,2023,6,8,13,26,16,135
0.04470,-0.06685,0.14438,0.00000,0.03172,0.97795,-0.17117,0.0,2023,6,8,13,26,16,146
0.04480,-0.04935,-0.03062,0.00000,0.02891,0.97844,-0.17165,0.0,2023,6,8,13,26,16,157
0.04490,-0.17185,-0.03062,0.00000,0.03148,0.97856,-0.17373,0.0,2023,6,8,13,26,16,168
0.04500,0.02065,0.07437,0.00000,0.02952,0.98210,-0.17312,0.0,2023,6,8,13,26,16,179
0.04510,-0.11935,0.05687,0.00000,0.03026,0.97929,-0.17324,0.0,2023,6,8,13,26,16,191
0.04520,0.07315,-0.03062,0.00000,0.03087,0.97820,-0.17324,0.0,2023,6,8,13,26,16,202
0.04530,0.12565,0.23187,0.00000,0.02965,0.97637,-0.17165,0.0,2023,6,8,13,26,16,213
0.04540,0.00315,0.05687,0.00000,0.03038,0.97783,-0.17361,0.0,2023,6,8,13,26,16,224
0.04550,-0.13685,-0.13563,0.00000,0.02891,0.97539,-0.17092,0.0,2023,6,8,13,26,16,235
0.04560,0.00315,-0.04812,0.00000,0.03160,0.98088,-0.17531,0.0,2023,6,8,13,26,16,246
0.04570,-0.03185,0.07437,0.00000,0.03099,0.97893,-0.17275,0.0,2023,6,8,13,26,16,257
0.04580,0.09065,-0.01312,0.00000,0.02879,0.97588,-0.17446,0.0,2023,6,8,13,26,16,268
0.04590,-0.08435,-0.08312,0.00000,0.03160,0.97893,-0.17117,0.0,2023,6,8,13,26,16,279
0.04600,0.05565,0.10938,0.00000,0.02940,0.97954,-0.17373,0.0,2023,6,8,13,26,16,291
0.04610,0.00315,-0.15313,0.00000,0.03087,0.97673,-0.17287,0.0,2023,6,8,13,26,16,302
0.04620,0.09065,0.12688,0.00000,0.02965,0.97746,-0.17178,0.0,2023,6,8,13,26,16,313
0.04630,0.10815,-0.20563,0.00000,0.03245,0.97710,-0.17324,0.0,2023,6,8,13,26,16,324
0.04640,0.10815,0.10938,0.00000,0.03062,0.97807,-0.17190,0.0,2023,6,8,13,26,16,335
0.04650,-0.15435,0.23187,0.00000,0.03074,0.97637,-0.17300,0.0,2023,6,8,13,26,16,346
0.04660,-0.15435,-0.04812,0.00000,0.03038,0.97759,-0.17190,0.0,2023,6,8,13,26,16,357
0.04670,-0.15435,-0.01312,0.00000,0.03111,0.97832,-0.17324,0.0,2023,6,8,13,26,16,368
0.04680,-0.06685,-0.18813,0.00000,0.03062,0.97795,-0.17251,0.0,2023,6,8,13,26,16,379
0.04690,-0.03185,-0.15313,0.00000,0.03026,0.97893,-0.17385,0.0,2023,6,8,13,26,16,391
0.04700,-0.13685,-0.10062,0.00000,0.02830,0.98039,-0.17214,0.0,2023,6,8,13,26,16,402
0.04710,0.05565,-0.10062,0.00000,0.03013,0.97759,-0.17446,0.0,2023,6,8,13,26,16,413
0.04720,0.07315,-0.11813,0.00000,0.03001,0.97502,-0.17361,0.0,2023,6,8,13,26,16,424
0.04730,0.02065,0.03937,0.00000,0.03099,0.97576,-0.17287,0.0,2023,6,8,13,26,16,435
0.04740,-0.08435,0.00437,0.00000,0.03221,0.97551,-0.17287,0.0,2023,6,8,13,26,16,446
0.04750,0.07315,0.16188,0.00000,0.02904,0.97673,-0.17409,0.0,2023,6,8,13,26,16,457
0.04760,0.00315,0.05687,0.00000,0.03209,0.97820,-0.17117,0.0,2023,6,8,13,26,16,468
0.04770,0.10815,0.03937,0.00000,0.03209,0.97856,-0.17226,0.0,2023,6,8,13,26,16,479
0.04780,-0.11935,-0.20563,0.00000,0.02684,0.97820,-0.17397,0.0,2023,6,8,13,26,16,491
0.04790,0.17815,-0.11813,0.00000,0.02879,0.97722,-0.17092,0.0,2023,6,8,13,26,16,502
0.04800,-0.08435,0.12688,0.00000,0.02904,0.97832,-0.17361,0.0,2023,6,8,13,26,16,513
0.04810,-0.03185,-0.04812,0.00000,0.03038,0.97917,-0.17361,0.0,2023,6,8,13,26,16,524
0.04820,-0.15435,0.17938,0.00000,0.03038,0.97795,-0.17251,0.0,2023,6,8,13,26,16,535
0.04830,0.21315,-0.04812,0.00000,0.03123,0.97868,-0.17043,0.0,2023,6,8,13,26,16,546
0.04840,-0.11935,0.07437,0.00000,0.03026,0.97624,-0.17214,0.0,2023,6,8,13,26,16,557
0.04850,0.09065,0.03937,0.00000,0.03074,0.97734,-0.17117,0.0,2023,6,8,13,26,16,568
0.04860,0.16065,-0.03062,0.00000,0.03148,0.97783,-0.17275,0.0,2023,6,8,13,26,16,579
0.04870,-0.01435,0.14438,0.00000,0.03087,0.97600,-0.17190,0.0,2023,6,8,13,26,16,591
0.04880,0.03815,-0.31062,0.00000,0.02928,0.97746,-0.17324,0.0,2023,6,8,13,26,16,602
0.04890,0.10815,0.19688,0.00000,0.03160,0.97966,-0.17434,0.0,2023,6,8,13,26,16,613
0.04900,-0.04935,0.21437,0.00000,0.02989,0.97917,-0.17422,0.0,2023,6,8,13,26,16,624
0.04910,0.07315,-0.08312,0.00000,0.02830,0.97795,-0.17361,0.0,2023,6,8,13,26,16,635
0.04920,-0.04935,0.00437,0.00000,0.02965,0.97649,-0.17080,0.0,2023,6,8,13,26,16,646
0.04930,0.07315,0.07437,0.00000,0.03062,0.97771,-0.17226,0.0,2023,6,8,13,26,16,657
0.04940,-0.04935,0.03937,0.00000,0.02965,0.97673,-0.17214,0.0,2023,6,8,13,26,16,668
0.04950,0.03815,0.05687,0.00000,0.03135,0.97905,-0.17507,0.0,2023,6,8,13,26,16,679
0.04960,-0.03185,0.19688,0.00000,0.03184,0.97966,-0.17202,0.0,2023,6,8,13,26,16,691
0.04970,0.02065,-0.11813,0.00000,0.03050,0.97624,-0.17434,0.0,2023,6,8,13,26,16,702
0.04980,-0.04935,0.19688,0.00000,0.03038,0.97673,-0.17226,0.0,2023,6,8,13,26,16,713
0.04990,0.23065,-0.03062,0.00000,0.03221,0.97637,-0.17312,0.0,2023,6,8,13,26,16,724
0.05000,-0.15435,0.14438,0.00000,0.02989,0.97771,-0.17422,0.0,2023,6,8,13,26,16,735
0.05010,0.02065,0.14438,0.00000,0.03087,0.97868,-0.17226,0.0,2023,6,8,13,26,16,746
0.05020,-0.20685,-0.04812,0.00000,0.03172,0.97868,-0.17287,0.0,2023,6,8,13,26,16,757
0.05030,-0.17185,0.16188,0.00000,0.03343,0.97600,-0.17409,0.0,2023,6,8,13,26,16,768
0.05040,0.07315,0.10938,0.00000,0.03184,0.97734,-0.17300,0.0,2023,6,8,13,26,16,779
0.05050,-0.03185,-0.01312,0.00000,0.03111,0.97685,-0.17434,0.0,2023,6,8,13,26,16,791
0.05060,-0.08435,0.00437,0.00000,0.02940,0.97710,-0.17446,0.0,2023,6,8,13,26,16,802
0.05070,-0.10185,0.02187,0.00000,0.03160,0.97917,-0.17422,0.0,2023,6,8,13,26,16,813
0.05080,0.14315,0.19688,0.00000,0.02940,0.97929,-0.17409,0.0,2023,6,8,13,26,16,824
0.05090,0.00315,0.00437,0.00000,0.02806,0.97673,-0.17568,0.0,2023,6,8,13,26,16,835
0.05100,-0.18935,0.05687,0.00000,0.02794,0.97685,-0.17263,0.0,2023,6,8,13,26,16,846
0.05110,0.00315,0.14438,0.00000,0.02806,0.97820,-0.17470,0.0,2023,6,8,13,26,16,857
0.05120,0.12565,-0.10062,0.00000,0.03306,0.98076,-0.17446,0.0,2023,6,8,13,26,16,868
0.05130,0.07315,-0.17063,0.00000,0.03209,0.97673,-0.17165,0.0,2023,6,8,13,26,16,879
0.05140,-0.01435,-0.18813,0.00000,0.03001,0.98027,-0.17312,0.0,2023,6,8,13,26,16,891
0.05150,0.02065,-0.08312,0.00000,0.02928,0.97795,-0.17031,0.0,2023,6,8,13,26,16,902
0.05160,0.02065,0.07437,0.00000,0.03160,0.98064,-0.17165,0.0,2023,6,8,13,26,16,913
0.05170,0.02065,0.02187,0.00000,0.02916,0.97929,-0.17312,0.0,2023,6,8,13,26,16,924
0.05180,-0.08435,0.00437,0.00000,0.03013,0.97746,-0.17165,0.0,2023,6,8,13,26,16,935
0.05190,-0.13685,-0.06562,0.00000,0.02904,0.97649,-0.17519,0.0,2023,6,8,13,26,16,946
0.05200,-0.10185,-0.10062,0.00000,0.03148,0.97795,-0.17153,0.0,2023,6,8,13,26,16,957
0.05210,0.07315,-0.03062,0.00000,0.02916,0.97820,-0.16995,0.0,2023,6,8,13,26,16,968
0.05220,0.12565,0.05687,0.00000,0.03074,0.97746,-0.17300,0.0,2023,6,8,13,26,16,979
0.05230,-0.01435,0.09187,0.00000,0.02977,0.97905,-0.17202,0.0,2023,6,8,13,26,16,991
0.05240,-0.03185,0.17938,0.00000,0.03050,0.97881,-0.17239,0.0,2023,6,8,13,26,17,2
0.05250,-0.18935,0.28437,0.00000,0.02989,0.97868,-0.17153,0.0,2023,6,8,13,26,17,13
0.05260,-0.01435,0.07437,0.00000,0.03196,0.97710,-0.17434,0.0,2023,6,8,13,26,17,24
0.05270,0.05565,0.03937,0.00000,0.03111,0.97929,-0.17239,0.0,2023,6,8,13,26,17,35
0.05280,-0.10185,0.02187,0.00000,0.03038,0.97881,-0.17251,0.0,2023,6,8,13,26,17,46
0.05290,0.07315,0.02187,0.00000,0.03087,0.97673,-0.17263,0.0,2023,6,8,13,26,17,57
0.05300,0.03815,0.03937,0.00000,0.03111,0.97942,-0.17190,0.0,2023,6,8,13,26,17,68
0.05310,0.19565,-0.10062,0.00000,0.03160,0.97868,-0.17361,0.0,2023,6,8,13,26,17,79
0.05320,-0.01435,-0.04812,0.00000,0.02879,0.97673,-0.17458,0.0,2023,6,8,13,26,17,91
0.05330,0.12565,0.09187,0.00000,0.02916,0.97905,-0.17348,0.0,2023,6,8,13,26,17,102
0.05340,-0.04935,0.03937,0.00000,0.03111,0.97746,-0.17312,0.0,2023,6,8,13,26,17,113
0.05350,-0.17185,0.28437,0.00000,0.03135,0.97588,-0.16970,0.0,2023,6,8,13,26,17,124
0.05360,-0.01435,-0.01312,0.00000,0.03233,0.97844,-0.17348,0.0,2023,6,8,13,26,17,135
0.05370,0.09065,-0.03062,0.00000,0.03123,0.97881,-0.17336,0.0,2023,6,8,13,26,17,146
0.05380,-0.01435,0.05687,0.00000,0.03245,0.97637,-0.17202,0.0,2023,6,8,13,26,17,157
0.05390,0.14315,0.00437,0.00000,0.02660,0.97563,-0.17287,0.0,2023,6,8,13,26,17,168
0.05400,0.00315,0.07437,0.00000,0.02989,0.97722,-0.17507,0.0,2023,6,8,13,26,17,179
0.05410,-0.10185,-0.08312,0.00000,0.02879,0.97539,-0.17239,0.0,2023,6,8,13,26,17,191
0.05420,0.07315,0.12688,0.00000,0.03062,0.98149,-0.17495,0.0,2023,6,8,13,26,17,202
0.05430,-0.13685,0.17938,0.00000,0.03087,0.97783,-0.17226,0.0,2023,6,8,13,26,17,213
0.05440,0.05565,0.05687,0.00000,0.02891,0.97600,-0.17312,0.0,2023,6,8,13,26,17,224
0.05450,-0.15435,0.14438,0.00000,0.03087,0.97490,-0.17300,0.0,2023,6,8,13,26,17,235
0.05460,0.00315,0.21437,0.00000,0.02904,0.97698,-0.17214,0.0,2023,6,8,13,26,17,246
0.05470,0.02065,0.07437,0.00000,0.02879,0.97746,-0.17287,0.0,2023,6,8,13,26,17,257
0.05480,0.03815,0.03937,0.00000,0.03209,0.97759,-0.17373,0.0,2023,6,8,13,26,17,268
0.05490,0.03815,0.03937,0.00000,0.02708,0.97771,-0.17300,0.0,2023,6,8,13,26,17,279
0.05500,-0.01435,-0.03062,0.00000,0.02952,0.97917,-0.17385,0.0,2023,6,8,13,26,17,291
0.05510,-0.13685,0.07437,0.00000,0.02806,0.97746,-0.17226,0.0,2023,6,8,13,26,17,302
0.05520,-0.10185,0.23187,0.00000,0.03013,0.97795,-0.17239,0.0,2023,6,8,13,26,17,313
0.05530,-0.04935,-0.01312,0.00000,0.03001,0.97783,-0.17263,0.0,2023,6,8,13,26,17,324
0.05540,0.19565,-0.11813,0.00000,0.03026,0.97612,-0.17263,0.0,2023,6,8,13,26,17,335
0.05550,-0.03185,0.07437,0.00000,0.03294,0.97673,-0.17385,0.0,2023,6,8,13,26,17,346
0.05560,0.05565,-0.04812,0.00000,0.02916,0.98051,-0.17275,0.0,2023,6,8,13,26,17,357
0.05570,-0.24185,0.12688,0.00000,0.03013,0.97820,-0.17531,0.0,2023,6,8,13,26,17,368
0.05580,0.02065,0.21437,0.00000,0.02977,0.97771,-0.17458,0.0,2023,6,8,13,26,17,379
0.05590,0.05565,0.17938,0.00000,0.03087,0.97990,-0.17361,0.0,2023,6,8,13,26,17,391
0.05600,-0.03185,0.17938,0.00000,0.03062,0.97844,-0.17458,0.0,2023,6,8,13,26,17,402
0.05610,0.00315,-0.17063,0.00000,0.03087,0.97905,-0.17531,0.0,2023,6,8,13,26,17,413
0.05620,-0.01435,0.05687,0.00000,0.03013,0.97759,-0.17446,0.0,2023,6,8,13,26,17,424
0.05630,0.02065,0.02187,0.00000,0.03148,0.97783,-0.17458,0.0,2023,6,8,13,26,17,435
0.05640,-0.11935,0.09187,0.00000,0.02952,0.97722,-0.17458,0.0,2023,6,8,13,26,17,446
0.05650,-0.06685,-0.15313,0.00000,0.03062,0.97807,-0.17434,0.0,2023,6,8,13,26,17,457
0.05660,0.16065,0.03937,0.00000,0.03294,0.97990,-0.17397,0.0,2023,6,8,13,26,17,468
0.05670,0.02065,-0.10062,0.00000,0.03209,0.97820,-0.17470,0.0,2023,6,8,13,26,17,479
0.05680,0.14315,0.00437,0.00000,0.02940,0.97917,-0.17263,0.0,2023,6,8,13,26,17,491
0.05690,0.05565,0.05687,0.00000,0.03013,0.97966,-0.17544,0.0,2023,6,8,13,26,17,502
0.05700,-0.08435,0.28437,0.00000,0.02891,0.97893,-0.17397,0.0,2023,6,8,13,26,17,513
0.05710,-0.15435,0.10938,0.00000,0.02843,0.97990,-0.17458,0.0,2023,6,8,13,26,17,524
0.05720,-0.04935,-0.10062,0.00000,0.03050,0.97881,-0.17287,0.0,2023,6,8,13,26,17,535
0.05730,-0.17185,0.12688,0.00000,0.02965,0.97746,-0.17470,0.0,2023,6,8,13,26,17,546
0.05740,0.05565,0.16188,0.00000,0.02989,0.97734,-0.17470,0.0,2023,6,8,13,26,17,557
0.05750,0.03815,0.05687,0.00000,0.02904,0.97515,-0.17458,0.0,2023,6,8,13,26,17,568
0.05760,0.07315,-0.04812,0.00000,0.03001,0.97929,-0.17373,0.0,2023,6,8,13,26,17,579
0.05770,0.00315,-0.06562,0.00000,0.03221,0.97771,-0.17531,0.0,2023,6,8,13,26,17,591
0.05780,-0.06685,0.05687,0.00000,0.03026,0.97722,-0.17458,0.0,2023,6,8,13,26,17,602
0.05790,0.17815,0.14438,0.00000,0.03111,0.98015,-0.17397,0.0,2023,6,8,13,26,17,613
0.05800,-0.08435,0.09187,0.00000,0.03184,0.97746,-0.17556,0.0,2023,6,8,13,26,17,624
0.05810,-0.04935,-0.10062,0.00000,0.03050,0.97759,-0.17300,0.0,2023,6,8,13,26,17,635
0.05820,-0.25935,0.23187,0.00000,0.02952,0.97942,-0.17336,0.0,2023,6,8,13,26,17,646
0.05830,0.10815,-0.13563,0.00000,0.03050,0.97759,-0.17251,0.0,2023,6,8,13,26,17,657
0.05840,-0.04935,0.35438,0.00000,0.02965,0.97893,-0.17568,0.0,2023,6,8,13,26,17,668
0.05850,-0.15435,0.24937,0.00000,0.02818,0.97942,-0.17312,0.0,2023,6,8,13,26,17,679
0.05860,0.02065,-0.10062,0.00000,0.03221,0.97588,-0.17434,0.0,2023,6,8,13,26,17,691
0.05870,0.00315,0.09187,0.00000,0.02928,0.97893,-0.17470,0.0,2023,6,8,13,26,17,702
0.05880,0.10815,-0.03062,0.00000,0.03184,0.97881,-0.17422,0.0,2023,6,8,13,26,17,713
0.05890,0.00315,-0.06562,0.00000,0.03099,0.97698,-0.17153,0.0,2023,6,8,13,26,17,724
0.05900,-0.03185,-0.17063,0.00000,0.02818,0.97710,-0.17556,0.0,2023,6,8,13,26,17,735
0.05910,-0.01435,-0.08312,0.00000,0.02977,0.97905,-0.17336,0.0,2023,6,8,13,26,17,746
0.05920,-0.04935,0.03937,0.00000,0.03294,0.97698,-0.17568,0.0,2023,6,8,13,26,17,757
0.05930,-0.06685,0.03937,0.00000,0.02867,0.97698,-0.17361,0.0,2023,6,8,13,26,17,768
0.05940,-0.10185,0.23187,0.00000,0.02794,0.97942,-0.17592,0.0,2023,6,8,13,26,17,779
0.05950,-0.11935,0.19688,0.00000,0.02940,0.97954,-0.17519,0.0,2023,6,8,13,26,17,791
0.05960,0.17815,-0.04812,0.00000,0.03111,0.97624,-0.17397,0.0,2023,6,8,13,26,17,802
0.05970,-0.10185,0.00437,0.00000,0.02965,0.97698,-0.17629,0.0,2023,6,8,13,26,17,813
0.05980,-0.15435,0.17938,0.00000,0.03123,0.97649,-0.17397,0.0,2023,6,8,13,26,17,824
0.05990,0.02065,0.00437,0.00000,0.02977,0.97771,-0.17361,0.0,2023,6,8,13,26,17,835
0.06000,0.07315,-0.22313,0.00000,0.03001,0.97795,-0.17336,0.0,2023,6,8,13,26,17,846
0.06010,0.03815,-0.03062,0.00000,0.03099,0.98064,-0.17434,0.0,2023,6,8,13,26,17,857
0.06020,0.24815,-0.11813,0.00000,0.02818,0.97685,-0.17422,0.0,2023,6,8,13,26,17,868
0.06030,0.16065,0.14438,0.00000,0.02989,0.97868,-0.17385,0.0,2023,6,8,13,26,17,879
0.06040,-0.01435,-0.08312,0.00000,0.02904,0.97783,-0.17397,0.0,2023,6,8,13,26,17,891
0.06050,0.10815,-0.10062,0.00000,0.03123,0.97807,-0.17361,0.0,2023,6,8,13,26,17,902
0.06060,0.00315,0.17938,0.00000,0.02855,0.97698,-0.17312,0.0,2023,6,8,13,26,17,913
0.06070,0.03815,-0.38063,0.00000,0.03001,0.97893,-0.17263,0.0,2023,6,8,13,26,17,924
0.06080,0.14315,-0.01312,0.00000,0.03013,0.97929,-0.17409,0.0,2023,6,8,13,26,17,935
0.06090,-0.03185,-0.04812,0.00000,0.03221,0.97759,-0.17397,0.0,2023,6,8,13,26,17,946
0.06100,0.23065,-0.18813,0.00000,0.03001,0.97795,-0.17361,0.0,2023,6,8,13,26,17,957
0.06110,-0.03185,0.21437,0.00000,0.02928,0.97746,-0.17275,0.0,2023,6,8,13,26,17,968
0.06120,0.12565,0.07437,0.00000,0.03013,0.98112,-0.17495,0.0,2023,6,8,13,26,17,979
0.06130,-0.08435,0.05687,0.00000,0.02977,0.98039,-0.17141,0.0,2023,6,8,13,26,17,991
0.06140,-0.01435,0.17938,0.00000,0.03245,0.97856,-0.17409,0.0,2023,6,8,13,26,18,2
0.06150,-0.15435,0.07437,0.00000,0.03013,0.97624,-0.17263,0.0,2023,6,8,13,26,18,13
0.06160,0.09065,-0.01312,0.00000,0.02904,0.97588,-0.17483,0.0,2023,6,8,13,26,18,24
0.06170,-0.13685,0.05687,0.00000,0.03099,0.97612,-0.17251,0.0,2023,6,8,13,26,18,35
0.06180,-0.01435,0.00437,0.00000,0.03123,0.97917,-0.17178,0.0,2023,6,8,13,26,18,46
0.06190,-0.17185,0.14438,0.00000,0.03172,0.97783,-0.17397,0.0,2023,6,8,13,26,18,57
0.06200,0.10815,0.07437,0.00000,0.03270,0.97966,-0.17348,0.0,2023,6,8,13,26,18,68
0.06210,0.02065,0.03937,0.00000,0.02965,0.97795,-0.17580,0.0,2023,6,8,13,26,18,79
0.06220,0.02065,0.07437,0.00000,0.03038,0.97685,-0.17312,0.0,2023,6,8,13,26,18,91
0.06230,-0.08435,0.28437,0.00000,0.03001,0.97820,-0.17422,0.0,2023,6,8,13,26,18,102
0.06240,-0.24185,0.02187,0.00000,0.03001,0.97673,-0.17434,0.0,2023,6,8,13,26,18,113
0.06250,0.05565,0.05687,0.00000,0.02769,0.97685,-0.17385,0.0,2023,6,8,13,26,18,124
0.06260,-0.11935,0.12688,0.00000,0.02977,0.98027,-0.17495,0.0,2023,6,8,13,26,18,135
0.06270,0.03815,-0.01312,0.00000,0.03184,0.97844,-0.17361,0.0,2023,6,8,13,26,18,146
0.06280,0.02065,-0.18813,0.00000,0.02965,0.97820,-0.17446,0.0,2023,6,8,13,26,18,157
0.06290,-0.01435,0.07437,0.00000,0.03013,0.97856,-0.17519,0.0,2023,6,8,13,26,18,168
0.06300,0.09065,0.12688,0.00000,0.03196,0.97954,-0.17434,0.0,2023,6,8,13,26,18,179
0.06310,0.07315,-0.01312,0.00000,0.02855,0.97722,-0.17409,0.0,2023,6,8,13,26,18,191
0.06320,0.09065,0.17938,0.00000,0.02891,0.97710,-0.17458,0.0,2023,6,8,13,26,18,202
0.06330,0.00315,0.05687,0.00000,0.03026,0.97868,-0.17178,0.0,2023,6,8,13,26,18,213
0.06340,0.10815,0.07437,0.00000,0.02916,0.97844,-0.17519,0.0,2023,6,8,13,26,18,224
0.06350,-0.06685,-0.03062,0.00000,0.02952,0.97905,-0.17470,0.0,2023,6,8,13,26,18,235
0.06360,-0.18935,0.05687,0.00000,0.03074,0.97893,-0.17507,0.0,2023,6,8,13,26,18,246
0.06370,-0.03185,0.03937,0.00000,0.03062,0.97759,-0.17507,0.0,2023,6,8,13,26,18,257
0.06380,-0.10185,-0.01312,0.00000,0.02977,0.97783,-0.17580,0.0,2023,6,8,13,26,18,268
0.06390,-0.06685,0.00437,0.00000,0.03160,0.97856,-0.17544,0.0,2023,6,8,13,26,18,279
0.06400,0.05565,-0.10062,0.00000,0.03026,0.97734,-0.17568,0.0,2023,6,8,13,26,18,291
0.06410,-0.06685,-0.01312,0.00000,0.03050,0.97978,-0.17495,0.0,2023,6,8,13,26,18,302
0.06420,0.16065,0.03937,0.00000,0.02794,0.97807,-0.17324,0.0,2023,6,8,13,26,18,313
0.06430,-0.13685,-0.03062,0.00000,0.03184,0.97844,-0.17629,0.0,2023,6,8,13,26,18,324
0.06440,-0.15435,0.00437,0.00000,0.03050,0.97759,-0.17361,0.0,2023,6,8,13,26,18,335
0.06450,0.10815,-0.08312,0.00000,0.03062,0.97698,-0.17519,0.0,2023,6,8,13,26,18,346
0.06460,-0.04935,0.21437,0.00000,0.03135,0.97844,-0.17605,0.0,2023,6,8,13,26,18,357
0.06470,-0.13685,-0.06562,0.00000,0.03074,0.97795,-0.17312,0.0,2023,6,8,13,26,18,368
0.06480,-0.03185,0.23187,0.00000,0.03074,0.97624,-0.17385,0.0,2023,6,8,13,26,18,379
0.06490,0.03815,0.09187,0.00000,0.02940,0.97759,-0.17434,0.0,2023,6,8,13,26,18,391
0.06500,0.16065,-0.03062,0.00000,0.02904,0.97868,-0.17348,0.0,2023,6,8,13,26,18,402
0.06510,-0.20685,0.23187,0.00000,0.03062,0.97917,-0.17446,0.0,2023,6,8,13,26,18,413
0.06520,-0.13685,0.07437,0.00000,0.03062,0.97771,-0.17312,0.0,2023,6,8,13,26,18,424
0.06530,0.02065,0.09187,0.00000,0.02952,0.97917,-0.17300,0.0,2023,6,8,13,26,18,435
0.06540,0.10815,-0.08312,0.00000,0.02928,0.97637,-0.17434,0.0,2023,6,8,13,26,18,446
0.06550,-0.08435,0.05687,0.00000,0.03026,0.97795,-0.17666,0.0,2023,6,8,13,26,18,457
0.06560,-0.08435,0.14438,0.00000,0.02830,0.97966,-0.17568,0.0,2023,6,8,13,26,18,468
0.06570,0.16065,-0.36313,0.00000,0.03172,0.97685,-0.17165,0.0,2023,6,8,13,26,18,479
0.06580,-0.06685,-0.01312,0.00000,0.02782,0.97783,-0.17470,0.0,2023,6,8,13,26,18,491
0.06590,0.00315,0.16188,0.00000,0.02989,0.97856,-0.17446,0.0,2023,6,8,13,26,18,502
0.06600,-0.03185,-0.15313,0.00000,0.02952,0.97905,-0.17483,0.0,2023,6,8,13,26,18,513
0.06610,-0.11935,-0.01312,0.00000,0.02818,0.97783,-0.17397,0.0,2023,6,8,13,26,18,524
0.06620,-0.04935,0.17938,0.00000,0.03099,0.97722,-0.17775,0.0,2023,6,8,13,26,18,535
0.06630,-0.03185,0.02187,0.00000,0.03172,0.97771,-0.17300,0.0,2023,6,8,13,26,18,546
0.06640,0.03815,-0.03062,0.00000,0.02855,0.97917,-0.17263,0.0,2023,6,8,13,26,18,557
0.06650,-0.04935,-0.11813,0.00000,0.02928,0.97661,-0.17458,0.0,2023,6,8,13,26,18,568
0.06660,0.21315,-0.04812,0.00000,0.02891,0.97856,-0.17348,0.0,2023,6,8,13,26,18,579
0.06670,0.00315,0.16188,0.00000,0.03184,0.97917,-0.17312,0.0,2023,6,8,13,26,18,591
0.06680,-0.10185,0.00437,0.00000,0.03123,0.97759,-0.17397,0.0,2023,6,8,13,26,18,602
0.06690,-0.15435,0.14438,0.00000,0.03038,0.98112,-0.17568,0.0,2023,6,8,13,26,18,613
0.06700,0.19565,-0.01312,0.00000,0.03062,0.97978,-0.17690,0.0,2023,6,8,13,26,18,624
0.06710,-0.04935,0.00437,0.00000,0.03123,0.97624,-0.17617,0.0,2023,6,8,13,26,18,635
0.06720,0.09065,-0.06562,0.00000,0.03087,0.97783,-0.17275,0.0,2023,6,8,13,26,18,646
0.06730,0.02065,-0.01312,0.00000,0.03111,0.98027,-0.17385,0.0,2023,6,8,13,26,18,657
0.06740,0.09065,0.05687,0.00000,0.03001,0.97783,-0.17214,0.0,2023,6,8,13,26,18,668
0.06750,0.00315,0.05687,0.00000,0.03001,0.97759,-0.17556,0.0,2023,6,8,13,26,18,679
0.06760,-0.03185,0.03937,0.00000,0.02977,0.97771,-0.17458,0.0,2023,6,8,13,26,18,691
0.06770,-0.08435,0.07437,0.00000,0.02952,0.98015,-0.17458,0.0,2023,6,8,13,26,18,702
0.06780,0.12565,0.00437,0.00000,0.03135,0.97978,-0.17300,0.0,2023,6,8,13,26,18,713
0.06790,0.10815,-0.01312,0.00000,0.03111,0.97820,-0.17409,0.0,2023,6,8,13,26,18,724
0.06800,-0.17185,0.03937,0.00000,0.03172,0.97722,-0.17385,0.0,2023,6,8,13,26,18,735
0.06810,0.02065,0.07437,0.00000,0.02952,0.97893,-0.17641,0.0,2023,6,8,13,26,18,746
0.06820,0.05565,0.05687,0.00000,0.03184,0.97685,-0.17434,0.0,2023,6,8,13,26,18,757
0.06830,-0.10185,-0.04812,0.00000,0.02843,0.97807,-0.17556,0.0,2023,6,8,13,26,18,768
0.06840,-0.04935,0.14438,0.00000,0.02940,0.97893,-0.17507,0.0,2023,6,8,13,26,18,779
0.06850,0.00315,0.12688,0.00000,0.03245,0.97490,-0.17666,0.0,2023,6,8,13,26,18,791
0.06860,-0.03185,0.09187,0.00000,0.03184,0.97746,-0.17422,0.0,2023,6,8,13,26,18,802
0.06870,-0.01435,-0.10062,0.00000,0.02977,0.97942,-0.17434,0.0,2023,6,8,13,26,18,813
0.06880,-0.04935,0.02187,0.00000,0.03087,0.97893,-0.17361,0.0,2023,6,8,13,26,18,824
0.06890,-0.10185,0.09187,0.00000,0.03148,0.97990,-0.17617,0.0,2023,6,8,13,26,18,835
0.06900,-0.13685,0.07437,0.00000,0.03087,0.97868,-0.17263,0.0,2023,6,8,13,26,18,846
0.06910,-0.01435,-0.11813,0.00000,0.03196,0.97917,-0.17544,0.0,2023,6,8,13,26,18,857
0.06920,0.21315,0.00437,0.00000,0.03160,0.97734,-0.17446,0.0,2023,6,8,13,26,18,868
0.06930,-0.13685,0.09187,0.00000,0.03026,0.97807,-0.17568,0.0,2023,6,8,13,26,18,879
0.06940,-0.13685,0.12688,0.00000,0.02830,0.98064,-0.17483,0.0,2023,6,8,13,26,18,891
0.06950,-0.08435,0.03937,0.00000,0.02989,0.97917,-0.17702,0.0,2023,6,8,13,26,18,902
0.06960,-0.24185,0.02187,0.00000,0.03013,0.97807,-0.17324,0.0,2023,6,8,13,26,18,913
0.06970,-0.06685,0.05687,0.00000,0.03062,0.97917,-0.17348,0.0,2023,6,8,13,26,18,924
0.06980,0.14315,-0.10062,0.00000,0.02952,0.97966,-0.17361,0.0,2023,6,8,13,26,18,935
0.06990,-0.08435,-0.08312,0.00000,0.02794,0.97661,-0.17507,0.0,2023,6,8,13,26,18,946
0.07000,0.19565,0.12688,0.00000,0.02904,0.97734,-0.17544,0.0,2023,6,8,13,26,18,957
0.07010,0.03815,0.05687,0.00000,0.03196,0.97954,-0.17666,0.0,2023,6,8,13,26,18,968
0.07020,0.00315,-0.18813,0.00000,0.03111,0.97783,-0.17470,0.0,2023,6,8,13,26,18,979
0.07030,-0.01435,0.10938,0.00000,0.03111,0.97759,-0.17458,0.0,2023,6,8,13,26,18,991
0.07040,-0.03185,-0.06562,0.00000,0.02855,0.97832,-0.17470,0.0,2023,6,8,13,26,18,2
0.07050,-0.13685,0.00437,0.00000,0.02904,0.98015,-0.17434,0.0,2023,6,8,13,26,19,3
0.07060,-0.10185,0.05687,0.00000,0.03013,0.97661,-0.17507,0.0,2023,6,8,13,26,19,14
0.07070,-0.04935,0.28437,0.00000,0.02891,0.97795,-0.17519,0.0,2023,6,8,13,26,19,25
0.07080,-0.03185,0.02187,0.00000,0.03001,0.97515,-0.17641,0.0,2023,6,8,13,26,19,36
0.07090,0.05565,0.07437,0.00000,0.03038,0.97990,-0.17312,0.0,2023,6,8,13,26,19,47
0.07100,-0.08435,0.07437,0.00000,0.03282,0.98003,-0.17422,0.0,2023,6,8,13,26,19,58
0.07110,0.02065,-0.06562,0.00000,0.03123,0.97673,-0.17300,0.0,2023,6,8,13,26,19,69
0.07120,0.03815,0.09187,0.00000,0.02891,0.97820,-0.17361,0.0,2023,6,8,13,26,19,81
0.07130,-0.08435,0.14438,0.00000,0.03148,0.98186,-0.17519,0.0,2023,6,8,13,26,19,92
0.07140,-0.10185,0.03937,0.00000,0.03013,0.97807,-0.17544,0.0,2023,6,8,13,26,19,103
0.07150,-0.17185,-0.03062,0.00000,0.03135,0.97807,-0.17409,0.0,2023,6,8,13,26,19,114
0.07160,-0.18935,-0.01312,0.00000,0.03087,0.97624,-0.17239,0.0,2023,6,8,13,26,19,125
0.07170,-0.06685,0.14438,0.00000,0.03013,0.97893,-0.17397,0.0,2023,6,8,13,26,19,136
0.07180,0.05565,-0.03062,0.00000,0.02928,0.98015,-0.17263,0.0,2023,6,8,13,26,19,147
0.07190,-0.13685,0.05687,0.00000,0.03160,0.98003,-0.17519,0.0,2023,6,8,13,26,19,158
0.07200,-0.03185,0.03937,0.00000,0.02891,0.97698,-0.17568,0.0,2023,6,8,13,26,19,169
0.07210,0.00315,0.12688,0.00000,0.02904,0.98173,-0.17348,0.0,2023,6,8,13,26,19,181
0.07220,0.05565,0.05687,0.00000,0.02879,0.97868,-0.17385,0.0,2023,6,8,13,26,19,192
0.07230,-0.01435,0.02187,0.00000,0.03196,0.97820,-0.17239,0.0,2023,6,8,13,26,19,203
0.07240,-0.01435,0.07437,0.00000,0.03123,0.97978,-0.17446,0.0,2023,6,8,13,26,19,214
0.07250,-0.15435,0.03937,0.00000,0.03013,0.97807,-0.17226,0.0,2023,6,8,13,26,19,225
0.07260,0.00315,-0.06562,0.00000,0.03038,0.97637,-0.17580,0.0,2023,6,8,13,26,19,236
0.07270,-0.04935,0.00437,0.00000,0.02940,0.97612,-0.17397,0.0,2023,6,8,13,26,19,247
0.07280,0.21315,0.03937,0.00000,0.02989,0.97795,-0.17531,0.0,2023,6,8,13,26,19,258
0.07290,-0.10185,0.00437,0.00000,0.02830,0.97893,-0.17483,0.0,2023,6,8,13,26,19,269
0.07300,-0.08435,0.35438,0.00000,0.03050,0.97734,-0.17568,0.0,2023,6,8,13,26,19,281
0.07310,-0.10185,0.05687,0.00000,0.03026,0.97685,-0.17348,0.0,2023,6,8,13,26,19,292
0.07320,-0.08435,0.10938,0.00000,0.03062,0.97588,-0.17446,0.0,2023,6,8,13,26,19,303
0.07330,-0.04935,0.28437,0.00000,0.03233,0.97746,-0.17226,0.0,2023,6,8,13,26,19,314
0.07340,-0.13685,0.02187,0.00000,0.03087,0.97942,-0.17385,0.0,2023,6,8,13,26,19,325
0.07350,-0.03185,-0.13563,0.00000,0.03062,0.97820,-0.17580,0.0,2023,6,8,13,26,19,336
0.07360,0.10815,0.00437,0.00000,0.03001,0.97844,-0.17495,0.0,2023,6,8,13,26,19,347
0.07370,0.10815,-0.04812,0.00000,0.03233,0.97807,-0.17202,0.0,2023,6,8,13,26,19,358
0.07380,0.02065,0.10938,0.00000,0.02855,0.97771,-0.17397,0.0,2023,6,8,13,26,19,369
0.07390,0.00315,0.07437,0.00000,0.03050,0.97820,-0.17458,0.0,2023,6,8,13,26,19,381
0.07400,0.02065,0.07437,0.00000,0.03233,0.97746,-0.17397,0.0,2023,6,8,13,26,19,392
0.07410,-0.04935,0.09187,0.00000,0.02916,0.97905,-0.17422,0.0,2023,6,8,13,26,19,403
0.07420,-0.25935,0.17938,0.00000,0.03038,0.97917,-0.17348,0.0,2023,6,8,13,26,19,414
0.07430,-0.01435,-0.11813,0.00000,0.02989,0.98015,-0.17544,0.0,2023,6,8,13,26,19,425
0.07440,0.02065,0.03937,0.00000,0.03099,0.97783,-0.17495,0.0,2023,6,8,13,26,19,436
0.07450,-0.03185,-0.15313,0.00000,0.03087,0.97978,-0.17251,0.0,2023,6,8,13,26,19,447
0.07460,0.16065,0.02187,0.00000,0.03099,0.97868,-0.17239,0.0,2023,6,8,13,26,19,458
0.07470,-0.11935,0.16188,0.00000,0.02879,0.97759,-0.17397,0.0,2023,6,8,13,26,19,469
0.07480,-0.10185,0.24937,0.00000,0.03123,0.97881,-0.17495,0.0,2023,6,8,13,26,19,481
0.07490,-0.13685,-0.22313,0.00000,0.03026,0.98027,-0.17239,0.0,2023,6,8,13,26,19,492
0.07500,-0.04935,0.09187,0.00000,0.03013,0.97807,-0.17239,0.0,2023,6,8,13,26,19,503
0.07510,-0.06685,-0.04812,0.00000,0.03087,0.97710,-0.17361,0.0,2023,6,8,13,26,19,514
0.07520,-0.01435,-0.01312,0.00000,0.02904,0.97905,-0.17507,0.0,2023,6,8,13,26,19,525
0.07530,0.00315,-0.27562,0.00000,0.03294,0.97710,-0.17483,0.0,2023,6,8,13,26,19,536
0.07540,0.09065,0.05687,0.00000,0.02891,0.97539,-0.17666,0.0,2023,6,8,13,26,19,547
0.07550,-0.01435,-0.08312,0.00000,0.03038,0.97966,-0.17544,0.0,2023,6,8,13,26,19,558
0.07560,0.07315,0.07437,0.00000,0.03135,0.97917,-0.17324,0.0,2023,6,8,13,26,19,569
0.07570,-0.04935,0.02187,0.00000,0.03062,0.97881,-0.17239,0.0,2023,6,8,13,26,19,581
0.07580,-0.22435,0.24937,0.00000,0.03123,0.97722,-0.17580,0.0,2023,6,8,13,26,19,592
0.07590,0.14315,0.09187,0.00000,0.03050,0.97820,-0.17592,0.0,2023,6,8,13,26,19,603
0.07600,-0.15435,0.12688,0.00000,0.03062,0.97624,-0.17275,0.0,2023,6,8,13,26,19,614
0.07610,-0.10185,0.12688,0.00000,0.03050,0.97893,-0.17409,0.0,2023,6,8,13,26,19,625
0.07620,-0.11935,-0.08312,0.00000,0.03294,0.97990,-0.17483,0.0,2023,6,8,13,26,19,636
0.07630,0.12565,-0.20563,0.00000,0.03062,0.97673,-0.17531,0.0,2023,6,8,13,26,19,647
0.07640,0.02065,-0.15313,0.00000,0.02965,0.97759,-0.17446,0.0,2023,6,8,13,26,19,658
0.07650,-0.03185,-0.01312,0.00000,0.02891,0.97856,-0.17434,0.0,2023,6,8,13,26,19,669
0.07660,0.07315,-0.15313,0.00000,0.03013,0.97844,-0.17409,0.0,2023,6,8,13,26,19,681
0.07670,-0.03185,0.09187,0.00000,0.02891,0.98015,-0.17483,0.0,2023,6,8,13,26,19,692
0.07680,-0.18935,0.19688,0.00000,0.02904,0.97905,-0.17519,0.0,2023,6,8,13,26,19,703
0.07690,-0.03185,0.07437,0.00000,0.03050,0.97905,-0.17348,0.0,2023,6,8,13,26,19,714
0.07700,-0.20685,0.10938,0.00000,0.03062,0.97917,-0.17336,0.0,2023,6,8,13,26,19,725
0.07710,0.07315,0.02187,0.00000,0.02855,0.97820,-0.17361,0.0,2023,6,8,13,26,19,736
0.07720,-0.06685,0.03937,0.00000,0.03123,0.97917,-0.17568,0.0,2023,6,8,13,26,19,747
0.07730,0.10815,0.02187,0.00000,0.03099,0.97698,-0.17397,0.0,2023,6,8,13,26,19,758
0.07740,-0.11935,-0.01312,0.00000,0.03050,0.97881,-0.17373,0.0,2023,6,8,13,26,19,769
0.07750,-0.08435,0.02187,0.00000,0.03038,0.98039,-0.17348,0.0,2023,6,8,13,26,19,781
0.07760,-0.03185,0.17938,0.00000,0.03160,0.97832,-0.17544,0.0,2023,6,8,13,26,19,792
0.07770,0.00315,-0.03062,0.00000,0.02940,0.97710,-0.17300,0.0,2023,6,8,13,26,19,803
0.07780,-0.10185,0.05687,0.00000,0.03270,0.97990,-0.17495,0.0,2023,6,8,13,26,19,814
0.07790,-0.13685,0.14438,0.00000,0.03087,0.97612,-0.17361,0.0,2023,6,8,13,26,19,825
0.07800,-0.01435,0.02187,0.00000,0.02928,0.97856,-0.17483,0.0,2023,6,8,13,26,19,836
0.07810,0.19565,0.03937,0.00000,0.03245,0.97478,-0.17336,0.0,2023,6,8,13,26,19,847
0.07820,0.03815,-0.01312,0.00000,0.02843,0.97929,-0.17653,0.0,2023,6,8,13,26,19,858
0.07830,-0.11935,-0.10062,0.00000,0.02879,0.97661,-0.17458,0.0,2023,6,8,13,26,19,869
0.07840,0.24815,0.02187,0.00000,0.03013,0.97905,-0.17483,0.0,2023,6,8,13,26,19,881
0.07850,0.14315,-0.08312,0.00000,0.02928,0.97759,-0.17104,0.0,2023,6,8,13,26,19,892
0.07860,0.14315,-0.04812,0.00000,0.03270,0.97942,-0.17336,0.0,2023,6,8,13,26,19,903
0.07870,-0.15435,0.28437,0.00000,0.03013,0.97710,-0.17605,0.0,2023,6,8,13,26,19,914
0.07880,0.00315,0.09187,0.00000,0.02965,0.97820,-0.17226,0.0,2023,6,8,13,26,19,925
0.07890,0.00315,0.00437,0.00000,0.03062,0.97954,-0.17470,0.0,2023,6,8,13,26,19,936
0.07900,-0.01435,0.00437,0.00000,0.03050,0.97600,-0.17568,0.0,2023,6,8,13,26,19,947
0.07910,0.00315,-0.13563,0.00000,0.02989,0.97929,-0.17495,0.0,2023,6,8,13,26,19,958
0.07920,0.14315,-0.06562,0.00000,0.03087,0.97698,-0.17385,0.0,2023,6,8,13,26,19,969
0.07930,0.00315,-0.01312,0.00000,0.02965,0.97905,-0.17385,0.0,2023,6,8,13,26,19,981
0.07940,-0.01435,-0.18813,0.00000,0.02952,0.98076,-0.17458,0.0,2023,6,8,13,26,19,992
0.07950,-0.08435,0.05687,0.00000,0.02928,0.98088,-0.17422,0.0,2023,6,8,13,26,20,3
0.07960,-0.03185,0.05687,0.00000,0.03001,0.98161,-0.17287,0.0,2023,6,8,13,26,20,14
0.07970,-0.08435,-0.04812,0.00000,0.02916,0.97783,-0.17324,0.0,2023,6,8,13,26,20,25
0.07980,0.07315,-0.04812,0.00000,0.02916,0.98064,-0.17531,0.0,2023,6,8,13,26,20,36
0.07990,-0.04935,-0.13563,0.00000,0.03038,0.97734,-0.17580,0.0,2023,6,8,13,26,20,47
0.08000,-0.06685,-0.06562,0.00000,0.02989,0.97868,-0.17263,0.0,2023,6,8,13,26,20,58
0.08010,-0.08435,0.16188,0.00000,0.03026,0.97624,-0.17446,0.0,2023,6,8,13,26,20,69
0.08020,0.21315,-0.25812,0.00000,0.03001,0.97905,-0.17239,0.0,2023,6,8,13,26,20,81
0.08030,-0.06685,0.21437,0.00000,0.03013,0.97722,-0.17397,0.0,2023,6,8,13,26,20,92
0.08040,-0.17185,0.16188,0.00000,0.03233,0.97807,-0.17373,0.0,2023,6,8,13,26,20,103
0.08050,0.00315,0.21437,0.00000,0.03172,0.97868,-0.17373,0.0,2023,6,8,13,26,20,114
0.08060,-0.06685,-0.06562,0.00000,0.02940,0.97722,-0.17422,0.0,2023,6,8,13,26,20,125
0.08070,0.00315,0.12688,0.00000,0.03026,0.97685,-0.17324,0.0,2023,6,8,13,26,20,136
0.08080,-0.11935,-0.20563,0.00000,0.03074,0.97917,-0.17312,0.0,2023,6,8,13,26,20,147
0.08090,-0.13685,0.03937,0.00000,0.02952,0.97795,-0.17324,0.0,2023,6,8,13,26,20,158
0.08100,0.02065,0.23187,0.00000,0.03013,0.97942,-0.17336,0.0,2023,6,8,13,26,20,169
0.08110,0.21315,-0.11813,0.00000,0.02891,0.97649,-0.17373,0.0,2023,6,8,13,26,20,181
0.08120,0.05565,-0.11813,0.00000,0.03282,0.97795,-0.17068,0.0,2023,6,8,13,26,20,192
0.08130,-0.20685,0.10938,0.00000,0.03001,0.97966,-0.17507,0.0,2023,6,8,13,26,20,203
0.08140,-0.17185,0.16188,0.00000,0.03257,0.97905,-0.17617,0.0,2023,6,8,13,26,20,214
0.08150,-0.03185,-0.04812,0.00000,0.03099,0.97588,-0.17190,0.0,2023,6,8,13,26,20,225
0.08160,-0.03185,0.10938,0.00000,0.03221,0.97734,-0.17226,0.0,2023,6,8,13,26,20,236
0.08170,0.19565,-0.18813,0.00000,0.03111,0.97795,-0.17373,0.0,2023,6,8,13,26,20,247
0.08180,-0.36435,0.00437,0.00000,0.02916,0.97759,-0.17483,0.0,2023,6,8,13,26,20,258
0.08190,-0.03185,0.10938,0.00000,0.02745,0.97966,-0.17495,0.0,2023,6,8,13,26,20,269
0.08200,-0.06685,-0.04812,0.00000,0.03062,0.97698,-0.17239,0.0,2023,6,8,13,26,20,281
0.08210,0.02065,0.02187,0.00000,0.03160,0.97881,-0.17153,0.0,2023,6,8,13,26,20,292
0.08220,-0.13685,0.00437,0.00000,0.02806,0.97990,-0.17324,0.0,2023,6,8,13,26,20,303
0.08230,0.05565,0.03937,0.00000,0.03001,0.97771,-0.17275,0.0,2023,6,8,13,26,20,314
0.08240,-0.27685,0.19688,0.00000,0.02965,0.97710,-0.17263,0.0,2023,6,8,13,26,20,325
0.08250,-0.17185,0.07437,0.00000,0.03001,0.97856,-0.17385,0.0,2023,6,8,13,26,20,336
0.08260,-0.03185,0.21437,0.00000,0.03087,0.97722,-0.17434,0.0,2023,6,8,13,26,20,347
0.08270,0.02065,-0.15313,0.00000,0.02830,0.98003,-0.17263,0.0,2023,6,8,13,26,20,358
0.08280,0.16065,-0.03062,0.00000,0.02940,0.97771,-0.17312,0.0,2023,6,8,13,26,20,369
0.08290,0.02065,0.12688,0.00000,0.03038,0.97722,-0.17239,0.0,2023,6,8,13,26,20,381
0.08300,-0.04935,0.19688,0.00000,0.02940,0.97685,-0.17117,0.0,2023,6,8,13,26,20,392
0.08310,0.09065,-0.10062,0.00000,0.03050,0.97893,-0.17385,0.0,2023,6,8,13,26,20,403
0.08320,-0.06685,-0.01312,0.00000,0.03123,0.97759,-0.17361,0.0,2023,6,8,13,26,20,414
0.08330,0.09065,-0.01312,0.00000,0.02965,0.97820,-0.17287,0.0,2023,6,8,13,26,20,425
0.08340,-0.13685,0.10938,0.00000,0.02806,0.97637,-0.17458,0.0,2023,6,8,13,26,20,436
0.08350,-0.03185,0.12688,0.00000,0.03184,0.97942,-0.17470,0.0,2023,6,8,13,26,20,447
0.08360,0.09065,-0.06562,0.00000,0.03001,0.97978,-0.17446,0.0,2023,6,8,13,26,20,458
0.08370,-0.22435,0.09187,0.00000,0.03062,0.97929,-0.17312,0.0,2023,6,8,13,26,20,469
0.08380,0.02065,-0.01312,0.00000,0.02989,0.97844,-0.17507,0.0,2023,6,8,13,26,20,481
0.08390,-0.20685,0.10938,0.00000,0.03282,0.97966,-0.17336,0.0,2023,6,8,13,26,20,492
0.08400,0.02065,0.09187,0.00000,0.03111,0.97893,-0.17324,0.0,2023,6,8,13,26,20,503
0.08410,-0.11935,-0.04812,0.00000,0.02940,0.97820,-0.17226,0.0,2023,6,8,13,26,20,514
0.08420,0.00315,-0.17063,0.00000,0.02879,0.97783,-0.17300,0.0,2023,6,8,13,26,20,525
0.08430,-0.03185,-0.03062,0.00000,0.03074,0.97746,-0.17556,0.0,2023,6,8,13,26,20,536
0.08440,-0.11935,0.10938,0.00000,0.03111,0.97820,-0.17422,0.0,2023,6,8,13,26,20,547
0.08450,0.03815,-0.08312,0.00000,0.03038,0.97783,-0.17568,0.0,2023,6,8,13,26,20,558
0.08460,0.07315,-0.17063,0.00000,0.02904,0.97978,-0.17531,0.0,2023,6,8,13,26,20,569
0.08470,0.02065,0.07437,0.00000,0.02794,0.97698,-0.17556,0.0,2023,6,8,13,26,20,581
0.08480,-0.01435,0.10938,0.00000,0.02684,0.97990,-0.17592,0.0,2023,6,8,13,26,20,592
0.08490,0.10815,-0.03062,0.00000,0.02977,0.97771,-0.17568,0.0,2023,6,8,13,26,20,603
0.08500,-0.11935,0.05687,0.00000,0.03038,0.97710,-0.17507,0.0,2023,6,8,13,26,20,614
0.08510,-0.10185,0.16188,0.00000,0.03074,0.97722,-0.17434,0.0,2023,6,8,13,26,20,625
0.08520,-0.11935,0.05687,0.00000,0.03233,0.97978,-0.17507,0.0,2023,6,8,13,26,20,636
0.08530,-0.04935,0.09187,0.00000,0.02684,0.97832,-0.17312,0.0,2023,6,8,13,26,20,647
0.08540,-0.06685,-0.10062,0.00000,0.03013,0.98015,-0.17470,0.0,2023,6,8,13,26,20,658
0.08550,-0.04935,-0.01312,0.00000,0.03160,0.97966,-0.17361,0.0,2023,6,8,13,26,20,669
0.08560,-0.11935,-0.06562,0.00000,0.02977,0.97783,-0.17361,0.0,2023,6,8,13,26,20,681
0.08570,0.02065,0.03937,0.00000,0.02904,0.97942,-0.17275,0.0,2023,6,8,13,26,20,692
0.08580,0.03815,0.03937,0.00000,0.03087,0.97698,-0.17422,0.0,2023,6,8,13,26,20,703
0.08590,0.10815,-0.18813,0.00000,0.03148,0.97868,-0.17495,0.0,2023,6,8,13,26,20,714
0.08600,-0.11935,-0.04812,0.00000,0.03331,0.97527,-0.17458,0.0,2023,6,8,13,26,20,725
0.08610,0.00315,-0.01312,0.00000,0.03062,0.98003,-0.17361,0.0,2023,6,8,13,26,20,736
0.08620,-0.01435,0.17938,0.00000,0.03099,0.97844,-0.17336,0.0,2023,6,8,13,26,20,747
0.08630,0.05565,0.10938,0.00000,0.02916,0.97820,-0.17519,0.0,2023,6,8,13,26,20,758
0.08640,0.12565,-0.13563,0.00000,0.03111,0.97856,-0.17275,0.0,2023,6,8,13,26,20,769
0.08650,0.17815,0.17938,0.00000,0.02806,0.97856,-0.17373,0.0,2023,6,8,13,26,20,781
0.08660,0.05565,0.09187,0.00000,0.02989,0.97844,-0.17653,0.0,2023,6,8,13,26,20,792
0.08670,-0.32935,-0.08312,0.00000,0.02989,0.97771,-0.17324,0.0,2023,6,8,13,26,20,803
0.08680,-0.11935,-0.08312,0.00000,0.03099,0.97929,-0.17092,0.0,2023,6,8,13,26,20,814
0.08690,-0.04935,0.03937,0.00000,0.03038,0.97905,-0.17470,0.0,2023,6,8,13,26,20,825
0.08700,-0.03185,0.07437,0.00000,0.02989,0.97832,-0.17153,0.0,2023,6,8,13,26,20,836
0.08710,0.02065,0.03937,0.00000,0.02965,0.97807,-0.17409,0.0,2023,6,8,13,26,20,847
0.08720,0.03815,0.09187,0.00000,0.03001,0.97734,-0.17397,0.0,2023,6,8,13,26,20,858
0.08730,-0.10185,0.03937,0.00000,0.03074,0.97783,-0.17592,0.0,2023,6,8,13,26,20,869
0.08740,0.14315,0.02187,0.00000,0.03221,0.97685,-0.17409,0.0,2023,6,8,13,26,20,881
0.08750,0.05565,0.03937,0.00000,0.03026,0.97710,-0.17348,0.0,2023,6,8,13,26,20,892
0.08760,-0.03185,0.21437,0.00000,0.03087,0.97881,-0.17300,0.0,2023,6,8,13,26,20,903
0.08770,-0.29435,-0.03062,0.00000,0.03001,0.97673,-0.17483,0.0,2023,6,8,13,26,20,914
0.08780,-0.04935,0.05687,0.00000,0.03148,0.97929,-0.17190,0.0,2023,6,8,13,26,20,925
0.08790,-0.11935,0.12688,0.00000,0.03099,0.97783,-0.17348,0.0,2023,6,8,13,26,20,936
0.08800,0.16065,0.07437,0.00000,0.02928,0.97966,-0.17556,0.0,2023,6,8,13,26,20,947
0.08810,-0.11935,0.09187,0.00000,0.02965,0.97771,-0.17373,0.0,2023,6,8,13,26,20,958
0.08820,-0.01435,-0.06562,0.00000,0.03038,0.97771,-0.17483,0.0,2023,6,8,13,26,20,969
0.08830,0.05565,0.05687,0.00000,0.02977,0.98222,-0.17495,0.0,2023,6,8,13,26,20,981
0.08840,-0.03185,0.00437,0.00000,0.02745,0.97917,-0.17239,0.0,2023,6,8,13,26,20,992
0.08850,0.07315,0.00437,0.00000,0.02965,0.97685,-0.17202,0.0,2023,6,8,13,26,20,3
0.08860,0.24815,-0.15313,0.00000,0.02940,0.97722,-0.17287,0.0,2023,6,8,13,26,21,4
0.08870,0.00315,-0.01312,0.00000,0.02928,0.97905,-0.17434,0.0,2023,6,8,13,26,21,15
0.08880,-0.11935,0.21437,0.00000,0.02952,0.97942,-0.17190,0.0,2023,6,8,13,26,21,26
0.08890,-0.03185,-0.01312,0.00000,0.03050,0.98039,-0.17348,0.0,2023,6,8,13,26,21,37
0.08900,-0.01435,0.00437,0.00000,0.02733,0.97612,-0.17556,0.0,2023,6,8,13,26,21,48
0.08910,0.02065,0.16188,0.00000,0.03233,0.97759,-0.17422,0.0,2023,6,8,13,26,21,59
0.08920,0.00315,0.10938,0.00000,0.02916,0.97820,-0.17336,0.0,2023,6,8,13,26,21,71
0.08930,-0.13685,0.14438,0.00000,0.03013,0.97795,-0.17422,0.0,2023,6,8,13,26,21,82
0.08940,0.05565,-0.15313,0.00000,0.02916,0.97783,-0.17373,0.0,2023,6,8,13,26,21,93
0.08950,0.09065,0.05687,0.00000,0.03148,0.97746,-0.17531,0.0,2023,6,8,13,26,21,104
0.08960,0.07315,-0.08312,0.00000,0.03026,0.97673,-0.17434,0.0,2023,6,8,13,26,21,115
0.08970,0.00315,0.02187,0.00000,0.03087,0.97881,-0.17470,0.0,2023,6,8,13,26,21,126
0.08980,-0.06685,0.10938,0.00000,0.03050,0.98015,-0.17434,0.0,2023,6,8,13,26,21,137
0.08990,-0.01435,-0.01312,0.00000,0.02855,0.97515,-0.17446,0.0,2023,6,8,13,26,21,148
0.09000,0.21315,-0.03062,0.00000,0.03062,0.97942,-0.17226,0.0,2023,6,8,13,26,21,159
0.09010,-0.13685,-0.11813,0.00000,0.02952,0.97783,-0.17226,0.0,2023,6,8,13,26,21,171
0.09020,0.10815,0.03937,0.00000,0.03026,0.97868,-0.17202,0.0,2023,6,8,13,26,21,182
0.09030,-0.04935,-0.06562,0.00000,0.03026,0.97868,-0.17434,0.0,2023,6,8,13,26,21,193
0.09040,0.05565,-0.11813,0.00000,0.02928,0.97832,-0.17483,0.0,2023,6,8,13,26,21,204
0.09050,-0.03185,-0.01312,0.00000,0.03038,0.97917,-0.17324,0.0,2023,6,8,13,26,21,215
0.09060,0.09065,0.07437,0.00000,0.03111,0.97649,-0.17544,0.0,2023,6,8,13,26,21,226
0.09070,-0.15435,0.05687,0.00000,0.03087,0.97783,-0.17336,0.0,2023,6,8,13,26,21,237
0.09080,-0.01435,0.05687,0.00000,0.03050,0.97990,-0.17373,0.0,2023,6,8,13,26,21,248
0.09090,-0.06685,0.00437,0.00000,0.03233,0.97905,-0.17580,0.0,2023,6,8,13,26,21,259
0.09100,-0.03185,0.05687,0.00000,0.03013,0.97698,-0.17422,0.0,2023,6,8,13,26,21,271
0.09110,-0.01435,0.30187,0.00000,0.03038,0.97771,-0.17409,0.0,2023,6,8,13,26,21,282
0.09120,-0.10185,0.35438,0.00000,0.03123,0.97722,-0.17300,0.0,2023,6,8,13,26,21,293
0.09130,0.09065,-0.01312,0.00000,0.02916,0.97820,-0.17409,0.0,2023,6,8,13,26,21,304
0.09140,0.07315,-0.06562,0.00000,0.02757,0.97856,-0.17397,0.0,2023,6,8,13,26,21,315
0.09150,-0.18935,0.14438,0.00000,0.02855,0.97893,-0.17653,0.0,2023,6,8,13,26,21,326
0.09160,0.02065,-0.03062,0.00000,0.03050,0.97966,-0.17531,0.0,2023,6,8,13,26,21,337
0.09170,0.12565,0.10938,0.00000,0.02891,0.97881,-0.17422,0.0,2023,6,8,13,26,21,348
0.09180,-0.06685,-0.10062,0.00000,0.03026,0.98003,-0.17568,0.0,2023,6,8,13,26,21,359
0.09190,-0.01435,0.09187,0.00000,0.02928,0.97820,-0.17385,0.0,2023,6,8,13,26,21,371
0.09200,0.09065,0.00437,0.00000,0.03111,0.97868,-0.17300,0.0,2023,6,8,13,26,21,382
0.09210,0.00315,0.14438,0.00000,0.02965,0.97844,-0.17312,0.0,2023,6,8,13,26,21,393
0.09220,-0.10185,0.03937,0.00000,0.03245,0.98076,-0.17348,0.0,2023,6,8,13,26,21,404
0.09230,-0.15435,0.19688,0.00000,0.03270,0.97673,-0.17446,0.0,2023,6,8,13,26,21,415
0.09240,0.02065,-0.08312,0.00000,0.03013,0.97820,-0.17275,0.0,2023,6,8,13,26,21,426
0.09250,-0.10185,0.21437,0.00000,0.03074,0.98003,-0.17495,0.0,2023,6,8,13,26,21,437
0.09260,0.02065,0.05687,0.00000,0.03050,0.97856,-0.17483,0.0,2023,6,8,13,26,21,448
0.09270,0.10815,0.05687,0.00000,0.03196,0.97868,-0.17348,0.0,2023,6,8,13,26,21,459
0.09280,0.12565,0.03937,0.00000,0.03087,0.98112,-0.17361,0.0,2023,6,8,13,26,21,471
0.09290,0.19565,-0.03062,0.00000,0.03001,0.97502,-0.17544,0.0,2023,6,8,13,26,21,482
0.09300,0.03815,0.07437,0.00000,0.02940,0.97917,-0.17446,0.0,2023,6,8,13,26,21,493
0.09310,-0.04935,0.03937,0.00000,0.03148,0.98076,-0.17653,0.0,2023,6,8,13,26,21,504
0.09320,-0.03185,0.12688,0.00000,0.02928,0.97868,-0.17348,0.0,2023,6,8,13,26,21,515
0.09330,0.16065,0.05687,0.00000,0.03001,0.97832,-0.17580,0.0,2023,6,8,13,26,21,526
0.09340,-0.08435,0.00437,0.00000,0.03160,0.97832,-0.17117,0.0,2023,6,8,13,26,21,537
0.09350,0.00315,-0.03062,0.00000,0.02769,0.98015,-0.17214,0.0,2023,6,8,13,26,21,548
0.09360,-0.03185,0.10938,0.00000,0.02965,0.97820,-0.17214,0.0,2023,6,8,13,26,21,559
0.09370,0.03815,0.05687,0.00000,0.03013,0.98039,-0.17556,0.0,2023,6,8,13,26,21,571
0.09380,0.07315,0.07437,0.00000,0.03111,0.97820,-0.17348,0.0,2023,6,8,13,26,21,582
0.09390,-0.06685,0.10938,0.00000,0.03026,0.97807,-0.17568,0.0,2023,6,8,13,26,21,593
0.09400,-0.13685,0.07437,0.00000,0.03111,0.97795,-0.17434,0.0,2023,6,8,13,26,21,604
0.09410,-0.08435,0.16188,0.00000,0.03050,0.97868,-0.17287,0.0,2023,6,8,13,26,21,615
0.09420,0.10815,0.30187,0.00000,0.03087,0.97893,-0.17324,0.0,2023,6,8,13,26,21,626
0.09430,0.03815,-0.06562,0.00000,0.03038,0.97783,-0.17544,0.0,2023,6,8,13,26,21,637
0.09440,-0.08435,0.07437,0.00000,0.03038,0.97795,-0.17531,0.0,2023,6,8,13,26,21,648
0.09450,0.02065,-0.01312,0.00000,0.02782,0.97734,-0.17556,0.0,2023,6,8,13,26,21,659
0.09460,-0.04935,0.16188,0.00000,0.03135,0.97820,-0.17568,0.0,2023,6,8,13,26,21,671
0.09470,-0.22435,0.19688,0.00000,0.03221,0.97917,-0.17592,0.0,2023,6,8,13,26,21,682
0.09480,0.16065,0.21437,0.00000,0.03221,0.97844,-0.17556,0.0,2023,6,8,13,26,21,693
0.09490,0.09065,-0.17063,0.00000,0.03123,0.97637,-0.17556,0.0,2023,6,8,13,26,21,704
0.09500,0.05565,-0.04812,0.00000,0.02965,0.98003,-0.17812,0.0,2023,6,8,13,26,21,715
0.09510,-0.15435,0.03937,0.00000,0.03184,0.97820,-0.17861,0.0,2023,6,8,13,26,21,726
0.09520,0.00315,0.09187,0.00000,0.03074,0.97698,-0.17556,0.0,2023,6,8,13,26,21,737
0.09530,-0.11935,0.23187,0.00000,0.03148,0.97649,-0.17653,0.0,2023,6,8,13,26,21,748
0.09540,0.10815,-0.01312,0.00000,0.02916,0.97820,-0.17519,0.0,2023,6,8,13,26,21,759
0.09550,-0.03185,0.14438,0.00000,0.03172,0.97917,-0.17519,0.0,2023,6,8,13,26,21,771
0.09560,-0.04935,0.05687,0.00000,0.02782,0.97795,-0.17556,0.0,2023,6,8,13,26,21,782
0.09570,-0.20685,0.12688,0.00000,0.03013,0.97978,-0.17519,0.0,2023,6,8,13,26,21,793
0.09580,-0.13685,0.07437,0.00000,0.02806,0.97624,-0.17605,0.0,2023,6,8,13,26,21,804
0.09590,-0.08435,0.09187,0.00000,0.03001,0.98027,-0.17361,0.0,2023,6,8,13,26,21,815
0.09600,-0.08435,0.10938,0.00000,0.03074,0.97807,-0.17287,0.0,2023,6,8,13,26,21,826
0.09610,0.02065,0.00437,0.00000,0.03050,0.97673,-0.17470,0.0,2023,6,8,13,26,21,837
0.09620,-0.08435,-0.01312,0.00000,0.02891,0.97698,-0.17324,0.0,2023,6,8,13,26,21,848
0.09630,-0.15435,0.16188,0.00000,0.03062,0.97917,-0.17507,0.0,2023,6,8,13,26,21,859
0.09640,0.12565,0.19688,0.00000,0.03013,0.97807,-0.17324,0.0,2023,6,8,13,26,21,871
0.09650,0.03815,0.00437,0.00000,0.03062,0.98027,-0.17312,0.0,2023,6,8,13,26,21,882
0.09660,0.14315,0.10938,0.00000,0.03111,0.97624,-0.17275,0.0,2023,6,8,13,26,21,893
0.09670,-0.03185,-0.03062,0.00000,0.03038,0.97966,-0.17434,0.0,2023,6,8,13,26,21,904
0.09680,0.03815,-0.10062,0.00000,0.03038,0.98039,-0.17458,0.0,2023,6,8,13,26,21,915
0.09690,0.21315,-0.18813,0.00000,0.02989,0.97600,-0.17714,0.0,2023,6,8,13,26,21,926
0.09700,0.07315,-0.04812,0.00000,0.03148,0.98003,-0.17117,0.0,2023,6,8,13,26,21,937
0.09710,-0.06685,0.12688,0.00000,0.03013,0.97990,-0.17409,0.0,2023,6,8,13,26,21,948
0.09720,0.03815,0.00437,0.00000,0.02940,0.97820,-0.17446,0.0,2023,6,8,13,26,21,959
0.09730,0.09065,0.05687,0.00000,0.03148,0.97600,-0.17348,0.0,2023,6,8,13,26,21,971
0.09740,0.16065,0.14438,0.00000,0.03111,0.97734,-0.17409,0.0,2023,6,8,13,26,21,982
0.09750,0.17815,-0.06562,0.00000,0.02904,0.97807,-0.17397,0.0,2023,6,8,13,26,22,3
0.09760,0.09065,-0.01312,0.00000,0.02977,0.97795,-0.17556,0.0,2023,6,8,13,26,22,14
0.09770,0.17815,-0.13563,0.00000,0.02977,0.97698,-0.17324,0.0,2023,6,8,13,26,22,25
0.09780,-0.11935,0.14438,0.00000,0.03062,0.97917,-0.17275,0.0,2023,6,8,13,26,22,36
0.09790,-0.10185,0.05687,0.00000,0.02952,0.97990,-0.17495,0.0,2023,6,8,13,26,22,47
0.09800,-0.15435,0.09187,0.00000,0.02977,0.98015,-0.17434,0.0,2023,6,8,13,26,22,58
0.09810,0.23065,0.16188,0.00000,0.03160,0.97624,-0.17336,0.0,2023,6,8,13,26,22,69
0.09820,-0.01435,0.26687,0.00000,0.02940,0.97966,-0.17470,0.0,2023,6,8,13,26,22,81
0.09830,0.07315,0.10938,0.00000,0.02952,0.97795,-0.17446,0.0,2023,6,8,13,26,22,92
0.09840,0.12565,0.00437,0.00000,0.03123,0.98027,-0.17373,0.0,2023,6,8,13,26,22,103
0.09850,-0.11935,0.03937,0.00000,0.03038,0.97893,-0.17397,0.0,2023,6,8,13,26,22,114
0.09860,0.16065,0.19688,0.00000,0.03172,0.97917,-0.17348,0.0,2023,6,8,13,26,22,125
0.09870,-0.06685,-0.10062,0.00000,0.02989,0.97978,-0.17300,0.0,2023,6,8,13,26,22,136
0.09880,0.03815,0.12688,0.00000,0.03160,0.97856,-0.17287,0.0,2023,6,8,13,26,22,147
0.09890,-0.06685,0.14438,0.00000,0.03087,0.97807,-0.17580,0.0,2023,6,8,13,26,22,158
0.09900,-0.03185,-0.01312,0.00000,0.03062,0.98051,-0.17239,0.0,2023,6,8,13,26,22,169
0.09910,-0.10185,-0.13563,0.00000,0.03050,0.97746,-0.17324,0.0,2023,6,8,13,26,22,181
0.09920,-0.01435,-0.01312,0.00000,0.03148,0.97722,-0.17263,0.0,2023,6,8,13,26,22,192
0.09930,-0.13685,-0.01312,0.00000,0.02977,0.98015,-0.17556,0.0,2023,6,8,13,26,22,203
0.09940,0.03815,0.00437,0.00000,0.03087,0.97771,-0.17239,0.0,2023,6,8,13,26,22,214
0.09950,0.07315,0.02187,0.00000,0.02965,0.97698,-0.17568,0.0,2023,6,8,13,26,22,225
0.09960,0.00315,-0.04812,0.00000,0.03306,0.98039,-0.17287,0.0,2023,6,8,13,26,22,236
0.09970,-0.10185,0.07437,0.00000,0.03294,0.97759,-0.17495,0.0,2023,6,8,13,26,22,247
0.09980,0.05565,0.09187,0.00000,0.03282,0.97771,-0.17275,0.0,2023,6,8,13,26,22,258
0.09990,0.09065,-0.04812,0.00000,0.03074,0.97905,-0.17446,0.0,2023,6,8,13,26,22,269
0.10000,-0.11935,0.21437,0.00000,0.03111,0.97624,-0.17483,0.0,2023,6,8,13,26,22,281
0.10010,-0.06685,0.16188,0.00000,0.03062,0.97893,-0.17324,0.0,2023,6,8,13,26,22,292
0.10020,0.00315,0.12688,0.00000,0.03074,0.97832,-0.17263,0.0,2023,6,8,13,26,22,303
0.10030,0.00315,0.23187,0.00000,0.03209,0.98222,-0.17202,0.0,2023,6,8,13,26,22,314
0.10040,-0.13685,0.12688,0.00000,0.02977,0.97893,-0.17446,0.0,2023,6,8,13,26,22,325
0.10050,-0.01435,0.07437,0.00000,0.03099,0.97832,-0.17446,0.0,2023,6,8,13,26,22,336
0.10060,-0.01435,0.16188,0.00000,0.03172,0.97685,-0.17409,0.0,2023,6,8,13,26,22,347
0.10070,-0.11935,-0.01312,0.00000,0.03013,0.97795,-0.17434,0.0,2023,6,8,13,26,22,358
0.10080,0.14315,0.31937,0.00000,0.02879,0.97783,-0.17361,0.0,2023,6,8,13,26,22,369
0.10090,0.14315,0.00437,0.00000,0.02989,0.97673,-0.17348,0.0,2023,6,8,13,26,22,381
0.10100,0.05565,-0.03062,0.00000,0.02928,0.97722,-0.17385,0.0,2023,6,8,13,26,22,392
0.10110,-0.10185,0.14438,0.00000,0.03135,0.97856,-0.17385,0.0,2023,6,8,13,26,22,403
0.10120,0.14315,0.00437,0.00000,0.03233,0.97832,-0.17239,0.0,2023,6,8,13,26,22,414
0.10130,-0.06685,0.02187,0.00000,0.02965,0.97612,-0.17275,0.0,2023,6,8,13,26,22,425
0.10140,-0.01435,-0.08312,0.00000,0.03148,0.97795,-0.17263,0.0,2023,6,8,13,26,22,436
0.10150,-0.01435,0.24937,0.00000,0.02965,0.97759,-0.17251,0.0,2023,6,8,13,26,22,447
0.10160,-0.10185,0.07437,0.00000,0.03038,0.97661,-0.17324,0.0,2023,6,8,13,26,22,458
0.10170,0.07315,-0.11813,0.00000,0.03172,0.97820,-0.17544,0.0,2023,6,8,13,26,22,469
0.10180,-0.10185,0.33688,0.00000,0.03270,0.97624,-0.17373,0.0,2023,6,8,13,26,22,481
0.10190,0.19565,0.12688,0.00000,0.02940,0.97600,-0.17348,0.0,2023,6,8,13,26,22,492
0.10200,0.05565,-0.15313,0.00000,0.03270,0.97771,-0.17470,0.0,2023,6,8,13,26,22,503
0.10210,-0.01435,-0.10062,0.00000,0.02928,0.97783,-0.17214,0.0,2023,6,8,13,26,22,514
0.10220,0.02065,0.16188,0.00000,0.03026,0.97673,-0.17348,0.0,2023,6,8,13,26,22,525
0.10230,0.09065,-0.01312,0.00000,0.03062,0.97966,-0.17385,0.0,2023,6,8,13,26,22,536
0.10240,-0.08435,0.02187,0.00000,0.03099,0.97783,-0.17373,0.0,2023,6,8,13,26,22,547
0.10250,-0.18935,-0.08312,0.00000,0.03111,0.97405,-0.17434,0.0,2023,6,8,13,26,22,558
0.10260,-0.08435,0.28437,0.00000,0.02989,0.97685,-0.17507,0.0,2023,6,8,13,26,22,569
0.10270,-0.03185,-0.01312,0.00000,0.03099,0.97954,-0.17324,0.0,2023,6,8,13,26,22,581
0.10280,-0.13685,0.09187,0.00000,0.03026,0.97881,-0.17312,0.0,2023,6,8,13,26,22,592
0.10290,0.09065,-0.15313,0.00000,0.02794,0.97734,-0.17312,0.0,2023,6,8,13,26,22,603
0.10300,0.02065,-0.17063,0.00000,0.02989,0.97893,-0.17275,0.0,2023,6,8,13,26,22,614
0.10310,-0.04935,-0.15313,0.00000,0.02977,0.97917,-0.17495,0.0,2023,6,8,13,26,22,625
0.10320,-0.03185,0.24937,0.00000,0.02879,0.97807,-0.17312,0.0,2023,6,8,13,26,22,636
0.10330,0.24815,0.03937,0.00000,0.03062,0.97771,-0.17312,0.0,2023,6,8,13,26,22,647
0.10340,-0.13685,-0.06562,0.00000,0.02977,0.97893,-0.17214,0.0,2023,6,8,13,26,22,658
0.10350,-0.08435,0.17938,0.00000,0.02928,0.97771,-0.17178,0.0,2023,6,8,13,26,22,669
0.10360,-0.01435,0.23187,0.00000,0.03221,0.97820,-0.17483,0.0,2023,6,8,13,26,22,681
0.10370,0.21315,0.09187,0.00000,0.02989,0.97917,-0.17287,0.0,2023,6,8,13,26,22,692
0.10380,-0.03185,-0.13563,0.00000,0.03184,0.97856,-0.17409,0.0,2023,6,8,13,26,22,703
0.10390,-0.06685,-0.20563,0.00000,0.03026,0.97795,-0.17324,0.0,2023,6,8,13,26,22,714
0.10400,-0.13685,0.17938,0.00000,0.03026,0.97942,-0.17324,0.0,2023,6,8,13,26,22,725
0.10410,0.03815,-0.03062,0.00000,0.02977,0.97917,-0.17446,0.0,2023,6,8,13,26,22,736
0.10420,-0.08435,0.10938,0.00000,0.02879,0.98003,-0.17336,0.0,2023,6,8,13,26,22,747
0.10430,-0.04935,-0.13563,0.00000,0.03184,0.97807,-0.17312,0.0,2023,6,8,13,26,22,758
0.10440,0.07315,-0.01312,0.00000,0.02952,0.97844,-0.17397,0.0,2023,6,8,13,26,22,769
0.10450,0.21315,-0.10062,0.00000,0.03123,0.97856,-0.17531,0.0,2023,6,8,13,26,22,781
0.10460,0.02065,0.03937,0.00000,0.02977,0.97746,-0.17470,0.0,2023,6,8,13,26,22,792
0.10470,-0.03185,0.21437,0.00000,0.03001,0.97905,-0.17287,0.0,2023,6,8,13,26,22,803
0.10480,-0.04935,-0.08312,0.00000,0.02916,0.97746,-0.17458,0.0,2023,6,8,13,26,22,814
0.10490,0.14315,0.12688,0.00000,0.03111,0.97905,-0.17153,0.0,2023,6,8,13,26,22,825
0.10500,-0.15435,0.07437,0.00000,0.03074,0.97807,-0.17544,0.0,2023,6,8,13,26,22,836
0.10510,-0.15435,0.05687,0.00000,0.03257,0.97820,-0.17336,0.0,2023,6,8,13,26,22,847
0.10520,0.14315,0.19688,0.00000,0.03172,0.97844,-0.17458,0.0,2023,6,8,13,26,22,858
0.10530,0.05565,0.12688,0.00000,0.03233,0.97771,-0.17287,0.0,2023,6,8,13,26,22,869
0.10540,-0.06685,0.02187,0.00000,0.02952,0.97966,-0.17190,0.0,2023,6,8,13,26,22,881
0.10550,0.02065,0.23187,0.00000,0.03062,0.97612,-0.17531,0.0,2023,6,8,13,26,22,892
0.10560,0.16065,0.09187,0.00000,0.02965,0.97978,-0.17324,0.0,2023,6,8,13,26,22,903
0.10570,0.10815,-0.06562,0.00000,0.02989,0.98003,-0.17348,0.0,2023,6,8,13,26,22,914
0.10580,0.03815,0.10938,0.00000,0.02916,0.97783,-0.17397,0.0,2023,6,8,13,26,22,925
0.10590,0.17815,-0.22313,0.00000,0.02916,0.97820,-0.17544,0.0,2023,6,8,13,26,22,936
0.10600,0.23065,0.00437,0.00000,0.02940,0.97905,-0.17556,0.0,2023,6,8,13,26,22,947
0.10610,0.02065,0.19688,0.00000,0.02916,0.97746,-0.17336,0.0,2023,6,8,13,26,22,958
0.10620,-0.11935,0.03937,0.00000,0.02952,0.97661,-0.17300,0.0,2023,6,8,13,26,22,969
0.10630,-0.11935,0.03937,0.00000,0.03172,0.97771,-0.17214,0.0,2023,6,8,13,26,22,981
0.10640,0.19565,-0.08312,0.00000,0.03087,0.97820,-0.17190,0.0,2023,6,8,13,26,22,992
0.10650,-0.13685,0.10938,0.00000,0.02989,0.97685,-0.17287,0.0,2023,6,8,13,26,23,3
0.10660,0.03815,0.02187,0.00000,0.03062,0.97942,-0.17348,0.0,2023,6,8,13,26,23,14
0.10670,-0.06685,0.17938,0.00000,0.03050,0.97868,-0.17214,0.0,2023,6,8,13,26,23,25
0.10680,0.12565,0.12688,0.00000,0.03001,0.97820,-0.17312,0.0,2023,6,8,13,26,23,36
0.10690,0.02065,0.10938,0.00000,0.03074,0.97661,-0.17263,0.0,2023,6,8,13,26,23,47
0.10700,0.02065,0.00437,0.00000,0.03074,0.97881,-0.17519,0.0,2023,6,8,13,26,23,58
0.10710,0.07315,0.14438,0.00000,0.02952,0.97673,-0.17434,0.0,2023,6,8,13,26,23,69
0.10720,-0.13685,-0.15313,0.00000,0.03062,0.98027,-0.17239,0.0,2023,6,8,13,26,23,81
0.10730,-0.08435,0.33688,0.00000,0.03026,0.97746,-0.17165,0.0,2023,6,8,13,26,23,92
0.10740,-0.20685,0.05687,0.00000,0.03331,0.97868,-0.17507,0.0,2023,6,8,13,26,23,103
0.10750,0.00315,0.02187,0.00000,0.03099,0.97832,-0.17373,0.0,2023,6,8,13,26,23,114
0.10760,-0.01435,0.33688,0.00000,0.02989,0.97673,-0.17507,0.0,2023,6,8,13,26,23,125
0.10770,0.10815,0.12688,0.00000,0.03099,0.97637,-0.17165,0.0,2023,6,8,13,26,23,136
0.10780,-0.08435,0.17938,0.00000,0.03074,0.97868,-0.17092,0.0,2023,6,8,13,26,23,147
0.10790,-0.11935,0.00437,0.00000,0.02940,0.97832,-0.17226,0.0,2023,6,8,13,26,23,158
0.10800,0.05565,0.14438,0.00000,0.02818,0.97771,-0.17202,0.0,2023,6,8,13,26,23,169
0.10810,0.03815,-0.15313,0.00000,0.02879,0.97929,-0.17251,0.0,2023,6,8,13,26,23,181
0.10820,0.10815,-0.04812,0.00000,0.03111,0.97917,-0.17263,0.0,2023,6,8,13,26,23,192
0.10830,0.02065,0.05687,0.00000,0.03245,0.97710,-0.17483,0.0,2023,6,8,13,26,23,203
0.10840,0.24815,-0.15313,0.00000,0.03074,0.97820,-0.17165,0.0,2023,6,8,13,26,23,214
0.10850,-0.15435,0.03937,0.00000,0.03160,0.97868,-0.17239,0.0,2023,6,8,13,26,23,225
0.10860,-0.17185,0.05687,0.00000,0.02891,0.98039,-0.17104,0.0,2023,6,8,13,26,23,236
0.10870,-0.11935,0.09187,0.00000,0.03038,0.97722,-0.17080,0.0,2023,6,8,13,26,23,247
0.10880,0.05565,-0.03062,0.00000,0.02965,0.97917,-0.17397,0.0,2023,6,8,13,26,23,258
0.10890,0.09065,0.14438,0.00000,0.03196,0.97966,-0.17422,0.0,2023,6,8,13,26,23,269
0.10900,0.05565,-0.04812,0.00000,0.03172,0.97710,-0.17531,0.0,2023,6,8,13,26,23,281
0.10910,-0.20685,-0.03062,0.00000,0.03221,0.98076,-0.17287,0.0,2023,6,8,13,26,23,292
0.10920,0.02065,0.09187,0.00000,0.03123,0.97856,-0.17422,0.0,2023,6,8,13,26,23,303
0.10930,0.05565,0.09187,0.00000,0.03062,0.97661,-0.17361,0.0,2023,6,8,13,26,23,314
0.10940,0.07315,-0.06562,0.00000,0.03172,0.97429,-0.17117,0.0,2023,6,8,13,26,23,325
0.10950,-0.03185,0.00437,0.00000,0.03001,0.97820,-0.17385,0.0,2023,6,8,13,26,23,336
0.10960,-0.01435,0.09187,0.00000,0.03245,0.97710,-0.17324,0.0,2023,6,8,13,26,23,347
0.10970,0.14315,0.07437,0.00000,0.03184,0.97783,-0.17544,0.0,2023,6,8,13,26,23,358
0.10980,-0.08435,-0.08312,0.00000,0.03050,0.98003,-0.17336,0.0,2023,6,8,13,26,23,369
0.10990,-0.04935,0.17938,0.00000,0.03221,0.97917,-0.17190,0.0,2023,6,8,13,26,23,381
0.11000,-0.01435,0.17938,0.00000,0.03148,0.97734,-0.17300,0.0,2023,6,8,13,26,23,392
0.11010,-0.10185,0.19688,0.00000,0.03001,0.97893,-0.17348,0.0,2023,6,8,13,26,23,403
0.11020,0.02065,-0.03062,0.00000,0.03148,0.97856,-0.17324,0.0,2023,6,8,13,26,23,414
0.11030,-0.06685,0.23187,0.00000,0.03123,0.97710,-0.17348,0.0,2023,6,8,13,26,23,425
0.11040,0.05565,0.00437,0.00000,0.03245,0.97746,-0.17324,0.0,2023,6,8,13,26,23,436
0.11050,-0.08435,-0.04812,0.00000,0.03184,0.97990,-0.17422,0.0,2023,6,8,13,26,23,447
0.11060,-0.01435,0.09187,0.00000,0.03038,0.97588,-0.17165,0.0,2023,6,8,13,26,23,458
0.11070,-0.01435,-0.01312,0.00000,0.02818,0.97746,-0.17312,0.0,2023,6,8,13,26,23,469
0.11080,0.12565,0.02187,0.00000,0.03306,0.97868,-0.17397,0.0,2023,6,8,13,26,23,481
0.11090,-0.06685,0.05687,0.00000,0.02928,0.97783,-0.17324,0.0,2023,6,8,13,26,23,492
0.11100,0.09065,-0.10062,0.00000,0.02879,0.97527,-0.17519,0.0,2023,6,8,13,26,23,503
0.11110,-0.04935,-0.10062,0.00000,0.03013,0.97759,-0.17312,0.0,2023,6,8,13,26,23,514
0.11120,-0.10185,0.21437,0.00000,0.02989,0.97746,-0.17397,0.0,2023,6,8,13,26,23,525
0.11130,0.17815,-0.01312,0.00000,0.03172,0.97807,-0.17336,0.0,2023,6,8,13,26,23,536
0.11140,-0.18935,0.38938,0.00000,0.03209,0.97722,-0.17324,0.0,2023,6,8,13,26,23,547
0.11150,-0.06685,0.03937,0.00000,0.02928,0.97917,-0.17507,0.0,2023,6,8,13,26,23,558
0.11160,-0.08435,0.05687,0.00000,0.02806,0.97746,-0.17251,0.0,2023,6,8,13,26,23,569
0.11170,-0.22435,0.05687,0.00000,0.03001,0.97844,-0.17263,0.0,2023,6,8,13,26,23,581
0.11180,0.09065,-0.06562,0.00000,0.02977,0.97856,-0.17458,0.0,2023,6,8,13,26,23,592
0.11190,0.03815,0.02187,0.00000,0.02965,0.97698,-0.17544,0.0,2023,6,8,13,26,23,603
0.11200,-0.03185,0.14438,0.00000,0.03135,0.97990,-0.17336,0.0,2023,6,8,13,26,23,614
0.11210,0.17815,0.05687,0.00000,0.02916,0.97759,-0.17409,0.0,2023,6,8,13,26,23,625
0.11220,0.07315,-0.08312,0.00000,0.03233,0.97746,-0.17178,0.0,2023,6,8,13,26,23,636
0.11230,-0.08435,0.03937,0.00000,0.03026,0.97673,-0.17300,0.0,2023,6,8,13,26,23,647
0.11240,-0.13685,0.07437,0.00000,0.03062,0.97637,-0.17458,0.0,2023,6,8,13,26,23,658
0.11250,0.02065,-0.06562,0.00000,0.03172,0.97868,-0.17495,0.0,2023,6,8,13,26,23,669
0.11260,-0.01435,0.03937,0.00000,0.02952,0.97624,-0.17153,0.0,2023,6,8,13,26,23,681
0.11270,0.09065,-0.17063,0.00000,0.02916,0.97710,-0.17324,0.0,2023,6,8,13,26,23,692
0.11280,0.05565,0.02187,0.00000,0.03221,0.97881,-0.17324,0.0,2023,6,8,13,26,23,703
0.11290,0.12565,0.07437,0.00000,0.03050,0.97722,-0.17409,0.0,2023,6,8,13,26,23,714
0.11300,-0.22435,0.03937,0.00000,0.03148,0.97722,-0.17446,0.0,2023,6,8,13,26,23,725
0.11310,0.02065,-0.13563,0.00000,0.03135,0.97588,-0.17190,0.0,2023,6,8,13,26,23,736
0.11320,-0.03185,-0.01312,0.00000,0.02879,0.97832,-0.17300,0.0,2023,6,8,13,26,23,747
0.11330,-0.01435,0.17938,0.00000,0.03099,0.97685,-0.17434,0.0,2023,6,8,13,26,23,758
0.11340,-0.01435,0.07437,0.00000,0.03062,0.97893,-0.17385,0.0,2023,6,8,13,26,23,769
0.11350,-0.04935,-0.03062,0.00000,0.03160,0.97734,-0.17348,0.0,2023,6,8,13,26,23,781
0.11360,0.07315,0.07437,0.00000,0.03148,0.97698,-0.17263,0.0,2023,6,8,13,26,23,792
0.11370,0.05565,0.00437,0.00000,0.02940,0.97588,-0.17397,0.0,2023,6,8,13,26,23,803
0.11380,-0.04935,0.00437,0.00000,0.02952,0.97673,-0.17422,0.0,2023,6,8,13,26,23,814
0.11390,-0.06685,0.17938,0.00000,0.03196,0.97844,-0.17239,0.0,2023,6,8,13,26,23,825
0.11400,-0.06685,0.02187,0.00000,0.03209,0.97649,-0.17312,0.0,2023,6,8,13,26,23,836
0.11410,0.12565,-0.11813,0.00000,0.02806,0.97624,-0.17251,0.0,2023,6,8,13,26,23,847
0.11420,0.03815,-0.06562,0.00000,0.02952,0.97929,-0.17312,0.0,2023,6,8,13,26,23,858
0.11430,0.07315,0.09187,0.00000,0.02989,0.97783,-0.17165,0.0,2023,6,8,13,26,23,869
0.11440,0.05565,0.00437,0.00000,0.02867,0.97795,-0.17275,0.0,2023,6,8,13,26,23,881
0.11450,0.07315,-0.01312,0.00000,0.03074,0.98161,-0.17178,0.0,2023,6,8,13,26,23,892
0.11460,-0.15435,-0.03062,0.00000,0.03001,0.97917,-0.17202,0.0,2023,6,8,13,26,23,903
0.11470,0.19565,-0.08312,0.00000,0.03099,0.97832,-0.17153,0.0,2023,6,8,13,26,23,914
0.11480,0.02065,0.03937,0.00000,0.03062,0.97844,-0.17226,0.0,2023,6,8,13,26,23,925
0.11490,0.05565,-0.15313,0.00000,0.03221,0.97990,-0.17226,0.0,2023,6,8,13,26,23,936
0.11500,-0.03185,0.12688,0.00000,0.02989,0.97783,-0.17422,0.0,2023,6,8,13,26,23,947
0.11510,-0.03185,0.09187,0.00000,0.03050,0.97868,-0.17202,0.0,2023,6,8,13,26,23,958
0.11520,-0.03185,0.05687,0.00000,0.03062,0.97783,-0.17373,0.0,2023,6,8,13,26,23,969
0.11530,-0.06685,0.09187,0.00000,0.03294,0.97832,-0.17409,0.0,2023,6,8,13,26,23,981
0.11540,0.14315,0.10938,0.00000,0.03062,0.97795,-0.17641,0.0,2023,6,8,13,26,24,2
0.11550,-0.01435,0.02187,0.00000,0.03111,0.97893,-0.17226,0.0,2023,6,8,13,26,24,13
0.11560,0.02065,0.16188,0.00000,0.03038,0.97893,-0.17531,0.0,2023,6,8,13,26,24,24
0.11570,0.03815,0.23187,0.00000,0.02965,0.97893,-0.17409,0.0,2023,6,8,13,26,24,35
0.11580,0.19565,-0.06562,0.00000,0.02928,0.97600,-0.17653,0.0,2023,6,8,13,26,24,46
0.11590,-0.11935,0.02187,0.00000,0.03123,0.97881,-0.17458,0.0,2023,6,8,13,26,24,57
0.11600,0.05565,0.00437,0.00000,0.03099,0.98003,-0.17507,0.0,2023,6,8,13,26,24,68
0.11610,0.00315,0.00437,0.00000,0.03160,0.97795,-0.17446,0.0,2023,6,8,13,26,24,79
0.11620,0.03815,0.12688,0.00000,0.03038,0.97441,-0.17849,0.0,2023,6,8,13,26,24,91
0.11630,-0.25935,-0.04812,0.00000,0.03087,0.97734,-0.17422,0.0,2023,6,8,13,26,24,102
0.11640,-0.04935,0.05687,0.00000,0.03074,0.97722,-0.17458,0.0,2023,6,8,13,26,24,113
0.11650,-0.08435,0.17938,0.00000,0.02916,0.97661,-0.17495,0.0,2023,6,8,13,26,24,124
0.11660,0.14315,-0.13563,0.00000,0.03111,0.97905,-0.17324,0.0,2023,6,8,13,26,24,135
0.11670,0.14315,0.00437,0.00000,0.02952,0.97844,-0.17458,0.0,2023,6,8,13,26,24,146
0.11680,-0.03185,0.09187,0.00000,0.02977,0.97783,-0.17531,0.0,2023,6,8,13,26,24,157
0.11690,-0.04935,0.07437,0.00000,0.02916,0.97929,-0.17641,0.0,2023,6,8,13,26,24,168
0.11700,-0.03185,0.07437,0.00000,0.03026,0.97795,-0.17373,0.0,2023,6,8,13,26,24,179
0.11710,0.07315,0.00437,0.00000,0.03135,0.97795,-0.17495,0.0,2023,6,8,13,26,24,191
0.11720,-0.04935,0.02187,0.00000,0.02867,0.97917,-0.17324,0.0,2023,6,8,13,26,24,202
0.11730,0.09065,0.05687,0.00000,0.02891,0.97661,-0.17361,0.0,2023,6,8,13,26,24,213
0.11740,-0.08435,0.14438,0.00000,0.02696,0.98015,-0.17617,0.0,2023,6,8,13,26,24,224
0.11750,-0.06685,0.07437,0.00000,0.03184,0.97905,-0.17190,0.0,2023,6,8,13,26,24,235
0.11760,-0.08435,0.03937,0.00000,0.03087,0.97783,-0.17544,0.0,2023,6,8,13,26,24,246
0.11770,0.10815,-0.01312,0.00000,0.03148,0.97832,-0.17446,0.0,2023,6,8,13,26,24,257
0.11780,-0.10185,-0.01312,0.00000,0.02952,0.97588,-0.17300,0.0,2023,6,8,13,26,24,268
0.11790,-0.01435,-0.11813,0.00000,0.03050,0.97600,-0.17214,0.0,2023,6,8,13,26,24,279
0.11800,-0.13685,0.09187,0.00000,0.02916,0.97905,-0.17141,0.0,2023,6,8,13,26,24,291
0.11810,0.02065,0.14438,0.00000,0.02965,0.97649,-0.17312,0.0,2023,6,8,13,26,24,302
0.11820,-0.01435,-0.01312,0.00000,0.02855,0.97722,-0.17226,0.0,2023,6,8,13,26,24,313
0.11830,-0.04935,0.02187,0.00000,0.02928,0.97844,-0.17226,0.0,2023,6,8,13,26,24,324
0.11840,0.05565,0.03937,0.00000,0.02818,0.97771,-0.17312,0.0,2023,6,8,13,26,24,335
0.11850,0.10815,0.00437,0.00000,0.03233,0.97868,-0.17202,0.0,2023,6,8,13,26,24,346
0.11860,-0.22435,-0.06562,0.00000,0.03221,0.97710,-0.17507,0.0,2023,6,8,13,26,24,357
0.11870,0.02065,0.19688,0.00000,0.02940,0.98003,-0.17605,0.0,2023,6,8,13,26,24,368
0.11880,-0.03185,-0.17063,0.00000,0.02843,0.97832,-0.17385,0.0,2023,6,8,13,26,24,379
0.11890,-0.10185,0.17938,0.00000,0.03026,0.97661,-0.17251,0.0,2023,6,8,13,26,24,391
0.11900,-0.08435,0.07437,0.00000,0.03148,0.97637,-0.17190,0.0,2023,6,8,13,26,24,402
0.11910,0.07315,-0.13563,0.00000,0.03209,0.97990,-0.17470,0.0,2023,6,8,13,26,24,413
0.11920,-0.10185,0.23187,0.00000,0.03111,0.97563,-0.17422,0.0,2023,6,8,13,26,24,424
0.11930,0.00315,-0.08312,0.00000,0.03038,0.97807,-0.17336,0.0,2023,6,8,13,26,24,435
0.11940,0.00315,0.09187,0.00000,0.02879,0.97795,-0.17580,0.0,2023,6,8,13,26,24,446
0.11950,-0.03185,0.12688,0.00000,0.02916,0.97576,-0.17397,0.0,2023,6,8,13,26,24,457
0.11960,-0.01435,-0.04812,0.00000,0.03148,0.97783,-0.17275,0.0,2023,6,8,13,26,24,468
0.11970,-0.10185,-0.11813,0.00000,0.02977,0.98064,-0.17287,0.0,2023,6,8,13,26,24,479
0.11980,-0.01435,0.02187,0.00000,0.03038,0.97807,-0.17336,0.0,2023,6,8,13,26,24,491
0.11990,-0.06685,0.12688,0.00000,0.03087,0.97710,-0.17458,0.0,2023,6,8,13,26,24,502
0.12000,-0.15435,-0.04812,0.00000,0.03062,0.97722,-0.17251,0.0,2023,6,8,13,26,24,513
0.12010,-0.08435,-0.06562,0.00000,0.02928,0.97685,-0.17507,0.0,2023,6,8,13,26,24,524
0.12020,-0.10185,-0.08312,0.00000,0.03111,0.97929,-0.17336,0.0,2023,6,8,13,26,24,535
0.12030,0.10815,0.12688,0.00000,0.03099,0.97783,-0.17605,0.0,2023,6,8,13,26,24,546
0.12040,-0.13685,0.00437,0.00000,0.02989,0.97722,-0.17544,0.0,2023,6,8,13,26,24,557
0.12050,-0.04935,-0.06562,0.00000,0.03135,0.97490,-0.17580,0.0,2023,6,8,13,26,24,568
0.12060,0.00315,0.17938,0.00000,0.03062,0.97795,-0.17495,0.0,2023,6,8,13,26,24,579
0.12070,0.16065,-0.32812,0.00000,0.03038,0.97600,-0.17324,0.0,2023,6,8,13,26,24,591
0.12080,-0.10185,-0.13563,0.00000,0.03050,0.97868,-0.17470,0.0,2023,6,8,13,26,24,602
0.12090,0.07315,-0.01312,0.00000,0.02952,0.97734,-0.17470,0.0,2023,6,8,13,26,24,613
0.12100,-0.25935,0.05687,0.00000,0.02782,0.97746,-0.17068,0.0,2023,6,8,13,26,24,624
0.12110,0.12565,0.23187,0.00000,0.03026,0.97856,-0.17361,0.0,2023,6,8,13,26,24,635
0.12120,-0.10185,0.16188,0.00000,0.03050,0.97868,-0.17519,0.0,2023,6,8,13,26,24,646
0.12130,0.10815,-0.15313,0.00000,0.02965,0.97637,-0.17470,0.0,2023,6,8,13,26,24,657
0.12140,-0.06685,0.14438,0.00000,0.03172,0.97759,-0.17544,0.0,2023,6,8,13,26,24,668
0.12150,-0.03185,0.09187,0.00000,0.02965,0.97966,-0.17324,0.0,2023,6,8,13,26,24,679
0.12160,0.00315,0.17938,0.00000,0.03099,0.97893,-0.17458,0.0,2023,6,8,13,26,24,691
0.12170,0.02065,-0.18813,0.00000,0.02830,0.97576,-0.17434,0.0,2023,6,8,13,26,24,702
0.12180,0.17815,0.00437,0.00000,0.02855,0.97795,-0.17531,0.0,2023,6,8,13,26,24,713
0.12190,0.09065,-0.10062,0.00000,0.02928,0.97771,-0.17446,0.0,2023,6,8,13,26,24,724
0.12200,-0.03185,0.09187,0.00000,0.03001,0.97807,-0.17592,0.0,2023,6,8,13,26,24,735
0.12210,-0.10185,-0.22313,0.00000,0.03062,0.97722,-0.17446,0.0,2023,6,8,13,26,24,746
0.12220,0.14315,0.02187,0.00000,0.02916,0.97893,-0.17544,0.0,2023,6,8,13,26,24,757
0.12230,-0.06685,-0.01312,0.00000,0.03062,0.97929,-0.17446,0.0,2023,6,8,13,26,24,768
0.12240,0.09065,0.09187,0.00000,0.02867,0.97539,-0.17641,0.0,2023,6,8,13,26,24,779
0.12250,-0.08435,0.23187,0.00000,0.02965,0.97820,-0.17617,0.0,2023,6,8,13,26,24,791
0.12260,0.05565,-0.04812,0.00000,0.02867,0.97942,-0.17605,0.0,2023,6,8,13,26,24,802
0.12270,-0.01435,0.19688,0.00000,0.02952,0.98161,-0.17287,0.0,2023,6,8,13,26,24,813
0.12280,-0.04935,0.07437,0.00000,0.03074,0.97795,-0.17275,0.0,2023,6,8,13,26,24,824
0.12290,-0.01435,0.12688,0.00000,0.03074,0.97820,-0.17385,0.0,2023,6,8,13,26,24,835
0.12300,-0.04935,0.05687,0.00000,0.03184,0.97637,-0.17263,0.0,2023,6,8,13,26,24,846
0.12310,-0.03185,0.16188,0.00000,0.03099,0.97746,-0.17544,0.0,2023,6,8,13,26,24,857
0.12320,-0.18935,0.10938,0.00000,0.02904,0.98039,-0.17239,0.0,2023,6,8,13,26,24,868
0.12330,-0.10185,-0.01312,0.00000,0.03111,0.97881,-0.17300,0.0,2023,6,8,13,26,24,879
0.12340,-0.15435,0.26687,0.00000,0.02916,0.97917,-0.17385,0.0,2023,6,8,13,26,24,891
0.12350,-0.13685,0.14438,0.00000,0.02891,0.97807,-0.17409,0.0,2023,6,8,13,26,24,902
0.12360,-0.10185,-0.04812,0.00000,0.03123,0.97673,-0.17629,0.0,2023,6,8,13,26,24,913
0.12370,0.03815,0.10938,0.00000,0.02867,0.97710,-0.17568,0.0,2023,6,8,13,26,24,924
0.12380,-0.11935,-0.06562,0.00000,0.02867,0.97905,-0.17568,0.0,2023,6,8,13,26,24,935
0.12390,0.00315,0.10938,0.00000,0.02818,0.97844,-0.17592,0.0,2023,6,8,13,26,24,946
0.12400,-0.06685,0.05687,0.00000,0.03331,0.97722,-0.17324,0.0,2023,6,8,13,26,24,957
0.12410,-0.20685,-0.06562,0.00000,0.03184,0.97820,-0.17446,0.0,2023,6,8,13,26,24,968
0.12420,0.05565,0.16188,0.00000,0.02977,0.97929,-0.17470,0.0,2023,6,8,13,26,24,979
0.12430,-0.08435,0.35438,0.00000,0.03379,0.97771,-0.17141,0.0,2023,6,8,13,26,24,991
0.12440,-0.17185,0.03937,0.00000,0.03038,0.97795,-0.17373,0.0,2023,6,8,13,26,24,2
0.12450,0.16065,0.03937,0.00000,0.03294,0.97966,-0.17434,0.0,2023,6,8,13,26,25,3
0.12460,0.16065,0.10938,0.00000,0.03245,0.97795,-0.17507,0.0,2023,6,8,13,26,25,14
0.12470,-0.13685,-0.08312,0.00000,0.03074,0.97661,-0.17409,0.0,2023,6,8,13,26,25,25
0.12480,-0.08435,0.02187,0.00000,0.03013,0.97612,-0.17470,0.0,2023,6,8,13,26,25,36
0.12490,-0.11935,0.17938,0.00000,0.03099,0.98064,-0.17275,0.0,2023,6,8,13,26,25,47
0.12500,-0.06685,-0.04812,0.00000,0.02806,0.98039,-0.17385,0.0,2023,6,8,13,26,25,58
0.12510,0.03815,0.03937,0.00000,0.02904,0.97722,-0.17263,0.0,2023,6,8,13,26,25,69
0.12520,0.05565,-0.04812,0.00000,0.03038,0.97783,-0.17361,0.0,2023,6,8,13,26,25,81
0.12530,-0.17185,0.02187,0.00000,0.03074,0.97710,-0.17385,0.0,2023,6,8,13,26,25,92
0.12540,-0.03185,0.03937,0.00000,0.03221,0.97942,-0.17263,0.0,2023,6,8,13,26,25,103
0.12550,0.09065,0.21437,0.00000,0.02989,0.97966,-0.17239,0.0,2023,6,8,13,26,25,114
0.12560,0.03815,-0.04812,0.00000,0.03123,0.97746,-0.17385,0.0,2023,6,8,13,26,25,125
0.12570,0.10815,0.16188,0.00000,0.03087,0.97881,-0.17129,0.0,2023,6,8,13,26,25,136
0.12580,0.00315,-0.18813,0.00000,0.02977,0.97905,-0.17397,0.0,2023,6,8,13,26,25,147
0.12590,-0.06685,0.07437,0.00000,0.02916,0.97954,-0.17434,0.0,2023,6,8,13,26,25,158
0.12600,-0.01435,0.07437,0.00000,0.03001,0.97783,-0.17446,0.0,2023,6,8,13,26,25,169
0.12610,-0.04935,0.31937,0.00000,0.02989,0.98125,-0.17190,0.0,2023,6,8,13,26,25,181
0.12620,0.02065,0.07437,0.00000,0.03087,0.97710,-0.17483,0.0,2023,6,8,13,26,25,192
0.12630,-0.15435,-0.08312,0.00000,0.02928,0.97600,-0.17409,0.0,2023,6,8,13,26,25,203
0.12640,0.05565,-0.01312,0.00000,0.02757,0.97685,-0.17483,0.0,2023,6,8,13,26,25,214
0.12650,0.09065,0.07437,0.00000,0.03209,0.97844,-0.17385,0.0,2023,6,8,13,26,25,225
0.12660,0.00315,0.10938,0.00000,0.03013,0.97759,-0.17361,0.0,2023,6,8,13,26,25,236
0.12670,0.10815,0.10938,0.00000,0.03221,0.97746,-0.17178,0.0,2023,6,8,13,26,25,247
0.12680,0.00315,-0.06562,0.00000,0.03184,0.97832,-0.17068,0.0,2023,6,8,13,26,25,258
0.12690,-0.06685,-0.06562,0.00000,0.03026,0.97771,-0.17300,0.0,2023,6,8,13,26,25,269
0.12700,-0.01435,-0.06562,0.00000,0.03135,0.97795,-0.17434,0.0,2023,6,8,13,26,25,281
0.12710,-0.04935,0.21437,0.00000,0.03099,0.97722,-0.17397,0.0,2023,6,8,13,26,25,292
0.12720,0.17815,0.07437,0.00000,0.03111,0.97698,-0.17251,0.0,2023,6,8,13,26,25,303
0.12730,0.02065,-0.11813,0.00000,0.03257,0.97917,-0.17397,0.0,2023,6,8,13,26,25,314
0.12740,-0.15435,0.07437,0.00000,0.03001,0.97698,-0.17385,0.0,2023,6,8,13,26,25,325
0.12750,-0.15435,0.03937,0.00000,0.02977,0.97844,-0.17348,0.0,2023,6,8,13,26,25,336
0.12760,-0.03185,-0.10062,0.00000,0.03013,0.97844,-0.17361,0.0,2023,6,8,13,26,25,347
0.12770,-0.01435,-0.03062,0.00000,0.02769,0.97698,-0.17434,0.0,2023,6,8,13,26,25,358
0.12780,-0.06685,0.17938,0.00000,0.03050,0.97673,-0.17397,0.0,2023,6,8,13,26,25,369
0.12790,-0.17185,0.10938,0.00000,0.02965,0.97783,-0.17397,0.0,2023,6,8,13,26,25,381
0.12800,-0.10185,-0.15313,0.00000,0.02989,0.97954,-0.17373,0.0,2023,6,8,13,26,25,392
0.12810,0.00315,0.17938,0.00000,0.03099,0.97881,-0.17434,0.0,2023,6,8,13,26,25,403
0.12820,-0.01435,0.12688,0.00000,0.03013,0.97881,-0.17348,0.0,2023,6,8,13,26,25,414
0.12830,-0.01435,-0.11813,0.00000,0.03050,0.97990,-0.17397,0.0,2023,6,8,13,26,25,425
0.12840,-0.01435,-0.08312,0.00000,0.03123,0.97990,-0.17348,0.0,2023,6,8,13,26,25,436
0.12850,-0.03185,-0.08312,0.00000,0.03123,0.97893,-0.17446,0.0,2023,6,8,13,26,25,447
0.12860,-0.15435,0.07437,0.00000,0.03013,0.97722,-0.17531,0.0,2023,6,8,13,26,25,458
0.12870,-0.15435,0.24937,0.00000,0.03013,0.97746,-0.17385,0.0,2023,6,8,13,26,25,469
0.12880,-0.15435,0.16188,0.00000,0.03245,0.97783,-0.17373,0.0,2023,6,8,13,26,25,481
0.12890,-0.10185,0.05687,0.00000,0.03074,0.97771,-0.17397,0.0,2023,6,8,13,26,25,492
0.12900,-0.10185,0.03937,0.00000,0.03209,0.97856,-0.17336,0.0,2023,6,8,13,26,25,503
0.12910,-0.10185,0.12688,0.00000,0.03245,0.97893,-0.17385,0.0,2023,6,8,13,26,25,514
0.12920,-0.08435,-0.06562,0.00000,0.03111,0.97673,-0.17617,0.0,2023,6,8,13,26,25,525
0.12930,-0.15435,0.09187,0.00000,0.03160,0.97661,-0.17519,0.0,2023,6,8,13,26,25,536
0.12940,-0.04935,0.12688,0.00000,0.03343,0.97661,-0.17519,0.0,2023,6,8,13,26,25,547
0.12950,-0.08435,0.12688,0.00000,0.03148,0.97710,-0.17507,0.0,2023,6,8,13,26,25,558
0.12960,0.07315,-0.03062,0.00000,0.03099,0.98137,-0.17702,0.0,2023,6,8,13,26,25,569
0.12970,-0.06685,-0.01312,0.00000,0.03087,0.97673,-0.17361,0.0,2023,6,8,13,26,25,581
0.12980,0.10815,-0.11813,0.00000,0.02855,0.97868,-0.17641,0.0,2023,6,8,13,26,25,592
0.12990,-0.01435,0.09187,0.00000,0.03257,0.97893,-0.17629,0.0,2023,6,8,13,26,25,603
0.13000,0.05565,0.10938,0.00000,0.03221,0.97905,-0.17556,0.0,2023,6,8,13,26,25,614
0.13010,0.03815,0.05687,0.00000,0.02989,0.97795,-0.17385,0.0,2023,6,8,13,26,25,625
0.13020,-0.11935,0.02187,0.00000,0.02977,0.97893,-0.17544,0.0,2023,6,8,13,26,25,636
0.13030,-0.01435,0.05687,0.00000,0.03013,0.97771,-0.17458,0.0,2023,6,8,13,26,25,647
0.13040,0.00315,0.17938,0.00000,0.03196,0.97929,-0.17409,0.0,2023,6,8,13,26,25,658
0.13050,-0.15435,0.03937,0.00000,0.02952,0.97868,-0.17373,0.0,2023,6,8,13,26,25,669
0.13060,0.23065,-0.08312,0.00000,0.03038,0.97795,-0.17275,0.0,2023,6,8,13,26,25,681
0.13070,0.05565,-0.04812,0.00000,0.02891,0.97600,-0.17397,0.0,2023,6,8,13,26,25,692
0.13080,0.07315,-0.03062,0.00000,0.03209,0.97759,-0.17446,0.0,2023,6,8,13,26,25,703
0.13090,-0.06685,0.07437,0.00000,0.03221,0.97820,-0.17409,0.0,2023,6,8,13,26,25,714
0.13100,0.02065,0.09187,0.00000,0.03160,0.97990,-0.17397,0.0,2023,6,8,13,26,25,725
0.13110,0.10815,0.16188,0.00000,0.03111,0.97649,-0.17458,0.0,2023,6,8,13,26,25,736
0.13120,-0.01435,0.23187,0.00000,0.02928,0.97856,-0.17422,0.0,2023,6,8,13,26,25,747
0.13130,-0.10185,-0.03062,0.00000,0.03245,0.97917,-0.17202,0.0,2023,6,8,13,26,25,758
0.13140,0.10815,-0.01312,0.00000,0.02879,0.97942,-0.17409,0.0,2023,6,8,13,26,25,769
0.13150,0.05565,0.10938,0.00000,0.03062,0.97820,-0.17544,0.0,2023,6,8,13,26,25,781
0.13160,-0.10185,0.16188,0.00000,0.02928,0.97868,-0.17470,0.0,2023,6,8,13,26,25,792
0.13170,0.07315,0.14438,0.00000,0.03087,0.97942,-0.17592,0.0,2023,6,8,13,26,25,803
0.13180,0.00315,0.09187,0.00000,0.03013,0.97710,-0.17495,0.0,2023,6,8,13,26,25,814
0.13190,-0.01435,0.09187,0.00000,0.02940,0.97771,-0.17434,0.0,2023,6,8,13,26,25,825
0.13200,-0.01435,0.10938,0.00000,0.03013,0.97795,-0.17385,0.0,2023,6,8,13,26,25,836
0.13210,-0.18935,0.09187,0.00000,0.02818,0.97771,-0.17458,0.0,2023,6,8,13,26,25,847
0.13220,-0.01435,0.14438,0.00000,0.02965,0.97990,-0.17458,0.0,2023,6,8,13,26,25,858
0.13230,0.02065,0.03937,0.00000,0.03245,0.97881,-0.17409,0.0,2023,6,8,13,26,25,869
0.13240,-0.08435,0.05687,0.00000,0.02891,0.97795,-0.17519,0.0,2023,6,8,13,26,25,881
0.13250,-0.03185,0.19688,0.00000,0.03172,0.97710,-0.17458,0.0,2023,6,8,13,26,25,892
0.13260,0.10815,-0.18813,0.00000,0.02940,0.97783,-0.17470,0.0,2023,6,8,13,26,25,903
0.13270,0.03815,0.02187,0.00000,0.03013,0.97893,-0.17336,0.0,2023,6,8,13,26,25,914
0.13280,0.05565,-0.03062,0.00000,0.03050,0.97966,-0.17202,0.0,2023,6,8,13,26,25,925
0.13290,0.09065,-0.25812,0.00000,0.03184,0.97856,-0.17422,0.0,2023,6,8,13,26,25,936
0.13300,-0.13685,0.10938,0.00000,0.03245,0.97844,-0.17397,0.0,2023,6,8,13,26,25,947
0.13310,-0.08435,0.12688,0.00000,0.02952,0.97783,-0.17544,0.0,2023,6,8,13,26,25,958
0.13320,-0.06685,-0.04812,0.00000,0.02952,0.97917,-0.17434,0.0,2023,6,8,13,26,25,969
0.13330,-0.01435,-0.03062,0.00000,0.03087,0.97942,-0.17495,0.0,2023,6,8,13,26,25,981
0.13340,-0.17185,0.02187,0.00000,0.02879,0.97661,-0.17495,0.0,2023,6,8,13,26,25,992
0.13350,0.02065,0.02187,0.00000,0.02989,0.98039,-0.17361,0.0,2023,6,8,13,26,25,3
0.13360,0.00315,0.07437,0.00000,0.03282,0.97966,-0.17495,0.0,2023,6,8,13,26,26,4
0.13370,-0.04935,0.12688,0.00000,0.02989,0.97893,-0.17507,0.0,2023,6,8,13,26,26,15
0.13380,-0.06685,0.07437,0.00000,0.02794,0.97856,-0.17653,0.0,2023,6,8,13,26,26,26
0.13390,0.14315,-0.24062,0.00000,0.03026,0.97893,-0.17409,0.0,2023,6,8,13,26,26,37
0.13400,0.07315,0.03937,0.00000,0.02830,0.97917,-0.17434,0.0,2023,6,8,13,26,26,48
0.13410,-0.08435,0.12688,0.00000,0.02794,0.97978,-0.17568,0.0,2023,6,8,13,26,26,59
0.13420,0.03815,0.03937,0.00000,0.03062,0.97795,-0.17470,0.0,2023,6,8,13,26,26,71
0.13430,0.16065,0.03937,0.00000,0.02977,0.98064,-0.17434,0.0,2023,6,8,13,26,26,82
0.13440,0.00315,0.16188,0.00000,0.02928,0.97710,-0.17409,0.0,2023,6,8,13,26,26,93
0.13450,0.03815,0.12688,0.00000,0.03135,0.97783,-0.17592,0.0,2023,6,8,13,26,26,104
0.13460,-0.11935,0.07437,0.00000,0.03087,0.97807,-0.17507,0.0,2023,6,8,13,26,26,115
0.13470,-0.06685,-0.04812,0.00000,0.03172,0.97917,-0.17458,0.0,2023,6,8,13,26,26,126
0.13480,-0.06685,0.02187,0.00000,0.03294,0.97624,-0.17287,0.0,2023,6,8,13,26,26,137
0.13490,-0.04935,0.03937,0.00000,0.03038,0.97954,-0.17348,0.0,2023,6,8,13,26,26,148
0.13500,-0.06685,0.12688,0.00000,0.03135,0.97649,-0.17556,0.0,2023,6,8,13,26,26,159
0.13510,0.00315,0.03937,0.00000,0.02977,0.97783,-0.17495,0.0,2023,6,8,13,26,26,171
0.13520,0.00315,-0.01312,0.00000,0.02879,0.97893,-0.17226,0.0,2023,6,8,13,26,26,182
0.13530,-0.20685,-0.04812,0.00000,0.03172,0.97795,-0.17214,0.0,2023,6,8,13,26,26,193
0.13540,-0.15435,0.17938,0.00000,0.03123,0.97942,-0.17519,0.0,2023,6,8,13,26,26,204
0.13550,-0.04935,0.00437,0.00000,0.03123,0.97759,-0.17239,0.0,2023,6,8,13,26,26,215
0.13560,0.03815,0.03937,0.00000,0.02806,0.97868,-0.17324,0.0,2023,6,8,13,26,26,226
0.13570,-0.25935,0.14438,0.00000,0.03148,0.97746,-0.17605,0.0,2023,6,8,13,26,26,237
0.13580,0.00315,0.09187,0.00000,0.03184,0.97673,-0.17190,0.0,2023,6,8,13,26,26,248
0.13590,-0.11935,0.17938,0.00000,0.02989,0.97881,-0.17092,0.0,2023,6,8,13,26,26,259
0.13600,-0.22435,0.45937,0.00000,0.03026,0.97685,-0.17226,0.0,2023,6,8,13,26,26,271
0.13610,0.03815,0.02187,0.00000,0.03221,0.97783,-0.17422,0.0,2023,6,8,13,26,26,282
0.13620,0.02065,0.12688,0.00000,0.03111,0.97929,-0.17251,0.0,2023,6,8,13,26,26,293
0.13630,0.09065,-0.06562,0.00000,0.03087,0.97966,-0.17348,0.0,2023,6,8,13,26,26,304
0.13640,-0.18935,0.14438,0.00000,0.03148,0.97905,-0.17190,0.0,2023,6,8,13,26,26,315
0.13650,-0.01435,-0.25812,0.00000,0.03074,0.97929,-0.17507,0.0,2023,6,8,13,26,26,326
0.13660,-0.04935,0.09187,0.00000,0.02928,0.97978,-0.17239,0.0,2023,6,8,13,26,26,337
0.13670,0.14315,-0.15313,0.00000,0.03294,0.97661,-0.17544,0.0,2023,6,8,13,26,26,348
0.13680,-0.04935,0.05687,0.00000,0.03050,0.97795,-0.17275,0.0,2023,6,8,13,26,26,359
0.13690,-0.03185,0.14438,0.00000,0.03123,0.98112,-0.17251,0.0,2023,6,8,13,26,26,371
0.13700,-0.13685,-0.11813,0.00000,0.02855,0.97856,-0.17495,0.0,2023,6,8,13,26,26,382
0.13710,0.09065,0.05687,0.00000,0.03026,0.97844,-0.17324,0.0,2023,6,8,13,26,26,393
0.13720,0.14315,0.12688,0.00000,0.02794,0.97734,-0.17287,0.0,2023,6,8,13,26,26,404
0.13730,-0.04935,0.10938,0.00000,0.03196,0.97771,-0.17312,0.0,2023,6,8,13,26,26,415
0.13740,-0.11935,-0.08312,0.00000,0.03135,0.97673,-0.17495,0.0,2023,6,8,13,26,26,426
0.13750,-0.03185,0.14438,0.00000,0.02977,0.97624,-0.17263,0.0,2023,6,8,13,26,26,437
0.13760,0.09065,0.00437,0.00000,0.03111,0.97795,-0.17361,0.0,2023,6,8,13,26,26,448
0.13770,-0.11935,-0.06562,0.00000,0.03184,0.98051,-0.17470,0.0,2023,6,8,13,26,26,459
0.13780,0.07315,-0.03062,0.00000,0.03245,0.97710,-0.17446,0.0,2023,6,8,13,26,26,471
0.13790,-0.04935,0.19688,0.00000,0.03184,0.97771,-0.17422,0.0,2023,6,8,13,26,26,482
0.13800,-0.29435,0.14438,0.00000,0.03318,0.97868,-0.17373,0.0,2023,6,8,13,26,26,493
0.13810,0.12565,0.02187,0.00000,0.03001,0.98051,-0.17422,0.0,2023,6,8,13,26,26,504
0.13820,-0.15435,-0.08312,0.00000,0.02757,0.97771,-0.17653,0.0,2023,6,8,13,26,26,515
0.13830,0.02065,0.03937,0.00000,0.03111,0.97734,-0.17263,0.0,2023,6,8,13,26,26,526
0.13840,0.09065,-0.11813,0.00000,0.02745,0.97649,-0.17531,0.0,2023,6,8,13,26,26,537
0.13850,0.10815,-0.01312,0.00000,0.03050,0.97820,-0.17324,0.0,2023,6,8,13,26,26,548
0.13860,-0.06685,0.10938,0.00000,0.03209,0.97673,-0.17336,0.0,2023,6,8,13,26,26,559
0.13870,-0.04935,0.05687,0.00000,0.03062,0.97820,-0.17495,0.0,2023,6,8,13,26,26,571
0.13880,-0.04935,-0.10062,0.00000,0.03062,0.97734,-0.17336,0.0,2023,6,8,13,26,26,582
0.13890,-0.11935,0.17938,0.00000,0.03087,0.97649,-0.17483,0.0,2023,6,8,13,26,26,593
0.13900,-0.01435,0.03937,0.00000,0.03074,0.97832,-0.17507,0.0,2023,6,8,13,26,26,604
0.13910,0.12565,0.26687,0.00000,0.02940,0.97820,-0.17483,0.0,2023,6,8,13,26,26,615
0.13920,-0.11935,0.09187,0.00000,0.02745,0.97807,-0.17519,0.0,2023,6,8,13,26,26,626
0.13930,-0.03185,-0.01312,0.00000,0.03050,0.97868,-0.17373,0.0,2023,6,8,13,26,26,637
0.13940,-0.08435,0.00437,0.00000,0.03013,0.97868,-0.17336,0.0,2023,6,8,13,26,26,648
0.13950,-0.03185,0.03937,0.00000,0.03160,0.97759,-0.17287,0.0,2023,6,8,13,26,26,659
0.13960,0.14315,-0.13563,0.00000,0.03001,0.97832,-0.17324,0.0,2023,6,8,13,26,26,671
0.13970,-0.03185,0.10938,0.00000,0.03172,0.97576,-0.17178,0.0,2023,6,8,13,26,26,682
0.13980,0.00315,0.09187,0.00000,0.03013,0.97576,-0.17446,0.0,2023,6,8,13,26,26,693
0.13990,0.05565,0.00437,0.00000,0.02977,0.97881,-0.17178,0.0,2023,6,8,13,26,26,704
0.14000,-0.03185,0.24937,0.00000,0.03148,0.97563,-0.17483,0.0,2023,6,8,13,26,26,715
0.14010,-0.11935,0.14438,0.00000,0.03050,0.97832,-0.17446,0.0,2023,6,8,13,26,26,726
0.14020,-0.03185,0.03937,0.00000,0.03135,0.97844,-0.17397,0.0,2023,6,8,13,26,26,737
0.14030,0.02065,0.00437,0.00000,0.03050,0.97868,-0.17361,0.0,2023,6,8,13,26,26,748
0.14040,0.07315,-0.13563,0.00000,0.02977,0.97905,-0.17336,0.0,2023,6,8,13,26,26,759
0.14050,-0.15435,0.07437,0.00000,0.03038,0.97807,-0.17446,0.0,2023,6,8,13,26,26,771
0.14060,-0.22435,0.10938,0.00000,0.02940,0.97759,-0.17592,0.0,2023,6,8,13,26,26,782
0.14070,-0.01435,0.02187,0.00000,0.02977,0.97661,-0.17446,0.0,2023,6,8,13,26,26,793
0.14080,0.09065,0.07437,0.00000,0.03135,0.97905,-0.17470,0.0,2023,6,8,13,26,26,804
0.14090,-0.01435,0.23187,0.00000,0.02891,0.97893,-0.17336,0.0,2023,6,8,13,26,26,815
0.14100,-0.17185,0.03937,0.00000,0.03087,0.97759,-0.17239,0.0,2023,6,8,13,26,26,826
0.14110,0.10815,0.23187,0.00000,0.03172,0.97698,-0.17409,0.0,2023,6,8,13,26,26,837
0.14120,0.02065,-0.04812,0.00000,0.03013,0.97820,-0.17385,0.0,2023,6,8,13,26,26,848
0.14130,-0.13685,0.17938,0.00000,0.02904,0.97539,-0.17434,0.0,2023,6,8,13,26,26,859
0.14140,0.02065,-0.06562,0.00000,0.03074,0.97746,-0.17348,0.0,2023,6,8,13,26,26,871
0.14150,-0.01435,-0.03062,0.00000,0.02794,0.97856,-0.17397,0.0,2023,6,8,13,26,26,882
0.14160,-0.03185,0.00437,0.00000,0.03148,0.97649,-0.17300,0.0,2023,6,8,13,26,26,893
0.14170,-0.06685,-0.08312,0.00000,0.03062,0.98088,-0.17239,0.0,2023,6,8,13,26,26,904
0.14180,-0.11935,0.10938,0.00000,0.03135,0.97917,-0.17446,0.0,2023,6,8,13,26,26,915
0.14190,-0.11935,0.03937,0.00000,0.03087,0.97734,-0.17190,0.0,2023,6,8,13,26,26,926
0.14200,-0.15435,0.17938,0.00000,0.03050,0.97954,-0.17300,0.0,2023,6,8,13,26,26,937
0.14210,0.09065,-0.06562,0.00000,0.03123,0.97515,-0.17385,0.0,2023,6,8,13,26,26,948
0.14220,-0.11935,0.19688,0.00000,0.03074,0.97868,-0.17141,0.0,2023,6,8,13,26,26,959
0.14230,0.17815,-0.11813,0.00000,0.03233,0.97954,-0.17165,0.0,2023,6,8,13,26,26,971
0.14240,-0.01435,0.09187,0.00000,0.03026,0.97905,-0.17592,0.0,2023,6,8,13,26,26,982
0.14250,0.09065,0.00437,0.00000,0.03001,0.97820,-0.17409,0.0,2023,6,8,13,26,26,993
0.14260,-0.01435,0.12688,0.00000,0.02952,0.97746,-0.17434,0.0,2023,6,8,13,26,26,4
0.14270,0.09065,0.10938,0.00000,0.03282,0.97710,-0.17507,0.0,2023,6,8,13,26,27,5
0.14280,0.00315,0.03937,0.00000,0.03172,0.97795,-0.17336,0.0,2023,6,8,13,26,27,16
0.14290,0.14315,0.03937,0.00000,0.03111,0.97820,-0.17312,0.0,2023,6,8,13,26,27,27
0.14300,0.03815,-0.10062,0.00000,0.03111,0.97832,-0.17300,0.0,2023,6,8,13,26,27,38
0.14310,-0.06685,0.26687,0.00000,0.03257,0.97820,-0.17373,0.0,2023,6,8,13,26,27,49
0.14320,-0.04935,0.02187,0.00000,0.03074,0.97893,-0.17434,0.0,2023,6,8,13,26,27,61
0.14330,-0.17185,-0.06562,0.00000,0.03087,0.97954,-0.17214,0.0,2023,6,8,13,26,27,72
0.14340,-0.06685,0.12688,0.00000,0.03062,0.97807,-0.17178,0.0,2023,6,8,13,26,27,83
0.14350,-0.15435,-0.04812,0.00000,0.03026,0.97832,-0.17373,0.0,2023,6,8,13,26,27,94
0.14360,-0.11935,-0.06562,0.00000,0.03013,0.97868,-0.17458,0.0,2023,6,8,13,26,27,105
0.14370,-0.13685,0.09187,0.00000,0.03135,0.97807,-0.17324,0.0,2023,6,8,13,26,27,116
0.14380,0.02065,0.05687,0.00000,0.02830,0.97722,-0.17409,0.0,2023,6,8,13,26,27,127
0.14390,-0.10185,0.09187,0.00000,0.03111,0.97466,-0.17385,0.0,2023,6,8,13,26,27,138
0.14400,-0.03185,0.05687,0.00000,0.03026,0.97734,-0.17324,0.0,2023,6,8,13,26,27,149
0.14410,-0.03185,0.02187,0.00000,0.03038,0.97844,-0.17666,0.0,2023,6,8,13,26,27,161
0.14420,-0.15435,-0.11813,0.00000,0.03172,0.97966,-0.17239,0.0,2023,6,8,13,26,27,172
0.14430,0.12565,0.05687,0.00000,0.03221,0.97771,-0.17275,0.0,2023,6,8,13,26,27,183
0.14440,-0.11935,0.05687,0.00000,0.03172,0.97832,-0.17422,0.0,2023,6,8,13,26,27,194
0.14450,0.00315,0.07437,0.00000,0.03074,0.97820,-0.17434,0.0,2023,6,8,13,26,27,205
0.14460,-0.13685,-0.03062,0.00000,0.02952,0.97954,-0.17470,0.0,2023,6,8,13,26,27,216
0.14470,0.16065,-0.20563,0.00000,0.03245,0.97588,-0.17495,0.0,2023,6,8,13,26,27,227
0.14480,0.16065,0.07437,0.00000,0.03099,0.97685,-0.17263,0.0,2023,6,8,13,26,27,238
0.14490,0.17815,0.09187,0.00000,0.03013,0.97844,-0.17239,0.0,2023,6,8,13,26,27,249
0.14500,-0.01435,-0.03062,0.00000,0.02904,0.97990,-0.17251,0.0,2023,6,8,13,26,27,261
0.14510,-0.15435,0.03937,0.00000,0.03013,0.97795,-0.17300,0.0,2023,6,8,13,26,27,272
0.14520,-0.11935,0.26687,0.00000,0.03026,0.97832,-0.17153,0.0,2023,6,8,13,26,27,283
0.14530,0.07315,-0.08312,0.00000,0.02989,0.97881,-0.17202,0.0,2023,6,8,13,26,27,294
0.14540,-0.03185,0.12688,0.00000,0.02928,0.97929,-0.17385,0.0,2023,6,8,13,26,27,305
0.14550,0.00315,-0.18813,0.00000,0.03221,0.97746,-0.17300,0.0,2023,6,8,13,26,27,316
0.14560,-0.06685,-0.08312,0.00000,0.03026,0.97844,-0.17263,0.0,2023,6,8,13,26,27,327
0.14570,-0.11935,0.05687,0.00000,0.02977,0.97673,-0.17409,0.0,2023,6,8,13,26,27,338
0.14580,0.10815,0.02187,0.00000,0.02891,0.97966,-0.17226,0.0,2023,6,8,13,26,27,349
0.14590,-0.08435,0.09187,0.00000,0.02940,0.97649,-0.17019,0.0,2023,6,8,13,26,27,361
0.14600,0.02065,0.14438,0.00000,0.03001,0.97929,-0.17287,0.0,2023,6,8,13,26,27,372
0.14610,-0.17185,-0.01312,0.00000,0.02977,0.97990,-0.17336,0.0,2023,6,8,13,26,27,383
0.14620,-0.08435,-0.01312,0.00000,0.02977,0.97990,-0.17348,0.0,2023,6,8,13,26,27,394
0.14630,-0.10185,0.07437,0.00000,0.03196,0.97917,-0.17129,0.0,2023,6,8,13,26,27,405
0.14640,0.07315,-0.01312,0.00000,0.02965,0.97722,-0.17117,0.0,2023,6,8,13,26,27,416
0.14650,0.00315,-0.06562,0.00000,0.03001,0.97942,-0.17312,0.0,2023,6,8,13,26,27,427
0.14660,0.02065,0.23187,0.00000,0.03074,0.97856,-0.17239,0.0,2023,6,8,13,26,27,438
0.14670,0.07315,-0.22313,0.00000,0.03038,0.97881,-0.17385,0.0,2023,6,8,13,26,27,449
0.14680,0.03815,0.09187,0.00000,0.03013,0.97881,-0.17275,0.0,2023,6,8,13,26,27,461
0.14690,0.07315,-0.04812,0.00000,0.02904,0.97844,-0.17373,0.0,2023,6,8,13,26,27,472
0.14700,-0.04935,0.03937,0.00000,0.03013,0.97783,-0.17324,0.0,2023,6,8,13,26,27,483
0.14710,0.28315,-0.01312,0.00000,0.02928,0.97807,-0.17422,0.0,2023,6,8,13,26,27,494
0.14720,-0.03185,-0.04812,0.00000,0.02989,0.97661,-0.17092,0.0,2023,6,8,13,26,27,505
0.14730,-0.01435,0.19688,0.00000,0.03074,0.97759,-0.17275,0.0,2023,6,8,13,26,27,516
0.14740,0.10815,0.03937,0.00000,0.03074,0.97698,-0.17385,0.0,2023,6,8,13,26,27,527
0.14750,0.12565,0.09187,0.00000,0.02916,0.97734,-0.17312,0.0,2023,6,8,13,26,27,538
0.14760,-0.03185,-0.04812,0.00000,0.03013,0.97661,-0.17470,0.0,2023,6,8,13,26,27,549
0.14770,-0.01435,0.12688,0.00000,0.03135,0.97795,-0.17373,0.0,2023,6,8,13,26,27,561
0.14780,0.03815,0.10938,0.00000,0.03257,0.97661,-0.17226,0.0,2023,6,8,13,26,27,572
0.14790,-0.11935,0.05687,0.00000,0.03087,0.97661,-0.17239,0.0,2023,6,8,13,26,27,583
0.14800,0.03815,0.21437,0.00000,0.03038,0.97868,-0.17470,0.0,2023,6,8,13,26,27,594
0.14810,0.14315,0.10938,0.00000,0.02977,0.97954,-0.17361,0.0,2023,6,8,13,26,27,605
0.14820,0.10815,0.10938,0.00000,0.02843,0.97746,-0.17251,0.0,2023,6,8,13,26,27,616
0.14830,-0.03185,-0.08312,0.00000,0.02818,0.97990,-0.17544,0.0,2023,6,8,13,26,27,627
0.14840,0.03815,-0.03062,0.00000,0.03050,0.97929,-0.17251,0.0,2023,6,8,13,26,27,638
0.14850,-0.01435,0.09187,0.00000,0.03099,0.97820,-0.17348,0.0,2023,6,8,13,26,27,649
0.14860,0.07315,0.16188,0.00000,0.03099,0.97881,-0.17190,0.0,2023,6,8,13,26,27,661
0.14870,0.26565,-0.25812,0.00000,0.03148,0.97795,-0.17348,0.0,2023,6,8,13,26,27,672
0.14880,0.09065,0.10938,0.00000,0.02916,0.97771,-0.17300,0.0,2023,6,8,13,26,27,683
0.14890,-0.10185,-0.08312,0.00000,0.03087,0.97807,-0.17007,0.0,2023,6,8,13,26,27,694
0.14900,-0.06685,0.05687,0.00000,0.03270,0.97612,-0.17165,0.0,2023,6,8,13,26,27,705
0.14910,-0.17185,0.17938,0.00000,0.02891,0.97929,-0.17129,0.0,2023,6,8,13,26,27,716
0.14920,0.16065,-0.01312,0.00000,0.02940,0.97759,-0.17336,0.0,2023,6,8,13,26,27,727
0.14930,0.09065,0.24937,0.00000,0.03001,0.97698,-0.17544,0.0,2023,6,8,13,26,27,738
0.14940,0.03815,-0.03062,0.00000,0.03245,0.97966,-0.17568,0.0,2023,6,8,13,26,27,749
0.14950,0.09065,0.03937,0.00000,0.03148,0.97771,-0.17190,0.0,2023,6,8,13,26,27,761
0.14960,-0.11935,0.02187,0.00000,0.03233,0.97820,-0.17422,0.0,2023,6,8,13,26,27,772
0.14970,0.14315,-0.06562,0.00000,0.03160,0.97978,-0.17117,0.0,2023,6,8,13,26,27,783
0.14980,-0.03185,0.10938,0.00000,0.03050,0.98088,-0.17531,0.0,2023,6,8,13,26,27,794
0.14990,0.03815,0.19688,0.00000,0.03074,0.97734,-0.17178,0.0,2023,6,8,13,26,27,805
0.15000,0.14315,0.17938,0.00000,0.03038,0.97722,-0.17507,0.0,2023,6,8,13,26,27,816
0.15010,0.03815,0.02187,0.00000,0.03026,0.97698,-0.17409,0.0,2023,6,8,13,26,27,827
0.15020,0.03815,-0.13563,0.00000,0.03026,0.97685,-0.17312,0.0,2023,6,8,13,26,27,838
0.15030,0.03815,0.14438,0.00000,0.03099,0.97771,-0.17324,0.0,2023,6,8,13,26,27,849
0.15040,0.00315,0.10938,0.00000,0.03392,0.97759,-0.17263,0.0,2023,6,8,13,26,27,861
0.15050,0.05565,-0.03062,0.00000,0.03148,0.97917,-0.17544,0.0,2023,6,8,13,26,27,872
0.15060,-0.11935,-0.08312,0.00000,0.03184,0.97807,-0.17287,0.0,2023,6,8,13,26,27,883
0.15070,-0.18935,0.17938,0.00000,0.03001,0.97942,-0.17422,0.0,2023,6,8,13,26,27,894
0.15080,0.12565,-0.13563,0.00000,0.03087,0.97795,-0.17031,0.0,2023,6,8,13,26,27,905
0.15090,-0.15435,0.02187,0.00000,0.02757,0.97868,-0.17446,0.0,2023,6,8,13,26,27,916
0.15100,-0.08435,0.19688,0.00000,0.02952,0.98015,-0.17556,0.0,2023,6,8,13,26,27,927
0.15110,-0.18935,0.21437,0.00000,0.03184,0.97673,-0.17446,0.0,2023,6,8,13,26,27,938
0.15120,-0.04935,0.17938,0.00000,0.02891,0.97734,-0.17336,0.0,2023,6,8,13,26,27,949
0.15130,0.03815,-0.01312,0.00000,0.03209,0.97832,-0.17226,0.0,2023,6,8,13,26,27,961
0.15140,-0.03185,0.07437,0.00000,0.03184,0.97685,-0.17434,0.0,2023,6,8,13,26,27,972
0.15150,0.03815,0.10938,0.00000,0.03233,0.97795,-0.17263,0.0,2023,6,8,13,26,27,983
0.15160,-0.06685,0.02187,0.00000,0.03074,0.97734,-0.17239,0.0,2023,6,8,13,26,28,4
0.15170,-0.10185,0.09187,0.00000,0.02928,0.98222,-0.17336,0.0,2023,6,8,13,26,28,15
0.15180,0.00315,0.12688,0.00000,0.03050,0.97685,-0.17373,0.0,2023,6,8,13,26,28,26
0.15190,0.12565,0.09187,0.00000,0.03233,0.97783,-0.17104,0.0,2023,6,8,13,26,28,37
0.15200,-0.11935,0.09187,0.00000,0.03123,0.97893,-0.17165,0.0,2023,6,8,13,26,28,48
0.15210,0.02065,0.16188,0.00000,0.03148,0.97795,-0.17483,0.0,2023,6,8,13,26,28,59
0.15220,-0.08435,0.00437,0.00000,0.03050,0.97881,-0.17336,0.0,2023,6,8,13,26,28,71
0.15230,0.12565,0.10938,0.00000,0.03013,0.97746,-0.17275,0.0,2023,6,8,13,26,28,82
0.15240,-0.18935,0.05687,0.00000,0.03245,0.97795,-0.17117,0.0,2023,6,8,13,26,28,93
0.15250,0.03815,0.03937,0.00000,0.02916,0.97795,-0.17251,0.0,2023,6,8,13,26,28,104
0.15260,-0.10185,0.07437,0.00000,0.03001,0.97734,-0.17226,0.0,2023,6,8,13,26,28,115
0.15270,0.02065,-0.01312,0.00000,0.03318,0.97649,-0.17275,0.0,2023,6,8,13,26,28,126
0.15280,-0.06685,-0.01312,0.00000,0.03026,0.97893,-0.17361,0.0,2023,6,8,13,26,28,137
0.15290,0.14315,0.09187,0.00000,0.03050,0.97685,-0.17470,0.0,2023,6,8,13,26,28,148
0.15300,0.10815,0.00437,0.00000,0.03050,0.97710,-0.17202,0.0,2023,6,8,13,26,28,159
