#2023/06/08 13:39:09
time,wx,wy,wz,ax,ay,az,yy,MM,dd,hh,mm,ss,ms
1.13610,0.01488,0.24413,0.00000,0.02965,0.97966,-0.17580,0.0,2023,6,8,13,39,10,273
1.13620,0.04988,0.06913,0.00000,0.03026,0.98015,-0.17531,0.0,2023,6,8,13,39,10,284
1.13630,0.04988,-0.22837,0.00000,0.03050,0.97722,-0.17300,0.0,2023,6,8,13,39,10,295
1.13640,0.06738,0.20913,0.00000,0.03172,0.97759,-0.17568,0.0,2023,6,8,13,39,10,306
1.13650,0.13738,-0.19337,0.00000,0.03160,0.97624,-0.17190,0.0,2023,6,8,13,39,10,317
1.13660,0.15488,-0.03587,0.00000,0.03343,0.97881,-0.17348,0.0,2023,6,8,13,39,10,328
1.13670,0.03238,0.01663,0.00000,0.03074,0.98088,-0.17397,0.0,2023,6,8,13,39,10,339
1.13680,0.01488,0.05163,0.00000,0.02916,0.97844,-0.17202,0.0,2023,6,8,13,39,10,350
1.13690,-0.17762,0.05163,0.00000,0.03026,0.97844,-0.17104,0.0,2023,6,8,13,39,10,361
1.13700,0.03238,0.10413,0.00000,0.02977,0.97722,-0.17385,0.0,2023,6,8,13,39,10,373
1.13710,-0.17762,-0.15837,0.00000,0.03099,0.97783,-0.17483,0.0,2023,6,8,13,39,10,384
1.13720,0.01488,0.17413,0.00000,0.03135,0.98149,-0.17226,0.0,2023,6,8,13,39,10,395
1.13730,-0.02012,0.20913,0.00000,0.03123,0.97734,-0.17239,0.0,2023,6,8,13,39,10,406
1.13740,-0.14262,0.06913,0.00000,0.03160,0.97795,-0.17104,0.0,2023,6,8,13,39,10,417
1.13750,0.01488,-0.03587,0.00000,0.03123,0.97771,-0.17324,0.0,2023,6,8,13,39,10,428
1.13760,-0.12512,-0.05337,0.00000,0.02891,0.97698,-0.17470,0.0,2023,6,8,13,39,10,439
1.13770,-0.10762,0.03413,0.00000,0.03160,0.97710,-0.17239,0.0,2023,6,8,13,39,10,450
1.13780,0.18988,0.05163,0.00000,0.03099,0.97759,-0.17239,0.0,2023,6,8,13,39,10,461
1.13790,-0.00262,0.06913,0.00000,0.03148,0.97771,-0.17263,0.0,2023,6,8,13,39,10,473
1.13800,0.11988,-0.07087,0.00000,0.03111,0.98015,-0.17202,0.0,2023,6,8,13,39,10,484
1.13810,-0.14262,-0.08837,0.00000,0.02977,0.97893,-0.17251,0.0,2023,6,8,13,39,10,495
1.13820,-0.02012,0.10413,0.00000,0.03013,0.97942,-0.17446,0.0,2023,6,8,13,39,10,506
1.13830,-0.14262,0.13913,0.00000,0.03001,0.97746,-0.17495,0.0,2023,6,8,13,39,10,517
1.13840,-0.03762,0.08663,0.00000,0.03074,0.97795,-0.17263,0.0,2023,6,8,13,39,10,528
1.13850,-0.12512,0.13913,0.00000,0.03026,0.97893,-0.17287,0.0,2023,6,8,13,39,10,539
1.13860,0.10238,-0.01837,0.00000,0.03074,0.97881,-0.17324,0.0,2023,6,8,13,39,10,550
1.13870,-0.03762,0.06913,0.00000,0.03172,0.97771,-0.17348,0.0,2023,6,8,13,39,10,561
1.13880,-0.05512,0.05163,0.00000,0.02904,0.97661,-0.17178,0.0,2023,6,8,13,39,10,573
1.13890,-0.00262,0.13913,0.00000,0.03062,0.97832,-0.17409,0.0,2023,6,8,13,39,10,584
1.13900,-0.05512,0.13913,0.00000,0.03074,0.97868,-0.17202,0.0,2023,6,8,13,39,10,595
1.13910,0.03238,-0.03587,0.00000,0.03148,0.97868,-0.17409,0.0,2023,6,8,13,39,10,606
1.13920,-0.07262,-0.12337,0.00000,0.03184,0.97881,-0.17226,0.0,2023,6,8,13,39,10,617
1.13930,-0.00262,0.01663,0.00000,0.03087,0.97954,-0.17422,0.0,2023,6,8,13,39,10,628
1.13940,-0.02012,-0.05337,0.00000,0.03209,0.97746,-0.17409,0.0,2023,6,8,13,39,10,639
1.13950,0.10238,-0.00087,0.00000,0.03087,0.97722,-0.17361,0.0,2023,6,8,13,39,10,650
1.13960,-0.12512,0.10413,0.00000,0.02904,0.97698,-0.17287,0.0,2023,6,8,13,39,10,661
1.13970,-0.19512,0.06913,0.00000,0.02977,0.97771,-0.17202,0.0,2023,6,8,13,39,10,673
1.13980,0.01488,0.13913,0.00000,0.03087,0.97807,-0.17190,0.0,2023,6,8,13,39,10,684
1.13990,-0.10762,0.10413,0.00000,0.03087,0.97868,-0.17361,0.0,2023,6,8,13,39,10,695
1.14000,-0.00262,0.10413,0.00000,0.03099,0.97722,-0.17373,0.0,2023,6,8,13,39,10,706
1.14010,-0.07262,0.20913,0.00000,0.03050,0.97807,-0.17629,0.0,2023,6,8,13,39,10,717
1.14020,-0.19512,-0.00087,0.00000,0.03111,0.97844,-0.17324,0.0,2023,6,8,13,39,10,728
1.14030,-0.07262,0.26163,0.00000,0.02904,0.97746,-0.17092,0.0,2023,6,8,13,39,10,739
1.14040,-0.00262,0.15663,0.00000,0.03184,0.97576,-0.17434,0.0,2023,6,8,13,39,10,750
1.14050,-0.09012,0.24413,0.00000,0.03196,0.97710,-0.17544,0.0,2023,6,8,13,39,10,761
1.14060,0.01488,0.10413,0.00000,0.03160,0.97661,-0.17239,0.0,2023,6,8,13,39,10,773
1.14070,-0.09012,0.03413,0.00000,0.02977,0.97795,-0.17300,0.0,2023,6,8,13,39,10,784
1.14080,0.11988,-0.05337,0.00000,0.02928,0.97844,-0.17312,0.0,2023,6,8,13,39,10,795
1.14090,-0.14262,0.01663,0.00000,0.03062,0.97698,-0.17190,0.0,2023,6,8,13,39,10,806
1.14100,0.06738,-0.05337,0.00000,0.03087,0.97807,-0.17336,0.0,2023,6,8,13,39,10,817
1.14110,-0.00262,-0.12337,0.00000,0.03038,0.97966,-0.17056,0.0,2023,6,8,13,39,10,828
1.14120,-0.02012,0.26163,0.00000,0.03135,0.98015,-0.17251,0.0,2023,6,8,13,39,10,839
1.14130,0.22488,-0.15837,0.00000,0.02940,0.97954,-0.17348,0.0,2023,6,8,13,39,10,850
1.14140,0.11988,-0.01837,0.00000,0.03074,0.97795,-0.17275,0.0,2023,6,8,13,39,10,861
1.14150,-0.03762,0.03413,0.00000,0.02916,0.97820,-0.17117,0.0,2023,6,8,13,39,10,873
1.14160,-0.24762,-0.00087,0.00000,0.03111,0.97673,-0.17312,0.0,2023,6,8,13,39,10,884
1.14170,0.03238,-0.14087,0.00000,0.03135,0.97917,-0.17214,0.0,2023,6,8,13,39,10,895
1.14180,-0.10762,0.12163,0.00000,0.03196,0.97746,-0.16982,0.0,2023,6,8,13,39,10,906
1.14190,0.20738,-0.05337,0.00000,0.02940,0.97942,-0.17409,0.0,2023,6,8,13,39,10,917
1.14200,-0.02012,-0.14087,0.00000,0.03209,0.97759,-0.17483,0.0,2023,6,8,13,39,10,928
1.14210,0.08488,0.10413,0.00000,0.02989,0.97771,-0.17495,0.0,2023,6,8,13,39,10,939
1.14220,-0.12512,-0.05337,0.00000,0.03172,0.97856,-0.17080,0.0,2023,6,8,13,39,10,950
1.14230,0.06738,-0.03587,0.00000,0.03172,0.97673,-0.17239,0.0,2023,6,8,13,39,10,961
1.14240,-0.10762,0.15663,0.00000,0.03074,0.97661,-0.17092,0.0,2023,6,8,13,39,10,973
1.14250,-0.05512,-0.03587,0.00000,0.03001,0.97832,-0.17312,0.0,2023,6,8,13,39,10,984
1.14260,-0.23012,-0.03587,0.00000,0.03245,0.97588,-0.17348,0.0,2023,6,8,13,39,11,5
1.14270,0.08488,-0.08837,0.00000,0.03123,0.97637,-0.17226,0.0,2023,6,8,13,39,11,16
1.14280,0.10238,0.13913,0.00000,0.03196,0.98051,-0.17117,0.0,2023,6,8,13,39,11,27
1.14290,-0.12512,0.01663,0.00000,0.02916,0.97771,-0.17422,0.0,2023,6,8,13,39,11,38
1.14300,0.01488,0.15663,0.00000,0.02830,0.97844,-0.17312,0.0,2023,6,8,13,39,11,49
1.14310,-0.09012,0.15663,0.00000,0.03013,0.97746,-0.17214,0.0,2023,6,8,13,39,11,60
1.14320,-0.02012,0.01663,0.00000,0.02916,0.97966,-0.17214,0.0,2023,6,8,13,39,11,71
1.14330,0.11988,0.15663,0.00000,0.03111,0.97820,-0.17263,0.0,2023,6,8,13,39,11,83
1.14340,-0.10762,0.10413,0.00000,0.03038,0.97856,-0.17275,0.0,2023,6,8,13,39,11,94
1.14350,-0.16012,0.08663,0.00000,0.03111,0.97661,-0.17300,0.0,2023,6,8,13,39,11,105
1.14360,0.04988,-0.07087,0.00000,0.02952,0.98003,-0.17409,0.0,2023,6,8,13,39,11,116
1.14370,-0.17762,0.06913,0.00000,0.03026,0.97844,-0.17178,0.0,2023,6,8,13,39,11,127
1.14380,0.13738,-0.00087,0.00000,0.03184,0.97698,-0.17312,0.0,2023,6,8,13,39,11,138
1.14390,-0.09012,0.01663,0.00000,0.02891,0.97905,-0.17312,0.0,2023,6,8,13,39,11,149
1.14400,-0.17762,-0.00087,0.00000,0.03038,0.98039,-0.17385,0.0,2023,6,8,13,39,11,160
1.14410,-0.03762,0.13913,0.00000,0.03111,0.97929,-0.17434,0.0,2023,6,8,13,39,11,171
1.14420,0.17238,-0.10587,0.00000,0.03050,0.98064,-0.17214,0.0,2023,6,8,13,39,11,183
1.14430,-0.02012,-0.01837,0.00000,0.02928,0.97710,-0.17373,0.0,2023,6,8,13,39,11,194
1.14440,-0.14262,-0.03587,0.00000,0.03184,0.97722,-0.17226,0.0,2023,6,8,13,39,11,205
1.14450,0.08488,0.19163,0.00000,0.02928,0.97844,-0.17324,0.0,2023,6,8,13,39,11,216
1.14460,0.11988,-0.00087,0.00000,0.03245,0.97710,-0.17348,0.0,2023,6,8,13,39,11,227
1.14470,0.01488,0.19163,0.00000,0.03111,0.97795,-0.17397,0.0,2023,6,8,13,39,11,238
1.14480,0.01488,-0.07087,0.00000,0.02940,0.97942,-0.17336,0.0,2023,6,8,13,39,11,249
1.14490,-0.05512,0.06913,0.00000,0.02989,0.98039,-0.17470,0.0,2023,6,8,13,39,11,260
1.14500,-0.16012,0.01663,0.00000,0.02830,0.97905,-0.17287,0.0,2023,6,8,13,39,11,271
1.14510,0.01488,-0.08837,0.00000,0.02977,0.97978,-0.17446,0.0,2023,6,8,13,39,11,283
1.14520,-0.02012,-0.01837,0.00000,0.03233,0.97929,-0.17385,0.0,2023,6,8,13,39,11,294
1.14530,0.01488,-0.15837,0.00000,0.03221,0.97807,-0.17409,0.0,2023,6,8,13,39,11,305
1.14540,0.10238,-0.05337,0.00000,0.03160,0.97685,-0.17458,0.0,2023,6,8,13,39,11,316
1.14550,0.03238,-0.07087,0.00000,0.03050,0.97795,-0.17226,0.0,2023,6,8,13,39,11,327
1.14560,0.04988,-0.07087,0.00000,0.03050,0.97746,-0.17092,0.0,2023,6,8,13,39,11,338
1.14570,-0.00262,0.10413,0.00000,0.03160,0.98003,-0.17434,0.0,2023,6,8,13,39,11,349
1.14580,-0.24762,-0.07087,0.00000,0.02952,0.97771,-0.17300,0.0,2023,6,8,13,39,11,360
1.14590,0.06738,-0.00087,0.00000,0.03148,0.97893,-0.17507,0.0,2023,6,8,13,39,11,371
1.14600,-0.23012,0.06913,0.00000,0.03135,0.97881,-0.17361,0.0,2023,6,8,13,39,11,383
1.14610,-0.02012,0.01663,0.00000,0.03270,0.97893,-0.17178,0.0,2023,6,8,13,39,11,394
1.14620,0.08488,-0.12337,0.00000,0.03355,0.97832,-0.17129,0.0,2023,6,8,13,39,11,405
1.14630,-0.00262,-0.07087,0.00000,0.03050,0.97978,-0.17336,0.0,2023,6,8,13,39,11,416
1.14640,0.01488,0.06913,0.00000,0.03050,0.98003,-0.17507,0.0,2023,6,8,13,39,11,427
1.14650,0.06738,-0.01837,0.00000,0.03209,0.98320,-0.17324,0.0,2023,6,8,13,39,11,438
1.14660,-0.05512,0.06913,0.00000,0.02928,0.97722,-0.17446,0.0,2023,6,8,13,39,11,449
1.14670,0.04988,0.08663,0.00000,0.03245,0.97820,-0.17178,0.0,2023,6,8,13,39,11,460
1.14680,0.01488,0.01663,0.00000,0.02733,0.98051,-0.17263,0.0,2023,6,8,13,39,11,471
1.14690,-0.02012,0.01663,0.00000,0.03221,0.97807,-0.17300,0.0,2023,6,8,13,39,11,483
1.14700,0.08488,-0.07087,0.00000,0.03050,0.97868,-0.17373,0.0,2023,6,8,13,39,11,494
1.14710,-0.09012,0.03413,0.00000,0.03026,0.97966,-0.17458,0.0,2023,6,8,13,39,11,505
1.14720,0.01488,0.06913,0.00000,0.02867,0.97734,-0.17544,0.0,2023,6,8,13,39,11,516
1.14730,-0.23012,0.01663,0.00000,0.03111,0.97917,-0.17470,0.0,2023,6,8,13,39,11,527
1.14740,0.08488,-0.15837,0.00000,0.03379,0.97795,-0.17190,0.0,2023,6,8,13,39,11,538
1.14750,-0.00262,0.06913,0.00000,0.03221,0.97661,-0.17458,0.0,2023,6,8,13,39,11,549
1.14760,0.04988,0.10413,0.00000,0.02977,0.97917,-0.17336,0.0,2023,6,8,13,39,11,560
1.14770,0.11988,0.08663,0.00000,0.02891,0.97917,-0.17434,0.0,2023,6,8,13,39,11,571
1.14780,0.06738,-0.07087,0.00000,0.03294,0.97942,-0.17141,0.0,2023,6,8,13,39,11,583
1.14790,-0.00262,0.12163,0.00000,0.02989,0.97929,-0.17446,0.0,2023,6,8,13,39,11,594
1.14800,-0.12512,0.10413,0.00000,0.02904,0.97612,-0.17287,0.0,2023,6,8,13,39,11,605
1.14810,0.18988,-0.05337,0.00000,0.03172,0.97990,-0.16836,0.0,2023,6,8,13,39,11,616
1.14820,-0.14262,0.20913,0.00000,0.03209,0.97685,-0.17202,0.0,2023,6,8,13,39,11,627
1.14830,0.18988,0.31413,0.00000,0.03209,0.97929,-0.17275,0.0,2023,6,8,13,39,11,638
1.14840,-0.14262,0.22663,0.00000,0.03074,0.97685,-0.17300,0.0,2023,6,8,13,39,11,649
1.14850,-0.24762,0.41913,0.00000,0.03013,0.97954,-0.17043,0.0,2023,6,8,13,39,11,660
1.14860,-0.12512,0.12163,0.00000,0.03172,0.97783,-0.17397,0.0,2023,6,8,13,39,11,671
1.14870,-0.16012,0.08663,0.00000,0.02977,0.97856,-0.16970,0.0,2023,6,8,13,39,11,683
1.14880,-0.00262,-0.07087,0.00000,0.03282,0.98015,-0.17239,0.0,2023,6,8,13,39,11,694
1.14890,0.03238,0.06913,0.00000,0.03074,0.97759,-0.17202,0.0,2023,6,8,13,39,11,705
1.14900,0.06738,0.15663,0.00000,0.03184,0.97734,-0.17385,0.0,2023,6,8,13,39,11,716
1.14910,0.06738,0.13913,0.00000,0.03209,0.97807,-0.17434,0.0,2023,6,8,13,39,11,727
1.14920,-0.10762,0.26163,0.00000,0.02928,0.97820,-0.17336,0.0,2023,6,8,13,39,11,738
1.14930,-0.14262,0.12163,0.00000,0.02769,0.97905,-0.17141,0.0,2023,6,8,13,39,11,749
1.14940,0.01488,0.22663,0.00000,0.02952,0.97868,-0.17605,0.0,2023,6,8,13,39,11,760
1.14950,-0.14262,0.08663,0.00000,0.03026,0.97820,-0.17605,0.0,2023,6,8,13,39,11,771
1.14960,-0.16012,0.03413,0.00000,0.03184,0.97759,-0.17580,0.0,2023,6,8,13,39,11,783
1.14970,0.08488,0.03413,0.00000,0.03013,0.97734,-0.17324,0.0,2023,6,8,13,39,11,794
1.14980,-0.09012,0.06913,0.00000,0.02879,0.98088,-0.17568,0.0,2023,6,8,13,39,11,805
1.14990,0.01488,-0.15837,0.00000,0.02952,0.97795,-0.17519,0.0,2023,6,8,13,39,11,816
1.15000,-0.09012,0.13913,0.00000,0.03062,0.97942,-0.17385,0.0,2023,6,8,13,39,11,827
1.15010,-0.03762,0.01663,0.00000,0.03148,0.97722,-0.17275,0.0,2023,6,8,13,39,11,838
1.15020,0.08488,0.05163,0.00000,0.03013,0.97673,-0.17263,0.0,2023,6,8,13,39,11,849
1.15030,-0.07262,0.06913,0.00000,0.03111,0.97868,-0.17519,0.0,2023,6,8,13,39,11,860
1.15040,-0.03762,0.12163,0.00000,0.02769,0.97820,-0.17397,0.0,2023,6,8,13,39,11,871
1.15050,-0.10762,0.05163,0.00000,0.02940,0.97722,-0.17397,0.0,2023,6,8,13,39,11,883
1.15060,0.06738,0.01663,0.00000,0.03038,0.97685,-0.17531,0.0,2023,6,8,13,39,11,894
1.15070,0.01488,0.01663,0.00000,0.03367,0.97978,-0.17483,0.0,2023,6,8,13,39,11,905
1.15080,-0.07262,0.01663,0.00000,0.03111,0.97661,-0.17483,0.0,2023,6,8,13,39,11,916
1.15090,0.06738,-0.03587,0.00000,0.03221,0.97771,-0.17275,0.0,2023,6,8,13,39,11,927
1.15100,0.01488,-0.01837,0.00000,0.03013,0.97820,-0.17385,0.0,2023,6,8,13,39,11,938
1.15110,-0.07262,-0.03587,0.00000,0.02965,0.97820,-0.17361,0.0,2023,6,8,13,39,11,949
1.15120,-0.05512,-0.05337,0.00000,0.03209,0.97832,-0.17385,0.0,2023,6,8,13,39,11,960
1.15130,-0.00262,0.06913,0.00000,0.03184,0.97807,-0.17336,0.0,2023,6,8,13,39,11,971
1.15140,-0.07262,0.15663,0.00000,0.03233,0.97698,-0.17348,0.0,2023,6,8,13,39,11,983
1.15150,-0.00262,0.01663,0.00000,0.02965,0.97710,-0.17397,0.0,2023,6,8,13,39,11,994
1.15160,0.22488,-0.03587,0.00000,0.02977,0.97759,-0.17214,0.0,2023,6,8,13,39,11,5
1.15170,0.08488,0.24413,0.00000,0.03062,0.97624,-0.17226,0.0,2023,6,8,13,39,11,16
1.15180,-0.19512,-0.05337,0.00000,0.03062,0.98064,-0.17251,0.0,2023,6,8,13,39,12,7
1.15190,0.04988,-0.00087,0.00000,0.03245,0.97820,-0.17373,0.0,2023,6,8,13,39,12,18
1.15200,-0.00262,-0.00087,0.00000,0.03026,0.97832,-0.17300,0.0,2023,6,8,13,39,12,29
1.15210,0.10238,-0.03587,0.00000,0.03160,0.97893,-0.17214,0.0,2023,6,8,13,39,12,40
1.15220,0.11988,0.08663,0.00000,0.03233,0.97929,-0.17251,0.0,2023,6,8,13,39,12,51
1.15230,-0.05512,0.01663,0.00000,0.03184,0.97990,-0.17275,0.0,2023,6,8,13,39,12,63
1.15240,0.01488,-0.12337,0.00000,0.03331,0.97929,-0.17324,0.0,2023,6,8,13,39,12,74
1.15250,0.06738,0.10413,0.00000,0.02952,0.97990,-0.17324,0.0,2023,6,8,13,39,12,85
1.15260,0.18988,-0.07087,0.00000,0.03111,0.97771,-0.17324,0.0,2023,6,8,13,39,12,96
1.15270,0.03238,-0.10587,0.00000,0.03038,0.97807,-0.17287,0.0,2023,6,8,13,39,12,107
1.15280,0.10238,-0.05337,0.00000,0.02977,0.97917,-0.17165,0.0,2023,6,8,13,39,12,118
1.15290,-0.16012,-0.07087,0.00000,0.03099,0.97868,-0.17202,0.0,2023,6,8,13,39,12,129
1.15300,0.03238,0.05163,0.00000,0.03270,0.97795,-0.17422,0.0,2023,6,8,13,39,12,140
1.15310,-0.12512,-0.00087,0.00000,0.03294,0.97832,-0.17263,0.0,2023,6,8,13,39,12,151
1.15320,-0.09012,0.08663,0.00000,0.03050,0.98015,-0.17312,0.0,2023,6,8,13,39,12,163
1.15330,-0.10762,-0.05337,0.00000,0.03245,0.97832,-0.17214,0.0,2023,6,8,13,39,12,174
1.15340,0.10238,0.03413,0.00000,0.03111,0.97942,-0.17385,0.0,2023,6,8,13,39,12,185
1.15350,-0.14262,-0.05337,0.00000,0.02977,0.98015,-0.17251,0.0,2023,6,8,13,39,12,196
1.15360,0.24238,0.13913,0.00000,0.02769,0.97929,-0.17324,0.0,2023,6,8,13,39,12,207
1.15370,-0.16012,0.05163,0.00000,0.02855,0.97893,-0.17239,0.0,2023,6,8,13,39,12,218
1.15380,0.04988,-0.07087,0.00000,0.03001,0.97661,-0.17434,0.0,2023,6,8,13,39,12,229
1.15390,-0.09012,0.06913,0.00000,0.02989,0.97990,-0.17446,0.0,2023,6,8,13,39,12,240
1.15400,0.10238,0.20913,0.00000,0.03160,0.98003,-0.17434,0.0,2023,6,8,13,39,12,251
1.15410,0.10238,0.05163,0.00000,0.02904,0.97868,-0.17239,0.0,2023,6,8,13,39,12,263
1.15420,0.06738,-0.07087,0.00000,0.02989,0.97649,-0.17397,0.0,2023,6,8,13,39,12,274
1.15430,0.01488,0.08663,0.00000,0.02904,0.97746,-0.17275,0.0,2023,6,8,13,39,12,285
1.15440,-0.12512,0.29663,0.00000,0.03123,0.98003,-0.17275,0.0,2023,6,8,13,39,12,296
1.15450,0.11988,-0.00087,0.00000,0.03013,0.98039,-0.17409,0.0,2023,6,8,13,39,12,307
1.15460,-0.03762,-0.03587,0.00000,0.02952,0.97917,-0.17373,0.0,2023,6,8,13,39,12,318
1.15470,0.04988,-0.03587,0.00000,0.03123,0.97710,-0.17300,0.0,2023,6,8,13,39,12,329
1.15480,-0.00262,0.15663,0.00000,0.03050,0.97893,-0.17470,0.0,2023,6,8,13,39,12,340
1.15490,-0.10762,-0.03587,0.00000,0.03172,0.97868,-0.17434,0.0,2023,6,8,13,39,12,351
1.15500,-0.14262,0.05163,0.00000,0.03135,0.97746,-0.17361,0.0,2023,6,8,13,39,12,363
1.15510,-0.05512,0.20913,0.00000,0.03099,0.97746,-0.17300,0.0,2023,6,8,13,39,12,374
1.15520,0.04988,0.01663,0.00000,0.03111,0.97612,-0.17324,0.0,2023,6,8,13,39,12,385
1.15530,0.17238,-0.01837,0.00000,0.03221,0.97685,-0.17312,0.0,2023,6,8,13,39,12,396
1.15540,0.06738,-0.05337,0.00000,0.02952,0.98039,-0.17287,0.0,2023,6,8,13,39,12,407
1.15550,0.13738,-0.05337,0.00000,0.02928,0.97868,-0.17385,0.0,2023,6,8,13,39,12,418
1.15560,0.11988,-0.07087,0.00000,0.03099,0.97783,-0.17434,0.0,2023,6,8,13,39,12,429
1.15570,-0.05512,-0.10587,0.00000,0.03294,0.97917,-0.17617,0.0,2023,6,8,13,39,12,440
1.15580,-0.10762,0.19163,0.00000,0.02830,0.97661,-0.17251,0.0,2023,6,8,13,39,12,451
1.15590,-0.09012,0.10413,0.00000,0.02635,0.98003,-0.17263,0.0,2023,6,8,13,39,12,463
1.15600,0.11988,-0.17587,0.00000,0.03026,0.97868,-0.17434,0.0,2023,6,8,13,39,12,474
1.15610,-0.10762,0.03413,0.00000,0.03148,0.97844,-0.17092,0.0,2023,6,8,13,39,12,485
1.15620,0.03238,0.10413,0.00000,0.03013,0.97771,-0.17422,0.0,2023,6,8,13,39,12,496
1.15630,0.01488,0.08663,0.00000,0.03184,0.97832,-0.17434,0.0,2023,6,8,13,39,12,507
1.15640,-0.10762,0.10413,0.00000,0.02965,0.97905,-0.17287,0.0,2023,6,8,13,39,12,518
1.15650,0.15488,-0.05337,0.00000,0.03001,0.97710,-0.17251,0.0,2023,6,8,13,39,12,529
1.15660,-0.09012,0.10413,0.00000,0.03099,0.97661,-0.17031,0.0,2023,6,8,13,39,12,540
1.15670,-0.09012,0.19163,0.00000,0.02916,0.97881,-0.17251,0.0,2023,6,8,13,39,12,551
1.15680,-0.12512,0.17413,0.00000,0.02989,0.97673,-0.17202,0.0,2023,6,8,13,39,12,563
1.15690,-0.00262,0.24413,0.00000,0.03148,0.97759,-0.17470,0.0,2023,6,8,13,39,12,574
1.15700,0.03238,-0.12337,0.00000,0.03013,0.98088,-0.17397,0.0,2023,6,8,13,39,12,585
1.15710,0.06738,-0.08837,0.00000,0.03111,0.97698,-0.17214,0.0,2023,6,8,13,39,12,596
1.15720,-0.09012,-0.10587,0.00000,0.03074,0.97893,-0.17202,0.0,2023,6,8,13,39,12,607
1.15730,-0.14262,0.08663,0.00000,0.03038,0.97868,-0.17129,0.0,2023,6,8,13,39,12,618
1.15740,-0.05512,0.10413,0.00000,0.02989,0.97881,-0.17519,0.0,2023,6,8,13,39,12,629
1.15750,0.11988,-0.10587,0.00000,0.03123,0.97746,-0.17300,0.0,2023,6,8,13,39,12,640
1.15760,-0.09012,-0.07087,0.00000,0.03233,0.97612,-0.17336,0.0,2023,6,8,13,39,12,651
1.15770,0.11988,-0.19337,0.00000,0.03209,0.97942,-0.17336,0.0,2023,6,8,13,39,12,663
1.15780,0.01488,0.10413,0.00000,0.03050,0.97929,-0.17409,0.0,2023,6,8,13,39,12,674
1.15790,-0.07262,-0.31587,0.00000,0.03135,0.97673,-0.17178,0.0,2023,6,8,13,39,12,685
1.15800,0.10238,-0.05337,0.00000,0.03013,0.97612,-0.17312,0.0,2023,6,8,13,39,12,696
1.15810,-0.00262,0.03413,0.00000,0.03233,0.97746,-0.17373,0.0,2023,6,8,13,39,12,707
1.15820,-0.17762,-0.10587,0.00000,0.03111,0.97795,-0.17056,0.0,2023,6,8,13,39,12,718
1.15830,0.03238,0.05163,0.00000,0.03074,0.97844,-0.17153,0.0,2023,6,8,13,39,12,729
1.15840,0.01488,0.22663,0.00000,0.02928,0.97710,-0.17275,0.0,2023,6,8,13,39,12,740
1.15850,-0.03762,-0.10587,0.00000,0.02952,0.97771,-0.17226,0.0,2023,6,8,13,39,12,751
1.15860,0.13738,0.03413,0.00000,0.03087,0.97868,-0.17544,0.0,2023,6,8,13,39,12,763
1.15870,-0.03762,0.08663,0.00000,0.02904,0.97893,-0.17178,0.0,2023,6,8,13,39,12,774
1.15880,0.10238,-0.05337,0.00000,0.02989,0.97710,-0.17470,0.0,2023,6,8,13,39,12,785
1.15890,-0.03762,-0.21087,0.00000,0.03135,0.97759,-0.17324,0.0,2023,6,8,13,39,12,796
1.15900,0.01488,-0.00087,0.00000,0.02977,0.97673,-0.17190,0.0,2023,6,8,13,39,12,807
1.15910,-0.05512,-0.01837,0.00000,0.02928,0.97917,-0.17239,0.0,2023,6,8,13,39,12,818
1.15920,-0.12512,0.03413,0.00000,0.03184,0.98112,-0.17312,0.0,2023,6,8,13,39,12,829
1.15930,-0.02012,0.13913,0.00000,0.02879,0.98100,-0.17324,0.0,2023,6,8,13,39,12,840
1.15940,0.10238,-0.03587,0.00000,0.03013,0.97844,-0.17287,0.0,2023,6,8,13,39,12,851
1.15950,-0.03762,-0.01837,0.00000,0.03074,0.97820,-0.17495,0.0,2023,6,8,13,39,12,863
1.15960,0.11988,0.15663,0.00000,0.03111,0.97893,-0.17312,0.0,2023,6,8,13,39,12,874
1.15970,-0.10762,-0.12337,0.00000,0.02891,0.97527,-0.17324,0.0,2023,6,8,13,39,12,885
1.15980,-0.09012,0.06913,0.00000,0.02977,0.97685,-0.17275,0.0,2023,6,8,13,39,12,896
1.15990,-0.07262,-0.00087,0.00000,0.02989,0.97612,-0.17568,0.0,2023,6,8,13,39,12,907
1.16000,-0.02012,0.05163,0.00000,0.02989,0.97612,-0.17141,0.0,2023,6,8,13,39,12,918
1.16010,0.24238,-0.19337,0.00000,0.03123,0.97966,-0.17336,0.0,2023,6,8,13,39,12,929
1.16020,-0.10762,0.01663,0.00000,0.03074,0.97856,-0.17251,0.0,2023,6,8,13,39,12,940
1.16030,-0.02012,-0.05337,0.00000,0.02806,0.97990,-0.17153,0.0,2023,6,8,13,39,12,951
1.16040,0.04988,-0.03587,0.00000,0.02952,0.97917,-0.17592,0.0,2023,6,8,13,39,12,963
1.16050,-0.05512,-0.05337,0.00000,0.03074,0.97746,-0.17263,0.0,2023,6,8,13,39,12,974
1.16060,0.01488,-0.05337,0.00000,0.02965,0.98027,-0.17385,0.0,2023,6,8,13,39,12,985
1.16070,-0.02012,-0.00087,0.00000,0.03099,0.98064,-0.17324,0.0,2023,6,8,13,39,12,996
1.16080,0.15488,0.08663,0.00000,0.02904,0.97649,-0.17409,0.0,2023,6,8,13,39,13,7
1.16090,0.04988,0.12163,0.00000,0.02867,0.97807,-0.17214,0.0,2023,6,8,13,39,13,18
1.16100,-0.12512,-0.00087,0.00000,0.02916,0.97905,-0.17275,0.0,2023,6,8,13,39,13,29
1.16110,-0.10762,-0.00087,0.00000,0.03148,0.97637,-0.17434,0.0,2023,6,8,13,39,13,40
1.16120,-0.02012,-0.00087,0.00000,0.02867,0.97844,-0.17068,0.0,2023,6,8,13,39,13,51
1.16130,-0.03762,-0.03587,0.00000,0.03209,0.97624,-0.17287,0.0,2023,6,8,13,39,13,63
1.16140,0.22488,-0.22837,0.00000,0.03123,0.97917,-0.17300,0.0,2023,6,8,13,39,13,74
1.16150,-0.10762,0.19163,0.00000,0.03318,0.97905,-0.17385,0.0,2023,6,8,13,39,13,85
1.16160,-0.10762,-0.21087,0.00000,0.02867,0.97881,-0.17775,0.0,2023,6,8,13,39,13,96
1.16170,0.06738,0.13913,0.00000,0.03013,0.97759,-0.17422,0.0,2023,6,8,13,39,13,107
1.16180,-0.10762,0.10413,0.00000,0.02904,0.97942,-0.17422,0.0,2023,6,8,13,39,13,118
1.16190,0.01488,-0.07087,0.00000,0.03001,0.97905,-0.17483,0.0,2023,6,8,13,39,13,129
1.16200,0.11988,-0.14087,0.00000,0.02928,0.97905,-0.17263,0.0,2023,6,8,13,39,13,140
1.16210,0.10238,-0.17587,0.00000,0.03074,0.98003,-0.17348,0.0,2023,6,8,13,39,13,151
1.16220,-0.02012,-0.01837,0.00000,0.03050,0.97771,-0.17153,0.0,2023,6,8,13,39,13,163
1.16230,0.01488,0.05163,0.00000,0.03038,0.97942,-0.17361,0.0,2023,6,8,13,39,13,174
1.16240,-0.10762,-0.12337,0.00000,0.03111,0.97734,-0.17251,0.0,2023,6,8,13,39,13,185
1.16250,0.04988,0.10413,0.00000,0.03209,0.97746,-0.17153,0.0,2023,6,8,13,39,13,196
1.16260,-0.19512,0.05163,0.00000,0.03050,0.97832,-0.17495,0.0,2023,6,8,13,39,13,207
1.16270,-0.07262,0.12163,0.00000,0.03087,0.97698,-0.17483,0.0,2023,6,8,13,39,13,218
1.16280,-0.09012,0.12163,0.00000,0.02952,0.97929,-0.17165,0.0,2023,6,8,13,39,13,229
1.16290,-0.19512,0.15663,0.00000,0.02916,0.98198,-0.17104,0.0,2023,6,8,13,39,13,240
1.16300,0.04988,-0.15837,0.00000,0.02952,0.97844,-0.17251,0.0,2023,6,8,13,39,13,251
1.16310,0.18988,0.06913,0.00000,0.03087,0.97673,-0.17056,0.0,2023,6,8,13,39,13,263
1.16320,-0.02012,0.10413,0.00000,0.03038,0.98027,-0.17422,0.0,2023,6,8,13,39,13,274
1.16330,0.08488,-0.14087,0.00000,0.03233,0.97734,-0.17580,0.0,2023,6,8,13,39,13,285
1.16340,-0.05512,-0.00087,0.00000,0.03160,0.97734,-0.17300,0.0,2023,6,8,13,39,13,296
1.16350,0.08488,0.01663,0.00000,0.02733,0.97832,-0.17214,0.0,2023,6,8,13,39,13,307
1.16360,-0.10762,-0.15837,0.00000,0.03184,0.97624,-0.17385,0.0,2023,6,8,13,39,13,318
1.16370,0.08488,-0.22837,0.00000,0.03221,0.98039,-0.17141,0.0,2023,6,8,13,39,13,329
1.16380,-0.14262,0.15663,0.00000,0.03074,0.97722,-0.17165,0.0,2023,6,8,13,39,13,340
1.16390,0.01488,-0.03587,0.00000,0.03111,0.97978,-0.17348,0.0,2023,6,8,13,39,13,351
1.16400,0.08488,-0.07087,0.00000,0.02769,0.97929,-0.17263,0.0,2023,6,8,13,39,13,363
1.16410,-0.03762,-0.01837,0.00000,0.03062,0.97917,-0.17458,0.0,2023,6,8,13,39,13,374
1.16420,-0.26512,-0.03587,0.00000,0.03160,0.97929,-0.17153,0.0,2023,6,8,13,39,13,385
1.16430,-0.23012,0.12163,0.00000,0.02843,0.97795,-0.17287,0.0,2023,6,8,13,39,13,396
1.16440,-0.07262,0.01663,0.00000,0.03099,0.97649,-0.17287,0.0,2023,6,8,13,39,13,407
1.16450,-0.00262,0.03413,0.00000,0.03123,0.97868,-0.17202,0.0,2023,6,8,13,39,13,418
1.16460,0.13738,-0.05337,0.00000,0.03074,0.98125,-0.17226,0.0,2023,6,8,13,39,13,429
1.16470,-0.10762,-0.12337,0.00000,0.03123,0.98027,-0.17397,0.0,2023,6,8,13,39,13,440
1.16480,0.01488,-0.08837,0.00000,0.02952,0.98064,-0.17446,0.0,2023,6,8,13,39,13,451
1.16490,-0.03762,0.10413,0.00000,0.03148,0.97844,-0.17226,0.0,2023,6,8,13,39,13,463
1.16500,0.04988,-0.33337,0.00000,0.02940,0.98039,-0.17153,0.0,2023,6,8,13,39,13,474
1.16510,0.03238,-0.05337,0.00000,0.03135,0.97917,-0.17129,0.0,2023,6,8,13,39,13,485
1.16520,-0.02012,-0.01837,0.00000,0.03013,0.97795,-0.17287,0.0,2023,6,8,13,39,13,496
1.16530,-0.03762,0.15663,0.00000,0.03196,0.97893,-0.17446,0.0,2023,6,8,13,39,13,507
1.16540,0.01488,0.06913,0.00000,0.03355,0.97856,-0.17263,0.0,2023,6,8,13,39,13,518
1.16550,0.20738,-0.01837,0.00000,0.03050,0.98100,-0.17324,0.0,2023,6,8,13,39,13,529
1.16560,0.04988,-0.12337,0.00000,0.02891,0.97795,-0.16982,0.0,2023,6,8,13,39,13,540
1.16570,0.04988,-0.01837,0.00000,0.03013,0.97978,-0.17263,0.0,2023,6,8,13,39,13,551
1.16580,-0.02012,0.15663,0.00000,0.02952,0.97807,-0.17153,0.0,2023,6,8,13,39,13,563
1.16590,0.01488,0.05163,0.00000,0.03062,0.97832,-0.17165,0.0,2023,6,8,13,39,13,574
1.16600,-0.07262,-0.08837,0.00000,0.02977,0.97612,-0.17300,0.0,2023,6,8,13,39,13,585
1.16610,0.17238,0.12163,0.00000,0.03087,0.97978,-0.17263,0.0,2023,6,8,13,39,13,596
1.16620,-0.07262,0.08663,0.00000,0.03062,0.97722,-0.17312,0.0,2023,6,8,13,39,13,607
1.16630,0.08488,0.15663,0.00000,0.02952,0.97917,-0.17104,0.0,2023,6,8,13,39,13,618
1.16640,-0.12512,-0.01837,0.00000,0.03013,0.97722,-0.17117,0.0,2023,6,8,13,39,13,629
1.16650,-0.03762,-0.03587,0.00000,0.03111,0.97710,-0.17312,0.0,2023,6,8,13,39,13,640
1.16660,0.08488,0.12163,0.00000,0.03343,0.97917,-0.17483,0.0,2023,6,8,13,39,13,651
1.16670,-0.10762,-0.00087,0.00000,0.03099,0.97698,-0.17251,0.0,2023,6,8,13,39,13,663
1.16680,-0.02012,0.03413,0.00000,0.02916,0.97942,-0.17507,0.0,2023,6,8,13,39,13,674
1.16690,-0.03762,-0.14087,0.00000,0.03257,0.97661,-0.17385,0.0,2023,6,8,13,39,13,685
1.16700,0.04988,-0.12337,0.00000,0.02952,0.97673,-0.17239,0.0,2023,6,8,13,39,13,696
1.16710,-0.14262,-0.05337,0.00000,0.02940,0.97917,-0.17287,0.0,2023,6,8,13,39,13,707
1.16720,0.15488,-0.03587,0.00000,0.02928,0.98051,-0.17190,0.0,2023,6,8,13,39,13,718
1.16730,0.01488,-0.01837,0.00000,0.03062,0.97807,-0.17287,0.0,2023,6,8,13,39,13,729
1.16740,0.03238,0.01663,0.00000,0.03221,0.97856,-0.17324,0.0,2023,6,8,13,39,13,740
1.16750,-0.05512,0.15663,0.00000,0.03013,0.97893,-0.17507,0.0,2023,6,8,13,39,13,751
1.16760,-0.17762,0.19163,0.00000,0.02843,0.97868,-0.17324,0.0,2023,6,8,13,39,13,763
1.16770,0.11988,-0.28087,0.00000,0.02916,0.97759,-0.16995,0.0,2023,6,8,13,39,13,774
1.16780,-0.03762,-0.05337,0.00000,0.02806,0.97661,-0.17263,0.0,2023,6,8,13,39,13,785
1.16790,0.08488,-0.29837,0.00000,0.03160,0.97832,-0.17300,0.0,2023,6,8,13,39,13,796
1.16800,-0.17762,0.15663,0.00000,0.02977,0.97759,-0.17190,0.0,2023,6,8,13,39,13,807
1.16810,-0.10762,0.08663,0.00000,0.03013,0.97942,-0.17531,0.0,2023,6,8,13,39,13,818
1.16820,0.03238,-0.19337,0.00000,0.02952,0.97710,-0.17226,0.0,2023,6,8,13,39,13,829
1.16830,0.06738,0.05163,0.00000,0.02843,0.97868,-0.17226,0.0,2023,6,8,13,39,13,840
1.16840,0.10238,-0.05337,0.00000,0.02879,0.97807,-0.17287,0.0,2023,6,8,13,39,13,851
1.16850,0.25988,-0.17587,0.00000,0.02904,0.97807,-0.17104,0.0,2023,6,8,13,39,13,863
1.16860,-0.03762,-0.03587,0.00000,0.03184,0.97868,-0.17251,0.0,2023,6,8,13,39,13,874
1.16870,-0.07262,0.05163,0.00000,0.03135,0.97844,-0.17287,0.0,2023,6,8,13,39,13,885
1.16880,-0.14262,-0.00087,0.00000,0.03160,0.97832,-0.17324,0.0,2023,6,8,13,39,13,896
1.16890,0.01488,-0.01837,0.00000,0.02928,0.97868,-0.17178,0.0,2023,6,8,13,39,13,907
1.16900,-0.14262,0.17413,0.00000,0.03074,0.97881,-0.17129,0.0,2023,6,8,13,39,13,918
1.16910,-0.17762,0.24413,0.00000,0.02965,0.97722,-0.17178,0.0,2023,6,8,13,39,13,929
1.16920,-0.05512,0.10413,0.00000,0.03148,0.97600,-0.16934,0.0,2023,6,8,13,39,13,940
1.16930,0.13738,-0.01837,0.00000,0.03026,0.97868,-0.17519,0.0,2023,6,8,13,39,13,951
1.16940,-0.02012,0.10413,0.00000,0.03270,0.97795,-0.17239,0.0,2023,6,8,13,39,13,963
1.16950,-0.02012,-0.00087,0.00000,0.03184,0.97807,-0.17519,0.0,2023,6,8,13,39,13,974
1.16960,0.17238,0.06913,0.00000,0.03209,0.97978,-0.17287,0.0,2023,6,8,13,39,13,985
1.16970,-0.03762,-0.08837,0.00000,0.03172,0.98100,-0.17336,0.0,2023,6,8,13,39,13,996
1.16980,-0.05512,0.01663,0.00000,0.03001,0.97661,-0.17483,0.0,2023,6,8,13,39,14,7
1.16990,0.08488,0.06913,0.00000,0.03013,0.97954,-0.17483,0.0,2023,6,8,13,39,14,18
1.17000,0.11988,-0.21087,0.00000,0.03050,0.97844,-0.17263,0.0,2023,6,8,13,39,14,29
1.17010,0.01488,0.05163,0.00000,0.03123,0.97807,-0.17165,0.0,2023,6,8,13,39,14,40
1.17020,0.11988,-0.07087,0.00000,0.03318,0.97820,-0.17226,0.0,2023,6,8,13,39,14,51
1.17030,0.03238,0.17413,0.00000,0.03257,0.97698,-0.17165,0.0,2023,6,8,13,39,14,63
1.17040,0.08488,0.19163,0.00000,0.03123,0.97783,-0.17300,0.0,2023,6,8,13,39,14,74
1.17050,0.08488,-0.24587,0.00000,0.02989,0.97942,-0.17239,0.0,2023,6,8,13,39,14,85
1.17060,0.03238,0.10413,0.00000,0.03160,0.98125,-0.17348,0.0,2023,6,8,13,39,14,96
1.17070,-0.05512,-0.10587,0.00000,0.03123,0.97856,-0.17202,0.0,2023,6,8,13,39,14,107
1.17080,-0.02012,0.08663,0.00000,0.02830,0.97881,-0.17251,0.0,2023,6,8,13,39,14,118
1.17090,-0.10762,0.10413,0.00000,0.02867,0.97783,-0.17251,0.0,2023,6,8,13,39,14,129
1.17100,-0.00262,0.01663,0.00000,0.03160,0.97868,-0.17263,0.0,2023,6,8,13,39,14,140
1.17110,-0.10762,-0.12337,0.00000,0.03123,0.97820,-0.17226,0.0,2023,6,8,13,39,14,151
1.17120,-0.02012,0.24413,0.00000,0.03111,0.97929,-0.17129,0.0,2023,6,8,13,39,14,163
1.17130,-0.03762,-0.05337,0.00000,0.03087,0.97856,-0.17373,0.0,2023,6,8,13,39,14,174
1.17140,0.01488,-0.00087,0.00000,0.02940,0.97990,-0.17361,0.0,2023,6,8,13,39,14,185
1.17150,0.06738,0.10413,0.00000,0.03099,0.97832,-0.17434,0.0,2023,6,8,13,39,14,196
1.17160,-0.03762,0.13913,0.00000,0.03209,0.97685,-0.17226,0.0,2023,6,8,13,39,14,207
1.17170,0.06738,0.03413,0.00000,0.03233,0.97905,-0.17263,0.0,2023,6,8,13,39,14,218
1.17180,0.03238,-0.00087,0.00000,0.02989,0.97929,-0.17336,0.0,2023,6,8,13,39,14,229
1.17190,0.15488,-0.24587,0.00000,0.03087,0.97807,-0.17458,0.0,2023,6,8,13,39,14,240
1.17200,-0.12512,-0.15837,0.00000,0.03062,0.97820,-0.17422,0.0,2023,6,8,13,39,14,251
1.17210,-0.23012,-0.01837,0.00000,0.02977,0.97990,-0.17251,0.0,2023,6,8,13,39,14,263
1.17220,-0.03762,-0.07087,0.00000,0.03062,0.97783,-0.17312,0.0,2023,6,8,13,39,14,274
1.17230,-0.03762,-0.14087,0.00000,0.03026,0.97844,-0.17348,0.0,2023,6,8,13,39,14,285
1.17240,-0.10762,0.05163,0.00000,0.03062,0.97844,-0.17422,0.0,2023,6,8,13,39,14,296
1.17250,-0.05512,0.12163,0.00000,0.03074,0.97820,-0.17336,0.0,2023,6,8,13,39,14,307
1.17260,-0.17762,0.01663,0.00000,0.02916,0.97856,-0.17239,0.0,2023,6,8,13,39,14,318
1.17270,0.15488,-0.00087,0.00000,0.03196,0.97893,-0.17141,0.0,2023,6,8,13,39,14,329
1.17280,-0.02012,-0.01837,0.00000,0.03172,0.97832,-0.17239,0.0,2023,6,8,13,39,14,340
1.17290,0.03238,-0.08837,0.00000,0.03270,0.97563,-0.17068,0.0,2023,6,8,13,39,14,351
1.17300,-0.17762,-0.19337,0.00000,0.02965,0.97856,-0.17275,0.0,2023,6,8,13,39,14,363
1.17310,0.10238,0.10413,0.00000,0.02977,0.97868,-0.17336,0.0,2023,6,8,13,39,14,374
1.17320,0.15488,-0.10587,0.00000,0.03196,0.97868,-0.17373,0.0,2023,6,8,13,39,14,385
1.17330,-0.05512,-0.00087,0.00000,0.03013,0.97807,-0.17263,0.0,2023,6,8,13,39,14,396
1.17340,0.11988,-0.19337,0.00000,0.03062,0.97893,-0.17348,0.0,2023,6,8,13,39,14,407
1.17350,0.08488,-0.01837,0.00000,0.03013,0.98003,-0.17336,0.0,2023,6,8,13,39,14,418
1.17360,-0.10762,0.06913,0.00000,0.02940,0.97820,-0.17214,0.0,2023,6,8,13,39,14,429
1.17370,-0.07262,0.06913,0.00000,0.03013,0.97893,-0.17056,0.0,2023,6,8,13,39,14,440
1.17380,-0.09012,0.01663,0.00000,0.03087,0.97905,-0.17434,0.0,2023,6,8,13,39,14,451
1.17390,0.06738,0.05163,0.00000,0.03355,0.97783,-0.17263,0.0,2023,6,8,13,39,14,463
1.17400,-0.00262,-0.07087,0.00000,0.02928,0.98003,-0.17312,0.0,2023,6,8,13,39,14,474
1.17410,-0.05512,0.12163,0.00000,0.03123,0.97807,-0.17324,0.0,2023,6,8,13,39,14,485
1.17420,0.03238,0.05163,0.00000,0.03013,0.97929,-0.17056,0.0,2023,6,8,13,39,14,496
1.17430,-0.10762,0.03413,0.00000,0.02977,0.97722,-0.17409,0.0,2023,6,8,13,39,14,507
1.17440,0.17238,-0.17587,0.00000,0.02977,0.97746,-0.17068,0.0,2023,6,8,13,39,14,518
1.17450,-0.07262,0.10413,0.00000,0.02989,0.97868,-0.17361,0.0,2023,6,8,13,39,14,529
1.17460,-0.16012,0.08663,0.00000,0.03270,0.97771,-0.17178,0.0,2023,6,8,13,39,14,540
1.17470,0.06738,-0.00087,0.00000,0.02904,0.98003,-0.17275,0.0,2023,6,8,13,39,14,551
1.17480,0.17238,-0.03587,0.00000,0.03123,0.97795,-0.17287,0.0,2023,6,8,13,39,14,563
1.17490,0.10238,-0.15837,0.00000,0.03233,0.97893,-0.17348,0.0,2023,6,8,13,39,14,574
1.17500,-0.05512,0.03413,0.00000,0.03001,0.97820,-0.17202,0.0,2023,6,8,13,39,14,585
1.17510,0.06738,-0.10587,0.00000,0.02830,0.97844,-0.17226,0.0,2023,6,8,13,39,14,596
1.17520,-0.23012,-0.05337,0.00000,0.03123,0.97661,-0.17190,0.0,2023,6,8,13,39,14,607
1.17530,-0.07262,0.03413,0.00000,0.02940,0.97746,-0.17239,0.0,2023,6,8,13,39,14,618
1.17540,0.11988,0.03413,0.00000,0.03135,0.97649,-0.17361,0.0,2023,6,8,13,39,14,629
1.17550,-0.12512,0.01663,0.00000,0.03087,0.97917,-0.17031,0.0,2023,6,8,13,39,14,640
1.17560,0.24238,0.03413,0.00000,0.03087,0.97844,-0.17373,0.0,2023,6,8,13,39,14,651
1.17570,-0.03762,-0.00087,0.00000,0.03087,0.97942,-0.17202,0.0,2023,6,8,13,39,14,663
1.17580,0.06738,-0.21087,0.00000,0.03184,0.97734,-0.17300,0.0,2023,6,8,13,39,14,674
1.17590,0.06738,-0.03587,0.00000,0.02965,0.97893,-0.17019,0.0,2023,6,8,13,39,14,685
1.17600,-0.05512,0.06913,0.00000,0.02965,0.97929,-0.17263,0.0,2023,6,8,13,39,14,696
1.17610,-0.12512,0.08663,0.00000,0.03050,0.97661,-0.17348,0.0,2023,6,8,13,39,14,707
1.17620,0.06738,-0.10587,0.00000,0.03209,0.97893,-0.17239,0.0,2023,6,8,13,39,14,718
1.17630,0.11988,0.17413,0.00000,0.03184,0.97844,-0.17458,0.0,2023,6,8,13,39,14,729
1.17640,0.10238,0.03413,0.00000,0.03123,0.97746,-0.17409,0.0,2023,6,8,13,39,14,740
1.17650,-0.10762,0.08663,0.00000,0.03135,0.97746,-0.17300,0.0,2023,6,8,13,39,14,751
1.17660,0.24238,0.01663,0.00000,0.03099,0.97929,-0.17104,0.0,2023,6,8,13,39,14,763
1.17670,-0.19512,-0.29837,0.00000,0.03099,0.97649,-0.17385,0.0,2023,6,8,13,39,14,774
1.17680,0.01488,0.03413,0.00000,0.03123,0.97868,-0.17239,0.0,2023,6,8,13,39,14,785
1.17690,-0.14262,0.22663,0.00000,0.03001,0.97783,-0.17239,0.0,2023,6,8,13,39,14,796
1.17700,-0.09012,0.05163,0.00000,0.03087,0.97649,-0.17336,0.0,2023,6,8,13,39,14,807
1.17710,-0.23012,0.22663,0.00000,0.03111,0.97893,-0.17458,0.0,2023,6,8,13,39,14,818
1.17720,-0.00262,-0.01837,0.00000,0.03135,0.97746,-0.17275,0.0,2023,6,8,13,39,14,829
1.17730,0.01488,-0.07087,0.00000,0.03196,0.97856,-0.17312,0.0,2023,6,8,13,39,14,840
1.17740,0.04988,-0.01837,0.00000,0.03074,0.97807,-0.17446,0.0,2023,6,8,13,39,14,851
1.17750,0.06738,0.01663,0.00000,0.03074,0.97734,-0.17226,0.0,2023,6,8,13,39,14,863
1.17760,0.13738,0.06913,0.00000,0.03270,0.97917,-0.17092,0.0,2023,6,8,13,39,14,874
1.17770,0.03238,0.12163,0.00000,0.03270,0.97624,-0.17422,0.0,2023,6,8,13,39,14,885
1.17780,-0.10762,-0.14087,0.00000,0.02952,0.97783,-0.17397,0.0,2023,6,8,13,39,14,896
1.17790,0.08488,0.20913,0.00000,0.02733,0.97673,-0.17178,0.0,2023,6,8,13,39,14,907
1.17800,-0.10762,-0.15837,0.00000,0.02916,0.97795,-0.17287,0.0,2023,6,8,13,39,14,918
1.17810,-0.03762,0.20913,0.00000,0.02952,0.97917,-0.17287,0.0,2023,6,8,13,39,14,929
1.17820,-0.21262,0.22663,0.00000,0.03074,0.97710,-0.17409,0.0,2023,6,8,13,39,14,940
1.17830,0.06738,-0.17587,0.00000,0.03196,0.97954,-0.17312,0.0,2023,6,8,13,39,14,951
1.17840,0.04988,0.05163,0.00000,0.03148,0.97990,-0.17373,0.0,2023,6,8,13,39,14,963
1.17850,0.08488,-0.08837,0.00000,0.03257,0.97807,-0.17348,0.0,2023,6,8,13,39,14,974
1.17860,0.06738,0.12163,0.00000,0.03038,0.97746,-0.17324,0.0,2023,6,8,13,39,14,985
1.17870,-0.07262,-0.01837,0.00000,0.03135,0.97905,-0.17153,0.0,2023,6,8,13,39,15,6
1.17880,-0.09012,0.03413,0.00000,0.02965,0.97771,-0.17251,0.0,2023,6,8,13,39,15,17
1.17890,-0.05512,0.05163,0.00000,0.03013,0.97795,-0.17287,0.0,2023,6,8,13,39,15,28
1.17900,0.01488,0.05163,0.00000,0.03196,0.97820,-0.17348,0.0,2023,6,8,13,39,15,39
1.17910,-0.07262,0.12163,0.00000,0.03111,0.97698,-0.17300,0.0,2023,6,8,13,39,15,50
1.17920,-0.12512,-0.00087,0.00000,0.03087,0.97820,-0.17226,0.0,2023,6,8,13,39,15,61
1.17930,-0.05512,0.12163,0.00000,0.03282,0.97795,-0.17165,0.0,2023,6,8,13,39,15,73
1.17940,0.03238,0.06913,0.00000,0.02855,0.98076,-0.17458,0.0,2023,6,8,13,39,15,84
1.17950,-0.02012,-0.15837,0.00000,0.03038,0.97698,-0.17226,0.0,2023,6,8,13,39,15,95
1.17960,0.04988,0.15663,0.00000,0.03050,0.97856,-0.17385,0.0,2023,6,8,13,39,15,106
1.17970,0.04988,0.01663,0.00000,0.03074,0.97759,-0.17361,0.0,2023,6,8,13,39,15,117
1.17980,-0.02012,0.10413,0.00000,0.03013,0.97820,-0.17153,0.0,2023,6,8,13,39,15,128
1.17990,-0.19512,-0.03587,0.00000,0.02904,0.97746,-0.17226,0.0,2023,6,8,13,39,15,139
1.18000,-0.09012,0.03413,0.00000,0.03123,0.97759,-0.17190,0.0,2023,6,8,13,39,15,150
1.18010,-0.09012,-0.01837,0.00000,0.03062,0.97673,-0.17385,0.0,2023,6,8,13,39,15,161
1.18020,0.06738,0.20913,0.00000,0.03355,0.97844,-0.17312,0.0,2023,6,8,13,39,15,173
1.18030,0.10238,-0.07087,0.00000,0.03172,0.97942,-0.17373,0.0,2023,6,8,13,39,15,184
1.18040,-0.23012,0.10413,0.00000,0.03135,0.97807,-0.17226,0.0,2023,6,8,13,39,15,195
1.18050,0.03238,-0.00087,0.00000,0.03111,0.97881,-0.17226,0.0,2023,6,8,13,39,15,206
1.18060,0.11988,-0.03587,0.00000,0.03172,0.97734,-0.17287,0.0,2023,6,8,13,39,15,217
1.18070,-0.03762,-0.05337,0.00000,0.03038,0.97576,-0.17544,0.0,2023,6,8,13,39,15,228
1.18080,-0.07262,-0.10587,0.00000,0.02818,0.97807,-0.17202,0.0,2023,6,8,13,39,15,239
1.18090,0.01488,0.15663,0.00000,0.03026,0.97966,-0.17043,0.0,2023,6,8,13,39,15,250
1.18100,0.10238,0.05163,0.00000,0.03050,0.97649,-0.17287,0.0,2023,6,8,13,39,15,261
1.18110,0.04988,0.12163,0.00000,0.03038,0.97734,-0.17117,0.0,2023,6,8,13,39,15,273
1.18120,0.10238,-0.03587,0.00000,0.03209,0.97698,-0.17275,0.0,2023,6,8,13,39,15,284
1.18130,0.13738,0.06913,0.00000,0.03013,0.97844,-0.17397,0.0,2023,6,8,13,39,15,295
1.18140,-0.10762,0.03413,0.00000,0.03172,0.97942,-0.17275,0.0,2023,6,8,13,39,15,306
1.18150,0.03238,0.05163,0.00000,0.03135,0.97832,-0.17202,0.0,2023,6,8,13,39,15,317
1.18160,0.06738,-0.05337,0.00000,0.03099,0.97588,-0.17251,0.0,2023,6,8,13,39,15,328
1.18170,-0.10762,-0.05337,0.00000,0.02855,0.97771,-0.17129,0.0,2023,6,8,13,39,15,339
1.18180,-0.23012,0.10413,0.00000,0.03038,0.97820,-0.17056,0.0,2023,6,8,13,39,15,350
1.18190,-0.05512,-0.07087,0.00000,0.02952,0.97734,-0.17373,0.0,2023,6,8,13,39,15,361
1.18200,-0.05512,0.19163,0.00000,0.03148,0.97771,-0.17214,0.0,2023,6,8,13,39,15,373
1.18210,0.06738,-0.19337,0.00000,0.03392,0.97856,-0.16995,0.0,2023,6,8,13,39,15,384
1.18220,0.15488,0.01663,0.00000,0.03111,0.97844,-0.17287,0.0,2023,6,8,13,39,15,395
1.18230,-0.05512,-0.00087,0.00000,0.03001,0.97966,-0.17263,0.0,2023,6,8,13,39,15,406
1.18240,0.03238,0.03413,0.00000,0.03026,0.97978,-0.17239,0.0,2023,6,8,13,39,15,417
1.18250,-0.02012,-0.12337,0.00000,0.03062,0.97637,-0.17263,0.0,2023,6,8,13,39,15,428
1.18260,-0.02012,-0.08837,0.00000,0.02965,0.97881,-0.17312,0.0,2023,6,8,13,39,15,439
1.18270,0.03238,-0.03587,0.00000,0.02952,0.97868,-0.17129,0.0,2023,6,8,13,39,15,450
1.18280,0.10238,0.22663,0.00000,0.02989,0.97942,-0.17178,0.0,2023,6,8,13,39,15,461
1.18290,0.04988,0.12163,0.00000,0.03099,0.97881,-0.17495,0.0,2023,6,8,13,39,15,473
1.18300,-0.10762,0.06913,0.00000,0.02782,0.97868,-0.17422,0.0,2023,6,8,13,39,15,484
1.18310,-0.09012,-0.00087,0.00000,0.03099,0.97868,-0.17165,0.0,2023,6,8,13,39,15,495
1.18320,-0.02012,0.05163,0.00000,0.03318,0.97624,-0.17153,0.0,2023,6,8,13,39,15,506
1.18330,-0.09012,0.06913,0.00000,0.02952,0.97637,-0.17287,0.0,2023,6,8,13,39,15,517
1.18340,0.08488,-0.14087,0.00000,0.03160,0.97734,-0.17226,0.0,2023,6,8,13,39,15,528
1.18350,0.08488,0.19163,0.00000,0.02965,0.97771,-0.17300,0.0,2023,6,8,13,39,15,539
1.18360,-0.00262,0.03413,0.00000,0.03135,0.97807,-0.17239,0.0,2023,6,8,13,39,15,550
1.18370,-0.03762,0.06913,0.00000,0.03074,0.97734,-0.17422,0.0,2023,6,8,13,39,15,561
1.18380,-0.07262,-0.03587,0.00000,0.03062,0.97832,-0.17190,0.0,2023,6,8,13,39,15,573
1.18390,0.10238,-0.05337,0.00000,0.03233,0.97698,-0.17190,0.0,2023,6,8,13,39,15,584
1.18400,0.10238,-0.10587,0.00000,0.02952,0.97698,-0.17117,0.0,2023,6,8,13,39,15,595
1.18410,-0.02012,0.13913,0.00000,0.02965,0.97966,-0.17239,0.0,2023,6,8,13,39,15,606
1.18420,-0.07262,-0.00087,0.00000,0.03099,0.97917,-0.17141,0.0,2023,6,8,13,39,15,617
1.18430,0.20738,-0.14087,0.00000,0.03099,0.97868,-0.17446,0.0,2023,6,8,13,39,15,628
1.18440,-0.16012,-0.05337,0.00000,0.03026,0.97893,-0.17092,0.0,2023,6,8,13,39,15,639
1.18450,0.03238,-0.00087,0.00000,0.03013,0.98088,-0.17263,0.0,2023,6,8,13,39,15,650
1.18460,-0.07262,-0.00087,0.00000,0.03160,0.97771,-0.17226,0.0,2023,6,8,13,39,15,661
1.18470,-0.02012,0.01663,0.00000,0.03245,0.97820,-0.17361,0.0,2023,6,8,13,39,15,673
1.18480,-0.16012,0.29663,0.00000,0.02940,0.97917,-0.17092,0.0,2023,6,8,13,39,15,684
1.18490,-0.05512,-0.01837,0.00000,0.03135,0.97893,-0.17275,0.0,2023,6,8,13,39,15,695
1.18500,-0.17762,0.08663,0.00000,0.02965,0.97832,-0.17202,0.0,2023,6,8,13,39,15,706
1.18510,-0.03762,-0.01837,0.00000,0.03087,0.97881,-0.17117,0.0,2023,6,8,13,39,15,717
1.18520,-0.09012,-0.10587,0.00000,0.03001,0.97893,-0.17226,0.0,2023,6,8,13,39,15,728
1.18530,0.04988,-0.07087,0.00000,0.03343,0.97917,-0.17056,0.0,2023,6,8,13,39,15,739
1.18540,0.08488,-0.01837,0.00000,0.02965,0.97942,-0.17251,0.0,2023,6,8,13,39,15,750
1.18550,-0.10762,-0.00087,0.00000,0.03148,0.98076,-0.17361,0.0,2023,6,8,13,39,15,761
1.18560,0.01488,0.17413,0.00000,0.03087,0.97820,-0.17287,0.0,2023,6,8,13,39,15,773
1.18570,-0.09012,0.10413,0.00000,0.03062,0.97917,-0.17031,0.0,2023,6,8,13,39,15,784
1.18580,0.11988,-0.14087,0.00000,0.02965,0.97783,-0.17336,0.0,2023,6,8,13,39,15,795
1.18590,-0.19512,0.26163,0.00000,0.03111,0.97807,-0.17251,0.0,2023,6,8,13,39,15,806
1.18600,0.17238,-0.21087,0.00000,0.03001,0.97868,-0.17287,0.0,2023,6,8,13,39,15,817
1.18610,-0.00262,-0.12337,0.00000,0.03050,0.97734,-0.17275,0.0,2023,6,8,13,39,15,828
1.18620,0.08488,-0.15837,0.00000,0.03001,0.97807,-0.17483,0.0,2023,6,8,13,39,15,839
1.18630,-0.09012,0.03413,0.00000,0.02916,0.97832,-0.17129,0.0,2023,6,8,13,39,15,850
1.18640,-0.19512,0.13913,0.00000,0.03087,0.98015,-0.17239,0.0,2023,6,8,13,39,15,861
1.18650,-0.16012,0.12163,0.00000,0.03221,0.97515,-0.16995,0.0,2023,6,8,13,39,15,873
1.18660,-0.03762,-0.01837,0.00000,0.03172,0.97881,-0.17117,0.0,2023,6,8,13,39,15,884
1.18670,0.01488,0.12163,0.00000,0.03221,0.97600,-0.17336,0.0,2023,6,8,13,39,15,895
1.18680,0.01488,0.13913,0.00000,0.02940,0.97978,-0.17409,0.0,2023,6,8,13,39,15,906
1.18690,-0.05512,-0.10587,0.00000,0.03074,0.97978,-0.17422,0.0,2023,6,8,13,39,15,917
1.18700,-0.00262,0.06913,0.00000,0.03160,0.97893,-0.17214,0.0,2023,6,8,13,39,15,928
1.18710,0.08488,-0.01837,0.00000,0.03099,0.97917,-0.17336,0.0,2023,6,8,13,39,15,939
1.18720,-0.24762,0.03413,0.00000,0.03148,0.97771,-0.16982,0.0,2023,6,8,13,39,15,950
1.18730,0.11988,0.03413,0.00000,0.03111,0.97734,-0.17348,0.0,2023,6,8,13,39,15,961
1.18740,0.15488,0.05163,0.00000,0.03111,0.98039,-0.17312,0.0,2023,6,8,13,39,15,973
1.18750,-0.07262,0.10413,0.00000,0.03245,0.98271,-0.17361,0.0,2023,6,8,13,39,15,984
1.18760,-0.02012,-0.05337,0.00000,0.03160,0.97954,-0.17422,0.0,2023,6,8,13,39,15,995
1.18770,0.24238,0.20913,0.00000,0.03172,0.97844,-0.17214,0.0,2023,6,8,13,39,16,6
1.18780,0.01488,-0.12337,0.00000,0.03099,0.98015,-0.17239,0.0,2023,6,8,13,39,16,17
1.18790,-0.05512,0.03413,0.00000,0.03099,0.98003,-0.17263,0.0,2023,6,8,13,39,16,28
1.18800,0.01488,0.10413,0.00000,0.02952,0.97856,-0.17287,0.0,2023,6,8,13,39,16,39
1.18810,-0.07262,-0.07087,0.00000,0.03074,0.97832,-0.17019,0.0,2023,6,8,13,39,16,50
1.18820,0.01488,0.13913,0.00000,0.02977,0.97844,-0.17275,0.0,2023,6,8,13,39,16,61
1.18830,-0.02012,-0.22837,0.00000,0.03111,0.97820,-0.17178,0.0,2023,6,8,13,39,16,73
1.18840,0.08488,0.13913,0.00000,0.03111,0.98051,-0.17226,0.0,2023,6,8,13,39,16,84
1.18850,-0.05512,-0.03587,0.00000,0.03087,0.98088,-0.17129,0.0,2023,6,8,13,39,16,95
1.18860,-0.05512,0.03413,0.00000,0.03099,0.97673,-0.17251,0.0,2023,6,8,13,39,16,106
1.18870,0.01488,0.12163,0.00000,0.02940,0.97771,-0.17165,0.0,2023,6,8,13,39,16,117
1.18880,0.06738,-0.10587,0.00000,0.03087,0.97954,-0.17385,0.0,2023,6,8,13,39,16,128
1.18890,-0.02012,-0.03587,0.00000,0.03074,0.97820,-0.17080,0.0,2023,6,8,13,39,16,139
1.18900,0.04988,-0.00087,0.00000,0.03013,0.98051,-0.17324,0.0,2023,6,8,13,39,16,150
1.18910,0.08488,-0.08837,0.00000,0.02794,0.98027,-0.17422,0.0,2023,6,8,13,39,16,161
1.18920,0.17238,0.13913,0.00000,0.03087,0.97832,-0.17226,0.0,2023,6,8,13,39,16,173
1.18930,-0.24762,0.13913,0.00000,0.03038,0.97783,-0.17275,0.0,2023,6,8,13,39,16,184
1.18940,-0.03762,0.03413,0.00000,0.02891,0.97905,-0.17263,0.0,2023,6,8,13,39,16,195
1.18950,0.04988,-0.01837,0.00000,0.02965,0.97746,-0.17190,0.0,2023,6,8,13,39,16,206
1.18960,0.11988,0.03413,0.00000,0.03148,0.97612,-0.17068,0.0,2023,6,8,13,39,16,217
1.18970,0.06738,-0.08837,0.00000,0.02879,0.97710,-0.17348,0.0,2023,6,8,13,39,16,228
1.18980,0.11988,0.06913,0.00000,0.03148,0.97820,-0.17092,0.0,2023,6,8,13,39,16,239
1.18990,-0.16012,0.31413,0.00000,0.03123,0.97832,-0.17483,0.0,2023,6,8,13,39,16,250
1.19000,-0.03762,-0.00087,0.00000,0.03221,0.97856,-0.17312,0.0,2023,6,8,13,39,16,261
1.19010,-0.12512,-0.12337,0.00000,0.02843,0.98039,-0.17422,0.0,2023,6,8,13,39,16,273
1.19020,-0.05512,0.06913,0.00000,0.03123,0.97844,-0.17300,0.0,2023,6,8,13,39,16,284
1.19030,0.08488,0.08663,0.00000,0.03062,0.97771,-0.17190,0.0,2023,6,8,13,39,16,295
1.19040,-0.12512,0.03413,0.00000,0.02989,0.97612,-0.17263,0.0,2023,6,8,13,39,16,306
1.19050,-0.02012,0.06913,0.00000,0.02977,0.97942,-0.17251,0.0,2023,6,8,13,39,16,317
1.19060,0.17238,0.06913,0.00000,0.03099,0.97710,-0.17409,0.0,2023,6,8,13,39,16,328
1.19070,0.20738,-0.08837,0.00000,0.03196,0.97905,-0.17287,0.0,2023,6,8,13,39,16,339
1.19080,-0.00262,-0.00087,0.00000,0.03074,0.97698,-0.17470,0.0,2023,6,8,13,39,16,350
1.19090,-0.07262,0.08663,0.00000,0.02989,0.97990,-0.17263,0.0,2023,6,8,13,39,16,361
1.19100,-0.05512,0.03413,0.00000,0.03270,0.97783,-0.17190,0.0,2023,6,8,13,39,16,373
1.19110,0.03238,0.03413,0.00000,0.02989,0.97881,-0.17348,0.0,2023,6,8,13,39,16,384
1.19120,0.15488,0.03413,0.00000,0.02928,0.97832,-0.17458,0.0,2023,6,8,13,39,16,395
1.19130,-0.00262,0.13913,0.00000,0.03111,0.97893,-0.17300,0.0,2023,6,8,13,39,16,406
1.19140,-0.05512,0.24413,0.00000,0.03062,0.98003,-0.17251,0.0,2023,6,8,13,39,16,417
1.19150,-0.10762,0.08663,0.00000,0.03062,0.97978,-0.17153,0.0,2023,6,8,13,39,16,428
1.19160,0.10238,0.06913,0.00000,0.03050,0.97893,-0.17190,0.0,2023,6,8,13,39,16,439
1.19170,0.04988,-0.10587,0.00000,0.03184,0.97795,-0.17275,0.0,2023,6,8,13,39,16,450
1.19180,0.01488,0.20913,0.00000,0.03123,0.97820,-0.17434,0.0,2023,6,8,13,39,16,461
1.19190,-0.05512,0.17413,0.00000,0.03001,0.97771,-0.17312,0.0,2023,6,8,13,39,16,473
1.19200,0.17238,0.03413,0.00000,0.03050,0.97685,-0.17324,0.0,2023,6,8,13,39,16,484
1.19210,0.06738,-0.10587,0.00000,0.02891,0.97807,-0.17409,0.0,2023,6,8,13,39,16,495
1.19220,0.06738,0.05163,0.00000,0.03099,0.97929,-0.17178,0.0,2023,6,8,13,39,16,506
1.19230,-0.03762,0.22663,0.00000,0.03111,0.97905,-0.17300,0.0,2023,6,8,13,39,16,517
1.19240,-0.07262,0.08663,0.00000,0.02904,0.97978,-0.17263,0.0,2023,6,8,13,39,16,528
1.19250,-0.00262,-0.15837,0.00000,0.03087,0.97893,-0.17373,0.0,2023,6,8,13,39,16,539
1.19260,-0.05512,0.27913,0.00000,0.03221,0.97685,-0.17385,0.0,2023,6,8,13,39,16,550
1.19270,-0.03762,0.15663,0.00000,0.03087,0.97746,-0.17434,0.0,2023,6,8,13,39,16,561
1.19280,0.10238,0.03413,0.00000,0.03099,0.97966,-0.17300,0.0,2023,6,8,13,39,16,573
1.19290,-0.05512,0.24413,0.00000,0.02989,0.98027,-0.17178,0.0,2023,6,8,13,39,16,584
1.19300,0.03238,-0.10587,0.00000,0.03062,0.97856,-0.17263,0.0,2023,6,8,13,39,16,595
1.19310,0.01488,-0.01837,0.00000,0.03001,0.97685,-0.17117,0.0,2023,6,8,13,39,16,606
1.19320,0.27738,-0.01837,0.00000,0.02928,0.97966,-0.17422,0.0,2023,6,8,13,39,16,617
1.19330,-0.00262,0.01663,0.00000,0.03062,0.97868,-0.17214,0.0,2023,6,8,13,39,16,628
1.19340,0.15488,0.13913,0.00000,0.02965,0.97698,-0.17592,0.0,2023,6,8,13,39,16,639
1.19350,-0.17762,-0.12337,0.00000,0.03087,0.97649,-0.17373,0.0,2023,6,8,13,39,16,650
1.19360,0.06738,0.15663,0.00000,0.03196,0.98076,-0.17385,0.0,2023,6,8,13,39,16,661
1.19370,0.11988,0.10413,0.00000,0.03038,0.97868,-0.17226,0.0,2023,6,8,13,39,16,673
1.19380,-0.19512,0.08663,0.00000,0.03123,0.97929,-0.17324,0.0,2023,6,8,13,39,16,684
1.19390,0.03238,-0.10587,0.00000,0.03087,0.97929,-0.17214,0.0,2023,6,8,13,39,16,695
1.19400,-0.02012,0.05163,0.00000,0.03172,0.97771,-0.17470,0.0,2023,6,8,13,39,16,706
1.19410,-0.09012,0.12163,0.00000,0.03343,0.97856,-0.17434,0.0,2023,6,8,13,39,16,717
1.19420,-0.03762,0.15663,0.00000,0.03013,0.97856,-0.17385,0.0,2023,6,8,13,39,16,728
1.19430,-0.09012,0.13913,0.00000,0.02904,0.97844,-0.17190,0.0,2023,6,8,13,39,16,739
1.19440,-0.02012,0.06913,0.00000,0.02977,0.97820,-0.17373,0.0,2023,6,8,13,39,16,750
1.19450,0.06738,-0.00087,0.00000,0.03123,0.97600,-0.17300,0.0,2023,6,8,13,39,16,761
1.19460,0.08488,-0.08837,0.00000,0.03099,0.97856,-0.17214,0.0,2023,6,8,13,39,16,773
1.19470,-0.09012,0.17413,0.00000,0.03001,0.98015,-0.17153,0.0,2023,6,8,13,39,16,784
1.19480,-0.17762,-0.01837,0.00000,0.03026,0.97893,-0.17043,0.0,2023,6,8,13,39,16,795
1.19490,-0.16012,-0.00087,0.00000,0.03038,0.97856,-0.17214,0.0,2023,6,8,13,39,16,806
1.19500,0.01488,-0.00087,0.00000,0.03416,0.97795,-0.17239,0.0,2023,6,8,13,39,16,817
1.19510,-0.00262,-0.24587,0.00000,0.03074,0.97746,-0.17568,0.0,2023,6,8,13,39,16,828
1.19520,0.08488,0.06913,0.00000,0.03062,0.97807,-0.17165,0.0,2023,6,8,13,39,16,839
1.19530,-0.09012,-0.03587,0.00000,0.03209,0.97771,-0.17373,0.0,2023,6,8,13,39,16,850
1.19540,0.08488,-0.17587,0.00000,0.03038,0.97820,-0.17312,0.0,2023,6,8,13,39,16,861
1.19550,0.03238,-0.08837,0.00000,0.02867,0.97820,-0.17434,0.0,2023,6,8,13,39,16,873
1.19560,-0.03762,0.06913,0.00000,0.03172,0.97771,-0.16995,0.0,2023,6,8,13,39,16,884
1.19570,-0.16012,0.01663,0.00000,0.03160,0.97795,-0.17519,0.0,2023,6,8,13,39,16,895
1.19580,-0.12512,-0.10587,0.00000,0.03111,0.98051,-0.17287,0.0,2023,6,8,13,39,16,906
1.19590,-0.05512,0.05163,0.00000,0.03306,0.97868,-0.17409,0.0,2023,6,8,13,39,16,917
1.19600,-0.07262,0.26163,0.00000,0.03013,0.97734,-0.17348,0.0,2023,6,8,13,39,16,928
1.19610,0.06738,0.12163,0.00000,0.03087,0.97807,-0.17068,0.0,2023,6,8,13,39,16,939
1.19620,0.04988,0.03413,0.00000,0.03074,0.97856,-0.17239,0.0,2023,6,8,13,39,16,950
1.19630,0.06738,0.19163,0.00000,0.02989,0.98003,-0.17348,0.0,2023,6,8,13,39,16,961
1.19640,-0.10762,0.08663,0.00000,0.03257,0.97563,-0.17385,0.0,2023,6,8,13,39,16,973
1.19650,0.04988,0.19163,0.00000,0.02891,0.97820,-0.17226,0.0,2023,6,8,13,39,16,984
1.19660,-0.05512,0.03413,0.00000,0.03087,0.97576,-0.17287,0.0,2023,6,8,13,39,17,5
1.19670,-0.21262,0.17413,0.00000,0.03050,0.97905,-0.17202,0.0,2023,6,8,13,39,17,16
1.19680,0.04988,0.06913,0.00000,0.02952,0.97771,-0.17104,0.0,2023,6,8,13,39,17,27
1.19690,0.11988,-0.05337,0.00000,0.03148,0.97881,-0.17312,0.0,2023,6,8,13,39,17,38
1.19700,0.06738,-0.10587,0.00000,0.03111,0.97771,-0.17605,0.0,2023,6,8,13,39,17,49
1.19710,0.24238,0.17413,0.00000,0.03123,0.97942,-0.17361,0.0,2023,6,8,13,39,17,60
1.19720,0.03238,-0.05337,0.00000,0.03099,0.97893,-0.17483,0.0,2023,6,8,13,39,17,71
1.19730,-0.00262,0.03413,0.00000,0.03026,0.97929,-0.17385,0.0,2023,6,8,13,39,17,83
1.19740,-0.05512,0.19163,0.00000,0.03123,0.97722,-0.17190,0.0,2023,6,8,13,39,17,94
1.19750,-0.05512,-0.01837,0.00000,0.03099,0.97868,-0.17470,0.0,2023,6,8,13,39,17,105
1.19760,0.10238,-0.10587,0.00000,0.02977,0.97807,-0.17470,0.0,2023,6,8,13,39,17,116
1.19770,0.04988,-0.08837,0.00000,0.03013,0.98076,-0.17287,0.0,2023,6,8,13,39,17,127
1.19780,0.17238,0.06913,0.00000,0.03221,0.97820,-0.17422,0.0,2023,6,8,13,39,17,138
1.19790,0.13738,-0.01837,0.00000,0.03074,0.98064,-0.17397,0.0,2023,6,8,13,39,17,149
1.19800,-0.03762,0.17413,0.00000,0.02843,0.97710,-0.17336,0.0,2023,6,8,13,39,17,160
1.19810,-0.03762,-0.03587,0.00000,0.02989,0.97844,-0.17434,0.0,2023,6,8,13,39,17,171
1.19820,-0.05512,0.17413,0.00000,0.02952,0.97710,-0.17361,0.0,2023,6,8,13,39,17,183
1.19830,-0.12512,-0.00087,0.00000,0.03013,0.98088,-0.17275,0.0,2023,6,8,13,39,17,194
1.19840,0.11988,0.17413,0.00000,0.03038,0.97820,-0.17544,0.0,2023,6,8,13,39,17,205
1.19850,0.01488,-0.12337,0.00000,0.03160,0.97795,-0.17495,0.0,2023,6,8,13,39,17,216
1.19860,-0.17762,0.01663,0.00000,0.02977,0.98003,-0.17251,0.0,2023,6,8,13,39,17,227
1.19870,-0.26512,0.05163,0.00000,0.03111,0.97722,-0.17287,0.0,2023,6,8,13,39,17,238
1.19880,0.03238,-0.07087,0.00000,0.03001,0.98015,-0.17300,0.0,2023,6,8,13,39,17,249
1.19890,-0.12512,-0.00087,0.00000,0.03099,0.98064,-0.17434,0.0,2023,6,8,13,39,17,260
1.19900,0.20738,0.08663,0.00000,0.02940,0.97844,-0.17312,0.0,2023,6,8,13,39,17,271
1.19910,-0.24762,0.24413,0.00000,0.03148,0.97893,-0.17458,0.0,2023,6,8,13,39,17,283
1.19920,-0.23012,0.03413,0.00000,0.03160,0.97856,-0.17409,0.0,2023,6,8,13,39,17,294
1.19930,-0.10762,0.06913,0.00000,0.03282,0.97722,-0.17397,0.0,2023,6,8,13,39,17,305
1.19940,-0.05512,0.06913,0.00000,0.03123,0.97771,-0.17470,0.0,2023,6,8,13,39,17,316
1.19950,-0.14262,-0.07087,0.00000,0.03038,0.97929,-0.17165,0.0,2023,6,8,13,39,17,327
1.19960,0.10238,-0.01837,0.00000,0.03184,0.97990,-0.17470,0.0,2023,6,8,13,39,17,338
1.19970,0.04988,0.01663,0.00000,0.03196,0.97844,-0.17422,0.0,2023,6,8,13,39,17,349
1.19980,0.04988,0.20913,0.00000,0.03013,0.97966,-0.17324,0.0,2023,6,8,13,39,17,360
1.19990,-0.12512,-0.00087,0.00000,0.03172,0.97795,-0.17226,0.0,2023,6,8,13,39,17,371
1.20000,-0.00262,-0.26337,0.00000,0.03282,0.97966,-0.17385,0.0,2023,6,8,13,39,17,383
1.20010,0.10238,0.12163,0.00000,0.02879,0.97844,-0.17373,0.0,2023,6,8,13,39,17,394
1.20020,0.03238,0.01663,0.00000,0.03001,0.97673,-0.17519,0.0,2023,6,8,13,39,17,405
1.20030,-0.03762,0.34913,0.00000,0.02965,0.97685,-0.17275,0.0,2023,6,8,13,39,17,416
1.20040,0.20738,-0.08837,0.00000,0.03111,0.97759,-0.17263,0.0,2023,6,8,13,39,17,427
1.20050,-0.03762,0.12163,0.00000,0.02916,0.98088,-0.17165,0.0,2023,6,8,13,39,17,438
1.20060,-0.00262,0.15663,0.00000,0.02989,0.97624,-0.17483,0.0,2023,6,8,13,39,17,449
1.20070,0.04988,0.10413,0.00000,0.02830,0.97856,-0.17397,0.0,2023,6,8,13,39,17,460
1.20080,-0.00262,0.05163,0.00000,0.03270,0.97502,-0.17068,0.0,2023,6,8,13,39,17,471
1.20090,0.15488,0.01663,0.00000,0.02940,0.97722,-0.17361,0.0,2023,6,8,13,39,17,483
1.20100,-0.07262,-0.08837,0.00000,0.03172,0.97649,-0.17678,0.0,2023,6,8,13,39,17,494
1.20110,-0.09012,0.08663,0.00000,0.03050,0.97795,-0.17373,0.0,2023,6,8,13,39,17,505
1.20120,-0.10762,0.17413,0.00000,0.03026,0.98003,-0.17348,0.0,2023,6,8,13,39,17,516
1.20130,-0.02012,-0.10587,0.00000,0.03087,0.97685,-0.17190,0.0,2023,6,8,13,39,17,527
1.20140,-0.00262,0.10413,0.00000,0.03087,0.97893,-0.17397,0.0,2023,6,8,13,39,17,538
1.20150,-0.30012,0.34913,0.00000,0.03099,0.97832,-0.17324,0.0,2023,6,8,13,39,17,549
1.20160,0.01488,0.22663,0.00000,0.03111,0.97966,-0.17214,0.0,2023,6,8,13,39,17,560
1.20170,0.06738,-0.07087,0.00000,0.03099,0.97771,-0.17190,0.0,2023,6,8,13,39,17,571
1.20180,-0.00262,0.19163,0.00000,0.03135,0.97905,-0.17434,0.0,2023,6,8,13,39,17,583
1.20190,0.10238,-0.12337,0.00000,0.03111,0.97856,-0.17385,0.0,2023,6,8,13,39,17,594
1.20200,0.08488,-0.07087,0.00000,0.02965,0.97942,-0.17458,0.0,2023,6,8,13,39,17,605
1.20210,-0.07262,-0.03587,0.00000,0.02891,0.97868,-0.17373,0.0,2023,6,8,13,39,17,616
1.20220,-0.03762,0.19163,0.00000,0.03270,0.97722,-0.17287,0.0,2023,6,8,13,39,17,627
1.20230,-0.09012,0.06913,0.00000,0.03148,0.97612,-0.17312,0.0,2023,6,8,13,39,17,638
1.20240,-0.03762,0.13913,0.00000,0.03209,0.97795,-0.17531,0.0,2023,6,8,13,39,17,649
1.20250,0.01488,0.17413,0.00000,0.03099,0.98076,-0.17300,0.0,2023,6,8,13,39,17,660
1.20260,0.06738,0.03413,0.00000,0.03087,0.97954,-0.17239,0.0,2023,6,8,13,39,17,671
1.20270,-0.02012,0.08663,0.00000,0.03160,0.97698,-0.17348,0.0,2023,6,8,13,39,17,683
1.20280,0.11988,-0.00087,0.00000,0.03196,0.97905,-0.17068,0.0,2023,6,8,13,39,17,694
1.20290,0.04988,0.01663,0.00000,0.03062,0.97771,-0.17348,0.0,2023,6,8,13,39,17,705
1.20300,-0.02012,0.15663,0.00000,0.03001,0.97881,-0.17300,0.0,2023,6,8,13,39,17,716
1.20310,-0.00262,0.12163,0.00000,0.03184,0.97893,-0.17434,0.0,2023,6,8,13,39,17,727
1.20320,0.11988,0.05163,0.00000,0.03099,0.97844,-0.17495,0.0,2023,6,8,13,39,17,738
1.20330,0.01488,-0.07087,0.00000,0.03135,0.97978,-0.17422,0.0,2023,6,8,13,39,17,749
1.20340,0.13738,-0.03587,0.00000,0.02952,0.98003,-0.17190,0.0,2023,6,8,13,39,17,760
1.20350,-0.16012,0.01663,0.00000,0.02989,0.97722,-0.17531,0.0,2023,6,8,13,39,17,771
1.20360,0.04988,0.06913,0.00000,0.03123,0.97795,-0.17397,0.0,2023,6,8,13,39,17,783
1.20370,0.01488,0.12163,0.00000,0.03050,0.97722,-0.17324,0.0,2023,6,8,13,39,17,794
1.20380,-0.09012,0.08663,0.00000,0.03013,0.97807,-0.17385,0.0,2023,6,8,13,39,17,805
1.20390,-0.30012,0.13913,0.00000,0.03013,0.97966,-0.17275,0.0,2023,6,8,13,39,17,816
1.20400,-0.00262,0.05163,0.00000,0.03184,0.98003,-0.17117,0.0,2023,6,8,13,39,17,827
1.20410,-0.03762,0.22663,0.00000,0.03013,0.97905,-0.17324,0.0,2023,6,8,13,39,17,838
1.20420,-0.14262,0.22663,0.00000,0.03074,0.97710,-0.17275,0.0,2023,6,8,13,39,17,849
1.20430,0.10238,-0.07087,0.00000,0.03257,0.97966,-0.17373,0.0,2023,6,8,13,39,17,860
1.20440,0.03238,0.01663,0.00000,0.03123,0.97905,-0.17239,0.0,2023,6,8,13,39,17,871
1.20450,0.04988,0.08663,0.00000,0.03135,0.97673,-0.17336,0.0,2023,6,8,13,39,17,883
1.20460,-0.16012,-0.03587,0.00000,0.03148,0.97795,-0.17361,0.0,2023,6,8,13,39,17,894
1.20470,-0.03762,0.10413,0.00000,0.03099,0.97856,-0.17190,0.0,2023,6,8,13,39,17,905
1.20480,-0.07262,0.05163,0.00000,0.02977,0.97856,-0.17202,0.0,2023,6,8,13,39,17,916
1.20490,-0.23012,0.01663,0.00000,0.02891,0.97820,-0.17495,0.0,2023,6,8,13,39,17,927
1.20500,0.10238,-0.03587,0.00000,0.03074,0.97893,-0.17141,0.0,2023,6,8,13,39,17,938
1.20510,0.06738,0.03413,0.00000,0.03050,0.97734,-0.17214,0.0,2023,6,8,13,39,17,949
1.20520,0.08488,-0.15837,0.00000,0.03087,0.97954,-0.17336,0.0,2023,6,8,13,39,17,960
1.20530,-0.03762,-0.01837,0.00000,0.03062,0.97820,-0.17336,0.0,2023,6,8,13,39,17,971
1.20540,0.15488,0.10413,0.00000,0.03209,0.97746,-0.17446,0.0,2023,6,8,13,39,17,983
1.20550,-0.12512,0.06913,0.00000,0.02928,0.97673,-0.17617,0.0,2023,6,8,13,39,17,994
1.20560,0.01488,0.26163,0.00000,0.03270,0.98076,-0.17385,0.0,2023,6,8,13,39,17,5
1.20570,-0.21262,0.12163,0.00000,0.03050,0.97893,-0.17336,0.0,2023,6,8,13,39,18,6
1.20580,-0.02012,-0.03587,0.00000,0.03087,0.97673,-0.17092,0.0,2023,6,8,13,39,18,17
1.20590,-0.03762,0.03413,0.00000,0.03001,0.97576,-0.17141,0.0,2023,6,8,13,39,18,28
1.20600,0.06738,-0.00087,0.00000,0.03062,0.97710,-0.17129,0.0,2023,6,8,13,39,18,39
1.20610,0.20738,-0.08837,0.00000,0.03135,0.97783,-0.17470,0.0,2023,6,8,13,39,18,50
1.20620,-0.16012,-0.19337,0.00000,0.02989,0.97624,-0.16970,0.0,2023,6,8,13,39,18,61
1.20630,-0.02012,-0.14087,0.00000,0.03038,0.97832,-0.17287,0.0,2023,6,8,13,39,18,73
1.20640,0.11988,0.03413,0.00000,0.03099,0.98003,-0.17495,0.0,2023,6,8,13,39,18,84
1.20650,-0.17762,-0.07087,0.00000,0.02904,0.97746,-0.17190,0.0,2023,6,8,13,39,18,95
1.20660,-0.02012,0.03413,0.00000,0.03148,0.97954,-0.17165,0.0,2023,6,8,13,39,18,106
1.20670,0.11988,-0.17587,0.00000,0.02891,0.97893,-0.17287,0.0,2023,6,8,13,39,18,117
1.20680,0.03238,-0.14087,0.00000,0.03123,0.97722,-0.17214,0.0,2023,6,8,13,39,18,128
1.20690,-0.10762,0.01663,0.00000,0.03013,0.97771,-0.17226,0.0,2023,6,8,13,39,18,139
1.20700,-0.14262,0.06913,0.00000,0.02940,0.97759,-0.17397,0.0,2023,6,8,13,39,18,150
1.20710,-0.03762,0.08663,0.00000,0.03074,0.97929,-0.17153,0.0,2023,6,8,13,39,18,161
1.20720,0.10238,0.08663,0.00000,0.02989,0.98161,-0.17239,0.0,2023,6,8,13,39,18,173
1.20730,0.17238,0.06913,0.00000,0.03038,0.97771,-0.17263,0.0,2023,6,8,13,39,18,184
1.20740,0.06738,0.15663,0.00000,0.03294,0.97832,-0.17141,0.0,2023,6,8,13,39,18,195
1.20750,0.10238,-0.03587,0.00000,0.02989,0.97820,-0.17153,0.0,2023,6,8,13,39,18,206
1.20760,0.18988,0.03413,0.00000,0.02977,0.97783,-0.17129,0.0,2023,6,8,13,39,18,217
1.20770,-0.09012,0.24413,0.00000,0.03013,0.97881,-0.17446,0.0,2023,6,8,13,39,18,228
1.20780,-0.14262,0.12163,0.00000,0.03318,0.97844,-0.17031,0.0,2023,6,8,13,39,18,239
1.20790,0.04988,0.03413,0.00000,0.03026,0.97783,-0.17226,0.0,2023,6,8,13,39,18,250
1.20800,-0.07262,-0.08837,0.00000,0.03209,0.97868,-0.17385,0.0,2023,6,8,13,39,18,261
1.20810,0.13738,-0.12337,0.00000,0.03074,0.97795,-0.17043,0.0,2023,6,8,13,39,18,273
1.20820,0.03238,0.15663,0.00000,0.03050,0.97893,-0.17239,0.0,2023,6,8,13,39,18,284
1.20830,0.03238,0.08663,0.00000,0.03233,0.98064,-0.17495,0.0,2023,6,8,13,39,18,295
1.20840,-0.24762,-0.07087,0.00000,0.02916,0.97856,-0.17226,0.0,2023,6,8,13,39,18,306
1.20850,0.17238,-0.03587,0.00000,0.03196,0.97820,-0.17263,0.0,2023,6,8,13,39,18,317
1.20860,-0.07262,0.05163,0.00000,0.03062,0.97771,-0.17361,0.0,2023,6,8,13,39,18,328
1.20870,0.18988,0.01663,0.00000,0.03135,0.97844,-0.17422,0.0,2023,6,8,13,39,18,339
1.20880,0.22488,-0.00087,0.00000,0.03062,0.97698,-0.17385,0.0,2023,6,8,13,39,18,350
1.20890,-0.17762,0.05163,0.00000,0.03184,0.97929,-0.17226,0.0,2023,6,8,13,39,18,361
1.20900,0.06738,-0.07087,0.00000,0.03379,0.97893,-0.17409,0.0,2023,6,8,13,39,18,373
1.20910,0.11988,0.12163,0.00000,0.02928,0.97942,-0.17178,0.0,2023,6,8,13,39,18,384
1.20920,0.25988,-0.00087,0.00000,0.03282,0.97722,-0.17080,0.0,2023,6,8,13,39,18,395
1.20930,-0.03762,0.24413,0.00000,0.03087,0.97820,-0.17458,0.0,2023,6,8,13,39,18,406
1.20940,0.04988,-0.01837,0.00000,0.02940,0.98125,-0.17129,0.0,2023,6,8,13,39,18,417
1.20950,0.01488,-0.05337,0.00000,0.02965,0.97917,-0.17470,0.0,2023,6,8,13,39,18,428
1.20960,-0.30012,0.31413,0.00000,0.02843,0.97795,-0.17373,0.0,2023,6,8,13,39,18,439
1.20970,-0.02012,0.08663,0.00000,0.03135,0.97807,-0.17263,0.0,2023,6,8,13,39,18,450
1.20980,-0.00262,0.08663,0.00000,0.03111,0.97820,-0.17226,0.0,2023,6,8,13,39,18,461
1.20990,-0.10762,0.10413,0.00000,0.02916,0.97820,-0.17556,0.0,2023,6,8,13,39,18,473
1.21000,-0.19512,0.20913,0.00000,0.03160,0.97807,-0.17300,0.0,2023,6,8,13,39,18,484
1.21010,-0.12512,-0.03587,0.00000,0.03196,0.97661,-0.17239,0.0,2023,6,8,13,39,18,495
1.21020,-0.00262,0.36663,0.00000,0.03123,0.97868,-0.17190,0.0,2023,6,8,13,39,18,506
1.21030,-0.02012,0.10413,0.00000,0.03306,0.97783,-0.17226,0.0,2023,6,8,13,39,18,517
1.21040,-0.07262,-0.01837,0.00000,0.03245,0.97746,-0.17470,0.0,2023,6,8,13,39,18,528
1.21050,0.06738,0.01663,0.00000,0.02891,0.97746,-0.17251,0.0,2023,6,8,13,39,18,539
1.21060,0.04988,0.13913,0.00000,0.03038,0.97917,-0.17214,0.0,2023,6,8,13,39,18,550
1.21070,0.15488,-0.08837,0.00000,0.03221,0.97795,-0.16970,0.0,2023,6,8,13,39,18,561
1.21080,0.10238,0.06913,0.00000,0.03221,0.97942,-0.17202,0.0,2023,6,8,13,39,18,573
1.21090,-0.00262,0.05163,0.00000,0.03306,0.97746,-0.17348,0.0,2023,6,8,13,39,18,584
1.21100,-0.05512,-0.19337,0.00000,0.03026,0.97832,-0.17287,0.0,2023,6,8,13,39,18,595
1.21110,-0.05512,0.05163,0.00000,0.03087,0.98015,-0.17068,0.0,2023,6,8,13,39,18,606
1.21120,0.04988,-0.05337,0.00000,0.03196,0.97893,-0.17287,0.0,2023,6,8,13,39,18,617
1.21130,-0.02012,0.17413,0.00000,0.03001,0.97722,-0.17226,0.0,2023,6,8,13,39,18,628
1.21140,0.11988,0.06913,0.00000,0.03074,0.97844,-0.17373,0.0,2023,6,8,13,39,18,639
1.21150,0.04988,-0.28087,0.00000,0.03026,0.97795,-0.17226,0.0,2023,6,8,13,39,18,650
1.21160,0.10238,-0.03587,0.00000,0.03050,0.98003,-0.17214,0.0,2023,6,8,13,39,18,661
1.21170,-0.07262,0.03413,0.00000,0.03245,0.97832,-0.17043,0.0,2023,6,8,13,39,18,673
1.21180,-0.02012,-0.03587,0.00000,0.03050,0.97771,-0.17239,0.0,2023,6,8,13,39,18,684
1.21190,-0.07262,0.05163,0.00000,0.03135,0.97954,-0.17165,0.0,2023,6,8,13,39,18,695
1.21200,-0.16012,0.06913,0.00000,0.03404,0.97734,-0.17263,0.0,2023,6,8,13,39,18,706
1.21210,-0.10762,0.08663,0.00000,0.03013,0.97783,-0.17165,0.0,2023,6,8,13,39,18,717
1.21220,-0.09012,0.05163,0.00000,0.03111,0.97783,-0.17117,0.0,2023,6,8,13,39,18,728
1.21230,-0.16012,0.06913,0.00000,0.03148,0.97990,-0.17397,0.0,2023,6,8,13,39,18,739
1.21240,0.08488,0.12163,0.00000,0.03026,0.97856,-0.17165,0.0,2023,6,8,13,39,18,750
1.21250,0.03238,0.06913,0.00000,0.03026,0.97734,-0.17214,0.0,2023,6,8,13,39,18,761
1.21260,0.06738,-0.21087,0.00000,0.03160,0.97698,-0.17202,0.0,2023,6,8,13,39,18,773
1.21270,-0.14262,-0.08837,0.00000,0.03001,0.97759,-0.17239,0.0,2023,6,8,13,39,18,784
1.21280,0.03238,-0.07087,0.00000,0.02916,0.97917,-0.17165,0.0,2023,6,8,13,39,18,795
1.21290,-0.03762,0.22663,0.00000,0.03196,0.97734,-0.17483,0.0,2023,6,8,13,39,18,806
1.21300,0.01488,-0.01837,0.00000,0.02855,0.98015,-0.16934,0.0,2023,6,8,13,39,18,817
1.21310,-0.00262,0.01663,0.00000,0.03123,0.97710,-0.17226,0.0,2023,6,8,13,39,18,828
1.21320,-0.12512,0.03413,0.00000,0.03184,0.97893,-0.17117,0.0,2023,6,8,13,39,18,839
1.21330,-0.14262,0.03413,0.00000,0.02989,0.97783,-0.17300,0.0,2023,6,8,13,39,18,850
1.21340,0.08488,0.17413,0.00000,0.03111,0.97954,-0.17214,0.0,2023,6,8,13,39,18,861
1.21350,0.01488,-0.03587,0.00000,0.02940,0.98149,-0.17251,0.0,2023,6,8,13,39,18,873
1.21360,-0.12512,0.03413,0.00000,0.03233,0.97893,-0.17361,0.0,2023,6,8,13,39,18,884
1.21370,0.01488,0.01663,0.00000,0.03026,0.97881,-0.17226,0.0,2023,6,8,13,39,18,895
1.21380,0.01488,-0.01837,0.00000,0.02977,0.97807,-0.17068,0.0,2023,6,8,13,39,18,906
1.21390,0.39988,0.17413,0.00000,0.03416,0.98015,-0.17226,0.0,2023,6,8,13,39,18,917
1.21400,-0.05512,-0.08837,0.00000,0.03355,0.98039,-0.17617,0.0,2023,6,8,13,39,18,928
1.21410,0.11988,-0.10587,0.00000,0.03221,0.97661,-0.17422,0.0,2023,6,8,13,39,18,939
1.21420,-0.12512,0.08663,0.00000,0.03013,0.98027,-0.17409,0.0,2023,6,8,13,39,18,950
1.21430,-0.21262,-0.07087,0.00000,0.03379,0.97807,-0.17117,0.0,2023,6,8,13,39,18,961
1.21440,0.13738,-0.24587,0.00000,0.03074,0.97868,-0.17226,0.0,2023,6,8,13,39,18,973
1.21450,-0.02012,0.03413,0.00000,0.03099,0.97832,-0.17373,0.0,2023,6,8,13,39,18,984
1.21460,0.18988,-0.05337,0.00000,0.02940,0.97551,-0.17556,0.0,2023,6,8,13,39,19,5
1.21470,-0.02012,0.01663,0.00000,0.02928,0.98027,-0.17446,0.0,2023,6,8,13,39,19,16
1.21480,-0.02012,0.12163,0.00000,0.02977,0.97771,-0.17104,0.0,2023,6,8,13,39,19,27
1.21490,-0.00262,-0.08837,0.00000,0.03038,0.98186,-0.17226,0.0,2023,6,8,13,39,19,38
1.21500,0.08488,0.01663,0.00000,0.03087,0.97844,-0.17153,0.0,2023,6,8,13,39,19,49
1.21510,-0.00262,0.06913,0.00000,0.02952,0.97771,-0.17348,0.0,2023,6,8,13,39,19,60
1.21520,-0.19512,0.08663,0.00000,0.03184,0.97600,-0.17397,0.0,2023,6,8,13,39,19,71
1.21530,-0.02012,0.12163,0.00000,0.03026,0.97966,-0.17361,0.0,2023,6,8,13,39,19,83
1.21540,-0.00262,-0.08837,0.00000,0.03074,0.97844,-0.17141,0.0,2023,6,8,13,39,19,94
1.21550,0.04988,0.12163,0.00000,0.02977,0.97893,-0.17202,0.0,2023,6,8,13,39,19,105
1.21560,-0.03762,-0.08837,0.00000,0.03184,0.97576,-0.17422,0.0,2023,6,8,13,39,19,116
1.21570,-0.07262,-0.03587,0.00000,0.03099,0.97893,-0.17385,0.0,2023,6,8,13,39,19,127
1.21580,-0.16012,0.03413,0.00000,0.02891,0.97820,-0.17104,0.0,2023,6,8,13,39,19,138
1.21590,-0.07262,0.05163,0.00000,0.02818,0.97917,-0.17080,0.0,2023,6,8,13,39,19,149
1.21600,0.15488,0.10413,0.00000,0.03465,0.97624,-0.17312,0.0,2023,6,8,13,39,19,160
1.21610,0.22488,0.13913,0.00000,0.02952,0.98051,-0.17507,0.0,2023,6,8,13,39,19,171
1.21620,-0.24762,-0.01837,0.00000,0.02879,0.97759,-0.17300,0.0,2023,6,8,13,39,19,183
1.21630,0.13738,0.12163,0.00000,0.03038,0.98039,-0.17300,0.0,2023,6,8,13,39,19,194
1.21640,-0.14262,0.15663,0.00000,0.03221,0.97893,-0.17190,0.0,2023,6,8,13,39,19,205
1.21650,0.20738,-0.14087,0.00000,0.03160,0.97783,-0.17409,0.0,2023,6,8,13,39,19,216
1.21660,0.03238,0.06913,0.00000,0.03087,0.97929,-0.17458,0.0,2023,6,8,13,39,19,227
1.21670,-0.09012,-0.01837,0.00000,0.03050,0.98125,-0.17434,0.0,2023,6,8,13,39,19,238
1.21680,0.01488,0.24413,0.00000,0.03160,0.97685,-0.17409,0.0,2023,6,8,13,39,19,249
1.21690,0.08488,-0.03587,0.00000,0.03135,0.98210,-0.17165,0.0,2023,6,8,13,39,19,260
1.21700,0.06738,0.17413,0.00000,0.03123,0.97563,-0.17226,0.0,2023,6,8,13,39,19,271
1.21710,-0.14262,0.15663,0.00000,0.03148,0.97734,-0.17190,0.0,2023,6,8,13,39,19,283
1.21720,-0.09012,0.01663,0.00000,0.03135,0.97734,-0.17153,0.0,2023,6,8,13,39,19,294
1.21730,-0.10762,-0.08837,0.00000,0.03099,0.97698,-0.17153,0.0,2023,6,8,13,39,19,305
1.21740,0.11988,-0.15837,0.00000,0.02928,0.97844,-0.17336,0.0,2023,6,8,13,39,19,316
1.21750,-0.26512,-0.00087,0.00000,0.03306,0.97783,-0.17287,0.0,2023,6,8,13,39,19,327
1.21760,0.04988,0.24413,0.00000,0.03343,0.97954,-0.17312,0.0,2023,6,8,13,39,19,338
1.21770,-0.10762,0.13913,0.00000,0.03038,0.98039,-0.17239,0.0,2023,6,8,13,39,19,349
1.21780,0.01488,0.10413,0.00000,0.03050,0.97795,-0.17129,0.0,2023,6,8,13,39,19,360
1.21790,-0.05512,0.05163,0.00000,0.03111,0.97771,-0.17385,0.0,2023,6,8,13,39,19,371
1.21800,0.03238,0.15663,0.00000,0.02855,0.97954,-0.17361,0.0,2023,6,8,13,39,19,383
1.21810,-0.03762,0.10413,0.00000,0.02891,0.97820,-0.17397,0.0,2023,6,8,13,39,19,394
1.21820,-0.09012,0.19163,0.00000,0.03062,0.97771,-0.17226,0.0,2023,6,8,13,39,19,405
1.21830,-0.23012,0.15663,0.00000,0.03026,0.97942,-0.17275,0.0,2023,6,8,13,39,19,416
1.21840,0.24238,0.12163,0.00000,0.02940,0.97759,-0.17300,0.0,2023,6,8,13,39,19,427
1.21850,-0.09012,0.05163,0.00000,0.03050,0.97929,-0.17495,0.0,2023,6,8,13,39,19,438
1.21860,0.01488,-0.00087,0.00000,0.03172,0.97905,-0.17336,0.0,2023,6,8,13,39,19,449
1.21870,-0.21262,0.17413,0.00000,0.03013,0.97966,-0.17397,0.0,2023,6,8,13,39,19,460
1.21880,-0.10762,0.15663,0.00000,0.02965,0.98088,-0.17348,0.0,2023,6,8,13,39,19,471
1.21890,-0.09012,-0.03587,0.00000,0.02879,0.97856,-0.17458,0.0,2023,6,8,13,39,19,483
1.21900,0.13738,0.03413,0.00000,0.03148,0.97771,-0.17214,0.0,2023,6,8,13,39,19,494
1.21910,0.01488,0.13913,0.00000,0.02989,0.97881,-0.17568,0.0,2023,6,8,13,39,19,505
1.21920,-0.14262,0.10413,0.00000,0.03001,0.97868,-0.17446,0.0,2023,6,8,13,39,19,516
1.21930,-0.09012,-0.01837,0.00000,0.03233,0.97673,-0.17397,0.0,2023,6,8,13,39,19,527
1.21940,-0.02012,0.26163,0.00000,0.03123,0.98112,-0.17361,0.0,2023,6,8,13,39,19,538
1.21950,-0.12512,0.10413,0.00000,0.03099,0.97734,-0.17275,0.0,2023,6,8,13,39,19,549
1.21960,-0.17762,0.29663,0.00000,0.03221,0.97783,-0.17422,0.0,2023,6,8,13,39,19,560
1.21970,-0.23012,0.08663,0.00000,0.03050,0.97929,-0.17287,0.0,2023,6,8,13,39,19,571
1.21980,-0.05512,0.29663,0.00000,0.03087,0.97929,-0.17239,0.0,2023,6,8,13,39,19,583
1.21990,-0.00262,0.34913,0.00000,0.03501,0.97978,-0.17324,0.0,2023,6,8,13,39,19,594
1.22000,0.11988,0.01663,0.00000,0.02965,0.97771,-0.17287,0.0,2023,6,8,13,39,19,605
1.22010,0.10238,-0.03587,0.00000,0.03050,0.97795,-0.17531,0.0,2023,6,8,13,39,19,616
1.22020,-0.12512,0.12163,0.00000,0.03221,0.97563,-0.17385,0.0,2023,6,8,13,39,19,627
1.22030,-0.02012,0.10413,0.00000,0.03111,0.97783,-0.17385,0.0,2023,6,8,13,39,19,638
1.22040,-0.02012,0.12163,0.00000,0.03111,0.97807,-0.17202,0.0,2023,6,8,13,39,19,649
1.22050,-0.02012,0.08663,0.00000,0.03013,0.97710,-0.17507,0.0,2023,6,8,13,39,19,660
1.22060,-0.19512,0.13913,0.00000,0.03245,0.97807,-0.17178,0.0,2023,6,8,13,39,19,671
1.22070,-0.02012,0.13913,0.00000,0.03111,0.98186,-0.17239,0.0,2023,6,8,13,39,19,683
1.22080,-0.10762,-0.03587,0.00000,0.03270,0.97746,-0.17104,0.0,2023,6,8,13,39,19,694
1.22090,-0.07262,0.13913,0.00000,0.03172,0.97844,-0.17336,0.0,2023,6,8,13,39,19,705
1.22100,0.15488,-0.01837,0.00000,0.02904,0.97868,-0.17226,0.0,2023,6,8,13,39,19,716
1.22110,0.01488,-0.07087,0.00000,0.03184,0.97734,-0.17202,0.0,2023,6,8,13,39,19,727
1.22120,-0.19512,0.06913,0.00000,0.03148,0.97868,-0.17422,0.0,2023,6,8,13,39,19,738
1.22130,0.01488,0.06913,0.00000,0.03245,0.98003,-0.17483,0.0,2023,6,8,13,39,19,749
1.22140,-0.24762,0.03413,0.00000,0.02891,0.97856,-0.17226,0.0,2023,6,8,13,39,19,760
1.22150,-0.14262,0.06913,0.00000,0.03184,0.97673,-0.17190,0.0,2023,6,8,13,39,19,771
1.22160,-0.17762,0.08663,0.00000,0.02867,0.97905,-0.17226,0.0,2023,6,8,13,39,19,783
1.22170,-0.07262,0.15663,0.00000,0.03087,0.97746,-0.17300,0.0,2023,6,8,13,39,19,794
1.22180,-0.26512,0.03413,0.00000,0.03196,0.97820,-0.17519,0.0,2023,6,8,13,39,19,805
1.22190,-0.09012,0.15663,0.00000,0.02879,0.97978,-0.17385,0.0,2023,6,8,13,39,19,816
1.22200,0.01488,0.13913,0.00000,0.02867,0.97807,-0.17373,0.0,2023,6,8,13,39,19,827
1.22210,-0.24762,0.01663,0.00000,0.03038,0.98088,-0.17385,0.0,2023,6,8,13,39,19,838
1.22220,0.04988,-0.01837,0.00000,0.03245,0.97917,-0.17336,0.0,2023,6,8,13,39,19,849
1.22230,-0.03762,-0.01837,0.00000,0.02928,0.97881,-0.17397,0.0,2023,6,8,13,39,19,860
1.22240,0.01488,0.05163,0.00000,0.03111,0.97600,-0.17348,0.0,2023,6,8,13,39,19,871
1.22250,-0.07262,0.03413,0.00000,0.02794,0.98076,-0.17458,0.0,2023,6,8,13,39,19,883
1.22260,-0.07262,-0.14087,0.00000,0.02989,0.97807,-0.17312,0.0,2023,6,8,13,39,19,894
1.22270,-0.19512,-0.07087,0.00000,0.02904,0.97807,-0.17214,0.0,2023,6,8,13,39,19,905
1.22280,0.13738,-0.01837,0.00000,0.03148,0.97856,-0.17361,0.0,2023,6,8,13,39,19,916
1.22290,0.06738,-0.08837,0.00000,0.03257,0.97942,-0.17324,0.0,2023,6,8,13,39,19,927
1.22300,0.06738,-0.10587,0.00000,0.03001,0.97881,-0.17287,0.0,2023,6,8,13,39,19,938
1.22310,0.01488,-0.15837,0.00000,0.03099,0.97929,-0.17226,0.0,2023,6,8,13,39,19,949
1.22320,-0.10762,0.17413,0.00000,0.02977,0.98015,-0.17373,0.0,2023,6,8,13,39,19,960
1.22330,-0.09012,0.01663,0.00000,0.02806,0.97734,-0.17092,0.0,2023,6,8,13,39,19,971
1.22340,0.01488,-0.08837,0.00000,0.03038,0.97820,-0.17300,0.0,2023,6,8,13,39,19,983
1.22350,0.06738,-0.01837,0.00000,0.03196,0.97856,-0.17361,0.0,2023,6,8,13,39,19,994
1.22360,-0.10762,0.03413,0.00000,0.03257,0.97746,-0.17397,0.0,2023,6,8,13,39,20,5
1.22370,0.18988,-0.21087,0.00000,0.03184,0.97734,-0.17507,0.0,2023,6,8,13,39,20,16
1.22380,-0.02012,-0.00087,0.00000,0.03087,0.97539,-0.17483,0.0,2023,6,8,13,39,20,27
1.22390,-0.10762,0.19163,0.00000,0.02891,0.97844,-0.17275,0.0,2023,6,8,13,39,20,38
1.22400,-0.10762,0.10413,0.00000,0.03172,0.97856,-0.17336,0.0,2023,6,8,13,39,20,49
1.22410,-0.07262,0.13913,0.00000,0.03013,0.97759,-0.17300,0.0,2023,6,8,13,39,20,60
1.22420,0.20738,0.08663,0.00000,0.02952,0.98003,-0.17458,0.0,2023,6,8,13,39,20,71
1.22430,-0.02012,-0.07087,0.00000,0.03062,0.97783,-0.17470,0.0,2023,6,8,13,39,20,83
1.22440,0.17238,0.06913,0.00000,0.02843,0.97624,-0.17190,0.0,2023,6,8,13,39,20,94
1.22450,0.13738,-0.05337,0.00000,0.03184,0.97844,-0.17531,0.0,2023,6,8,13,39,20,105
1.22460,-0.03762,-0.08837,0.00000,0.02952,0.97917,-0.17519,0.0,2023,6,8,13,39,20,116
1.22470,0.04988,0.01663,0.00000,0.02989,0.97734,-0.17214,0.0,2023,6,8,13,39,20,127
1.22480,-0.14262,0.24413,0.00000,0.03099,0.97795,-0.17397,0.0,2023,6,8,13,39,20,138
1.22490,-0.02012,0.24413,0.00000,0.03026,0.97783,-0.17373,0.0,2023,6,8,13,39,20,149
1.22500,-0.19512,-0.00087,0.00000,0.03148,0.97868,-0.17470,0.0,2023,6,8,13,39,20,160
1.22510,0.10238,0.26163,0.00000,0.02769,0.97942,-0.17434,0.0,2023,6,8,13,39,20,171
1.22520,0.03238,0.20913,0.00000,0.03074,0.97893,-0.17763,0.0,2023,6,8,13,39,20,183
1.22530,-0.03762,0.10413,0.00000,0.02916,0.97783,-0.17544,0.0,2023,6,8,13,39,20,194
1.22540,0.04988,-0.03587,0.00000,0.02940,0.97783,-0.17239,0.0,2023,6,8,13,39,20,205
1.22550,0.04988,0.19163,0.00000,0.02928,0.97917,-0.17531,0.0,2023,6,8,13,39,20,216
1.22560,-0.09012,-0.07087,0.00000,0.03026,0.97893,-0.17263,0.0,2023,6,8,13,39,20,227
1.22570,-0.07262,0.17413,0.00000,0.03050,0.97917,-0.17544,0.0,2023,6,8,13,39,20,238
1.22580,-0.12512,-0.03587,0.00000,0.03013,0.98027,-0.17434,0.0,2023,6,8,13,39,20,249
1.22590,0.01488,-0.19337,0.00000,0.03074,0.97954,-0.17287,0.0,2023,6,8,13,39,20,260
1.22600,-0.12512,0.17413,0.00000,0.03111,0.97868,-0.17239,0.0,2023,6,8,13,39,20,271
1.22610,0.06738,-0.10587,0.00000,0.03196,0.97637,-0.17422,0.0,2023,6,8,13,39,20,283
1.22620,-0.16012,0.20913,0.00000,0.03111,0.97856,-0.17361,0.0,2023,6,8,13,39,20,294
1.22630,-0.05512,0.12163,0.00000,0.03026,0.97893,-0.17458,0.0,2023,6,8,13,39,20,305
1.22640,-0.07262,-0.00087,0.00000,0.03123,0.97783,-0.17495,0.0,2023,6,8,13,39,20,316
1.22650,0.08488,-0.00087,0.00000,0.03038,0.97746,-0.17336,0.0,2023,6,8,13,39,20,327
1.22660,0.01488,0.03413,0.00000,0.03148,0.97807,-0.17592,0.0,2023,6,8,13,39,20,338
1.22670,0.06738,0.08663,0.00000,0.03062,0.97832,-0.17531,0.0,2023,6,8,13,39,20,349
1.22680,-0.05512,0.01663,0.00000,0.03111,0.97820,-0.17434,0.0,2023,6,8,13,39,20,360
1.22690,0.03238,0.24413,0.00000,0.03148,0.98015,-0.17531,0.0,2023,6,8,13,39,20,371
1.22700,-0.00262,0.13913,0.00000,0.03001,0.97783,-0.17592,0.0,2023,6,8,13,39,20,383
1.22710,-0.09012,0.05163,0.00000,0.03123,0.97673,-0.17300,0.0,2023,6,8,13,39,20,394
1.22720,-0.21262,0.08663,0.00000,0.02928,0.97783,-0.17446,0.0,2023,6,8,13,39,20,405
1.22730,-0.02012,-0.03587,0.00000,0.03184,0.97966,-0.17434,0.0,2023,6,8,13,39,20,416
1.22740,-0.12512,0.12163,0.00000,0.03148,0.97771,-0.17373,0.0,2023,6,8,13,39,20,427
1.22750,0.13738,0.01663,0.00000,0.03038,0.97978,-0.17422,0.0,2023,6,8,13,39,20,438
1.22760,-0.02012,0.29663,0.00000,0.03196,0.97746,-0.17605,0.0,2023,6,8,13,39,20,449
1.22770,0.22488,0.15663,0.00000,0.03160,0.97624,-0.17495,0.0,2023,6,8,13,39,20,460
1.22780,0.08488,0.01663,0.00000,0.03209,0.97868,-0.17495,0.0,2023,6,8,13,39,20,471
1.22790,-0.07262,0.05163,0.00000,0.03135,0.97832,-0.17178,0.0,2023,6,8,13,39,20,483
1.22800,0.06738,0.08663,0.00000,0.03062,0.97673,-0.17470,0.0,2023,6,8,13,39,20,494
1.22810,0.18988,-0.00087,0.00000,0.02989,0.97893,-0.17519,0.0,2023,6,8,13,39,20,505
1.22820,-0.12512,-0.03587,0.00000,0.03062,0.97905,-0.17495,0.0,2023,6,8,13,39,20,516
1.22830,0.01488,0.03413,0.00000,0.03233,0.97624,-0.17714,0.0,2023,6,8,13,39,20,527
1.22840,-0.03762,-0.00087,0.00000,0.03050,0.97844,-0.17507,0.0,2023,6,8,13,39,20,538
1.22850,-0.26512,0.17413,0.00000,0.03013,0.97978,-0.17348,0.0,2023,6,8,13,39,20,549
1.22860,0.03238,0.05163,0.00000,0.03196,0.97588,-0.17409,0.0,2023,6,8,13,39,20,560
1.22870,-0.17762,0.08663,0.00000,0.03074,0.97710,-0.17129,0.0,2023,6,8,13,39,20,571
1.22880,-0.02012,-0.08837,0.00000,0.03087,0.97820,-0.17470,0.0,2023,6,8,13,39,20,583
1.22890,0.15488,0.01663,0.00000,0.02904,0.97783,-0.17373,0.0,2023,6,8,13,39,20,594
1.22900,0.04988,0.05163,0.00000,0.03099,0.97624,-0.17397,0.0,2023,6,8,13,39,20,605
1.22910,-0.00262,0.03413,0.00000,0.02867,0.97917,-0.17641,0.0,2023,6,8,13,39,20,616
1.22920,-0.03762,-0.33337,0.00000,0.02879,0.97746,-0.17592,0.0,2023,6,8,13,39,20,627
1.22930,-0.17762,0.12163,0.00000,0.02928,0.97929,-0.17287,0.0,2023,6,8,13,39,20,638
1.22940,0.03238,0.01663,0.00000,0.03343,0.97856,-0.17300,0.0,2023,6,8,13,39,20,649
1.22950,0.04988,-0.12337,0.00000,0.03282,0.97795,-0.17666,0.0,2023,6,8,13,39,20,660
1.22960,0.06738,0.15663,0.00000,0.02977,0.97673,-0.17605,0.0,2023,6,8,13,39,20,671
1.22970,-0.17762,0.12163,0.00000,0.03062,0.97893,-0.17409,0.0,2023,6,8,13,39,20,683
1.22980,0.04988,0.05163,0.00000,0.02989,0.98064,-0.17458,0.0,2023,6,8,13,39,20,694
1.22990,-0.14262,0.13913,0.00000,0.03294,0.98039,-0.17373,0.0,2023,6,8,13,39,20,705
1.23000,0.03238,-0.12337,0.00000,0.03111,0.97771,-0.17519,0.0,2023,6,8,13,39,20,716
1.23010,0.13738,0.12163,0.00000,0.02977,0.97917,-0.17275,0.0,2023,6,8,13,39,20,727
1.23020,-0.16012,0.22663,0.00000,0.03233,0.97807,-0.17763,0.0,2023,6,8,13,39,20,738
1.23030,0.10238,-0.01837,0.00000,0.03099,0.97832,-0.17446,0.0,2023,6,8,13,39,20,749
1.23040,-0.07262,0.17413,0.00000,0.03135,0.97905,-0.17361,0.0,2023,6,8,13,39,20,760
1.23050,-0.14262,0.05163,0.00000,0.03026,0.97954,-0.17373,0.0,2023,6,8,13,39,20,771
1.23060,0.11988,0.03413,0.00000,0.03135,0.97746,-0.17385,0.0,2023,6,8,13,39,20,783
1.23070,-0.12512,0.08663,0.00000,0.03184,0.97929,-0.17434,0.0,2023,6,8,13,39,20,794
1.23080,-0.03762,-0.10587,0.00000,0.03135,0.97771,-0.17214,0.0,2023,6,8,13,39,20,805
1.23090,0.04988,0.10413,0.00000,0.03123,0.97771,-0.17275,0.0,2023,6,8,13,39,20,816
1.23100,0.20738,-0.00087,0.00000,0.02965,0.97746,-0.17373,0.0,2023,6,8,13,39,20,827
1.23110,0.15488,-0.10587,0.00000,0.03172,0.97893,-0.17507,0.0,2023,6,8,13,39,20,838
1.23120,0.08488,-0.10587,0.00000,0.03001,0.97966,-0.17275,0.0,2023,6,8,13,39,20,849
1.23130,0.03238,0.03413,0.00000,0.02989,0.97759,-0.17239,0.0,2023,6,8,13,39,20,860
1.23140,0.22488,0.06913,0.00000,0.02818,0.97746,-0.17214,0.0,2023,6,8,13,39,20,871
1.23150,0.15488,-0.05337,0.00000,0.03038,0.97759,-0.17458,0.0,2023,6,8,13,39,20,883
1.23160,-0.12512,0.15663,0.00000,0.02940,0.97795,-0.17348,0.0,2023,6,8,13,39,20,894
1.23170,0.10238,0.06913,0.00000,0.03172,0.98039,-0.17531,0.0,2023,6,8,13,39,20,905
1.23180,-0.00262,0.03413,0.00000,0.03282,0.97844,-0.17263,0.0,2023,6,8,13,39,20,916
1.23190,-0.03762,0.19163,0.00000,0.02989,0.97893,-0.17531,0.0,2023,6,8,13,39,20,927
1.23200,-0.09012,0.15663,0.00000,0.03001,0.97844,-0.17275,0.0,2023,6,8,13,39,20,938
1.23210,0.04988,-0.07087,0.00000,0.03062,0.97820,-0.17580,0.0,2023,6,8,13,39,20,949
1.23220,-0.14262,0.24413,0.00000,0.03209,0.97893,-0.17336,0.0,2023,6,8,13,39,20,960
1.23230,-0.02012,-0.12337,0.00000,0.03026,0.98076,-0.17275,0.0,2023,6,8,13,39,20,971
1.23240,0.13738,0.13913,0.00000,0.02843,0.97856,-0.17409,0.0,2023,6,8,13,39,20,983
1.23250,-0.12512,-0.01837,0.00000,0.02940,0.97881,-0.17153,0.0,2023,6,8,13,39,20,994
1.23260,0.29488,0.08663,0.00000,0.03294,0.97673,-0.17275,0.0,2023,6,8,13,39,21,5
1.23270,-0.12512,0.05163,0.00000,0.03209,0.98112,-0.17446,0.0,2023,6,8,13,39,21,16
1.23280,-0.19512,0.34913,0.00000,0.02916,0.97783,-0.17348,0.0,2023,6,8,13,39,21,27
1.23290,0.03238,-0.05337,0.00000,0.03135,0.97637,-0.17422,0.0,2023,6,8,13,39,21,38
1.23300,0.04988,-0.15837,0.00000,0.03148,0.97905,-0.17592,0.0,2023,6,8,13,39,21,49
1.23310,-0.03762,-0.07087,0.00000,0.03123,0.97966,-0.17287,0.0,2023,6,8,13,39,21,60
1.23320,0.04988,-0.05337,0.00000,0.02940,0.97844,-0.17422,0.0,2023,6,8,13,39,21,71
1.23330,0.04988,-0.03587,0.00000,0.03099,0.97820,-0.17141,0.0,2023,6,8,13,39,21,83
1.23340,0.01488,-0.01837,0.00000,0.03270,0.97734,-0.17373,0.0,2023,6,8,13,39,21,94
1.23350,0.17238,-0.17587,0.00000,0.03135,0.97978,-0.17312,0.0,2023,6,8,13,39,21,105
1.23360,0.27738,-0.08837,0.00000,0.03428,0.98137,-0.17214,0.0,2023,6,8,13,39,21,116
1.23370,-0.07262,0.17413,0.00000,0.02989,0.98027,-0.17190,0.0,2023,6,8,13,39,21,127
1.23380,-0.05512,0.08663,0.00000,0.02940,0.97685,-0.17422,0.0,2023,6,8,13,39,21,138
1.23390,-0.07262,-0.15837,0.00000,0.03074,0.98076,-0.17385,0.0,2023,6,8,13,39,21,149
1.23400,-0.17762,0.17413,0.00000,0.02977,0.97917,-0.17202,0.0,2023,6,8,13,39,21,160
1.23410,0.08488,0.10413,0.00000,0.02965,0.98064,-0.17300,0.0,2023,6,8,13,39,21,171
1.23420,-0.09012,0.08663,0.00000,0.03282,0.97820,-0.17275,0.0,2023,6,8,13,39,21,183
1.23430,0.01488,0.13913,0.00000,0.03221,0.97856,-0.17544,0.0,2023,6,8,13,39,21,194
1.23440,-0.17762,0.08663,0.00000,0.03184,0.98064,-0.17385,0.0,2023,6,8,13,39,21,205
1.23450,0.03238,-0.15837,0.00000,0.03135,0.97795,-0.17605,0.0,2023,6,8,13,39,21,216
1.23460,0.04988,-0.00087,0.00000,0.02928,0.97905,-0.17300,0.0,2023,6,8,13,39,21,227
1.23470,0.03238,0.10413,0.00000,0.03172,0.97990,-0.17470,0.0,2023,6,8,13,39,21,238
1.23480,-0.14262,-0.14087,0.00000,0.03087,0.97759,-0.17287,0.0,2023,6,8,13,39,21,249
1.23490,0.03238,-0.19337,0.00000,0.03379,0.97844,-0.17324,0.0,2023,6,8,13,39,21,260
1.23500,-0.14262,0.22663,0.00000,0.03270,0.98003,-0.17287,0.0,2023,6,8,13,39,21,271
1.23510,-0.05512,-0.15837,0.00000,0.03135,0.98027,-0.17117,0.0,2023,6,8,13,39,21,283
1.23520,0.03238,0.08663,0.00000,0.03001,0.97844,-0.17336,0.0,2023,6,8,13,39,21,294
1.23530,0.11988,0.20913,0.00000,0.03087,0.97942,-0.17251,0.0,2023,6,8,13,39,21,305
1.23540,0.06738,0.10413,0.00000,0.03001,0.97832,-0.17239,0.0,2023,6,8,13,39,21,316
1.23550,-0.03762,-0.01837,0.00000,0.03245,0.97844,-0.17336,0.0,2023,6,8,13,39,21,327
1.23560,-0.17762,0.10413,0.00000,0.03123,0.97600,-0.17470,0.0,2023,6,8,13,39,21,338
1.23570,0.24238,-0.00087,0.00000,0.03099,0.97771,-0.17422,0.0,2023,6,8,13,39,21,349
1.23580,0.01488,-0.01837,0.00000,0.03196,0.97783,-0.17568,0.0,2023,6,8,13,39,21,360
1.23590,-0.03762,0.01663,0.00000,0.02891,0.97929,-0.17202,0.0,2023,6,8,13,39,21,371
1.23600,-0.23012,0.12163,0.00000,0.02977,0.97795,-0.17458,0.0,2023,6,8,13,39,21,383
1.23610,-0.03762,-0.08837,0.00000,0.03196,0.97868,-0.17580,0.0,2023,6,8,13,39,21,394
1.23620,-0.23012,0.20913,0.00000,0.03013,0.97844,-0.17666,0.0,2023,6,8,13,39,21,405
1.23630,0.08488,-0.24587,0.00000,0.03209,0.98076,-0.17300,0.0,2023,6,8,13,39,21,416
1.23640,-0.17762,-0.15837,0.00000,0.03148,0.98125,-0.17690,0.0,2023,6,8,13,39,21,427
1.23650,-0.02012,-0.08837,0.00000,0.03074,0.97820,-0.17458,0.0,2023,6,8,13,39,21,438
1.23660,0.15488,-0.01837,0.00000,0.02940,0.97807,-0.17434,0.0,2023,6,8,13,39,21,449
1.23670,0.03238,-0.05337,0.00000,0.03026,0.97722,-0.17519,0.0,2023,6,8,13,39,21,460
1.23680,0.15488,0.01663,0.00000,0.02989,0.97807,-0.17409,0.0,2023,6,8,13,39,21,471
1.23690,-0.14262,-0.08837,0.00000,0.03123,0.97881,-0.17373,0.0,2023,6,8,13,39,21,483
1.23700,0.10238,0.10413,0.00000,0.02879,0.97905,-0.17592,0.0,2023,6,8,13,39,21,494
1.23710,-0.09012,-0.01837,0.00000,0.03111,0.97673,-0.17666,0.0,2023,6,8,13,39,21,505
1.23720,0.03238,0.01663,0.00000,0.03318,0.97820,-0.17373,0.0,2023,6,8,13,39,21,516
1.23730,-0.12512,0.20913,0.00000,0.03099,0.97868,-0.17592,0.0,2023,6,8,13,39,21,527
1.23740,0.10238,0.03413,0.00000,0.03184,0.97844,-0.17470,0.0,2023,6,8,13,39,21,538
1.23750,-0.03762,0.10413,0.00000,0.03099,0.97698,-0.17605,0.0,2023,6,8,13,39,21,549
1.23760,0.03238,-0.07087,0.00000,0.03050,0.97917,-0.17495,0.0,2023,6,8,13,39,21,560
1.23770,-0.12512,-0.00087,0.00000,0.03013,0.97917,-0.17434,0.0,2023,6,8,13,39,21,571
1.23780,-0.14262,0.05163,0.00000,0.02989,0.98003,-0.17458,0.0,2023,6,8,13,39,21,583
1.23790,0.11988,0.01663,0.00000,0.03087,0.97856,-0.17397,0.0,2023,6,8,13,39,21,594
1.23800,-0.05512,-0.01837,0.00000,0.03013,0.98198,-0.17263,0.0,2023,6,8,13,39,21,605
1.23810,0.06738,0.05163,0.00000,0.03026,0.98039,-0.17592,0.0,2023,6,8,13,39,21,616
1.23820,0.06738,0.06913,0.00000,0.02952,0.97844,-0.17226,0.0,2023,6,8,13,39,21,627
1.23830,-0.14262,0.10413,0.00000,0.03123,0.97710,-0.17434,0.0,2023,6,8,13,39,21,638
1.23840,0.01488,0.01663,0.00000,0.03282,0.97722,-0.17422,0.0,2023,6,8,13,39,21,649
1.23850,-0.16012,-0.03587,0.00000,0.03013,0.97673,-0.17165,0.0,2023,6,8,13,39,21,660
1.23860,-0.03762,0.08663,0.00000,0.02891,0.97820,-0.17458,0.0,2023,6,8,13,39,21,671
1.23870,-0.05512,0.01663,0.00000,0.03074,0.97856,-0.17470,0.0,2023,6,8,13,39,21,683
1.23880,-0.09012,0.06913,0.00000,0.03221,0.97759,-0.17483,0.0,2023,6,8,13,39,21,694
1.23890,-0.07262,-0.01837,0.00000,0.03184,0.97917,-0.17214,0.0,2023,6,8,13,39,21,705
1.23900,0.08488,0.12163,0.00000,0.03172,0.97624,-0.17275,0.0,2023,6,8,13,39,21,716
1.23910,-0.07262,-0.08837,0.00000,0.03160,0.97710,-0.17300,0.0,2023,6,8,13,39,21,727
1.23920,0.13738,0.29663,0.00000,0.02989,0.97942,-0.17153,0.0,2023,6,8,13,39,21,738
1.23930,0.06738,-0.03587,0.00000,0.03123,0.97978,-0.17434,0.0,2023,6,8,13,39,21,749
1.23940,0.08488,0.20913,0.00000,0.03087,0.97868,-0.17434,0.0,2023,6,8,13,39,21,760
1.23950,-0.02012,-0.01837,0.00000,0.03257,0.97759,-0.17312,0.0,2023,6,8,13,39,21,771
1.23960,0.10238,-0.00087,0.00000,0.03135,0.97710,-0.17361,0.0,2023,6,8,13,39,21,783
1.23970,0.10238,0.06913,0.00000,0.03233,0.97588,-0.17214,0.0,2023,6,8,13,39,21,794
1.23980,-0.07262,-0.05337,0.00000,0.03026,0.97893,-0.17202,0.0,2023,6,8,13,39,21,805
1.23990,-0.17762,-0.05337,0.00000,0.02965,0.97502,-0.17300,0.0,2023,6,8,13,39,21,816
1.24000,-0.21262,0.26163,0.00000,0.03111,0.97771,-0.17190,0.0,2023,6,8,13,39,21,827
1.24010,-0.10762,0.10413,0.00000,0.03123,0.97844,-0.17580,0.0,2023,6,8,13,39,21,838
1.24020,-0.14262,-0.03587,0.00000,0.03160,0.98064,-0.17373,0.0,2023,6,8,13,39,21,849
1.24030,-0.05512,0.05163,0.00000,0.03050,0.97893,-0.17446,0.0,2023,6,8,13,39,21,860
1.24040,-0.00262,0.08663,0.00000,0.03038,0.97746,-0.17495,0.0,2023,6,8,13,39,21,871
1.24050,0.17238,-0.01837,0.00000,0.03074,0.97844,-0.17068,0.0,2023,6,8,13,39,21,883
1.24060,0.10238,-0.03587,0.00000,0.03123,0.97734,-0.17361,0.0,2023,6,8,13,39,21,894
1.24070,-0.03762,-0.14087,0.00000,0.03123,0.97807,-0.17324,0.0,2023,6,8,13,39,21,905
1.24080,-0.00262,-0.01837,0.00000,0.03050,0.97600,-0.17592,0.0,2023,6,8,13,39,21,916
1.24090,-0.07262,0.15663,0.00000,0.03184,0.97820,-0.17483,0.0,2023,6,8,13,39,21,927
1.24100,-0.10762,0.08663,0.00000,0.03087,0.98076,-0.17483,0.0,2023,6,8,13,39,21,938
1.24110,-0.00262,0.08663,0.00000,0.02818,0.97685,-0.17458,0.0,2023,6,8,13,39,21,949
1.24120,-0.00262,-0.03587,0.00000,0.03196,0.97502,-0.17483,0.0,2023,6,8,13,39,21,960
1.24130,0.10238,-0.14087,0.00000,0.03038,0.98076,-0.17531,0.0,2023,6,8,13,39,21,971
1.24140,-0.00262,-0.03587,0.00000,0.03062,0.97832,-0.17495,0.0,2023,6,8,13,39,21,983
1.24150,0.08488,0.03413,0.00000,0.03062,0.97783,-0.17361,0.0,2023,6,8,13,39,22,4
1.24160,-0.03762,0.06913,0.00000,0.03233,0.97868,-0.17507,0.0,2023,6,8,13,39,22,15
1.24170,0.04988,0.13913,0.00000,0.03245,0.97771,-0.17544,0.0,2023,6,8,13,39,22,26
1.24180,-0.33512,0.12163,0.00000,0.03148,0.97612,-0.17275,0.0,2023,6,8,13,39,22,37
1.24190,-0.09012,0.08663,0.00000,0.02977,0.97917,-0.17507,0.0,2023,6,8,13,39,22,48
1.24200,-0.03762,0.05163,0.00000,0.03099,0.97881,-0.17385,0.0,2023,6,8,13,39,22,59
1.24210,0.04988,-0.03587,0.00000,0.03050,0.97966,-0.17531,0.0,2023,6,8,13,39,22,70
1.24220,-0.05512,-0.01837,0.00000,0.03270,0.97832,-0.17300,0.0,2023,6,8,13,39,22,81
1.24230,-0.02012,0.05163,0.00000,0.03135,0.97820,-0.17300,0.0,2023,6,8,13,39,22,93
1.24240,-0.26512,0.03413,0.00000,0.03172,0.97795,-0.17495,0.0,2023,6,8,13,39,22,104
1.24250,-0.10762,-0.00087,0.00000,0.03233,0.97990,-0.17470,0.0,2023,6,8,13,39,22,115
1.24260,-0.21262,0.08663,0.00000,0.03172,0.97820,-0.17324,0.0,2023,6,8,13,39,22,126
1.24270,-0.00262,-0.10587,0.00000,0.02928,0.97966,-0.17373,0.0,2023,6,8,13,39,22,137
1.24280,-0.07262,0.06913,0.00000,0.03160,0.97978,-0.17470,0.0,2023,6,8,13,39,22,148
1.24290,-0.09012,0.12163,0.00000,0.03135,0.97807,-0.17300,0.0,2023,6,8,13,39,22,159
1.24300,-0.12512,0.06913,0.00000,0.02965,0.97868,-0.17214,0.0,2023,6,8,13,39,22,170
1.24310,-0.07262,0.08663,0.00000,0.03209,0.97820,-0.17544,0.0,2023,6,8,13,39,22,181
1.24320,0.22488,0.19163,0.00000,0.03050,0.98003,-0.17434,0.0,2023,6,8,13,39,22,193
1.24330,0.01488,0.05163,0.00000,0.03026,0.97624,-0.17470,0.0,2023,6,8,13,39,22,204
1.24340,0.10238,0.12163,0.00000,0.03013,0.97832,-0.17434,0.0,2023,6,8,13,39,22,215
1.24350,-0.16012,0.10413,0.00000,0.02952,0.97820,-0.17422,0.0,2023,6,8,13,39,22,226
1.24360,-0.14262,0.06913,0.00000,0.03062,0.97515,-0.17544,0.0,2023,6,8,13,39,22,237
1.24370,-0.23012,0.08663,0.00000,0.02989,0.97698,-0.17568,0.0,2023,6,8,13,39,22,248
1.24380,-0.23012,-0.00087,0.00000,0.03184,0.97807,-0.17324,0.0,2023,6,8,13,39,22,259
1.24390,0.20738,0.24413,0.00000,0.03038,0.98015,-0.17385,0.0,2023,6,8,13,39,22,270
1.24400,-0.00262,0.10413,0.00000,0.02855,0.97881,-0.17324,0.0,2023,6,8,13,39,22,281
1.24410,0.01488,0.12163,0.00000,0.03074,0.97832,-0.17275,0.0,2023,6,8,13,39,22,293
1.24420,0.03238,0.01663,0.00000,0.02818,0.97820,-0.17287,0.0,2023,6,8,13,39,22,304
1.24430,0.08488,-0.05337,0.00000,0.03001,0.97954,-0.17519,0.0,2023,6,8,13,39,22,315
1.24440,-0.21262,0.06913,0.00000,0.02891,0.97832,-0.17568,0.0,2023,6,8,13,39,22,326
1.24450,0.08488,-0.05337,0.00000,0.02952,0.97893,-0.17519,0.0,2023,6,8,13,39,22,337
1.24460,-0.16012,-0.00087,0.00000,0.02879,0.97893,-0.17641,0.0,2023,6,8,13,39,22,348
1.24470,0.25988,-0.22837,0.00000,0.02940,0.97868,-0.17519,0.0,2023,6,8,13,39,22,359
1.24480,0.06738,0.06913,0.00000,0.02928,0.97807,-0.17336,0.0,2023,6,8,13,39,22,370
1.24490,-0.09012,0.03413,0.00000,0.03160,0.97893,-0.17348,0.0,2023,6,8,13,39,22,381
1.24500,-0.38762,0.26163,0.00000,0.02891,0.97637,-0.17580,0.0,2023,6,8,13,39,22,393
1.24510,0.01488,0.12163,0.00000,0.03111,0.97868,-0.17361,0.0,2023,6,8,13,39,22,404
1.24520,0.08488,-0.10587,0.00000,0.02928,0.97856,-0.17373,0.0,2023,6,8,13,39,22,415
1.24530,0.15488,-0.00087,0.00000,0.03233,0.97771,-0.17422,0.0,2023,6,8,13,39,22,426
1.24540,-0.05512,-0.26337,0.00000,0.03050,0.97820,-0.17714,0.0,2023,6,8,13,39,22,437
1.24550,-0.09012,0.01663,0.00000,0.03062,0.97844,-0.17336,0.0,2023,6,8,13,39,22,448
1.24560,0.01488,0.05163,0.00000,0.03038,0.97673,-0.17361,0.0,2023,6,8,13,39,22,459
1.24570,-0.07262,-0.00087,0.00000,0.03184,0.97783,-0.17605,0.0,2023,6,8,13,39,22,470
1.24580,0.03238,-0.05337,0.00000,0.03111,0.97856,-0.17361,0.0,2023,6,8,13,39,22,481
1.24590,-0.03762,0.01663,0.00000,0.03172,0.97673,-0.17458,0.0,2023,6,8,13,39,22,493
1.24600,0.04988,-0.03587,0.00000,0.03184,0.97649,-0.17434,0.0,2023,6,8,13,39,22,504
1.24610,0.01488,0.06913,0.00000,0.02952,0.97746,-0.17458,0.0,2023,6,8,13,39,22,515
1.24620,0.01488,0.33163,0.00000,0.03257,0.97868,-0.17373,0.0,2023,6,8,13,39,22,526
1.24630,0.03238,-0.00087,0.00000,0.03135,0.97771,-0.17287,0.0,2023,6,8,13,39,22,537
1.24640,-0.07262,-0.00087,0.00000,0.03123,0.97807,-0.17409,0.0,2023,6,8,13,39,22,548
1.24650,-0.07262,-0.00087,0.00000,0.03111,0.97917,-0.17458,0.0,2023,6,8,13,39,22,559
1.24660,-0.09012,0.03413,0.00000,0.03221,0.97832,-0.17336,0.0,2023,6,8,13,39,22,570
1.24670,0.03238,-0.01837,0.00000,0.03087,0.97551,-0.17446,0.0,2023,6,8,13,39,22,581
1.24680,0.10238,-0.10587,0.00000,0.02989,0.97893,-0.17519,0.0,2023,6,8,13,39,22,593
1.24690,0.01488,0.08663,0.00000,0.03123,0.97661,-0.17434,0.0,2023,6,8,13,39,22,604
1.24700,-0.16012,0.03413,0.00000,0.03233,0.97905,-0.17336,0.0,2023,6,8,13,39,22,615
1.24710,0.22488,0.03413,0.00000,0.02928,0.97844,-0.17653,0.0,2023,6,8,13,39,22,626
1.24720,0.01488,-0.08837,0.00000,0.03099,0.97795,-0.17324,0.0,2023,6,8,13,39,22,637
1.24730,-0.10762,0.03413,0.00000,0.03062,0.97856,-0.17190,0.0,2023,6,8,13,39,22,648
1.24740,0.13738,0.15663,0.00000,0.03233,0.97612,-0.17519,0.0,2023,6,8,13,39,22,659
1.24750,0.01488,0.19163,0.00000,0.02965,0.97698,-0.17373,0.0,2023,6,8,13,39,22,670
1.24760,-0.09012,0.10413,0.00000,0.02928,0.98015,-0.17397,0.0,2023,6,8,13,39,22,681
1.24770,0.06738,0.06913,0.00000,0.02989,0.97807,-0.17300,0.0,2023,6,8,13,39,22,693
1.24780,-0.17762,0.17413,0.00000,0.03062,0.97893,-0.17129,0.0,2023,6,8,13,39,22,704
1.24790,-0.05512,-0.07087,0.00000,0.03062,0.97685,-0.17361,0.0,2023,6,8,13,39,22,715
1.24800,-0.03762,-0.15837,0.00000,0.03209,0.97759,-0.17214,0.0,2023,6,8,13,39,22,726
1.24810,0.10238,-0.10587,0.00000,0.03062,0.97990,-0.17446,0.0,2023,6,8,13,39,22,737
1.24820,0.11988,-0.05337,0.00000,0.02952,0.97832,-0.17324,0.0,2023,6,8,13,39,22,748
1.24830,-0.09012,-0.12337,0.00000,0.03087,0.97649,-0.17104,0.0,2023,6,8,13,39,22,759
1.24840,-0.05512,0.01663,0.00000,0.03074,0.97685,-0.17397,0.0,2023,6,8,13,39,22,770
1.24850,0.03238,0.01663,0.00000,0.02696,0.97881,-0.17251,0.0,2023,6,8,13,39,22,781
1.24860,-0.19512,0.03413,0.00000,0.03038,0.97783,-0.17507,0.0,2023,6,8,13,39,22,793
1.24870,-0.07262,-0.07087,0.00000,0.02843,0.97868,-0.17397,0.0,2023,6,8,13,39,22,804
1.24880,-0.02012,0.12163,0.00000,0.02916,0.97844,-0.17324,0.0,2023,6,8,13,39,22,815
1.24890,0.04988,0.05163,0.00000,0.03135,0.97856,-0.17263,0.0,2023,6,8,13,39,22,826
1.24900,-0.05512,0.10413,0.00000,0.02928,0.97734,-0.17373,0.0,2023,6,8,13,39,22,837
1.24910,-0.09012,0.05163,0.00000,0.03038,0.97685,-0.17495,0.0,2023,6,8,13,39,22,848
1.24920,-0.00262,-0.01837,0.00000,0.02977,0.97624,-0.17300,0.0,2023,6,8,13,39,22,859
1.24930,0.06738,0.01663,0.00000,0.03111,0.97820,-0.17458,0.0,2023,6,8,13,39,22,870
1.24940,-0.24762,0.10413,0.00000,0.03270,0.97844,-0.17287,0.0,2023,6,8,13,39,22,881
1.24950,0.10238,-0.07087,0.00000,0.03282,0.97929,-0.17409,0.0,2023,6,8,13,39,22,893
1.24960,-0.14262,0.29663,0.00000,0.03001,0.97588,-0.17470,0.0,2023,6,8,13,39,22,904
1.24970,-0.14262,0.13913,0.00000,0.03196,0.97807,-0.17666,0.0,2023,6,8,13,39,22,915
1.24980,0.10238,-0.07087,0.00000,0.03196,0.97929,-0.17129,0.0,2023,6,8,13,39,22,926
1.24990,0.20738,0.06913,0.00000,0.03282,0.97893,-0.17068,0.0,2023,6,8,13,39,22,937
1.25000,-0.00262,0.19163,0.00000,0.03111,0.98015,-0.17495,0.0,2023,6,8,13,39,22,948
1.25010,0.03238,-0.00087,0.00000,0.02952,0.98015,-0.17275,0.0,2023,6,8,13,39,22,959
1.25020,-0.07262,0.13913,0.00000,0.03001,0.97942,-0.17422,0.0,2023,6,8,13,39,22,970
1.25030,-0.14262,0.12163,0.00000,0.02916,0.97929,-0.17629,0.0,2023,6,8,13,39,22,981
1.25040,0.15488,-0.03587,0.00000,0.02977,0.97746,-0.17470,0.0,2023,6,8,13,39,22,993
1.25050,-0.10762,-0.03587,0.00000,0.02965,0.97917,-0.17300,0.0,2023,6,8,13,39,23,4
1.25060,-0.09012,0.05163,0.00000,0.03172,0.97637,-0.17324,0.0,2023,6,8,13,39,23,15
1.25070,-0.02012,0.17413,0.00000,0.02721,0.97734,-0.17190,0.0,2023,6,8,13,39,23,26
1.25080,-0.23012,0.01663,0.00000,0.03148,0.97795,-0.17263,0.0,2023,6,8,13,39,23,37
1.25090,-0.07262,-0.07087,0.00000,0.03026,0.97881,-0.17361,0.0,2023,6,8,13,39,23,48
1.25100,-0.19512,0.33163,0.00000,0.03026,0.97893,-0.17373,0.0,2023,6,8,13,39,23,59
1.25110,0.03238,0.01663,0.00000,0.03050,0.97746,-0.17446,0.0,2023,6,8,13,39,23,70
1.25120,0.17238,0.06913,0.00000,0.03184,0.97917,-0.17361,0.0,2023,6,8,13,39,23,81
1.25130,0.10238,-0.05337,0.00000,0.03257,0.97746,-0.17397,0.0,2023,6,8,13,39,23,93
1.25140,0.08488,0.01663,0.00000,0.03196,0.97649,-0.17287,0.0,2023,6,8,13,39,23,104
1.25150,-0.12512,-0.07087,0.00000,0.03038,0.97795,-0.17458,0.0,2023,6,8,13,39,23,115
1.25160,0.04988,-0.00087,0.00000,0.03111,0.97905,-0.17422,0.0,2023,6,8,13,39,23,126
1.25170,0.01488,0.08663,0.00000,0.02843,0.97661,-0.17287,0.0,2023,6,8,13,39,23,137
1.25180,0.10238,-0.12337,0.00000,0.03135,0.97698,-0.17434,0.0,2023,6,8,13,39,23,148
1.25190,0.04988,0.24413,0.00000,0.03038,0.97661,-0.17495,0.0,2023,6,8,13,39,23,159
1.25200,-0.02012,0.13913,0.00000,0.03172,0.97563,-0.17458,0.0,2023,6,8,13,39,23,170
1.25210,-0.05512,-0.10587,0.00000,0.03172,0.97771,-0.17324,0.0,2023,6,8,13,39,23,181
1.25220,-0.09012,0.22663,0.00000,0.03050,0.97844,-0.17617,0.0,2023,6,8,13,39,23,193
1.25230,-0.16012,0.20913,0.00000,0.02952,0.97746,-0.17434,0.0,2023,6,8,13,39,23,204
1.25240,0.04988,-0.17587,0.00000,0.03172,0.97929,-0.17263,0.0,2023,6,8,13,39,23,215
1.25250,0.17238,0.01663,0.00000,0.03062,0.97807,-0.17324,0.0,2023,6,8,13,39,23,226
1.25260,-0.05512,0.22663,0.00000,0.03099,0.97844,-0.17605,0.0,2023,6,8,13,39,23,237
1.25270,0.01488,-0.19337,0.00000,0.03050,0.97685,-0.17336,0.0,2023,6,8,13,39,23,248
1.25280,0.20738,-0.10587,0.00000,0.03172,0.97637,-0.17336,0.0,2023,6,8,13,39,23,259
1.25290,-0.21262,0.06913,0.00000,0.03099,0.97893,-0.17519,0.0,2023,6,8,13,39,23,270
1.25300,-0.12512,-0.22837,0.00000,0.03099,0.97881,-0.17470,0.0,2023,6,8,13,39,23,281
1.25310,-0.03762,-0.05337,0.00000,0.02916,0.97917,-0.17519,0.0,2023,6,8,13,39,23,293
1.25320,-0.09012,-0.07087,0.00000,0.03013,0.97820,-0.17678,0.0,2023,6,8,13,39,23,304
1.25330,-0.02012,-0.03587,0.00000,0.03221,0.97893,-0.17348,0.0,2023,6,8,13,39,23,315
1.25340,0.20738,-0.14087,0.00000,0.03026,0.97820,-0.17592,0.0,2023,6,8,13,39,23,326
1.25350,-0.09012,0.13913,0.00000,0.03306,0.97990,-0.17336,0.0,2023,6,8,13,39,23,337
1.25360,-0.05512,0.12163,0.00000,0.03123,0.97783,-0.17458,0.0,2023,6,8,13,39,23,348
1.25370,0.06738,0.26163,0.00000,0.02940,0.97771,-0.17178,0.0,2023,6,8,13,39,23,359
1.25380,0.01488,0.05163,0.00000,0.03026,0.97844,-0.17397,0.0,2023,6,8,13,39,23,370
1.25390,0.08488,-0.01837,0.00000,0.03123,0.97746,-0.17483,0.0,2023,6,8,13,39,23,381
1.25400,-0.02012,0.01663,0.00000,0.03196,0.97698,-0.17312,0.0,2023,6,8,13,39,23,393
1.25410,-0.00262,0.17413,0.00000,0.03062,0.98003,-0.17446,0.0,2023,6,8,13,39,23,404
1.25420,0.04988,0.12163,0.00000,0.02843,0.97917,-0.17324,0.0,2023,6,8,13,39,23,415
1.25430,-0.07262,0.03413,0.00000,0.02952,0.97734,-0.17361,0.0,2023,6,8,13,39,23,426
1.25440,-0.05512,0.01663,0.00000,0.03294,0.97917,-0.17397,0.0,2023,6,8,13,39,23,437
1.25450,-0.00262,0.03413,0.00000,0.03038,0.97954,-0.17495,0.0,2023,6,8,13,39,23,448
1.25460,0.01488,0.03413,0.00000,0.03062,0.97673,-0.17531,0.0,2023,6,8,13,39,23,459
1.25470,0.03238,-0.05337,0.00000,0.02928,0.97734,-0.17202,0.0,2023,6,8,13,39,23,470
1.25480,0.03238,0.12163,0.00000,0.03074,0.97905,-0.17666,0.0,2023,6,8,13,39,23,481
1.25490,-0.17762,0.20913,0.00000,0.03050,0.97893,-0.17531,0.0,2023,6,8,13,39,23,493
1.25500,-0.05512,0.22663,0.00000,0.03050,0.97832,-0.17287,0.0,2023,6,8,13,39,23,504
1.25510,0.15488,0.03413,0.00000,0.02952,0.97783,-0.17470,0.0,2023,6,8,13,39,23,515
1.25520,-0.02012,0.08663,0.00000,0.03062,0.97734,-0.17312,0.0,2023,6,8,13,39,23,526
1.25530,-0.00262,-0.01837,0.00000,0.02806,0.97893,-0.17666,0.0,2023,6,8,13,39,23,537
1.25540,-0.05512,0.19163,0.00000,0.03087,0.97868,-0.17409,0.0,2023,6,8,13,39,23,548
1.25550,0.11988,0.15663,0.00000,0.03013,0.97856,-0.17385,0.0,2023,6,8,13,39,23,559
1.25560,-0.12512,0.03413,0.00000,0.03062,0.98039,-0.17397,0.0,2023,6,8,13,39,23,570
1.25570,-0.23012,0.22663,0.00000,0.02904,0.97881,-0.17409,0.0,2023,6,8,13,39,23,581
1.25580,-0.10762,0.12163,0.00000,0.03172,0.97832,-0.17348,0.0,2023,6,8,13,39,23,593
1.25590,-0.05512,0.24413,0.00000,0.03331,0.98039,-0.17275,0.0,2023,6,8,13,39,23,604
1.25600,-0.07262,0.08663,0.00000,0.02928,0.97844,-0.17409,0.0,2023,6,8,13,39,23,615
1.25610,0.01488,0.06913,0.00000,0.03148,0.97722,-0.17397,0.0,2023,6,8,13,39,23,626
1.25620,0.03238,0.13913,0.00000,0.03148,0.97661,-0.17470,0.0,2023,6,8,13,39,23,637
1.25630,0.06738,0.19163,0.00000,0.03099,0.97929,-0.17141,0.0,2023,6,8,13,39,23,648
1.25640,-0.05512,0.08663,0.00000,0.03062,0.97820,-0.17434,0.0,2023,6,8,13,39,23,659
1.25650,0.11988,-0.07087,0.00000,0.03331,0.97771,-0.17409,0.0,2023,6,8,13,39,23,670
1.25660,-0.09012,0.03413,0.00000,0.03184,0.97893,-0.17190,0.0,2023,6,8,13,39,23,681
1.25670,-0.05512,-0.00087,0.00000,0.03013,0.98015,-0.17446,0.0,2023,6,8,13,39,23,693
1.25680,-0.00262,0.08663,0.00000,0.02928,0.97893,-0.17336,0.0,2023,6,8,13,39,23,704
1.25690,-0.26512,-0.05337,0.00000,0.02928,0.97612,-0.17275,0.0,2023,6,8,13,39,23,715
1.25700,-0.03762,0.08663,0.00000,0.03038,0.97771,-0.17263,0.0,2023,6,8,13,39,23,726
1.25710,0.13738,0.01663,0.00000,0.03196,0.97917,-0.17324,0.0,2023,6,8,13,39,23,737
1.25720,0.03238,0.08663,0.00000,0.03099,0.97820,-0.17287,0.0,2023,6,8,13,39,23,748
1.25730,-0.16012,0.15663,0.00000,0.03135,0.97771,-0.17531,0.0,2023,6,8,13,39,23,759
1.25740,-0.00262,0.06913,0.00000,0.03050,0.97673,-0.17556,0.0,2023,6,8,13,39,23,770
1.25750,-0.09012,0.05163,0.00000,0.03038,0.97844,-0.17348,0.0,2023,6,8,13,39,23,781
1.25760,0.04988,-0.01837,0.00000,0.03172,0.98076,-0.17361,0.0,2023,6,8,13,39,23,793
1.25770,-0.10762,-0.12337,0.00000,0.03038,0.97624,-0.17202,0.0,2023,6,8,13,39,23,804
1.25780,0.04988,-0.01837,0.00000,0.03245,0.97881,-0.17336,0.0,2023,6,8,13,39,23,815
1.25790,0.17238,-0.01837,0.00000,0.03099,0.97905,-0.17434,0.0,2023,6,8,13,39,23,826
1.25800,0.10238,0.12163,0.00000,0.03245,0.97698,-0.17434,0.0,2023,6,8,13,39,23,837
1.25810,-0.10762,-0.03587,0.00000,0.03209,0.97893,-0.17239,0.0,2023,6,8,13,39,23,848
1.25820,0.08488,-0.10587,0.00000,0.03233,0.97710,-0.17117,0.0,2023,6,8,13,39,23,859
1.25830,-0.16012,0.22663,0.00000,0.03074,0.97856,-0.17263,0.0,2023,6,8,13,39,23,870
1.25840,-0.03762,-0.12337,0.00000,0.02965,0.97917,-0.17214,0.0,2023,6,8,13,39,23,881
1.25850,0.04988,0.13913,0.00000,0.03050,0.97856,-0.17178,0.0,2023,6,8,13,39,23,893
1.25860,0.11988,-0.10587,0.00000,0.03038,0.97990,-0.17275,0.0,2023,6,8,13,39,23,904
1.25870,-0.03762,0.03413,0.00000,0.03001,0.98088,-0.17458,0.0,2023,6,8,13,39,23,915
1.25880,-0.19512,0.05163,0.00000,0.03001,0.97978,-0.17483,0.0,2023,6,8,13,39,23,926
1.25890,-0.12512,-0.07087,0.00000,0.03233,0.97734,-0.17409,0.0,2023,6,8,13,39,23,937
1.25900,0.17238,0.19163,0.00000,0.03160,0.97783,-0.17495,0.0,2023,6,8,13,39,23,948
1.25910,-0.00262,-0.00087,0.00000,0.02855,0.97734,-0.17336,0.0,2023,6,8,13,39,23,959
1.25920,-0.07262,-0.15837,0.00000,0.03013,0.97807,-0.17104,0.0,2023,6,8,13,39,23,970
1.25930,0.08488,0.27913,0.00000,0.03428,0.97990,-0.17495,0.0,2023,6,8,13,39,23,981
1.25940,-0.19512,0.10413,0.00000,0.02879,0.97844,-0.17153,0.0,2023,6,8,13,39,23,993
1.25950,-0.03762,-0.08837,0.00000,0.02891,0.98076,-0.17202,0.0,2023,6,8,13,39,23,4
1.25960,-0.05512,0.06913,0.00000,0.03038,0.97881,-0.17422,0.0,2023,6,8,13,39,23,15
1.25970,0.06738,0.05163,0.00000,0.02794,0.97820,-0.17348,0.0,2023,6,8,13,39,24,6
1.25980,0.04988,0.15663,0.00000,0.03123,0.97807,-0.17348,0.0,2023,6,8,13,39,24,17
1.25990,0.24238,-0.17587,0.00000,0.03087,0.97685,-0.17470,0.0,2023,6,8,13,39,24,28
1.26000,0.03238,-0.12337,0.00000,0.02952,0.97649,-0.17422,0.0,2023,6,8,13,39,24,39
1.26010,0.01488,0.05163,0.00000,0.03026,0.97868,-0.17361,0.0,2023,6,8,13,39,24,50
1.26020,-0.12512,-0.15837,0.00000,0.03050,0.98015,-0.17519,0.0,2023,6,8,13,39,24,61
1.26030,0.04988,0.05163,0.00000,0.03099,0.97637,-0.17434,0.0,2023,6,8,13,39,24,73
1.26040,0.08488,0.31413,0.00000,0.03111,0.97905,-0.17336,0.0,2023,6,8,13,39,24,84
1.26050,-0.02012,0.20913,0.00000,0.03038,0.97698,-0.17422,0.0,2023,6,8,13,39,24,95
1.26060,-0.10762,0.01663,0.00000,0.03257,0.97771,-0.17251,0.0,2023,6,8,13,39,24,106
1.26070,-0.03762,-0.00087,0.00000,0.02989,0.98076,-0.17495,0.0,2023,6,8,13,39,24,117
1.26080,-0.03762,-0.05337,0.00000,0.03172,0.97844,-0.17348,0.0,2023,6,8,13,39,24,128
1.26090,-0.03762,0.03413,0.00000,0.03074,0.97722,-0.17519,0.0,2023,6,8,13,39,24,139
1.26100,-0.09012,-0.03587,0.00000,0.03026,0.97783,-0.17385,0.0,2023,6,8,13,39,24,150
1.26110,-0.12512,0.06913,0.00000,0.03123,0.97576,-0.17385,0.0,2023,6,8,13,39,24,161
1.26120,0.03238,-0.10587,0.00000,0.03123,0.97649,-0.17275,0.0,2023,6,8,13,39,24,173
1.26130,0.17238,0.08663,0.00000,0.02952,0.97978,-0.17324,0.0,2023,6,8,13,39,24,184
1.26140,-0.02012,0.20913,0.00000,0.02916,0.97807,-0.17422,0.0,2023,6,8,13,39,24,195
1.26150,-0.09012,-0.03587,0.00000,0.03135,0.97954,-0.17470,0.0,2023,6,8,13,39,24,206
1.26160,-0.00262,-0.05337,0.00000,0.03001,0.97771,-0.17300,0.0,2023,6,8,13,39,24,217
1.26170,0.17238,0.01663,0.00000,0.03087,0.98173,-0.17409,0.0,2023,6,8,13,39,24,228
1.26180,0.04988,-0.03587,0.00000,0.03026,0.97710,-0.17483,0.0,2023,6,8,13,39,24,239
1.26190,0.20738,0.06913,0.00000,0.03209,0.97661,-0.17422,0.0,2023,6,8,13,39,24,250
1.26200,0.06738,-0.10587,0.00000,0.02940,0.98003,-0.17568,0.0,2023,6,8,13,39,24,261
1.26210,0.03238,-0.08837,0.00000,0.02940,0.97893,-0.17348,0.0,2023,6,8,13,39,24,273
1.26220,0.08488,0.03413,0.00000,0.03209,0.97734,-0.17336,0.0,2023,6,8,13,39,24,284
1.26230,-0.03762,-0.03587,0.00000,0.02940,0.97783,-0.17580,0.0,2023,6,8,13,39,24,295
1.26240,0.10238,0.06913,0.00000,0.03050,0.97759,-0.17348,0.0,2023,6,8,13,39,24,306
1.26250,-0.09012,-0.08837,0.00000,0.03013,0.97978,-0.17519,0.0,2023,6,8,13,39,24,317
1.26260,0.04988,0.08663,0.00000,0.03062,0.97807,-0.17373,0.0,2023,6,8,13,39,24,328
1.26270,0.08488,-0.00087,0.00000,0.03038,0.98088,-0.17470,0.0,2023,6,8,13,39,24,339
1.26280,-0.02012,-0.12337,0.00000,0.03148,0.97795,-0.17348,0.0,2023,6,8,13,39,24,350
1.26290,0.10238,-0.00087,0.00000,0.03282,0.97722,-0.17226,0.0,2023,6,8,13,39,24,361
1.26300,-0.17762,-0.07087,0.00000,0.03050,0.98088,-0.17226,0.0,2023,6,8,13,39,24,373
1.26310,-0.03762,0.34913,0.00000,0.03123,0.97710,-0.17422,0.0,2023,6,8,13,39,24,384
1.26320,0.06738,-0.00087,0.00000,0.03233,0.97807,-0.17324,0.0,2023,6,8,13,39,24,395
1.26330,0.03238,-0.22837,0.00000,0.03184,0.97978,-0.17422,0.0,2023,6,8,13,39,24,406
1.26340,-0.14262,0.03413,0.00000,0.03172,0.97698,-0.17458,0.0,2023,6,8,13,39,24,417
1.26350,-0.02012,-0.08837,0.00000,0.02940,0.97722,-0.17239,0.0,2023,6,8,13,39,24,428
1.26360,-0.14262,0.06913,0.00000,0.03013,0.97856,-0.17361,0.0,2023,6,8,13,39,24,439
1.26370,-0.00262,0.15663,0.00000,0.03306,0.97820,-0.17202,0.0,2023,6,8,13,39,24,450
1.26380,-0.07262,0.15663,0.00000,0.03001,0.97588,-0.17068,0.0,2023,6,8,13,39,24,461
1.26390,0.10238,0.03413,0.00000,0.03270,0.97917,-0.17336,0.0,2023,6,8,13,39,24,473
1.26400,0.15488,-0.05337,0.00000,0.03087,0.97685,-0.17361,0.0,2023,6,8,13,39,24,484
1.26410,0.18988,-0.15837,0.00000,0.03160,0.97832,-0.17202,0.0,2023,6,8,13,39,24,495
1.26420,0.13738,-0.00087,0.00000,0.02843,0.97832,-0.17043,0.0,2023,6,8,13,39,24,506
1.26430,-0.12512,0.17413,0.00000,0.03148,0.97710,-0.17361,0.0,2023,6,8,13,39,24,517
1.26440,-0.14262,-0.00087,0.00000,0.03099,0.97990,-0.17043,0.0,2023,6,8,13,39,24,528
1.26450,0.03238,0.01663,0.00000,0.02989,0.98003,-0.17568,0.0,2023,6,8,13,39,24,539
1.26460,0.11988,-0.15837,0.00000,0.03172,0.97978,-0.17361,0.0,2023,6,8,13,39,24,550
1.26470,-0.19512,0.19163,0.00000,0.03087,0.97881,-0.17348,0.0,2023,6,8,13,39,24,561
1.26480,0.13738,-0.08837,0.00000,0.03026,0.97905,-0.17263,0.0,2023,6,8,13,39,24,573
1.26490,0.01488,-0.12337,0.00000,0.03135,0.97698,-0.17190,0.0,2023,6,8,13,39,24,584
1.26500,0.03238,0.03413,0.00000,0.03062,0.97771,-0.17214,0.0,2023,6,8,13,39,24,595
1.26510,-0.09012,-0.05337,0.00000,0.03099,0.97893,-0.17336,0.0,2023,6,8,13,39,24,606
1.26520,-0.09012,-0.03587,0.00000,0.02940,0.97807,-0.17409,0.0,2023,6,8,13,39,24,617
1.26530,-0.05512,0.03413,0.00000,0.02965,0.97929,-0.17043,0.0,2023,6,8,13,39,24,628
1.26540,-0.16012,0.12163,0.00000,0.03013,0.97820,-0.17458,0.0,2023,6,8,13,39,24,639
1.26550,0.06738,0.15663,0.00000,0.03062,0.98039,-0.17470,0.0,2023,6,8,13,39,24,650
1.26560,0.11988,-0.15837,0.00000,0.02916,0.97820,-0.17361,0.0,2023,6,8,13,39,24,661
1.26570,-0.05512,-0.03587,0.00000,0.03087,0.98039,-0.17117,0.0,2023,6,8,13,39,24,673
1.26580,-0.00262,-0.00087,0.00000,0.03172,0.97820,-0.17348,0.0,2023,6,8,13,39,24,684
1.26590,0.03238,0.12163,0.00000,0.03135,0.97917,-0.17104,0.0,2023,6,8,13,39,24,695
1.26600,-0.03762,0.06913,0.00000,0.03111,0.97637,-0.17287,0.0,2023,6,8,13,39,24,706
1.26610,0.15488,0.10413,0.00000,0.02952,0.97893,-0.17214,0.0,2023,6,8,13,39,24,717
1.26620,-0.16012,0.19163,0.00000,0.03050,0.97868,-0.17251,0.0,2023,6,8,13,39,24,728
1.26630,-0.00262,-0.05337,0.00000,0.03050,0.97881,-0.17190,0.0,2023,6,8,13,39,24,739
1.26640,0.18988,-0.05337,0.00000,0.03221,0.97881,-0.17287,0.0,2023,6,8,13,39,24,750
1.26650,0.03238,-0.07087,0.00000,0.03257,0.97759,-0.17422,0.0,2023,6,8,13,39,24,761
1.26660,0.08488,0.08663,0.00000,0.03294,0.97649,-0.17422,0.0,2023,6,8,13,39,24,773
1.26670,-0.21262,0.19163,0.00000,0.03074,0.97795,-0.17275,0.0,2023,6,8,13,39,24,784
1.26680,0.18988,0.06913,0.00000,0.03062,0.97771,-0.17214,0.0,2023,6,8,13,39,24,795
1.26690,-0.10762,-0.07087,0.00000,0.03172,0.97673,-0.17361,0.0,2023,6,8,13,39,24,806
1.26700,0.13738,-0.15837,0.00000,0.03074,0.97966,-0.17348,0.0,2023,6,8,13,39,24,817
1.26710,-0.03762,-0.00087,0.00000,0.03282,0.97832,-0.17263,0.0,2023,6,8,13,39,24,828
1.26720,-0.02012,-0.05337,0.00000,0.03074,0.97746,-0.17251,0.0,2023,6,8,13,39,24,839
1.26730,-0.02012,0.03413,0.00000,0.03123,0.97807,-0.17263,0.0,2023,6,8,13,39,24,850
1.26740,-0.02012,-0.07087,0.00000,0.03013,0.97917,-0.17434,0.0,2023,6,8,13,39,24,861
1.26750,-0.07262,0.03413,0.00000,0.03062,0.97832,-0.17141,0.0,2023,6,8,13,39,24,873
1.26760,-0.00262,-0.01837,0.00000,0.03026,0.97624,-0.17422,0.0,2023,6,8,13,39,24,884
1.26770,-0.10762,0.03413,0.00000,0.02843,0.98003,-0.17287,0.0,2023,6,8,13,39,24,895
1.26780,0.01488,0.12163,0.00000,0.03209,0.97807,-0.17239,0.0,2023,6,8,13,39,24,906
1.26790,0.04988,0.01663,0.00000,0.03257,0.97734,-0.17178,0.0,2023,6,8,13,39,24,917
1.26800,0.06738,0.01663,0.00000,0.03196,0.97698,-0.17324,0.0,2023,6,8,13,39,24,928
1.26810,-0.09012,0.19163,0.00000,0.02940,0.97734,-0.17226,0.0,2023,6,8,13,39,24,939
1.26820,-0.05512,0.10413,0.00000,0.03062,0.97942,-0.17141,0.0,2023,6,8,13,39,24,950
1.26830,0.06738,-0.14087,0.00000,0.03074,0.97783,-0.17202,0.0,2023,6,8,13,39,24,961
1.26840,0.01488,-0.05337,0.00000,0.03135,0.97807,-0.17397,0.0,2023,6,8,13,39,24,973
1.26850,0.11988,0.10413,0.00000,0.02928,0.97844,-0.17141,0.0,2023,6,8,13,39,24,984
1.26860,-0.02012,0.10413,0.00000,0.03062,0.97917,-0.17409,0.0,2023,6,8,13,39,24,995
1.26870,0.03238,0.05163,0.00000,0.03209,0.97942,-0.17019,0.0,2023,6,8,13,39,24,6
1.26880,0.01488,-0.03587,0.00000,0.02989,0.97563,-0.17202,0.0,2023,6,8,13,39,25,7
1.26890,-0.07262,0.03413,0.00000,0.02916,0.97832,-0.17312,0.0,2023,6,8,13,39,25,18
1.26900,-0.05512,0.19163,0.00000,0.03123,0.97746,-0.17373,0.0,2023,6,8,13,39,25,29
1.26910,-0.10762,0.10413,0.00000,0.03001,0.98027,-0.17300,0.0,2023,6,8,13,39,25,40
1.26920,-0.02012,-0.03587,0.00000,0.03062,0.97966,-0.17531,0.0,2023,6,8,13,39,25,51
1.26930,0.04988,0.10413,0.00000,0.03135,0.97942,-0.17434,0.0,2023,6,8,13,39,25,63
1.26940,-0.05512,0.05163,0.00000,0.03001,0.97844,-0.17385,0.0,2023,6,8,13,39,25,74
1.26950,-0.12512,-0.07087,0.00000,0.03087,0.97893,-0.17312,0.0,2023,6,8,13,39,25,85
1.26960,-0.03762,0.08663,0.00000,0.03074,0.97795,-0.17336,0.0,2023,6,8,13,39,25,96
1.26970,-0.00262,-0.22837,0.00000,0.03148,0.97917,-0.17287,0.0,2023,6,8,13,39,25,107
1.26980,0.06738,0.08663,0.00000,0.02989,0.97868,-0.17202,0.0,2023,6,8,13,39,25,118
1.26990,0.01488,0.05163,0.00000,0.03026,0.97990,-0.17287,0.0,2023,6,8,13,39,25,129
1.27000,0.11988,0.06913,0.00000,0.03135,0.97929,-0.17275,0.0,2023,6,8,13,39,25,140
1.27010,-0.00262,0.08663,0.00000,0.03160,0.97820,-0.17178,0.0,2023,6,8,13,39,25,151
1.27020,-0.02012,0.15663,0.00000,0.02843,0.97771,-0.17080,0.0,2023,6,8,13,39,25,163
1.27030,0.04988,0.12163,0.00000,0.03196,0.97856,-0.17214,0.0,2023,6,8,13,39,25,174
1.27040,-0.07262,0.03413,0.00000,0.03160,0.97783,-0.17324,0.0,2023,6,8,13,39,25,185
1.27050,-0.05512,0.06913,0.00000,0.03038,0.97661,-0.17190,0.0,2023,6,8,13,39,25,196
1.27060,0.01488,-0.12337,0.00000,0.03270,0.97698,-0.17409,0.0,2023,6,8,13,39,25,207
1.27070,-0.07262,0.05163,0.00000,0.03233,0.97771,-0.17397,0.0,2023,6,8,13,39,25,218
1.27080,0.11988,0.03413,0.00000,0.03148,0.97795,-0.17397,0.0,2023,6,8,13,39,25,229
1.27090,0.08488,0.06913,0.00000,0.03050,0.97673,-0.17324,0.0,2023,6,8,13,39,25,240
1.27100,-0.03762,-0.10587,0.00000,0.02879,0.97441,-0.17483,0.0,2023,6,8,13,39,25,251
1.27110,-0.12512,0.08663,0.00000,0.03087,0.98015,-0.17495,0.0,2023,6,8,13,39,25,263
1.27120,0.06738,0.03413,0.00000,0.03172,0.97783,-0.17361,0.0,2023,6,8,13,39,25,274
1.27130,-0.00262,-0.07087,0.00000,0.03026,0.97990,-0.16946,0.0,2023,6,8,13,39,25,285
1.27140,0.01488,0.06913,0.00000,0.03026,0.97942,-0.17470,0.0,2023,6,8,13,39,25,296
1.27150,0.03238,0.15663,0.00000,0.03282,0.97795,-0.17178,0.0,2023,6,8,13,39,25,307
1.27160,0.11988,-0.05337,0.00000,0.02977,0.98076,-0.17202,0.0,2023,6,8,13,39,25,318
1.27170,-0.07262,0.01663,0.00000,0.02940,0.97734,-0.17178,0.0,2023,6,8,13,39,25,329
1.27180,-0.16012,0.01663,0.00000,0.03099,0.97856,-0.17214,0.0,2023,6,8,13,39,25,340
1.27190,-0.12512,-0.33337,0.00000,0.02904,0.98100,-0.17397,0.0,2023,6,8,13,39,25,351
1.27200,-0.05512,-0.03587,0.00000,0.02989,0.97710,-0.17397,0.0,2023,6,8,13,39,25,363
1.27210,-0.00262,0.06913,0.00000,0.03135,0.97856,-0.17361,0.0,2023,6,8,13,39,25,374
1.27220,-0.02012,0.08663,0.00000,0.03343,0.97966,-0.17373,0.0,2023,6,8,13,39,25,385
1.27230,0.06738,0.05163,0.00000,0.03001,0.98076,-0.17324,0.0,2023,6,8,13,39,25,396
1.27240,0.03238,0.15663,0.00000,0.03013,0.98051,-0.17263,0.0,2023,6,8,13,39,25,407
1.27250,0.22488,0.01663,0.00000,0.03172,0.97917,-0.17422,0.0,2023,6,8,13,39,25,418
1.27260,-0.00262,-0.21087,0.00000,0.03270,0.97942,-0.17117,0.0,2023,6,8,13,39,25,429
1.27270,-0.00262,0.17413,0.00000,0.03099,0.97795,-0.17214,0.0,2023,6,8,13,39,25,440
1.27280,-0.00262,0.20913,0.00000,0.02904,0.97698,-0.17153,0.0,2023,6,8,13,39,25,451
1.27290,0.38238,-0.36837,0.00000,0.02928,0.97942,-0.17336,0.0,2023,6,8,13,39,25,463
1.27300,-0.10762,-0.08837,0.00000,0.03148,0.97795,-0.17117,0.0,2023,6,8,13,39,25,474
1.27310,-0.05512,0.12163,0.00000,0.03013,0.97868,-0.17361,0.0,2023,6,8,13,39,25,485
1.27320,0.17238,0.13913,0.00000,0.03001,0.97722,-0.17190,0.0,2023,6,8,13,39,25,496
1.27330,0.10238,0.15663,0.00000,0.03087,0.97905,-0.17202,0.0,2023,6,8,13,39,25,507
1.27340,-0.12512,0.13913,0.00000,0.03245,0.97905,-0.17153,0.0,2023,6,8,13,39,25,518
1.27350,-0.12512,0.15663,0.00000,0.02952,0.97929,-0.17287,0.0,2023,6,8,13,39,25,529
1.27360,0.11988,-0.12337,0.00000,0.03099,0.97795,-0.17434,0.0,2023,6,8,13,39,25,540
1.27370,-0.00262,0.05163,0.00000,0.03013,0.97868,-0.17214,0.0,2023,6,8,13,39,25,551
1.27380,-0.05512,0.01663,0.00000,0.02965,0.97759,-0.17239,0.0,2023,6,8,13,39,25,563
1.27390,-0.07262,-0.01837,0.00000,0.03257,0.97795,-0.17043,0.0,2023,6,8,13,39,25,574
1.27400,0.22488,-0.10587,0.00000,0.03257,0.97673,-0.17348,0.0,2023,6,8,13,39,25,585
1.27410,-0.05512,-0.10587,0.00000,0.02940,0.97807,-0.17239,0.0,2023,6,8,13,39,25,596
1.27420,-0.02012,0.10413,0.00000,0.03050,0.97868,-0.17409,0.0,2023,6,8,13,39,25,607
1.27430,0.03238,0.13913,0.00000,0.02867,0.97734,-0.17385,0.0,2023,6,8,13,39,25,618
1.27440,0.01488,0.19163,0.00000,0.02830,0.97539,-0.17153,0.0,2023,6,8,13,39,25,629
1.27450,-0.03762,0.10413,0.00000,0.03172,0.97905,-0.17495,0.0,2023,6,8,13,39,25,640
1.27460,-0.12512,0.06913,0.00000,0.02916,0.97576,-0.17092,0.0,2023,6,8,13,39,25,651
1.27470,-0.17762,0.22663,0.00000,0.03233,0.97795,-0.17178,0.0,2023,6,8,13,39,25,663
1.27480,-0.00262,0.12163,0.00000,0.03062,0.97734,-0.17129,0.0,2023,6,8,13,39,25,674
1.27490,0.18988,-0.29837,0.00000,0.02977,0.97722,-0.17531,0.0,2023,6,8,13,39,25,685
1.27500,-0.03762,-0.07087,0.00000,0.03148,0.97856,-0.17178,0.0,2023,6,8,13,39,25,696
1.27510,-0.12512,-0.07087,0.00000,0.02904,0.98088,-0.17165,0.0,2023,6,8,13,39,25,707
1.27520,0.03238,-0.07087,0.00000,0.03172,0.97868,-0.17153,0.0,2023,6,8,13,39,25,718
1.27530,-0.21262,0.27913,0.00000,0.03111,0.97978,-0.17300,0.0,2023,6,8,13,39,25,729
1.27540,0.13738,-0.08837,0.00000,0.03013,0.97551,-0.17178,0.0,2023,6,8,13,39,25,740
1.27550,-0.09012,0.01663,0.00000,0.02916,0.97954,-0.17129,0.0,2023,6,8,13,39,25,751
1.27560,0.01488,-0.07087,0.00000,0.03221,0.97881,-0.17263,0.0,2023,6,8,13,39,25,763
1.27570,-0.09012,0.15663,0.00000,0.03306,0.97990,-0.17202,0.0,2023,6,8,13,39,25,774
1.27580,-0.07262,0.12163,0.00000,0.03111,0.97746,-0.17312,0.0,2023,6,8,13,39,25,785
1.27590,0.06738,-0.10587,0.00000,0.02916,0.97856,-0.17348,0.0,2023,6,8,13,39,25,796
1.27600,0.18988,-0.05337,0.00000,0.03111,0.97990,-0.17361,0.0,2023,6,8,13,39,25,807
1.27610,-0.26512,0.12163,0.00000,0.03013,0.98015,-0.17373,0.0,2023,6,8,13,39,25,818
1.27620,-0.19512,-0.01837,0.00000,0.03013,0.97771,-0.17202,0.0,2023,6,8,13,39,25,829
1.27630,-0.16012,0.17413,0.00000,0.03160,0.97966,-0.17336,0.0,2023,6,8,13,39,25,840
1.27640,-0.21262,0.20913,0.00000,0.03111,0.97844,-0.17263,0.0,2023,6,8,13,39,25,851
1.27650,0.13738,-0.03587,0.00000,0.02952,0.97868,-0.17422,0.0,2023,6,8,13,39,25,863
1.27660,-0.05512,0.01663,0.00000,0.02940,0.97966,-0.17092,0.0,2023,6,8,13,39,25,874
1.27670,-0.10762,0.06913,0.00000,0.02989,0.97807,-0.17226,0.0,2023,6,8,13,39,25,885
1.27680,-0.12512,0.15663,0.00000,0.03111,0.97759,-0.17263,0.0,2023,6,8,13,39,25,896
1.27690,0.27738,0.01663,0.00000,0.02721,0.97771,-0.17153,0.0,2023,6,8,13,39,25,907
1.27700,0.15488,0.08663,0.00000,0.02904,0.98064,-0.17348,0.0,2023,6,8,13,39,25,918
1.27710,0.08488,-0.03587,0.00000,0.02965,0.98051,-0.17287,0.0,2023,6,8,13,39,25,929
1.27720,-0.00262,-0.03587,0.00000,0.02965,0.97844,-0.17153,0.0,2023,6,8,13,39,25,940
1.27730,-0.12512,-0.10587,0.00000,0.03209,0.97844,-0.17361,0.0,2023,6,8,13,39,25,951
1.27740,0.08488,0.06913,0.00000,0.03160,0.97783,-0.17300,0.0,2023,6,8,13,39,25,963
1.27750,0.11988,-0.14087,0.00000,0.02952,0.97881,-0.17287,0.0,2023,6,8,13,39,25,974
1.27760,0.11988,0.06913,0.00000,0.03074,0.97832,-0.17202,0.0,2023,6,8,13,39,25,985
1.27770,-0.07262,-0.03587,0.00000,0.02977,0.97795,-0.17373,0.0,2023,6,8,13,39,25,996
1.27780,-0.00262,-0.07087,0.00000,0.03209,0.97698,-0.17300,0.0,2023,6,8,13,39,26,7
1.27790,-0.14262,0.03413,0.00000,0.03123,0.97771,-0.17031,0.0,2023,6,8,13,39,26,18
1.27800,-0.03762,0.03413,0.00000,0.03196,0.98003,-0.17373,0.0,2023,6,8,13,39,26,29
1.27810,0.10238,-0.10587,0.00000,0.02916,0.97795,-0.17434,0.0,2023,6,8,13,39,26,40
1.27820,-0.10762,0.06913,0.00000,0.02989,0.97856,-0.17117,0.0,2023,6,8,13,39,26,51
1.27830,-0.16012,0.10413,0.00000,0.02879,0.97771,-0.17202,0.0,2023,6,8,13,39,26,63
1.27840,-0.14262,0.20913,0.00000,0.03074,0.98210,-0.17324,0.0,2023,6,8,13,39,26,74
1.27850,-0.12512,0.22663,0.00000,0.03038,0.97649,-0.17141,0.0,2023,6,8,13,39,26,85
1.27860,0.11988,0.01663,0.00000,0.03099,0.97929,-0.17385,0.0,2023,6,8,13,39,26,96
1.27870,-0.14262,0.26163,0.00000,0.03074,0.97844,-0.17312,0.0,2023,6,8,13,39,26,107
1.27880,-0.00262,0.17413,0.00000,0.03087,0.97795,-0.17287,0.0,2023,6,8,13,39,26,118
1.27890,-0.00262,0.03413,0.00000,0.03257,0.98051,-0.17056,0.0,2023,6,8,13,39,26,129
1.27900,-0.05512,0.22663,0.00000,0.02989,0.97917,-0.17141,0.0,2023,6,8,13,39,26,140
