#2023/06/08 13:58:49
time,wx,wy,wz,ax,ay,az,yy,MM,dd,hh,mm,ss,ms
1.30600,-0.02205,-0.20650,0.00000,0.03062,0.97649,-0.18886,2023,6,8,13,58,50,64
1.30610,-0.07455,0.23100,0.00000,0.03135,0.97380,-0.19008,2023,6,8,13,58,50,75
1.30620,-0.00455,0.19600,0.00000,0.03013,0.97454,-0.18837,2023,6,8,13,58,50,86
1.30630,0.04795,-0.03150,0.00000,0.03013,0.97502,-0.18849,2023,6,8,13,58,50,97
1.30640,-0.02205,0.09100,0.00000,0.03160,0.97502,-0.18825,2023,6,8,13,58,50,108
1.30650,0.13545,0.02100,0.00000,0.02977,0.97710,-0.18983,2023,6,8,13,58,50,119
1.30660,-0.07455,-0.03150,0.00000,0.03087,0.97478,-0.18886,2023,6,8,13,58,50,130
1.30670,-0.21455,0.12600,0.00000,0.02952,0.97515,-0.18800,2023,6,8,13,58,50,141
1.30680,0.04795,0.00350,0.00000,0.03294,0.97527,-0.18995,2023,6,8,13,58,50,152
1.30690,0.13545,0.21350,0.00000,0.03294,0.97649,-0.18788,2023,6,8,13,58,50,164
1.30700,0.15295,0.02100,0.00000,0.03062,0.97563,-0.18898,2023,6,8,13,58,50,175
1.30710,0.15295,-0.17150,0.00000,0.03392,0.97380,-0.18910,2023,6,8,13,58,50,186
1.30720,0.17045,-0.01400,0.00000,0.03184,0.97563,-0.18922,2023,6,8,13,58,50,197
1.30730,-0.10955,0.07350,0.00000,0.02916,0.97539,-0.18751,2023,6,8,13,58,50,208
1.30740,-0.07455,0.10850,0.00000,0.03270,0.97393,-0.18727,2023,6,8,13,58,50,219
1.30750,0.01295,-0.03150,0.00000,0.03074,0.97661,-0.18922,2023,6,8,13,58,50,230
1.30760,-0.02205,-0.13650,0.00000,0.03148,0.97295,-0.18861,2023,6,8,13,58,50,241
1.30770,-0.05705,0.16100,0.00000,0.03172,0.97515,-0.18727,2023,6,8,13,58,50,252
1.30780,0.06545,0.03850,0.00000,0.03148,0.97478,-0.19203,2023,6,8,13,58,50,264
1.30790,0.03045,0.02100,0.00000,0.03123,0.97698,-0.19105,2023,6,8,13,58,50,275
1.30800,-0.03955,0.10850,0.00000,0.02965,0.97576,-0.18995,2023,6,8,13,58,50,286
1.30810,-0.07455,0.03850,0.00000,0.03026,0.97710,-0.18971,2023,6,8,13,58,50,297
1.30820,0.13545,-0.01400,0.00000,0.03257,0.97722,-0.18922,2023,6,8,13,58,50,308
1.30830,-0.00455,0.12600,0.00000,0.03099,0.97332,-0.18812,2023,6,8,13,58,50,319
1.30840,0.18795,0.02100,0.00000,0.03172,0.97588,-0.18898,2023,6,8,13,58,50,330
1.30850,-0.07455,-0.15400,0.00000,0.02891,0.97441,-0.18959,2023,6,8,13,58,50,341
1.30860,0.15295,-0.13650,0.00000,0.03135,0.97332,-0.18849,2023,6,8,13,58,50,352
1.30870,-0.03955,-0.17150,0.00000,0.02916,0.97539,-0.19288,2023,6,8,13,58,50,364
1.30880,-0.02205,0.00350,0.00000,0.03087,0.97527,-0.18861,2023,6,8,13,58,50,375
1.30890,-0.03955,-0.06650,0.00000,0.03013,0.97454,-0.18995,2023,6,8,13,58,50,386
1.30900,0.01295,0.03850,0.00000,0.02977,0.97624,-0.18910,2023,6,8,13,58,50,397
1.30910,0.06545,-0.08400,0.00000,0.03111,0.97710,-0.18983,2023,6,8,13,58,50,408
1.30920,0.10045,0.17850,0.00000,0.02989,0.97661,-0.19105,2023,6,8,13,58,50,419
1.30930,0.10045,-0.13650,0.00000,0.02977,0.97551,-0.18910,2023,6,8,13,58,50,430
1.30940,0.03045,0.12600,0.00000,0.02928,0.97551,-0.19032,2023,6,8,13,58,50,441
1.30950,-0.00455,-0.22400,0.00000,0.02891,0.97600,-0.18934,2023,6,8,13,58,50,452
1.30960,0.11795,0.03850,0.00000,0.03172,0.97454,-0.19032,2023,6,8,13,58,50,464
1.30970,0.01295,-0.03150,0.00000,0.02891,0.97441,-0.18715,2023,6,8,13,58,50,475
1.30980,0.06545,-0.24150,0.00000,0.03282,0.97588,-0.19069,2023,6,8,13,58,50,486
1.30990,-0.02205,0.09100,0.00000,0.03123,0.97490,-0.19032,2023,6,8,13,58,50,497
1.31000,0.01295,0.10850,0.00000,0.03062,0.97515,-0.19081,2023,6,8,13,58,50,508
1.31010,0.11795,0.17850,0.00000,0.03270,0.97698,-0.18947,2023,6,8,13,58,50,519
1.31020,0.11795,-0.18900,0.00000,0.03050,0.97356,-0.19032,2023,6,8,13,58,50,530
1.31030,0.01295,0.23100,0.00000,0.03099,0.97380,-0.18983,2023,6,8,13,58,50,541
1.31040,-0.05705,-0.01400,0.00000,0.03135,0.97576,-0.18788,2023,6,8,13,58,50,552
1.31050,0.15295,-0.08400,0.00000,0.02952,0.97551,-0.18788,2023,6,8,13,58,50,564
1.31060,-0.02205,-0.06650,0.00000,0.02916,0.97759,-0.18812,2023,6,8,13,58,50,575
1.31070,-0.03955,0.02100,0.00000,0.03099,0.97563,-0.18666,2023,6,8,13,58,50,586
1.31080,0.01295,-0.01400,0.00000,0.03087,0.97454,-0.19020,2023,6,8,13,58,50,597
1.31090,0.01295,0.03850,0.00000,0.03062,0.97515,-0.18861,2023,6,8,13,58,50,608
1.31100,-0.16205,0.09100,0.00000,0.02952,0.97783,-0.18727,2023,6,8,13,58,50,619
1.31110,0.06545,-0.17150,0.00000,0.02977,0.97368,-0.18812,2023,6,8,13,58,50,630
1.31120,0.04795,0.03850,0.00000,0.03026,0.97405,-0.18727,2023,6,8,13,58,50,641
1.31130,-0.09205,0.10850,0.00000,0.02928,0.97539,-0.18837,2023,6,8,13,58,50,652
1.31140,-0.10955,-0.04900,0.00000,0.02940,0.97637,-0.18959,2023,6,8,13,58,50,664
1.31150,0.01295,0.03850,0.00000,0.03038,0.97527,-0.18568,2023,6,8,13,58,50,675
1.31160,-0.17955,0.05600,0.00000,0.03172,0.97539,-0.18873,2023,6,8,13,58,50,686
1.31170,-0.07455,0.07350,0.00000,0.03318,0.97612,-0.18739,2023,6,8,13,58,50,697
1.31180,-0.00455,0.07350,0.00000,0.03160,0.97649,-0.18910,2023,6,8,13,58,50,708
1.31190,0.10045,0.12600,0.00000,0.03209,0.97698,-0.18898,2023,6,8,13,58,50,719
1.31200,0.03045,-0.08400,0.00000,0.03233,0.97490,-0.19032,2023,6,8,13,58,50,730
1.31210,-0.19705,0.09100,0.00000,0.03148,0.97478,-0.18690,2023,6,8,13,58,50,741
1.31220,-0.10955,-0.03150,0.00000,0.02891,0.97417,-0.18825,2023,6,8,13,58,50,752
1.31230,-0.12705,0.02100,0.00000,0.02879,0.97368,-0.18532,2023,6,8,13,58,50,764
1.31240,0.08295,0.03850,0.00000,0.03184,0.97441,-0.18947,2023,6,8,13,58,50,775
1.31250,0.01295,0.05600,0.00000,0.02965,0.97576,-0.18703,2023,6,8,13,58,50,786
1.31260,-0.07455,0.03850,0.00000,0.03209,0.97551,-0.18910,2023,6,8,13,58,50,797
1.31270,-0.02205,0.05600,0.00000,0.03123,0.97795,-0.18751,2023,6,8,13,58,50,808
1.31280,-0.02205,0.02100,0.00000,0.02843,0.97710,-0.18849,2023,6,8,13,58,50,819
1.31290,0.08295,-0.13650,0.00000,0.03050,0.97429,-0.18654,2023,6,8,13,58,50,830
1.31300,0.03045,-0.11900,0.00000,0.03209,0.97612,-0.18922,2023,6,8,13,58,50,841
1.31310,0.11795,0.03850,0.00000,0.03087,0.97539,-0.18886,2023,6,8,13,58,50,852
1.31320,0.04795,-0.01400,0.00000,0.02940,0.97405,-0.18849,2023,6,8,13,58,50,864
1.31330,-0.05705,0.02100,0.00000,0.02867,0.97246,-0.18849,2023,6,8,13,58,50,875
1.31340,0.03045,0.07350,0.00000,0.03099,0.97637,-0.18788,2023,6,8,13,58,50,886
1.31350,-0.07455,-0.01400,0.00000,0.02989,0.97515,-0.18727,2023,6,8,13,58,50,897
1.31360,0.08295,0.07350,0.00000,0.03026,0.97429,-0.18873,2023,6,8,13,58,50,908
1.31370,-0.10955,0.02100,0.00000,0.02965,0.97539,-0.18947,2023,6,8,13,58,50,919
1.31380,0.13545,0.10850,0.00000,0.03038,0.97454,-0.19081,2023,6,8,13,58,50,930
1.31390,0.01295,0.02100,0.00000,0.03172,0.97551,-0.18812,2023,6,8,13,58,50,941
1.31400,-0.00455,-0.10150,0.00000,0.03318,0.97673,-0.18886,2023,6,8,13,58,50,952
1.31410,0.15295,-0.13650,0.00000,0.03282,0.97673,-0.18776,2023,6,8,13,58,50,964
1.31420,-0.03955,-0.18900,0.00000,0.02952,0.97429,-0.18947,2023,6,8,13,58,50,975
1.31430,0.20545,-0.04900,0.00000,0.03050,0.97539,-0.18971,2023,6,8,13,58,50,986
1.31440,0.15295,0.19600,0.00000,0.03123,0.97734,-0.18751,2023,6,8,13,58,51,7
1.31450,0.06545,0.00350,0.00000,0.03196,0.97307,-0.18910,2023,6,8,13,58,51,18
1.31460,-0.07455,0.07350,0.00000,0.02977,0.97637,-0.18751,2023,6,8,13,58,51,29
1.31470,0.08295,0.00350,0.00000,0.03160,0.97380,-0.18922,2023,6,8,13,58,51,40
1.31480,0.29295,-0.01400,0.00000,0.03038,0.97673,-0.19044,2023,6,8,13,58,51,51
1.31490,0.03045,0.12600,0.00000,0.02989,0.97649,-0.18812,2023,6,8,13,58,51,62
1.31500,-0.19705,-0.08400,0.00000,0.03038,0.97624,-0.19008,2023,6,8,13,58,51,74
1.31510,-0.00455,-0.32900,0.00000,0.03026,0.97478,-0.18812,2023,6,8,13,58,51,85
1.31520,-0.07455,-0.08400,0.00000,0.02989,0.97551,-0.18934,2023,6,8,13,58,51,96
1.31530,-0.02205,0.21350,0.00000,0.03074,0.97673,-0.18849,2023,6,8,13,58,51,107
1.31540,0.01295,0.23100,0.00000,0.03184,0.97417,-0.18837,2023,6,8,13,58,51,118
1.31550,-0.00455,-0.04900,0.00000,0.03026,0.97868,-0.19227,2023,6,8,13,58,51,129
1.31560,-0.03955,0.00350,0.00000,0.02940,0.97551,-0.18971,2023,6,8,13,58,51,140
1.31570,-0.07455,-0.01400,0.00000,0.03050,0.97722,-0.18812,2023,6,8,13,58,51,151
1.31580,-0.09205,0.14350,0.00000,0.03184,0.97771,-0.18751,2023,6,8,13,58,51,162
1.31590,0.04795,0.10850,0.00000,0.03148,0.97344,-0.18788,2023,6,8,13,58,51,174
1.31600,-0.10955,-0.04900,0.00000,0.03038,0.97405,-0.18764,2023,6,8,13,58,51,185
1.31610,-0.09205,0.03850,0.00000,0.02782,0.97624,-0.18861,2023,6,8,13,58,51,196
1.31620,-0.03955,0.07350,0.00000,0.02977,0.97515,-0.18898,2023,6,8,13,58,51,207
1.31630,0.03045,0.07350,0.00000,0.03026,0.97551,-0.18739,2023,6,8,13,58,51,218
1.31640,0.15295,0.03850,0.00000,0.03172,0.97527,-0.18886,2023,6,8,13,58,51,229
1.31650,0.03045,0.07350,0.00000,0.03062,0.97637,-0.18812,2023,6,8,13,58,51,240
1.31660,0.11795,-0.18900,0.00000,0.02928,0.97661,-0.18861,2023,6,8,13,58,51,251
1.31670,-0.10955,0.00350,0.00000,0.03087,0.97515,-0.18922,2023,6,8,13,58,51,262
1.31680,0.04795,-0.04900,0.00000,0.03111,0.97588,-0.18922,2023,6,8,13,58,51,274
1.31690,0.15295,0.07350,0.00000,0.03123,0.97380,-0.18788,2023,6,8,13,58,51,285
1.31700,-0.03955,0.03850,0.00000,0.03111,0.97588,-0.18727,2023,6,8,13,58,51,296
1.31710,-0.03955,-0.01400,0.00000,0.02916,0.97405,-0.18800,2023,6,8,13,58,51,307
1.31720,-0.02205,-0.06650,0.00000,0.03087,0.97490,-0.18910,2023,6,8,13,58,51,318
1.31730,-0.03955,0.12600,0.00000,0.02952,0.97576,-0.18886,2023,6,8,13,58,51,329
1.31740,-0.00455,0.03850,0.00000,0.03135,0.97490,-0.18898,2023,6,8,13,58,51,340
1.31750,-0.24955,0.02100,0.00000,0.02940,0.97612,-0.18922,2023,6,8,13,58,51,351
1.31760,0.03045,-0.11900,0.00000,0.02891,0.97429,-0.18983,2023,6,8,13,58,51,362
1.31770,0.01295,-0.06650,0.00000,0.02940,0.97588,-0.18983,2023,6,8,13,58,51,374
1.31780,-0.09205,-0.01400,0.00000,0.02843,0.97478,-0.18776,2023,6,8,13,58,51,385
1.31790,0.01295,-0.22400,0.00000,0.03123,0.97698,-0.18934,2023,6,8,13,58,51,396
1.31800,-0.12705,-0.08400,0.00000,0.03148,0.97478,-0.19044,2023,6,8,13,58,51,407
1.31810,-0.07455,-0.08400,0.00000,0.03111,0.97637,-0.19032,2023,6,8,13,58,51,418
1.31820,-0.12705,0.07350,0.00000,0.03123,0.97515,-0.18959,2023,6,8,13,58,51,429
1.31830,-0.00455,0.07350,0.00000,0.03111,0.97429,-0.18837,2023,6,8,13,58,51,440
1.31840,0.25795,-0.17150,0.00000,0.02818,0.97429,-0.19130,2023,6,8,13,58,51,451
1.31850,-0.00455,0.16100,0.00000,0.02928,0.97539,-0.18922,2023,6,8,13,58,51,462
1.31860,0.06545,0.12600,0.00000,0.03160,0.97490,-0.18922,2023,6,8,13,58,51,474
1.31870,0.08295,-0.11900,0.00000,0.03209,0.97600,-0.18800,2023,6,8,13,58,51,485
1.31880,0.10045,-0.01400,0.00000,0.02891,0.97441,-0.18825,2023,6,8,13,58,51,496
1.31890,-0.00455,0.14350,0.00000,0.03331,0.97393,-0.18971,2023,6,8,13,58,51,507
1.31900,0.04795,0.17850,0.00000,0.03209,0.97539,-0.18873,2023,6,8,13,58,51,518
1.31910,0.03045,0.03850,0.00000,0.03099,0.97600,-0.19117,2023,6,8,13,58,51,529
1.31920,0.01295,0.03850,0.00000,0.03123,0.97612,-0.19300,2023,6,8,13,58,51,540
1.31930,0.04795,0.00350,0.00000,0.03245,0.97441,-0.19215,2023,6,8,13,58,51,551
1.31940,0.04795,0.02100,0.00000,0.03135,0.97600,-0.19008,2023,6,8,13,58,51,562
1.31950,-0.05705,-0.01400,0.00000,0.03245,0.97454,-0.19008,2023,6,8,13,58,51,574
1.31960,0.01295,0.14350,0.00000,0.03001,0.97563,-0.19154,2023,6,8,13,58,51,585
1.31970,0.06545,0.03850,0.00000,0.03270,0.97588,-0.19154,2023,6,8,13,58,51,596
1.31980,-0.12705,0.00350,0.00000,0.03196,0.97588,-0.19142,2023,6,8,13,58,51,607
1.31990,-0.12705,0.09100,0.00000,0.02965,0.97673,-0.18825,2023,6,8,13,58,51,618
1.32000,-0.00455,0.03850,0.00000,0.03355,0.97502,-0.19069,2023,6,8,13,58,51,629
1.32010,0.06545,-0.22400,0.00000,0.02830,0.97454,-0.19081,2023,6,8,13,58,51,640
1.32020,0.13545,0.07350,0.00000,0.03331,0.97576,-0.19008,2023,6,8,13,58,51,651
1.32030,0.03045,-0.01400,0.00000,0.02952,0.97783,-0.18812,2023,6,8,13,58,51,662
1.32040,-0.24955,-0.03150,0.00000,0.03074,0.97588,-0.19056,2023,6,8,13,58,51,674
1.32050,-0.07455,0.02100,0.00000,0.02855,0.97673,-0.18995,2023,6,8,13,58,51,685
1.32060,0.01295,0.00350,0.00000,0.03221,0.97612,-0.18849,2023,6,8,13,58,51,696
1.32070,0.04795,-0.06650,0.00000,0.03062,0.97502,-0.18898,2023,6,8,13,58,51,707
1.32080,-0.03955,0.05600,0.00000,0.03013,0.97844,-0.19154,2023,6,8,13,58,51,718
1.32090,0.22295,0.21350,0.00000,0.02977,0.97368,-0.18825,2023,6,8,13,58,51,729
1.32100,-0.00455,0.09100,0.00000,0.03416,0.97637,-0.18971,2023,6,8,13,58,51,740
1.32110,0.03045,-0.01400,0.00000,0.03013,0.97515,-0.19105,2023,6,8,13,58,51,751
1.32120,0.10045,-0.03150,0.00000,0.03013,0.97380,-0.18934,2023,6,8,13,58,51,762
1.32130,0.03045,-0.10150,0.00000,0.02989,0.97783,-0.19081,2023,6,8,13,58,51,774
1.32140,-0.05705,0.03850,0.00000,0.03355,0.97527,-0.19093,2023,6,8,13,58,51,785
1.32150,-0.00455,-0.17150,0.00000,0.03099,0.97490,-0.19154,2023,6,8,13,58,51,796
1.32160,0.08295,-0.24150,0.00000,0.03050,0.97490,-0.19313,2023,6,8,13,58,51,807
1.32170,-0.10955,-0.01400,0.00000,0.03196,0.97405,-0.18971,2023,6,8,13,58,51,818
1.32180,0.06545,0.05600,0.00000,0.03111,0.97515,-0.18910,2023,6,8,13,58,51,829
1.32190,-0.00455,-0.08400,0.00000,0.03074,0.97612,-0.18910,2023,6,8,13,58,51,840
1.32200,-0.16205,-0.17150,0.00000,0.03221,0.97502,-0.18690,2023,6,8,13,58,51,851
1.32210,-0.12705,0.05600,0.00000,0.03196,0.97576,-0.18788,2023,6,8,13,58,51,862
1.32220,0.13545,-0.15400,0.00000,0.02757,0.97417,-0.18922,2023,6,8,13,58,51,874
1.32230,-0.05705,0.00350,0.00000,0.03013,0.97673,-0.18922,2023,6,8,13,58,51,885
1.32240,0.04795,-0.03150,0.00000,0.03013,0.97734,-0.19008,2023,6,8,13,58,51,896
1.32250,-0.14455,-0.08400,0.00000,0.03026,0.97698,-0.18825,2023,6,8,13,58,51,907
1.32260,0.06545,-0.10150,0.00000,0.03209,0.97551,-0.18934,2023,6,8,13,58,51,918
1.32270,0.18795,-0.03150,0.00000,0.03074,0.97441,-0.18837,2023,6,8,13,58,51,929
1.32280,0.04795,-0.11900,0.00000,0.03233,0.97637,-0.19020,2023,6,8,13,58,51,940
1.32290,0.01295,0.10850,0.00000,0.03013,0.97551,-0.18812,2023,6,8,13,58,51,951
1.32300,0.13545,0.07350,0.00000,0.02965,0.97551,-0.18910,2023,6,8,13,58,52,2
1.32310,-0.16205,0.07350,0.00000,0.03135,0.97478,-0.18910,2023,6,8,13,58,52,14
1.32320,-0.03955,0.21350,0.00000,0.03013,0.97539,-0.18886,2023,6,8,13,58,52,25
1.32330,-0.03955,0.09100,0.00000,0.03013,0.97722,-0.18715,2023,6,8,13,58,52,36
1.32340,-0.23205,0.12600,0.00000,0.03026,0.97612,-0.18983,2023,6,8,13,58,52,47
1.32350,-0.03955,0.21350,0.00000,0.02940,0.97405,-0.18959,2023,6,8,13,58,52,58
1.32360,0.06545,0.00350,0.00000,0.03379,0.97478,-0.18947,2023,6,8,13,58,52,69
1.32370,-0.05705,0.09100,0.00000,0.03062,0.97429,-0.18922,2023,6,8,13,58,52,80
1.32380,0.06545,-0.01400,0.00000,0.03062,0.97759,-0.18898,2023,6,8,13,58,52,91
1.32390,-0.05705,-0.03150,0.00000,0.03074,0.97454,-0.18898,2023,6,8,13,58,52,102
1.32400,-0.05705,0.05600,0.00000,0.03099,0.97454,-0.19081,2023,6,8,13,58,52,114
1.32410,0.03045,0.00350,0.00000,0.03050,0.97344,-0.18983,2023,6,8,13,58,52,125
1.32420,-0.21455,0.00350,0.00000,0.03245,0.97563,-0.19032,2023,6,8,13,58,52,136
1.32430,-0.05705,0.09100,0.00000,0.03196,0.97600,-0.18910,2023,6,8,13,58,52,147
1.32440,0.20545,-0.10150,0.00000,0.03196,0.97637,-0.18886,2023,6,8,13,58,52,158
1.32450,0.06545,0.00350,0.00000,0.03026,0.97490,-0.19130,2023,6,8,13,58,52,169
1.32460,-0.19705,0.14350,0.00000,0.03196,0.97649,-0.19032,2023,6,8,13,58,52,180
1.32470,0.04795,0.00350,0.00000,0.02879,0.97637,-0.18971,2023,6,8,13,58,52,191
1.32480,-0.12705,-0.11900,0.00000,0.03026,0.97588,-0.19069,2023,6,8,13,58,52,202
1.32490,0.08295,0.09100,0.00000,0.03111,0.97624,-0.19032,2023,6,8,13,58,52,214
1.32500,-0.03955,-0.04900,0.00000,0.03233,0.97271,-0.18983,2023,6,8,13,58,52,225
1.32510,-0.17955,-0.08400,0.00000,0.03074,0.97649,-0.19154,2023,6,8,13,58,52,236
1.32520,0.20545,-0.29400,0.00000,0.02965,0.97600,-0.19154,2023,6,8,13,58,52,247
1.32530,-0.12705,0.33600,0.00000,0.03038,0.97673,-0.18922,2023,6,8,13,58,52,258
1.32540,-0.00455,0.10850,0.00000,0.03172,0.97551,-0.18800,2023,6,8,13,58,52,269
1.32550,0.01295,0.03850,0.00000,0.03184,0.97588,-0.18825,2023,6,8,13,58,52,280
1.32560,0.08295,0.09100,0.00000,0.03233,0.97441,-0.18898,2023,6,8,13,58,52,291
1.32570,-0.09205,-0.20650,0.00000,0.03184,0.97673,-0.18898,2023,6,8,13,58,52,302
1.32580,-0.00455,-0.03150,0.00000,0.03160,0.97429,-0.18837,2023,6,8,13,58,52,314
1.32590,0.06545,-0.01400,0.00000,0.02965,0.97441,-0.19020,2023,6,8,13,58,52,325
1.32600,-0.02205,0.02100,0.00000,0.02867,0.97551,-0.18898,2023,6,8,13,58,52,336
1.32610,-0.10955,0.05600,0.00000,0.03062,0.97539,-0.19032,2023,6,8,13,58,52,347
1.32620,-0.12705,0.05600,0.00000,0.03074,0.97722,-0.18654,2023,6,8,13,58,52,358
1.32630,0.17045,-0.06650,0.00000,0.03233,0.97759,-0.18739,2023,6,8,13,58,52,369
1.32640,0.17045,-0.13650,0.00000,0.03050,0.97551,-0.18861,2023,6,8,13,58,52,380
1.32650,-0.05705,-0.11900,0.00000,0.03074,0.97685,-0.18800,2023,6,8,13,58,52,391
1.32660,-0.14455,-0.01400,0.00000,0.03367,0.97539,-0.19020,2023,6,8,13,58,52,402
1.32670,0.13545,0.02100,0.00000,0.03074,0.97563,-0.18873,2023,6,8,13,58,52,414
1.32680,0.01295,-0.15400,0.00000,0.02989,0.97454,-0.18776,2023,6,8,13,58,52,425
1.32690,0.06545,-0.01400,0.00000,0.03209,0.97612,-0.18983,2023,6,8,13,58,52,436
1.32700,0.06545,-0.11900,0.00000,0.02977,0.97698,-0.18934,2023,6,8,13,58,52,447
1.32710,0.17045,0.16100,0.00000,0.03196,0.97393,-0.19032,2023,6,8,13,58,52,458
1.32720,-0.07455,0.17850,0.00000,0.03111,0.97710,-0.18593,2023,6,8,13,58,52,469
1.32730,-0.00455,0.03850,0.00000,0.03087,0.98051,-0.18764,2023,6,8,13,58,52,480
1.32740,-0.00455,-0.03150,0.00000,0.03160,0.97637,-0.18947,2023,6,8,13,58,52,491
1.32750,-0.09205,-0.04900,0.00000,0.02794,0.97490,-0.18776,2023,6,8,13,58,52,502
1.32760,0.18795,0.12600,0.00000,0.03074,0.97673,-0.18886,2023,6,8,13,58,52,514
1.32770,0.06545,0.09100,0.00000,0.03172,0.97478,-0.18971,2023,6,8,13,58,52,525
1.32780,-0.00455,0.02100,0.00000,0.03123,0.97698,-0.19105,2023,6,8,13,58,52,536
1.32790,0.18795,-0.17150,0.00000,0.03013,0.97600,-0.18776,2023,6,8,13,58,52,547
1.32800,-0.00455,-0.10150,0.00000,0.02757,0.97441,-0.18910,2023,6,8,13,58,52,558
1.32810,-0.00455,-0.04900,0.00000,0.03074,0.97600,-0.18812,2023,6,8,13,58,52,569
1.32820,0.24045,0.02100,0.00000,0.03099,0.97515,-0.18751,2023,6,8,13,58,52,580
1.32830,0.03045,0.28350,0.00000,0.02965,0.97795,-0.18898,2023,6,8,13,58,52,591
1.32840,-0.05705,0.02100,0.00000,0.03050,0.97576,-0.18788,2023,6,8,13,58,52,602
1.32850,0.03045,0.09100,0.00000,0.03148,0.97588,-0.18825,2023,6,8,13,58,52,614
1.32860,0.01295,-0.04900,0.00000,0.03221,0.97502,-0.18727,2023,6,8,13,58,52,625
1.32870,0.15295,0.12600,0.00000,0.02977,0.97466,-0.18873,2023,6,8,13,58,52,636
1.32880,0.06545,0.09100,0.00000,0.03160,0.97454,-0.18947,2023,6,8,13,58,52,647
1.32890,-0.02205,0.00350,0.00000,0.02928,0.97624,-0.18788,2023,6,8,13,58,52,658
1.32900,0.03045,-0.04900,0.00000,0.03111,0.97515,-0.18922,2023,6,8,13,58,52,669
1.32910,0.04795,0.14350,0.00000,0.03135,0.97478,-0.18886,2023,6,8,13,58,52,680
1.32920,0.03045,-0.18900,0.00000,0.03062,0.97588,-0.18898,2023,6,8,13,58,52,691
1.32930,-0.03955,-0.04900,0.00000,0.02952,0.97698,-0.19008,2023,6,8,13,58,52,702
1.32940,0.18795,-0.11900,0.00000,0.02879,0.97600,-0.18873,2023,6,8,13,58,52,714
1.32950,0.17045,0.12600,0.00000,0.03221,0.97576,-0.18898,2023,6,8,13,58,52,725
1.32960,0.08295,0.00350,0.00000,0.03001,0.97563,-0.18959,2023,6,8,13,58,52,736
1.32970,-0.07455,-0.06650,0.00000,0.03172,0.97661,-0.18751,2023,6,8,13,58,52,747
1.32980,-0.02205,0.10850,0.00000,0.03111,0.97563,-0.18947,2023,6,8,13,58,52,758
1.32990,0.01295,-0.08400,0.00000,0.03013,0.97539,-0.18922,2023,6,8,13,58,52,769
1.33000,-0.05705,-0.04900,0.00000,0.03294,0.97490,-0.18959,2023,6,8,13,58,52,780
1.33010,0.06545,-0.03150,0.00000,0.03001,0.97783,-0.18751,2023,6,8,13,58,52,791
1.33020,0.11795,0.05600,0.00000,0.02794,0.97429,-0.19008,2023,6,8,13,58,52,802
1.33030,0.01295,0.05600,0.00000,0.02989,0.97319,-0.18727,2023,6,8,13,58,52,814
1.33040,-0.09205,-0.27650,0.00000,0.03013,0.97551,-0.18837,2023,6,8,13,58,52,825
1.33050,0.01295,-0.06650,0.00000,0.02952,0.97698,-0.18873,2023,6,8,13,58,52,836
1.33060,0.11795,-0.13650,0.00000,0.03135,0.97478,-0.18898,2023,6,8,13,58,52,847
1.33070,-0.03955,0.03850,0.00000,0.03050,0.97710,-0.18983,2023,6,8,13,58,52,858
1.33080,0.03045,-0.18900,0.00000,0.03184,0.97441,-0.18849,2023,6,8,13,58,52,869
1.33090,0.06545,-0.01400,0.00000,0.03160,0.97527,-0.19020,2023,6,8,13,58,52,880
1.33100,-0.05705,0.16100,0.00000,0.02989,0.97624,-0.18898,2023,6,8,13,58,52,891
1.33110,-0.00455,-0.01400,0.00000,0.02989,0.97673,-0.18703,2023,6,8,13,58,52,902
1.33120,-0.05705,-0.06650,0.00000,0.03074,0.97710,-0.18898,2023,6,8,13,58,52,914
1.33130,0.13545,-0.03150,0.00000,0.02891,0.97539,-0.18947,2023,6,8,13,58,52,925
1.33140,-0.00455,-0.08400,0.00000,0.03001,0.97685,-0.18934,2023,6,8,13,58,52,936
1.33150,-0.05705,-0.08400,0.00000,0.03209,0.97600,-0.18959,2023,6,8,13,58,52,947
1.33160,-0.02205,-0.01400,0.00000,0.03050,0.97710,-0.18812,2023,6,8,13,58,52,958
1.33170,-0.03955,-0.01400,0.00000,0.03172,0.97722,-0.18739,2023,6,8,13,58,52,969
1.33180,-0.10955,-0.03150,0.00000,0.03074,0.97563,-0.18459,2023,6,8,13,58,52,980
1.33190,0.10045,0.07350,0.00000,0.03013,0.97698,-0.18812,2023,6,8,13,58,52,991
1.33200,-0.00455,0.09100,0.00000,0.02843,0.97600,-0.18934,2023,6,8,13,58,53,2
1.33210,0.08295,0.09100,0.00000,0.02867,0.97820,-0.18764,2023,6,8,13,58,53,14
1.33220,0.29295,0.14350,0.00000,0.03099,0.97576,-0.18910,2023,6,8,13,58,53,25
1.33230,-0.05705,0.00350,0.00000,0.02879,0.97478,-0.18837,2023,6,8,13,58,53,36
1.33240,-0.02205,0.09100,0.00000,0.03221,0.97454,-0.18642,2023,6,8,13,58,53,47
1.33250,0.04795,0.09100,0.00000,0.03026,0.97673,-0.18837,2023,6,8,13,58,53,58
1.33260,0.11795,-0.08400,0.00000,0.02952,0.97588,-0.18739,2023,6,8,13,58,53,69
1.33270,-0.14455,0.14350,0.00000,0.02952,0.97710,-0.18654,2023,6,8,13,58,53,80
1.33280,-0.14455,0.00350,0.00000,0.03074,0.97612,-0.18873,2023,6,8,13,58,53,91
1.33290,0.04795,0.03850,0.00000,0.03038,0.97600,-0.18715,2023,6,8,13,58,53,102
1.33300,0.18795,-0.06650,0.00000,0.03062,0.97344,-0.18690,2023,6,8,13,58,53,114
1.33310,0.38045,-0.10150,0.00000,0.03184,0.97527,-0.18971,2023,6,8,13,58,53,125
1.33320,0.10045,0.05600,0.00000,0.02879,0.97637,-0.18751,2023,6,8,13,58,53,136
1.33330,0.08295,0.05600,0.00000,0.03001,0.97502,-0.18886,2023,6,8,13,58,53,147
1.33340,0.11795,-0.10150,0.00000,0.03245,0.97454,-0.18678,2023,6,8,13,58,53,158
1.33350,0.10045,0.05600,0.00000,0.03270,0.97698,-0.18703,2023,6,8,13,58,53,169
1.33360,0.11795,-0.11900,0.00000,0.03111,0.97563,-0.18593,2023,6,8,13,58,53,180
1.33370,0.03045,-0.06650,0.00000,0.03001,0.97466,-0.18886,2023,6,8,13,58,53,191
1.33380,-0.10955,0.00350,0.00000,0.03209,0.97637,-0.18959,2023,6,8,13,58,53,202
1.33390,-0.02205,0.02100,0.00000,0.03038,0.97649,-0.18873,2023,6,8,13,58,53,214
1.33400,-0.02205,-0.06650,0.00000,0.03013,0.97612,-0.18617,2023,6,8,13,58,53,225
1.33410,0.10045,-0.29400,0.00000,0.03038,0.97527,-0.18776,2023,6,8,13,58,53,236
1.33420,-0.10955,-0.01400,0.00000,0.03087,0.97661,-0.18751,2023,6,8,13,58,53,247
1.33430,-0.07455,-0.11900,0.00000,0.02928,0.97454,-0.18861,2023,6,8,13,58,53,258
1.33440,-0.09205,0.09100,0.00000,0.03038,0.97551,-0.18678,2023,6,8,13,58,53,269
1.33450,0.06545,-0.01400,0.00000,0.03062,0.97673,-0.18751,2023,6,8,13,58,53,280
1.33460,-0.23205,-0.11900,0.00000,0.03001,0.97405,-0.18568,2023,6,8,13,58,53,291
1.33470,0.03045,-0.25900,0.00000,0.02989,0.97356,-0.18690,2023,6,8,13,58,53,302
1.33480,-0.03955,0.03850,0.00000,0.02879,0.97637,-0.18751,2023,6,8,13,58,53,314
1.33490,-0.10955,-0.08400,0.00000,0.03148,0.97405,-0.18922,2023,6,8,13,58,53,325
1.33500,-0.05705,0.09100,0.00000,0.02940,0.97637,-0.18910,2023,6,8,13,58,53,336
1.33510,0.11795,-0.17150,0.00000,0.03123,0.97600,-0.18471,2023,6,8,13,58,53,347
1.33520,0.18795,-0.13650,0.00000,0.03087,0.97380,-0.19044,2023,6,8,13,58,53,358
1.33530,0.08295,-0.03150,0.00000,0.02977,0.97710,-0.18812,2023,6,8,13,58,53,369
1.33540,0.03045,0.07350,0.00000,0.02940,0.97551,-0.18959,2023,6,8,13,58,53,380
1.33550,-0.16205,0.07350,0.00000,0.02928,0.97417,-0.18544,2023,6,8,13,58,53,391
1.33560,-0.12705,0.19600,0.00000,0.02965,0.97698,-0.18617,2023,6,8,13,58,53,402
1.33570,-0.02205,-0.01400,0.00000,0.02965,0.97527,-0.18666,2023,6,8,13,58,53,414
1.33580,-0.03955,-0.03150,0.00000,0.02965,0.97380,-0.18898,2023,6,8,13,58,53,425
1.33590,0.01295,-0.06650,0.00000,0.03111,0.97710,-0.18886,2023,6,8,13,58,53,436
1.33600,0.03045,0.05600,0.00000,0.03062,0.97539,-0.18886,2023,6,8,13,58,53,447
1.33610,0.11795,0.00350,0.00000,0.03160,0.97441,-0.18678,2023,6,8,13,58,53,458
1.33620,-0.16205,0.19600,0.00000,0.03123,0.97417,-0.18715,2023,6,8,13,58,53,469
1.33630,-0.09205,-0.01400,0.00000,0.03318,0.97502,-0.18922,2023,6,8,13,58,53,480
1.33640,0.27545,-0.10150,0.00000,0.02989,0.97661,-0.18788,2023,6,8,13,58,53,491
1.33650,-0.16205,-0.01400,0.00000,0.03135,0.97734,-0.18483,2023,6,8,13,58,53,502
1.33660,0.15295,0.03850,0.00000,0.03160,0.97734,-0.18739,2023,6,8,13,58,53,514
1.33670,-0.10955,-0.04900,0.00000,0.02904,0.97466,-0.18995,2023,6,8,13,58,53,525
1.33680,0.03045,-0.17150,0.00000,0.03062,0.97515,-0.18886,2023,6,8,13,58,53,536
1.33690,0.10045,-0.10150,0.00000,0.02916,0.97417,-0.18654,2023,6,8,13,58,53,547
1.33700,0.06545,-0.03150,0.00000,0.02867,0.97551,-0.18764,2023,6,8,13,58,53,558
1.33710,0.17045,0.02100,0.00000,0.03123,0.97576,-0.18837,2023,6,8,13,58,53,569
1.33720,0.18795,-0.01400,0.00000,0.03160,0.97441,-0.18934,2023,6,8,13,58,53,580
1.33730,-0.19705,0.10850,0.00000,0.03099,0.97637,-0.18837,2023,6,8,13,58,53,591
1.33740,0.17045,-0.03150,0.00000,0.03160,0.97502,-0.18825,2023,6,8,13,58,53,602
1.33750,-0.21455,0.00350,0.00000,0.02928,0.97612,-0.18678,2023,6,8,13,58,53,614
1.33760,-0.03955,-0.03150,0.00000,0.03111,0.97637,-0.18788,2023,6,8,13,58,53,625
1.33770,-0.05705,0.05600,0.00000,0.03184,0.97478,-0.18751,2023,6,8,13,58,53,636
1.33780,-0.07455,0.03850,0.00000,0.02952,0.97722,-0.18654,2023,6,8,13,58,53,647
1.33790,-0.09205,0.00350,0.00000,0.03172,0.97319,-0.18764,2023,6,8,13,58,53,658
1.33800,-0.00455,0.09100,0.00000,0.03160,0.97307,-0.18703,2023,6,8,13,58,53,669
1.33810,-0.03955,0.02100,0.00000,0.03026,0.97466,-0.18849,2023,6,8,13,58,53,680
1.33820,-0.16205,0.16100,0.00000,0.03099,0.97612,-0.18776,2023,6,8,13,58,53,691
1.33830,-0.17955,0.14350,0.00000,0.02806,0.97405,-0.19093,2023,6,8,13,58,53,702
1.33840,0.11795,-0.08400,0.00000,0.03038,0.97563,-0.18861,2023,6,8,13,58,53,714
1.33850,-0.09205,0.00350,0.00000,0.02843,0.97624,-0.18886,2023,6,8,13,58,53,725
1.33860,-0.05705,-0.06650,0.00000,0.03050,0.97576,-0.18861,2023,6,8,13,58,53,736
1.33870,-0.23205,-0.10150,0.00000,0.03001,0.97258,-0.18715,2023,6,8,13,58,53,747
1.33880,0.03045,0.05600,0.00000,0.03062,0.97417,-0.18825,2023,6,8,13,58,53,758
1.33890,-0.05705,-0.08400,0.00000,0.03196,0.97405,-0.18959,2023,6,8,13,58,53,769
1.33900,0.13545,0.10850,0.00000,0.02989,0.97515,-0.18910,2023,6,8,13,58,53,780
1.33910,0.24045,-0.08400,0.00000,0.03135,0.97563,-0.18898,2023,6,8,13,58,53,791
1.33920,0.10045,-0.17150,0.00000,0.03111,0.97588,-0.18825,2023,6,8,13,58,53,802
1.33930,-0.02205,-0.04900,0.00000,0.03062,0.97429,-0.18788,2023,6,8,13,58,53,814
1.33940,0.06545,0.09100,0.00000,0.03257,0.97490,-0.19032,2023,6,8,13,58,53,825
1.33950,0.11795,-0.20650,0.00000,0.03196,0.97563,-0.18873,2023,6,8,13,58,53,836
1.33960,-0.24955,0.16100,0.00000,0.02952,0.97563,-0.18739,2023,6,8,13,58,53,847
1.33970,-0.12705,0.02100,0.00000,0.03160,0.97490,-0.18764,2023,6,8,13,58,53,858
1.33980,0.01295,0.09100,0.00000,0.03001,0.97393,-0.18934,2023,6,8,13,58,53,869
1.33990,-0.00455,0.00350,0.00000,0.03148,0.97307,-0.18739,2023,6,8,13,58,53,880
1.34000,-0.07455,-0.03150,0.00000,0.03148,0.97429,-0.18788,2023,6,8,13,58,53,891
1.34010,0.08295,-0.08400,0.00000,0.03135,0.97624,-0.18898,2023,6,8,13,58,53,902
1.34020,-0.03955,0.12600,0.00000,0.03050,0.97502,-0.18947,2023,6,8,13,58,53,914
1.34030,-0.16205,0.17850,0.00000,0.03148,0.97466,-0.18910,2023,6,8,13,58,53,925
1.34040,0.04795,0.21350,0.00000,0.03001,0.97698,-0.18727,2023,6,8,13,58,53,936
1.34050,0.20545,-0.03150,0.00000,0.03026,0.97454,-0.18910,2023,6,8,13,58,53,947
1.34060,0.03045,0.14350,0.00000,0.02952,0.97600,-0.18593,2023,6,8,13,58,53,958
1.34070,-0.10955,0.23100,0.00000,0.03074,0.97515,-0.18739,2023,6,8,13,58,53,969
1.34080,0.10045,-0.03150,0.00000,0.02965,0.97478,-0.18886,2023,6,8,13,58,53,980
1.34090,-0.02205,-0.11900,0.00000,0.02879,0.97502,-0.18800,2023,6,8,13,58,53,991
1.34100,-0.09205,0.09100,0.00000,0.03026,0.97637,-0.19008,2023,6,8,13,58,54,2
1.34110,-0.00455,-0.03150,0.00000,0.03111,0.97685,-0.18776,2023,6,8,13,58,54,14
1.34120,0.18795,-0.06650,0.00000,0.03245,0.97466,-0.18825,2023,6,8,13,58,54,25
1.34130,0.22295,-0.13650,0.00000,0.02952,0.97576,-0.18703,2023,6,8,13,58,54,36
1.34140,0.18795,-0.06650,0.00000,0.03209,0.97612,-0.18849,2023,6,8,13,58,54,47
1.34150,0.11795,-0.11900,0.00000,0.03257,0.97332,-0.18788,2023,6,8,13,58,54,58
1.34160,-0.00455,0.02100,0.00000,0.03111,0.97649,-0.18788,2023,6,8,13,58,54,69
1.34170,0.27545,0.09100,0.00000,0.03013,0.97661,-0.18983,2023,6,8,13,58,54,80
1.34180,0.06545,-0.04900,0.00000,0.03062,0.97527,-0.18629,2023,6,8,13,58,54,91
1.34190,-0.02205,-0.25900,0.00000,0.03270,0.97588,-0.18544,2023,6,8,13,58,54,102
1.34200,-0.12705,0.14350,0.00000,0.03099,0.97466,-0.18825,2023,6,8,13,58,54,114
1.34210,0.15295,-0.17150,0.00000,0.03184,0.97612,-0.18886,2023,6,8,13,58,54,125
1.34220,0.36295,-0.15400,0.00000,0.02977,0.97551,-0.18849,2023,6,8,13,58,54,136
1.34230,-0.10955,-0.04900,0.00000,0.02867,0.97539,-0.18983,2023,6,8,13,58,54,147
1.34240,-0.14455,0.02100,0.00000,0.03062,0.97698,-0.18764,2023,6,8,13,58,54,158
1.34250,-0.09205,0.00350,0.00000,0.03062,0.97502,-0.18764,2023,6,8,13,58,54,169
1.34260,-0.02205,0.09100,0.00000,0.03111,0.97820,-0.18873,2023,6,8,13,58,54,180
1.34270,-0.00455,0.12600,0.00000,0.02977,0.97746,-0.18764,2023,6,8,13,58,54,191
1.34280,0.03045,-0.31150,0.00000,0.03026,0.97600,-0.18959,2023,6,8,13,58,54,202
1.34290,-0.09205,0.05600,0.00000,0.02904,0.97637,-0.18739,2023,6,8,13,58,54,214
1.34300,-0.03955,-0.06650,0.00000,0.03087,0.97661,-0.18947,2023,6,8,13,58,54,225
1.34310,0.10045,-0.01400,0.00000,0.03184,0.97478,-0.18873,2023,6,8,13,58,54,236
1.34320,0.01295,-0.17150,0.00000,0.03209,0.97563,-0.18898,2023,6,8,13,58,54,247
1.34330,0.01295,-0.06650,0.00000,0.03038,0.97746,-0.18800,2023,6,8,13,58,54,258
1.34340,0.01295,-0.10150,0.00000,0.03026,0.97332,-0.18812,2023,6,8,13,58,54,269
1.34350,-0.07455,0.00350,0.00000,0.02965,0.97490,-0.18837,2023,6,8,13,58,54,280
1.34360,-0.02205,-0.15400,0.00000,0.03111,0.97307,-0.18910,2023,6,8,13,58,54,291
1.34370,0.03045,-0.06650,0.00000,0.02977,0.97588,-0.18715,2023,6,8,13,58,54,302
1.34380,0.10045,0.09100,0.00000,0.02977,0.97637,-0.18739,2023,6,8,13,58,54,314
1.34390,0.10045,0.17850,0.00000,0.03282,0.97698,-0.18800,2023,6,8,13,58,54,325
1.34400,0.15295,0.07350,0.00000,0.03135,0.97563,-0.18837,2023,6,8,13,58,54,336
1.34410,0.04795,-0.04900,0.00000,0.03026,0.97759,-0.18947,2023,6,8,13,58,54,347
1.34420,-0.05705,0.09100,0.00000,0.03074,0.97746,-0.18703,2023,6,8,13,58,54,358
1.34430,0.03045,-0.06650,0.00000,0.03013,0.97844,-0.18886,2023,6,8,13,58,54,369
1.34440,0.03045,-0.08400,0.00000,0.02940,0.97637,-0.18837,2023,6,8,13,58,54,380
1.34450,-0.09205,0.12600,0.00000,0.03331,0.97612,-0.19056,2023,6,8,13,58,54,391
1.34460,-0.05705,-0.03150,0.00000,0.03233,0.97173,-0.18776,2023,6,8,13,58,54,402
1.34470,-0.24955,0.26600,0.00000,0.03148,0.97734,-0.18751,2023,6,8,13,58,54,414
1.34480,0.10045,-0.10150,0.00000,0.03013,0.97576,-0.18947,2023,6,8,13,58,54,425
1.34490,-0.05705,0.05600,0.00000,0.02989,0.97722,-0.18751,2023,6,8,13,58,54,436
1.34500,0.08295,0.02100,0.00000,0.03160,0.97283,-0.18825,2023,6,8,13,58,54,447
1.34510,-0.02205,-0.08400,0.00000,0.02940,0.97612,-0.18776,2023,6,8,13,58,54,458
1.34520,-0.10955,-0.03150,0.00000,0.02904,0.97685,-0.18934,2023,6,8,13,58,54,469
1.34530,-0.03955,-0.04900,0.00000,0.03001,0.97624,-0.18617,2023,6,8,13,58,54,480
1.34540,0.15295,-0.01400,0.00000,0.03257,0.97356,-0.19020,2023,6,8,13,58,54,491
1.34550,-0.03955,-0.03150,0.00000,0.03221,0.97807,-0.19020,2023,6,8,13,58,54,502
1.34560,-0.10955,0.16100,0.00000,0.02952,0.97490,-0.18861,2023,6,8,13,58,54,514
1.34570,0.08295,-0.24150,0.00000,0.03135,0.97515,-0.18934,2023,6,8,13,58,54,525
1.34580,-0.02205,0.24850,0.00000,0.03074,0.97673,-0.18947,2023,6,8,13,58,54,536
1.34590,-0.03955,0.21350,0.00000,0.03087,0.97539,-0.19032,2023,6,8,13,58,54,547
1.34600,0.03045,0.05600,0.00000,0.02855,0.97380,-0.18934,2023,6,8,13,58,54,558
1.34610,-0.00455,0.00350,0.00000,0.03209,0.97783,-0.18837,2023,6,8,13,58,54,569
1.34620,-0.00455,-0.22400,0.00000,0.03404,0.97588,-0.18751,2023,6,8,13,58,54,580
1.34630,-0.12705,0.14350,0.00000,0.02818,0.97454,-0.18910,2023,6,8,13,58,54,591
1.34640,0.27545,-0.27650,0.00000,0.03099,0.97405,-0.18934,2023,6,8,13,58,54,602
1.34650,0.10045,-0.04900,0.00000,0.02965,0.97685,-0.18922,2023,6,8,13,58,54,614
1.34660,-0.10955,-0.13650,0.00000,0.03026,0.97588,-0.18812,2023,6,8,13,58,54,625
1.34670,-0.05705,-0.17150,0.00000,0.03087,0.97612,-0.18971,2023,6,8,13,58,54,636
1.34680,-0.05705,-0.06650,0.00000,0.03123,0.97490,-0.18971,2023,6,8,13,58,54,647
1.34690,0.03045,-0.03150,0.00000,0.02806,0.97478,-0.19056,2023,6,8,13,58,54,658
1.34700,0.08295,0.02100,0.00000,0.02965,0.97368,-0.18934,2023,6,8,13,58,54,669
1.34710,0.08295,-0.22400,0.00000,0.03074,0.97624,-0.18873,2023,6,8,13,58,54,680
1.34720,-0.02205,-0.11900,0.00000,0.03294,0.97649,-0.18922,2023,6,8,13,58,54,691
1.34730,0.04795,-0.10150,0.00000,0.03074,0.97637,-0.18837,2023,6,8,13,58,54,702
1.34740,-0.05705,-0.03150,0.00000,0.02977,0.97649,-0.18983,2023,6,8,13,58,54,714
1.34750,0.11795,-0.04900,0.00000,0.03099,0.97441,-0.18678,2023,6,8,13,58,54,725
1.34760,0.10045,-0.18900,0.00000,0.03123,0.97380,-0.19056,2023,6,8,13,58,54,736
1.34770,-0.05705,-0.01400,0.00000,0.03111,0.97551,-0.18873,2023,6,8,13,58,54,747
1.34780,-0.03955,0.05600,0.00000,0.03050,0.97539,-0.18971,2023,6,8,13,58,54,758
1.34790,-0.03955,0.09100,0.00000,0.02952,0.97612,-0.18947,2023,6,8,13,58,54,769
1.34800,0.18795,0.03850,0.00000,0.03209,0.97332,-0.18812,2023,6,8,13,58,54,780
1.34810,0.06545,-0.15400,0.00000,0.03099,0.97441,-0.18873,2023,6,8,13,58,54,791
1.34820,-0.14455,0.02100,0.00000,0.02965,0.97563,-0.18971,2023,6,8,13,58,54,802
1.34830,-0.07455,0.00350,0.00000,0.03160,0.97429,-0.18995,2023,6,8,13,58,54,814
1.34840,-0.10955,0.26600,0.00000,0.03172,0.97429,-0.18922,2023,6,8,13,58,54,825
1.34850,0.01295,-0.03150,0.00000,0.03038,0.97600,-0.19008,2023,6,8,13,58,54,836
1.34860,-0.10955,-0.15400,0.00000,0.03099,0.97515,-0.18922,2023,6,8,13,58,54,847
1.34870,0.03045,-0.15400,0.00000,0.03074,0.97624,-0.18727,2023,6,8,13,58,54,858
1.34880,0.03045,-0.04900,0.00000,0.03196,0.97417,-0.18886,2023,6,8,13,58,54,869
1.34890,-0.00455,0.14350,0.00000,0.03160,0.97807,-0.18910,2023,6,8,13,58,54,880
1.34900,0.03045,0.07350,0.00000,0.03050,0.97637,-0.18727,2023,6,8,13,58,54,891
1.34910,-0.03955,-0.10150,0.00000,0.03221,0.97417,-0.18910,2023,6,8,13,58,54,902
1.34920,0.17045,0.10850,0.00000,0.03074,0.97612,-0.18812,2023,6,8,13,58,54,914
1.34930,0.08295,-0.20650,0.00000,0.03050,0.97502,-0.18788,2023,6,8,13,58,54,925
1.34940,-0.05705,-0.13650,0.00000,0.03099,0.97673,-0.18690,2023,6,8,13,58,54,936
1.34950,0.11795,0.09100,0.00000,0.03148,0.97502,-0.18886,2023,6,8,13,58,54,947
1.34960,0.08295,-0.10150,0.00000,0.03196,0.97820,-0.19008,2023,6,8,13,58,54,958
1.34970,-0.02205,0.02100,0.00000,0.02977,0.97698,-0.18947,2023,6,8,13,58,55,9
1.34980,-0.14455,0.02100,0.00000,0.03123,0.97551,-0.18690,2023,6,8,13,58,55,20
1.34990,-0.02205,0.16100,0.00000,0.03123,0.97661,-0.18898,2023,6,8,13,58,55,31
1.35000,0.03045,-0.04900,0.00000,0.03209,0.97722,-0.18788,2023,6,8,13,58,55,42
1.35010,-0.10955,-0.10150,0.00000,0.03221,0.97527,-0.18849,2023,6,8,13,58,55,54
1.35020,0.11795,0.00350,0.00000,0.03111,0.97429,-0.19105,2023,6,8,13,58,55,65
1.35030,-0.12705,0.17850,0.00000,0.03074,0.97771,-0.19008,2023,6,8,13,58,55,76
1.35040,0.01295,0.21350,0.00000,0.03135,0.97563,-0.18983,2023,6,8,13,58,55,87
1.35050,0.27545,-0.11900,0.00000,0.03111,0.97832,-0.19020,2023,6,8,13,58,55,98
1.35060,0.01295,-0.13650,0.00000,0.02989,0.97515,-0.18764,2023,6,8,13,58,55,109
1.35070,0.04795,0.12600,0.00000,0.03001,0.97563,-0.18764,2023,6,8,13,58,55,120
1.35080,-0.02205,0.02100,0.00000,0.03038,0.97527,-0.18995,2023,6,8,13,58,55,131
1.35090,-0.00455,0.07350,0.00000,0.03148,0.97661,-0.18995,2023,6,8,13,58,55,142
1.35100,0.01295,0.26600,0.00000,0.02989,0.97307,-0.19044,2023,6,8,13,58,55,154
1.35110,0.04795,-0.03150,0.00000,0.02916,0.97624,-0.18800,2023,6,8,13,58,55,165
1.35120,0.04795,0.03850,0.00000,0.02904,0.97710,-0.18800,2023,6,8,13,58,55,176
1.35130,0.04795,0.03850,0.00000,0.02989,0.97576,-0.18849,2023,6,8,13,58,55,187
1.35140,-0.10955,0.03850,0.00000,0.02977,0.97673,-0.18995,2023,6,8,13,58,55,198
1.35150,-0.12705,-0.04900,0.00000,0.03270,0.97612,-0.18898,2023,6,8,13,58,55,209
1.35160,-0.02205,0.03850,0.00000,0.03038,0.97356,-0.18690,2023,6,8,13,58,55,220
1.35170,0.15295,-0.25900,0.00000,0.03306,0.97344,-0.18739,2023,6,8,13,58,55,231
1.35180,0.13545,-0.04900,0.00000,0.02965,0.97685,-0.18715,2023,6,8,13,58,55,242
1.35190,-0.03955,0.14350,0.00000,0.03245,0.97698,-0.18947,2023,6,8,13,58,55,254
1.35200,-0.19705,-0.01400,0.00000,0.03074,0.97600,-0.18910,2023,6,8,13,58,55,265
1.35210,0.08295,-0.17150,0.00000,0.03062,0.97551,-0.18788,2023,6,8,13,58,55,276
1.35220,0.03045,0.05600,0.00000,0.02965,0.97429,-0.18825,2023,6,8,13,58,55,287
1.35230,-0.09205,-0.01400,0.00000,0.03172,0.97393,-0.18812,2023,6,8,13,58,55,298
1.35240,-0.12705,0.05600,0.00000,0.03135,0.97624,-0.18727,2023,6,8,13,58,55,309
1.35250,0.10045,-0.01400,0.00000,0.03087,0.97734,-0.18751,2023,6,8,13,58,55,320
1.35260,0.03045,-0.15400,0.00000,0.02952,0.97539,-0.18898,2023,6,8,13,58,55,331
1.35270,-0.12705,0.16100,0.00000,0.03209,0.97600,-0.18776,2023,6,8,13,58,55,342
1.35280,-0.02205,-0.04900,0.00000,0.03196,0.97417,-0.19008,2023,6,8,13,58,55,354
1.35290,0.03045,0.10850,0.00000,0.02843,0.97588,-0.18861,2023,6,8,13,58,55,365
1.35300,-0.16205,-0.01400,0.00000,0.03587,0.97136,-0.18361,2023,6,8,13,58,55,376
1.35310,-0.10955,-0.01400,0.00000,0.03111,0.97649,-0.18886,2023,6,8,13,58,55,387
1.35320,0.03045,0.02100,0.00000,0.02611,0.97319,-0.18776,2023,6,8,13,58,55,398
1.35330,-0.00455,-0.04900,0.00000,0.03453,0.97612,-0.18849,2023,6,8,13,58,55,409
1.35340,0.24045,-0.01400,0.00000,0.02904,0.97478,-0.18776,2023,6,8,13,58,55,420
1.35350,-0.14455,0.03850,0.00000,0.02891,0.97490,-0.18849,2023,6,8,13,58,55,431
1.35360,-0.02205,0.17850,0.00000,0.02879,0.97807,-0.19056,2023,6,8,13,58,55,442
1.35370,-0.17955,-0.01400,0.00000,0.03135,0.97527,-0.18947,2023,6,8,13,58,55,454
1.35380,0.01295,0.09100,0.00000,0.02782,0.97673,-0.18751,2023,6,8,13,58,55,465
1.35390,-0.05705,-0.11900,0.00000,0.02855,0.97624,-0.18617,2023,6,8,13,58,55,476
1.35400,0.03045,-0.03150,0.00000,0.03148,0.97478,-0.18971,2023,6,8,13,58,55,487
1.35410,0.13545,-0.08400,0.00000,0.03038,0.97612,-0.18934,2023,6,8,13,58,55,498
1.35420,0.01295,0.05600,0.00000,0.03135,0.97612,-0.19044,2023,6,8,13,58,55,509
1.35430,0.01295,-0.17150,0.00000,0.03135,0.97795,-0.18764,2023,6,8,13,58,55,520
1.35440,0.18795,-0.18900,0.00000,0.02989,0.97551,-0.18581,2023,6,8,13,58,55,531
1.35450,-0.10955,-0.08400,0.00000,0.03013,0.97612,-0.18825,2023,6,8,13,58,55,542
1.35460,0.15295,0.07350,0.00000,0.03111,0.97283,-0.19008,2023,6,8,13,58,55,554
1.35470,-0.14455,0.00350,0.00000,0.03123,0.97698,-0.18764,2023,6,8,13,58,55,565
1.35480,0.06545,0.00350,0.00000,0.02855,0.97515,-0.18861,2023,6,8,13,58,55,576
1.35490,-0.16205,0.12600,0.00000,0.03050,0.97466,-0.18837,2023,6,8,13,58,55,587
1.35500,-0.02205,0.09100,0.00000,0.03099,0.97722,-0.18873,2023,6,8,13,58,55,598
1.35510,-0.10955,-0.06650,0.00000,0.03184,0.97405,-0.18995,2023,6,8,13,58,55,609
1.35520,-0.05705,0.14350,0.00000,0.03135,0.97624,-0.18764,2023,6,8,13,58,55,620
1.35530,-0.00455,-0.10150,0.00000,0.03099,0.97563,-0.18861,2023,6,8,13,58,55,631
1.35540,0.06545,0.03850,0.00000,0.03050,0.97502,-0.18812,2023,6,8,13,58,55,642
1.35550,-0.07455,-0.03150,0.00000,0.02916,0.97405,-0.19020,2023,6,8,13,58,55,654
1.35560,-0.19705,-0.01400,0.00000,0.03257,0.97612,-0.18690,2023,6,8,13,58,55,665
1.35570,0.15295,-0.03150,0.00000,0.02904,0.97661,-0.18849,2023,6,8,13,58,55,676
1.35580,-0.17955,0.03850,0.00000,0.03245,0.97502,-0.18703,2023,6,8,13,58,55,687
1.35590,0.03045,-0.13650,0.00000,0.02952,0.97527,-0.18837,2023,6,8,13,58,55,698
1.35600,-0.05705,0.12600,0.00000,0.03001,0.97795,-0.18581,2023,6,8,13,58,55,709
1.35610,0.03045,0.00350,0.00000,0.03087,0.97600,-0.18861,2023,6,8,13,58,55,720
1.35620,0.11795,-0.03150,0.00000,0.03026,0.97332,-0.18849,2023,6,8,13,58,55,731
1.35630,0.01295,0.03850,0.00000,0.03062,0.97612,-0.19069,2023,6,8,13,58,55,742
1.35640,0.13545,-0.03150,0.00000,0.03038,0.97502,-0.18910,2023,6,8,13,58,55,754
1.35650,-0.03955,-0.03150,0.00000,0.03111,0.97661,-0.18934,2023,6,8,13,58,55,765
1.35660,-0.02205,0.03850,0.00000,0.03221,0.97466,-0.18947,2023,6,8,13,58,55,776
1.35670,0.01295,0.00350,0.00000,0.03074,0.97380,-0.18886,2023,6,8,13,58,55,787
1.35680,-0.09205,0.09100,0.00000,0.03221,0.97478,-0.18727,2023,6,8,13,58,55,798
1.35690,0.11795,-0.11900,0.00000,0.03148,0.97685,-0.18642,2023,6,8,13,58,55,809
1.35700,0.03045,-0.15400,0.00000,0.03099,0.97417,-0.18995,2023,6,8,13,58,55,820
1.35710,0.13545,0.16100,0.00000,0.02965,0.97502,-0.18812,2023,6,8,13,58,55,831
1.35720,-0.14455,0.19600,0.00000,0.03245,0.97856,-0.18922,2023,6,8,13,58,55,842
1.35730,-0.19705,0.05600,0.00000,0.03001,0.97600,-0.18959,2023,6,8,13,58,55,854
1.35740,0.04795,0.05600,0.00000,0.03355,0.97380,-0.18678,2023,6,8,13,58,55,865
1.35750,-0.14455,0.00350,0.00000,0.02928,0.97319,-0.18593,2023,6,8,13,58,55,876
1.35760,0.03045,-0.17150,0.00000,0.03099,0.97356,-0.18825,2023,6,8,13,58,55,887
1.35770,0.20545,-0.18900,0.00000,0.03050,0.97478,-0.18861,2023,6,8,13,58,55,898
1.35780,-0.02205,-0.15400,0.00000,0.03257,0.97637,-0.19032,2023,6,8,13,58,55,909
1.35790,-0.12705,0.07350,0.00000,0.03062,0.97405,-0.18837,2023,6,8,13,58,55,920
1.35800,-0.12705,0.02100,0.00000,0.03026,0.97283,-0.18715,2023,6,8,13,58,55,931
1.35810,-0.12705,0.09100,0.00000,0.02916,0.97551,-0.18837,2023,6,8,13,58,55,942
1.35820,0.04795,-0.03150,0.00000,0.02916,0.97673,-0.18776,2023,6,8,13,58,55,954
1.35830,0.06545,-0.24150,0.00000,0.03184,0.97576,-0.18934,2023,6,8,13,58,55,965
1.35840,0.17045,-0.08400,0.00000,0.02977,0.97734,-0.18849,2023,6,8,13,58,55,976
1.35850,-0.02205,0.00350,0.00000,0.02940,0.97307,-0.18751,2023,6,8,13,58,55,987
1.35860,-0.07455,-0.11900,0.00000,0.03074,0.97441,-0.18886,2023,6,8,13,58,56,8
1.35870,-0.02205,-0.04900,0.00000,0.03001,0.97576,-0.18959,2023,6,8,13,58,56,19
1.35880,0.04795,0.28350,0.00000,0.03038,0.97588,-0.18934,2023,6,8,13,58,56,30
1.35890,-0.09205,0.24850,0.00000,0.03294,0.97502,-0.18886,2023,6,8,13,58,56,41
1.35900,0.06545,0.10850,0.00000,0.02940,0.97539,-0.18788,2023,6,8,13,58,56,52
1.35910,-0.24955,0.23100,0.00000,0.03111,0.97576,-0.18971,2023,6,8,13,58,56,64
1.35920,-0.07455,0.05600,0.00000,0.02989,0.97746,-0.18751,2023,6,8,13,58,56,75
1.35930,0.17045,-0.22400,0.00000,0.02952,0.97393,-0.18642,2023,6,8,13,58,56,86
1.35940,-0.14455,0.02100,0.00000,0.02904,0.97588,-0.18849,2023,6,8,13,58,56,97
1.35950,-0.19705,-0.11900,0.00000,0.03209,0.97527,-0.18837,2023,6,8,13,58,56,108
1.35960,-0.05705,0.12600,0.00000,0.02794,0.97624,-0.18873,2023,6,8,13,58,56,119
1.35970,0.06545,0.00350,0.00000,0.03257,0.97637,-0.18690,2023,6,8,13,58,56,130
1.35980,-0.00455,-0.06650,0.00000,0.03050,0.97783,-0.18825,2023,6,8,13,58,56,141
1.35990,-0.07455,0.07350,0.00000,0.02904,0.97734,-0.18764,2023,6,8,13,58,56,152
1.36000,-0.00455,0.02100,0.00000,0.03062,0.97515,-0.18971,2023,6,8,13,58,56,164
1.36010,-0.21455,0.00350,0.00000,0.03074,0.97429,-0.18788,2023,6,8,13,58,56,175
1.36020,0.10045,0.14350,0.00000,0.03062,0.97478,-0.18934,2023,6,8,13,58,56,186
1.36030,0.03045,-0.15400,0.00000,0.02928,0.97490,-0.18581,2023,6,8,13,58,56,197
1.36040,0.01295,-0.18900,0.00000,0.03233,0.97954,-0.18739,2023,6,8,13,58,56,208
1.36050,0.10045,0.02100,0.00000,0.03026,0.97124,-0.18849,2023,6,8,13,58,56,219
1.36060,-0.00455,-0.06650,0.00000,0.03050,0.97649,-0.18373,2023,6,8,13,58,56,230
1.36070,0.01295,0.02100,0.00000,0.03209,0.97600,-0.18532,2023,6,8,13,58,56,241
1.36080,0.20545,-0.03150,0.00000,0.02904,0.97356,-0.18886,2023,6,8,13,58,56,252
1.36090,-0.14455,0.10850,0.00000,0.03026,0.97624,-0.18910,2023,6,8,13,58,56,264
1.36100,-0.21455,0.07350,0.00000,0.03489,0.97624,-0.18812,2023,6,8,13,58,56,275
1.36110,-0.07455,0.17850,0.00000,0.02867,0.97515,-0.18959,2023,6,8,13,58,56,286
1.36120,-0.12705,-0.08400,0.00000,0.03087,0.97661,-0.18629,2023,6,8,13,58,56,297
1.36130,-0.07455,0.02100,0.00000,0.03245,0.97478,-0.18690,2023,6,8,13,58,56,308
1.36140,-0.02205,-0.11900,0.00000,0.02843,0.97490,-0.18922,2023,6,8,13,58,56,319
1.36150,-0.05705,0.10850,0.00000,0.02891,0.97429,-0.18983,2023,6,8,13,58,56,330
1.36160,0.38045,0.02100,0.00000,0.03184,0.97490,-0.18910,2023,6,8,13,58,56,341
1.36170,-0.23205,-0.03150,0.00000,0.02891,0.97722,-0.18971,2023,6,8,13,58,56,352
1.36180,-0.17955,-0.10150,0.00000,0.03050,0.97624,-0.18861,2023,6,8,13,58,56,364
1.36190,0.22295,-0.06650,0.00000,0.02904,0.97759,-0.18910,2023,6,8,13,58,56,375
1.36200,-0.02205,-0.13650,0.00000,0.03184,0.97588,-0.18605,2023,6,8,13,58,56,386
1.36210,-0.02205,-0.01400,0.00000,0.03111,0.97576,-0.18727,2023,6,8,13,58,56,397
1.36220,-0.10955,0.05600,0.00000,0.03111,0.97600,-0.19056,2023,6,8,13,58,56,408
1.36230,0.18795,-0.11900,0.00000,0.03001,0.97490,-0.18886,2023,6,8,13,58,56,419
1.36240,-0.21455,-0.06650,0.00000,0.03099,0.97478,-0.18556,2023,6,8,13,58,56,430
1.36250,-0.05705,0.05600,0.00000,0.02928,0.97380,-0.18812,2023,6,8,13,58,56,441
1.36260,0.25795,-0.13650,0.00000,0.03184,0.97527,-0.18910,2023,6,8,13,58,56,452
1.36270,0.11795,-0.04900,0.00000,0.03123,0.97649,-0.18934,2023,6,8,13,58,56,464
1.36280,-0.09205,-0.03150,0.00000,0.03135,0.97588,-0.18751,2023,6,8,13,58,56,475
1.36290,-0.07455,-0.04900,0.00000,0.03050,0.97759,-0.18776,2023,6,8,13,58,56,486
1.36300,-0.10955,0.05600,0.00000,0.03038,0.97393,-0.18617,2023,6,8,13,58,56,497
1.36310,0.15295,0.17850,0.00000,0.02965,0.97820,-0.18812,2023,6,8,13,58,56,508
1.36320,-0.10955,-0.06650,0.00000,0.03257,0.97588,-0.19020,2023,6,8,13,58,56,519
1.36330,-0.09205,0.21350,0.00000,0.03221,0.97637,-0.18898,2023,6,8,13,58,56,530
1.36340,-0.17955,0.14350,0.00000,0.03343,0.97295,-0.18812,2023,6,8,13,58,56,541
1.36350,0.10045,0.21350,0.00000,0.03001,0.97527,-0.18666,2023,6,8,13,58,56,552
1.36360,-0.00455,-0.01400,0.00000,0.03013,0.97673,-0.18629,2023,6,8,13,58,56,564
1.36370,0.10045,-0.22400,0.00000,0.03062,0.97502,-0.18995,2023,6,8,13,58,56,575
1.36380,0.17045,-0.11900,0.00000,0.02977,0.97515,-0.18886,2023,6,8,13,58,56,586
1.36390,0.10045,-0.11900,0.00000,0.03087,0.97429,-0.18776,2023,6,8,13,58,56,597
1.36400,-0.16205,0.03850,0.00000,0.03111,0.97502,-0.18886,2023,6,8,13,58,56,608
1.36410,0.20545,-0.39900,0.00000,0.03184,0.97685,-0.18764,2023,6,8,13,58,56,619
1.36420,0.10045,-0.18900,0.00000,0.03123,0.97515,-0.18910,2023,6,8,13,58,56,630
1.36430,0.06545,0.07350,0.00000,0.02965,0.97685,-0.18788,2023,6,8,13,58,56,641
1.36440,0.10045,-0.08400,0.00000,0.03050,0.97466,-0.18959,2023,6,8,13,58,56,652
1.36450,-0.05705,-0.08400,0.00000,0.02879,0.97673,-0.18837,2023,6,8,13,58,56,664
1.36460,0.15295,-0.18900,0.00000,0.02891,0.97576,-0.18849,2023,6,8,13,58,56,675
1.36470,-0.09205,0.00350,0.00000,0.03355,0.97515,-0.18910,2023,6,8,13,58,56,686
1.36480,0.13545,0.09100,0.00000,0.02989,0.97405,-0.18861,2023,6,8,13,58,56,697
1.36490,0.10045,-0.10150,0.00000,0.03013,0.97454,-0.18715,2023,6,8,13,58,56,708
1.36500,0.01295,0.10850,0.00000,0.03050,0.97588,-0.18727,2023,6,8,13,58,56,719
1.36510,-0.05705,-0.03150,0.00000,0.03001,0.97600,-0.18849,2023,6,8,13,58,56,730
1.36520,-0.12705,0.05600,0.00000,0.03489,0.97344,-0.18800,2023,6,8,13,58,56,741
1.36530,-0.02205,0.05600,0.00000,0.03245,0.97490,-0.18690,2023,6,8,13,58,56,752
1.36540,0.08295,0.07350,0.00000,0.03209,0.97600,-0.18898,2023,6,8,13,58,56,764
1.36550,0.10045,-0.11900,0.00000,0.02928,0.97551,-0.18971,2023,6,8,13,58,56,775
1.36560,0.03045,0.10850,0.00000,0.03062,0.97722,-0.18593,2023,6,8,13,58,56,786
1.36570,0.06545,0.02100,0.00000,0.03074,0.97576,-0.18910,2023,6,8,13,58,56,797
1.36580,0.03045,-0.01400,0.00000,0.03184,0.97417,-0.18959,2023,6,8,13,58,56,808
1.36590,0.10045,-0.13650,0.00000,0.03087,0.97746,-0.18825,2023,6,8,13,58,56,819
1.36600,0.01295,-0.15400,0.00000,0.03050,0.97673,-0.18861,2023,6,8,13,58,56,830
1.36610,-0.02205,0.07350,0.00000,0.02940,0.97722,-0.18678,2023,6,8,13,58,56,841
1.36620,0.03045,0.03850,0.00000,0.02721,0.97563,-0.18764,2023,6,8,13,58,56,852
1.36630,-0.00455,0.00350,0.00000,0.03087,0.97429,-0.18947,2023,6,8,13,58,56,864
1.36640,-0.05705,-0.13650,0.00000,0.03135,0.97588,-0.18995,2023,6,8,13,58,56,875
1.36650,-0.00455,-0.01400,0.00000,0.02794,0.97649,-0.18800,2023,6,8,13,58,56,886
1.36660,0.15295,-0.15400,0.00000,0.03367,0.97868,-0.18971,2023,6,8,13,58,56,897
1.36670,-0.03955,-0.01400,0.00000,0.03196,0.97649,-0.18934,2023,6,8,13,58,56,908
1.36680,0.13545,0.02100,0.00000,0.03038,0.97478,-0.18934,2023,6,8,13,58,56,919
1.36690,0.03045,-0.04900,0.00000,0.02782,0.97393,-0.18971,2023,6,8,13,58,56,930
1.36700,0.17045,-0.08400,0.00000,0.02952,0.97576,-0.18922,2023,6,8,13,58,56,941
1.36710,0.11795,0.16100,0.00000,0.02904,0.97820,-0.18520,2023,6,8,13,58,56,952
1.36720,0.11795,-0.11900,0.00000,0.03038,0.97490,-0.19020,2023,6,8,13,58,56,964
1.36730,-0.12705,-0.20650,0.00000,0.02989,0.97576,-0.18922,2023,6,8,13,58,56,975
1.36740,-0.05705,0.09100,0.00000,0.03209,0.97539,-0.18776,2023,6,8,13,58,56,986
1.36750,-0.14455,-0.08400,0.00000,0.03172,0.97454,-0.18654,2023,6,8,13,58,57,7
1.36760,0.01295,-0.11900,0.00000,0.03050,0.97429,-0.18886,2023,6,8,13,58,57,18
1.36770,-0.02205,-0.22400,0.00000,0.03074,0.97746,-0.18910,2023,6,8,13,58,57,29
1.36780,-0.00455,-0.08400,0.00000,0.03074,0.97722,-0.18642,2023,6,8,13,58,57,40
1.36790,0.10045,-0.24150,0.00000,0.02989,0.97319,-0.19020,2023,6,8,13,58,57,51
1.36800,0.10045,0.00350,0.00000,0.03099,0.97795,-0.19081,2023,6,8,13,58,57,62
1.36810,0.01295,-0.15400,0.00000,0.03099,0.97417,-0.18886,2023,6,8,13,58,57,74
1.36820,-0.09205,-0.04900,0.00000,0.02855,0.97771,-0.18873,2023,6,8,13,58,57,85
1.36830,0.06545,-0.03150,0.00000,0.03135,0.97405,-0.18690,2023,6,8,13,58,57,96
1.36840,0.24045,-0.03150,0.00000,0.03050,0.97368,-0.18739,2023,6,8,13,58,57,107
1.36850,0.17045,-0.08400,0.00000,0.03148,0.97551,-0.18825,2023,6,8,13,58,57,118
1.36860,0.01295,0.09100,0.00000,0.02928,0.97673,-0.18825,2023,6,8,13,58,57,129
1.36870,0.11795,-0.13650,0.00000,0.02952,0.97600,-0.18617,2023,6,8,13,58,57,140
1.36880,0.08295,0.02100,0.00000,0.03062,0.97515,-0.18886,2023,6,8,13,58,57,151
1.36890,-0.05705,-0.08400,0.00000,0.02904,0.97563,-0.18727,2023,6,8,13,58,57,162
1.36900,0.08295,0.05600,0.00000,0.02928,0.97759,-0.18764,2023,6,8,13,58,57,174
1.36910,-0.09205,0.00350,0.00000,0.03196,0.97649,-0.18727,2023,6,8,13,58,57,185
1.36920,0.10045,0.05600,0.00000,0.03318,0.97417,-0.18812,2023,6,8,13,58,57,196
1.36930,-0.00455,-0.10150,0.00000,0.03148,0.97600,-0.18947,2023,6,8,13,58,57,207
1.36940,0.03045,0.05600,0.00000,0.02965,0.97563,-0.19081,2023,6,8,13,58,57,218
1.36950,0.01295,-0.01400,0.00000,0.03160,0.97527,-0.18849,2023,6,8,13,58,57,229
1.36960,-0.02205,0.07350,0.00000,0.03087,0.97527,-0.18959,2023,6,8,13,58,57,240
1.36970,-0.14455,-0.06650,0.00000,0.03111,0.97722,-0.18922,2023,6,8,13,58,57,251
1.36980,0.15295,-0.06650,0.00000,0.03233,0.97551,-0.18922,2023,6,8,13,58,57,262
1.36990,-0.07455,0.00350,0.00000,0.03013,0.97356,-0.18934,2023,6,8,13,58,57,274
1.37000,-0.10955,-0.11900,0.00000,0.03062,0.97527,-0.18983,2023,6,8,13,58,57,285
1.37010,0.11795,-0.13650,0.00000,0.02952,0.97600,-0.18764,2023,6,8,13,58,57,296
1.37020,0.11795,0.14350,0.00000,0.03038,0.97661,-0.18861,2023,6,8,13,58,57,307
1.37030,0.04795,0.12600,0.00000,0.03148,0.97356,-0.18800,2023,6,8,13,58,57,318
1.37040,0.04795,0.05600,0.00000,0.02977,0.97576,-0.18849,2023,6,8,13,58,57,329
1.37050,-0.14455,0.14350,0.00000,0.03209,0.97612,-0.19227,2023,6,8,13,58,57,340
1.37060,-0.07455,0.00350,0.00000,0.03099,0.97344,-0.18983,2023,6,8,13,58,57,351
1.37070,0.10045,-0.08400,0.00000,0.03233,0.97441,-0.18703,2023,6,8,13,58,57,362
1.37080,0.04795,-0.15400,0.00000,0.03050,0.97649,-0.18739,2023,6,8,13,58,57,374
1.37090,-0.00455,0.24850,0.00000,0.03160,0.97624,-0.18715,2023,6,8,13,58,57,385
1.37100,0.04795,-0.04900,0.00000,0.03050,0.97478,-0.18898,2023,6,8,13,58,57,396
1.37110,0.06545,0.16100,0.00000,0.03087,0.97295,-0.18873,2023,6,8,13,58,57,407
1.37120,-0.14455,0.17850,0.00000,0.03062,0.97551,-0.19020,2023,6,8,13,58,57,418
1.37130,0.11795,-0.04900,0.00000,0.03038,0.97466,-0.18971,2023,6,8,13,58,57,429
1.37140,0.01295,0.00350,0.00000,0.02818,0.97271,-0.19032,2023,6,8,13,58,57,440
1.37150,0.11795,0.09100,0.00000,0.03123,0.97368,-0.18947,2023,6,8,13,58,57,451
1.37160,0.11795,-0.22400,0.00000,0.03233,0.97380,-0.18995,2023,6,8,13,58,57,462
1.37170,0.13545,-0.04900,0.00000,0.03062,0.97490,-0.19056,2023,6,8,13,58,57,474
1.37180,0.01295,0.05600,0.00000,0.03245,0.97393,-0.18690,2023,6,8,13,58,57,485
1.37190,-0.12705,0.17850,0.00000,0.03282,0.97637,-0.19069,2023,6,8,13,58,57,496
1.37200,0.06545,0.14350,0.00000,0.03062,0.97490,-0.19130,2023,6,8,13,58,57,507
1.37210,0.10045,-0.11900,0.00000,0.02977,0.97478,-0.18947,2023,6,8,13,58,57,518
1.37220,0.15295,-0.10150,0.00000,0.03038,0.97649,-0.19069,2023,6,8,13,58,57,529
1.37230,0.10045,-0.27650,0.00000,0.02952,0.97746,-0.18947,2023,6,8,13,58,57,540
1.37240,0.08295,0.03850,0.00000,0.03026,0.97368,-0.18825,2023,6,8,13,58,57,551
1.37250,-0.03955,0.07350,0.00000,0.03123,0.97746,-0.18947,2023,6,8,13,58,57,562
1.37260,0.04795,-0.15400,0.00000,0.03160,0.97368,-0.18861,2023,6,8,13,58,57,574
1.37270,0.18795,0.05600,0.00000,0.03209,0.97588,-0.19105,2023,6,8,13,58,57,585
1.37280,-0.00455,0.07350,0.00000,0.03111,0.97612,-0.18873,2023,6,8,13,58,57,596
1.37290,-0.09205,-0.11900,0.00000,0.03111,0.97344,-0.18959,2023,6,8,13,58,57,607
1.37300,0.11795,-0.01400,0.00000,0.03087,0.97429,-0.18788,2023,6,8,13,58,57,618
1.37310,-0.02205,0.21350,0.00000,0.03282,0.97539,-0.19191,2023,6,8,13,58,57,629
1.37320,-0.14455,-0.13650,0.00000,0.03209,0.97734,-0.18910,2023,6,8,13,58,57,640
1.37330,0.04795,-0.06650,0.00000,0.03270,0.97539,-0.18934,2023,6,8,13,58,57,651
1.37340,0.15295,-0.15400,0.00000,0.03050,0.97551,-0.18861,2023,6,8,13,58,57,662
1.37350,0.06545,0.19600,0.00000,0.02916,0.97624,-0.18800,2023,6,8,13,58,57,674
1.37360,-0.23205,0.23100,0.00000,0.03306,0.97454,-0.19032,2023,6,8,13,58,57,685
1.37370,-0.07455,0.02100,0.00000,0.03099,0.97649,-0.18800,2023,6,8,13,58,57,696
1.37380,0.03045,0.02100,0.00000,0.03209,0.97502,-0.18861,2023,6,8,13,58,57,707
1.37390,0.01295,0.00350,0.00000,0.02818,0.97307,-0.18800,2023,6,8,13,58,57,718
1.37400,0.17045,0.02100,0.00000,0.03160,0.97698,-0.19178,2023,6,8,13,58,57,729
1.37410,0.06545,-0.20650,0.00000,0.03184,0.97563,-0.18910,2023,6,8,13,58,57,740
1.37420,-0.09205,-0.01400,0.00000,0.02977,0.97649,-0.18776,2023,6,8,13,58,57,751
1.37430,0.10045,0.12600,0.00000,0.03087,0.97807,-0.18849,2023,6,8,13,58,57,762
1.37440,-0.05705,0.05600,0.00000,0.03099,0.97441,-0.18861,2023,6,8,13,58,57,774
1.37450,0.13545,-0.04900,0.00000,0.03099,0.97332,-0.18764,2023,6,8,13,58,57,785
1.37460,0.04795,0.03850,0.00000,0.03148,0.97600,-0.18959,2023,6,8,13,58,57,796
1.37470,-0.16205,0.10850,0.00000,0.03160,0.97393,-0.18764,2023,6,8,13,58,57,807
1.37480,-0.03955,-0.13650,0.00000,0.02977,0.97515,-0.18886,2023,6,8,13,58,57,818
1.37490,0.13545,0.17850,0.00000,0.02904,0.97795,-0.18837,2023,6,8,13,58,57,829
1.37500,-0.09205,-0.15400,0.00000,0.03135,0.97588,-0.18861,2023,6,8,13,58,57,840
1.37510,-0.05705,-0.11900,0.00000,0.03099,0.97478,-0.18873,2023,6,8,13,58,57,851
1.37520,0.03045,-0.10150,0.00000,0.03062,0.97515,-0.18581,2023,6,8,13,58,57,862
1.37530,0.13545,-0.20650,0.00000,0.03001,0.97551,-0.18910,2023,6,8,13,58,57,874
1.37540,-0.14455,0.14350,0.00000,0.03135,0.97563,-0.19117,2023,6,8,13,58,57,885
1.37550,0.08295,0.23100,0.00000,0.03184,0.97563,-0.18825,2023,6,8,13,58,57,896
1.37560,-0.19705,0.07350,0.00000,0.03062,0.97539,-0.18812,2023,6,8,13,58,57,907
1.37570,0.10045,0.05600,0.00000,0.03184,0.97551,-0.18849,2023,6,8,13,58,57,918
1.37580,-0.07455,0.07350,0.00000,0.02916,0.97795,-0.18849,2023,6,8,13,58,57,929
1.37590,0.03045,0.02100,0.00000,0.03074,0.97502,-0.18849,2023,6,8,13,58,57,940
1.37600,-0.07455,0.03850,0.00000,0.02940,0.97746,-0.18910,2023,6,8,13,58,57,951
1.37610,0.03045,-0.15400,0.00000,0.03026,0.97795,-0.18983,2023,6,8,13,58,57,962
1.37620,0.03045,-0.03150,0.00000,0.02977,0.97515,-0.18983,2023,6,8,13,58,57,974
1.37630,0.08295,-0.08400,0.00000,0.03099,0.97380,-0.19069,2023,6,8,13,58,57,985
1.37640,-0.07455,0.12600,0.00000,0.03343,0.97429,-0.18971,2023,6,8,13,58,58,6
1.37650,0.18795,0.02100,0.00000,0.03148,0.97527,-0.18849,2023,6,8,13,58,58,17
1.37660,-0.03955,0.05600,0.00000,0.03013,0.97685,-0.18861,2023,6,8,13,58,58,28
1.37670,0.03045,-0.03150,0.00000,0.03062,0.97673,-0.18873,2023,6,8,13,58,58,39
1.37680,-0.03955,-0.01400,0.00000,0.02806,0.97466,-0.18849,2023,6,8,13,58,58,50
1.37690,0.11795,0.03850,0.00000,0.03367,0.97502,-0.18898,2023,6,8,13,58,58,61
1.37700,-0.17955,0.10850,0.00000,0.02989,0.97588,-0.19203,2023,6,8,13,58,58,72
1.37710,-0.09205,-0.11900,0.00000,0.03172,0.97234,-0.19044,2023,6,8,13,58,58,84
1.37720,0.04795,0.02100,0.00000,0.02977,0.97795,-0.19056,2023,6,8,13,58,58,95
1.37730,-0.07455,0.09100,0.00000,0.03160,0.97551,-0.19056,2023,6,8,13,58,58,106
1.37740,0.01295,-0.10150,0.00000,0.03099,0.97588,-0.18922,2023,6,8,13,58,58,117
1.37750,-0.02205,0.09100,0.00000,0.03050,0.97795,-0.18983,2023,6,8,13,58,58,128
1.37760,-0.02205,-0.06650,0.00000,0.03209,0.97490,-0.18739,2023,6,8,13,58,58,139
1.37770,0.06545,-0.10150,0.00000,0.03087,0.97551,-0.19081,2023,6,8,13,58,58,150
1.37780,-0.05705,0.02100,0.00000,0.03148,0.97478,-0.18886,2023,6,8,13,58,58,161
1.37790,0.03045,-0.01400,0.00000,0.02965,0.97637,-0.18678,2023,6,8,13,58,58,172
1.37800,0.08295,0.09100,0.00000,0.03099,0.97624,-0.18995,2023,6,8,13,58,58,184
1.37810,0.17045,-0.06650,0.00000,0.03062,0.97771,-0.18825,2023,6,8,13,58,58,195
1.37820,0.04795,-0.10150,0.00000,0.03123,0.97466,-0.18959,2023,6,8,13,58,58,206
1.37830,0.04795,0.02100,0.00000,0.03062,0.97612,-0.19032,2023,6,8,13,58,58,217
1.37840,-0.05705,0.16100,0.00000,0.03087,0.97637,-0.19020,2023,6,8,13,58,58,228
1.37850,0.03045,0.09100,0.00000,0.03050,0.97649,-0.18776,2023,6,8,13,58,58,239
1.37860,0.10045,-0.18900,0.00000,0.02965,0.97600,-0.18898,2023,6,8,13,58,58,250
1.37870,0.06545,-0.08400,0.00000,0.02977,0.97490,-0.18922,2023,6,8,13,58,58,261
1.37880,-0.24955,-0.29400,0.00000,0.03135,0.97441,-0.18812,2023,6,8,13,58,58,272
1.37890,-0.05705,-0.08400,0.00000,0.03074,0.97539,-0.18812,2023,6,8,13,58,58,284
1.37900,-0.09205,0.12600,0.00000,0.03270,0.97429,-0.19056,2023,6,8,13,58,58,295
1.37910,-0.00455,-0.08400,0.00000,0.03062,0.97576,-0.18837,2023,6,8,13,58,58,306
1.37920,0.08295,-0.17150,0.00000,0.03074,0.97673,-0.18800,2023,6,8,13,58,58,317
1.37930,-0.10955,-0.03150,0.00000,0.03160,0.97454,-0.18922,2023,6,8,13,58,58,328
1.37940,-0.14455,0.10850,0.00000,0.03196,0.97771,-0.18739,2023,6,8,13,58,58,339
1.37950,0.13545,-0.01400,0.00000,0.02891,0.97624,-0.19020,2023,6,8,13,58,58,350
1.37960,-0.07455,0.03850,0.00000,0.03135,0.97551,-0.18776,2023,6,8,13,58,58,361
1.37970,0.10045,-0.11900,0.00000,0.03196,0.97563,-0.18849,2023,6,8,13,58,58,372
1.37980,-0.09205,-0.06650,0.00000,0.03111,0.97356,-0.18837,2023,6,8,13,58,58,384
1.37990,0.01295,0.26600,0.00000,0.03404,0.97759,-0.18715,2023,6,8,13,58,58,395
1.38000,-0.03955,0.12600,0.00000,0.03160,0.97527,-0.18922,2023,6,8,13,58,58,406
1.38010,0.01295,0.05600,0.00000,0.02989,0.97698,-0.18751,2023,6,8,13,58,58,417
1.38020,-0.09205,-0.08400,0.00000,0.03062,0.97637,-0.18971,2023,6,8,13,58,58,428
1.38030,-0.00455,0.02100,0.00000,0.03257,0.97502,-0.19032,2023,6,8,13,58,58,439
1.38040,0.13545,-0.08400,0.00000,0.02952,0.97649,-0.18812,2023,6,8,13,58,58,450
1.38050,0.17045,0.16100,0.00000,0.03087,0.97490,-0.19032,2023,6,8,13,58,58,461
1.38060,-0.05705,-0.08400,0.00000,0.02928,0.97527,-0.19032,2023,6,8,13,58,58,472
1.38070,0.15295,-0.13650,0.00000,0.02989,0.97649,-0.18825,2023,6,8,13,58,58,484
1.38080,-0.05705,0.19600,0.00000,0.02952,0.97515,-0.18959,2023,6,8,13,58,58,495
1.38090,0.11795,0.02100,0.00000,0.03074,0.97771,-0.18886,2023,6,8,13,58,58,506
1.38100,0.01295,0.14350,0.00000,0.03172,0.97637,-0.18959,2023,6,8,13,58,58,517
1.38110,0.06545,-0.11900,0.00000,0.02916,0.97661,-0.18776,2023,6,8,13,58,58,528
1.38120,-0.19705,-0.10150,0.00000,0.03062,0.97673,-0.18910,2023,6,8,13,58,58,539
1.38130,0.27545,-0.22400,0.00000,0.03233,0.97344,-0.18922,2023,6,8,13,58,58,550
1.38140,-0.07455,0.05600,0.00000,0.03111,0.97551,-0.18934,2023,6,8,13,58,58,561
1.38150,-0.00455,0.07350,0.00000,0.02989,0.97624,-0.18910,2023,6,8,13,58,58,572
1.38160,-0.05705,-0.04900,0.00000,0.02879,0.97576,-0.18959,2023,6,8,13,58,58,584
1.38170,0.01295,0.09100,0.00000,0.03099,0.97612,-0.18934,2023,6,8,13,58,58,595
1.38180,-0.09205,0.07350,0.00000,0.02977,0.97563,-0.18959,2023,6,8,13,58,58,606
1.38190,0.11795,-0.06650,0.00000,0.03001,0.97551,-0.18788,2023,6,8,13,58,58,617
1.38200,0.17045,-0.15400,0.00000,0.03050,0.97673,-0.18788,2023,6,8,13,58,58,628
1.38210,0.08295,0.19600,0.00000,0.03062,0.97515,-0.18764,2023,6,8,13,58,58,639
1.38220,0.17045,-0.11900,0.00000,0.03038,0.97685,-0.18861,2023,6,8,13,58,58,650
1.38230,-0.10955,0.14350,0.00000,0.02879,0.97612,-0.19166,2023,6,8,13,58,58,661
1.38240,0.10045,0.07350,0.00000,0.03245,0.97649,-0.18934,2023,6,8,13,58,58,672
1.38250,0.24045,-0.10150,0.00000,0.03062,0.97563,-0.18971,2023,6,8,13,58,58,684
1.38260,-0.07455,-0.06650,0.00000,0.03099,0.97588,-0.18886,2023,6,8,13,58,58,695
1.38270,0.15295,0.02100,0.00000,0.02879,0.97588,-0.18898,2023,6,8,13,58,58,706
1.38280,-0.07455,-0.10150,0.00000,0.03221,0.97454,-0.18776,2023,6,8,13,58,58,717
1.38290,0.13545,0.03850,0.00000,0.03087,0.97649,-0.18910,2023,6,8,13,58,58,728
1.38300,-0.07455,0.02100,0.00000,0.03062,0.97917,-0.18886,2023,6,8,13,58,58,739
1.38310,-0.03955,0.09100,0.00000,0.03160,0.97368,-0.18678,2023,6,8,13,58,58,750
1.38320,-0.05705,0.12600,0.00000,0.02879,0.97515,-0.18471,2023,6,8,13,58,58,761
1.38330,-0.03955,0.07350,0.00000,0.02928,0.97624,-0.18764,2023,6,8,13,58,58,772
1.38340,-0.03955,0.21350,0.00000,0.03318,0.97393,-0.18959,2023,6,8,13,58,58,784
1.38350,0.06545,0.03850,0.00000,0.03257,0.97258,-0.18812,2023,6,8,13,58,58,795
1.38360,0.03045,0.02100,0.00000,0.03209,0.97588,-0.18788,2023,6,8,13,58,58,806
1.38370,0.13545,0.09100,0.00000,0.03087,0.97746,-0.19044,2023,6,8,13,58,58,817
1.38380,0.04795,0.07350,0.00000,0.03196,0.97563,-0.18837,2023,6,8,13,58,58,828
1.38390,0.01295,-0.01400,0.00000,0.02855,0.97283,-0.18910,2023,6,8,13,58,58,839
1.38400,-0.02205,-0.03150,0.00000,0.03172,0.97881,-0.18910,2023,6,8,13,58,58,850
1.38410,-0.10955,0.00350,0.00000,0.02989,0.97612,-0.18947,2023,6,8,13,58,58,861
1.38420,0.06545,-0.01400,0.00000,0.03001,0.97637,-0.18922,2023,6,8,13,58,58,872
1.38430,0.10045,-0.01400,0.00000,0.02965,0.97685,-0.18995,2023,6,8,13,58,58,884
1.38440,0.13545,-0.11900,0.00000,0.03074,0.97673,-0.19044,2023,6,8,13,58,58,895
1.38450,0.10045,0.19600,0.00000,0.03135,0.97624,-0.18886,2023,6,8,13,58,58,906
1.38460,0.15295,-0.08400,0.00000,0.03038,0.97734,-0.18849,2023,6,8,13,58,58,917
1.38470,0.08295,0.05600,0.00000,0.03087,0.97588,-0.18764,2023,6,8,13,58,58,928
1.38480,0.04795,-0.13650,0.00000,0.03184,0.97649,-0.18934,2023,6,8,13,58,58,939
1.38490,-0.03955,0.02100,0.00000,0.02806,0.97637,-0.18837,2023,6,8,13,58,58,950
1.38500,0.06545,-0.04900,0.00000,0.03062,0.97393,-0.18617,2023,6,8,13,58,58,961
1.38510,0.03045,0.26600,0.00000,0.02977,0.97527,-0.18800,2023,6,8,13,58,58,972
1.38520,0.10045,-0.17150,0.00000,0.03001,0.97515,-0.18703,2023,6,8,13,58,58,984
1.38530,0.18795,0.02100,0.00000,0.03087,0.97490,-0.18764,2023,6,8,13,58,58,995
1.38540,-0.07455,0.16100,0.00000,0.03074,0.97490,-0.18971,2023,6,8,13,58,59,6
1.38550,-0.02205,-0.17150,0.00000,0.03148,0.97722,-0.18898,2023,6,8,13,58,59,17
1.38560,0.11795,0.16100,0.00000,0.03306,0.97149,-0.18776,2023,6,8,13,58,59,28
1.38570,0.08295,-0.08400,0.00000,0.02904,0.97307,-0.18922,2023,6,8,13,58,59,39
1.38580,-0.10955,-0.11900,0.00000,0.03038,0.97624,-0.19020,2023,6,8,13,58,59,50
1.38590,0.13545,-0.06650,0.00000,0.03111,0.97612,-0.18922,2023,6,8,13,58,59,61
1.38600,-0.03955,0.02100,0.00000,0.03172,0.97405,-0.18861,2023,6,8,13,58,59,72
1.38610,0.10045,-0.06650,0.00000,0.03013,0.97563,-0.18873,2023,6,8,13,58,59,84
1.38620,0.06545,-0.10150,0.00000,0.03257,0.97600,-0.18959,2023,6,8,13,58,59,95
1.38630,0.06545,-0.06650,0.00000,0.03074,0.97771,-0.18995,2023,6,8,13,58,59,106
1.38640,0.06545,-0.01400,0.00000,0.03038,0.97637,-0.18922,2023,6,8,13,58,59,117
1.38650,0.08295,-0.01400,0.00000,0.03318,0.97637,-0.19105,2023,6,8,13,58,59,128
1.38660,-0.10955,0.09100,0.00000,0.03123,0.97368,-0.18959,2023,6,8,13,58,59,139
1.38670,-0.07455,0.17850,0.00000,0.03038,0.97502,-0.19008,2023,6,8,13,58,59,150
1.38680,0.06545,-0.10150,0.00000,0.02928,0.97685,-0.18849,2023,6,8,13,58,59,161
1.38690,0.01295,0.00350,0.00000,0.03245,0.97820,-0.18825,2023,6,8,13,58,59,172
1.38700,-0.14455,0.16100,0.00000,0.03282,0.97515,-0.19069,2023,6,8,13,58,59,184
1.38710,-0.07455,-0.01400,0.00000,0.03148,0.97759,-0.18995,2023,6,8,13,58,59,195
1.38720,-0.09205,0.17850,0.00000,0.03148,0.97563,-0.19008,2023,6,8,13,58,59,206
1.38730,-0.00455,-0.10150,0.00000,0.03318,0.97441,-0.19154,2023,6,8,13,58,59,217
1.38740,-0.12705,0.17850,0.00000,0.03001,0.97429,-0.18849,2023,6,8,13,58,59,228
1.38750,0.11795,0.10850,0.00000,0.03062,0.97685,-0.18910,2023,6,8,13,58,59,239
1.38760,-0.19705,-0.15400,0.00000,0.02891,0.97502,-0.18764,2023,6,8,13,58,59,250
1.38770,0.04795,-0.01400,0.00000,0.02977,0.97502,-0.19020,2023,6,8,13,58,59,261
1.38780,-0.07455,-0.11900,0.00000,0.03001,0.97588,-0.18873,2023,6,8,13,58,59,272
1.38790,0.04795,0.17850,0.00000,0.02989,0.97576,-0.18825,2023,6,8,13,58,59,284
1.38800,-0.00455,-0.03150,0.00000,0.03221,0.97563,-0.18812,2023,6,8,13,58,59,295
1.38810,-0.21455,-0.04900,0.00000,0.02891,0.97563,-0.18861,2023,6,8,13,58,59,306
1.38820,-0.09205,0.00350,0.00000,0.02916,0.97588,-0.18812,2023,6,8,13,58,59,317
1.38830,0.17045,-0.10150,0.00000,0.03013,0.97551,-0.18922,2023,6,8,13,58,59,328
1.38840,0.10045,-0.18900,0.00000,0.03245,0.97759,-0.19020,2023,6,8,13,58,59,339
1.38850,-0.10955,0.12600,0.00000,0.03160,0.97563,-0.18886,2023,6,8,13,58,59,350
1.38860,-0.07455,0.03850,0.00000,0.03013,0.97698,-0.18727,2023,6,8,13,58,59,361
1.38870,0.06545,0.19600,0.00000,0.02891,0.97551,-0.18910,2023,6,8,13,58,59,372
1.38880,0.06545,-0.03150,0.00000,0.03221,0.97490,-0.18825,2023,6,8,13,58,59,384
1.38890,0.11795,0.02100,0.00000,0.03233,0.97417,-0.18898,2023,6,8,13,58,59,395
1.38900,-0.09205,-0.04900,0.00000,0.03099,0.97588,-0.18837,2023,6,8,13,58,59,406
1.38910,0.08295,0.05600,0.00000,0.02952,0.97466,-0.18812,2023,6,8,13,58,59,417
1.38920,0.04795,0.09100,0.00000,0.02989,0.97380,-0.18812,2023,6,8,13,58,59,428
1.38930,-0.00455,-0.03150,0.00000,0.02965,0.97429,-0.19093,2023,6,8,13,58,59,439
1.38940,0.08295,-0.10150,0.00000,0.03001,0.97551,-0.18812,2023,6,8,13,58,59,450
1.38950,-0.09205,-0.15400,0.00000,0.02952,0.97588,-0.18751,2023,6,8,13,58,59,461
1.38960,-0.02205,-0.11900,0.00000,0.02977,0.97576,-0.18873,2023,6,8,13,58,59,472
1.38970,-0.09205,0.02100,0.00000,0.02855,0.97576,-0.18922,2023,6,8,13,58,59,484
1.38980,0.10045,0.05600,0.00000,0.03123,0.97551,-0.19056,2023,6,8,13,58,59,495
1.38990,-0.07455,-0.01400,0.00000,0.03001,0.97515,-0.18873,2023,6,8,13,58,59,506
1.39000,0.18795,-0.17150,0.00000,0.03135,0.97527,-0.18898,2023,6,8,13,58,59,517
1.39010,-0.09205,0.00350,0.00000,0.03026,0.97576,-0.18849,2023,6,8,13,58,59,528
1.39020,-0.07455,-0.11900,0.00000,0.02989,0.97307,-0.18605,2023,6,8,13,58,59,539
1.39030,0.03045,0.00350,0.00000,0.03038,0.97344,-0.18776,2023,6,8,13,58,59,550
1.39040,0.03045,0.00350,0.00000,0.02855,0.97539,-0.18849,2023,6,8,13,58,59,561
1.39050,0.18795,0.03850,0.00000,0.03099,0.97539,-0.18812,2023,6,8,13,58,59,572
1.39060,0.18795,-0.03150,0.00000,0.02965,0.97417,-0.18825,2023,6,8,13,58,59,584
1.39070,0.08295,0.00350,0.00000,0.03087,0.97563,-0.18873,2023,6,8,13,58,59,595
1.39080,0.04795,-0.24150,0.00000,0.03257,0.97429,-0.18727,2023,6,8,13,58,59,606
1.39090,0.10045,0.21350,0.00000,0.03001,0.97563,-0.18849,2023,6,8,13,58,59,617
1.39100,-0.09205,0.09100,0.00000,0.02965,0.97490,-0.18800,2023,6,8,13,58,59,628
1.39110,0.06545,0.17850,0.00000,0.02806,0.97271,-0.18800,2023,6,8,13,58,59,639
1.39120,0.06545,-0.11900,0.00000,0.03087,0.97661,-0.18764,2023,6,8,13,58,59,650
1.39130,0.10045,-0.08400,0.00000,0.02928,0.97466,-0.18703,2023,6,8,13,58,59,661
1.39140,-0.03955,0.16100,0.00000,0.02940,0.97417,-0.18678,2023,6,8,13,58,59,672
1.39150,-0.07455,0.09100,0.00000,0.02904,0.97539,-0.18715,2023,6,8,13,58,59,684
1.39160,-0.03955,0.14350,0.00000,0.03123,0.97746,-0.18776,2023,6,8,13,58,59,695
1.39170,0.06545,0.02100,0.00000,0.03038,0.97685,-0.18800,2023,6,8,13,58,59,706
1.39180,0.20545,-0.11900,0.00000,0.02867,0.97539,-0.18788,2023,6,8,13,58,59,717
1.39190,-0.16205,0.02100,0.00000,0.03062,0.97600,-0.18751,2023,6,8,13,58,59,728
1.39200,0.06545,-0.01400,0.00000,0.03123,0.97295,-0.18764,2023,6,8,13,58,59,739
1.39210,-0.05705,0.19600,0.00000,0.02977,0.97637,-0.18764,2023,6,8,13,58,59,750
1.39220,0.18795,-0.04900,0.00000,0.03099,0.97820,-0.18886,2023,6,8,13,58,59,761
1.39230,0.04795,0.10850,0.00000,0.03026,0.97466,-0.18837,2023,6,8,13,58,59,772
1.39240,0.11795,-0.11900,0.00000,0.03099,0.97637,-0.18727,2023,6,8,13,58,59,784
1.39250,-0.10955,0.03850,0.00000,0.02940,0.97576,-0.18983,2023,6,8,13,58,59,795
1.39260,0.06545,0.10850,0.00000,0.03001,0.97405,-0.18751,2023,6,8,13,58,59,806
1.39270,-0.12705,0.05600,0.00000,0.02989,0.97612,-0.18800,2023,6,8,13,58,59,817
1.39280,0.15295,0.10850,0.00000,0.03196,0.97600,-0.19142,2023,6,8,13,58,59,828
1.39290,0.01295,-0.18900,0.00000,0.03184,0.97429,-0.18947,2023,6,8,13,58,59,839
1.39300,-0.00455,-0.13650,0.00000,0.02916,0.97405,-0.18910,2023,6,8,13,58,59,850
1.39310,-0.09205,0.12600,0.00000,0.03074,0.97649,-0.18739,2023,6,8,13,58,59,861
1.39320,0.08295,-0.03150,0.00000,0.03038,0.97563,-0.18934,2023,6,8,13,58,59,872
1.39330,0.17045,-0.27650,0.00000,0.03099,0.97441,-0.18690,2023,6,8,13,58,59,884
1.39340,0.18795,-0.15400,0.00000,0.02684,0.97466,-0.18812,2023,6,8,13,58,59,895
1.39350,0.15295,-0.13650,0.00000,0.03087,0.97673,-0.18764,2023,6,8,13,58,59,906
1.39360,0.06545,0.05600,0.00000,0.03160,0.97417,-0.18934,2023,6,8,13,58,59,917
1.39370,-0.02205,0.03850,0.00000,0.03074,0.97746,-0.18825,2023,6,8,13,58,59,928
1.39380,0.11795,-0.13650,0.00000,0.02806,0.97710,-0.18764,2023,6,8,13,58,59,939
1.39390,0.04795,0.02100,0.00000,0.03196,0.97551,-0.18849,2023,6,8,13,58,59,950
1.39400,-0.10955,-0.15400,0.00000,0.03087,0.97807,-0.18886,2023,6,8,13,58,59,961
1.39410,-0.14455,0.02100,0.00000,0.03050,0.97637,-0.18800,2023,6,8,13,58,59,972
1.39420,0.15295,0.03850,0.00000,0.03221,0.97661,-0.18654,2023,6,8,13,58,59,984
1.39430,0.11795,-0.06650,0.00000,0.03074,0.97759,-0.18861,2023,6,8,13,58,59,995
1.39440,0.04795,0.00350,0.00000,0.02989,0.97795,-0.18556,2023,6,8,13,59,0,6
1.39450,-0.03955,0.07350,0.00000,0.03038,0.97295,-0.18873,2023,6,8,13,59,0,17
1.39460,-0.03955,0.02100,0.00000,0.03196,0.97380,-0.18825,2023,6,8,13,59,0,28
1.39470,-0.03955,0.00350,0.00000,0.02867,0.97563,-0.18983,2023,6,8,13,59,0,39
1.39480,-0.02205,-0.04900,0.00000,0.02940,0.97600,-0.18886,2023,6,8,13,59,0,50
1.39490,0.24045,0.00350,0.00000,0.03160,0.97612,-0.18703,2023,6,8,13,59,0,61
1.39500,-0.09205,0.07350,0.00000,0.02989,0.97612,-0.18544,2023,6,8,13,59,0,72
1.39510,0.01295,-0.04900,0.00000,0.03135,0.97734,-0.18788,2023,6,8,13,59,0,84
1.39520,0.24045,0.07350,0.00000,0.03172,0.97502,-0.18910,2023,6,8,13,59,0,95
1.39530,-0.14455,0.12600,0.00000,0.02989,0.97393,-0.18690,2023,6,8,13,59,0,106
1.39540,0.10045,-0.01400,0.00000,0.03221,0.97600,-0.18983,2023,6,8,13,59,0,117
1.39550,0.11795,0.09100,0.00000,0.03087,0.97539,-0.18605,2023,6,8,13,59,0,128
1.39560,0.04795,0.09100,0.00000,0.03087,0.97795,-0.18837,2023,6,8,13,59,0,139
1.39570,-0.05705,-0.01400,0.00000,0.02928,0.97515,-0.18910,2023,6,8,13,59,0,150
1.39580,0.06545,-0.01400,0.00000,0.02904,0.97612,-0.19008,2023,6,8,13,59,0,161
1.39590,-0.03955,-0.01400,0.00000,0.03160,0.97478,-0.19105,2023,6,8,13,59,0,172
1.39600,-0.09205,0.07350,0.00000,0.03318,0.97576,-0.18910,2023,6,8,13,59,0,184
1.39610,-0.00455,-0.11900,0.00000,0.02818,0.97454,-0.18800,2023,6,8,13,59,0,195
1.39620,0.13545,-0.04900,0.00000,0.03172,0.97539,-0.18959,2023,6,8,13,59,0,206
1.39630,-0.12705,0.09100,0.00000,0.03038,0.97600,-0.19020,2023,6,8,13,59,0,217
1.39640,0.04795,-0.04900,0.00000,0.02745,0.97649,-0.19032,2023,6,8,13,59,0,228
1.39650,0.13545,0.16100,0.00000,0.03196,0.97673,-0.18727,2023,6,8,13,59,0,239
1.39660,0.10045,0.12600,0.00000,0.02952,0.97783,-0.19093,2023,6,8,13,59,0,250
1.39670,0.29295,0.00350,0.00000,0.03062,0.97466,-0.18873,2023,6,8,13,59,0,261
1.39680,0.06545,-0.17150,0.00000,0.03062,0.97624,-0.19166,2023,6,8,13,59,0,272
1.39690,0.03045,0.10850,0.00000,0.03135,0.97515,-0.18983,2023,6,8,13,59,0,284
1.39700,0.15295,0.07350,0.00000,0.03001,0.97441,-0.18812,2023,6,8,13,59,0,295
1.39710,0.08295,0.02100,0.00000,0.02891,0.97588,-0.19191,2023,6,8,13,59,0,306
1.39720,0.04795,-0.18900,0.00000,0.02989,0.97563,-0.19215,2023,6,8,13,59,0,317
1.39730,-0.02205,-0.04900,0.00000,0.03196,0.97624,-0.18788,2023,6,8,13,59,0,328
1.39740,0.13545,-0.04900,0.00000,0.02977,0.97563,-0.18898,2023,6,8,13,59,0,339
1.39750,0.03045,0.00350,0.00000,0.03135,0.97649,-0.18886,2023,6,8,13,59,0,350
1.39760,0.04795,0.05600,0.00000,0.03087,0.97588,-0.18971,2023,6,8,13,59,0,361
1.39770,0.25795,-0.08400,0.00000,0.02843,0.97527,-0.19008,2023,6,8,13,59,0,372
1.39780,-0.26705,0.21350,0.00000,0.03050,0.97771,-0.18910,2023,6,8,13,59,0,384
1.39790,0.03045,-0.03150,0.00000,0.03209,0.97698,-0.18971,2023,6,8,13,59,0,395
1.39800,-0.09205,-0.03150,0.00000,0.03062,0.97539,-0.18812,2023,6,8,13,59,0,406
1.39810,0.11795,0.05600,0.00000,0.03148,0.97588,-0.18934,2023,6,8,13,59,0,417
1.39820,0.03045,0.10850,0.00000,0.03135,0.97307,-0.18971,2023,6,8,13,59,0,428
1.39830,0.04795,-0.08400,0.00000,0.02989,0.97551,-0.18873,2023,6,8,13,59,0,439
1.39840,-0.09205,0.16100,0.00000,0.03135,0.97429,-0.18934,2023,6,8,13,59,0,450
1.39850,0.10045,-0.01400,0.00000,0.03270,0.97429,-0.18703,2023,6,8,13,59,0,461
1.39860,-0.16205,-0.01400,0.00000,0.03026,0.97393,-0.19056,2023,6,8,13,59,0,472
1.39870,-0.00455,0.07350,0.00000,0.03184,0.97624,-0.18751,2023,6,8,13,59,0,484
1.39880,0.03045,0.12600,0.00000,0.03172,0.97344,-0.19044,2023,6,8,13,59,0,495
1.39890,0.08295,-0.13650,0.00000,0.02904,0.97576,-0.18800,2023,6,8,13,59,0,506
1.39900,0.10045,-0.18900,0.00000,0.03099,0.97661,-0.18739,2023,6,8,13,59,0,517
1.39910,0.03045,0.21350,0.00000,0.02940,0.97551,-0.18800,2023,6,8,13,59,0,528
1.39920,-0.00455,0.23100,0.00000,0.02891,0.97551,-0.19203,2023,6,8,13,59,0,539
1.39930,-0.03955,-0.31150,0.00000,0.02977,0.97356,-0.18959,2023,6,8,13,59,0,550
1.39940,-0.05705,0.10850,0.00000,0.03099,0.97478,-0.18947,2023,6,8,13,59,0,561
1.39950,-0.03955,-0.13650,0.00000,0.02928,0.97466,-0.18910,2023,6,8,13,59,0,572
1.39960,0.01295,-0.04900,0.00000,0.03196,0.97563,-0.18995,2023,6,8,13,59,0,584
1.39970,-0.05705,-0.11900,0.00000,0.02904,0.97661,-0.18849,2023,6,8,13,59,0,595
1.39980,0.08295,-0.13650,0.00000,0.02916,0.97551,-0.18861,2023,6,8,13,59,0,606
1.39990,-0.16205,0.16100,0.00000,0.03062,0.97380,-0.18873,2023,6,8,13,59,0,617
1.40000,0.24045,-0.24150,0.00000,0.02989,0.97698,-0.18764,2023,6,8,13,59,0,628
1.40010,0.06545,0.19600,0.00000,0.03123,0.97319,-0.18922,2023,6,8,13,59,0,639
1.40020,-0.05705,-0.11900,0.00000,0.03123,0.97454,-0.18825,2023,6,8,13,59,0,650
1.40030,0.06545,0.07350,0.00000,0.03135,0.97417,-0.18849,2023,6,8,13,59,0,661
1.40040,0.01295,-0.03150,0.00000,0.03050,0.97710,-0.18764,2023,6,8,13,59,0,672
1.40050,-0.00455,0.07350,0.00000,0.02977,0.97612,-0.18922,2023,6,8,13,59,0,684
1.40060,-0.14455,-0.01400,0.00000,0.03026,0.97515,-0.18715,2023,6,8,13,59,0,695
1.40070,0.04795,-0.03150,0.00000,0.03209,0.97283,-0.18873,2023,6,8,13,59,0,706
1.40080,-0.09205,0.09100,0.00000,0.03001,0.97600,-0.18959,2023,6,8,13,59,0,717
1.40090,0.03045,-0.03150,0.00000,0.03160,0.97685,-0.18886,2023,6,8,13,59,0,728
1.40100,-0.07455,0.12600,0.00000,0.03209,0.97393,-0.18971,2023,6,8,13,59,0,739
1.40110,0.18795,0.03850,0.00000,0.03001,0.97783,-0.18934,2023,6,8,13,59,0,750
1.40120,-0.03955,0.24850,0.00000,0.03148,0.97417,-0.19178,2023,6,8,13,59,0,761
1.40130,-0.09205,-0.03150,0.00000,0.02989,0.97441,-0.18959,2023,6,8,13,59,0,772
1.40140,-0.03955,-0.10150,0.00000,0.02940,0.97527,-0.18934,2023,6,8,13,59,0,784
1.40150,0.18795,-0.22400,0.00000,0.03111,0.97759,-0.18703,2023,6,8,13,59,0,795
1.40160,0.18795,-0.01400,0.00000,0.03257,0.97502,-0.18947,2023,6,8,13,59,0,806
1.40170,0.01295,0.03850,0.00000,0.03013,0.97527,-0.18837,2023,6,8,13,59,0,817
1.40180,0.11795,0.14350,0.00000,0.02879,0.97600,-0.18934,2023,6,8,13,59,0,828
1.40190,-0.12705,-0.15400,0.00000,0.03013,0.97600,-0.18751,2023,6,8,13,59,0,839
1.40200,0.13545,0.05600,0.00000,0.03209,0.97698,-0.18861,2023,6,8,13,59,0,850
1.40210,-0.02205,-0.01400,0.00000,0.02965,0.97649,-0.18690,2023,6,8,13,59,0,861
1.40220,0.01295,0.09100,0.00000,0.02965,0.97527,-0.18666,2023,6,8,13,59,0,872
1.40230,0.04795,-0.04900,0.00000,0.03148,0.97417,-0.18703,2023,6,8,13,59,0,884
1.40240,-0.00455,0.07350,0.00000,0.02965,0.97612,-0.18825,2023,6,8,13,59,0,895
1.40250,0.13545,-0.01400,0.00000,0.03050,0.97502,-0.18764,2023,6,8,13,59,0,906
1.40260,-0.02205,0.10850,0.00000,0.02965,0.97551,-0.18837,2023,6,8,13,59,0,917
1.40270,0.03045,0.16100,0.00000,0.02843,0.97527,-0.18898,2023,6,8,13,59,0,928
1.40280,0.10045,-0.06650,0.00000,0.03172,0.97637,-0.18812,2023,6,8,13,59,0,939
1.40290,-0.12705,0.23100,0.00000,0.03013,0.97624,-0.18715,2023,6,8,13,59,0,950
1.40300,-0.02205,0.00350,0.00000,0.02806,0.97478,-0.18715,2023,6,8,13,59,0,961
1.40310,-0.05705,0.03850,0.00000,0.03026,0.97698,-0.18837,2023,6,8,13,59,0,972
1.40320,-0.17955,0.03850,0.00000,0.03148,0.97429,-0.18739,2023,6,8,13,59,0,984
1.40330,-0.05705,0.03850,0.00000,0.03123,0.97417,-0.18800,2023,6,8,13,59,0,995
1.40340,0.11795,-0.01400,0.00000,0.03282,0.97661,-0.19105,2023,6,8,13,59,0,6
1.40350,-0.03955,0.00350,0.00000,0.03050,0.97490,-0.18898,2023,6,8,13,59,1,7
1.40360,-0.02205,-0.04900,0.00000,0.03013,0.97527,-0.18886,2023,6,8,13,59,1,18
1.40370,0.06545,-0.01400,0.00000,0.03050,0.97490,-0.18886,2023,6,8,13,59,1,29
1.40380,-0.12705,-0.01400,0.00000,0.03074,0.97576,-0.18959,2023,6,8,13,59,1,40
1.40390,0.04795,0.00350,0.00000,0.03050,0.97746,-0.19020,2023,6,8,13,59,1,51
1.40400,-0.23205,0.09100,0.00000,0.02977,0.97759,-0.18812,2023,6,8,13,59,1,62
1.40410,-0.05705,0.03850,0.00000,0.02928,0.97612,-0.18886,2023,6,8,13,59,1,74
1.40420,0.01295,0.00350,0.00000,0.02952,0.97405,-0.19056,2023,6,8,13,59,1,85
1.40430,-0.14455,0.00350,0.00000,0.03087,0.97649,-0.18861,2023,6,8,13,59,1,96
1.40440,0.03045,0.05600,0.00000,0.03148,0.97795,-0.18995,2023,6,8,13,59,1,107
1.40450,-0.02205,-0.01400,0.00000,0.03123,0.97466,-0.19203,2023,6,8,13,59,1,118
1.40460,0.01295,-0.01400,0.00000,0.03245,0.97576,-0.18849,2023,6,8,13,59,1,129
1.40470,-0.09205,0.16100,0.00000,0.03111,0.97576,-0.18812,2023,6,8,13,59,1,140
1.40480,0.06545,-0.31150,0.00000,0.03111,0.97710,-0.19008,2023,6,8,13,59,1,151
1.40490,-0.17955,-0.04900,0.00000,0.02843,0.97563,-0.18983,2023,6,8,13,59,1,162
1.40500,-0.14455,0.17850,0.00000,0.03148,0.97393,-0.18849,2023,6,8,13,59,1,174
1.40510,0.24045,-0.34650,0.00000,0.03038,0.97417,-0.18825,2023,6,8,13,59,1,185
1.40520,0.04795,0.05600,0.00000,0.03062,0.97576,-0.18788,2023,6,8,13,59,1,196
1.40530,-0.05705,0.00350,0.00000,0.02904,0.97612,-0.18995,2023,6,8,13,59,1,207
1.40540,-0.02205,0.02100,0.00000,0.03087,0.97588,-0.18922,2023,6,8,13,59,1,218
1.40550,0.13545,-0.18900,0.00000,0.03087,0.97710,-0.18873,2023,6,8,13,59,1,229
1.40560,0.20545,0.16100,0.00000,0.03306,0.97673,-0.19142,2023,6,8,13,59,1,240
1.40570,0.06545,-0.13650,0.00000,0.03050,0.97795,-0.19020,2023,6,8,13,59,1,251
1.40580,0.06545,-0.03150,0.00000,0.03038,0.97563,-0.18788,2023,6,8,13,59,1,262
1.40590,-0.03955,0.09100,0.00000,0.03135,0.97502,-0.18666,2023,6,8,13,59,1,274
1.40600,0.03045,-0.10150,0.00000,0.03087,0.97441,-0.19154,2023,6,8,13,59,1,285
1.40610,0.10045,0.05600,0.00000,0.02794,0.97405,-0.19166,2023,6,8,13,59,1,296
1.40620,-0.09205,-0.08400,0.00000,0.03160,0.97551,-0.18739,2023,6,8,13,59,1,307
1.40630,-0.05705,0.10850,0.00000,0.02904,0.97637,-0.18910,2023,6,8,13,59,1,318
1.40640,0.04795,-0.03150,0.00000,0.02977,0.97454,-0.19032,2023,6,8,13,59,1,329
1.40650,0.15295,-0.20650,0.00000,0.03123,0.97295,-0.18873,2023,6,8,13,59,1,340
1.40660,-0.02205,-0.10150,0.00000,0.02904,0.97332,-0.19142,2023,6,8,13,59,1,351
1.40670,0.03045,-0.01400,0.00000,0.03001,0.97417,-0.19056,2023,6,8,13,59,1,362
1.40680,0.11795,0.09100,0.00000,0.03111,0.97478,-0.18898,2023,6,8,13,59,1,374
1.40690,-0.02205,-0.25900,0.00000,0.03001,0.97368,-0.19032,2023,6,8,13,59,1,385
1.40700,0.10045,-0.11900,0.00000,0.03087,0.97466,-0.18788,2023,6,8,13,59,1,396
1.40710,0.06545,0.05600,0.00000,0.03233,0.97429,-0.18983,2023,6,8,13,59,1,407
1.40720,0.25795,-0.20650,0.00000,0.02904,0.97466,-0.18678,2023,6,8,13,59,1,418
1.40730,0.11795,0.03850,0.00000,0.03001,0.97710,-0.18776,2023,6,8,13,59,1,429
1.40740,0.15295,0.02100,0.00000,0.03221,0.97478,-0.19069,2023,6,8,13,59,1,440
1.40750,-0.16205,-0.06650,0.00000,0.02794,0.97807,-0.19032,2023,6,8,13,59,1,451
1.40760,0.08295,-0.04900,0.00000,0.02965,0.97698,-0.18922,2023,6,8,13,59,1,462
1.40770,0.20545,-0.03150,0.00000,0.03050,0.97673,-0.18910,2023,6,8,13,59,1,474
1.40780,0.06545,0.09100,0.00000,0.03123,0.97563,-0.19349,2023,6,8,13,59,1,485
1.40790,-0.02205,0.19600,0.00000,0.02965,0.97576,-0.18825,2023,6,8,13,59,1,496
1.40800,0.18795,0.12600,0.00000,0.03062,0.97588,-0.19117,2023,6,8,13,59,1,507
1.40810,0.10045,-0.01400,0.00000,0.03135,0.97698,-0.18800,2023,6,8,13,59,1,518
1.40820,0.03045,-0.17150,0.00000,0.03318,0.97393,-0.18800,2023,6,8,13,59,1,529
1.40830,0.06545,-0.17150,0.00000,0.03245,0.97551,-0.19105,2023,6,8,13,59,1,540
1.40840,0.08295,-0.27650,0.00000,0.02830,0.97624,-0.18995,2023,6,8,13,59,1,551
1.40850,0.04795,-0.18900,0.00000,0.03038,0.97515,-0.18703,2023,6,8,13,59,1,562
1.40860,0.01295,0.00350,0.00000,0.03087,0.97466,-0.18654,2023,6,8,13,59,1,574
1.40870,0.01295,-0.25900,0.00000,0.02904,0.97783,-0.19008,2023,6,8,13,59,1,585
1.40880,0.10045,0.10850,0.00000,0.02965,0.97380,-0.18873,2023,6,8,13,59,1,596
1.40890,-0.03955,0.16100,0.00000,0.03062,0.97637,-0.18812,2023,6,8,13,59,1,607
1.40900,0.08295,0.00350,0.00000,0.03111,0.97612,-0.19056,2023,6,8,13,59,1,618
1.40910,-0.03955,0.03850,0.00000,0.02952,0.97698,-0.18922,2023,6,8,13,59,1,629
1.40920,0.06545,0.00350,0.00000,0.03221,0.97588,-0.18959,2023,6,8,13,59,1,640
1.40930,-0.00455,-0.10150,0.00000,0.03026,0.97478,-0.18812,2023,6,8,13,59,1,651
1.40940,0.31045,-0.11900,0.00000,0.03196,0.97527,-0.19069,2023,6,8,13,59,1,662
1.40950,-0.12705,0.09100,0.00000,0.02989,0.97515,-0.18898,2023,6,8,13,59,1,674
1.40960,0.01295,0.00350,0.00000,0.02879,0.97405,-0.19020,2023,6,8,13,59,1,685
1.40970,-0.16205,-0.01400,0.00000,0.03184,0.97637,-0.18776,2023,6,8,13,59,1,696
1.40980,0.08295,-0.22400,0.00000,0.03013,0.97588,-0.19044,2023,6,8,13,59,1,707
1.40990,0.03045,0.14350,0.00000,0.03074,0.97576,-0.19105,2023,6,8,13,59,1,718
1.41000,0.13545,-0.01400,0.00000,0.03038,0.97624,-0.18739,2023,6,8,13,59,1,729
1.41010,-0.09205,-0.10150,0.00000,0.03099,0.97698,-0.19008,2023,6,8,13,59,1,740
1.41020,0.01295,0.09100,0.00000,0.02928,0.97502,-0.18922,2023,6,8,13,59,1,751
1.41030,0.17045,-0.10150,0.00000,0.03111,0.97710,-0.19166,2023,6,8,13,59,1,762
1.41040,0.17045,0.07350,0.00000,0.03221,0.97649,-0.18947,2023,6,8,13,59,1,774
1.41050,-0.02205,0.07350,0.00000,0.03013,0.97478,-0.19252,2023,6,8,13,59,1,785
1.41060,-0.12705,0.05600,0.00000,0.02977,0.97746,-0.18983,2023,6,8,13,59,1,796
1.41070,0.10045,-0.04900,0.00000,0.03135,0.97356,-0.18959,2023,6,8,13,59,1,807
1.41080,0.08295,-0.03150,0.00000,0.02855,0.97600,-0.19044,2023,6,8,13,59,1,818
1.41090,-0.02205,0.12600,0.00000,0.03184,0.97771,-0.19056,2023,6,8,13,59,1,829
1.41100,0.04795,-0.08400,0.00000,0.03038,0.97490,-0.19227,2023,6,8,13,59,1,840
1.41110,0.06545,0.05600,0.00000,0.03257,0.97576,-0.19130,2023,6,8,13,59,1,851
1.41120,0.08295,0.00350,0.00000,0.03026,0.97417,-0.18788,2023,6,8,13,59,1,862
1.41130,0.03045,0.10850,0.00000,0.03062,0.97405,-0.19166,2023,6,8,13,59,1,874
1.41140,-0.05705,0.03850,0.00000,0.03196,0.97661,-0.18934,2023,6,8,13,59,1,885
1.41150,0.04795,0.10850,0.00000,0.02940,0.97649,-0.18971,2023,6,8,13,59,1,896
1.41160,-0.03955,-0.34650,0.00000,0.03074,0.97466,-0.18959,2023,6,8,13,59,1,907
1.41170,-0.09205,0.07350,0.00000,0.03123,0.97588,-0.18983,2023,6,8,13,59,1,918
1.41180,0.01295,-0.03150,0.00000,0.03135,0.97527,-0.19044,2023,6,8,13,59,1,929
1.41190,0.11795,-0.11900,0.00000,0.03160,0.97600,-0.18922,2023,6,8,13,59,1,940
1.41200,0.06545,0.00350,0.00000,0.02965,0.97746,-0.19130,2023,6,8,13,59,1,951
1.41210,0.10045,0.02100,0.00000,0.03221,0.97271,-0.18959,2023,6,8,13,59,1,962
1.41220,-0.09205,0.28350,0.00000,0.03001,0.97539,-0.19032,2023,6,8,13,59,1,974
1.41230,-0.03955,0.14350,0.00000,0.03026,0.97576,-0.19008,2023,6,8,13,59,1,985
1.41240,0.04795,-0.15400,0.00000,0.02989,0.97771,-0.18947,2023,6,8,13,59,1,996
1.41250,0.04795,-0.10150,0.00000,0.03148,0.97746,-0.19203,2023,6,8,13,59,1,7
1.41260,0.01295,0.02100,0.00000,0.03074,0.97466,-0.18959,2023,6,8,13,59,2,8
1.41270,0.06545,-0.03150,0.00000,0.03038,0.97441,-0.18934,2023,6,8,13,59,2,19
1.41280,0.11795,-0.01400,0.00000,0.03209,0.97551,-0.18983,2023,6,8,13,59,2,30
1.41290,-0.03955,0.19600,0.00000,0.03306,0.97710,-0.18959,2023,6,8,13,59,2,41
1.41300,0.17045,0.03850,0.00000,0.02952,0.97502,-0.19142,2023,6,8,13,59,2,52
1.41310,0.01295,0.03850,0.00000,0.03087,0.97637,-0.18934,2023,6,8,13,59,2,64
1.41320,0.01295,0.17850,0.00000,0.03245,0.97405,-0.18886,2023,6,8,13,59,2,75
1.41330,-0.00455,0.19600,0.00000,0.03038,0.97600,-0.19093,2023,6,8,13,59,2,86
1.41340,0.17045,0.03850,0.00000,0.03013,0.97624,-0.18837,2023,6,8,13,59,2,97
1.41350,-0.14455,0.07350,0.00000,0.02818,0.97368,-0.19032,2023,6,8,13,59,2,108
1.41360,0.22295,-0.15400,0.00000,0.03013,0.97368,-0.19020,2023,6,8,13,59,2,119
1.41370,0.13545,-0.08400,0.00000,0.03209,0.97466,-0.18898,2023,6,8,13,59,2,130
1.41380,-0.02205,-0.17150,0.00000,0.03087,0.97454,-0.18886,2023,6,8,13,59,2,141
1.41390,0.03045,-0.04900,0.00000,0.02965,0.97588,-0.18995,2023,6,8,13,59,2,152
1.41400,0.06545,-0.06650,0.00000,0.03087,0.97539,-0.19093,2023,6,8,13,59,2,164
1.41410,0.04795,-0.31150,0.00000,0.02952,0.97515,-0.19105,2023,6,8,13,59,2,175
1.41420,0.08295,-0.11900,0.00000,0.03050,0.97515,-0.19081,2023,6,8,13,59,2,186
1.41430,-0.00455,-0.04900,0.00000,0.03111,0.97490,-0.18947,2023,6,8,13,59,2,197
1.41440,0.06545,0.00350,0.00000,0.03209,0.97637,-0.18861,2023,6,8,13,59,2,208
1.41450,-0.07455,0.17850,0.00000,0.03172,0.97466,-0.19130,2023,6,8,13,59,2,219
1.41460,0.13545,0.00350,0.00000,0.03184,0.97502,-0.19020,2023,6,8,13,59,2,230
1.41470,0.01295,-0.01400,0.00000,0.02879,0.97454,-0.18922,2023,6,8,13,59,2,241
1.41480,0.06545,0.03850,0.00000,0.03123,0.97759,-0.18800,2023,6,8,13,59,2,252
1.41490,0.01295,-0.10150,0.00000,0.02806,0.97637,-0.19069,2023,6,8,13,59,2,264
1.41500,-0.05705,0.12600,0.00000,0.02830,0.97563,-0.19130,2023,6,8,13,59,2,275
1.41510,0.20545,-0.06650,0.00000,0.03148,0.97405,-0.18873,2023,6,8,13,59,2,286
1.41520,0.10045,-0.08400,0.00000,0.03209,0.97746,-0.19130,2023,6,8,13,59,2,297
1.41530,0.27545,-0.24150,0.00000,0.03074,0.97588,-0.19020,2023,6,8,13,59,2,308
1.41540,0.03045,-0.04900,0.00000,0.03013,0.97515,-0.18837,2023,6,8,13,59,2,319
1.41550,0.10045,-0.01400,0.00000,0.03184,0.97502,-0.18983,2023,6,8,13,59,2,330
1.41560,0.04795,0.03850,0.00000,0.03111,0.97539,-0.18886,2023,6,8,13,59,2,341
1.41570,-0.14455,0.03850,0.00000,0.03038,0.97441,-0.18886,2023,6,8,13,59,2,352
1.41580,0.11795,0.03850,0.00000,0.03209,0.97478,-0.18849,2023,6,8,13,59,2,364
1.41590,0.08295,-0.13650,0.00000,0.02989,0.97332,-0.18922,2023,6,8,13,59,2,375
1.41600,0.08295,0.00350,0.00000,0.03135,0.97502,-0.18727,2023,6,8,13,59,2,386
1.41610,0.03045,-0.01400,0.00000,0.02989,0.97734,-0.18922,2023,6,8,13,59,2,397
1.41620,-0.05705,-0.04900,0.00000,0.03087,0.97649,-0.18776,2023,6,8,13,59,2,408
1.41630,0.06545,-0.08400,0.00000,0.02904,0.97344,-0.18983,2023,6,8,13,59,2,419
1.41640,0.01295,0.09100,0.00000,0.03233,0.97661,-0.18898,2023,6,8,13,59,2,430
1.41650,0.08295,-0.01400,0.00000,0.03038,0.97551,-0.18849,2023,6,8,13,59,2,441
1.41660,0.20545,-0.20650,0.00000,0.03087,0.97661,-0.18849,2023,6,8,13,59,2,452
1.41670,0.01295,-0.06650,0.00000,0.03026,0.97612,-0.18849,2023,6,8,13,59,2,464
1.41680,-0.09205,0.07350,0.00000,0.03099,0.97368,-0.18825,2023,6,8,13,59,2,475
1.41690,0.11795,0.02100,0.00000,0.03013,0.97624,-0.18849,2023,6,8,13,59,2,486
1.41700,0.08295,-0.04900,0.00000,0.02904,0.97661,-0.19020,2023,6,8,13,59,2,497
1.41710,0.27545,0.30100,0.00000,0.02830,0.97405,-0.18959,2023,6,8,13,59,2,508
1.41720,0.04795,0.16100,0.00000,0.03074,0.97649,-0.18922,2023,6,8,13,59,2,519
1.41730,-0.07455,-0.10150,0.00000,0.02904,0.97637,-0.18837,2023,6,8,13,59,2,530
1.41740,0.24045,0.03850,0.00000,0.03062,0.97527,-0.18800,2023,6,8,13,59,2,541
1.41750,-0.09205,-0.01400,0.00000,0.03111,0.97185,-0.18837,2023,6,8,13,59,2,552
1.41760,-0.05705,0.00350,0.00000,0.03062,0.97502,-0.19117,2023,6,8,13,59,2,564
1.41770,-0.07455,0.17850,0.00000,0.02965,0.97893,-0.19166,2023,6,8,13,59,2,575
1.41780,0.10045,-0.17150,0.00000,0.03050,0.97454,-0.18922,2023,6,8,13,59,2,586
1.41790,0.08295,0.00350,0.00000,0.03245,0.97368,-0.18788,2023,6,8,13,59,2,597
1.41800,0.03045,-0.08400,0.00000,0.03050,0.97649,-0.19105,2023,6,8,13,59,2,608
1.41810,-0.00455,0.00350,0.00000,0.03233,0.97563,-0.19117,2023,6,8,13,59,2,619
1.41820,0.10045,-0.18900,0.00000,0.03087,0.97637,-0.18947,2023,6,8,13,59,2,630
1.41830,-0.00455,-0.03150,0.00000,0.03331,0.97637,-0.19020,2023,6,8,13,59,2,641
1.41840,-0.03955,0.10850,0.00000,0.02940,0.97771,-0.19081,2023,6,8,13,59,2,652
1.41850,-0.16205,0.05600,0.00000,0.03123,0.97344,-0.19044,2023,6,8,13,59,2,664
1.41860,0.06545,-0.03150,0.00000,0.03074,0.97734,-0.18837,2023,6,8,13,59,2,675
1.41870,0.06545,-0.01400,0.00000,0.03233,0.97710,-0.18727,2023,6,8,13,59,2,686
1.41880,0.06545,-0.11900,0.00000,0.03160,0.97563,-0.18922,2023,6,8,13,59,2,697
1.41890,0.01295,0.05600,0.00000,0.03209,0.97600,-0.19093,2023,6,8,13,59,2,708
1.41900,0.17045,0.00350,0.00000,0.03367,0.97710,-0.18922,2023,6,8,13,59,2,719
1.41910,-0.03955,-0.11900,0.00000,0.03099,0.97307,-0.18837,2023,6,8,13,59,2,730
1.41920,0.06545,0.00350,0.00000,0.03221,0.97429,-0.19117,2023,6,8,13,59,2,741
1.41930,-0.02205,0.02100,0.00000,0.02916,0.97393,-0.18898,2023,6,8,13,59,2,752
1.41940,-0.02205,0.02100,0.00000,0.02818,0.97624,-0.19020,2023,6,8,13,59,2,764
1.41950,-0.02205,-0.08400,0.00000,0.03135,0.97685,-0.18861,2023,6,8,13,59,2,775
1.41960,0.15295,0.00350,0.00000,0.02904,0.97405,-0.18861,2023,6,8,13,59,2,786
1.41970,0.01295,0.14350,0.00000,0.03184,0.97307,-0.18959,2023,6,8,13,59,2,797
1.41980,-0.03955,-0.13650,0.00000,0.02769,0.97478,-0.19093,2023,6,8,13,59,2,808
1.41990,0.13545,0.05600,0.00000,0.03074,0.97685,-0.18861,2023,6,8,13,59,2,819
1.42000,0.15295,0.09100,0.00000,0.03245,0.97637,-0.19081,2023,6,8,13,59,2,830
1.42010,0.01295,-0.24150,0.00000,0.02940,0.97673,-0.18922,2023,6,8,13,59,2,841
1.42020,0.08295,-0.17150,0.00000,0.03160,0.97685,-0.18959,2023,6,8,13,59,2,852
1.42030,0.01295,0.03850,0.00000,0.03233,0.97539,-0.18959,2023,6,8,13,59,2,864
1.42040,-0.31955,0.17850,0.00000,0.02916,0.97673,-0.19093,2023,6,8,13,59,2,875
1.42050,0.03045,0.10850,0.00000,0.03050,0.97576,-0.19008,2023,6,8,13,59,2,886
1.42060,-0.09205,0.12600,0.00000,0.03001,0.97466,-0.19056,2023,6,8,13,59,2,897
1.42070,-0.03955,-0.11900,0.00000,0.03306,0.97466,-0.18959,2023,6,8,13,59,2,908
1.42080,0.13545,-0.06650,0.00000,0.03233,0.97539,-0.19032,2023,6,8,13,59,2,919
1.42090,-0.14455,-0.03150,0.00000,0.03050,0.97478,-0.18959,2023,6,8,13,59,2,930
1.42100,0.01295,-0.03150,0.00000,0.02965,0.97441,-0.18825,2023,6,8,13,59,2,941
1.42110,0.08295,-0.08400,0.00000,0.03062,0.97563,-0.18983,2023,6,8,13,59,2,952
1.42120,-0.07455,-0.06650,0.00000,0.03172,0.97624,-0.19166,2023,6,8,13,59,2,964
1.42130,0.20545,0.03850,0.00000,0.02965,0.97478,-0.18959,2023,6,8,13,59,2,975
1.42140,-0.10955,-0.03150,0.00000,0.03099,0.97490,-0.19008,2023,6,8,13,59,2,986
1.42150,0.06545,0.10850,0.00000,0.03099,0.97417,-0.18886,2023,6,8,13,59,2,997
1.42160,0.01295,0.10850,0.00000,0.03184,0.97637,-0.18922,2023,6,8,13,59,3,8
1.42170,0.15295,-0.18900,0.00000,0.02830,0.97649,-0.18873,2023,6,8,13,59,3,19
1.42180,-0.12705,0.00350,0.00000,0.02916,0.97319,-0.18995,2023,6,8,13,59,3,30
1.42190,-0.03955,0.09100,0.00000,0.03318,0.97673,-0.19032,2023,6,8,13,59,3,41
1.42200,0.13545,-0.11900,0.00000,0.03111,0.97698,-0.18995,2023,6,8,13,59,3,52
1.42210,-0.00455,0.05600,0.00000,0.02989,0.97649,-0.18971,2023,6,8,13,59,3,64
1.42220,0.04795,0.07350,0.00000,0.03184,0.97380,-0.18947,2023,6,8,13,59,3,75
1.42230,-0.07455,0.07350,0.00000,0.02928,0.97490,-0.18910,2023,6,8,13,59,3,86
1.42240,0.08295,-0.15400,0.00000,0.03001,0.97393,-0.18934,2023,6,8,13,59,3,97
1.42250,0.04795,0.10850,0.00000,0.03099,0.97441,-0.19093,2023,6,8,13,59,3,108
1.42260,0.20545,-0.10150,0.00000,0.03111,0.97380,-0.19020,2023,6,8,13,59,3,119
1.42270,-0.17955,-0.01400,0.00000,0.02855,0.97576,-0.19081,2023,6,8,13,59,3,130
1.42280,0.01295,0.26600,0.00000,0.03074,0.97332,-0.18825,2023,6,8,13,59,3,141
1.42290,0.06545,-0.06650,0.00000,0.03074,0.97478,-0.18910,2023,6,8,13,59,3,152
1.42300,0.03045,-0.06650,0.00000,0.02989,0.97490,-0.18971,2023,6,8,13,59,3,164
1.42310,0.11795,-0.06650,0.00000,0.03001,0.97429,-0.19020,2023,6,8,13,59,3,175
1.42320,0.11795,0.05600,0.00000,0.03160,0.97612,-0.19008,2023,6,8,13,59,3,186
1.42330,-0.16205,-0.01400,0.00000,0.03062,0.97637,-0.19020,2023,6,8,13,59,3,197
1.42340,-0.03955,-0.18900,0.00000,0.03050,0.97502,-0.18654,2023,6,8,13,59,3,208
1.42350,-0.05705,0.14350,0.00000,0.03099,0.97710,-0.18898,2023,6,8,13,59,3,219
1.42360,-0.02205,-0.13650,0.00000,0.02965,0.97441,-0.18910,2023,6,8,13,59,3,230
1.42370,0.15295,0.09100,0.00000,0.03087,0.97661,-0.18873,2023,6,8,13,59,3,241
1.42380,-0.00455,0.00350,0.00000,0.03221,0.97759,-0.18995,2023,6,8,13,59,3,252
1.42390,0.08295,0.00350,0.00000,0.03038,0.97393,-0.18910,2023,6,8,13,59,3,264
1.42400,-0.09205,-0.01400,0.00000,0.03148,0.97380,-0.18727,2023,6,8,13,59,3,275
1.42410,-0.05705,-0.24150,0.00000,0.03160,0.97380,-0.18971,2023,6,8,13,59,3,286
1.42420,-0.00455,-0.04900,0.00000,0.03148,0.97490,-0.18995,2023,6,8,13,59,3,297
1.42430,-0.12705,-0.29400,0.00000,0.03135,0.97490,-0.18947,2023,6,8,13,59,3,308
1.42440,0.08295,-0.13650,0.00000,0.03172,0.97515,-0.18983,2023,6,8,13,59,3,319
1.42450,0.01295,0.09100,0.00000,0.03160,0.97710,-0.18898,2023,6,8,13,59,3,330
1.42460,-0.17955,0.14350,0.00000,0.03013,0.97637,-0.18751,2023,6,8,13,59,3,341
1.42470,0.03045,0.03850,0.00000,0.03135,0.97746,-0.18922,2023,6,8,13,59,3,352
1.42480,-0.03955,-0.15400,0.00000,0.03062,0.97612,-0.18776,2023,6,8,13,59,3,364
1.42490,-0.09205,-0.03150,0.00000,0.03038,0.97380,-0.18886,2023,6,8,13,59,3,375
1.42500,-0.10955,0.10850,0.00000,0.03196,0.97454,-0.18898,2023,6,8,13,59,3,386
1.42510,0.06545,-0.13650,0.00000,0.02916,0.97527,-0.18788,2023,6,8,13,59,3,397
1.42520,0.10045,-0.18900,0.00000,0.03221,0.97307,-0.18922,2023,6,8,13,59,3,408
1.42530,0.08295,-0.18900,0.00000,0.03160,0.97478,-0.18837,2023,6,8,13,59,3,419
1.42540,-0.16205,0.03850,0.00000,0.02989,0.97722,-0.19093,2023,6,8,13,59,3,430
1.42550,-0.12705,0.03850,0.00000,0.03111,0.97502,-0.18922,2023,6,8,13,59,3,441
1.42560,-0.09205,0.05600,0.00000,0.03026,0.97600,-0.18788,2023,6,8,13,59,3,452
1.42570,-0.00455,-0.04900,0.00000,0.02891,0.97649,-0.19142,2023,6,8,13,59,3,464
1.42580,0.10045,-0.22400,0.00000,0.03099,0.97673,-0.19227,2023,6,8,13,59,3,475
1.42590,0.04795,-0.03150,0.00000,0.03013,0.97527,-0.18959,2023,6,8,13,59,3,486
1.42600,-0.07455,0.19600,0.00000,0.03001,0.97588,-0.18788,2023,6,8,13,59,3,497
1.42610,-0.00455,-0.04900,0.00000,0.02843,0.97417,-0.19117,2023,6,8,13,59,3,508
1.42620,-0.03955,-0.04900,0.00000,0.03050,0.97417,-0.19130,2023,6,8,13,59,3,519
1.42630,-0.05705,0.14350,0.00000,0.03062,0.97661,-0.19117,2023,6,8,13,59,3,530
1.42640,0.01295,-0.01400,0.00000,0.02782,0.97746,-0.19117,2023,6,8,13,59,3,541
1.42650,-0.05705,0.02100,0.00000,0.02940,0.97344,-0.19227,2023,6,8,13,59,3,552
1.42660,-0.00455,-0.04900,0.00000,0.02940,0.97393,-0.19178,2023,6,8,13,59,3,564
1.42670,-0.07455,0.02100,0.00000,0.03013,0.97576,-0.19032,2023,6,8,13,59,3,575
1.42680,0.04795,-0.29400,0.00000,0.03099,0.97563,-0.19239,2023,6,8,13,59,3,586
1.42690,-0.05705,0.23100,0.00000,0.03050,0.97551,-0.19020,2023,6,8,13,59,3,597
1.42700,0.03045,0.07350,0.00000,0.03172,0.97478,-0.19008,2023,6,8,13,59,3,608
1.42710,-0.19705,-0.03150,0.00000,0.03074,0.97539,-0.19093,2023,6,8,13,59,3,619
1.42720,0.03045,0.02100,0.00000,0.03270,0.97576,-0.18922,2023,6,8,13,59,3,630
1.42730,0.08295,-0.03150,0.00000,0.03257,0.97673,-0.19069,2023,6,8,13,59,3,641
1.42740,-0.03955,-0.15400,0.00000,0.02891,0.97502,-0.19276,2023,6,8,13,59,3,652
1.42750,0.06545,-0.06650,0.00000,0.03026,0.97661,-0.18983,2023,6,8,13,59,3,664
1.42760,0.06545,-0.22400,0.00000,0.02989,0.97637,-0.19105,2023,6,8,13,59,3,675
1.42770,0.08295,0.00350,0.00000,0.02879,0.97417,-0.19069,2023,6,8,13,59,3,686
1.42780,-0.09205,0.05600,0.00000,0.03111,0.97649,-0.19093,2023,6,8,13,59,3,697
1.42790,-0.02205,0.05600,0.00000,0.02977,0.97588,-0.19276,2023,6,8,13,59,3,708
1.42800,-0.00455,0.23100,0.00000,0.03038,0.97502,-0.19349,2023,6,8,13,59,3,719
1.42810,-0.05705,-0.15400,0.00000,0.03355,0.97502,-0.19191,2023,6,8,13,59,3,730
1.42820,0.03045,0.10850,0.00000,0.03038,0.97576,-0.19325,2023,6,8,13,59,3,741
1.42830,-0.07455,0.03850,0.00000,0.03245,0.97490,-0.19288,2023,6,8,13,59,3,752
1.42840,-0.16205,0.03850,0.00000,0.03099,0.97637,-0.19117,2023,6,8,13,59,3,764
1.42850,0.01295,0.09100,0.00000,0.03001,0.97454,-0.19069,2023,6,8,13,59,3,775
1.42860,0.04795,-0.01400,0.00000,0.03111,0.97624,-0.19105,2023,6,8,13,59,3,786
1.42870,-0.00455,0.03850,0.00000,0.03087,0.97539,-0.19239,2023,6,8,13,59,3,797
1.42880,0.03045,0.00350,0.00000,0.02843,0.97612,-0.19178,2023,6,8,13,59,3,808
1.42890,-0.10955,-0.15400,0.00000,0.03026,0.97490,-0.18861,2023,6,8,13,59,3,819
1.42900,-0.05705,-0.04900,0.00000,0.02940,0.97624,-0.18959,2023,6,8,13,59,3,830
1.42910,-0.02205,0.00350,0.00000,0.03038,0.97685,-0.19056,2023,6,8,13,59,3,841
1.42920,0.11795,-0.10150,0.00000,0.03111,0.97393,-0.19105,2023,6,8,13,59,3,852
1.42930,-0.23205,-0.11900,0.00000,0.03245,0.97600,-0.19191,2023,6,8,13,59,3,864
1.42940,-0.10955,0.05600,0.00000,0.03099,0.97563,-0.19252,2023,6,8,13,59,3,875
1.42950,-0.21455,0.00350,0.00000,0.02928,0.97563,-0.18983,2023,6,8,13,59,3,886
1.42960,-0.02205,0.14350,0.00000,0.03245,0.97429,-0.19008,2023,6,8,13,59,3,897
1.42970,0.10045,0.05600,0.00000,0.02745,0.97454,-0.19166,2023,6,8,13,59,3,908
1.42980,-0.05705,0.03850,0.00000,0.02867,0.97649,-0.18922,2023,6,8,13,59,3,919
1.42990,-0.00455,0.09100,0.00000,0.03148,0.97356,-0.19056,2023,6,8,13,59,3,930
1.43000,-0.03955,-0.01400,0.00000,0.02916,0.97393,-0.19020,2023,6,8,13,59,3,941
1.43010,-0.05705,-0.18900,0.00000,0.03209,0.97563,-0.19081,2023,6,8,13,59,3,952
1.43020,-0.00455,-0.13650,0.00000,0.02769,0.97661,-0.19191,2023,6,8,13,59,3,964
1.43030,0.01295,-0.03150,0.00000,0.03099,0.97685,-0.18959,2023,6,8,13,59,3,975
1.43040,0.01295,-0.04900,0.00000,0.03148,0.97637,-0.19044,2023,6,8,13,59,3,986
1.43050,-0.03955,0.07350,0.00000,0.03026,0.97454,-0.18971,2023,6,8,13,59,3,997
1.43060,0.22295,-0.13650,0.00000,0.02867,0.97478,-0.18910,2023,6,8,13,59,3,8
1.43070,0.08295,-0.06650,0.00000,0.03148,0.97405,-0.18983,2023,6,8,13,59,4,9
1.43080,0.10045,-0.20650,0.00000,0.03026,0.97637,-0.19166,2023,6,8,13,59,4,20
1.43090,-0.09205,0.16100,0.00000,0.02916,0.97978,-0.19081,2023,6,8,13,59,4,31
1.43100,-0.00455,0.05600,0.00000,0.03257,0.97466,-0.18861,2023,6,8,13,59,4,42
1.43110,-0.03955,-0.13650,0.00000,0.02952,0.97490,-0.19093,2023,6,8,13,59,4,54
1.43120,0.22295,0.05600,0.00000,0.03367,0.97380,-0.19008,2023,6,8,13,59,4,65
1.43130,0.10045,0.05600,0.00000,0.02855,0.97393,-0.19032,2023,6,8,13,59,4,76
1.43140,0.03045,-0.06650,0.00000,0.03087,0.97673,-0.19313,2023,6,8,13,59,4,87
1.43150,0.08295,-0.03150,0.00000,0.03282,0.97539,-0.19044,2023,6,8,13,59,4,98
1.43160,0.13545,0.03850,0.00000,0.03196,0.97661,-0.19215,2023,6,8,13,59,4,109
1.43170,0.08295,0.00350,0.00000,0.02940,0.97576,-0.19044,2023,6,8,13,59,4,120
1.43180,0.06545,-0.04900,0.00000,0.03160,0.97295,-0.18947,2023,6,8,13,59,4,131
1.43190,-0.00455,-0.08400,0.00000,0.03196,0.97685,-0.19008,2023,6,8,13,59,4,142
1.43200,0.17045,0.02100,0.00000,0.03196,0.97612,-0.19117,2023,6,8,13,59,4,154
1.43210,-0.07455,0.17850,0.00000,0.03038,0.97588,-0.19093,2023,6,8,13,59,4,165
1.43220,0.03045,0.02100,0.00000,0.02891,0.97588,-0.18995,2023,6,8,13,59,4,176
1.43230,-0.03955,-0.01400,0.00000,0.02891,0.97429,-0.18995,2023,6,8,13,59,4,187
1.43240,-0.17955,0.10850,0.00000,0.02843,0.97722,-0.19227,2023,6,8,13,59,4,198
1.43250,0.03045,-0.04900,0.00000,0.03013,0.97551,-0.19093,2023,6,8,13,59,4,209
1.43260,-0.07455,0.19600,0.00000,0.03294,0.97795,-0.18983,2023,6,8,13,59,4,220
1.43270,-0.24955,0.03850,0.00000,0.02904,0.97539,-0.19069,2023,6,8,13,59,4,231
1.43280,0.17045,-0.10150,0.00000,0.03123,0.97624,-0.18934,2023,6,8,13,59,4,242
1.43290,-0.07455,-0.03150,0.00000,0.03001,0.97685,-0.18959,2023,6,8,13,59,4,254
1.43300,-0.05705,-0.11900,0.00000,0.03062,0.97734,-0.19215,2023,6,8,13,59,4,265
1.43310,-0.21455,-0.03150,0.00000,0.02952,0.97661,-0.18812,2023,6,8,13,59,4,276
1.43320,0.17045,-0.17150,0.00000,0.03050,0.97576,-0.19020,2023,6,8,13,59,4,287
1.43330,-0.00455,-0.13650,0.00000,0.02830,0.97661,-0.19032,2023,6,8,13,59,4,298
1.43340,0.03045,-0.10150,0.00000,0.03245,0.97600,-0.19032,2023,6,8,13,59,4,309
1.43350,0.32795,-0.10150,0.00000,0.03209,0.97466,-0.18922,2023,6,8,13,59,4,320
1.43360,-0.07455,-0.01400,0.00000,0.03282,0.97563,-0.19117,2023,6,8,13,59,4,331
1.43370,0.13545,-0.15400,0.00000,0.03038,0.97734,-0.18922,2023,6,8,13,59,4,342
1.43380,-0.10955,0.02100,0.00000,0.03270,0.97429,-0.19105,2023,6,8,13,59,4,354
1.43390,0.03045,0.19600,0.00000,0.03257,0.97600,-0.19203,2023,6,8,13,59,4,365
1.43400,-0.03955,-0.01400,0.00000,0.03111,0.97771,-0.19020,2023,6,8,13,59,4,376
1.43410,0.10045,0.03850,0.00000,0.03135,0.97685,-0.19239,2023,6,8,13,59,4,387
1.43420,0.06545,-0.03150,0.00000,0.03294,0.97685,-0.19056,2023,6,8,13,59,4,398
1.43430,0.11795,-0.03150,0.00000,0.02977,0.97466,-0.18812,2023,6,8,13,59,4,409
1.43440,-0.17955,0.10850,0.00000,0.02843,0.97417,-0.19154,2023,6,8,13,59,4,420
1.43450,0.11795,0.03850,0.00000,0.02940,0.97515,-0.18983,2023,6,8,13,59,4,431
1.43460,-0.02205,0.09100,0.00000,0.03050,0.97661,-0.19020,2023,6,8,13,59,4,442
1.43470,0.08295,-0.01400,0.00000,0.03111,0.97734,-0.19069,2023,6,8,13,59,4,454
1.43480,0.22295,0.03850,0.00000,0.03172,0.97771,-0.18959,2023,6,8,13,59,4,465
1.43490,-0.03955,0.16100,0.00000,0.03160,0.97539,-0.18837,2023,6,8,13,59,4,476
1.43500,0.01295,-0.06650,0.00000,0.02989,0.97795,-0.19032,2023,6,8,13,59,4,487
1.43510,-0.09205,0.19600,0.00000,0.02830,0.97344,-0.18971,2023,6,8,13,59,4,498
1.43520,0.13545,-0.22400,0.00000,0.03001,0.97722,-0.18959,2023,6,8,13,59,4,509
1.43530,-0.05705,-0.17150,0.00000,0.03172,0.97600,-0.18776,2023,6,8,13,59,4,520
1.43540,0.03045,0.00350,0.00000,0.03013,0.97429,-0.18983,2023,6,8,13,59,4,531
1.43550,-0.12705,0.17850,0.00000,0.02830,0.97478,-0.18983,2023,6,8,13,59,4,542
1.43560,-0.00455,-0.03150,0.00000,0.02989,0.97600,-0.18849,2023,6,8,13,59,4,554
1.43570,0.11795,0.03850,0.00000,0.02843,0.97429,-0.19008,2023,6,8,13,59,4,565
1.43580,0.06545,-0.08400,0.00000,0.03184,0.97893,-0.18812,2023,6,8,13,59,4,576
1.43590,-0.00455,0.10850,0.00000,0.03099,0.97515,-0.18983,2023,6,8,13,59,4,587
1.43600,0.22295,-0.13650,0.00000,0.03074,0.97600,-0.18788,2023,6,8,13,59,4,598
1.43610,0.11795,-0.03150,0.00000,0.02940,0.97527,-0.18971,2023,6,8,13,59,4,609
1.43620,-0.03955,0.02100,0.00000,0.03013,0.97649,-0.18947,2023,6,8,13,59,4,620
1.43630,-0.00455,-0.10150,0.00000,0.03148,0.97405,-0.18922,2023,6,8,13,59,4,631
1.43640,0.01295,-0.27650,0.00000,0.03148,0.97393,-0.19032,2023,6,8,13,59,4,642
1.43650,0.01295,0.09100,0.00000,0.03062,0.97600,-0.18922,2023,6,8,13,59,4,654
1.43660,0.08295,0.05600,0.00000,0.03172,0.97454,-0.18898,2023,6,8,13,59,4,665
1.43670,-0.05705,-0.04900,0.00000,0.03062,0.97759,-0.18788,2023,6,8,13,59,4,676
1.43680,0.13545,0.12600,0.00000,0.02928,0.97295,-0.18764,2023,6,8,13,59,4,687
1.43690,0.04795,0.00350,0.00000,0.03135,0.97600,-0.18825,2023,6,8,13,59,4,698
1.43700,-0.00455,0.19600,0.00000,0.03001,0.97429,-0.18971,2023,6,8,13,59,4,709
1.43710,0.01295,-0.01400,0.00000,0.02879,0.97466,-0.18764,2023,6,8,13,59,4,720
1.43720,0.18795,-0.08400,0.00000,0.03050,0.97563,-0.18837,2023,6,8,13,59,4,731
1.43730,-0.03955,-0.06650,0.00000,0.03087,0.97673,-0.18861,2023,6,8,13,59,4,742
1.43740,0.13545,-0.10150,0.00000,0.02855,0.97710,-0.18751,2023,6,8,13,59,4,754
1.43750,0.15295,-0.06650,0.00000,0.03001,0.97698,-0.18861,2023,6,8,13,59,4,765
1.43760,0.01295,0.12600,0.00000,0.03196,0.97673,-0.18947,2023,6,8,13,59,4,776
1.43770,-0.14455,0.05600,0.00000,0.03001,0.97466,-0.19154,2023,6,8,13,59,4,787
1.43780,-0.05705,-0.15400,0.00000,0.03001,0.97368,-0.18886,2023,6,8,13,59,4,798
1.43790,0.04795,-0.08400,0.00000,0.03099,0.97685,-0.18873,2023,6,8,13,59,4,809
1.43800,0.11795,-0.13650,0.00000,0.03038,0.97588,-0.19288,2023,6,8,13,59,4,820
1.43810,-0.05705,-0.10150,0.00000,0.03026,0.97527,-0.19081,2023,6,8,13,59,4,831
1.43820,0.18795,0.02100,0.00000,0.02928,0.97588,-0.19020,2023,6,8,13,59,4,842
1.43830,-0.00455,-0.10150,0.00000,0.03123,0.97673,-0.18922,2023,6,8,13,59,4,854
1.43840,-0.21455,0.21350,0.00000,0.02928,0.97551,-0.19093,2023,6,8,13,59,4,865
1.43850,0.01295,0.02100,0.00000,0.03160,0.97502,-0.18825,2023,6,8,13,59,4,876
1.43860,-0.03955,-0.10150,0.00000,0.03209,0.97539,-0.18959,2023,6,8,13,59,4,887
1.43870,0.03045,-0.01400,0.00000,0.03233,0.97576,-0.18788,2023,6,8,13,59,4,898
1.43880,-0.10955,0.12600,0.00000,0.03233,0.97576,-0.18788,2023,6,8,13,59,4,909
1.43890,-0.09205,0.07350,0.00000,0.02916,0.97466,-0.18959,2023,6,8,13,59,4,920
1.43900,0.08295,-0.06650,0.00000,0.02989,0.97515,-0.18947,2023,6,8,13,59,4,931
1.43910,-0.05705,0.00350,0.00000,0.02891,0.97405,-0.19044,2023,6,8,13,59,4,942
1.43920,-0.05705,0.00350,0.00000,0.03074,0.97380,-0.19130,2023,6,8,13,59,4,954
1.43930,0.10045,-0.04900,0.00000,0.03062,0.97563,-0.19130,2023,6,8,13,59,4,965
1.43940,-0.19705,0.30100,0.00000,0.03087,0.97490,-0.18800,2023,6,8,13,59,4,976
1.43950,-0.07455,-0.01400,0.00000,0.03050,0.97173,-0.18861,2023,6,8,13,59,4,987
1.43960,0.01295,0.03850,0.00000,0.03001,0.97698,-0.18873,2023,6,8,13,59,4,998
1.43970,0.06545,0.03850,0.00000,0.03087,0.97258,-0.19105,2023,6,8,13,59,5,9
1.43980,-0.02205,-0.11900,0.00000,0.03111,0.97685,-0.18788,2023,6,8,13,59,5,20
1.43990,0.04795,0.02100,0.00000,0.03196,0.97563,-0.19117,2023,6,8,13,59,5,31
1.44000,0.11795,0.02100,0.00000,0.02916,0.97612,-0.19056,2023,6,8,13,59,5,42
1.44010,-0.00455,0.09100,0.00000,0.02916,0.97637,-0.19056,2023,6,8,13,59,5,54
1.44020,0.18795,0.02100,0.00000,0.03221,0.97441,-0.18995,2023,6,8,13,59,5,65
1.44030,-0.10955,0.14350,0.00000,0.03001,0.97527,-0.18873,2023,6,8,13,59,5,76
1.44040,-0.16205,0.19600,0.00000,0.03099,0.97441,-0.18886,2023,6,8,13,59,5,87
1.44050,-0.00455,-0.20650,0.00000,0.03050,0.97673,-0.19008,2023,6,8,13,59,5,98
1.44060,-0.10955,0.00350,0.00000,0.03148,0.97466,-0.18995,2023,6,8,13,59,5,109
1.44070,0.15295,-0.18900,0.00000,0.02782,0.97661,-0.18995,2023,6,8,13,59,5,120
1.44080,-0.12705,-0.17150,0.00000,0.03306,0.97527,-0.18947,2023,6,8,13,59,5,131
1.44090,0.01295,0.03850,0.00000,0.03123,0.97722,-0.18898,2023,6,8,13,59,5,142
1.44100,-0.00455,-0.10150,0.00000,0.03062,0.97588,-0.18995,2023,6,8,13,59,5,154
1.44110,-0.10955,0.10850,0.00000,0.02928,0.97441,-0.18727,2023,6,8,13,59,5,165
1.44120,-0.02205,-0.11900,0.00000,0.02977,0.97673,-0.18898,2023,6,8,13,59,5,176
1.44130,0.01295,0.10850,0.00000,0.03001,0.97478,-0.18800,2023,6,8,13,59,5,187
1.44140,0.03045,0.07350,0.00000,0.03111,0.97393,-0.18873,2023,6,8,13,59,5,198
1.44150,0.03045,0.03850,0.00000,0.03026,0.97380,-0.18800,2023,6,8,13,59,5,209
1.44160,-0.02205,0.14350,0.00000,0.03050,0.97515,-0.18886,2023,6,8,13,59,5,220
1.44170,-0.02205,-0.03150,0.00000,0.02916,0.97466,-0.18715,2023,6,8,13,59,5,231
1.44180,0.17045,-0.03150,0.00000,0.03038,0.97600,-0.19008,2023,6,8,13,59,5,242
1.44190,0.03045,0.03850,0.00000,0.03184,0.97527,-0.18959,2023,6,8,13,59,5,254
1.44200,-0.09205,0.10850,0.00000,0.03172,0.97734,-0.18947,2023,6,8,13,59,5,265
1.44210,-0.03955,-0.03150,0.00000,0.03111,0.97588,-0.19008,2023,6,8,13,59,5,276
1.44220,-0.09205,0.03850,0.00000,0.02952,0.97673,-0.18605,2023,6,8,13,59,5,287
1.44230,0.10045,0.00350,0.00000,0.02977,0.97380,-0.18690,2023,6,8,13,59,5,298
1.44240,0.08295,-0.01400,0.00000,0.03245,0.97624,-0.18959,2023,6,8,13,59,5,309
1.44250,-0.00455,-0.13650,0.00000,0.03026,0.97746,-0.18837,2023,6,8,13,59,5,320
1.44260,0.06545,-0.04900,0.00000,0.02965,0.97515,-0.18922,2023,6,8,13,59,5,331
1.44270,-0.00455,-0.08400,0.00000,0.02904,0.97710,-0.19117,2023,6,8,13,59,5,342
1.44280,0.08295,0.03850,0.00000,0.02867,0.97490,-0.19032,2023,6,8,13,59,5,354
1.44290,0.11795,-0.18900,0.00000,0.03233,0.97344,-0.18922,2023,6,8,13,59,5,365
1.44300,-0.09205,-0.10150,0.00000,0.02891,0.97673,-0.18812,2023,6,8,13,59,5,376
1.44310,0.15295,-0.04900,0.00000,0.03282,0.97502,-0.18800,2023,6,8,13,59,5,387
1.44320,-0.03955,0.03850,0.00000,0.03160,0.97600,-0.19117,2023,6,8,13,59,5,398
1.44330,-0.03955,-0.13650,0.00000,0.02928,0.97441,-0.19105,2023,6,8,13,59,5,409
1.44340,0.04795,0.00350,0.00000,0.03013,0.97368,-0.19166,2023,6,8,13,59,5,420
1.44350,-0.00455,0.07350,0.00000,0.02855,0.97576,-0.18934,2023,6,8,13,59,5,431
1.44360,0.11795,-0.03150,0.00000,0.03123,0.97551,-0.19056,2023,6,8,13,59,5,442
1.44370,0.01295,0.02100,0.00000,0.03099,0.97417,-0.19081,2023,6,8,13,59,5,454
1.44380,-0.05705,0.00350,0.00000,0.03123,0.97527,-0.19361,2023,6,8,13,59,5,465
1.44390,0.01295,-0.03150,0.00000,0.03209,0.97429,-0.18995,2023,6,8,13,59,5,476
1.44400,-0.03955,0.07350,0.00000,0.03135,0.97637,-0.18898,2023,6,8,13,59,5,487
1.44410,-0.05705,-0.06650,0.00000,0.02977,0.97637,-0.19056,2023,6,8,13,59,5,498
1.44420,-0.17955,0.03850,0.00000,0.03123,0.97307,-0.18971,2023,6,8,13,59,5,509
1.44430,-0.05705,0.02100,0.00000,0.03123,0.97478,-0.18934,2023,6,8,13,59,5,520
1.44440,-0.03955,0.17850,0.00000,0.03026,0.97649,-0.19239,2023,6,8,13,59,5,531
1.44450,-0.07455,0.05600,0.00000,0.02904,0.97161,-0.19081,2023,6,8,13,59,5,542
1.44460,0.18795,-0.08400,0.00000,0.03123,0.97807,-0.19056,2023,6,8,13,59,5,554
1.44470,-0.21455,0.02100,0.00000,0.02965,0.97661,-0.19105,2023,6,8,13,59,5,565
1.44480,-0.09205,-0.08400,0.00000,0.03184,0.97502,-0.19166,2023,6,8,13,59,5,576
1.44490,0.03045,-0.08400,0.00000,0.02757,0.97429,-0.18849,2023,6,8,13,59,5,587
1.44500,-0.02205,-0.15400,0.00000,0.02733,0.97551,-0.18800,2023,6,8,13,59,5,598
1.44510,-0.07455,0.07350,0.00000,0.03087,0.97380,-0.18825,2023,6,8,13,59,5,609
1.44520,-0.10955,-0.08400,0.00000,0.03074,0.97661,-0.18849,2023,6,8,13,59,5,620
1.44530,0.25795,-0.17150,0.00000,0.03074,0.97466,-0.19117,2023,6,8,13,59,5,631
1.44540,-0.23205,0.00350,0.00000,0.03196,0.97576,-0.19105,2023,6,8,13,59,5,642
1.44550,0.03045,-0.04900,0.00000,0.03123,0.97637,-0.19008,2023,6,8,13,59,5,654
1.44560,-0.03955,-0.01400,0.00000,0.03001,0.97673,-0.18849,2023,6,8,13,59,5,665
1.44570,0.04795,0.17850,0.00000,0.02904,0.97417,-0.19008,2023,6,8,13,59,5,676
1.44580,0.01295,0.24850,0.00000,0.02904,0.97612,-0.18898,2023,6,8,13,59,5,687
1.44590,-0.05705,-0.01400,0.00000,0.02952,0.97502,-0.19032,2023,6,8,13,59,5,698
1.44600,0.18795,-0.03150,0.00000,0.03245,0.97380,-0.18910,2023,6,8,13,59,5,709
1.44610,0.15295,-0.18900,0.00000,0.03001,0.97502,-0.18910,2023,6,8,13,59,5,720
1.44620,0.04795,-0.08400,0.00000,0.03245,0.97490,-0.18886,2023,6,8,13,59,5,731
1.44630,-0.05705,0.21350,0.00000,0.03013,0.97405,-0.18873,2023,6,8,13,59,5,742
1.44640,0.38045,0.16100,0.00000,0.03160,0.97612,-0.18983,2023,6,8,13,59,5,754
1.44650,0.06545,0.00350,0.00000,0.02904,0.97624,-0.18886,2023,6,8,13,59,5,765
1.44660,0.03045,-0.06650,0.00000,0.02916,0.97649,-0.18959,2023,6,8,13,59,5,776
1.44670,0.01295,-0.15400,0.00000,0.03196,0.97637,-0.18995,2023,6,8,13,59,5,787
1.44680,0.27545,0.05600,0.00000,0.03123,0.97966,-0.19008,2023,6,8,13,59,5,798
1.44690,0.04795,-0.06650,0.00000,0.02940,0.97490,-0.19069,2023,6,8,13,59,5,809
1.44700,0.03045,-0.24150,0.00000,0.03221,0.97490,-0.19178,2023,6,8,13,59,5,820
1.44710,0.06545,0.19600,0.00000,0.03135,0.97332,-0.18898,2023,6,8,13,59,5,831
1.44720,0.04795,-0.04900,0.00000,0.03013,0.97734,-0.19032,2023,6,8,13,59,5,842
1.44730,-0.00455,0.14350,0.00000,0.03001,0.97576,-0.18812,2023,6,8,13,59,5,854
1.44740,0.01295,-0.29400,0.00000,0.03148,0.97551,-0.18849,2023,6,8,13,59,5,865
1.44750,-0.00455,0.05600,0.00000,0.03160,0.97637,-0.19044,2023,6,8,13,59,5,876
1.44760,0.08295,-0.06650,0.00000,0.03172,0.97563,-0.18849,2023,6,8,13,59,5,887
1.44770,-0.16205,0.03850,0.00000,0.02904,0.97576,-0.18934,2023,6,8,13,59,5,898
1.44780,-0.00455,0.05600,0.00000,0.02952,0.97441,-0.18922,2023,6,8,13,59,5,909
1.44790,-0.07455,0.24850,0.00000,0.03123,0.97454,-0.18947,2023,6,8,13,59,5,920
1.44800,0.18795,-0.10150,0.00000,0.03026,0.97600,-0.18666,2023,6,8,13,59,5,931
1.44810,-0.10955,-0.06650,0.00000,0.03148,0.97710,-0.18922,2023,6,8,13,59,5,942
1.44820,-0.00455,-0.04900,0.00000,0.03111,0.97734,-0.18812,2023,6,8,13,59,5,954
1.44830,0.13545,-0.03150,0.00000,0.03099,0.97490,-0.18739,2023,6,8,13,59,5,965
1.44840,0.04795,-0.04900,0.00000,0.02843,0.97844,-0.18849,2023,6,8,13,59,5,976
1.44850,0.01295,-0.01400,0.00000,0.03221,0.97502,-0.18825,2023,6,8,13,59,5,987
1.44860,0.06545,-0.06650,0.00000,0.02916,0.97539,-0.18934,2023,6,8,13,59,6,8
1.44870,0.03045,-0.13650,0.00000,0.03111,0.97600,-0.18764,2023,6,8,13,59,6,19
1.44880,0.10045,-0.13650,0.00000,0.03050,0.97356,-0.18776,2023,6,8,13,59,6,30
1.44890,0.01295,0.03850,0.00000,0.03087,0.97515,-0.19008,2023,6,8,13,59,6,41
1.44900,0.06545,0.02100,0.00000,0.03087,0.97466,-0.18800,2023,6,8,13,59,6,52
1.44910,0.10045,-0.25900,0.00000,0.02940,0.97515,-0.18898,2023,6,8,13,59,6,64
1.44920,-0.02205,0.03850,0.00000,0.02952,0.97820,-0.18922,2023,6,8,13,59,6,75
1.44930,-0.07455,0.09100,0.00000,0.03087,0.97441,-0.18739,2023,6,8,13,59,6,86
1.44940,-0.02205,0.02100,0.00000,0.03148,0.97698,-0.18349,2023,6,8,13,59,6,97
1.44950,0.03045,0.03850,0.00000,0.03245,0.97722,-0.18898,2023,6,8,13,59,6,108
1.44960,0.17045,0.00350,0.00000,0.03026,0.97502,-0.18934,2023,6,8,13,59,6,119
1.44970,0.10045,-0.11900,0.00000,0.03062,0.97734,-0.18812,2023,6,8,13,59,6,130
1.44980,-0.00455,-0.01400,0.00000,0.03099,0.97612,-0.18812,2023,6,8,13,59,6,141
1.44990,-0.16205,-0.25900,0.00000,0.03123,0.97417,-0.18654,2023,6,8,13,59,6,152
1.45000,-0.00455,0.10850,0.00000,0.02916,0.97600,-0.18825,2023,6,8,13,59,6,164
1.45010,0.15295,-0.18900,0.00000,0.03013,0.97319,-0.18739,2023,6,8,13,59,6,175
1.45020,-0.16205,-0.06650,0.00000,0.03148,0.97502,-0.18959,2023,6,8,13,59,6,186
1.45030,0.17045,-0.31150,0.00000,0.03111,0.97649,-0.18898,2023,6,8,13,59,6,197
1.45040,0.08295,-0.10150,0.00000,0.02952,0.97210,-0.18703,2023,6,8,13,59,6,208
1.45050,0.10045,-0.11900,0.00000,0.02989,0.97490,-0.18873,2023,6,8,13,59,6,219
1.45060,-0.12705,0.09100,0.00000,0.02855,0.97612,-0.18788,2023,6,8,13,59,6,230
1.45070,0.11795,-0.01400,0.00000,0.03074,0.97539,-0.18800,2023,6,8,13,59,6,241
1.45080,0.10045,-0.08400,0.00000,0.02940,0.97466,-0.19142,2023,6,8,13,59,6,252
1.45090,-0.00455,0.24850,0.00000,0.03172,0.97685,-0.18959,2023,6,8,13,59,6,264
1.45100,0.10045,-0.18900,0.00000,0.03196,0.97441,-0.18629,2023,6,8,13,59,6,275
1.45110,0.08295,-0.08400,0.00000,0.02952,0.97661,-0.18959,2023,6,8,13,59,6,286
1.45120,0.04795,-0.24150,0.00000,0.03087,0.97210,-0.18837,2023,6,8,13,59,6,297
1.45130,-0.05705,-0.22400,0.00000,0.03233,0.97502,-0.19056,2023,6,8,13,59,6,308
1.45140,-0.07455,0.03850,0.00000,0.03148,0.97393,-0.18959,2023,6,8,13,59,6,319
1.45150,-0.09205,0.10850,0.00000,0.03062,0.97600,-0.18898,2023,6,8,13,59,6,330
1.45160,0.04795,0.09100,0.00000,0.03172,0.97441,-0.19142,2023,6,8,13,59,6,341
1.45170,0.08295,-0.20650,0.00000,0.03038,0.97673,-0.18934,2023,6,8,13,59,6,352
1.45180,-0.05705,-0.01400,0.00000,0.02977,0.97563,-0.18849,2023,6,8,13,59,6,364
1.45190,-0.02205,0.07350,0.00000,0.03111,0.97661,-0.18861,2023,6,8,13,59,6,375
1.45200,-0.02205,0.09100,0.00000,0.03123,0.97478,-0.18959,2023,6,8,13,59,6,386
1.45210,0.04795,0.07350,0.00000,0.03111,0.97710,-0.18764,2023,6,8,13,59,6,397
1.45220,-0.14455,0.14350,0.00000,0.03074,0.97746,-0.18873,2023,6,8,13,59,6,408
1.45230,0.06545,-0.04900,0.00000,0.03245,0.97576,-0.18825,2023,6,8,13,59,6,419
1.45240,-0.03955,0.19600,0.00000,0.03245,0.97746,-0.18886,2023,6,8,13,59,6,430
1.45250,0.03045,-0.08400,0.00000,0.02940,0.97649,-0.18849,2023,6,8,13,59,6,441
1.45260,0.08295,0.05600,0.00000,0.02879,0.97563,-0.18934,2023,6,8,13,59,6,452
1.45270,0.06545,0.03850,0.00000,0.02806,0.97649,-0.18934,2023,6,8,13,59,6,464
1.45280,-0.07455,-0.08400,0.00000,0.02904,0.97649,-0.18776,2023,6,8,13,59,6,475
1.45290,0.13545,-0.06650,0.00000,0.03123,0.97441,-0.19032,2023,6,8,13,59,6,486
1.45300,-0.00455,-0.06650,0.00000,0.03148,0.97710,-0.18788,2023,6,8,13,59,6,497
1.45310,0.10045,-0.06650,0.00000,0.03074,0.97624,-0.18861,2023,6,8,13,59,6,508
1.45320,-0.03955,0.07350,0.00000,0.03087,0.97649,-0.18934,2023,6,8,13,59,6,519
1.45330,0.10045,-0.03150,0.00000,0.03123,0.97539,-0.18886,2023,6,8,13,59,6,530
1.45340,0.08295,0.00350,0.00000,0.03111,0.97771,-0.18776,2023,6,8,13,59,6,541
1.45350,0.15295,0.00350,0.00000,0.03196,0.97710,-0.19032,2023,6,8,13,59,6,552
1.45360,-0.14455,0.05600,0.00000,0.03099,0.97307,-0.19056,2023,6,8,13,59,6,564
1.45370,-0.00455,-0.11900,0.00000,0.03001,0.97502,-0.18959,2023,6,8,13,59,6,575
1.45380,0.01295,-0.03150,0.00000,0.03160,0.97417,-0.18873,2023,6,8,13,59,6,586
1.45390,-0.09205,-0.04900,0.00000,0.03099,0.97685,-0.18873,2023,6,8,13,59,6,597
1.45400,-0.02205,-0.06650,0.00000,0.03160,0.97466,-0.18886,2023,6,8,13,59,6,608
1.45410,0.10045,0.02100,0.00000,0.03196,0.97539,-0.19032,2023,6,8,13,59,6,619
1.45420,-0.16205,0.00350,0.00000,0.03123,0.97637,-0.18959,2023,6,8,13,59,6,630
1.45430,-0.14455,-0.29400,0.00000,0.03038,0.97649,-0.18861,2023,6,8,13,59,6,641
1.45440,0.10045,0.00350,0.00000,0.03013,0.97441,-0.18861,2023,6,8,13,59,6,652
1.45450,-0.05705,-0.06650,0.00000,0.03062,0.97502,-0.19252,2023,6,8,13,59,6,664
1.45460,0.01295,0.07350,0.00000,0.02904,0.97478,-0.18751,2023,6,8,13,59,6,675
1.45470,-0.09205,-0.11900,0.00000,0.02855,0.97612,-0.18764,2023,6,8,13,59,6,686
1.45480,-0.00455,0.14350,0.00000,0.03172,0.97539,-0.18812,2023,6,8,13,59,6,697
1.45490,0.15295,0.09100,0.00000,0.02965,0.97576,-0.18800,2023,6,8,13,59,6,708
1.45500,0.10045,-0.18900,0.00000,0.02989,0.97393,-0.18995,2023,6,8,13,59,6,719
1.45510,0.03045,0.17850,0.00000,0.03221,0.97600,-0.18837,2023,6,8,13,59,6,730
1.45520,-0.00455,-0.11900,0.00000,0.03367,0.97576,-0.18739,2023,6,8,13,59,6,741
1.45530,0.08295,-0.17150,0.00000,0.02952,0.97661,-0.18947,2023,6,8,13,59,6,752
1.45540,0.01295,-0.04900,0.00000,0.03123,0.97356,-0.18788,2023,6,8,13,59,6,764
1.45550,-0.12705,0.09100,0.00000,0.03123,0.97576,-0.19069,2023,6,8,13,59,6,775
1.45560,0.13545,-0.11900,0.00000,0.03160,0.97576,-0.18947,2023,6,8,13,59,6,786
1.45570,-0.00455,0.00350,0.00000,0.03074,0.97539,-0.18947,2023,6,8,13,59,6,797
1.45580,0.18795,-0.10150,0.00000,0.02940,0.97441,-0.18690,2023,6,8,13,59,6,808
1.45590,0.01295,0.24850,0.00000,0.03184,0.97539,-0.18812,2023,6,8,13,59,6,819
1.45600,-0.02205,0.02100,0.00000,0.03233,0.97588,-0.18788,2023,6,8,13,59,6,830
1.45610,0.04795,-0.10150,0.00000,0.03001,0.97307,-0.18947,2023,6,8,13,59,6,841
1.45620,-0.05705,0.00350,0.00000,0.03148,0.97417,-0.18959,2023,6,8,13,59,6,852
1.45630,0.17045,0.02100,0.00000,0.03050,0.97551,-0.18825,2023,6,8,13,59,6,864
1.45640,-0.03955,-0.18900,0.00000,0.02952,0.97502,-0.18739,2023,6,8,13,59,6,875
1.45650,-0.03955,0.10850,0.00000,0.03062,0.97527,-0.18690,2023,6,8,13,59,6,886
1.45660,-0.03955,-0.22400,0.00000,0.02916,0.97746,-0.18886,2023,6,8,13,59,6,897
1.45670,-0.05705,-0.17150,0.00000,0.03184,0.97405,-0.18727,2023,6,8,13,59,6,908
1.45680,-0.14455,0.14350,0.00000,0.03001,0.97649,-0.18825,2023,6,8,13,59,6,919
