#2023/06/08 13:33:53
time,wx,wy,wz,ax,ay,az,yy,MM,dd,hh,mm,ss,ms
0.44590,0.11865,-0.08190,0.00000,0.03196,0.97783,-0.17592,0.0,2023,6,8,13,34,5,8
0.44600,-0.12635,-0.01190,0.00000,0.02879,0.97783,-0.17544,0.0,2023,6,8,13,34,13,9
0.44610,-0.09135,0.12810,0.00000,0.02977,0.97673,-0.17348,0.0,2023,6,8,13,34,15,0
0.44620,-0.17885,0.11060,0.00000,0.03172,0.97795,-0.17519,0.0,2023,6,8,13,34,20,1
0.44630,0.20615,-0.01190,0.00000,0.03026,0.97832,-0.17507,0.0,2023,6,8,13,34,21,2
0.44640,-0.10885,0.07560,0.00000,0.02867,0.97746,-0.17373,0.0,2023,6,8,13,34,21,13
0.44650,0.13615,0.19810,0.00000,0.03001,0.97734,-0.17483,0.0,2023,6,8,13,34,22,4
0.44660,0.03115,-0.09940,0.00000,0.03062,0.97868,-0.17409,0.0,2023,6,8,13,34,25,5
0.44670,-0.03885,-0.06440,0.00000,0.03087,0.97832,-0.17409,0.0,2023,6,8,13,34,27,6
0.44680,0.04865,-0.02940,0.00000,0.03221,0.97673,-0.17336,0.0,2023,6,8,13,34,27,18
0.44690,0.03115,0.00560,0.00000,0.03221,0.97905,-0.17409,0.0,2023,6,8,13,34,27,29
0.44700,-0.07385,0.00560,0.00000,0.02965,0.97783,-0.17483,0.0,2023,6,8,13,34,27,40
0.44710,0.10115,-0.18690,0.00000,0.03099,0.97746,-0.17251,0.0,2023,6,8,13,34,27,51
0.44720,-0.09135,0.09310,0.00000,0.02782,0.97942,-0.17422,0.0,2023,6,8,13,34,27,62
0.44730,-0.09135,0.21560,0.00000,0.03087,0.97783,-0.17312,0.0,2023,6,8,13,34,27,73
0.44740,0.08365,-0.02940,0.00000,0.03306,0.97624,-0.17568,0.0,2023,6,8,13,34,27,84
0.44750,0.18865,0.18060,0.00000,0.03184,0.97807,-0.17251,0.0,2023,6,8,13,34,27,95
0.44760,0.08365,0.21560,0.00000,0.03074,0.98064,-0.17324,0.0,2023,6,8,13,34,27,106
0.44770,0.01365,-0.15190,0.00000,0.03038,0.97685,-0.17336,0.0,2023,6,8,13,34,27,118
0.44780,-0.05635,0.14560,0.00000,0.02904,0.98051,-0.17373,0.0,2023,6,8,13,34,27,129
0.44790,0.06615,0.04060,0.00000,0.02782,0.97942,-0.17287,0.0,2023,6,8,13,34,27,140
0.44800,-0.03885,0.04060,0.00000,0.03123,0.97734,-0.17239,0.0,2023,6,8,13,34,27,151
0.44810,-0.09135,-0.11690,0.00000,0.03038,0.97661,-0.17434,0.0,2023,6,8,13,34,27,162
0.44820,-0.07385,0.05810,0.00000,0.02977,0.97942,-0.17300,0.0,2023,6,8,13,34,27,173
0.44830,-0.14385,0.02310,0.00000,0.02843,0.98064,-0.17104,0.0,2023,6,8,13,34,27,184
0.44840,-0.07385,-0.08190,0.00000,0.03135,0.97942,-0.17239,0.0,2023,6,8,13,34,27,195
0.44850,0.29365,-0.04690,0.00000,0.03209,0.97637,-0.17519,0.0,2023,6,8,13,34,27,206
0.44860,0.03115,0.14560,0.00000,0.03050,0.97698,-0.17507,0.0,2023,6,8,13,34,27,218
0.44870,-0.12635,0.12810,0.00000,0.03050,0.97844,-0.17226,0.0,2023,6,8,13,34,27,229
0.44880,-0.02135,-0.18690,0.00000,0.03160,0.97844,-0.17312,0.0,2023,6,8,13,34,27,240
0.44890,-0.14385,0.14560,0.00000,0.02940,0.97929,-0.17336,0.0,2023,6,8,13,34,27,251
0.44900,-0.03885,0.04060,0.00000,0.03062,0.97832,-0.17300,0.0,2023,6,8,13,34,27,262
0.44910,0.13615,0.09310,0.00000,0.03318,0.97856,-0.17422,0.0,2023,6,8,13,34,27,273
0.44920,-0.10885,0.02310,0.00000,0.03184,0.97807,-0.17226,0.0,2023,6,8,13,34,27,284
0.44930,-0.10885,0.00560,0.00000,0.03001,0.97905,-0.17202,0.0,2023,6,8,13,34,27,295
0.44940,0.01365,-0.06440,0.00000,0.03184,0.97868,-0.17336,0.0,2023,6,8,13,34,27,306
0.44950,-0.00385,-0.02940,0.00000,0.03233,0.97698,-0.17483,0.0,2023,6,8,13,34,27,318
0.44960,0.13615,-0.22190,0.00000,0.03172,0.98051,-0.17300,0.0,2023,6,8,13,34,27,329
0.44970,-0.16135,0.09310,0.00000,0.02928,0.97844,-0.17019,0.0,2023,6,8,13,34,27,340
0.44980,0.01365,-0.04690,0.00000,0.03135,0.97722,-0.17117,0.0,2023,6,8,13,34,27,351
0.44990,0.03115,-0.06440,0.00000,0.03026,0.97893,-0.17397,0.0,2023,6,8,13,34,27,362
0.45000,-0.19635,0.02310,0.00000,0.02904,0.97795,-0.17336,0.0,2023,6,8,13,34,27,373
0.45010,0.06615,-0.02940,0.00000,0.02830,0.97917,-0.17287,0.0,2023,6,8,13,34,27,384
0.45020,-0.07385,-0.16940,0.00000,0.03123,0.97820,-0.17348,0.0,2023,6,8,13,34,27,395
0.45030,0.15365,0.11060,0.00000,0.02989,0.97990,-0.17312,0.0,2023,6,8,13,34,27,406
0.45040,0.20615,-0.01190,0.00000,0.03257,0.97990,-0.17312,0.0,2023,6,8,13,34,27,418
0.45050,-0.00385,-0.06440,0.00000,0.03221,0.97637,-0.17324,0.0,2023,6,8,13,34,27,429
0.45060,-0.09135,-0.02940,0.00000,0.02904,0.97722,-0.17153,0.0,2023,6,8,13,34,27,440
0.45070,-0.14385,-0.09940,0.00000,0.03245,0.97868,-0.17312,0.0,2023,6,8,13,34,27,451
0.45080,-0.03885,0.21560,0.00000,0.02977,0.97685,-0.17336,0.0,2023,6,8,13,34,27,462
0.45090,0.13615,-0.04690,0.00000,0.03111,0.98015,-0.17287,0.0,2023,6,8,13,34,27,473
0.45100,0.01365,0.18060,0.00000,0.02989,0.97856,-0.17287,0.0,2023,6,8,13,34,27,484
0.45110,-0.02135,-0.08190,0.00000,0.03050,0.97685,-0.17226,0.0,2023,6,8,13,34,27,495
0.45120,-0.05635,-0.01190,0.00000,0.03038,0.97893,-0.17178,0.0,2023,6,8,13,34,27,506
0.45130,-0.17885,-0.02940,0.00000,0.02794,0.97820,-0.17190,0.0,2023,6,8,13,34,27,518
0.45140,-0.02135,0.04060,0.00000,0.02940,0.97710,-0.17470,0.0,2023,6,8,13,34,27,529
0.45150,-0.07385,0.14560,0.00000,0.03038,0.97905,-0.17178,0.0,2023,6,8,13,34,27,540
0.45160,-0.00385,0.28560,0.00000,0.03233,0.97942,-0.17397,0.0,2023,6,8,13,34,27,551
0.45170,0.03115,0.19810,0.00000,0.03160,0.97905,-0.17287,0.0,2023,6,8,13,34,27,562
0.45180,0.06615,0.11060,0.00000,0.03087,0.97722,-0.17446,0.0,2023,6,8,13,34,27,573
0.45190,0.06615,0.05810,0.00000,0.02928,0.97637,-0.17275,0.0,2023,6,8,13,34,27,584
0.45200,0.01365,0.00560,0.00000,0.03196,0.97893,-0.17226,0.0,2023,6,8,13,34,27,595
0.45210,-0.23135,0.05810,0.00000,0.02879,0.97893,-0.17129,0.0,2023,6,8,13,34,27,606
0.45220,0.08365,0.04060,0.00000,0.03050,0.97820,-0.17300,0.0,2023,6,8,13,34,27,618
0.45230,-0.07385,0.11060,0.00000,0.02952,0.97807,-0.17263,0.0,2023,6,8,13,34,27,629
0.45240,-0.12635,0.00560,0.00000,0.02904,0.97820,-0.17422,0.0,2023,6,8,13,34,27,640
0.45250,-0.00385,0.02310,0.00000,0.02965,0.97820,-0.17190,0.0,2023,6,8,13,34,27,651
0.45260,0.03115,0.02310,0.00000,0.03013,0.97856,-0.17263,0.0,2023,6,8,13,34,27,662
0.45270,-0.03885,-0.09940,0.00000,0.02891,0.97893,-0.17361,0.0,2023,6,8,13,34,27,673
0.45280,-0.00385,-0.15190,0.00000,0.02989,0.97820,-0.17373,0.0,2023,6,8,13,34,27,684
0.45290,-0.03885,0.12810,0.00000,0.03099,0.97929,-0.17336,0.0,2023,6,8,13,34,27,695
0.45300,-0.07385,-0.11690,0.00000,0.03318,0.97856,-0.17263,0.0,2023,6,8,13,34,27,706
0.45310,-0.05635,-0.15190,0.00000,0.03123,0.97881,-0.17348,0.0,2023,6,8,13,34,27,718
0.45320,-0.00385,-0.13440,0.00000,0.03001,0.97893,-0.17324,0.0,2023,6,8,13,34,27,729
0.45330,-0.16135,0.12810,0.00000,0.03111,0.97624,-0.17287,0.0,2023,6,8,13,34,27,740
0.45340,-0.14385,-0.01190,0.00000,0.02965,0.97783,-0.17385,0.0,2023,6,8,13,34,27,751
0.45350,0.20615,0.00560,0.00000,0.03013,0.97795,-0.17434,0.0,2023,6,8,13,34,27,762
0.45360,-0.10885,0.23310,0.00000,0.03099,0.97722,-0.17263,0.0,2023,6,8,13,34,27,773
0.45370,0.06615,0.14560,0.00000,0.03026,0.97881,-0.17409,0.0,2023,6,8,13,34,27,784
0.45380,-0.21385,0.26810,0.00000,0.03062,0.97795,-0.17336,0.0,2023,6,8,13,34,27,795
0.45390,0.01365,0.02310,0.00000,0.03282,0.97966,-0.17312,0.0,2023,6,8,13,34,27,806
0.45400,0.08365,0.09310,0.00000,0.03135,0.97515,-0.17434,0.0,2023,6,8,13,34,27,818
0.45410,0.06615,-0.06440,0.00000,0.02989,0.98088,-0.17373,0.0,2023,6,8,13,34,27,829
0.45420,0.03115,0.09310,0.00000,0.03099,0.97795,-0.17617,0.0,2023,6,8,13,34,27,840
0.45430,-0.07385,0.09310,0.00000,0.02965,0.97990,-0.17397,0.0,2023,6,8,13,34,27,851
0.45440,-0.05635,-0.09940,0.00000,0.03233,0.97856,-0.17422,0.0,2023,6,8,13,34,27,862
0.45450,-0.16135,0.19810,0.00000,0.03074,0.97710,-0.17202,0.0,2023,6,8,13,34,27,873
0.45460,-0.09135,0.04060,0.00000,0.03257,0.97698,-0.17141,0.0,2023,6,8,13,34,27,884
0.45470,0.06615,-0.27440,0.00000,0.03099,0.97844,-0.17178,0.0,2023,6,8,13,34,27,895
0.45480,-0.00385,0.02310,0.00000,0.02940,0.97746,-0.17287,0.0,2023,6,8,13,34,27,906
0.45490,-0.19635,0.05810,0.00000,0.03026,0.98088,-0.17361,0.0,2023,6,8,13,34,28,8
0.45500,0.20615,-0.29190,0.00000,0.02989,0.98039,-0.17409,0.0,2023,6,8,13,34,28,19
0.45510,0.10115,-0.04690,0.00000,0.02904,0.98015,-0.17324,0.0,2023,6,8,13,34,28,30
0.45520,0.04865,0.09310,0.00000,0.03184,0.97649,-0.17312,0.0,2023,6,8,13,34,28,41
0.45530,0.08365,0.04060,0.00000,0.02855,0.97783,-0.17470,0.0,2023,6,8,13,34,28,52
0.45540,-0.16135,0.02310,0.00000,0.03087,0.97807,-0.17446,0.0,2023,6,8,13,34,28,63
0.45550,-0.17885,-0.04690,0.00000,0.02940,0.97881,-0.17470,0.0,2023,6,8,13,34,28,74
0.45560,-0.16135,0.09310,0.00000,0.02928,0.97942,-0.17287,0.0,2023,6,8,13,34,28,85
0.45570,-0.14385,-0.01190,0.00000,0.03270,0.97551,-0.17605,0.0,2023,6,8,13,34,28,96
0.45580,0.03115,-0.09940,0.00000,0.02904,0.97783,-0.17605,0.0,2023,6,8,13,34,28,108
0.45590,0.08365,0.05810,0.00000,0.03087,0.97771,-0.17312,0.0,2023,6,8,13,34,28,119
0.45600,-0.10885,0.14560,0.00000,0.02965,0.97539,-0.17422,0.0,2023,6,8,13,34,28,130
0.45610,-0.09135,0.11060,0.00000,0.02977,0.97734,-0.17348,0.0,2023,6,8,13,34,28,141
0.45620,-0.14385,0.00560,0.00000,0.02965,0.97832,-0.17434,0.0,2023,6,8,13,34,28,152
0.45630,-0.00385,-0.15190,0.00000,0.03050,0.97966,-0.17409,0.0,2023,6,8,13,34,28,163
0.45640,-0.00385,0.04060,0.00000,0.03074,0.97746,-0.17385,0.0,2023,6,8,13,34,28,174
0.45650,-0.02135,0.19810,0.00000,0.02940,0.97844,-0.17300,0.0,2023,6,8,13,34,28,185
0.45660,0.06615,-0.09940,0.00000,0.03013,0.97954,-0.17544,0.0,2023,6,8,13,34,28,196
0.45670,0.13615,-0.18690,0.00000,0.02818,0.97893,-0.17556,0.0,2023,6,8,13,34,28,208
0.45680,0.27615,0.00560,0.00000,0.03087,0.98149,-0.17580,0.0,2023,6,8,13,34,28,219
0.45690,0.11865,0.07560,0.00000,0.03111,0.97795,-0.17605,0.0,2023,6,8,13,34,28,230
0.45700,0.03115,-0.16940,0.00000,0.03074,0.97771,-0.17385,0.0,2023,6,8,13,34,28,241
0.45710,-0.00385,0.07560,0.00000,0.02977,0.97783,-0.17226,0.0,2023,6,8,13,34,28,252
0.45720,-0.00385,-0.13440,0.00000,0.02928,0.97905,-0.17678,0.0,2023,6,8,13,34,28,263
0.45730,-0.03885,-0.27440,0.00000,0.02965,0.97832,-0.17361,0.0,2023,6,8,13,34,28,274
0.45740,-0.00385,0.00560,0.00000,0.03135,0.98003,-0.17519,0.0,2023,6,8,13,34,28,285
0.45750,-0.23135,0.16310,0.00000,0.03038,0.97844,-0.17495,0.0,2023,6,8,13,34,28,296
0.45760,-0.10885,-0.01190,0.00000,0.03087,0.97722,-0.17361,0.0,2023,6,8,13,34,28,308
0.45770,0.08365,-0.13440,0.00000,0.03257,0.97759,-0.17312,0.0,2023,6,8,13,34,28,319
0.45780,-0.21385,0.12810,0.00000,0.02940,0.97917,-0.17397,0.0,2023,6,8,13,34,28,330
0.45790,-0.14385,0.00560,0.00000,0.02806,0.97771,-0.17373,0.0,2023,6,8,13,34,28,341
0.45800,-0.02135,0.11060,0.00000,0.02843,0.97734,-0.17556,0.0,2023,6,8,13,34,28,352
0.45810,-0.12635,-0.08190,0.00000,0.03196,0.97929,-0.17629,0.0,2023,6,8,13,34,28,363
0.45820,0.04865,-0.11690,0.00000,0.03245,0.97942,-0.17397,0.0,2023,6,8,13,34,28,374
0.45830,0.03115,-0.16940,0.00000,0.02989,0.97771,-0.17397,0.0,2023,6,8,13,34,28,385
0.45840,0.11865,-0.13440,0.00000,0.03160,0.97807,-0.17495,0.0,2023,6,8,13,34,28,396
0.45850,-0.10885,0.09310,0.00000,0.03087,0.97722,-0.17458,0.0,2023,6,8,13,34,28,408
0.45860,0.17115,-0.22190,0.00000,0.03123,0.98027,-0.17397,0.0,2023,6,8,13,34,28,419
0.45870,0.06615,-0.13440,0.00000,0.03099,0.97685,-0.17507,0.0,2023,6,8,13,34,28,430
0.45880,0.10115,0.07560,0.00000,0.03184,0.97722,-0.17409,0.0,2023,6,8,13,34,28,441
0.45890,0.08365,-0.06440,0.00000,0.03160,0.97905,-0.17556,0.0,2023,6,8,13,34,28,452
0.45900,-0.07385,-0.04690,0.00000,0.02977,0.97856,-0.17556,0.0,2023,6,8,13,34,28,463
0.45910,0.04865,0.07560,0.00000,0.03038,0.97820,-0.17397,0.0,2023,6,8,13,34,28,474
0.45920,-0.02135,-0.04690,0.00000,0.03294,0.97710,-0.17495,0.0,2023,6,8,13,34,28,485
0.45930,-0.05635,0.04060,0.00000,0.03148,0.97783,-0.17507,0.0,2023,6,8,13,34,28,496
0.45940,-0.12635,0.02310,0.00000,0.03050,0.98100,-0.17263,0.0,2023,6,8,13,34,28,508
0.45950,-0.00385,0.04060,0.00000,0.03001,0.97868,-0.17336,0.0,2023,6,8,13,34,28,519
0.45960,0.25865,0.04060,0.00000,0.03184,0.97929,-0.17434,0.0,2023,6,8,13,34,28,530
0.45970,-0.03885,0.07560,0.00000,0.03087,0.97807,-0.17239,0.0,2023,6,8,13,34,28,541
0.45980,-0.09135,0.18060,0.00000,0.03001,0.97759,-0.17214,0.0,2023,6,8,13,34,28,552
0.45990,-0.30135,0.12810,0.00000,0.03087,0.97856,-0.17409,0.0,2023,6,8,13,34,28,563
0.46000,0.10115,-0.23940,0.00000,0.03123,0.97746,-0.17373,0.0,2023,6,8,13,34,28,574
0.46010,-0.00385,0.12810,0.00000,0.03087,0.98027,-0.17361,0.0,2023,6,8,13,34,28,585
0.46020,0.24115,-0.06440,0.00000,0.02855,0.97771,-0.17495,0.0,2023,6,8,13,34,28,596
0.46030,-0.19635,0.04060,0.00000,0.03160,0.97698,-0.17556,0.0,2023,6,8,13,34,28,608
0.46040,0.08365,-0.01190,0.00000,0.03160,0.97820,-0.17446,0.0,2023,6,8,13,34,28,619
0.46050,0.06615,-0.13440,0.00000,0.03001,0.97844,-0.17287,0.0,2023,6,8,13,34,28,630
0.46060,0.22365,0.19810,0.00000,0.03123,0.97929,-0.17409,0.0,2023,6,8,13,34,28,641
0.46070,-0.14385,-0.13440,0.00000,0.02879,0.97917,-0.17336,0.0,2023,6,8,13,34,28,652
0.46080,0.08365,-0.11690,0.00000,0.02733,0.98015,-0.17275,0.0,2023,6,8,13,34,28,663
0.46090,0.01365,-0.09940,0.00000,0.02696,0.97929,-0.17275,0.0,2023,6,8,13,34,28,674
0.46100,-0.07385,0.04060,0.00000,0.03087,0.97832,-0.17336,0.0,2023,6,8,13,34,28,685
0.46110,0.13615,-0.09940,0.00000,0.03099,0.97954,-0.17214,0.0,2023,6,8,13,34,28,696
0.46120,-0.10885,0.18060,0.00000,0.03111,0.97820,-0.17629,0.0,2023,6,8,13,34,28,708
0.46130,0.01365,0.14560,0.00000,0.03160,0.97722,-0.17422,0.0,2023,6,8,13,34,28,719
0.46140,0.15365,-0.13440,0.00000,0.02940,0.97807,-0.17300,0.0,2023,6,8,13,34,28,730
0.46150,-0.21385,0.16310,0.00000,0.03013,0.98051,-0.17251,0.0,2023,6,8,13,34,28,741
0.46160,-0.02135,0.04060,0.00000,0.03050,0.97710,-0.17361,0.0,2023,6,8,13,34,28,752
0.46170,-0.02135,-0.18690,0.00000,0.02904,0.97832,-0.17275,0.0,2023,6,8,13,34,28,763
0.46180,0.22365,-0.06440,0.00000,0.03160,0.97856,-0.17336,0.0,2023,6,8,13,34,28,774
0.46190,0.11865,-0.04690,0.00000,0.03026,0.97649,-0.17251,0.0,2023,6,8,13,34,28,785
0.46200,0.13615,0.00560,0.00000,0.03026,0.97844,-0.17422,0.0,2023,6,8,13,34,28,796
0.46210,0.04865,0.04060,0.00000,0.02952,0.97844,-0.17385,0.0,2023,6,8,13,34,28,808
0.46220,0.06615,0.11060,0.00000,0.03172,0.97783,-0.17470,0.0,2023,6,8,13,34,28,819
0.46230,-0.10885,0.07560,0.00000,0.03001,0.97881,-0.17397,0.0,2023,6,8,13,34,28,830
0.46240,-0.09135,0.28560,0.00000,0.03013,0.97881,-0.17385,0.0,2023,6,8,13,34,28,841
0.46250,-0.31885,0.23310,0.00000,0.03221,0.97905,-0.17300,0.0,2023,6,8,13,34,28,852
0.46260,0.06615,0.04060,0.00000,0.03087,0.97661,-0.17458,0.0,2023,6,8,13,34,28,863
0.46270,0.03115,-0.09940,0.00000,0.03123,0.97844,-0.17214,0.0,2023,6,8,13,34,28,874
0.46280,0.03115,0.19810,0.00000,0.03001,0.97966,-0.17507,0.0,2023,6,8,13,34,28,885
0.46290,-0.07385,0.04060,0.00000,0.03172,0.98064,-0.17397,0.0,2023,6,8,13,34,28,896
0.46300,-0.10885,0.12810,0.00000,0.03026,0.97746,-0.17470,0.0,2023,6,8,13,34,28,908
0.46310,-0.17885,0.09310,0.00000,0.03148,0.97942,-0.17214,0.0,2023,6,8,13,34,28,919
0.46320,0.01365,0.23310,0.00000,0.02965,0.97856,-0.17556,0.0,2023,6,8,13,34,28,930
0.46330,-0.16135,0.18060,0.00000,0.02977,0.97783,-0.17190,0.0,2023,6,8,13,34,28,941
0.46340,-0.00385,0.25060,0.00000,0.03099,0.97795,-0.17287,0.0,2023,6,8,13,34,28,952
0.46350,-0.12635,0.25060,0.00000,0.03013,0.97771,-0.17031,0.0,2023,6,8,13,34,28,963
0.46360,0.08365,0.04060,0.00000,0.03013,0.97893,-0.17312,0.0,2023,6,8,13,34,28,974
0.46370,-0.17885,-0.02940,0.00000,0.02830,0.97588,-0.17312,0.0,2023,6,8,13,34,28,985
0.46380,-0.05635,0.05810,0.00000,0.03221,0.97820,-0.17300,0.0,2023,6,8,13,34,28,996
0.46390,0.01365,-0.04690,0.00000,0.03074,0.97820,-0.17397,0.0,2023,6,8,13,34,28,8
0.46400,0.08365,-0.02940,0.00000,0.03172,0.97734,-0.17361,0.0,2023,6,8,13,34,28,19
0.46410,0.06615,0.21560,0.00000,0.03062,0.97698,-0.17397,0.0,2023,6,8,13,34,28,30
0.46420,0.01365,0.04060,0.00000,0.02965,0.97832,-0.17470,0.0,2023,6,8,13,34,28,41
0.46430,-0.05635,-0.01190,0.00000,0.03160,0.97820,-0.17190,0.0,2023,6,8,13,34,28,52
0.46440,0.03115,0.11060,0.00000,0.03013,0.97795,-0.17287,0.0,2023,6,8,13,34,28,63
0.46450,0.29365,-0.22190,0.00000,0.02891,0.97868,-0.17324,0.0,2023,6,8,13,34,28,74
0.46460,-0.10885,0.07560,0.00000,0.02989,0.97722,-0.17397,0.0,2023,6,8,13,34,28,85
0.46470,0.11865,-0.04690,0.00000,0.03038,0.97685,-0.17263,0.0,2023,6,8,13,34,28,96
0.46480,-0.14385,-0.06440,0.00000,0.02977,0.97795,-0.17507,0.0,2023,6,8,13,34,28,108
0.46490,0.08365,0.05810,0.00000,0.02928,0.97929,-0.17287,0.0,2023,6,8,13,34,28,119
0.46500,0.11865,0.05810,0.00000,0.03135,0.97551,-0.17458,0.0,2023,6,8,13,34,28,130
0.46510,-0.05635,0.12810,0.00000,0.03184,0.97783,-0.17275,0.0,2023,6,8,13,34,28,141
0.46520,-0.19635,0.12810,0.00000,0.03062,0.97807,-0.17202,0.0,2023,6,8,13,34,28,152
0.46530,-0.16135,0.23310,0.00000,0.02952,0.98003,-0.17275,0.0,2023,6,8,13,34,28,163
0.46540,-0.10885,-0.01190,0.00000,0.03209,0.97649,-0.17336,0.0,2023,6,8,13,34,28,174
0.46550,0.13615,0.05810,0.00000,0.03099,0.97759,-0.17190,0.0,2023,6,8,13,34,28,185
0.46560,-0.09135,0.05810,0.00000,0.03074,0.97868,-0.17324,0.0,2023,6,8,13,34,28,196
0.46570,0.13615,-0.09940,0.00000,0.03050,0.98015,-0.17348,0.0,2023,6,8,13,34,28,208
0.46580,-0.09135,-0.09940,0.00000,0.03196,0.97637,-0.17324,0.0,2023,6,8,13,34,28,219
0.46590,-0.03885,-0.02940,0.00000,0.02989,0.97795,-0.17214,0.0,2023,6,8,13,34,28,230
0.46600,0.03115,0.02310,0.00000,0.02782,0.97966,-0.17300,0.0,2023,6,8,13,34,28,241
0.46610,-0.10885,-0.04690,0.00000,0.03123,0.97844,-0.17300,0.0,2023,6,8,13,34,28,252
0.46620,-0.09135,0.09310,0.00000,0.02916,0.97905,-0.17568,0.0,2023,6,8,13,34,28,263
0.46630,-0.05635,0.02310,0.00000,0.03184,0.97942,-0.17531,0.0,2023,6,8,13,34,28,274
0.46640,-0.03885,0.07560,0.00000,0.02855,0.97820,-0.17202,0.0,2023,6,8,13,34,28,285
0.46650,0.08365,0.11060,0.00000,0.02977,0.97734,-0.17324,0.0,2023,6,8,13,34,28,296
0.46660,-0.14385,0.05810,0.00000,0.03111,0.98149,-0.17434,0.0,2023,6,8,13,34,28,308
0.46670,0.03115,-0.15190,0.00000,0.02891,0.97820,-0.17165,0.0,2023,6,8,13,34,28,319
0.46680,-0.00385,0.12810,0.00000,0.02782,0.97795,-0.17373,0.0,2023,6,8,13,34,28,330
0.46690,-0.12635,0.14560,0.00000,0.02989,0.97478,-0.17434,0.0,2023,6,8,13,34,28,341
0.46700,-0.03885,0.09310,0.00000,0.03026,0.98003,-0.17556,0.0,2023,6,8,13,34,28,352
0.46710,-0.23135,-0.04690,0.00000,0.03135,0.97820,-0.17641,0.0,2023,6,8,13,34,28,363
0.46720,0.10115,-0.11690,0.00000,0.02867,0.97966,-0.17519,0.0,2023,6,8,13,34,28,374
0.46730,0.01365,0.07560,0.00000,0.03050,0.97759,-0.17263,0.0,2023,6,8,13,34,28,385
0.46740,0.10115,-0.04690,0.00000,0.03050,0.97795,-0.17409,0.0,2023,6,8,13,34,28,396
0.46750,0.17115,-0.02940,0.00000,0.03099,0.98015,-0.17300,0.0,2023,6,8,13,34,28,408
0.46760,-0.26635,0.18060,0.00000,0.03050,0.97966,-0.17568,0.0,2023,6,8,13,34,28,419
0.46770,0.04865,0.05810,0.00000,0.03306,0.97685,-0.17409,0.0,2023,6,8,13,34,28,430
0.46780,0.06615,-0.11690,0.00000,0.02794,0.97698,-0.17629,0.0,2023,6,8,13,34,28,441
0.46790,0.03115,-0.20440,0.00000,0.02891,0.97820,-0.17239,0.0,2023,6,8,13,34,28,452
0.46800,-0.10885,0.04060,0.00000,0.02989,0.97771,-0.17275,0.0,2023,6,8,13,34,28,463
0.46810,-0.05635,-0.01190,0.00000,0.03196,0.97771,-0.17434,0.0,2023,6,8,13,34,28,474
0.46820,-0.03885,0.32060,0.00000,0.03148,0.98064,-0.17361,0.0,2023,6,8,13,34,28,485
0.46830,-0.23135,0.07560,0.00000,0.03013,0.97771,-0.17385,0.0,2023,6,8,13,34,28,496
0.46840,0.06615,-0.01190,0.00000,0.02952,0.97698,-0.17275,0.0,2023,6,8,13,34,28,508
0.46850,0.13615,0.02310,0.00000,0.02891,0.97624,-0.17385,0.0,2023,6,8,13,34,28,519
0.46860,-0.02135,0.07560,0.00000,0.02977,0.97893,-0.17373,0.0,2023,6,8,13,34,28,530
0.46870,0.01365,0.02310,0.00000,0.02843,0.97673,-0.17239,0.0,2023,6,8,13,34,28,541
0.46880,0.17115,-0.04690,0.00000,0.03123,0.97759,-0.17300,0.0,2023,6,8,13,34,28,552
0.46890,0.10115,-0.09940,0.00000,0.02952,0.97868,-0.17422,0.0,2023,6,8,13,34,28,563
0.46900,-0.07385,0.04060,0.00000,0.02843,0.97917,-0.17361,0.0,2023,6,8,13,34,28,574
0.46910,-0.19635,-0.02940,0.00000,0.03099,0.97759,-0.17226,0.0,2023,6,8,13,34,28,585
0.46920,0.08365,-0.04690,0.00000,0.03062,0.98076,-0.17275,0.0,2023,6,8,13,34,28,596
0.46930,-0.21385,0.09310,0.00000,0.03135,0.97661,-0.17556,0.0,2023,6,8,13,34,28,608
0.46940,0.01365,-0.06440,0.00000,0.03184,0.97698,-0.17470,0.0,2023,6,8,13,34,28,619
0.46950,-0.03885,0.04060,0.00000,0.02794,0.97685,-0.17507,0.0,2023,6,8,13,34,28,630
0.46960,-0.03885,0.14560,0.00000,0.03013,0.97771,-0.17324,0.0,2023,6,8,13,34,28,641
0.46970,0.04865,0.02310,0.00000,0.02818,0.97868,-0.17275,0.0,2023,6,8,13,34,28,652
0.46980,-0.00385,0.02310,0.00000,0.02989,0.97600,-0.17519,0.0,2023,6,8,13,34,28,663
0.46990,-0.14385,0.00560,0.00000,0.03123,0.97710,-0.17446,0.0,2023,6,8,13,34,28,674
0.47000,0.10115,-0.22190,0.00000,0.03123,0.97783,-0.17397,0.0,2023,6,8,13,34,28,685
0.47010,0.11865,0.07560,0.00000,0.03062,0.97795,-0.17361,0.0,2023,6,8,13,34,28,696
0.47020,0.04865,-0.02940,0.00000,0.02965,0.97893,-0.17434,0.0,2023,6,8,13,34,28,708
0.47030,-0.19635,-0.08190,0.00000,0.02940,0.97856,-0.17507,0.0,2023,6,8,13,34,28,719
0.47040,-0.30135,-0.01190,0.00000,0.03123,0.97685,-0.17239,0.0,2023,6,8,13,34,28,730
0.47050,-0.07385,0.04060,0.00000,0.02916,0.97649,-0.17434,0.0,2023,6,8,13,34,28,741
0.47060,-0.00385,-0.18690,0.00000,0.03196,0.97942,-0.17470,0.0,2023,6,8,13,34,28,752
0.47070,0.08365,0.12810,0.00000,0.03026,0.97771,-0.17263,0.0,2023,6,8,13,34,28,763
0.47080,0.18865,0.02310,0.00000,0.02843,0.97746,-0.17544,0.0,2023,6,8,13,34,28,774
0.47090,-0.09135,-0.06440,0.00000,0.03050,0.97856,-0.17251,0.0,2023,6,8,13,34,28,785
0.47100,-0.05635,-0.01190,0.00000,0.02977,0.97832,-0.17275,0.0,2023,6,8,13,34,28,796
0.47110,-0.12635,-0.01190,0.00000,0.03135,0.97746,-0.17507,0.0,2023,6,8,13,34,28,808
0.47120,0.10115,-0.11690,0.00000,0.03209,0.97673,-0.17373,0.0,2023,6,8,13,34,28,819
0.47130,0.13615,-0.01190,0.00000,0.03184,0.98064,-0.17239,0.0,2023,6,8,13,34,28,830
0.47140,-0.03885,-0.20440,0.00000,0.02952,0.97685,-0.17312,0.0,2023,6,8,13,34,28,841
0.47150,-0.03885,-0.11690,0.00000,0.03184,0.97710,-0.17409,0.0,2023,6,8,13,34,28,852
0.47160,0.10115,0.07560,0.00000,0.03099,0.97820,-0.17324,0.0,2023,6,8,13,34,28,863
0.47170,-0.05635,0.00560,0.00000,0.03160,0.97893,-0.17409,0.0,2023,6,8,13,34,28,874
0.47180,0.17115,0.02310,0.00000,0.02989,0.97978,-0.17348,0.0,2023,6,8,13,34,28,885
0.47190,0.04865,-0.15190,0.00000,0.02916,0.97649,-0.17434,0.0,2023,6,8,13,34,28,896
0.47200,-0.02135,0.04060,0.00000,0.03062,0.97807,-0.17300,0.0,2023,6,8,13,34,28,908
0.47210,0.08365,0.04060,0.00000,0.02965,0.97807,-0.17507,0.0,2023,6,8,13,34,28,919
0.47220,0.01365,-0.15190,0.00000,0.03148,0.97893,-0.17202,0.0,2023,6,8,13,34,28,930
0.47230,-0.05635,-0.01190,0.00000,0.03111,0.97527,-0.17617,0.0,2023,6,8,13,34,28,941
0.47240,-0.09135,-0.13440,0.00000,0.03074,0.97722,-0.17153,0.0,2023,6,8,13,34,28,952
0.47250,-0.16135,0.00560,0.00000,0.02904,0.97783,-0.17361,0.0,2023,6,8,13,34,28,963
0.47260,-0.09135,-0.02940,0.00000,0.02940,0.97978,-0.17458,0.0,2023,6,8,13,34,28,974
0.47270,-0.00385,0.07560,0.00000,0.02916,0.97807,-0.17458,0.0,2023,6,8,13,34,28,985
0.47280,-0.02135,0.19810,0.00000,0.02952,0.97990,-0.17702,0.0,2023,6,8,13,34,28,996
0.47290,-0.02135,0.05810,0.00000,0.02952,0.97917,-0.17226,0.0,2023,6,8,13,34,28,8
0.47300,0.03115,0.19810,0.00000,0.03221,0.97746,-0.17641,0.0,2023,6,8,13,34,28,19
0.47310,-0.05635,0.11060,0.00000,0.02940,0.97673,-0.17324,0.0,2023,6,8,13,34,28,30
0.47320,0.08365,0.11060,0.00000,0.02904,0.97795,-0.17239,0.0,2023,6,8,13,34,28,41
0.47330,-0.12635,-0.15190,0.00000,0.02916,0.97698,-0.17458,0.0,2023,6,8,13,34,28,52
0.47340,-0.07385,0.18060,0.00000,0.03087,0.97893,-0.17422,0.0,2023,6,8,13,34,28,63
0.47350,-0.17885,-0.08190,0.00000,0.03160,0.97795,-0.17348,0.0,2023,6,8,13,34,28,74
0.47360,-0.05635,-0.04690,0.00000,0.03123,0.97759,-0.17580,0.0,2023,6,8,13,34,28,85
0.47370,0.10115,-0.09940,0.00000,0.02818,0.97820,-0.17385,0.0,2023,6,8,13,34,28,96
0.47380,-0.02135,0.02310,0.00000,0.03135,0.97807,-0.17458,0.0,2023,6,8,13,34,28,108
0.47390,-0.14385,-0.20440,0.00000,0.03184,0.97990,-0.17483,0.0,2023,6,8,13,34,28,119
0.47400,0.06615,0.04060,0.00000,0.03135,0.97746,-0.17348,0.0,2023,6,8,13,34,28,130
0.47410,0.08365,-0.06440,0.00000,0.03026,0.97966,-0.17470,0.0,2023,6,8,13,34,28,141
0.47420,0.03115,0.19810,0.00000,0.03160,0.97661,-0.17409,0.0,2023,6,8,13,34,28,152
0.47430,0.06615,-0.11690,0.00000,0.03221,0.97905,-0.17446,0.0,2023,6,8,13,34,28,163
0.47440,-0.16135,0.11060,0.00000,0.03160,0.97783,-0.17165,0.0,2023,6,8,13,34,28,174
0.54640,-0.05635,-0.08190,0.00000,0.02977,0.97759,-0.17275,0.0,2023,6,8,13,34,28,185
0.54650,-0.07385,-0.09940,0.00000,0.03196,0.97783,-0.17275,0.0,2023,6,8,13,34,28,196
0.54660,-0.17885,0.00560,0.00000,0.02916,0.97856,-0.17324,0.0,2023,6,8,13,34,28,208
0.54670,-0.03885,0.16310,0.00000,0.03026,0.97649,-0.17458,0.0,2023,6,8,13,34,28,219
0.54680,-0.07385,0.16310,0.00000,0.02904,0.97917,-0.17190,0.0,2023,6,8,13,34,28,230
0.54690,-0.19635,0.12810,0.00000,0.03209,0.97893,-0.17129,0.0,2023,6,8,13,34,28,241
0.54700,0.08365,0.19810,0.00000,0.03074,0.97856,-0.17507,0.0,2023,6,8,13,34,28,252
0.54710,-0.14385,0.09310,0.00000,0.03331,0.97734,-0.17409,0.0,2023,6,8,13,34,28,263
0.54720,0.03115,-0.04690,0.00000,0.03135,0.97759,-0.17434,0.0,2023,6,8,13,34,28,274
0.54730,0.10115,-0.20440,0.00000,0.03148,0.97722,-0.17300,0.0,2023,6,8,13,34,28,285
0.54740,-0.05635,-0.04690,0.00000,0.02830,0.97588,-0.17409,0.0,2023,6,8,13,34,28,296
0.54750,0.01365,0.05810,0.00000,0.03013,0.97551,-0.17483,0.0,2023,6,8,13,34,28,308
0.54760,0.10115,0.04060,0.00000,0.03050,0.97685,-0.17385,0.0,2023,6,8,13,34,28,319
0.54770,-0.03885,0.25060,0.00000,0.03160,0.97807,-0.17397,0.0,2023,6,8,13,34,28,330
0.54780,0.06615,-0.04690,0.00000,0.03038,0.97722,-0.17409,0.0,2023,6,8,13,34,28,341
0.54790,0.20615,-0.08190,0.00000,0.02818,0.97746,-0.17239,0.0,2023,6,8,13,34,28,352
0.54800,-0.00385,0.14560,0.00000,0.03099,0.97624,-0.17190,0.0,2023,6,8,13,34,28,363
0.54810,-0.00385,-0.01190,0.00000,0.03221,0.97856,-0.17092,0.0,2023,6,8,13,34,28,374
0.54820,0.01365,0.25060,0.00000,0.02891,0.97844,-0.17775,0.0,2023,6,8,13,34,28,385
0.54830,-0.10885,-0.11690,0.00000,0.03026,0.97698,-0.17458,0.0,2023,6,8,13,34,28,396
0.54840,-0.12635,-0.08190,0.00000,0.03148,0.97856,-0.17434,0.0,2023,6,8,13,34,28,408
0.54850,-0.14385,0.30310,0.00000,0.03013,0.97759,-0.17348,0.0,2023,6,8,13,34,28,419
0.54860,-0.19635,0.00560,0.00000,0.03245,0.97746,-0.17409,0.0,2023,6,8,13,34,28,430
0.54870,-0.12635,0.07560,0.00000,0.02891,0.97868,-0.17556,0.0,2023,6,8,13,34,28,441
0.54880,0.03115,0.16310,0.00000,0.02843,0.97746,-0.17373,0.0,2023,6,8,13,34,28,452
0.54890,-0.21385,-0.04690,0.00000,0.03001,0.97966,-0.17373,0.0,2023,6,8,13,34,28,463
0.54900,-0.07385,0.00560,0.00000,0.03038,0.97942,-0.17446,0.0,2023,6,8,13,34,28,474
0.54910,0.08365,-0.02940,0.00000,0.02916,0.97966,-0.17336,0.0,2023,6,8,13,34,28,485
0.54920,-0.09135,0.07560,0.00000,0.03172,0.97771,-0.17226,0.0,2023,6,8,13,34,28,496
0.54930,-0.07385,-0.08190,0.00000,0.02977,0.97966,-0.17324,0.0,2023,6,8,13,34,28,508
0.54940,0.06615,-0.04690,0.00000,0.03184,0.97783,-0.17434,0.0,2023,6,8,13,34,28,519
0.54950,-0.02135,-0.04690,0.00000,0.03013,0.97795,-0.17385,0.0,2023,6,8,13,34,28,530
0.54960,-0.14385,0.00560,0.00000,0.03001,0.97795,-0.17287,0.0,2023,6,8,13,34,28,541
0.54970,-0.05635,0.21560,0.00000,0.03038,0.97722,-0.17361,0.0,2023,6,8,13,34,28,552
0.54980,-0.07385,-0.13440,0.00000,0.03245,0.97966,-0.17153,0.0,2023,6,8,13,34,28,563
0.54990,-0.02135,-0.20440,0.00000,0.02830,0.97783,-0.17287,0.0,2023,6,8,13,34,28,574
0.55000,-0.03885,-0.15190,0.00000,0.03221,0.97771,-0.17409,0.0,2023,6,8,13,34,28,585
0.55010,-0.10885,-0.11690,0.00000,0.02977,0.98015,-0.17373,0.0,2023,6,8,13,34,28,596
0.55020,0.03115,0.00560,0.00000,0.03209,0.98003,-0.17800,0.0,2023,6,8,13,34,28,608
0.55030,-0.07385,0.16310,0.00000,0.03196,0.97844,-0.17312,0.0,2023,6,8,13,34,28,619
0.55040,-0.17885,0.28560,0.00000,0.03038,0.98015,-0.17104,0.0,2023,6,8,13,34,28,630
0.55050,0.04865,-0.18690,0.00000,0.03148,0.97820,-0.17226,0.0,2023,6,8,13,34,28,641
0.55060,-0.00385,-0.02940,0.00000,0.03038,0.97624,-0.17312,0.0,2023,6,8,13,34,28,652
0.55070,-0.09135,0.25060,0.00000,0.03148,0.97734,-0.17348,0.0,2023,6,8,13,34,28,663
0.55080,0.01365,-0.01190,0.00000,0.03074,0.97868,-0.17239,0.0,2023,6,8,13,34,28,674
0.55090,-0.00385,-0.01190,0.00000,0.03026,0.97600,-0.17324,0.0,2023,6,8,13,34,28,685
0.55100,0.10115,-0.18690,0.00000,0.03074,0.98015,-0.17239,0.0,2023,6,8,13,34,28,696
0.55110,0.10115,0.00560,0.00000,0.02965,0.97820,-0.17239,0.0,2023,6,8,13,34,28,708
0.55120,0.03115,-0.04690,0.00000,0.03099,0.97942,-0.17446,0.0,2023,6,8,13,34,28,719
0.55130,-0.00385,-0.02940,0.00000,0.03062,0.97990,-0.17251,0.0,2023,6,8,13,34,28,730
0.55140,0.13615,-0.01190,0.00000,0.03135,0.97661,-0.17336,0.0,2023,6,8,13,34,28,741
0.55150,-0.17885,0.12810,0.00000,0.03074,0.97551,-0.17312,0.0,2023,6,8,13,34,28,752
0.55160,-0.02135,0.19810,0.00000,0.02904,0.97783,-0.17324,0.0,2023,6,8,13,34,28,763
0.55170,0.03115,0.04060,0.00000,0.03160,0.98100,-0.17251,0.0,2023,6,8,13,34,28,774
0.55180,-0.03885,-0.20440,0.00000,0.03074,0.97759,-0.17422,0.0,2023,6,8,13,34,28,785
0.55190,0.15365,0.02310,0.00000,0.02989,0.97771,-0.17373,0.0,2023,6,8,13,34,28,796
0.55200,-0.02135,-0.02940,0.00000,0.02794,0.97844,-0.17226,0.0,2023,6,8,13,34,28,808
0.55210,0.11865,-0.01190,0.00000,0.03148,0.97820,-0.17470,0.0,2023,6,8,13,34,28,819
0.55220,-0.12635,0.05810,0.00000,0.03026,0.97929,-0.17385,0.0,2023,6,8,13,34,28,830
0.55230,-0.03885,-0.06440,0.00000,0.03038,0.97942,-0.17263,0.0,2023,6,8,13,34,28,841
0.55240,-0.10885,-0.02940,0.00000,0.02904,0.97868,-0.17507,0.0,2023,6,8,13,34,28,852
0.55250,0.03115,0.04060,0.00000,0.03270,0.97832,-0.17117,0.0,2023,6,8,13,34,28,863
0.55260,-0.19635,0.19810,0.00000,0.03148,0.97820,-0.17068,0.0,2023,6,8,13,34,28,874
0.55270,0.08365,0.00560,0.00000,0.02916,0.97905,-0.17397,0.0,2023,6,8,13,34,28,885
0.55280,-0.00385,-0.06440,0.00000,0.03099,0.97807,-0.17336,0.0,2023,6,8,13,34,28,896
0.55290,0.18865,0.11060,0.00000,0.03001,0.97893,-0.17287,0.0,2023,6,8,13,34,28,908
0.55300,0.15365,-0.08190,0.00000,0.02904,0.97893,-0.17373,0.0,2023,6,8,13,34,28,919
0.55310,-0.00385,0.09310,0.00000,0.03074,0.97685,-0.17336,0.0,2023,6,8,13,34,28,930
0.55320,0.10115,-0.09940,0.00000,0.02989,0.97746,-0.17483,0.0,2023,6,8,13,34,28,941
0.55330,-0.14385,0.04060,0.00000,0.02977,0.97832,-0.17348,0.0,2023,6,8,13,34,28,952
0.55340,-0.12635,-0.01190,0.00000,0.03050,0.97710,-0.17446,0.0,2023,6,8,13,34,28,963
0.55350,-0.02135,0.02310,0.00000,0.03184,0.97832,-0.17104,0.0,2023,6,8,13,34,28,974
0.55360,-0.10885,0.16310,0.00000,0.03099,0.97759,-0.17312,0.0,2023,6,8,13,34,28,985
0.55370,0.08365,-0.01190,0.00000,0.03111,0.97844,-0.17300,0.0,2023,6,8,13,34,28,996
0.55380,-0.00385,0.25060,0.00000,0.03123,0.97698,-0.17397,0.0,2023,6,8,13,34,28,8
0.55390,-0.02135,-0.04690,0.00000,0.03245,0.97966,-0.17226,0.0,2023,6,8,13,34,28,19
0.55400,-0.09135,0.23310,0.00000,0.03074,0.97661,-0.17434,0.0,2023,6,8,13,34,28,30
0.55410,-0.00385,-0.06440,0.00000,0.02928,0.97612,-0.17263,0.0,2023,6,8,13,34,28,41
0.55420,-0.02135,0.26810,0.00000,0.03111,0.97637,-0.17422,0.0,2023,6,8,13,34,28,52
0.55430,-0.00385,0.16310,0.00000,0.02989,0.97661,-0.17446,0.0,2023,6,8,13,34,28,63
0.55440,0.06615,0.00560,0.00000,0.03221,0.97990,-0.17190,0.0,2023,6,8,13,34,28,74
0.55450,-0.00385,0.05810,0.00000,0.02855,0.97917,-0.17336,0.0,2023,6,8,13,34,28,85
0.55460,-0.00385,0.00560,0.00000,0.03013,0.97844,-0.17470,0.0,2023,6,8,13,34,28,96
0.55470,0.03115,0.05810,0.00000,0.03233,0.97844,-0.17287,0.0,2023,6,8,13,34,28,108
0.55480,-0.05635,-0.08190,0.00000,0.03038,0.97771,-0.17446,0.0,2023,6,8,13,34,28,119
0.55490,0.01365,0.05810,0.00000,0.03074,0.97893,-0.17226,0.0,2023,6,8,13,34,28,130
0.55500,-0.03885,0.05810,0.00000,0.03050,0.97990,-0.17117,0.0,2023,6,8,13,34,28,141
0.55510,0.10115,0.07560,0.00000,0.03233,0.98003,-0.17458,0.0,2023,6,8,13,34,28,152
0.55520,-0.02135,-0.11690,0.00000,0.03074,0.97673,-0.17519,0.0,2023,6,8,13,34,28,163
0.55530,-0.03885,0.04060,0.00000,0.03257,0.97746,-0.17226,0.0,2023,6,8,13,34,28,174
0.55540,-0.05635,0.02310,0.00000,0.02757,0.97893,-0.17348,0.0,2023,6,8,13,34,28,185
0.55550,-0.00385,0.11060,0.00000,0.02989,0.97917,-0.17483,0.0,2023,6,8,13,34,28,196
0.55560,-0.07385,0.05810,0.00000,0.03050,0.97868,-0.17324,0.0,2023,6,8,13,34,28,208
0.55570,-0.03885,0.00560,0.00000,0.02952,0.97685,-0.17251,0.0,2023,6,8,13,34,28,219
0.55580,-0.00385,0.04060,0.00000,0.03062,0.98064,-0.17397,0.0,2023,6,8,13,34,28,230
0.55590,0.03115,0.09310,0.00000,0.02952,0.97893,-0.17275,0.0,2023,6,8,13,34,28,241
0.55600,-0.02135,0.00560,0.00000,0.03148,0.97929,-0.17397,0.0,2023,6,8,13,34,28,252
0.55610,-0.03885,-0.01190,0.00000,0.03160,0.97893,-0.17348,0.0,2023,6,8,13,34,28,263
0.55620,-0.05635,0.02310,0.00000,0.02855,0.97966,-0.17531,0.0,2023,6,8,13,34,28,274
0.55630,0.10115,0.12810,0.00000,0.02928,0.97698,-0.17312,0.0,2023,6,8,13,34,28,285
0.55640,-0.21385,0.14560,0.00000,0.03062,0.97783,-0.17434,0.0,2023,6,8,13,34,28,296
0.55650,-0.09135,-0.08190,0.00000,0.02989,0.97820,-0.17373,0.0,2023,6,8,13,34,28,308
0.55660,0.03115,-0.29190,0.00000,0.02977,0.97576,-0.17385,0.0,2023,6,8,13,34,28,319
0.55670,-0.09135,0.09310,0.00000,0.03367,0.97783,-0.17739,0.0,2023,6,8,13,34,28,330
0.55680,0.22365,0.05810,0.00000,0.03001,0.97759,-0.17531,0.0,2023,6,8,13,34,28,341
0.55690,-0.03885,-0.04690,0.00000,0.02879,0.97807,-0.17397,0.0,2023,6,8,13,34,28,352
0.55700,0.25865,-0.22190,0.00000,0.02928,0.97759,-0.17483,0.0,2023,6,8,13,34,28,363
0.55710,0.04865,-0.20440,0.00000,0.03038,0.97954,-0.17312,0.0,2023,6,8,13,34,28,374
0.55720,-0.05635,0.12810,0.00000,0.03111,0.97893,-0.17239,0.0,2023,6,8,13,34,28,385
0.55730,0.08365,0.00560,0.00000,0.03172,0.97807,-0.17239,0.0,2023,6,8,13,34,28,396
0.55740,-0.17885,0.04060,0.00000,0.03050,0.97746,-0.17275,0.0,2023,6,8,13,34,28,408
0.55750,-0.03885,0.16310,0.00000,0.03148,0.98015,-0.17287,0.0,2023,6,8,13,34,28,419
0.55760,-0.00385,0.00560,0.00000,0.03306,0.97771,-0.17446,0.0,2023,6,8,13,34,28,430
0.55770,-0.09135,-0.11690,0.00000,0.02867,0.97710,-0.17397,0.0,2023,6,8,13,34,28,441
0.55780,0.10115,-0.02940,0.00000,0.02940,0.97771,-0.17190,0.0,2023,6,8,13,34,28,452
0.55790,-0.07385,-0.01190,0.00000,0.03050,0.97527,-0.17605,0.0,2023,6,8,13,34,28,463
0.55800,-0.14385,-0.02940,0.00000,0.03245,0.97710,-0.17336,0.0,2023,6,8,13,34,28,474
0.55810,-0.02135,0.12810,0.00000,0.03013,0.97759,-0.17434,0.0,2023,6,8,13,34,28,485
0.55820,-0.12635,0.07560,0.00000,0.03062,0.97929,-0.17592,0.0,2023,6,8,13,34,28,496
0.55830,-0.03885,-0.02940,0.00000,0.03111,0.97807,-0.17361,0.0,2023,6,8,13,34,28,508
0.55840,0.20615,0.05810,0.00000,0.03184,0.98259,-0.17397,0.0,2023,6,8,13,34,28,519
0.55850,-0.02135,-0.15190,0.00000,0.03087,0.97783,-0.17434,0.0,2023,6,8,13,34,28,530
0.55860,0.11865,0.00560,0.00000,0.03087,0.97783,-0.17483,0.0,2023,6,8,13,34,28,541
0.55870,-0.09135,0.16310,0.00000,0.03013,0.97844,-0.17287,0.0,2023,6,8,13,34,28,552
0.55880,0.04865,-0.06440,0.00000,0.02879,0.97844,-0.17336,0.0,2023,6,8,13,34,28,563
0.55890,0.08365,-0.01190,0.00000,0.03074,0.97954,-0.17495,0.0,2023,6,8,13,34,28,574
0.55900,0.06615,-0.15190,0.00000,0.03270,0.97795,-0.17361,0.0,2023,6,8,13,34,28,585
0.55910,-0.14385,0.09310,0.00000,0.03172,0.97661,-0.17385,0.0,2023,6,8,13,34,28,596
0.55920,0.03115,-0.02940,0.00000,0.03013,0.97771,-0.17275,0.0,2023,6,8,13,34,28,608
0.55930,0.08365,-0.11690,0.00000,0.03196,0.97771,-0.17202,0.0,2023,6,8,13,34,28,619
0.55940,0.22365,-0.09940,0.00000,0.03074,0.97893,-0.17251,0.0,2023,6,8,13,34,28,630
0.55950,0.06615,0.04060,0.00000,0.03111,0.97795,-0.17092,0.0,2023,6,8,13,34,28,641
0.55960,-0.23135,0.09310,0.00000,0.03026,0.97868,-0.17605,0.0,2023,6,8,13,34,28,652
0.55970,0.18865,0.00560,0.00000,0.03050,0.97612,-0.17507,0.0,2023,6,8,13,34,28,663
0.55980,-0.02135,-0.08190,0.00000,0.03038,0.97820,-0.17275,0.0,2023,6,8,13,34,28,674
0.55990,-0.21385,0.11060,0.00000,0.02977,0.97832,-0.17178,0.0,2023,6,8,13,34,28,685
0.56000,-0.00385,0.09310,0.00000,0.02940,0.97746,-0.17324,0.0,2023,6,8,13,34,28,696
0.56010,0.10115,-0.01190,0.00000,0.02855,0.97649,-0.17312,0.0,2023,6,8,13,34,28,708
0.56020,-0.26635,0.09310,0.00000,0.02745,0.97661,-0.17275,0.0,2023,6,8,13,34,28,719
0.56030,0.18865,0.05810,0.00000,0.02879,0.98076,-0.17287,0.0,2023,6,8,13,34,28,730
0.56040,0.15365,-0.13440,0.00000,0.03050,0.97759,-0.17397,0.0,2023,6,8,13,34,28,741
0.56050,-0.07385,-0.15190,0.00000,0.03148,0.97856,-0.17336,0.0,2023,6,8,13,34,28,752
0.56060,-0.14385,0.05810,0.00000,0.03123,0.97917,-0.17397,0.0,2023,6,8,13,34,28,763
0.56070,-0.05635,0.09310,0.00000,0.02928,0.98088,-0.17275,0.0,2023,6,8,13,34,28,774
0.56080,-0.00385,0.04060,0.00000,0.03074,0.97759,-0.17092,0.0,2023,6,8,13,34,28,785
0.56090,-0.07385,-0.29190,0.00000,0.03135,0.97759,-0.17385,0.0,2023,6,8,13,34,28,796
0.56100,-0.03885,0.12810,0.00000,0.03001,0.97832,-0.17153,0.0,2023,6,8,13,34,28,808
0.56110,-0.10885,0.12810,0.00000,0.03038,0.97954,-0.17190,0.0,2023,6,8,13,34,28,819
0.56120,-0.05635,-0.02940,0.00000,0.03001,0.97698,-0.17434,0.0,2023,6,8,13,34,28,830
0.56130,-0.10885,-0.01190,0.00000,0.02952,0.97710,-0.17226,0.0,2023,6,8,13,34,28,841
0.56140,0.06615,-0.15190,0.00000,0.02904,0.97856,-0.17239,0.0,2023,6,8,13,34,28,852
0.56150,-0.02135,-0.06440,0.00000,0.02867,0.97710,-0.17385,0.0,2023,6,8,13,34,28,863
0.56160,-0.00385,-0.04690,0.00000,0.03184,0.97551,-0.17117,0.0,2023,6,8,13,34,28,874
0.56170,-0.05635,-0.04690,0.00000,0.03074,0.97771,-0.17336,0.0,2023,6,8,13,34,28,885
0.56180,-0.09135,-0.08190,0.00000,0.03050,0.97807,-0.17239,0.0,2023,6,8,13,34,28,896
0.56190,-0.05635,0.32060,0.00000,0.03074,0.98051,-0.17251,0.0,2023,6,8,13,34,28,908
0.56200,-0.03885,-0.02940,0.00000,0.03111,0.98015,-0.17251,0.0,2023,6,8,13,34,28,919
0.56210,0.20615,0.09310,0.00000,0.02965,0.97722,-0.17507,0.0,2023,6,8,13,34,28,930
0.56220,0.01365,-0.09940,0.00000,0.02965,0.97698,-0.17275,0.0,2023,6,8,13,34,28,941
0.56230,0.04865,-0.04690,0.00000,0.03026,0.98015,-0.17275,0.0,2023,6,8,13,34,28,952
0.56240,0.11865,-0.15190,0.00000,0.03001,0.97832,-0.17300,0.0,2023,6,8,13,34,28,963
0.56250,0.03115,-0.11690,0.00000,0.02989,0.97917,-0.17043,0.0,2023,6,8,13,34,28,974
0.56260,-0.19635,0.19810,0.00000,0.03196,0.98076,-0.17251,0.0,2023,6,8,13,34,28,985
0.56270,-0.12635,0.05810,0.00000,0.03026,0.97893,-0.17458,0.0,2023,6,8,13,34,28,996
0.56280,-0.00385,-0.32690,0.00000,0.02989,0.97881,-0.17483,0.0,2023,6,8,13,34,28,8
0.56290,-0.03885,-0.06440,0.00000,0.03135,0.97722,-0.17434,0.0,2023,6,8,13,34,28,19
0.56300,-0.09135,0.09310,0.00000,0.03050,0.97783,-0.17361,0.0,2023,6,8,13,34,28,30
0.56310,-0.28385,0.11060,0.00000,0.03209,0.97856,-0.17361,0.0,2023,6,8,13,34,28,41
0.56320,0.10115,-0.11690,0.00000,0.03148,0.97710,-0.17336,0.0,2023,6,8,13,34,28,52
0.56330,-0.05635,-0.09940,0.00000,0.03148,0.97783,-0.17312,0.0,2023,6,8,13,34,28,63
0.56340,-0.03885,0.09310,0.00000,0.02916,0.97917,-0.17178,0.0,2023,6,8,13,34,28,74
0.56350,-0.00385,-0.04690,0.00000,0.03087,0.97661,-0.17165,0.0,2023,6,8,13,34,28,85
0.56360,-0.02135,0.11060,0.00000,0.03050,0.97588,-0.17300,0.0,2023,6,8,13,34,28,96
0.56370,-0.03885,-0.09940,0.00000,0.03148,0.97722,-0.17385,0.0,2023,6,8,13,34,28,108
0.56380,0.04865,0.25060,0.00000,0.02965,0.97795,-0.17312,0.0,2023,6,8,13,34,28,119
0.56390,0.01365,0.16310,0.00000,0.02916,0.97807,-0.17141,0.0,2023,6,8,13,34,28,130
0.56400,-0.05635,-0.08190,0.00000,0.03001,0.97612,-0.17409,0.0,2023,6,8,13,34,28,141
0.56410,0.11865,-0.04690,0.00000,0.02684,0.97881,-0.17239,0.0,2023,6,8,13,34,28,152
0.56420,-0.07385,-0.11690,0.00000,0.03221,0.97832,-0.17312,0.0,2023,6,8,13,34,28,163
0.56430,-0.00385,-0.02940,0.00000,0.03099,0.97722,-0.17178,0.0,2023,6,8,13,34,28,174
0.56440,-0.10885,0.00560,0.00000,0.03087,0.97917,-0.17226,0.0,2023,6,8,13,34,28,185
0.56450,0.10115,-0.16940,0.00000,0.03050,0.98064,-0.17409,0.0,2023,6,8,13,34,28,196
0.56460,0.10115,-0.08190,0.00000,0.03013,0.97929,-0.17324,0.0,2023,6,8,13,34,28,208
0.56470,-0.23135,0.02310,0.00000,0.03038,0.97673,-0.17385,0.0,2023,6,8,13,34,29,9
0.56480,-0.17885,0.25060,0.00000,0.02977,0.97795,-0.17251,0.0,2023,6,8,13,34,29,20
0.56490,0.15365,0.04060,0.00000,0.03013,0.97820,-0.17300,0.0,2023,6,8,13,34,29,31
0.56500,-0.14385,-0.18690,0.00000,0.03013,0.97820,-0.17336,0.0,2023,6,8,13,34,29,42
0.56510,0.06615,-0.04690,0.00000,0.03099,0.97832,-0.17361,0.0,2023,6,8,13,34,29,53
0.56520,0.17115,-0.22190,0.00000,0.03013,0.97832,-0.17104,0.0,2023,6,8,13,34,29,64
0.56530,0.13615,0.23310,0.00000,0.02879,0.97954,-0.17714,0.0,2023,6,8,13,34,29,75
0.56540,-0.16135,0.04060,0.00000,0.02977,0.97771,-0.17336,0.0,2023,6,8,13,34,29,86
0.56550,-0.07385,0.05810,0.00000,0.03050,0.97905,-0.17287,0.0,2023,6,8,13,34,29,98
0.56560,-0.07385,0.09310,0.00000,0.02904,0.97905,-0.17117,0.0,2023,6,8,13,34,29,109
0.56570,0.17115,-0.08190,0.00000,0.03062,0.97698,-0.17226,0.0,2023,6,8,13,34,29,120
0.56580,0.01365,-0.06440,0.00000,0.02989,0.97722,-0.17373,0.0,2023,6,8,13,34,29,131
0.56590,0.01365,0.14560,0.00000,0.03050,0.97966,-0.17385,0.0,2023,6,8,13,34,29,142
0.56600,-0.00385,-0.06440,0.00000,0.02855,0.97783,-0.17178,0.0,2023,6,8,13,34,29,153
0.56610,-0.00385,0.07560,0.00000,0.03148,0.97588,-0.17397,0.0,2023,6,8,13,34,29,164
0.56620,-0.05635,-0.04690,0.00000,0.03209,0.97832,-0.17361,0.0,2023,6,8,13,34,29,175
0.56630,0.03115,-0.01190,0.00000,0.03013,0.97820,-0.17373,0.0,2023,6,8,13,34,29,186
0.56640,-0.10885,-0.18690,0.00000,0.03111,0.97673,-0.17129,0.0,2023,6,8,13,34,29,198
0.56650,-0.23135,0.02310,0.00000,0.03050,0.97905,-0.17470,0.0,2023,6,8,13,34,29,209
0.56660,-0.02135,0.19810,0.00000,0.03013,0.97466,-0.17397,0.0,2023,6,8,13,34,29,220
0.56670,-0.05635,0.26810,0.00000,0.03123,0.97942,-0.17409,0.0,2023,6,8,13,34,29,231
0.56680,-0.00385,-0.13440,0.00000,0.02916,0.98039,-0.17385,0.0,2023,6,8,13,34,29,242
0.56690,0.08365,-0.01190,0.00000,0.02965,0.97466,-0.17446,0.0,2023,6,8,13,34,29,253
0.56700,0.01365,0.05810,0.00000,0.03099,0.97698,-0.17653,0.0,2023,6,8,13,34,29,264
0.56710,0.03115,0.04060,0.00000,0.03135,0.97881,-0.17483,0.0,2023,6,8,13,34,29,275
0.56720,0.01365,0.07560,0.00000,0.02940,0.98027,-0.17531,0.0,2023,6,8,13,34,29,286
0.56730,0.01365,0.07560,0.00000,0.03111,0.97978,-0.17556,0.0,2023,6,8,13,34,29,298
0.56740,-0.24885,0.09310,0.00000,0.03026,0.97807,-0.17446,0.0,2023,6,8,13,34,29,309
0.56750,0.01365,0.19810,0.00000,0.03087,0.97759,-0.17458,0.0,2023,6,8,13,34,29,320
0.56760,0.04865,-0.02940,0.00000,0.02965,0.97966,-0.17458,0.0,2023,6,8,13,34,29,331
0.56770,-0.10885,0.05810,0.00000,0.02952,0.97844,-0.17531,0.0,2023,6,8,13,34,29,342
0.56780,-0.03885,-0.08190,0.00000,0.03001,0.97881,-0.17361,0.0,2023,6,8,13,34,29,353
0.56790,-0.14385,0.02310,0.00000,0.03172,0.98051,-0.17446,0.0,2023,6,8,13,34,29,364
0.56800,-0.07385,0.05810,0.00000,0.03379,0.97734,-0.17373,0.0,2023,6,8,13,34,29,375
0.56810,0.08365,0.07560,0.00000,0.03196,0.98027,-0.17446,0.0,2023,6,8,13,34,29,386
0.56820,-0.02135,0.05810,0.00000,0.03013,0.97990,-0.17117,0.0,2023,6,8,13,34,29,398
0.56830,0.01365,0.02310,0.00000,0.02843,0.97832,-0.17336,0.0,2023,6,8,13,34,29,409
0.56840,-0.03885,-0.02940,0.00000,0.03111,0.97893,-0.17397,0.0,2023,6,8,13,34,29,420
0.56850,0.04865,-0.11690,0.00000,0.03062,0.97783,-0.17678,0.0,2023,6,8,13,34,29,431
0.56860,-0.03885,0.00560,0.00000,0.02989,0.97673,-0.17397,0.0,2023,6,8,13,34,29,442
0.56870,0.06615,-0.02940,0.00000,0.03343,0.97710,-0.17373,0.0,2023,6,8,13,34,29,453
0.56880,-0.00385,0.11060,0.00000,0.02843,0.97698,-0.17519,0.0,2023,6,8,13,34,29,464
0.56890,-0.05635,0.05810,0.00000,0.03026,0.98112,-0.17592,0.0,2023,6,8,13,34,29,475
0.56900,0.03115,-0.09940,0.00000,0.03062,0.97612,-0.17483,0.0,2023,6,8,13,34,29,486
0.56910,0.01365,0.09310,0.00000,0.03294,0.97673,-0.17373,0.0,2023,6,8,13,34,29,498
0.56920,0.11865,-0.11690,0.00000,0.03062,0.97649,-0.17495,0.0,2023,6,8,13,34,29,509
0.56930,-0.19635,0.14560,0.00000,0.02916,0.97820,-0.17434,0.0,2023,6,8,13,34,29,520
0.56940,0.22365,-0.09940,0.00000,0.02879,0.97759,-0.17202,0.0,2023,6,8,13,34,29,531
0.56950,-0.00385,-0.04690,0.00000,0.03148,0.97966,-0.17458,0.0,2023,6,8,13,34,29,542
0.56960,0.01365,-0.06440,0.00000,0.03074,0.97807,-0.17434,0.0,2023,6,8,13,34,29,553
0.56970,-0.02135,-0.23940,0.00000,0.02989,0.97820,-0.17348,0.0,2023,6,8,13,34,29,564
0.56980,-0.07385,0.16310,0.00000,0.02830,0.97698,-0.17361,0.0,2023,6,8,13,34,29,575
0.56990,0.03115,-0.04690,0.00000,0.03148,0.97771,-0.17275,0.0,2023,6,8,13,34,29,586
0.57000,0.27615,-0.02940,0.00000,0.03270,0.97832,-0.17483,0.0,2023,6,8,13,34,29,598
0.57010,-0.00385,0.02310,0.00000,0.03062,0.97868,-0.17141,0.0,2023,6,8,13,34,29,609
0.57020,0.10115,0.02310,0.00000,0.03050,0.98015,-0.17312,0.0,2023,6,8,13,34,29,620
0.57030,-0.09135,-0.11690,0.00000,0.03087,0.97783,-0.17385,0.0,2023,6,8,13,34,29,631
0.57040,-0.10885,0.04060,0.00000,0.03123,0.98003,-0.17275,0.0,2023,6,8,13,34,29,642
0.57050,-0.05635,-0.02940,0.00000,0.03074,0.97759,-0.17275,0.0,2023,6,8,13,34,29,653
0.57060,-0.14385,0.12810,0.00000,0.03050,0.97783,-0.17458,0.0,2023,6,8,13,34,29,664
0.57070,0.04865,0.11060,0.00000,0.03099,0.97746,-0.17324,0.0,2023,6,8,13,34,29,675
0.57080,-0.07385,0.00560,0.00000,0.03026,0.97856,-0.17348,0.0,2023,6,8,13,34,29,686
0.57090,-0.00385,0.02310,0.00000,0.02940,0.97929,-0.17373,0.0,2023,6,8,13,34,29,698
0.57100,-0.07385,-0.11690,0.00000,0.03111,0.97759,-0.17336,0.0,2023,6,8,13,34,29,709
0.57110,-0.02135,-0.27440,0.00000,0.03111,0.97966,-0.17519,0.0,2023,6,8,13,34,29,720
0.57120,-0.03885,0.12810,0.00000,0.03172,0.97868,-0.17275,0.0,2023,6,8,13,34,29,731
0.57130,-0.17885,0.09310,0.00000,0.03087,0.97868,-0.16982,0.0,2023,6,8,13,34,29,742
0.57140,-0.09135,0.12810,0.00000,0.02916,0.97832,-0.17287,0.0,2023,6,8,13,34,29,753
0.57150,-0.00385,0.00560,0.00000,0.02830,0.97917,-0.17300,0.0,2023,6,8,13,34,29,764
0.57160,-0.14385,0.07560,0.00000,0.03038,0.97515,-0.17507,0.0,2023,6,8,13,34,29,775
0.57170,0.20615,0.04060,0.00000,0.03038,0.97722,-0.17287,0.0,2023,6,8,13,34,29,786
0.57180,-0.07385,0.33810,0.00000,0.03013,0.98039,-0.17251,0.0,2023,6,8,13,34,29,798
0.57190,-0.09135,0.07560,0.00000,0.03050,0.97942,-0.17348,0.0,2023,6,8,13,34,29,809
0.57200,0.08365,-0.02940,0.00000,0.02904,0.97710,-0.17336,0.0,2023,6,8,13,34,29,820
0.57210,0.04865,0.18060,0.00000,0.02867,0.97722,-0.17361,0.0,2023,6,8,13,34,29,831
0.57220,-0.03885,-0.02940,0.00000,0.02952,0.97881,-0.17434,0.0,2023,6,8,13,34,29,842
0.57230,-0.09135,-0.02940,0.00000,0.03233,0.97746,-0.17397,0.0,2023,6,8,13,34,29,853
0.57240,0.08365,0.02310,0.00000,0.02843,0.97917,-0.17434,0.0,2023,6,8,13,34,29,864
0.57250,0.17115,0.11060,0.00000,0.03001,0.97771,-0.17312,0.0,2023,6,8,13,34,29,875
0.57260,-0.02135,-0.13440,0.00000,0.03074,0.97893,-0.17361,0.0,2023,6,8,13,34,29,886
0.57270,0.06615,-0.06440,0.00000,0.02965,0.97673,-0.17104,0.0,2023,6,8,13,34,29,898
0.57280,-0.12635,0.14560,0.00000,0.03026,0.98015,-0.17300,0.0,2023,6,8,13,34,29,909
0.57290,-0.05635,-0.11690,0.00000,0.03135,0.97807,-0.17214,0.0,2023,6,8,13,34,29,920
0.57300,-0.14385,-0.06440,0.00000,0.02891,0.97588,-0.17312,0.0,2023,6,8,13,34,29,931
0.57310,0.15365,-0.04690,0.00000,0.03172,0.97673,-0.17409,0.0,2023,6,8,13,34,29,942
0.57320,-0.02135,-0.04690,0.00000,0.03257,0.97893,-0.17580,0.0,2023,6,8,13,34,29,953
0.57330,-0.05635,0.00560,0.00000,0.03148,0.97795,-0.17165,0.0,2023,6,8,13,34,29,964
0.57340,0.08365,-0.20440,0.00000,0.03001,0.97856,-0.17605,0.0,2023,6,8,13,34,29,975
0.57350,-0.05635,-0.02940,0.00000,0.03001,0.97868,-0.17153,0.0,2023,6,8,13,34,29,986
0.57360,-0.00385,0.16310,0.00000,0.03428,0.97844,-0.17178,0.0,2023,6,8,13,34,29,998
0.57370,0.13615,-0.04690,0.00000,0.03160,0.97759,-0.17141,0.0,2023,6,8,13,34,29,9
0.57380,-0.14385,0.16310,0.00000,0.03087,0.97966,-0.17361,0.0,2023,6,8,13,34,29,20
0.57390,-0.03885,-0.01190,0.00000,0.03050,0.97893,-0.17483,0.0,2023,6,8,13,34,29,31
0.57400,-0.19635,-0.20440,0.00000,0.03123,0.97746,-0.17470,0.0,2023,6,8,13,34,29,42
0.57410,0.15365,-0.04690,0.00000,0.03135,0.98003,-0.17409,0.0,2023,6,8,13,34,29,53
0.57420,-0.05635,0.04060,0.00000,0.03026,0.97783,-0.17226,0.0,2023,6,8,13,34,29,64
0.57430,0.17115,0.00560,0.00000,0.03196,0.97759,-0.17178,0.0,2023,6,8,13,34,29,75
0.57440,-0.00385,-0.02940,0.00000,0.02928,0.97905,-0.17226,0.0,2023,6,8,13,34,29,86
0.57450,-0.12635,0.07560,0.00000,0.03001,0.97795,-0.17312,0.0,2023,6,8,13,34,29,98
0.57460,0.01365,-0.11690,0.00000,0.03050,0.97868,-0.17178,0.0,2023,6,8,13,34,29,109
0.57470,-0.09135,-0.16940,0.00000,0.03038,0.97795,-0.17202,0.0,2023,6,8,13,34,29,120
0.57480,-0.00385,-0.01190,0.00000,0.03050,0.97990,-0.17470,0.0,2023,6,8,13,34,29,131
0.57490,0.03115,0.07560,0.00000,0.03038,0.97881,-0.17470,0.0,2023,6,8,13,34,29,142
0.57490,0.03115,0.07560,0.00000,0.03038,0.97881,-0.17470,0.0,2023,6,8,13,34,29,142
0.62020,0.13615,-0.29190,0.00000,0.03026,0.97673,-0.17385,0.0,2023,6,8,13,34,29,164
0.62030,0.04865,-0.06440,0.00000,0.03050,0.98027,-0.17422,0.0,2023,6,8,13,34,29,175
0.62040,0.08365,-0.02940,0.00000,0.02928,0.97795,-0.17202,0.0,2023,6,8,13,34,29,186
0.62050,-0.07385,0.04060,0.00000,0.02916,0.97710,-0.17214,0.0,2023,6,8,13,34,29,198
0.62060,-0.00385,0.25060,0.00000,0.03221,0.97832,-0.17129,0.0,2023,6,8,13,34,29,209
0.62070,-0.00385,0.33810,0.00000,0.02952,0.97832,-0.17470,0.0,2023,6,8,13,34,29,220
0.62080,-0.10885,0.07560,0.00000,0.03294,0.97807,-0.17043,0.0,2023,6,8,13,34,29,231
0.62090,0.01365,0.05810,0.00000,0.03001,0.97759,-0.17422,0.0,2023,6,8,13,34,29,242
0.62100,-0.09135,0.05810,0.00000,0.03148,0.97722,-0.17348,0.0,2023,6,8,13,34,29,253
0.62110,0.04865,0.30310,0.00000,0.03196,0.97722,-0.17361,0.0,2023,6,8,13,34,29,264
0.62120,-0.19635,-0.04690,0.00000,0.03123,0.97771,-0.17483,0.0,2023,6,8,13,34,29,275
0.62130,0.03115,-0.13440,0.00000,0.03111,0.97942,-0.17397,0.0,2023,6,8,13,34,29,286
0.62140,-0.00385,0.11060,0.00000,0.03221,0.97844,-0.17361,0.0,2023,6,8,13,34,29,298
0.62150,-0.00385,0.16310,0.00000,0.02965,0.97844,-0.17190,0.0,2023,6,8,13,34,29,309
0.62160,-0.12635,0.14560,0.00000,0.03123,0.97771,-0.17348,0.0,2023,6,8,13,34,29,320
0.62170,-0.00385,-0.02940,0.00000,0.02952,0.97576,-0.17348,0.0,2023,6,8,13,34,29,331
0.62180,0.13615,-0.23940,0.00000,0.02952,0.97710,-0.17629,0.0,2023,6,8,13,34,29,342
0.62190,0.25865,-0.06440,0.00000,0.02843,0.97868,-0.17275,0.0,2023,6,8,13,34,29,353
0.62200,0.01365,-0.08190,0.00000,0.03026,0.97722,-0.17202,0.0,2023,6,8,13,34,29,364
0.62210,-0.02135,0.09310,0.00000,0.03038,0.98149,-0.17397,0.0,2023,6,8,13,34,29,375
0.62220,-0.00385,-0.08190,0.00000,0.03111,0.97746,-0.17324,0.0,2023,6,8,13,34,29,386
0.62230,0.10115,-0.09940,0.00000,0.03160,0.97722,-0.17178,0.0,2023,6,8,13,34,29,398
0.62240,-0.14385,-0.01190,0.00000,0.03001,0.97905,-0.17361,0.0,2023,6,8,13,34,29,409
0.62250,0.08365,-0.22190,0.00000,0.03135,0.98076,-0.17458,0.0,2023,6,8,13,34,29,420
0.62260,-0.26635,0.19810,0.00000,0.03245,0.97881,-0.17446,0.0,2023,6,8,13,34,29,431
0.62270,-0.12635,-0.13440,0.00000,0.03026,0.97856,-0.17226,0.0,2023,6,8,13,34,29,442
0.62280,0.04865,-0.15190,0.00000,0.02977,0.98003,-0.17336,0.0,2023,6,8,13,34,29,453
0.62290,0.22365,-0.01190,0.00000,0.03111,0.97966,-0.17458,0.0,2023,6,8,13,34,29,464
0.62300,-0.23135,0.09310,0.00000,0.03135,0.97929,-0.17385,0.0,2023,6,8,13,34,29,475
0.62310,-0.00385,-0.02940,0.00000,0.03160,0.97698,-0.17495,0.0,2023,6,8,13,34,29,486
0.62320,-0.02135,0.07560,0.00000,0.03087,0.97929,-0.17275,0.0,2023,6,8,13,34,29,498
0.62330,-0.10885,-0.04690,0.00000,0.02916,0.97844,-0.17214,0.0,2023,6,8,13,34,29,509
0.62340,0.15365,-0.08190,0.00000,0.03465,0.98064,-0.17373,0.0,2023,6,8,13,34,29,520
0.62350,0.06615,-0.06440,0.00000,0.03123,0.97807,-0.17422,0.0,2023,6,8,13,34,29,531
0.62360,-0.02135,0.05810,0.00000,0.03233,0.97722,-0.17263,0.0,2023,6,8,13,34,29,542
0.62370,-0.16135,0.00560,0.00000,0.03038,0.98039,-0.17300,0.0,2023,6,8,13,34,29,553
0.62380,0.01365,0.02310,0.00000,0.03282,0.97734,-0.17056,0.0,2023,6,8,13,34,29,564
0.62390,-0.05635,0.14560,0.00000,0.03026,0.97990,-0.17165,0.0,2023,6,8,13,34,29,575
0.62400,-0.14385,-0.06440,0.00000,0.02977,0.97990,-0.17348,0.0,2023,6,8,13,34,29,586
0.62410,0.01365,-0.16940,0.00000,0.03172,0.97698,-0.17263,0.0,2023,6,8,13,34,29,598
0.62420,-0.19635,-0.02940,0.00000,0.03026,0.97710,-0.17251,0.0,2023,6,8,13,34,29,609
0.62430,0.03115,0.12810,0.00000,0.03209,0.97942,-0.17214,0.0,2023,6,8,13,34,29,620
0.62440,0.08365,-0.06440,0.00000,0.02989,0.97893,-0.17263,0.0,2023,6,8,13,34,29,631
0.62450,0.10115,-0.16940,0.00000,0.02794,0.97893,-0.17263,0.0,2023,6,8,13,34,29,642
0.62460,-0.00385,-0.04690,0.00000,0.02940,0.97893,-0.17056,0.0,2023,6,8,13,34,29,653
0.62470,-0.03885,0.11060,0.00000,0.03221,0.97978,-0.17507,0.0,2023,6,8,13,34,29,664
0.62480,0.04865,-0.06440,0.00000,0.03001,0.97917,-0.17324,0.0,2023,6,8,13,34,29,675
0.62490,0.13615,-0.01190,0.00000,0.02916,0.97429,-0.17287,0.0,2023,6,8,13,34,29,686
0.62500,-0.00385,-0.08190,0.00000,0.02965,0.97844,-0.17422,0.0,2023,6,8,13,34,29,698
0.62510,-0.14385,-0.02940,0.00000,0.02879,0.97881,-0.17397,0.0,2023,6,8,13,34,29,709
0.62520,0.01365,-0.02940,0.00000,0.03123,0.97734,-0.17373,0.0,2023,6,8,13,34,29,720
0.62530,0.04865,-0.09940,0.00000,0.02940,0.97820,-0.17117,0.0,2023,6,8,13,34,29,731
0.62540,0.06615,0.12810,0.00000,0.02904,0.97807,-0.17336,0.0,2023,6,8,13,34,29,742
0.62550,-0.16135,0.05810,0.00000,0.02940,0.97868,-0.17312,0.0,2023,6,8,13,34,29,753
0.62560,0.01365,0.18060,0.00000,0.03013,0.97929,-0.17409,0.0,2023,6,8,13,34,29,764
0.62570,0.01365,0.05810,0.00000,0.03013,0.97820,-0.17239,0.0,2023,6,8,13,34,29,775
0.62580,0.01365,0.04060,0.00000,0.03111,0.97734,-0.17348,0.0,2023,6,8,13,34,29,786
0.62590,0.04865,-0.01190,0.00000,0.02843,0.97966,-0.17495,0.0,2023,6,8,13,34,29,798
0.62600,0.01365,0.07560,0.00000,0.03074,0.97783,-0.17312,0.0,2023,6,8,13,34,29,809
0.62610,0.01365,0.07560,0.00000,0.03111,0.97673,-0.17373,0.0,2023,6,8,13,34,29,820
0.62620,0.11865,0.00560,0.00000,0.02855,0.97637,-0.17507,0.0,2023,6,8,13,34,29,831
0.62630,0.04865,0.16310,0.00000,0.03050,0.97771,-0.17312,0.0,2023,6,8,13,34,29,842
0.62640,-0.09135,0.11060,0.00000,0.03026,0.97942,-0.17361,0.0,2023,6,8,13,34,29,853
0.62650,-0.00385,-0.06440,0.00000,0.03196,0.97685,-0.17104,0.0,2023,6,8,13,34,29,864
0.62660,-0.17885,0.21560,0.00000,0.03013,0.97795,-0.17092,0.0,2023,6,8,13,34,29,875
0.62670,-0.12635,0.11060,0.00000,0.02891,0.97966,-0.17385,0.0,2023,6,8,13,34,29,886
0.62680,-0.05635,0.12810,0.00000,0.03062,0.97624,-0.17348,0.0,2023,6,8,13,34,29,898
0.62690,-0.03885,0.12810,0.00000,0.02891,0.97783,-0.17287,0.0,2023,6,8,13,34,29,909
0.62700,-0.00385,-0.01190,0.00000,0.02904,0.97661,-0.17324,0.0,2023,6,8,13,34,29,920
0.62710,0.08365,0.09310,0.00000,0.03074,0.97807,-0.17190,0.0,2023,6,8,13,34,29,931
0.62720,-0.00385,-0.01190,0.00000,0.02928,0.97807,-0.17300,0.0,2023,6,8,13,34,29,942
0.62730,-0.03885,-0.04690,0.00000,0.03062,0.97673,-0.17312,0.0,2023,6,8,13,34,29,953
0.62740,0.03115,0.11060,0.00000,0.03062,0.97881,-0.17519,0.0,2023,6,8,13,34,29,964
0.62750,0.15365,-0.13440,0.00000,0.03050,0.97881,-0.17068,0.0,2023,6,8,13,34,29,975
0.62760,-0.00385,0.02310,0.00000,0.03355,0.97881,-0.17458,0.0,2023,6,8,13,34,29,986
0.62770,-0.17885,0.11060,0.00000,0.03209,0.97807,-0.17409,0.0,2023,6,8,13,34,29,998
0.62780,-0.02135,-0.08190,0.00000,0.03087,0.97917,-0.17483,0.0,2023,6,8,13,34,29,9
0.62790,-0.02135,-0.06440,0.00000,0.02904,0.97783,-0.17300,0.0,2023,6,8,13,34,29,20
0.62800,-0.14385,-0.04690,0.00000,0.03026,0.97685,-0.17312,0.0,2023,6,8,13,34,29,31
0.62810,0.11865,0.19810,0.00000,0.03148,0.97673,-0.17287,0.0,2023,6,8,13,34,29,42
0.62820,0.08365,-0.15190,0.00000,0.03062,0.98076,-0.17617,0.0,2023,6,8,13,34,29,53
0.62830,-0.05635,0.05810,0.00000,0.03050,0.97710,-0.17080,0.0,2023,6,8,13,34,29,64
0.62840,-0.14385,-0.09940,0.00000,0.03135,0.97563,-0.17190,0.0,2023,6,8,13,34,29,75
0.62850,-0.07385,-0.18690,0.00000,0.03074,0.97600,-0.17141,0.0,2023,6,8,13,34,29,86
0.62860,0.11865,-0.09940,0.00000,0.03135,0.97759,-0.17239,0.0,2023,6,8,13,34,29,98
0.62870,-0.16135,0.35560,0.00000,0.03026,0.97905,-0.17165,0.0,2023,6,8,13,34,29,109
0.62880,0.11865,0.04060,0.00000,0.03001,0.97868,-0.17300,0.0,2023,6,8,13,34,29,120
0.62890,-0.03885,-0.27440,0.00000,0.03038,0.97624,-0.17214,0.0,2023,6,8,13,34,29,131
0.62900,-0.00385,0.00560,0.00000,0.03209,0.97759,-0.17117,0.0,2023,6,8,13,34,29,142
0.62910,-0.09135,0.21560,0.00000,0.02965,0.97807,-0.17336,0.0,2023,6,8,13,34,29,153
0.62920,-0.07385,-0.11690,0.00000,0.03038,0.98076,-0.17287,0.0,2023,6,8,13,34,29,164
0.62930,0.03115,0.12810,0.00000,0.03233,0.97746,-0.17214,0.0,2023,6,8,13,34,29,175
0.62940,0.17115,-0.02940,0.00000,0.03074,0.97868,-0.17226,0.0,2023,6,8,13,34,29,186
0.62950,-0.16135,0.02310,0.00000,0.03184,0.97710,-0.17190,0.0,2023,6,8,13,34,29,198
0.62960,0.06615,-0.02940,0.00000,0.02977,0.97893,-0.17239,0.0,2023,6,8,13,34,29,209
0.62970,-0.21385,0.12810,0.00000,0.03013,0.97820,-0.17214,0.0,2023,6,8,13,34,29,220
0.62980,0.08365,0.07560,0.00000,0.03196,0.97734,-0.17336,0.0,2023,6,8,13,34,29,231
0.62990,0.03115,-0.18690,0.00000,0.03135,0.97942,-0.17092,0.0,2023,6,8,13,34,29,242
0.63000,0.11865,0.05810,0.00000,0.03148,0.97734,-0.17141,0.0,2023,6,8,13,34,29,253
0.63010,0.10115,-0.09940,0.00000,0.03062,0.97600,-0.17178,0.0,2023,6,8,13,34,29,264
0.63020,0.01365,-0.06440,0.00000,0.02940,0.97807,-0.17153,0.0,2023,6,8,13,34,29,275
0.63030,-0.03885,0.09310,0.00000,0.03026,0.97820,-0.17336,0.0,2023,6,8,13,34,29,286
0.63040,-0.24885,0.04060,0.00000,0.02977,0.97783,-0.17312,0.0,2023,6,8,13,34,29,298
0.63050,-0.03885,0.05810,0.00000,0.03148,0.97844,-0.17324,0.0,2023,6,8,13,34,29,309
0.63060,0.10115,-0.06440,0.00000,0.03026,0.97710,-0.17336,0.0,2023,6,8,13,34,29,320
0.63070,-0.02135,0.11060,0.00000,0.03148,0.97661,-0.17336,0.0,2023,6,8,13,34,29,331
0.63080,0.01365,0.14560,0.00000,0.02940,0.97673,-0.17385,0.0,2023,6,8,13,34,29,342
0.63090,0.04865,-0.09940,0.00000,0.02977,0.97746,-0.17409,0.0,2023,6,8,13,34,29,353
0.63100,-0.02135,-0.04690,0.00000,0.03013,0.98137,-0.17300,0.0,2023,6,8,13,34,29,364
0.63110,-0.19635,0.00560,0.00000,0.03026,0.97759,-0.16982,0.0,2023,6,8,13,34,29,375
0.63120,0.10115,0.09310,0.00000,0.02928,0.97966,-0.17153,0.0,2023,6,8,13,34,29,386
0.63130,-0.00385,-0.06440,0.00000,0.03074,0.97832,-0.17397,0.0,2023,6,8,13,34,29,398
0.63140,-0.10885,0.02310,0.00000,0.03233,0.97978,-0.17544,0.0,2023,6,8,13,34,29,409
0.63150,-0.07385,0.00560,0.00000,0.03038,0.97868,-0.17385,0.0,2023,6,8,13,34,29,420
0.63160,-0.02135,0.02310,0.00000,0.03050,0.97771,-0.17239,0.0,2023,6,8,13,34,29,431
0.63170,-0.26635,0.14560,0.00000,0.03099,0.97685,-0.17373,0.0,2023,6,8,13,34,29,442
0.63180,0.06615,-0.04690,0.00000,0.03160,0.98027,-0.17324,0.0,2023,6,8,13,34,29,453
0.63190,0.11865,-0.02940,0.00000,0.02977,0.97881,-0.17775,0.0,2023,6,8,13,34,29,464
0.63200,-0.00385,0.04060,0.00000,0.03209,0.97929,-0.17361,0.0,2023,6,8,13,34,29,475
0.63210,-0.14385,-0.09940,0.00000,0.02977,0.97917,-0.17287,0.0,2023,6,8,13,34,29,486
0.63220,0.01365,0.02310,0.00000,0.03331,0.97905,-0.17251,0.0,2023,6,8,13,34,29,498
0.63230,0.11865,-0.06440,0.00000,0.03001,0.97795,-0.17458,0.0,2023,6,8,13,34,29,509
0.63240,-0.00385,0.00560,0.00000,0.03026,0.97868,-0.17263,0.0,2023,6,8,13,34,29,520
0.63250,-0.10885,0.09310,0.00000,0.03013,0.97698,-0.17531,0.0,2023,6,8,13,34,29,531
0.63260,-0.05635,0.12810,0.00000,0.03135,0.97856,-0.17446,0.0,2023,6,8,13,34,29,542
0.63270,0.06615,-0.04690,0.00000,0.03111,0.97856,-0.17300,0.0,2023,6,8,13,34,29,553
0.63280,-0.12635,0.02310,0.00000,0.02745,0.97868,-0.17580,0.0,2023,6,8,13,34,29,564
0.63290,-0.03885,-0.02940,0.00000,0.03270,0.97978,-0.17519,0.0,2023,6,8,13,34,29,575
0.63300,-0.19635,-0.01190,0.00000,0.03111,0.97722,-0.17312,0.0,2023,6,8,13,34,29,586
0.63310,0.11865,-0.15190,0.00000,0.03038,0.97868,-0.17507,0.0,2023,6,8,13,34,29,598
0.63320,-0.28385,-0.01190,0.00000,0.02806,0.97820,-0.17507,0.0,2023,6,8,13,34,29,609
0.63330,-0.09135,0.05810,0.00000,0.02879,0.97978,-0.17409,0.0,2023,6,8,13,34,29,620
0.63340,-0.21385,0.18060,0.00000,0.03148,0.97905,-0.17361,0.0,2023,6,8,13,34,29,631
0.63350,0.04865,0.00560,0.00000,0.03306,0.97905,-0.17519,0.0,2023,6,8,13,34,29,642
0.63360,-0.05635,0.04060,0.00000,0.03172,0.97710,-0.17519,0.0,2023,6,8,13,34,29,653
0.63370,0.11865,-0.04690,0.00000,0.03148,0.97746,-0.17348,0.0,2023,6,8,13,34,29,664
0.63380,-0.00385,-0.04690,0.00000,0.02916,0.97942,-0.17446,0.0,2023,6,8,13,34,29,675
0.63390,-0.10885,-0.09940,0.00000,0.03184,0.97893,-0.17409,0.0,2023,6,8,13,34,29,686
0.63400,0.03115,-0.16940,0.00000,0.03245,0.97942,-0.17495,0.0,2023,6,8,13,34,29,698
0.63410,0.20615,-0.15190,0.00000,0.02989,0.97820,-0.17434,0.0,2023,6,8,13,34,29,709
0.63420,-0.03885,0.12810,0.00000,0.02904,0.97905,-0.17275,0.0,2023,6,8,13,34,29,720
0.63430,-0.05635,0.00560,0.00000,0.03306,0.97881,-0.17300,0.0,2023,6,8,13,34,29,731
0.63440,-0.03885,0.09310,0.00000,0.03123,0.97771,-0.17397,0.0,2023,6,8,13,34,29,742
0.63450,0.08365,-0.02940,0.00000,0.03074,0.97807,-0.17287,0.0,2023,6,8,13,34,29,753
0.63460,0.01365,0.09310,0.00000,0.03087,0.97990,-0.17373,0.0,2023,6,8,13,34,29,764
0.63470,0.04865,0.05810,0.00000,0.03270,0.97820,-0.17544,0.0,2023,6,8,13,34,29,775
0.63480,-0.07385,0.19810,0.00000,0.03013,0.97929,-0.17275,0.0,2023,6,8,13,34,29,786
0.63490,-0.05635,-0.13440,0.00000,0.02965,0.97917,-0.17312,0.0,2023,6,8,13,34,29,798
0.63500,-0.16135,0.28560,0.00000,0.02757,0.97600,-0.17251,0.0,2023,6,8,13,34,29,809
0.63510,0.01365,-0.02940,0.00000,0.02965,0.97942,-0.17361,0.0,2023,6,8,13,34,29,820
0.63520,0.06615,0.14560,0.00000,0.02891,0.97795,-0.17324,0.0,2023,6,8,13,34,29,831
0.63530,-0.00385,-0.06440,0.00000,0.03062,0.97942,-0.17373,0.0,2023,6,8,13,34,29,842
0.63540,0.10115,0.00560,0.00000,0.03172,0.98076,-0.17239,0.0,2023,6,8,13,34,29,853
0.63550,-0.03885,0.00560,0.00000,0.03160,0.97759,-0.17580,0.0,2023,6,8,13,34,29,864
0.63560,0.08365,-0.13440,0.00000,0.03001,0.97783,-0.17397,0.0,2023,6,8,13,34,29,875
0.63570,-0.07385,0.16310,0.00000,0.03099,0.98112,-0.17470,0.0,2023,6,8,13,34,29,886
0.63580,-0.03885,-0.20440,0.00000,0.03013,0.97868,-0.17470,0.0,2023,6,8,13,34,29,898
0.63590,-0.02135,0.18060,0.00000,0.03038,0.97832,-0.17605,0.0,2023,6,8,13,34,29,909
0.63600,0.06615,-0.04690,0.00000,0.03184,0.97795,-0.17446,0.0,2023,6,8,13,34,29,920
0.63610,0.10115,0.11060,0.00000,0.03038,0.97661,-0.17324,0.0,2023,6,8,13,34,29,931
0.63620,-0.03885,-0.06440,0.00000,0.02965,0.97856,-0.17385,0.0,2023,6,8,13,34,29,942
0.63630,-0.17885,0.00560,0.00000,0.03135,0.97710,-0.17385,0.0,2023,6,8,13,34,29,953
0.63640,-0.02135,-0.04690,0.00000,0.03111,0.97588,-0.17641,0.0,2023,6,8,13,34,29,964
0.63650,-0.02135,-0.01190,0.00000,0.03196,0.97832,-0.17397,0.0,2023,6,8,13,34,29,975
0.63660,0.22365,-0.08190,0.00000,0.02855,0.97649,-0.17678,0.0,2023,6,8,13,34,29,986
0.63670,-0.05635,0.00560,0.00000,0.02965,0.97893,-0.17470,0.0,2023,6,8,13,34,29,998
0.63680,0.06615,-0.13440,0.00000,0.03343,0.97881,-0.17312,0.0,2023,6,8,13,34,29,9
0.63690,-0.03885,0.21560,0.00000,0.03209,0.97746,-0.17239,0.0,2023,6,8,13,34,29,20
0.63700,0.08365,0.12810,0.00000,0.02940,0.97795,-0.17409,0.0,2023,6,8,13,34,29,31
0.63710,0.04865,-0.06440,0.00000,0.03001,0.97954,-0.17397,0.0,2023,6,8,13,34,29,42
0.63720,-0.00385,-0.09940,0.00000,0.03013,0.97905,-0.17348,0.0,2023,6,8,13,34,29,53
0.63730,-0.00385,-0.16940,0.00000,0.03050,0.97820,-0.17470,0.0,2023,6,8,13,34,29,64
0.63740,0.10115,0.16310,0.00000,0.02989,0.97661,-0.17275,0.0,2023,6,8,13,34,29,75
0.63750,0.03115,-0.09940,0.00000,0.03074,0.97893,-0.17373,0.0,2023,6,8,13,34,29,86
0.63760,0.22365,-0.22190,0.00000,0.03026,0.97734,-0.17483,0.0,2023,6,8,13,34,29,98
0.63770,-0.14385,0.28560,0.00000,0.03099,0.97710,-0.17751,0.0,2023,6,8,13,34,29,109
0.63780,-0.16135,0.00560,0.00000,0.03026,0.97893,-0.17519,0.0,2023,6,8,13,34,29,120
0.63790,-0.10885,-0.06440,0.00000,0.03050,0.97795,-0.17470,0.0,2023,6,8,13,34,29,131
0.63800,0.01365,-0.29190,0.00000,0.03148,0.97783,-0.17763,0.0,2023,6,8,13,34,29,142
0.63810,-0.02135,0.11060,0.00000,0.02928,0.97917,-0.17495,0.0,2023,6,8,13,34,29,153
0.63820,0.04865,-0.04690,0.00000,0.03050,0.97893,-0.17397,0.0,2023,6,8,13,34,29,164
0.63830,-0.03885,-0.06440,0.00000,0.03050,0.97856,-0.17434,0.0,2023,6,8,13,34,29,175
0.63840,0.06615,-0.11690,0.00000,0.03160,0.97783,-0.17275,0.0,2023,6,8,13,34,29,186
0.63850,0.04865,-0.08190,0.00000,0.02928,0.97746,-0.17178,0.0,2023,6,8,13,34,29,198
0.63860,0.10115,0.00560,0.00000,0.02855,0.97990,-0.17385,0.0,2023,6,8,13,34,29,209
0.63870,0.06615,0.00560,0.00000,0.02769,0.98039,-0.17324,0.0,2023,6,8,13,34,29,220
0.63880,-0.19635,-0.08190,0.00000,0.03001,0.97734,-0.17446,0.0,2023,6,8,13,34,29,231
0.63890,-0.02135,-0.13440,0.00000,0.03087,0.98173,-0.17312,0.0,2023,6,8,13,34,29,242
0.63900,-0.03885,0.09310,0.00000,0.03245,0.97734,-0.17287,0.0,2023,6,8,13,34,29,253
0.63910,0.03115,-0.02940,0.00000,0.03172,0.97722,-0.17373,0.0,2023,6,8,13,34,29,264
0.63920,-0.09135,-0.04690,0.00000,0.03050,0.97710,-0.17605,0.0,2023,6,8,13,34,29,275
0.63930,0.11865,-0.01190,0.00000,0.03184,0.97649,-0.17446,0.0,2023,6,8,13,34,29,286
0.63940,0.08365,0.00560,0.00000,0.03270,0.97820,-0.17263,0.0,2023,6,8,13,34,29,298
0.63950,0.17115,0.02310,0.00000,0.03062,0.97978,-0.17251,0.0,2023,6,8,13,34,29,309
0.63960,-0.03885,0.00560,0.00000,0.03013,0.97746,-0.17519,0.0,2023,6,8,13,34,29,320
0.63970,-0.10885,-0.01190,0.00000,0.03050,0.97844,-0.17214,0.0,2023,6,8,13,34,29,331
0.63980,0.03115,0.11060,0.00000,0.03050,0.98015,-0.17324,0.0,2023,6,8,13,34,29,342
0.63990,0.04865,0.16310,0.00000,0.02989,0.97795,-0.17470,0.0,2023,6,8,13,34,29,353
0.64000,-0.05635,0.19810,0.00000,0.03160,0.97856,-0.17153,0.0,2023,6,8,13,34,29,364
0.64010,-0.02135,-0.13440,0.00000,0.03038,0.97856,-0.17446,0.0,2023,6,8,13,34,29,375
0.64020,0.11865,0.02310,0.00000,0.03050,0.97820,-0.17165,0.0,2023,6,8,13,34,29,386
0.64030,0.03115,-0.08190,0.00000,0.03001,0.97942,-0.17324,0.0,2023,6,8,13,34,29,398
0.64040,-0.00385,-0.08190,0.00000,0.03062,0.97685,-0.17251,0.0,2023,6,8,13,34,29,409
0.64050,-0.12635,0.12810,0.00000,0.03001,0.97990,-0.17300,0.0,2023,6,8,13,34,29,420
0.64060,-0.12635,-0.16940,0.00000,0.03184,0.97978,-0.17239,0.0,2023,6,8,13,34,29,431
0.64070,-0.23135,0.19810,0.00000,0.03209,0.97807,-0.17458,0.0,2023,6,8,13,34,29,442
0.64080,-0.02135,0.09310,0.00000,0.02916,0.97588,-0.17312,0.0,2023,6,8,13,34,29,453
0.64090,-0.07385,0.02310,0.00000,0.03087,0.97759,-0.17446,0.0,2023,6,8,13,34,29,464
0.64100,-0.12635,0.00560,0.00000,0.02891,0.97734,-0.17544,0.0,2023,6,8,13,34,29,475
0.64110,-0.05635,-0.06440,0.00000,0.03050,0.97942,-0.17214,0.0,2023,6,8,13,34,29,486
0.64120,-0.00385,0.16310,0.00000,0.02952,0.97661,-0.17361,0.0,2023,6,8,13,34,29,498
0.64130,0.06615,0.04060,0.00000,0.03209,0.97637,-0.17434,0.0,2023,6,8,13,34,29,509
0.64140,-0.02135,-0.04690,0.00000,0.02965,0.97881,-0.17666,0.0,2023,6,8,13,34,29,520
0.64150,-0.05635,-0.11690,0.00000,0.02977,0.98015,-0.17409,0.0,2023,6,8,13,34,29,531
0.64160,0.06615,-0.27440,0.00000,0.03050,0.97942,-0.17324,0.0,2023,6,8,13,34,29,542
0.64170,0.08365,-0.22190,0.00000,0.02977,0.97795,-0.17165,0.0,2023,6,8,13,34,29,553
0.64180,-0.09135,-0.25690,0.00000,0.03013,0.97868,-0.17422,0.0,2023,6,8,13,34,29,564
0.64190,0.08365,0.04060,0.00000,0.02928,0.97844,-0.17385,0.0,2023,6,8,13,34,29,575
0.64200,-0.09135,-0.11690,0.00000,0.03111,0.97502,-0.17458,0.0,2023,6,8,13,34,29,586
0.64210,0.04865,0.18060,0.00000,0.02904,0.97844,-0.17397,0.0,2023,6,8,13,34,29,598
0.64220,0.03115,0.00560,0.00000,0.03123,0.97844,-0.17300,0.0,2023,6,8,13,34,29,609
0.64230,0.10115,0.16310,0.00000,0.03294,0.97844,-0.17483,0.0,2023,6,8,13,34,29,620
0.64240,-0.10885,-0.04690,0.00000,0.02843,0.97661,-0.17397,0.0,2023,6,8,13,34,29,631
0.64250,-0.10885,0.05810,0.00000,0.03062,0.97807,-0.17373,0.0,2023,6,8,13,34,29,642
0.64260,-0.00385,-0.20440,0.00000,0.03123,0.97990,-0.17312,0.0,2023,6,8,13,34,29,653
0.64270,-0.02135,-0.13440,0.00000,0.03111,0.97807,-0.17495,0.0,2023,6,8,13,34,29,664
0.64280,-0.00385,-0.01190,0.00000,0.02891,0.97893,-0.17312,0.0,2023,6,8,13,34,29,675
0.64290,0.13615,-0.09940,0.00000,0.03135,0.97759,-0.17287,0.0,2023,6,8,13,34,29,686
0.64300,0.04865,-0.04690,0.00000,0.02940,0.97783,-0.17165,0.0,2023,6,8,13,34,29,698
0.64310,-0.10885,0.05810,0.00000,0.02989,0.97795,-0.17373,0.0,2023,6,8,13,34,29,709
0.64320,0.06615,-0.08190,0.00000,0.03196,0.97832,-0.17422,0.0,2023,6,8,13,34,29,720
0.64330,-0.00385,0.02310,0.00000,0.03209,0.97844,-0.17409,0.0,2023,6,8,13,34,29,731
0.64340,0.04865,-0.04690,0.00000,0.03026,0.97893,-0.17275,0.0,2023,6,8,13,34,29,742
0.64350,-0.09135,-0.04690,0.00000,0.02867,0.97942,-0.17373,0.0,2023,6,8,13,34,29,753
0.64360,0.20615,-0.02940,0.00000,0.03135,0.97820,-0.17361,0.0,2023,6,8,13,34,29,764
0.64370,0.15365,-0.13440,0.00000,0.03245,0.97832,-0.17507,0.0,2023,6,8,13,34,29,775
0.64380,-0.17885,0.02310,0.00000,0.03038,0.97978,-0.17470,0.0,2023,6,8,13,34,29,786
0.64390,0.03115,-0.04690,0.00000,0.03148,0.97710,-0.17324,0.0,2023,6,8,13,34,29,798
0.64400,0.11865,0.25060,0.00000,0.03001,0.97771,-0.17397,0.0,2023,6,8,13,34,29,809
0.64410,-0.16135,-0.01190,0.00000,0.02904,0.97905,-0.17409,0.0,2023,6,8,13,34,29,820
0.64420,-0.10885,-0.02940,0.00000,0.02965,0.97856,-0.17629,0.0,2023,6,8,13,34,29,831
0.64430,-0.14385,-0.11690,0.00000,0.03038,0.97990,-0.17239,0.0,2023,6,8,13,34,29,842
0.64440,0.06615,-0.02940,0.00000,0.02989,0.97881,-0.17348,0.0,2023,6,8,13,34,29,853
0.64450,0.10115,0.07560,0.00000,0.03099,0.97844,-0.17312,0.0,2023,6,8,13,34,29,864
0.64460,0.01365,-0.08190,0.00000,0.03087,0.97685,-0.17568,0.0,2023,6,8,13,34,29,875
0.64470,-0.12635,0.14560,0.00000,0.03123,0.97795,-0.17409,0.0,2023,6,8,13,34,29,886
0.64480,-0.10885,0.23310,0.00000,0.03123,0.97771,-0.17544,0.0,2023,6,8,13,34,29,898
0.64490,-0.16135,0.05810,0.00000,0.03099,0.97661,-0.17300,0.0,2023,6,8,13,34,29,909
0.64500,-0.00385,-0.01190,0.00000,0.02977,0.97868,-0.17068,0.0,2023,6,8,13,34,29,920
0.64510,0.08365,-0.20440,0.00000,0.02830,0.97576,-0.17653,0.0,2023,6,8,13,34,29,931
0.64520,0.08365,0.04060,0.00000,0.03221,0.97893,-0.17458,0.0,2023,6,8,13,34,29,942
0.64530,-0.00385,0.16310,0.00000,0.02977,0.97515,-0.17190,0.0,2023,6,8,13,34,29,953
0.64540,-0.16135,-0.01190,0.00000,0.02989,0.97698,-0.17653,0.0,2023,6,8,13,34,29,964
0.64550,0.13615,-0.15190,0.00000,0.03062,0.97881,-0.17434,0.0,2023,6,8,13,34,29,975
0.64560,0.04865,-0.04690,0.00000,0.03074,0.97600,-0.17507,0.0,2023,6,8,13,34,29,986
0.64570,-0.14385,0.00560,0.00000,0.02745,0.98039,-0.17556,0.0,2023,6,8,13,34,29,998
0.64580,-0.03885,-0.02940,0.00000,0.03038,0.97954,-0.17605,0.0,2023,6,8,13,34,29,9
0.64590,-0.14385,-0.13440,0.00000,0.03050,0.97942,-0.17348,0.0,2023,6,8,13,34,29,20
0.64600,0.01365,-0.16940,0.00000,0.03050,0.97600,-0.17275,0.0,2023,6,8,13,34,29,31
0.64610,-0.07385,0.19810,0.00000,0.03013,0.97893,-0.17690,0.0,2023,6,8,13,34,29,42
0.64620,0.04865,-0.02940,0.00000,0.03111,0.97942,-0.17190,0.0,2023,6,8,13,34,29,53
0.64630,-0.14385,0.11060,0.00000,0.03001,0.98051,-0.17373,0.0,2023,6,8,13,34,29,64
0.64640,0.11865,-0.08190,0.00000,0.02733,0.97868,-0.17141,0.0,2023,6,8,13,34,29,75
0.64650,0.10115,-0.08190,0.00000,0.02965,0.98064,-0.17470,0.0,2023,6,8,13,34,29,86
0.64660,-0.05635,0.07560,0.00000,0.02843,0.97978,-0.17373,0.0,2023,6,8,13,34,30,8
0.64670,-0.14385,0.07560,0.00000,0.02794,0.97649,-0.17336,0.0,2023,6,8,13,34,30,19
0.64680,0.01365,0.07560,0.00000,0.02928,0.97929,-0.17300,0.0,2023,6,8,13,34,30,30
0.64690,0.01365,0.07560,0.00000,0.03062,0.97917,-0.17324,0.0,2023,6,8,13,34,30,41
0.64700,-0.10885,0.14560,0.00000,0.03196,0.97954,-0.17251,0.0,2023,6,8,13,34,30,52
0.64710,-0.02135,0.05810,0.00000,0.03184,0.97990,-0.17385,0.0,2023,6,8,13,34,30,63
0.64720,-0.14385,0.21560,0.00000,0.03184,0.97698,-0.17458,0.0,2023,6,8,13,34,30,74
0.64730,0.20615,-0.04690,0.00000,0.03074,0.97832,-0.17361,0.0,2023,6,8,13,34,30,85
0.64740,-0.05635,0.19810,0.00000,0.03038,0.97698,-0.17397,0.0,2023,6,8,13,34,30,96
0.64750,0.11865,-0.20440,0.00000,0.03135,0.97600,-0.17348,0.0,2023,6,8,13,34,30,108
0.64760,-0.02135,-0.09940,0.00000,0.02977,0.97820,-0.17397,0.0,2023,6,8,13,34,30,119
0.64770,0.03115,-0.01190,0.00000,0.03233,0.97710,-0.17336,0.0,2023,6,8,13,34,30,130
0.64780,-0.03885,-0.09940,0.00000,0.03074,0.97917,-0.17519,0.0,2023,6,8,13,34,30,141
0.64790,-0.19635,-0.04690,0.00000,0.03013,0.97710,-0.17287,0.0,2023,6,8,13,34,30,152
0.64800,0.06615,-0.08190,0.00000,0.03038,0.97868,-0.17300,0.0,2023,6,8,13,34,30,163
0.64810,0.04865,0.00560,0.00000,0.03233,0.97722,-0.17141,0.0,2023,6,8,13,34,30,174
0.64820,-0.03885,0.04060,0.00000,0.03135,0.97771,-0.17483,0.0,2023,6,8,13,34,30,185
0.64830,0.10115,-0.16940,0.00000,0.03099,0.97868,-0.17397,0.0,2023,6,8,13,34,30,196
0.64840,0.01365,-0.02940,0.00000,0.02977,0.97710,-0.17495,0.0,2023,6,8,13,34,30,208
0.64850,0.03115,0.05810,0.00000,0.03135,0.97868,-0.17385,0.0,2023,6,8,13,34,30,219
0.64860,-0.03885,-0.23940,0.00000,0.03123,0.98112,-0.17348,0.0,2023,6,8,13,34,30,230
0.64870,-0.03885,-0.11690,0.00000,0.03135,0.97893,-0.17519,0.0,2023,6,8,13,34,30,241
0.64880,0.13615,-0.04690,0.00000,0.03172,0.97905,-0.17385,0.0,2023,6,8,13,34,30,252
0.64890,0.04865,0.09310,0.00000,0.03135,0.97563,-0.17361,0.0,2023,6,8,13,34,30,263
0.64900,-0.17885,0.21560,0.00000,0.03355,0.97576,-0.17434,0.0,2023,6,8,13,34,30,274
0.64910,-0.09135,0.11060,0.00000,0.02940,0.97807,-0.17263,0.0,2023,6,8,13,34,30,285
0.64920,0.03115,-0.09940,0.00000,0.03160,0.97868,-0.17226,0.0,2023,6,8,13,34,30,296
0.64930,-0.07385,-0.15190,0.00000,0.03135,0.97722,-0.17251,0.0,2023,6,8,13,34,30,308
0.64940,0.01365,-0.02940,0.00000,0.03209,0.97759,-0.17446,0.0,2023,6,8,13,34,30,319
0.64950,-0.09135,0.16310,0.00000,0.02794,0.97771,-0.17251,0.0,2023,6,8,13,34,30,330
0.64960,0.29365,-0.02940,0.00000,0.03062,0.97783,-0.17434,0.0,2023,6,8,13,34,30,341
0.64970,0.03115,0.04060,0.00000,0.03111,0.97795,-0.17300,0.0,2023,6,8,13,34,30,352
0.64980,-0.07385,0.23310,0.00000,0.03026,0.97807,-0.17324,0.0,2023,6,8,13,34,30,363
0.64990,-0.00385,-0.08190,0.00000,0.03062,0.97783,-0.17300,0.0,2023,6,8,13,34,30,374
0.65000,-0.24885,-0.09940,0.00000,0.03209,0.97990,-0.17324,0.0,2023,6,8,13,34,30,385
0.65010,0.10115,-0.11690,0.00000,0.02843,0.97588,-0.17434,0.0,2023,6,8,13,34,30,396
0.65020,-0.16135,0.11060,0.00000,0.02855,0.98112,-0.17275,0.0,2023,6,8,13,34,30,408
0.65030,0.03115,0.04060,0.00000,0.03013,0.97783,-0.17495,0.0,2023,6,8,13,34,30,419
0.65040,0.18865,-0.04690,0.00000,0.02952,0.97795,-0.17385,0.0,2023,6,8,13,34,30,430
0.65050,-0.05635,-0.04690,0.00000,0.03062,0.97905,-0.17312,0.0,2023,6,8,13,34,30,441
0.65060,0.01365,0.04060,0.00000,0.03038,0.97893,-0.17470,0.0,2023,6,8,13,34,30,452
0.65070,0.18865,-0.04690,0.00000,0.02989,0.97917,-0.17129,0.0,2023,6,8,13,34,30,463
0.65080,-0.12635,0.26810,0.00000,0.03160,0.97661,-0.17373,0.0,2023,6,8,13,34,30,474
0.65090,0.06615,-0.11690,0.00000,0.03160,0.97685,-0.17275,0.0,2023,6,8,13,34,30,485
0.65100,-0.12635,0.12810,0.00000,0.02806,0.97917,-0.17202,0.0,2023,6,8,13,34,30,496
0.65110,0.08365,0.23310,0.00000,0.03099,0.97990,-0.17653,0.0,2023,6,8,13,34,30,508
0.65120,-0.03885,0.07560,0.00000,0.02879,0.97612,-0.17336,0.0,2023,6,8,13,34,30,519
0.65130,0.03115,0.02310,0.00000,0.03038,0.97844,-0.17239,0.0,2023,6,8,13,34,30,530
0.65140,0.01365,-0.08190,0.00000,0.03001,0.97746,-0.17178,0.0,2023,6,8,13,34,30,541
0.65150,-0.07385,0.09310,0.00000,0.03160,0.97820,-0.17336,0.0,2023,6,8,13,34,30,552
0.65160,-0.02135,-0.27440,0.00000,0.02830,0.98039,-0.17251,0.0,2023,6,8,13,34,30,563
0.65170,-0.07385,0.12810,0.00000,0.03026,0.97820,-0.17251,0.0,2023,6,8,13,34,30,574
0.65180,-0.14385,0.02310,0.00000,0.03013,0.97551,-0.17263,0.0,2023,6,8,13,34,30,585
0.65190,-0.03885,-0.04690,0.00000,0.03001,0.97893,-0.17483,0.0,2023,6,8,13,34,30,596
0.65200,-0.14385,0.07560,0.00000,0.03245,0.97783,-0.17214,0.0,2023,6,8,13,34,30,608
0.65210,-0.00385,-0.01190,0.00000,0.02843,0.97710,-0.17361,0.0,2023,6,8,13,34,30,619
0.65220,0.06615,0.07560,0.00000,0.03160,0.97929,-0.17129,0.0,2023,6,8,13,34,30,630
0.65230,0.13615,-0.13440,0.00000,0.03233,0.97710,-0.17348,0.0,2023,6,8,13,34,30,641
0.65240,-0.17885,0.14560,0.00000,0.02806,0.97588,-0.17202,0.0,2023,6,8,13,34,30,652
0.65250,-0.02135,0.16310,0.00000,0.02940,0.97771,-0.17409,0.0,2023,6,8,13,34,30,663
0.65260,-0.09135,0.07560,0.00000,0.03148,0.98015,-0.17385,0.0,2023,6,8,13,34,30,674
0.65270,-0.00385,0.09310,0.00000,0.03087,0.97734,-0.17214,0.0,2023,6,8,13,34,30,685
0.65280,-0.05635,0.04060,0.00000,0.03148,0.97844,-0.17385,0.0,2023,6,8,13,34,30,696
0.65290,0.01365,-0.01190,0.00000,0.03087,0.97856,-0.17385,0.0,2023,6,8,13,34,30,708
0.65300,-0.14385,0.02310,0.00000,0.03294,0.97893,-0.17190,0.0,2023,6,8,13,34,30,719
0.65310,-0.09135,-0.15190,0.00000,0.03038,0.97795,-0.17324,0.0,2023,6,8,13,34,30,730
0.65320,0.08365,0.09310,0.00000,0.03111,0.97710,-0.17043,0.0,2023,6,8,13,34,30,741
0.65330,-0.07385,0.00560,0.00000,0.03233,0.97844,-0.17153,0.0,2023,6,8,13,34,30,752
0.65340,-0.07385,-0.01190,0.00000,0.03087,0.98051,-0.17483,0.0,2023,6,8,13,34,30,763
0.65350,-0.00385,-0.15190,0.00000,0.03038,0.97954,-0.17556,0.0,2023,6,8,13,34,30,774
0.65360,0.10115,-0.06440,0.00000,0.03087,0.97820,-0.17361,0.0,2023,6,8,13,34,30,785
0.65370,-0.02135,0.11060,0.00000,0.03062,0.97759,-0.17275,0.0,2023,6,8,13,34,30,796
0.65380,-0.09135,-0.13440,0.00000,0.03160,0.97795,-0.17190,0.0,2023,6,8,13,34,30,808
0.65390,-0.07385,-0.01190,0.00000,0.02684,0.97746,-0.17385,0.0,2023,6,8,13,34,30,819
0.65400,-0.12635,0.16310,0.00000,0.03233,0.97771,-0.17434,0.0,2023,6,8,13,34,30,830
0.65410,-0.02135,-0.13440,0.00000,0.02928,0.97966,-0.17287,0.0,2023,6,8,13,34,30,841
0.65420,-0.00385,0.18060,0.00000,0.02806,0.97734,-0.17385,0.0,2023,6,8,13,34,30,852
0.65430,-0.05635,-0.04690,0.00000,0.03050,0.97624,-0.17226,0.0,2023,6,8,13,34,30,863
0.65440,-0.00385,-0.16940,0.00000,0.02916,0.97942,-0.17275,0.0,2023,6,8,13,34,30,874
0.65450,0.03115,-0.09940,0.00000,0.02965,0.97942,-0.17397,0.0,2023,6,8,13,34,30,885
0.65460,0.10115,0.04060,0.00000,0.02977,0.97820,-0.17434,0.0,2023,6,8,13,34,30,896
0.65470,-0.00385,-0.18690,0.00000,0.03001,0.97881,-0.17214,0.0,2023,6,8,13,34,30,908
0.65480,-0.12635,0.04060,0.00000,0.03074,0.98161,-0.17287,0.0,2023,6,8,13,34,30,919
0.65490,-0.16135,0.32060,0.00000,0.03062,0.97990,-0.17287,0.0,2023,6,8,13,34,30,930
0.65500,0.06615,0.05810,0.00000,0.03087,0.97722,-0.17239,0.0,2023,6,8,13,34,30,941
0.65510,-0.09135,0.04060,0.00000,0.03074,0.97832,-0.17287,0.0,2023,6,8,13,34,30,952
0.65520,0.01365,0.11060,0.00000,0.03270,0.97881,-0.17434,0.0,2023,6,8,13,34,30,963
0.65530,0.13615,0.05810,0.00000,0.03135,0.97649,-0.17178,0.0,2023,6,8,13,34,30,974
0.65540,-0.00385,0.14560,0.00000,0.03111,0.97832,-0.17324,0.0,2023,6,8,13,34,30,985
0.65550,-0.09135,0.02310,0.00000,0.03050,0.97612,-0.17458,0.0,2023,6,8,13,34,30,996
0.65560,-0.02135,0.02310,0.00000,0.02989,0.97929,-0.17300,0.0,2023,6,8,13,34,30,8
0.65570,0.01365,0.12810,0.00000,0.02928,0.97844,-0.17507,0.0,2023,6,8,13,34,30,19
0.65580,-0.07385,0.05810,0.00000,0.03050,0.97929,-0.17397,0.0,2023,6,8,13,34,30,30
0.65590,0.03115,0.18060,0.00000,0.03038,0.97746,-0.17031,0.0,2023,6,8,13,34,30,41
0.65600,-0.03885,0.12810,0.00000,0.03062,0.97893,-0.17312,0.0,2023,6,8,13,34,30,52
0.65610,-0.02135,0.09310,0.00000,0.02916,0.97893,-0.17458,0.0,2023,6,8,13,34,30,63
0.65620,0.10115,-0.04690,0.00000,0.02989,0.97807,-0.17544,0.0,2023,6,8,13,34,30,74
0.65630,-0.17885,0.16310,0.00000,0.03172,0.97783,-0.17275,0.0,2023,6,8,13,34,30,85
0.65640,0.06615,-0.02940,0.00000,0.03294,0.97624,-0.17214,0.0,2023,6,8,13,34,30,96
0.65650,0.06615,0.04060,0.00000,0.03013,0.97832,-0.17214,0.0,2023,6,8,13,34,30,108
0.65660,-0.05635,-0.02940,0.00000,0.02989,0.97966,-0.17104,0.0,2023,6,8,13,34,30,119
0.65670,-0.00385,0.16310,0.00000,0.03062,0.97746,-0.17263,0.0,2023,6,8,13,34,30,130
0.65680,-0.00385,-0.01190,0.00000,0.02989,0.97844,-0.17714,0.0,2023,6,8,13,34,30,141
0.65690,-0.07385,-0.08190,0.00000,0.03026,0.97942,-0.17446,0.0,2023,6,8,13,34,30,152
0.65700,-0.05635,0.16310,0.00000,0.03282,0.97685,-0.17397,0.0,2023,6,8,13,34,30,163
0.65710,0.04865,0.04060,0.00000,0.03001,0.97966,-0.17409,0.0,2023,6,8,13,34,30,174
0.65720,-0.14385,-0.08190,0.00000,0.03135,0.97929,-0.17165,0.0,2023,6,8,13,34,30,185
0.65730,-0.02135,-0.02940,0.00000,0.03221,0.97942,-0.17214,0.0,2023,6,8,13,34,30,196
0.65740,0.13615,-0.06440,0.00000,0.03306,0.97881,-0.17275,0.0,2023,6,8,13,34,30,208
0.65750,0.11865,-0.25690,0.00000,0.02879,0.97978,-0.17263,0.0,2023,6,8,13,34,30,219
0.65760,-0.05635,-0.09940,0.00000,0.02904,0.97527,-0.17531,0.0,2023,6,8,13,34,30,230
0.65770,-0.07385,0.11060,0.00000,0.03355,0.97856,-0.17483,0.0,2023,6,8,13,34,30,241
0.65780,-0.05635,-0.09940,0.00000,0.03123,0.97966,-0.17397,0.0,2023,6,8,13,34,30,252
0.65790,-0.12635,0.11060,0.00000,0.02757,0.97966,-0.17287,0.0,2023,6,8,13,34,30,263
0.65800,-0.17885,0.05810,0.00000,0.03355,0.97795,-0.17422,0.0,2023,6,8,13,34,30,274
0.65810,-0.02135,0.07560,0.00000,0.03111,0.98003,-0.17361,0.0,2023,6,8,13,34,30,285
0.65820,0.11865,-0.01190,0.00000,0.03209,0.97795,-0.17409,0.0,2023,6,8,13,34,30,296
0.65830,-0.02135,-0.11690,0.00000,0.03050,0.97795,-0.17312,0.0,2023,6,8,13,34,30,308
0.65840,-0.07385,-0.01190,0.00000,0.02843,0.97844,-0.17251,0.0,2023,6,8,13,34,30,319
0.65850,-0.05635,-0.09940,0.00000,0.03074,0.97685,-0.17336,0.0,2023,6,8,13,34,30,330
0.65860,-0.09135,0.05810,0.00000,0.03026,0.97966,-0.17385,0.0,2023,6,8,13,34,30,341
0.65870,-0.14385,-0.20440,0.00000,0.02977,0.97844,-0.17165,0.0,2023,6,8,13,34,30,352
0.65880,0.13615,0.05810,0.00000,0.03209,0.97844,-0.17275,0.0,2023,6,8,13,34,30,363
0.65890,-0.19635,-0.02940,0.00000,0.03087,0.97820,-0.17422,0.0,2023,6,8,13,34,30,374
0.65900,0.17115,0.05810,0.00000,0.03172,0.97746,-0.17275,0.0,2023,6,8,13,34,30,385
0.65910,0.13615,0.11060,0.00000,0.03001,0.97942,-0.17361,0.0,2023,6,8,13,34,30,396
0.65920,0.10115,-0.16940,0.00000,0.03221,0.97588,-0.17239,0.0,2023,6,8,13,34,30,408
0.65930,0.18865,-0.01190,0.00000,0.02952,0.97832,-0.17300,0.0,2023,6,8,13,34,30,419
0.65940,-0.10885,0.12810,0.00000,0.03062,0.97759,-0.17214,0.0,2023,6,8,13,34,30,430
0.65950,0.08365,0.05810,0.00000,0.02806,0.97661,-0.17251,0.0,2023,6,8,13,34,30,441
0.65960,-0.12635,-0.02940,0.00000,0.02989,0.97807,-0.17348,0.0,2023,6,8,13,34,30,452
0.65970,-0.10885,0.04060,0.00000,0.02977,0.98039,-0.17397,0.0,2023,6,8,13,34,30,463
0.65980,0.01365,-0.15190,0.00000,0.03148,0.97771,-0.17470,0.0,2023,6,8,13,34,30,474
0.65990,-0.09135,0.05810,0.00000,0.03001,0.97807,-0.17275,0.0,2023,6,8,13,34,30,485
0.66000,0.11865,-0.02940,0.00000,0.03026,0.97868,-0.17373,0.0,2023,6,8,13,34,30,496
0.66010,-0.21385,-0.09940,0.00000,0.02904,0.97868,-0.17300,0.0,2023,6,8,13,34,30,508
0.66020,0.01365,-0.06440,0.00000,0.03038,0.97771,-0.17287,0.0,2023,6,8,13,34,30,519
0.66030,-0.12635,-0.27440,0.00000,0.03074,0.98015,-0.17214,0.0,2023,6,8,13,34,30,530
0.66040,-0.12635,-0.04690,0.00000,0.03245,0.97807,-0.17336,0.0,2023,6,8,13,34,30,541
0.66050,-0.00385,0.02310,0.00000,0.03013,0.97771,-0.17361,0.0,2023,6,8,13,34,30,552
0.66060,-0.14385,0.02310,0.00000,0.03099,0.98076,-0.17251,0.0,2023,6,8,13,34,30,563
0.66070,-0.02135,0.04060,0.00000,0.03221,0.97942,-0.17104,0.0,2023,6,8,13,34,30,574
0.66080,-0.02135,0.02310,0.00000,0.02843,0.97746,-0.17226,0.0,2023,6,8,13,34,30,585
0.66090,-0.17885,0.21560,0.00000,0.03148,0.97637,-0.17458,0.0,2023,6,8,13,34,30,596
0.66100,0.06615,0.02310,0.00000,0.02977,0.98039,-0.17666,0.0,2023,6,8,13,34,30,608
0.66110,0.03115,0.05810,0.00000,0.03038,0.98064,-0.17263,0.0,2023,6,8,13,34,30,619
0.66120,-0.12635,-0.16940,0.00000,0.02916,0.97820,-0.17251,0.0,2023,6,8,13,34,30,630
0.66130,0.08365,0.00560,0.00000,0.02989,0.97844,-0.17178,0.0,2023,6,8,13,34,30,641
0.66140,-0.00385,0.00560,0.00000,0.03111,0.97942,-0.17507,0.0,2023,6,8,13,34,30,652
0.66150,-0.10885,0.16310,0.00000,0.03172,0.97856,-0.17348,0.0,2023,6,8,13,34,30,663
0.66160,0.06615,-0.11690,0.00000,0.03074,0.97929,-0.17300,0.0,2023,6,8,13,34,30,674
0.66170,-0.14385,0.11060,0.00000,0.03074,0.97868,-0.17336,0.0,2023,6,8,13,34,30,685
0.66180,-0.00385,-0.13440,0.00000,0.03074,0.97917,-0.17190,0.0,2023,6,8,13,34,30,696
0.66190,-0.02135,0.19810,0.00000,0.02806,0.97746,-0.17385,0.0,2023,6,8,13,34,30,708
0.66200,-0.09135,-0.08190,0.00000,0.03001,0.97795,-0.17300,0.0,2023,6,8,13,34,30,719
0.66210,0.03115,0.14560,0.00000,0.03099,0.97954,-0.17129,0.0,2023,6,8,13,34,30,730
0.66220,0.04865,-0.15190,0.00000,0.03038,0.97881,-0.17336,0.0,2023,6,8,13,34,30,741
0.66230,0.22365,-0.08190,0.00000,0.02989,0.97771,-0.17300,0.0,2023,6,8,13,34,30,752
0.66240,-0.12635,0.02310,0.00000,0.03184,0.98039,-0.17434,0.0,2023,6,8,13,34,30,763
0.66250,-0.02135,0.02310,0.00000,0.03050,0.97905,-0.17361,0.0,2023,6,8,13,34,30,774
0.66260,-0.12635,0.04060,0.00000,0.02940,0.97771,-0.17458,0.0,2023,6,8,13,34,30,785
0.66270,0.01365,0.04060,0.00000,0.03148,0.97649,-0.17470,0.0,2023,6,8,13,34,30,796
0.66280,-0.03885,-0.01190,0.00000,0.02916,0.97661,-0.17178,0.0,2023,6,8,13,34,30,808
0.66290,-0.03885,-0.32690,0.00000,0.03160,0.97624,-0.17178,0.0,2023,6,8,13,34,30,819
0.66300,-0.09135,0.30310,0.00000,0.03221,0.97820,-0.17251,0.0,2023,6,8,13,34,30,830
0.66310,-0.03885,-0.11690,0.00000,0.03074,0.97795,-0.17580,0.0,2023,6,8,13,34,30,841
0.66320,-0.03885,-0.11690,0.00000,0.03050,0.97905,-0.17361,0.0,2023,6,8,13,34,30,852
0.66330,0.06615,-0.16940,0.00000,0.02940,0.97515,-0.17239,0.0,2023,6,8,13,34,30,863
0.66340,0.06615,-0.01190,0.00000,0.03233,0.97600,-0.17483,0.0,2023,6,8,13,34,30,874
0.66350,-0.10885,-0.01190,0.00000,0.03111,0.97588,-0.17165,0.0,2023,6,8,13,34,30,885
0.66360,0.01365,0.12810,0.00000,0.02989,0.97783,-0.17336,0.0,2023,6,8,13,34,30,896
0.66370,-0.00385,0.00560,0.00000,0.02977,0.97844,-0.17531,0.0,2023,6,8,13,34,30,908
0.66380,0.13615,0.14560,0.00000,0.03184,0.97795,-0.17348,0.0,2023,6,8,13,34,30,919
0.66390,-0.00385,0.07560,0.00000,0.03355,0.98039,-0.17312,0.0,2023,6,8,13,34,30,930
0.66400,0.18865,0.16310,0.00000,0.03270,0.97990,-0.17263,0.0,2023,6,8,13,34,30,941
0.66410,0.01365,0.14560,0.00000,0.03221,0.97832,-0.17092,0.0,2023,6,8,13,34,30,952
0.66420,0.06615,-0.15190,0.00000,0.03026,0.97637,-0.17434,0.0,2023,6,8,13,34,30,963
0.66430,0.11865,0.05810,0.00000,0.02965,0.97929,-0.17275,0.0,2023,6,8,13,34,30,974
0.66440,-0.07385,-0.04690,0.00000,0.03087,0.97795,-0.17287,0.0,2023,6,8,13,34,30,985
0.66450,-0.03885,-0.09940,0.00000,0.03196,0.97685,-0.17178,0.0,2023,6,8,13,34,30,996
0.66460,-0.14385,0.12810,0.00000,0.02879,0.97759,-0.17312,0.0,2023,6,8,13,34,30,8
0.66470,-0.07385,0.02310,0.00000,0.03050,0.97746,-0.17458,0.0,2023,6,8,13,34,30,19
0.66480,0.03115,0.09310,0.00000,0.03135,0.97966,-0.17336,0.0,2023,6,8,13,34,30,30
0.66490,0.04865,0.04060,0.00000,0.03074,0.97807,-0.17483,0.0,2023,6,8,13,34,30,41
0.66500,-0.03885,-0.06440,0.00000,0.03074,0.97905,-0.16982,0.0,2023,6,8,13,34,30,52
0.66510,0.18865,-0.09940,0.00000,0.03087,0.97551,-0.17165,0.0,2023,6,8,13,34,30,63
0.66520,0.04865,-0.15190,0.00000,0.02855,0.97893,-0.17275,0.0,2023,6,8,13,34,30,74
0.66530,-0.02135,0.12810,0.00000,0.03184,0.97746,-0.17385,0.0,2023,6,8,13,34,30,85
0.66540,-0.17885,0.12810,0.00000,0.03111,0.97698,-0.17336,0.0,2023,6,8,13,34,30,96
0.66550,0.04865,-0.01190,0.00000,0.02977,0.97466,-0.17275,0.0,2023,6,8,13,34,30,108
0.66560,-0.03885,0.04060,0.00000,0.03087,0.97746,-0.17324,0.0,2023,6,8,13,34,30,119
0.66570,0.10115,-0.06440,0.00000,0.02867,0.97673,-0.17239,0.0,2023,6,8,13,34,30,130
0.66580,-0.17885,0.11060,0.00000,0.03038,0.97844,-0.17397,0.0,2023,6,8,13,34,30,141
0.66590,-0.00385,-0.04690,0.00000,0.02843,0.97710,-0.17458,0.0,2023,6,8,13,34,30,152
0.66600,0.01365,-0.08190,0.00000,0.03172,0.97978,-0.17397,0.0,2023,6,8,13,34,30,163
0.66610,0.01365,0.00560,0.00000,0.02989,0.97746,-0.17568,0.0,2023,6,8,13,34,30,174
0.66620,0.03115,-0.04690,0.00000,0.02940,0.97856,-0.17153,0.0,2023,6,8,13,34,30,185
0.66630,-0.19635,0.04060,0.00000,0.02952,0.97746,-0.17202,0.0,2023,6,8,13,34,30,196
0.66640,-0.05635,-0.02940,0.00000,0.03038,0.97734,-0.17446,0.0,2023,6,8,13,34,30,208
0.66650,-0.03885,-0.09940,0.00000,0.02928,0.97917,-0.17385,0.0,2023,6,8,13,34,30,219
0.66660,-0.00385,-0.15190,0.00000,0.02940,0.97929,-0.17483,0.0,2023,6,8,13,34,30,230
0.66670,0.22365,-0.11690,0.00000,0.03209,0.97820,-0.17397,0.0,2023,6,8,13,34,30,241
0.66680,0.01365,0.26810,0.00000,0.03026,0.97917,-0.17409,0.0,2023,6,8,13,34,30,252
0.66690,-0.17885,0.14560,0.00000,0.03160,0.98076,-0.17190,0.0,2023,6,8,13,34,30,263
0.66700,-0.19635,0.02310,0.00000,0.03013,0.97637,-0.17348,0.0,2023,6,8,13,34,30,274
0.66710,-0.03885,0.18060,0.00000,0.03355,0.97844,-0.17397,0.0,2023,6,8,13,34,30,285
0.66720,-0.03885,0.00560,0.00000,0.03221,0.97734,-0.17434,0.0,2023,6,8,13,34,30,296
0.66730,-0.21385,0.12810,0.00000,0.03184,0.97624,-0.17324,0.0,2023,6,8,13,34,30,308
0.66740,0.08365,-0.06440,0.00000,0.03221,0.97624,-0.17348,0.0,2023,6,8,13,34,30,319
0.66750,-0.12635,-0.02940,0.00000,0.03111,0.97966,-0.17409,0.0,2023,6,8,13,34,30,330
0.66760,-0.02135,0.04060,0.00000,0.02904,0.97807,-0.17373,0.0,2023,6,8,13,34,30,341
0.66770,0.03115,-0.06440,0.00000,0.03087,0.97820,-0.17129,0.0,2023,6,8,13,34,30,352
0.66780,0.01365,0.04060,0.00000,0.02928,0.97844,-0.17141,0.0,2023,6,8,13,34,30,363
0.66790,-0.10885,0.14560,0.00000,0.03416,0.97734,-0.17373,0.0,2023,6,8,13,34,30,374
0.66800,-0.10885,-0.13440,0.00000,0.02830,0.97966,-0.17409,0.0,2023,6,8,13,34,30,385
0.66810,0.13615,-0.11690,0.00000,0.02989,0.97990,-0.17190,0.0,2023,6,8,13,34,30,396
0.66820,-0.00385,0.11060,0.00000,0.03221,0.97807,-0.17348,0.0,2023,6,8,13,34,30,408
0.66830,-0.07385,-0.02940,0.00000,0.03013,0.97673,-0.17263,0.0,2023,6,8,13,34,30,419
0.66840,-0.02135,0.16310,0.00000,0.03111,0.97856,-0.17226,0.0,2023,6,8,13,34,30,430
0.66850,0.01365,-0.04690,0.00000,0.03026,0.97832,-0.17312,0.0,2023,6,8,13,34,30,441
0.66860,-0.03885,0.07560,0.00000,0.03062,0.97746,-0.17251,0.0,2023,6,8,13,34,30,452
0.66870,-0.02135,0.05810,0.00000,0.03318,0.97820,-0.17117,0.0,2023,6,8,13,34,30,463
0.66880,-0.02135,-0.02940,0.00000,0.03062,0.98100,-0.17153,0.0,2023,6,8,13,34,30,474
0.66890,0.03115,0.16310,0.00000,0.03001,0.97990,-0.17348,0.0,2023,6,8,13,34,30,485
0.66900,-0.02135,0.19810,0.00000,0.03099,0.97661,-0.17300,0.0,2023,6,8,13,34,30,496
0.66910,0.15365,-0.11690,0.00000,0.03099,0.97881,-0.17226,0.0,2023,6,8,13,34,30,508
0.66920,-0.00385,-0.11690,0.00000,0.03111,0.98039,-0.17019,0.0,2023,6,8,13,34,30,519
0.66930,-0.00385,-0.08190,0.00000,0.02867,0.97942,-0.17287,0.0,2023,6,8,13,34,30,530
0.66940,-0.07385,0.02310,0.00000,0.03087,0.97856,-0.17592,0.0,2023,6,8,13,34,30,541
0.66950,-0.10885,0.07560,0.00000,0.03355,0.98051,-0.17068,0.0,2023,6,8,13,34,30,552
0.66960,-0.05635,-0.01190,0.00000,0.03038,0.97844,-0.17226,0.0,2023,6,8,13,34,30,563
0.66970,0.06615,-0.01190,0.00000,0.03074,0.97954,-0.17129,0.0,2023,6,8,13,34,30,574
0.66980,0.10115,-0.06440,0.00000,0.03050,0.97844,-0.17226,0.0,2023,6,8,13,34,30,585
0.66990,-0.12635,0.14560,0.00000,0.03148,0.97771,-0.17275,0.0,2023,6,8,13,34,30,596
0.67000,-0.03885,0.21560,0.00000,0.02916,0.97844,-0.17165,0.0,2023,6,8,13,34,30,608
0.67010,-0.19635,0.09310,0.00000,0.03123,0.97820,-0.17434,0.0,2023,6,8,13,34,30,619
0.67020,-0.02135,0.28560,0.00000,0.02977,0.97868,-0.17251,0.0,2023,6,8,13,34,30,630
0.67030,0.15365,0.05810,0.00000,0.03099,0.97868,-0.17214,0.0,2023,6,8,13,34,30,641
0.67040,-0.10885,-0.11690,0.00000,0.03026,0.97771,-0.17226,0.0,2023,6,8,13,34,30,652
0.67050,-0.07385,0.09310,0.00000,0.03099,0.98015,-0.17312,0.0,2023,6,8,13,34,30,663
0.67060,-0.16135,-0.20440,0.00000,0.02843,0.97771,-0.17117,0.0,2023,6,8,13,34,30,674
0.67070,-0.03885,-0.01190,0.00000,0.03074,0.97868,-0.17312,0.0,2023,6,8,13,34,30,685
0.67080,-0.00385,-0.01190,0.00000,0.03087,0.97734,-0.17422,0.0,2023,6,8,13,34,30,696
0.67090,-0.00385,0.12810,0.00000,0.03013,0.97942,-0.17531,0.0,2023,6,8,13,34,30,708
0.67100,-0.00385,-0.04690,0.00000,0.03318,0.97856,-0.17275,0.0,2023,6,8,13,34,30,719
0.67110,-0.10885,-0.02940,0.00000,0.03087,0.97771,-0.17275,0.0,2023,6,8,13,34,30,730
0.67120,0.06615,-0.25690,0.00000,0.03050,0.97783,-0.17531,0.0,2023,6,8,13,34,30,741
0.67130,0.03115,0.02310,0.00000,0.03026,0.98003,-0.17373,0.0,2023,6,8,13,34,30,752
0.67140,-0.02135,0.02310,0.00000,0.03074,0.97746,-0.17373,0.0,2023,6,8,13,34,30,763
0.67150,0.01365,-0.16940,0.00000,0.03099,0.97844,-0.17251,0.0,2023,6,8,13,34,30,774
0.67160,0.27615,-0.20440,0.00000,0.03026,0.97795,-0.17422,0.0,2023,6,8,13,34,30,785
0.67170,0.03115,-0.01190,0.00000,0.03099,0.97807,-0.17202,0.0,2023,6,8,13,34,30,796
0.67180,0.11865,0.09310,0.00000,0.02977,0.97820,-0.17495,0.0,2023,6,8,13,34,30,808
0.67190,0.06615,0.12810,0.00000,0.03087,0.97868,-0.17275,0.0,2023,6,8,13,34,30,819
0.67200,-0.23135,-0.20440,0.00000,0.03038,0.97978,-0.17336,0.0,2023,6,8,13,34,30,830
0.67210,-0.00385,0.11060,0.00000,0.03050,0.97649,-0.17287,0.0,2023,6,8,13,34,30,841
0.67220,0.03115,-0.09940,0.00000,0.02904,0.98039,-0.17348,0.0,2023,6,8,13,34,30,852
0.67230,-0.21385,0.09310,0.00000,0.02794,0.97917,-0.17336,0.0,2023,6,8,13,34,30,863
0.67240,0.01365,0.12810,0.00000,0.03074,0.97624,-0.17373,0.0,2023,6,8,13,34,30,874
0.67250,-0.12635,-0.04690,0.00000,0.03026,0.97856,-0.17324,0.0,2023,6,8,13,34,30,885
0.67260,0.03115,0.00560,0.00000,0.03013,0.97917,-0.17019,0.0,2023,6,8,13,34,30,896
0.67270,-0.16135,0.11060,0.00000,0.03184,0.97771,-0.17348,0.0,2023,6,8,13,34,30,908
0.67280,-0.02135,0.19810,0.00000,0.03257,0.98015,-0.17434,0.0,2023,6,8,13,34,30,919
0.67290,-0.12635,0.21560,0.00000,0.03013,0.97698,-0.17324,0.0,2023,6,8,13,34,30,930
0.67300,-0.10885,-0.04690,0.00000,0.03062,0.97990,-0.17239,0.0,2023,6,8,13,34,30,941
0.67310,-0.02135,-0.22190,0.00000,0.03099,0.97807,-0.17226,0.0,2023,6,8,13,34,30,952
0.67320,0.01365,0.14560,0.00000,0.03160,0.97856,-0.17373,0.0,2023,6,8,13,34,30,963
0.67330,-0.03885,-0.13440,0.00000,0.02867,0.97942,-0.17287,0.0,2023,6,8,13,34,30,974
0.67340,0.04865,0.04060,0.00000,0.03050,0.98051,-0.17495,0.0,2023,6,8,13,34,30,985
0.67350,-0.02135,0.05810,0.00000,0.02977,0.97771,-0.17141,0.0,2023,6,8,13,34,30,996
0.67360,-0.00385,0.11060,0.00000,0.03001,0.97698,-0.17495,0.0,2023,6,8,13,34,30,8
0.67370,0.06615,-0.08190,0.00000,0.03050,0.97685,-0.17129,0.0,2023,6,8,13,34,30,19
0.67380,-0.02135,0.18060,0.00000,0.03062,0.97795,-0.17092,0.0,2023,6,8,13,34,30,30
0.67390,0.03115,0.07560,0.00000,0.03148,0.97868,-0.17019,0.0,2023,6,8,13,34,30,41
0.67400,-0.07385,-0.09940,0.00000,0.03135,0.97795,-0.17178,0.0,2023,6,8,13,34,30,52
0.67410,-0.35385,0.21560,0.00000,0.03196,0.98015,-0.17165,0.0,2023,6,8,13,34,30,63
0.67420,-0.17885,0.00560,0.00000,0.03099,0.98039,-0.17275,0.0,2023,6,8,13,34,30,74
0.67430,0.06615,0.19810,0.00000,0.02965,0.97893,-0.17287,0.0,2023,6,8,13,34,30,85
0.67440,-0.12635,-0.18690,0.00000,0.03087,0.97966,-0.17141,0.0,2023,6,8,13,34,30,96
0.67450,-0.03885,-0.18690,0.00000,0.03038,0.97624,-0.17336,0.0,2023,6,8,13,34,30,108
0.67460,0.08365,-0.01190,0.00000,0.03001,0.97844,-0.17226,0.0,2023,6,8,13,34,30,119
0.67470,-0.07385,0.05810,0.00000,0.03282,0.97881,-0.17165,0.0,2023,6,8,13,34,30,130
0.67480,-0.03885,-0.16940,0.00000,0.03196,0.97807,-0.17373,0.0,2023,6,8,13,34,30,141
0.67490,0.08365,-0.06440,0.00000,0.03221,0.97783,-0.17287,0.0,2023,6,8,13,34,30,152
0.67500,-0.26635,-0.13440,0.00000,0.03013,0.97917,-0.17348,0.0,2023,6,8,13,34,30,163
0.67510,-0.02135,-0.15190,0.00000,0.03074,0.97710,-0.17300,0.0,2023,6,8,13,34,30,174
0.67520,-0.00385,0.11060,0.00000,0.02965,0.98039,-0.17324,0.0,2023,6,8,13,34,30,185
0.67530,-0.26635,-0.06440,0.00000,0.03148,0.97795,-0.17361,0.0,2023,6,8,13,34,30,196
0.67540,-0.03885,0.14560,0.00000,0.03148,0.97917,-0.17361,0.0,2023,6,8,13,34,30,208
0.67550,0.11865,0.02310,0.00000,0.03013,0.98003,-0.17263,0.0,2023,6,8,13,34,30,219
0.67560,0.11865,0.12810,0.00000,0.02928,0.97820,-0.17129,0.0,2023,6,8,13,34,30,230
0.67570,0.08365,0.07560,0.00000,0.02928,0.97771,-0.17446,0.0,2023,6,8,13,34,30,241
0.67580,0.01365,-0.04690,0.00000,0.03001,0.97820,-0.17409,0.0,2023,6,8,13,34,30,252
0.67590,-0.24885,0.09310,0.00000,0.03148,0.97881,-0.17336,0.0,2023,6,8,13,34,30,263
0.67600,-0.10885,-0.11690,0.00000,0.03257,0.97783,-0.17336,0.0,2023,6,8,13,34,30,274
0.67610,0.10115,-0.13440,0.00000,0.02965,0.98064,-0.17580,0.0,2023,6,8,13,34,30,285
0.67620,-0.00385,-0.29190,0.00000,0.03172,0.97856,-0.17348,0.0,2023,6,8,13,34,30,296
0.67630,-0.00385,0.09310,0.00000,0.02904,0.97710,-0.17617,0.0,2023,6,8,13,34,30,308
0.67640,-0.05635,-0.11690,0.00000,0.03087,0.97722,-0.17422,0.0,2023,6,8,13,34,30,319
0.67650,-0.10885,0.09310,0.00000,0.03135,0.97868,-0.17739,0.0,2023,6,8,13,34,30,330
0.67660,-0.10885,0.05810,0.00000,0.03123,0.97942,-0.17202,0.0,2023,6,8,13,34,30,341
0.67670,-0.07385,-0.02940,0.00000,0.03050,0.97807,-0.17287,0.0,2023,6,8,13,34,30,352
0.67680,-0.19635,0.12810,0.00000,0.02879,0.97649,-0.17519,0.0,2023,6,8,13,34,30,363
0.67690,0.08365,0.04060,0.00000,0.02879,0.97844,-0.17458,0.0,2023,6,8,13,34,30,374
0.67700,0.03115,0.07560,0.00000,0.03099,0.98100,-0.17580,0.0,2023,6,8,13,34,30,385
0.67710,0.06615,-0.11690,0.00000,0.03135,0.97649,-0.17348,0.0,2023,6,8,13,34,30,396
0.67720,-0.00385,-0.23940,0.00000,0.02977,0.97783,-0.17178,0.0,2023,6,8,13,34,30,408
0.67730,-0.02135,-0.18690,0.00000,0.03062,0.98088,-0.17068,0.0,2023,6,8,13,34,30,419
0.67740,-0.10885,0.04060,0.00000,0.02830,0.97954,-0.17275,0.0,2023,6,8,13,34,30,430
0.67740,-0.10885,0.04060,0.00000,0.02830,0.97954,-0.17275,0.0,2023,6,8,13,34,30,430
0.68590,-0.14385,0.23310,0.00000,0.03099,0.97856,-0.17300,0.0,2023,6,8,13,34,30,452
0.68600,-0.14385,-0.04690,0.00000,0.02916,0.97905,-0.17300,0.0,2023,6,8,13,34,30,463
0.68610,0.11865,-0.13440,0.00000,0.03074,0.98003,-0.17434,0.0,2023,6,8,13,34,30,474
0.68620,-0.26635,-0.01190,0.00000,0.03221,0.97893,-0.17226,0.0,2023,6,8,13,34,30,485
0.68630,-0.05635,0.25060,0.00000,0.03050,0.97807,-0.17519,0.0,2023,6,8,13,34,30,496
0.68640,0.01365,0.18060,0.00000,0.02855,0.98027,-0.17153,0.0,2023,6,8,13,34,30,508
0.68650,0.01365,-0.01190,0.00000,0.03087,0.98027,-0.17153,0.0,2023,6,8,13,34,30,519
0.68660,-0.00385,0.11060,0.00000,0.03074,0.97734,-0.17336,0.0,2023,6,8,13,34,30,530
0.68670,0.01365,0.11060,0.00000,0.03001,0.97978,-0.17324,0.0,2023,6,8,13,34,30,541
0.68680,-0.10885,0.09310,0.00000,0.03135,0.97649,-0.17409,0.0,2023,6,8,13,34,30,552
0.68690,-0.23135,0.12810,0.00000,0.03148,0.98112,-0.17214,0.0,2023,6,8,13,34,30,563
0.68700,-0.17885,0.16310,0.00000,0.03050,0.97966,-0.17373,0.0,2023,6,8,13,34,30,574
0.68710,-0.00385,-0.02940,0.00000,0.03282,0.98149,-0.17348,0.0,2023,6,8,13,34,30,585
0.68720,-0.03885,-0.08190,0.00000,0.03135,0.97917,-0.17385,0.0,2023,6,8,13,34,30,596
0.68730,0.10115,0.18060,0.00000,0.02977,0.97893,-0.17446,0.0,2023,6,8,13,34,30,608
0.68740,-0.10885,0.09310,0.00000,0.02965,0.97759,-0.17202,0.0,2023,6,8,13,34,30,619
0.68750,-0.00385,-0.01190,0.00000,0.03050,0.98003,-0.17361,0.0,2023,6,8,13,34,30,630
0.68760,0.01365,-0.15190,0.00000,0.02989,0.97942,-0.17373,0.0,2023,6,8,13,34,30,641
0.68770,-0.26635,0.18060,0.00000,0.02989,0.97868,-0.17373,0.0,2023,6,8,13,34,30,652
0.68780,-0.02135,0.00560,0.00000,0.03148,0.97734,-0.17544,0.0,2023,6,8,13,34,30,663
0.68790,0.08365,-0.02940,0.00000,0.02891,0.97942,-0.17178,0.0,2023,6,8,13,34,30,674
0.68800,-0.00385,0.21560,0.00000,0.03038,0.97893,-0.17324,0.0,2023,6,8,13,34,30,685
0.68810,-0.07385,0.02310,0.00000,0.03013,0.97807,-0.17348,0.0,2023,6,8,13,34,30,696
0.68820,0.08365,-0.06440,0.00000,0.03184,0.97807,-0.17202,0.0,2023,6,8,13,34,30,708
0.68830,-0.10885,0.09310,0.00000,0.03099,0.97820,-0.17287,0.0,2023,6,8,13,34,30,719
0.68840,0.08365,-0.15190,0.00000,0.02904,0.97954,-0.17202,0.0,2023,6,8,13,34,30,730
0.68850,0.04865,0.11060,0.00000,0.03221,0.97698,-0.17300,0.0,2023,6,8,13,34,30,741
0.68860,0.11865,0.25060,0.00000,0.03233,0.97844,-0.17190,0.0,2023,6,8,13,34,30,752
0.68870,0.04865,-0.02940,0.00000,0.03038,0.97734,-0.17336,0.0,2023,6,8,13,34,30,763
0.68880,0.18865,-0.02940,0.00000,0.03026,0.97710,-0.17348,0.0,2023,6,8,13,34,30,774
0.68890,-0.03885,-0.13440,0.00000,0.02965,0.97966,-0.17336,0.0,2023,6,8,13,34,30,785
0.68900,0.10115,0.16310,0.00000,0.02782,0.97637,-0.17361,0.0,2023,6,8,13,34,30,796
0.68910,-0.16135,0.02310,0.00000,0.03050,0.98198,-0.17031,0.0,2023,6,8,13,34,30,808
0.68920,0.10115,-0.11690,0.00000,0.02867,0.97844,-0.17373,0.0,2023,6,8,13,34,30,819
0.68930,-0.03885,-0.15190,0.00000,0.03050,0.97954,-0.17336,0.0,2023,6,8,13,34,30,830
0.68940,-0.05635,0.00560,0.00000,0.03196,0.97807,-0.17300,0.0,2023,6,8,13,34,30,841
0.68950,-0.07385,0.00560,0.00000,0.02989,0.97820,-0.17324,0.0,2023,6,8,13,34,30,852
0.68960,0.06615,-0.06440,0.00000,0.03050,0.98027,-0.17458,0.0,2023,6,8,13,34,30,863
0.68970,0.01365,0.19810,0.00000,0.03062,0.97698,-0.17324,0.0,2023,6,8,13,34,30,874
0.68980,-0.12635,0.04060,0.00000,0.03367,0.97795,-0.17556,0.0,2023,6,8,13,34,30,885
0.68990,-0.03885,0.11060,0.00000,0.03111,0.97795,-0.17178,0.0,2023,6,8,13,34,30,896
0.69000,-0.09135,0.07560,0.00000,0.03209,0.97649,-0.17190,0.0,2023,6,8,13,34,30,908
0.69010,-0.12635,0.23310,0.00000,0.02977,0.97929,-0.17312,0.0,2023,6,8,13,34,30,919
0.69020,-0.05635,-0.08190,0.00000,0.03123,0.97649,-0.17141,0.0,2023,6,8,13,34,30,930
0.69030,-0.28385,0.07560,0.00000,0.02806,0.97954,-0.17178,0.0,2023,6,8,13,34,30,941
0.69040,0.01365,0.02310,0.00000,0.02965,0.97844,-0.17068,0.0,2023,6,8,13,34,30,952
0.69050,0.10115,-0.01190,0.00000,0.02879,0.97734,-0.17422,0.0,2023,6,8,13,34,30,963
0.69060,0.27615,-0.20440,0.00000,0.03013,0.97893,-0.17153,0.0,2023,6,8,13,34,30,974
0.69070,-0.14385,0.07560,0.00000,0.02989,0.98112,-0.17495,0.0,2023,6,8,13,34,30,985
0.69080,-0.09135,0.09310,0.00000,0.03331,0.97807,-0.17446,0.0,2023,6,8,13,34,30,996
0.69090,-0.05635,0.11060,0.00000,0.02952,0.97673,-0.17092,0.0,2023,6,8,13,34,30,8
0.69100,-0.12635,0.19810,0.00000,0.03172,0.97795,-0.17129,0.0,2023,6,8,13,34,30,19
0.69110,-0.12635,0.19810,0.00000,0.03172,0.97734,-0.17409,0.0,2023,6,8,13,34,30,30
0.69120,-0.21385,-0.02940,0.00000,0.03062,0.98076,-0.17397,0.0,2023,6,8,13,34,30,41
0.69130,0.08365,0.04060,0.00000,0.03123,0.97759,-0.17117,0.0,2023,6,8,13,34,30,52
0.69140,0.17115,-0.11690,0.00000,0.02977,0.97868,-0.17251,0.0,2023,6,8,13,34,30,63
0.69150,0.18865,-0.15190,0.00000,0.03172,0.97637,-0.17373,0.0,2023,6,8,13,34,30,74
0.69160,-0.05635,0.11060,0.00000,0.03001,0.97966,-0.17361,0.0,2023,6,8,13,34,30,85
0.69170,-0.12635,0.25060,0.00000,0.02891,0.97820,-0.17190,0.0,2023,6,8,13,34,30,96
0.69180,-0.05635,-0.09940,0.00000,0.02940,0.97990,-0.17263,0.0,2023,6,8,13,34,30,108
0.69190,-0.00385,-0.09940,0.00000,0.03074,0.97771,-0.17300,0.0,2023,6,8,13,34,30,119
0.69200,-0.10885,-0.09940,0.00000,0.02952,0.97783,-0.17422,0.0,2023,6,8,13,34,30,130
0.69210,0.01365,-0.01190,0.00000,0.02928,0.97722,-0.17117,0.0,2023,6,8,13,34,30,141
0.69220,0.11865,-0.02940,0.00000,0.02965,0.97893,-0.16995,0.0,2023,6,8,13,34,30,152
0.69230,-0.00385,-0.01190,0.00000,0.02916,0.97771,-0.17214,0.0,2023,6,8,13,34,30,163
0.69240,-0.03885,0.04060,0.00000,0.03026,0.97746,-0.17117,0.0,2023,6,8,13,34,30,174
0.69250,-0.09135,-0.02940,0.00000,0.03099,0.97710,-0.17434,0.0,2023,6,8,13,34,30,185
0.69260,-0.21385,0.04060,0.00000,0.03050,0.97820,-0.17263,0.0,2023,6,8,13,34,30,196
0.69270,-0.09135,0.04060,0.00000,0.03087,0.97563,-0.17324,0.0,2023,6,8,13,34,30,208
0.69280,-0.07385,0.09310,0.00000,0.03026,0.97893,-0.17178,0.0,2023,6,8,13,34,30,219
0.69290,-0.07385,-0.01190,0.00000,0.03074,0.97990,-0.17226,0.0,2023,6,8,13,34,30,230
0.69300,0.03115,-0.01190,0.00000,0.03282,0.97661,-0.17165,0.0,2023,6,8,13,34,30,241
0.69310,0.04865,0.05810,0.00000,0.03148,0.97917,-0.17202,0.0,2023,6,8,13,34,30,252
0.69320,0.06615,-0.04690,0.00000,0.03074,0.97698,-0.17214,0.0,2023,6,8,13,34,31,3
0.69330,0.10115,-0.06440,0.00000,0.02965,0.97624,-0.17495,0.0,2023,6,8,13,34,31,14
0.69340,-0.03885,-0.01190,0.00000,0.03074,0.97832,-0.17104,0.0,2023,6,8,13,34,31,25
0.69350,0.01365,0.05810,0.00000,0.03038,0.97917,-0.17202,0.0,2023,6,8,13,34,31,36
0.69360,0.01365,-0.04690,0.00000,0.03294,0.97929,-0.17226,0.0,2023,6,8,13,34,31,48
0.69370,-0.19635,0.26810,0.00000,0.02977,0.97734,-0.17422,0.0,2023,6,8,13,34,31,59
0.69380,0.25865,-0.09940,0.00000,0.02891,0.97966,-0.17153,0.0,2023,6,8,13,34,31,70
0.69390,0.04865,-0.11690,0.00000,0.03221,0.98222,-0.17263,0.0,2023,6,8,13,34,31,81
0.69400,-0.24885,-0.08190,0.00000,0.02855,0.97612,-0.17019,0.0,2023,6,8,13,34,31,92
0.69410,-0.00385,0.02310,0.00000,0.03062,0.97893,-0.17165,0.0,2023,6,8,13,34,31,103
0.69420,-0.17885,0.00560,0.00000,0.02928,0.97844,-0.17312,0.0,2023,6,8,13,34,31,114
0.69430,0.08365,0.28560,0.00000,0.03123,0.97978,-0.17251,0.0,2023,6,8,13,34,31,125
0.69440,-0.03885,0.09310,0.00000,0.03135,0.97893,-0.17104,0.0,2023,6,8,13,34,31,136
0.69450,0.04865,0.09310,0.00000,0.02989,0.98173,-0.17397,0.0,2023,6,8,13,34,31,148
0.69460,-0.05635,0.00560,0.00000,0.03038,0.97868,-0.17422,0.0,2023,6,8,13,34,31,159
0.69470,-0.09135,0.14560,0.00000,0.03172,0.97807,-0.17165,0.0,2023,6,8,13,34,31,170
0.69480,-0.12635,0.11060,0.00000,0.03099,0.97759,-0.17312,0.0,2023,6,8,13,34,31,181
0.69490,-0.07385,0.09310,0.00000,0.03074,0.97844,-0.17165,0.0,2023,6,8,13,34,31,192
0.69500,-0.07385,0.18060,0.00000,0.03148,0.97893,-0.17385,0.0,2023,6,8,13,34,31,203
0.69510,-0.07385,0.05810,0.00000,0.03013,0.98039,-0.17385,0.0,2023,6,8,13,34,31,214
0.69520,-0.02135,0.12810,0.00000,0.03221,0.97746,-0.17068,0.0,2023,6,8,13,34,31,225
0.69530,0.06615,-0.02940,0.00000,0.02940,0.97905,-0.17324,0.0,2023,6,8,13,34,31,236
0.69540,-0.07385,0.00560,0.00000,0.03050,0.97868,-0.17312,0.0,2023,6,8,13,34,31,248
0.69550,-0.02135,-0.13440,0.00000,0.03111,0.97978,-0.17141,0.0,2023,6,8,13,34,31,259
0.69560,-0.07385,-0.15190,0.00000,0.03038,0.97856,-0.17251,0.0,2023,6,8,13,34,31,270
0.69570,-0.05635,0.00560,0.00000,0.02965,0.97929,-0.17324,0.0,2023,6,8,13,34,31,281
0.69580,0.15365,0.00560,0.00000,0.03038,0.97868,-0.17226,0.0,2023,6,8,13,34,31,292
0.69590,0.01365,0.07560,0.00000,0.03062,0.97685,-0.17397,0.0,2023,6,8,13,34,31,303
0.69600,-0.10885,-0.06440,0.00000,0.03013,0.98015,-0.17287,0.0,2023,6,8,13,34,31,314
0.69610,0.08365,-0.11690,0.00000,0.02794,0.98100,-0.17470,0.0,2023,6,8,13,34,31,325
0.69620,-0.02135,-0.11690,0.00000,0.03013,0.97856,-0.17214,0.0,2023,6,8,13,34,31,336
0.69630,-0.19635,0.00560,0.00000,0.02977,0.97734,-0.17165,0.0,2023,6,8,13,34,31,348
0.69640,-0.02135,0.07560,0.00000,0.03135,0.97856,-0.17117,0.0,2023,6,8,13,34,31,359
0.69650,-0.03885,0.09310,0.00000,0.03221,0.97722,-0.17336,0.0,2023,6,8,13,34,31,370
0.69660,-0.14385,0.04060,0.00000,0.03306,0.97856,-0.17373,0.0,2023,6,8,13,34,31,381
0.69670,-0.14385,-0.18690,0.00000,0.03050,0.97929,-0.17141,0.0,2023,6,8,13,34,31,392
0.69680,-0.10885,-0.08190,0.00000,0.03160,0.97795,-0.17251,0.0,2023,6,8,13,34,31,403
0.69690,-0.02135,0.07560,0.00000,0.03062,0.97942,-0.17263,0.0,2023,6,8,13,34,31,414
0.69700,-0.09135,0.16310,0.00000,0.03001,0.97917,-0.17275,0.0,2023,6,8,13,34,31,425
0.69710,-0.03885,-0.02940,0.00000,0.03087,0.97710,-0.17397,0.0,2023,6,8,13,34,31,436
0.69720,-0.12635,-0.16940,0.00000,0.03270,0.97929,-0.17300,0.0,2023,6,8,13,34,31,448
0.69730,0.03115,0.05810,0.00000,0.02952,0.97783,-0.16982,0.0,2023,6,8,13,34,31,459
0.69740,0.01365,-0.01190,0.00000,0.02867,0.97807,-0.17141,0.0,2023,6,8,13,34,31,470
0.69750,0.04865,-0.16940,0.00000,0.03148,0.97868,-0.17202,0.0,2023,6,8,13,34,31,481
0.69760,-0.00385,-0.02940,0.00000,0.02928,0.97844,-0.17141,0.0,2023,6,8,13,34,31,492
0.69770,-0.09135,0.04060,0.00000,0.03245,0.97698,-0.17324,0.0,2023,6,8,13,34,31,503
0.69780,-0.07385,-0.08190,0.00000,0.03001,0.97990,-0.17202,0.0,2023,6,8,13,34,31,514
0.69790,-0.16135,0.11060,0.00000,0.02830,0.98088,-0.17263,0.0,2023,6,8,13,34,31,525
0.69800,0.11865,0.07560,0.00000,0.03062,0.97795,-0.17153,0.0,2023,6,8,13,34,31,536
0.69810,-0.05635,-0.01190,0.00000,0.03111,0.97746,-0.17141,0.0,2023,6,8,13,34,31,548
0.69820,0.11865,-0.15190,0.00000,0.03221,0.97795,-0.17117,0.0,2023,6,8,13,34,31,559
0.69830,-0.03885,-0.06440,0.00000,0.02879,0.97868,-0.17068,0.0,2023,6,8,13,34,31,570
0.69840,-0.10885,0.09310,0.00000,0.03074,0.97844,-0.17129,0.0,2023,6,8,13,34,31,581
0.69850,0.04865,0.02310,0.00000,0.03099,0.97978,-0.17153,0.0,2023,6,8,13,34,31,592
0.69860,0.01365,-0.13440,0.00000,0.03148,0.97820,-0.17385,0.0,2023,6,8,13,34,31,603
0.69870,-0.07385,-0.01190,0.00000,0.03099,0.97917,-0.17409,0.0,2023,6,8,13,34,31,614
0.69880,0.03115,0.09310,0.00000,0.03160,0.97820,-0.17239,0.0,2023,6,8,13,34,31,625
0.69890,-0.10885,-0.16940,0.00000,0.03245,0.97868,-0.17263,0.0,2023,6,8,13,34,31,636
0.69900,-0.10885,-0.04690,0.00000,0.02916,0.98064,-0.17397,0.0,2023,6,8,13,34,31,648
0.69910,-0.16135,0.00560,0.00000,0.03172,0.97783,-0.17348,0.0,2023,6,8,13,34,31,659
0.69920,0.10115,0.07560,0.00000,0.03062,0.98125,-0.17117,0.0,2023,6,8,13,34,31,670
0.69930,-0.14385,0.07560,0.00000,0.03013,0.97576,-0.17263,0.0,2023,6,8,13,34,31,681
0.69940,0.10115,0.02310,0.00000,0.02891,0.97942,-0.17117,0.0,2023,6,8,13,34,31,692
0.69950,-0.17885,0.04060,0.00000,0.02952,0.97942,-0.17458,0.0,2023,6,8,13,34,31,703
0.69960,-0.00385,-0.02940,0.00000,0.03123,0.97868,-0.17287,0.0,2023,6,8,13,34,31,714
0.69970,-0.05635,-0.01190,0.00000,0.03074,0.97832,-0.17239,0.0,2023,6,8,13,34,31,725
0.69980,-0.00385,-0.01190,0.00000,0.03123,0.97905,-0.17263,0.0,2023,6,8,13,34,31,736
0.69990,-0.05635,-0.11690,0.00000,0.03172,0.97783,-0.17263,0.0,2023,6,8,13,34,31,748
0.70000,-0.03885,0.25060,0.00000,0.03050,0.97746,-0.17495,0.0,2023,6,8,13,34,31,759
0.70010,0.10115,0.07560,0.00000,0.03013,0.97868,-0.17226,0.0,2023,6,8,13,34,31,770
0.70020,0.10115,-0.06440,0.00000,0.02916,0.98186,-0.17056,0.0,2023,6,8,13,34,31,781
0.70030,-0.02135,0.14560,0.00000,0.03160,0.97746,-0.17312,0.0,2023,6,8,13,34,31,792
0.70040,0.06615,0.12810,0.00000,0.02965,0.97942,-0.17324,0.0,2023,6,8,13,34,31,803
0.70050,-0.10885,0.19810,0.00000,0.02989,0.97661,-0.17373,0.0,2023,6,8,13,34,31,814
0.70060,0.08365,-0.08190,0.00000,0.03038,0.97746,-0.17239,0.0,2023,6,8,13,34,31,825
0.70070,0.11865,0.12810,0.00000,0.03050,0.98039,-0.17470,0.0,2023,6,8,13,34,31,836
0.70080,-0.17885,-0.08190,0.00000,0.02794,0.97783,-0.16982,0.0,2023,6,8,13,34,31,848
0.70090,-0.00385,0.02310,0.00000,0.03257,0.97795,-0.17153,0.0,2023,6,8,13,34,31,859
0.70100,0.10115,-0.11690,0.00000,0.03062,0.97942,-0.17226,0.0,2023,6,8,13,34,31,870
0.70110,0.10115,0.11060,0.00000,0.02965,0.97673,-0.17056,0.0,2023,6,8,13,34,31,881
0.70120,0.08365,-0.15190,0.00000,0.02989,0.97771,-0.17031,0.0,2023,6,8,13,34,31,892
0.70130,-0.03885,-0.01190,0.00000,0.02977,0.97844,-0.17312,0.0,2023,6,8,13,34,31,903
0.70140,0.04865,0.12810,0.00000,0.03050,0.98112,-0.17165,0.0,2023,6,8,13,34,31,914
0.70150,0.01365,0.05810,0.00000,0.03062,0.97844,-0.17385,0.0,2023,6,8,13,34,31,925
0.70160,-0.02135,-0.08190,0.00000,0.03184,0.97795,-0.17202,0.0,2023,6,8,13,34,31,936
0.70170,-0.09135,-0.11690,0.00000,0.03148,0.97844,-0.17153,0.0,2023,6,8,13,34,31,948
0.70180,0.04865,-0.02940,0.00000,0.03123,0.98051,-0.17324,0.0,2023,6,8,13,34,31,959
0.70190,0.15365,-0.25690,0.00000,0.02891,0.97820,-0.17300,0.0,2023,6,8,13,34,31,970
0.70200,-0.00385,-0.02940,0.00000,0.03196,0.97942,-0.17336,0.0,2023,6,8,13,34,31,981
0.70210,-0.14385,-0.04690,0.00000,0.03087,0.97673,-0.17165,0.0,2023,6,8,13,34,31,992
0.70220,-0.23135,0.19810,0.00000,0.02977,0.97746,-0.17153,0.0,2023,6,8,13,34,31,3
0.70230,-0.02135,0.19810,0.00000,0.03111,0.97612,-0.17409,0.0,2023,6,8,13,34,31,14
0.70240,0.04865,0.00560,0.00000,0.03001,0.98051,-0.17141,0.0,2023,6,8,13,34,31,25
0.70250,0.13615,0.05810,0.00000,0.03050,0.97844,-0.17190,0.0,2023,6,8,13,34,31,36
0.70260,0.06615,-0.06440,0.00000,0.03074,0.97807,-0.17104,0.0,2023,6,8,13,34,31,48
0.70270,0.27615,-0.06440,0.00000,0.03038,0.98100,-0.17336,0.0,2023,6,8,13,34,31,59
0.70280,-0.12635,0.11060,0.00000,0.03013,0.98100,-0.17275,0.0,2023,6,8,13,34,31,70
0.70290,-0.10885,0.11060,0.00000,0.03233,0.97783,-0.17507,0.0,2023,6,8,13,34,31,81
0.70300,0.06615,0.09310,0.00000,0.03038,0.97905,-0.17092,0.0,2023,6,8,13,34,31,92
0.70310,0.03115,0.00560,0.00000,0.02928,0.98015,-0.17190,0.0,2023,6,8,13,34,31,103
0.70320,0.03115,0.04060,0.00000,0.03233,0.97710,-0.17312,0.0,2023,6,8,13,34,31,114
0.70330,-0.02135,0.09310,0.00000,0.03196,0.97881,-0.17495,0.0,2023,6,8,13,34,31,125
0.70340,-0.00385,-0.11690,0.00000,0.02867,0.97954,-0.17348,0.0,2023,6,8,13,34,31,136
0.70350,0.03115,-0.15190,0.00000,0.03062,0.97990,-0.17068,0.0,2023,6,8,13,34,31,148
0.70360,-0.07385,-0.11690,0.00000,0.03038,0.97893,-0.17214,0.0,2023,6,8,13,34,31,159
0.70370,-0.12635,-0.11690,0.00000,0.03148,0.97673,-0.17165,0.0,2023,6,8,13,34,31,170
0.70380,-0.02135,0.05810,0.00000,0.03184,0.97990,-0.17385,0.0,2023,6,8,13,34,31,181
0.70390,0.08365,-0.04690,0.00000,0.03355,0.97905,-0.17458,0.0,2023,6,8,13,34,31,192
0.70400,0.04865,-0.02940,0.00000,0.03001,0.97881,-0.17263,0.0,2023,6,8,13,34,31,203
0.70410,0.01365,0.00560,0.00000,0.03196,0.97759,-0.17239,0.0,2023,6,8,13,34,31,214
0.70420,0.04865,0.05810,0.00000,0.03233,0.97783,-0.17324,0.0,2023,6,8,13,34,31,225
0.70430,0.04865,0.00560,0.00000,0.03135,0.97820,-0.17190,0.0,2023,6,8,13,34,31,236
0.70440,-0.09135,-0.13440,0.00000,0.03038,0.97478,-0.17239,0.0,2023,6,8,13,34,31,248
0.70450,-0.17885,-0.02940,0.00000,0.03233,0.97624,-0.17275,0.0,2023,6,8,13,34,31,259
0.70460,-0.05635,0.16310,0.00000,0.02940,0.97807,-0.17336,0.0,2023,6,8,13,34,31,270
0.70470,-0.05635,-0.04690,0.00000,0.03026,0.97844,-0.17239,0.0,2023,6,8,13,34,31,281
0.70480,-0.14385,-0.02940,0.00000,0.03050,0.97795,-0.17239,0.0,2023,6,8,13,34,31,292
0.70490,0.06615,-0.01190,0.00000,0.03135,0.97771,-0.17422,0.0,2023,6,8,13,34,31,303
0.70500,0.08365,-0.16940,0.00000,0.03282,0.97868,-0.17458,0.0,2023,6,8,13,34,31,314
0.70510,0.01365,0.04060,0.00000,0.02977,0.97978,-0.17178,0.0,2023,6,8,13,34,31,325
0.70520,0.04865,0.04060,0.00000,0.03038,0.97746,-0.17434,0.0,2023,6,8,13,34,31,336
0.70530,0.01365,0.21560,0.00000,0.03160,0.98064,-0.17385,0.0,2023,6,8,13,34,31,348
0.70540,0.24115,-0.04690,0.00000,0.03184,0.97978,-0.17348,0.0,2023,6,8,13,34,31,359
0.70550,-0.03885,0.04060,0.00000,0.02794,0.97673,-0.17324,0.0,2023,6,8,13,34,31,370
0.70560,-0.05635,0.23310,0.00000,0.03062,0.97649,-0.17312,0.0,2023,6,8,13,34,31,381
0.70570,-0.02135,-0.01190,0.00000,0.02830,0.97563,-0.17287,0.0,2023,6,8,13,34,31,392
0.70580,-0.03885,0.00560,0.00000,0.03026,0.97807,-0.17226,0.0,2023,6,8,13,34,31,403
0.70590,-0.03885,-0.13440,0.00000,0.03026,0.97966,-0.17385,0.0,2023,6,8,13,34,31,414
0.70600,-0.12635,0.12810,0.00000,0.03050,0.97893,-0.17348,0.0,2023,6,8,13,34,31,425
0.70610,-0.03885,-0.13440,0.00000,0.02806,0.97588,-0.17336,0.0,2023,6,8,13,34,31,436
0.70620,-0.09135,0.04060,0.00000,0.03099,0.97771,-0.17397,0.0,2023,6,8,13,34,31,448
0.70630,-0.10885,-0.04690,0.00000,0.03001,0.97844,-0.17141,0.0,2023,6,8,13,34,31,459
0.70640,-0.17885,-0.01190,0.00000,0.03160,0.97759,-0.17312,0.0,2023,6,8,13,34,31,470
0.70650,-0.00385,-0.01190,0.00000,0.03245,0.97990,-0.17165,0.0,2023,6,8,13,34,31,481
0.70660,-0.00385,0.00560,0.00000,0.02891,0.97820,-0.17239,0.0,2023,6,8,13,34,31,492
0.70670,-0.07385,0.09310,0.00000,0.03148,0.97527,-0.17275,0.0,2023,6,8,13,34,31,503
0.70680,-0.05635,-0.01190,0.00000,0.02952,0.97710,-0.17263,0.0,2023,6,8,13,34,31,514
0.70690,0.04865,0.04060,0.00000,0.03026,0.97710,-0.17263,0.0,2023,6,8,13,34,31,525
0.70700,-0.09135,-0.01190,0.00000,0.02904,0.97722,-0.17214,0.0,2023,6,8,13,34,31,536
0.70710,-0.07385,0.16310,0.00000,0.02940,0.98027,-0.17446,0.0,2023,6,8,13,34,31,548
0.70720,0.11865,-0.11690,0.00000,0.03318,0.97807,-0.17361,0.0,2023,6,8,13,34,31,559
0.70730,-0.14385,0.12810,0.00000,0.03184,0.97783,-0.17251,0.0,2023,6,8,13,34,31,570
0.70740,-0.03885,-0.06440,0.00000,0.03013,0.97929,-0.17190,0.0,2023,6,8,13,34,31,581
0.70750,0.18865,-0.13440,0.00000,0.03038,0.97868,-0.17397,0.0,2023,6,8,13,34,31,592
0.70760,0.04865,-0.06440,0.00000,0.02916,0.98112,-0.17348,0.0,2023,6,8,13,34,31,603
0.70770,-0.09135,-0.09940,0.00000,0.03111,0.97698,-0.17324,0.0,2023,6,8,13,34,31,614
0.70780,0.06615,-0.08190,0.00000,0.03440,0.98027,-0.17544,0.0,2023,6,8,13,34,31,625
0.70790,0.11865,-0.01190,0.00000,0.02989,0.98088,-0.17251,0.0,2023,6,8,13,34,31,636
0.70800,0.17115,-0.13440,0.00000,0.03135,0.97771,-0.17373,0.0,2023,6,8,13,34,31,648
0.70810,0.10115,-0.15190,0.00000,0.03331,0.97893,-0.17031,0.0,2023,6,8,13,34,31,659
0.70820,0.04865,-0.11690,0.00000,0.03062,0.97783,-0.17092,0.0,2023,6,8,13,34,31,670
0.70830,-0.21385,-0.09940,0.00000,0.03148,0.97698,-0.17397,0.0,2023,6,8,13,34,31,681
0.70840,-0.02135,-0.02940,0.00000,0.02928,0.97942,-0.17080,0.0,2023,6,8,13,34,31,692
0.70850,0.20615,-0.09940,0.00000,0.03050,0.97954,-0.17226,0.0,2023,6,8,13,34,31,703
0.70860,-0.09135,0.26810,0.00000,0.02904,0.97832,-0.17312,0.0,2023,6,8,13,34,31,714
0.70870,-0.00385,-0.02940,0.00000,0.03062,0.97795,-0.17141,0.0,2023,6,8,13,34,31,725
0.70880,-0.00385,-0.04690,0.00000,0.02855,0.98161,-0.17287,0.0,2023,6,8,13,34,31,736
0.70890,0.10115,-0.08190,0.00000,0.03001,0.97795,-0.17605,0.0,2023,6,8,13,34,31,748
0.70900,-0.07385,0.21560,0.00000,0.03062,0.97942,-0.17275,0.0,2023,6,8,13,34,31,759
0.70910,-0.07385,0.07560,0.00000,0.02916,0.97881,-0.17202,0.0,2023,6,8,13,34,31,770
0.70920,0.01365,-0.04690,0.00000,0.03172,0.97881,-0.17580,0.0,2023,6,8,13,34,31,781
0.70930,-0.12635,0.39060,0.00000,0.03257,0.97612,-0.17434,0.0,2023,6,8,13,34,31,792
0.70940,0.10115,0.05810,0.00000,0.03013,0.97868,-0.17544,0.0,2023,6,8,13,34,31,803
0.70950,-0.12635,-0.02940,0.00000,0.02916,0.97783,-0.17178,0.0,2023,6,8,13,34,31,814
0.70960,0.01365,0.02310,0.00000,0.03001,0.97807,-0.17287,0.0,2023,6,8,13,34,31,825
0.70970,0.17115,0.07560,0.00000,0.03013,0.97881,-0.17104,0.0,2023,6,8,13,34,31,836
0.70980,0.08365,-0.06440,0.00000,0.02891,0.97844,-0.17361,0.0,2023,6,8,13,34,31,848
0.70990,-0.16135,0.16310,0.00000,0.03209,0.97929,-0.17202,0.0,2023,6,8,13,34,31,859
0.71000,0.10115,-0.18690,0.00000,0.02928,0.97868,-0.17300,0.0,2023,6,8,13,34,31,870
0.71010,-0.03885,0.23310,0.00000,0.03062,0.97685,-0.17373,0.0,2023,6,8,13,34,31,881
0.71020,-0.00385,-0.09940,0.00000,0.03111,0.97795,-0.17104,0.0,2023,6,8,13,34,31,892
0.71030,-0.09135,0.18060,0.00000,0.03062,0.97929,-0.17458,0.0,2023,6,8,13,34,31,903
0.71040,-0.03885,0.12810,0.00000,0.03148,0.98039,-0.17202,0.0,2023,6,8,13,34,31,914
0.71050,0.01365,-0.06440,0.00000,0.03123,0.97759,-0.17275,0.0,2023,6,8,13,34,31,925
0.71060,-0.16135,0.09310,0.00000,0.03074,0.97771,-0.17287,0.0,2023,6,8,13,34,31,936
0.71070,0.03115,-0.09940,0.00000,0.03050,0.97881,-0.17348,0.0,2023,6,8,13,34,31,948
0.71080,-0.09135,-0.18690,0.00000,0.02855,0.98027,-0.17422,0.0,2023,6,8,13,34,31,959
0.71090,-0.05635,0.00560,0.00000,0.03367,0.97868,-0.17312,0.0,2023,6,8,13,34,31,970
0.71100,0.08365,-0.01190,0.00000,0.03026,0.97661,-0.17275,0.0,2023,6,8,13,34,31,981
0.71110,-0.19635,0.18060,0.00000,0.03257,0.97685,-0.17165,0.0,2023,6,8,13,34,31,992
0.71120,0.01365,0.12810,0.00000,0.03282,0.97990,-0.17300,0.0,2023,6,8,13,34,31,3
0.71130,-0.07385,-0.02940,0.00000,0.02977,0.97832,-0.17141,0.0,2023,6,8,13,34,31,14
0.71140,0.11865,-0.15190,0.00000,0.03172,0.97893,-0.17251,0.0,2023,6,8,13,34,31,25
0.71150,-0.35385,0.00560,0.00000,0.02867,0.97929,-0.17275,0.0,2023,6,8,13,34,31,36
0.71160,0.22365,0.02310,0.00000,0.03099,0.97844,-0.17275,0.0,2023,6,8,13,34,31,48
0.71170,-0.12635,0.09310,0.00000,0.03148,0.97868,-0.17348,0.0,2023,6,8,13,34,31,59
0.71180,-0.07385,0.02310,0.00000,0.03111,0.97966,-0.17202,0.0,2023,6,8,13,34,31,70
0.71190,-0.05635,0.11060,0.00000,0.03050,0.97771,-0.17178,0.0,2023,6,8,13,34,31,81
0.71200,-0.00385,0.05810,0.00000,0.03074,0.98015,-0.17092,0.0,2023,6,8,13,34,31,92
0.71210,0.10115,-0.06440,0.00000,0.03087,0.97966,-0.17422,0.0,2023,6,8,13,34,31,103
0.71220,-0.23135,0.00560,0.00000,0.02867,0.97929,-0.17202,0.0,2023,6,8,13,34,31,114
0.71230,0.01365,0.04060,0.00000,0.03123,0.97722,-0.17263,0.0,2023,6,8,13,34,31,125
0.71240,0.04865,-0.02940,0.00000,0.02843,0.97929,-0.17092,0.0,2023,6,8,13,34,31,136
0.71250,-0.17885,0.07560,0.00000,0.03111,0.98039,-0.17324,0.0,2023,6,8,13,34,31,148
0.71260,0.03115,-0.11690,0.00000,0.03087,0.97868,-0.17300,0.0,2023,6,8,13,34,31,159
0.71270,0.06615,-0.15190,0.00000,0.03001,0.97820,-0.17336,0.0,2023,6,8,13,34,31,170
0.71280,0.03115,-0.04690,0.00000,0.03111,0.97917,-0.17483,0.0,2023,6,8,13,34,31,181
0.71290,0.08365,-0.02940,0.00000,0.03062,0.97820,-0.17434,0.0,2023,6,8,13,34,31,192
0.71300,0.11865,-0.02940,0.00000,0.03306,0.97795,-0.17605,0.0,2023,6,8,13,34,31,203
0.71310,0.03115,-0.09940,0.00000,0.02916,0.97685,-0.17336,0.0,2023,6,8,13,34,31,214
0.71320,0.10115,-0.02940,0.00000,0.03196,0.97759,-0.17373,0.0,2023,6,8,13,34,31,225
0.71330,-0.03885,-0.18690,0.00000,0.03099,0.97844,-0.17251,0.0,2023,6,8,13,34,31,236
0.71340,0.06615,0.09310,0.00000,0.03001,0.97783,-0.17178,0.0,2023,6,8,13,34,31,248
0.71350,0.03115,-0.16940,0.00000,0.03160,0.97698,-0.17373,0.0,2023,6,8,13,34,31,259
0.71360,0.10115,-0.23940,0.00000,0.03209,0.97820,-0.17251,0.0,2023,6,8,13,34,31,270
0.71370,-0.10885,0.00560,0.00000,0.02965,0.97929,-0.17165,0.0,2023,6,8,13,34,31,281
0.71380,-0.00385,-0.01190,0.00000,0.03001,0.97966,-0.17580,0.0,2023,6,8,13,34,31,292
0.71390,-0.03885,0.16310,0.00000,0.02989,0.97881,-0.17129,0.0,2023,6,8,13,34,31,303
0.71400,-0.12635,0.09310,0.00000,0.03074,0.98039,-0.17397,0.0,2023,6,8,13,34,31,314
