#2023/06/07 13:52:40
time,wx,wy,wz,ax,ay,az,yy,MM,dd,hh,mm,ss,ms
39.96040,-0.12915,0.05460,0.00000,0.03428,0.98100,-0.16006,0.0,2023,6,7,13,52,41,640
39.96050,0.06335,-0.05040,0.00000,0.03331,0.98137,-0.16067,0.0,2023,6,7,13,52,41,650
39.96060,0.02835,0.03710,0.00000,0.03367,0.98039,-0.15994,0.0,2023,6,7,13,52,41,660
39.96070,0.02835,-0.10290,0.00000,0.03196,0.98186,-0.16043,0.0,2023,6,7,13,52,41,670
39.96080,0.16835,-0.05040,0.00000,0.03111,0.98015,-0.15787,0.0,2023,6,7,13,52,41,680
39.96090,0.32585,-0.24290,0.00000,0.03196,0.98076,-0.16165,0.0,2023,6,7,13,52,41,690
39.96100,0.06335,-0.08540,0.00000,0.03575,0.97942,-0.16104,0.0,2023,6,7,13,52,41,700
39.96110,0.02835,-0.13790,0.00000,0.03367,0.97966,-0.15982,0.0,2023,6,7,13,52,41,710
39.96120,0.08085,0.17710,0.00000,0.03343,0.98588,-0.15909,0.0,2023,6,7,13,52,41,720
39.96130,0.16835,-0.05040,0.00000,0.03379,0.98100,-0.16019,0.0,2023,6,7,13,52,41,730
39.96140,-0.04165,-0.06790,0.00000,0.03172,0.98161,-0.16104,0.0,2023,6,7,13,52,41,740
39.96150,-0.12915,0.07210,0.00000,0.02891,0.98405,-0.16116,0.0,2023,6,7,13,52,41,750
39.96160,0.02835,-0.03290,0.00000,0.03172,0.98039,-0.15958,0.0,2023,6,7,13,52,41,760
39.96170,0.16835,-0.10290,0.00000,0.03514,0.98271,-0.15799,0.0,2023,6,7,13,52,41,770
39.96180,-0.02415,0.00210,0.00000,0.03355,0.98076,-0.15775,0.0,2023,6,7,13,52,41,780
39.96190,0.02835,-0.10290,0.00000,0.03697,0.98173,-0.15787,0.0,2023,6,7,13,52,41,790
39.96200,-0.05915,-0.06790,0.00000,0.03514,0.97978,-0.15982,0.0,2023,6,7,13,52,41,800
39.96210,0.23835,0.03710,0.00000,0.03196,0.98112,-0.16226,0.0,2023,6,7,13,52,41,810
39.96220,-0.11165,0.10710,0.00000,0.03099,0.98100,-0.16153,0.0,2023,6,7,13,52,41,820
39.96230,-0.00665,-0.01540,0.00000,0.03099,0.98161,-0.15897,0.0,2023,6,7,13,52,41,830
39.96240,-0.04165,0.05460,0.00000,0.03233,0.98137,-0.15860,0.0,2023,6,7,13,52,41,840
39.96250,-0.02415,0.22960,0.00000,0.03514,0.98112,-0.15860,0.0,2023,6,7,13,52,41,850
39.96260,0.11585,-0.17290,0.00000,0.03562,0.98076,-0.16104,0.0,2023,6,7,13,52,41,860
39.96270,0.08085,-0.01540,0.00000,0.03526,0.98125,-0.16067,0.0,2023,6,7,13,52,41,870
39.96280,-0.25165,-0.06790,0.00000,0.03550,0.97990,-0.16165,0.0,2023,6,7,13,52,41,880
39.96290,0.08085,-0.08540,0.00000,0.03331,0.98003,-0.15848,0.0,2023,6,7,13,52,41,890
39.96300,0.01085,0.17710,0.00000,0.03148,0.98137,-0.16031,0.0,2023,6,7,13,52,41,900
39.96310,-0.00665,0.00210,0.00000,0.03111,0.98417,-0.15872,0.0,2023,6,7,13,52,41,910
39.96320,-0.00665,0.26460,0.00000,0.03245,0.98149,-0.15921,0.0,2023,6,7,13,52,41,920
39.96330,-0.05915,-0.10290,0.00000,0.03331,0.98344,-0.16067,0.0,2023,6,7,13,52,41,930
39.96340,0.02835,-0.01540,0.00000,0.03550,0.98088,-0.15823,0.0,2023,6,7,13,52,41,940
39.96350,0.08085,-0.01540,0.00000,0.03294,0.98222,-0.15665,0.0,2023,6,7,13,52,41,950
39.96360,0.04585,0.00210,0.00000,0.03172,0.97942,-0.16116,0.0,2023,6,7,13,52,41,960
39.96370,0.01085,-0.17290,0.00000,0.03501,0.98100,-0.15775,0.0,2023,6,7,13,52,41,970
39.96380,0.09835,-0.10290,0.00000,0.02928,0.98088,-0.15409,0.0,2023,6,7,13,52,41,980
39.96390,0.23835,0.12460,0.00000,0.03270,0.98417,-0.16336,0.0,2023,6,7,13,52,41,990
39.96400,-0.26915,0.26460,0.00000,0.03233,0.97807,-0.15860,0.0,2023,6,7,13,52,41,0
39.96410,-0.12915,0.12460,0.00000,0.03477,0.97746,-0.15921,0.0,2023,6,7,13,52,41,10
39.96420,-0.21665,0.14210,0.00000,0.03379,0.98064,-0.15238,0.0,2023,6,7,13,52,41,20
39.96430,0.46585,-0.13790,0.00000,0.03184,0.98271,-0.16482,0.0,2023,6,7,13,52,41,30
39.96440,-0.02415,0.00210,0.00000,0.03392,0.98491,-0.16214,0.0,2023,6,7,13,52,41,40
39.96450,0.04585,-0.03290,0.00000,0.03074,0.98588,-0.16433,0.0,2023,6,7,13,52,41,50
39.96460,-0.11165,-0.05040,0.00000,0.03245,0.98039,-0.15543,0.0,2023,6,7,13,52,41,60
39.96470,-0.04165,0.14210,0.00000,0.03318,0.98064,-0.15592,0.0,2023,6,7,13,52,41,70
39.96480,-0.12915,0.14210,0.00000,0.03184,0.98076,-0.15396,0.0,2023,6,7,13,52,41,80
39.96490,0.32585,0.03710,0.00000,0.03550,0.98198,-0.16141,0.0,2023,6,7,13,52,41,90
39.96500,0.01085,-0.10290,0.00000,0.03501,0.98064,-0.16214,0.0,2023,6,7,13,52,41,100
39.96510,-0.09415,0.01960,0.00000,0.03209,0.98088,-0.15945,0.0,2023,6,7,13,52,41,110
39.96520,-0.05915,0.00210,0.00000,0.03404,0.98295,-0.15958,0.0,2023,6,7,13,52,41,120
39.96530,-0.18165,-0.03290,0.00000,0.03294,0.98051,-0.15836,0.0,2023,6,7,13,52,41,130
39.96540,-0.05915,0.08960,0.00000,0.03160,0.98222,-0.15909,0.0,2023,6,7,13,52,42,140
39.96550,0.06335,0.05460,0.00000,0.03587,0.98064,-0.15799,0.0,2023,6,7,13,52,42,150
39.96560,0.04585,0.15960,0.00000,0.03355,0.98186,-0.16080,0.0,2023,6,7,13,52,42,160
39.96570,0.04585,-0.13790,0.00000,0.03233,0.98222,-0.16153,0.0,2023,6,7,13,52,42,170
39.96580,-0.12915,-0.10290,0.00000,0.03270,0.98039,-0.15884,0.0,2023,6,7,13,52,42,180
39.96590,-0.05915,-0.01540,0.00000,0.03355,0.98503,-0.15994,0.0,2023,6,7,13,52,42,190
39.96600,0.01085,-0.01540,0.00000,0.03233,0.98222,-0.15811,0.0,2023,6,7,13,52,42,200
39.96610,0.09835,-0.06790,0.00000,0.03367,0.97990,-0.16141,0.0,2023,6,7,13,52,42,210
39.96620,-0.25165,-0.06790,0.00000,0.03123,0.98222,-0.15701,0.0,2023,6,7,13,52,42,220
39.96630,-0.05915,0.08960,0.00000,0.03343,0.98015,-0.16104,0.0,2023,6,7,13,52,42,230
39.96640,0.13335,-0.06790,0.00000,0.03392,0.98344,-0.16287,0.0,2023,6,7,13,52,42,240
39.96650,-0.02415,-0.40040,0.00000,0.03196,0.98234,-0.16128,0.0,2023,6,7,13,52,42,250
39.96660,-0.14665,0.07210,0.00000,0.03343,0.98100,-0.16043,0.0,2023,6,7,13,52,42,260
39.96670,0.11585,0.17710,0.00000,0.03294,0.98283,-0.15799,0.0,2023,6,7,13,52,42,270
39.96680,0.13335,-0.17290,0.00000,0.03367,0.98076,-0.15994,0.0,2023,6,7,13,52,42,280
39.96690,-0.04165,0.00210,0.00000,0.03404,0.98222,-0.15921,0.0,2023,6,7,13,52,42,290
39.96700,0.16835,0.01960,0.00000,0.03404,0.98173,-0.15787,0.0,2023,6,7,13,52,42,300
39.96710,0.16835,-0.10290,0.00000,0.03440,0.98198,-0.16104,0.0,2023,6,7,13,52,42,310
39.96720,-0.04165,0.05460,0.00000,0.03160,0.98393,-0.15897,0.0,2023,6,7,13,52,42,320
39.96730,-0.05915,0.07210,0.00000,0.03270,0.98210,-0.16055,0.0,2023,6,7,13,52,42,330
39.96740,-0.21665,0.07210,0.00000,0.03270,0.98381,-0.16104,0.0,2023,6,7,13,52,42,340
39.96750,-0.05915,0.15960,0.00000,0.03379,0.98198,-0.16055,0.0,2023,6,7,13,52,42,350
39.96760,0.11585,-0.10290,0.00000,0.03392,0.98125,-0.16031,0.0,2023,6,7,13,52,42,360
39.96770,-0.23415,0.10710,0.00000,0.03111,0.98088,-0.15909,0.0,2023,6,7,13,52,42,370
39.96780,-0.09415,-0.01540,0.00000,0.03416,0.98149,-0.16019,0.0,2023,6,7,13,52,42,380
39.96790,-0.12915,-0.12040,0.00000,0.03282,0.98271,-0.15945,0.0,2023,6,7,13,52,42,390
39.96800,-0.05915,0.10710,0.00000,0.03233,0.98125,-0.16141,0.0,2023,6,7,13,52,42,400
39.96810,-0.23415,0.05460,0.00000,0.03501,0.98149,-0.15884,0.0,2023,6,7,13,52,42,410
39.96820,-0.07665,0.08960,0.00000,0.03111,0.98088,-0.16128,0.0,2023,6,7,13,52,42,420
39.96830,0.04585,-0.19040,0.00000,0.03428,0.98149,-0.15970,0.0,2023,6,7,13,52,42,430
39.96840,0.01085,0.05460,0.00000,0.03038,0.98259,-0.16092,0.0,2023,6,7,13,52,42,440
39.96850,0.01085,0.10710,0.00000,0.03245,0.98271,-0.15982,0.0,2023,6,7,13,52,42,450
39.96860,-0.04165,0.15960,0.00000,0.03282,0.97966,-0.16141,0.0,2023,6,7,13,52,42,460
39.96870,-0.05915,0.14210,0.00000,0.03294,0.97978,-0.15982,0.0,2023,6,7,13,52,42,470
39.96880,-0.25165,0.12460,0.00000,0.03379,0.98064,-0.16128,0.0,2023,6,7,13,52,42,480
39.96890,-0.00665,0.10710,0.00000,0.03379,0.98271,-0.15921,0.0,2023,6,7,13,52,42,490
39.96900,-0.09415,-0.13790,0.00000,0.03404,0.98308,-0.16104,0.0,2023,6,7,13,52,42,500
39.96910,0.09835,-0.01540,0.00000,0.03392,0.98222,-0.16324,0.0,2023,6,7,13,52,42,510
39.96920,0.08085,-0.20790,0.00000,0.03379,0.98149,-0.16043,0.0,2023,6,7,13,52,42,520
39.96930,-0.05915,-0.10290,0.00000,0.02989,0.98308,-0.15958,0.0,2023,6,7,13,52,42,530
39.96940,0.01085,-0.10290,0.00000,0.03440,0.98295,-0.15872,0.0,2023,6,7,13,52,42,540
39.96950,0.15085,0.00210,0.00000,0.03489,0.98051,-0.15982,0.0,2023,6,7,13,52,42,550
39.96960,0.02835,0.07210,0.00000,0.03306,0.98027,-0.15909,0.0,2023,6,7,13,52,42,560
39.96970,0.11585,0.10710,0.00000,0.03465,0.97929,-0.15958,0.0,2023,6,7,13,52,42,570
39.96980,0.02835,-0.17290,0.00000,0.03111,0.98210,-0.16189,0.0,2023,6,7,13,52,42,580
39.96990,0.02835,0.07210,0.00000,0.03367,0.98454,-0.15982,0.0,2023,6,7,13,52,42,590
39.97000,0.20335,-0.20790,0.00000,0.03343,0.97954,-0.16080,0.0,2023,6,7,13,52,42,600
39.97010,-0.12915,0.15960,0.00000,0.03282,0.98161,-0.16006,0.0,2023,6,7,13,52,42,610
39.97020,0.04585,-0.03290,0.00000,0.03526,0.98100,-0.15982,0.0,2023,6,7,13,52,42,620
39.97030,-0.12915,0.15960,0.00000,0.03453,0.98076,-0.15872,0.0,2023,6,7,13,52,42,630
39.97040,-0.02415,0.28210,0.00000,0.03355,0.98088,-0.15848,0.0,2023,6,7,13,52,42,640
39.97050,0.15085,-0.10290,0.00000,0.03306,0.98271,-0.16153,0.0,2023,6,7,13,52,42,650
39.97060,0.08085,0.01960,0.00000,0.03245,0.98137,-0.16043,0.0,2023,6,7,13,52,42,660
39.97070,0.15085,-0.01540,0.00000,0.03306,0.98381,-0.15860,0.0,2023,6,7,13,52,42,670
39.97080,-0.28665,0.10710,0.00000,0.03062,0.98210,-0.15982,0.0,2023,6,7,13,52,42,680
39.97090,-0.04165,-0.05040,0.00000,0.03379,0.98210,-0.16080,0.0,2023,6,7,13,52,42,690
39.97100,0.25585,0.07210,0.00000,0.03306,0.98381,-0.16043,0.0,2023,6,7,13,52,42,700
39.97110,0.13335,0.10710,0.00000,0.03392,0.98003,-0.16153,0.0,2023,6,7,13,52,42,710
39.97120,-0.05915,0.00210,0.00000,0.03233,0.98088,-0.15823,0.0,2023,6,7,13,52,42,720
39.97130,0.09835,0.15960,0.00000,0.03428,0.98491,-0.15775,0.0,2023,6,7,13,52,42,730
39.97140,0.15085,-0.08540,0.00000,0.03355,0.98259,-0.15823,0.0,2023,6,7,13,52,42,740
39.97150,0.32585,0.08960,0.00000,0.03087,0.98222,-0.16080,0.0,2023,6,7,13,52,42,750
39.97160,-0.05915,0.08960,0.00000,0.03392,0.98015,-0.16006,0.0,2023,6,7,13,52,42,760
39.97170,-0.11165,0.08960,0.00000,0.03074,0.98234,-0.15653,0.0,2023,6,7,13,52,42,770
39.97180,0.09835,0.24710,0.00000,0.03379,0.98137,-0.15945,0.0,2023,6,7,13,52,42,780
39.97190,-0.18165,0.15960,0.00000,0.03050,0.98039,-0.16189,0.0,2023,6,7,13,52,42,790
39.97200,0.09835,-0.27790,0.00000,0.03270,0.98125,-0.15994,0.0,2023,6,7,13,52,42,800
39.97210,0.02835,0.01960,0.00000,0.03318,0.98320,-0.15787,0.0,2023,6,7,13,52,42,810
39.97220,0.01085,0.01960,0.00000,0.03184,0.98149,-0.16019,0.0,2023,6,7,13,52,42,820
39.97230,0.15085,0.03710,0.00000,0.03318,0.98015,-0.15921,0.0,2023,6,7,13,52,42,830
39.97240,0.13335,0.10710,0.00000,0.03355,0.98173,-0.15750,0.0,2023,6,7,13,52,42,840
39.97250,0.01085,-0.19040,0.00000,0.03379,0.98222,-0.15775,0.0,2023,6,7,13,52,42,850
39.97260,0.08085,0.15960,0.00000,0.03318,0.98283,-0.16019,0.0,2023,6,7,13,52,42,860
39.97270,0.02835,0.03710,0.00000,0.03392,0.98234,-0.15848,0.0,2023,6,7,13,52,42,870
39.97280,0.11585,0.12460,0.00000,0.03221,0.98320,-0.15982,0.0,2023,6,7,13,52,42,880
39.97290,0.04585,-0.03290,0.00000,0.03331,0.98356,-0.15872,0.0,2023,6,7,13,52,42,890
39.97300,0.06335,0.22960,0.00000,0.03367,0.98283,-0.16104,0.0,2023,6,7,13,52,42,900
39.97310,-0.07665,0.15960,0.00000,0.03245,0.98051,-0.15958,0.0,2023,6,7,13,52,42,910
39.97320,0.16835,0.07210,0.00000,0.03367,0.98405,-0.15958,0.0,2023,6,7,13,52,42,920
39.97330,0.25585,-0.01540,0.00000,0.03148,0.98247,-0.15958,0.0,2023,6,7,13,52,42,930
39.97340,0.02835,0.01960,0.00000,0.02916,0.98247,-0.16055,0.0,2023,6,7,13,52,42,940
39.97350,-0.09415,-0.13790,0.00000,0.03465,0.98222,-0.15994,0.0,2023,6,7,13,52,42,950
39.97360,-0.02415,0.00210,0.00000,0.03465,0.98137,-0.15933,0.0,2023,6,7,13,52,42,960
39.97370,0.08085,0.00210,0.00000,0.03404,0.98161,-0.15750,0.0,2023,6,7,13,52,42,970
39.97380,-0.05915,0.10710,0.00000,0.03074,0.98356,-0.15909,0.0,2023,6,7,13,52,42,980
39.97390,-0.19915,0.07210,0.00000,0.03221,0.98100,-0.16287,0.0,2023,6,7,13,52,42,990
39.97400,-0.14665,0.14210,0.00000,0.03306,0.98149,-0.16043,0.0,2023,6,7,13,52,42,0
39.97410,-0.12915,-0.05040,0.00000,0.03331,0.98051,-0.16031,0.0,2023,6,7,13,52,42,10
39.97420,0.09835,0.21210,0.00000,0.03099,0.98295,-0.15836,0.0,2023,6,7,13,52,42,20
39.97430,0.04585,-0.05040,0.00000,0.03306,0.98283,-0.16031,0.0,2023,6,7,13,52,42,30
39.97440,0.09835,-0.06790,0.00000,0.03331,0.98015,-0.16006,0.0,2023,6,7,13,52,43,40
39.97450,0.01085,-0.08540,0.00000,0.03209,0.98210,-0.15970,0.0,2023,6,7,13,52,43,50
39.97460,-0.14665,-0.13790,0.00000,0.03636,0.98259,-0.16214,0.0,2023,6,7,13,52,43,60
39.97470,0.09835,-0.15540,0.00000,0.03062,0.98271,-0.15945,0.0,2023,6,7,13,52,43,70
39.97480,0.13335,-0.22540,0.00000,0.03367,0.98186,-0.16019,0.0,2023,6,7,13,52,43,80
39.97490,-0.11165,0.10710,0.00000,0.03184,0.98234,-0.15921,0.0,2023,6,7,13,52,43,90
39.97500,-0.07665,-0.13790,0.00000,0.03331,0.98295,-0.16104,0.0,2023,6,7,13,52,43,100
39.97510,-0.02415,0.08960,0.00000,0.03148,0.98064,-0.16019,0.0,2023,6,7,13,52,43,110
39.97520,0.18585,-0.06790,0.00000,0.03160,0.98271,-0.15799,0.0,2023,6,7,13,52,43,120
39.97530,0.04585,0.14210,0.00000,0.03062,0.98259,-0.15848,0.0,2023,6,7,13,52,43,130
39.97540,0.04585,-0.17290,0.00000,0.03526,0.98039,-0.15884,0.0,2023,6,7,13,52,43,140
39.97550,-0.12915,0.00210,0.00000,0.03306,0.98295,-0.16080,0.0,2023,6,7,13,52,43,150
39.97560,0.09835,-0.10290,0.00000,0.03501,0.98332,-0.15787,0.0,2023,6,7,13,52,43,160
39.97570,-0.05915,-0.15540,0.00000,0.03636,0.98039,-0.15933,0.0,2023,6,7,13,52,43,170
39.97580,-0.09415,-0.05040,0.00000,0.03526,0.98442,-0.15970,0.0,2023,6,7,13,52,43,180
39.97590,-0.09415,0.17710,0.00000,0.03367,0.98039,-0.15714,0.0,2023,6,7,13,52,43,190
39.97600,0.06335,-0.06790,0.00000,0.03453,0.98210,-0.15994,0.0,2023,6,7,13,52,43,200
39.97610,0.18585,-0.12040,0.00000,0.03440,0.98393,-0.15970,0.0,2023,6,7,13,52,43,210
39.97620,0.01085,-0.08540,0.00000,0.03367,0.98076,-0.16092,0.0,2023,6,7,13,52,43,220
39.97630,0.11585,-0.06790,0.00000,0.03282,0.98125,-0.16043,0.0,2023,6,7,13,52,43,230
39.97640,0.01085,-0.03290,0.00000,0.03489,0.98064,-0.16055,0.0,2023,6,7,13,52,43,240
39.97650,0.15085,-0.03290,0.00000,0.03453,0.98417,-0.15884,0.0,2023,6,7,13,52,43,250
39.97660,-0.12915,-0.12040,0.00000,0.03404,0.98051,-0.15958,0.0,2023,6,7,13,52,43,260
39.97670,-0.11165,0.00210,0.00000,0.03270,0.98186,-0.15958,0.0,2023,6,7,13,52,43,270
39.97680,0.08085,-0.19040,0.00000,0.03355,0.98198,-0.15872,0.0,2023,6,7,13,52,43,280
39.97690,0.04585,-0.19040,0.00000,0.03209,0.98430,-0.16128,0.0,2023,6,7,13,52,43,290
39.97700,0.04585,0.10710,0.00000,0.03172,0.98088,-0.15799,0.0,2023,6,7,13,52,43,300
39.97710,0.11585,-0.03290,0.00000,0.03465,0.98259,-0.15848,0.0,2023,6,7,13,52,43,310
39.97720,0.09835,0.14210,0.00000,0.03196,0.98454,-0.15921,0.0,2023,6,7,13,52,43,320
39.97730,-0.05915,-0.12040,0.00000,0.03440,0.98259,-0.15811,0.0,2023,6,7,13,52,43,330
39.97740,0.06335,-0.06790,0.00000,0.03209,0.98222,-0.16177,0.0,2023,6,7,13,52,43,340
39.97750,0.02835,0.03710,0.00000,0.03196,0.98125,-0.16226,0.0,2023,6,7,13,52,43,350
39.97760,-0.14665,0.03710,0.00000,0.03318,0.98247,-0.16067,0.0,2023,6,7,13,52,43,360
39.97770,0.04585,-0.19040,0.00000,0.03209,0.98344,-0.15750,0.0,2023,6,7,13,52,43,370
39.97780,0.18585,-0.08540,0.00000,0.03489,0.98271,-0.15933,0.0,2023,6,7,13,52,43,380
39.97790,0.30835,-0.20790,0.00000,0.03392,0.98308,-0.15775,0.0,2023,6,7,13,52,43,390
39.97800,-0.04165,-0.01540,0.00000,0.03233,0.98161,-0.16092,0.0,2023,6,7,13,52,43,400
39.97810,-0.05915,0.08960,0.00000,0.03440,0.98076,-0.15872,0.0,2023,6,7,13,52,43,410
39.97820,-0.14665,-0.10290,0.00000,0.03282,0.98381,-0.16080,0.0,2023,6,7,13,52,43,420
39.97830,-0.07665,0.10710,0.00000,0.03306,0.98039,-0.15811,0.0,2023,6,7,13,52,43,430
39.97840,0.15085,-0.20790,0.00000,0.03270,0.98039,-0.15897,0.0,2023,6,7,13,52,43,440
39.97850,0.13335,-0.13790,0.00000,0.03257,0.98100,-0.15872,0.0,2023,6,7,13,52,43,450
39.97860,-0.11165,0.08960,0.00000,0.03196,0.98308,-0.15970,0.0,2023,6,7,13,52,43,460
39.97870,0.04585,-0.26040,0.00000,0.03440,0.97893,-0.16153,0.0,2023,6,7,13,52,43,470
39.97880,0.08085,0.03710,0.00000,0.03416,0.98088,-0.15994,0.0,2023,6,7,13,52,43,480
39.97890,0.15085,0.01960,0.00000,0.03343,0.98356,-0.16067,0.0,2023,6,7,13,52,43,490
39.97900,-0.11165,0.01960,0.00000,0.03282,0.98308,-0.15970,0.0,2023,6,7,13,52,43,500
39.97910,0.06335,0.00210,0.00000,0.03367,0.98076,-0.15909,0.0,2023,6,7,13,52,43,510
39.97920,-0.09415,-0.10290,0.00000,0.03257,0.98125,-0.15897,0.0,2023,6,7,13,52,43,520
39.97930,-0.07665,-0.03290,0.00000,0.03489,0.98222,-0.16189,0.0,2023,6,7,13,52,43,530
39.97940,-0.07665,-0.12040,0.00000,0.03355,0.98112,-0.16019,0.0,2023,6,7,13,52,43,540
39.97950,0.01085,0.22960,0.00000,0.03355,0.98076,-0.15775,0.0,2023,6,7,13,52,43,550
39.97960,0.11585,-0.10290,0.00000,0.03294,0.98222,-0.16104,0.0,2023,6,7,13,52,43,560
39.97970,-0.04165,0.00210,0.00000,0.03440,0.97966,-0.16153,0.0,2023,6,7,13,52,43,570
39.97980,-0.18165,0.12460,0.00000,0.03196,0.98552,-0.16214,0.0,2023,6,7,13,52,43,580
39.97990,-0.02415,-0.01540,0.00000,0.03282,0.98137,-0.15921,0.0,2023,6,7,13,52,43,590
39.98000,0.04585,0.03710,0.00000,0.03172,0.97856,-0.15982,0.0,2023,6,7,13,52,43,600
39.98010,-0.02415,-0.01540,0.00000,0.03306,0.97978,-0.15872,0.0,2023,6,7,13,52,43,610
39.98020,0.23835,-0.01540,0.00000,0.03367,0.98173,-0.15653,0.0,2023,6,7,13,52,43,620
39.98030,0.08085,-0.05040,0.00000,0.03270,0.98478,-0.15994,0.0,2023,6,7,13,52,43,630
39.98040,-0.00665,-0.13790,0.00000,0.03367,0.97942,-0.16116,0.0,2023,6,7,13,52,43,640
39.98050,0.06335,0.03710,0.00000,0.03355,0.98295,-0.16043,0.0,2023,6,7,13,52,43,650
39.98060,-0.05915,0.12460,0.00000,0.03087,0.98210,-0.15762,0.0,2023,6,7,13,52,43,660
39.98070,-0.00665,-0.01540,0.00000,0.03318,0.98149,-0.15982,0.0,2023,6,7,13,52,43,670
39.98080,0.02835,-0.03290,0.00000,0.03257,0.98430,-0.15762,0.0,2023,6,7,13,52,43,680
39.98090,0.08085,0.12460,0.00000,0.03318,0.98478,-0.16482,0.0,2023,6,7,13,52,43,690
39.98100,-0.04165,0.03710,0.00000,0.03379,0.97966,-0.16263,0.0,2023,6,7,13,52,43,700
39.98110,-0.09415,0.15960,0.00000,0.03379,0.98112,-0.15811,0.0,2023,6,7,13,52,43,710
39.98120,-0.12915,-0.06790,0.00000,0.03209,0.97990,-0.15518,0.0,2023,6,7,13,52,43,720
39.98130,0.13335,0.08960,0.00000,0.03343,0.98015,-0.15945,0.0,2023,6,7,13,52,43,730
39.98140,0.02835,0.01960,0.00000,0.03282,0.98478,-0.16104,0.0,2023,6,7,13,52,43,740
39.98150,0.08085,-0.06790,0.00000,0.03367,0.98271,-0.16238,0.0,2023,6,7,13,52,43,750
39.98160,0.09835,-0.12040,0.00000,0.03306,0.98186,-0.16177,0.0,2023,6,7,13,52,43,760
39.98170,-0.02415,0.07210,0.00000,0.03306,0.98161,-0.16263,0.0,2023,6,7,13,52,43,770
39.98180,-0.00665,-0.01540,0.00000,0.03343,0.98283,-0.15921,0.0,2023,6,7,13,52,43,780
39.98190,-0.07665,0.05460,0.00000,0.03282,0.98222,-0.15787,0.0,2023,6,7,13,52,43,790
39.98200,0.02835,0.19460,0.00000,0.03416,0.98186,-0.15982,0.0,2023,6,7,13,52,43,800
39.98210,-0.00665,0.00210,0.00000,0.03453,0.98247,-0.16019,0.0,2023,6,7,13,52,43,810
39.98220,-0.04165,0.00210,0.00000,0.03233,0.98344,-0.16080,0.0,2023,6,7,13,52,43,820
39.98230,0.04585,-0.08540,0.00000,0.03538,0.98234,-0.15933,0.0,2023,6,7,13,52,43,830
39.98240,0.04585,-0.19040,0.00000,0.03550,0.98100,-0.16177,0.0,2023,6,7,13,52,43,840
39.98250,0.06335,0.03710,0.00000,0.03294,0.98356,-0.16006,0.0,2023,6,7,13,52,43,850
39.98260,0.01085,0.07210,0.00000,0.03221,0.98173,-0.16006,0.0,2023,6,7,13,52,43,860
39.98270,0.06335,-0.05040,0.00000,0.03379,0.97917,-0.16006,0.0,2023,6,7,13,52,43,870
39.98280,-0.05915,-0.05040,0.00000,0.03404,0.98259,-0.15897,0.0,2023,6,7,13,52,43,880
39.98290,-0.00665,0.08960,0.00000,0.03355,0.98576,-0.16214,0.0,2023,6,7,13,52,43,890
39.98300,0.11585,-0.03290,0.00000,0.03355,0.98515,-0.16116,0.0,2023,6,7,13,52,43,900
39.98310,-0.14665,0.01960,0.00000,0.03440,0.98088,-0.16080,0.0,2023,6,7,13,52,43,910
39.98320,0.01085,0.03710,0.00000,0.03148,0.98320,-0.15799,0.0,2023,6,7,13,52,43,920
39.98330,-0.04165,0.01960,0.00000,0.03270,0.98381,-0.15994,0.0,2023,6,7,13,52,44,930
39.98340,0.02835,-0.01540,0.00000,0.03343,0.98076,-0.16055,0.0,2023,6,7,13,52,44,940
39.98350,-0.04165,0.00210,0.00000,0.03318,0.98442,-0.15982,0.0,2023,6,7,13,52,44,950
39.98360,-0.19915,0.08960,0.00000,0.03355,0.98259,-0.15823,0.0,2023,6,7,13,52,44,960
39.98370,0.01085,-0.12040,0.00000,0.03026,0.98393,-0.15848,0.0,2023,6,7,13,52,44,970
39.98380,0.08085,-0.12040,0.00000,0.03257,0.98259,-0.15775,0.0,2023,6,7,13,52,44,980
39.98390,0.25585,0.05460,0.00000,0.03270,0.98344,-0.16043,0.0,2023,6,7,13,52,44,990
39.98400,0.02835,-0.01540,0.00000,0.03209,0.98173,-0.16202,0.0,2023,6,7,13,52,44,0
39.98410,0.15085,-0.05040,0.00000,0.03294,0.98088,-0.16165,0.0,2023,6,7,13,52,44,10
39.98420,0.20335,-0.06790,0.00000,0.03428,0.98234,-0.16067,0.0,2023,6,7,13,52,44,20
39.98430,-0.12915,0.31710,0.00000,0.03282,0.98344,-0.15872,0.0,2023,6,7,13,52,44,30
39.98440,0.11585,0.01960,0.00000,0.03184,0.98234,-0.16104,0.0,2023,6,7,13,52,44,40
39.98450,0.02835,0.03710,0.00000,0.03367,0.98210,-0.16141,0.0,2023,6,7,13,52,44,50
39.98460,0.06335,0.14210,0.00000,0.03367,0.98442,-0.15909,0.0,2023,6,7,13,52,44,60
39.98470,-0.02415,0.10710,0.00000,0.03367,0.98003,-0.15945,0.0,2023,6,7,13,52,44,70
39.98480,0.04585,-0.03290,0.00000,0.03440,0.97917,-0.16031,0.0,2023,6,7,13,52,44,80
39.98490,0.18585,-0.06790,0.00000,0.03440,0.97893,-0.16141,0.0,2023,6,7,13,52,44,90
39.98500,0.09835,-0.01540,0.00000,0.03501,0.98064,-0.16104,0.0,2023,6,7,13,52,44,100
39.98510,-0.04165,0.05460,0.00000,0.03477,0.97966,-0.16141,0.0,2023,6,7,13,52,44,110
39.98520,0.01085,0.15960,0.00000,0.03245,0.98308,-0.15872,0.0,2023,6,7,13,52,44,120
39.98530,0.04585,0.01960,0.00000,0.03196,0.98064,-0.16043,0.0,2023,6,7,13,52,44,130
39.98540,0.16835,0.00210,0.00000,0.03270,0.98308,-0.16189,0.0,2023,6,7,13,52,44,140
39.98550,-0.00665,-0.05040,0.00000,0.03367,0.98222,-0.15970,0.0,2023,6,7,13,52,44,150
39.98560,-0.04165,-0.05040,0.00000,0.03294,0.98405,-0.16055,0.0,2023,6,7,13,52,44,160
39.98570,-0.04165,-0.10290,0.00000,0.03453,0.98064,-0.15945,0.0,2023,6,7,13,52,44,170
39.98580,-0.09415,0.07210,0.00000,0.03355,0.98088,-0.16128,0.0,2023,6,7,13,52,44,180
39.98590,0.15085,-0.22540,0.00000,0.03392,0.98222,-0.15909,0.0,2023,6,7,13,52,44,190
39.98600,0.09835,-0.31290,0.00000,0.03209,0.98137,-0.16128,0.0,2023,6,7,13,52,44,200
39.98610,-0.18165,0.14210,0.00000,0.03404,0.98125,-0.16067,0.0,2023,6,7,13,52,44,210
39.98620,0.04585,-0.06790,0.00000,0.02940,0.98173,-0.15909,0.0,2023,6,7,13,52,44,220
39.98630,-0.00665,0.03710,0.00000,0.03489,0.98198,-0.16006,0.0,2023,6,7,13,52,44,230
39.98640,0.04585,0.17710,0.00000,0.03440,0.98137,-0.16177,0.0,2023,6,7,13,52,44,240
39.98650,-0.16415,0.00210,0.00000,0.03282,0.98247,-0.16104,0.0,2023,6,7,13,52,44,250
39.98660,0.01085,-0.08540,0.00000,0.03379,0.98173,-0.16116,0.0,2023,6,7,13,52,44,260
39.98670,-0.05915,0.14210,0.00000,0.03538,0.97771,-0.15775,0.0,2023,6,7,13,52,44,270
39.98680,0.06335,-0.01540,0.00000,0.03428,0.98027,-0.15958,0.0,2023,6,7,13,52,44,280
39.98690,-0.05915,-0.13790,0.00000,0.03209,0.98332,-0.16019,0.0,2023,6,7,13,52,44,290
39.98700,-0.02415,0.05460,0.00000,0.03209,0.98137,-0.16043,0.0,2023,6,7,13,52,44,300
39.98710,0.13335,-0.19040,0.00000,0.03404,0.98295,-0.15884,0.0,2023,6,7,13,52,44,310
39.98720,0.02835,0.01960,0.00000,0.03331,0.98247,-0.15836,0.0,2023,6,7,13,52,44,320
39.98730,0.09835,0.01960,0.00000,0.03453,0.98234,-0.16348,0.0,2023,6,7,13,52,44,330
39.98740,0.01085,-0.24290,0.00000,0.03233,0.98308,-0.16128,0.0,2023,6,7,13,52,44,340
39.98750,0.02835,-0.08540,0.00000,0.03440,0.98125,-0.15872,0.0,2023,6,7,13,52,44,350
39.98760,0.13335,-0.12040,0.00000,0.03282,0.98295,-0.15775,0.0,2023,6,7,13,52,44,360
39.98770,-0.04165,-0.05040,0.00000,0.03318,0.98027,-0.15897,0.0,2023,6,7,13,52,44,370
39.98780,-0.04165,-0.27790,0.00000,0.03172,0.98210,-0.16019,0.0,2023,6,7,13,52,44,380
39.98790,0.20335,-0.20790,0.00000,0.03404,0.98222,-0.16043,0.0,2023,6,7,13,52,44,390
39.98800,-0.16415,0.08960,0.00000,0.03428,0.98356,-0.15970,0.0,2023,6,7,13,52,44,400
39.98810,-0.09415,0.10710,0.00000,0.03135,0.98222,-0.16006,0.0,2023,6,7,13,52,44,410
39.98820,-0.04165,-0.08540,0.00000,0.03392,0.98198,-0.15921,0.0,2023,6,7,13,52,44,420
39.98830,0.08085,-0.08540,0.00000,0.03331,0.98051,-0.15958,0.0,2023,6,7,13,52,44,430
39.98840,0.15085,0.01960,0.00000,0.03477,0.98112,-0.15994,0.0,2023,6,7,13,52,44,440
39.98850,-0.11165,-0.03290,0.00000,0.03343,0.98234,-0.15945,0.0,2023,6,7,13,52,44,450
39.98860,-0.23415,0.19460,0.00000,0.03160,0.98247,-0.15726,0.0,2023,6,7,13,52,44,460
39.98870,-0.12915,-0.01540,0.00000,0.03160,0.98076,-0.15787,0.0,2023,6,7,13,52,44,470
39.98880,0.01085,-0.03290,0.00000,0.03282,0.98271,-0.15958,0.0,2023,6,7,13,52,44,480
39.98890,0.13335,0.03710,0.00000,0.03550,0.98686,-0.16287,0.0,2023,6,7,13,52,44,490
39.98900,-0.19915,0.21210,0.00000,0.03172,0.98039,-0.15836,0.0,2023,6,7,13,52,44,500
39.98910,-0.12915,0.14210,0.00000,0.03501,0.98064,-0.15958,0.0,2023,6,7,13,52,44,510
39.98920,-0.11165,0.15960,0.00000,0.03318,0.97966,-0.15811,0.0,2023,6,7,13,52,44,520
39.98930,0.13335,-0.08540,0.00000,0.03392,0.98161,-0.16067,0.0,2023,6,7,13,52,44,530
39.98940,0.01085,0.10710,0.00000,0.03184,0.98125,-0.15775,0.0,2023,6,7,13,52,44,540
39.98950,-0.11165,0.14210,0.00000,0.03257,0.98247,-0.15604,0.0,2023,6,7,13,52,44,550
39.98960,0.06335,-0.06790,0.00000,0.03245,0.98369,-0.15872,0.0,2023,6,7,13,52,44,560
39.98970,-0.00665,0.08960,0.00000,0.03440,0.98064,-0.16080,0.0,2023,6,7,13,52,44,570
39.98980,-0.07665,0.00210,0.00000,0.03501,0.98039,-0.16019,0.0,2023,6,7,13,52,44,580
39.98990,-0.07665,-0.01540,0.00000,0.03367,0.98222,-0.15811,0.0,2023,6,7,13,52,44,590
39.99000,0.22085,0.00210,0.00000,0.03221,0.98015,-0.16031,0.0,2023,6,7,13,52,44,600
39.99010,0.08085,-0.08540,0.00000,0.03270,0.98369,-0.16226,0.0,2023,6,7,13,52,44,610
39.99020,-0.04165,-0.08540,0.00000,0.03184,0.98015,-0.15945,0.0,2023,6,7,13,52,44,620
39.99030,0.02835,0.01960,0.00000,0.03257,0.97917,-0.16019,0.0,2023,6,7,13,52,44,630
39.99040,-0.19915,0.07210,0.00000,0.03453,0.98247,-0.15762,0.0,2023,6,7,13,52,44,640
39.99050,-0.07665,-0.17290,0.00000,0.03392,0.98356,-0.16019,0.0,2023,6,7,13,52,44,650
39.99060,0.02835,-0.06790,0.00000,0.03257,0.98137,-0.16128,0.0,2023,6,7,13,52,44,660
39.99070,0.13335,0.12460,0.00000,0.03477,0.98173,-0.15909,0.0,2023,6,7,13,52,44,670
39.99080,-0.09415,0.03710,0.00000,0.03331,0.98186,-0.15958,0.0,2023,6,7,13,52,44,680
39.99090,-0.04165,0.10710,0.00000,0.03501,0.98247,-0.16031,0.0,2023,6,7,13,52,44,690
39.99100,0.01085,-0.03290,0.00000,0.03428,0.98442,-0.15884,0.0,2023,6,7,13,52,44,700
39.99110,-0.09415,0.10710,0.00000,0.03172,0.97978,-0.15970,0.0,2023,6,7,13,52,44,710
39.99120,-0.16415,0.15960,0.00000,0.03160,0.98064,-0.16043,0.0,2023,6,7,13,52,44,720
39.99130,0.09835,0.01960,0.00000,0.03172,0.98320,-0.16141,0.0,2023,6,7,13,52,44,730
39.99140,-0.09415,0.00210,0.00000,0.03526,0.98064,-0.15982,0.0,2023,6,7,13,52,44,740
39.99150,0.04585,-0.10290,0.00000,0.03514,0.98259,-0.16067,0.0,2023,6,7,13,52,44,750
39.99160,-0.07665,0.05460,0.00000,0.03562,0.98100,-0.15970,0.0,2023,6,7,13,52,44,760
39.99170,-0.07665,0.00210,0.00000,0.03306,0.98247,-0.16055,0.0,2023,6,7,13,52,44,770
39.99180,-0.14665,0.05460,0.00000,0.03477,0.98308,-0.15982,0.0,2023,6,7,13,52,44,780
39.99190,-0.00665,0.15960,0.00000,0.03501,0.98149,-0.15994,0.0,2023,6,7,13,52,44,790
39.99200,0.22085,-0.05040,0.00000,0.03245,0.98064,-0.16104,0.0,2023,6,7,13,52,44,800
39.99210,0.11585,-0.15540,0.00000,0.03514,0.98332,-0.16189,0.0,2023,6,7,13,52,44,810
39.99220,0.08085,-0.05040,0.00000,0.03306,0.97881,-0.16092,0.0,2023,6,7,13,52,45,820
39.99230,0.22085,-0.19040,0.00000,0.03099,0.98332,-0.16238,0.0,2023,6,7,13,52,45,830
39.99240,-0.11165,0.03710,0.00000,0.03379,0.98369,-0.16067,0.0,2023,6,7,13,52,45,840
39.99250,0.04585,-0.13790,0.00000,0.03306,0.98064,-0.16019,0.0,2023,6,7,13,52,45,850
39.99260,-0.11165,0.00210,0.00000,0.03050,0.98417,-0.15909,0.0,2023,6,7,13,52,45,860
39.99270,0.09835,0.14210,0.00000,0.03148,0.98088,-0.16324,0.0,2023,6,7,13,52,45,870
39.99280,0.09835,-0.13790,0.00000,0.03233,0.97881,-0.15909,0.0,2023,6,7,13,52,45,880
39.99290,0.04585,-0.12040,0.00000,0.03318,0.98137,-0.16165,0.0,2023,6,7,13,52,45,890
39.99300,-0.23415,0.12460,0.00000,0.03477,0.98283,-0.16202,0.0,2023,6,7,13,52,45,900
39.99310,-0.12915,0.00210,0.00000,0.03294,0.98222,-0.16141,0.0,2023,6,7,13,52,45,910
39.99320,-0.02415,0.03710,0.00000,0.03428,0.98247,-0.16214,0.0,2023,6,7,13,52,45,920
39.99330,0.08085,-0.20790,0.00000,0.03465,0.97966,-0.16263,0.0,2023,6,7,13,52,45,930
39.99340,0.22085,-0.15540,0.00000,0.03489,0.98478,-0.16055,0.0,2023,6,7,13,52,45,940
39.99350,-0.19915,-0.03290,0.00000,0.03294,0.98503,-0.16104,0.0,2023,6,7,13,52,45,950
39.99360,0.09835,0.15960,0.00000,0.03306,0.98234,-0.16250,0.0,2023,6,7,13,52,45,960
39.99370,0.01085,-0.20790,0.00000,0.03489,0.98186,-0.16092,0.0,2023,6,7,13,52,45,970
39.99380,-0.04165,-0.06790,0.00000,0.03367,0.98356,-0.16153,0.0,2023,6,7,13,52,45,980
39.99390,-0.11165,-0.03290,0.00000,0.03404,0.98271,-0.16153,0.0,2023,6,7,13,52,45,990
39.99400,0.09835,-0.06790,0.00000,0.03257,0.98173,-0.16165,0.0,2023,6,7,13,52,45,0
39.99410,0.04585,0.00210,0.00000,0.03465,0.98454,-0.16104,0.0,2023,6,7,13,52,45,10
39.99420,-0.02415,-0.06790,0.00000,0.03135,0.98442,-0.15994,0.0,2023,6,7,13,52,45,20
39.99430,0.06335,-0.29540,0.00000,0.03135,0.98222,-0.16153,0.0,2023,6,7,13,52,45,30
39.99440,0.08085,-0.10290,0.00000,0.03306,0.98332,-0.16214,0.0,2023,6,7,13,52,45,40
39.99450,0.02835,0.17710,0.00000,0.03318,0.98308,-0.16080,0.0,2023,6,7,13,52,45,50
39.99460,0.16835,-0.01540,0.00000,0.03416,0.98027,-0.16250,0.0,2023,6,7,13,52,45,60
39.99470,-0.11165,-0.03290,0.00000,0.03318,0.98039,-0.15921,0.0,2023,6,7,13,52,45,70
39.99480,-0.05915,0.08960,0.00000,0.03550,0.98173,-0.16299,0.0,2023,6,7,13,52,45,80
39.99490,-0.19915,-0.12040,0.00000,0.03306,0.98088,-0.16055,0.0,2023,6,7,13,52,45,90
39.99500,0.22085,-0.01540,0.00000,0.03099,0.98186,-0.16080,0.0,2023,6,7,13,52,45,100
39.99510,0.06335,0.00210,0.00000,0.03331,0.98417,-0.16116,0.0,2023,6,7,13,52,45,110
39.99520,-0.23415,-0.12040,0.00000,0.03074,0.98003,-0.16421,0.0,2023,6,7,13,52,45,120
39.99530,-0.33915,0.31710,0.00000,0.03209,0.98344,-0.15982,0.0,2023,6,7,13,52,45,130
39.99540,-0.04165,-0.05040,0.00000,0.03318,0.98271,-0.16031,0.0,2023,6,7,13,52,45,140
39.99550,0.09835,-0.12040,0.00000,0.03501,0.98222,-0.16250,0.0,2023,6,7,13,52,45,150
39.99560,-0.04165,0.05460,0.00000,0.03514,0.98003,-0.16299,0.0,2023,6,7,13,52,45,160
39.99570,-0.00665,0.08960,0.00000,0.03245,0.98100,-0.16067,0.0,2023,6,7,13,52,45,170
39.99580,-0.02415,0.21210,0.00000,0.03355,0.98222,-0.16128,0.0,2023,6,7,13,52,45,180
39.99590,-0.00665,0.07210,0.00000,0.03196,0.98149,-0.16189,0.0,2023,6,7,13,52,45,190
39.99600,0.29085,0.19460,0.00000,0.03245,0.98454,-0.16080,0.0,2023,6,7,13,52,45,200
39.99610,-0.11165,0.03710,0.00000,0.03172,0.98466,-0.16263,0.0,2023,6,7,13,52,45,210
39.99620,-0.05915,-0.19040,0.00000,0.03245,0.98198,-0.15909,0.0,2023,6,7,13,52,45,220
39.99630,-0.09415,0.12460,0.00000,0.03343,0.97978,-0.16043,0.0,2023,6,7,13,52,45,230
39.99640,-0.05915,-0.05040,0.00000,0.03331,0.98112,-0.16031,0.0,2023,6,7,13,52,45,240
39.99650,-0.09415,0.15960,0.00000,0.03392,0.98234,-0.16043,0.0,2023,6,7,13,52,45,250
39.99660,-0.07665,0.17710,0.00000,0.03331,0.98039,-0.16214,0.0,2023,6,7,13,52,45,260
39.99670,0.11585,-0.06790,0.00000,0.03306,0.98259,-0.16055,0.0,2023,6,7,13,52,45,270
39.99680,0.08085,-0.20790,0.00000,0.03416,0.98356,-0.16250,0.0,2023,6,7,13,52,45,280
39.99690,-0.04165,-0.01540,0.00000,0.03184,0.98076,-0.16104,0.0,2023,6,7,13,52,45,290
39.99700,-0.09415,-0.05040,0.00000,0.03306,0.98381,-0.16189,0.0,2023,6,7,13,52,45,300
39.99710,0.09835,0.14210,0.00000,0.03257,0.98405,-0.16031,0.0,2023,6,7,13,52,45,310
39.99720,0.13335,-0.15540,0.00000,0.03392,0.98259,-0.15823,0.0,2023,6,7,13,52,45,320
39.99730,-0.11165,0.08960,0.00000,0.03367,0.98332,-0.15945,0.0,2023,6,7,13,52,45,330
39.99740,0.15085,-0.10290,0.00000,0.03233,0.98247,-0.16104,0.0,2023,6,7,13,52,45,340
39.99750,0.02835,0.14210,0.00000,0.03379,0.98003,-0.15994,0.0,2023,6,7,13,52,45,350
39.99760,-0.07665,0.00210,0.00000,0.03184,0.97966,-0.16141,0.0,2023,6,7,13,52,45,360
39.99770,-0.18165,0.10710,0.00000,0.03331,0.97990,-0.16116,0.0,2023,6,7,13,52,45,370
39.99780,-0.14665,-0.03290,0.00000,0.03221,0.98125,-0.15799,0.0,2023,6,7,13,52,45,380
39.99790,-0.11165,-0.22540,0.00000,0.03416,0.98064,-0.15982,0.0,2023,6,7,13,52,45,390
39.99800,-0.14665,0.08960,0.00000,0.03233,0.98137,-0.16226,0.0,2023,6,7,13,52,45,400
39.99810,-0.05915,0.08960,0.00000,0.03318,0.98356,-0.15958,0.0,2023,6,7,13,52,45,410
39.99820,-0.05915,0.17710,0.00000,0.03282,0.98100,-0.16043,0.0,2023,6,7,13,52,45,420
39.99830,-0.07665,0.00210,0.00000,0.03538,0.98332,-0.15860,0.0,2023,6,7,13,52,45,430
39.99840,0.13335,-0.10290,0.00000,0.03270,0.98210,-0.16043,0.0,2023,6,7,13,52,45,440
39.99850,-0.23415,-0.06790,0.00000,0.03233,0.98039,-0.16019,0.0,2023,6,7,13,52,45,450
39.99860,-0.04165,-0.05040,0.00000,0.03184,0.98015,-0.15970,0.0,2023,6,7,13,52,45,460
39.99870,-0.02415,-0.01540,0.00000,0.03294,0.98149,-0.15970,0.0,2023,6,7,13,52,45,470
39.99880,0.09835,-0.01540,0.00000,0.03221,0.98442,-0.16055,0.0,2023,6,7,13,52,45,480
39.99890,0.06335,-0.20790,0.00000,0.03306,0.98173,-0.16116,0.0,2023,6,7,13,52,45,490
39.99900,0.13335,0.17710,0.00000,0.03355,0.98186,-0.15738,0.0,2023,6,7,13,52,45,500
39.99910,-0.05915,-0.15540,0.00000,0.03538,0.98051,-0.16006,0.0,2023,6,7,13,52,45,510
39.99920,0.02835,0.07210,0.00000,0.03099,0.97868,-0.15921,0.0,2023,6,7,13,52,45,520
39.99930,0.08085,0.01960,0.00000,0.03404,0.98234,-0.15982,0.0,2023,6,7,13,52,45,530
39.99940,-0.02415,0.00210,0.00000,0.03550,0.98344,-0.16250,0.0,2023,6,7,13,52,45,540
39.99950,-0.05915,-0.22540,0.00000,0.03135,0.98137,-0.16055,0.0,2023,6,7,13,52,45,550
39.99960,-0.09415,0.00210,0.00000,0.03196,0.98161,-0.15750,0.0,2023,6,7,13,52,45,560
39.99970,-0.16415,-0.08540,0.00000,0.03282,0.98503,-0.15640,0.0,2023,6,7,13,52,45,570
39.99980,0.20335,0.05460,0.00000,0.03257,0.98198,-0.16043,0.0,2023,6,7,13,52,45,580
39.99990,-0.04165,-0.01540,0.00000,0.03355,0.98210,-0.16153,0.0,2023,6,7,13,52,45,590
40.00000,-0.05915,0.03710,0.00000,0.03135,0.98454,-0.16104,0.0,2023,6,7,13,52,45,600
40.00010,0.15085,-0.03290,0.00000,0.03428,0.98198,-0.15994,0.0,2023,6,7,13,52,45,610
40.00020,0.22085,0.01960,0.00000,0.03379,0.98064,-0.16214,0.0,2023,6,7,13,52,45,620
40.00030,-0.11165,0.01960,0.00000,0.03123,0.97893,-0.15567,0.0,2023,6,7,13,52,45,630
40.00040,0.06335,-0.13790,0.00000,0.03209,0.98503,-0.16165,0.0,2023,6,7,13,52,45,640
40.00050,0.32585,0.01960,0.00000,0.03135,0.98247,-0.16263,0.0,2023,6,7,13,52,45,650
40.00060,0.16835,-0.10290,0.00000,0.03013,0.98259,-0.16458,0.0,2023,6,7,13,52,45,660
40.00070,-0.16415,-0.13790,0.00000,0.03221,0.98393,-0.15811,0.0,2023,6,7,13,52,45,670
40.00080,-0.02415,0.03710,0.00000,0.03379,0.97942,-0.15750,0.0,2023,6,7,13,52,45,680
40.00090,0.08085,-0.12040,0.00000,0.03379,0.98405,-0.15872,0.0,2023,6,7,13,52,45,690
40.00100,-0.04165,-0.10290,0.00000,0.03379,0.98100,-0.15836,0.0,2023,6,7,13,52,45,700
40.00110,0.06335,-0.29540,0.00000,0.03489,0.97990,-0.15884,0.0,2023,6,7,13,52,45,710
40.00120,-0.04165,-0.05040,0.00000,0.03160,0.98564,-0.16006,0.0,2023,6,7,13,52,45,720
40.00130,0.06335,0.01960,0.00000,0.03331,0.98088,-0.16226,0.0,2023,6,7,13,52,46,730
40.00140,-0.16415,0.07210,0.00000,0.03135,0.98308,-0.16067,0.0,2023,6,7,13,52,46,740
40.00150,0.15085,0.01960,0.00000,0.03148,0.98064,-0.16165,0.0,2023,6,7,13,52,46,750
40.00160,0.04585,-0.05040,0.00000,0.03331,0.98173,-0.15884,0.0,2023,6,7,13,52,46,760
40.00170,-0.02415,0.01960,0.00000,0.03428,0.98198,-0.16092,0.0,2023,6,7,13,52,46,770
40.00180,-0.07665,0.12460,0.00000,0.03392,0.98503,-0.15897,0.0,2023,6,7,13,52,46,780
40.00190,-0.02415,0.01960,0.00000,0.03306,0.98283,-0.15970,0.0,2023,6,7,13,52,46,790
40.00200,-0.07665,0.28210,0.00000,0.03172,0.98186,-0.16128,0.0,2023,6,7,13,52,46,800
40.00210,-0.16415,0.05460,0.00000,0.03184,0.98405,-0.15982,0.0,2023,6,7,13,52,46,810
40.00220,-0.04165,-0.03290,0.00000,0.03099,0.98112,-0.15897,0.0,2023,6,7,13,52,46,820
40.00230,0.02835,0.12460,0.00000,0.03379,0.98100,-0.15897,0.0,2023,6,7,13,52,46,830
40.00240,0.08085,-0.10290,0.00000,0.03404,0.98247,-0.15921,0.0,2023,6,7,13,52,46,840
40.00250,-0.00665,-0.06790,0.00000,0.03184,0.98442,-0.15909,0.0,2023,6,7,13,52,46,850
40.00260,0.01085,-0.05040,0.00000,0.03294,0.98088,-0.16177,0.0,2023,6,7,13,52,46,860
40.00270,0.13335,-0.06790,0.00000,0.03331,0.98271,-0.16128,0.0,2023,6,7,13,52,46,870
40.00280,0.16835,0.01960,0.00000,0.03428,0.98320,-0.16275,0.0,2023,6,7,13,52,46,880
40.00290,0.08085,-0.24290,0.00000,0.03440,0.98137,-0.16226,0.0,2023,6,7,13,52,46,890
40.00300,-0.18165,0.10710,0.00000,0.03355,0.98308,-0.16165,0.0,2023,6,7,13,52,46,900
40.00310,-0.18165,0.28210,0.00000,0.03306,0.98320,-0.16067,0.0,2023,6,7,13,52,46,910
40.00320,0.01085,0.17710,0.00000,0.03282,0.98198,-0.16177,0.0,2023,6,7,13,52,46,920
40.00330,-0.02415,-0.33040,0.00000,0.03355,0.98466,-0.15982,0.0,2023,6,7,13,52,46,930
40.00340,0.11585,-0.12040,0.00000,0.03294,0.98137,-0.16141,0.0,2023,6,7,13,52,46,940
40.00350,-0.14665,-0.01540,0.00000,0.03355,0.98283,-0.15897,0.0,2023,6,7,13,52,46,950
40.00360,0.15085,-0.06790,0.00000,0.03343,0.98100,-0.16006,0.0,2023,6,7,13,52,46,960
40.00370,-0.09415,0.00210,0.00000,0.03465,0.98112,-0.16006,0.0,2023,6,7,13,52,46,970
40.00380,-0.05915,-0.06790,0.00000,0.03367,0.98210,-0.16128,0.0,2023,6,7,13,52,46,980
40.00390,-0.16415,0.14210,0.00000,0.03392,0.98247,-0.16006,0.0,2023,6,7,13,52,46,990
40.00400,-0.16415,-0.05040,0.00000,0.03440,0.98271,-0.16128,0.0,2023,6,7,13,52,46,0
40.00410,0.11585,0.03710,0.00000,0.03306,0.98149,-0.15933,0.0,2023,6,7,13,52,46,10
40.00420,0.13335,-0.15540,0.00000,0.03306,0.98149,-0.15945,0.0,2023,6,7,13,52,46,20
40.00430,-0.18165,-0.20790,0.00000,0.03392,0.98247,-0.16104,0.0,2023,6,7,13,52,46,30
40.00440,-0.05915,-0.01540,0.00000,0.03294,0.98247,-0.16031,0.0,2023,6,7,13,52,46,40
40.00450,0.06335,-0.15540,0.00000,0.03477,0.98381,-0.16128,0.0,2023,6,7,13,52,46,50
40.00460,0.02835,-0.13790,0.00000,0.03233,0.98247,-0.16031,0.0,2023,6,7,13,52,46,60
40.00470,-0.12915,0.08960,0.00000,0.03404,0.98588,-0.16067,0.0,2023,6,7,13,52,46,70
40.00480,0.02835,-0.05040,0.00000,0.03416,0.98064,-0.16104,0.0,2023,6,7,13,52,46,80
40.00490,0.06335,-0.05040,0.00000,0.03367,0.98247,-0.16104,0.0,2023,6,7,13,52,46,90
40.00500,-0.02415,0.00210,0.00000,0.03343,0.98125,-0.16189,0.0,2023,6,7,13,52,46,100
40.00510,0.08085,0.05460,0.00000,0.03538,0.98112,-0.16031,0.0,2023,6,7,13,52,46,110
40.00520,0.08085,0.01960,0.00000,0.03331,0.98222,-0.16092,0.0,2023,6,7,13,52,46,120
40.00530,-0.02415,0.01960,0.00000,0.03148,0.98417,-0.16067,0.0,2023,6,7,13,52,46,130
40.00540,0.09835,-0.10290,0.00000,0.03404,0.98051,-0.15921,0.0,2023,6,7,13,52,46,140
40.00550,0.09835,-0.13790,0.00000,0.03318,0.98088,-0.15775,0.0,2023,6,7,13,52,46,150
40.00560,0.09835,-0.24290,0.00000,0.03135,0.97795,-0.16031,0.0,2023,6,7,13,52,46,160
40.00570,-0.00665,-0.08540,0.00000,0.03233,0.98137,-0.15933,0.0,2023,6,7,13,52,46,170
40.00580,0.08085,0.10710,0.00000,0.03392,0.98308,-0.15787,0.0,2023,6,7,13,52,46,180
40.00590,0.02835,-0.12040,0.00000,0.03221,0.98344,-0.15994,0.0,2023,6,7,13,52,46,190
40.00600,0.08085,0.00210,0.00000,0.03135,0.98112,-0.16165,0.0,2023,6,7,13,52,46,200
40.00610,0.01085,0.01960,0.00000,0.03294,0.98076,-0.15945,0.0,2023,6,7,13,52,46,210
40.00620,0.06335,-0.05040,0.00000,0.03331,0.98161,-0.15982,0.0,2023,6,7,13,52,46,220
40.00630,-0.12915,0.22960,0.00000,0.03343,0.98198,-0.15823,0.0,2023,6,7,13,52,46,230
40.00640,0.23835,-0.03290,0.00000,0.03416,0.98393,-0.16092,0.0,2023,6,7,13,52,46,240
40.00650,0.09835,0.01960,0.00000,0.03477,0.98064,-0.16311,0.0,2023,6,7,13,52,46,250
40.00660,-0.07665,-0.05040,0.00000,0.03367,0.98478,-0.16202,0.0,2023,6,7,13,52,46,260
40.00670,-0.11165,-0.08540,0.00000,0.03440,0.98210,-0.15836,0.0,2023,6,7,13,52,46,270
40.00680,0.01085,-0.17290,0.00000,0.03306,0.98271,-0.15897,0.0,2023,6,7,13,52,46,280
40.00690,-0.11165,-0.03290,0.00000,0.03392,0.98125,-0.15909,0.0,2023,6,7,13,52,46,290
40.00700,0.08085,-0.13790,0.00000,0.03123,0.98430,-0.15811,0.0,2023,6,7,13,52,46,300
40.00710,0.09835,-0.12040,0.00000,0.03416,0.98137,-0.16055,0.0,2023,6,7,13,52,46,310
40.00720,-0.05915,0.07210,0.00000,0.03318,0.98430,-0.16128,0.0,2023,6,7,13,52,46,320
40.00730,-0.11165,-0.06790,0.00000,0.03294,0.98161,-0.16238,0.0,2023,6,7,13,52,46,330
40.00740,-0.23415,-0.15540,0.00000,0.03294,0.98271,-0.15945,0.0,2023,6,7,13,52,46,340
40.00750,0.04585,-0.15540,0.00000,0.03562,0.98051,-0.15799,0.0,2023,6,7,13,52,46,350
40.00760,-0.00665,0.03710,0.00000,0.03270,0.98308,-0.15750,0.0,2023,6,7,13,52,46,360
40.00770,-0.05915,-0.15540,0.00000,0.03282,0.98259,-0.15909,0.0,2023,6,7,13,52,46,370
40.00780,-0.02415,-0.13790,0.00000,0.03172,0.98332,-0.16031,0.0,2023,6,7,13,52,46,380
40.00790,0.02835,-0.22540,0.00000,0.03392,0.98405,-0.15921,0.0,2023,6,7,13,52,46,390
40.00800,0.11585,-0.06790,0.00000,0.03221,0.98137,-0.16019,0.0,2023,6,7,13,52,46,400
40.00810,0.08085,-0.15540,0.00000,0.03331,0.98381,-0.16055,0.0,2023,6,7,13,52,46,410
40.00820,0.01085,-0.01540,0.00000,0.03379,0.98149,-0.16043,0.0,2023,6,7,13,52,46,420
40.00830,0.01085,0.22960,0.00000,0.03013,0.98283,-0.16031,0.0,2023,6,7,13,52,46,430
40.00840,0.23835,-0.19040,0.00000,0.03392,0.98259,-0.15945,0.0,2023,6,7,13,52,46,440
40.00850,-0.11165,-0.15540,0.00000,0.03355,0.98210,-0.16031,0.0,2023,6,7,13,52,46,450
40.00860,-0.09415,0.15960,0.00000,0.03233,0.98356,-0.16226,0.0,2023,6,7,13,52,46,460
40.00870,-0.04165,0.08960,0.00000,0.03306,0.98210,-0.15994,0.0,2023,6,7,13,52,46,470
40.00880,-0.00665,-0.15540,0.00000,0.03343,0.98308,-0.15884,0.0,2023,6,7,13,52,46,480
40.00890,0.06335,0.01960,0.00000,0.03270,0.98161,-0.15982,0.0,2023,6,7,13,52,46,490
40.00900,0.02835,0.01960,0.00000,0.03379,0.98295,-0.16067,0.0,2023,6,7,13,52,46,500
40.00910,0.01085,-0.10290,0.00000,0.03294,0.98247,-0.16067,0.0,2023,6,7,13,52,46,510
40.00920,0.06335,0.19460,0.00000,0.03270,0.98295,-0.16067,0.0,2023,6,7,13,52,46,520
40.00930,0.08085,0.29960,0.00000,0.03306,0.98039,-0.16006,0.0,2023,6,7,13,52,46,530
40.00940,0.02835,0.00210,0.00000,0.03318,0.98149,-0.15860,0.0,2023,6,7,13,52,46,540
40.00950,-0.02415,0.05460,0.00000,0.03294,0.98454,-0.15982,0.0,2023,6,7,13,52,46,550
40.00960,-0.12915,0.01960,0.00000,0.03404,0.98308,-0.15945,0.0,2023,6,7,13,52,46,560
40.00970,-0.02415,0.00210,0.00000,0.03038,0.98027,-0.16031,0.0,2023,6,7,13,52,46,570
40.00980,0.04585,-0.17290,0.00000,0.03379,0.98222,-0.16202,0.0,2023,6,7,13,52,46,580
40.00990,0.02835,-0.13790,0.00000,0.03245,0.98003,-0.16031,0.0,2023,6,7,13,52,46,590
40.01000,-0.11165,0.07210,0.00000,0.03306,0.98173,-0.15897,0.0,2023,6,7,13,52,46,600
40.01010,-0.05915,0.03710,0.00000,0.03514,0.98198,-0.15897,0.0,2023,6,7,13,52,46,610
40.01020,0.09835,-0.19040,0.00000,0.03392,0.98088,-0.16067,0.0,2023,6,7,13,52,47,620
40.01030,-0.05915,-0.22540,0.00000,0.03318,0.98137,-0.15848,0.0,2023,6,7,13,52,47,630
40.01040,-0.04165,-0.01540,0.00000,0.03257,0.98491,-0.15897,0.0,2023,6,7,13,52,47,640
40.01050,-0.19915,-0.03290,0.00000,0.03379,0.98478,-0.15884,0.0,2023,6,7,13,52,47,650
40.01060,-0.00665,0.14210,0.00000,0.03331,0.98478,-0.15884,0.0,2023,6,7,13,52,47,660
40.01070,-0.00665,-0.01540,0.00000,0.03428,0.98088,-0.15823,0.0,2023,6,7,13,52,47,670
40.01080,0.15085,-0.06790,0.00000,0.03379,0.98161,-0.15909,0.0,2023,6,7,13,52,47,680
40.01090,-0.11165,-0.01540,0.00000,0.03294,0.98186,-0.16226,0.0,2023,6,7,13,52,47,690
40.01100,-0.04165,-0.01540,0.00000,0.03501,0.98198,-0.16153,0.0,2023,6,7,13,52,47,700
40.01110,0.18585,-0.10290,0.00000,0.03392,0.98442,-0.15714,0.0,2023,6,7,13,52,47,710
40.01120,0.01085,0.00210,0.00000,0.03367,0.98283,-0.16080,0.0,2023,6,7,13,52,47,720
40.01130,0.06335,-0.12040,0.00000,0.03294,0.98369,-0.15811,0.0,2023,6,7,13,52,47,730
40.01140,-0.07665,0.07210,0.00000,0.03306,0.98527,-0.16128,0.0,2023,6,7,13,52,47,740
40.01150,-0.16415,-0.03290,0.00000,0.03331,0.97917,-0.16043,0.0,2023,6,7,13,52,47,750
40.01160,0.02835,0.05460,0.00000,0.03294,0.98381,-0.15982,0.0,2023,6,7,13,52,47,760
40.01170,0.06335,-0.03290,0.00000,0.03428,0.98271,-0.16141,0.0,2023,6,7,13,52,47,770
40.01180,0.13335,0.05460,0.00000,0.03331,0.98051,-0.15933,0.0,2023,6,7,13,52,47,780
40.01190,0.09835,-0.12040,0.00000,0.03282,0.98149,-0.16263,0.0,2023,6,7,13,52,47,790
40.01200,0.13335,0.01960,0.00000,0.03184,0.98295,-0.15970,0.0,2023,6,7,13,52,47,800
40.01210,-0.00665,0.00210,0.00000,0.03160,0.97917,-0.15909,0.0,2023,6,7,13,52,47,810
40.01220,-0.14665,0.07210,0.00000,0.03184,0.98210,-0.16043,0.0,2023,6,7,13,52,47,820
40.01230,-0.26915,0.03710,0.00000,0.03416,0.98320,-0.15457,0.0,2023,6,7,13,52,47,830
40.01240,0.16835,0.01960,0.00000,0.03343,0.98564,-0.16128,0.0,2023,6,7,13,52,47,840
40.01250,0.18585,-0.03290,0.00000,0.03282,0.98454,-0.16177,0.0,2023,6,7,13,52,47,850
40.01260,0.11585,0.03710,0.00000,0.03001,0.98393,-0.16287,0.0,2023,6,7,13,52,47,860
40.01270,0.01085,-0.05040,0.00000,0.03257,0.98112,-0.16336,0.0,2023,6,7,13,52,47,870
40.01280,-0.14665,-0.17290,0.00000,0.03294,0.98064,-0.15445,0.0,2023,6,7,13,52,47,880
40.01290,-0.00665,0.03710,0.00000,0.03257,0.98381,-0.16153,0.0,2023,6,7,13,52,47,890
40.01300,-0.05915,0.14210,0.00000,0.03294,0.98051,-0.16019,0.0,2023,6,7,13,52,47,900
40.01310,0.18585,-0.10290,0.00000,0.03453,0.98198,-0.16263,0.0,2023,6,7,13,52,47,910
40.01320,0.02835,-0.27790,0.00000,0.03489,0.98186,-0.16409,0.0,2023,6,7,13,52,47,920
40.01330,-0.39165,0.08960,0.00000,0.03184,0.97868,-0.16116,0.0,2023,6,7,13,52,47,930
40.01340,0.11585,-0.03290,0.00000,0.03245,0.98064,-0.15665,0.0,2023,6,7,13,52,47,940
40.01350,0.18585,0.07210,0.00000,0.03514,0.98198,-0.16055,0.0,2023,6,7,13,52,47,950
40.01360,-0.04165,0.01960,0.00000,0.03392,0.98039,-0.15909,0.0,2023,6,7,13,52,47,960
40.01370,-0.05915,0.10710,0.00000,0.03416,0.98381,-0.15933,0.0,2023,6,7,13,52,47,970
40.01380,-0.14665,0.08960,0.00000,0.03209,0.97881,-0.15872,0.0,2023,6,7,13,52,47,980
40.01390,0.06335,-0.19040,0.00000,0.03221,0.98247,-0.15543,0.0,2023,6,7,13,52,47,990
40.01400,0.09835,-0.05040,0.00000,0.03367,0.98137,-0.16067,0.0,2023,6,7,13,52,47,0
40.01410,0.09835,0.03710,0.00000,0.03501,0.98295,-0.16104,0.0,2023,6,7,13,52,47,10
40.01420,-0.07665,-0.17290,0.00000,0.03465,0.98198,-0.16128,0.0,2023,6,7,13,52,47,20
40.01430,-0.04165,0.12460,0.00000,0.03318,0.98247,-0.15958,0.0,2023,6,7,13,52,47,30
40.01440,-0.04165,-0.01540,0.00000,0.03465,0.98015,-0.15958,0.0,2023,6,7,13,52,47,40
40.01450,-0.14665,0.19460,0.00000,0.03221,0.98393,-0.16031,0.0,2023,6,7,13,52,47,50
40.01460,0.15085,-0.22540,0.00000,0.03367,0.98332,-0.16141,0.0,2023,6,7,13,52,47,60
40.01470,-0.09415,0.00210,0.00000,0.03221,0.98173,-0.16055,0.0,2023,6,7,13,52,47,70
40.01480,-0.07665,-0.01540,0.00000,0.03404,0.98247,-0.15848,0.0,2023,6,7,13,52,47,80
40.01490,-0.16415,-0.05040,0.00000,0.03331,0.98015,-0.15811,0.0,2023,6,7,13,52,47,90
40.01500,0.13335,-0.41790,0.00000,0.03111,0.97942,-0.16080,0.0,2023,6,7,13,52,47,100
40.01510,-0.18165,-0.15540,0.00000,0.03367,0.98198,-0.15884,0.0,2023,6,7,13,52,47,110
40.01520,0.11585,-0.22540,0.00000,0.03416,0.98259,-0.15787,0.0,2023,6,7,13,52,47,120
40.01530,-0.11165,0.08960,0.00000,0.03331,0.98478,-0.15884,0.0,2023,6,7,13,52,47,130
40.01540,-0.12915,-0.03290,0.00000,0.03282,0.98271,-0.15787,0.0,2023,6,7,13,52,47,140
40.01550,-0.00665,-0.13790,0.00000,0.03343,0.98149,-0.16006,0.0,2023,6,7,13,52,47,150
40.01560,-0.07665,0.12460,0.00000,0.03233,0.98015,-0.15921,0.0,2023,6,7,13,52,47,160
40.01570,-0.00665,-0.10290,0.00000,0.03135,0.98320,-0.16141,0.0,2023,6,7,13,52,47,170
40.01580,-0.05915,0.07210,0.00000,0.03087,0.98515,-0.16006,0.0,2023,6,7,13,52,47,180
40.01590,-0.16415,0.15960,0.00000,0.03196,0.98125,-0.15762,0.0,2023,6,7,13,52,47,190
40.01600,-0.11165,-0.26040,0.00000,0.03440,0.98051,-0.15933,0.0,2023,6,7,13,52,47,200
40.01610,0.16835,-0.05040,0.00000,0.03355,0.98186,-0.15945,0.0,2023,6,7,13,52,47,210
40.01620,-0.07665,0.03710,0.00000,0.03379,0.98332,-0.16177,0.0,2023,6,7,13,52,47,220
40.01630,0.08085,-0.13790,0.00000,0.03367,0.98247,-0.16006,0.0,2023,6,7,13,52,47,230
40.01640,-0.09415,0.05460,0.00000,0.03123,0.98210,-0.16080,0.0,2023,6,7,13,52,47,240
40.01650,-0.07665,-0.06790,0.00000,0.03379,0.98381,-0.15860,0.0,2023,6,7,13,52,47,250
40.01660,-0.09415,-0.08540,0.00000,0.03514,0.98234,-0.15860,0.0,2023,6,7,13,52,47,260
40.01670,0.06335,-0.13790,0.00000,0.03453,0.97990,-0.15945,0.0,2023,6,7,13,52,47,270
40.01680,0.08085,0.00210,0.00000,0.03282,0.98198,-0.16055,0.0,2023,6,7,13,52,47,280
40.01690,0.20335,-0.27790,0.00000,0.03416,0.98198,-0.16043,0.0,2023,6,7,13,52,47,290
40.01700,-0.23415,0.10710,0.00000,0.03184,0.98295,-0.16067,0.0,2023,6,7,13,52,47,300
40.01710,-0.07665,0.19460,0.00000,0.03184,0.98064,-0.15872,0.0,2023,6,7,13,52,47,310
40.01720,-0.04165,0.19460,0.00000,0.03416,0.98295,-0.16128,0.0,2023,6,7,13,52,47,320
40.01730,0.01085,-0.05040,0.00000,0.03428,0.98247,-0.16141,0.0,2023,6,7,13,52,47,330
40.01740,-0.05915,-0.05040,0.00000,0.03270,0.98247,-0.16165,0.0,2023,6,7,13,52,47,340
40.01750,0.09835,-0.01540,0.00000,0.03257,0.98283,-0.15860,0.0,2023,6,7,13,52,47,350
40.01760,0.18585,-0.20790,0.00000,0.03501,0.98064,-0.16116,0.0,2023,6,7,13,52,47,360
40.01770,-0.02415,-0.12040,0.00000,0.03367,0.98222,-0.15787,0.0,2023,6,7,13,52,47,370
40.01780,0.22085,-0.27790,0.00000,0.03282,0.98222,-0.15958,0.0,2023,6,7,13,52,47,380
40.01790,-0.04165,-0.06790,0.00000,0.03196,0.98320,-0.16080,0.0,2023,6,7,13,52,47,390
40.01800,-0.12915,0.05460,0.00000,0.03379,0.98149,-0.16202,0.0,2023,6,7,13,52,47,400
40.01810,-0.07665,0.10710,0.00000,0.03209,0.98173,-0.16153,0.0,2023,6,7,13,52,47,410
40.01820,-0.00665,-0.27790,0.00000,0.03306,0.98295,-0.16067,0.0,2023,6,7,13,52,47,420
40.01830,0.11585,-0.12040,0.00000,0.03294,0.98320,-0.16226,0.0,2023,6,7,13,52,47,430
40.01840,-0.09415,0.14210,0.00000,0.03367,0.98295,-0.16104,0.0,2023,6,7,13,52,47,440
40.01850,0.04585,0.21210,0.00000,0.03489,0.98247,-0.15860,0.0,2023,6,7,13,52,47,450
40.01860,-0.05915,-0.08540,0.00000,0.03428,0.98295,-0.16019,0.0,2023,6,7,13,52,47,460
40.01870,0.04585,-0.05040,0.00000,0.03416,0.98466,-0.16006,0.0,2023,6,7,13,52,47,470
40.01880,0.15085,-0.03290,0.00000,0.03270,0.98064,-0.15628,0.0,2023,6,7,13,52,47,480
40.01890,-0.05915,-0.06790,0.00000,0.03306,0.98295,-0.16080,0.0,2023,6,7,13,52,47,490
40.01900,-0.04165,0.10710,0.00000,0.03087,0.98320,-0.15945,0.0,2023,6,7,13,52,47,500
40.01910,0.08085,-0.12040,0.00000,0.03331,0.98234,-0.16031,0.0,2023,6,7,13,52,47,510
40.01920,0.02835,0.00210,0.00000,0.03038,0.98222,-0.16153,0.0,2023,6,7,13,52,47,520
40.01930,0.11585,-0.05040,0.00000,0.03282,0.98234,-0.16031,0.0,2023,6,7,13,52,48,530
40.01940,0.11585,0.00210,0.00000,0.03209,0.98271,-0.16092,0.0,2023,6,7,13,52,48,540
40.01950,0.02835,0.08960,0.00000,0.03355,0.98393,-0.16006,0.0,2023,6,7,13,52,48,550
40.01960,-0.02415,0.01960,0.00000,0.03367,0.98100,-0.15909,0.0,2023,6,7,13,52,48,560
40.01970,-0.02415,-0.03290,0.00000,0.03562,0.98344,-0.15958,0.0,2023,6,7,13,52,48,570
40.01980,0.06335,-0.05040,0.00000,0.03379,0.97990,-0.15958,0.0,2023,6,7,13,52,48,580
40.01990,0.02835,-0.08540,0.00000,0.03209,0.98173,-0.16080,0.0,2023,6,7,13,52,48,590
40.02000,-0.00665,0.15960,0.00000,0.03148,0.98149,-0.15945,0.0,2023,6,7,13,52,48,600
40.02010,0.16835,-0.22540,0.00000,0.03233,0.97966,-0.16189,0.0,2023,6,7,13,52,48,610
40.02020,0.13335,-0.13790,0.00000,0.03331,0.98027,-0.16019,0.0,2023,6,7,13,52,48,620
40.02030,0.06335,-0.10290,0.00000,0.03172,0.98295,-0.16104,0.0,2023,6,7,13,52,48,630
40.02040,-0.02415,0.00210,0.00000,0.03294,0.98539,-0.16128,0.0,2023,6,7,13,52,48,640
40.02050,-0.14665,-0.20790,0.00000,0.03270,0.98137,-0.15933,0.0,2023,6,7,13,52,48,650
40.02060,0.01085,0.01960,0.00000,0.03343,0.98173,-0.16141,0.0,2023,6,7,13,52,48,660
40.02070,0.13335,-0.05040,0.00000,0.03294,0.98173,-0.16031,0.0,2023,6,7,13,52,48,670
40.02080,0.01085,0.15960,0.00000,0.03257,0.98430,-0.16226,0.0,2023,6,7,13,52,48,680
40.02090,-0.02415,0.08960,0.00000,0.03367,0.98198,-0.16067,0.0,2023,6,7,13,52,48,690
40.02100,0.06335,0.14210,0.00000,0.03282,0.98356,-0.15982,0.0,2023,6,7,13,52,48,700
40.02110,-0.02415,0.12460,0.00000,0.03355,0.98173,-0.16104,0.0,2023,6,7,13,52,48,710
40.02120,0.01085,-0.10290,0.00000,0.03221,0.98137,-0.16080,0.0,2023,6,7,13,52,48,720
40.02130,-0.05915,-0.01540,0.00000,0.03233,0.98210,-0.16153,0.0,2023,6,7,13,52,48,730
40.02140,-0.07665,0.12460,0.00000,0.03209,0.98271,-0.15970,0.0,2023,6,7,13,52,48,740
40.02150,-0.02415,0.07210,0.00000,0.03392,0.98247,-0.16031,0.0,2023,6,7,13,52,48,750
40.02160,0.02835,-0.19040,0.00000,0.03501,0.98125,-0.15945,0.0,2023,6,7,13,52,48,760
40.02170,-0.02415,0.22960,0.00000,0.03270,0.98149,-0.16165,0.0,2023,6,7,13,52,48,770
40.02180,0.01085,0.05460,0.00000,0.03367,0.97990,-0.15982,0.0,2023,6,7,13,52,48,780
40.02190,-0.04165,0.00210,0.00000,0.03282,0.98076,-0.16238,0.0,2023,6,7,13,52,48,790
40.02200,-0.07665,-0.01540,0.00000,0.03306,0.98027,-0.15982,0.0,2023,6,7,13,52,48,800
40.02210,-0.07665,0.01960,0.00000,0.03099,0.98259,-0.16238,0.0,2023,6,7,13,52,48,810
40.02220,0.18585,-0.10290,0.00000,0.03111,0.98186,-0.16006,0.0,2023,6,7,13,52,48,820
40.02230,-0.18165,0.05460,0.00000,0.03562,0.98137,-0.15970,0.0,2023,6,7,13,52,48,830
40.02240,-0.14665,-0.08540,0.00000,0.03331,0.98076,-0.16153,0.0,2023,6,7,13,52,48,840
40.02250,0.02835,-0.29540,0.00000,0.03514,0.97905,-0.16238,0.0,2023,6,7,13,52,48,850
40.02260,-0.02415,0.12460,0.00000,0.03562,0.97966,-0.16080,0.0,2023,6,7,13,52,48,860
40.02270,0.25585,0.00210,0.00000,0.03428,0.98344,-0.15872,0.0,2023,6,7,13,52,48,870
40.02280,0.01085,0.07210,0.00000,0.03514,0.98051,-0.15872,0.0,2023,6,7,13,52,48,880
40.02290,0.01085,-0.13790,0.00000,0.03453,0.98198,-0.15933,0.0,2023,6,7,13,52,48,890
40.02300,-0.12915,0.05460,0.00000,0.03453,0.98344,-0.15970,0.0,2023,6,7,13,52,48,900
40.02310,-0.04165,-0.15540,0.00000,0.03282,0.98210,-0.15982,0.0,2023,6,7,13,52,48,910
40.02320,0.11585,0.00210,0.00000,0.03135,0.97807,-0.15897,0.0,2023,6,7,13,52,48,920
40.02330,-0.04165,0.03710,0.00000,0.03416,0.98344,-0.15897,0.0,2023,6,7,13,52,48,930
40.02340,-0.02415,-0.12040,0.00000,0.03343,0.98076,-0.16128,0.0,2023,6,7,13,52,48,940
40.02350,-0.04165,0.12460,0.00000,0.03489,0.98198,-0.16202,0.0,2023,6,7,13,52,48,950
40.02360,-0.02415,-0.06790,0.00000,0.03294,0.98173,-0.16031,0.0,2023,6,7,13,52,48,960
40.02370,0.08085,-0.01540,0.00000,0.03379,0.98198,-0.16055,0.0,2023,6,7,13,52,48,970
40.02380,0.08085,-0.01540,0.00000,0.03148,0.98271,-0.16055,0.0,2023,6,7,13,52,48,980
40.02390,-0.12915,-0.06790,0.00000,0.03379,0.98015,-0.16287,0.0,2023,6,7,13,52,48,990
40.02400,0.02835,0.03710,0.00000,0.03453,0.98161,-0.16043,0.0,2023,6,7,13,52,48,0
40.02410,0.04585,-0.19040,0.00000,0.03257,0.98283,-0.16214,0.0,2023,6,7,13,52,48,10
40.02420,-0.00665,0.05460,0.00000,0.03379,0.98149,-0.16055,0.0,2023,6,7,13,52,48,20
40.02430,-0.07665,0.15960,0.00000,0.03392,0.98295,-0.15933,0.0,2023,6,7,13,52,48,30
40.02440,-0.09415,-0.03290,0.00000,0.03318,0.98149,-0.16031,0.0,2023,6,7,13,52,48,40
40.02450,0.09835,-0.06790,0.00000,0.03050,0.98100,-0.16031,0.0,2023,6,7,13,52,48,50
40.02460,0.11585,0.00210,0.00000,0.03392,0.98332,-0.16006,0.0,2023,6,7,13,52,48,60
40.02470,0.06335,0.00210,0.00000,0.03562,0.98320,-0.16031,0.0,2023,6,7,13,52,48,70
40.02480,0.13335,0.15960,0.00000,0.03233,0.98210,-0.16250,0.0,2023,6,7,13,52,48,80
40.02490,0.11585,-0.05040,0.00000,0.03209,0.98210,-0.16189,0.0,2023,6,7,13,52,48,90
40.02500,-0.12915,0.05460,0.00000,0.03355,0.98039,-0.16153,0.0,2023,6,7,13,52,48,100
40.02510,0.09835,-0.13790,0.00000,0.03367,0.98234,-0.16031,0.0,2023,6,7,13,52,48,110
40.02520,-0.02415,-0.08540,0.00000,0.03538,0.98344,-0.16263,0.0,2023,6,7,13,52,48,120
40.02530,-0.04165,-0.10290,0.00000,0.03221,0.98003,-0.16275,0.0,2023,6,7,13,52,48,130
40.02540,-0.02415,0.00210,0.00000,0.03172,0.98356,-0.16006,0.0,2023,6,7,13,52,48,140
40.02550,-0.05915,0.00210,0.00000,0.03221,0.98088,-0.16031,0.0,2023,6,7,13,52,48,150
40.02560,0.08085,-0.12040,0.00000,0.03489,0.98198,-0.16263,0.0,2023,6,7,13,52,48,160
40.02570,-0.12915,0.05460,0.00000,0.03050,0.98198,-0.16031,0.0,2023,6,7,13,52,48,170
40.02580,-0.09415,0.12460,0.00000,0.03343,0.98088,-0.16080,0.0,2023,6,7,13,52,48,180
40.02590,0.18585,-0.03290,0.00000,0.03477,0.97990,-0.16226,0.0,2023,6,7,13,52,48,190
40.02600,0.04585,0.05460,0.00000,0.03355,0.98271,-0.15884,0.0,2023,6,7,13,52,48,200
40.02610,0.09835,-0.24290,0.00000,0.03648,0.98332,-0.16311,0.0,2023,6,7,13,52,48,210
40.02620,0.02835,-0.06790,0.00000,0.03428,0.98003,-0.16189,0.0,2023,6,7,13,52,48,220
40.02630,-0.07665,0.07210,0.00000,0.03392,0.98088,-0.16372,0.0,2023,6,7,13,52,48,230
40.02640,0.01085,-0.12040,0.00000,0.03416,0.98381,-0.16031,0.0,2023,6,7,13,52,48,240
40.02650,-0.02415,-0.01540,0.00000,0.03282,0.98234,-0.16214,0.0,2023,6,7,13,52,48,250
40.02660,0.08085,-0.10290,0.00000,0.03160,0.98173,-0.16031,0.0,2023,6,7,13,52,48,260
40.02670,-0.00665,-0.03290,0.00000,0.03367,0.98100,-0.16043,0.0,2023,6,7,13,52,48,270
40.02680,0.06335,-0.08540,0.00000,0.03245,0.98112,-0.16104,0.0,2023,6,7,13,52,48,280
40.02690,0.15085,-0.10290,0.00000,0.03355,0.98308,-0.16128,0.0,2023,6,7,13,52,48,290
40.02700,0.06335,-0.08540,0.00000,0.03318,0.98186,-0.16250,0.0,2023,6,7,13,52,48,300
40.02710,-0.11165,0.15960,0.00000,0.03343,0.98222,-0.16067,0.0,2023,6,7,13,52,48,310
40.02720,0.11585,0.07210,0.00000,0.03196,0.98161,-0.16031,0.0,2023,6,7,13,52,48,320
40.02730,0.09835,-0.01540,0.00000,0.03501,0.97893,-0.16141,0.0,2023,6,7,13,52,48,330
40.02740,0.02835,-0.03290,0.00000,0.03343,0.98173,-0.16128,0.0,2023,6,7,13,52,48,340
40.02750,-0.05915,0.17710,0.00000,0.03123,0.98173,-0.16006,0.0,2023,6,7,13,52,48,350
40.02760,-0.09415,-0.01540,0.00000,0.03331,0.98015,-0.15860,0.0,2023,6,7,13,52,48,360
40.02770,-0.05915,-0.01540,0.00000,0.03123,0.98222,-0.16165,0.0,2023,6,7,13,52,48,370
40.02780,-0.04165,0.22960,0.00000,0.03343,0.98247,-0.16006,0.0,2023,6,7,13,52,48,380
40.02790,0.08085,-0.29540,0.00000,0.03196,0.98039,-0.16177,0.0,2023,6,7,13,52,48,390
40.02800,-0.05915,0.15960,0.00000,0.03404,0.98417,-0.15909,0.0,2023,6,7,13,52,48,400
40.02810,0.06335,0.07210,0.00000,0.03270,0.98100,-0.16031,0.0,2023,6,7,13,52,48,410
40.02820,-0.02415,0.24710,0.00000,0.03343,0.98015,-0.16067,0.0,2023,6,7,13,52,49,420
40.02830,0.04585,-0.12040,0.00000,0.03538,0.97893,-0.16189,0.0,2023,6,7,13,52,49,430
40.02840,0.02835,0.22960,0.00000,0.03514,0.98247,-0.16275,0.0,2023,6,7,13,52,49,440
40.02850,0.06335,0.01960,0.00000,0.03440,0.98210,-0.16019,0.0,2023,6,7,13,52,49,450
40.02860,-0.04165,0.12460,0.00000,0.03209,0.98210,-0.16043,0.0,2023,6,7,13,52,49,460
40.02870,-0.26915,0.01960,0.00000,0.03196,0.98198,-0.16092,0.0,2023,6,7,13,52,49,470
40.02880,-0.02415,0.14210,0.00000,0.03135,0.98222,-0.15982,0.0,2023,6,7,13,52,49,480
40.02890,0.16835,-0.22540,0.00000,0.03111,0.98271,-0.16080,0.0,2023,6,7,13,52,49,490
40.02900,0.02835,0.01960,0.00000,0.03501,0.98320,-0.16177,0.0,2023,6,7,13,52,49,500
40.02910,-0.02415,-0.12040,0.00000,0.03477,0.98125,-0.15982,0.0,2023,6,7,13,52,49,510
40.02920,-0.07665,0.28210,0.00000,0.03331,0.98308,-0.16055,0.0,2023,6,7,13,52,49,520
40.02930,0.01085,-0.12040,0.00000,0.03367,0.98332,-0.16055,0.0,2023,6,7,13,52,49,530
40.02940,0.08085,-0.06790,0.00000,0.03318,0.98198,-0.15897,0.0,2023,6,7,13,52,49,540
40.02950,-0.09415,0.03710,0.00000,0.03257,0.98417,-0.16019,0.0,2023,6,7,13,52,49,550
40.02960,-0.00665,-0.19040,0.00000,0.03294,0.98125,-0.16031,0.0,2023,6,7,13,52,49,560
40.02970,-0.00665,0.07210,0.00000,0.03379,0.98149,-0.15982,0.0,2023,6,7,13,52,49,570
40.02980,0.08085,0.03710,0.00000,0.03355,0.98222,-0.15958,0.0,2023,6,7,13,52,49,580
40.02990,-0.04165,0.01960,0.00000,0.03392,0.98076,-0.15945,0.0,2023,6,7,13,52,49,590
40.03000,-0.02415,0.03710,0.00000,0.03221,0.98356,-0.15933,0.0,2023,6,7,13,52,49,600
40.03010,0.11585,0.08960,0.00000,0.03538,0.98430,-0.15958,0.0,2023,6,7,13,52,49,610
40.03020,0.09835,0.03710,0.00000,0.03257,0.98064,-0.15823,0.0,2023,6,7,13,52,49,620
40.03030,0.02835,-0.17290,0.00000,0.02977,0.98344,-0.16153,0.0,2023,6,7,13,52,49,630
40.03040,0.02835,-0.13790,0.00000,0.03026,0.98247,-0.15970,0.0,2023,6,7,13,52,49,640
40.03050,-0.00665,0.05460,0.00000,0.03184,0.98027,-0.16019,0.0,2023,6,7,13,52,49,650
40.03060,0.04585,-0.19040,0.00000,0.03282,0.98173,-0.15945,0.0,2023,6,7,13,52,49,660
40.03070,-0.11165,0.29960,0.00000,0.03428,0.98271,-0.15775,0.0,2023,6,7,13,52,49,670
40.03080,-0.05915,-0.06790,0.00000,0.03440,0.98003,-0.15897,0.0,2023,6,7,13,52,49,680
40.03090,-0.04165,0.07210,0.00000,0.03282,0.97966,-0.15982,0.0,2023,6,7,13,52,49,690
40.03100,-0.04165,-0.01540,0.00000,0.03209,0.98173,-0.16104,0.0,2023,6,7,13,52,49,700
40.03110,-0.09415,-0.10290,0.00000,0.03282,0.98161,-0.15982,0.0,2023,6,7,13,52,49,710
40.03120,-0.02415,0.08960,0.00000,0.03282,0.98210,-0.15958,0.0,2023,6,7,13,52,49,720
40.03130,0.06335,-0.06790,0.00000,0.03514,0.98332,-0.15945,0.0,2023,6,7,13,52,49,730
40.03140,0.08085,0.07210,0.00000,0.03294,0.98308,-0.16177,0.0,2023,6,7,13,52,49,740
40.03150,-0.07665,0.01960,0.00000,0.03587,0.98027,-0.15958,0.0,2023,6,7,13,52,49,750
40.03160,-0.09415,0.03710,0.00000,0.03257,0.98137,-0.15823,0.0,2023,6,7,13,52,49,760
40.03170,0.02835,-0.15540,0.00000,0.03465,0.98295,-0.15872,0.0,2023,6,7,13,52,49,770
40.03180,0.09835,-0.12040,0.00000,0.03489,0.98247,-0.15958,0.0,2023,6,7,13,52,49,780
40.03190,-0.11165,-0.10290,0.00000,0.03294,0.98234,-0.16055,0.0,2023,6,7,13,52,49,790
40.03200,0.01085,0.01960,0.00000,0.03453,0.98405,-0.15872,0.0,2023,6,7,13,52,49,800
40.03210,0.11585,0.03710,0.00000,0.03318,0.98161,-0.15970,0.0,2023,6,7,13,52,49,810
40.03220,0.09835,-0.03290,0.00000,0.03379,0.98222,-0.15811,0.0,2023,6,7,13,52,49,820
40.03230,-0.12915,-0.01540,0.00000,0.03379,0.98112,-0.16165,0.0,2023,6,7,13,52,49,830
40.03240,-0.07665,0.07210,0.00000,0.03465,0.98039,-0.16006,0.0,2023,6,7,13,52,49,840
40.03250,-0.04165,0.07210,0.00000,0.03099,0.98234,-0.16055,0.0,2023,6,7,13,52,49,850
40.03260,-0.00665,0.10710,0.00000,0.03306,0.98088,-0.15848,0.0,2023,6,7,13,52,49,860
40.03270,-0.00665,-0.01540,0.00000,0.03367,0.98210,-0.16043,0.0,2023,6,7,13,52,49,870
40.03280,0.18585,-0.06790,0.00000,0.03233,0.98344,-0.16006,0.0,2023,6,7,13,52,49,880
40.03290,-0.07665,0.10710,0.00000,0.03050,0.98478,-0.15787,0.0,2023,6,7,13,52,49,890
40.03300,-0.19915,-0.01540,0.00000,0.03331,0.98051,-0.15848,0.0,2023,6,7,13,52,49,900
40.03310,-0.04165,-0.05040,0.00000,0.03489,0.98064,-0.15799,0.0,2023,6,7,13,52,49,910
40.03320,-0.07665,-0.05040,0.00000,0.03343,0.98234,-0.16019,0.0,2023,6,7,13,52,49,920
40.03330,0.09835,-0.03290,0.00000,0.03270,0.98173,-0.15958,0.0,2023,6,7,13,52,49,930
40.03340,-0.12915,-0.13790,0.00000,0.03294,0.98478,-0.16031,0.0,2023,6,7,13,52,49,940
40.03350,0.06335,0.10710,0.00000,0.03440,0.98210,-0.15860,0.0,2023,6,7,13,52,49,950
40.03360,0.04585,-0.10290,0.00000,0.03465,0.98283,-0.15836,0.0,2023,6,7,13,52,49,960
40.03370,-0.00665,-0.22540,0.00000,0.03087,0.98417,-0.16019,0.0,2023,6,7,13,52,49,970
40.03380,0.01085,-0.19040,0.00000,0.03270,0.98088,-0.15909,0.0,2023,6,7,13,52,49,980
40.03390,0.06335,0.00210,0.00000,0.03270,0.98210,-0.15860,0.0,2023,6,7,13,52,49,990
40.03400,-0.12915,0.07210,0.00000,0.03428,0.98076,-0.16250,0.0,2023,6,7,13,52,49,0
40.03410,-0.02415,0.12460,0.00000,0.03148,0.98283,-0.16275,0.0,2023,6,7,13,52,49,10
40.03420,0.06335,0.21210,0.00000,0.03550,0.98186,-0.15970,0.0,2023,6,7,13,52,49,20
40.03430,-0.11165,0.03710,0.00000,0.03172,0.98417,-0.15897,0.0,2023,6,7,13,52,49,30
40.03440,-0.21665,-0.13790,0.00000,0.03221,0.98051,-0.15897,0.0,2023,6,7,13,52,49,40
40.03450,-0.00665,-0.03290,0.00000,0.03294,0.97954,-0.15994,0.0,2023,6,7,13,52,49,50
40.03460,-0.04165,0.05460,0.00000,0.03404,0.98295,-0.15811,0.0,2023,6,7,13,52,49,60
40.03470,0.09835,0.01960,0.00000,0.03367,0.98430,-0.16067,0.0,2023,6,7,13,52,49,70
40.03480,-0.00665,0.19460,0.00000,0.03611,0.98247,-0.15762,0.0,2023,6,7,13,52,49,80
40.03490,0.16835,-0.19040,0.00000,0.03477,0.98234,-0.15909,0.0,2023,6,7,13,52,49,90
40.03500,0.06335,0.00210,0.00000,0.03135,0.98125,-0.15909,0.0,2023,6,7,13,52,49,100
40.03510,0.13335,0.01960,0.00000,0.03526,0.98015,-0.16214,0.0,2023,6,7,13,52,49,110
40.03520,-0.04165,-0.01540,0.00000,0.03135,0.98064,-0.15897,0.0,2023,6,7,13,52,49,120
40.03530,-0.00665,0.07210,0.00000,0.03074,0.98149,-0.15970,0.0,2023,6,7,13,52,49,130
40.03540,0.06335,-0.13790,0.00000,0.03245,0.98283,-0.15762,0.0,2023,6,7,13,52,49,140
40.03550,0.09835,0.05460,0.00000,0.03416,0.98320,-0.15872,0.0,2023,6,7,13,52,49,150
40.03560,-0.05915,-0.06790,0.00000,0.03233,0.98039,-0.15884,0.0,2023,6,7,13,52,49,160
40.03570,-0.26915,-0.01540,0.00000,0.03404,0.98100,-0.15836,0.0,2023,6,7,13,52,49,170
40.03580,-0.12915,0.19460,0.00000,0.03148,0.98247,-0.15994,0.0,2023,6,7,13,52,49,180
40.03590,0.08085,0.05460,0.00000,0.03270,0.98222,-0.15970,0.0,2023,6,7,13,52,49,190
40.03600,-0.07665,0.14210,0.00000,0.03233,0.98210,-0.16031,0.0,2023,6,7,13,52,49,200
40.03610,0.08085,-0.31290,0.00000,0.03392,0.98125,-0.15897,0.0,2023,6,7,13,52,49,210
40.03620,0.08085,-0.06790,0.00000,0.03111,0.98356,-0.15994,0.0,2023,6,7,13,52,49,220
40.03630,-0.04165,-0.17290,0.00000,0.03318,0.98064,-0.15994,0.0,2023,6,7,13,52,49,230
40.03640,-0.04165,-0.10290,0.00000,0.03196,0.98247,-0.15823,0.0,2023,6,7,13,52,49,240
40.03650,0.15085,-0.13790,0.00000,0.03392,0.98295,-0.15823,0.0,2023,6,7,13,52,49,250
40.03660,-0.02415,-0.06790,0.00000,0.03331,0.98356,-0.15970,0.0,2023,6,7,13,52,49,260
40.03670,0.04585,-0.01540,0.00000,0.03135,0.98003,-0.15933,0.0,2023,6,7,13,52,49,270
40.03680,0.04585,-0.06790,0.00000,0.03209,0.97893,-0.16092,0.0,2023,6,7,13,52,49,280
40.03690,0.01085,0.14210,0.00000,0.03282,0.98283,-0.15799,0.0,2023,6,7,13,52,49,290
40.03700,0.01085,-0.13790,0.00000,0.03270,0.97881,-0.16067,0.0,2023,6,7,13,52,49,300
40.03710,-0.14665,0.22960,0.00000,0.03172,0.98051,-0.16019,0.0,2023,6,7,13,52,49,310
40.03720,-0.00665,-0.03290,0.00000,0.03172,0.98369,-0.15897,0.0,2023,6,7,13,52,50,320
40.03730,0.01085,-0.17290,0.00000,0.03465,0.97807,-0.15921,0.0,2023,6,7,13,52,50,330
40.03740,0.02835,0.03710,0.00000,0.03416,0.98259,-0.16067,0.0,2023,6,7,13,52,50,340
40.03750,-0.00665,-0.12040,0.00000,0.03392,0.98100,-0.15958,0.0,2023,6,7,13,52,50,350
40.03760,0.09835,-0.06790,0.00000,0.03294,0.97966,-0.15945,0.0,2023,6,7,13,52,50,360
40.03770,-0.16415,0.17710,0.00000,0.03233,0.97990,-0.15909,0.0,2023,6,7,13,52,50,370
40.03780,-0.00665,0.00210,0.00000,0.03294,0.98503,-0.15970,0.0,2023,6,7,13,52,50,380
40.03790,-0.05915,-0.08540,0.00000,0.03282,0.98271,-0.15982,0.0,2023,6,7,13,52,50,390
40.03800,0.06335,-0.06790,0.00000,0.03209,0.98222,-0.16031,0.0,2023,6,7,13,52,50,400
40.03810,-0.11165,-0.13790,0.00000,0.03416,0.98076,-0.15909,0.0,2023,6,7,13,52,50,410
40.03820,0.16835,0.07210,0.00000,0.03221,0.98308,-0.15848,0.0,2023,6,7,13,52,50,420
40.03830,-0.00665,-0.03290,0.00000,0.03416,0.98344,-0.16031,0.0,2023,6,7,13,52,50,430
40.03840,-0.16415,0.15960,0.00000,0.03245,0.98442,-0.15970,0.0,2023,6,7,13,52,50,440
40.03850,-0.00665,0.01960,0.00000,0.03306,0.98210,-0.15872,0.0,2023,6,7,13,52,50,450
40.03860,-0.00665,0.12460,0.00000,0.03465,0.98149,-0.16092,0.0,2023,6,7,13,52,50,460
40.03870,0.23835,0.00210,0.00000,0.03257,0.98198,-0.15897,0.0,2023,6,7,13,52,50,470
40.03880,-0.02415,-0.26040,0.00000,0.03489,0.98283,-0.15958,0.0,2023,6,7,13,52,50,480
40.03890,0.01085,-0.08540,0.00000,0.03477,0.97917,-0.16104,0.0,2023,6,7,13,52,50,490
40.03900,-0.09415,0.15960,0.00000,0.03465,0.98198,-0.16092,0.0,2023,6,7,13,52,50,500
40.03910,-0.14665,0.01960,0.00000,0.03196,0.98356,-0.15884,0.0,2023,6,7,13,52,50,510
40.03920,0.15085,-0.06790,0.00000,0.03087,0.98271,-0.15909,0.0,2023,6,7,13,52,50,520
40.03930,-0.05915,0.01960,0.00000,0.03318,0.98381,-0.15860,0.0,2023,6,7,13,52,50,530
40.03940,0.01085,0.08960,0.00000,0.03392,0.98515,-0.15958,0.0,2023,6,7,13,52,50,540
40.03950,-0.07665,0.12460,0.00000,0.03331,0.98137,-0.15945,0.0,2023,6,7,13,52,50,550
40.03960,-0.00665,-0.03290,0.00000,0.03355,0.98283,-0.16067,0.0,2023,6,7,13,52,50,560
40.03970,-0.11165,0.01960,0.00000,0.03453,0.98442,-0.16031,0.0,2023,6,7,13,52,50,570
40.03980,0.09835,-0.12040,0.00000,0.03343,0.97856,-0.15994,0.0,2023,6,7,13,52,50,580
40.03990,0.01085,0.08960,0.00000,0.03172,0.98222,-0.15860,0.0,2023,6,7,13,52,50,590
40.04000,0.15085,-0.06790,0.00000,0.03416,0.98259,-0.15982,0.0,2023,6,7,13,52,50,600
40.04010,-0.02415,0.10710,0.00000,0.03355,0.98283,-0.15762,0.0,2023,6,7,13,52,50,610
40.04020,0.13335,-0.15540,0.00000,0.03379,0.98039,-0.16141,0.0,2023,6,7,13,52,50,620
40.04030,0.04585,-0.17290,0.00000,0.03282,0.98247,-0.15799,0.0,2023,6,7,13,52,50,630
40.04040,-0.05915,-0.06790,0.00000,0.03148,0.98308,-0.15970,0.0,2023,6,7,13,52,50,640
40.04050,0.01085,0.14210,0.00000,0.03233,0.97783,-0.15945,0.0,2023,6,7,13,52,50,650
40.04060,-0.07665,0.15960,0.00000,0.03221,0.98320,-0.15787,0.0,2023,6,7,13,52,50,660
40.04070,0.01085,0.00210,0.00000,0.03440,0.98259,-0.15762,0.0,2023,6,7,13,52,50,670
40.04080,-0.02415,0.10710,0.00000,0.03392,0.98430,-0.15836,0.0,2023,6,7,13,52,50,680
40.04090,-0.02415,-0.03290,0.00000,0.03245,0.97929,-0.15750,0.0,2023,6,7,13,52,50,690
40.04100,0.04585,0.07210,0.00000,0.03111,0.98381,-0.15775,0.0,2023,6,7,13,52,50,700
40.04110,0.06335,-0.03290,0.00000,0.03209,0.98003,-0.16055,0.0,2023,6,7,13,52,50,710
40.04120,0.04585,0.00210,0.00000,0.03477,0.98100,-0.16177,0.0,2023,6,7,13,52,50,720
40.04130,-0.16415,-0.01540,0.00000,0.03282,0.98320,-0.15945,0.0,2023,6,7,13,52,50,730
40.04140,0.20335,-0.13790,0.00000,0.03306,0.98332,-0.16092,0.0,2023,6,7,13,52,50,740
40.04150,-0.02415,0.03710,0.00000,0.03160,0.98039,-0.15897,0.0,2023,6,7,13,52,50,750
40.04160,-0.11165,-0.08540,0.00000,0.03440,0.98222,-0.15884,0.0,2023,6,7,13,52,50,760
40.04170,-0.12915,-0.15540,0.00000,0.03148,0.98369,-0.15787,0.0,2023,6,7,13,52,50,770
40.04180,-0.00665,0.00210,0.00000,0.03404,0.98003,-0.15970,0.0,2023,6,7,13,52,50,780
40.04190,0.02835,0.03710,0.00000,0.03306,0.98125,-0.15775,0.0,2023,6,7,13,52,50,790
40.04200,0.02835,0.05460,0.00000,0.03489,0.98454,-0.15884,0.0,2023,6,7,13,52,50,800
40.04210,0.09835,0.05460,0.00000,0.03367,0.98344,-0.15848,0.0,2023,6,7,13,52,50,810
40.04220,-0.04165,-0.17290,0.00000,0.03257,0.98442,-0.15762,0.0,2023,6,7,13,52,50,820
40.04230,-0.05915,-0.10290,0.00000,0.03184,0.98039,-0.15848,0.0,2023,6,7,13,52,50,830
40.04240,-0.11165,0.08960,0.00000,0.03355,0.98149,-0.15860,0.0,2023,6,7,13,52,50,840
40.04250,-0.05915,-0.10290,0.00000,0.03306,0.98259,-0.15726,0.0,2023,6,7,13,52,50,850
40.04260,-0.00665,-0.17290,0.00000,0.03221,0.98198,-0.15775,0.0,2023,6,7,13,52,50,860
40.04270,-0.16415,0.01960,0.00000,0.03111,0.98466,-0.15836,0.0,2023,6,7,13,52,50,870
40.04280,-0.09415,-0.05040,0.00000,0.03318,0.97893,-0.15897,0.0,2023,6,7,13,52,50,880
40.04290,-0.00665,0.00210,0.00000,0.03294,0.98100,-0.15848,0.0,2023,6,7,13,52,50,890
40.04300,-0.07665,0.12460,0.00000,0.03379,0.98381,-0.15970,0.0,2023,6,7,13,52,50,900
40.04310,-0.07665,-0.01540,0.00000,0.03282,0.98161,-0.15750,0.0,2023,6,7,13,52,50,910
40.04320,-0.00665,0.14210,0.00000,0.03550,0.98247,-0.15604,0.0,2023,6,7,13,52,50,920
40.04330,0.04585,-0.20790,0.00000,0.03404,0.98478,-0.15994,0.0,2023,6,7,13,52,50,930
40.04340,-0.09415,-0.01540,0.00000,0.03355,0.98161,-0.15897,0.0,2023,6,7,13,52,50,940
40.04350,0.08085,-0.13790,0.00000,0.03343,0.98161,-0.16019,0.0,2023,6,7,13,52,50,950
40.04360,-0.11165,0.12460,0.00000,0.03379,0.98064,-0.15799,0.0,2023,6,7,13,52,50,960
40.04370,-0.19915,0.12460,0.00000,0.03379,0.98283,-0.15860,0.0,2023,6,7,13,52,50,970
40.04380,-0.16415,-0.03290,0.00000,0.03331,0.98283,-0.15787,0.0,2023,6,7,13,52,50,980
40.04390,-0.16415,-0.10290,0.00000,0.03306,0.98173,-0.15945,0.0,2023,6,7,13,52,50,990
40.04400,-0.12915,0.15960,0.00000,0.03355,0.98259,-0.16043,0.0,2023,6,7,13,52,50,0
40.04410,-0.09415,-0.12040,0.00000,0.03404,0.98369,-0.15872,0.0,2023,6,7,13,52,50,10
40.04420,-0.00665,-0.22540,0.00000,0.03270,0.98247,-0.15945,0.0,2023,6,7,13,52,50,20
40.04430,-0.02415,0.00210,0.00000,0.03160,0.97966,-0.15823,0.0,2023,6,7,13,52,50,30
40.04440,-0.21665,0.12460,0.00000,0.03416,0.98186,-0.16043,0.0,2023,6,7,13,52,50,40
40.04450,0.08085,-0.05040,0.00000,0.03428,0.98100,-0.15958,0.0,2023,6,7,13,52,50,50
40.04460,0.06335,-0.15540,0.00000,0.03404,0.98100,-0.16104,0.0,2023,6,7,13,52,50,60
40.04470,-0.00665,-0.05040,0.00000,0.03233,0.98015,-0.15860,0.0,2023,6,7,13,52,50,70
40.04480,-0.18165,0.08960,0.00000,0.03209,0.98161,-0.15994,0.0,2023,6,7,13,52,50,80
40.04490,-0.04165,-0.01540,0.00000,0.03184,0.98369,-0.15897,0.0,2023,6,7,13,52,50,90
40.04500,0.04585,0.28210,0.00000,0.03440,0.98381,-0.15823,0.0,2023,6,7,13,52,50,100
40.04510,-0.23415,0.08960,0.00000,0.03404,0.98112,-0.15811,0.0,2023,6,7,13,52,50,110
40.04520,0.08085,-0.10290,0.00000,0.03099,0.97929,-0.16092,0.0,2023,6,7,13,52,50,120
40.04530,0.08085,0.15960,0.00000,0.03428,0.98198,-0.15897,0.0,2023,6,7,13,52,50,130
40.04540,-0.18165,0.21210,0.00000,0.03233,0.98234,-0.15933,0.0,2023,6,7,13,52,50,140
40.04550,0.08085,0.08960,0.00000,0.03209,0.98064,-0.16153,0.0,2023,6,7,13,52,50,150
40.04560,-0.19915,0.22960,0.00000,0.03538,0.98247,-0.15909,0.0,2023,6,7,13,52,50,160
40.04570,-0.11165,0.05460,0.00000,0.03367,0.98381,-0.15958,0.0,2023,6,7,13,52,50,170
40.04580,0.20335,-0.12040,0.00000,0.03038,0.98088,-0.15982,0.0,2023,6,7,13,52,50,180
40.04590,-0.00665,-0.12040,0.00000,0.03160,0.98393,-0.15945,0.0,2023,6,7,13,52,50,190
40.04600,0.01085,-0.05040,0.00000,0.03465,0.98332,-0.15653,0.0,2023,6,7,13,52,50,200
40.04610,0.11585,0.03710,0.00000,0.03221,0.98393,-0.16067,0.0,2023,6,7,13,52,51,210
40.04620,-0.07665,0.08960,0.00000,0.03477,0.98332,-0.15897,0.0,2023,6,7,13,52,51,220
40.04630,-0.02415,0.17710,0.00000,0.03428,0.98417,-0.15884,0.0,2023,6,7,13,52,51,230
40.04640,-0.04165,-0.19040,0.00000,0.03306,0.98320,-0.15884,0.0,2023,6,7,13,52,51,240
40.04650,0.13335,-0.15540,0.00000,0.03416,0.98283,-0.15933,0.0,2023,6,7,13,52,51,250
40.04660,-0.18165,0.10710,0.00000,0.03550,0.98137,-0.15994,0.0,2023,6,7,13,52,51,260
40.04670,-0.04165,0.00210,0.00000,0.03355,0.98381,-0.15848,0.0,2023,6,7,13,52,51,270
40.04680,-0.11165,0.05460,0.00000,0.03465,0.98137,-0.16189,0.0,2023,6,7,13,52,51,280
40.04690,-0.00665,-0.01540,0.00000,0.03343,0.98198,-0.16141,0.0,2023,6,7,13,52,51,290
40.04700,0.06335,0.26460,0.00000,0.02989,0.98125,-0.16189,0.0,2023,6,7,13,52,51,300
40.04710,0.02835,-0.12040,0.00000,0.03331,0.98308,-0.16324,0.0,2023,6,7,13,52,51,310
40.04720,0.09835,0.12460,0.00000,0.03379,0.98015,-0.16128,0.0,2023,6,7,13,52,51,320
40.04730,-0.05915,0.14210,0.00000,0.03611,0.98088,-0.16116,0.0,2023,6,7,13,52,51,330
40.04740,-0.04165,0.10710,0.00000,0.03062,0.98271,-0.16177,0.0,2023,6,7,13,52,51,340
40.04750,0.22085,0.10710,0.00000,0.03270,0.98100,-0.15994,0.0,2023,6,7,13,52,51,350
40.04760,0.08085,0.08960,0.00000,0.03318,0.98454,-0.15970,0.0,2023,6,7,13,52,51,360
40.04770,-0.04165,-0.08540,0.00000,0.03099,0.98247,-0.16019,0.0,2023,6,7,13,52,51,370
40.04780,-0.04165,-0.15540,0.00000,0.03318,0.98356,-0.15848,0.0,2023,6,7,13,52,51,380
40.04790,-0.02415,-0.12040,0.00000,0.03221,0.98393,-0.16165,0.0,2023,6,7,13,52,51,390
40.04800,-0.02415,0.10710,0.00000,0.03416,0.98039,-0.16031,0.0,2023,6,7,13,52,51,400
40.04810,0.04585,-0.06790,0.00000,0.03209,0.98247,-0.16031,0.0,2023,6,7,13,52,51,410
40.04820,-0.11165,-0.05040,0.00000,0.03318,0.98320,-0.15884,0.0,2023,6,7,13,52,51,420
40.04830,-0.07665,-0.03290,0.00000,0.03318,0.98064,-0.15921,0.0,2023,6,7,13,52,51,430
40.04840,0.09835,-0.24290,0.00000,0.03355,0.98186,-0.16141,0.0,2023,6,7,13,52,51,440
40.04850,-0.05915,0.17710,0.00000,0.03501,0.98295,-0.16165,0.0,2023,6,7,13,52,51,450
40.04860,-0.05915,-0.01540,0.00000,0.03233,0.98295,-0.16202,0.0,2023,6,7,13,52,51,460
40.04870,0.04585,-0.12040,0.00000,0.03514,0.98295,-0.15884,0.0,2023,6,7,13,52,51,470
40.04880,-0.05915,0.05460,0.00000,0.03294,0.98173,-0.15994,0.0,2023,6,7,13,52,51,480
40.04890,-0.19915,0.19460,0.00000,0.03538,0.98149,-0.15933,0.0,2023,6,7,13,52,51,490
40.04900,-0.05915,-0.03290,0.00000,0.03465,0.98064,-0.16177,0.0,2023,6,7,13,52,51,500
40.04910,0.09835,0.03710,0.00000,0.03294,0.98259,-0.16067,0.0,2023,6,7,13,52,51,510
40.04920,0.02835,-0.15540,0.00000,0.03379,0.98112,-0.16019,0.0,2023,6,7,13,52,51,520
40.04930,0.09835,0.08960,0.00000,0.03221,0.98186,-0.16067,0.0,2023,6,7,13,52,51,530
40.04940,0.02835,-0.17290,0.00000,0.03306,0.98027,-0.16250,0.0,2023,6,7,13,52,51,540
40.04950,-0.16415,-0.17290,0.00000,0.03196,0.97942,-0.16019,0.0,2023,6,7,13,52,51,550
40.04960,-0.18165,0.10710,0.00000,0.03172,0.98112,-0.16238,0.0,2023,6,7,13,52,51,560
40.04970,-0.00665,0.07210,0.00000,0.03074,0.98332,-0.16092,0.0,2023,6,7,13,52,51,570
40.04980,-0.16415,-0.22540,0.00000,0.03172,0.98320,-0.16055,0.0,2023,6,7,13,52,51,580
40.04990,0.04585,0.01960,0.00000,0.03367,0.98271,-0.15994,0.0,2023,6,7,13,52,51,590
40.05000,0.09835,-0.15540,0.00000,0.03294,0.97954,-0.15958,0.0,2023,6,7,13,52,51,600
40.05010,0.06335,-0.08540,0.00000,0.03526,0.98064,-0.15958,0.0,2023,6,7,13,52,51,610
40.05020,0.02835,-0.19040,0.00000,0.03282,0.98076,-0.16202,0.0,2023,6,7,13,52,51,620
40.05030,0.08085,-0.08540,0.00000,0.03111,0.98308,-0.16043,0.0,2023,6,7,13,52,51,630
40.05040,-0.02415,0.08960,0.00000,0.03233,0.98295,-0.16104,0.0,2023,6,7,13,52,51,640
40.05050,0.08085,-0.10290,0.00000,0.03355,0.98503,-0.15836,0.0,2023,6,7,13,52,51,650
40.05060,0.13335,0.03710,0.00000,0.03318,0.98149,-0.16104,0.0,2023,6,7,13,52,51,660
40.05070,-0.14665,0.01960,0.00000,0.03270,0.98369,-0.16141,0.0,2023,6,7,13,52,51,670
40.05080,-0.02415,0.03710,0.00000,0.03355,0.98125,-0.16043,0.0,2023,6,7,13,52,51,680
40.05090,0.02835,-0.03290,0.00000,0.03233,0.98210,-0.15933,0.0,2023,6,7,13,52,51,690
40.05100,-0.04165,-0.17290,0.00000,0.03282,0.98271,-0.16104,0.0,2023,6,7,13,52,51,700
40.05110,0.01085,0.07210,0.00000,0.03306,0.98332,-0.16067,0.0,2023,6,7,13,52,51,710
40.05120,0.01085,-0.17290,0.00000,0.03245,0.98356,-0.16128,0.0,2023,6,7,13,52,51,720
40.05130,0.08085,-0.03290,0.00000,0.03209,0.98430,-0.15982,0.0,2023,6,7,13,52,51,730
40.05140,-0.07665,0.12460,0.00000,0.03196,0.98222,-0.15958,0.0,2023,6,7,13,52,51,740
40.05150,0.11585,0.03710,0.00000,0.03184,0.98161,-0.16080,0.0,2023,6,7,13,52,51,750
40.05160,0.08085,-0.10290,0.00000,0.03355,0.98064,-0.15970,0.0,2023,6,7,13,52,51,760
40.05170,-0.26915,-0.05040,0.00000,0.03221,0.97978,-0.15970,0.0,2023,6,7,13,52,51,770
40.05180,0.16835,-0.19040,0.00000,0.03465,0.98539,-0.16006,0.0,2023,6,7,13,52,51,780
40.05190,0.13335,-0.08540,0.00000,0.03392,0.98173,-0.15872,0.0,2023,6,7,13,52,51,790
40.05200,-0.09415,-0.12040,0.00000,0.03318,0.98039,-0.16006,0.0,2023,6,7,13,52,51,800
40.05210,0.11585,-0.17290,0.00000,0.03062,0.98076,-0.16165,0.0,2023,6,7,13,52,51,810
40.05220,0.01085,-0.05040,0.00000,0.03318,0.98161,-0.16092,0.0,2023,6,7,13,52,51,820
40.05230,-0.11165,0.07210,0.00000,0.03428,0.98381,-0.15909,0.0,2023,6,7,13,52,51,830
40.05240,-0.09415,-0.03290,0.00000,0.03575,0.98100,-0.16104,0.0,2023,6,7,13,52,51,840
40.05250,0.01085,0.08960,0.00000,0.03343,0.98064,-0.15970,0.0,2023,6,7,13,52,51,850
40.05260,0.09835,0.12460,0.00000,0.03257,0.98356,-0.16104,0.0,2023,6,7,13,52,51,860
40.05270,-0.00665,0.05460,0.00000,0.03257,0.98210,-0.15970,0.0,2023,6,7,13,52,51,870
40.05280,0.15085,0.10710,0.00000,0.03428,0.98003,-0.16080,0.0,2023,6,7,13,52,51,880
40.05290,0.06335,-0.03290,0.00000,0.02965,0.98344,-0.15945,0.0,2023,6,7,13,52,51,890
40.05300,0.13335,-0.12040,0.00000,0.03379,0.98344,-0.15836,0.0,2023,6,7,13,52,51,900
40.05310,-0.00665,-0.12040,0.00000,0.03428,0.98125,-0.16043,0.0,2023,6,7,13,52,51,910
40.05320,-0.04165,0.00210,0.00000,0.03379,0.98149,-0.16104,0.0,2023,6,7,13,52,51,920
40.05330,0.01085,-0.08540,0.00000,0.03379,0.98466,-0.16006,0.0,2023,6,7,13,52,51,930
40.05340,-0.12915,0.10710,0.00000,0.03245,0.98064,-0.16031,0.0,2023,6,7,13,52,51,940
40.05350,0.08085,0.03710,0.00000,0.03526,0.98186,-0.16006,0.0,2023,6,7,13,52,51,950
40.05360,-0.02415,-0.17290,0.00000,0.03355,0.98271,-0.16128,0.0,2023,6,7,13,52,51,960
40.05370,0.11585,0.10710,0.00000,0.03331,0.98051,-0.15982,0.0,2023,6,7,13,52,51,970
40.05380,-0.02415,0.05460,0.00000,0.03282,0.98247,-0.16214,0.0,2023,6,7,13,52,51,980
40.05390,-0.02415,-0.10290,0.00000,0.03379,0.98149,-0.15982,0.0,2023,6,7,13,52,51,990
40.05400,-0.07665,-0.05040,0.00000,0.03306,0.98393,-0.16019,0.0,2023,6,7,13,52,51,0
40.05410,0.15085,-0.15540,0.00000,0.03148,0.98051,-0.15909,0.0,2023,6,7,13,52,51,10
40.05420,0.01085,-0.27790,0.00000,0.03172,0.98161,-0.15958,0.0,2023,6,7,13,52,51,20
40.05430,-0.05915,0.01960,0.00000,0.03465,0.98381,-0.16128,0.0,2023,6,7,13,52,51,30
40.05440,0.09835,-0.15540,0.00000,0.03416,0.98210,-0.15994,0.0,2023,6,7,13,52,51,40
40.05450,-0.07665,0.21210,0.00000,0.03404,0.98210,-0.15897,0.0,2023,6,7,13,52,51,50
40.05460,0.02835,0.08960,0.00000,0.03453,0.98222,-0.16043,0.0,2023,6,7,13,52,51,60
40.05470,-0.05915,-0.10290,0.00000,0.03184,0.98210,-0.15982,0.0,2023,6,7,13,52,51,70
40.05480,0.02835,-0.05040,0.00000,0.03160,0.98393,-0.15836,0.0,2023,6,7,13,52,51,80
40.05490,0.27335,-0.10290,0.00000,0.03209,0.98247,-0.15860,0.0,2023,6,7,13,52,51,90
40.05500,0.16835,-0.08540,0.00000,0.03404,0.98137,-0.15958,0.0,2023,6,7,13,52,51,100
40.05510,0.04585,-0.06790,0.00000,0.03123,0.98234,-0.16067,0.0,2023,6,7,13,52,52,110
40.05520,-0.04165,0.07210,0.00000,0.03270,0.98332,-0.15945,0.0,2023,6,7,13,52,52,120
40.05530,0.09835,0.07210,0.00000,0.03355,0.98064,-0.15897,0.0,2023,6,7,13,52,52,130
40.05540,0.18585,-0.19040,0.00000,0.03367,0.98015,-0.16092,0.0,2023,6,7,13,52,52,140
40.05550,-0.04165,-0.05040,0.00000,0.03404,0.98271,-0.15994,0.0,2023,6,7,13,52,52,150
40.05560,0.11585,0.00210,0.00000,0.03209,0.97929,-0.16019,0.0,2023,6,7,13,52,52,160
40.05570,0.20335,0.03710,0.00000,0.03318,0.97990,-0.16104,0.0,2023,6,7,13,52,52,170
40.05580,0.30835,0.00210,0.00000,0.03270,0.98234,-0.16116,0.0,2023,6,7,13,52,52,180
40.05590,-0.00665,0.05460,0.00000,0.03282,0.98137,-0.15811,0.0,2023,6,7,13,52,52,190
40.05600,0.02835,-0.20790,0.00000,0.03270,0.98503,-0.16006,0.0,2023,6,7,13,52,52,200
40.05610,0.25585,-0.05040,0.00000,0.03514,0.98283,-0.16019,0.0,2023,6,7,13,52,52,210
40.05620,-0.14665,0.14210,0.00000,0.03294,0.98149,-0.15970,0.0,2023,6,7,13,52,52,220
40.05630,-0.09415,-0.01540,0.00000,0.03318,0.98112,-0.16031,0.0,2023,6,7,13,52,52,230
40.05640,0.11585,-0.01540,0.00000,0.03489,0.98112,-0.15994,0.0,2023,6,7,13,52,52,240
40.05650,0.04585,0.19460,0.00000,0.03001,0.98064,-0.15982,0.0,2023,6,7,13,52,52,250
40.05660,0.09835,0.08960,0.00000,0.03233,0.98149,-0.16080,0.0,2023,6,7,13,52,52,260
40.05670,-0.00665,0.01960,0.00000,0.03501,0.98454,-0.15836,0.0,2023,6,7,13,52,52,270
40.05680,-0.12915,0.07210,0.00000,0.03148,0.98149,-0.15762,0.0,2023,6,7,13,52,52,280
40.05690,0.06335,-0.01540,0.00000,0.03196,0.98027,-0.15884,0.0,2023,6,7,13,52,52,290
40.05700,-0.05915,0.03710,0.00000,0.03111,0.98149,-0.16177,0.0,2023,6,7,13,52,52,300
40.05710,-0.12915,-0.06790,0.00000,0.02989,0.98295,-0.15994,0.0,2023,6,7,13,52,52,310
40.05720,0.08085,-0.08540,0.00000,0.03306,0.98076,-0.15933,0.0,2023,6,7,13,52,52,320
40.05730,-0.21665,0.15960,0.00000,0.03331,0.98161,-0.15982,0.0,2023,6,7,13,52,52,330
40.05740,0.04585,-0.06790,0.00000,0.03331,0.98161,-0.16116,0.0,2023,6,7,13,52,52,340
40.05750,0.09835,0.07210,0.00000,0.03135,0.98332,-0.15775,0.0,2023,6,7,13,52,52,350
40.05760,0.15085,-0.08540,0.00000,0.03379,0.98137,-0.15958,0.0,2023,6,7,13,52,52,360
40.05770,-0.11165,0.07210,0.00000,0.03379,0.98173,-0.16080,0.0,2023,6,7,13,52,52,370
40.05780,-0.07665,0.12460,0.00000,0.03245,0.98222,-0.15921,0.0,2023,6,7,13,52,52,380
40.05790,-0.02415,-0.01540,0.00000,0.03282,0.98210,-0.16031,0.0,2023,6,7,13,52,52,390
40.05800,0.04585,-0.17290,0.00000,0.03282,0.98454,-0.15860,0.0,2023,6,7,13,52,52,400
40.05810,-0.00665,0.07210,0.00000,0.03172,0.97881,-0.16019,0.0,2023,6,7,13,52,52,410
40.05820,0.01085,-0.20790,0.00000,0.03428,0.98149,-0.16055,0.0,2023,6,7,13,52,52,420
40.05830,0.13335,-0.05040,0.00000,0.03294,0.98027,-0.16055,0.0,2023,6,7,13,52,52,430
40.05840,-0.05915,0.05460,0.00000,0.03440,0.98015,-0.16104,0.0,2023,6,7,13,52,52,440
40.05850,0.08085,0.22960,0.00000,0.03257,0.98198,-0.15994,0.0,2023,6,7,13,52,52,450
40.05860,-0.07665,0.07210,0.00000,0.03184,0.98259,-0.16092,0.0,2023,6,7,13,52,52,460
40.05870,-0.18165,0.10710,0.00000,0.03440,0.98027,-0.16177,0.0,2023,6,7,13,52,52,470
40.05880,-0.07665,0.07210,0.00000,0.03160,0.97990,-0.15958,0.0,2023,6,7,13,52,52,480
40.05890,0.13335,0.12460,0.00000,0.03233,0.98173,-0.15958,0.0,2023,6,7,13,52,52,490
40.05900,0.16835,0.00210,0.00000,0.03331,0.98344,-0.16128,0.0,2023,6,7,13,52,52,500
40.05910,0.08085,0.03710,0.00000,0.03428,0.98100,-0.16006,0.0,2023,6,7,13,52,52,510
40.05920,-0.19915,0.08960,0.00000,0.03392,0.98039,-0.16043,0.0,2023,6,7,13,52,52,520
40.05930,-0.19915,-0.05040,0.00000,0.03184,0.98381,-0.16080,0.0,2023,6,7,13,52,52,530
40.05940,0.02835,0.00210,0.00000,0.03074,0.98295,-0.16067,0.0,2023,6,7,13,52,52,540
40.05950,0.06335,-0.01540,0.00000,0.03440,0.98210,-0.15775,0.0,2023,6,7,13,52,52,550
40.05960,0.06335,0.14210,0.00000,0.03367,0.98283,-0.16080,0.0,2023,6,7,13,52,52,560
40.05970,-0.02415,-0.10290,0.00000,0.03306,0.98283,-0.15945,0.0,2023,6,7,13,52,52,570
40.05980,0.06335,-0.22540,0.00000,0.03233,0.98015,-0.16043,0.0,2023,6,7,13,52,52,580
40.05990,0.23835,-0.15540,0.00000,0.03392,0.98344,-0.16092,0.0,2023,6,7,13,52,52,590
40.06000,0.29085,-0.19040,0.00000,0.03343,0.98381,-0.16031,0.0,2023,6,7,13,52,52,600
40.06010,-0.00665,0.00210,0.00000,0.03367,0.98125,-0.16092,0.0,2023,6,7,13,52,52,610
40.06020,0.11585,-0.06790,0.00000,0.03294,0.98064,-0.15921,0.0,2023,6,7,13,52,52,620
40.06030,0.08085,-0.12040,0.00000,0.03294,0.98222,-0.15836,0.0,2023,6,7,13,52,52,630
40.06040,0.15085,-0.03290,0.00000,0.03636,0.98247,-0.15921,0.0,2023,6,7,13,52,52,640
40.06050,-0.04165,-0.05040,0.00000,0.03172,0.97905,-0.16116,0.0,2023,6,7,13,52,52,650
40.06060,-0.21665,0.24710,0.00000,0.03404,0.98088,-0.15860,0.0,2023,6,7,13,52,52,660
40.06070,0.04585,-0.01540,0.00000,0.03160,0.98247,-0.15689,0.0,2023,6,7,13,52,52,670
40.06080,0.04585,-0.10290,0.00000,0.03477,0.98283,-0.15994,0.0,2023,6,7,13,52,52,680
40.06090,-0.07665,0.01960,0.00000,0.03684,0.98173,-0.15872,0.0,2023,6,7,13,52,52,690
40.06100,0.01085,0.03710,0.00000,0.03392,0.98247,-0.16055,0.0,2023,6,7,13,52,52,700
40.06110,-0.07665,-0.12040,0.00000,0.03282,0.98186,-0.15921,0.0,2023,6,7,13,52,52,710
40.06120,0.16835,0.00210,0.00000,0.03160,0.98198,-0.16153,0.0,2023,6,7,13,52,52,720
40.06130,0.18585,-0.01540,0.00000,0.03087,0.98356,-0.16104,0.0,2023,6,7,13,52,52,730
40.06140,-0.05915,0.05460,0.00000,0.03331,0.98112,-0.16141,0.0,2023,6,7,13,52,52,740
40.06150,0.04585,-0.03290,0.00000,0.03526,0.98247,-0.15933,0.0,2023,6,7,13,52,52,750
40.06160,0.20335,-0.06790,0.00000,0.03428,0.98137,-0.15811,0.0,2023,6,7,13,52,52,760
40.06170,-0.26915,0.19460,0.00000,0.03404,0.98161,-0.15945,0.0,2023,6,7,13,52,52,770
40.06180,0.02835,0.08960,0.00000,0.03306,0.98137,-0.16080,0.0,2023,6,7,13,52,52,780
40.06190,-0.05915,0.12460,0.00000,0.03221,0.98234,-0.16116,0.0,2023,6,7,13,52,52,790
40.06200,-0.04165,0.03710,0.00000,0.03062,0.98430,-0.15921,0.0,2023,6,7,13,52,52,800
40.06210,-0.09415,0.03710,0.00000,0.03343,0.98405,-0.16031,0.0,2023,6,7,13,52,52,810
40.06220,-0.02415,0.08960,0.00000,0.03343,0.98137,-0.15933,0.0,2023,6,7,13,52,52,820
40.06230,-0.09415,-0.05040,0.00000,0.03379,0.98283,-0.16019,0.0,2023,6,7,13,52,52,830
40.06240,0.04585,-0.01540,0.00000,0.03331,0.98234,-0.15787,0.0,2023,6,7,13,52,52,840
40.06250,0.01085,0.14210,0.00000,0.03209,0.98430,-0.15811,0.0,2023,6,7,13,52,52,850
40.06260,0.13335,-0.20790,0.00000,0.03087,0.98161,-0.16141,0.0,2023,6,7,13,52,52,860
40.06270,-0.16415,-0.01540,0.00000,0.03611,0.98125,-0.15933,0.0,2023,6,7,13,52,52,870
40.06280,-0.04165,-0.08540,0.00000,0.03367,0.98259,-0.15921,0.0,2023,6,7,13,52,52,880
40.06290,0.09835,0.03710,0.00000,0.03209,0.98039,-0.16043,0.0,2023,6,7,13,52,52,890
40.06300,0.06335,-0.10290,0.00000,0.03331,0.98381,-0.15799,0.0,2023,6,7,13,52,52,900
40.06310,-0.23415,-0.15540,0.00000,0.03453,0.97942,-0.16031,0.0,2023,6,7,13,52,52,910
40.06320,0.09835,0.08960,0.00000,0.03245,0.98381,-0.15994,0.0,2023,6,7,13,52,52,920
40.06330,0.15085,-0.19040,0.00000,0.03416,0.98161,-0.16104,0.0,2023,6,7,13,52,52,930
40.06340,0.04585,-0.06790,0.00000,0.03343,0.98112,-0.15958,0.0,2023,6,7,13,52,52,940
40.06350,-0.04165,0.15960,0.00000,0.03550,0.98381,-0.16141,0.0,2023,6,7,13,52,52,950
40.06360,-0.04165,0.08960,0.00000,0.03343,0.98210,-0.16104,0.0,2023,6,7,13,52,52,960
40.06370,0.02835,0.01960,0.00000,0.03294,0.98149,-0.16019,0.0,2023,6,7,13,52,52,970
40.06380,-0.09415,-0.15540,0.00000,0.03221,0.98308,-0.15945,0.0,2023,6,7,13,52,52,980
40.06390,0.01085,-0.08540,0.00000,0.03209,0.98271,-0.15945,0.0,2023,6,7,13,52,52,990
40.06400,-0.02415,0.08960,0.00000,0.03453,0.98283,-0.15970,0.0,2023,6,7,13,52,52,0
40.06410,-0.05915,-0.06790,0.00000,0.03306,0.98210,-0.15909,0.0,2023,6,7,13,52,53,10
40.06420,0.01085,0.03710,0.00000,0.03404,0.98491,-0.15799,0.0,2023,6,7,13,52,53,20
40.06430,0.02835,-0.10290,0.00000,0.03270,0.98381,-0.15970,0.0,2023,6,7,13,52,53,30
40.06440,-0.00665,-0.03290,0.00000,0.03379,0.98186,-0.15958,0.0,2023,6,7,13,52,53,40
40.06450,0.02835,-0.13790,0.00000,0.03379,0.97990,-0.15738,0.0,2023,6,7,13,52,53,50
40.06460,0.04585,-0.06790,0.00000,0.03392,0.98149,-0.15909,0.0,2023,6,7,13,52,53,60
40.06470,0.15085,-0.01540,0.00000,0.03343,0.98283,-0.15909,0.0,2023,6,7,13,52,53,70
40.06480,0.02835,-0.01540,0.00000,0.03367,0.98088,-0.16019,0.0,2023,6,7,13,52,53,80
40.06490,-0.09415,0.07210,0.00000,0.03440,0.98015,-0.16055,0.0,2023,6,7,13,52,53,90
40.06500,0.20335,-0.19040,0.00000,0.03526,0.98003,-0.16019,0.0,2023,6,7,13,52,53,100
40.06510,-0.11165,0.00210,0.00000,0.03440,0.98283,-0.15909,0.0,2023,6,7,13,52,53,110
40.06520,-0.00665,0.05460,0.00000,0.03489,0.98198,-0.16031,0.0,2023,6,7,13,52,53,120
40.06530,0.27335,-0.03290,0.00000,0.03623,0.98064,-0.16116,0.0,2023,6,7,13,52,53,130
40.06540,0.09835,0.05460,0.00000,0.03282,0.98161,-0.15921,0.0,2023,6,7,13,52,53,140
40.06550,0.18585,-0.12040,0.00000,0.03501,0.98320,-0.16202,0.0,2023,6,7,13,52,53,150
40.06560,0.22085,-0.06790,0.00000,0.03428,0.98076,-0.16019,0.0,2023,6,7,13,52,53,160
40.06570,-0.14665,-0.01540,0.00000,0.03306,0.98173,-0.16031,0.0,2023,6,7,13,52,53,170
40.06580,0.01085,-0.19040,0.00000,0.03282,0.98039,-0.15958,0.0,2023,6,7,13,52,53,180
40.06590,-0.09415,0.17710,0.00000,0.03367,0.98003,-0.15799,0.0,2023,6,7,13,52,53,190
40.06600,0.02835,-0.08540,0.00000,0.03184,0.98076,-0.16031,0.0,2023,6,7,13,52,53,200
40.06610,0.11585,-0.05040,0.00000,0.03477,0.98076,-0.16116,0.0,2023,6,7,13,52,53,210
40.06620,-0.04165,0.22960,0.00000,0.03245,0.98295,-0.15701,0.0,2023,6,7,13,52,53,220
40.06630,-0.04165,-0.13790,0.00000,0.03245,0.98137,-0.16104,0.0,2023,6,7,13,52,53,230
40.06640,0.01085,-0.03290,0.00000,0.03318,0.98027,-0.15970,0.0,2023,6,7,13,52,53,240
40.06650,-0.09415,0.05460,0.00000,0.03270,0.98332,-0.15872,0.0,2023,6,7,13,52,53,250
40.06660,-0.04165,0.03710,0.00000,0.03550,0.98369,-0.16019,0.0,2023,6,7,13,52,53,260
40.06670,-0.07665,-0.03290,0.00000,0.03392,0.97978,-0.15897,0.0,2023,6,7,13,52,53,270
40.06680,0.06335,0.00210,0.00000,0.03465,0.98222,-0.16165,0.0,2023,6,7,13,52,53,280
40.06690,0.02835,0.08960,0.00000,0.03270,0.98112,-0.15994,0.0,2023,6,7,13,52,53,290
40.06700,0.16835,0.12460,0.00000,0.03489,0.98088,-0.16055,0.0,2023,6,7,13,52,53,300
40.06710,0.01085,0.05460,0.00000,0.03404,0.98259,-0.16067,0.0,2023,6,7,13,52,53,310
40.06720,-0.07665,0.15960,0.00000,0.03575,0.98210,-0.15872,0.0,2023,6,7,13,52,53,320
40.06730,-0.21665,0.07210,0.00000,0.03453,0.97978,-0.15982,0.0,2023,6,7,13,52,53,330
40.06740,-0.07665,0.14210,0.00000,0.03123,0.98027,-0.15909,0.0,2023,6,7,13,52,53,340
40.06750,0.16835,0.08960,0.00000,0.03416,0.98186,-0.15945,0.0,2023,6,7,13,52,53,350
40.06760,0.13335,0.07210,0.00000,0.03184,0.98369,-0.15945,0.0,2023,6,7,13,52,53,360
40.06770,0.01085,-0.12040,0.00000,0.03404,0.98454,-0.16043,0.0,2023,6,7,13,52,53,370
40.06780,-0.02415,0.10710,0.00000,0.03404,0.98503,-0.16019,0.0,2023,6,7,13,52,53,380
40.06790,-0.04165,-0.01540,0.00000,0.03379,0.98295,-0.16006,0.0,2023,6,7,13,52,53,390
40.06800,0.04585,-0.03290,0.00000,0.03379,0.98198,-0.16104,0.0,2023,6,7,13,52,53,400
40.06810,0.11585,0.05460,0.00000,0.03416,0.98295,-0.15970,0.0,2023,6,7,13,52,53,410
40.06820,0.01085,0.08960,0.00000,0.03343,0.98259,-0.15823,0.0,2023,6,7,13,52,53,420
40.06830,-0.11165,0.17710,0.00000,0.03233,0.98295,-0.16019,0.0,2023,6,7,13,52,53,430
40.06840,0.06335,-0.01540,0.00000,0.03245,0.98247,-0.15897,0.0,2023,6,7,13,52,53,440
40.06850,-0.18165,0.03710,0.00000,0.03257,0.98088,-0.15945,0.0,2023,6,7,13,52,53,450
40.06860,-0.18165,0.14210,0.00000,0.03331,0.98186,-0.16031,0.0,2023,6,7,13,52,53,460
40.06870,0.09835,-0.03290,0.00000,0.03148,0.98478,-0.15860,0.0,2023,6,7,13,52,53,470
40.06880,-0.05915,-0.06790,0.00000,0.03270,0.98308,-0.15897,0.0,2023,6,7,13,52,53,480
40.06890,0.11585,0.12460,0.00000,0.02867,0.98320,-0.15836,0.0,2023,6,7,13,52,53,490
40.06900,-0.04165,-0.06790,0.00000,0.03294,0.98478,-0.16116,0.0,2023,6,7,13,52,53,500
40.06910,0.08085,0.01960,0.00000,0.03392,0.98198,-0.16153,0.0,2023,6,7,13,52,53,510
40.06920,-0.26915,0.05460,0.00000,0.03587,0.98186,-0.16067,0.0,2023,6,7,13,52,53,520
40.06930,-0.00665,-0.08540,0.00000,0.03245,0.98100,-0.16031,0.0,2023,6,7,13,52,53,530
40.06940,-0.04165,0.08960,0.00000,0.03209,0.98064,-0.16006,0.0,2023,6,7,13,52,53,540
40.06950,0.18585,-0.13790,0.00000,0.03440,0.98149,-0.16177,0.0,2023,6,7,13,52,53,550
40.06960,0.02835,-0.12040,0.00000,0.03221,0.97905,-0.15823,0.0,2023,6,7,13,52,53,560
40.06970,0.15085,-0.03290,0.00000,0.03379,0.98210,-0.16055,0.0,2023,6,7,13,52,53,570
40.06980,-0.07665,0.24710,0.00000,0.03404,0.98088,-0.16031,0.0,2023,6,7,13,52,53,580
40.06990,-0.00665,-0.03290,0.00000,0.03196,0.98125,-0.16080,0.0,2023,6,7,13,52,53,590
40.07000,-0.14665,0.12460,0.00000,0.03221,0.98283,-0.16153,0.0,2023,6,7,13,52,53,600
40.07010,0.04585,-0.06790,0.00000,0.03318,0.98247,-0.15897,0.0,2023,6,7,13,52,53,610
40.07020,-0.12915,0.03710,0.00000,0.03416,0.98222,-0.16006,0.0,2023,6,7,13,52,53,620
40.07030,0.02835,-0.01540,0.00000,0.03331,0.98283,-0.15897,0.0,2023,6,7,13,52,53,630
40.07040,-0.12915,0.07210,0.00000,0.03477,0.98247,-0.15970,0.0,2023,6,7,13,52,53,640
40.07050,-0.04165,0.00210,0.00000,0.03294,0.98515,-0.15799,0.0,2023,6,7,13,52,53,650
40.07060,0.06335,0.08960,0.00000,0.03074,0.98186,-0.16189,0.0,2023,6,7,13,52,53,660
40.07070,0.06335,-0.10290,0.00000,0.03355,0.98332,-0.15665,0.0,2023,6,7,13,52,53,670
40.07080,-0.04165,-0.17290,0.00000,0.03294,0.98247,-0.16141,0.0,2023,6,7,13,52,53,680
40.07090,0.04585,0.08960,0.00000,0.03416,0.97917,-0.16141,0.0,2023,6,7,13,52,53,690
40.07100,-0.04165,0.01960,0.00000,0.03379,0.98576,-0.15921,0.0,2023,6,7,13,52,53,700
40.07110,0.04585,-0.03290,0.00000,0.03318,0.98283,-0.15750,0.0,2023,6,7,13,52,53,710
40.07120,0.11585,-0.01540,0.00000,0.03379,0.98112,-0.16104,0.0,2023,6,7,13,52,53,720
40.07130,0.02835,0.01960,0.00000,0.03172,0.98137,-0.16043,0.0,2023,6,7,13,52,53,730
40.07140,0.04585,-0.03290,0.00000,0.03465,0.98320,-0.15970,0.0,2023,6,7,13,52,53,740
40.07150,-0.05915,-0.15540,0.00000,0.03453,0.98186,-0.15775,0.0,2023,6,7,13,52,53,750
40.07160,-0.07665,0.17710,0.00000,0.03221,0.98161,-0.15945,0.0,2023,6,7,13,52,53,760
40.07170,0.08085,0.07210,0.00000,0.03343,0.98442,-0.15860,0.0,2023,6,7,13,52,53,770
40.07180,-0.05915,-0.03290,0.00000,0.03184,0.98222,-0.16055,0.0,2023,6,7,13,52,53,780
40.07190,0.13335,-0.19040,0.00000,0.03282,0.98125,-0.16104,0.0,2023,6,7,13,52,53,790
40.07200,0.04585,0.12460,0.00000,0.03209,0.98369,-0.15836,0.0,2023,6,7,13,52,53,800
40.07210,0.04585,-0.05040,0.00000,0.03514,0.98417,-0.15921,0.0,2023,6,7,13,52,53,810
40.07220,-0.09415,0.10710,0.00000,0.03453,0.98295,-0.16104,0.0,2023,6,7,13,52,53,820
40.07230,-0.00665,0.01960,0.00000,0.03245,0.98332,-0.16104,0.0,2023,6,7,13,52,53,830
40.07240,-0.05915,0.05460,0.00000,0.03453,0.98320,-0.15909,0.0,2023,6,7,13,52,53,840
40.07250,0.30835,-0.12040,0.00000,0.03318,0.97942,-0.16031,0.0,2023,6,7,13,52,53,850
40.07260,-0.02415,-0.05040,0.00000,0.03501,0.98478,-0.15836,0.0,2023,6,7,13,52,53,860
40.07270,-0.00665,0.08960,0.00000,0.03648,0.98356,-0.15750,0.0,2023,6,7,13,52,53,870
40.07280,-0.02415,0.17710,0.00000,0.03453,0.98308,-0.16031,0.0,2023,6,7,13,52,53,880
40.07290,0.13335,0.15960,0.00000,0.03367,0.98161,-0.16031,0.0,2023,6,7,13,52,53,890
40.07300,-0.05915,0.07210,0.00000,0.03257,0.97893,-0.16116,0.0,2023,6,7,13,52,53,900
40.07310,0.06335,-0.06790,0.00000,0.03209,0.97966,-0.15994,0.0,2023,6,7,13,52,54,910
40.07320,-0.11165,0.22960,0.00000,0.03428,0.98332,-0.15787,0.0,2023,6,7,13,52,54,920
40.07330,0.15085,-0.15540,0.00000,0.03270,0.98137,-0.15921,0.0,2023,6,7,13,52,54,930
40.07340,-0.05915,0.00210,0.00000,0.03209,0.98125,-0.15982,0.0,2023,6,7,13,52,54,940
40.07350,-0.00665,0.01960,0.00000,0.03221,0.98234,-0.16006,0.0,2023,6,7,13,52,54,950
40.07360,-0.16415,0.19460,0.00000,0.03343,0.98149,-0.15860,0.0,2023,6,7,13,52,54,960
40.07370,-0.12915,0.12460,0.00000,0.03270,0.98100,-0.15982,0.0,2023,6,7,13,52,54,970
40.07380,0.02835,-0.06790,0.00000,0.03233,0.98417,-0.16006,0.0,2023,6,7,13,52,54,980
40.07390,0.09835,0.12460,0.00000,0.03562,0.98186,-0.16019,0.0,2023,6,7,13,52,54,990
40.07400,-0.00665,0.08960,0.00000,0.03367,0.98088,-0.15872,0.0,2023,6,7,13,52,54,0
40.07410,-0.02415,0.03710,0.00000,0.03318,0.98381,-0.15958,0.0,2023,6,7,13,52,54,10
40.07420,0.04585,-0.06790,0.00000,0.03453,0.98186,-0.15933,0.0,2023,6,7,13,52,54,20
40.07430,-0.12915,0.10710,0.00000,0.03343,0.98088,-0.16177,0.0,2023,6,7,13,52,54,30
40.07440,0.04585,-0.08540,0.00000,0.03026,0.98076,-0.16153,0.0,2023,6,7,13,52,54,40
40.07450,-0.12915,0.15960,0.00000,0.03294,0.98381,-0.15811,0.0,2023,6,7,13,52,54,50
40.07460,-0.11165,0.01960,0.00000,0.03245,0.98161,-0.15921,0.0,2023,6,7,13,52,54,60
40.07470,0.09835,-0.06790,0.00000,0.03318,0.97917,-0.15921,0.0,2023,6,7,13,52,54,70
40.07480,-0.07665,0.03710,0.00000,0.03379,0.98442,-0.16031,0.0,2023,6,7,13,52,54,80
40.07490,-0.02415,0.10710,0.00000,0.03221,0.98320,-0.15897,0.0,2023,6,7,13,52,54,90
40.07500,0.01085,0.08960,0.00000,0.03465,0.98283,-0.15811,0.0,2023,6,7,13,52,54,100
40.07510,-0.05915,-0.08540,0.00000,0.03318,0.98320,-0.16128,0.0,2023,6,7,13,52,54,110
40.07520,0.13335,-0.10290,0.00000,0.03465,0.98125,-0.15970,0.0,2023,6,7,13,52,54,120
40.07530,0.13335,-0.01540,0.00000,0.03379,0.98125,-0.15726,0.0,2023,6,7,13,52,54,130
40.07540,0.08085,0.12460,0.00000,0.03233,0.97990,-0.16092,0.0,2023,6,7,13,52,54,140
40.07550,-0.00665,0.05460,0.00000,0.03087,0.98295,-0.16177,0.0,2023,6,7,13,52,54,150
40.07560,0.08085,0.05460,0.00000,0.03392,0.98332,-0.15909,0.0,2023,6,7,13,52,54,160
40.07570,0.04585,0.05460,0.00000,0.03404,0.97954,-0.15970,0.0,2023,6,7,13,52,54,170
40.07580,0.20335,-0.22540,0.00000,0.03331,0.98283,-0.16165,0.0,2023,6,7,13,52,54,180
40.07590,0.02835,-0.20790,0.00000,0.03477,0.98295,-0.15775,0.0,2023,6,7,13,52,54,190
40.07600,0.16835,0.01960,0.00000,0.03416,0.98308,-0.16055,0.0,2023,6,7,13,52,54,200
40.07610,0.13335,-0.31290,0.00000,0.03233,0.98186,-0.15640,0.0,2023,6,7,13,52,54,210
40.07620,0.04585,0.21210,0.00000,0.03294,0.98051,-0.16031,0.0,2023,6,7,13,52,54,220
40.07630,-0.02415,0.01960,0.00000,0.03087,0.98112,-0.15958,0.0,2023,6,7,13,52,54,230
40.07640,0.01085,0.00210,0.00000,0.03331,0.98283,-0.16043,0.0,2023,6,7,13,52,54,240
40.07650,-0.07665,-0.01540,0.00000,0.03379,0.98100,-0.16019,0.0,2023,6,7,13,52,54,250
40.07660,0.11585,-0.24290,0.00000,0.03196,0.98137,-0.15897,0.0,2023,6,7,13,52,54,260
40.07670,0.02835,0.03710,0.00000,0.03526,0.98173,-0.15762,0.0,2023,6,7,13,52,54,270
40.07680,0.08085,-0.01540,0.00000,0.03184,0.98088,-0.16116,0.0,2023,6,7,13,52,54,280
40.07690,0.11585,0.08960,0.00000,0.03135,0.98369,-0.15811,0.0,2023,6,7,13,52,54,290
40.07700,0.11585,-0.26040,0.00000,0.03343,0.98088,-0.16019,0.0,2023,6,7,13,52,54,300
40.07710,-0.14665,0.26460,0.00000,0.03270,0.98137,-0.16080,0.0,2023,6,7,13,52,54,310
40.07720,0.01085,0.24710,0.00000,0.03526,0.98125,-0.16043,0.0,2023,6,7,13,52,54,320
40.07730,0.04585,0.29960,0.00000,0.03318,0.98125,-0.15909,0.0,2023,6,7,13,52,54,330
40.07740,0.08085,-0.01540,0.00000,0.03318,0.98198,-0.16226,0.0,2023,6,7,13,52,54,340
40.07750,0.06335,-0.03290,0.00000,0.03245,0.97954,-0.15811,0.0,2023,6,7,13,52,54,350
40.07760,-0.09415,0.07210,0.00000,0.03270,0.97966,-0.15787,0.0,2023,6,7,13,52,54,360
40.07770,-0.21665,0.21210,0.00000,0.03209,0.98088,-0.16043,0.0,2023,6,7,13,52,54,370
40.07780,-0.00665,0.03710,0.00000,0.03331,0.98539,-0.16043,0.0,2023,6,7,13,52,54,380
40.07790,0.04585,-0.10290,0.00000,0.03465,0.98271,-0.15884,0.0,2023,6,7,13,52,54,390
40.07800,0.20335,0.01960,0.00000,0.03221,0.98259,-0.15823,0.0,2023,6,7,13,52,54,400
40.07810,0.06335,0.05460,0.00000,0.03331,0.98039,-0.15897,0.0,2023,6,7,13,52,54,410
40.07820,0.04585,-0.01540,0.00000,0.03257,0.98198,-0.16019,0.0,2023,6,7,13,52,54,420
40.07830,-0.05915,0.03710,0.00000,0.03123,0.98283,-0.15628,0.0,2023,6,7,13,52,54,430
40.07840,0.13335,-0.08540,0.00000,0.03318,0.98173,-0.16165,0.0,2023,6,7,13,52,54,440
40.07850,0.02835,0.01960,0.00000,0.03404,0.98100,-0.16128,0.0,2023,6,7,13,52,54,450
40.07860,0.20335,0.01960,0.00000,0.03538,0.98100,-0.15994,0.0,2023,6,7,13,52,54,460
40.07870,-0.16415,0.07210,0.00000,0.03257,0.98247,-0.16067,0.0,2023,6,7,13,52,54,470
40.07880,0.01085,0.10710,0.00000,0.03282,0.98112,-0.15897,0.0,2023,6,7,13,52,54,480
40.07890,0.01085,-0.15540,0.00000,0.03209,0.98356,-0.15909,0.0,2023,6,7,13,52,54,490
40.07900,0.15085,0.01960,0.00000,0.03160,0.98003,-0.16080,0.0,2023,6,7,13,52,54,500
40.07910,0.08085,-0.06790,0.00000,0.03087,0.98039,-0.15970,0.0,2023,6,7,13,52,54,510
40.07920,-0.00665,-0.06790,0.00000,0.03428,0.98137,-0.16104,0.0,2023,6,7,13,52,54,520
40.07930,0.01085,-0.10290,0.00000,0.03367,0.98088,-0.15958,0.0,2023,6,7,13,52,54,530
40.07940,-0.02415,-0.10290,0.00000,0.03294,0.97832,-0.15921,0.0,2023,6,7,13,52,54,540
40.07950,-0.04165,0.00210,0.00000,0.03221,0.97844,-0.15921,0.0,2023,6,7,13,52,54,550
40.07960,0.09835,-0.12040,0.00000,0.03404,0.98186,-0.15909,0.0,2023,6,7,13,52,54,560
40.07970,-0.07665,-0.13790,0.00000,0.03221,0.97966,-0.15787,0.0,2023,6,7,13,52,54,570
40.07980,0.01085,0.05460,0.00000,0.03428,0.98064,-0.15836,0.0,2023,6,7,13,52,54,580
40.07990,0.06335,-0.01540,0.00000,0.03355,0.97856,-0.15848,0.0,2023,6,7,13,52,54,590
40.08000,-0.12915,0.10710,0.00000,0.03245,0.98027,-0.16250,0.0,2023,6,7,13,52,54,600
40.08010,-0.02415,0.01960,0.00000,0.03587,0.98112,-0.16104,0.0,2023,6,7,13,52,54,610
40.08020,0.06335,-0.01540,0.00000,0.03221,0.98161,-0.16287,0.0,2023,6,7,13,52,54,620
40.08030,-0.07665,-0.15540,0.00000,0.03318,0.98454,-0.15775,0.0,2023,6,7,13,52,54,630
40.08040,0.06335,0.10710,0.00000,0.03245,0.98173,-0.15799,0.0,2023,6,7,13,52,54,640
40.08050,0.15085,0.26460,0.00000,0.03282,0.98381,-0.16104,0.0,2023,6,7,13,52,54,650
40.08060,0.04585,-0.13790,0.00000,0.03306,0.98125,-0.15860,0.0,2023,6,7,13,52,54,660
40.08070,-0.04165,-0.15540,0.00000,0.03611,0.98442,-0.15994,0.0,2023,6,7,13,52,54,670
40.08080,0.11585,-0.03290,0.00000,0.03087,0.98149,-0.16116,0.0,2023,6,7,13,52,54,680
40.08090,0.09835,0.00210,0.00000,0.03343,0.98149,-0.15750,0.0,2023,6,7,13,52,54,690
40.08100,-0.14665,0.10710,0.00000,0.03355,0.98186,-0.16055,0.0,2023,6,7,13,52,54,700
40.08110,0.04585,0.05460,0.00000,0.03074,0.98161,-0.15970,0.0,2023,6,7,13,52,54,710
40.08120,-0.16415,0.17710,0.00000,0.03392,0.98088,-0.15726,0.0,2023,6,7,13,52,54,720
40.08130,0.01085,-0.10290,0.00000,0.03184,0.97942,-0.16372,0.0,2023,6,7,13,52,54,730
40.08140,-0.04165,0.10710,0.00000,0.03392,0.98076,-0.15701,0.0,2023,6,7,13,52,54,740
40.08150,-0.02415,0.17710,0.00000,0.03355,0.98064,-0.15994,0.0,2023,6,7,13,52,54,750
40.08160,0.04585,0.00210,0.00000,0.03806,0.98356,-0.15970,0.0,2023,6,7,13,52,54,760
40.08170,-0.07665,0.05460,0.00000,0.03282,0.98332,-0.15958,0.0,2023,6,7,13,52,54,770
40.08180,-0.02415,0.08960,0.00000,0.03257,0.98295,-0.15945,0.0,2023,6,7,13,52,54,780
40.08190,0.09835,0.03710,0.00000,0.03270,0.98417,-0.15921,0.0,2023,6,7,13,52,54,790
40.08200,0.08085,0.01960,0.00000,0.03404,0.98271,-0.15872,0.0,2023,6,7,13,52,55,800
40.08210,-0.12915,0.07210,0.00000,0.03367,0.98210,-0.15958,0.0,2023,6,7,13,52,55,810
40.08220,0.08085,-0.13790,0.00000,0.03160,0.98259,-0.16031,0.0,2023,6,7,13,52,55,820
40.08230,0.18585,0.05460,0.00000,0.03306,0.98112,-0.15799,0.0,2023,6,7,13,52,55,830
40.08240,0.20335,-0.05040,0.00000,0.03331,0.98332,-0.15921,0.0,2023,6,7,13,52,55,840
40.08250,0.06335,0.14210,0.00000,0.03526,0.98344,-0.15982,0.0,2023,6,7,13,52,55,850
40.08260,-0.09415,-0.13790,0.00000,0.03148,0.98039,-0.16141,0.0,2023,6,7,13,52,55,860
40.08270,-0.04165,0.00210,0.00000,0.03135,0.98137,-0.16067,0.0,2023,6,7,13,52,55,870
40.08280,0.08085,0.12460,0.00000,0.03050,0.98015,-0.15921,0.0,2023,6,7,13,52,55,880
40.08290,-0.07665,-0.01540,0.00000,0.03245,0.98161,-0.15982,0.0,2023,6,7,13,52,55,890
40.08300,-0.05915,-0.13790,0.00000,0.03404,0.98100,-0.16165,0.0,2023,6,7,13,52,55,900
40.08310,-0.09415,0.14210,0.00000,0.03282,0.98295,-0.16019,0.0,2023,6,7,13,52,55,910
40.08320,0.11585,-0.03290,0.00000,0.03209,0.98515,-0.15848,0.0,2023,6,7,13,52,55,920
40.08330,-0.16415,0.08960,0.00000,0.03416,0.98112,-0.15921,0.0,2023,6,7,13,52,55,930
40.08340,0.13335,0.07210,0.00000,0.03379,0.98161,-0.15909,0.0,2023,6,7,13,52,55,940
40.08350,-0.02415,0.08960,0.00000,0.03209,0.98161,-0.16006,0.0,2023,6,7,13,52,55,950
40.08360,0.11585,0.08960,0.00000,0.03184,0.98491,-0.15848,0.0,2023,6,7,13,52,55,960
40.08370,-0.12915,0.10710,0.00000,0.03233,0.98112,-0.15811,0.0,2023,6,7,13,52,55,970
40.08380,-0.02415,-0.22540,0.00000,0.03135,0.98308,-0.16055,0.0,2023,6,7,13,52,55,980
40.08390,0.09835,-0.20790,0.00000,0.03148,0.98271,-0.16055,0.0,2023,6,7,13,52,55,990
40.08400,0.09835,-0.01540,0.00000,0.03135,0.97990,-0.15860,0.0,2023,6,7,13,52,55,0
40.08410,-0.04165,-0.08540,0.00000,0.03367,0.98003,-0.15921,0.0,2023,6,7,13,52,55,10
40.08420,-0.07665,-0.06790,0.00000,0.03501,0.98271,-0.15884,0.0,2023,6,7,13,52,55,20
40.08430,0.04585,-0.01540,0.00000,0.03404,0.98247,-0.16153,0.0,2023,6,7,13,52,55,30
40.08440,0.15085,0.08960,0.00000,0.03526,0.98332,-0.15677,0.0,2023,6,7,13,52,55,40
40.08450,0.01085,-0.13790,0.00000,0.03318,0.98064,-0.16006,0.0,2023,6,7,13,52,55,50
40.08460,0.01085,-0.12040,0.00000,0.03111,0.98039,-0.15921,0.0,2023,6,7,13,52,55,60
40.08470,0.04585,0.29960,0.00000,0.03233,0.98088,-0.15970,0.0,2023,6,7,13,52,55,70
40.08480,-0.00665,0.00210,0.00000,0.03306,0.98283,-0.15762,0.0,2023,6,7,13,52,55,80
40.08490,0.11585,0.00210,0.00000,0.03294,0.98381,-0.15738,0.0,2023,6,7,13,52,55,90
40.08500,-0.12915,0.01960,0.00000,0.03355,0.98308,-0.15775,0.0,2023,6,7,13,52,55,100
40.08510,0.06335,-0.10290,0.00000,0.03209,0.98308,-0.15811,0.0,2023,6,7,13,52,55,110
40.08520,-0.16415,-0.03290,0.00000,0.03172,0.98271,-0.16019,0.0,2023,6,7,13,52,55,120
40.08530,0.09835,-0.08540,0.00000,0.03306,0.98112,-0.15909,0.0,2023,6,7,13,52,55,130
40.08540,0.06335,0.03710,0.00000,0.03282,0.98466,-0.16116,0.0,2023,6,7,13,52,55,140
40.08550,-0.09415,-0.13790,0.00000,0.03257,0.98051,-0.15945,0.0,2023,6,7,13,52,55,150
40.08560,-0.02415,-0.03290,0.00000,0.03538,0.98222,-0.15872,0.0,2023,6,7,13,52,55,160
40.08570,-0.00665,0.12460,0.00000,0.03440,0.98405,-0.15958,0.0,2023,6,7,13,52,55,170
40.08580,0.01085,0.05460,0.00000,0.03367,0.98161,-0.16067,0.0,2023,6,7,13,52,55,180
40.08590,-0.00665,0.21210,0.00000,0.03294,0.98161,-0.16067,0.0,2023,6,7,13,52,55,190
40.08600,0.02835,-0.20790,0.00000,0.03575,0.98161,-0.15860,0.0,2023,6,7,13,52,55,200
40.08610,0.18585,0.12460,0.00000,0.03233,0.98466,-0.15884,0.0,2023,6,7,13,52,55,210
40.08620,-0.05915,-0.12040,0.00000,0.03306,0.98320,-0.15848,0.0,2023,6,7,13,52,55,220
40.08630,0.16835,0.01960,0.00000,0.03318,0.98137,-0.15823,0.0,2023,6,7,13,52,55,230
40.08640,0.01085,0.00210,0.00000,0.03404,0.98247,-0.16031,0.0,2023,6,7,13,52,55,240
40.08650,-0.09415,-0.05040,0.00000,0.03270,0.98125,-0.15970,0.0,2023,6,7,13,52,55,250
40.08660,-0.02415,0.10710,0.00000,0.02977,0.98222,-0.16019,0.0,2023,6,7,13,52,55,260
40.08670,0.04585,0.00210,0.00000,0.03331,0.98210,-0.16141,0.0,2023,6,7,13,52,55,270
40.08680,0.01085,-0.10290,0.00000,0.03221,0.98271,-0.16080,0.0,2023,6,7,13,52,55,280
40.08690,0.02835,-0.08540,0.00000,0.03172,0.98295,-0.16299,0.0,2023,6,7,13,52,55,290
40.08700,-0.05915,-0.06790,0.00000,0.03184,0.98112,-0.16019,0.0,2023,6,7,13,52,55,300
40.08710,-0.00665,0.10710,0.00000,0.03160,0.98247,-0.16019,0.0,2023,6,7,13,52,55,310
40.08720,0.01085,0.07210,0.00000,0.03355,0.98149,-0.15982,0.0,2023,6,7,13,52,55,320
40.08730,-0.11165,0.08960,0.00000,0.03050,0.98417,-0.15970,0.0,2023,6,7,13,52,55,330
40.08740,-0.19915,0.28210,0.00000,0.03514,0.98320,-0.15921,0.0,2023,6,7,13,52,55,340
40.08750,0.04585,0.08960,0.00000,0.03392,0.98222,-0.15970,0.0,2023,6,7,13,52,55,350
40.08760,0.01085,-0.12040,0.00000,0.03318,0.98247,-0.16141,0.0,2023,6,7,13,52,55,360
40.08770,-0.05915,0.01960,0.00000,0.03148,0.98173,-0.15909,0.0,2023,6,7,13,52,55,370
40.08780,-0.16415,0.08960,0.00000,0.03453,0.98417,-0.15836,0.0,2023,6,7,13,52,55,380
40.08790,0.06335,0.17710,0.00000,0.03343,0.98039,-0.16031,0.0,2023,6,7,13,52,55,390
40.08800,-0.12915,0.03710,0.00000,0.03404,0.98308,-0.15811,0.0,2023,6,7,13,52,55,400
40.08810,0.02835,0.07210,0.00000,0.03379,0.98332,-0.16116,0.0,2023,6,7,13,52,55,410
40.08820,0.02835,-0.03290,0.00000,0.03245,0.98381,-0.15982,0.0,2023,6,7,13,52,55,420
40.08830,-0.05915,0.12460,0.00000,0.03282,0.98125,-0.15970,0.0,2023,6,7,13,52,55,430
40.08840,0.04585,-0.10290,0.00000,0.03306,0.98234,-0.15738,0.0,2023,6,7,13,52,55,440
40.08850,-0.02415,0.05460,0.00000,0.03465,0.98088,-0.16006,0.0,2023,6,7,13,52,55,450
40.08860,0.22085,-0.13790,0.00000,0.03331,0.98332,-0.16055,0.0,2023,6,7,13,52,55,460
40.08870,-0.19915,0.10710,0.00000,0.03343,0.98234,-0.16055,0.0,2023,6,7,13,52,55,470
40.08880,0.01085,0.22960,0.00000,0.03489,0.97917,-0.16177,0.0,2023,6,7,13,52,55,480
40.08890,-0.16415,0.10710,0.00000,0.03257,0.98515,-0.15872,0.0,2023,6,7,13,52,55,490
40.08900,-0.04165,0.00210,0.00000,0.03196,0.98210,-0.15945,0.0,2023,6,7,13,52,55,500
40.08910,-0.09415,0.12460,0.00000,0.03404,0.98247,-0.15958,0.0,2023,6,7,13,52,55,510
40.08920,0.13335,-0.17290,0.00000,0.03416,0.98112,-0.15799,0.0,2023,6,7,13,52,55,520
40.08930,0.13335,0.03710,0.00000,0.03440,0.98125,-0.15970,0.0,2023,6,7,13,52,55,530
40.08940,0.08085,-0.15540,0.00000,0.03428,0.98112,-0.15897,0.0,2023,6,7,13,52,55,540
40.08950,0.04585,-0.03290,0.00000,0.03135,0.98344,-0.15836,0.0,2023,6,7,13,52,55,550
40.08960,0.08085,0.10710,0.00000,0.03453,0.98088,-0.15994,0.0,2023,6,7,13,52,55,560
40.08970,0.04585,0.19460,0.00000,0.03270,0.98137,-0.15872,0.0,2023,6,7,13,52,55,570
40.08980,-0.00665,0.14210,0.00000,0.03172,0.97978,-0.16043,0.0,2023,6,7,13,52,55,580
40.08990,0.04585,0.03710,0.00000,0.03099,0.98125,-0.15982,0.0,2023,6,7,13,52,55,590
40.09000,-0.14665,0.17710,0.00000,0.03306,0.98344,-0.16019,0.0,2023,6,7,13,52,55,600
40.09010,0.13335,0.05460,0.00000,0.03355,0.98112,-0.15884,0.0,2023,6,7,13,52,55,610
40.09020,-0.02415,-0.06790,0.00000,0.03196,0.98478,-0.15872,0.0,2023,6,7,13,52,55,620
40.09030,-0.04165,0.08960,0.00000,0.03221,0.98320,-0.15872,0.0,2023,6,7,13,52,55,630
40.09040,-0.00665,0.12460,0.00000,0.03318,0.98222,-0.15921,0.0,2023,6,7,13,52,55,640
40.09050,-0.02415,-0.26040,0.00000,0.03355,0.98344,-0.16141,0.0,2023,6,7,13,52,55,650
40.09060,-0.09415,-0.10290,0.00000,0.03123,0.98308,-0.16055,0.0,2023,6,7,13,52,55,660
40.09070,0.01085,-0.13790,0.00000,0.03379,0.98332,-0.15799,0.0,2023,6,7,13,52,55,670
40.09080,-0.02415,-0.24290,0.00000,0.03428,0.98088,-0.16006,0.0,2023,6,7,13,52,55,680
40.09090,-0.09415,0.03710,0.00000,0.03428,0.98064,-0.15897,0.0,2023,6,7,13,52,55,690
40.09100,-0.05915,-0.01540,0.00000,0.03367,0.98173,-0.15689,0.0,2023,6,7,13,52,56,700
40.09110,-0.02415,-0.01540,0.00000,0.03477,0.98259,-0.16006,0.0,2023,6,7,13,52,56,710
40.09120,-0.04165,0.03710,0.00000,0.03526,0.98210,-0.15933,0.0,2023,6,7,13,52,56,720
40.09130,0.02835,0.07210,0.00000,0.03355,0.98088,-0.15958,0.0,2023,6,7,13,52,56,730
40.09140,-0.14665,0.17710,0.00000,0.03306,0.98112,-0.16019,0.0,2023,6,7,13,52,56,740
40.09150,0.25585,0.10710,0.00000,0.03453,0.98332,-0.15872,0.0,2023,6,7,13,52,56,750
40.09160,0.04585,0.00210,0.00000,0.03245,0.98222,-0.16067,0.0,2023,6,7,13,52,56,760
40.09170,0.04585,0.00210,0.00000,0.03538,0.98064,-0.15958,0.0,2023,6,7,13,52,56,770
40.09180,0.06335,-0.27790,0.00000,0.03331,0.98088,-0.16043,0.0,2023,6,7,13,52,56,780
40.09190,0.06335,0.07210,0.00000,0.03257,0.98430,-0.16067,0.0,2023,6,7,13,52,56,790
40.09200,-0.05915,0.00210,0.00000,0.03367,0.98344,-0.16043,0.0,2023,6,7,13,52,56,800
40.09210,-0.14665,0.10710,0.00000,0.03318,0.98186,-0.15994,0.0,2023,6,7,13,52,56,810
40.09220,-0.16415,0.19460,0.00000,0.03465,0.97954,-0.15884,0.0,2023,6,7,13,52,56,820
40.09230,0.06335,-0.03290,0.00000,0.03270,0.98234,-0.16031,0.0,2023,6,7,13,52,56,830
40.09240,0.08085,-0.17290,0.00000,0.03172,0.98320,-0.16006,0.0,2023,6,7,13,52,56,840
40.09250,0.18585,-0.15540,0.00000,0.03428,0.98332,-0.15897,0.0,2023,6,7,13,52,56,850
40.09260,-0.00665,-0.01540,0.00000,0.03294,0.98295,-0.15872,0.0,2023,6,7,13,52,56,860
40.09270,-0.16415,0.08960,0.00000,0.03367,0.98259,-0.15714,0.0,2023,6,7,13,52,56,870
40.09280,-0.00665,-0.03290,0.00000,0.03477,0.98051,-0.15884,0.0,2023,6,7,13,52,56,880
40.09290,0.01085,-0.08540,0.00000,0.03489,0.97978,-0.16177,0.0,2023,6,7,13,52,56,890
40.09300,0.08085,0.01960,0.00000,0.03379,0.98308,-0.16092,0.0,2023,6,7,13,52,56,900
40.09310,0.15085,-0.06790,0.00000,0.03355,0.98308,-0.15848,0.0,2023,6,7,13,52,56,910
40.09320,0.29085,0.03710,0.00000,0.03477,0.98088,-0.16006,0.0,2023,6,7,13,52,56,920
40.09330,0.22085,0.07210,0.00000,0.03416,0.98332,-0.15958,0.0,2023,6,7,13,52,56,930
40.09340,-0.21665,-0.01540,0.00000,0.03526,0.98198,-0.16067,0.0,2023,6,7,13,52,56,940
40.09350,-0.04165,0.00210,0.00000,0.03196,0.98234,-0.16067,0.0,2023,6,7,13,52,56,950
40.09360,-0.02415,-0.20790,0.00000,0.03306,0.98247,-0.15945,0.0,2023,6,7,13,52,56,960
40.09370,0.09835,-0.05040,0.00000,0.03257,0.98271,-0.16019,0.0,2023,6,7,13,52,56,970
40.09380,0.08085,-0.03290,0.00000,0.03294,0.98552,-0.15653,0.0,2023,6,7,13,52,56,980
40.09390,-0.12915,0.03710,0.00000,0.03379,0.98100,-0.16019,0.0,2023,6,7,13,52,56,990
40.09400,0.08085,-0.01540,0.00000,0.03550,0.98088,-0.15982,0.0,2023,6,7,13,52,56,0
40.09410,-0.07665,0.14210,0.00000,0.03318,0.98210,-0.16055,0.0,2023,6,7,13,52,56,10
40.09420,0.09835,-0.08540,0.00000,0.03074,0.98161,-0.16104,0.0,2023,6,7,13,52,56,20
40.09430,-0.09415,-0.06790,0.00000,0.03270,0.98051,-0.15714,0.0,2023,6,7,13,52,56,30
#2023/06/07 13:52:56
