#2023/06/07 18:05:22
time,wx,wy,wz,ax,ay,az,yy,MM,dd,hh,mm,ss,ms
50.92840,0.03150,-0.00630,0.00000,0.02965,0.97698,-0.18837,0.0,2023,6,7,18,5,23,118
50.92850,-0.02100,0.11620,0.00000,0.03038,0.97771,-0.18886,0.0,2023,6,7,18,5,23,129
50.92860,0.04900,0.08120,0.00000,0.03087,0.97698,-0.19020,0.0,2023,6,7,18,5,23,141
50.92870,0.13650,-0.00630,0.00000,0.03282,0.97637,-0.18873,0.0,2023,6,7,18,5,23,152
50.92880,0.03150,-0.05880,0.00000,0.03465,0.97673,-0.18873,0.0,2023,6,7,18,5,23,163
50.92890,0.10150,-0.00630,0.00000,0.03001,0.97551,-0.19056,0.0,2023,6,7,18,5,23,174
50.92900,-0.05600,-0.00630,0.00000,0.03221,0.97722,-0.18983,0.0,2023,6,7,18,5,23,186
50.92910,-0.03850,-0.05880,0.00000,0.03306,0.97624,-0.18971,0.0,2023,6,7,18,5,23,197
50.92920,-0.00350,0.04620,0.00000,0.03221,0.97673,-0.19130,0.0,2023,6,7,18,5,23,208
50.92930,-0.14350,0.08120,0.00000,0.03233,0.97685,-0.18873,0.0,2023,6,7,18,5,23,219
50.92940,0.08400,-0.02380,0.00000,0.03233,0.97722,-0.18678,0.0,2023,6,7,18,5,23,230
50.92950,0.08400,-0.21630,0.00000,0.03062,0.97893,-0.18886,0.0,2023,6,7,18,5,23,242
50.92960,0.03150,-0.00630,0.00000,0.03026,0.97710,-0.19056,0.0,2023,6,7,18,5,23,253
50.92970,0.20650,-0.09380,0.00000,0.03038,0.97783,-0.19142,0.0,2023,6,7,18,5,23,264
50.92980,0.06650,-0.09380,0.00000,0.03111,0.97942,-0.19020,0.0,2023,6,7,18,5,23,275
50.92990,-0.19600,-0.11130,0.00000,0.03172,0.97661,-0.18898,0.0,2023,6,7,18,5,23,287
50.93000,0.06650,-0.19880,0.00000,0.02989,0.97868,-0.18825,0.0,2023,6,7,18,5,23,298
50.93010,-0.00350,0.02870,0.00000,0.03184,0.97771,-0.19020,0.0,2023,6,7,18,5,23,309
50.93020,0.01400,0.09870,0.00000,0.03062,0.97673,-0.19215,0.0,2023,6,7,18,5,23,320
50.93030,0.03150,0.11620,0.00000,0.02977,0.97637,-0.18898,0.0,2023,6,7,18,5,23,332
50.93040,0.17150,0.04620,0.00000,0.02928,0.97515,-0.18934,0.0,2023,6,7,18,5,23,343
50.93050,0.03150,0.13370,0.00000,0.03062,0.97881,-0.19215,0.0,2023,6,7,18,5,23,354
50.93060,-0.16100,0.09870,0.00000,0.03087,0.97820,-0.18800,0.0,2023,6,7,18,5,23,365
50.93070,-0.00350,0.08120,0.00000,0.03221,0.97820,-0.18837,0.0,2023,6,7,18,5,23,377
50.93080,0.11900,-0.26880,0.00000,0.03148,0.97673,-0.19056,0.0,2023,6,7,18,5,23,388
50.93090,0.04900,-0.04130,0.00000,0.03245,0.97441,-0.18764,0.0,2023,6,7,18,5,23,399
50.93100,0.13650,-0.04130,0.00000,0.03087,0.97478,-0.18861,0.0,2023,6,7,18,5,23,410
50.93110,-0.10850,0.06370,0.00000,0.03318,0.97698,-0.19056,0.0,2023,6,7,18,5,23,421
50.93120,0.10150,-0.11130,0.00000,0.02952,0.97600,-0.18898,0.0,2023,6,7,18,5,23,433
50.93130,0.10150,0.06370,0.00000,0.03245,0.97624,-0.18886,0.0,2023,6,7,18,5,23,444
50.93140,-0.23100,-0.16380,0.00000,0.03233,0.97771,-0.19093,0.0,2023,6,7,18,5,23,455
50.93150,-0.00350,-0.07630,0.00000,0.03099,0.97515,-0.18812,0.0,2023,6,7,18,5,23,466
50.93160,0.01400,-0.18130,0.00000,0.03123,0.97551,-0.18861,0.0,2023,6,7,18,5,23,478
50.93170,0.01400,0.02870,0.00000,0.03245,0.97637,-0.19117,0.0,2023,6,7,18,5,23,489
50.93180,0.11900,0.09870,0.00000,0.03355,0.97637,-0.19032,0.0,2023,6,7,18,5,23,500
50.93190,0.04900,-0.04130,0.00000,0.03074,0.97734,-0.18812,0.0,2023,6,7,18,5,23,511
50.93200,0.13650,-0.04130,0.00000,0.03099,0.97698,-0.18886,0.0,2023,6,7,18,5,23,523
50.93210,0.13650,-0.07630,0.00000,0.03245,0.97466,-0.19020,0.0,2023,6,7,18,5,23,534
50.93220,-0.10850,-0.04130,0.00000,0.03184,0.97551,-0.19166,0.0,2023,6,7,18,5,23,545
50.93230,-0.03850,-0.28630,0.00000,0.03111,0.97637,-0.18837,0.0,2023,6,7,18,5,23,556
50.93240,0.22400,-0.02380,0.00000,0.03123,0.97576,-0.18995,0.0,2023,6,7,18,5,23,568
50.93250,-0.07350,0.02870,0.00000,0.03172,0.97893,-0.19069,0.0,2023,6,7,18,5,23,579
50.93260,0.03150,-0.05880,0.00000,0.02989,0.97637,-0.18873,0.0,2023,6,7,18,5,23,590
50.93270,-0.03850,-0.16380,0.00000,0.03172,0.97881,-0.18873,0.0,2023,6,7,18,5,23,601
50.93280,-0.02100,0.02870,0.00000,0.02806,0.97539,-0.18849,0.0,2023,6,7,18,5,23,612
50.93290,-0.19600,0.16870,0.00000,0.03160,0.97868,-0.18703,0.0,2023,6,7,18,5,23,624
50.93300,0.04900,-0.14630,0.00000,0.03013,0.97820,-0.19044,0.0,2023,6,7,18,5,23,635
50.93310,-0.05600,-0.09380,0.00000,0.02867,0.97624,-0.18837,0.0,2023,6,7,18,5,23,646
50.93320,-0.03850,-0.11130,0.00000,0.03160,0.97490,-0.18812,0.0,2023,6,7,18,5,23,657
50.93330,-0.12600,-0.05880,0.00000,0.03111,0.97600,-0.18739,0.0,2023,6,7,18,5,23,669
50.93340,0.04900,-0.04130,0.00000,0.03245,0.97624,-0.19105,0.0,2023,6,7,18,5,23,680
50.93350,0.11900,-0.07630,0.00000,0.03087,0.97807,-0.18898,0.0,2023,6,7,18,5,23,691
50.93360,0.03150,-0.11130,0.00000,0.03172,0.97515,-0.18922,0.0,2023,6,7,18,5,23,702
50.93370,0.01400,0.08120,0.00000,0.03465,0.97637,-0.19166,0.0,2023,6,7,18,5,23,714
50.93380,-0.02100,-0.04130,0.00000,0.03135,0.97637,-0.18898,0.0,2023,6,7,18,5,23,725
50.93390,-0.14350,0.01120,0.00000,0.03294,0.97673,-0.18898,0.0,2023,6,7,18,5,23,736
50.93400,0.25900,0.01120,0.00000,0.03270,0.97588,-0.19142,0.0,2023,6,7,18,5,23,747
50.93410,-0.19600,-0.12880,0.00000,0.03270,0.97417,-0.18800,0.0,2023,6,7,18,5,23,759
50.93420,-0.02100,0.08120,0.00000,0.02989,0.97624,-0.19081,0.0,2023,6,7,18,5,23,770
50.93430,-0.02100,-0.12880,0.00000,0.03099,0.97563,-0.19008,0.0,2023,6,7,18,5,23,781
50.93440,-0.09100,0.01120,0.00000,0.03135,0.97539,-0.18947,0.0,2023,6,7,18,5,23,792
50.93450,0.08400,0.06370,0.00000,0.03148,0.97734,-0.19288,0.0,2023,6,7,18,5,23,803
50.93460,-0.14350,0.04620,0.00000,0.03123,0.97466,-0.18959,0.0,2023,6,7,18,5,23,815
50.93470,-0.16100,-0.11130,0.00000,0.02879,0.97441,-0.18873,0.0,2023,6,7,18,5,23,826
50.93480,-0.14350,0.09870,0.00000,0.03160,0.97588,-0.19093,0.0,2023,6,7,18,5,23,837
50.93490,-0.10850,0.04620,0.00000,0.03209,0.97698,-0.18971,0.0,2023,6,7,18,5,23,848
50.93500,-0.05600,-0.16380,0.00000,0.03318,0.97588,-0.18971,0.0,2023,6,7,18,5,23,860
50.93510,0.10150,-0.00630,0.00000,0.02867,0.97429,-0.18995,0.0,2023,6,7,18,5,23,871
50.93520,0.03150,-0.21630,0.00000,0.03123,0.97966,-0.19020,0.0,2023,6,7,18,5,23,882
50.93530,-0.10850,0.44870,0.00000,0.03013,0.97698,-0.18959,0.0,2023,6,7,18,5,23,893
50.93540,-0.10850,-0.12880,0.00000,0.03184,0.97710,-0.18812,0.0,2023,6,7,18,5,23,905
50.93550,-0.10850,0.22120,0.00000,0.03074,0.97795,-0.18934,0.0,2023,6,7,18,5,23,916
50.93560,-0.00350,0.01120,0.00000,0.03160,0.97393,-0.18898,0.0,2023,6,7,18,5,23,927
50.93570,-0.00350,-0.07630,0.00000,0.03038,0.97795,-0.18971,0.0,2023,6,7,18,5,23,938
50.93580,0.06650,-0.02380,0.00000,0.03074,0.97734,-0.19166,0.0,2023,6,7,18,5,23,950
50.93590,-0.16100,0.25620,0.00000,0.03196,0.97624,-0.19191,0.0,2023,6,7,18,5,23,961
50.93600,-0.02100,0.01120,0.00000,0.03087,0.97783,-0.19142,0.0,2023,6,7,18,5,23,972
50.93610,-0.23100,0.06370,0.00000,0.03038,0.97685,-0.18898,0.0,2023,6,7,18,5,23,983
50.93620,-0.07350,0.02870,0.00000,0.03221,0.97600,-0.19154,0.0,2023,6,7,18,5,23,995
50.93630,0.03150,0.20370,0.00000,0.03209,0.97576,-0.18959,0.0,2023,6,7,18,5,23,6
50.93640,-0.03850,0.01120,0.00000,0.03160,0.97893,-0.19008,0.0,2023,6,7,18,5,24,7
50.93650,-0.07350,-0.21630,0.00000,0.03196,0.97527,-0.19130,0.0,2023,6,7,18,5,24,18
50.93660,0.15400,0.16870,0.00000,0.03001,0.97527,-0.19191,0.0,2023,6,7,18,5,24,29
50.93670,-0.21350,0.13370,0.00000,0.03245,0.97454,-0.19166,0.0,2023,6,7,18,5,24,41
50.93680,0.04900,-0.05880,0.00000,0.03148,0.97661,-0.19105,0.0,2023,6,7,18,5,24,52
50.93690,0.03150,-0.00630,0.00000,0.03245,0.97698,-0.18934,0.0,2023,6,7,18,5,24,63
50.93700,-0.10850,0.06370,0.00000,0.03013,0.97624,-0.19056,0.0,2023,6,7,18,5,24,74
50.93710,-0.03850,0.06370,0.00000,0.03196,0.97673,-0.19276,0.0,2023,6,7,18,5,24,86
50.93720,-0.23100,0.01120,0.00000,0.03148,0.97722,-0.19117,0.0,2023,6,7,18,5,24,97
50.93730,-0.17850,-0.16380,0.00000,0.03160,0.97612,-0.18983,0.0,2023,6,7,18,5,24,108
50.93740,-0.05600,0.08120,0.00000,0.03160,0.97624,-0.19069,0.0,2023,6,7,18,5,24,119
50.93750,-0.09100,-0.00630,0.00000,0.03294,0.97612,-0.18971,0.0,2023,6,7,18,5,24,131
50.93760,0.01400,-0.11130,0.00000,0.03074,0.97429,-0.18910,0.0,2023,6,7,18,5,24,142
50.93770,0.01400,0.11620,0.00000,0.02855,0.97698,-0.19032,0.0,2023,6,7,18,5,24,153
50.93780,0.11900,-0.05880,0.00000,0.03148,0.97698,-0.18800,0.0,2023,6,7,18,5,24,164
50.93790,0.06650,0.06370,0.00000,0.03099,0.97490,-0.18910,0.0,2023,6,7,18,5,24,176
50.93800,-0.02100,0.04620,0.00000,0.03172,0.97856,-0.19142,0.0,2023,6,7,18,5,24,187
50.93810,-0.09100,-0.04130,0.00000,0.03135,0.97551,-0.18971,0.0,2023,6,7,18,5,24,198
50.93820,-0.33600,0.18620,0.00000,0.03331,0.97820,-0.18886,0.0,2023,6,7,18,5,24,209
50.93830,0.06650,-0.12880,0.00000,0.03062,0.97576,-0.19069,0.0,2023,6,7,18,5,24,220
50.93840,-0.02100,-0.07630,0.00000,0.03257,0.97844,-0.18947,0.0,2023,6,7,18,5,24,232
50.93850,0.01400,-0.05880,0.00000,0.03148,0.97637,-0.18983,0.0,2023,6,7,18,5,24,243
50.93860,0.03150,-0.07630,0.00000,0.03257,0.97881,-0.19227,0.0,2023,6,7,18,5,24,254
50.93870,-0.00350,0.02870,0.00000,0.03038,0.97624,-0.19166,0.0,2023,6,7,18,5,24,265
50.93880,-0.12600,0.09870,0.00000,0.03196,0.97673,-0.18812,0.0,2023,6,7,18,5,24,277
50.93890,-0.17850,0.16870,0.00000,0.03026,0.97551,-0.18898,0.0,2023,6,7,18,5,24,288
50.93900,-0.05600,-0.00630,0.00000,0.02989,0.97624,-0.19081,0.0,2023,6,7,18,5,24,299
50.93910,-0.05600,0.09870,0.00000,0.02965,0.97893,-0.19069,0.0,2023,6,7,18,5,24,310
50.93920,-0.17850,0.06370,0.00000,0.02940,0.97576,-0.18983,0.0,2023,6,7,18,5,24,322
50.93930,-0.10850,0.13370,0.00000,0.03099,0.97612,-0.19252,0.0,2023,6,7,18,5,24,333
50.93940,-0.02100,-0.02380,0.00000,0.02940,0.97637,-0.18898,0.0,2023,6,7,18,5,24,344
50.93950,-0.16100,-0.07630,0.00000,0.03355,0.97807,-0.18873,0.0,2023,6,7,18,5,24,355
50.93960,-0.10850,0.02870,0.00000,0.03099,0.97661,-0.19020,0.0,2023,6,7,18,5,24,367
50.93970,0.01400,-0.02380,0.00000,0.03257,0.97576,-0.18849,0.0,2023,6,7,18,5,24,378
50.93980,-0.00350,-0.07630,0.00000,0.03074,0.97429,-0.18800,0.0,2023,6,7,18,5,24,389
50.93990,0.01400,0.02870,0.00000,0.03245,0.97673,-0.19056,0.0,2023,6,7,18,5,24,400
50.94000,-0.17850,0.15120,0.00000,0.03245,0.97600,-0.18947,0.0,2023,6,7,18,5,24,411
50.94010,-0.02100,-0.00630,0.00000,0.03099,0.97759,-0.18910,0.0,2023,6,7,18,5,24,423
50.94020,-0.07350,0.15120,0.00000,0.03087,0.97563,-0.18739,0.0,2023,6,7,18,5,24,434
50.94030,0.10150,0.11620,0.00000,0.02952,0.97637,-0.18849,0.0,2023,6,7,18,5,24,445
50.94040,-0.23100,-0.11130,0.00000,0.02977,0.97319,-0.18861,0.0,2023,6,7,18,5,24,456
50.94050,-0.02100,-0.05880,0.00000,0.03196,0.97868,-0.18751,0.0,2023,6,7,18,5,24,468
50.94060,-0.07350,-0.00630,0.00000,0.03050,0.97685,-0.18934,0.0,2023,6,7,18,5,24,479
50.94070,-0.21350,0.08120,0.00000,0.03062,0.97710,-0.19081,0.0,2023,6,7,18,5,24,490
50.94080,-0.03850,0.06370,0.00000,0.02989,0.97722,-0.18800,0.0,2023,6,7,18,5,24,501
50.94090,-0.10850,-0.25130,0.00000,0.03245,0.97588,-0.18873,0.0,2023,6,7,18,5,24,513
50.94100,0.01400,-0.00630,0.00000,0.03294,0.97502,-0.18764,0.0,2023,6,7,18,5,24,524
50.94110,0.11900,-0.09380,0.00000,0.03135,0.97710,-0.19008,0.0,2023,6,7,18,5,24,535
50.94120,-0.05600,0.30870,0.00000,0.03123,0.97490,-0.18764,0.0,2023,6,7,18,5,24,546
50.94130,-0.02100,0.13370,0.00000,0.02989,0.97661,-0.18837,0.0,2023,6,7,18,5,24,558
50.94140,0.04900,-0.05880,0.00000,0.03099,0.97624,-0.19069,0.0,2023,6,7,18,5,24,569
50.94150,-0.00350,0.04620,0.00000,0.03245,0.97332,-0.18861,0.0,2023,6,7,18,5,24,580
50.94160,-0.07350,0.15120,0.00000,0.03245,0.97698,-0.18471,0.0,2023,6,7,18,5,24,591
50.94170,0.06650,0.11620,0.00000,0.03099,0.97722,-0.19056,0.0,2023,6,7,18,5,24,602
50.94180,0.04900,-0.07630,0.00000,0.03099,0.97515,-0.18825,0.0,2023,6,7,18,5,24,614
50.94190,0.10150,0.22120,0.00000,0.03001,0.97673,-0.18971,0.0,2023,6,7,18,5,24,625
50.94200,-0.03850,0.20370,0.00000,0.03087,0.97563,-0.18593,0.0,2023,6,7,18,5,24,636
50.94210,-0.14350,-0.11130,0.00000,0.02965,0.97734,-0.18983,0.0,2023,6,7,18,5,24,647
50.94220,0.01400,0.13370,0.00000,0.03135,0.97649,-0.18898,0.0,2023,6,7,18,5,24,659
50.94230,0.10150,-0.00630,0.00000,0.03050,0.97515,-0.18715,0.0,2023,6,7,18,5,24,670
50.94240,-0.24850,-0.07630,0.00000,0.03172,0.97539,-0.18971,0.0,2023,6,7,18,5,24,681
50.94250,-0.12600,0.13370,0.00000,0.03257,0.97673,-0.19130,0.0,2023,6,7,18,5,24,692
50.94260,-0.09100,0.25620,0.00000,0.03172,0.97685,-0.18934,0.0,2023,6,7,18,5,24,704
50.94270,0.04900,-0.04130,0.00000,0.03221,0.97795,-0.18800,0.0,2023,6,7,18,5,24,715
50.94280,0.15400,0.08120,0.00000,0.03074,0.97746,-0.18995,0.0,2023,6,7,18,5,24,726
50.94290,-0.07350,0.08120,0.00000,0.03233,0.97820,-0.19056,0.0,2023,6,7,18,5,24,737
50.94300,0.11900,-0.12880,0.00000,0.03184,0.97685,-0.18507,0.0,2023,6,7,18,5,24,749
50.94310,-0.00350,0.11620,0.00000,0.03123,0.97710,-0.18995,0.0,2023,6,7,18,5,24,760
50.94320,-0.03850,-0.07630,0.00000,0.02904,0.97868,-0.18947,0.0,2023,6,7,18,5,24,771
50.94330,-0.07350,-0.04130,0.00000,0.03221,0.97759,-0.18751,0.0,2023,6,7,18,5,24,782
50.94340,0.18900,0.16870,0.00000,0.03282,0.97722,-0.18837,0.0,2023,6,7,18,5,24,793
50.94350,0.10150,0.04620,0.00000,0.03026,0.97746,-0.18739,0.0,2023,6,7,18,5,24,805
50.94360,0.13650,0.11620,0.00000,0.03331,0.97844,-0.18800,0.0,2023,6,7,18,5,24,816
50.94370,-0.12600,0.06370,0.00000,0.03148,0.97490,-0.18983,0.0,2023,6,7,18,5,24,827
50.94380,0.11900,-0.00630,0.00000,0.03196,0.97673,-0.18910,0.0,2023,6,7,18,5,24,838
50.94390,-0.05600,0.18620,0.00000,0.03038,0.97685,-0.18959,0.0,2023,6,7,18,5,24,850
50.94400,-0.16100,0.02870,0.00000,0.03013,0.97661,-0.18849,0.0,2023,6,7,18,5,24,861
50.94410,-0.05600,0.04620,0.00000,0.03062,0.97759,-0.19105,0.0,2023,6,7,18,5,24,872
50.94420,-0.05600,0.08120,0.00000,0.03111,0.97746,-0.18898,0.0,2023,6,7,18,5,24,883
50.94430,0.04900,-0.11130,0.00000,0.03270,0.97820,-0.18812,0.0,2023,6,7,18,5,24,895
50.94440,-0.03850,0.09870,0.00000,0.03294,0.97588,-0.18971,0.0,2023,6,7,18,5,24,906
50.94450,-0.02100,-0.02380,0.00000,0.03135,0.97698,-0.18971,0.0,2023,6,7,18,5,24,917
50.94460,-0.02100,-0.21630,0.00000,0.03111,0.97600,-0.18727,0.0,2023,6,7,18,5,24,928
50.94470,-0.02100,-0.19880,0.00000,0.03184,0.97624,-0.18898,0.0,2023,6,7,18,5,24,940
50.94480,0.04900,-0.21630,0.00000,0.03074,0.97502,-0.18898,0.0,2023,6,7,18,5,24,951
50.94490,0.13650,-0.05880,0.00000,0.03196,0.97588,-0.18727,0.0,2023,6,7,18,5,24,962
50.94500,-0.07350,-0.16380,0.00000,0.03318,0.97283,-0.18715,0.0,2023,6,7,18,5,24,973
50.94510,-0.03850,-0.00630,0.00000,0.03062,0.97661,-0.19154,0.0,2023,6,7,18,5,24,985
50.94520,-0.05600,0.06370,0.00000,0.03099,0.97649,-0.18995,0.0,2023,6,7,18,5,24,996
50.94530,-0.14350,0.08120,0.00000,0.02977,0.97551,-0.18971,0.0,2023,6,7,18,5,24,7
50.94540,-0.02100,0.15120,0.00000,0.03294,0.97624,-0.18886,0.0,2023,6,7,18,5,25,8
50.94550,-0.05600,0.01120,0.00000,0.03087,0.97624,-0.18922,0.0,2023,6,7,18,5,25,19
50.94560,-0.17850,-0.07630,0.00000,0.03184,0.97795,-0.18947,0.0,2023,6,7,18,5,25,31
50.94570,0.03150,-0.02380,0.00000,0.03209,0.97624,-0.18764,0.0,2023,6,7,18,5,25,42
50.94580,-0.07350,-0.05880,0.00000,0.03026,0.97783,-0.19032,0.0,2023,6,7,18,5,25,53
50.94590,0.11900,-0.23380,0.00000,0.03294,0.97698,-0.18886,0.0,2023,6,7,18,5,25,64
50.94600,-0.16100,0.06370,0.00000,0.03343,0.97417,-0.18764,0.0,2023,6,7,18,5,25,76
50.94610,-0.12600,0.06370,0.00000,0.03233,0.97771,-0.18947,0.0,2023,6,7,18,5,25,87
50.94620,0.08400,-0.23380,0.00000,0.03245,0.97563,-0.18788,0.0,2023,6,7,18,5,25,98
50.94630,-0.12600,0.04620,0.00000,0.03074,0.97539,-0.18703,0.0,2023,6,7,18,5,25,109
50.94640,-0.21350,0.04620,0.00000,0.03074,0.97795,-0.18642,0.0,2023,6,7,18,5,25,121
50.94650,-0.05600,0.09870,0.00000,0.03099,0.97771,-0.18886,0.0,2023,6,7,18,5,25,132
50.94660,-0.17850,-0.11130,0.00000,0.03087,0.97820,-0.18739,0.0,2023,6,7,18,5,25,143
50.94670,0.10150,-0.12880,0.00000,0.03196,0.97515,-0.19056,0.0,2023,6,7,18,5,25,154
50.94680,-0.02100,-0.00630,0.00000,0.02952,0.97771,-0.18995,0.0,2023,6,7,18,5,25,166
50.94690,-0.16100,0.18620,0.00000,0.03196,0.97283,-0.18910,0.0,2023,6,7,18,5,25,177
50.94700,-0.00350,-0.02380,0.00000,0.03099,0.97539,-0.18678,0.0,2023,6,7,18,5,25,188
50.94710,0.04900,0.02870,0.00000,0.03099,0.97734,-0.18922,0.0,2023,6,7,18,5,25,199
50.94720,0.01400,-0.07630,0.00000,0.03123,0.97661,-0.18800,0.0,2023,6,7,18,5,25,210
50.94730,-0.07350,0.04620,0.00000,0.03318,0.97673,-0.18727,0.0,2023,6,7,18,5,25,222
50.94740,0.17150,-0.09380,0.00000,0.03233,0.97795,-0.19020,0.0,2023,6,7,18,5,25,233
50.94750,-0.09100,-0.11130,0.00000,0.03331,0.97698,-0.19056,0.0,2023,6,7,18,5,25,244
50.94760,0.01400,0.20370,0.00000,0.03233,0.97551,-0.18800,0.0,2023,6,7,18,5,25,255
50.94770,0.03150,-0.21630,0.00000,0.03026,0.97649,-0.19069,0.0,2023,6,7,18,5,25,267
50.94780,0.11900,-0.07630,0.00000,0.03184,0.97478,-0.19081,0.0,2023,6,7,18,5,25,278
50.94790,-0.07350,0.04620,0.00000,0.03074,0.97771,-0.18642,0.0,2023,6,7,18,5,25,289
50.94800,-0.09100,0.06370,0.00000,0.02940,0.97710,-0.18800,0.0,2023,6,7,18,5,25,300
50.94810,-0.16100,-0.02380,0.00000,0.03001,0.97795,-0.18934,0.0,2023,6,7,18,5,25,312
50.94820,-0.24850,-0.12880,0.00000,0.03026,0.97661,-0.18751,0.0,2023,6,7,18,5,25,323
50.94830,0.04900,-0.25130,0.00000,0.03038,0.97722,-0.18886,0.0,2023,6,7,18,5,25,334
50.94840,0.03150,0.23870,0.00000,0.03001,0.97844,-0.18995,0.0,2023,6,7,18,5,25,345
50.94850,0.01400,0.23870,0.00000,0.03196,0.97649,-0.18983,0.0,2023,6,7,18,5,25,357
50.94860,-0.05600,-0.07630,0.00000,0.03123,0.97551,-0.18703,0.0,2023,6,7,18,5,25,368
50.94870,0.17150,-0.11130,0.00000,0.03294,0.97771,-0.19142,0.0,2023,6,7,18,5,25,379
50.94880,-0.00350,0.01120,0.00000,0.03074,0.97441,-0.18873,0.0,2023,6,7,18,5,25,390
50.94890,-0.26600,-0.04130,0.00000,0.03196,0.97539,-0.18910,0.0,2023,6,7,18,5,25,401
50.94900,-0.02100,0.02870,0.00000,0.03038,0.97795,-0.18849,0.0,2023,6,7,18,5,25,413
50.94910,-0.24850,0.04620,0.00000,0.03099,0.97759,-0.18788,0.0,2023,6,7,18,5,25,424
50.94920,-0.10850,-0.04130,0.00000,0.02977,0.97539,-0.18800,0.0,2023,6,7,18,5,25,435
50.94930,-0.24850,0.13370,0.00000,0.03074,0.97661,-0.19032,0.0,2023,6,7,18,5,25,446
50.94940,0.03150,0.01120,0.00000,0.03160,0.97502,-0.18837,0.0,2023,6,7,18,5,25,458
50.94950,0.13650,0.02870,0.00000,0.02977,0.97478,-0.18764,0.0,2023,6,7,18,5,25,469
50.94960,0.04900,-0.05880,0.00000,0.03087,0.97588,-0.18849,0.0,2023,6,7,18,5,25,480
50.94970,0.17150,0.08120,0.00000,0.03282,0.97380,-0.18983,0.0,2023,6,7,18,5,25,491
50.94980,-0.07350,0.01120,0.00000,0.03135,0.97905,-0.18739,0.0,2023,6,7,18,5,25,503
50.94990,0.03150,0.15120,0.00000,0.03123,0.97393,-0.19008,0.0,2023,6,7,18,5,25,514
50.95000,-0.10850,0.09870,0.00000,0.03160,0.97661,-0.18617,0.0,2023,6,7,18,5,25,525
50.95010,0.08400,0.02870,0.00000,0.02989,0.97454,-0.18947,0.0,2023,6,7,18,5,25,536
50.95020,0.10150,0.04620,0.00000,0.03343,0.97576,-0.18849,0.0,2023,6,7,18,5,25,548
50.95030,0.04900,-0.11130,0.00000,0.03245,0.97356,-0.18800,0.0,2023,6,7,18,5,25,559
50.95040,0.08400,-0.09380,0.00000,0.03062,0.97661,-0.18825,0.0,2023,6,7,18,5,25,570
50.95050,0.13650,0.04620,0.00000,0.02952,0.97734,-0.18642,0.0,2023,6,7,18,5,25,581
50.95060,-0.05600,0.01120,0.00000,0.03221,0.97588,-0.18690,0.0,2023,6,7,18,5,25,592
50.95070,-0.00350,-0.09380,0.00000,0.03087,0.97454,-0.18776,0.0,2023,6,7,18,5,25,604
50.95080,-0.19600,0.13370,0.00000,0.03367,0.97368,-0.18507,0.0,2023,6,7,18,5,25,615
50.95090,-0.09100,-0.02380,0.00000,0.03270,0.97624,-0.18788,0.0,2023,6,7,18,5,25,626
50.95100,-0.03850,0.29120,0.00000,0.03062,0.97734,-0.18873,0.0,2023,6,7,18,5,25,637
50.95110,-0.07350,-0.07630,0.00000,0.02940,0.97698,-0.18837,0.0,2023,6,7,18,5,25,649
50.95120,-0.12600,0.11620,0.00000,0.03074,0.97624,-0.18593,0.0,2023,6,7,18,5,25,660
50.95130,0.32900,-0.37380,0.00000,0.03233,0.97820,-0.18825,0.0,2023,6,7,18,5,25,671
50.95140,-0.05600,-0.04130,0.00000,0.03038,0.97783,-0.18764,0.0,2023,6,7,18,5,25,682
50.95150,-0.23100,-0.19880,0.00000,0.03111,0.97649,-0.18861,0.0,2023,6,7,18,5,25,694
50.95160,0.03150,0.18620,0.00000,0.03306,0.97649,-0.18837,0.0,2023,6,7,18,5,25,705
50.95170,-0.14350,0.09870,0.00000,0.03013,0.97405,-0.18971,0.0,2023,6,7,18,5,25,716
50.95180,-0.10850,0.06370,0.00000,0.03135,0.97539,-0.19130,0.0,2023,6,7,18,5,25,727
50.95190,-0.07350,-0.12880,0.00000,0.03074,0.97673,-0.18861,0.0,2023,6,7,18,5,25,739
50.95200,-0.12600,-0.02380,0.00000,0.03026,0.97978,-0.18910,0.0,2023,6,7,18,5,25,750
50.95210,0.08400,-0.18130,0.00000,0.03013,0.97600,-0.18690,0.0,2023,6,7,18,5,25,761
50.95220,-0.02100,-0.04130,0.00000,0.03062,0.97661,-0.18886,0.0,2023,6,7,18,5,25,772
50.95230,-0.23100,0.13370,0.00000,0.03233,0.97380,-0.19008,0.0,2023,6,7,18,5,25,783
50.95240,0.06650,0.09870,0.00000,0.03282,0.97698,-0.19093,0.0,2023,6,7,18,5,25,795
50.95250,0.01400,0.13370,0.00000,0.02940,0.97771,-0.19020,0.0,2023,6,7,18,5,25,806
50.95260,-0.14350,-0.18130,0.00000,0.03172,0.97624,-0.19032,0.0,2023,6,7,18,5,25,817
50.95270,-0.21350,0.22120,0.00000,0.03196,0.97868,-0.19154,0.0,2023,6,7,18,5,25,828
50.95280,-0.09100,0.18620,0.00000,0.03172,0.97539,-0.18971,0.0,2023,6,7,18,5,25,840
50.95290,0.01400,-0.05880,0.00000,0.03062,0.97478,-0.18971,0.0,2023,6,7,18,5,25,851
50.95300,-0.00350,0.15120,0.00000,0.03282,0.97881,-0.18995,0.0,2023,6,7,18,5,25,862
50.95310,-0.00350,-0.12880,0.00000,0.03245,0.97698,-0.18959,0.0,2023,6,7,18,5,25,873
50.95320,0.04900,-0.11130,0.00000,0.02952,0.97807,-0.18776,0.0,2023,6,7,18,5,25,885
50.95330,0.08400,-0.11130,0.00000,0.03355,0.97759,-0.19093,0.0,2023,6,7,18,5,25,896
50.95340,-0.00350,-0.19880,0.00000,0.03087,0.97746,-0.18800,0.0,2023,6,7,18,5,25,907
50.95350,-0.17850,0.11620,0.00000,0.03209,0.97795,-0.18947,0.0,2023,6,7,18,5,25,918
50.95360,-0.14350,-0.07630,0.00000,0.03221,0.97783,-0.18959,0.0,2023,6,7,18,5,25,930
50.95370,-0.17850,0.16870,0.00000,0.03270,0.97527,-0.18739,0.0,2023,6,7,18,5,25,941
50.95380,-0.07350,-0.09380,0.00000,0.03172,0.97661,-0.18751,0.0,2023,6,7,18,5,25,952
50.95390,-0.16100,0.13370,0.00000,0.03221,0.97429,-0.18593,0.0,2023,6,7,18,5,25,963
50.95400,-0.21350,0.15120,0.00000,0.03111,0.97795,-0.19069,0.0,2023,6,7,18,5,25,975
50.95410,0.10150,0.04620,0.00000,0.03221,0.97515,-0.18947,0.0,2023,6,7,18,5,25,986
50.95420,0.01400,-0.09380,0.00000,0.03111,0.97783,-0.18727,0.0,2023,6,7,18,5,25,997
50.95430,-0.02100,-0.05880,0.00000,0.03050,0.97576,-0.18556,0.0,2023,6,7,18,5,25,8
50.95440,0.10150,0.06370,0.00000,0.03062,0.97783,-0.18776,0.0,2023,6,7,18,5,26,9
50.95450,-0.17850,0.06370,0.00000,0.03257,0.97734,-0.18788,0.0,2023,6,7,18,5,26,21
50.95460,-0.24850,0.25620,0.00000,0.02940,0.97673,-0.18886,0.0,2023,6,7,18,5,26,32
50.95470,0.03150,-0.02380,0.00000,0.03111,0.97734,-0.19008,0.0,2023,6,7,18,5,26,43
50.95480,0.11900,0.06370,0.00000,0.03392,0.97685,-0.19154,0.0,2023,6,7,18,5,26,54
50.95490,0.04900,-0.00630,0.00000,0.02904,0.97588,-0.18764,0.0,2023,6,7,18,5,26,66
50.95500,-0.02100,0.13370,0.00000,0.03123,0.97649,-0.19142,0.0,2023,6,7,18,5,26,77
50.95510,-0.00350,-0.26880,0.00000,0.03209,0.97454,-0.18947,0.0,2023,6,7,18,5,26,88
50.95520,-0.12600,0.04620,0.00000,0.03245,0.97600,-0.18690,0.0,2023,6,7,18,5,26,99
50.95530,0.10150,0.01120,0.00000,0.03026,0.97661,-0.19166,0.0,2023,6,7,18,5,26,111
50.95540,-0.09100,0.06370,0.00000,0.03148,0.97490,-0.18971,0.0,2023,6,7,18,5,26,122
50.95550,0.10150,-0.18130,0.00000,0.02916,0.97515,-0.18788,0.0,2023,6,7,18,5,26,133
50.95560,-0.05600,-0.12880,0.00000,0.03123,0.97344,-0.18886,0.0,2023,6,7,18,5,26,144
50.95570,-0.02100,0.08120,0.00000,0.03074,0.97783,-0.18995,0.0,2023,6,7,18,5,26,156
50.95580,-0.05600,-0.05880,0.00000,0.03209,0.97515,-0.18873,0.0,2023,6,7,18,5,26,167
50.95590,-0.16100,0.09870,0.00000,0.03160,0.97881,-0.19117,0.0,2023,6,7,18,5,26,178
50.95600,-0.00350,0.01120,0.00000,0.03172,0.97649,-0.19081,0.0,2023,6,7,18,5,26,189
50.95610,-0.12600,0.08120,0.00000,0.03270,0.97539,-0.18800,0.0,2023,6,7,18,5,26,200
50.95620,-0.14350,0.11620,0.00000,0.03111,0.97783,-0.18873,0.0,2023,6,7,18,5,26,212
50.95630,0.03150,-0.19880,0.00000,0.03135,0.97588,-0.18947,0.0,2023,6,7,18,5,26,223
50.95640,0.11900,0.22120,0.00000,0.03099,0.97771,-0.18764,0.0,2023,6,7,18,5,26,234
50.95650,0.03150,-0.18130,0.00000,0.03331,0.97563,-0.18910,0.0,2023,6,7,18,5,26,245
50.95660,-0.12600,0.08120,0.00000,0.03172,0.97698,-0.18812,0.0,2023,6,7,18,5,26,257
50.95670,-0.03850,0.08120,0.00000,0.03001,0.97710,-0.18837,0.0,2023,6,7,18,5,26,268
50.95680,0.17150,-0.05880,0.00000,0.03038,0.97722,-0.19276,0.0,2023,6,7,18,5,26,279
50.95690,-0.05600,-0.02380,0.00000,0.03111,0.97771,-0.18861,0.0,2023,6,7,18,5,26,290
50.95700,0.03150,0.15120,0.00000,0.03184,0.97576,-0.18678,0.0,2023,6,7,18,5,26,302
50.95710,0.01400,0.06370,0.00000,0.03294,0.97380,-0.18922,0.0,2023,6,7,18,5,26,313
50.95720,-0.00350,-0.02380,0.00000,0.02940,0.97868,-0.18886,0.0,2023,6,7,18,5,26,324
50.95730,0.20650,-0.07630,0.00000,0.03135,0.97624,-0.18678,0.0,2023,6,7,18,5,26,335
50.95740,-0.03850,0.02870,0.00000,0.03184,0.97576,-0.19117,0.0,2023,6,7,18,5,26,347
50.95750,-0.09100,0.30870,0.00000,0.03245,0.97417,-0.18764,0.0,2023,6,7,18,5,26,358
50.95760,-0.23100,0.01120,0.00000,0.03257,0.97527,-0.18629,0.0,2023,6,7,18,5,26,369
50.95770,-0.10850,-0.02380,0.00000,0.02977,0.97527,-0.18715,0.0,2023,6,7,18,5,26,380
50.95780,0.08400,0.02870,0.00000,0.03123,0.97539,-0.18898,0.0,2023,6,7,18,5,26,391
50.95790,-0.05600,0.08120,0.00000,0.03123,0.97966,-0.18471,0.0,2023,6,7,18,5,26,403
50.95800,-0.09100,0.04620,0.00000,0.03172,0.97612,-0.18837,0.0,2023,6,7,18,5,26,414
50.95810,0.08400,0.02870,0.00000,0.03135,0.97820,-0.19069,0.0,2023,6,7,18,5,26,425
50.95820,-0.12600,-0.12880,0.00000,0.03172,0.97795,-0.18666,0.0,2023,6,7,18,5,26,436
50.95830,0.13650,-0.23380,0.00000,0.03148,0.97417,-0.18751,0.0,2023,6,7,18,5,26,448
50.95840,0.08400,0.09870,0.00000,0.02952,0.97661,-0.19081,0.0,2023,6,7,18,5,26,459
50.95850,-0.12600,0.15120,0.00000,0.03355,0.97600,-0.18776,0.0,2023,6,7,18,5,26,470
50.95860,-0.14350,0.06370,0.00000,0.03099,0.97722,-0.18776,0.0,2023,6,7,18,5,26,481
50.95870,-0.07350,-0.11130,0.00000,0.03135,0.97588,-0.19081,0.0,2023,6,7,18,5,26,493
50.95880,0.10150,-0.02380,0.00000,0.03074,0.97637,-0.18934,0.0,2023,6,7,18,5,26,504
50.95890,-0.26600,0.08120,0.00000,0.03135,0.97576,-0.18678,0.0,2023,6,7,18,5,26,515
50.95900,-0.00350,0.09870,0.00000,0.03221,0.97661,-0.18812,0.0,2023,6,7,18,5,26,526
50.95910,0.03150,0.01120,0.00000,0.03233,0.97868,-0.18910,0.0,2023,6,7,18,5,26,538
50.95920,0.11900,0.02870,0.00000,0.03184,0.97746,-0.18654,0.0,2023,6,7,18,5,26,549
50.95930,0.10150,0.02870,0.00000,0.03062,0.97588,-0.18715,0.0,2023,6,7,18,5,26,560
50.95940,-0.09100,-0.02380,0.00000,0.03001,0.97710,-0.18971,0.0,2023,6,7,18,5,26,571
50.95950,0.13650,-0.25130,0.00000,0.03282,0.97624,-0.18825,0.0,2023,6,7,18,5,26,582
50.95960,-0.02100,-0.09380,0.00000,0.02916,0.97551,-0.19044,0.0,2023,6,7,18,5,26,594
50.95970,-0.03850,0.02870,0.00000,0.03257,0.97771,-0.18995,0.0,2023,6,7,18,5,26,605
50.95980,0.03150,-0.07630,0.00000,0.02989,0.97563,-0.18947,0.0,2023,6,7,18,5,26,616
50.95990,-0.00350,-0.04130,0.00000,0.03087,0.97588,-0.18751,0.0,2023,6,7,18,5,26,627
50.96000,0.24150,0.08120,0.00000,0.03123,0.97795,-0.18983,0.0,2023,6,7,18,5,26,639
50.96010,0.03150,0.01120,0.00000,0.03013,0.97783,-0.18776,0.0,2023,6,7,18,5,26,650
50.96020,-0.12600,0.25620,0.00000,0.03282,0.97539,-0.18764,0.0,2023,6,7,18,5,26,661
50.96030,0.01400,-0.12880,0.00000,0.03013,0.97515,-0.19239,0.0,2023,6,7,18,5,26,672
50.96040,-0.07350,-0.04130,0.00000,0.03221,0.97563,-0.18751,0.0,2023,6,7,18,5,26,684
50.96050,-0.02100,0.04620,0.00000,0.02940,0.97417,-0.18959,0.0,2023,6,7,18,5,26,695
50.96060,0.11900,-0.16380,0.00000,0.03245,0.97576,-0.19044,0.0,2023,6,7,18,5,26,706
50.96070,-0.09100,-0.05880,0.00000,0.02989,0.97637,-0.18446,0.0,2023,6,7,18,5,26,717
50.96080,0.08400,-0.04130,0.00000,0.03001,0.97527,-0.18410,0.0,2023,6,7,18,5,26,729
50.96090,-0.00350,0.08120,0.00000,0.03209,0.97881,-0.18849,0.0,2023,6,7,18,5,26,740
50.96100,-0.00350,-0.09380,0.00000,0.03050,0.97673,-0.18776,0.0,2023,6,7,18,5,26,751
50.96110,0.18900,0.01120,0.00000,0.03196,0.97539,-0.18666,0.0,2023,6,7,18,5,26,762
50.96120,-0.14350,0.01120,0.00000,0.03428,0.97661,-0.18886,0.0,2023,6,7,18,5,26,773
50.96130,0.01400,0.01120,0.00000,0.03038,0.97441,-0.18812,0.0,2023,6,7,18,5,26,785
50.96140,0.15400,-0.21630,0.00000,0.03123,0.97600,-0.18873,0.0,2023,6,7,18,5,26,796
50.96150,0.04900,-0.04130,0.00000,0.03318,0.97673,-0.18898,0.0,2023,6,7,18,5,26,807
50.96160,0.03150,0.06370,0.00000,0.03282,0.97637,-0.19020,0.0,2023,6,7,18,5,26,818
50.96170,0.08400,-0.04130,0.00000,0.03111,0.97673,-0.18849,0.0,2023,6,7,18,5,26,830
50.96180,-0.09100,0.08120,0.00000,0.03196,0.97539,-0.18947,0.0,2023,6,7,18,5,26,841
50.96190,0.01400,0.02870,0.00000,0.03209,0.97490,-0.18751,0.0,2023,6,7,18,5,26,852
50.96200,-0.02100,-0.18130,0.00000,0.03221,0.97637,-0.18983,0.0,2023,6,7,18,5,26,863
50.96210,-0.19600,0.13370,0.00000,0.03160,0.97563,-0.18800,0.0,2023,6,7,18,5,26,875
50.96220,-0.03850,-0.16380,0.00000,0.03074,0.97624,-0.18678,0.0,2023,6,7,18,5,26,886
50.96230,0.08400,0.04620,0.00000,0.03392,0.97881,-0.18873,0.0,2023,6,7,18,5,26,897
50.96240,-0.12600,0.11620,0.00000,0.03306,0.97612,-0.18690,0.0,2023,6,7,18,5,26,908
50.96250,0.18900,-0.07630,0.00000,0.03160,0.97685,-0.18751,0.0,2023,6,7,18,5,26,920
50.96260,0.17150,-0.00630,0.00000,0.03062,0.97673,-0.18764,0.0,2023,6,7,18,5,26,931
50.96270,-0.37100,0.01120,0.00000,0.03087,0.97576,-0.18727,0.0,2023,6,7,18,5,26,942
50.96280,-0.07350,-0.02380,0.00000,0.03172,0.97588,-0.18715,0.0,2023,6,7,18,5,26,953
50.96290,-0.09100,0.16870,0.00000,0.03209,0.97502,-0.18739,0.0,2023,6,7,18,5,26,965
50.96300,0.03150,-0.18130,0.00000,0.03221,0.97563,-0.18812,0.0,2023,6,7,18,5,26,976
50.96310,-0.02100,0.04620,0.00000,0.03221,0.97454,-0.18690,0.0,2023,6,7,18,5,26,987
50.96320,-0.12600,0.01120,0.00000,0.03062,0.97515,-0.18837,0.0,2023,6,7,18,5,26,998
50.96330,0.01400,-0.09380,0.00000,0.03062,0.97856,-0.18666,0.0,2023,6,7,18,5,26,9
50.96340,0.13650,0.06370,0.00000,0.03428,0.97490,-0.18727,0.0,2023,6,7,18,5,26,21
50.96350,0.10150,-0.14630,0.00000,0.02818,0.97868,-0.18751,0.0,2023,6,7,18,5,26,32
50.96360,0.03150,0.16870,0.00000,0.03099,0.97783,-0.19081,0.0,2023,6,7,18,5,27,3
50.96370,0.06650,-0.12880,0.00000,0.03160,0.97588,-0.18727,0.0,2023,6,7,18,5,27,14
50.96380,0.08400,-0.04130,0.00000,0.03257,0.97722,-0.18666,0.0,2023,6,7,18,5,27,26
50.96390,0.03150,0.04620,0.00000,0.03087,0.97624,-0.18934,0.0,2023,6,7,18,5,27,37
50.96400,0.20650,-0.14630,0.00000,0.03099,0.97624,-0.18776,0.0,2023,6,7,18,5,27,48
50.96410,-0.07350,0.04620,0.00000,0.03282,0.97563,-0.18532,0.0,2023,6,7,18,5,27,59
50.96420,0.11900,-0.05880,0.00000,0.03050,0.97661,-0.18654,0.0,2023,6,7,18,5,27,71
50.96430,0.04900,-0.04130,0.00000,0.02794,0.97502,-0.18825,0.0,2023,6,7,18,5,27,82
50.96440,0.04900,0.02870,0.00000,0.03318,0.97698,-0.18544,0.0,2023,6,7,18,5,27,93
50.96450,0.17150,-0.25130,0.00000,0.03270,0.97844,-0.18544,0.0,2023,6,7,18,5,27,104
50.96460,-0.12600,-0.02380,0.00000,0.03428,0.97734,-0.18544,0.0,2023,6,7,18,5,27,116
50.96470,-0.07350,0.06370,0.00000,0.03148,0.97551,-0.18934,0.0,2023,6,7,18,5,27,127
50.96480,0.01400,-0.14630,0.00000,0.03087,0.97685,-0.18983,0.0,2023,6,7,18,5,27,138
50.96490,-0.07350,0.01120,0.00000,0.02989,0.97783,-0.19008,0.0,2023,6,7,18,5,27,149
50.96500,-0.16100,-0.05880,0.00000,0.03172,0.97746,-0.18581,0.0,2023,6,7,18,5,27,160
50.96510,-0.05600,-0.18130,0.00000,0.03245,0.97588,-0.18800,0.0,2023,6,7,18,5,27,172
50.96520,0.15400,-0.07630,0.00000,0.03111,0.97356,-0.18849,0.0,2023,6,7,18,5,27,183
50.96530,-0.05600,-0.04130,0.00000,0.03294,0.97673,-0.18959,0.0,2023,6,7,18,5,27,194
50.96540,-0.16100,0.02870,0.00000,0.03270,0.97624,-0.18947,0.0,2023,6,7,18,5,27,205
50.96550,0.22400,-0.07630,0.00000,0.03135,0.97624,-0.18825,0.0,2023,6,7,18,5,27,217
50.96560,0.17150,0.06370,0.00000,0.03233,0.97771,-0.18898,0.0,2023,6,7,18,5,27,228
50.96570,0.01400,0.02870,0.00000,0.03221,0.97576,-0.18617,0.0,2023,6,7,18,5,27,239
50.96580,-0.02100,0.02870,0.00000,0.03087,0.97576,-0.18764,0.0,2023,6,7,18,5,27,250
50.96590,0.08400,-0.04130,0.00000,0.02977,0.97783,-0.19154,0.0,2023,6,7,18,5,27,262
50.96600,0.01400,-0.04130,0.00000,0.03026,0.97588,-0.18971,0.0,2023,6,7,18,5,27,273
50.96610,-0.07350,0.11620,0.00000,0.03233,0.97454,-0.18544,0.0,2023,6,7,18,5,27,284
50.96620,-0.12600,-0.02380,0.00000,0.03257,0.97746,-0.18995,0.0,2023,6,7,18,5,27,295
50.96630,-0.05600,0.04620,0.00000,0.03209,0.97649,-0.18812,0.0,2023,6,7,18,5,27,307
50.96640,-0.07350,-0.04130,0.00000,0.03331,0.97502,-0.18922,0.0,2023,6,7,18,5,27,318
50.96650,-0.33600,0.16870,0.00000,0.03184,0.97637,-0.18605,0.0,2023,6,7,18,5,27,329
50.96660,0.01400,-0.04130,0.00000,0.03087,0.97551,-0.18642,0.0,2023,6,7,18,5,27,340
50.96670,0.06650,-0.02380,0.00000,0.03270,0.97551,-0.18703,0.0,2023,6,7,18,5,27,351
50.96680,-0.14350,0.06370,0.00000,0.03026,0.97783,-0.19020,0.0,2023,6,7,18,5,27,363
50.96690,-0.00350,-0.11130,0.00000,0.02989,0.97515,-0.19117,0.0,2023,6,7,18,5,27,374
50.96700,-0.14350,-0.12880,0.00000,0.03087,0.97783,-0.18873,0.0,2023,6,7,18,5,27,385
50.96710,-0.16100,0.13370,0.00000,0.03148,0.97600,-0.18959,0.0,2023,6,7,18,5,27,396
50.96720,0.25900,-0.04130,0.00000,0.03257,0.97539,-0.18959,0.0,2023,6,7,18,5,27,408
50.96730,-0.02100,0.11620,0.00000,0.03367,0.97551,-0.18654,0.0,2023,6,7,18,5,27,419
50.96740,-0.02100,-0.09380,0.00000,0.03355,0.97649,-0.18959,0.0,2023,6,7,18,5,27,430
50.96750,-0.05600,0.01120,0.00000,0.03026,0.97832,-0.18825,0.0,2023,6,7,18,5,27,441
50.96760,-0.09100,0.11620,0.00000,0.03233,0.97502,-0.18800,0.0,2023,6,7,18,5,27,453
50.96770,-0.14350,-0.05880,0.00000,0.03209,0.97563,-0.18568,0.0,2023,6,7,18,5,27,464
50.96780,-0.00350,0.13370,0.00000,0.03062,0.97746,-0.18739,0.0,2023,6,7,18,5,27,475
50.96790,-0.05600,0.01120,0.00000,0.03245,0.97490,-0.18983,0.0,2023,6,7,18,5,27,486
50.96800,0.06650,0.08120,0.00000,0.03038,0.97551,-0.18922,0.0,2023,6,7,18,5,27,498
50.96810,0.20650,0.02870,0.00000,0.03282,0.97759,-0.19020,0.0,2023,6,7,18,5,27,509
50.96820,0.06650,-0.11130,0.00000,0.03099,0.97319,-0.18861,0.0,2023,6,7,18,5,27,520
50.96830,0.08400,0.18620,0.00000,0.03379,0.97673,-0.18520,0.0,2023,6,7,18,5,27,531
50.96840,-0.17850,-0.18130,0.00000,0.03001,0.97734,-0.18825,0.0,2023,6,7,18,5,27,542
50.96850,0.08400,-0.21630,0.00000,0.03209,0.97429,-0.19093,0.0,2023,6,7,18,5,27,554
50.96860,0.01400,0.04620,0.00000,0.03062,0.97624,-0.18715,0.0,2023,6,7,18,5,27,565
50.96870,-0.14350,-0.05880,0.00000,0.02965,0.97734,-0.18617,0.0,2023,6,7,18,5,27,576
50.96880,0.03150,-0.11130,0.00000,0.03074,0.97563,-0.19069,0.0,2023,6,7,18,5,27,587
50.96890,0.11900,-0.19880,0.00000,0.03233,0.97698,-0.18568,0.0,2023,6,7,18,5,27,599
50.96900,-0.21350,0.08120,0.00000,0.03135,0.97722,-0.18971,0.0,2023,6,7,18,5,27,610
50.96910,0.13650,0.11620,0.00000,0.03379,0.97746,-0.18947,0.0,2023,6,7,18,5,27,621
50.96920,-0.00350,0.01120,0.00000,0.03013,0.97393,-0.18800,0.0,2023,6,7,18,5,27,632
50.96930,-0.05600,-0.23380,0.00000,0.03196,0.97661,-0.18642,0.0,2023,6,7,18,5,27,644
50.96940,0.06650,-0.02380,0.00000,0.03111,0.97539,-0.18837,0.0,2023,6,7,18,5,27,655
50.96950,-0.12600,-0.04130,0.00000,0.03160,0.97441,-0.18666,0.0,2023,6,7,18,5,27,666
50.96960,-0.09100,0.11620,0.00000,0.03184,0.97466,-0.18800,0.0,2023,6,7,18,5,27,677
50.96970,-0.17850,0.02870,0.00000,0.03087,0.97661,-0.18715,0.0,2023,6,7,18,5,27,689
50.96980,0.04900,-0.12880,0.00000,0.03111,0.97588,-0.18495,0.0,2023,6,7,18,5,27,700
50.96990,-0.19600,0.15120,0.00000,0.03148,0.97649,-0.18873,0.0,2023,6,7,18,5,27,711
50.97000,0.13650,-0.30380,0.00000,0.03050,0.97661,-0.19020,0.0,2023,6,7,18,5,27,722
50.97010,-0.00350,0.08120,0.00000,0.02989,0.98064,-0.18727,0.0,2023,6,7,18,5,27,733
50.97020,-0.12600,0.09870,0.00000,0.03148,0.97661,-0.18605,0.0,2023,6,7,18,5,27,745
50.97030,-0.00350,-0.02380,0.00000,0.03270,0.97502,-0.18910,0.0,2023,6,7,18,5,27,756
50.97040,0.10150,0.13370,0.00000,0.03428,0.97417,-0.18971,0.0,2023,6,7,18,5,27,767
50.97050,-0.00350,-0.16380,0.00000,0.02977,0.97710,-0.18947,0.0,2023,6,7,18,5,27,778
50.97060,0.10150,-0.12880,0.00000,0.03087,0.97490,-0.19069,0.0,2023,6,7,18,5,27,790
50.97070,0.03150,0.02870,0.00000,0.03123,0.97661,-0.18666,0.0,2023,6,7,18,5,27,801
50.97080,-0.17850,0.22120,0.00000,0.03001,0.97734,-0.18629,0.0,2023,6,7,18,5,27,812
50.97090,-0.03850,0.11620,0.00000,0.03379,0.97539,-0.19020,0.0,2023,6,7,18,5,27,823
50.97100,0.15400,0.18620,0.00000,0.02830,0.97612,-0.19081,0.0,2023,6,7,18,5,27,835
50.97110,-0.02100,-0.05880,0.00000,0.03172,0.97563,-0.18629,0.0,2023,6,7,18,5,27,846
50.97120,-0.03850,0.09870,0.00000,0.03148,0.97893,-0.19081,0.0,2023,6,7,18,5,27,857
50.97130,0.04900,0.09870,0.00000,0.03013,0.97527,-0.18825,0.0,2023,6,7,18,5,27,868
50.97140,-0.00350,-0.04130,0.00000,0.03196,0.97271,-0.18678,0.0,2023,6,7,18,5,27,880
50.97150,-0.02100,0.06370,0.00000,0.03050,0.97637,-0.19056,0.0,2023,6,7,18,5,27,891
50.97160,-0.09100,-0.23380,0.00000,0.03148,0.97746,-0.18800,0.0,2023,6,7,18,5,27,902
50.97170,-0.05600,0.08120,0.00000,0.02965,0.97612,-0.18727,0.0,2023,6,7,18,5,27,913
50.97180,0.18900,-0.16380,0.00000,0.02891,0.97661,-0.18825,0.0,2023,6,7,18,5,27,925
50.97190,0.01400,-0.00630,0.00000,0.02855,0.97637,-0.18983,0.0,2023,6,7,18,5,27,936
50.97200,-0.09100,-0.05880,0.00000,0.03087,0.97637,-0.18922,0.0,2023,6,7,18,5,27,947
50.97210,-0.05600,0.22120,0.00000,0.03331,0.97600,-0.18959,0.0,2023,6,7,18,5,27,958
50.97220,-0.09100,0.01120,0.00000,0.03074,0.97600,-0.18995,0.0,2023,6,7,18,5,27,969
50.97230,0.04900,-0.14630,0.00000,0.03233,0.97722,-0.18934,0.0,2023,6,7,18,5,27,981
50.97240,-0.14350,0.01120,0.00000,0.03087,0.97527,-0.18776,0.0,2023,6,7,18,5,27,992
50.97250,0.08400,0.04620,0.00000,0.03196,0.97795,-0.19081,0.0,2023,6,7,18,5,27,3
50.97260,0.11900,-0.14630,0.00000,0.03148,0.97661,-0.18910,0.0,2023,6,7,18,5,28,4
50.97270,0.06650,-0.00630,0.00000,0.02867,0.97942,-0.18788,0.0,2023,6,7,18,5,28,16
50.97280,0.13650,-0.12880,0.00000,0.03074,0.97820,-0.18825,0.0,2023,6,7,18,5,28,27
50.97290,-0.02100,0.13370,0.00000,0.03270,0.97722,-0.18568,0.0,2023,6,7,18,5,28,38
50.97300,-0.26600,-0.05880,0.00000,0.03172,0.97454,-0.18861,0.0,2023,6,7,18,5,28,49
50.97310,-0.09100,-0.12880,0.00000,0.03184,0.97673,-0.18898,0.0,2023,6,7,18,5,28,61
50.97320,-0.12600,0.15120,0.00000,0.03099,0.97807,-0.18934,0.0,2023,6,7,18,5,28,72
50.97330,-0.10850,-0.00630,0.00000,0.03123,0.97624,-0.18812,0.0,2023,6,7,18,5,28,83
50.97340,-0.03850,0.08120,0.00000,0.03074,0.97624,-0.18983,0.0,2023,6,7,18,5,28,94
50.97350,0.11900,-0.18130,0.00000,0.03196,0.97795,-0.18861,0.0,2023,6,7,18,5,28,106
50.97360,-0.03850,0.16870,0.00000,0.02965,0.97612,-0.18873,0.0,2023,6,7,18,5,28,117
50.97370,-0.02100,-0.23380,0.00000,0.03135,0.97844,-0.19142,0.0,2023,6,7,18,5,28,128
50.97380,0.10150,-0.14630,0.00000,0.03270,0.97588,-0.18788,0.0,2023,6,7,18,5,28,139
50.97390,-0.03850,0.06370,0.00000,0.02879,0.97429,-0.18629,0.0,2023,6,7,18,5,28,150
50.97400,0.18900,-0.16380,0.00000,0.02965,0.97771,-0.18837,0.0,2023,6,7,18,5,28,162
50.97410,-0.09100,0.09870,0.00000,0.03111,0.97612,-0.18971,0.0,2023,6,7,18,5,28,173
50.97420,0.06650,-0.07630,0.00000,0.03331,0.97868,-0.18690,0.0,2023,6,7,18,5,28,184
50.97430,-0.03850,-0.19880,0.00000,0.03196,0.97734,-0.18629,0.0,2023,6,7,18,5,28,195
50.97440,-0.10850,-0.02380,0.00000,0.02952,0.97661,-0.18788,0.0,2023,6,7,18,5,28,207
50.97450,0.08400,-0.04130,0.00000,0.03257,0.97783,-0.18922,0.0,2023,6,7,18,5,28,218
50.97460,-0.07350,-0.05880,0.00000,0.03074,0.97673,-0.18568,0.0,2023,6,7,18,5,28,229
50.97470,-0.00350,0.16870,0.00000,0.03221,0.97539,-0.18922,0.0,2023,6,7,18,5,28,240
50.97480,-0.03850,-0.02380,0.00000,0.03062,0.97698,-0.18690,0.0,2023,6,7,18,5,28,252
50.97490,-0.09100,0.04620,0.00000,0.03221,0.97588,-0.18532,0.0,2023,6,7,18,5,28,263
50.97500,-0.14350,0.11620,0.00000,0.03087,0.97856,-0.18983,0.0,2023,6,7,18,5,28,274
50.97510,-0.02100,0.02870,0.00000,0.02977,0.97698,-0.18910,0.0,2023,6,7,18,5,28,285
50.97520,-0.05600,-0.21630,0.00000,0.03111,0.97539,-0.18459,0.0,2023,6,7,18,5,28,297
50.97530,0.06650,-0.09380,0.00000,0.03355,0.97637,-0.18910,0.0,2023,6,7,18,5,28,308
50.97540,-0.00350,-0.18130,0.00000,0.03062,0.97466,-0.18812,0.0,2023,6,7,18,5,28,319
50.97550,-0.26600,0.15120,0.00000,0.03013,0.97563,-0.18886,0.0,2023,6,7,18,5,28,330
50.97560,0.11900,-0.05880,0.00000,0.03184,0.97624,-0.18873,0.0,2023,6,7,18,5,28,341
50.97570,-0.03850,0.02870,0.00000,0.03245,0.97685,-0.18934,0.0,2023,6,7,18,5,28,353
50.97580,-0.17850,0.08120,0.00000,0.03416,0.97820,-0.18800,0.0,2023,6,7,18,5,28,364
50.97590,0.17150,0.18620,0.00000,0.03294,0.97771,-0.19008,0.0,2023,6,7,18,5,28,375
50.97600,0.01400,0.06370,0.00000,0.03074,0.97807,-0.18886,0.0,2023,6,7,18,5,28,386
50.97610,-0.12600,0.15120,0.00000,0.03074,0.97734,-0.18690,0.0,2023,6,7,18,5,28,398
50.97620,0.10150,-0.05880,0.00000,0.03355,0.97454,-0.18544,0.0,2023,6,7,18,5,28,409
50.97630,0.13650,-0.19880,0.00000,0.02940,0.97795,-0.18788,0.0,2023,6,7,18,5,28,420
50.97640,-0.00350,0.11620,0.00000,0.03062,0.97966,-0.18873,0.0,2023,6,7,18,5,28,431
50.97650,0.03150,0.06370,0.00000,0.03135,0.97746,-0.18727,0.0,2023,6,7,18,5,28,443
50.97660,0.18900,-0.18130,0.00000,0.03074,0.97856,-0.18764,0.0,2023,6,7,18,5,28,454
50.97670,-0.03850,0.06370,0.00000,0.03135,0.97576,-0.18629,0.0,2023,6,7,18,5,28,465
50.97680,0.10150,-0.05880,0.00000,0.03111,0.97515,-0.18776,0.0,2023,6,7,18,5,28,476
50.97690,-0.05600,-0.16380,0.00000,0.02867,0.97429,-0.18764,0.0,2023,6,7,18,5,28,488
50.97700,-0.05600,0.11620,0.00000,0.03172,0.97734,-0.19154,0.0,2023,6,7,18,5,28,499
50.97710,0.01400,-0.05880,0.00000,0.03013,0.97417,-0.18666,0.0,2023,6,7,18,5,28,510
50.97720,-0.00350,-0.04130,0.00000,0.03062,0.97393,-0.18788,0.0,2023,6,7,18,5,28,521
50.97730,0.04900,-0.04130,0.00000,0.03062,0.97490,-0.18886,0.0,2023,6,7,18,5,28,532
50.97740,0.10150,-0.14630,0.00000,0.03087,0.97832,-0.18715,0.0,2023,6,7,18,5,28,544
50.97750,0.11900,-0.07630,0.00000,0.03257,0.97832,-0.18715,0.0,2023,6,7,18,5,28,555
50.97760,-0.00350,0.06370,0.00000,0.03074,0.97478,-0.19020,0.0,2023,6,7,18,5,28,566
50.97770,0.15400,0.04620,0.00000,0.02952,0.97905,-0.18556,0.0,2023,6,7,18,5,28,577
50.97780,-0.30100,0.01120,0.00000,0.02928,0.97393,-0.18642,0.0,2023,6,7,18,5,28,589
50.97790,0.13650,0.04620,0.00000,0.03148,0.97454,-0.18678,0.0,2023,6,7,18,5,28,600
50.97800,0.04900,0.16870,0.00000,0.03221,0.97759,-0.18800,0.0,2023,6,7,18,5,28,611
50.97810,-0.05600,0.16870,0.00000,0.03221,0.97405,-0.18446,0.0,2023,6,7,18,5,28,622
50.97820,-0.00350,-0.04130,0.00000,0.03160,0.97759,-0.18947,0.0,2023,6,7,18,5,28,634
50.97830,0.03150,0.01120,0.00000,0.03245,0.97502,-0.18776,0.0,2023,6,7,18,5,28,645
50.97840,-0.09100,-0.04130,0.00000,0.03172,0.97527,-0.18825,0.0,2023,6,7,18,5,28,656
50.97850,0.17150,0.06370,0.00000,0.03172,0.97490,-0.19008,0.0,2023,6,7,18,5,28,667
50.97860,-0.00350,0.06370,0.00000,0.03379,0.97881,-0.18947,0.0,2023,6,7,18,5,28,679
50.97870,-0.16100,0.01120,0.00000,0.02806,0.97649,-0.18568,0.0,2023,6,7,18,5,28,690
50.97880,0.17150,0.04620,0.00000,0.03135,0.97710,-0.18995,0.0,2023,6,7,18,5,28,701
50.97890,-0.14350,0.18620,0.00000,0.02989,0.97637,-0.18556,0.0,2023,6,7,18,5,28,712
50.97900,-0.21350,0.08120,0.00000,0.03135,0.97832,-0.18837,0.0,2023,6,7,18,5,28,723
50.97910,0.15400,-0.19880,0.00000,0.03221,0.97795,-0.18934,0.0,2023,6,7,18,5,28,735
50.97920,0.10150,-0.21630,0.00000,0.03306,0.97783,-0.18922,0.0,2023,6,7,18,5,28,746
50.97930,-0.02100,0.13370,0.00000,0.03148,0.97368,-0.18800,0.0,2023,6,7,18,5,28,757
50.97940,-0.10850,0.11620,0.00000,0.03087,0.97624,-0.18849,0.0,2023,6,7,18,5,28,768
50.97950,0.04900,0.01120,0.00000,0.03038,0.97600,-0.18788,0.0,2023,6,7,18,5,28,780
50.97960,0.18900,0.06370,0.00000,0.03172,0.97637,-0.18764,0.0,2023,6,7,18,5,28,791
50.97970,-0.17850,0.02870,0.00000,0.03160,0.97527,-0.18849,0.0,2023,6,7,18,5,28,802
50.97980,-0.21350,-0.09380,0.00000,0.03221,0.97868,-0.18800,0.0,2023,6,7,18,5,28,813
50.97990,-0.07350,0.01120,0.00000,0.02965,0.97710,-0.18678,0.0,2023,6,7,18,5,28,825
50.98000,-0.12600,-0.04130,0.00000,0.03148,0.97478,-0.18849,0.0,2023,6,7,18,5,28,836
50.98010,-0.03850,-0.04130,0.00000,0.03233,0.97698,-0.18947,0.0,2023,6,7,18,5,28,847
50.98020,0.22400,0.13370,0.00000,0.03233,0.97502,-0.18776,0.0,2023,6,7,18,5,28,858
50.98030,-0.03850,0.06370,0.00000,0.03379,0.97734,-0.18715,0.0,2023,6,7,18,5,28,870
50.98040,-0.00350,-0.09380,0.00000,0.03160,0.97868,-0.18776,0.0,2023,6,7,18,5,28,881
50.98050,0.08400,0.13370,0.00000,0.03111,0.97734,-0.18922,0.0,2023,6,7,18,5,28,892
50.98060,-0.05600,-0.05880,0.00000,0.03111,0.97527,-0.18873,0.0,2023,6,7,18,5,28,903
50.98070,0.13650,-0.02380,0.00000,0.03026,0.98015,-0.18934,0.0,2023,6,7,18,5,28,915
50.98080,-0.07350,0.09870,0.00000,0.02916,0.97685,-0.18739,0.0,2023,6,7,18,5,28,926
50.98090,0.04900,-0.04130,0.00000,0.02867,0.97600,-0.18629,0.0,2023,6,7,18,5,28,937
50.98100,-0.12600,0.01120,0.00000,0.03221,0.97771,-0.18715,0.0,2023,6,7,18,5,28,948
50.98110,-0.14350,-0.05880,0.00000,0.03123,0.97746,-0.18739,0.0,2023,6,7,18,5,28,959
50.98120,0.06650,-0.09380,0.00000,0.03050,0.97698,-0.18666,0.0,2023,6,7,18,5,28,971
50.98130,0.13650,-0.14630,0.00000,0.02989,0.97844,-0.18568,0.0,2023,6,7,18,5,28,982
50.98140,-0.03850,0.01120,0.00000,0.03062,0.97661,-0.18751,0.0,2023,6,7,18,5,28,993
50.98150,0.06650,-0.16380,0.00000,0.03111,0.97563,-0.18971,0.0,2023,6,7,18,5,28,4
50.98160,-0.05600,0.08120,0.00000,0.03135,0.97441,-0.18898,0.0,2023,6,7,18,5,29,6
50.98170,0.13650,0.06370,0.00000,0.03148,0.97624,-0.18837,0.0,2023,6,7,18,5,29,17
50.98180,0.11900,-0.16380,0.00000,0.03209,0.97771,-0.18678,0.0,2023,6,7,18,5,29,28
50.98190,-0.02100,0.01120,0.00000,0.03233,0.97502,-0.18788,0.0,2023,6,7,18,5,29,39
50.98200,0.17150,-0.02380,0.00000,0.03355,0.97673,-0.18947,0.0,2023,6,7,18,5,29,51
50.98210,0.08400,-0.04130,0.00000,0.03050,0.97393,-0.18764,0.0,2023,6,7,18,5,29,62
50.98220,-0.14350,-0.05880,0.00000,0.03221,0.97637,-0.18629,0.0,2023,6,7,18,5,29,73
50.98230,0.15400,-0.12880,0.00000,0.02891,0.97539,-0.18947,0.0,2023,6,7,18,5,29,84
50.98240,-0.03850,0.01120,0.00000,0.03233,0.97576,-0.18703,0.0,2023,6,7,18,5,29,96
50.98250,-0.14350,-0.05880,0.00000,0.03233,0.97661,-0.18703,0.0,2023,6,7,18,5,29,107
50.98260,0.13650,0.01120,0.00000,0.03172,0.97759,-0.18861,0.0,2023,6,7,18,5,29,118
50.98270,-0.12600,0.04620,0.00000,0.03050,0.97868,-0.18654,0.0,2023,6,7,18,5,29,129
50.98280,0.03150,-0.25130,0.00000,0.03062,0.97856,-0.18983,0.0,2023,6,7,18,5,29,140
50.98290,0.18900,-0.07630,0.00000,0.03221,0.97319,-0.18690,0.0,2023,6,7,18,5,29,152
50.98300,0.10150,-0.04130,0.00000,0.03160,0.97368,-0.18764,0.0,2023,6,7,18,5,29,163
50.98310,0.04900,0.01120,0.00000,0.03282,0.97722,-0.18678,0.0,2023,6,7,18,5,29,174
50.98320,0.06650,-0.05880,0.00000,0.03196,0.97746,-0.18886,0.0,2023,6,7,18,5,29,185
50.98330,-0.02100,-0.07630,0.00000,0.03270,0.97746,-0.18776,0.0,2023,6,7,18,5,29,197
50.98340,0.15400,-0.12880,0.00000,0.03062,0.97454,-0.18837,0.0,2023,6,7,18,5,29,208
50.98350,0.10150,-0.28630,0.00000,0.02928,0.97624,-0.18739,0.0,2023,6,7,18,5,29,219
50.98360,-0.10850,0.09870,0.00000,0.03257,0.97734,-0.18788,0.0,2023,6,7,18,5,29,230
50.98370,0.03150,-0.04130,0.00000,0.03184,0.97551,-0.18751,0.0,2023,6,7,18,5,29,242
50.98380,-0.02100,-0.02380,0.00000,0.03111,0.97685,-0.18776,0.0,2023,6,7,18,5,29,253
50.98390,-0.09100,0.01120,0.00000,0.03111,0.97746,-0.18983,0.0,2023,6,7,18,5,29,264
50.98400,-0.14350,0.01120,0.00000,0.03123,0.97820,-0.18886,0.0,2023,6,7,18,5,29,275
50.98410,-0.07350,0.15120,0.00000,0.03099,0.97576,-0.18703,0.0,2023,6,7,18,5,29,287
50.98420,-0.09100,0.08120,0.00000,0.03062,0.97576,-0.18788,0.0,2023,6,7,18,5,29,298
50.98430,0.24150,0.29120,0.00000,0.03087,0.97771,-0.18703,0.0,2023,6,7,18,5,29,309
50.98440,-0.14350,0.09870,0.00000,0.03135,0.97673,-0.18764,0.0,2023,6,7,18,5,29,320
50.98450,0.06650,-0.07630,0.00000,0.03135,0.97746,-0.18800,0.0,2023,6,7,18,5,29,331
50.98460,0.10150,0.15120,0.00000,0.03379,0.97722,-0.18971,0.0,2023,6,7,18,5,29,343
50.98470,-0.00350,0.15120,0.00000,0.03111,0.97612,-0.18788,0.0,2023,6,7,18,5,29,354
50.98480,-0.00350,-0.23380,0.00000,0.03233,0.97759,-0.18959,0.0,2023,6,7,18,5,29,365
50.98490,0.06650,-0.04130,0.00000,0.03099,0.97832,-0.18764,0.0,2023,6,7,18,5,29,376
50.98500,-0.07350,0.09870,0.00000,0.03184,0.97563,-0.18507,0.0,2023,6,7,18,5,29,388
50.98510,0.13650,-0.21630,0.00000,0.03050,0.97856,-0.19117,0.0,2023,6,7,18,5,29,399
50.98520,-0.14350,-0.02380,0.00000,0.03026,0.97807,-0.18812,0.0,2023,6,7,18,5,29,410
50.98530,-0.14350,-0.09380,0.00000,0.03270,0.97417,-0.18727,0.0,2023,6,7,18,5,29,421
50.98540,-0.00350,0.02870,0.00000,0.03111,0.97563,-0.18629,0.0,2023,6,7,18,5,29,433
50.98550,0.04900,0.02870,0.00000,0.03392,0.97563,-0.19032,0.0,2023,6,7,18,5,29,444
50.98560,-0.03850,0.08120,0.00000,0.03087,0.97722,-0.18983,0.0,2023,6,7,18,5,29,455
50.98570,-0.10850,-0.26880,0.00000,0.03209,0.97624,-0.18629,0.0,2023,6,7,18,5,29,466
50.98580,-0.14350,-0.11130,0.00000,0.03001,0.97673,-0.18898,0.0,2023,6,7,18,5,29,478
50.98590,0.10150,0.18620,0.00000,0.03038,0.97868,-0.18959,0.0,2023,6,7,18,5,29,489
50.98600,-0.09100,-0.00630,0.00000,0.03148,0.97588,-0.18898,0.0,2023,6,7,18,5,29,500
50.98610,-0.17850,0.01120,0.00000,0.03111,0.97527,-0.18800,0.0,2023,6,7,18,5,29,511
50.98620,-0.05600,-0.04130,0.00000,0.03257,0.97771,-0.18812,0.0,2023,6,7,18,5,29,522
50.98630,-0.17850,0.13370,0.00000,0.03038,0.97734,-0.18520,0.0,2023,6,7,18,5,29,534
50.98640,-0.17850,0.11620,0.00000,0.03257,0.97466,-0.18849,0.0,2023,6,7,18,5,29,545
50.98650,0.11900,-0.00630,0.00000,0.03257,0.97661,-0.18861,0.0,2023,6,7,18,5,29,556
50.98660,0.08400,0.01120,0.00000,0.03099,0.97820,-0.18788,0.0,2023,6,7,18,5,29,567
50.98670,-0.02100,0.15120,0.00000,0.03050,0.97612,-0.18751,0.0,2023,6,7,18,5,29,579
50.98680,0.03150,-0.21630,0.00000,0.03221,0.97624,-0.18837,0.0,2023,6,7,18,5,29,590
50.98690,-0.07350,-0.05880,0.00000,0.03038,0.97734,-0.18715,0.0,2023,6,7,18,5,29,601
50.98700,-0.21350,-0.18130,0.00000,0.03062,0.97649,-0.18715,0.0,2023,6,7,18,5,29,612
50.98710,-0.05600,0.09870,0.00000,0.03050,0.97612,-0.18788,0.0,2023,6,7,18,5,29,624
50.98720,-0.12600,0.15120,0.00000,0.02965,0.97722,-0.18739,0.0,2023,6,7,18,5,29,635
50.98730,-0.14350,0.02870,0.00000,0.03221,0.97490,-0.18690,0.0,2023,6,7,18,5,29,646
50.98740,0.01400,-0.14630,0.00000,0.02977,0.97551,-0.18678,0.0,2023,6,7,18,5,29,657
50.98750,0.15400,-0.18130,0.00000,0.03013,0.97563,-0.18910,0.0,2023,6,7,18,5,29,669
50.98760,0.04900,0.11620,0.00000,0.03026,0.97783,-0.18629,0.0,2023,6,7,18,5,29,680
50.98770,-0.02100,-0.09380,0.00000,0.03245,0.97563,-0.18727,0.0,2023,6,7,18,5,29,691
50.98780,0.04900,-0.02380,0.00000,0.03111,0.97771,-0.18922,0.0,2023,6,7,18,5,29,702
50.98790,-0.05600,0.02870,0.00000,0.03038,0.97832,-0.18788,0.0,2023,6,7,18,5,29,713
50.98800,-0.19600,0.02870,0.00000,0.03209,0.97649,-0.18788,0.0,2023,6,7,18,5,29,725
50.98810,-0.05600,-0.07630,0.00000,0.03123,0.97698,-0.19069,0.0,2023,6,7,18,5,29,736
50.98820,0.17150,-0.05880,0.00000,0.03148,0.97722,-0.18581,0.0,2023,6,7,18,5,29,747
50.98830,-0.26600,0.11620,0.00000,0.03209,0.97466,-0.18654,0.0,2023,6,7,18,5,29,758
50.98840,0.03150,0.08120,0.00000,0.03111,0.97905,-0.19008,0.0,2023,6,7,18,5,29,770
50.98850,0.25900,-0.14630,0.00000,0.03148,0.97844,-0.18410,0.0,2023,6,7,18,5,29,781
50.98860,-0.05600,0.18620,0.00000,0.03038,0.97649,-0.18703,0.0,2023,6,7,18,5,29,792
50.98870,0.10150,0.06370,0.00000,0.03355,0.97771,-0.18898,0.0,2023,6,7,18,5,29,803
50.98880,-0.19600,-0.02380,0.00000,0.02989,0.97649,-0.18593,0.0,2023,6,7,18,5,29,815
50.98890,-0.03850,-0.11130,0.00000,0.03087,0.97490,-0.18751,0.0,2023,6,7,18,5,29,826
50.98900,0.01400,0.01120,0.00000,0.03379,0.97795,-0.18886,0.0,2023,6,7,18,5,29,837
50.98910,-0.17850,-0.00630,0.00000,0.03050,0.97649,-0.18727,0.0,2023,6,7,18,5,29,848
50.98920,0.03150,0.09870,0.00000,0.03135,0.97649,-0.18788,0.0,2023,6,7,18,5,29,860
50.98930,-0.05600,-0.19880,0.00000,0.03123,0.97795,-0.18678,0.0,2023,6,7,18,5,29,871
50.98940,0.03150,-0.00630,0.00000,0.03184,0.97429,-0.18825,0.0,2023,6,7,18,5,29,882
50.98950,-0.03850,-0.12880,0.00000,0.02928,0.97868,-0.18678,0.0,2023,6,7,18,5,29,893
50.98960,-0.12600,0.02870,0.00000,0.02952,0.97685,-0.18776,0.0,2023,6,7,18,5,29,905
50.98970,-0.12600,0.15120,0.00000,0.03270,0.97746,-0.18886,0.0,2023,6,7,18,5,29,916
50.98980,-0.10850,0.11620,0.00000,0.03135,0.97624,-0.18922,0.0,2023,6,7,18,5,29,927
50.98990,-0.05600,0.20370,0.00000,0.03233,0.97551,-0.18715,0.0,2023,6,7,18,5,29,938
50.99000,-0.05600,-0.00630,0.00000,0.03257,0.97698,-0.19008,0.0,2023,6,7,18,5,29,949
50.99010,0.03150,0.09870,0.00000,0.03282,0.97771,-0.18727,0.0,2023,6,7,18,5,29,961
50.99020,-0.02100,0.09870,0.00000,0.03026,0.97600,-0.18739,0.0,2023,6,7,18,5,29,972
50.99030,0.24150,-0.18130,0.00000,0.02952,0.97832,-0.18483,0.0,2023,6,7,18,5,29,983
50.99040,-0.14350,0.34370,0.00000,0.02965,0.97624,-0.18971,0.0,2023,6,7,18,5,29,994
50.99050,-0.10850,-0.02380,0.00000,0.03099,0.97539,-0.18739,0.0,2023,6,7,18,5,29,6
50.99060,0.06650,-0.04130,0.00000,0.03135,0.97454,-0.18886,0.0,2023,6,7,18,5,29,17
50.99070,-0.00350,0.02870,0.00000,0.03050,0.97783,-0.18617,0.0,2023,6,7,18,5,30,8
50.99080,0.04900,0.04620,0.00000,0.03074,0.97685,-0.18727,0.0,2023,6,7,18,5,30,19
50.99090,-0.05600,0.09870,0.00000,0.02879,0.97551,-0.19008,0.0,2023,6,7,18,5,30,31
50.99100,-0.07350,0.04620,0.00000,0.02965,0.97759,-0.18934,0.0,2023,6,7,18,5,30,42
50.99110,0.13650,-0.00630,0.00000,0.03160,0.97746,-0.18739,0.0,2023,6,7,18,5,30,53
50.99120,0.06650,-0.09380,0.00000,0.03087,0.97637,-0.18995,0.0,2023,6,7,18,5,30,64
50.99130,0.08400,-0.05880,0.00000,0.03233,0.97380,-0.18776,0.0,2023,6,7,18,5,30,76
50.99140,-0.05600,0.04620,0.00000,0.03148,0.97698,-0.18520,0.0,2023,6,7,18,5,30,87
50.99150,-0.14350,0.16870,0.00000,0.03013,0.97698,-0.18776,0.0,2023,6,7,18,5,30,98
50.99160,-0.09100,-0.04130,0.00000,0.03160,0.97490,-0.18642,0.0,2023,6,7,18,5,30,109
50.99170,0.06650,0.15120,0.00000,0.03123,0.97734,-0.18837,0.0,2023,6,7,18,5,30,120
50.99180,-0.17850,0.01120,0.00000,0.03245,0.97441,-0.18532,0.0,2023,6,7,18,5,30,132
50.99190,-0.23100,0.08120,0.00000,0.03062,0.97478,-0.18971,0.0,2023,6,7,18,5,30,143
50.99200,0.18900,0.11620,0.00000,0.03184,0.97734,-0.18678,0.0,2023,6,7,18,5,30,154
50.99210,-0.33600,-0.12880,0.00000,0.03245,0.97417,-0.18434,0.0,2023,6,7,18,5,30,165
50.99220,0.08400,0.04620,0.00000,0.02977,0.97173,-0.18995,0.0,2023,6,7,18,5,30,177
50.99230,-0.17850,0.11620,0.00000,0.03160,0.97612,-0.18739,0.0,2023,6,7,18,5,30,188
50.99240,-0.21350,0.08120,0.00000,0.03318,0.97380,-0.18654,0.0,2023,6,7,18,5,30,199
50.99250,-0.10850,0.04620,0.00000,0.03001,0.97356,-0.19130,0.0,2023,6,7,18,5,30,210
50.99260,-0.10850,-0.11130,0.00000,0.03440,0.97685,-0.18690,0.0,2023,6,7,18,5,30,222
50.99270,-0.51100,0.22120,0.00000,0.03343,0.97478,-0.18605,0.0,2023,6,7,18,5,30,233
50.99280,0.10150,-0.07630,0.00000,0.03001,0.97539,-0.19191,0.0,2023,6,7,18,5,30,244
50.99290,-0.00350,-0.11130,0.00000,0.03367,0.97441,-0.18459,0.0,2023,6,7,18,5,30,255
50.99300,-0.14350,0.02870,0.00000,0.03172,0.97942,-0.18642,0.0,2023,6,7,18,5,30,267
50.99310,0.10150,-0.04130,0.00000,0.02989,0.97844,-0.19032,0.0,2023,6,7,18,5,30,278
50.99320,-0.10850,-0.00630,0.00000,0.03318,0.97844,-0.18471,0.0,2023,6,7,18,5,30,289
50.99330,-0.23100,-0.05880,0.00000,0.03062,0.97417,-0.18715,0.0,2023,6,7,18,5,30,300
50.99340,0.10150,0.15120,0.00000,0.02989,0.97515,-0.19191,0.0,2023,6,7,18,5,30,311
50.99350,-0.05600,-0.12880,0.00000,0.03367,0.97722,-0.18642,0.0,2023,6,7,18,5,30,323
50.99360,-0.30100,-0.11130,0.00000,0.03489,0.97576,-0.18690,0.0,2023,6,7,18,5,30,334
50.99370,0.32900,-0.02380,0.00000,0.03172,0.97783,-0.19349,0.0,2023,6,7,18,5,30,345
50.99380,0.08400,-0.14630,0.00000,0.03172,0.97454,-0.18690,0.0,2023,6,7,18,5,30,356
50.99390,0.08400,-0.09380,0.00000,0.03318,0.97417,-0.18739,0.0,2023,6,7,18,5,30,368
50.99400,0.39900,-0.00630,0.00000,0.03123,0.97759,-0.18983,0.0,2023,6,7,18,5,30,379
50.99410,0.01400,0.16870,0.00000,0.03160,0.97685,-0.18751,0.0,2023,6,7,18,5,30,390
50.99420,0.01400,0.02870,0.00000,0.03074,0.97368,-0.19008,0.0,2023,6,7,18,5,30,401
50.99430,0.22400,-0.09380,0.00000,0.03050,0.97893,-0.18849,0.0,2023,6,7,18,5,30,413
50.99440,-0.07350,-0.16380,0.00000,0.03062,0.97649,-0.18825,0.0,2023,6,7,18,5,30,424
50.99450,-0.07350,0.06370,0.00000,0.03282,0.97466,-0.18861,0.0,2023,6,7,18,5,30,435
50.99460,0.10150,-0.12880,0.00000,0.02952,0.97759,-0.18544,0.0,2023,6,7,18,5,30,446
50.99470,-0.16100,-0.14630,0.00000,0.03050,0.97905,-0.18922,0.0,2023,6,7,18,5,30,458
50.99480,-0.03850,0.13370,0.00000,0.03062,0.97685,-0.18800,0.0,2023,6,7,18,5,30,469
50.99490,-0.00350,-0.02380,0.00000,0.03160,0.97637,-0.18715,0.0,2023,6,7,18,5,30,480
50.99500,-0.07350,-0.11130,0.00000,0.03282,0.97893,-0.18983,0.0,2023,6,7,18,5,30,491
50.99510,-0.19600,0.11620,0.00000,0.03062,0.97978,-0.18666,0.0,2023,6,7,18,5,30,502
50.99520,-0.02100,0.01120,0.00000,0.03148,0.97576,-0.18617,0.0,2023,6,7,18,5,30,514
50.99530,-0.12600,-0.07630,0.00000,0.03001,0.97332,-0.18812,0.0,2023,6,7,18,5,30,525
50.99540,0.04900,-0.04130,0.00000,0.03038,0.97832,-0.18837,0.0,2023,6,7,18,5,30,536
50.99550,-0.14350,0.08120,0.00000,0.03062,0.97734,-0.18434,0.0,2023,6,7,18,5,30,547
50.99560,0.17150,-0.04130,0.00000,0.02977,0.97795,-0.19044,0.0,2023,6,7,18,5,30,559
50.99570,0.15400,-0.18130,0.00000,0.03209,0.97734,-0.18873,0.0,2023,6,7,18,5,30,570
50.99580,-0.14350,0.08120,0.00000,0.03343,0.97429,-0.18495,0.0,2023,6,7,18,5,30,581
50.99590,0.11900,-0.14630,0.00000,0.03050,0.97563,-0.19239,0.0,2023,6,7,18,5,30,592
50.99600,0.20650,-0.00630,0.00000,0.03050,0.97429,-0.18983,0.0,2023,6,7,18,5,30,604
50.99610,-0.12600,0.01120,0.00000,0.03160,0.97661,-0.18825,0.0,2023,6,7,18,5,30,615
50.99620,0.08400,0.11620,0.00000,0.03135,0.97771,-0.19166,0.0,2023,6,7,18,5,30,626
50.99630,0.04900,-0.00630,0.00000,0.03355,0.97344,-0.18983,0.0,2023,6,7,18,5,30,637
50.99640,-0.19600,-0.12880,0.00000,0.03062,0.97795,-0.18947,0.0,2023,6,7,18,5,30,649
50.99650,0.20650,0.01120,0.00000,0.03050,0.97710,-0.19056,0.0,2023,6,7,18,5,30,660
50.99660,-0.21350,0.01120,0.00000,0.03196,0.97502,-0.18898,0.0,2023,6,7,18,5,30,671
50.99670,0.08400,0.02870,0.00000,0.03038,0.97673,-0.18861,0.0,2023,6,7,18,5,30,682
50.99680,-0.03850,0.22120,0.00000,0.03135,0.97600,-0.18788,0.0,2023,6,7,18,5,30,693
50.99690,-0.07350,-0.11130,0.00000,0.03282,0.97685,-0.19032,0.0,2023,6,7,18,5,30,705
50.99700,0.08400,0.25620,0.00000,0.03282,0.97783,-0.19142,0.0,2023,6,7,18,5,30,716
50.99710,-0.02100,0.08120,0.00000,0.03026,0.97429,-0.18764,0.0,2023,6,7,18,5,30,727
50.99720,-0.14350,0.02870,0.00000,0.03221,0.97490,-0.18751,0.0,2023,6,7,18,5,30,738
50.99730,-0.09100,-0.11130,0.00000,0.03148,0.97527,-0.18995,0.0,2023,6,7,18,5,30,750
50.99740,-0.00350,0.02870,0.00000,0.03111,0.97661,-0.18690,0.0,2023,6,7,18,5,30,761
50.99750,-0.12600,0.04620,0.00000,0.03209,0.97832,-0.18788,0.0,2023,6,7,18,5,30,772
50.99760,0.15400,0.13370,0.00000,0.03062,0.97515,-0.18995,0.0,2023,6,7,18,5,30,783
50.99770,0.08400,-0.00630,0.00000,0.03074,0.97734,-0.18703,0.0,2023,6,7,18,5,30,795
50.99780,-0.03850,-0.21630,0.00000,0.03233,0.97612,-0.18971,0.0,2023,6,7,18,5,30,806
50.99790,-0.03850,-0.02380,0.00000,0.03074,0.97539,-0.18764,0.0,2023,6,7,18,5,30,817
50.99800,0.11900,-0.07630,0.00000,0.03026,0.97454,-0.18837,0.0,2023,6,7,18,5,30,828
50.99810,-0.02100,0.11620,0.00000,0.03087,0.97771,-0.18739,0.0,2023,6,7,18,5,30,840
50.99820,0.08400,-0.11130,0.00000,0.02757,0.97551,-0.18922,0.0,2023,6,7,18,5,30,851
50.99830,0.03150,0.08120,0.00000,0.02916,0.97405,-0.18898,0.0,2023,6,7,18,5,30,862
50.99840,-0.09100,-0.02380,0.00000,0.03355,0.97527,-0.18605,0.0,2023,6,7,18,5,30,873
50.99850,0.04900,0.04620,0.00000,0.03318,0.97612,-0.18812,0.0,2023,6,7,18,5,30,885
50.99860,-0.19600,0.16870,0.00000,0.03050,0.97649,-0.18898,0.0,2023,6,7,18,5,30,896
50.99870,-0.12600,0.06370,0.00000,0.03221,0.97685,-0.18983,0.0,2023,6,7,18,5,30,907
50.99880,-0.02100,0.04620,0.00000,0.03318,0.97771,-0.18751,0.0,2023,6,7,18,5,30,918
50.99890,-0.24850,0.27370,0.00000,0.03038,0.97612,-0.18910,0.0,2023,6,7,18,5,30,929
50.99900,0.01400,0.25620,0.00000,0.02989,0.97624,-0.18922,0.0,2023,6,7,18,5,30,941
50.99910,-0.09100,0.01120,0.00000,0.03196,0.97600,-0.19056,0.0,2023,6,7,18,5,30,952
50.99920,-0.33600,0.18620,0.00000,0.03111,0.97454,-0.18910,0.0,2023,6,7,18,5,30,963
50.99930,0.01400,-0.05880,0.00000,0.02989,0.97673,-0.18788,0.0,2023,6,7,18,5,30,974
50.99940,0.03150,-0.14630,0.00000,0.03209,0.97466,-0.18788,0.0,2023,6,7,18,5,30,986
50.99950,-0.05600,0.25620,0.00000,0.03013,0.97771,-0.18825,0.0,2023,6,7,18,5,30,997
50.99960,0.01400,-0.04130,0.00000,0.03062,0.97673,-0.18800,0.0,2023,6,7,18,5,30,8
50.99970,-0.03850,-0.07630,0.00000,0.03233,0.97746,-0.18666,0.0,2023,6,7,18,5,31,9
50.99980,-0.17850,0.02870,0.00000,0.03221,0.97868,-0.19056,0.0,2023,6,7,18,5,31,21
50.99990,-0.03850,0.04620,0.00000,0.03111,0.97673,-0.18678,0.0,2023,6,7,18,5,31,32
51.00000,0.01400,0.13370,0.00000,0.03233,0.97624,-0.18776,0.0,2023,6,7,18,5,31,43
51.00010,-0.10850,0.27370,0.00000,0.03282,0.97612,-0.18715,0.0,2023,6,7,18,5,31,54
51.00020,-0.12600,0.01120,0.00000,0.02806,0.97685,-0.18715,0.0,2023,6,7,18,5,31,66
51.00030,-0.03850,-0.00630,0.00000,0.03074,0.97429,-0.18703,0.0,2023,6,7,18,5,31,77
51.00040,-0.07350,-0.16380,0.00000,0.03050,0.97698,-0.19008,0.0,2023,6,7,18,5,31,88
51.00050,-0.17850,-0.04130,0.00000,0.03099,0.97429,-0.18995,0.0,2023,6,7,18,5,31,99
51.00060,-0.02100,0.01120,0.00000,0.03367,0.97783,-0.18910,0.0,2023,6,7,18,5,31,110
51.00070,-0.00350,0.08120,0.00000,0.03001,0.97722,-0.19020,0.0,2023,6,7,18,5,31,122
51.00080,-0.00350,0.20370,0.00000,0.03062,0.97624,-0.18922,0.0,2023,6,7,18,5,31,133
51.00090,0.01400,0.02870,0.00000,0.03196,0.97832,-0.18959,0.0,2023,6,7,18,5,31,144
51.00100,-0.07350,0.04620,0.00000,0.03355,0.97576,-0.18910,0.0,2023,6,7,18,5,31,155
51.00110,-0.09100,0.02870,0.00000,0.03160,0.97661,-0.18947,0.0,2023,6,7,18,5,31,167
51.00120,0.06650,0.11620,0.00000,0.02940,0.97576,-0.18861,0.0,2023,6,7,18,5,31,178
51.00130,0.04900,-0.14630,0.00000,0.03074,0.97429,-0.18861,0.0,2023,6,7,18,5,31,189
51.00140,-0.02100,-0.04130,0.00000,0.03257,0.97624,-0.18922,0.0,2023,6,7,18,5,31,200
51.00150,0.13650,0.08120,0.00000,0.03062,0.97844,-0.19093,0.0,2023,6,7,18,5,31,212
51.00160,0.13650,-0.18130,0.00000,0.03196,0.97563,-0.18910,0.0,2023,6,7,18,5,31,223
51.00170,-0.03850,0.34370,0.00000,0.03221,0.97807,-0.18849,0.0,2023,6,7,18,5,31,234
51.00180,0.04900,-0.05880,0.00000,0.02928,0.97588,-0.19264,0.0,2023,6,7,18,5,31,245
51.00190,-0.21350,0.15120,0.00000,0.03404,0.97649,-0.18837,0.0,2023,6,7,18,5,31,257
51.00200,-0.14350,0.18620,0.00000,0.03111,0.97722,-0.18812,0.0,2023,6,7,18,5,31,268
51.00210,-0.02100,-0.02380,0.00000,0.03087,0.97685,-0.19227,0.0,2023,6,7,18,5,31,279
51.00220,-0.00350,-0.09380,0.00000,0.03123,0.97429,-0.19239,0.0,2023,6,7,18,5,31,290
51.00230,-0.00350,-0.11130,0.00000,0.03184,0.97563,-0.18947,0.0,2023,6,7,18,5,31,301
51.00240,-0.05600,-0.11130,0.00000,0.03001,0.97759,-0.18886,0.0,2023,6,7,18,5,31,313
51.00250,-0.10850,0.01120,0.00000,0.03099,0.97576,-0.18788,0.0,2023,6,7,18,5,31,324
51.00260,0.10150,0.04620,0.00000,0.03099,0.97820,-0.18861,0.0,2023,6,7,18,5,31,335
51.00270,-0.09100,-0.04130,0.00000,0.03087,0.97515,-0.18922,0.0,2023,6,7,18,5,31,346
51.00280,-0.02100,0.18620,0.00000,0.03001,0.97685,-0.19056,0.0,2023,6,7,18,5,31,358
51.00290,0.01400,0.16870,0.00000,0.03123,0.97429,-0.19093,0.0,2023,6,7,18,5,31,369
51.00300,-0.00350,-0.25130,0.00000,0.03331,0.97734,-0.18764,0.0,2023,6,7,18,5,31,380
51.00310,0.11900,0.22120,0.00000,0.03184,0.97624,-0.19093,0.0,2023,6,7,18,5,31,391
51.00320,0.17150,0.01120,0.00000,0.03196,0.97515,-0.18947,0.0,2023,6,7,18,5,31,403
51.00330,-0.07350,-0.07630,0.00000,0.03074,0.97783,-0.18959,0.0,2023,6,7,18,5,31,414
51.00340,0.11900,-0.12880,0.00000,0.03306,0.97661,-0.19032,0.0,2023,6,7,18,5,31,425
51.00350,-0.12600,0.08120,0.00000,0.03087,0.97673,-0.18947,0.0,2023,6,7,18,5,31,436
51.00360,0.22400,-0.19880,0.00000,0.03318,0.97490,-0.18983,0.0,2023,6,7,18,5,31,448
51.00370,-0.07350,0.09870,0.00000,0.02879,0.97710,-0.18764,0.0,2023,6,7,18,5,31,459
51.00380,-0.00350,0.09870,0.00000,0.02855,0.97478,-0.19069,0.0,2023,6,7,18,5,31,470
51.00390,-0.09100,-0.19880,0.00000,0.03111,0.97698,-0.19020,0.0,2023,6,7,18,5,31,481
51.00400,0.04900,0.20370,0.00000,0.03050,0.97673,-0.18873,0.0,2023,6,7,18,5,31,492
51.00410,0.06650,0.11620,0.00000,0.03123,0.97783,-0.18751,0.0,2023,6,7,18,5,31,504
51.00420,-0.00350,0.02870,0.00000,0.03270,0.97588,-0.18812,0.0,2023,6,7,18,5,31,515
51.00430,-0.02100,0.04620,0.00000,0.03306,0.97612,-0.19252,0.0,2023,6,7,18,5,31,526
51.00440,-0.16100,0.22120,0.00000,0.03160,0.97515,-0.18971,0.0,2023,6,7,18,5,31,537
51.00450,-0.03850,-0.14630,0.00000,0.03099,0.97685,-0.18727,0.0,2023,6,7,18,5,31,549
51.00460,-0.14350,0.08120,0.00000,0.03160,0.97856,-0.18898,0.0,2023,6,7,18,5,31,560
51.00470,-0.00350,-0.18130,0.00000,0.03087,0.97624,-0.18800,0.0,2023,6,7,18,5,31,571
51.00480,0.10150,0.11620,0.00000,0.03111,0.97661,-0.18898,0.0,2023,6,7,18,5,31,582
51.00490,-0.21350,0.22120,0.00000,0.03184,0.97539,-0.19044,0.0,2023,6,7,18,5,31,594
51.00500,-0.03850,0.06370,0.00000,0.03306,0.97478,-0.18922,0.0,2023,6,7,18,5,31,605
51.00510,0.04900,0.08120,0.00000,0.03209,0.97673,-0.18837,0.0,2023,6,7,18,5,31,616
51.00520,0.04900,-0.05880,0.00000,0.03050,0.97868,-0.18861,0.0,2023,6,7,18,5,31,627
51.00530,0.18900,-0.05880,0.00000,0.02904,0.97685,-0.18764,0.0,2023,6,7,18,5,31,639
51.00540,-0.16100,0.01120,0.00000,0.03282,0.97820,-0.18898,0.0,2023,6,7,18,5,31,650
51.00550,-0.14350,0.04620,0.00000,0.02806,0.97466,-0.18947,0.0,2023,6,7,18,5,31,661
51.00560,0.15400,-0.09380,0.00000,0.03111,0.97539,-0.19130,0.0,2023,6,7,18,5,31,672
51.00570,-0.09100,0.02870,0.00000,0.03111,0.97649,-0.18873,0.0,2023,6,7,18,5,31,683
51.00580,-0.03850,-0.04130,0.00000,0.03184,0.97673,-0.19142,0.0,2023,6,7,18,5,31,695
51.00590,-0.19600,0.11620,0.00000,0.03343,0.97868,-0.18983,0.0,2023,6,7,18,5,31,706
51.00600,-0.00350,-0.02380,0.00000,0.03172,0.97307,-0.18642,0.0,2023,6,7,18,5,31,717
51.00610,0.60900,0.01120,0.00000,0.04063,0.97441,-0.20289,0.0,2023,6,7,18,5,31,728
51.00620,-0.54600,-0.09380,0.00000,0.03904,0.99137,-0.17495,0.0,2023,6,7,18,5,31,740
51.00630,-1.03600,0.09870,0.00000,0.02928,0.97246,-0.18764,0.0,2023,6,7,18,5,31,751
51.00640,1.50150,-0.23380,0.00000,0.03209,0.99381,-0.18703,0.0,2023,6,7,18,5,31,762
51.00650,-1.57850,0.06370,0.00000,0.03770,0.97868,-0.17202,0.0,2023,6,7,18,5,31,773
51.00660,-1.40350,0.22120,0.00000,0.03196,0.95916,-0.19105,0.0,2023,6,7,18,5,31,785
51.00670,1.11650,-0.16380,0.00000,0.03697,0.98698,-0.18263,0.0,2023,6,7,18,5,31,796
51.00680,-2.22600,0.11620,0.00000,0.03733,0.97063,-0.16909,0.0,2023,6,7,18,5,31,807
51.00690,0.06650,-0.14630,0.00000,0.02599,0.97637,-0.20545,0.0,2023,6,7,18,5,31,818
51.00700,0.66150,-0.18130,0.00000,0.03318,0.97832,-0.18385,0.0,2023,6,7,18,5,31,830
51.00710,-1.57850,0.18620,0.00000,0.03062,0.97478,-0.18154,0.0,2023,6,7,18,5,31,841
51.00720,0.20650,0.04620,0.00000,0.02733,0.97539,-0.20069,0.0,2023,6,7,18,5,31,852
51.00730,0.64400,0.06370,0.00000,0.03306,0.98039,-0.19215,0.0,2023,6,7,18,5,31,863
51.00740,-0.68600,-0.21630,0.00000,0.03184,0.97429,-0.18837,0.0,2023,6,7,18,5,31,875
51.00750,0.45150,-0.11130,0.00000,0.02891,0.97807,-0.19959,0.0,2023,6,7,18,5,31,886
51.00760,-0.35350,-0.00630,0.00000,0.03416,0.97222,-0.18617,0.0,2023,6,7,18,5,31,897
51.00770,-0.45850,-0.14630,0.00000,0.03282,0.97905,-0.18947,0.0,2023,6,7,18,5,31,908
51.00780,0.20650,-0.05880,0.00000,0.03050,0.97820,-0.19081,0.0,2023,6,7,18,5,31,919
51.00790,-0.21350,0.23870,0.00000,0.03233,0.97820,-0.18873,0.0,2023,6,7,18,5,31,931
51.00800,-0.16100,0.08120,0.00000,0.03062,0.97405,-0.19020,0.0,2023,6,7,18,5,31,942
51.00810,-0.03850,0.13370,0.00000,0.03074,0.98003,-0.18654,0.0,2023,6,7,18,5,31,953
51.00820,0.41650,-0.09380,0.00000,0.02867,0.96978,-0.19056,0.0,2023,6,7,18,5,31,964
51.00830,0.17150,0.04620,0.00000,0.03026,0.97649,-0.19215,0.0,2023,6,7,18,5,31,976
51.00840,-0.51100,-0.00630,0.00000,0.03196,0.97637,-0.18751,0.0,2023,6,7,18,5,31,987
51.00850,0.15400,0.01120,0.00000,0.03099,0.97661,-0.19264,0.0,2023,6,7,18,5,31,998
51.00860,-0.10850,0.30870,0.00000,0.03233,0.97563,-0.19020,0.0,2023,6,7,18,5,31,9
51.00870,-0.14350,0.11620,0.00000,0.03306,0.97429,-0.18446,0.0,2023,6,7,18,5,32,1
51.00880,-0.00350,0.08120,0.00000,0.02977,0.97673,-0.19105,0.0,2023,6,7,18,5,32,12
51.00890,0.29400,-0.00630,0.00000,0.03074,0.97563,-0.18849,0.0,2023,6,7,18,5,32,23
51.00900,-0.45850,-0.02380,0.00000,0.02977,0.97173,-0.18715,0.0,2023,6,7,18,5,32,34
51.00910,0.08400,0.06370,0.00000,0.02891,0.97881,-0.18800,0.0,2023,6,7,18,5,32,46
51.00920,-0.03850,-0.02380,0.00000,0.03184,0.97624,-0.18556,0.0,2023,6,7,18,5,32,57
51.00930,-0.30100,0.23870,0.00000,0.03013,0.97502,-0.18666,0.0,2023,6,7,18,5,32,68
51.00940,0.03150,-0.00630,0.00000,0.02940,0.97698,-0.19239,0.0,2023,6,7,18,5,32,79
51.00950,0.04900,0.02870,0.00000,0.03270,0.97563,-0.18532,0.0,2023,6,7,18,5,32,90
51.00960,-0.33600,0.04620,0.00000,0.03489,0.97844,-0.18788,0.0,2023,6,7,18,5,32,102
51.00970,0.22400,-0.12880,0.00000,0.03233,0.97734,-0.18959,0.0,2023,6,7,18,5,32,113
51.00980,-0.21350,0.16870,0.00000,0.03087,0.97710,-0.19032,0.0,2023,6,7,18,5,32,124
51.00990,-0.10850,0.02870,0.00000,0.03013,0.97612,-0.18837,0.0,2023,6,7,18,5,32,135
51.01000,-0.07350,0.13370,0.00000,0.03111,0.97600,-0.19130,0.0,2023,6,7,18,5,32,147
51.01010,-0.26600,-0.02380,0.00000,0.02891,0.97832,-0.18556,0.0,2023,6,7,18,5,32,158
51.01020,0.01400,0.09870,0.00000,0.03160,0.97380,-0.19142,0.0,2023,6,7,18,5,32,169
51.01030,-0.07350,-0.04130,0.00000,0.03209,0.97551,-0.18715,0.0,2023,6,7,18,5,32,180
51.01040,-0.24850,0.01120,0.00000,0.03184,0.97820,-0.18825,0.0,2023,6,7,18,5,32,192
51.01050,-0.05600,-0.11130,0.00000,0.03257,0.97563,-0.18983,0.0,2023,6,7,18,5,32,203
51.01060,-0.07350,0.13370,0.00000,0.03148,0.97942,-0.19154,0.0,2023,6,7,18,5,32,214
51.01070,0.39900,0.08120,0.00000,0.03148,0.97917,-0.18849,0.0,2023,6,7,18,5,32,225
51.01080,0.03150,0.06370,0.00000,0.03111,0.97661,-0.18288,0.0,2023,6,7,18,5,32,237
51.01090,-0.63350,0.01120,0.00000,0.02611,0.97527,-0.19276,0.0,2023,6,7,18,5,32,248
51.01100,0.48650,0.02870,0.00000,0.02928,0.97649,-0.19239,0.0,2023,6,7,18,5,32,259
51.01110,0.18900,0.04620,0.00000,0.03172,0.97637,-0.18617,0.0,2023,6,7,18,5,32,270
51.01120,-0.54600,-0.09380,0.00000,0.03099,0.97429,-0.18715,0.0,2023,6,7,18,5,32,281
51.01130,0.04900,-0.11130,0.00000,0.03001,0.97588,-0.19581,0.0,2023,6,7,18,5,32,293
51.01140,0.64400,-0.16380,0.00000,0.03245,0.97576,-0.19178,0.0,2023,6,7,18,5,32,304
51.01150,-0.59850,-0.11130,0.00000,0.03209,0.97673,-0.18532,0.0,2023,6,7,18,5,32,315
51.01160,-0.24850,-0.00630,0.00000,0.02843,0.97380,-0.18959,0.0,2023,6,7,18,5,32,326
51.01170,0.41650,-0.21630,0.00000,0.03013,0.97612,-0.19239,0.0,2023,6,7,18,5,32,338
51.01180,0.15400,-0.00630,0.00000,0.03209,0.97685,-0.18812,0.0,2023,6,7,18,5,32,349
51.01190,-0.70350,0.13370,0.00000,0.03209,0.97746,-0.18934,0.0,2023,6,7,18,5,32,360
51.01200,0.11900,0.08120,0.00000,0.02928,0.97783,-0.19227,0.0,2023,6,7,18,5,32,371
51.01210,0.20650,-0.11130,0.00000,0.03221,0.97429,-0.18825,0.0,2023,6,7,18,5,32,383
51.01220,-0.35350,0.01120,0.00000,0.03331,0.97624,-0.18593,0.0,2023,6,7,18,5,32,394
51.01230,0.04900,-0.12880,0.00000,0.03123,0.97832,-0.19020,0.0,2023,6,7,18,5,32,405
51.01240,0.13650,-0.14630,0.00000,0.03111,0.97759,-0.18959,0.0,2023,6,7,18,5,32,416
51.01250,-0.00350,-0.05880,0.00000,0.03209,0.97685,-0.19044,0.0,2023,6,7,18,5,32,428
51.01260,-0.38850,0.08120,0.00000,0.03379,0.97429,-0.18642,0.0,2023,6,7,18,5,32,439
51.01270,0.01400,-0.00630,0.00000,0.03331,0.97661,-0.19203,0.0,2023,6,7,18,5,32,450
51.01280,-0.17850,0.08120,0.00000,0.03099,0.97612,-0.18971,0.0,2023,6,7,18,5,32,461
51.01290,0.06650,-0.18130,0.00000,0.03074,0.97551,-0.18886,0.0,2023,6,7,18,5,32,472
51.01300,-0.14350,-0.00630,0.00000,0.03221,0.97637,-0.18629,0.0,2023,6,7,18,5,32,484
51.01310,0.01400,0.09870,0.00000,0.03087,0.97783,-0.19252,0.0,2023,6,7,18,5,32,495
51.01320,0.01400,0.04620,0.00000,0.02891,0.97612,-0.18837,0.0,2023,6,7,18,5,32,506
51.01330,-0.03850,-0.11130,0.00000,0.03148,0.97698,-0.18873,0.0,2023,6,7,18,5,32,517
51.01340,0.15400,-0.00630,0.00000,0.03038,0.97502,-0.18654,0.0,2023,6,7,18,5,32,529
51.01350,0.04900,0.11620,0.00000,0.03196,0.97588,-0.18959,0.0,2023,6,7,18,5,32,540
51.01360,-0.07350,0.08120,0.00000,0.03111,0.97502,-0.18947,0.0,2023,6,7,18,5,32,551
51.01370,-0.03850,-0.09380,0.00000,0.03270,0.97856,-0.18715,0.0,2023,6,7,18,5,32,562
51.01380,-0.05600,0.08120,0.00000,0.03074,0.97637,-0.18886,0.0,2023,6,7,18,5,32,574
51.01390,-0.03850,-0.05880,0.00000,0.03160,0.97551,-0.19252,0.0,2023,6,7,18,5,32,585
51.01400,0.06650,0.02870,0.00000,0.03038,0.97759,-0.18886,0.0,2023,6,7,18,5,32,596
51.01410,0.08400,-0.07630,0.00000,0.03074,0.97527,-0.18922,0.0,2023,6,7,18,5,32,607
51.01420,0.06650,0.13370,0.00000,0.03343,0.97783,-0.19008,0.0,2023,6,7,18,5,32,619
51.01430,0.18900,0.08120,0.00000,0.03074,0.97332,-0.19044,0.0,2023,6,7,18,5,32,630
51.01440,-0.05600,-0.02380,0.00000,0.03123,0.97746,-0.18861,0.0,2023,6,7,18,5,32,641
51.01450,0.03150,0.06370,0.00000,0.03318,0.97698,-0.19020,0.0,2023,6,7,18,5,32,652
51.01460,-0.05600,0.06370,0.00000,0.03099,0.97673,-0.18995,0.0,2023,6,7,18,5,32,663
51.01470,-0.02100,-0.07630,0.00000,0.02977,0.97612,-0.18861,0.0,2023,6,7,18,5,32,675
51.01480,0.01400,-0.07630,0.00000,0.02965,0.97661,-0.18873,0.0,2023,6,7,18,5,32,686
51.01490,0.15400,-0.11130,0.00000,0.03087,0.97807,-0.18922,0.0,2023,6,7,18,5,32,697
51.01500,-0.12600,0.09870,0.00000,0.02904,0.97771,-0.18812,0.0,2023,6,7,18,5,32,708
51.01510,-0.10850,0.06370,0.00000,0.02940,0.97588,-0.18605,0.0,2023,6,7,18,5,32,720
51.01520,0.11900,0.25620,0.00000,0.03123,0.97771,-0.18861,0.0,2023,6,7,18,5,32,731
51.01530,-0.09100,-0.04130,0.00000,0.02867,0.97783,-0.18715,0.0,2023,6,7,18,5,32,742
51.01540,-0.10850,-0.02380,0.00000,0.03196,0.97490,-0.18690,0.0,2023,6,7,18,5,32,753
51.01550,-0.10850,0.08120,0.00000,0.03294,0.97490,-0.19142,0.0,2023,6,7,18,5,32,765
51.01560,0.06650,0.22120,0.00000,0.03038,0.97429,-0.18715,0.0,2023,6,7,18,5,32,776
51.01570,-0.07350,-0.25130,0.00000,0.03172,0.97441,-0.18581,0.0,2023,6,7,18,5,32,787
51.01580,-0.16100,0.18620,0.00000,0.03074,0.97539,-0.18690,0.0,2023,6,7,18,5,32,798
51.01590,-0.14350,-0.00630,0.00000,0.03026,0.97624,-0.18788,0.0,2023,6,7,18,5,32,810
51.01600,-0.02100,0.09870,0.00000,0.03111,0.97466,-0.18934,0.0,2023,6,7,18,5,32,821
51.01610,-0.07350,-0.04130,0.00000,0.03306,0.97332,-0.18983,0.0,2023,6,7,18,5,32,832
51.01620,0.01400,0.01120,0.00000,0.03209,0.97783,-0.18507,0.0,2023,6,7,18,5,32,843
51.01630,-0.02100,0.06370,0.00000,0.03001,0.97661,-0.18886,0.0,2023,6,7,18,5,32,855
51.01640,-0.02100,-0.00630,0.00000,0.03221,0.97502,-0.18739,0.0,2023,6,7,18,5,32,866
51.01650,0.03150,0.01120,0.00000,0.02965,0.97710,-0.18739,0.0,2023,6,7,18,5,32,877
51.01660,0.04900,-0.19880,0.00000,0.03257,0.97624,-0.18825,0.0,2023,6,7,18,5,32,888
51.01670,0.06650,-0.16380,0.00000,0.03257,0.97624,-0.18629,0.0,2023,6,7,18,5,32,899
51.01680,-0.00350,0.09870,0.00000,0.03233,0.97527,-0.18654,0.0,2023,6,7,18,5,32,911
51.01690,-0.09100,-0.04130,0.00000,0.03013,0.97600,-0.18764,0.0,2023,6,7,18,5,32,922
51.01700,-0.05600,0.29120,0.00000,0.03416,0.97820,-0.18837,0.0,2023,6,7,18,5,32,933
51.01710,-0.05600,-0.07630,0.00000,0.03233,0.97454,-0.18922,0.0,2023,6,7,18,5,32,944
51.01720,-0.00350,0.13370,0.00000,0.03209,0.97820,-0.18690,0.0,2023,6,7,18,5,32,956
51.01730,-0.07350,0.04620,0.00000,0.03270,0.97393,-0.18837,0.0,2023,6,7,18,5,32,967
51.01740,-0.12600,0.13370,0.00000,0.03026,0.97551,-0.18837,0.0,2023,6,7,18,5,32,978
51.01750,0.01400,-0.14630,0.00000,0.03306,0.97759,-0.18800,0.0,2023,6,7,18,5,32,989
51.01760,0.15400,-0.12880,0.00000,0.03257,0.97771,-0.18800,0.0,2023,6,7,18,5,33,1
51.01770,0.13650,-0.11130,0.00000,0.03001,0.97722,-0.18971,0.0,2023,6,7,18,5,33,12
51.01780,-0.07350,0.04620,0.00000,0.03355,0.97490,-0.18861,0.0,2023,6,7,18,5,33,23
51.01790,-0.02100,0.04620,0.00000,0.03050,0.97649,-0.18764,0.0,2023,6,7,18,5,33,34
51.01800,-0.00350,0.04620,0.00000,0.02794,0.97710,-0.18971,0.0,2023,6,7,18,5,33,46
51.01810,-0.07350,0.02870,0.00000,0.03111,0.97612,-0.18715,0.0,2023,6,7,18,5,33,57
51.01820,-0.05600,0.22120,0.00000,0.03184,0.97454,-0.18849,0.0,2023,6,7,18,5,33,68
51.01830,0.08400,-0.09380,0.00000,0.03026,0.97734,-0.18886,0.0,2023,6,7,18,5,33,79
51.01840,-0.00350,0.06370,0.00000,0.03062,0.97649,-0.19166,0.0,2023,6,7,18,5,33,90
51.01850,0.04900,-0.16380,0.00000,0.02989,0.97685,-0.18764,0.0,2023,6,7,18,5,33,102
51.01860,0.06650,-0.19880,0.00000,0.03123,0.97539,-0.18532,0.0,2023,6,7,18,5,33,113
51.01870,-0.16100,-0.12880,0.00000,0.03148,0.97551,-0.19032,0.0,2023,6,7,18,5,33,124
51.01880,0.03150,0.08120,0.00000,0.03343,0.97502,-0.18947,0.0,2023,6,7,18,5,33,135
51.01890,-0.07350,-0.02380,0.00000,0.03392,0.97624,-0.18751,0.0,2023,6,7,18,5,33,147
51.01900,-0.19600,-0.09380,0.00000,0.03038,0.97661,-0.18959,0.0,2023,6,7,18,5,33,158
51.01910,0.08400,0.02870,0.00000,0.03184,0.97685,-0.18886,0.0,2023,6,7,18,5,33,169
51.01920,-0.14350,0.09870,0.00000,0.02916,0.97588,-0.18666,0.0,2023,6,7,18,5,33,180
51.01930,-0.05600,-0.04130,0.00000,0.03087,0.97807,-0.18556,0.0,2023,6,7,18,5,33,192
51.01940,0.08400,0.08120,0.00000,0.03148,0.97515,-0.18800,0.0,2023,6,7,18,5,33,203
51.01950,-0.05600,-0.02380,0.00000,0.03233,0.97539,-0.18800,0.0,2023,6,7,18,5,33,214
51.01960,-0.21350,0.16870,0.00000,0.03172,0.97527,-0.18703,0.0,2023,6,7,18,5,33,225
51.01970,-0.17850,-0.00630,0.00000,0.03135,0.97722,-0.18959,0.0,2023,6,7,18,5,33,237
51.01980,-0.02100,0.34370,0.00000,0.03172,0.97600,-0.18812,0.0,2023,6,7,18,5,33,248
51.01990,-0.16100,0.09870,0.00000,0.03270,0.97722,-0.18825,0.0,2023,6,7,18,5,33,259
51.02000,-0.02100,0.18620,0.00000,0.03062,0.97576,-0.18715,0.0,2023,6,7,18,5,33,270
51.02010,0.15400,0.04620,0.00000,0.03233,0.97746,-0.18959,0.0,2023,6,7,18,5,33,281
51.02020,-0.16100,0.01120,0.00000,0.03196,0.97576,-0.18898,0.0,2023,6,7,18,5,33,293
51.02030,0.03150,0.01120,0.00000,0.03196,0.97637,-0.18678,0.0,2023,6,7,18,5,33,304
51.02040,-0.14350,0.08120,0.00000,0.03294,0.97673,-0.18800,0.0,2023,6,7,18,5,33,315
51.02050,0.11900,-0.04130,0.00000,0.03135,0.97600,-0.18983,0.0,2023,6,7,18,5,33,326
51.02060,0.10150,-0.07630,0.00000,0.02916,0.97551,-0.18776,0.0,2023,6,7,18,5,33,338
51.02070,-0.23100,0.13370,0.00000,0.03148,0.97624,-0.18800,0.0,2023,6,7,18,5,33,349
51.02080,0.15400,0.11620,0.00000,0.03428,0.97820,-0.18715,0.0,2023,6,7,18,5,33,360
51.02090,-0.03850,0.11620,0.00000,0.03270,0.97527,-0.18459,0.0,2023,6,7,18,5,33,371
51.02100,0.01400,-0.05880,0.00000,0.03013,0.97771,-0.19044,0.0,2023,6,7,18,5,33,383
51.02110,-0.10850,-0.04130,0.00000,0.03001,0.98015,-0.18751,0.0,2023,6,7,18,5,33,394
51.02120,0.06650,-0.02380,0.00000,0.03135,0.97563,-0.18764,0.0,2023,6,7,18,5,33,405
51.02130,-0.21350,0.15120,0.00000,0.03184,0.97929,-0.18739,0.0,2023,6,7,18,5,33,416
51.02140,0.04900,-0.12880,0.00000,0.03160,0.97673,-0.18922,0.0,2023,6,7,18,5,33,428
51.02150,-0.07350,-0.07630,0.00000,0.02867,0.97771,-0.18812,0.0,2023,6,7,18,5,33,439
51.02160,-0.07350,0.06370,0.00000,0.03233,0.97539,-0.18934,0.0,2023,6,7,18,5,33,450
51.02170,-0.07350,0.01120,0.00000,0.02928,0.97807,-0.18654,0.0,2023,6,7,18,5,33,461
51.02180,-0.09100,0.01120,0.00000,0.03111,0.97515,-0.18800,0.0,2023,6,7,18,5,33,472
51.02190,-0.14350,0.09870,0.00000,0.03270,0.97344,-0.18666,0.0,2023,6,7,18,5,33,484
51.02200,0.24150,-0.05880,0.00000,0.03123,0.97795,-0.18776,0.0,2023,6,7,18,5,33,495
51.02210,-0.07350,-0.00630,0.00000,0.03087,0.97527,-0.18861,0.0,2023,6,7,18,5,33,506
51.02220,-0.00350,0.09870,0.00000,0.03245,0.97588,-0.18739,0.0,2023,6,7,18,5,33,517
51.02230,0.18900,0.02870,0.00000,0.03245,0.97710,-0.18495,0.0,2023,6,7,18,5,33,529
51.02240,-0.07350,-0.00630,0.00000,0.02965,0.97771,-0.18739,0.0,2023,6,7,18,5,33,540
51.02250,-0.09100,-0.00630,0.00000,0.03172,0.97490,-0.18922,0.0,2023,6,7,18,5,33,551
51.02260,-0.02100,-0.00630,0.00000,0.02916,0.97771,-0.18739,0.0,2023,6,7,18,5,33,562
51.02270,0.06650,-0.28630,0.00000,0.03196,0.97563,-0.18910,0.0,2023,6,7,18,5,33,574
51.02280,-0.09100,0.02870,0.00000,0.03172,0.97685,-0.18703,0.0,2023,6,7,18,5,33,585
51.02290,-0.02100,-0.04130,0.00000,0.03038,0.97612,-0.18861,0.0,2023,6,7,18,5,33,596
51.02300,0.04900,-0.02380,0.00000,0.03038,0.97637,-0.19178,0.0,2023,6,7,18,5,33,607
51.02310,0.01400,-0.00630,0.00000,0.03074,0.97649,-0.19227,0.0,2023,6,7,18,5,33,619
51.02320,-0.05600,0.08120,0.00000,0.02989,0.97771,-0.18812,0.0,2023,6,7,18,5,33,630
51.02330,0.11900,-0.16380,0.00000,0.03038,0.97868,-0.18898,0.0,2023,6,7,18,5,33,641
51.02340,0.03150,-0.02380,0.00000,0.03221,0.97759,-0.19154,0.0,2023,6,7,18,5,33,652
51.02350,0.17150,-0.14630,0.00000,0.03160,0.97820,-0.18617,0.0,2023,6,7,18,5,33,663
51.02360,-0.19600,0.11620,0.00000,0.02891,0.97698,-0.19044,0.0,2023,6,7,18,5,33,675
51.02370,0.18900,-0.00630,0.00000,0.03318,0.97844,-0.19032,0.0,2023,6,7,18,5,33,686
51.02380,0.10150,-0.16380,0.00000,0.03123,0.97624,-0.18788,0.0,2023,6,7,18,5,33,697
51.02390,-0.03850,0.06370,0.00000,0.03233,0.97502,-0.18751,0.0,2023,6,7,18,5,33,708
51.02400,0.20650,-0.07630,0.00000,0.03087,0.97441,-0.19130,0.0,2023,6,7,18,5,33,720
51.02410,-0.17850,-0.07630,0.00000,0.03306,0.97563,-0.19020,0.0,2023,6,7,18,5,33,731
51.02420,-0.00350,0.02870,0.00000,0.03294,0.97649,-0.18727,0.0,2023,6,7,18,5,33,742
51.02430,0.10150,0.01120,0.00000,0.02977,0.97698,-0.18849,0.0,2023,6,7,18,5,33,753
51.02440,-0.14350,0.15120,0.00000,0.03087,0.97722,-0.18983,0.0,2023,6,7,18,5,33,765
51.02450,0.08400,0.09870,0.00000,0.03355,0.97685,-0.19117,0.0,2023,6,7,18,5,33,776
51.02460,-0.00350,-0.39130,0.00000,0.03245,0.97600,-0.18971,0.0,2023,6,7,18,5,33,787
51.02470,0.15400,-0.09380,0.00000,0.03221,0.97746,-0.19008,0.0,2023,6,7,18,5,33,798
51.02480,-0.03850,-0.14630,0.00000,0.03172,0.97576,-0.18971,0.0,2023,6,7,18,5,33,810
51.02490,0.03150,-0.02380,0.00000,0.03111,0.97515,-0.18715,0.0,2023,6,7,18,5,33,821
51.02500,-0.07350,0.22120,0.00000,0.03013,0.97820,-0.19105,0.0,2023,6,7,18,5,33,832
51.02510,0.04900,0.32620,0.00000,0.02989,0.97929,-0.18800,0.0,2023,6,7,18,5,33,843
51.02520,-0.05600,0.18620,0.00000,0.03001,0.97905,-0.18666,0.0,2023,6,7,18,5,33,855
51.02530,-0.10850,-0.00630,0.00000,0.03184,0.97673,-0.18971,0.0,2023,6,7,18,5,33,866
51.02540,0.17150,-0.05880,0.00000,0.03038,0.97649,-0.18873,0.0,2023,6,7,18,5,33,877
51.02550,-0.07350,0.20370,0.00000,0.02977,0.97576,-0.18947,0.0,2023,6,7,18,5,33,888
51.02560,-0.03850,-0.26880,0.00000,0.03099,0.97563,-0.18886,0.0,2023,6,7,18,5,33,899
51.02570,0.17150,-0.02380,0.00000,0.03306,0.97795,-0.19032,0.0,2023,6,7,18,5,33,911
51.02580,0.03150,0.09870,0.00000,0.02977,0.97685,-0.19032,0.0,2023,6,7,18,5,33,922
51.02590,-0.07350,0.08120,0.00000,0.03270,0.97515,-0.19191,0.0,2023,6,7,18,5,33,933
51.02600,0.01400,-0.12880,0.00000,0.02708,0.97673,-0.19069,0.0,2023,6,7,18,5,33,944
51.02610,0.13650,-0.09380,0.00000,0.03013,0.97502,-0.19154,0.0,2023,6,7,18,5,33,956
51.02620,0.01400,0.01120,0.00000,0.03148,0.97771,-0.19142,0.0,2023,6,7,18,5,33,967
51.02630,-0.00350,-0.00630,0.00000,0.03123,0.97649,-0.18995,0.0,2023,6,7,18,5,33,978
51.02640,-0.03850,0.16870,0.00000,0.02891,0.97600,-0.19178,0.0,2023,6,7,18,5,33,989
51.02650,-0.10850,-0.07630,0.00000,0.03148,0.97624,-0.19008,0.0,2023,6,7,18,5,33,1
51.02660,0.06650,0.11620,0.00000,0.03111,0.97698,-0.18922,0.0,2023,6,7,18,5,34,2
51.02670,0.15400,-0.04130,0.00000,0.03001,0.97295,-0.19081,0.0,2023,6,7,18,5,34,13
51.02680,0.01400,0.02870,0.00000,0.03233,0.97807,-0.19276,0.0,2023,6,7,18,5,34,24
51.02690,-0.05600,-0.02380,0.00000,0.03062,0.97722,-0.18886,0.0,2023,6,7,18,5,34,36
51.02700,-0.07350,0.06370,0.00000,0.02965,0.97588,-0.18812,0.0,2023,6,7,18,5,34,47
51.02710,0.08400,0.11620,0.00000,0.03392,0.97771,-0.18959,0.0,2023,6,7,18,5,34,58
51.02720,0.01400,0.01120,0.00000,0.03282,0.97746,-0.19044,0.0,2023,6,7,18,5,34,69
51.02730,-0.03850,0.08120,0.00000,0.03038,0.97637,-0.19105,0.0,2023,6,7,18,5,34,80
51.02740,-0.14350,0.09870,0.00000,0.03123,0.97576,-0.19337,0.0,2023,6,7,18,5,34,92
51.02750,0.01400,0.01120,0.00000,0.02928,0.97722,-0.18959,0.0,2023,6,7,18,5,34,103
51.02760,-0.02100,-0.02380,0.00000,0.02952,0.97441,-0.18934,0.0,2023,6,7,18,5,34,114
51.02770,0.01400,0.01120,0.00000,0.03270,0.97710,-0.18812,0.0,2023,6,7,18,5,34,125
51.02780,-0.09100,-0.04130,0.00000,0.03038,0.97637,-0.19166,0.0,2023,6,7,18,5,34,137
51.02790,0.15400,-0.16380,0.00000,0.03038,0.97783,-0.19056,0.0,2023,6,7,18,5,34,148
51.02800,-0.12600,0.32620,0.00000,0.03270,0.97600,-0.18837,0.0,2023,6,7,18,5,34,159
51.02810,0.01400,0.01120,0.00000,0.03050,0.97771,-0.18886,0.0,2023,6,7,18,5,34,170
51.02820,0.15400,-0.26880,0.00000,0.03160,0.97771,-0.19142,0.0,2023,6,7,18,5,34,182
51.02830,-0.09100,0.01120,0.00000,0.03038,0.97783,-0.18764,0.0,2023,6,7,18,5,34,193
51.02840,-0.14350,0.08120,0.00000,0.03026,0.97649,-0.18788,0.0,2023,6,7,18,5,34,204
51.02850,0.04900,0.11620,0.00000,0.02916,0.97612,-0.19081,0.0,2023,6,7,18,5,34,215
51.02860,-0.14350,-0.05880,0.00000,0.03062,0.97246,-0.18873,0.0,2023,6,7,18,5,34,227
51.02870,0.11900,-0.00630,0.00000,0.03087,0.97685,-0.19020,0.0,2023,6,7,18,5,34,238
51.02880,-0.14350,0.02870,0.00000,0.03355,0.97417,-0.19020,0.0,2023,6,7,18,5,34,249
51.02890,0.08400,-0.12880,0.00000,0.03270,0.97588,-0.18910,0.0,2023,6,7,18,5,34,260
51.02900,-0.12600,0.22120,0.00000,0.03099,0.97588,-0.18861,0.0,2023,6,7,18,5,34,271
51.02910,0.17150,-0.12880,0.00000,0.03196,0.97673,-0.19044,0.0,2023,6,7,18,5,34,283
51.02920,0.17150,-0.05880,0.00000,0.03172,0.97710,-0.18947,0.0,2023,6,7,18,5,34,294
51.02930,-0.17850,-0.09380,0.00000,0.02965,0.97466,-0.19252,0.0,2023,6,7,18,5,34,305
51.02940,-0.00350,0.15120,0.00000,0.03355,0.97539,-0.18947,0.0,2023,6,7,18,5,34,316
51.02950,0.06650,0.11620,0.00000,0.03135,0.97649,-0.18703,0.0,2023,6,7,18,5,34,328
51.02960,0.04900,-0.14630,0.00000,0.03172,0.97563,-0.18910,0.0,2023,6,7,18,5,34,339
51.02970,-0.12600,-0.07630,0.00000,0.03282,0.97600,-0.18947,0.0,2023,6,7,18,5,34,350
51.02980,-0.19600,0.18620,0.00000,0.03026,0.97734,-0.18947,0.0,2023,6,7,18,5,34,361
51.02990,-0.07350,-0.23380,0.00000,0.03221,0.97563,-0.18764,0.0,2023,6,7,18,5,34,373
51.03000,-0.03850,0.09870,0.00000,0.03209,0.97551,-0.18947,0.0,2023,6,7,18,5,34,384
51.03010,0.08400,-0.09380,0.00000,0.03160,0.97685,-0.18971,0.0,2023,6,7,18,5,34,395
51.03020,0.03150,-0.25130,0.00000,0.03221,0.97637,-0.18788,0.0,2023,6,7,18,5,34,406
51.03030,-0.05600,0.16870,0.00000,0.03245,0.97515,-0.18825,0.0,2023,6,7,18,5,34,418
51.03040,0.17150,0.06370,0.00000,0.03379,0.97698,-0.18849,0.0,2023,6,7,18,5,34,429
51.03050,-0.09100,0.16870,0.00000,0.03209,0.97893,-0.19008,0.0,2023,6,7,18,5,34,440
51.03060,-0.05600,0.11620,0.00000,0.03172,0.97710,-0.18642,0.0,2023,6,7,18,5,34,451
51.03070,0.01400,-0.09380,0.00000,0.03087,0.97771,-0.18837,0.0,2023,6,7,18,5,34,462
51.03080,-0.02100,0.08120,0.00000,0.03087,0.97612,-0.18812,0.0,2023,6,7,18,5,34,474
51.03090,0.03150,-0.12880,0.00000,0.02952,0.97600,-0.18873,0.0,2023,6,7,18,5,34,485
51.03100,-0.12600,0.09870,0.00000,0.03062,0.97698,-0.19020,0.0,2023,6,7,18,5,34,496
51.03110,0.18900,-0.00630,0.00000,0.02952,0.97417,-0.19032,0.0,2023,6,7,18,5,34,507
51.03120,0.10150,-0.05880,0.00000,0.02965,0.97576,-0.18934,0.0,2023,6,7,18,5,34,519
51.03130,-0.14350,0.15120,0.00000,0.03123,0.97771,-0.18934,0.0,2023,6,7,18,5,34,530
51.03140,-0.10850,-0.12880,0.00000,0.03050,0.97576,-0.18886,0.0,2023,6,7,18,5,34,541
51.03150,-0.14350,-0.14630,0.00000,0.03257,0.97649,-0.18983,0.0,2023,6,7,18,5,34,552
51.03160,-0.00350,-0.00630,0.00000,0.02977,0.97685,-0.18910,0.0,2023,6,7,18,5,34,564
51.03170,0.08400,-0.11130,0.00000,0.03148,0.97722,-0.19191,0.0,2023,6,7,18,5,34,575
51.03180,0.03150,0.11620,0.00000,0.03026,0.97624,-0.19093,0.0,2023,6,7,18,5,34,586
51.03190,-0.05600,0.16870,0.00000,0.03209,0.97539,-0.19020,0.0,2023,6,7,18,5,34,597
51.03200,0.06650,0.11620,0.00000,0.03099,0.97588,-0.18837,0.0,2023,6,7,18,5,34,609
51.03210,0.04900,-0.02380,0.00000,0.03111,0.97673,-0.18971,0.0,2023,6,7,18,5,34,620
51.03220,-0.10850,0.01120,0.00000,0.03135,0.97698,-0.18947,0.0,2023,6,7,18,5,34,631
51.03230,0.03150,0.08120,0.00000,0.03282,0.97698,-0.19008,0.0,2023,6,7,18,5,34,642
51.03240,-0.00350,-0.16380,0.00000,0.03282,0.97673,-0.19215,0.0,2023,6,7,18,5,34,653
51.03250,0.04900,-0.14630,0.00000,0.03062,0.97832,-0.18739,0.0,2023,6,7,18,5,34,665
51.03260,-0.03850,0.01120,0.00000,0.02928,0.97746,-0.18861,0.0,2023,6,7,18,5,34,676
51.03270,-0.07350,0.13370,0.00000,0.03074,0.97856,-0.18886,0.0,2023,6,7,18,5,34,687
51.03280,-0.10850,-0.04130,0.00000,0.03074,0.97734,-0.18812,0.0,2023,6,7,18,5,34,698
51.03290,-0.05600,-0.00630,0.00000,0.03074,0.97795,-0.18703,0.0,2023,6,7,18,5,34,710
51.03300,0.06650,-0.04130,0.00000,0.03416,0.97905,-0.18715,0.0,2023,6,7,18,5,34,721
51.03310,0.11900,-0.04130,0.00000,0.03209,0.97502,-0.19142,0.0,2023,6,7,18,5,34,732
51.03320,-0.05600,-0.04130,0.00000,0.03221,0.97771,-0.19032,0.0,2023,6,7,18,5,34,743
51.03330,0.06650,0.08120,0.00000,0.03038,0.97576,-0.18788,0.0,2023,6,7,18,5,34,755
51.03340,0.06650,0.09870,0.00000,0.03099,0.97576,-0.19166,0.0,2023,6,7,18,5,34,766
51.03350,0.10150,-0.07630,0.00000,0.03245,0.97612,-0.19032,0.0,2023,6,7,18,5,34,777
51.03360,0.04900,0.11620,0.00000,0.03148,0.97576,-0.18849,0.0,2023,6,7,18,5,34,788
51.03370,-0.07350,0.23870,0.00000,0.03172,0.97698,-0.18934,0.0,2023,6,7,18,5,34,800
51.03380,0.06650,-0.23380,0.00000,0.03123,0.97612,-0.18983,0.0,2023,6,7,18,5,34,811
51.03390,-0.05600,-0.11130,0.00000,0.03160,0.97807,-0.18825,0.0,2023,6,7,18,5,34,822
51.03400,-0.02100,0.01120,0.00000,0.03294,0.97612,-0.18837,0.0,2023,6,7,18,5,34,833
51.03410,-0.05600,-0.05880,0.00000,0.03013,0.97563,-0.18898,0.0,2023,6,7,18,5,34,845
51.03420,-0.05600,0.09870,0.00000,0.03099,0.97283,-0.18715,0.0,2023,6,7,18,5,34,856
51.03430,-0.16100,-0.02380,0.00000,0.03038,0.97710,-0.18751,0.0,2023,6,7,18,5,34,867
51.03440,-0.17850,0.13370,0.00000,0.03355,0.97454,-0.18812,0.0,2023,6,7,18,5,34,878
51.03450,-0.14350,0.11620,0.00000,0.03184,0.97478,-0.18886,0.0,2023,6,7,18,5,34,889
51.03460,-0.17850,0.08120,0.00000,0.03245,0.97527,-0.18886,0.0,2023,6,7,18,5,34,901
51.03470,-0.05600,0.13370,0.00000,0.03026,0.97612,-0.18922,0.0,2023,6,7,18,5,34,912
51.03480,-0.03850,0.08120,0.00000,0.03221,0.97685,-0.19203,0.0,2023,6,7,18,5,34,923
51.03490,0.03150,-0.16380,0.00000,0.03123,0.97527,-0.19105,0.0,2023,6,7,18,5,34,934
51.03500,-0.07350,0.16870,0.00000,0.03184,0.97673,-0.18825,0.0,2023,6,7,18,5,34,946
51.03510,-0.10850,-0.23380,0.00000,0.03184,0.97759,-0.19008,0.0,2023,6,7,18,5,34,957
51.03520,0.06650,-0.19880,0.00000,0.03038,0.97698,-0.19142,0.0,2023,6,7,18,5,34,968
51.03530,-0.05600,0.08120,0.00000,0.03196,0.97405,-0.18934,0.0,2023,6,7,18,5,34,979
51.03540,0.10150,-0.05880,0.00000,0.03306,0.97710,-0.18861,0.0,2023,6,7,18,5,34,991
51.03550,0.24150,-0.11130,0.00000,0.03074,0.97380,-0.19142,0.0,2023,6,7,18,5,34,2
51.03560,0.01400,-0.05880,0.00000,0.03160,0.97527,-0.19056,0.0,2023,6,7,18,5,35,3
51.03570,-0.10850,0.15120,0.00000,0.03038,0.98088,-0.18678,0.0,2023,6,7,18,5,35,14
51.03580,-0.10850,-0.05880,0.00000,0.03087,0.97661,-0.18873,0.0,2023,6,7,18,5,35,26
51.03590,-0.00350,0.09870,0.00000,0.03160,0.97734,-0.18922,0.0,2023,6,7,18,5,35,37
51.03600,-0.10850,0.11620,0.00000,0.02977,0.97576,-0.18898,0.0,2023,6,7,18,5,35,48
51.03610,0.01400,-0.04130,0.00000,0.03062,0.97563,-0.18898,0.0,2023,6,7,18,5,35,59
51.03620,-0.09100,0.02870,0.00000,0.03148,0.97698,-0.18934,0.0,2023,6,7,18,5,35,70
51.03630,-0.16100,0.04620,0.00000,0.03392,0.97649,-0.18776,0.0,2023,6,7,18,5,35,82
51.03640,-0.07350,0.15120,0.00000,0.03160,0.97673,-0.19020,0.0,2023,6,7,18,5,35,93
51.03650,-0.09100,0.11620,0.00000,0.03196,0.97624,-0.18898,0.0,2023,6,7,18,5,35,104
51.03660,0.01400,0.18620,0.00000,0.03062,0.97649,-0.19154,0.0,2023,6,7,18,5,35,115
51.03670,0.01400,-0.02380,0.00000,0.02989,0.97612,-0.18837,0.0,2023,6,7,18,5,35,127
51.03680,-0.12600,0.20370,0.00000,0.03245,0.97490,-0.18739,0.0,2023,6,7,18,5,35,138
51.03690,-0.05600,0.01120,0.00000,0.02989,0.97515,-0.18861,0.0,2023,6,7,18,5,35,149
51.03700,0.01400,0.15120,0.00000,0.02855,0.97673,-0.19117,0.0,2023,6,7,18,5,35,160
51.03710,0.15400,-0.11130,0.00000,0.03379,0.97734,-0.18934,0.0,2023,6,7,18,5,35,172
51.03720,-0.03850,0.18620,0.00000,0.03001,0.97515,-0.18934,0.0,2023,6,7,18,5,35,183
51.03730,0.15400,-0.05880,0.00000,0.03038,0.97576,-0.18959,0.0,2023,6,7,18,5,35,194
51.03740,0.15400,-0.04130,0.00000,0.03087,0.97759,-0.18995,0.0,2023,6,7,18,5,35,205
51.03750,-0.17850,-0.12880,0.00000,0.03306,0.97539,-0.18788,0.0,2023,6,7,18,5,35,217
51.03760,0.08400,0.02870,0.00000,0.03221,0.97722,-0.18898,0.0,2023,6,7,18,5,35,228
51.03770,-0.09100,0.18620,0.00000,0.03111,0.97661,-0.18776,0.0,2023,6,7,18,5,35,239
51.03780,-0.07350,0.08120,0.00000,0.03087,0.97600,-0.19069,0.0,2023,6,7,18,5,35,250
51.03790,0.20650,-0.09380,0.00000,0.03196,0.97722,-0.18837,0.0,2023,6,7,18,5,35,261
51.03800,-0.09100,-0.09380,0.00000,0.03233,0.97612,-0.18666,0.0,2023,6,7,18,5,35,273
51.03810,0.06650,0.20370,0.00000,0.03026,0.97820,-0.18947,0.0,2023,6,7,18,5,35,284
51.03820,-0.09100,0.01120,0.00000,0.03196,0.97515,-0.18825,0.0,2023,6,7,18,5,35,295
51.03830,-0.19600,-0.00630,0.00000,0.03013,0.97539,-0.18861,0.0,2023,6,7,18,5,35,306
51.03840,0.03150,-0.12880,0.00000,0.03013,0.97868,-0.19044,0.0,2023,6,7,18,5,35,318
51.03850,0.29400,-0.02380,0.00000,0.02904,0.97820,-0.18715,0.0,2023,6,7,18,5,35,329
51.03860,-0.03850,-0.04130,0.00000,0.03221,0.97527,-0.19032,0.0,2023,6,7,18,5,35,340
51.03870,-0.00350,0.13370,0.00000,0.03184,0.97576,-0.19044,0.0,2023,6,7,18,5,35,351
51.03880,-0.09100,0.16870,0.00000,0.03013,0.97551,-0.18837,0.0,2023,6,7,18,5,35,363
51.03890,-0.05600,-0.02380,0.00000,0.02989,0.97710,-0.18837,0.0,2023,6,7,18,5,35,374
51.03900,0.11900,-0.14630,0.00000,0.03282,0.97698,-0.18947,0.0,2023,6,7,18,5,35,385
51.03910,-0.02100,-0.07630,0.00000,0.03221,0.97722,-0.18703,0.0,2023,6,7,18,5,35,396
51.03920,-0.07350,0.06370,0.00000,0.03209,0.97612,-0.18861,0.0,2023,6,7,18,5,35,408
51.03930,0.01400,-0.09380,0.00000,0.03221,0.97454,-0.18971,0.0,2023,6,7,18,5,35,419
51.03940,-0.02100,0.04620,0.00000,0.03099,0.97685,-0.18764,0.0,2023,6,7,18,5,35,430
51.03950,0.17150,0.02870,0.00000,0.03209,0.97649,-0.18825,0.0,2023,6,7,18,5,35,441
51.03960,0.06650,0.08120,0.00000,0.03245,0.97637,-0.18934,0.0,2023,6,7,18,5,35,452
51.03970,-0.02100,0.09870,0.00000,0.03062,0.97820,-0.18995,0.0,2023,6,7,18,5,35,464
51.03980,-0.19600,-0.02380,0.00000,0.03062,0.97844,-0.18898,0.0,2023,6,7,18,5,35,475
51.03990,-0.16100,-0.04130,0.00000,0.02928,0.97515,-0.18678,0.0,2023,6,7,18,5,35,486
51.04000,-0.10850,-0.02380,0.00000,0.03318,0.97917,-0.18654,0.0,2023,6,7,18,5,35,497
51.04010,-0.03850,-0.05880,0.00000,0.03172,0.97673,-0.18678,0.0,2023,6,7,18,5,35,509
51.04020,-0.14350,-0.07630,0.00000,0.03074,0.97685,-0.18983,0.0,2023,6,7,18,5,35,520
51.04030,-0.03850,0.13370,0.00000,0.02977,0.97454,-0.18776,0.0,2023,6,7,18,5,35,531
51.04040,-0.05600,0.15120,0.00000,0.03196,0.97795,-0.18837,0.0,2023,6,7,18,5,35,542
51.04050,-0.00350,0.01120,0.00000,0.03135,0.97917,-0.18861,0.0,2023,6,7,18,5,35,554
51.04060,-0.17850,0.22120,0.00000,0.03038,0.97393,-0.18739,0.0,2023,6,7,18,5,35,565
51.04070,0.18900,-0.14630,0.00000,0.03270,0.97539,-0.18690,0.0,2023,6,7,18,5,35,576
51.04080,-0.14350,-0.07630,0.00000,0.03270,0.97539,-0.18642,0.0,2023,6,7,18,5,35,587
51.04090,0.13650,-0.12880,0.00000,0.02977,0.97698,-0.18751,0.0,2023,6,7,18,5,35,599
51.04100,-0.23100,0.11620,0.00000,0.03343,0.97441,-0.18849,0.0,2023,6,7,18,5,35,610
51.04110,-0.10850,-0.04130,0.00000,0.03001,0.97734,-0.18690,0.0,2023,6,7,18,5,35,621
51.04120,0.01400,0.01120,0.00000,0.02904,0.97685,-0.18837,0.0,2023,6,7,18,5,35,632
51.04130,0.04900,-0.07630,0.00000,0.03148,0.97563,-0.18776,0.0,2023,6,7,18,5,35,643
51.04140,-0.05600,0.27370,0.00000,0.03050,0.97795,-0.18666,0.0,2023,6,7,18,5,35,655
51.04150,-0.10850,0.11620,0.00000,0.03270,0.97795,-0.18971,0.0,2023,6,7,18,5,35,666
51.04160,0.04900,-0.11130,0.00000,0.03196,0.97771,-0.19020,0.0,2023,6,7,18,5,35,677
51.04170,-0.02100,0.13370,0.00000,0.03184,0.97661,-0.18837,0.0,2023,6,7,18,5,35,688
51.04180,-0.03850,-0.19880,0.00000,0.03074,0.97905,-0.19105,0.0,2023,6,7,18,5,35,700
51.04190,-0.03850,0.09870,0.00000,0.03196,0.97417,-0.18983,0.0,2023,6,7,18,5,35,711
51.04200,-0.12600,0.02870,0.00000,0.03282,0.97454,-0.18678,0.0,2023,6,7,18,5,35,722
51.04210,0.15400,0.09870,0.00000,0.02879,0.97673,-0.18873,0.0,2023,6,7,18,5,35,733
51.04220,0.03150,-0.07630,0.00000,0.03233,0.97527,-0.18898,0.0,2023,6,7,18,5,35,745
51.04230,0.11900,-0.21630,0.00000,0.02977,0.97405,-0.18678,0.0,2023,6,7,18,5,35,756
51.04240,-0.21350,0.15120,0.00000,0.03038,0.97868,-0.18751,0.0,2023,6,7,18,5,35,767
51.04250,-0.03850,-0.07630,0.00000,0.03013,0.97771,-0.18776,0.0,2023,6,7,18,5,35,778
51.04260,-0.07350,0.04620,0.00000,0.03160,0.97380,-0.18764,0.0,2023,6,7,18,5,35,790
51.04270,-0.23100,0.11620,0.00000,0.02989,0.97478,-0.18703,0.0,2023,6,7,18,5,35,801
51.04280,0.15400,0.04620,0.00000,0.03087,0.97588,-0.18800,0.0,2023,6,7,18,5,35,812
51.04290,-0.10850,0.04620,0.00000,0.02904,0.97417,-0.18715,0.0,2023,6,7,18,5,35,823
51.04300,-0.02100,0.04620,0.00000,0.03026,0.97893,-0.19081,0.0,2023,6,7,18,5,35,835
51.04310,-0.03850,0.02870,0.00000,0.03172,0.97490,-0.18947,0.0,2023,6,7,18,5,35,846
51.04320,-0.03850,-0.04130,0.00000,0.03135,0.97710,-0.18873,0.0,2023,6,7,18,5,35,857
51.04330,-0.14350,-0.11130,0.00000,0.03050,0.97637,-0.18861,0.0,2023,6,7,18,5,35,868
51.04340,-0.17850,-0.05880,0.00000,0.03489,0.97685,-0.18690,0.0,2023,6,7,18,5,35,879
51.04350,0.01400,0.16870,0.00000,0.03111,0.97478,-0.18715,0.0,2023,6,7,18,5,35,891
51.04360,0.01400,-0.02380,0.00000,0.03074,0.97771,-0.18934,0.0,2023,6,7,18,5,35,902
51.04370,-0.05600,-0.02380,0.00000,0.03099,0.97734,-0.18690,0.0,2023,6,7,18,5,35,913
51.04380,-0.09100,-0.04130,0.00000,0.03209,0.97722,-0.18703,0.0,2023,6,7,18,5,35,924
51.04390,-0.09100,0.09870,0.00000,0.03050,0.97393,-0.18825,0.0,2023,6,7,18,5,35,936
51.04400,-0.10850,0.22120,0.00000,0.03209,0.97942,-0.18983,0.0,2023,6,7,18,5,35,947
51.04410,-0.16100,0.01120,0.00000,0.03270,0.97356,-0.18520,0.0,2023,6,7,18,5,35,958
51.04420,-0.12600,0.09870,0.00000,0.03099,0.97807,-0.18800,0.0,2023,6,7,18,5,35,969
51.04430,-0.07350,0.11620,0.00000,0.03172,0.98076,-0.19178,0.0,2023,6,7,18,5,35,981
51.04440,-0.17850,0.06370,0.00000,0.03148,0.97673,-0.18483,0.0,2023,6,7,18,5,35,992
51.04450,-0.07350,-0.00630,0.00000,0.03148,0.97746,-0.18947,0.0,2023,6,7,18,5,35,3
51.04460,-0.16100,0.11620,0.00000,0.03453,0.97283,-0.18898,0.0,2023,6,7,18,5,36,4
51.04470,-0.19600,0.06370,0.00000,0.03050,0.97368,-0.18544,0.0,2023,6,7,18,5,36,16
51.04480,0.04900,-0.09380,0.00000,0.03196,0.97588,-0.18873,0.0,2023,6,7,18,5,36,27
51.04490,0.15400,0.11620,0.00000,0.03355,0.97978,-0.18812,0.0,2023,6,7,18,5,36,38
51.04500,-0.05600,0.13370,0.00000,0.03123,0.97527,-0.18410,0.0,2023,6,7,18,5,36,49
51.04510,0.01400,-0.16380,0.00000,0.03148,0.97588,-0.18934,0.0,2023,6,7,18,5,36,60
51.04520,-0.07350,0.09870,0.00000,0.02965,0.97771,-0.18922,0.0,2023,6,7,18,5,36,72
51.04530,0.06650,-0.11130,0.00000,0.02904,0.97380,-0.18690,0.0,2023,6,7,18,5,36,83
51.04540,0.20650,-0.09380,0.00000,0.03087,0.97649,-0.18520,0.0,2023,6,7,18,5,36,94
51.04550,-0.23100,0.16870,0.00000,0.02891,0.97637,-0.18764,0.0,2023,6,7,18,5,36,105
51.04560,0.11900,0.04620,0.00000,0.03331,0.97673,-0.18666,0.0,2023,6,7,18,5,36,117
51.04570,0.01400,0.02870,0.00000,0.03196,0.97637,-0.18617,0.0,2023,6,7,18,5,36,128
51.04580,0.03150,-0.09380,0.00000,0.03184,0.97685,-0.18959,0.0,2023,6,7,18,5,36,139
51.04590,0.18900,0.23870,0.00000,0.03026,0.97490,-0.18776,0.0,2023,6,7,18,5,36,150
51.04600,-0.10850,-0.02380,0.00000,0.03233,0.97942,-0.18971,0.0,2023,6,7,18,5,36,162
51.04610,-0.03850,0.09870,0.00000,0.03196,0.97771,-0.18764,0.0,2023,6,7,18,5,36,173
51.04620,-0.03850,0.09870,0.00000,0.03038,0.97588,-0.18568,0.0,2023,6,7,18,5,36,184
51.04630,-0.03850,-0.11130,0.00000,0.03062,0.97551,-0.18837,0.0,2023,6,7,18,5,36,195
51.04640,-0.05600,0.08120,0.00000,0.03196,0.97624,-0.18898,0.0,2023,6,7,18,5,36,207
51.04650,-0.07350,0.15120,0.00000,0.03160,0.97600,-0.18800,0.0,2023,6,7,18,5,36,218
51.04660,0.04900,-0.11130,0.00000,0.03038,0.97563,-0.18642,0.0,2023,6,7,18,5,36,229
51.04670,-0.09100,-0.16380,0.00000,0.03184,0.97600,-0.18910,0.0,2023,6,7,18,5,36,240
51.04680,0.06650,0.13370,0.00000,0.03062,0.97710,-0.18995,0.0,2023,6,7,18,5,36,251
51.04690,-0.17850,-0.00630,0.00000,0.03245,0.97551,-0.18727,0.0,2023,6,7,18,5,36,263
51.04700,0.10150,-0.18130,0.00000,0.03367,0.97807,-0.18776,0.0,2023,6,7,18,5,36,274
51.04710,0.08400,-0.18130,0.00000,0.02940,0.97637,-0.18825,0.0,2023,6,7,18,5,36,285
51.04720,-0.12600,0.09870,0.00000,0.03123,0.97612,-0.18886,0.0,2023,6,7,18,5,36,296
51.04730,-0.23100,0.20370,0.00000,0.03026,0.97624,-0.18983,0.0,2023,6,7,18,5,36,308
51.04740,0.11900,-0.21630,0.00000,0.03026,0.97502,-0.19081,0.0,2023,6,7,18,5,36,319
51.04750,-0.02100,0.18620,0.00000,0.03221,0.97576,-0.18873,0.0,2023,6,7,18,5,36,330
51.04760,0.08400,-0.00630,0.00000,0.03367,0.97393,-0.18727,0.0,2023,6,7,18,5,36,341
51.04770,0.18900,-0.02380,0.00000,0.03221,0.97539,-0.18678,0.0,2023,6,7,18,5,36,353
51.04780,-0.30100,-0.09380,0.00000,0.03209,0.97624,-0.18666,0.0,2023,6,7,18,5,36,364
51.04790,0.06650,0.04620,0.00000,0.03099,0.97539,-0.18764,0.0,2023,6,7,18,5,36,375
51.04800,-0.17850,-0.07630,0.00000,0.03331,0.97868,-0.18581,0.0,2023,6,7,18,5,36,386
51.04810,-0.19600,-0.00630,0.00000,0.03172,0.97527,-0.18678,0.0,2023,6,7,18,5,36,398
51.04820,-0.02100,-0.18130,0.00000,0.03270,0.97698,-0.18898,0.0,2023,6,7,18,5,36,409
51.04830,0.01400,-0.02380,0.00000,0.03087,0.97771,-0.18873,0.0,2023,6,7,18,5,36,420
51.04840,-0.07350,0.18620,0.00000,0.03087,0.97551,-0.18727,0.0,2023,6,7,18,5,36,431
51.04850,0.03150,-0.11130,0.00000,0.03026,0.97576,-0.18873,0.0,2023,6,7,18,5,36,442
51.04860,-0.09100,-0.23380,0.00000,0.03172,0.97759,-0.18947,0.0,2023,6,7,18,5,36,454
51.04870,-0.09100,0.01120,0.00000,0.03038,0.97612,-0.18788,0.0,2023,6,7,18,5,36,465
51.04880,-0.12600,0.09870,0.00000,0.03245,0.97490,-0.18666,0.0,2023,6,7,18,5,36,476
51.04890,-0.07350,0.09870,0.00000,0.03050,0.97661,-0.18739,0.0,2023,6,7,18,5,36,487
51.04900,-0.24850,-0.09380,0.00000,0.02952,0.97380,-0.19044,0.0,2023,6,7,18,5,36,499
51.04910,-0.03850,0.18620,0.00000,0.03318,0.97624,-0.18825,0.0,2023,6,7,18,5,36,510
51.04920,-0.23100,-0.02380,0.00000,0.03050,0.97698,-0.18959,0.0,2023,6,7,18,5,36,521
51.04930,0.17150,-0.14630,0.00000,0.02989,0.97661,-0.18886,0.0,2023,6,7,18,5,36,532
51.04940,-0.02100,-0.00630,0.00000,0.03160,0.97844,-0.18605,0.0,2023,6,7,18,5,36,544
51.04950,-0.10850,-0.05880,0.00000,0.03013,0.97807,-0.18983,0.0,2023,6,7,18,5,36,555
51.04960,-0.03850,0.01120,0.00000,0.03160,0.97722,-0.19300,0.0,2023,6,7,18,5,36,566
51.04970,-0.02100,0.08120,0.00000,0.03209,0.97588,-0.18812,0.0,2023,6,7,18,5,36,577
51.04980,-0.07350,-0.05880,0.00000,0.03209,0.97563,-0.18959,0.0,2023,6,7,18,5,36,589
51.04990,0.08400,0.15120,0.00000,0.03135,0.97624,-0.18947,0.0,2023,6,7,18,5,36,600
51.05000,-0.03850,-0.04130,0.00000,0.03209,0.97698,-0.18764,0.0,2023,6,7,18,5,36,611
51.05010,0.08400,0.08120,0.00000,0.03343,0.97722,-0.18825,0.0,2023,6,7,18,5,36,622
51.05020,-0.07350,0.15120,0.00000,0.03087,0.97771,-0.18727,0.0,2023,6,7,18,5,36,633
51.05030,-0.31850,0.20370,0.00000,0.03099,0.97759,-0.18873,0.0,2023,6,7,18,5,36,645
51.05040,-0.00350,0.06370,0.00000,0.03160,0.97624,-0.18886,0.0,2023,6,7,18,5,36,656
51.05050,0.13650,-0.00630,0.00000,0.03123,0.97563,-0.18751,0.0,2023,6,7,18,5,36,667
51.05060,-0.00350,-0.09380,0.00000,0.03270,0.97576,-0.18922,0.0,2023,6,7,18,5,36,678
51.05070,0.22400,0.04620,0.00000,0.03148,0.97734,-0.18727,0.0,2023,6,7,18,5,36,690
51.05080,-0.19600,-0.09380,0.00000,0.03135,0.97722,-0.18715,0.0,2023,6,7,18,5,36,701
51.05090,-0.21350,0.11620,0.00000,0.03099,0.97942,-0.18995,0.0,2023,6,7,18,5,36,712
51.05100,-0.05600,-0.04130,0.00000,0.03123,0.97612,-0.18788,0.0,2023,6,7,18,5,36,723
51.05110,0.06650,-0.14630,0.00000,0.03111,0.97490,-0.18727,0.0,2023,6,7,18,5,36,735
51.05120,0.06650,0.08120,0.00000,0.02904,0.97759,-0.19056,0.0,2023,6,7,18,5,36,746
51.05130,-0.03850,-0.00630,0.00000,0.03062,0.97637,-0.18995,0.0,2023,6,7,18,5,36,757
51.05140,-0.16100,0.06370,0.00000,0.03367,0.97551,-0.18678,0.0,2023,6,7,18,5,36,768
51.05150,0.04900,-0.12880,0.00000,0.03233,0.97490,-0.18910,0.0,2023,6,7,18,5,36,780
51.05160,-0.03850,0.01120,0.00000,0.03148,0.97685,-0.18776,0.0,2023,6,7,18,5,36,791
51.05170,-0.09100,0.15120,0.00000,0.03440,0.97734,-0.18825,0.0,2023,6,7,18,5,36,802
51.05180,-0.03850,0.01120,0.00000,0.03172,0.97624,-0.18849,0.0,2023,6,7,18,5,36,813
51.05190,0.08400,0.06370,0.00000,0.03099,0.97710,-0.18849,0.0,2023,6,7,18,5,36,825
51.05200,-0.09100,0.08120,0.00000,0.03148,0.97954,-0.18922,0.0,2023,6,7,18,5,36,836
51.05210,-0.10850,-0.02380,0.00000,0.03428,0.97685,-0.18751,0.0,2023,6,7,18,5,36,847
51.05220,-0.17850,0.01120,0.00000,0.03135,0.97832,-0.18715,0.0,2023,6,7,18,5,36,858
51.05230,-0.14350,0.01120,0.00000,0.03123,0.97454,-0.18873,0.0,2023,6,7,18,5,36,869
51.05240,0.15400,-0.14630,0.00000,0.03148,0.97502,-0.18788,0.0,2023,6,7,18,5,36,881
51.05250,-0.07350,-0.35630,0.00000,0.03111,0.97624,-0.18605,0.0,2023,6,7,18,5,36,892
51.05260,-0.05600,0.18620,0.00000,0.03123,0.97563,-0.19044,0.0,2023,6,7,18,5,36,903
51.05270,0.06650,-0.11130,0.00000,0.03172,0.97612,-0.18873,0.0,2023,6,7,18,5,36,914
51.05280,-0.14350,-0.02380,0.00000,0.03111,0.97539,-0.18910,0.0,2023,6,7,18,5,36,926
51.05290,0.13650,-0.19880,0.00000,0.03160,0.97685,-0.19081,0.0,2023,6,7,18,5,36,937
51.05300,-0.23100,-0.07630,0.00000,0.03087,0.97600,-0.18898,0.0,2023,6,7,18,5,36,948
51.05310,-0.40600,0.06370,0.00000,0.03209,0.97795,-0.18507,0.0,2023,6,7,18,5,36,959
51.05320,0.04900,0.01120,0.00000,0.03099,0.97807,-0.18910,0.0,2023,6,7,18,5,36,971
51.05330,-0.02100,0.06370,0.00000,0.03172,0.97832,-0.18898,0.0,2023,6,7,18,5,36,982
51.05340,-0.03850,-0.04130,0.00000,0.03233,0.97600,-0.18934,0.0,2023,6,7,18,5,36,993
51.05350,0.13650,-0.16380,0.00000,0.03160,0.97661,-0.18764,0.0,2023,6,7,18,5,36,4
51.05360,-0.31850,-0.12880,0.00000,0.03148,0.97917,-0.18788,0.0,2023,6,7,18,5,36,16
51.05370,0.03150,0.09870,0.00000,0.03038,0.97490,-0.18751,0.0,2023,6,7,18,5,37,7
51.05380,-0.09100,0.04620,0.00000,0.03111,0.97624,-0.18788,0.0,2023,6,7,18,5,37,18
51.05390,-0.07350,0.02870,0.00000,0.03209,0.97722,-0.18983,0.0,2023,6,7,18,5,37,29
51.05400,-0.23100,-0.02380,0.00000,0.03453,0.97685,-0.18898,0.0,2023,6,7,18,5,37,40
51.05410,-0.17850,-0.00630,0.00000,0.03172,0.97698,-0.18959,0.0,2023,6,7,18,5,37,52
51.05420,-0.14350,-0.09380,0.00000,0.03160,0.97539,-0.19105,0.0,2023,6,7,18,5,37,63
51.05430,-0.07350,-0.00630,0.00000,0.03257,0.97661,-0.18898,0.0,2023,6,7,18,5,37,74
51.05440,-0.03850,0.01120,0.00000,0.03306,0.97490,-0.18654,0.0,2023,6,7,18,5,37,85
51.05450,0.08400,-0.07630,0.00000,0.03087,0.97649,-0.18849,0.0,2023,6,7,18,5,37,97
51.05460,-0.07350,0.02870,0.00000,0.03270,0.97795,-0.18825,0.0,2023,6,7,18,5,37,108
51.05470,-0.00350,0.13370,0.00000,0.03074,0.97380,-0.18642,0.0,2023,6,7,18,5,37,119
51.05480,0.01400,-0.02380,0.00000,0.03050,0.97698,-0.19154,0.0,2023,6,7,18,5,37,130
51.05490,-0.07350,0.20370,0.00000,0.03135,0.97551,-0.18776,0.0,2023,6,7,18,5,37,142
51.05500,-0.17850,-0.12880,0.00000,0.03148,0.97490,-0.18825,0.0,2023,6,7,18,5,37,153
51.05510,0.18900,-0.02380,0.00000,0.02952,0.97734,-0.19020,0.0,2023,6,7,18,5,37,164
51.05520,0.08400,-0.02380,0.00000,0.03123,0.97515,-0.18886,0.0,2023,6,7,18,5,37,175
51.05530,-0.17850,0.08120,0.00000,0.03209,0.97490,-0.18971,0.0,2023,6,7,18,5,37,187
51.05540,-0.26600,0.13370,0.00000,0.03038,0.97563,-0.18739,0.0,2023,6,7,18,5,37,198
51.05550,0.01400,0.06370,0.00000,0.02818,0.97807,-0.19300,0.0,2023,6,7,18,5,37,209
51.05560,-0.05600,0.04620,0.00000,0.03050,0.97710,-0.19008,0.0,2023,6,7,18,5,37,220
51.05570,-0.07350,-0.00630,0.00000,0.03038,0.97637,-0.18971,0.0,2023,6,7,18,5,37,231
51.05580,-0.02100,0.09870,0.00000,0.03087,0.97710,-0.19044,0.0,2023,6,7,18,5,37,243
51.05590,0.01400,0.04620,0.00000,0.03111,0.97600,-0.18873,0.0,2023,6,7,18,5,37,254
51.05600,-0.21350,-0.02380,0.00000,0.02977,0.97771,-0.18922,0.0,2023,6,7,18,5,37,265
51.05610,0.13650,0.01120,0.00000,0.03038,0.97527,-0.18934,0.0,2023,6,7,18,5,37,276
51.05620,-0.09100,-0.09380,0.00000,0.03343,0.97612,-0.18788,0.0,2023,6,7,18,5,37,288
51.05630,0.06650,-0.18130,0.00000,0.03282,0.97637,-0.18825,0.0,2023,6,7,18,5,37,299
51.05640,-0.05600,0.13370,0.00000,0.03123,0.97624,-0.18715,0.0,2023,6,7,18,5,37,310
51.05650,-0.14350,-0.28630,0.00000,0.03074,0.97588,-0.19020,0.0,2023,6,7,18,5,37,321
51.05660,0.20650,-0.12880,0.00000,0.03245,0.97710,-0.18605,0.0,2023,6,7,18,5,37,333
51.05670,-0.00350,-0.02380,0.00000,0.03184,0.97710,-0.18861,0.0,2023,6,7,18,5,37,344
51.05680,0.15400,-0.09380,0.00000,0.03123,0.97515,-0.19032,0.0,2023,6,7,18,5,37,355
51.05690,-0.12600,0.06370,0.00000,0.03160,0.97673,-0.18837,0.0,2023,6,7,18,5,37,366
51.05700,0.10150,0.01120,0.00000,0.03160,0.97746,-0.19081,0.0,2023,6,7,18,5,37,378
51.05710,0.04900,0.22120,0.00000,0.03001,0.97673,-0.18886,0.0,2023,6,7,18,5,37,389
51.05720,-0.09100,0.18620,0.00000,0.03026,0.97576,-0.18971,0.0,2023,6,7,18,5,37,400
51.05730,0.01400,0.09870,0.00000,0.03440,0.97551,-0.19191,0.0,2023,6,7,18,5,37,411
51.05740,0.04900,0.11620,0.00000,0.03148,0.97600,-0.19105,0.0,2023,6,7,18,5,37,422
51.05750,-0.10850,0.13370,0.00000,0.03233,0.97551,-0.18739,0.0,2023,6,7,18,5,37,434
51.05760,0.15400,-0.23380,0.00000,0.03050,0.97624,-0.18861,0.0,2023,6,7,18,5,37,445
51.05770,-0.10850,-0.12880,0.00000,0.03013,0.97807,-0.18959,0.0,2023,6,7,18,5,37,456
51.05780,0.01400,-0.02380,0.00000,0.02965,0.97649,-0.18849,0.0,2023,6,7,18,5,37,467
51.05790,-0.00350,0.04620,0.00000,0.03367,0.97929,-0.18751,0.0,2023,6,7,18,5,37,479
51.05800,0.06650,0.06370,0.00000,0.02952,0.97783,-0.18886,0.0,2023,6,7,18,5,37,490
51.05810,-0.05600,0.04620,0.00000,0.03160,0.97368,-0.18983,0.0,2023,6,7,18,5,37,501
51.05820,0.01400,-0.02380,0.00000,0.03221,0.97710,-0.18605,0.0,2023,6,7,18,5,37,512
51.05830,-0.07350,0.01120,0.00000,0.03257,0.97478,-0.18788,0.0,2023,6,7,18,5,37,524
51.05840,0.06650,-0.00630,0.00000,0.03123,0.97624,-0.18995,0.0,2023,6,7,18,5,37,535
51.05850,-0.07350,-0.16380,0.00000,0.03233,0.97637,-0.18800,0.0,2023,6,7,18,5,37,546
51.05860,-0.14350,0.15120,0.00000,0.03306,0.97698,-0.18666,0.0,2023,6,7,18,5,37,557
51.05870,-0.02100,0.04620,0.00000,0.03001,0.97563,-0.19130,0.0,2023,6,7,18,5,37,569
51.05880,-0.14350,0.06370,0.00000,0.03453,0.97771,-0.18934,0.0,2023,6,7,18,5,37,580
51.05890,-0.03850,-0.12880,0.00000,0.03050,0.97722,-0.18727,0.0,2023,6,7,18,5,37,591
51.05900,-0.12600,0.02870,0.00000,0.02977,0.97649,-0.18959,0.0,2023,6,7,18,5,37,602
51.05910,-0.02100,-0.18130,0.00000,0.03074,0.97539,-0.19020,0.0,2023,6,7,18,5,37,613
51.05920,0.22400,-0.23380,0.00000,0.03257,0.97673,-0.18959,0.0,2023,6,7,18,5,37,625
51.05930,-0.00350,-0.11130,0.00000,0.03135,0.97649,-0.18837,0.0,2023,6,7,18,5,37,636
51.05940,0.10150,-0.02380,0.00000,0.03135,0.97722,-0.18934,0.0,2023,6,7,18,5,37,647
51.05950,-0.05600,0.02870,0.00000,0.03343,0.97673,-0.18666,0.0,2023,6,7,18,5,37,658
51.05960,0.17150,-0.14630,0.00000,0.03257,0.97466,-0.18886,0.0,2023,6,7,18,5,37,670
51.05970,0.06650,0.01120,0.00000,0.02867,0.97612,-0.18910,0.0,2023,6,7,18,5,37,681
51.05980,-0.14350,0.18620,0.00000,0.02879,0.97588,-0.18898,0.0,2023,6,7,18,5,37,692
51.05990,-0.23100,0.16870,0.00000,0.03062,0.97649,-0.18886,0.0,2023,6,7,18,5,37,703
51.06000,0.06650,-0.14630,0.00000,0.03306,0.97600,-0.18873,0.0,2023,6,7,18,5,37,715
51.06010,0.03150,0.04620,0.00000,0.03148,0.97576,-0.18947,0.0,2023,6,7,18,5,37,726
51.06020,0.03150,-0.12880,0.00000,0.03111,0.97783,-0.18666,0.0,2023,6,7,18,5,37,737
51.06030,-0.10850,0.23870,0.00000,0.03209,0.97685,-0.18849,0.0,2023,6,7,18,5,37,748
51.06040,0.11900,-0.02380,0.00000,0.03221,0.97868,-0.18898,0.0,2023,6,7,18,5,37,760
51.06050,0.20650,-0.09380,0.00000,0.03367,0.97771,-0.18873,0.0,2023,6,7,18,5,37,771
51.06060,0.17150,0.06370,0.00000,0.03111,0.97563,-0.18776,0.0,2023,6,7,18,5,37,782
51.06070,0.01400,0.22120,0.00000,0.03038,0.97661,-0.18751,0.0,2023,6,7,18,5,37,793
51.06080,-0.07350,0.11620,0.00000,0.03123,0.97734,-0.18715,0.0,2023,6,7,18,5,37,805
51.06090,0.10150,-0.07630,0.00000,0.03111,0.97661,-0.18825,0.0,2023,6,7,18,5,37,816
51.06100,-0.16100,0.22120,0.00000,0.03026,0.97405,-0.18898,0.0,2023,6,7,18,5,37,827
51.06110,0.06650,0.04620,0.00000,0.03062,0.97588,-0.18825,0.0,2023,6,7,18,5,37,838
51.06120,-0.10850,-0.12880,0.00000,0.03318,0.97759,-0.18922,0.0,2023,6,7,18,5,37,849
51.06130,0.08400,0.04620,0.00000,0.03245,0.97710,-0.18617,0.0,2023,6,7,18,5,37,861
51.06140,0.13650,-0.04130,0.00000,0.03160,0.97685,-0.19020,0.0,2023,6,7,18,5,37,872
51.06150,0.08400,0.01120,0.00000,0.03026,0.97539,-0.18849,0.0,2023,6,7,18,5,37,883
51.06160,-0.12600,-0.14630,0.00000,0.03111,0.97685,-0.18861,0.0,2023,6,7,18,5,37,894
51.06170,-0.05600,-0.05880,0.00000,0.03294,0.97807,-0.18812,0.0,2023,6,7,18,5,37,906
51.06180,0.04900,0.13370,0.00000,0.03087,0.97588,-0.18947,0.0,2023,6,7,18,5,37,917
51.06190,-0.10850,0.02870,0.00000,0.03087,0.97795,-0.18715,0.0,2023,6,7,18,5,37,928
51.06200,-0.10850,0.16870,0.00000,0.03209,0.97527,-0.18837,0.0,2023,6,7,18,5,37,939
51.06210,-0.10850,0.01120,0.00000,0.03257,0.97710,-0.18922,0.0,2023,6,7,18,5,37,951
51.06220,-0.17850,0.06370,0.00000,0.03013,0.97624,-0.18629,0.0,2023,6,7,18,5,37,962
51.06230,-0.02100,-0.11130,0.00000,0.02989,0.97637,-0.18922,0.0,2023,6,7,18,5,37,973
51.06240,0.04900,0.18620,0.00000,0.03196,0.97332,-0.18764,0.0,2023,6,7,18,5,37,984
51.06250,-0.09100,-0.07630,0.00000,0.03123,0.97454,-0.18922,0.0,2023,6,7,18,5,37,996
51.06260,-0.21350,0.01120,0.00000,0.03026,0.98308,-0.18800,0.0,2023,6,7,18,5,37,7
51.06270,0.01400,0.13370,0.00000,0.03087,0.97063,-0.18861,0.0,2023,6,7,18,5,37,18
51.06280,0.03150,0.11620,0.00000,0.03355,0.97405,-0.18495,0.0,2023,6,7,18,5,38,9
51.06290,-0.51100,0.01120,0.00000,0.03172,0.98015,-0.18861,0.0,2023,6,7,18,5,38,20
51.06300,0.32900,-0.11130,0.00000,0.02745,0.97368,-0.18995,0.0,2023,6,7,18,5,38,32
51.06310,-0.44100,0.30870,0.00000,0.03306,0.97685,-0.18532,0.0,2023,6,7,18,5,38,43
51.06320,-0.37100,0.01120,0.00000,0.02977,0.97307,-0.18837,0.0,2023,6,7,18,5,38,54
51.06330,0.46900,-0.07630,0.00000,0.03074,0.98308,-0.18861,0.0,2023,6,7,18,5,38,65
51.06340,-0.17850,0.01120,0.00000,0.03172,0.97393,-0.18239,0.0,2023,6,7,18,5,38,77
51.06350,-0.23100,0.02870,0.00000,0.02965,0.97490,-0.19130,0.0,2023,6,7,18,5,38,88
51.06360,0.10150,0.16870,0.00000,0.03148,0.97197,-0.18715,0.0,2023,6,7,18,5,38,99
51.06370,-0.33600,0.04620,0.00000,0.03062,0.97807,-0.18715,0.0,2023,6,7,18,5,38,110
51.06380,-0.02100,0.27370,0.00000,0.03013,0.97563,-0.18812,0.0,2023,6,7,18,5,38,122
51.06390,-0.07350,0.04620,0.00000,0.02977,0.97771,-0.18995,0.0,2023,6,7,18,5,38,133
51.06400,-0.02100,0.18620,0.00000,0.03013,0.97478,-0.18800,0.0,2023,6,7,18,5,38,144
51.06410,0.08400,-0.14630,0.00000,0.03318,0.97722,-0.19008,0.0,2023,6,7,18,5,38,155
51.06420,-0.05600,-0.12880,0.00000,0.03184,0.97710,-0.18788,0.0,2023,6,7,18,5,38,167
51.06430,0.17150,-0.02380,0.00000,0.03026,0.97710,-0.18764,0.0,2023,6,7,18,5,38,178
51.06440,-0.03850,-0.14630,0.00000,0.03245,0.97759,-0.18727,0.0,2023,6,7,18,5,38,189
51.06450,-0.14350,0.23870,0.00000,0.03111,0.97868,-0.18873,0.0,2023,6,7,18,5,38,200
51.06460,0.11900,0.08120,0.00000,0.03245,0.97515,-0.19154,0.0,2023,6,7,18,5,38,211
51.06470,-0.05600,0.15120,0.00000,0.03306,0.97637,-0.18690,0.0,2023,6,7,18,5,38,223
51.06480,-0.16100,0.20370,0.00000,0.03233,0.97624,-0.18739,0.0,2023,6,7,18,5,38,234
51.06490,0.08400,-0.16380,0.00000,0.03099,0.97588,-0.18825,0.0,2023,6,7,18,5,38,245
51.06500,-0.05600,0.01120,0.00000,0.03196,0.97759,-0.18947,0.0,2023,6,7,18,5,38,256
51.06510,-0.09100,0.06370,0.00000,0.03135,0.97624,-0.18947,0.0,2023,6,7,18,5,38,268
51.06520,-0.02100,0.11620,0.00000,0.03221,0.97795,-0.18910,0.0,2023,6,7,18,5,38,279
51.06530,-0.09100,0.09870,0.00000,0.03294,0.97673,-0.18886,0.0,2023,6,7,18,5,38,290
51.06540,-0.21350,-0.04130,0.00000,0.03184,0.97722,-0.19044,0.0,2023,6,7,18,5,38,301
51.06550,-0.03850,-0.14630,0.00000,0.03257,0.97734,-0.18764,0.0,2023,6,7,18,5,38,313
51.06560,-0.03850,0.01120,0.00000,0.03111,0.97515,-0.18678,0.0,2023,6,7,18,5,38,324
51.06570,0.20650,-0.05880,0.00000,0.03257,0.97685,-0.18898,0.0,2023,6,7,18,5,38,335
51.06580,-0.23100,-0.12880,0.00000,0.03172,0.97820,-0.18739,0.0,2023,6,7,18,5,38,346
51.06590,-0.10850,0.08120,0.00000,0.03245,0.97722,-0.19020,0.0,2023,6,7,18,5,38,358
51.06600,-0.02100,-0.11130,0.00000,0.03111,0.97612,-0.19032,0.0,2023,6,7,18,5,38,369
51.06610,-0.16100,0.06370,0.00000,0.02977,0.97673,-0.18910,0.0,2023,6,7,18,5,38,380
51.06620,-0.05600,0.18620,0.00000,0.03172,0.97649,-0.19069,0.0,2023,6,7,18,5,38,391
51.06630,0.13650,-0.00630,0.00000,0.03123,0.97710,-0.18739,0.0,2023,6,7,18,5,38,402
51.06640,-0.02100,0.11620,0.00000,0.03099,0.97881,-0.18910,0.0,2023,6,7,18,5,38,414
51.06650,-0.09100,-0.05880,0.00000,0.03111,0.97698,-0.18776,0.0,2023,6,7,18,5,38,425
51.06660,0.04900,-0.07630,0.00000,0.03367,0.97649,-0.18739,0.0,2023,6,7,18,5,38,436
51.06670,-0.16100,0.06370,0.00000,0.03209,0.97551,-0.18873,0.0,2023,6,7,18,5,38,447
51.06680,-0.12600,0.04620,0.00000,0.03148,0.97783,-0.18825,0.0,2023,6,7,18,5,38,459
51.06690,-0.09100,0.18620,0.00000,0.03111,0.97624,-0.18947,0.0,2023,6,7,18,5,38,470
51.06700,-0.00350,0.02870,0.00000,0.03245,0.97722,-0.18910,0.0,2023,6,7,18,5,38,481
51.06710,-0.03850,-0.02380,0.00000,0.03038,0.97649,-0.18910,0.0,2023,6,7,18,5,38,492
51.06720,-0.09100,0.27370,0.00000,0.03050,0.97746,-0.19020,0.0,2023,6,7,18,5,38,504
51.06730,0.04900,-0.12880,0.00000,0.02965,0.97417,-0.18837,0.0,2023,6,7,18,5,38,515
51.06740,-0.17850,0.04620,0.00000,0.02952,0.97783,-0.18764,0.0,2023,6,7,18,5,38,526
51.06750,-0.10850,0.09870,0.00000,0.03282,0.97612,-0.18776,0.0,2023,6,7,18,5,38,537
51.06760,0.03150,-0.19880,0.00000,0.02965,0.97417,-0.18764,0.0,2023,6,7,18,5,38,549
51.06770,0.08400,-0.39130,0.00000,0.03209,0.97502,-0.18849,0.0,2023,6,7,18,5,38,560
51.06780,-0.12600,-0.14630,0.00000,0.02977,0.97563,-0.19142,0.0,2023,6,7,18,5,38,571
51.06790,-0.16100,0.13370,0.00000,0.03172,0.97588,-0.18971,0.0,2023,6,7,18,5,38,582
51.06800,0.03150,-0.11130,0.00000,0.03038,0.97734,-0.18959,0.0,2023,6,7,18,5,38,593
51.06810,-0.02100,0.02870,0.00000,0.03282,0.97380,-0.18739,0.0,2023,6,7,18,5,38,605
51.06820,-0.14350,0.13370,0.00000,0.03270,0.97698,-0.18983,0.0,2023,6,7,18,5,38,616
51.06830,0.10150,0.11620,0.00000,0.03135,0.97698,-0.18910,0.0,2023,6,7,18,5,38,627
51.06840,-0.09100,0.15120,0.00000,0.03245,0.97600,-0.19020,0.0,2023,6,7,18,5,38,638
51.06850,0.03150,-0.07630,0.00000,0.03318,0.97576,-0.18873,0.0,2023,6,7,18,5,38,650
51.06860,-0.02100,0.04620,0.00000,0.03282,0.97588,-0.18776,0.0,2023,6,7,18,5,38,661
51.06870,-0.12600,-0.02380,0.00000,0.03135,0.97539,-0.18788,0.0,2023,6,7,18,5,38,672
51.06880,-0.07350,0.01120,0.00000,0.02733,0.97685,-0.19093,0.0,2023,6,7,18,5,38,683
51.06890,-0.09100,0.06370,0.00000,0.03087,0.97612,-0.18922,0.0,2023,6,7,18,5,38,695
51.06900,-0.03850,-0.00630,0.00000,0.02879,0.97612,-0.18800,0.0,2023,6,7,18,5,38,706
51.06910,0.10150,0.02870,0.00000,0.03257,0.97673,-0.18837,0.0,2023,6,7,18,5,38,717
51.06920,-0.02100,0.01120,0.00000,0.03123,0.97746,-0.19069,0.0,2023,6,7,18,5,38,728
51.06930,0.06650,-0.09380,0.00000,0.02965,0.97771,-0.18873,0.0,2023,6,7,18,5,38,740
51.06940,-0.14350,0.06370,0.00000,0.03111,0.97612,-0.18934,0.0,2023,6,7,18,5,38,751
51.06950,0.03150,-0.04130,0.00000,0.03196,0.97527,-0.18947,0.0,2023,6,7,18,5,38,762
51.06960,0.08400,0.01120,0.00000,0.03074,0.97588,-0.18959,0.0,2023,6,7,18,5,38,773
51.06970,0.03150,0.06370,0.00000,0.03135,0.97612,-0.18837,0.0,2023,6,7,18,5,38,785
51.06980,-0.12600,-0.09380,0.00000,0.03270,0.97563,-0.18947,0.0,2023,6,7,18,5,38,796
51.06990,0.25900,-0.02380,0.00000,0.03184,0.97661,-0.19032,0.0,2023,6,7,18,5,38,807
51.07000,-0.17850,0.01120,0.00000,0.03038,0.97649,-0.18898,0.0,2023,6,7,18,5,38,818
51.07010,0.15400,-0.12880,0.00000,0.02952,0.97563,-0.19215,0.0,2023,6,7,18,5,38,829
51.07020,-0.05600,-0.12880,0.00000,0.03367,0.97734,-0.18703,0.0,2023,6,7,18,5,38,841
51.07030,-0.05600,-0.14630,0.00000,0.03209,0.97441,-0.18788,0.0,2023,6,7,18,5,38,852
51.07040,-0.02100,-0.18130,0.00000,0.03087,0.97698,-0.19117,0.0,2023,6,7,18,5,38,863
51.07050,-0.05600,0.08120,0.00000,0.03062,0.97527,-0.18910,0.0,2023,6,7,18,5,38,874
51.07060,-0.24850,-0.07630,0.00000,0.03038,0.97258,-0.18581,0.0,2023,6,7,18,5,38,886
51.07070,0.03150,-0.23380,0.00000,0.02916,0.97612,-0.18764,0.0,2023,6,7,18,5,38,897
51.07080,-0.07350,-0.00630,0.00000,0.02940,0.97795,-0.18764,0.0,2023,6,7,18,5,38,908
51.07090,-0.00350,0.02870,0.00000,0.03038,0.97771,-0.18983,0.0,2023,6,7,18,5,38,919
51.07100,-0.03850,-0.05880,0.00000,0.03123,0.97795,-0.18849,0.0,2023,6,7,18,5,38,931
51.07110,-0.09100,-0.16380,0.00000,0.03294,0.97637,-0.18825,0.0,2023,6,7,18,5,38,942
