#2023/06/07 16:15:26
time,wx,wy,wz,ax,ay,az,yy,MM,dd,hh,mm,ss,ms
45.21450,0.20265,-0.07193,0.00000,0.03209,0.97539,-0.18910,0.0,2023,6,7,16,15,27,284
45.21460,-0.11235,-0.05443,0.00000,0.02952,0.97710,-0.18800,0.0,2023,6,7,16,15,27,294
45.21470,-0.12985,0.05057,0.00000,0.03001,0.97661,-0.18910,0.0,2023,6,7,16,15,27,304
45.21480,-0.07735,0.01557,0.00000,0.03087,0.97588,-0.18776,0.0,2023,6,7,16,15,27,314
45.21490,0.02765,0.12057,0.00000,0.03221,0.97771,-0.18898,0.0,2023,6,7,16,15,27,324
45.21500,-0.05985,-0.05443,0.00000,0.03001,0.97539,-0.18788,0.0,2023,6,7,16,15,27,334
45.21510,-0.05985,0.03307,0.00000,0.03196,0.97844,-0.18812,0.0,2023,6,7,16,15,27,344
45.21520,-0.07735,-0.07193,0.00000,0.03172,0.97661,-0.18800,0.0,2023,6,7,16,15,27,354
45.21530,0.01015,0.17307,0.00000,0.03026,0.97759,-0.19093,0.0,2023,6,7,16,15,27,364
45.21540,0.09765,-0.10693,0.00000,0.03111,0.97527,-0.19056,0.0,2023,6,7,16,15,27,374
45.21550,-0.11235,0.06807,0.00000,0.03087,0.97454,-0.19056,0.0,2023,6,7,16,15,27,384
45.21560,-0.04235,-0.00193,0.00000,0.03306,0.97588,-0.19008,0.0,2023,6,7,16,15,27,394
45.21570,-0.02485,0.19057,0.00000,0.03221,0.97710,-0.18825,0.0,2023,6,7,16,15,27,404
45.21580,0.11515,0.06807,0.00000,0.02977,0.97563,-0.18825,0.0,2023,6,7,16,15,27,414
45.21590,0.11515,-0.07193,0.00000,0.03148,0.97356,-0.18922,0.0,2023,6,7,16,15,27,424
45.21600,0.08015,0.20807,0.00000,0.02952,0.97563,-0.19020,0.0,2023,6,7,16,15,27,434
45.21610,-0.04235,0.03307,0.00000,0.03099,0.97722,-0.18715,0.0,2023,6,7,16,15,27,444
45.21620,0.18515,0.03307,0.00000,0.03135,0.97393,-0.19081,0.0,2023,6,7,16,15,27,454
45.21630,0.15015,0.05057,0.00000,0.03111,0.97612,-0.18654,0.0,2023,6,7,16,15,27,464
45.21640,-0.09485,0.06807,0.00000,0.03099,0.97649,-0.19069,0.0,2023,6,7,16,15,27,474
45.21650,0.11515,0.01557,0.00000,0.03026,0.97685,-0.18727,0.0,2023,6,7,16,15,27,484
45.21660,-0.02485,0.08557,0.00000,0.03026,0.97515,-0.18800,0.0,2023,6,7,16,15,27,494
45.21670,0.02765,0.08557,0.00000,0.03099,0.97722,-0.18751,0.0,2023,6,7,16,15,27,504
45.21680,-0.00735,0.03307,0.00000,0.03123,0.97966,-0.18837,0.0,2023,6,7,16,15,27,514
45.21690,0.09765,-0.08943,0.00000,0.03074,0.97637,-0.19056,0.0,2023,6,7,16,15,27,524
45.21700,0.09765,-0.14193,0.00000,0.03135,0.97734,-0.18995,0.0,2023,6,7,16,15,27,534
45.21710,-0.00735,0.05057,0.00000,0.02965,0.97710,-0.19069,0.0,2023,6,7,16,15,27,544
45.21720,-0.14735,-0.00193,0.00000,0.03099,0.97612,-0.18751,0.0,2023,6,7,16,15,27,554
45.21730,-0.09485,0.12057,0.00000,0.02867,0.97637,-0.18751,0.0,2023,6,7,16,15,27,564
45.21740,0.02765,0.08557,0.00000,0.03038,0.97624,-0.18764,0.0,2023,6,7,16,15,27,574
45.21750,-0.07735,0.01557,0.00000,0.03111,0.97771,-0.19069,0.0,2023,6,7,16,15,27,584
45.21760,0.06265,-0.03693,0.00000,0.03026,0.97881,-0.18873,0.0,2023,6,7,16,15,27,594
45.21770,0.15015,-0.24693,0.00000,0.02879,0.97490,-0.18715,0.0,2023,6,7,16,15,27,604
45.21780,0.16765,0.03307,0.00000,0.03111,0.97527,-0.18947,0.0,2023,6,7,16,15,27,614
45.21790,0.04515,0.05057,0.00000,0.02989,0.97539,-0.18678,0.0,2023,6,7,16,15,27,624
45.21800,-0.05985,0.08557,0.00000,0.03160,0.97551,-0.18446,0.0,2023,6,7,16,15,27,634
45.21810,0.09765,-0.00193,0.00000,0.03026,0.97698,-0.18873,0.0,2023,6,7,16,15,27,644
45.21820,-0.07735,0.03307,0.00000,0.03038,0.97868,-0.19056,0.0,2023,6,7,16,15,27,654
45.21830,0.06265,-0.05443,0.00000,0.03196,0.97673,-0.18886,0.0,2023,6,7,16,15,27,664
45.21840,0.01015,-0.03693,0.00000,0.02965,0.97637,-0.18593,0.0,2023,6,7,16,15,27,674
45.21850,0.01015,0.15557,0.00000,0.02940,0.97722,-0.18751,0.0,2023,6,7,16,15,27,684
45.21860,0.11515,0.13807,0.00000,0.03099,0.97649,-0.18776,0.0,2023,6,7,16,15,27,694
45.21870,0.18515,-0.14193,0.00000,0.03099,0.97698,-0.18629,0.0,2023,6,7,16,15,27,704
45.21880,-0.00735,0.17307,0.00000,0.03038,0.97795,-0.18873,0.0,2023,6,7,16,15,27,714
45.21890,-0.02485,0.29557,0.00000,0.03331,0.97429,-0.19044,0.0,2023,6,7,16,15,27,724
45.21900,-0.14735,-0.05443,0.00000,0.03111,0.97649,-0.18776,0.0,2023,6,7,16,15,27,734
45.21910,-0.14735,0.08557,0.00000,0.02940,0.97722,-0.18642,0.0,2023,6,7,16,15,27,744
45.21920,0.04515,-0.12443,0.00000,0.03123,0.97478,-0.18715,0.0,2023,6,7,16,15,27,754
45.21930,0.08015,0.12057,0.00000,0.03062,0.97649,-0.18629,0.0,2023,6,7,16,15,27,764
45.21940,0.01015,0.13807,0.00000,0.03013,0.97588,-0.18690,0.0,2023,6,7,16,15,27,774
45.21950,-0.12985,0.05057,0.00000,0.03160,0.97588,-0.18593,0.0,2023,6,7,16,15,27,784
45.21960,0.04515,0.01557,0.00000,0.03367,0.97478,-0.18593,0.0,2023,6,7,16,15,27,794
45.21970,-0.09485,0.01557,0.00000,0.03282,0.97600,-0.18886,0.0,2023,6,7,16,15,27,804
45.21980,-0.02485,-0.07193,0.00000,0.03221,0.97917,-0.18788,0.0,2023,6,7,16,15,27,814
45.21990,0.02765,0.10307,0.00000,0.03087,0.97795,-0.18898,0.0,2023,6,7,16,15,27,824
45.22000,0.04515,0.12057,0.00000,0.03062,0.97576,-0.18715,0.0,2023,6,7,16,15,27,834
45.22010,0.01015,0.12057,0.00000,0.03050,0.97844,-0.18800,0.0,2023,6,7,16,15,27,844
45.22020,-0.12985,0.13807,0.00000,0.02940,0.97405,-0.18837,0.0,2023,6,7,16,15,27,854
45.22030,-0.05985,0.29557,0.00000,0.03196,0.97759,-0.18739,0.0,2023,6,7,16,15,27,864
45.22040,0.09765,0.03307,0.00000,0.02940,0.97612,-0.18886,0.0,2023,6,7,16,15,27,874
45.22050,-0.02485,0.12057,0.00000,0.02867,0.97551,-0.18873,0.0,2023,6,7,16,15,27,884
45.22060,0.02765,-0.00193,0.00000,0.03087,0.97563,-0.18739,0.0,2023,6,7,16,15,28,4
45.22070,-0.05985,0.12057,0.00000,0.03282,0.97515,-0.18593,0.0,2023,6,7,16,15,28,14
45.22080,-0.02485,-0.03693,0.00000,0.03196,0.97734,-0.18922,0.0,2023,6,7,16,15,28,24
45.22090,0.04515,-0.01943,0.00000,0.03099,0.97649,-0.18459,0.0,2023,6,7,16,15,28,34
45.22100,-0.04235,0.10307,0.00000,0.03221,0.97527,-0.18715,0.0,2023,6,7,16,15,28,44
45.22110,-0.11235,0.06807,0.00000,0.03294,0.97734,-0.18776,0.0,2023,6,7,16,15,28,54
45.22120,0.02765,-0.12443,0.00000,0.03221,0.97612,-0.18837,0.0,2023,6,7,16,15,28,64
45.22130,0.09765,-0.12443,0.00000,0.03209,0.97539,-0.18764,0.0,2023,6,7,16,15,28,74
45.22140,-0.19985,-0.07193,0.00000,0.03343,0.97649,-0.18886,0.0,2023,6,7,16,15,28,84
45.22150,0.11515,-0.03693,0.00000,0.02904,0.97685,-0.18654,0.0,2023,6,7,16,15,28,94
45.22160,0.13265,-0.17693,0.00000,0.02818,0.97637,-0.18654,0.0,2023,6,7,16,15,28,104
45.22170,-0.11235,0.27807,0.00000,0.03099,0.97368,-0.18934,0.0,2023,6,7,16,15,28,114
45.22180,-0.21735,-0.10693,0.00000,0.03135,0.97649,-0.18739,0.0,2023,6,7,16,15,28,124
45.22190,0.09765,-0.08943,0.00000,0.03148,0.97856,-0.18507,0.0,2023,6,7,16,15,28,134
45.22200,0.08015,-0.10693,0.00000,0.03184,0.97710,-0.18337,0.0,2023,6,7,16,15,28,144
45.22210,-0.05985,0.27807,0.00000,0.03001,0.97551,-0.18776,0.0,2023,6,7,16,15,28,154
45.22220,0.02765,0.03307,0.00000,0.03038,0.97515,-0.18666,0.0,2023,6,7,16,15,28,164
45.22230,-0.07735,0.06807,0.00000,0.03087,0.97734,-0.18544,0.0,2023,6,7,16,15,28,174
45.22240,0.01015,-0.01943,0.00000,0.02965,0.98125,-0.18642,0.0,2023,6,7,16,15,28,184
45.22250,0.20265,-0.05443,0.00000,0.03233,0.97649,-0.18764,0.0,2023,6,7,16,15,28,194
45.22260,-0.09485,0.06807,0.00000,0.03087,0.97576,-0.18678,0.0,2023,6,7,16,15,28,204
45.22270,-0.07735,0.05057,0.00000,0.03221,0.97649,-0.18568,0.0,2023,6,7,16,15,28,214
45.22280,-0.02485,-0.14193,0.00000,0.02891,0.97563,-0.18690,0.0,2023,6,7,16,15,28,224
45.22290,0.02765,-0.08943,0.00000,0.03160,0.97612,-0.18581,0.0,2023,6,7,16,15,28,234
45.22300,0.13265,0.05057,0.00000,0.03135,0.97661,-0.18812,0.0,2023,6,7,16,15,28,244
45.22310,-0.04235,0.15557,0.00000,0.03172,0.97698,-0.18690,0.0,2023,6,7,16,15,28,254
45.22320,0.04515,0.05057,0.00000,0.03184,0.97649,-0.18690,0.0,2023,6,7,16,15,28,264
45.22330,-0.02485,-0.17693,0.00000,0.03123,0.97624,-0.18678,0.0,2023,6,7,16,15,28,274
45.22340,0.04515,0.06807,0.00000,0.03184,0.97722,-0.18703,0.0,2023,6,7,16,15,28,284
45.22350,0.23765,0.06807,0.00000,0.03050,0.97441,-0.19020,0.0,2023,6,7,16,15,28,294
45.22360,0.22015,-0.01943,0.00000,0.03087,0.97624,-0.18812,0.0,2023,6,7,16,15,28,304
45.22370,-0.02485,0.10307,0.00000,0.03209,0.97600,-0.18898,0.0,2023,6,7,16,15,28,314
45.22380,0.04515,-0.07193,0.00000,0.03184,0.97490,-0.18544,0.0,2023,6,7,16,15,28,324
45.22390,-0.07735,0.06807,0.00000,0.03245,0.97563,-0.18410,0.0,2023,6,7,16,15,28,334
45.22400,0.02765,-0.00193,0.00000,0.02940,0.97698,-0.18678,0.0,2023,6,7,16,15,28,344
45.22410,0.01015,0.13807,0.00000,0.03172,0.97771,-0.18703,0.0,2023,6,7,16,15,28,354
45.22420,0.11515,0.06807,0.00000,0.03160,0.97380,-0.18703,0.0,2023,6,7,16,15,28,364
45.22430,0.20265,-0.12443,0.00000,0.02940,0.97515,-0.18666,0.0,2023,6,7,16,15,28,374
45.22440,0.01015,-0.10693,0.00000,0.03099,0.97710,-0.18690,0.0,2023,6,7,16,15,28,384
45.22450,-0.05985,-0.03693,0.00000,0.03123,0.97515,-0.18764,0.0,2023,6,7,16,15,28,394
45.22460,-0.05985,0.01557,0.00000,0.03087,0.97759,-0.18568,0.0,2023,6,7,16,15,28,404
45.22470,-0.09485,-0.19443,0.00000,0.03123,0.97551,-0.18788,0.0,2023,6,7,16,15,28,414
45.22480,0.04515,-0.08943,0.00000,0.03318,0.97612,-0.18861,0.0,2023,6,7,16,15,28,424
45.22490,0.02765,-0.26443,0.00000,0.03245,0.97722,-0.18434,0.0,2023,6,7,16,15,28,434
45.22500,0.02765,-0.01943,0.00000,0.03135,0.97539,-0.18471,0.0,2023,6,7,16,15,28,444
45.22510,-0.12985,-0.01943,0.00000,0.03001,0.97868,-0.18507,0.0,2023,6,7,16,15,28,454
45.22520,-0.18235,0.29557,0.00000,0.03123,0.97527,-0.18703,0.0,2023,6,7,16,15,28,464
45.22530,0.11515,-0.14193,0.00000,0.03135,0.97722,-0.18739,0.0,2023,6,7,16,15,28,474
45.22540,-0.04235,0.22557,0.00000,0.03245,0.97649,-0.18800,0.0,2023,6,7,16,15,28,484
45.22550,-0.04235,0.19057,0.00000,0.03050,0.97673,-0.18727,0.0,2023,6,7,16,15,28,494
45.22560,-0.00735,-0.12443,0.00000,0.03209,0.97771,-0.18495,0.0,2023,6,7,16,15,28,504
45.22570,-0.09485,0.13807,0.00000,0.03062,0.97539,-0.18788,0.0,2023,6,7,16,15,28,514
45.22580,0.04515,-0.29943,0.00000,0.03233,0.97515,-0.18703,0.0,2023,6,7,16,15,28,524
45.22590,-0.02485,0.08557,0.00000,0.03135,0.97307,-0.18617,0.0,2023,6,7,16,15,28,534
45.22600,0.08015,-0.08943,0.00000,0.03282,0.97673,-0.18910,0.0,2023,6,7,16,15,28,544
45.22610,-0.12985,0.06807,0.00000,0.03160,0.97868,-0.18312,0.0,2023,6,7,16,15,28,554
45.22620,-0.09485,0.03307,0.00000,0.03172,0.97673,-0.18715,0.0,2023,6,7,16,15,28,564
45.22630,-0.02485,0.13807,0.00000,0.03428,0.97466,-0.18703,0.0,2023,6,7,16,15,28,574
45.22640,-0.07735,0.05057,0.00000,0.03233,0.97722,-0.18678,0.0,2023,6,7,16,15,28,584
45.22650,-0.05985,0.05057,0.00000,0.03062,0.97539,-0.18873,0.0,2023,6,7,16,15,28,594
45.22660,0.01015,-0.07193,0.00000,0.03135,0.97649,-0.18751,0.0,2023,6,7,16,15,28,604
45.22670,-0.07735,-0.01943,0.00000,0.03221,0.97771,-0.18678,0.0,2023,6,7,16,15,28,614
45.22680,-0.09485,-0.00193,0.00000,0.03123,0.97637,-0.18666,0.0,2023,6,7,16,15,28,624
45.22690,0.06265,0.10307,0.00000,0.02904,0.97661,-0.18837,0.0,2023,6,7,16,15,28,634
45.22700,0.18515,-0.01943,0.00000,0.02977,0.97515,-0.18666,0.0,2023,6,7,16,15,28,644
45.22710,-0.00735,-0.08943,0.00000,0.03026,0.97832,-0.18715,0.0,2023,6,7,16,15,28,654
45.22720,0.02765,0.03307,0.00000,0.03050,0.97746,-0.18825,0.0,2023,6,7,16,15,28,664
45.22730,0.09765,0.03307,0.00000,0.02977,0.97600,-0.18812,0.0,2023,6,7,16,15,28,674
45.22740,0.13265,0.06807,0.00000,0.02977,0.97673,-0.18886,0.0,2023,6,7,16,15,28,684
45.22750,0.20265,0.03307,0.00000,0.03209,0.97685,-0.18910,0.0,2023,6,7,16,15,28,694
45.22760,-0.02485,0.06807,0.00000,0.03489,0.97673,-0.18263,0.0,2023,6,7,16,15,28,704
45.22770,-0.18235,0.13807,0.00000,0.03331,0.97832,-0.18739,0.0,2023,6,7,16,15,28,714
45.22780,-0.19985,0.22557,0.00000,0.03062,0.97612,-0.18703,0.0,2023,6,7,16,15,28,724
45.22790,0.08015,0.06807,0.00000,0.03282,0.97820,-0.18995,0.0,2023,6,7,16,15,28,734
45.22800,0.11515,-0.10693,0.00000,0.02965,0.97661,-0.18727,0.0,2023,6,7,16,15,28,744
45.22810,0.11515,0.08557,0.00000,0.03221,0.97429,-0.18849,0.0,2023,6,7,16,15,28,754
45.22820,-0.16485,0.20807,0.00000,0.03123,0.97588,-0.18788,0.0,2023,6,7,16,15,28,764
45.22830,0.37765,0.01557,0.00000,0.02928,0.97612,-0.18971,0.0,2023,6,7,16,15,28,774
45.22840,-0.02485,0.17307,0.00000,0.03013,0.97637,-0.18837,0.0,2023,6,7,16,15,28,784
45.22850,0.02765,0.01557,0.00000,0.03087,0.97502,-0.18873,0.0,2023,6,7,16,15,28,794
45.22860,-0.02485,0.13807,0.00000,0.03038,0.97795,-0.18776,0.0,2023,6,7,16,15,28,804
45.22870,-0.25235,0.13807,0.00000,0.02952,0.97746,-0.18642,0.0,2023,6,7,16,15,28,814
45.22880,0.02765,0.05057,0.00000,0.02940,0.97612,-0.18959,0.0,2023,6,7,16,15,28,824
45.22890,-0.02485,-0.01943,0.00000,0.03099,0.97612,-0.18776,0.0,2023,6,7,16,15,28,834
45.22900,-0.14735,0.15557,0.00000,0.03062,0.97856,-0.18727,0.0,2023,6,7,16,15,28,844
45.22910,-0.14735,-0.05443,0.00000,0.03099,0.97624,-0.18678,0.0,2023,6,7,16,15,28,854
45.22920,-0.09485,0.19057,0.00000,0.03087,0.97478,-0.18764,0.0,2023,6,7,16,15,28,864
45.22930,-0.04235,-0.08943,0.00000,0.03148,0.97734,-0.18581,0.0,2023,6,7,16,15,28,874
45.22940,0.13265,0.03307,0.00000,0.02965,0.97795,-0.18751,0.0,2023,6,7,16,15,28,884
45.22950,0.04515,0.10307,0.00000,0.03062,0.97637,-0.18446,0.0,2023,6,7,16,15,29,4
45.22960,-0.16485,0.08557,0.00000,0.03294,0.97783,-0.18593,0.0,2023,6,7,16,15,29,14
45.22970,0.08015,-0.29943,0.00000,0.03148,0.97722,-0.18776,0.0,2023,6,7,16,15,29,24
45.22980,0.01015,0.15557,0.00000,0.03001,0.97661,-0.18837,0.0,2023,6,7,16,15,29,34
45.22990,0.11515,-0.05443,0.00000,0.03013,0.97820,-0.18947,0.0,2023,6,7,16,15,29,44
45.23000,0.20265,0.05057,0.00000,0.02965,0.97539,-0.18666,0.0,2023,6,7,16,15,29,54
45.23010,-0.07735,-0.07193,0.00000,0.02952,0.97576,-0.18764,0.0,2023,6,7,16,15,29,64
45.23020,-0.11235,-0.05443,0.00000,0.02891,0.97637,-0.18825,0.0,2023,6,7,16,15,29,74
45.23030,-0.05985,0.19057,0.00000,0.03221,0.97637,-0.18605,0.0,2023,6,7,16,15,29,84
45.23040,-0.04235,-0.26443,0.00000,0.03099,0.97637,-0.18800,0.0,2023,6,7,16,15,29,94
45.23050,0.08015,-0.05443,0.00000,0.03331,0.97637,-0.18837,0.0,2023,6,7,16,15,29,104
45.23060,0.04515,0.01557,0.00000,0.03038,0.97576,-0.18556,0.0,2023,6,7,16,15,29,114
45.23070,0.15015,-0.05443,0.00000,0.02965,0.97844,-0.18751,0.0,2023,6,7,16,15,29,124
45.23080,0.02765,-0.10693,0.00000,0.03050,0.97539,-0.18825,0.0,2023,6,7,16,15,29,134
45.23090,0.02765,-0.12443,0.00000,0.03257,0.97917,-0.18751,0.0,2023,6,7,16,15,29,144
45.23100,-0.14735,-0.12443,0.00000,0.02928,0.97490,-0.18947,0.0,2023,6,7,16,15,29,154
45.23110,0.09765,-0.01943,0.00000,0.03099,0.97734,-0.18703,0.0,2023,6,7,16,15,29,164
45.23120,0.13265,-0.01943,0.00000,0.03245,0.97685,-0.18703,0.0,2023,6,7,16,15,29,174
45.23130,-0.00735,0.01557,0.00000,0.03099,0.97698,-0.18654,0.0,2023,6,7,16,15,29,184
45.23140,0.11515,-0.10693,0.00000,0.03221,0.97698,-0.19044,0.0,2023,6,7,16,15,29,194
45.23150,0.06265,-0.08943,0.00000,0.03050,0.97551,-0.18849,0.0,2023,6,7,16,15,29,204
45.23160,0.08015,-0.01943,0.00000,0.03123,0.97612,-0.18947,0.0,2023,6,7,16,15,29,214
45.23170,0.18515,-0.17693,0.00000,0.02977,0.97710,-0.18751,0.0,2023,6,7,16,15,29,224
45.23180,0.02765,-0.01943,0.00000,0.03074,0.97685,-0.18861,0.0,2023,6,7,16,15,29,234
45.23190,0.13265,0.13807,0.00000,0.03038,0.97710,-0.19093,0.0,2023,6,7,16,15,29,244
45.23200,0.02765,-0.12443,0.00000,0.03172,0.97563,-0.18678,0.0,2023,6,7,16,15,29,254
45.23210,-0.23485,-0.03693,0.00000,0.03111,0.97454,-0.18532,0.0,2023,6,7,16,15,29,264
45.23220,-0.18235,0.01557,0.00000,0.03001,0.97563,-0.18849,0.0,2023,6,7,16,15,29,274
45.23230,0.02765,-0.12443,0.00000,0.03001,0.97746,-0.18910,0.0,2023,6,7,16,15,29,284
45.23240,-0.04235,-0.10693,0.00000,0.03050,0.97539,-0.18873,0.0,2023,6,7,16,15,29,294
45.23250,0.15015,-0.01943,0.00000,0.03148,0.97746,-0.18776,0.0,2023,6,7,16,15,29,304
45.23260,0.11515,0.01557,0.00000,0.03062,0.97710,-0.18764,0.0,2023,6,7,16,15,29,314
45.23270,-0.02485,0.05057,0.00000,0.03135,0.97771,-0.18654,0.0,2023,6,7,16,15,29,324
45.23280,0.02765,0.03307,0.00000,0.03013,0.97844,-0.18959,0.0,2023,6,7,16,15,29,334
45.23290,0.13265,-0.07193,0.00000,0.03172,0.97759,-0.18788,0.0,2023,6,7,16,15,29,344
45.23300,0.15015,0.10307,0.00000,0.03355,0.97612,-0.18971,0.0,2023,6,7,16,15,29,354
45.23310,-0.00735,0.08557,0.00000,0.03257,0.97698,-0.18861,0.0,2023,6,7,16,15,29,364
45.23320,-0.11235,0.15557,0.00000,0.03087,0.97820,-0.18849,0.0,2023,6,7,16,15,29,374
45.23330,0.04515,0.05057,0.00000,0.03343,0.97783,-0.18568,0.0,2023,6,7,16,15,29,384
45.23340,-0.30485,0.12057,0.00000,0.02904,0.97576,-0.18483,0.0,2023,6,7,16,15,29,394
45.23350,0.01015,0.10307,0.00000,0.03270,0.97624,-0.18764,0.0,2023,6,7,16,15,29,404
45.23360,0.09765,0.05057,0.00000,0.03221,0.97612,-0.18873,0.0,2023,6,7,16,15,29,414
45.23370,-0.00735,0.19057,0.00000,0.03074,0.97393,-0.18520,0.0,2023,6,7,16,15,29,424
45.23380,0.09765,-0.00193,0.00000,0.03111,0.97624,-0.18739,0.0,2023,6,7,16,15,29,434
45.23390,0.13265,0.01557,0.00000,0.03221,0.97527,-0.18678,0.0,2023,6,7,16,15,29,444
45.23400,-0.09485,0.01557,0.00000,0.02855,0.97515,-0.18983,0.0,2023,6,7,16,15,29,454
45.23410,-0.00735,-0.26443,0.00000,0.03209,0.97795,-0.18825,0.0,2023,6,7,16,15,29,464
45.23420,-0.39235,0.01557,0.00000,0.03001,0.97685,-0.18446,0.0,2023,6,7,16,15,29,474
45.23430,-0.30485,-0.03693,0.00000,0.03196,0.97563,-0.18934,0.0,2023,6,7,16,15,29,484
45.23440,0.01015,0.05057,0.00000,0.03087,0.97637,-0.19069,0.0,2023,6,7,16,15,29,494
45.23450,0.08015,-0.01943,0.00000,0.03270,0.97600,-0.18666,0.0,2023,6,7,16,15,29,504
45.23460,0.06265,-0.03693,0.00000,0.03099,0.97661,-0.18605,0.0,2023,6,7,16,15,29,514
45.23470,-0.07735,0.08557,0.00000,0.03001,0.97746,-0.18788,0.0,2023,6,7,16,15,29,524
45.23480,0.08015,-0.05443,0.00000,0.03196,0.97588,-0.18471,0.0,2023,6,7,16,15,29,534
45.23490,-0.14735,-0.07193,0.00000,0.02904,0.97551,-0.18727,0.0,2023,6,7,16,15,29,544
45.23500,0.16765,-0.07193,0.00000,0.03245,0.97539,-0.18886,0.0,2023,6,7,16,15,29,554
45.23510,-0.16485,0.19057,0.00000,0.03306,0.97588,-0.18678,0.0,2023,6,7,16,15,29,564
45.23520,0.13265,-0.03693,0.00000,0.02989,0.97612,-0.18776,0.0,2023,6,7,16,15,29,574
45.23530,0.15015,-0.08943,0.00000,0.02965,0.97649,-0.18971,0.0,2023,6,7,16,15,29,584
45.23540,0.11515,-0.03693,0.00000,0.02891,0.97820,-0.18995,0.0,2023,6,7,16,15,29,594
45.23550,0.09765,-0.00193,0.00000,0.03013,0.97588,-0.18727,0.0,2023,6,7,16,15,29,604
45.23560,0.01015,0.17307,0.00000,0.03111,0.97600,-0.18886,0.0,2023,6,7,16,15,29,614
45.23570,-0.00735,0.13807,0.00000,0.03233,0.97466,-0.18776,0.0,2023,6,7,16,15,29,624
45.23580,-0.02485,0.19057,0.00000,0.02928,0.97466,-0.18764,0.0,2023,6,7,16,15,29,634
45.23590,-0.09485,-0.01943,0.00000,0.03331,0.97917,-0.18800,0.0,2023,6,7,16,15,29,644
45.23600,-0.16485,0.01557,0.00000,0.03209,0.97698,-0.18459,0.0,2023,6,7,16,15,29,654
45.23610,-0.02485,0.10307,0.00000,0.03245,0.97771,-0.19008,0.0,2023,6,7,16,15,29,664
45.23620,0.15015,0.05057,0.00000,0.02916,0.97600,-0.18983,0.0,2023,6,7,16,15,29,674
45.23630,-0.16485,0.10307,0.00000,0.03026,0.97759,-0.18605,0.0,2023,6,7,16,15,29,684
45.23640,0.02765,-0.03693,0.00000,0.03001,0.97612,-0.18617,0.0,2023,6,7,16,15,29,694
45.23650,-0.04235,0.03307,0.00000,0.03123,0.97551,-0.18825,0.0,2023,6,7,16,15,29,704
45.23660,0.16765,0.05057,0.00000,0.03221,0.97661,-0.18715,0.0,2023,6,7,16,15,29,714
45.23670,0.02765,0.03307,0.00000,0.03148,0.97710,-0.18849,0.0,2023,6,7,16,15,29,724
45.23680,0.02765,0.12057,0.00000,0.03087,0.97685,-0.18276,0.0,2023,6,7,16,15,29,734
45.23690,-0.14735,-0.12443,0.00000,0.02977,0.97771,-0.18739,0.0,2023,6,7,16,15,29,744
45.23700,0.18515,0.19057,0.00000,0.03245,0.97661,-0.18776,0.0,2023,6,7,16,15,29,754
45.23710,-0.14735,0.08557,0.00000,0.03038,0.97466,-0.18581,0.0,2023,6,7,16,15,29,764
45.23720,0.16765,-0.07193,0.00000,0.02952,0.97673,-0.18727,0.0,2023,6,7,16,15,29,774
45.23730,0.01015,-0.00193,0.00000,0.03270,0.97612,-0.18629,0.0,2023,6,7,16,15,29,784
45.23740,-0.39235,0.12057,0.00000,0.03245,0.97600,-0.18617,0.0,2023,6,7,16,15,29,794
45.23750,0.01015,0.24307,0.00000,0.03087,0.97832,-0.18873,0.0,2023,6,7,16,15,29,804
45.23760,-0.11235,0.24307,0.00000,0.03282,0.97454,-0.18471,0.0,2023,6,7,16,15,29,814
45.23770,-0.21735,0.13807,0.00000,0.03367,0.97624,-0.18556,0.0,2023,6,7,16,15,29,824
45.23780,-0.02485,0.13807,0.00000,0.03001,0.97612,-0.18837,0.0,2023,6,7,16,15,29,834
45.23790,-0.11235,0.01557,0.00000,0.03026,0.97649,-0.18788,0.0,2023,6,7,16,15,29,844
45.23800,-0.07735,0.19057,0.00000,0.02867,0.97734,-0.18605,0.0,2023,6,7,16,15,29,854
45.23810,-0.00735,0.29557,0.00000,0.03111,0.97515,-0.18861,0.0,2023,6,7,16,15,29,864
45.23820,-0.02485,0.06807,0.00000,0.03306,0.97563,-0.18886,0.0,2023,6,7,16,15,29,874
45.23830,-0.07735,-0.07193,0.00000,0.02928,0.97673,-0.18727,0.0,2023,6,7,16,15,29,884
45.23840,0.16765,-0.07193,0.00000,0.03074,0.97612,-0.18812,0.0,2023,6,7,16,15,29,894
45.23850,0.13265,-0.17693,0.00000,0.03160,0.97759,-0.18532,0.0,2023,6,7,16,15,30,4
45.23860,-0.05985,-0.12443,0.00000,0.03379,0.97502,-0.18398,0.0,2023,6,7,16,15,30,14
45.23870,0.09765,0.06807,0.00000,0.03148,0.97832,-0.18593,0.0,2023,6,7,16,15,30,24
45.23880,0.04515,-0.01943,0.00000,0.03221,0.97490,-0.18886,0.0,2023,6,7,16,15,30,34
45.23890,-0.00735,-0.05443,0.00000,0.02989,0.97685,-0.18837,0.0,2023,6,7,16,15,30,44
45.23900,0.01015,0.06807,0.00000,0.03038,0.97807,-0.18568,0.0,2023,6,7,16,15,30,54
45.23910,0.02765,-0.03693,0.00000,0.02977,0.97832,-0.18605,0.0,2023,6,7,16,15,30,64
45.23920,0.09765,0.08557,0.00000,0.02965,0.97588,-0.18581,0.0,2023,6,7,16,15,30,74
45.23930,0.08015,0.03307,0.00000,0.03062,0.97649,-0.18629,0.0,2023,6,7,16,15,30,84
45.23940,0.04515,-0.12443,0.00000,0.03087,0.97685,-0.18825,0.0,2023,6,7,16,15,30,94
45.23950,0.13265,-0.10693,0.00000,0.02940,0.97710,-0.18812,0.0,2023,6,7,16,15,30,104
45.23960,0.20265,-0.10693,0.00000,0.03062,0.97661,-0.18666,0.0,2023,6,7,16,15,30,114
45.23970,0.09765,-0.05443,0.00000,0.03270,0.97539,-0.18483,0.0,2023,6,7,16,15,30,124
45.23980,0.13265,-0.24693,0.00000,0.03148,0.97710,-0.18837,0.0,2023,6,7,16,15,30,134
45.23990,-0.05985,0.01557,0.00000,0.03221,0.97588,-0.18727,0.0,2023,6,7,16,15,30,144
45.24000,-0.09485,0.06807,0.00000,0.03160,0.97649,-0.18532,0.0,2023,6,7,16,15,30,154
45.24010,-0.04235,-0.05443,0.00000,0.03209,0.97795,-0.18727,0.0,2023,6,7,16,15,30,164
45.24020,-0.16485,-0.00193,0.00000,0.03111,0.97929,-0.18873,0.0,2023,6,7,16,15,30,174
45.24030,0.08015,-0.03693,0.00000,0.03074,0.97795,-0.18898,0.0,2023,6,7,16,15,30,184
45.24040,0.18515,0.05057,0.00000,0.03160,0.97490,-0.18703,0.0,2023,6,7,16,15,30,194
45.24050,0.08015,0.12057,0.00000,0.03221,0.97466,-0.18581,0.0,2023,6,7,16,15,30,204
45.24060,0.15015,-0.10693,0.00000,0.03148,0.97563,-0.18629,0.0,2023,6,7,16,15,30,214
45.24070,-0.00735,0.10307,0.00000,0.03172,0.97698,-0.18678,0.0,2023,6,7,16,15,30,224
45.24080,-0.00735,0.01557,0.00000,0.03087,0.97551,-0.18825,0.0,2023,6,7,16,15,30,234
45.24090,0.06265,0.05057,0.00000,0.03074,0.97600,-0.18678,0.0,2023,6,7,16,15,30,244
45.24100,0.20265,0.01557,0.00000,0.03062,0.97624,-0.18678,0.0,2023,6,7,16,15,30,254
45.24110,-0.02485,-0.14193,0.00000,0.02989,0.97917,-0.18825,0.0,2023,6,7,16,15,30,264
45.24120,0.08015,0.06807,0.00000,0.03257,0.97759,-0.18690,0.0,2023,6,7,16,15,30,274
45.24130,-0.12985,0.03307,0.00000,0.03148,0.97649,-0.18690,0.0,2023,6,7,16,15,30,284
45.24140,-0.09485,-0.08943,0.00000,0.02977,0.97917,-0.18788,0.0,2023,6,7,16,15,30,294
45.24150,0.01015,0.01557,0.00000,0.03148,0.97649,-0.18800,0.0,2023,6,7,16,15,30,304
45.24160,-0.14735,0.06807,0.00000,0.03001,0.97624,-0.18666,0.0,2023,6,7,16,15,30,314
45.24170,-0.05985,-0.00193,0.00000,0.03440,0.97588,-0.18532,0.0,2023,6,7,16,15,30,324
45.24180,0.15015,0.05057,0.00000,0.03123,0.97649,-0.18776,0.0,2023,6,7,16,15,30,334
45.24190,0.06265,-0.01943,0.00000,0.03001,0.97478,-0.18788,0.0,2023,6,7,16,15,30,344
45.24200,-0.04235,0.13807,0.00000,0.03209,0.97759,-0.18715,0.0,2023,6,7,16,15,30,354
45.24210,0.04515,-0.08943,0.00000,0.03257,0.97661,-0.18715,0.0,2023,6,7,16,15,30,364
45.24220,-0.12985,0.15557,0.00000,0.03282,0.97576,-0.18507,0.0,2023,6,7,16,15,30,374
45.24230,-0.02485,0.12057,0.00000,0.03196,0.97417,-0.18849,0.0,2023,6,7,16,15,30,384
45.24240,-0.05985,0.01557,0.00000,0.03172,0.97637,-0.18886,0.0,2023,6,7,16,15,30,394
45.24250,-0.00735,0.03307,0.00000,0.02989,0.97929,-0.18751,0.0,2023,6,7,16,15,30,404
45.24260,-0.05985,0.20807,0.00000,0.03038,0.97539,-0.18727,0.0,2023,6,7,16,15,30,414
45.24270,0.04515,0.03307,0.00000,0.03087,0.97624,-0.18532,0.0,2023,6,7,16,15,30,424
45.24280,-0.02485,0.06807,0.00000,0.03160,0.97820,-0.18593,0.0,2023,6,7,16,15,30,434
45.24290,-0.07735,0.05057,0.00000,0.03257,0.97722,-0.18788,0.0,2023,6,7,16,15,30,444
45.24300,-0.04235,0.15557,0.00000,0.03257,0.97624,-0.18727,0.0,2023,6,7,16,15,30,454
45.24310,-0.04235,-0.01943,0.00000,0.03123,0.97466,-0.18495,0.0,2023,6,7,16,15,30,464
45.24320,-0.00735,-0.00193,0.00000,0.02965,0.97661,-0.18825,0.0,2023,6,7,16,15,30,474
45.24330,0.16765,0.15557,0.00000,0.03111,0.97624,-0.18593,0.0,2023,6,7,16,15,30,484
45.24340,0.08015,0.10307,0.00000,0.03172,0.97588,-0.18861,0.0,2023,6,7,16,15,30,494
45.24350,0.18515,-0.10693,0.00000,0.03123,0.97856,-0.18581,0.0,2023,6,7,16,15,30,504
45.24360,-0.26985,-0.05443,0.00000,0.03392,0.97454,-0.18471,0.0,2023,6,7,16,15,30,514
45.24370,-0.09485,0.08557,0.00000,0.03148,0.97710,-0.18764,0.0,2023,6,7,16,15,30,524
45.24380,0.13265,0.26057,0.00000,0.02977,0.97551,-0.18727,0.0,2023,6,7,16,15,30,534
45.24390,0.02765,-0.15943,0.00000,0.03270,0.97624,-0.18593,0.0,2023,6,7,16,15,30,544
45.24400,-0.18235,0.05057,0.00000,0.03148,0.97722,-0.18544,0.0,2023,6,7,16,15,30,554
45.24410,0.09765,0.06807,0.00000,0.03001,0.97856,-0.18605,0.0,2023,6,7,16,15,30,564
45.24420,-0.02485,0.08557,0.00000,0.03062,0.97856,-0.18739,0.0,2023,6,7,16,15,30,574
45.24430,-0.12985,0.05057,0.00000,0.03294,0.97685,-0.18849,0.0,2023,6,7,16,15,30,584
45.24440,-0.05985,-0.00193,0.00000,0.02940,0.97624,-0.18837,0.0,2023,6,7,16,15,30,594
45.24450,-0.05985,-0.19443,0.00000,0.03270,0.97624,-0.18532,0.0,2023,6,7,16,15,30,604
45.24460,-0.14735,0.01557,0.00000,0.03331,0.97649,-0.18703,0.0,2023,6,7,16,15,30,614
45.24470,0.02765,-0.28193,0.00000,0.03196,0.97771,-0.18837,0.0,2023,6,7,16,15,30,624
45.24480,-0.04235,0.03307,0.00000,0.03038,0.97783,-0.18751,0.0,2023,6,7,16,15,30,634
45.24490,-0.12985,-0.03693,0.00000,0.03245,0.97515,-0.18568,0.0,2023,6,7,16,15,30,644
45.24500,0.23765,0.06807,0.00000,0.03074,0.97637,-0.18581,0.0,2023,6,7,16,15,30,654
45.24510,0.02765,-0.05443,0.00000,0.02916,0.97856,-0.18715,0.0,2023,6,7,16,15,30,664
45.24520,0.13265,0.17307,0.00000,0.03196,0.97844,-0.18642,0.0,2023,6,7,16,15,30,674
45.24530,0.15015,0.05057,0.00000,0.03221,0.97649,-0.19044,0.0,2023,6,7,16,15,30,684
45.24540,0.09765,0.06807,0.00000,0.02867,0.97759,-0.18483,0.0,2023,6,7,16,15,30,694
45.24550,0.15015,-0.14193,0.00000,0.03233,0.97551,-0.18629,0.0,2023,6,7,16,15,30,704
45.24560,-0.02485,-0.07193,0.00000,0.03270,0.97685,-0.18605,0.0,2023,6,7,16,15,30,714
45.24570,0.13265,0.01557,0.00000,0.03001,0.97685,-0.18764,0.0,2023,6,7,16,15,30,724
45.24580,0.02765,0.05057,0.00000,0.03087,0.97539,-0.18642,0.0,2023,6,7,16,15,30,734
45.24590,-0.04235,0.12057,0.00000,0.03294,0.97661,-0.18642,0.0,2023,6,7,16,15,30,744
45.24600,-0.07735,0.08557,0.00000,0.03257,0.97832,-0.18812,0.0,2023,6,7,16,15,30,754
45.24610,0.06265,-0.07193,0.00000,0.03050,0.97881,-0.18690,0.0,2023,6,7,16,15,30,764
45.24620,0.16765,-0.10693,0.00000,0.03001,0.97795,-0.18703,0.0,2023,6,7,16,15,30,774
45.24630,-0.12985,0.15557,0.00000,0.03087,0.97490,-0.18568,0.0,2023,6,7,16,15,30,784
45.24640,0.06265,-0.12443,0.00000,0.03148,0.97539,-0.18654,0.0,2023,6,7,16,15,30,794
45.24650,0.13265,-0.05443,0.00000,0.03087,0.97844,-0.18873,0.0,2023,6,7,16,15,30,804
45.24660,-0.18235,0.15557,0.00000,0.03123,0.97868,-0.18690,0.0,2023,6,7,16,15,30,814
45.24670,-0.00735,-0.01943,0.00000,0.03062,0.97417,-0.18556,0.0,2023,6,7,16,15,30,824
45.24680,-0.05985,-0.08943,0.00000,0.03172,0.97588,-0.18532,0.0,2023,6,7,16,15,30,834
45.24690,-0.02485,0.06807,0.00000,0.03221,0.97612,-0.18617,0.0,2023,6,7,16,15,30,844
45.24700,-0.00735,-0.03693,0.00000,0.03245,0.97722,-0.18544,0.0,2023,6,7,16,15,30,854
45.24710,0.09765,0.26057,0.00000,0.03270,0.97515,-0.18568,0.0,2023,6,7,16,15,30,864
45.24720,-0.39235,0.05057,0.00000,0.03135,0.97734,-0.18898,0.0,2023,6,7,16,15,30,874
45.24730,-0.02485,0.12057,0.00000,0.03160,0.97502,-0.18666,0.0,2023,6,7,16,15,30,884
45.24740,-0.00735,0.15557,0.00000,0.03172,0.97454,-0.18666,0.0,2023,6,7,16,15,30,894
45.24750,0.01015,0.03307,0.00000,0.03099,0.97820,-0.18568,0.0,2023,6,7,16,15,31,4
45.24760,-0.09485,0.10307,0.00000,0.03111,0.97771,-0.18581,0.0,2023,6,7,16,15,31,14
45.24770,0.02765,0.03307,0.00000,0.03392,0.97661,-0.18471,0.0,2023,6,7,16,15,31,24
45.24780,-0.09485,0.06807,0.00000,0.03318,0.97612,-0.18715,0.0,2023,6,7,16,15,31,34
45.24790,0.01015,0.01557,0.00000,0.03026,0.97990,-0.18605,0.0,2023,6,7,16,15,31,44
45.24800,0.20265,-0.19443,0.00000,0.03050,0.97673,-0.18678,0.0,2023,6,7,16,15,31,54
45.24810,-0.14735,0.10307,0.00000,0.03111,0.97612,-0.18690,0.0,2023,6,7,16,15,31,64
45.24820,-0.04235,0.05057,0.00000,0.03135,0.97624,-0.18593,0.0,2023,6,7,16,15,31,74
45.24830,-0.21735,0.10307,0.00000,0.02928,0.97563,-0.18739,0.0,2023,6,7,16,15,31,84
45.24840,-0.04235,0.05057,0.00000,0.02916,0.97527,-0.18715,0.0,2023,6,7,16,15,31,94
45.24850,-0.02485,-0.07193,0.00000,0.03062,0.97637,-0.18654,0.0,2023,6,7,16,15,31,104
45.24860,-0.16485,0.12057,0.00000,0.03367,0.97600,-0.18593,0.0,2023,6,7,16,15,31,114
45.24870,0.11515,-0.19443,0.00000,0.03257,0.97393,-0.18446,0.0,2023,6,7,16,15,31,124
45.24880,0.06265,-0.05443,0.00000,0.03111,0.97490,-0.18825,0.0,2023,6,7,16,15,31,134
45.24890,0.02765,0.03307,0.00000,0.03148,0.97771,-0.18532,0.0,2023,6,7,16,15,31,144
45.24900,-0.11235,0.03307,0.00000,0.03062,0.97637,-0.18703,0.0,2023,6,7,16,15,31,154
45.24910,0.04515,-0.00193,0.00000,0.03270,0.97502,-0.18605,0.0,2023,6,7,16,15,31,164
45.24920,0.02765,-0.07193,0.00000,0.03099,0.97759,-0.18507,0.0,2023,6,7,16,15,31,174
45.24930,0.02765,0.17307,0.00000,0.03379,0.97600,-0.18751,0.0,2023,6,7,16,15,31,184
45.24940,0.02765,0.15557,0.00000,0.03038,0.97649,-0.18617,0.0,2023,6,7,16,15,31,194
45.24950,-0.26985,0.22557,0.00000,0.03209,0.97515,-0.18471,0.0,2023,6,7,16,15,31,204
45.24960,0.02765,0.01557,0.00000,0.02928,0.97612,-0.18666,0.0,2023,6,7,16,15,31,214
45.24970,0.15015,-0.19443,0.00000,0.03160,0.97588,-0.18581,0.0,2023,6,7,16,15,31,224
45.24980,0.01015,0.08557,0.00000,0.03270,0.97746,-0.18495,0.0,2023,6,7,16,15,31,234
45.24990,-0.07735,-0.01943,0.00000,0.02989,0.97612,-0.18654,0.0,2023,6,7,16,15,31,244
45.25000,0.01015,-0.00193,0.00000,0.03306,0.97576,-0.18898,0.0,2023,6,7,16,15,31,254
45.25010,-0.18235,0.13807,0.00000,0.03074,0.97588,-0.18849,0.0,2023,6,7,16,15,31,264
45.25020,0.29015,-0.12443,0.00000,0.02977,0.97661,-0.18666,0.0,2023,6,7,16,15,31,274
45.25030,-0.05985,0.06807,0.00000,0.03245,0.97527,-0.18617,0.0,2023,6,7,16,15,31,284
45.25040,-0.00735,0.03307,0.00000,0.03184,0.97588,-0.18703,0.0,2023,6,7,16,15,31,294
45.25050,-0.04235,-0.14193,0.00000,0.03331,0.97661,-0.18910,0.0,2023,6,7,16,15,31,304
45.25060,0.04515,-0.01943,0.00000,0.03062,0.97685,-0.18556,0.0,2023,6,7,16,15,31,314
45.25070,-0.11235,-0.01943,0.00000,0.03196,0.97624,-0.18678,0.0,2023,6,7,16,15,31,324
45.25080,-0.18235,0.19057,0.00000,0.03123,0.97417,-0.18434,0.0,2023,6,7,16,15,31,334
45.25090,-0.16485,0.01557,0.00000,0.03099,0.97771,-0.18581,0.0,2023,6,7,16,15,31,344
45.25100,0.06265,0.12057,0.00000,0.02977,0.97685,-0.18971,0.0,2023,6,7,16,15,31,354
45.25110,0.01015,0.20807,0.00000,0.03099,0.97490,-0.18654,0.0,2023,6,7,16,15,31,364
45.25120,-0.09485,0.05057,0.00000,0.03233,0.97734,-0.18776,0.0,2023,6,7,16,15,31,374
45.25130,0.11515,-0.00193,0.00000,0.02879,0.97710,-0.18471,0.0,2023,6,7,16,15,31,384
45.25140,-0.05985,0.17307,0.00000,0.02965,0.97600,-0.18898,0.0,2023,6,7,16,15,31,394
45.25150,-0.00735,-0.01943,0.00000,0.03148,0.97551,-0.18861,0.0,2023,6,7,16,15,31,404
45.25160,-0.09485,-0.05443,0.00000,0.03318,0.97515,-0.18886,0.0,2023,6,7,16,15,31,414
45.25170,0.02765,0.03307,0.00000,0.03111,0.97624,-0.18605,0.0,2023,6,7,16,15,31,424
45.25180,-0.00735,-0.03693,0.00000,0.03233,0.97746,-0.18764,0.0,2023,6,7,16,15,31,434
45.25190,-0.07735,-0.28193,0.00000,0.03123,0.97783,-0.18837,0.0,2023,6,7,16,15,31,444
45.25200,-0.02485,0.03307,0.00000,0.03233,0.97612,-0.18837,0.0,2023,6,7,16,15,31,454
45.25210,-0.18235,-0.03693,0.00000,0.02928,0.97539,-0.18751,0.0,2023,6,7,16,15,31,464
45.25220,0.08015,-0.00193,0.00000,0.03453,0.97698,-0.18642,0.0,2023,6,7,16,15,31,474
45.25230,-0.25235,0.08557,0.00000,0.03099,0.97649,-0.18849,0.0,2023,6,7,16,15,31,484
45.25240,-0.02485,0.05057,0.00000,0.02940,0.97710,-0.18727,0.0,2023,6,7,16,15,31,494
45.25250,-0.07735,-0.00193,0.00000,0.03172,0.97832,-0.18776,0.0,2023,6,7,16,15,31,504
45.25260,-0.02485,0.01557,0.00000,0.03135,0.97563,-0.18373,0.0,2023,6,7,16,15,31,514
45.25270,-0.09485,-0.01943,0.00000,0.03099,0.97893,-0.18703,0.0,2023,6,7,16,15,31,524
45.25280,0.11515,0.05057,0.00000,0.03148,0.97734,-0.18617,0.0,2023,6,7,16,15,31,534
45.25290,0.01015,-0.14193,0.00000,0.03392,0.97661,-0.18617,0.0,2023,6,7,16,15,31,544
45.25300,-0.04235,0.17307,0.00000,0.03026,0.97661,-0.18873,0.0,2023,6,7,16,15,31,554
45.25310,-0.04235,-0.10693,0.00000,0.03184,0.97368,-0.18556,0.0,2023,6,7,16,15,31,564
45.25320,-0.26985,0.05057,0.00000,0.03196,0.97722,-0.18446,0.0,2023,6,7,16,15,31,574
45.25330,0.11515,0.22557,0.00000,0.03001,0.97722,-0.18837,0.0,2023,6,7,16,15,31,584
45.25340,0.20265,0.01557,0.00000,0.03233,0.97612,-0.18751,0.0,2023,6,7,16,15,31,594
45.25350,-0.05985,0.13807,0.00000,0.03306,0.97466,-0.18703,0.0,2023,6,7,16,15,31,604
45.25360,0.02765,0.03307,0.00000,0.03282,0.97832,-0.18666,0.0,2023,6,7,16,15,31,614
45.25370,-0.12985,-0.07193,0.00000,0.03172,0.97746,-0.18617,0.0,2023,6,7,16,15,31,624
45.25380,-0.00735,0.01557,0.00000,0.03318,0.97771,-0.18690,0.0,2023,6,7,16,15,31,634
45.25390,0.08015,0.12057,0.00000,0.03038,0.97661,-0.18568,0.0,2023,6,7,16,15,31,644
45.25400,-0.26985,-0.03693,0.00000,0.03013,0.97746,-0.18629,0.0,2023,6,7,16,15,31,654
45.25410,-0.07735,0.20807,0.00000,0.03318,0.97734,-0.18593,0.0,2023,6,7,16,15,31,664
45.25420,-0.19985,0.03307,0.00000,0.03026,0.97722,-0.18861,0.0,2023,6,7,16,15,31,674
45.25430,0.08015,-0.17693,0.00000,0.03087,0.97759,-0.18617,0.0,2023,6,7,16,15,31,684
45.25440,-0.02485,-0.05443,0.00000,0.03099,0.97673,-0.18581,0.0,2023,6,7,16,15,31,694
45.25450,-0.14735,-0.12443,0.00000,0.03294,0.97966,-0.18642,0.0,2023,6,7,16,15,31,704
45.25460,0.11515,-0.19443,0.00000,0.03172,0.97685,-0.18812,0.0,2023,6,7,16,15,31,714
45.25470,-0.07735,0.03307,0.00000,0.03148,0.97454,-0.18593,0.0,2023,6,7,16,15,31,724
45.25480,0.08015,0.06807,0.00000,0.03148,0.97661,-0.18751,0.0,2023,6,7,16,15,31,734
45.25490,-0.12985,0.03307,0.00000,0.03221,0.97685,-0.18751,0.0,2023,6,7,16,15,31,744
45.25500,-0.11235,-0.01943,0.00000,0.03013,0.97661,-0.18666,0.0,2023,6,7,16,15,31,754
45.25510,-0.00735,-0.00193,0.00000,0.03209,0.97710,-0.18507,0.0,2023,6,7,16,15,31,764
45.25520,-0.11235,-0.12443,0.00000,0.03367,0.97795,-0.18507,0.0,2023,6,7,16,15,31,774
45.25530,0.04515,-0.01943,0.00000,0.02891,0.97624,-0.18825,0.0,2023,6,7,16,15,31,784
45.25540,0.11515,-0.10693,0.00000,0.03135,0.97588,-0.18666,0.0,2023,6,7,16,15,31,794
45.25550,0.06265,-0.05443,0.00000,0.03331,0.97759,-0.18703,0.0,2023,6,7,16,15,31,804
45.25560,0.01015,0.20807,0.00000,0.03038,0.97759,-0.18678,0.0,2023,6,7,16,15,31,814
45.25570,0.09765,-0.33443,0.00000,0.03001,0.97490,-0.18751,0.0,2023,6,7,16,15,31,824
45.25580,0.13265,-0.00193,0.00000,0.03196,0.97673,-0.18617,0.0,2023,6,7,16,15,31,834
45.25590,0.13265,0.20807,0.00000,0.03514,0.97722,-0.18520,0.0,2023,6,7,16,15,31,844
45.25600,0.11515,-0.28193,0.00000,0.02977,0.97588,-0.18642,0.0,2023,6,7,16,15,31,854
45.25610,0.09765,0.01557,0.00000,0.03172,0.97661,-0.18751,0.0,2023,6,7,16,15,31,864
45.25620,0.11515,-0.01943,0.00000,0.02989,0.97710,-0.18581,0.0,2023,6,7,16,15,31,874
45.25630,0.13265,0.10307,0.00000,0.02952,0.97478,-0.18666,0.0,2023,6,7,16,15,31,884
45.25640,-0.07735,-0.05443,0.00000,0.03111,0.97820,-0.18666,0.0,2023,6,7,16,15,31,894
45.25650,0.11515,-0.01943,0.00000,0.03282,0.97710,-0.18642,0.0,2023,6,7,16,15,31,904
45.25660,-0.02485,0.03307,0.00000,0.03367,0.97478,-0.18581,0.0,2023,6,7,16,15,32,4
45.25670,-0.07735,-0.00193,0.00000,0.03221,0.97612,-0.18642,0.0,2023,6,7,16,15,32,14
45.25680,0.02765,0.12057,0.00000,0.03184,0.97563,-0.18739,0.0,2023,6,7,16,15,32,24
45.25690,-0.11235,0.17307,0.00000,0.03111,0.97722,-0.18593,0.0,2023,6,7,16,15,32,34
45.25700,-0.02485,0.10307,0.00000,0.02977,0.97576,-0.18666,0.0,2023,6,7,16,15,32,44
45.25710,-0.02485,0.01557,0.00000,0.03062,0.97746,-0.18605,0.0,2023,6,7,16,15,32,54
45.25720,-0.11235,-0.05443,0.00000,0.03087,0.97734,-0.18568,0.0,2023,6,7,16,15,32,64
45.25730,-0.05985,-0.03693,0.00000,0.03111,0.97417,-0.18910,0.0,2023,6,7,16,15,32,74
45.25740,-0.09485,0.03307,0.00000,0.03257,0.97954,-0.18654,0.0,2023,6,7,16,15,32,84
45.25750,-0.05985,-0.00193,0.00000,0.03257,0.97698,-0.18666,0.0,2023,6,7,16,15,32,94
45.25760,-0.00735,-0.00193,0.00000,0.03074,0.97661,-0.18715,0.0,2023,6,7,16,15,32,104
45.25770,0.22015,-0.14193,0.00000,0.03123,0.97576,-0.18617,0.0,2023,6,7,16,15,32,114
45.25780,-0.14735,-0.14193,0.00000,0.03099,0.97624,-0.18605,0.0,2023,6,7,16,15,32,124
45.25790,0.01015,-0.36943,0.00000,0.03367,0.97624,-0.18617,0.0,2023,6,7,16,15,32,134
45.25800,0.20265,0.03307,0.00000,0.03221,0.97624,-0.18800,0.0,2023,6,7,16,15,32,144
45.25810,-0.18235,0.24307,0.00000,0.02940,0.97698,-0.18690,0.0,2023,6,7,16,15,32,154
45.25820,-0.14735,0.17307,0.00000,0.03038,0.97649,-0.18666,0.0,2023,6,7,16,15,32,164
45.25830,-0.05985,0.13807,0.00000,0.03282,0.97649,-0.18666,0.0,2023,6,7,16,15,32,174
45.25840,0.16765,-0.07193,0.00000,0.03160,0.97612,-0.18459,0.0,2023,6,7,16,15,32,184
45.25850,0.20265,-0.15943,0.00000,0.03013,0.97600,-0.18654,0.0,2023,6,7,16,15,32,194
45.25860,-0.00735,0.10307,0.00000,0.03123,0.97685,-0.18642,0.0,2023,6,7,16,15,32,204
45.25870,0.08015,-0.10693,0.00000,0.03074,0.97807,-0.18581,0.0,2023,6,7,16,15,32,214
45.25880,-0.11235,0.05057,0.00000,0.03160,0.97661,-0.18605,0.0,2023,6,7,16,15,32,224
45.25890,-0.02485,0.05057,0.00000,0.03257,0.97637,-0.18263,0.0,2023,6,7,16,15,32,234
45.25900,0.09765,-0.08943,0.00000,0.02940,0.97490,-0.18825,0.0,2023,6,7,16,15,32,244
45.25910,-0.04235,-0.05443,0.00000,0.03050,0.97929,-0.18849,0.0,2023,6,7,16,15,32,254
45.25920,-0.16485,-0.00193,0.00000,0.03331,0.97698,-0.18520,0.0,2023,6,7,16,15,32,264
45.25930,0.15015,0.12057,0.00000,0.03184,0.97588,-0.18703,0.0,2023,6,7,16,15,32,274
45.25940,0.06265,-0.07193,0.00000,0.03440,0.97746,-0.18629,0.0,2023,6,7,16,15,32,284
45.25950,0.04515,0.08557,0.00000,0.02940,0.97490,-0.18764,0.0,2023,6,7,16,15,32,294
45.25960,-0.07735,0.12057,0.00000,0.03172,0.97905,-0.18715,0.0,2023,6,7,16,15,32,304
45.25970,-0.02485,-0.00193,0.00000,0.03074,0.97637,-0.18446,0.0,2023,6,7,16,15,32,314
45.25980,-0.14735,0.10307,0.00000,0.03135,0.97478,-0.18617,0.0,2023,6,7,16,15,32,324
45.25990,-0.00735,0.06807,0.00000,0.03172,0.97649,-0.18642,0.0,2023,6,7,16,15,32,334
45.26000,-0.09485,-0.07193,0.00000,0.03221,0.97783,-0.18532,0.0,2023,6,7,16,15,32,344
45.26010,0.01015,-0.01943,0.00000,0.03184,0.97673,-0.18739,0.0,2023,6,7,16,15,32,354
45.26020,-0.09485,0.08557,0.00000,0.03184,0.97771,-0.18739,0.0,2023,6,7,16,15,32,364
45.26030,-0.11235,-0.05443,0.00000,0.03135,0.97734,-0.18617,0.0,2023,6,7,16,15,32,374
45.26040,0.15015,0.10307,0.00000,0.03184,0.97576,-0.18715,0.0,2023,6,7,16,15,32,384
45.26050,-0.05985,0.01557,0.00000,0.03172,0.97393,-0.18507,0.0,2023,6,7,16,15,32,394
45.26060,0.06265,-0.00193,0.00000,0.03282,0.97783,-0.18556,0.0,2023,6,7,16,15,32,404
45.26070,0.09765,-0.17693,0.00000,0.03087,0.97637,-0.18483,0.0,2023,6,7,16,15,32,414
45.26080,0.06265,0.10307,0.00000,0.03111,0.97746,-0.18983,0.0,2023,6,7,16,15,32,424
45.26090,0.11515,-0.05443,0.00000,0.03148,0.97588,-0.18825,0.0,2023,6,7,16,15,32,434
45.26100,-0.18235,0.05057,0.00000,0.03270,0.97734,-0.18654,0.0,2023,6,7,16,15,32,444
45.26110,-0.02485,0.08557,0.00000,0.03038,0.97820,-0.18544,0.0,2023,6,7,16,15,32,454
45.26120,0.11515,0.08557,0.00000,0.03135,0.97661,-0.18532,0.0,2023,6,7,16,15,32,464
45.26130,-0.16485,0.10307,0.00000,0.03196,0.97685,-0.19032,0.0,2023,6,7,16,15,32,474
45.26140,0.16765,-0.15943,0.00000,0.03306,0.97807,-0.18556,0.0,2023,6,7,16,15,32,484
45.26150,-0.00735,-0.12443,0.00000,0.03221,0.97844,-0.18324,0.0,2023,6,7,16,15,32,494
45.26160,0.04515,-0.01943,0.00000,0.03148,0.97746,-0.18422,0.0,2023,6,7,16,15,32,504
45.26170,0.06265,0.03307,0.00000,0.02891,0.97844,-0.18520,0.0,2023,6,7,16,15,32,514
45.26180,0.08015,-0.21193,0.00000,0.03318,0.97734,-0.18617,0.0,2023,6,7,16,15,32,524
45.26190,0.06265,0.06807,0.00000,0.03196,0.97734,-0.18642,0.0,2023,6,7,16,15,32,534
45.26200,0.09765,0.15557,0.00000,0.03270,0.97649,-0.18593,0.0,2023,6,7,16,15,32,544
45.26210,0.01015,-0.14193,0.00000,0.03062,0.97490,-0.18751,0.0,2023,6,7,16,15,32,554
45.26220,0.01015,0.03307,0.00000,0.03184,0.97746,-0.18520,0.0,2023,6,7,16,15,32,564
45.26230,0.04515,-0.12443,0.00000,0.03160,0.97710,-0.18593,0.0,2023,6,7,16,15,32,574
45.26240,0.09765,0.06807,0.00000,0.03270,0.97649,-0.18617,0.0,2023,6,7,16,15,32,584
45.26250,0.15015,-0.01943,0.00000,0.02940,0.97515,-0.18727,0.0,2023,6,7,16,15,32,594
45.26260,0.02765,-0.10693,0.00000,0.03221,0.97637,-0.18520,0.0,2023,6,7,16,15,32,604
45.26270,0.01015,0.05057,0.00000,0.03148,0.97661,-0.18629,0.0,2023,6,7,16,15,32,614
45.26280,-0.05985,-0.08943,0.00000,0.03331,0.97576,-0.18690,0.0,2023,6,7,16,15,32,624
45.26290,-0.00735,0.03307,0.00000,0.03221,0.97844,-0.18556,0.0,2023,6,7,16,15,32,634
45.26300,-0.05985,0.12057,0.00000,0.03062,0.97917,-0.18825,0.0,2023,6,7,16,15,32,644
45.26310,0.01015,0.03307,0.00000,0.03148,0.97661,-0.18715,0.0,2023,6,7,16,15,32,654
45.26320,-0.16485,-0.00193,0.00000,0.03294,0.97551,-0.18361,0.0,2023,6,7,16,15,32,664
45.26330,-0.16485,-0.01943,0.00000,0.03123,0.97649,-0.18544,0.0,2023,6,7,16,15,32,674
45.26340,0.08015,0.19057,0.00000,0.03172,0.97515,-0.18690,0.0,2023,6,7,16,15,32,684
45.26350,-0.07735,-0.12443,0.00000,0.03038,0.97746,-0.18739,0.0,2023,6,7,16,15,32,694
45.26360,0.06265,-0.00193,0.00000,0.03257,0.97454,-0.18642,0.0,2023,6,7,16,15,32,704
45.26370,0.11515,0.01557,0.00000,0.03123,0.97612,-0.18434,0.0,2023,6,7,16,15,32,714
45.26380,-0.16485,-0.00193,0.00000,0.03209,0.97649,-0.18788,0.0,2023,6,7,16,15,32,724
45.26390,-0.00735,0.15557,0.00000,0.03087,0.97685,-0.18678,0.0,2023,6,7,16,15,32,734
45.26400,-0.18235,0.01557,0.00000,0.03270,0.97551,-0.18532,0.0,2023,6,7,16,15,32,744
45.26410,-0.21735,0.13807,0.00000,0.03099,0.97759,-0.18642,0.0,2023,6,7,16,15,32,754
45.26420,0.04515,0.01557,0.00000,0.03257,0.97588,-0.18544,0.0,2023,6,7,16,15,32,764
45.26430,0.08015,-0.15943,0.00000,0.03001,0.97759,-0.18873,0.0,2023,6,7,16,15,32,774
45.26440,-0.04235,-0.03693,0.00000,0.03160,0.97661,-0.18703,0.0,2023,6,7,16,15,32,784
45.26450,-0.04235,0.05057,0.00000,0.03392,0.97539,-0.18568,0.0,2023,6,7,16,15,32,794
45.26460,-0.09485,0.03307,0.00000,0.03050,0.97624,-0.18642,0.0,2023,6,7,16,15,32,804
45.26470,0.08015,0.01557,0.00000,0.02952,0.97515,-0.18849,0.0,2023,6,7,16,15,32,814
45.26480,-0.16485,0.17307,0.00000,0.03233,0.97698,-0.18446,0.0,2023,6,7,16,15,32,824
45.26490,-0.11235,0.08557,0.00000,0.03245,0.97368,-0.18556,0.0,2023,6,7,16,15,32,834
45.26500,0.01015,0.22557,0.00000,0.03184,0.97673,-0.18446,0.0,2023,6,7,16,15,32,844
45.26510,-0.02485,0.03307,0.00000,0.02904,0.97502,-0.18861,0.0,2023,6,7,16,15,32,854
45.26520,-0.14735,-0.01943,0.00000,0.03221,0.97551,-0.18581,0.0,2023,6,7,16,15,32,864
45.26530,-0.04235,-0.03693,0.00000,0.03233,0.97344,-0.18642,0.0,2023,6,7,16,15,32,874
45.26540,0.04515,-0.05443,0.00000,0.03318,0.97600,-0.18617,0.0,2023,6,7,16,15,32,884
45.26550,0.11515,-0.08943,0.00000,0.03331,0.97783,-0.18690,0.0,2023,6,7,16,15,33,4
45.26560,-0.12985,0.05057,0.00000,0.03062,0.97551,-0.18849,0.0,2023,6,7,16,15,33,14
45.26570,-0.07735,0.27807,0.00000,0.03062,0.97661,-0.18934,0.0,2023,6,7,16,15,33,24
45.26580,-0.19985,0.22557,0.00000,0.02989,0.97649,-0.18556,0.0,2023,6,7,16,15,33,34
45.26590,-0.11235,0.08557,0.00000,0.03209,0.97478,-0.18703,0.0,2023,6,7,16,15,33,44
45.26600,0.13265,0.12057,0.00000,0.03026,0.97600,-0.18764,0.0,2023,6,7,16,15,33,54
45.26610,-0.07735,-0.01943,0.00000,0.03172,0.97551,-0.18751,0.0,2023,6,7,16,15,33,64
45.26620,0.13265,-0.12443,0.00000,0.02965,0.97734,-0.18520,0.0,2023,6,7,16,15,33,74
45.26630,-0.02485,-0.07193,0.00000,0.03392,0.97673,-0.18568,0.0,2023,6,7,16,15,33,84
45.26640,-0.16485,0.06807,0.00000,0.03172,0.97515,-0.18483,0.0,2023,6,7,16,15,33,94
45.26650,0.13265,-0.05443,0.00000,0.03087,0.97710,-0.18739,0.0,2023,6,7,16,15,33,104
45.26660,0.11515,-0.14193,0.00000,0.03331,0.97624,-0.18788,0.0,2023,6,7,16,15,33,114
45.26670,0.02765,-0.07193,0.00000,0.03209,0.97637,-0.18642,0.0,2023,6,7,16,15,33,124
45.26680,-0.02485,0.03307,0.00000,0.03318,0.97649,-0.18532,0.0,2023,6,7,16,15,33,134
45.26690,-0.11235,0.08557,0.00000,0.02940,0.97637,-0.18727,0.0,2023,6,7,16,15,33,144
45.26700,0.01015,0.19057,0.00000,0.03050,0.97551,-0.18605,0.0,2023,6,7,16,15,33,154
45.26710,-0.11235,0.06807,0.00000,0.03221,0.97734,-0.18544,0.0,2023,6,7,16,15,33,164
45.26720,-0.07735,-0.07193,0.00000,0.03172,0.97429,-0.18617,0.0,2023,6,7,16,15,33,174
45.26730,-0.09485,0.03307,0.00000,0.03026,0.97783,-0.18629,0.0,2023,6,7,16,15,33,184
45.26740,-0.00735,0.03307,0.00000,0.03172,0.97685,-0.18739,0.0,2023,6,7,16,15,33,194
45.26750,0.15015,-0.15943,0.00000,0.03062,0.97661,-0.18898,0.0,2023,6,7,16,15,33,204
45.26760,-0.07735,-0.05443,0.00000,0.02916,0.97820,-0.18739,0.0,2023,6,7,16,15,33,214
45.26770,-0.18235,-0.00193,0.00000,0.03172,0.97661,-0.18873,0.0,2023,6,7,16,15,33,224
45.26780,0.11515,-0.00193,0.00000,0.03074,0.97649,-0.18995,0.0,2023,6,7,16,15,33,234
45.26790,-0.02485,0.01557,0.00000,0.03148,0.97771,-0.18703,0.0,2023,6,7,16,15,33,244
45.26800,-0.02485,0.12057,0.00000,0.03050,0.97417,-0.18715,0.0,2023,6,7,16,15,33,254
45.26810,0.04515,-0.08943,0.00000,0.03233,0.97490,-0.18703,0.0,2023,6,7,16,15,33,264
45.26820,-0.05985,-0.00193,0.00000,0.03087,0.97515,-0.18520,0.0,2023,6,7,16,15,33,274
45.26830,0.04515,-0.01943,0.00000,0.03062,0.97710,-0.18690,0.0,2023,6,7,16,15,33,284
45.26840,0.15015,-0.24693,0.00000,0.03489,0.97673,-0.18873,0.0,2023,6,7,16,15,33,294
45.26850,-0.05985,0.27807,0.00000,0.03099,0.97563,-0.18642,0.0,2023,6,7,16,15,33,304
45.26860,-0.04235,0.06807,0.00000,0.03087,0.97698,-0.18764,0.0,2023,6,7,16,15,33,314
45.26870,0.06265,-0.14193,0.00000,0.03111,0.97698,-0.18605,0.0,2023,6,7,16,15,33,324
45.26880,0.04515,0.08557,0.00000,0.03062,0.97612,-0.18873,0.0,2023,6,7,16,15,33,334
45.26890,-0.07735,0.05057,0.00000,0.03221,0.97722,-0.19020,0.0,2023,6,7,16,15,33,344
45.26900,0.15015,-0.00193,0.00000,0.03172,0.97527,-0.18934,0.0,2023,6,7,16,15,33,354
45.26910,0.11515,0.20807,0.00000,0.03196,0.97685,-0.18703,0.0,2023,6,7,16,15,33,364
45.26920,0.20265,-0.12443,0.00000,0.03233,0.97698,-0.18666,0.0,2023,6,7,16,15,33,374
45.26930,-0.12985,0.01557,0.00000,0.03099,0.97759,-0.18605,0.0,2023,6,7,16,15,33,384
45.26940,-0.09485,0.15557,0.00000,0.02855,0.97637,-0.18849,0.0,2023,6,7,16,15,33,394
45.26950,0.08015,-0.00193,0.00000,0.02989,0.97417,-0.18654,0.0,2023,6,7,16,15,33,404
45.26960,-0.02485,-0.07193,0.00000,0.03135,0.97502,-0.18776,0.0,2023,6,7,16,15,33,414
45.26970,-0.02485,-0.21193,0.00000,0.03135,0.97698,-0.18605,0.0,2023,6,7,16,15,33,424
45.26980,-0.26985,0.10307,0.00000,0.03160,0.97673,-0.18678,0.0,2023,6,7,16,15,33,434
45.26990,-0.07735,0.05057,0.00000,0.03050,0.97698,-0.18898,0.0,2023,6,7,16,15,33,444
45.27000,-0.00735,-0.00193,0.00000,0.03379,0.97698,-0.18825,0.0,2023,6,7,16,15,33,454
45.27010,0.11515,-0.14193,0.00000,0.03026,0.97417,-0.18739,0.0,2023,6,7,16,15,33,464
45.27020,-0.05985,-0.05443,0.00000,0.03172,0.97612,-0.18629,0.0,2023,6,7,16,15,33,474
45.27030,0.15015,-0.07193,0.00000,0.03160,0.97588,-0.18959,0.0,2023,6,7,16,15,33,484
45.27040,0.15015,0.08557,0.00000,0.03111,0.97600,-0.18947,0.0,2023,6,7,16,15,33,494
45.27050,-0.02485,-0.00193,0.00000,0.03038,0.97661,-0.18715,0.0,2023,6,7,16,15,33,504
45.27060,-0.12985,0.08557,0.00000,0.03318,0.97759,-0.19032,0.0,2023,6,7,16,15,33,514
45.27070,0.08015,-0.07193,0.00000,0.03318,0.97710,-0.18800,0.0,2023,6,7,16,15,33,524
45.27080,-0.09485,-0.07193,0.00000,0.03209,0.97673,-0.18434,0.0,2023,6,7,16,15,33,534
45.27090,0.01015,0.12057,0.00000,0.03074,0.97844,-0.18886,0.0,2023,6,7,16,15,33,544
45.27100,0.09765,0.01557,0.00000,0.03038,0.97868,-0.18739,0.0,2023,6,7,16,15,33,554
45.27110,-0.04235,-0.24693,0.00000,0.03221,0.97649,-0.18703,0.0,2023,6,7,16,15,33,564
45.27120,-0.07735,-0.12443,0.00000,0.03209,0.97820,-0.18898,0.0,2023,6,7,16,15,33,574
45.27130,-0.12985,0.19057,0.00000,0.03184,0.97698,-0.18837,0.0,2023,6,7,16,15,33,584
45.27140,0.01015,0.17307,0.00000,0.03062,0.97576,-0.18739,0.0,2023,6,7,16,15,33,594
45.27150,-0.00735,0.05057,0.00000,0.02977,0.97893,-0.18861,0.0,2023,6,7,16,15,33,604
45.27160,0.06265,-0.12443,0.00000,0.03001,0.97734,-0.18642,0.0,2023,6,7,16,15,33,614
45.27170,-0.02485,-0.21193,0.00000,0.03087,0.97466,-0.18739,0.0,2023,6,7,16,15,33,624
45.27180,-0.05985,-0.01943,0.00000,0.03099,0.97844,-0.18666,0.0,2023,6,7,16,15,33,634
45.27190,0.09765,-0.08943,0.00000,0.03111,0.97746,-0.18788,0.0,2023,6,7,16,15,33,644
45.27200,-0.04235,-0.12443,0.00000,0.03099,0.97783,-0.18934,0.0,2023,6,7,16,15,33,654
45.27210,0.02765,0.01557,0.00000,0.03184,0.97515,-0.18995,0.0,2023,6,7,16,15,33,664
45.27220,0.04515,0.13807,0.00000,0.02965,0.97722,-0.18910,0.0,2023,6,7,16,15,33,674
45.27230,0.11515,0.01557,0.00000,0.03123,0.97698,-0.18703,0.0,2023,6,7,16,15,33,684
45.27240,0.02765,-0.19443,0.00000,0.03026,0.97966,-0.18483,0.0,2023,6,7,16,15,33,694
45.27250,0.06265,0.03307,0.00000,0.03172,0.97637,-0.18898,0.0,2023,6,7,16,15,33,704
45.27260,-0.09485,0.15557,0.00000,0.03196,0.97588,-0.18764,0.0,2023,6,7,16,15,33,714
45.27270,0.18515,0.15557,0.00000,0.03172,0.97490,-0.18507,0.0,2023,6,7,16,15,33,724
45.27280,0.20265,-0.22943,0.00000,0.03257,0.97490,-0.18446,0.0,2023,6,7,16,15,33,734
45.27290,-0.14735,-0.03693,0.00000,0.03196,0.97746,-0.18690,0.0,2023,6,7,16,15,33,744
45.27300,-0.00735,0.13807,0.00000,0.03148,0.97551,-0.18959,0.0,2023,6,7,16,15,33,754
45.27310,0.20265,-0.12443,0.00000,0.03343,0.97576,-0.18593,0.0,2023,6,7,16,15,33,764
45.27320,-0.21735,-0.03693,0.00000,0.02989,0.97673,-0.18861,0.0,2023,6,7,16,15,33,774
45.27330,0.06265,0.03307,0.00000,0.03123,0.97783,-0.18495,0.0,2023,6,7,16,15,33,784
45.27340,-0.09485,0.08557,0.00000,0.02904,0.97588,-0.18593,0.0,2023,6,7,16,15,33,794
45.27350,-0.04235,0.01557,0.00000,0.03111,0.97783,-0.18922,0.0,2023,6,7,16,15,33,804
45.27360,0.27265,-0.08943,0.00000,0.03026,0.97600,-0.18837,0.0,2023,6,7,16,15,33,814
45.27370,-0.07735,-0.08943,0.00000,0.03196,0.97710,-0.18459,0.0,2023,6,7,16,15,33,824
45.27380,0.04515,-0.14193,0.00000,0.03148,0.97612,-0.18825,0.0,2023,6,7,16,15,33,834
45.27390,-0.11235,-0.22943,0.00000,0.03233,0.98051,-0.18654,0.0,2023,6,7,16,15,33,844
45.27400,0.13265,0.10307,0.00000,0.03221,0.97612,-0.18715,0.0,2023,6,7,16,15,33,854
45.27410,0.06265,0.08557,0.00000,0.03099,0.97661,-0.18959,0.0,2023,6,7,16,15,33,864
45.27420,0.13265,-0.03693,0.00000,0.03233,0.97588,-0.18568,0.0,2023,6,7,16,15,33,874
45.27430,0.13265,0.03307,0.00000,0.03148,0.97624,-0.18556,0.0,2023,6,7,16,15,33,884
45.27440,0.18515,-0.05443,0.00000,0.03196,0.97563,-0.18764,0.0,2023,6,7,16,15,33,894
45.27450,0.09765,0.19057,0.00000,0.03209,0.97429,-0.18959,0.0,2023,6,7,16,15,34,4
45.27460,0.15015,-0.10693,0.00000,0.03196,0.97624,-0.18642,0.0,2023,6,7,16,15,34,14
45.27470,-0.16485,0.08557,0.00000,0.03184,0.97783,-0.18800,0.0,2023,6,7,16,15,34,24
45.27480,0.02765,-0.10693,0.00000,0.03135,0.97795,-0.18788,0.0,2023,6,7,16,15,34,34
45.27490,0.09765,0.08557,0.00000,0.03196,0.97527,-0.18703,0.0,2023,6,7,16,15,34,44
45.27500,0.08015,0.08557,0.00000,0.03392,0.97515,-0.18617,0.0,2023,6,7,16,15,34,54
45.27510,-0.02485,0.05057,0.00000,0.03038,0.97759,-0.18886,0.0,2023,6,7,16,15,34,64
45.27520,0.06265,-0.00193,0.00000,0.03270,0.97624,-0.18849,0.0,2023,6,7,16,15,34,74
45.27530,0.13265,0.05057,0.00000,0.03050,0.97405,-0.18910,0.0,2023,6,7,16,15,34,84
45.27540,0.15015,0.05057,0.00000,0.03050,0.97563,-0.18861,0.0,2023,6,7,16,15,34,94
45.27550,-0.14735,0.01557,0.00000,0.03099,0.97783,-0.18910,0.0,2023,6,7,16,15,34,104
45.27560,-0.12985,0.10307,0.00000,0.03221,0.97661,-0.18520,0.0,2023,6,7,16,15,34,114
45.27570,0.11515,0.03307,0.00000,0.03123,0.97783,-0.19032,0.0,2023,6,7,16,15,34,124
45.27580,0.16765,-0.00193,0.00000,0.02977,0.97832,-0.19008,0.0,2023,6,7,16,15,34,134
45.27590,0.16765,-0.10693,0.00000,0.03404,0.97539,-0.18849,0.0,2023,6,7,16,15,34,144
45.27600,-0.05985,-0.01943,0.00000,0.03123,0.97734,-0.18617,0.0,2023,6,7,16,15,34,154
45.27610,-0.00735,0.08557,0.00000,0.03099,0.97795,-0.18812,0.0,2023,6,7,16,15,34,164
45.27620,-0.02485,-0.03693,0.00000,0.03026,0.97746,-0.18654,0.0,2023,6,7,16,15,34,174
45.27630,-0.04235,0.26057,0.00000,0.03257,0.97783,-0.18886,0.0,2023,6,7,16,15,34,184
45.27640,-0.16485,0.15557,0.00000,0.02989,0.97807,-0.18715,0.0,2023,6,7,16,15,34,194
45.27650,-0.04235,0.08557,0.00000,0.02891,0.97539,-0.18715,0.0,2023,6,7,16,15,34,204
45.27660,-0.11235,0.17307,0.00000,0.03282,0.97710,-0.18764,0.0,2023,6,7,16,15,34,214
45.27670,0.06265,0.10307,0.00000,0.02830,0.97600,-0.19032,0.0,2023,6,7,16,15,34,224
45.27680,-0.00735,0.03307,0.00000,0.03257,0.97515,-0.18800,0.0,2023,6,7,16,15,34,234
45.27690,-0.18235,0.19057,0.00000,0.03270,0.97795,-0.18898,0.0,2023,6,7,16,15,34,244
45.27700,0.06265,0.05057,0.00000,0.03038,0.97588,-0.18788,0.0,2023,6,7,16,15,34,254
45.27710,-0.11235,0.24307,0.00000,0.03123,0.97698,-0.18727,0.0,2023,6,7,16,15,34,264
45.27720,-0.00735,0.03307,0.00000,0.03233,0.97600,-0.18910,0.0,2023,6,7,16,15,34,274
45.27730,0.08015,-0.14193,0.00000,0.03062,0.97612,-0.18520,0.0,2023,6,7,16,15,34,284
45.27740,0.09765,-0.01943,0.00000,0.03245,0.97441,-0.18666,0.0,2023,6,7,16,15,34,294
45.27750,0.11515,-0.15943,0.00000,0.02952,0.97368,-0.18715,0.0,2023,6,7,16,15,34,304
45.27760,0.01015,0.10307,0.00000,0.03050,0.97405,-0.18800,0.0,2023,6,7,16,15,34,314
45.27770,-0.21735,0.27807,0.00000,0.03257,0.97771,-0.18727,0.0,2023,6,7,16,15,34,324
45.27780,-0.02485,-0.21193,0.00000,0.02989,0.97881,-0.18666,0.0,2023,6,7,16,15,34,334
45.27790,-0.05985,-0.03693,0.00000,0.03318,0.97637,-0.18654,0.0,2023,6,7,16,15,34,344
45.27800,0.13265,0.12057,0.00000,0.03221,0.97478,-0.18837,0.0,2023,6,7,16,15,34,354
45.27810,0.11515,-0.10693,0.00000,0.03087,0.97661,-0.18605,0.0,2023,6,7,16,15,34,364
45.27820,0.09765,0.01557,0.00000,0.03050,0.97844,-0.18922,0.0,2023,6,7,16,15,34,374
45.27830,0.08015,-0.08943,0.00000,0.03062,0.97698,-0.18898,0.0,2023,6,7,16,15,34,384
45.27840,-0.14735,0.08557,0.00000,0.03270,0.97576,-0.18581,0.0,2023,6,7,16,15,34,394
45.27850,-0.14735,-0.10693,0.00000,0.03184,0.97502,-0.18739,0.0,2023,6,7,16,15,34,404
45.27860,0.09765,-0.01943,0.00000,0.03050,0.97685,-0.18703,0.0,2023,6,7,16,15,34,414
45.27870,0.11515,0.27807,0.00000,0.03123,0.97576,-0.18764,0.0,2023,6,7,16,15,34,424
45.27880,-0.09485,-0.03693,0.00000,0.03270,0.97807,-0.18812,0.0,2023,6,7,16,15,34,434
45.27890,-0.00735,-0.14193,0.00000,0.03306,0.97637,-0.18934,0.0,2023,6,7,16,15,34,444
45.27900,0.15015,-0.07193,0.00000,0.03184,0.97807,-0.18629,0.0,2023,6,7,16,15,34,454
45.27910,0.13265,0.03307,0.00000,0.02843,0.97576,-0.18776,0.0,2023,6,7,16,15,34,464
45.27920,0.25515,-0.03693,0.00000,0.03135,0.97576,-0.18556,0.0,2023,6,7,16,15,34,474
45.27930,-0.07735,0.06807,0.00000,0.03172,0.97539,-0.18544,0.0,2023,6,7,16,15,34,484
45.27940,-0.19985,0.01557,0.00000,0.03221,0.97771,-0.18690,0.0,2023,6,7,16,15,34,494
45.27950,0.04515,0.19057,0.00000,0.03074,0.97856,-0.18495,0.0,2023,6,7,16,15,34,504
45.27960,-0.04235,-0.15943,0.00000,0.03160,0.97295,-0.18751,0.0,2023,6,7,16,15,34,514
45.27970,0.16765,-0.15943,0.00000,0.03135,0.97722,-0.18837,0.0,2023,6,7,16,15,34,524
45.27980,-0.12985,0.15557,0.00000,0.03160,0.97576,-0.18812,0.0,2023,6,7,16,15,34,534
45.27990,-0.04235,-0.05443,0.00000,0.02989,0.97380,-0.19008,0.0,2023,6,7,16,15,34,544
45.28000,-0.05985,0.13807,0.00000,0.03074,0.97466,-0.18825,0.0,2023,6,7,16,15,34,554
45.28010,0.11515,0.19057,0.00000,0.03087,0.97685,-0.18910,0.0,2023,6,7,16,15,34,564
45.28020,-0.04235,-0.14193,0.00000,0.03050,0.97466,-0.18837,0.0,2023,6,7,16,15,34,574
45.28030,0.09765,-0.00193,0.00000,0.03087,0.97661,-0.18849,0.0,2023,6,7,16,15,34,584
45.28040,-0.00735,0.12057,0.00000,0.03209,0.97844,-0.18800,0.0,2023,6,7,16,15,34,594
45.28050,-0.07735,-0.03693,0.00000,0.03001,0.97685,-0.18495,0.0,2023,6,7,16,15,34,604
45.28060,-0.04235,0.03307,0.00000,0.03209,0.97502,-0.18629,0.0,2023,6,7,16,15,34,614
45.28070,-0.00735,0.01557,0.00000,0.03172,0.97478,-0.18654,0.0,2023,6,7,16,15,34,624
45.28080,-0.16485,0.15557,0.00000,0.03099,0.97698,-0.18922,0.0,2023,6,7,16,15,34,634
45.28090,-0.11235,0.08557,0.00000,0.03172,0.97698,-0.19020,0.0,2023,6,7,16,15,34,644
45.28100,-0.04235,-0.12443,0.00000,0.03099,0.97515,-0.18849,0.0,2023,6,7,16,15,34,654
45.28110,-0.30485,-0.03693,0.00000,0.03038,0.97673,-0.18837,0.0,2023,6,7,16,15,34,664
45.28120,-0.11235,0.10307,0.00000,0.03111,0.97624,-0.19020,0.0,2023,6,7,16,15,34,674
45.28130,-0.09485,-0.05443,0.00000,0.03135,0.97673,-0.18983,0.0,2023,6,7,16,15,34,684
45.28140,-0.16485,-0.00193,0.00000,0.03087,0.97588,-0.19056,0.0,2023,6,7,16,15,34,694
45.28150,-0.09485,0.15557,0.00000,0.03209,0.97624,-0.18666,0.0,2023,6,7,16,15,34,704
45.28160,-0.19985,-0.00193,0.00000,0.03062,0.97649,-0.18678,0.0,2023,6,7,16,15,34,714
45.28170,-0.07735,0.22557,0.00000,0.02916,0.97710,-0.18983,0.0,2023,6,7,16,15,34,724
45.28180,-0.02485,0.08557,0.00000,0.03062,0.97722,-0.18837,0.0,2023,6,7,16,15,34,734
45.28190,-0.12985,-0.10693,0.00000,0.03050,0.97661,-0.18788,0.0,2023,6,7,16,15,34,744
45.28200,-0.09485,0.12057,0.00000,0.03074,0.97612,-0.18812,0.0,2023,6,7,16,15,34,754
45.28210,0.06265,0.03307,0.00000,0.03050,0.97612,-0.18727,0.0,2023,6,7,16,15,34,764
45.28220,0.06265,-0.35193,0.00000,0.03135,0.97649,-0.19032,0.0,2023,6,7,16,15,34,774
45.28230,-0.00735,-0.12443,0.00000,0.02904,0.97515,-0.19044,0.0,2023,6,7,16,15,34,784
45.28240,-0.12985,-0.05443,0.00000,0.03196,0.97844,-0.18764,0.0,2023,6,7,16,15,34,794
45.28250,0.01015,-0.00193,0.00000,0.02806,0.97588,-0.18800,0.0,2023,6,7,16,15,34,804
45.28260,0.22015,-0.05443,0.00000,0.03111,0.97551,-0.18910,0.0,2023,6,7,16,15,34,814
45.28270,0.06265,-0.00193,0.00000,0.03148,0.97673,-0.18886,0.0,2023,6,7,16,15,34,824
45.28280,0.08015,-0.17693,0.00000,0.02965,0.97795,-0.19081,0.0,2023,6,7,16,15,34,834
45.28290,0.13265,0.13807,0.00000,0.03148,0.97539,-0.18568,0.0,2023,6,7,16,15,34,844
45.28300,-0.14735,0.06807,0.00000,0.03184,0.97332,-0.18666,0.0,2023,6,7,16,15,34,854
45.28310,0.02765,0.08557,0.00000,0.03148,0.97856,-0.18959,0.0,2023,6,7,16,15,34,864
45.28320,0.04515,0.06807,0.00000,0.03160,0.97759,-0.18898,0.0,2023,6,7,16,15,34,874
45.28330,-0.00735,-0.01943,0.00000,0.03148,0.97490,-0.18898,0.0,2023,6,7,16,15,34,884
45.28340,0.08015,0.01557,0.00000,0.03245,0.97624,-0.18581,0.0,2023,6,7,16,15,34,894
45.28350,0.13265,0.03307,0.00000,0.03221,0.97539,-0.18520,0.0,2023,6,7,16,15,35,4
45.28360,-0.12985,-0.08943,0.00000,0.03257,0.97649,-0.18898,0.0,2023,6,7,16,15,35,14
45.28370,-0.02485,0.03307,0.00000,0.03306,0.97576,-0.18837,0.0,2023,6,7,16,15,35,24
45.28380,0.04515,-0.01943,0.00000,0.03050,0.97746,-0.18776,0.0,2023,6,7,16,15,35,34
45.28390,-0.12985,0.08557,0.00000,0.03050,0.97551,-0.18837,0.0,2023,6,7,16,15,35,44
45.28400,0.02765,0.08557,0.00000,0.02989,0.97649,-0.18910,0.0,2023,6,7,16,15,35,54
45.28410,-0.11235,0.15557,0.00000,0.03099,0.97454,-0.18837,0.0,2023,6,7,16,15,35,64
45.28420,0.06265,0.17307,0.00000,0.03196,0.97380,-0.19081,0.0,2023,6,7,16,15,35,74
45.28430,-0.02485,0.06807,0.00000,0.03196,0.97661,-0.18727,0.0,2023,6,7,16,15,35,84
45.28440,-0.16485,0.06807,0.00000,0.03148,0.97405,-0.18605,0.0,2023,6,7,16,15,35,94
45.28450,-0.09485,-0.12443,0.00000,0.02916,0.97502,-0.18849,0.0,2023,6,7,16,15,35,104
45.28460,0.06265,-0.01943,0.00000,0.03331,0.97771,-0.18776,0.0,2023,6,7,16,15,35,114
45.28470,0.01015,0.20807,0.00000,0.03209,0.97661,-0.18776,0.0,2023,6,7,16,15,35,124
45.28480,-0.04235,0.03307,0.00000,0.03062,0.97820,-0.19056,0.0,2023,6,7,16,15,35,134
45.28490,-0.12985,-0.00193,0.00000,0.03038,0.97820,-0.18788,0.0,2023,6,7,16,15,35,144
45.28500,-0.16485,-0.01943,0.00000,0.03245,0.97661,-0.18764,0.0,2023,6,7,16,15,35,154
45.28510,0.08015,-0.03693,0.00000,0.03038,0.97978,-0.18849,0.0,2023,6,7,16,15,35,164
45.28520,-0.07735,0.08557,0.00000,0.03074,0.97344,-0.18776,0.0,2023,6,7,16,15,35,174
45.28530,-0.05985,0.17307,0.00000,0.03074,0.97515,-0.18764,0.0,2023,6,7,16,15,35,184
45.28540,-0.04235,-0.10693,0.00000,0.03196,0.97807,-0.18507,0.0,2023,6,7,16,15,35,194
45.28550,-0.09485,-0.17693,0.00000,0.03087,0.97746,-0.18727,0.0,2023,6,7,16,15,35,204
45.28560,0.06265,-0.15943,0.00000,0.02977,0.97820,-0.18605,0.0,2023,6,7,16,15,35,214
45.28570,-0.00735,-0.00193,0.00000,0.02965,0.97661,-0.18739,0.0,2023,6,7,16,15,35,224
45.28580,0.04515,0.12057,0.00000,0.02891,0.97539,-0.18837,0.0,2023,6,7,16,15,35,234
45.28590,-0.02485,-0.22943,0.00000,0.03160,0.97661,-0.18800,0.0,2023,6,7,16,15,35,244
45.28600,-0.02485,0.06807,0.00000,0.03221,0.97710,-0.18800,0.0,2023,6,7,16,15,35,254
45.28610,-0.04235,0.01557,0.00000,0.03172,0.97771,-0.18666,0.0,2023,6,7,16,15,35,264
45.28620,0.08015,0.06807,0.00000,0.03172,0.97600,-0.18812,0.0,2023,6,7,16,15,35,274
45.28630,0.13265,-0.01943,0.00000,0.03026,0.97685,-0.19117,0.0,2023,6,7,16,15,35,284
45.28640,0.16765,-0.08943,0.00000,0.03074,0.97698,-0.18690,0.0,2023,6,7,16,15,35,294
45.28650,0.06265,0.03307,0.00000,0.03026,0.97515,-0.18666,0.0,2023,6,7,16,15,35,304
45.28660,0.16765,0.20807,0.00000,0.03135,0.97734,-0.18825,0.0,2023,6,7,16,15,35,314
45.28670,-0.04235,0.01557,0.00000,0.03294,0.97637,-0.18617,0.0,2023,6,7,16,15,35,324
45.28680,-0.25235,0.06807,0.00000,0.03135,0.97612,-0.18764,0.0,2023,6,7,16,15,35,334
45.28690,0.22015,-0.03693,0.00000,0.03050,0.97795,-0.18788,0.0,2023,6,7,16,15,35,344
45.28700,0.09765,-0.08943,0.00000,0.03087,0.97637,-0.18568,0.0,2023,6,7,16,15,35,354
45.28710,-0.07735,0.20807,0.00000,0.02952,0.97624,-0.18837,0.0,2023,6,7,16,15,35,364
45.28720,0.18515,0.01557,0.00000,0.03087,0.97576,-0.18764,0.0,2023,6,7,16,15,35,374
45.28730,0.06265,-0.14193,0.00000,0.02965,0.97722,-0.18385,0.0,2023,6,7,16,15,35,384
45.28740,0.15015,0.17307,0.00000,0.03087,0.97490,-0.18947,0.0,2023,6,7,16,15,35,394
45.28750,0.04515,-0.12443,0.00000,0.03123,0.97624,-0.18581,0.0,2023,6,7,16,15,35,404
45.28760,-0.00735,0.06807,0.00000,0.03282,0.97539,-0.18800,0.0,2023,6,7,16,15,35,414
45.28770,0.25515,-0.03693,0.00000,0.03392,0.97515,-0.19008,0.0,2023,6,7,16,15,35,424
45.28780,-0.11235,-0.01943,0.00000,0.03111,0.97649,-0.18556,0.0,2023,6,7,16,15,35,434
45.28790,0.04515,0.08557,0.00000,0.02989,0.97649,-0.18861,0.0,2023,6,7,16,15,35,444
45.28800,0.02765,0.06807,0.00000,0.03074,0.97807,-0.18703,0.0,2023,6,7,16,15,35,454
45.28810,0.02765,-0.22943,0.00000,0.03245,0.97722,-0.18922,0.0,2023,6,7,16,15,35,464
45.28820,-0.05985,0.03307,0.00000,0.03001,0.97673,-0.18666,0.0,2023,6,7,16,15,35,474
45.28830,-0.05985,-0.08943,0.00000,0.03209,0.97759,-0.18642,0.0,2023,6,7,16,15,35,484
45.28840,-0.04235,0.05057,0.00000,0.03123,0.97807,-0.18971,0.0,2023,6,7,16,15,35,494
45.28850,0.22015,-0.08943,0.00000,0.02989,0.97612,-0.18971,0.0,2023,6,7,16,15,35,504
45.28860,0.02765,-0.01943,0.00000,0.03148,0.97771,-0.18751,0.0,2023,6,7,16,15,35,514
45.28870,-0.11235,0.15557,0.00000,0.03062,0.97856,-0.18837,0.0,2023,6,7,16,15,35,524
45.28880,-0.11235,-0.07193,0.00000,0.02794,0.97515,-0.18922,0.0,2023,6,7,16,15,35,534
45.28890,0.13265,0.01557,0.00000,0.02965,0.97734,-0.18861,0.0,2023,6,7,16,15,35,544
45.28900,-0.07735,0.08557,0.00000,0.03148,0.97502,-0.18825,0.0,2023,6,7,16,15,35,554
45.28910,-0.04235,0.06807,0.00000,0.03428,0.97710,-0.18837,0.0,2023,6,7,16,15,35,564
45.28920,-0.18235,0.08557,0.00000,0.03257,0.97832,-0.18690,0.0,2023,6,7,16,15,35,574
45.28930,0.08015,0.10307,0.00000,0.03306,0.97600,-0.19154,0.0,2023,6,7,16,15,35,584
45.28940,-0.00735,0.40057,0.00000,0.03099,0.97466,-0.19166,0.0,2023,6,7,16,15,35,594
45.28950,0.16765,-0.03693,0.00000,0.03233,0.97868,-0.18764,0.0,2023,6,7,16,15,35,604
45.28960,-0.09485,0.17307,0.00000,0.03233,0.97612,-0.18873,0.0,2023,6,7,16,15,35,614
45.28970,0.16765,-0.10693,0.00000,0.03221,0.97673,-0.18873,0.0,2023,6,7,16,15,35,624
45.28980,0.01015,-0.00193,0.00000,0.03013,0.97746,-0.18617,0.0,2023,6,7,16,15,35,634
45.28990,-0.00735,-0.12443,0.00000,0.03196,0.97527,-0.18812,0.0,2023,6,7,16,15,35,644
45.29000,0.01015,-0.07193,0.00000,0.03257,0.97868,-0.18788,0.0,2023,6,7,16,15,35,654
45.29010,0.22015,-0.03693,0.00000,0.03123,0.97588,-0.18873,0.0,2023,6,7,16,15,35,664
45.29020,0.11515,-0.00193,0.00000,0.03013,0.97502,-0.18983,0.0,2023,6,7,16,15,35,674
45.29030,0.13265,0.08557,0.00000,0.03026,0.97832,-0.18922,0.0,2023,6,7,16,15,35,684
45.29040,-0.00735,-0.05443,0.00000,0.03172,0.97441,-0.18666,0.0,2023,6,7,16,15,35,694
45.29050,-0.11235,0.17307,0.00000,0.03001,0.97795,-0.18800,0.0,2023,6,7,16,15,35,704
45.29060,0.06265,-0.07193,0.00000,0.03074,0.97868,-0.18995,0.0,2023,6,7,16,15,35,714
45.29070,-0.05985,0.10307,0.00000,0.03099,0.97685,-0.18654,0.0,2023,6,7,16,15,35,724
45.29080,0.13265,-0.14193,0.00000,0.03062,0.97649,-0.18715,0.0,2023,6,7,16,15,35,734
45.29090,0.04515,0.03307,0.00000,0.03221,0.97502,-0.18532,0.0,2023,6,7,16,15,35,744
45.29100,-0.04235,-0.07193,0.00000,0.03209,0.97563,-0.19008,0.0,2023,6,7,16,15,35,754
45.29110,0.13265,0.06807,0.00000,0.02965,0.97795,-0.18849,0.0,2023,6,7,16,15,35,764
45.29120,0.02765,0.10307,0.00000,0.03062,0.97429,-0.18593,0.0,2023,6,7,16,15,35,774
45.29130,-0.11235,0.08557,0.00000,0.03233,0.97624,-0.18544,0.0,2023,6,7,16,15,35,784
45.29140,0.04515,0.01557,0.00000,0.03135,0.97454,-0.18764,0.0,2023,6,7,16,15,35,794
45.29150,0.36015,-0.10693,0.00000,0.03282,0.97868,-0.18800,0.0,2023,6,7,16,15,35,804
45.29160,-0.11235,0.01557,0.00000,0.03099,0.97515,-0.19069,0.0,2023,6,7,16,15,35,814
45.29170,0.18515,0.08557,0.00000,0.03160,0.97637,-0.18873,0.0,2023,6,7,16,15,35,824
45.29180,-0.16485,0.10307,0.00000,0.03221,0.97441,-0.18983,0.0,2023,6,7,16,15,35,834
45.29190,0.06265,-0.14193,0.00000,0.03087,0.97551,-0.18800,0.0,2023,6,7,16,15,35,844
45.29200,-0.12985,0.05057,0.00000,0.03343,0.97490,-0.18873,0.0,2023,6,7,16,15,35,854
45.29210,-0.04235,0.08557,0.00000,0.03172,0.97429,-0.18922,0.0,2023,6,7,16,15,35,864
45.29220,0.08015,-0.10693,0.00000,0.03062,0.97576,-0.18825,0.0,2023,6,7,16,15,35,874
45.29230,-0.04235,0.19057,0.00000,0.03306,0.97673,-0.18629,0.0,2023,6,7,16,15,35,884
45.29240,-0.02485,-0.07193,0.00000,0.03050,0.97783,-0.18922,0.0,2023,6,7,16,15,35,894
45.29250,0.15015,0.15557,0.00000,0.03148,0.97478,-0.18788,0.0,2023,6,7,16,15,36,4
45.29260,-0.02485,-0.17693,0.00000,0.03026,0.97661,-0.18849,0.0,2023,6,7,16,15,36,14
45.29270,-0.04235,-0.03693,0.00000,0.03050,0.97698,-0.18898,0.0,2023,6,7,16,15,36,24
45.29280,0.08015,0.17307,0.00000,0.03123,0.97734,-0.19020,0.0,2023,6,7,16,15,36,34
45.29290,-0.05985,-0.14193,0.00000,0.03087,0.97600,-0.18764,0.0,2023,6,7,16,15,36,44
45.29300,-0.14735,0.01557,0.00000,0.03087,0.97734,-0.18800,0.0,2023,6,7,16,15,36,54
45.29310,-0.02485,-0.08943,0.00000,0.03087,0.97649,-0.18837,0.0,2023,6,7,16,15,36,64
45.29320,-0.04235,0.08557,0.00000,0.02782,0.97624,-0.18715,0.0,2023,6,7,16,15,36,74
45.29330,0.02765,-0.15943,0.00000,0.03306,0.97600,-0.18764,0.0,2023,6,7,16,15,36,84
45.29340,-0.00735,-0.01943,0.00000,0.03331,0.97820,-0.18812,0.0,2023,6,7,16,15,36,94
45.29350,-0.12985,0.01557,0.00000,0.03074,0.97759,-0.18605,0.0,2023,6,7,16,15,36,104
45.29360,-0.00735,0.03307,0.00000,0.03123,0.97405,-0.19008,0.0,2023,6,7,16,15,36,114
45.29370,0.08015,0.08557,0.00000,0.03123,0.97771,-0.18873,0.0,2023,6,7,16,15,36,124
45.29380,-0.14735,-0.07193,0.00000,0.03331,0.97588,-0.18739,0.0,2023,6,7,16,15,36,134
45.29390,-0.00735,0.19057,0.00000,0.03087,0.97685,-0.18837,0.0,2023,6,7,16,15,36,144
45.29400,0.11515,-0.22943,0.00000,0.03050,0.97698,-0.18678,0.0,2023,6,7,16,15,36,154
45.29410,0.02765,-0.03693,0.00000,0.02989,0.97576,-0.18861,0.0,2023,6,7,16,15,36,164
45.29420,0.01015,0.13807,0.00000,0.03062,0.97673,-0.18995,0.0,2023,6,7,16,15,36,174
45.29430,0.08015,-0.05443,0.00000,0.03221,0.97820,-0.19008,0.0,2023,6,7,16,15,36,184
45.29440,-0.21735,0.22557,0.00000,0.03245,0.97588,-0.18739,0.0,2023,6,7,16,15,36,194
45.29450,0.11515,-0.15943,0.00000,0.03111,0.97832,-0.18812,0.0,2023,6,7,16,15,36,204
45.29460,0.16765,0.15557,0.00000,0.03050,0.97783,-0.18666,0.0,2023,6,7,16,15,36,214
45.29470,-0.21735,-0.03693,0.00000,0.03221,0.97807,-0.18837,0.0,2023,6,7,16,15,36,224
45.29480,0.16765,-0.15943,0.00000,0.02855,0.97612,-0.18825,0.0,2023,6,7,16,15,36,234
45.29490,-0.12985,0.10307,0.00000,0.03184,0.97759,-0.18495,0.0,2023,6,7,16,15,36,244
45.29500,-0.07735,0.26057,0.00000,0.03221,0.97600,-0.18568,0.0,2023,6,7,16,15,36,254
45.29510,0.16765,-0.15943,0.00000,0.03087,0.97649,-0.18886,0.0,2023,6,7,16,15,36,264
45.29520,-0.14735,0.08557,0.00000,0.03074,0.97637,-0.18715,0.0,2023,6,7,16,15,36,274
45.29530,0.02765,-0.00193,0.00000,0.03257,0.97649,-0.18886,0.0,2023,6,7,16,15,36,284
45.29540,0.06265,-0.03693,0.00000,0.02977,0.97600,-0.18776,0.0,2023,6,7,16,15,36,294
45.29550,-0.11235,-0.00193,0.00000,0.03148,0.97576,-0.19008,0.0,2023,6,7,16,15,36,304
45.29560,0.15015,-0.21193,0.00000,0.03160,0.97722,-0.19020,0.0,2023,6,7,16,15,36,314
45.29570,0.02765,0.20807,0.00000,0.03245,0.97734,-0.18764,0.0,2023,6,7,16,15,36,324
45.29580,-0.00735,-0.12443,0.00000,0.03221,0.97576,-0.18739,0.0,2023,6,7,16,15,36,334
45.29590,-0.04235,-0.07193,0.00000,0.03440,0.97576,-0.19069,0.0,2023,6,7,16,15,36,344
45.29600,-0.11235,0.29557,0.00000,0.03172,0.97649,-0.18788,0.0,2023,6,7,16,15,36,354
45.29610,-0.07735,-0.10693,0.00000,0.03074,0.97624,-0.18654,0.0,2023,6,7,16,15,36,364
45.29620,0.08015,0.01557,0.00000,0.03221,0.97527,-0.18727,0.0,2023,6,7,16,15,36,374
45.29630,0.02765,-0.00193,0.00000,0.03026,0.97624,-0.18666,0.0,2023,6,7,16,15,36,384
45.29640,-0.05985,0.19057,0.00000,0.03355,0.97673,-0.18654,0.0,2023,6,7,16,15,36,394
45.29650,-0.09485,-0.00193,0.00000,0.03306,0.97771,-0.18983,0.0,2023,6,7,16,15,36,404
45.29660,-0.00735,-0.17693,0.00000,0.03074,0.97759,-0.18678,0.0,2023,6,7,16,15,36,414
45.29670,-0.14735,0.06807,0.00000,0.03233,0.97539,-0.18751,0.0,2023,6,7,16,15,36,424
45.29680,-0.12985,0.26057,0.00000,0.02940,0.97771,-0.18739,0.0,2023,6,7,16,15,36,434
45.29690,-0.16485,0.33057,0.00000,0.03123,0.97527,-0.18812,0.0,2023,6,7,16,15,36,444
45.29700,-0.07735,-0.05443,0.00000,0.03038,0.97820,-0.18825,0.0,2023,6,7,16,15,36,454
45.29710,-0.16485,0.12057,0.00000,0.02952,0.97832,-0.19056,0.0,2023,6,7,16,15,36,464
45.29720,-0.21735,0.06807,0.00000,0.02952,0.97588,-0.18544,0.0,2023,6,7,16,15,36,474
45.29730,0.02765,0.08557,0.00000,0.03270,0.97917,-0.18495,0.0,2023,6,7,16,15,36,484
45.29740,-0.16485,0.20807,0.00000,0.03026,0.97576,-0.18690,0.0,2023,6,7,16,15,36,494
45.29750,-0.04235,-0.05443,0.00000,0.02965,0.97600,-0.18910,0.0,2023,6,7,16,15,36,504
45.29760,0.01015,0.08557,0.00000,0.03062,0.97551,-0.18788,0.0,2023,6,7,16,15,36,514
45.29770,-0.09485,-0.01943,0.00000,0.02989,0.97917,-0.18849,0.0,2023,6,7,16,15,36,524
45.29780,-0.23485,0.05057,0.00000,0.03099,0.97576,-0.18556,0.0,2023,6,7,16,15,36,534
45.29790,-0.00735,0.10307,0.00000,0.03257,0.97576,-0.18812,0.0,2023,6,7,16,15,36,544
45.29800,0.08015,-0.22943,0.00000,0.03074,0.97576,-0.18629,0.0,2023,6,7,16,15,36,554
45.29810,-0.18235,0.01557,0.00000,0.03172,0.97637,-0.18690,0.0,2023,6,7,16,15,36,564
45.29820,0.08015,-0.10693,0.00000,0.03001,0.97588,-0.18837,0.0,2023,6,7,16,15,36,574
45.29830,0.02765,-0.07193,0.00000,0.03257,0.97478,-0.18520,0.0,2023,6,7,16,15,36,584
45.29840,-0.00735,-0.21193,0.00000,0.03160,0.97490,-0.18886,0.0,2023,6,7,16,15,36,594
45.29850,0.20265,-0.10693,0.00000,0.03087,0.97637,-0.18837,0.0,2023,6,7,16,15,36,604
45.29860,0.06265,-0.07193,0.00000,0.03038,0.97795,-0.18642,0.0,2023,6,7,16,15,36,614
45.29870,0.15015,0.05057,0.00000,0.03257,0.97868,-0.18739,0.0,2023,6,7,16,15,36,624
45.29880,0.09765,-0.12443,0.00000,0.02940,0.97698,-0.18788,0.0,2023,6,7,16,15,36,634
45.29890,-0.25235,0.10307,0.00000,0.03026,0.97600,-0.18654,0.0,2023,6,7,16,15,36,644
45.29900,0.18515,-0.17693,0.00000,0.03135,0.97698,-0.18947,0.0,2023,6,7,16,15,36,654
45.29910,0.08015,0.15557,0.00000,0.03233,0.97624,-0.18617,0.0,2023,6,7,16,15,36,664
45.29920,-0.11235,0.12057,0.00000,0.03148,0.97515,-0.18617,0.0,2023,6,7,16,15,36,674
45.29930,0.11515,0.08557,0.00000,0.03099,0.97698,-0.18568,0.0,2023,6,7,16,15,36,684
45.29940,0.11515,0.03307,0.00000,0.03111,0.97783,-0.18776,0.0,2023,6,7,16,15,36,694
45.29950,-0.00735,-0.08943,0.00000,0.03099,0.97698,-0.18873,0.0,2023,6,7,16,15,36,704
45.29960,-0.00735,-0.05443,0.00000,0.03245,0.97734,-0.18812,0.0,2023,6,7,16,15,36,714
45.29970,-0.25235,0.03307,0.00000,0.03062,0.97710,-0.18910,0.0,2023,6,7,16,15,36,724
45.29980,-0.00735,0.17307,0.00000,0.03196,0.97722,-0.18715,0.0,2023,6,7,16,15,36,734
45.29990,-0.05985,0.01557,0.00000,0.03453,0.97527,-0.18751,0.0,2023,6,7,16,15,36,744
45.30000,0.15015,-0.03693,0.00000,0.03209,0.97722,-0.18483,0.0,2023,6,7,16,15,36,754
45.30010,0.18515,0.05057,0.00000,0.03123,0.97478,-0.19032,0.0,2023,6,7,16,15,36,764
45.30020,0.11515,0.15557,0.00000,0.03233,0.97722,-0.18971,0.0,2023,6,7,16,15,36,774
45.30030,-0.09485,0.01557,0.00000,0.03123,0.97649,-0.18678,0.0,2023,6,7,16,15,36,784
45.30040,0.01015,-0.03693,0.00000,0.03160,0.97771,-0.18837,0.0,2023,6,7,16,15,36,794
45.30050,-0.02485,0.10307,0.00000,0.03318,0.97649,-0.18788,0.0,2023,6,7,16,15,36,804
45.30060,-0.11235,-0.03693,0.00000,0.02928,0.97551,-0.18886,0.0,2023,6,7,16,15,36,814
45.30070,0.11515,0.03307,0.00000,0.02965,0.97637,-0.18751,0.0,2023,6,7,16,15,36,824
45.30080,-0.07735,-0.21193,0.00000,0.03196,0.97637,-0.18629,0.0,2023,6,7,16,15,36,834
45.30090,-0.04235,-0.05443,0.00000,0.03148,0.97710,-0.18605,0.0,2023,6,7,16,15,36,844
45.30100,-0.07735,0.10307,0.00000,0.03123,0.97551,-0.18764,0.0,2023,6,7,16,15,36,854
45.30110,0.06265,0.08557,0.00000,0.03257,0.97746,-0.18910,0.0,2023,6,7,16,15,36,864
45.30120,-0.09485,0.08557,0.00000,0.03026,0.97478,-0.18703,0.0,2023,6,7,16,15,36,874
45.30130,-0.00735,0.01557,0.00000,0.03050,0.97624,-0.18422,0.0,2023,6,7,16,15,36,884
45.30140,-0.04235,0.26057,0.00000,0.03379,0.97637,-0.18654,0.0,2023,6,7,16,15,37,4
45.30150,-0.04235,0.10307,0.00000,0.03038,0.97722,-0.18629,0.0,2023,6,7,16,15,37,14
45.30160,0.01015,-0.03693,0.00000,0.03123,0.97576,-0.18666,0.0,2023,6,7,16,15,37,24
45.30170,0.02765,-0.12443,0.00000,0.02916,0.97563,-0.18800,0.0,2023,6,7,16,15,37,34
45.30180,-0.11235,0.01557,0.00000,0.03135,0.97649,-0.18593,0.0,2023,6,7,16,15,37,44
45.30190,-0.05985,-0.01943,0.00000,0.03038,0.97881,-0.18642,0.0,2023,6,7,16,15,37,54
45.30200,0.15015,-0.08943,0.00000,0.03099,0.97820,-0.18849,0.0,2023,6,7,16,15,37,64
45.30210,0.13265,-0.12443,0.00000,0.03209,0.97698,-0.18678,0.0,2023,6,7,16,15,37,74
45.30220,-0.11235,0.05057,0.00000,0.03148,0.97563,-0.18764,0.0,2023,6,7,16,15,37,84
45.30230,-0.04235,-0.08943,0.00000,0.03111,0.97624,-0.18605,0.0,2023,6,7,16,15,37,94
45.30240,0.04515,-0.07193,0.00000,0.03062,0.97588,-0.18617,0.0,2023,6,7,16,15,37,104
45.30250,0.11515,-0.07193,0.00000,0.03026,0.97734,-0.18581,0.0,2023,6,7,16,15,37,114
45.30260,-0.07735,0.12057,0.00000,0.03062,0.97612,-0.18605,0.0,2023,6,7,16,15,37,124
45.30270,0.01015,0.15557,0.00000,0.03184,0.97929,-0.18739,0.0,2023,6,7,16,15,37,134
45.30280,0.06265,-0.03693,0.00000,0.03465,0.97698,-0.18568,0.0,2023,6,7,16,15,37,144
45.30290,0.09765,0.03307,0.00000,0.03282,0.97637,-0.18617,0.0,2023,6,7,16,15,37,154
45.30300,-0.07735,0.05057,0.00000,0.02952,0.97551,-0.18678,0.0,2023,6,7,16,15,37,164
45.30310,-0.14735,-0.10693,0.00000,0.03074,0.97624,-0.18703,0.0,2023,6,7,16,15,37,174
45.30320,0.02765,-0.07193,0.00000,0.03111,0.97441,-0.18812,0.0,2023,6,7,16,15,37,184
45.30330,-0.14735,0.22557,0.00000,0.03172,0.97832,-0.18581,0.0,2023,6,7,16,15,37,194
45.30340,-0.05985,0.01557,0.00000,0.03050,0.97588,-0.18629,0.0,2023,6,7,16,15,37,204
45.30350,-0.04235,-0.01943,0.00000,0.02965,0.97539,-0.18861,0.0,2023,6,7,16,15,37,214
45.30360,0.11515,0.01557,0.00000,0.03294,0.97600,-0.18861,0.0,2023,6,7,16,15,37,224
45.30370,-0.05985,0.08557,0.00000,0.03172,0.97661,-0.18788,0.0,2023,6,7,16,15,37,234
45.30380,0.15015,-0.05443,0.00000,0.03026,0.97722,-0.18605,0.0,2023,6,7,16,15,37,244
45.30390,0.04515,0.12057,0.00000,0.03257,0.97515,-0.18690,0.0,2023,6,7,16,15,37,254
45.30400,-0.19985,0.15557,0.00000,0.03013,0.97685,-0.18434,0.0,2023,6,7,16,15,37,264
45.30410,0.15015,-0.12443,0.00000,0.03111,0.97441,-0.18886,0.0,2023,6,7,16,15,37,274
45.30420,-0.16485,0.03307,0.00000,0.03196,0.97637,-0.18544,0.0,2023,6,7,16,15,37,284
45.30430,-0.04235,0.13807,0.00000,0.03331,0.97673,-0.18642,0.0,2023,6,7,16,15,37,294
45.30440,-0.07735,0.06807,0.00000,0.03038,0.97576,-0.18788,0.0,2023,6,7,16,15,37,304
45.30450,-0.09485,0.10307,0.00000,0.03209,0.97710,-0.18886,0.0,2023,6,7,16,15,37,314
45.30460,-0.19985,-0.10693,0.00000,0.03294,0.97673,-0.18654,0.0,2023,6,7,16,15,37,324
45.30470,0.02765,-0.05443,0.00000,0.03026,0.97661,-0.18593,0.0,2023,6,7,16,15,37,334
45.30480,-0.00735,-0.10693,0.00000,0.03074,0.97722,-0.18581,0.0,2023,6,7,16,15,37,344
45.30490,0.02765,0.15557,0.00000,0.03013,0.97490,-0.18617,0.0,2023,6,7,16,15,37,354
45.30500,-0.12985,0.08557,0.00000,0.03087,0.97698,-0.18605,0.0,2023,6,7,16,15,37,364
45.30510,0.13265,0.06807,0.00000,0.03013,0.97612,-0.18593,0.0,2023,6,7,16,15,37,374
45.30520,0.11515,-0.00193,0.00000,0.02989,0.97929,-0.18361,0.0,2023,6,7,16,15,37,384
45.30530,-0.02485,-0.10693,0.00000,0.03087,0.97539,-0.18800,0.0,2023,6,7,16,15,37,394
45.30540,-0.02485,0.08557,0.00000,0.03221,0.97563,-0.18873,0.0,2023,6,7,16,15,37,404
45.30550,-0.09485,0.01557,0.00000,0.03099,0.97698,-0.18703,0.0,2023,6,7,16,15,37,414
45.30560,-0.09485,-0.07193,0.00000,0.03148,0.97527,-0.18654,0.0,2023,6,7,16,15,37,424
45.30570,-0.04235,0.13807,0.00000,0.03270,0.97795,-0.18544,0.0,2023,6,7,16,15,37,434
45.30580,-0.04235,0.08557,0.00000,0.03026,0.97698,-0.18764,0.0,2023,6,7,16,15,37,444
45.30590,0.20265,-0.24693,0.00000,0.03111,0.97380,-0.18873,0.0,2023,6,7,16,15,37,454
45.30600,0.09765,-0.01943,0.00000,0.03282,0.97527,-0.18617,0.0,2023,6,7,16,15,37,464
45.30610,-0.19985,0.17307,0.00000,0.03306,0.97820,-0.18495,0.0,2023,6,7,16,15,37,474
45.30620,0.01015,-0.10693,0.00000,0.03135,0.97734,-0.18788,0.0,2023,6,7,16,15,37,484
45.30630,0.29015,-0.00193,0.00000,0.03282,0.97600,-0.18898,0.0,2023,6,7,16,15,37,494
45.30640,0.06265,-0.19443,0.00000,0.03038,0.97771,-0.18666,0.0,2023,6,7,16,15,37,504
45.30650,-0.05985,0.03307,0.00000,0.03196,0.97673,-0.18459,0.0,2023,6,7,16,15,37,514
45.30660,-0.16485,0.52307,0.00000,0.02891,0.97588,-0.18605,0.0,2023,6,7,16,15,37,524
45.30670,0.13265,-0.00193,0.00000,0.02989,0.97454,-0.18922,0.0,2023,6,7,16,15,37,534
45.30680,0.20265,-0.01943,0.00000,0.03087,0.97441,-0.18629,0.0,2023,6,7,16,15,37,544
45.30690,-0.00735,0.06807,0.00000,0.03221,0.97649,-0.18361,0.0,2023,6,7,16,15,37,554
45.30700,0.02765,0.19057,0.00000,0.03282,0.97637,-0.18483,0.0,2023,6,7,16,15,37,564
45.30710,-0.14735,0.10307,0.00000,0.03160,0.97746,-0.18678,0.0,2023,6,7,16,15,37,574
45.30720,-0.07735,0.12057,0.00000,0.03050,0.97515,-0.18825,0.0,2023,6,7,16,15,37,584
45.30730,-0.00735,-0.08943,0.00000,0.03087,0.97661,-0.18800,0.0,2023,6,7,16,15,37,594
45.30740,0.09765,-0.03693,0.00000,0.03196,0.97612,-0.18593,0.0,2023,6,7,16,15,37,604
45.30750,-0.11235,0.05057,0.00000,0.02965,0.97783,-0.18642,0.0,2023,6,7,16,15,37,614
45.30760,0.29015,-0.10693,0.00000,0.02977,0.97527,-0.18629,0.0,2023,6,7,16,15,37,624
45.30770,-0.11235,0.03307,0.00000,0.03172,0.97685,-0.18715,0.0,2023,6,7,16,15,37,634
45.30780,-0.05985,0.13807,0.00000,0.03209,0.97649,-0.18629,0.0,2023,6,7,16,15,37,644
45.30790,0.01015,0.15557,0.00000,0.03087,0.97734,-0.18483,0.0,2023,6,7,16,15,37,654
45.30800,-0.00735,-0.01943,0.00000,0.03209,0.97795,-0.18629,0.0,2023,6,7,16,15,37,664
45.30810,0.09765,-0.15943,0.00000,0.03270,0.97759,-0.18544,0.0,2023,6,7,16,15,37,674
45.30820,-0.04235,0.08557,0.00000,0.03270,0.97661,-0.18410,0.0,2023,6,7,16,15,37,684
45.30830,-0.19985,0.29557,0.00000,0.03135,0.97771,-0.18788,0.0,2023,6,7,16,15,37,694
45.30840,-0.07735,0.01557,0.00000,0.03221,0.97698,-0.18751,0.0,2023,6,7,16,15,37,704
45.30850,0.06265,0.01557,0.00000,0.03026,0.97612,-0.18751,0.0,2023,6,7,16,15,37,714
45.30860,-0.04235,0.01557,0.00000,0.03160,0.98015,-0.18471,0.0,2023,6,7,16,15,37,724
45.30870,-0.11235,-0.03693,0.00000,0.03245,0.97698,-0.18629,0.0,2023,6,7,16,15,37,734
45.30880,0.08015,0.05057,0.00000,0.03001,0.97685,-0.18483,0.0,2023,6,7,16,15,37,744
45.30890,-0.00735,0.01557,0.00000,0.03013,0.97783,-0.18507,0.0,2023,6,7,16,15,37,754
45.30900,-0.11235,0.08557,0.00000,0.03184,0.97698,-0.18568,0.0,2023,6,7,16,15,37,764
45.30910,0.01015,-0.15943,0.00000,0.03270,0.97576,-0.18373,0.0,2023,6,7,16,15,37,774
45.30920,0.02765,-0.26443,0.00000,0.03160,0.97685,-0.18837,0.0,2023,6,7,16,15,37,784
45.30930,0.02765,0.06807,0.00000,0.03050,0.97624,-0.18727,0.0,2023,6,7,16,15,37,794
45.30940,0.16765,0.01557,0.00000,0.03233,0.97637,-0.18678,0.0,2023,6,7,16,15,37,804
45.30950,-0.12985,0.03307,0.00000,0.03343,0.97563,-0.18690,0.0,2023,6,7,16,15,37,814
45.30960,0.08015,0.01557,0.00000,0.03209,0.97710,-0.18654,0.0,2023,6,7,16,15,37,824
45.30970,0.02765,-0.01943,0.00000,0.03099,0.97807,-0.18654,0.0,2023,6,7,16,15,37,834
45.30980,0.23765,0.05057,0.00000,0.03404,0.97771,-0.18556,0.0,2023,6,7,16,15,37,844
45.30990,-0.09485,0.12057,0.00000,0.03294,0.97624,-0.18581,0.0,2023,6,7,16,15,37,854
45.31000,-0.07735,0.05057,0.00000,0.03074,0.97478,-0.18520,0.0,2023,6,7,16,15,37,864
45.31010,-0.07735,-0.00193,0.00000,0.03184,0.97734,-0.18666,0.0,2023,6,7,16,15,37,874
45.31020,0.01015,0.20807,0.00000,0.02904,0.97673,-0.18727,0.0,2023,6,7,16,15,37,884
45.31030,0.09765,-0.01943,0.00000,0.03160,0.97734,-0.18849,0.0,2023,6,7,16,15,37,894
45.31040,0.01015,-0.00193,0.00000,0.03245,0.97673,-0.18703,0.0,2023,6,7,16,15,37,904
45.31050,-0.11235,0.01557,0.00000,0.03331,0.97771,-0.18739,0.0,2023,6,7,16,15,38,4
45.31060,0.16765,-0.01943,0.00000,0.03233,0.97820,-0.18544,0.0,2023,6,7,16,15,38,14
45.31070,0.01015,0.22557,0.00000,0.03123,0.98027,-0.18971,0.0,2023,6,7,16,15,38,24
45.31080,-0.21735,-0.01943,0.00000,0.03050,0.97661,-0.18568,0.0,2023,6,7,16,15,38,34
45.31090,0.01015,0.15557,0.00000,0.03135,0.97600,-0.18690,0.0,2023,6,7,16,15,38,44
45.31100,0.09765,0.03307,0.00000,0.03013,0.97490,-0.18690,0.0,2023,6,7,16,15,38,54
45.31110,0.09765,-0.08943,0.00000,0.03196,0.97661,-0.18581,0.0,2023,6,7,16,15,38,64
45.31120,-0.09485,0.08557,0.00000,0.03148,0.97551,-0.18703,0.0,2023,6,7,16,15,38,74
45.31130,-0.18235,0.06807,0.00000,0.03343,0.97710,-0.18837,0.0,2023,6,7,16,15,38,84
45.31140,-0.12985,0.03307,0.00000,0.03135,0.97539,-0.18800,0.0,2023,6,7,16,15,38,94
45.31150,0.01015,0.01557,0.00000,0.03123,0.97746,-0.18837,0.0,2023,6,7,16,15,38,104
45.31160,-0.09485,0.10307,0.00000,0.03209,0.97746,-0.18727,0.0,2023,6,7,16,15,38,114
45.31170,0.15015,-0.01943,0.00000,0.03087,0.97746,-0.18678,0.0,2023,6,7,16,15,38,124
45.31180,0.01015,0.17307,0.00000,0.03209,0.97637,-0.18666,0.0,2023,6,7,16,15,38,134
45.31190,-0.09485,0.06807,0.00000,0.03148,0.97881,-0.18800,0.0,2023,6,7,16,15,38,144
45.31200,-0.05985,0.08557,0.00000,0.03184,0.97673,-0.18776,0.0,2023,6,7,16,15,38,154
45.31210,0.11515,0.15557,0.00000,0.03318,0.97539,-0.18886,0.0,2023,6,7,16,15,38,164
45.31220,0.06265,0.24307,0.00000,0.03099,0.97661,-0.18715,0.0,2023,6,7,16,15,38,174
45.31230,-0.04235,0.05057,0.00000,0.03148,0.97490,-0.18642,0.0,2023,6,7,16,15,38,184
45.31240,-0.04235,-0.03693,0.00000,0.03306,0.97820,-0.18678,0.0,2023,6,7,16,15,38,194
45.31250,-0.05985,0.03307,0.00000,0.03270,0.97539,-0.18556,0.0,2023,6,7,16,15,38,204
45.31260,0.11515,-0.00193,0.00000,0.02940,0.97600,-0.18910,0.0,2023,6,7,16,15,38,214
45.31270,-0.00735,0.10307,0.00000,0.03111,0.97771,-0.18690,0.0,2023,6,7,16,15,38,224
45.31280,0.01015,0.01557,0.00000,0.03306,0.97807,-0.18593,0.0,2023,6,7,16,15,38,234
45.31290,0.13265,0.17307,0.00000,0.03062,0.97795,-0.18751,0.0,2023,6,7,16,15,38,244
45.31300,0.02765,0.10307,0.00000,0.03001,0.97466,-0.18825,0.0,2023,6,7,16,15,38,254
45.31310,-0.04235,0.24307,0.00000,0.03111,0.97746,-0.18861,0.0,2023,6,7,16,15,38,264
45.31320,-0.12985,-0.07193,0.00000,0.02965,0.97612,-0.18690,0.0,2023,6,7,16,15,38,274
45.31330,-0.02485,-0.08943,0.00000,0.03318,0.97576,-0.18581,0.0,2023,6,7,16,15,38,284
45.31340,0.15015,-0.08943,0.00000,0.03160,0.97771,-0.18703,0.0,2023,6,7,16,15,38,294
45.31350,-0.05985,-0.10693,0.00000,0.03074,0.97771,-0.18642,0.0,2023,6,7,16,15,38,304
45.31360,-0.07735,0.05057,0.00000,0.03221,0.97527,-0.18837,0.0,2023,6,7,16,15,38,314
45.31370,-0.02485,0.01557,0.00000,0.03013,0.97588,-0.18812,0.0,2023,6,7,16,15,38,324
45.31380,-0.19985,-0.00193,0.00000,0.03331,0.97624,-0.18629,0.0,2023,6,7,16,15,38,334
45.31390,-0.02485,0.03307,0.00000,0.02965,0.97600,-0.18568,0.0,2023,6,7,16,15,38,344
45.31400,0.01015,-0.08943,0.00000,0.03160,0.97441,-0.18715,0.0,2023,6,7,16,15,38,354
45.31410,-0.16485,-0.01943,0.00000,0.02977,0.97478,-0.18739,0.0,2023,6,7,16,15,38,364
45.31420,-0.00735,-0.10693,0.00000,0.03013,0.97807,-0.18642,0.0,2023,6,7,16,15,38,374
45.31430,0.09765,-0.05443,0.00000,0.03331,0.97588,-0.18398,0.0,2023,6,7,16,15,38,384
45.31440,-0.25235,-0.03693,0.00000,0.03209,0.97624,-0.18324,0.0,2023,6,7,16,15,38,394
45.31450,-0.04235,0.34807,0.00000,0.03184,0.97539,-0.18337,0.0,2023,6,7,16,15,38,404
45.31460,-0.05985,-0.12443,0.00000,0.03184,0.97612,-0.18605,0.0,2023,6,7,16,15,38,414
45.31470,-0.11235,0.12057,0.00000,0.03257,0.97637,-0.18837,0.0,2023,6,7,16,15,38,424
45.31480,-0.00735,-0.00193,0.00000,0.03026,0.97563,-0.18593,0.0,2023,6,7,16,15,38,434
45.31490,-0.02485,-0.05443,0.00000,0.03282,0.97868,-0.18544,0.0,2023,6,7,16,15,38,444
45.31500,0.06265,-0.08943,0.00000,0.03184,0.97746,-0.18971,0.0,2023,6,7,16,15,38,454
45.31510,-0.07735,0.10307,0.00000,0.03123,0.97478,-0.18727,0.0,2023,6,7,16,15,38,464
45.31520,-0.18235,0.01557,0.00000,0.03221,0.97685,-0.18934,0.0,2023,6,7,16,15,38,474
45.31530,0.04515,-0.01943,0.00000,0.02928,0.97771,-0.18788,0.0,2023,6,7,16,15,38,484
45.31540,-0.14735,-0.00193,0.00000,0.03221,0.97563,-0.18398,0.0,2023,6,7,16,15,38,494
45.31550,-0.02485,-0.17693,0.00000,0.03392,0.97563,-0.18568,0.0,2023,6,7,16,15,38,504
45.31560,0.15015,-0.22943,0.00000,0.03135,0.97612,-0.18666,0.0,2023,6,7,16,15,38,514
45.31570,0.02765,0.03307,0.00000,0.03172,0.97710,-0.18812,0.0,2023,6,7,16,15,38,524
45.31580,-0.23485,0.01557,0.00000,0.03087,0.97710,-0.18861,0.0,2023,6,7,16,15,38,534
45.31590,-0.07735,0.03307,0.00000,0.02879,0.98039,-0.18690,0.0,2023,6,7,16,15,38,544
45.31600,0.08015,-0.05443,0.00000,0.03221,0.97954,-0.18581,0.0,2023,6,7,16,15,38,554
45.31610,0.02765,0.20807,0.00000,0.03026,0.97624,-0.18739,0.0,2023,6,7,16,15,38,564
45.31620,0.11515,-0.15943,0.00000,0.02952,0.97576,-0.18995,0.0,2023,6,7,16,15,38,574
45.31630,-0.11235,0.01557,0.00000,0.03099,0.97649,-0.19069,0.0,2023,6,7,16,15,38,584
45.31640,0.04515,-0.00193,0.00000,0.03135,0.97637,-0.18886,0.0,2023,6,7,16,15,38,594
45.31650,0.09765,-0.00193,0.00000,0.03184,0.97661,-0.18983,0.0,2023,6,7,16,15,38,604
45.31660,0.20265,-0.05443,0.00000,0.02904,0.97551,-0.18776,0.0,2023,6,7,16,15,38,614
45.31670,0.01015,0.06807,0.00000,0.03099,0.97795,-0.18861,0.0,2023,6,7,16,15,38,624
45.31680,0.11515,-0.03693,0.00000,0.02721,0.97759,-0.18934,0.0,2023,6,7,16,15,38,634
45.31690,-0.21735,0.10307,0.00000,0.02904,0.97698,-0.18825,0.0,2023,6,7,16,15,38,644
45.31700,-0.05985,0.08557,0.00000,0.03026,0.97685,-0.18788,0.0,2023,6,7,16,15,38,654
45.31710,0.04515,-0.05443,0.00000,0.03123,0.97478,-0.18812,0.0,2023,6,7,16,15,38,664
45.31720,0.13265,0.13807,0.00000,0.03196,0.97637,-0.18629,0.0,2023,6,7,16,15,38,674
45.31730,0.13265,-0.17693,0.00000,0.02952,0.97588,-0.19154,0.0,2023,6,7,16,15,38,684
45.31740,-0.04235,-0.05443,0.00000,0.02794,0.97417,-0.19130,0.0,2023,6,7,16,15,38,694
45.31750,-0.02485,0.08557,0.00000,0.03001,0.97868,-0.18812,0.0,2023,6,7,16,15,38,704
45.31760,-0.16485,-0.07193,0.00000,0.03074,0.97820,-0.18520,0.0,2023,6,7,16,15,38,714
45.31770,0.06265,0.06807,0.00000,0.03172,0.97624,-0.18800,0.0,2023,6,7,16,15,38,724
45.31780,0.23765,-0.03693,0.00000,0.02916,0.97515,-0.18849,0.0,2023,6,7,16,15,38,734
45.31790,-0.07735,0.05057,0.00000,0.03050,0.97380,-0.19154,0.0,2023,6,7,16,15,38,744
45.31800,0.02765,-0.26443,0.00000,0.03331,0.97759,-0.18995,0.0,2023,6,7,16,15,38,754
45.31810,-0.09485,0.08557,0.00000,0.03074,0.97881,-0.18666,0.0,2023,6,7,16,15,38,764
45.31820,-0.21735,0.12057,0.00000,0.03099,0.97698,-0.18593,0.0,2023,6,7,16,15,38,774
45.31830,0.09765,0.08557,0.00000,0.03245,0.97429,-0.18934,0.0,2023,6,7,16,15,38,784
45.31840,0.06265,-0.05443,0.00000,0.03026,0.97807,-0.18654,0.0,2023,6,7,16,15,38,794
45.31850,-0.11235,0.06807,0.00000,0.03050,0.97673,-0.19081,0.0,2023,6,7,16,15,38,804
45.31860,0.06265,-0.10693,0.00000,0.03294,0.97515,-0.18532,0.0,2023,6,7,16,15,38,814
45.31870,-0.16485,0.10307,0.00000,0.03209,0.97515,-0.18593,0.0,2023,6,7,16,15,38,824
45.31880,0.20265,0.05057,0.00000,0.03257,0.97600,-0.18788,0.0,2023,6,7,16,15,38,834
45.31890,0.16765,0.05057,0.00000,0.03087,0.97600,-0.18812,0.0,2023,6,7,16,15,38,844
45.31900,-0.05985,-0.01943,0.00000,0.03123,0.97624,-0.19044,0.0,2023,6,7,16,15,38,854
45.31910,0.09765,-0.19443,0.00000,0.03111,0.97576,-0.18947,0.0,2023,6,7,16,15,38,864
45.31920,0.04515,0.15557,0.00000,0.03013,0.97734,-0.18678,0.0,2023,6,7,16,15,38,874
45.31930,-0.00735,0.08557,0.00000,0.02891,0.97563,-0.19056,0.0,2023,6,7,16,15,39,4
45.31940,0.06265,0.06807,0.00000,0.02977,0.97856,-0.18959,0.0,2023,6,7,16,15,39,14
45.31950,-0.04235,0.08557,0.00000,0.03087,0.97771,-0.18666,0.0,2023,6,7,16,15,39,24
45.31960,0.16765,0.13807,0.00000,0.03257,0.97661,-0.18861,0.0,2023,6,7,16,15,39,34
45.31970,0.11515,0.17307,0.00000,0.03148,0.97563,-0.18995,0.0,2023,6,7,16,15,39,44
45.31980,-0.05985,0.06807,0.00000,0.03306,0.97771,-0.18800,0.0,2023,6,7,16,15,39,54
45.31990,0.18515,-0.15943,0.00000,0.03013,0.97649,-0.18947,0.0,2023,6,7,16,15,39,64
45.32000,0.08015,-0.00193,0.00000,0.03172,0.97612,-0.18788,0.0,2023,6,7,16,15,39,74
45.32010,-0.11235,-0.08943,0.00000,0.03343,0.97710,-0.18886,0.0,2023,6,7,16,15,39,84
45.32020,-0.05985,0.12057,0.00000,0.03318,0.97576,-0.18922,0.0,2023,6,7,16,15,39,94
45.32030,-0.11235,-0.07193,0.00000,0.03270,0.97746,-0.18751,0.0,2023,6,7,16,15,39,104
45.32040,0.02765,0.08557,0.00000,0.03038,0.97856,-0.18617,0.0,2023,6,7,16,15,39,114
45.32050,0.01015,-0.03693,0.00000,0.02879,0.97673,-0.18947,0.0,2023,6,7,16,15,39,124
45.32060,-0.18235,0.13807,0.00000,0.03209,0.97722,-0.19020,0.0,2023,6,7,16,15,39,134
45.32070,-0.04235,0.24307,0.00000,0.03221,0.97637,-0.19069,0.0,2023,6,7,16,15,39,144
45.32080,-0.16485,0.12057,0.00000,0.03087,0.97832,-0.18727,0.0,2023,6,7,16,15,39,154
45.32090,-0.00735,0.01557,0.00000,0.03160,0.97844,-0.18751,0.0,2023,6,7,16,15,39,164
45.32100,-0.05985,0.03307,0.00000,0.03026,0.97527,-0.18703,0.0,2023,6,7,16,15,39,174
45.32110,0.22015,0.05057,0.00000,0.03184,0.97698,-0.18825,0.0,2023,6,7,16,15,39,184
45.32120,0.04515,-0.00193,0.00000,0.02916,0.97771,-0.18849,0.0,2023,6,7,16,15,39,194
45.32130,0.01015,0.08557,0.00000,0.03282,0.97588,-0.18532,0.0,2023,6,7,16,15,39,204
45.32140,0.09765,-0.07193,0.00000,0.03196,0.97771,-0.18739,0.0,2023,6,7,16,15,39,214
45.32150,0.15015,0.08557,0.00000,0.02989,0.97515,-0.18751,0.0,2023,6,7,16,15,39,224
45.32160,-0.05985,0.08557,0.00000,0.03062,0.97673,-0.18788,0.0,2023,6,7,16,15,39,234
45.32170,-0.05985,-0.00193,0.00000,0.03221,0.97722,-0.18898,0.0,2023,6,7,16,15,39,244
45.32180,0.11515,-0.10693,0.00000,0.03257,0.97698,-0.18873,0.0,2023,6,7,16,15,39,254
45.32190,0.01015,0.22557,0.00000,0.03099,0.97905,-0.18934,0.0,2023,6,7,16,15,39,264
45.32200,0.06265,0.01557,0.00000,0.03026,0.97844,-0.18971,0.0,2023,6,7,16,15,39,274
45.32210,-0.19985,0.01557,0.00000,0.03123,0.97698,-0.18837,0.0,2023,6,7,16,15,39,284
45.32220,0.01015,-0.03693,0.00000,0.03123,0.97539,-0.18739,0.0,2023,6,7,16,15,39,294
45.32230,0.11515,0.03307,0.00000,0.03026,0.97783,-0.18764,0.0,2023,6,7,16,15,39,304
45.32240,0.09765,-0.17693,0.00000,0.03270,0.97746,-0.19008,0.0,2023,6,7,16,15,39,314
45.32250,0.04515,0.15557,0.00000,0.03099,0.97649,-0.18764,0.0,2023,6,7,16,15,39,324
45.32260,-0.09485,0.01557,0.00000,0.03001,0.97868,-0.18800,0.0,2023,6,7,16,15,39,334
45.32270,0.20265,-0.08943,0.00000,0.03294,0.97624,-0.18556,0.0,2023,6,7,16,15,39,344
45.32280,0.18515,0.06807,0.00000,0.03050,0.97807,-0.18861,0.0,2023,6,7,16,15,39,354
45.32290,0.02765,0.12057,0.00000,0.03331,0.97698,-0.18727,0.0,2023,6,7,16,15,39,364
45.32300,0.04515,-0.00193,0.00000,0.02965,0.97563,-0.18995,0.0,2023,6,7,16,15,39,374
45.32310,-0.02485,-0.01943,0.00000,0.03172,0.97649,-0.18666,0.0,2023,6,7,16,15,39,384
45.32320,-0.18235,-0.03693,0.00000,0.03270,0.97515,-0.18581,0.0,2023,6,7,16,15,39,394
45.32330,0.08015,0.15557,0.00000,0.03050,0.97600,-0.18861,0.0,2023,6,7,16,15,39,404
45.32340,-0.04235,0.08557,0.00000,0.03355,0.97515,-0.19020,0.0,2023,6,7,16,15,39,414
45.32350,0.09765,-0.14193,0.00000,0.03123,0.97759,-0.18617,0.0,2023,6,7,16,15,39,424
45.32360,0.02765,0.06807,0.00000,0.03209,0.97661,-0.18800,0.0,2023,6,7,16,15,39,434
45.32370,0.08015,-0.05443,0.00000,0.03135,0.97637,-0.18739,0.0,2023,6,7,16,15,39,444
45.32380,-0.07735,0.03307,0.00000,0.03050,0.97612,-0.18788,0.0,2023,6,7,16,15,39,454
45.32390,-0.18235,0.15557,0.00000,0.03123,0.97637,-0.18825,0.0,2023,6,7,16,15,39,464
45.32400,0.04515,-0.05443,0.00000,0.03306,0.97588,-0.18568,0.0,2023,6,7,16,15,39,474
45.32410,-0.16485,-0.10693,0.00000,0.03184,0.97673,-0.18739,0.0,2023,6,7,16,15,39,484
45.32420,0.02765,0.08557,0.00000,0.02794,0.97673,-0.18764,0.0,2023,6,7,16,15,39,494
45.32430,-0.12985,0.29557,0.00000,0.03135,0.97624,-0.18739,0.0,2023,6,7,16,15,39,504
45.32440,-0.02485,0.03307,0.00000,0.03160,0.97661,-0.18617,0.0,2023,6,7,16,15,39,514
45.32450,0.13265,0.03307,0.00000,0.03123,0.97576,-0.18446,0.0,2023,6,7,16,15,39,524
45.32460,0.06265,-0.03693,0.00000,0.03257,0.97746,-0.18581,0.0,2023,6,7,16,15,39,534
45.32470,0.02765,0.12057,0.00000,0.03282,0.97649,-0.18934,0.0,2023,6,7,16,15,39,544
45.32480,0.06265,-0.03693,0.00000,0.03050,0.97685,-0.18703,0.0,2023,6,7,16,15,39,554
45.32490,-0.11235,-0.01943,0.00000,0.02928,0.97551,-0.18593,0.0,2023,6,7,16,15,39,564
45.32500,-0.00735,0.06807,0.00000,0.03355,0.97746,-0.18983,0.0,2023,6,7,16,15,39,574
45.32510,0.25515,-0.07193,0.00000,0.03270,0.97820,-0.18861,0.0,2023,6,7,16,15,39,584
45.32520,-0.02485,-0.07193,0.00000,0.02916,0.97637,-0.18873,0.0,2023,6,7,16,15,39,594
45.32530,0.01015,-0.19443,0.00000,0.03294,0.97368,-0.19069,0.0,2023,6,7,16,15,39,604
45.32540,0.18515,0.03307,0.00000,0.03123,0.97429,-0.18654,0.0,2023,6,7,16,15,39,614
45.32550,-0.02485,-0.00193,0.00000,0.03050,0.97624,-0.18361,0.0,2023,6,7,16,15,39,624
45.32560,-0.14735,0.01557,0.00000,0.03135,0.97710,-0.18678,0.0,2023,6,7,16,15,39,634
45.32570,0.11515,-0.15943,0.00000,0.03001,0.97942,-0.18605,0.0,2023,6,7,16,15,39,644
45.32580,-0.16485,0.05057,0.00000,0.03160,0.97637,-0.18849,0.0,2023,6,7,16,15,39,654
45.32590,-0.11235,-0.01943,0.00000,0.03172,0.97624,-0.18751,0.0,2023,6,7,16,15,39,664
45.32600,-0.12985,0.01557,0.00000,0.03148,0.97698,-0.18593,0.0,2023,6,7,16,15,39,674
45.32610,-0.02485,-0.24693,0.00000,0.03148,0.97649,-0.18654,0.0,2023,6,7,16,15,39,684
45.32620,0.13265,-0.01943,0.00000,0.03026,0.98027,-0.18593,0.0,2023,6,7,16,15,39,694
45.32630,0.06265,-0.05443,0.00000,0.03221,0.97698,-0.18666,0.0,2023,6,7,16,15,39,704
45.32640,0.04515,-0.01943,0.00000,0.03038,0.97746,-0.18873,0.0,2023,6,7,16,15,39,714
45.32650,-0.16485,-0.03693,0.00000,0.03367,0.97795,-0.18812,0.0,2023,6,7,16,15,39,724
45.32660,0.08015,0.08557,0.00000,0.03160,0.97624,-0.18886,0.0,2023,6,7,16,15,39,734
45.32670,-0.12985,0.20807,0.00000,0.03099,0.97649,-0.18727,0.0,2023,6,7,16,15,39,744
45.32680,0.15015,0.12057,0.00000,0.02989,0.97600,-0.19093,0.0,2023,6,7,16,15,39,754
45.32690,0.02765,-0.05443,0.00000,0.03087,0.97441,-0.18520,0.0,2023,6,7,16,15,39,764
45.32700,-0.07735,-0.01943,0.00000,0.03038,0.97649,-0.18495,0.0,2023,6,7,16,15,39,774
45.32710,-0.00735,0.13807,0.00000,0.03026,0.97795,-0.19032,0.0,2023,6,7,16,15,39,784
45.32720,-0.19985,0.10307,0.00000,0.02977,0.97771,-0.18654,0.0,2023,6,7,16,15,39,794
45.32730,0.25515,-0.05443,0.00000,0.02818,0.97527,-0.18825,0.0,2023,6,7,16,15,39,804
45.32740,0.08015,0.06807,0.00000,0.03050,0.97698,-0.18654,0.0,2023,6,7,16,15,39,814
45.32750,-0.04235,0.13807,0.00000,0.03184,0.97551,-0.18361,0.0,2023,6,7,16,15,39,824
45.32760,-0.00735,-0.14193,0.00000,0.03038,0.97759,-0.18617,0.0,2023,6,7,16,15,39,834
45.32770,0.02765,-0.03693,0.00000,0.02733,0.97344,-0.18776,0.0,2023,6,7,16,15,39,844
45.32780,0.16765,-0.08943,0.00000,0.03221,0.97612,-0.18886,0.0,2023,6,7,16,15,39,854
45.32790,0.04515,-0.07193,0.00000,0.03123,0.97624,-0.18995,0.0,2023,6,7,16,15,39,864
45.32800,-0.05985,0.03307,0.00000,0.03343,0.97551,-0.18532,0.0,2023,6,7,16,15,39,874
45.32810,0.08015,-0.21193,0.00000,0.03209,0.97576,-0.18593,0.0,2023,6,7,16,15,39,884
45.32820,0.11515,0.15557,0.00000,0.03001,0.97807,-0.18629,0.0,2023,6,7,16,15,40,4
45.32830,-0.07735,0.10307,0.00000,0.02916,0.97624,-0.18776,0.0,2023,6,7,16,15,40,14
45.32840,-0.09485,0.19057,0.00000,0.03184,0.97649,-0.18605,0.0,2023,6,7,16,15,40,24
45.32850,-0.14735,0.05057,0.00000,0.03001,0.97637,-0.18764,0.0,2023,6,7,16,15,40,34
45.32860,-0.00735,-0.01943,0.00000,0.03306,0.97710,-0.18324,0.0,2023,6,7,16,15,40,44
45.32870,-0.07735,0.15557,0.00000,0.03160,0.97820,-0.18861,0.0,2023,6,7,16,15,40,54
45.32880,-0.07735,-0.08943,0.00000,0.03074,0.97637,-0.18898,0.0,2023,6,7,16,15,40,64
45.32890,-0.12985,0.08557,0.00000,0.03306,0.97698,-0.18520,0.0,2023,6,7,16,15,40,74
45.32900,0.02765,0.17307,0.00000,0.03270,0.97710,-0.18556,0.0,2023,6,7,16,15,40,84
45.32910,-0.23485,0.03307,0.00000,0.03331,0.97563,-0.18617,0.0,2023,6,7,16,15,40,94
45.32920,-0.02485,-0.05443,0.00000,0.03160,0.97698,-0.18812,0.0,2023,6,7,16,15,40,104
45.32930,0.01015,0.06807,0.00000,0.03245,0.97515,-0.19008,0.0,2023,6,7,16,15,40,114
45.32940,-0.11235,-0.01943,0.00000,0.03026,0.97490,-0.18642,0.0,2023,6,7,16,15,40,124
45.32950,-0.14735,0.03307,0.00000,0.03062,0.97612,-0.18532,0.0,2023,6,7,16,15,40,134
45.32960,0.01015,-0.01943,0.00000,0.03172,0.97722,-0.18581,0.0,2023,6,7,16,15,40,144
45.32970,0.08015,0.12057,0.00000,0.03160,0.97783,-0.18886,0.0,2023,6,7,16,15,40,154
45.32980,0.06265,-0.00193,0.00000,0.03148,0.97710,-0.18678,0.0,2023,6,7,16,15,40,164
45.32990,0.01015,-0.00193,0.00000,0.03270,0.97698,-0.18849,0.0,2023,6,7,16,15,40,174
45.33000,-0.11235,0.01557,0.00000,0.03245,0.97563,-0.18861,0.0,2023,6,7,16,15,40,184
45.33010,0.06265,0.06807,0.00000,0.03001,0.97539,-0.18739,0.0,2023,6,7,16,15,40,194
45.33020,0.13265,0.03307,0.00000,0.02928,0.97722,-0.18703,0.0,2023,6,7,16,15,40,204
45.33030,-0.04235,0.33057,0.00000,0.03196,0.97539,-0.18666,0.0,2023,6,7,16,15,40,214
45.33040,-0.18235,0.13807,0.00000,0.03050,0.97942,-0.19008,0.0,2023,6,7,16,15,40,224
45.33050,0.04515,-0.00193,0.00000,0.03367,0.97734,-0.18776,0.0,2023,6,7,16,15,40,234
45.33060,0.04515,-0.07193,0.00000,0.03148,0.97466,-0.18934,0.0,2023,6,7,16,15,40,244
45.33070,0.27265,0.13807,0.00000,0.03270,0.97661,-0.18751,0.0,2023,6,7,16,15,40,254
45.33080,-0.16485,-0.03693,0.00000,0.03148,0.97746,-0.18617,0.0,2023,6,7,16,15,40,264
45.33090,-0.00735,0.10307,0.00000,0.02904,0.97551,-0.19020,0.0,2023,6,7,16,15,40,274
45.33100,0.13265,-0.15943,0.00000,0.03233,0.97637,-0.18898,0.0,2023,6,7,16,15,40,284
45.33110,0.18515,-0.05443,0.00000,0.03209,0.97576,-0.18568,0.0,2023,6,7,16,15,40,294
45.33120,-0.07735,-0.00193,0.00000,0.03026,0.97527,-0.18678,0.0,2023,6,7,16,15,40,304
45.33130,-0.16485,0.05057,0.00000,0.03331,0.97661,-0.18459,0.0,2023,6,7,16,15,40,314
45.33140,0.06265,-0.12443,0.00000,0.03184,0.97685,-0.19008,0.0,2023,6,7,16,15,40,324
45.33150,0.02765,-0.03693,0.00000,0.03172,0.97795,-0.18593,0.0,2023,6,7,16,15,40,334
45.33160,-0.11235,0.15557,0.00000,0.03379,0.97771,-0.18715,0.0,2023,6,7,16,15,40,344
45.33170,0.16765,-0.03693,0.00000,0.03184,0.97795,-0.18568,0.0,2023,6,7,16,15,40,354
45.33180,0.06265,0.06807,0.00000,0.03123,0.97624,-0.18800,0.0,2023,6,7,16,15,40,364
45.33190,0.13265,0.06807,0.00000,0.03172,0.97759,-0.18654,0.0,2023,6,7,16,15,40,374
45.33200,0.04515,-0.07193,0.00000,0.03148,0.97759,-0.18703,0.0,2023,6,7,16,15,40,384
45.33210,-0.07735,-0.17693,0.00000,0.03209,0.97490,-0.18703,0.0,2023,6,7,16,15,40,394
45.33220,-0.09485,0.15557,0.00000,0.03172,0.97637,-0.18703,0.0,2023,6,7,16,15,40,404
45.33230,-0.11235,0.13807,0.00000,0.02952,0.97759,-0.18861,0.0,2023,6,7,16,15,40,414
45.33240,-0.00735,0.03307,0.00000,0.03135,0.97832,-0.18751,0.0,2023,6,7,16,15,40,424
45.33250,-0.02485,0.06807,0.00000,0.03257,0.98051,-0.18581,0.0,2023,6,7,16,15,40,434
45.33260,-0.09485,-0.03693,0.00000,0.03135,0.97441,-0.18788,0.0,2023,6,7,16,15,40,444
45.33270,-0.14735,0.06807,0.00000,0.03172,0.97563,-0.18873,0.0,2023,6,7,16,15,40,454
45.33280,-0.19985,-0.00193,0.00000,0.03257,0.97856,-0.18764,0.0,2023,6,7,16,15,40,464
45.33290,-0.16485,-0.14193,0.00000,0.03453,0.97710,-0.18568,0.0,2023,6,7,16,15,40,474
45.33300,0.01015,-0.12443,0.00000,0.03074,0.97490,-0.18422,0.0,2023,6,7,16,15,40,484
45.33310,0.01015,0.01557,0.00000,0.03148,0.97807,-0.18995,0.0,2023,6,7,16,15,40,494
45.33320,0.13265,0.22557,0.00000,0.03367,0.97698,-0.18849,0.0,2023,6,7,16,15,40,504
45.33330,-0.11235,0.29557,0.00000,0.03343,0.97746,-0.18654,0.0,2023,6,7,16,15,40,514
45.33340,0.13265,-0.22943,0.00000,0.03172,0.97563,-0.18751,0.0,2023,6,7,16,15,40,524
45.33350,0.06265,0.20807,0.00000,0.03318,0.97588,-0.18666,0.0,2023,6,7,16,15,40,534
45.33360,-0.04235,0.17307,0.00000,0.03087,0.97685,-0.18703,0.0,2023,6,7,16,15,40,544
45.33370,0.02765,0.12057,0.00000,0.03221,0.97661,-0.18605,0.0,2023,6,7,16,15,40,554
45.33380,0.01015,0.31307,0.00000,0.03111,0.97759,-0.18690,0.0,2023,6,7,16,15,40,564
45.33390,0.15015,0.13807,0.00000,0.02989,0.97759,-0.19056,0.0,2023,6,7,16,15,40,574
45.33400,-0.09485,-0.00193,0.00000,0.03001,0.97624,-0.18837,0.0,2023,6,7,16,15,40,584
45.33410,-0.00735,-0.07193,0.00000,0.03160,0.97624,-0.18910,0.0,2023,6,7,16,15,40,594
45.33420,0.01015,-0.15943,0.00000,0.03221,0.97576,-0.18654,0.0,2023,6,7,16,15,40,604
45.33430,0.18515,-0.07193,0.00000,0.03160,0.97844,-0.18654,0.0,2023,6,7,16,15,40,614
45.33440,0.08015,-0.03693,0.00000,0.03074,0.97820,-0.18654,0.0,2023,6,7,16,15,40,624
45.33450,0.02765,0.10307,0.00000,0.03148,0.97637,-0.18654,0.0,2023,6,7,16,15,40,634
45.33460,-0.12985,0.05057,0.00000,0.03160,0.97527,-0.18422,0.0,2023,6,7,16,15,40,644
45.33470,0.06265,-0.19443,0.00000,0.03196,0.97600,-0.18690,0.0,2023,6,7,16,15,40,654
45.33480,0.08015,0.03307,0.00000,0.03331,0.97588,-0.19008,0.0,2023,6,7,16,15,40,664
45.33490,0.09765,-0.05443,0.00000,0.03209,0.97881,-0.18861,0.0,2023,6,7,16,15,40,674
45.33500,-0.05985,-0.03693,0.00000,0.03172,0.97759,-0.18727,0.0,2023,6,7,16,15,40,684
45.33510,0.08015,-0.14193,0.00000,0.03172,0.97942,-0.18751,0.0,2023,6,7,16,15,40,694
45.33520,0.06265,-0.19443,0.00000,0.03062,0.97563,-0.18800,0.0,2023,6,7,16,15,40,704
45.33530,-0.00735,-0.12443,0.00000,0.03123,0.97673,-0.18739,0.0,2023,6,7,16,15,40,714
45.33540,-0.14735,-0.17693,0.00000,0.03257,0.97673,-0.18666,0.0,2023,6,7,16,15,40,724
45.33550,0.08015,-0.07193,0.00000,0.03196,0.97527,-0.18654,0.0,2023,6,7,16,15,40,734
45.33560,0.08015,0.06807,0.00000,0.02916,0.97698,-0.18751,0.0,2023,6,7,16,15,40,744
45.33570,0.13265,0.19057,0.00000,0.03111,0.97515,-0.18788,0.0,2023,6,7,16,15,40,754
45.33580,0.02765,-0.05443,0.00000,0.02952,0.97685,-0.18703,0.0,2023,6,7,16,15,40,764
45.33590,-0.07735,0.01557,0.00000,0.03001,0.97820,-0.18642,0.0,2023,6,7,16,15,40,774
45.33600,0.02765,-0.10693,0.00000,0.03062,0.97771,-0.18715,0.0,2023,6,7,16,15,40,784
45.33610,0.09765,-0.03693,0.00000,0.03233,0.97868,-0.18544,0.0,2023,6,7,16,15,40,794
45.33620,-0.09485,0.26057,0.00000,0.03135,0.97746,-0.18825,0.0,2023,6,7,16,15,40,804
45.33630,0.01015,-0.15943,0.00000,0.03209,0.97685,-0.18666,0.0,2023,6,7,16,15,40,814
45.33640,0.01015,0.05057,0.00000,0.03062,0.97905,-0.18861,0.0,2023,6,7,16,15,40,824
45.33650,0.01015,-0.00193,0.00000,0.03123,0.97515,-0.18812,0.0,2023,6,7,16,15,40,834
45.33660,0.04515,0.01557,0.00000,0.03111,0.97551,-0.18837,0.0,2023,6,7,16,15,40,844
45.33670,0.08015,-0.19443,0.00000,0.03209,0.97685,-0.18605,0.0,2023,6,7,16,15,40,854
45.33680,0.13265,-0.05443,0.00000,0.03099,0.97563,-0.18934,0.0,2023,6,7,16,15,40,864
45.33690,0.11515,-0.12443,0.00000,0.03318,0.97563,-0.18471,0.0,2023,6,7,16,15,40,874
45.33700,-0.28735,0.10307,0.00000,0.03148,0.97807,-0.18568,0.0,2023,6,7,16,15,40,884
45.33710,0.02765,0.05057,0.00000,0.03074,0.97515,-0.18544,0.0,2023,6,7,16,15,40,894
45.33720,0.13265,-0.24693,0.00000,0.03038,0.97624,-0.18812,0.0,2023,6,7,16,15,40,904
45.33730,-0.02485,-0.01943,0.00000,0.03026,0.97624,-0.18788,0.0,2023,6,7,16,15,40,914
45.33740,-0.12985,0.08557,0.00000,0.03318,0.97661,-0.18642,0.0,2023,6,7,16,15,41,4
45.33750,-0.04235,0.08557,0.00000,0.03233,0.97454,-0.18532,0.0,2023,6,7,16,15,41,14
45.33760,-0.02485,-0.10693,0.00000,0.02989,0.97698,-0.18715,0.0,2023,6,7,16,15,41,24
45.33770,0.02765,0.19057,0.00000,0.03367,0.97527,-0.18837,0.0,2023,6,7,16,15,41,34
45.33780,-0.04235,-0.07193,0.00000,0.02879,0.97576,-0.18678,0.0,2023,6,7,16,15,41,44
45.33790,-0.04235,0.20807,0.00000,0.02940,0.97502,-0.18849,0.0,2023,6,7,16,15,41,54
45.33800,0.09765,-0.03693,0.00000,0.03026,0.97710,-0.18751,0.0,2023,6,7,16,15,41,64
45.33810,0.06265,-0.01943,0.00000,0.03245,0.97417,-0.18556,0.0,2023,6,7,16,15,41,74
45.33820,0.06265,-0.15943,0.00000,0.03294,0.97759,-0.18568,0.0,2023,6,7,16,15,41,84
45.33830,0.04515,0.10307,0.00000,0.03013,0.97734,-0.18666,0.0,2023,6,7,16,15,41,94
45.33840,0.11515,-0.10693,0.00000,0.03062,0.97454,-0.18947,0.0,2023,6,7,16,15,41,104
45.33850,0.11515,0.08557,0.00000,0.03148,0.97673,-0.18825,0.0,2023,6,7,16,15,41,114
45.33860,-0.02485,0.05057,0.00000,0.03160,0.97563,-0.18581,0.0,2023,6,7,16,15,41,124
45.33870,-0.25235,0.36557,0.00000,0.03184,0.97576,-0.18703,0.0,2023,6,7,16,15,41,134
45.33880,0.04515,-0.07193,0.00000,0.03184,0.97515,-0.18910,0.0,2023,6,7,16,15,41,144
45.33890,0.02765,-0.05443,0.00000,0.02989,0.97759,-0.18715,0.0,2023,6,7,16,15,41,154
45.33900,0.11515,-0.10693,0.00000,0.03196,0.97661,-0.18849,0.0,2023,6,7,16,15,41,164
45.33910,-0.07735,0.27807,0.00000,0.02977,0.97698,-0.18605,0.0,2023,6,7,16,15,41,174
45.33920,0.16765,-0.05443,0.00000,0.03001,0.97551,-0.18800,0.0,2023,6,7,16,15,41,184
45.33930,0.02765,0.03307,0.00000,0.03270,0.97722,-0.18568,0.0,2023,6,7,16,15,41,194
45.33940,0.25515,-0.10693,0.00000,0.02952,0.97527,-0.18715,0.0,2023,6,7,16,15,41,204
45.33950,-0.07735,0.15557,0.00000,0.03355,0.97942,-0.18715,0.0,2023,6,7,16,15,41,214
45.33960,-0.02485,0.01557,0.00000,0.03160,0.97624,-0.18751,0.0,2023,6,7,16,15,41,224
45.33970,0.01015,-0.08943,0.00000,0.03184,0.97698,-0.18788,0.0,2023,6,7,16,15,41,234
45.33980,-0.16485,-0.03693,0.00000,0.03392,0.97576,-0.18898,0.0,2023,6,7,16,15,41,244
45.33990,-0.12985,0.10307,0.00000,0.03160,0.97490,-0.18666,0.0,2023,6,7,16,15,41,254
45.34000,-0.04235,0.15557,0.00000,0.03257,0.97746,-0.18959,0.0,2023,6,7,16,15,41,264
45.34010,-0.05985,0.13807,0.00000,0.03257,0.97698,-0.18947,0.0,2023,6,7,16,15,41,274
45.34020,0.09765,0.10307,0.00000,0.03148,0.97612,-0.18568,0.0,2023,6,7,16,15,41,284
45.34030,-0.07735,0.01557,0.00000,0.03123,0.97771,-0.18593,0.0,2023,6,7,16,15,41,294
45.34040,0.15015,-0.03693,0.00000,0.03233,0.97563,-0.18861,0.0,2023,6,7,16,15,41,304
45.34050,-0.00735,0.05057,0.00000,0.03074,0.97661,-0.18690,0.0,2023,6,7,16,15,41,314
45.34060,-0.00735,0.10307,0.00000,0.02916,0.97588,-0.18776,0.0,2023,6,7,16,15,41,324
45.34070,0.06265,0.03307,0.00000,0.03184,0.97527,-0.18751,0.0,2023,6,7,16,15,41,334
45.34080,0.01015,0.06807,0.00000,0.03001,0.97417,-0.18617,0.0,2023,6,7,16,15,41,344
45.34090,-0.04235,0.17307,0.00000,0.03233,0.97746,-0.18581,0.0,2023,6,7,16,15,41,354
45.34100,-0.02485,-0.00193,0.00000,0.03306,0.97759,-0.18971,0.0,2023,6,7,16,15,41,364
45.34110,0.13265,-0.05443,0.00000,0.03196,0.97539,-0.19008,0.0,2023,6,7,16,15,41,374
45.34120,0.06265,0.12057,0.00000,0.03087,0.97746,-0.18642,0.0,2023,6,7,16,15,41,384
45.34130,-0.07735,-0.05443,0.00000,0.03123,0.97527,-0.18495,0.0,2023,6,7,16,15,41,394
45.34140,0.06265,-0.17693,0.00000,0.03148,0.97576,-0.18715,0.0,2023,6,7,16,15,41,404
45.34150,-0.12985,0.05057,0.00000,0.03074,0.97795,-0.18678,0.0,2023,6,7,16,15,41,414
45.34160,-0.05985,0.05057,0.00000,0.02989,0.97649,-0.18751,0.0,2023,6,7,16,15,41,424
45.34170,0.13265,-0.14193,0.00000,0.03172,0.97844,-0.18922,0.0,2023,6,7,16,15,41,434
45.34180,-0.26985,0.10307,0.00000,0.02952,0.97600,-0.18812,0.0,2023,6,7,16,15,41,444
45.34190,0.02765,0.10307,0.00000,0.03087,0.97405,-0.19020,0.0,2023,6,7,16,15,41,454
45.34200,0.11515,-0.10693,0.00000,0.03331,0.97783,-0.18690,0.0,2023,6,7,16,15,41,464
45.34210,-0.11235,-0.14193,0.00000,0.03001,0.97807,-0.18861,0.0,2023,6,7,16,15,41,474
45.34220,0.13265,-0.07193,0.00000,0.02952,0.97698,-0.18886,0.0,2023,6,7,16,15,41,484
45.34230,-0.11235,-0.15943,0.00000,0.03087,0.97417,-0.18715,0.0,2023,6,7,16,15,41,494
45.34240,0.18515,-0.19443,0.00000,0.03367,0.97502,-0.18788,0.0,2023,6,7,16,15,41,504
45.34250,0.15015,-0.05443,0.00000,0.03135,0.97576,-0.18629,0.0,2023,6,7,16,15,41,514
45.34260,-0.18235,-0.00193,0.00000,0.03257,0.97624,-0.18690,0.0,2023,6,7,16,15,41,524
45.34270,0.01015,-0.01943,0.00000,0.03318,0.97515,-0.18837,0.0,2023,6,7,16,15,41,534
45.34280,-0.09485,0.08557,0.00000,0.03074,0.97551,-0.18703,0.0,2023,6,7,16,15,41,544
45.34290,-0.11235,0.05057,0.00000,0.02989,0.97710,-0.18642,0.0,2023,6,7,16,15,41,554
45.34300,0.16765,-0.03693,0.00000,0.03038,0.97722,-0.18605,0.0,2023,6,7,16,15,41,564
45.34310,0.06265,0.03307,0.00000,0.03111,0.97783,-0.19008,0.0,2023,6,7,16,15,41,574
45.34320,-0.04235,0.05057,0.00000,0.03148,0.97710,-0.18922,0.0,2023,6,7,16,15,41,584
45.34330,0.18515,-0.05443,0.00000,0.03172,0.97576,-0.18715,0.0,2023,6,7,16,15,41,594
45.34340,-0.11235,0.13807,0.00000,0.03135,0.97441,-0.18556,0.0,2023,6,7,16,15,41,604
45.34350,-0.04235,0.01557,0.00000,0.03209,0.97649,-0.18727,0.0,2023,6,7,16,15,41,614
45.34360,0.34265,-0.10693,0.00000,0.03318,0.97649,-0.18910,0.0,2023,6,7,16,15,41,624
45.34370,-0.07735,-0.03693,0.00000,0.03099,0.97563,-0.18642,0.0,2023,6,7,16,15,41,634
45.34380,0.11515,-0.22943,0.00000,0.03233,0.97759,-0.18873,0.0,2023,6,7,16,15,41,644
45.34390,-0.09485,-0.00193,0.00000,0.03074,0.98015,-0.18568,0.0,2023,6,7,16,15,41,654
45.34400,-0.04235,0.12057,0.00000,0.03160,0.98210,-0.18715,0.0,2023,6,7,16,15,41,664
45.34410,-0.05985,0.05057,0.00000,0.03172,0.97563,-0.18934,0.0,2023,6,7,16,15,41,674
45.34420,0.06265,-0.07193,0.00000,0.03257,0.97600,-0.18617,0.0,2023,6,7,16,15,41,684
45.34430,-0.12985,0.12057,0.00000,0.02940,0.97197,-0.18556,0.0,2023,6,7,16,15,41,694
45.34440,0.15015,0.03307,0.00000,0.03196,0.97746,-0.18764,0.0,2023,6,7,16,15,41,704
45.34450,-0.04235,0.06807,0.00000,0.03233,0.97515,-0.18788,0.0,2023,6,7,16,15,41,714
45.34460,-0.11235,-0.03693,0.00000,0.03196,0.97649,-0.18910,0.0,2023,6,7,16,15,41,724
45.34470,-0.00735,0.05057,0.00000,0.03331,0.97783,-0.18715,0.0,2023,6,7,16,15,41,734
45.34480,-0.02485,-0.01943,0.00000,0.03050,0.97734,-0.18739,0.0,2023,6,7,16,15,41,744
45.34490,-0.02485,-0.00193,0.00000,0.03001,0.97576,-0.19044,0.0,2023,6,7,16,15,41,754
45.34500,0.16765,0.08557,0.00000,0.03245,0.97588,-0.18593,0.0,2023,6,7,16,15,41,764
45.34510,-0.18235,0.05057,0.00000,0.03184,0.97454,-0.18812,0.0,2023,6,7,16,15,41,774
45.34520,0.06265,0.08557,0.00000,0.03050,0.97844,-0.18934,0.0,2023,6,7,16,15,41,784
45.34530,-0.00735,0.03307,0.00000,0.03172,0.97637,-0.18971,0.0,2023,6,7,16,15,41,794
45.34540,-0.12985,-0.07193,0.00000,0.03160,0.97502,-0.19117,0.0,2023,6,7,16,15,41,804
45.34550,0.20265,0.13807,0.00000,0.02855,0.97527,-0.19081,0.0,2023,6,7,16,15,41,814
45.34560,-0.23485,0.17307,0.00000,0.03135,0.97759,-0.18690,0.0,2023,6,7,16,15,41,824
45.34570,0.08015,-0.01943,0.00000,0.03087,0.97771,-0.18727,0.0,2023,6,7,16,15,41,834
45.34580,-0.00735,-0.10693,0.00000,0.03087,0.97612,-0.19154,0.0,2023,6,7,16,15,41,844
45.34590,0.06265,-0.10693,0.00000,0.03209,0.97807,-0.18886,0.0,2023,6,7,16,15,41,854
45.34600,0.13265,-0.01943,0.00000,0.03013,0.97685,-0.18910,0.0,2023,6,7,16,15,41,864
45.34610,0.16765,-0.05443,0.00000,0.03172,0.97624,-0.18751,0.0,2023,6,7,16,15,41,874
45.34620,-0.05985,0.17307,0.00000,0.03245,0.97649,-0.18959,0.0,2023,6,7,16,15,41,884
45.34630,0.06265,0.10307,0.00000,0.02928,0.97319,-0.18703,0.0,2023,6,7,16,15,41,894
45.34640,-0.05985,-0.22943,0.00000,0.03062,0.97685,-0.18654,0.0,2023,6,7,16,15,42,4
45.34650,-0.16485,-0.00193,0.00000,0.03318,0.97527,-0.18678,0.0,2023,6,7,16,15,42,14
45.34660,0.02765,-0.12443,0.00000,0.03196,0.97783,-0.18886,0.0,2023,6,7,16,15,42,24
45.34670,-0.02485,0.08557,0.00000,0.03135,0.97673,-0.18800,0.0,2023,6,7,16,15,42,34
45.34680,-0.14735,-0.05443,0.00000,0.03148,0.97832,-0.18873,0.0,2023,6,7,16,15,42,44
45.34690,0.01015,0.13807,0.00000,0.03209,0.97820,-0.18642,0.0,2023,6,7,16,15,42,54
45.34700,0.02765,0.06807,0.00000,0.03148,0.97673,-0.18678,0.0,2023,6,7,16,15,42,64
45.34710,0.08015,0.13807,0.00000,0.03087,0.97759,-0.18825,0.0,2023,6,7,16,15,42,74
45.34720,0.23765,-0.00193,0.00000,0.02965,0.97612,-0.18837,0.0,2023,6,7,16,15,42,84
45.34730,-0.05985,0.05057,0.00000,0.03038,0.97844,-0.18959,0.0,2023,6,7,16,15,42,94
45.34740,0.13265,0.10307,0.00000,0.03074,0.97966,-0.18605,0.0,2023,6,7,16,15,42,104
45.34750,0.11515,0.03307,0.00000,0.03221,0.97759,-0.18642,0.0,2023,6,7,16,15,42,114
45.34760,0.08015,-0.03693,0.00000,0.03160,0.97893,-0.18751,0.0,2023,6,7,16,15,42,124
45.34770,-0.07735,0.03307,0.00000,0.02952,0.97612,-0.19069,0.0,2023,6,7,16,15,42,134
45.34780,0.08015,-0.01943,0.00000,0.03099,0.97759,-0.18471,0.0,2023,6,7,16,15,42,144
45.34790,-0.09485,0.08557,0.00000,0.03123,0.97771,-0.18581,0.0,2023,6,7,16,15,42,154
45.34800,-0.05985,0.13807,0.00000,0.03196,0.97563,-0.18910,0.0,2023,6,7,16,15,42,164
45.34810,-0.14735,-0.03693,0.00000,0.02952,0.97454,-0.18764,0.0,2023,6,7,16,15,42,174
45.34820,-0.04235,0.15557,0.00000,0.03074,0.97807,-0.18654,0.0,2023,6,7,16,15,42,184
45.34830,0.01015,-0.05443,0.00000,0.02965,0.97466,-0.18715,0.0,2023,6,7,16,15,42,194
45.34840,0.09765,0.06807,0.00000,0.03318,0.97734,-0.18812,0.0,2023,6,7,16,15,42,204
45.34850,0.04515,0.01557,0.00000,0.03148,0.97820,-0.18800,0.0,2023,6,7,16,15,42,214
45.34860,0.27265,-0.07193,0.00000,0.03099,0.97905,-0.18898,0.0,2023,6,7,16,15,42,224
45.34870,-0.11235,0.10307,0.00000,0.03148,0.97746,-0.18532,0.0,2023,6,7,16,15,42,234
45.34880,-0.05985,-0.10693,0.00000,0.03209,0.97539,-0.18934,0.0,2023,6,7,16,15,42,244
45.34890,0.11515,0.03307,0.00000,0.03062,0.97734,-0.18764,0.0,2023,6,7,16,15,42,254
45.34900,0.01015,-0.00193,0.00000,0.03123,0.97478,-0.19081,0.0,2023,6,7,16,15,42,264
45.34910,0.04515,0.01557,0.00000,0.03270,0.97490,-0.18727,0.0,2023,6,7,16,15,42,274
45.34920,-0.00735,-0.08943,0.00000,0.03245,0.97868,-0.18507,0.0,2023,6,7,16,15,42,284
45.34930,-0.04235,0.01557,0.00000,0.03306,0.97600,-0.18532,0.0,2023,6,7,16,15,42,294
45.34940,0.11515,0.08557,0.00000,0.03294,0.97600,-0.18959,0.0,2023,6,7,16,15,42,304
45.34950,0.16765,-0.00193,0.00000,0.03148,0.97478,-0.18849,0.0,2023,6,7,16,15,42,314
45.34960,-0.04235,-0.05443,0.00000,0.03172,0.97673,-0.18715,0.0,2023,6,7,16,15,42,324
45.34970,-0.02485,-0.00193,0.00000,0.03013,0.97551,-0.18507,0.0,2023,6,7,16,15,42,334
45.34980,-0.09485,0.20807,0.00000,0.02867,0.97588,-0.18788,0.0,2023,6,7,16,15,42,344
45.34990,-0.19985,-0.19443,0.00000,0.03209,0.97734,-0.18642,0.0,2023,6,7,16,15,42,354
45.35000,0.01015,0.08557,0.00000,0.03099,0.97759,-0.18751,0.0,2023,6,7,16,15,42,364
45.35010,-0.11235,0.01557,0.00000,0.03099,0.97734,-0.18873,0.0,2023,6,7,16,15,42,374
45.35020,-0.12985,-0.00193,0.00000,0.03050,0.97527,-0.18922,0.0,2023,6,7,16,15,42,384
45.35030,0.13265,0.08557,0.00000,0.03013,0.97637,-0.18995,0.0,2023,6,7,16,15,42,394
45.35040,-0.12985,0.17307,0.00000,0.03245,0.97649,-0.18581,0.0,2023,6,7,16,15,42,404
45.35050,-0.05985,0.17307,0.00000,0.03001,0.97624,-0.18764,0.0,2023,6,7,16,15,42,414
45.35060,-0.04235,-0.00193,0.00000,0.03038,0.97759,-0.18947,0.0,2023,6,7,16,15,42,424
45.35070,-0.05985,-0.05443,0.00000,0.02977,0.97661,-0.18776,0.0,2023,6,7,16,15,42,434
45.35080,0.01015,0.06807,0.00000,0.03111,0.97893,-0.18776,0.0,2023,6,7,16,15,42,444
45.35090,-0.07735,0.06807,0.00000,0.03453,0.97759,-0.18788,0.0,2023,6,7,16,15,42,454
45.35100,-0.12985,-0.19443,0.00000,0.03270,0.97393,-0.18764,0.0,2023,6,7,16,15,42,464
45.35110,0.13265,0.03307,0.00000,0.03026,0.97637,-0.18788,0.0,2023,6,7,16,15,42,474
45.35120,0.01015,-0.01943,0.00000,0.03196,0.97771,-0.18788,0.0,2023,6,7,16,15,42,484
45.35130,-0.07735,0.17307,0.00000,0.03050,0.97612,-0.18873,0.0,2023,6,7,16,15,42,494
45.35140,0.01015,-0.10693,0.00000,0.03087,0.97515,-0.19093,0.0,2023,6,7,16,15,42,504
45.35150,-0.12985,0.08557,0.00000,0.03135,0.97771,-0.18751,0.0,2023,6,7,16,15,42,514
45.35160,-0.18235,0.01557,0.00000,0.03196,0.97661,-0.18532,0.0,2023,6,7,16,15,42,524
45.35170,0.02765,0.19057,0.00000,0.03270,0.97661,-0.18751,0.0,2023,6,7,16,15,42,534
45.35180,-0.04235,0.08557,0.00000,0.03306,0.97515,-0.18947,0.0,2023,6,7,16,15,42,544
45.35190,-0.02485,0.05057,0.00000,0.03172,0.97588,-0.18654,0.0,2023,6,7,16,15,42,554
45.35200,0.06265,-0.01943,0.00000,0.03233,0.97771,-0.18581,0.0,2023,6,7,16,15,42,564
45.35210,-0.00735,0.13807,0.00000,0.03026,0.97490,-0.18483,0.0,2023,6,7,16,15,42,574
45.35220,0.13265,-0.12443,0.00000,0.02989,0.97576,-0.19044,0.0,2023,6,7,16,15,42,584
45.35230,0.15015,-0.08943,0.00000,0.03123,0.97698,-0.18825,0.0,2023,6,7,16,15,42,594
45.35240,0.01015,0.12057,0.00000,0.03172,0.97527,-0.18666,0.0,2023,6,7,16,15,42,604
45.35250,-0.07735,-0.03693,0.00000,0.03087,0.97820,-0.18849,0.0,2023,6,7,16,15,42,614
45.35260,-0.07735,0.17307,0.00000,0.03184,0.97661,-0.18959,0.0,2023,6,7,16,15,42,624
45.35270,-0.09485,-0.01943,0.00000,0.03148,0.97502,-0.18678,0.0,2023,6,7,16,15,42,634
45.35280,0.08015,-0.00193,0.00000,0.03001,0.97673,-0.18788,0.0,2023,6,7,16,15,42,644
45.35290,0.29015,-0.14193,0.00000,0.03196,0.97734,-0.18581,0.0,2023,6,7,16,15,42,654
45.35300,0.04515,0.08557,0.00000,0.03221,0.97685,-0.18849,0.0,2023,6,7,16,15,42,664
45.35310,0.22015,-0.00193,0.00000,0.03148,0.97649,-0.18629,0.0,2023,6,7,16,15,42,674
45.35320,0.08015,0.03307,0.00000,0.03001,0.97600,-0.18495,0.0,2023,6,7,16,15,42,684
45.35330,-0.39235,0.13807,0.00000,0.03209,0.97710,-0.18690,0.0,2023,6,7,16,15,42,694
45.35340,0.23765,-0.19443,0.00000,0.03062,0.97759,-0.18971,0.0,2023,6,7,16,15,42,704
45.35350,-0.09485,0.22557,0.00000,0.03148,0.97502,-0.18837,0.0,2023,6,7,16,15,42,714
45.35360,0.04515,-0.00193,0.00000,0.03184,0.97576,-0.18861,0.0,2023,6,7,16,15,42,724
45.35370,0.06265,0.06807,0.00000,0.03062,0.98003,-0.18788,0.0,2023,6,7,16,15,42,734
45.35380,-0.04235,0.06807,0.00000,0.03135,0.97624,-0.18520,0.0,2023,6,7,16,15,42,744
45.35390,-0.04235,0.12057,0.00000,0.03038,0.97698,-0.18837,0.0,2023,6,7,16,15,42,754
45.35400,0.08015,-0.17693,0.00000,0.02989,0.97759,-0.18715,0.0,2023,6,7,16,15,42,764
45.35410,-0.00735,0.01557,0.00000,0.03062,0.97624,-0.18605,0.0,2023,6,7,16,15,42,774
45.35420,0.13265,0.19057,0.00000,0.03099,0.97685,-0.18739,0.0,2023,6,7,16,15,42,784
45.35430,-0.00735,0.22557,0.00000,0.03001,0.97734,-0.18800,0.0,2023,6,7,16,15,42,794
45.35440,0.04515,-0.12443,0.00000,0.02904,0.97637,-0.18800,0.0,2023,6,7,16,15,42,804
45.35450,-0.04235,0.05057,0.00000,0.03196,0.97551,-0.18483,0.0,2023,6,7,16,15,42,814
45.35460,0.08015,0.10307,0.00000,0.03282,0.97502,-0.18703,0.0,2023,6,7,16,15,42,824
45.35470,0.02765,0.12057,0.00000,0.03233,0.97966,-0.18690,0.0,2023,6,7,16,15,42,834
45.35480,0.13265,-0.08943,0.00000,0.03282,0.97454,-0.18568,0.0,2023,6,7,16,15,42,844
45.35490,0.01015,-0.07193,0.00000,0.03355,0.97515,-0.18642,0.0,2023,6,7,16,15,42,854
45.35500,0.16765,0.15557,0.00000,0.03148,0.97563,-0.18544,0.0,2023,6,7,16,15,42,864
45.35510,-0.12985,0.03307,0.00000,0.03233,0.97637,-0.18581,0.0,2023,6,7,16,15,42,874
45.35520,0.01015,0.08557,0.00000,0.03135,0.97600,-0.18849,0.0,2023,6,7,16,15,42,884
45.35530,0.11515,-0.17693,0.00000,0.03196,0.97722,-0.18629,0.0,2023,6,7,16,15,42,894
45.35540,-0.07735,0.03307,0.00000,0.03245,0.97588,-0.18629,0.0,2023,6,7,16,15,43,4
45.35550,0.01015,0.08557,0.00000,0.03148,0.97527,-0.18666,0.0,2023,6,7,16,15,43,14
45.35560,0.02765,-0.12443,0.00000,0.03331,0.97710,-0.18849,0.0,2023,6,7,16,15,43,24
45.35570,-0.02485,-0.03693,0.00000,0.03099,0.97344,-0.18751,0.0,2023,6,7,16,15,43,34
