#2023/06/07 11:15:52
time,wx,wy,wz,ax,ay,az,yy,MM,dd,hh,mm,ss,ms
28.08250,-0.01033,-0.01575,0.00000,0.02904,0.97551,-0.19264,0.0,2023,6,7,11,15,52,-1755
28.08260,0.07717,-0.24325,0.00000,0.02989,0.97380,-0.19374,0.0,2023,6,7,11,15,52,-1755
28.08270,0.02467,0.01925,0.00000,0.02867,0.97551,-0.19569,0.0,2023,6,7,11,15,52,-1755
28.08280,-0.02783,0.07175,0.00000,0.02721,0.97698,-0.19508,0.0,2023,6,7,11,15,52,-1755
28.08290,0.00717,-0.05075,0.00000,0.02879,0.97417,-0.19471,0.0,2023,6,7,11,15,52,-1755
28.08300,0.07717,-0.06825,0.00000,0.02818,0.97661,-0.19435,0.0,2023,6,7,11,15,52,-1755
28.08310,0.04217,-0.06825,0.00000,0.02855,0.97454,-0.19642,0.0,2023,6,7,11,15,52,-1755
28.08320,-0.13283,-0.06825,0.00000,0.02782,0.97405,-0.19630,0.0,2023,6,7,11,15,52,-1755
28.08330,-0.01033,0.08925,0.00000,0.03038,0.97344,-0.19752,0.0,2023,6,7,11,15,52,-1755
28.08340,-0.01033,0.14175,0.00000,0.02855,0.97527,-0.19508,0.0,2023,6,7,11,15,52,-1755
28.08350,-0.02783,0.10675,0.00000,0.03099,0.97612,-0.19508,0.0,2023,6,7,11,15,52,-1755
28.08360,-0.04533,0.05425,0.00000,0.02867,0.97515,-0.19605,0.0,2023,6,7,11,15,52,-1755
28.08370,0.07717,0.01925,0.00000,0.02940,0.97673,-0.19422,0.0,2023,6,7,11,15,52,-1755
28.08380,-0.02783,-0.24325,0.00000,0.02904,0.97441,-0.19386,0.0,2023,6,7,11,15,52,-1755
28.08390,0.05967,-0.12075,0.00000,0.02782,0.97588,-0.19654,0.0,2023,6,7,11,15,52,-1755
28.08400,-0.02783,-0.22575,0.00000,0.02794,0.97527,-0.19532,0.0,2023,6,7,11,15,52,-1755
28.08410,-0.06283,-0.13825,0.00000,0.03111,0.97624,-0.19593,0.0,2023,6,7,11,15,52,-1755
28.08420,0.18217,-0.08575,0.00000,0.02696,0.97490,-0.19459,0.0,2023,6,7,11,15,52,-1755
28.08430,-0.09783,-0.05075,0.00000,0.02928,0.97576,-0.19764,0.0,2023,6,7,11,15,52,-1755
28.08440,0.02467,0.08925,0.00000,0.02928,0.97576,-0.19544,0.0,2023,6,7,11,15,52,-1755
28.08450,0.09467,-0.26075,0.00000,0.02794,0.97612,-0.19239,0.0,2023,6,7,11,15,52,-1755
28.08460,0.11217,-0.19075,0.00000,0.02843,0.97490,-0.19422,0.0,2023,6,7,11,15,52,-1755
28.08470,0.07717,-0.19075,0.00000,0.02660,0.97429,-0.19630,0.0,2023,6,7,11,15,52,-1755
28.08480,0.00717,0.01925,0.00000,0.02757,0.97454,-0.19496,0.0,2023,6,7,11,15,52,-1755
28.08490,-0.11533,0.05425,0.00000,0.03111,0.97661,-0.19386,0.0,2023,6,7,11,15,52,-1755
28.08500,-0.04533,0.14175,0.00000,0.02757,0.97539,-0.19422,0.0,2023,6,7,11,15,52,-1755
28.08510,-0.16783,0.00175,0.00000,0.02977,0.97515,-0.19496,0.0,2023,6,7,11,15,52,-1755
28.08520,-0.01033,-0.03325,0.00000,0.02879,0.97454,-0.19593,0.0,2023,6,7,11,15,52,-1755
28.08530,-0.16783,-0.03325,0.00000,0.02830,0.97515,-0.19276,0.0,2023,6,7,11,15,52,-1755
28.08540,-0.09783,0.03675,0.00000,0.02916,0.97454,-0.19557,0.0,2023,6,7,11,15,52,-1755
28.08550,-0.06283,0.08925,0.00000,0.02965,0.97820,-0.19361,0.0,2023,6,7,11,15,52,-1755
28.08560,0.11217,0.08925,0.00000,0.02855,0.97563,-0.19374,0.0,2023,6,7,11,15,52,-1755
28.08570,0.05967,-0.22575,0.00000,0.02745,0.97588,-0.19349,0.0,2023,6,7,11,15,52,-1755
28.08580,0.19967,-0.20825,0.00000,0.02843,0.97698,-0.19471,0.0,2023,6,7,11,15,52,-1755
28.08590,0.12967,-0.24325,0.00000,0.02708,0.97478,-0.19642,0.0,2023,6,7,11,15,52,-1755
28.08600,-0.08033,0.08925,0.00000,0.02830,0.97588,-0.19691,0.0,2023,6,7,11,15,52,-1755
28.08610,-0.09783,0.26425,0.00000,0.02684,0.97490,-0.19496,0.0,2023,6,7,11,15,52,-1755
28.08620,-0.18533,0.00175,0.00000,0.03050,0.97661,-0.19337,0.0,2023,6,7,11,15,52,-1755
28.08630,-0.01033,0.14175,0.00000,0.02965,0.97307,-0.19410,0.0,2023,6,7,11,15,52,-1755
28.08640,0.11217,0.01925,0.00000,0.02977,0.97527,-0.19630,0.0,2023,6,7,11,15,52,-1755
28.08650,0.00717,-0.15575,0.00000,0.02867,0.97368,-0.19496,0.0,2023,6,7,11,15,52,-1755
28.08660,-0.01033,-0.03325,0.00000,0.02830,0.97539,-0.19679,0.0,2023,6,7,11,15,52,-1755
28.08670,0.11217,-0.12075,0.00000,0.02794,0.97356,-0.19666,0.0,2023,6,7,11,15,52,-1755
28.08680,0.02467,-0.08575,0.00000,0.02855,0.97502,-0.19557,0.0,2023,6,7,11,15,52,-1755
28.08690,0.04217,-0.15575,0.00000,0.02940,0.97844,-0.19374,0.0,2023,6,7,11,15,52,-1755
28.08700,0.02467,-0.03325,0.00000,0.02635,0.97478,-0.19483,0.0,2023,6,7,11,15,52,-1755
28.08710,-0.11533,0.10675,0.00000,0.02733,0.97502,-0.19532,0.0,2023,6,7,11,15,52,-1755
28.08720,-0.08033,-0.05075,0.00000,0.02879,0.97734,-0.19642,0.0,2023,6,7,11,15,52,-1755
28.08730,-0.02783,0.01925,0.00000,0.02818,0.97539,-0.19520,0.0,2023,6,7,11,15,52,-1755
28.08740,-0.11533,0.10675,0.00000,0.02538,0.97783,-0.19520,0.0,2023,6,7,11,15,52,-1755
28.08750,0.04217,-0.06825,0.00000,0.02977,0.97539,-0.19386,0.0,2023,6,7,11,15,52,-1755
28.08760,0.09467,0.03675,0.00000,0.02806,0.97563,-0.19483,0.0,2023,6,7,11,15,52,-1755
28.08770,0.07717,0.08925,0.00000,0.02806,0.97515,-0.19422,0.0,2023,6,7,11,15,52,-1755
28.08780,-0.09783,0.08925,0.00000,0.02965,0.97551,-0.19483,0.0,2023,6,7,11,15,52,-1755
28.08790,0.04217,0.08925,0.00000,0.02769,0.97539,-0.19654,0.0,2023,6,7,11,15,52,-1755
28.08800,-0.08033,0.05425,0.00000,0.02830,0.97673,-0.19532,0.0,2023,6,7,11,15,52,-1755
28.08810,0.07717,0.08925,0.00000,0.02660,0.97441,-0.19679,0.0,2023,6,7,11,15,52,-1755
28.08820,0.05967,-0.06825,0.00000,0.02965,0.97649,-0.19825,0.0,2023,6,7,11,15,52,-1755
28.08830,0.12967,-0.15575,0.00000,0.02635,0.97612,-0.19776,0.0,2023,6,7,11,15,52,-1755
28.08840,0.00717,0.07175,0.00000,0.02794,0.97563,-0.19581,0.0,2023,6,7,11,15,52,-1755
28.08850,0.05967,0.26425,0.00000,0.02806,0.97515,-0.19508,0.0,2023,6,7,11,15,52,-1755
28.08860,0.02467,0.03675,0.00000,0.02916,0.97502,-0.19569,0.0,2023,6,7,11,15,52,-1755
28.08870,0.14717,-0.12075,0.00000,0.02977,0.97576,-0.19813,0.0,2023,6,7,11,15,52,-1755
28.08880,-0.02783,0.12425,0.00000,0.02940,0.97685,-0.19691,0.0,2023,6,7,11,15,52,-1755
28.08890,-0.04533,0.00175,0.00000,0.02660,0.97551,-0.19483,0.0,2023,6,7,11,15,52,-1755
28.08900,-0.13283,0.05425,0.00000,0.02855,0.97502,-0.19520,0.0,2023,6,7,11,15,52,-1755
28.08910,-0.08033,0.10675,0.00000,0.02806,0.97441,-0.19520,0.0,2023,6,7,11,15,52,-1755
28.08920,0.11217,-0.12075,0.00000,0.02769,0.97393,-0.19703,0.0,2023,6,7,11,15,52,-1755
28.08930,0.05967,-0.08575,0.00000,0.02794,0.97710,-0.19703,0.0,2023,6,7,11,15,52,-1755
28.08940,0.02467,-0.06825,0.00000,0.03062,0.97405,-0.19581,0.0,2023,6,7,11,15,52,-1755
28.08950,-0.09783,-0.08575,0.00000,0.02745,0.97649,-0.19557,0.0,2023,6,7,11,15,52,-1755
28.08960,-0.02783,0.00175,0.00000,0.02745,0.97515,-0.19727,0.0,2023,6,7,11,15,52,-1755
28.08970,0.09467,0.01925,0.00000,0.02806,0.97722,-0.19679,0.0,2023,6,7,11,15,52,-1755
28.08980,0.07717,-0.01575,0.00000,0.02916,0.97637,-0.19496,0.0,2023,6,7,11,15,52,-1755
28.08990,-0.02783,-0.08575,0.00000,0.02830,0.97637,-0.19508,0.0,2023,6,7,11,15,52,-1755
28.09000,0.11217,0.15925,0.00000,0.02855,0.97551,-0.19544,0.0,2023,6,7,11,15,52,-1755
28.09010,-0.04533,-0.15575,0.00000,0.02928,0.97588,-0.19813,0.0,2023,6,7,11,15,52,-1755
28.09020,-0.11533,0.00175,0.00000,0.02818,0.97466,-0.19654,0.0,2023,6,7,11,15,52,-1755
28.09030,0.12967,0.00175,0.00000,0.02965,0.97746,-0.19654,0.0,2023,6,7,11,15,52,-1755
28.09040,-0.04533,0.07175,0.00000,0.03062,0.97380,-0.19605,0.0,2023,6,7,11,15,52,-1755
28.09050,-0.09783,-0.05075,0.00000,0.02952,0.97685,-0.19752,0.0,2023,6,7,11,15,52,-1755
28.09060,0.09467,0.17675,0.00000,0.02769,0.97856,-0.19727,0.0,2023,6,7,11,15,52,-1755
28.09070,0.09467,-0.10325,0.00000,0.02867,0.97441,-0.19483,0.0,2023,6,7,11,15,52,-1755
28.09080,-0.02783,-0.10325,0.00000,0.02782,0.97539,-0.19422,0.0,2023,6,7,11,15,52,-1755
28.09090,0.09467,-0.15575,0.00000,0.02879,0.97380,-0.19605,0.0,2023,6,7,11,15,52,-1755
28.09100,0.02467,0.17675,0.00000,0.02867,0.97368,-0.19727,0.0,2023,6,7,11,15,52,-1755
28.09110,0.14717,-0.17325,0.00000,0.02733,0.97661,-0.19447,0.0,2023,6,7,11,15,52,-1755
28.09120,-0.15033,-0.01575,0.00000,0.02879,0.97563,-0.19715,0.0,2023,6,7,11,15,52,-1755
28.09130,0.02467,-0.03325,0.00000,0.02855,0.97307,-0.19520,0.0,2023,6,7,11,15,52,-1755
28.09140,-0.06283,-0.10325,0.00000,0.02782,0.97637,-0.19288,0.0,2023,6,7,11,15,52,-1755
28.09150,-0.11533,0.08925,0.00000,0.02855,0.97698,-0.19435,0.0,2023,6,7,11,15,52,-1755
28.09160,-0.08033,0.24675,0.00000,0.02794,0.97539,-0.19520,0.0,2023,6,7,11,15,52,-1755
28.09170,0.12967,-0.10325,0.00000,0.02952,0.97710,-0.19935,0.0,2023,6,7,11,15,52,-1755
28.09180,0.16467,0.07175,0.00000,0.02965,0.97502,-0.19764,0.0,2023,6,7,11,15,52,-1755
28.09190,0.05967,-0.06825,0.00000,0.02855,0.97612,-0.19666,0.0,2023,6,7,11,15,52,-1755
28.09200,-0.08033,-0.10325,0.00000,0.02965,0.97771,-0.19630,0.0,2023,6,7,11,15,52,-1755
28.09210,-0.08033,-0.05075,0.00000,0.02806,0.97356,-0.19557,0.0,2023,6,7,11,15,52,-1755
28.09220,0.21717,-0.20825,0.00000,0.02843,0.97454,-0.19593,0.0,2023,6,7,11,15,52,-1755
28.09230,0.14717,-0.24325,0.00000,0.02904,0.97734,-0.19544,0.0,2023,6,7,11,15,52,-1755
28.09240,-0.02783,-0.06825,0.00000,0.02733,0.97661,-0.19544,0.0,2023,6,7,11,15,52,-1755
28.09250,0.00717,-0.01575,0.00000,0.02904,0.97588,-0.19447,0.0,2023,6,7,11,15,52,-1755
28.09260,0.04217,0.03675,0.00000,0.02867,0.97698,-0.19630,0.0,2023,6,7,11,15,52,-1755
28.09270,0.04217,0.00175,0.00000,0.02794,0.97441,-0.19447,0.0,2023,6,7,11,15,52,-1755
28.09280,-0.02783,-0.05075,0.00000,0.02879,0.97344,-0.19483,0.0,2023,6,7,11,15,52,-1755
28.09290,0.07717,0.17675,0.00000,0.02916,0.97539,-0.19483,0.0,2023,6,7,11,15,52,-1755
28.09300,-0.04533,-0.03325,0.00000,0.03074,0.98015,-0.19532,0.0,2023,6,7,11,15,52,-1755
28.09310,0.16467,-0.12075,0.00000,0.02928,0.97429,-0.19654,0.0,2023,6,7,11,15,52,-1755
28.09320,-0.09783,0.12425,0.00000,0.02904,0.97673,-0.19593,0.0,2023,6,7,11,15,52,-1755
28.09330,0.04217,-0.06825,0.00000,0.03013,0.97771,-0.19618,0.0,2023,6,7,11,15,52,-1755
28.09340,-0.04533,0.12425,0.00000,0.02928,0.97527,-0.19642,0.0,2023,6,7,11,15,52,-1755
28.09350,-0.01033,0.00175,0.00000,0.02928,0.97551,-0.19337,0.0,2023,6,7,11,15,52,-1755
28.09360,-0.15033,0.05425,0.00000,0.02940,0.97478,-0.19374,0.0,2023,6,7,11,15,52,-1755
28.09370,-0.08033,0.01925,0.00000,0.02904,0.97515,-0.19618,0.0,2023,6,7,11,15,52,-1755
28.09380,0.14717,0.01925,0.00000,0.03062,0.97551,-0.19544,0.0,2023,6,7,11,15,52,-1755
28.09390,-0.16783,0.00175,0.00000,0.02965,0.97661,-0.19374,0.0,2023,6,7,11,15,52,-1755
28.09400,0.18217,-0.27825,0.00000,0.02769,0.97490,-0.19740,0.0,2023,6,7,11,15,52,-1755
28.09410,0.00717,0.12425,0.00000,0.02818,0.97783,-0.19715,0.0,2023,6,7,11,15,52,-1755
28.09420,-0.04533,0.07175,0.00000,0.02928,0.97612,-0.19398,0.0,2023,6,7,11,15,52,-1755
28.09430,-0.01033,-0.19075,0.00000,0.02843,0.97466,-0.19666,0.0,2023,6,7,11,15,52,-1755
28.09440,-0.02783,0.00175,0.00000,0.02672,0.97624,-0.19666,0.0,2023,6,7,11,15,52,-1755
28.09450,0.18217,0.00175,0.00000,0.02952,0.97624,-0.19471,0.0,2023,6,7,11,15,52,-1755
28.09460,0.12967,-0.19075,0.00000,0.02818,0.97551,-0.19422,0.0,2023,6,7,11,15,52,-1755
28.09470,0.09467,-0.12075,0.00000,0.02745,0.97649,-0.19471,0.0,2023,6,7,11,15,52,-1755
28.09480,0.09467,0.15925,0.00000,0.02733,0.97441,-0.19593,0.0,2023,6,7,11,15,52,-1755
28.09490,-0.20283,0.08925,0.00000,0.02708,0.97466,-0.19496,0.0,2023,6,7,11,15,52,-1755
28.09500,-0.06283,-0.01575,0.00000,0.02696,0.97783,-0.19459,0.0,2023,6,7,11,15,52,-1755
28.09510,-0.06283,0.14175,0.00000,0.02672,0.97649,-0.19715,0.0,2023,6,7,11,15,52,-1755
28.09520,-0.09783,-0.26075,0.00000,0.02965,0.97551,-0.19581,0.0,2023,6,7,11,15,52,-1755
28.09530,0.11217,0.00175,0.00000,0.02806,0.97600,-0.19642,0.0,2023,6,7,11,15,52,-1755
28.09540,0.05967,-0.08575,0.00000,0.02879,0.97307,-0.19447,0.0,2023,6,7,11,15,52,-1755
28.09550,-0.06283,-0.06825,0.00000,0.02782,0.97673,-0.19471,0.0,2023,6,7,11,15,52,-1755
28.09560,0.11217,-0.15575,0.00000,0.02879,0.97527,-0.19581,0.0,2023,6,7,11,15,52,-1755
28.09570,0.02467,0.00175,0.00000,0.02782,0.97637,-0.19752,0.0,2023,6,7,11,15,52,-1755
28.09580,0.12967,0.08925,0.00000,0.02757,0.97563,-0.19776,0.0,2023,6,7,11,15,52,-1755
28.09590,0.05967,0.12425,0.00000,0.02769,0.97454,-0.19630,0.0,2023,6,7,11,15,52,-1755
28.09600,-0.04533,0.03675,0.00000,0.02733,0.97588,-0.19703,0.0,2023,6,7,11,15,52,-1755
28.09610,0.05967,0.15925,0.00000,0.02647,0.97637,-0.19630,0.0,2023,6,7,11,15,52,-1755
28.09620,-0.11533,-0.01575,0.00000,0.02769,0.97490,-0.19386,0.0,2023,6,7,11,15,52,-1755
28.09630,0.02467,-0.05075,0.00000,0.03111,0.97466,-0.19398,0.0,2023,6,7,11,15,52,-1755
28.09640,0.09467,-0.03325,0.00000,0.02757,0.97527,-0.19471,0.0,2023,6,7,11,15,52,-1755
28.09650,0.00717,0.03675,0.00000,0.03013,0.97612,-0.19727,0.0,2023,6,7,11,15,52,-1755
28.09660,0.18217,-0.17325,0.00000,0.02928,0.97698,-0.19471,0.0,2023,6,7,11,15,52,-1755
28.09670,-0.18533,0.17675,0.00000,0.02782,0.97466,-0.19715,0.0,2023,6,7,11,15,52,-1755
28.09680,-0.08033,0.12425,0.00000,0.02769,0.97624,-0.19776,0.0,2023,6,7,11,15,52,-1755
28.09690,0.04217,0.03675,0.00000,0.02769,0.97612,-0.19569,0.0,2023,6,7,11,15,52,-1755
28.09700,-0.29033,-0.08575,0.00000,0.02818,0.97783,-0.19764,0.0,2023,6,7,11,15,52,-1755
28.09710,-0.20283,0.19425,0.00000,0.02904,0.97661,-0.19398,0.0,2023,6,7,11,15,52,-1755
28.09720,0.05967,0.01925,0.00000,0.02538,0.97295,-0.19605,0.0,2023,6,7,11,15,52,-1755
28.09730,-0.01033,-0.22575,0.00000,0.03026,0.97673,-0.19618,0.0,2023,6,7,11,15,52,-1755
28.09740,0.00717,-0.08575,0.00000,0.02904,0.97600,-0.19410,0.0,2023,6,7,11,15,52,-1755
28.09750,0.12967,0.00175,0.00000,0.02904,0.97417,-0.19813,0.0,2023,6,7,11,15,52,-1755
28.09760,0.04217,0.00175,0.00000,0.02806,0.97210,-0.19618,0.0,2023,6,7,11,15,52,-1755
28.09770,0.05967,0.07175,0.00000,0.02965,0.97576,-0.19666,0.0,2023,6,7,11,15,52,-1755
28.09780,0.09467,-0.19075,0.00000,0.02635,0.97649,-0.19459,0.0,2023,6,7,11,15,52,-1755
28.09790,-0.02783,0.14175,0.00000,0.02623,0.97832,-0.19410,0.0,2023,6,7,11,15,52,-1755
28.09800,0.14717,-0.03325,0.00000,0.03062,0.97441,-0.19618,0.0,2023,6,7,11,15,52,-1755
28.09810,0.07717,0.12425,0.00000,0.02538,0.97490,-0.19435,0.0,2023,6,7,11,15,52,-1755
28.09820,0.11217,0.03675,0.00000,0.02769,0.97710,-0.19447,0.0,2023,6,7,11,15,52,-1755
28.09830,0.09467,-0.08575,0.00000,0.02916,0.97673,-0.19703,0.0,2023,6,7,11,15,52,-1755
28.09840,0.04217,-0.24325,0.00000,0.02867,0.97722,-0.19630,0.0,2023,6,7,11,15,52,-1755
28.09850,-0.09783,0.15925,0.00000,0.02599,0.97515,-0.19618,0.0,2023,6,7,11,15,52,-1755
28.09860,-0.04533,-0.08575,0.00000,0.03013,0.97478,-0.19605,0.0,2023,6,7,11,15,52,-1755
28.09870,-0.04533,0.08925,0.00000,0.02843,0.97795,-0.19496,0.0,2023,6,7,11,15,52,-1755
28.09880,-0.02783,-0.12075,0.00000,0.02843,0.97698,-0.19557,0.0,2023,6,7,11,15,52,-1755
28.09890,0.19967,-0.01575,0.00000,0.02745,0.97527,-0.19740,0.0,2023,6,7,11,15,52,-1755
28.09900,-0.01033,-0.05075,0.00000,0.02928,0.97283,-0.19288,0.0,2023,6,7,11,15,52,-1755
28.09910,0.02467,0.01925,0.00000,0.03062,0.97490,-0.19313,0.0,2023,6,7,11,15,52,-1755
28.09920,0.14717,-0.01575,0.00000,0.02672,0.97441,-0.19422,0.0,2023,6,7,11,15,52,-1755
28.09930,0.02467,0.10675,0.00000,0.02708,0.97539,-0.19679,0.0,2023,6,7,11,15,52,-1755
28.09940,0.07717,-0.05075,0.00000,0.02806,0.97551,-0.19788,0.0,2023,6,7,11,15,52,-1755
28.09950,0.14717,0.07175,0.00000,0.02891,0.97710,-0.19435,0.0,2023,6,7,11,15,52,-1755
28.09960,-0.09783,0.15925,0.00000,0.02757,0.97490,-0.19227,0.0,2023,6,7,11,15,52,-1755
28.09970,-0.02783,0.05425,0.00000,0.02940,0.97576,-0.19410,0.0,2023,6,7,11,15,52,-1755
28.09980,-0.08033,0.03675,0.00000,0.02855,0.97502,-0.19544,0.0,2023,6,7,11,15,52,-1755
28.09990,-0.04533,0.14175,0.00000,0.02806,0.97502,-0.19703,0.0,2023,6,7,11,15,52,-1755
28.10000,0.02467,0.00175,0.00000,0.02904,0.97576,-0.19398,0.0,2023,6,7,11,15,52,-1755
28.10010,-0.11533,0.03675,0.00000,0.02867,0.97710,-0.19508,0.0,2023,6,7,11,15,52,-1755
28.10020,-0.09783,0.01925,0.00000,0.02782,0.97356,-0.19764,0.0,2023,6,7,11,15,52,-1755
28.10030,0.14717,-0.10325,0.00000,0.02830,0.97466,-0.19630,0.0,2023,6,7,11,15,52,-1755
28.10040,0.05967,-0.12075,0.00000,0.02891,0.97380,-0.19703,0.0,2023,6,7,11,15,52,-1755
28.10050,-0.09783,-0.05075,0.00000,0.02769,0.97612,-0.19654,0.0,2023,6,7,11,15,52,-1755
28.10060,0.14717,-0.15575,0.00000,0.02721,0.97527,-0.19618,0.0,2023,6,7,11,15,52,-1755
28.10070,-0.02783,0.05425,0.00000,0.02782,0.97722,-0.19593,0.0,2023,6,7,11,15,52,-1755
28.10080,0.09467,-0.06825,0.00000,0.02928,0.97502,-0.19642,0.0,2023,6,7,11,15,52,-1755
28.10090,-0.06283,-0.13825,0.00000,0.03050,0.97673,-0.19715,0.0,2023,6,7,11,15,52,-1755
28.10100,0.09467,0.10675,0.00000,0.02769,0.97478,-0.19483,0.0,2023,6,7,11,15,52,-1755
28.10110,-0.08033,0.12425,0.00000,0.02928,0.97551,-0.19666,0.0,2023,6,7,11,15,52,-1755
28.10120,0.05967,-0.08575,0.00000,0.02818,0.97551,-0.19703,0.0,2023,6,7,11,15,52,-1755
28.10130,0.11217,0.08925,0.00000,0.02879,0.97759,-0.19630,0.0,2023,6,7,11,15,52,-1755
28.10140,0.09467,-0.13825,0.00000,0.02843,0.97698,-0.19483,0.0,2023,6,7,11,15,52,-1755
28.10150,0.14717,-0.13825,0.00000,0.02843,0.97563,-0.19557,0.0,2023,6,7,11,15,52,-1755
28.10160,0.07717,-0.05075,0.00000,0.02977,0.97441,-0.19459,0.0,2023,6,7,11,15,52,-1755
28.10170,0.02467,-0.12075,0.00000,0.02867,0.97454,-0.19715,0.0,2023,6,7,11,15,52,-1755
28.10180,0.05967,-0.13825,0.00000,0.02745,0.97832,-0.19825,0.0,2023,6,7,11,15,52,-1755
28.10190,0.00717,-0.08575,0.00000,0.02989,0.97454,-0.19569,0.0,2023,6,7,11,15,52,-1755
28.10200,-0.04533,0.19425,0.00000,0.02940,0.97673,-0.19471,0.0,2023,6,7,11,15,52,-1755
28.10210,-0.04533,0.01925,0.00000,0.02916,0.97405,-0.19520,0.0,2023,6,7,11,15,52,-1755
28.10220,0.04217,-0.01575,0.00000,0.02916,0.97746,-0.19471,0.0,2023,6,7,11,15,52,-1755
28.10230,-0.04533,-0.05075,0.00000,0.02733,0.97515,-0.19471,0.0,2023,6,7,11,15,52,-1755
28.10240,0.04217,-0.05075,0.00000,0.02879,0.97515,-0.19605,0.0,2023,6,7,11,15,52,-1755
28.10250,-0.04533,0.00175,0.00000,0.02599,0.97429,-0.19544,0.0,2023,6,7,11,15,52,-1755
28.10260,-0.27283,0.19425,0.00000,0.03123,0.97502,-0.19349,0.0,2023,6,7,11,15,52,-1755
28.10270,-0.13283,0.05425,0.00000,0.02708,0.97649,-0.19776,0.0,2023,6,7,11,15,52,-1755
28.10280,-0.09783,0.05425,0.00000,0.02867,0.97734,-0.19520,0.0,2023,6,7,11,15,52,-1755
28.10290,-0.01033,-0.08575,0.00000,0.02977,0.97393,-0.19288,0.0,2023,6,7,11,15,52,-1755
28.10300,-0.04533,-0.08575,0.00000,0.02916,0.97771,-0.19483,0.0,2023,6,7,11,15,52,-1755
28.10310,-0.01033,-0.05075,0.00000,0.02733,0.97588,-0.19508,0.0,2023,6,7,11,15,52,-1755
28.10320,-0.06283,0.07175,0.00000,0.02916,0.97637,-0.19788,0.0,2023,6,7,11,15,52,-1755
28.10330,-0.15033,0.19425,0.00000,0.02794,0.97600,-0.19654,0.0,2023,6,7,11,15,52,-1755
28.10340,0.11217,0.07175,0.00000,0.02830,0.97490,-0.19581,0.0,2023,6,7,11,15,52,-1755
28.10350,0.00717,-0.08575,0.00000,0.02891,0.97429,-0.19410,0.0,2023,6,7,11,15,52,-1755
28.10360,-0.02783,0.01925,0.00000,0.02818,0.97441,-0.19569,0.0,2023,6,7,11,15,52,-1755
28.10370,-0.11533,-0.12075,0.00000,0.02794,0.97454,-0.19618,0.0,2023,6,7,11,15,52,-1755
28.10380,0.09467,-0.08575,0.00000,0.02830,0.97746,-0.19459,0.0,2023,6,7,11,15,52,-1755
28.10390,0.02467,-0.13825,0.00000,0.02867,0.97417,-0.19727,0.0,2023,6,7,11,15,52,-1755
28.10400,0.00717,-0.03325,0.00000,0.02660,0.97624,-0.19691,0.0,2023,6,7,11,15,52,-1755
28.10410,-0.16783,0.17675,0.00000,0.02745,0.97527,-0.19544,0.0,2023,6,7,11,15,52,-1755
28.10420,0.05967,0.01925,0.00000,0.02977,0.97502,-0.19703,0.0,2023,6,7,11,15,52,-1755
28.10430,0.11217,0.03675,0.00000,0.02830,0.97710,-0.19654,0.0,2023,6,7,11,15,52,-1755
28.10440,-0.04533,-0.13825,0.00000,0.02769,0.97417,-0.19557,0.0,2023,6,7,11,15,52,-1755
28.10450,0.16467,-0.15575,0.00000,0.02879,0.97441,-0.19435,0.0,2023,6,7,11,15,52,-1755
28.10460,0.07717,0.07175,0.00000,0.02879,0.97429,-0.19727,0.0,2023,6,7,11,15,52,-1755
28.10470,-0.08033,0.17675,0.00000,0.02818,0.97368,-0.19483,0.0,2023,6,7,11,15,52,-1755
28.10480,-0.09783,-0.08575,0.00000,0.02806,0.97722,-0.19593,0.0,2023,6,7,11,15,52,-1755
28.10490,-0.20283,0.22925,0.00000,0.02769,0.97685,-0.19386,0.0,2023,6,7,11,15,52,-1755
28.10500,0.00717,-0.08575,0.00000,0.02721,0.97649,-0.19532,0.0,2023,6,7,11,15,52,-1755
28.10510,0.14717,0.00175,0.00000,0.02830,0.97734,-0.19374,0.0,2023,6,7,11,15,52,-1755
28.10520,0.11217,-0.26075,0.00000,0.02696,0.97917,-0.19544,0.0,2023,6,7,11,15,52,-1755
28.10530,0.12967,0.05425,0.00000,0.02538,0.97673,-0.19544,0.0,2023,6,7,11,15,52,-1755
28.10540,0.09467,-0.01575,0.00000,0.02660,0.97405,-0.19752,0.0,2023,6,7,11,15,52,-1755
28.10550,0.02467,0.07175,0.00000,0.02867,0.97344,-0.19520,0.0,2023,6,7,11,15,53,-1755
28.10560,0.05967,-0.15575,0.00000,0.02794,0.97649,-0.19532,0.0,2023,6,7,11,15,53,-1755
28.10570,0.28717,-0.08575,0.00000,0.02928,0.97454,-0.19459,0.0,2023,6,7,11,15,53,-1755
28.10580,0.02467,0.01925,0.00000,0.02818,0.97502,-0.19532,0.0,2023,6,7,11,15,53,-1755
28.10590,-0.02783,-0.10325,0.00000,0.02830,0.97502,-0.19654,0.0,2023,6,7,11,15,53,-1755
28.10600,-0.08033,-0.22575,0.00000,0.02696,0.97783,-0.19471,0.0,2023,6,7,11,15,53,-1755
28.10610,0.02467,-0.01575,0.00000,0.02757,0.97734,-0.19483,0.0,2023,6,7,11,15,53,-1755
28.10620,-0.08033,-0.01575,0.00000,0.02623,0.97637,-0.19544,0.0,2023,6,7,11,15,53,-1755
28.10630,-0.15033,0.00175,0.00000,0.02879,0.97746,-0.19557,0.0,2023,6,7,11,15,53,-1755
28.10640,-0.13283,0.14175,0.00000,0.02818,0.97649,-0.19764,0.0,2023,6,7,11,15,53,-1755
28.10650,0.05967,-0.15575,0.00000,0.02940,0.97673,-0.19703,0.0,2023,6,7,11,15,53,-1755
28.10660,-0.06283,0.08925,0.00000,0.02843,0.97759,-0.19422,0.0,2023,6,7,11,15,53,-1755
28.10670,-0.04533,-0.17325,0.00000,0.02794,0.97624,-0.19459,0.0,2023,6,7,11,15,53,-1755
28.10680,0.18217,-0.40075,0.00000,0.02891,0.97551,-0.19349,0.0,2023,6,7,11,15,53,-1755
28.10690,0.12967,-0.05075,0.00000,0.02818,0.97271,-0.19374,0.0,2023,6,7,11,15,53,-1755
28.10700,-0.02783,0.03675,0.00000,0.02928,0.97771,-0.19593,0.0,2023,6,7,11,15,53,-1755
28.10710,0.04217,0.10675,0.00000,0.02843,0.97429,-0.19361,0.0,2023,6,7,11,15,53,-1755
28.10720,0.04217,-0.01575,0.00000,0.02830,0.97563,-0.19349,0.0,2023,6,7,11,15,53,-1755
28.10730,0.05967,-0.06825,0.00000,0.02599,0.97551,-0.19593,0.0,2023,6,7,11,15,53,-1755
28.10740,0.05967,-0.08575,0.00000,0.02916,0.97539,-0.19654,0.0,2023,6,7,11,15,53,-1755
28.10750,0.05967,0.15925,0.00000,0.02843,0.97661,-0.19618,0.0,2023,6,7,11,15,53,-1755
28.10760,0.00717,0.10675,0.00000,0.02843,0.97551,-0.19520,0.0,2023,6,7,11,15,53,-1755
28.10770,-0.09783,0.03675,0.00000,0.02879,0.97539,-0.19557,0.0,2023,6,7,11,15,53,-1755
28.10780,-0.18533,-0.06825,0.00000,0.02867,0.97515,-0.19483,0.0,2023,6,7,11,15,53,-1755
28.10790,0.18217,0.05425,0.00000,0.02891,0.97344,-0.19557,0.0,2023,6,7,11,15,53,-1755
28.10800,-0.01033,-0.06825,0.00000,0.02733,0.97710,-0.19496,0.0,2023,6,7,11,15,53,-1755
28.10810,-0.09783,0.05425,0.00000,0.02855,0.97405,-0.19727,0.0,2023,6,7,11,15,53,-1755
28.10820,-0.20283,-0.26075,0.00000,0.03148,0.97417,-0.19496,0.0,2023,6,7,11,15,53,-1755
28.10830,-0.01033,-0.12075,0.00000,0.02782,0.97454,-0.19618,0.0,2023,6,7,11,15,53,-1755
28.10840,-0.01033,0.01925,0.00000,0.03026,0.97454,-0.19630,0.0,2023,6,7,11,15,53,-1755
28.10850,-0.04533,0.01925,0.00000,0.02794,0.97454,-0.19691,0.0,2023,6,7,11,15,53,-1755
28.10860,-0.01033,0.08925,0.00000,0.02855,0.97454,-0.19618,0.0,2023,6,7,11,15,53,-1755
28.10870,0.00717,0.08925,0.00000,0.02635,0.97515,-0.19654,0.0,2023,6,7,11,15,53,-1755
28.10880,-0.15033,0.10675,0.00000,0.02904,0.97539,-0.19435,0.0,2023,6,7,11,15,53,-1755
28.10890,0.02467,0.10675,0.00000,0.02928,0.97551,-0.19386,0.0,2023,6,7,11,15,53,-1755
28.10900,-0.06283,0.01925,0.00000,0.02940,0.97746,-0.19483,0.0,2023,6,7,11,15,53,-1755
28.10910,-0.06283,0.03675,0.00000,0.02977,0.97661,-0.19459,0.0,2023,6,7,11,15,53,-1755
28.10920,-0.06283,0.14175,0.00000,0.02965,0.97661,-0.19715,0.0,2023,6,7,11,15,53,-1755
28.10930,0.02467,-0.10325,0.00000,0.02757,0.97502,-0.19691,0.0,2023,6,7,11,15,53,-1755
28.10940,-0.02783,0.05425,0.00000,0.02684,0.97393,-0.19422,0.0,2023,6,7,11,15,53,-1755
28.10950,-0.04533,0.05425,0.00000,0.02769,0.97563,-0.19654,0.0,2023,6,7,11,15,53,-1755
28.10960,0.11217,0.00175,0.00000,0.02916,0.97490,-0.19520,0.0,2023,6,7,11,15,53,-1755
28.10970,0.12967,-0.06825,0.00000,0.02721,0.97539,-0.19569,0.0,2023,6,7,11,15,53,-1755
28.10980,-0.09783,0.17675,0.00000,0.03026,0.97783,-0.19776,0.0,2023,6,7,11,15,53,-1755
28.10990,0.09467,-0.03325,0.00000,0.03038,0.97710,-0.19605,0.0,2023,6,7,11,15,53,-1755
28.11000,-0.06283,0.10675,0.00000,0.02635,0.97429,-0.19435,0.0,2023,6,7,11,15,53,-1755
28.11010,0.07717,0.08925,0.00000,0.02916,0.97393,-0.19544,0.0,2023,6,7,11,15,53,-1755
28.11020,0.02467,-0.12075,0.00000,0.03099,0.97319,-0.19337,0.0,2023,6,7,11,15,53,-1755
28.11030,0.05967,-0.06825,0.00000,0.02891,0.97588,-0.19679,0.0,2023,6,7,11,15,53,-1755
28.11040,0.04217,-0.10325,0.00000,0.02855,0.97698,-0.19496,0.0,2023,6,7,11,15,53,-1755
28.11050,0.04217,-0.15575,0.00000,0.02830,0.97600,-0.19361,0.0,2023,6,7,11,15,53,-1755
28.11060,0.00717,-0.03325,0.00000,0.02794,0.97515,-0.19508,0.0,2023,6,7,11,15,53,-1755
28.11070,-0.01033,0.14175,0.00000,0.02672,0.97380,-0.19691,0.0,2023,6,7,11,15,53,-1755
28.11080,0.19967,-0.13825,0.00000,0.02904,0.97612,-0.19740,0.0,2023,6,7,11,15,53,-1755
28.11090,-0.01033,0.08925,0.00000,0.02952,0.97661,-0.19593,0.0,2023,6,7,11,15,53,-1755
28.11100,-0.01033,-0.06825,0.00000,0.02928,0.97698,-0.19666,0.0,2023,6,7,11,15,53,-1755
28.11110,-0.06283,-0.10325,0.00000,0.02806,0.97478,-0.19313,0.0,2023,6,7,11,15,53,-1755
28.11120,0.14717,-0.15575,0.00000,0.02818,0.97380,-0.19727,0.0,2023,6,7,11,15,53,-1755
28.11130,0.00717,0.12425,0.00000,0.02782,0.97734,-0.19605,0.0,2023,6,7,11,15,53,-1755
28.11140,-0.13283,0.01925,0.00000,0.02977,0.97478,-0.19666,0.0,2023,6,7,11,15,53,-1755
28.11150,-0.02783,0.07175,0.00000,0.02684,0.97454,-0.19593,0.0,2023,6,7,11,15,53,-1755
28.11160,0.00717,0.00175,0.00000,0.02818,0.97710,-0.19520,0.0,2023,6,7,11,15,53,-1755
28.11170,0.11217,-0.10325,0.00000,0.02891,0.97539,-0.19447,0.0,2023,6,7,11,15,53,-1755
28.11180,-0.11533,-0.01575,0.00000,0.02916,0.97576,-0.19776,0.0,2023,6,7,11,15,53,-1755
28.11190,-0.02783,0.07175,0.00000,0.02696,0.97673,-0.19544,0.0,2023,6,7,11,15,53,-1755
28.11200,-0.04533,-0.05075,0.00000,0.02989,0.97929,-0.19313,0.0,2023,6,7,11,15,53,-1755
28.11210,0.11217,0.05425,0.00000,0.02745,0.97429,-0.19654,0.0,2023,6,7,11,15,53,-1755
28.11220,-0.01033,-0.06825,0.00000,0.02818,0.97417,-0.19630,0.0,2023,6,7,11,15,53,-1755
28.11230,-0.04533,0.00175,0.00000,0.02769,0.97563,-0.19544,0.0,2023,6,7,11,15,53,-1755
28.11240,-0.09783,-0.01575,0.00000,0.02745,0.97685,-0.19544,0.0,2023,6,7,11,15,53,-1755
28.11250,-0.15033,-0.24325,0.00000,0.02794,0.97515,-0.19630,0.0,2023,6,7,11,15,53,-1755
28.11260,-0.09783,0.19425,0.00000,0.03026,0.97588,-0.19557,0.0,2023,6,7,11,15,53,-1755
28.11270,0.14717,-0.20825,0.00000,0.02818,0.97588,-0.19642,0.0,2023,6,7,11,15,53,-1755
28.11280,-0.16783,-0.06825,0.00000,0.02965,0.97588,-0.19398,0.0,2023,6,7,11,15,53,-1755
28.11290,0.04217,-0.19075,0.00000,0.02623,0.97685,-0.19581,0.0,2023,6,7,11,15,53,-1755
28.11300,0.00717,-0.03325,0.00000,0.02818,0.97551,-0.19569,0.0,2023,6,7,11,15,53,-1755
28.11310,0.16467,0.00175,0.00000,0.02696,0.97551,-0.19654,0.0,2023,6,7,11,15,53,-1755
28.11320,-0.20283,0.31675,0.00000,0.02806,0.97624,-0.19447,0.0,2023,6,7,11,15,53,-1755
28.11330,0.07717,0.05425,0.00000,0.02843,0.97490,-0.19605,0.0,2023,6,7,11,15,53,-1755
28.11340,0.18217,-0.05075,0.00000,0.02855,0.97637,-0.19874,0.0,2023,6,7,11,15,53,-1755
28.11350,-0.02783,0.00175,0.00000,0.02830,0.97551,-0.19496,0.0,2023,6,7,11,15,53,-1755
28.11360,0.09467,-0.13825,0.00000,0.02879,0.97490,-0.19666,0.0,2023,6,7,11,15,53,-1755
28.11370,-0.01033,0.01925,0.00000,0.02855,0.97576,-0.19618,0.0,2023,6,7,11,15,53,-1755
28.11380,-0.13283,0.01925,0.00000,0.02794,0.97588,-0.19496,0.0,2023,6,7,11,15,53,-1755
28.11390,0.11217,-0.10325,0.00000,0.03001,0.97319,-0.19447,0.0,2023,6,7,11,15,53,-1755
28.11400,0.07717,0.12425,0.00000,0.03026,0.97832,-0.19630,0.0,2023,6,7,11,15,53,-1755
28.11410,0.04217,0.07175,0.00000,0.02794,0.97478,-0.19496,0.0,2023,6,7,11,15,53,-1755
28.11420,0.28717,-0.38325,0.00000,0.02794,0.97368,-0.19349,0.0,2023,6,7,11,15,53,-1755
28.11430,0.05967,0.08925,0.00000,0.03001,0.97710,-0.19435,0.0,2023,6,7,11,15,53,-1755
28.11440,-0.06283,0.01925,0.00000,0.02989,0.97527,-0.19508,0.0,2023,6,7,11,15,53,-1755
28.11450,0.19967,-0.08575,0.00000,0.02977,0.97661,-0.19349,0.0,2023,6,7,11,15,53,-1755
28.11460,-0.04533,0.00175,0.00000,0.02623,0.97624,-0.19581,0.0,2023,6,7,11,15,53,-1755
28.11470,0.12967,0.07175,0.00000,0.02989,0.97478,-0.19654,0.0,2023,6,7,11,15,53,-1755
28.11480,-0.02783,-0.12075,0.00000,0.02794,0.97612,-0.19349,0.0,2023,6,7,11,15,53,-1755
28.11490,-0.08033,0.05425,0.00000,0.02806,0.97673,-0.19374,0.0,2023,6,7,11,15,53,-1755
28.11500,0.02467,0.19425,0.00000,0.02733,0.97685,-0.19349,0.0,2023,6,7,11,15,53,-1755
28.11510,0.02467,-0.13825,0.00000,0.03087,0.97527,-0.19813,0.0,2023,6,7,11,15,53,-1755
28.11520,0.00717,-0.10325,0.00000,0.02623,0.97637,-0.19666,0.0,2023,6,7,11,15,53,-1755
28.11530,-0.13283,0.05425,0.00000,0.02879,0.97673,-0.19569,0.0,2023,6,7,11,15,53,-1755
28.11540,-0.01033,0.05425,0.00000,0.02769,0.97637,-0.19764,0.0,2023,6,7,11,15,53,-1755
28.11550,0.14717,-0.15575,0.00000,0.02806,0.97429,-0.19557,0.0,2023,6,7,11,15,53,-1755
28.11560,0.02467,-0.01575,0.00000,0.02904,0.97502,-0.19618,0.0,2023,6,7,11,15,53,-1755
28.11570,0.07717,-0.05075,0.00000,0.02916,0.97722,-0.19471,0.0,2023,6,7,11,15,53,-1755
28.11580,0.02467,-0.03325,0.00000,0.03001,0.97600,-0.19252,0.0,2023,6,7,11,15,53,-1755
28.11590,-0.04533,-0.03325,0.00000,0.02891,0.97795,-0.19398,0.0,2023,6,7,11,15,53,-1755
28.11600,0.05967,0.03675,0.00000,0.02867,0.97551,-0.19666,0.0,2023,6,7,11,15,53,-1755
28.11610,-0.02783,-0.06825,0.00000,0.02916,0.97393,-0.19569,0.0,2023,6,7,11,15,53,-1755
28.11620,-0.02783,0.05425,0.00000,0.02757,0.97454,-0.19508,0.0,2023,6,7,11,15,53,-1755
28.11630,0.14717,-0.06825,0.00000,0.03099,0.97563,-0.19520,0.0,2023,6,7,11,15,53,-1755
28.11640,-0.13283,0.26425,0.00000,0.02818,0.97649,-0.19496,0.0,2023,6,7,11,15,53,-1755
28.11650,0.16467,-0.03325,0.00000,0.02855,0.97637,-0.19666,0.0,2023,6,7,11,15,53,-1755
28.11660,-0.16783,0.05425,0.00000,0.02940,0.97637,-0.19447,0.0,2023,6,7,11,15,53,-1755
28.11670,0.11217,0.03675,0.00000,0.02879,0.97685,-0.19325,0.0,2023,6,7,11,15,53,-1755
28.11680,-0.04533,0.22925,0.00000,0.02599,0.97502,-0.19618,0.0,2023,6,7,11,15,53,-1755
28.11690,-0.02783,-0.01575,0.00000,0.02733,0.97490,-0.19605,0.0,2023,6,7,11,15,53,-1755
28.11700,0.05967,0.15925,0.00000,0.02782,0.97673,-0.19496,0.0,2023,6,7,11,15,53,-1755
28.11710,0.02467,0.01925,0.00000,0.02977,0.97563,-0.19386,0.0,2023,6,7,11,15,53,-1755
28.11720,0.04217,-0.15575,0.00000,0.02782,0.97588,-0.19471,0.0,2023,6,7,11,15,53,-1755
28.11730,-0.02783,0.26425,0.00000,0.02733,0.97551,-0.19569,0.0,2023,6,7,11,15,53,-1755
28.11740,0.04217,-0.06825,0.00000,0.03013,0.97807,-0.19447,0.0,2023,6,7,11,15,53,-1755
28.11750,-0.11533,-0.12075,0.00000,0.02904,0.97637,-0.19398,0.0,2023,6,7,11,15,53,-1755
28.11760,-0.13283,0.17675,0.00000,0.02891,0.97551,-0.19581,0.0,2023,6,7,11,15,53,-1755
28.11770,0.02467,-0.01575,0.00000,0.02806,0.97539,-0.19447,0.0,2023,6,7,11,15,53,-1755
28.11780,-0.13283,-0.01575,0.00000,0.02769,0.97478,-0.19581,0.0,2023,6,7,11,15,53,-1755
28.11790,-0.15033,-0.10325,0.00000,0.03038,0.97588,-0.19849,0.0,2023,6,7,11,15,53,-1755
28.11800,0.00717,-0.03325,0.00000,0.02782,0.97368,-0.19666,0.0,2023,6,7,11,15,53,-1755
28.11810,-0.06283,0.00175,0.00000,0.02769,0.97563,-0.19752,0.0,2023,6,7,11,15,53,-1755
28.11820,-0.08033,-0.10325,0.00000,0.02611,0.97441,-0.19593,0.0,2023,6,7,11,15,53,-1755
28.11830,0.04217,-0.05075,0.00000,0.02977,0.97576,-0.19532,0.0,2023,6,7,11,15,53,-1755
28.11840,0.09467,-0.05075,0.00000,0.02977,0.97795,-0.19654,0.0,2023,6,7,11,15,53,-1755
28.11850,0.14717,-0.12075,0.00000,0.02989,0.97527,-0.19886,0.0,2023,6,7,11,15,53,-1755
28.11860,-0.09783,-0.06825,0.00000,0.02952,0.97698,-0.19496,0.0,2023,6,7,11,15,53,-1755
28.11870,0.11217,-0.05075,0.00000,0.02818,0.97624,-0.19386,0.0,2023,6,7,11,15,53,-1755
28.11880,0.02467,0.05425,0.00000,0.02977,0.97600,-0.19703,0.0,2023,6,7,11,15,53,-1755
28.11890,0.05967,0.01925,0.00000,0.02867,0.97807,-0.19727,0.0,2023,6,7,11,15,53,-1755
28.11900,0.00717,0.15925,0.00000,0.02879,0.97466,-0.19459,0.0,2023,6,7,11,15,53,-1755
28.11910,-0.06283,0.07175,0.00000,0.02830,0.97576,-0.19630,0.0,2023,6,7,11,15,53,-1755
28.11920,-0.02783,-0.03325,0.00000,0.02977,0.97551,-0.19386,0.0,2023,6,7,11,15,53,-1755
28.11930,-0.13283,-0.08575,0.00000,0.02769,0.97624,-0.19496,0.0,2023,6,7,11,15,53,-1755
28.11940,-0.01033,0.17675,0.00000,0.03026,0.97576,-0.19496,0.0,2023,6,7,11,15,53,-1755
28.11950,-0.02783,-0.01575,0.00000,0.02696,0.97441,-0.19581,0.0,2023,6,7,11,15,53,-1755
28.11960,0.32217,-0.17325,0.00000,0.02940,0.97673,-0.19703,0.0,2023,6,7,11,15,53,-1755
28.11970,0.14717,-0.12075,0.00000,0.02757,0.97612,-0.19691,0.0,2023,6,7,11,15,53,-1755
28.11980,-0.04533,-0.17325,0.00000,0.02806,0.97551,-0.19508,0.0,2023,6,7,11,15,53,-1755
28.11990,-0.15033,0.01925,0.00000,0.02513,0.97417,-0.19703,0.0,2023,6,7,11,15,53,-1755
28.12000,0.07717,-0.06825,0.00000,0.02891,0.97722,-0.19691,0.0,2023,6,7,11,15,53,-1755
28.12010,-0.18533,0.17675,0.00000,0.02794,0.97441,-0.19422,0.0,2023,6,7,11,15,53,-1755
28.12020,-0.02783,-0.24325,0.00000,0.02989,0.97698,-0.19740,0.0,2023,6,7,11,15,53,-1755
28.12030,0.02467,0.00175,0.00000,0.02843,0.98003,-0.19508,0.0,2023,6,7,11,15,53,-1755
28.12040,-0.02783,-0.24325,0.00000,0.02745,0.97612,-0.19654,0.0,2023,6,7,11,15,53,-1755
28.12050,-0.04533,0.03675,0.00000,0.02721,0.97515,-0.19459,0.0,2023,6,7,11,15,53,-1755
28.12060,-0.04533,0.22925,0.00000,0.02989,0.97795,-0.19666,0.0,2023,6,7,11,15,53,-1755
28.12070,0.05967,-0.08575,0.00000,0.02879,0.97563,-0.19422,0.0,2023,6,7,11,15,53,-1755
28.12080,-0.04533,0.21175,0.00000,0.02965,0.97466,-0.19618,0.0,2023,6,7,11,15,53,-1755
28.12090,-0.11533,0.19425,0.00000,0.02928,0.97222,-0.19508,0.0,2023,6,7,11,15,53,-1755
28.12100,-0.08033,-0.03325,0.00000,0.02745,0.97478,-0.19435,0.0,2023,6,7,11,15,53,-1755
28.12110,-0.02783,-0.03325,0.00000,0.02611,0.97539,-0.19593,0.0,2023,6,7,11,15,53,-1755
28.12120,-0.01033,-0.15575,0.00000,0.02782,0.97905,-0.19874,0.0,2023,6,7,11,15,53,-1755
28.12130,-0.11533,0.19425,0.00000,0.03013,0.97746,-0.19801,0.0,2023,6,7,11,15,53,-1755
28.12140,0.00717,0.14175,0.00000,0.02806,0.97710,-0.19288,0.0,2023,6,7,11,15,53,-1755
28.12150,0.05967,-0.01575,0.00000,0.02733,0.97624,-0.19398,0.0,2023,6,7,11,15,53,-1755
28.12160,-0.04533,-0.10325,0.00000,0.02769,0.97783,-0.19386,0.0,2023,6,7,11,15,53,-1755
28.12170,0.00717,-0.19075,0.00000,0.02855,0.97783,-0.19849,0.0,2023,6,7,11,15,53,-1755
28.12180,-0.25533,0.17675,0.00000,0.03038,0.97637,-0.19276,0.0,2023,6,7,11,15,53,-1755
28.12190,0.04217,0.01925,0.00000,0.02769,0.97685,-0.19496,0.0,2023,6,7,11,15,53,-1755
28.12200,0.05967,-0.03325,0.00000,0.03026,0.97551,-0.19654,0.0,2023,6,7,11,15,53,-1755
28.12210,0.09467,-0.19075,0.00000,0.02806,0.97478,-0.19666,0.0,2023,6,7,11,15,53,-1755
28.12220,0.07717,0.01925,0.00000,0.02660,0.97527,-0.19618,0.0,2023,6,7,11,15,53,-1755
28.12230,-0.16783,0.03675,0.00000,0.02782,0.97539,-0.19532,0.0,2023,6,7,11,15,53,-1755
28.12240,-0.02783,0.05425,0.00000,0.02611,0.97624,-0.19593,0.0,2023,6,7,11,15,53,-1755
28.12250,0.11217,0.01925,0.00000,0.02904,0.97649,-0.19642,0.0,2023,6,7,11,15,53,-1755
28.12260,0.21717,-0.26075,0.00000,0.02867,0.97490,-0.19679,0.0,2023,6,7,11,15,53,-1755
28.12270,0.12967,-0.03325,0.00000,0.02769,0.97539,-0.19483,0.0,2023,6,7,11,15,53,-1755
28.12280,-0.06283,-0.17325,0.00000,0.02794,0.97624,-0.19630,0.0,2023,6,7,11,15,53,-1755
28.12290,-0.06283,-0.13825,0.00000,0.02916,0.97673,-0.19544,0.0,2023,6,7,11,15,53,-1755
28.12300,-0.08033,0.05425,0.00000,0.03001,0.97502,-0.19422,0.0,2023,6,7,11,15,53,-1755
28.12310,0.14717,0.19425,0.00000,0.02782,0.97454,-0.19618,0.0,2023,6,7,11,15,53,-1755
28.12320,-0.04533,-0.20825,0.00000,0.02989,0.97515,-0.19666,0.0,2023,6,7,11,15,53,-1755
28.12330,-0.15033,0.01925,0.00000,0.02940,0.97661,-0.19605,0.0,2023,6,7,11,15,53,-1755
28.12340,-0.13283,-0.01575,0.00000,0.02891,0.97698,-0.19410,0.0,2023,6,7,11,15,53,-1755
28.12350,0.09467,-0.12075,0.00000,0.02684,0.97246,-0.19801,0.0,2023,6,7,11,15,53,-1755
28.12360,0.04217,0.10675,0.00000,0.02830,0.97673,-0.19605,0.0,2023,6,7,11,15,53,-1755
28.12370,0.09467,-0.05075,0.00000,0.02891,0.97710,-0.19593,0.0,2023,6,7,11,15,53,-1755
28.12380,0.04217,-0.01575,0.00000,0.02891,0.97588,-0.19715,0.0,2023,6,7,11,15,53,-1755
28.12390,-0.01033,0.07175,0.00000,0.02879,0.97539,-0.19715,0.0,2023,6,7,11,15,53,-1755
28.12400,0.02467,-0.34825,0.00000,0.03026,0.97515,-0.19313,0.0,2023,6,7,11,15,53,-1755
28.12410,0.00717,0.00175,0.00000,0.02782,0.97637,-0.19630,0.0,2023,6,7,11,15,53,-1755
28.12420,-0.09783,-0.08575,0.00000,0.03062,0.97417,-0.19544,0.0,2023,6,7,11,15,53,-1755
28.12430,0.02467,0.01925,0.00000,0.02684,0.97551,-0.19496,0.0,2023,6,7,11,15,53,-1755
28.12440,-0.02783,0.28175,0.00000,0.02794,0.97588,-0.19715,0.0,2023,6,7,11,15,53,-1755
28.12450,-0.22033,-0.06825,0.00000,0.02928,0.97576,-0.19654,0.0,2023,6,7,11,15,53,-1755
28.12460,-0.13283,0.08925,0.00000,0.02721,0.97588,-0.19679,0.0,2023,6,7,11,15,53,-1755
28.12470,0.00717,0.03675,0.00000,0.02891,0.97368,-0.19618,0.0,2023,6,7,11,15,53,-1755
28.12480,-0.15033,-0.13825,0.00000,0.02916,0.97502,-0.19447,0.0,2023,6,7,11,15,53,-1755
28.12490,-0.37783,0.17675,0.00000,0.02782,0.97319,-0.19569,0.0,2023,6,7,11,15,53,-1755
28.12500,-0.09783,-0.15575,0.00000,0.02818,0.97576,-0.19496,0.0,2023,6,7,11,15,53,-1755
28.12510,0.09467,0.03675,0.00000,0.02940,0.97807,-0.19618,0.0,2023,6,7,11,15,53,-1755
28.12520,-0.16783,0.07175,0.00000,0.02818,0.97551,-0.19422,0.0,2023,6,7,11,15,53,-1755
28.12530,0.05967,-0.06825,0.00000,0.02879,0.97539,-0.19532,0.0,2023,6,7,11,15,53,-1755
28.12540,0.07717,-0.03325,0.00000,0.02904,0.97380,-0.19642,0.0,2023,6,7,11,15,53,-1755
28.12550,-0.16783,-0.15575,0.00000,0.02708,0.97490,-0.19630,0.0,2023,6,7,11,15,53,-1755
28.12560,-0.01033,0.28175,0.00000,0.02818,0.97466,-0.19642,0.0,2023,6,7,11,15,53,-1755
28.12570,0.09467,0.01925,0.00000,0.02599,0.97576,-0.19776,0.0,2023,6,7,11,15,53,-1755
28.12580,-0.09783,0.05425,0.00000,0.03026,0.97490,-0.19788,0.0,2023,6,7,11,15,53,-1755
28.12590,0.07717,0.03675,0.00000,0.02879,0.97771,-0.19740,0.0,2023,6,7,11,15,53,-1755
28.12600,0.05967,-0.03325,0.00000,0.02611,0.97441,-0.19703,0.0,2023,6,7,11,15,53,-1755
28.12610,-0.06283,-0.10325,0.00000,0.02684,0.97551,-0.19666,0.0,2023,6,7,11,15,53,-1755
28.12620,0.11217,-0.19075,0.00000,0.02843,0.97624,-0.19801,0.0,2023,6,7,11,15,53,-1755
28.12630,0.04217,0.14175,0.00000,0.02794,0.97698,-0.19435,0.0,2023,6,7,11,15,53,-1755
28.12640,0.00717,0.00175,0.00000,0.02782,0.97612,-0.19886,0.0,2023,6,7,11,15,53,-1755
28.12650,0.07717,0.07175,0.00000,0.02891,0.97380,-0.19801,0.0,2023,6,7,11,15,53,-1755
28.12660,0.02467,-0.03325,0.00000,0.02769,0.97661,-0.19752,0.0,2023,6,7,11,15,53,-1755
28.12670,0.07717,-0.22575,0.00000,0.02867,0.97246,-0.19654,0.0,2023,6,7,11,15,53,-1755
28.12680,-0.08033,-0.08575,0.00000,0.02965,0.97783,-0.19801,0.0,2023,6,7,11,15,53,-1755
28.12690,0.00717,0.00175,0.00000,0.02989,0.97771,-0.19825,0.0,2023,6,7,11,15,53,-1755
28.12700,0.04217,-0.03325,0.00000,0.03026,0.97405,-0.19715,0.0,2023,6,7,11,15,53,-1755
28.12710,-0.15033,0.12425,0.00000,0.02733,0.97746,-0.19984,0.0,2023,6,7,11,15,53,-1755
28.12720,-0.11533,0.12425,0.00000,0.02733,0.97637,-0.19910,0.0,2023,6,7,11,15,53,-1755
28.12730,0.07717,-0.08575,0.00000,0.02769,0.97576,-0.19825,0.0,2023,6,7,11,15,53,-1755
28.12740,0.09467,-0.05075,0.00000,0.02769,0.97661,-0.19874,0.0,2023,6,7,11,15,53,-1755
28.12750,0.00717,-0.12075,0.00000,0.02855,0.97539,-0.19740,0.0,2023,6,7,11,15,53,-1755
28.12760,-0.08033,0.12425,0.00000,0.02830,0.97649,-0.19776,0.0,2023,6,7,11,15,53,-1755
28.12770,-0.15033,0.08925,0.00000,0.03038,0.97454,-0.19898,0.0,2023,6,7,11,15,53,-1755
28.12780,0.04217,0.07175,0.00000,0.03038,0.97344,-0.19788,0.0,2023,6,7,11,15,53,-1755
28.12790,0.04217,-0.10325,0.00000,0.02818,0.97502,-0.19923,0.0,2023,6,7,11,15,53,-1755
28.12800,-0.06283,0.03675,0.00000,0.02745,0.97515,-0.19959,0.0,2023,6,7,11,15,53,-1755
28.12810,-0.22033,0.07175,0.00000,0.02928,0.97649,-0.19923,0.0,2023,6,7,11,15,53,-1755
28.12820,-0.01033,0.08925,0.00000,0.02623,0.97539,-0.20081,0.0,2023,6,7,11,15,53,-1755
28.12830,0.14717,-0.13825,0.00000,0.03074,0.97515,-0.20252,0.0,2023,6,7,11,15,53,-1755
28.12840,0.11217,0.00175,0.00000,0.02794,0.97454,-0.19996,0.0,2023,6,7,11,15,53,-1755
28.12850,0.05967,0.19425,0.00000,0.02745,0.97685,-0.19935,0.0,2023,6,7,11,15,53,-1755
28.12860,0.05967,-0.29575,0.00000,0.02757,0.97759,-0.20118,0.0,2023,6,7,11,15,53,-1755
28.12870,-0.16783,0.24675,0.00000,0.02769,0.97551,-0.19935,0.0,2023,6,7,11,15,53,-1755
28.12880,-0.04533,-0.12075,0.00000,0.02745,0.97393,-0.20069,0.0,2023,6,7,11,15,53,-1755
28.12890,-0.15033,-0.01575,0.00000,0.02757,0.97637,-0.20008,0.0,2023,6,7,11,15,53,-1755
28.12900,0.19967,-0.01575,0.00000,0.02769,0.97600,-0.20069,0.0,2023,6,7,11,15,53,-1755
28.12910,0.07717,-0.03325,0.00000,0.02818,0.97649,-0.19703,0.0,2023,6,7,11,15,53,-1755
28.12920,0.04217,-0.22575,0.00000,0.02696,0.97649,-0.20045,0.0,2023,6,7,11,15,53,-1755
28.12930,0.11217,-0.03325,0.00000,0.02818,0.97942,-0.19923,0.0,2023,6,7,11,15,53,-1755
28.12940,-0.13283,0.01925,0.00000,0.02904,0.97734,-0.19618,0.0,2023,6,7,11,15,53,-1755
28.12950,-0.18533,0.03675,0.00000,0.02586,0.97527,-0.19959,0.0,2023,6,7,11,15,53,-1755
28.12960,-0.08033,0.15925,0.00000,0.02879,0.97441,-0.19874,0.0,2023,6,7,11,15,53,-1755
28.12970,-0.11533,-0.03325,0.00000,0.02855,0.97380,-0.19825,0.0,2023,6,7,11,15,53,-1755
28.12980,-0.04533,0.17675,0.00000,0.02660,0.97515,-0.19788,0.0,2023,6,7,11,15,53,-1755
28.12990,-0.01033,0.03675,0.00000,0.02928,0.97734,-0.19910,0.0,2023,6,7,11,15,53,-1755
28.13000,-0.11533,0.00175,0.00000,0.02916,0.97490,-0.19898,0.0,2023,6,7,11,15,53,-1755
28.13010,0.09467,-0.03325,0.00000,0.02879,0.97807,-0.19898,0.0,2023,6,7,11,15,53,-1755
28.13020,-0.20283,-0.12075,0.00000,0.02757,0.97588,-0.19483,0.0,2023,6,7,11,15,53,-1755
28.13030,-0.02783,-0.12075,0.00000,0.02782,0.97563,-0.19618,0.0,2023,6,7,11,15,53,-1755
28.13040,0.11217,0.05425,0.00000,0.02818,0.97344,-0.19654,0.0,2023,6,7,11,15,53,-1755
28.13050,-0.25533,0.15925,0.00000,0.02733,0.97539,-0.19642,0.0,2023,6,7,11,15,53,-1755
28.13060,0.04217,-0.08575,0.00000,0.02843,0.97783,-0.19727,0.0,2023,6,7,11,15,53,-1755
28.13070,0.14717,-0.05075,0.00000,0.02843,0.97551,-0.19593,0.0,2023,6,7,11,15,53,-1755
28.13080,-0.01033,0.00175,0.00000,0.02916,0.97637,-0.19435,0.0,2023,6,7,11,15,53,-1755
28.13090,-0.08033,0.01925,0.00000,0.02891,0.97515,-0.19483,0.0,2023,6,7,11,15,53,-1755
28.13100,0.11217,0.15925,0.00000,0.02769,0.97527,-0.19910,0.0,2023,6,7,11,15,54,-1755
28.13110,0.04217,-0.12075,0.00000,0.02891,0.97600,-0.19764,0.0,2023,6,7,11,15,54,-1755
28.13120,-0.18533,0.05425,0.00000,0.02867,0.97600,-0.19727,0.0,2023,6,7,11,15,54,-1755
28.13130,-0.08033,-0.06825,0.00000,0.03001,0.97746,-0.19740,0.0,2023,6,7,11,15,54,-1755
28.13140,-0.01033,-0.22575,0.00000,0.02818,0.97551,-0.19764,0.0,2023,6,7,11,15,54,-1755
28.13150,0.07717,-0.08575,0.00000,0.02794,0.97515,-0.19947,0.0,2023,6,7,11,15,54,-1755
28.13160,-0.11533,-0.03325,0.00000,0.02977,0.97685,-0.20093,0.0,2023,6,7,11,15,54,-1755
28.13170,0.12967,-0.10325,0.00000,0.02879,0.97588,-0.19813,0.0,2023,6,7,11,15,54,-1755
28.13180,0.05967,0.03675,0.00000,0.02855,0.97600,-0.19801,0.0,2023,6,7,11,15,54,-1755
28.13190,-0.15033,-0.20825,0.00000,0.02708,0.97527,-0.19666,0.0,2023,6,7,11,15,54,-1755
28.13200,-0.15033,0.07175,0.00000,0.02660,0.97698,-0.19874,0.0,2023,6,7,11,15,54,-1755
28.13210,-0.06283,0.12425,0.00000,0.02830,0.97820,-0.19862,0.0,2023,6,7,11,15,54,-1755
28.13220,-0.11533,-0.12075,0.00000,0.02916,0.97893,-0.19496,0.0,2023,6,7,11,15,54,-1755
28.13230,0.12967,0.05425,0.00000,0.02879,0.97600,-0.19886,0.0,2023,6,7,11,15,54,-1755
28.13240,-0.18533,-0.01575,0.00000,0.02660,0.97551,-0.19813,0.0,2023,6,7,11,15,54,-1755
28.13250,-0.08033,0.14175,0.00000,0.02684,0.97356,-0.19422,0.0,2023,6,7,11,15,54,-1755
28.13260,0.05967,0.03675,0.00000,0.02599,0.97698,-0.19715,0.0,2023,6,7,11,15,54,-1755
28.13270,-0.06283,0.00175,0.00000,0.02708,0.97441,-0.19703,0.0,2023,6,7,11,15,54,-1755
28.13280,0.12967,0.03675,0.00000,0.03074,0.97527,-0.19398,0.0,2023,6,7,11,15,54,-1755
28.13290,0.07717,0.10675,0.00000,0.02818,0.97661,-0.19679,0.0,2023,6,7,11,15,54,-1755
28.13300,0.00717,-0.24325,0.00000,0.02794,0.97454,-0.19898,0.0,2023,6,7,11,15,54,-1755
28.13310,0.04217,-0.08575,0.00000,0.02599,0.97222,-0.19544,0.0,2023,6,7,11,15,54,-1755
28.13320,-0.02783,-0.05075,0.00000,0.03074,0.97637,-0.19849,0.0,2023,6,7,11,15,54,-1755
28.13330,0.21717,-0.06825,0.00000,0.02952,0.97527,-0.19630,0.0,2023,6,7,11,15,54,-1755
28.13340,0.16467,0.00175,0.00000,0.02830,0.97588,-0.19764,0.0,2023,6,7,11,15,54,-1755
28.13350,0.00717,-0.06825,0.00000,0.02806,0.97393,-0.19898,0.0,2023,6,7,11,15,54,-1755
28.13360,-0.08033,0.15925,0.00000,0.02904,0.97637,-0.19691,0.0,2023,6,7,11,15,54,-1755
28.13370,-0.02783,-0.08575,0.00000,0.02855,0.97515,-0.19874,0.0,2023,6,7,11,15,54,-1755
28.13380,-0.09783,-0.12075,0.00000,0.02904,0.97722,-0.19581,0.0,2023,6,7,11,15,54,-1755
28.13390,0.05967,0.00175,0.00000,0.02879,0.97490,-0.19618,0.0,2023,6,7,11,15,54,-1755
28.13400,-0.02783,-0.12075,0.00000,0.02745,0.97698,-0.19642,0.0,2023,6,7,11,15,54,-1755
28.13410,0.02467,0.00175,0.00000,0.02977,0.97734,-0.19825,0.0,2023,6,7,11,15,54,-1755
28.13420,-0.04533,0.05425,0.00000,0.02806,0.97600,-0.19849,0.0,2023,6,7,11,15,54,-1755
28.13430,0.02467,-0.06825,0.00000,0.02818,0.97478,-0.19825,0.0,2023,6,7,11,15,54,-1755
28.13440,-0.22033,0.10675,0.00000,0.02635,0.97515,-0.19715,0.0,2023,6,7,11,15,54,-1755
28.13450,-0.13283,-0.12075,0.00000,0.02708,0.97576,-0.19569,0.0,2023,6,7,11,15,54,-1755
28.13460,-0.22033,-0.03325,0.00000,0.02782,0.97344,-0.19679,0.0,2023,6,7,11,15,54,-1755
28.13470,0.16467,-0.13825,0.00000,0.02916,0.97393,-0.19849,0.0,2023,6,7,11,15,54,-1755
28.13480,-0.16783,0.03675,0.00000,0.03160,0.97783,-0.19788,0.0,2023,6,7,11,15,54,-1755
28.13490,-0.01033,-0.06825,0.00000,0.02647,0.97405,-0.19618,0.0,2023,6,7,11,15,54,-1755
28.13500,-0.13283,-0.10325,0.00000,0.03038,0.97417,-0.19727,0.0,2023,6,7,11,15,54,-1755
28.13510,-0.02783,-0.24325,0.00000,0.02843,0.97478,-0.19557,0.0,2023,6,7,11,15,54,-1755
28.13520,-0.18533,0.12425,0.00000,0.02830,0.97588,-0.19703,0.0,2023,6,7,11,15,54,-1755
28.13530,0.19967,-0.15575,0.00000,0.02830,0.97539,-0.19788,0.0,2023,6,7,11,15,54,-1755
28.13540,0.05967,0.08925,0.00000,0.02757,0.97515,-0.19654,0.0,2023,6,7,11,15,54,-1755
28.13550,-0.06283,-0.12075,0.00000,0.02952,0.97637,-0.19910,0.0,2023,6,7,11,15,54,-1755
28.13560,0.09467,-0.13825,0.00000,0.02904,0.97600,-0.19435,0.0,2023,6,7,11,15,54,-1755
28.13570,-0.20283,0.03675,0.00000,0.02830,0.97698,-0.19666,0.0,2023,6,7,11,15,54,-1755
28.13580,-0.02783,-0.27825,0.00000,0.03111,0.97417,-0.19532,0.0,2023,6,7,11,15,54,-1755
28.13590,-0.09783,-0.06825,0.00000,0.02769,0.97405,-0.19642,0.0,2023,6,7,11,15,54,-1755
28.13600,0.00717,-0.29575,0.00000,0.02696,0.97539,-0.19532,0.0,2023,6,7,11,15,54,-1755
28.13610,0.00717,-0.01575,0.00000,0.02928,0.97612,-0.19532,0.0,2023,6,7,11,15,54,-1755
28.13620,-0.22033,-0.03325,0.00000,0.02830,0.97429,-0.19605,0.0,2023,6,7,11,15,54,-1755
28.13630,-0.09783,0.10675,0.00000,0.02623,0.97417,-0.19666,0.0,2023,6,7,11,15,54,-1755
28.13640,-0.01033,-0.06825,0.00000,0.02952,0.97637,-0.19727,0.0,2023,6,7,11,15,54,-1755
28.13650,0.04217,0.12425,0.00000,0.02818,0.97600,-0.19520,0.0,2023,6,7,11,15,54,-1755
28.13660,-0.01033,-0.06825,0.00000,0.02721,0.97649,-0.19788,0.0,2023,6,7,11,15,54,-1755
28.13670,0.12967,0.01925,0.00000,0.03026,0.97600,-0.19703,0.0,2023,6,7,11,15,54,-1755
28.13680,0.02467,0.05425,0.00000,0.02965,0.97478,-0.19447,0.0,2023,6,7,11,15,54,-1755
28.13690,-0.02783,0.07175,0.00000,0.02904,0.97490,-0.19898,0.0,2023,6,7,11,15,54,-1755
28.13700,-0.06283,0.08925,0.00000,0.02843,0.97527,-0.19557,0.0,2023,6,7,11,15,54,-1755
28.13710,-0.18533,0.00175,0.00000,0.03001,0.97661,-0.19508,0.0,2023,6,7,11,15,54,-1755
28.13720,0.04217,-0.15575,0.00000,0.02769,0.97466,-0.19715,0.0,2023,6,7,11,15,54,-1755
28.13730,0.14717,0.05425,0.00000,0.02696,0.97527,-0.19776,0.0,2023,6,7,11,15,54,-1755
28.13740,-0.11533,-0.06825,0.00000,0.02843,0.97332,-0.19764,0.0,2023,6,7,11,15,54,-1755
28.13750,0.19967,0.00175,0.00000,0.02916,0.97527,-0.19654,0.0,2023,6,7,11,15,54,-1755
28.13760,-0.15033,0.03675,0.00000,0.02757,0.97319,-0.19654,0.0,2023,6,7,11,15,54,-1755
28.13770,0.04217,0.01925,0.00000,0.02904,0.97710,-0.19532,0.0,2023,6,7,11,15,54,-1755
28.13780,0.11217,0.05425,0.00000,0.02940,0.97539,-0.19752,0.0,2023,6,7,11,15,54,-1755
28.13790,-0.11533,-0.01575,0.00000,0.02965,0.97759,-0.19557,0.0,2023,6,7,11,15,54,-1755
28.13800,0.00717,0.05425,0.00000,0.03013,0.97698,-0.19727,0.0,2023,6,7,11,15,54,-1755
28.13810,-0.01033,-0.15575,0.00000,0.02745,0.97551,-0.19752,0.0,2023,6,7,11,15,54,-1755
28.13820,0.09467,-0.06825,0.00000,0.02867,0.97441,-0.19801,0.0,2023,6,7,11,15,54,-1755
28.13830,0.09467,0.14175,0.00000,0.02769,0.97515,-0.19764,0.0,2023,6,7,11,15,54,-1755
28.13840,0.25217,0.05425,0.00000,0.02879,0.97563,-0.19605,0.0,2023,6,7,11,15,54,-1755
28.13850,-0.01033,0.03675,0.00000,0.02916,0.97600,-0.19703,0.0,2023,6,7,11,15,54,-1755
28.13860,0.00717,-0.05075,0.00000,0.02745,0.97539,-0.19642,0.0,2023,6,7,11,15,54,-1755
28.13870,-0.04533,-0.08575,0.00000,0.02952,0.97710,-0.19788,0.0,2023,6,7,11,15,54,-1755
28.13880,-0.06283,-0.01575,0.00000,0.02977,0.97539,-0.19605,0.0,2023,6,7,11,15,54,-1755
28.13890,-0.16783,-0.06825,0.00000,0.02855,0.97624,-0.19605,0.0,2023,6,7,11,15,54,-1755
28.13900,0.02467,-0.01575,0.00000,0.02965,0.97454,-0.19862,0.0,2023,6,7,11,15,54,-1755
28.13910,-0.16783,-0.08575,0.00000,0.03001,0.97539,-0.19532,0.0,2023,6,7,11,15,54,-1755
28.13920,-0.13283,-0.05075,0.00000,0.02879,0.97624,-0.19703,0.0,2023,6,7,11,15,54,-1755
28.13930,0.05967,0.01925,0.00000,0.02782,0.97649,-0.19837,0.0,2023,6,7,11,15,54,-1755
28.13940,-0.11533,-0.12075,0.00000,0.02757,0.97490,-0.19642,0.0,2023,6,7,11,15,54,-1755
28.13950,-0.11533,0.03675,0.00000,0.02904,0.97429,-0.19703,0.0,2023,6,7,11,15,54,-1755
28.13960,0.14717,-0.01575,0.00000,0.02586,0.97466,-0.19813,0.0,2023,6,7,11,15,54,-1755
28.13970,0.19967,0.01925,0.00000,0.02769,0.97490,-0.19715,0.0,2023,6,7,11,15,54,-1755
28.13980,0.12967,0.15925,0.00000,0.02806,0.97637,-0.19520,0.0,2023,6,7,11,15,54,-1755
28.13990,-0.13283,0.00175,0.00000,0.02916,0.97685,-0.19715,0.0,2023,6,7,11,15,55,-1755
28.14000,-0.06283,0.24675,0.00000,0.02977,0.97527,-0.19776,0.0,2023,6,7,11,15,55,-1755
28.14010,-0.04533,-0.10325,0.00000,0.02879,0.97502,-0.19520,0.0,2023,6,7,11,15,55,-1755
28.14020,-0.04533,0.17675,0.00000,0.02660,0.97319,-0.19557,0.0,2023,6,7,11,15,55,-1755
28.14030,-0.06283,-0.19075,0.00000,0.02843,0.97588,-0.19630,0.0,2023,6,7,11,15,55,-1755
28.14040,-0.04533,0.14175,0.00000,0.02757,0.97527,-0.19910,0.0,2023,6,7,11,15,55,-1755
28.14050,0.02467,-0.10325,0.00000,0.02879,0.97502,-0.19837,0.0,2023,6,7,11,15,55,-1755
28.14060,0.00717,-0.13825,0.00000,0.02769,0.97478,-0.20020,0.0,2023,6,7,11,15,55,-1755
28.14070,-0.06283,-0.01575,0.00000,0.02721,0.97515,-0.19959,0.0,2023,6,7,11,15,55,-1755
28.14080,0.02467,0.01925,0.00000,0.02928,0.97624,-0.19691,0.0,2023,6,7,11,15,55,-1755
28.14090,0.05967,-0.10325,0.00000,0.02928,0.97466,-0.19593,0.0,2023,6,7,11,15,55,-1755
28.14100,-0.06283,0.28175,0.00000,0.02818,0.97417,-0.19740,0.0,2023,6,7,11,15,55,-1755
28.14110,0.00717,-0.03325,0.00000,0.02977,0.97612,-0.19618,0.0,2023,6,7,11,15,55,-1755
28.14120,0.04217,-0.08575,0.00000,0.02818,0.97515,-0.19691,0.0,2023,6,7,11,15,55,-1755
28.14130,0.07717,0.00175,0.00000,0.02843,0.97490,-0.19862,0.0,2023,6,7,11,15,55,-1755
28.14140,-0.02783,0.08925,0.00000,0.02952,0.97271,-0.19862,0.0,2023,6,7,11,15,55,-1755
28.14150,0.09467,0.07175,0.00000,0.02806,0.97820,-0.19776,0.0,2023,6,7,11,15,55,-1755
28.14160,0.05967,0.07175,0.00000,0.02745,0.97502,-0.19691,0.0,2023,6,7,11,15,55,-1755
28.14170,0.09467,0.10675,0.00000,0.02696,0.97527,-0.19679,0.0,2023,6,7,11,15,55,-1755
28.14180,-0.09783,0.12425,0.00000,0.02818,0.97588,-0.19679,0.0,2023,6,7,11,15,55,-1755
28.14190,0.11217,0.12425,0.00000,0.02794,0.97612,-0.19971,0.0,2023,6,7,11,15,55,-1755
28.14200,-0.02783,0.07175,0.00000,0.02696,0.97673,-0.19727,0.0,2023,6,7,11,15,55,-1755
28.14210,-0.09783,0.01925,0.00000,0.02891,0.97661,-0.19630,0.0,2023,6,7,11,15,55,-1755
28.14220,0.09467,0.01925,0.00000,0.02721,0.97551,-0.19605,0.0,2023,6,7,11,15,55,-1755
28.14230,0.00717,0.01925,0.00000,0.02708,0.97258,-0.19703,0.0,2023,6,7,11,15,55,-1755
28.14240,-0.11533,-0.05075,0.00000,0.02867,0.97380,-0.19605,0.0,2023,6,7,11,15,55,-1755
28.14250,-0.06283,0.01925,0.00000,0.02867,0.97515,-0.19557,0.0,2023,6,7,11,15,55,-1755
28.14260,-0.02783,-0.12075,0.00000,0.02757,0.97637,-0.19447,0.0,2023,6,7,11,15,55,-1755
28.14270,0.05967,0.05425,0.00000,0.02891,0.97515,-0.19520,0.0,2023,6,7,11,15,55,-1755
28.14280,0.16467,-0.10325,0.00000,0.02696,0.97661,-0.19862,0.0,2023,6,7,11,15,55,-1755
28.14290,0.07717,-0.08575,0.00000,0.02794,0.97527,-0.19740,0.0,2023,6,7,11,15,55,-1755
28.14300,-0.09783,0.01925,0.00000,0.02952,0.97588,-0.19483,0.0,2023,6,7,11,15,55,-1755
28.14310,0.16467,-0.15575,0.00000,0.02806,0.97515,-0.19618,0.0,2023,6,7,11,15,55,-1755
28.14320,-0.13283,0.08925,0.00000,0.02708,0.97551,-0.19361,0.0,2023,6,7,11,15,55,-1755
28.14330,-0.34283,0.19425,0.00000,0.02806,0.97380,-0.19471,0.0,2023,6,7,11,15,55,-1755
28.14340,-0.16783,0.03675,0.00000,0.02769,0.97576,-0.19605,0.0,2023,6,7,11,15,55,-1755
28.14350,-0.01033,0.05425,0.00000,0.02757,0.97405,-0.19252,0.0,2023,6,7,11,15,55,-1755
28.14360,0.11217,-0.15575,0.00000,0.02794,0.97612,-0.19740,0.0,2023,6,7,11,15,55,-1755
28.14370,-0.04533,0.14175,0.00000,0.02830,0.97856,-0.19361,0.0,2023,6,7,11,15,55,-1755
28.14380,-0.01033,-0.05075,0.00000,0.02818,0.97185,-0.19520,0.0,2023,6,7,11,15,55,-1755
28.14390,-0.04533,0.07175,0.00000,0.02538,0.97624,-0.19776,0.0,2023,6,7,11,15,55,-1755
28.14400,-0.02783,0.03675,0.00000,0.02684,0.97698,-0.19544,0.0,2023,6,7,11,15,55,-1755
28.14410,0.11217,-0.31325,0.00000,0.02635,0.97527,-0.19544,0.0,2023,6,7,11,15,55,-1755
28.14420,-0.02783,0.07175,0.00000,0.02672,0.97588,-0.19715,0.0,2023,6,7,11,15,55,-1755
28.14430,0.02467,-0.24325,0.00000,0.03001,0.97454,-0.19349,0.0,2023,6,7,11,15,55,-1755
28.14440,-0.16783,-0.13825,0.00000,0.02891,0.97612,-0.19459,0.0,2023,6,7,11,15,55,-1755
28.14450,0.12967,0.17675,0.00000,0.02696,0.97515,-0.19642,0.0,2023,6,7,11,15,55,-1755
28.14460,0.14717,-0.17325,0.00000,0.02818,0.97527,-0.19532,0.0,2023,6,7,11,15,55,-1755
28.14470,-0.09783,-0.01575,0.00000,0.02757,0.97380,-0.19520,0.0,2023,6,7,11,15,55,-1755
28.14480,0.04217,0.01925,0.00000,0.02855,0.97478,-0.19764,0.0,2023,6,7,11,15,55,-1755
28.14490,-0.06283,0.01925,0.00000,0.02745,0.97356,-0.19386,0.0,2023,6,7,11,15,55,-1755
28.14500,0.07717,0.12425,0.00000,0.02782,0.97515,-0.19691,0.0,2023,6,7,11,15,55,-1755
28.14510,-0.04533,0.07175,0.00000,0.02879,0.97576,-0.19569,0.0,2023,6,7,11,15,55,-1755
28.14520,0.05967,0.00175,0.00000,0.02525,0.97478,-0.19788,0.0,2023,6,7,11,15,55,-1755
28.14530,-0.11533,0.10675,0.00000,0.02660,0.97698,-0.19459,0.0,2023,6,7,11,15,55,-1755
28.14540,-0.02783,-0.01575,0.00000,0.02867,0.97685,-0.19618,0.0,2023,6,7,11,15,55,-1755
28.14550,0.04217,0.00175,0.00000,0.02721,0.97637,-0.19581,0.0,2023,6,7,11,15,55,-1755
28.14560,-0.01033,-0.05075,0.00000,0.03074,0.97380,-0.19435,0.0,2023,6,7,11,15,55,-1755
28.14570,0.04217,-0.10325,0.00000,0.02977,0.97380,-0.19569,0.0,2023,6,7,11,15,55,-1755
28.14580,-0.08033,0.15925,0.00000,0.02891,0.97588,-0.19532,0.0,2023,6,7,11,15,55,-1755
28.14590,-0.08033,0.22925,0.00000,0.02684,0.97478,-0.19740,0.0,2023,6,7,11,15,55,-1755
28.14600,0.12967,0.00175,0.00000,0.02574,0.97673,-0.19325,0.0,2023,6,7,11,15,55,-1755
28.14610,0.05967,-0.10325,0.00000,0.02538,0.97502,-0.19532,0.0,2023,6,7,11,15,55,-1755
28.14620,-0.06283,0.03675,0.00000,0.02721,0.97539,-0.19544,0.0,2023,6,7,11,15,55,-1755
28.14630,0.07717,-0.01575,0.00000,0.02745,0.97502,-0.19520,0.0,2023,6,7,11,15,55,-1755
28.14640,-0.08033,0.01925,0.00000,0.02733,0.97649,-0.19654,0.0,2023,6,7,11,15,55,-1755
28.14650,0.11217,0.03675,0.00000,0.02647,0.97612,-0.19691,0.0,2023,6,7,11,15,55,-1755
28.14660,-0.08033,0.10675,0.00000,0.02928,0.97527,-0.19666,0.0,2023,6,7,11,15,55,-1755
28.14670,0.02467,-0.06825,0.00000,0.03111,0.97502,-0.19447,0.0,2023,6,7,11,15,55,-1755
28.14680,0.07717,-0.17325,0.00000,0.02855,0.97746,-0.19569,0.0,2023,6,7,11,15,55,-1755
28.14690,0.00717,-0.15575,0.00000,0.02855,0.97649,-0.19496,0.0,2023,6,7,11,15,55,-1755
28.14700,0.04217,-0.12075,0.00000,0.02830,0.97502,-0.19422,0.0,2023,6,7,11,15,55,-1755
28.14710,-0.18533,0.10675,0.00000,0.03013,0.97734,-0.19374,0.0,2023,6,7,11,15,55,-1755
28.14720,-0.06283,0.05425,0.00000,0.02647,0.97527,-0.19642,0.0,2023,6,7,11,15,55,-1755
28.14730,0.05967,-0.08575,0.00000,0.02782,0.97527,-0.19691,0.0,2023,6,7,11,15,55,-1755
28.14740,0.02467,0.07175,0.00000,0.03087,0.97624,-0.19593,0.0,2023,6,7,11,15,55,-1755
28.14750,0.04217,0.07175,0.00000,0.02952,0.97612,-0.19410,0.0,2023,6,7,11,15,55,-1755
28.14760,0.04217,-0.03325,0.00000,0.02855,0.97563,-0.19496,0.0,2023,6,7,11,15,55,-1755
28.14770,0.04217,0.08925,0.00000,0.02891,0.97771,-0.19435,0.0,2023,6,7,11,15,55,-1755
28.14780,0.25217,-0.15575,0.00000,0.02721,0.97478,-0.19630,0.0,2023,6,7,11,15,55,-1755
28.14790,-0.09783,0.19425,0.00000,0.02952,0.97478,-0.19752,0.0,2023,6,7,11,15,55,-1755
28.14800,0.12967,-0.05075,0.00000,0.03001,0.97746,-0.19435,0.0,2023,6,7,11,15,55,-1755
28.14810,0.02467,-0.08575,0.00000,0.02757,0.97759,-0.19715,0.0,2023,6,7,11,15,55,-1755
28.14820,0.21717,-0.29575,0.00000,0.03135,0.97649,-0.19691,0.0,2023,6,7,11,15,55,-1755
28.14830,0.05967,-0.05075,0.00000,0.02940,0.97393,-0.19727,0.0,2023,6,7,11,15,55,-1755
28.14840,-0.04533,0.14175,0.00000,0.02818,0.97344,-0.19654,0.0,2023,6,7,11,15,55,-1755
28.14850,0.02467,0.00175,0.00000,0.02916,0.97673,-0.19813,0.0,2023,6,7,11,15,55,-1755
28.14860,-0.23783,0.10675,0.00000,0.02904,0.97673,-0.19422,0.0,2023,6,7,11,15,55,-1755
28.14870,0.04217,-0.08575,0.00000,0.02879,0.97478,-0.19593,0.0,2023,6,7,11,15,55,-1755
28.14880,0.11217,0.08925,0.00000,0.03111,0.97502,-0.19520,0.0,2023,6,7,11,15,55,-1755
28.14890,0.00717,0.17675,0.00000,0.02769,0.97637,-0.19386,0.0,2023,6,7,11,15,55,-1755
28.14900,0.11217,-0.12075,0.00000,0.03013,0.97600,-0.19447,0.0,2023,6,7,11,15,56,-1755
28.14910,-0.06283,-0.27825,0.00000,0.02904,0.97563,-0.19337,0.0,2023,6,7,11,15,56,-1755
28.14920,-0.04533,-0.29575,0.00000,0.02782,0.97490,-0.19593,0.0,2023,6,7,11,15,56,-1755
28.14930,0.09467,-0.10325,0.00000,0.03026,0.97551,-0.19459,0.0,2023,6,7,11,15,56,-1755
28.14940,0.12967,0.01925,0.00000,0.02830,0.97637,-0.19618,0.0,2023,6,7,11,15,56,-1755
28.14950,0.07717,-0.05075,0.00000,0.02843,0.97466,-0.19569,0.0,2023,6,7,11,15,56,-1755
28.14960,0.07717,0.01925,0.00000,0.02769,0.97527,-0.19508,0.0,2023,6,7,11,15,56,-1755
28.14970,-0.02783,0.08925,0.00000,0.02965,0.97637,-0.19496,0.0,2023,6,7,11,15,56,-1755
28.14980,-0.16783,-0.05075,0.00000,0.02977,0.97649,-0.19398,0.0,2023,6,7,11,15,56,-1755
28.14990,-0.01033,0.00175,0.00000,0.02769,0.97515,-0.19508,0.0,2023,6,7,11,15,56,-1755
28.15000,-0.04533,0.07175,0.00000,0.02745,0.97478,-0.19459,0.0,2023,6,7,11,15,56,-1755
28.15010,-0.13283,0.07175,0.00000,0.02660,0.97502,-0.19544,0.0,2023,6,7,11,15,56,-1755
28.15020,-0.04533,0.00175,0.00000,0.02977,0.97746,-0.19361,0.0,2023,6,7,11,15,56,-1755
28.15030,0.14717,-0.06825,0.00000,0.02623,0.97539,-0.19447,0.0,2023,6,7,11,15,56,-1755
28.15040,-0.15033,0.12425,0.00000,0.02965,0.97771,-0.19569,0.0,2023,6,7,11,15,56,-1755
28.15050,-0.02783,-0.05075,0.00000,0.02977,0.97576,-0.19605,0.0,2023,6,7,11,15,56,-1755
28.15060,-0.16783,0.10675,0.00000,0.02574,0.97588,-0.19520,0.0,2023,6,7,11,15,56,-1755
28.15070,-0.13283,-0.06825,0.00000,0.02696,0.97576,-0.19666,0.0,2023,6,7,11,15,56,-1755
28.15080,0.21717,-0.05075,0.00000,0.02794,0.97405,-0.19349,0.0,2023,6,7,11,15,56,-1755
28.15090,0.05967,-0.15575,0.00000,0.02855,0.97502,-0.19374,0.0,2023,6,7,11,15,56,-1755
28.15100,0.09467,-0.15575,0.00000,0.02891,0.97612,-0.19435,0.0,2023,6,7,11,15,56,-1755
28.15110,0.07717,-0.22575,0.00000,0.02806,0.97563,-0.19679,0.0,2023,6,7,11,15,56,-1755
28.15120,0.07717,-0.15575,0.00000,0.02843,0.97551,-0.19471,0.0,2023,6,7,11,15,56,-1755
28.15130,-0.08033,0.01925,0.00000,0.03013,0.97344,-0.19569,0.0,2023,6,7,11,15,56,-1755
28.15140,-0.06283,0.01925,0.00000,0.02916,0.97588,-0.19557,0.0,2023,6,7,11,15,56,-1755
28.15150,0.00717,-0.08575,0.00000,0.02769,0.97783,-0.19642,0.0,2023,6,7,11,15,56,-1755
28.15160,0.05967,0.03675,0.00000,0.02965,0.97698,-0.19569,0.0,2023,6,7,11,15,56,-1755
28.15170,0.07717,-0.13825,0.00000,0.03013,0.97576,-0.19276,0.0,2023,6,7,11,15,56,-1755
28.15180,0.04217,-0.06825,0.00000,0.02806,0.97429,-0.19715,0.0,2023,6,7,11,15,56,-1755
28.15190,-0.15033,0.07175,0.00000,0.02940,0.97515,-0.19752,0.0,2023,6,7,11,15,56,-1755
28.15200,0.21717,-0.15575,0.00000,0.02904,0.97612,-0.19593,0.0,2023,6,7,11,15,56,-1755
28.15210,-0.08033,-0.15575,0.00000,0.02855,0.97490,-0.19740,0.0,2023,6,7,11,15,56,-1755
28.15220,-0.11533,0.08925,0.00000,0.02769,0.97551,-0.19666,0.0,2023,6,7,11,15,56,-1755
28.15230,-0.09783,0.01925,0.00000,0.02806,0.97283,-0.19569,0.0,2023,6,7,11,15,56,-1755
28.15240,-0.27283,0.08925,0.00000,0.02855,0.97515,-0.19801,0.0,2023,6,7,11,15,56,-1755
28.15250,-0.15033,0.05425,0.00000,0.03074,0.97527,-0.19532,0.0,2023,6,7,11,15,56,-1755
28.15260,0.11217,-0.26075,0.00000,0.02696,0.97710,-0.19618,0.0,2023,6,7,11,15,56,-1755
28.15270,0.07717,-0.13825,0.00000,0.02794,0.97698,-0.19764,0.0,2023,6,7,11,15,56,-1755
28.15280,-0.13283,0.14175,0.00000,0.02647,0.97783,-0.19679,0.0,2023,6,7,11,15,56,-1755
28.15290,-0.23783,0.24675,0.00000,0.02965,0.97893,-0.19313,0.0,2023,6,7,11,15,56,-1755
28.15300,0.07717,0.08925,0.00000,0.02904,0.97698,-0.19581,0.0,2023,6,7,11,15,56,-1755
28.15310,-0.20283,0.10675,0.00000,0.03087,0.97722,-0.19386,0.0,2023,6,7,11,15,56,-1755
28.15320,0.02467,-0.01575,0.00000,0.03099,0.97393,-0.19447,0.0,2023,6,7,11,15,56,-1755
28.15330,-0.04533,-0.03325,0.00000,0.02830,0.97271,-0.19483,0.0,2023,6,7,11,15,56,-1755
28.15340,0.05967,-0.08575,0.00000,0.02977,0.97405,-0.19581,0.0,2023,6,7,11,15,56,-1755
28.15350,0.09467,0.03675,0.00000,0.02818,0.97783,-0.19715,0.0,2023,6,7,11,15,56,-1755
28.15360,0.00717,0.08925,0.00000,0.02782,0.97588,-0.19544,0.0,2023,6,7,11,15,56,-1755
28.15370,-0.01033,-0.15575,0.00000,0.02745,0.97502,-0.19386,0.0,2023,6,7,11,15,56,-1755
28.15380,-0.01033,0.01925,0.00000,0.02904,0.97771,-0.19605,0.0,2023,6,7,11,15,56,-1755
28.15390,-0.01033,-0.17325,0.00000,0.02623,0.97515,-0.19532,0.0,2023,6,7,11,15,56,-1755
28.15400,-0.11533,0.01925,0.00000,0.02806,0.97563,-0.19776,0.0,2023,6,7,11,15,56,-1755
28.15410,-0.04533,0.15925,0.00000,0.02928,0.97722,-0.19654,0.0,2023,6,7,11,15,56,-1755
28.15420,0.04217,0.12425,0.00000,0.02745,0.97417,-0.19898,0.0,2023,6,7,11,15,56,-1755
28.15430,-0.06283,-0.26075,0.00000,0.02904,0.97563,-0.19471,0.0,2023,6,7,11,15,56,-1755
28.15440,0.07717,-0.12075,0.00000,0.02904,0.97502,-0.19788,0.0,2023,6,7,11,15,56,-1755
28.15450,0.04217,0.15925,0.00000,0.02745,0.97344,-0.19459,0.0,2023,6,7,11,15,56,-1755
28.15460,-0.02783,0.01925,0.00000,0.02843,0.97515,-0.19923,0.0,2023,6,7,11,15,56,-1755
28.15470,-0.01033,0.15925,0.00000,0.02745,0.97576,-0.19593,0.0,2023,6,7,11,15,56,-1755
28.15480,0.12967,0.00175,0.00000,0.02843,0.97393,-0.19666,0.0,2023,6,7,11,15,56,-1755
28.15490,-0.06283,0.05425,0.00000,0.02989,0.97649,-0.19422,0.0,2023,6,7,11,15,56,-1755
28.15500,-0.02783,-0.10325,0.00000,0.02855,0.97661,-0.19483,0.0,2023,6,7,11,15,56,-1755
28.15510,0.00717,-0.08575,0.00000,0.02867,0.97551,-0.19679,0.0,2023,6,7,11,15,56,-1755
28.15520,0.09467,0.05425,0.00000,0.02721,0.97600,-0.19776,0.0,2023,6,7,11,15,56,-1755
28.15530,-0.06283,0.00175,0.00000,0.02928,0.97429,-0.19496,0.0,2023,6,7,11,15,56,-1755
28.15540,-0.09783,-0.08575,0.00000,0.02733,0.97527,-0.19581,0.0,2023,6,7,11,15,56,-1755
28.15550,-0.11533,0.10675,0.00000,0.02879,0.97429,-0.19178,0.0,2023,6,7,11,15,56,-1755
28.15560,0.11217,0.07175,0.00000,0.02769,0.97210,-0.19483,0.0,2023,6,7,11,15,56,-1755
28.15570,-0.11533,-0.03325,0.00000,0.02660,0.97795,-0.19398,0.0,2023,6,7,11,15,56,-1755
28.15580,-0.18533,0.00175,0.00000,0.02818,0.97563,-0.19593,0.0,2023,6,7,11,15,56,-1755
28.15590,-0.09783,0.03675,0.00000,0.02879,0.97466,-0.19532,0.0,2023,6,7,11,15,56,-1755
28.15600,0.07717,-0.03325,0.00000,0.02928,0.97649,-0.19679,0.0,2023,6,7,11,15,56,-1755
28.15610,0.02467,-0.13825,0.00000,0.02928,0.97429,-0.19630,0.0,2023,6,7,11,15,56,-1755
28.15620,-0.04533,-0.10325,0.00000,0.02830,0.97698,-0.19544,0.0,2023,6,7,11,15,56,-1755
28.15630,0.05967,0.14175,0.00000,0.02696,0.97417,-0.19618,0.0,2023,6,7,11,15,56,-1755
28.15640,-0.01033,0.00175,0.00000,0.02745,0.97429,-0.19471,0.0,2023,6,7,11,15,56,-1755
28.15650,-0.01033,0.03675,0.00000,0.02769,0.97624,-0.19508,0.0,2023,6,7,11,15,56,-1755
28.15660,0.16467,0.07175,0.00000,0.03050,0.97795,-0.19727,0.0,2023,6,7,11,15,56,-1755
28.15670,-0.25533,0.00175,0.00000,0.02904,0.97685,-0.19288,0.0,2023,6,7,11,15,56,-1755
28.15680,-0.02783,0.12425,0.00000,0.02879,0.97576,-0.19252,0.0,2023,6,7,11,15,56,-1755
28.15690,-0.09783,0.00175,0.00000,0.02916,0.97710,-0.19374,0.0,2023,6,7,11,15,56,-1755
28.15700,-0.01033,0.14175,0.00000,0.02879,0.97258,-0.19300,0.0,2023,6,7,11,15,56,-1755
28.15710,0.02467,-0.06825,0.00000,0.02977,0.97454,-0.19349,0.0,2023,6,7,11,15,56,-1755
28.15720,0.02467,0.10675,0.00000,0.02916,0.97771,-0.19520,0.0,2023,6,7,11,15,56,-1755
28.15730,0.04217,-0.05075,0.00000,0.02891,0.97490,-0.19435,0.0,2023,6,7,11,15,56,-1755
28.15740,0.04217,0.12425,0.00000,0.02635,0.97551,-0.19398,0.0,2023,6,7,11,15,56,-1755
28.15750,0.00717,-0.19075,0.00000,0.02818,0.97710,-0.19227,0.0,2023,6,7,11,15,56,-1755
28.15760,0.07717,-0.17325,0.00000,0.02843,0.97551,-0.19361,0.0,2023,6,7,11,15,56,-1755
28.15770,-0.13283,0.15925,0.00000,0.02989,0.97551,-0.19398,0.0,2023,6,7,11,15,56,-1755
28.15780,-0.04533,-0.05075,0.00000,0.02965,0.97795,-0.19618,0.0,2023,6,7,11,15,57,-1755
28.15790,0.11217,-0.05075,0.00000,0.02757,0.97380,-0.19386,0.0,2023,6,7,11,15,57,-1755
28.15800,-0.09783,0.12425,0.00000,0.02904,0.97380,-0.19557,0.0,2023,6,7,11,15,57,-1755
28.15810,0.14717,-0.05075,0.00000,0.02684,0.97881,-0.19496,0.0,2023,6,7,11,15,57,-1755
28.15820,0.18217,-0.22575,0.00000,0.02794,0.97380,-0.19471,0.0,2023,6,7,11,15,57,-1755
28.15830,0.04217,-0.22575,0.00000,0.02794,0.97344,-0.19300,0.0,2023,6,7,11,15,57,-1755
28.15840,0.05967,0.03675,0.00000,0.02818,0.97661,-0.19105,0.0,2023,6,7,11,15,57,-1755
28.15850,0.11217,-0.03325,0.00000,0.02708,0.97612,-0.19581,0.0,2023,6,7,11,15,57,-1755
28.15860,-0.18533,0.10675,0.00000,0.02843,0.97685,-0.19593,0.0,2023,6,7,11,15,57,-1755
28.15870,0.07717,0.05425,0.00000,0.02745,0.97441,-0.19386,0.0,2023,6,7,11,15,57,-1755
28.15880,0.07717,-0.12075,0.00000,0.02635,0.97454,-0.19191,0.0,2023,6,7,11,15,57,-1755
28.15890,0.04217,-0.12075,0.00000,0.02586,0.97527,-0.19325,0.0,2023,6,7,11,15,57,-1755
28.15900,0.12967,-0.13825,0.00000,0.02721,0.97478,-0.19471,0.0,2023,6,7,11,15,57,-1755
28.15910,-0.01033,0.01925,0.00000,0.02806,0.97746,-0.19569,0.0,2023,6,7,11,15,57,-1755
28.15920,0.12967,-0.06825,0.00000,0.02757,0.97734,-0.19508,0.0,2023,6,7,11,15,57,-1755
28.15930,-0.01033,-0.13825,0.00000,0.03062,0.97527,-0.19496,0.0,2023,6,7,11,15,57,-1755
28.15940,-0.02783,-0.10325,0.00000,0.02904,0.97527,-0.19374,0.0,2023,6,7,11,15,57,-1755
28.15950,-0.04533,0.01925,0.00000,0.02952,0.97746,-0.19471,0.0,2023,6,7,11,15,57,-1755
28.15960,-0.08033,0.07175,0.00000,0.02757,0.97307,-0.19386,0.0,2023,6,7,11,15,57,-1755
28.15970,0.09467,0.08925,0.00000,0.03148,0.97685,-0.19239,0.0,2023,6,7,11,15,57,-1755
28.15980,0.12967,-0.34825,0.00000,0.02855,0.97393,-0.19410,0.0,2023,6,7,11,15,57,-1755
28.15990,-0.04533,0.03675,0.00000,0.02830,0.97624,-0.19532,0.0,2023,6,7,11,15,57,-1755
28.16000,-0.01033,-0.08575,0.00000,0.02818,0.97673,-0.19435,0.0,2023,6,7,11,15,57,-1755
28.16010,0.04217,-0.20825,0.00000,0.02952,0.97332,-0.19252,0.0,2023,6,7,11,15,57,-1755
28.16020,0.00717,0.05425,0.00000,0.02647,0.97417,-0.19422,0.0,2023,6,7,11,15,57,-1755
28.16030,0.07717,0.01925,0.00000,0.02708,0.97649,-0.19288,0.0,2023,6,7,11,15,57,-1755
28.16040,-0.08033,-0.22575,0.00000,0.03038,0.97466,-0.19483,0.0,2023,6,7,11,15,57,-1755
28.16050,0.09467,-0.12075,0.00000,0.02733,0.97637,-0.19227,0.0,2023,6,7,11,15,57,-1755
28.16060,0.12967,-0.03325,0.00000,0.02855,0.97649,-0.19325,0.0,2023,6,7,11,15,57,-1755
28.16070,-0.02783,-0.05075,0.00000,0.03087,0.97698,-0.19374,0.0,2023,6,7,11,15,57,-1755
28.16080,0.00717,0.21175,0.00000,0.02879,0.97600,-0.19544,0.0,2023,6,7,11,15,57,-1755
28.16090,-0.02783,0.05425,0.00000,0.02830,0.97600,-0.19520,0.0,2023,6,7,11,15,57,-1755
28.16100,-0.16783,0.05425,0.00000,0.02855,0.97551,-0.19422,0.0,2023,6,7,11,15,57,-1755
28.16110,0.04217,0.17675,0.00000,0.02928,0.97673,-0.19581,0.0,2023,6,7,11,15,57,-1755
28.16120,0.00717,0.17675,0.00000,0.02965,0.97393,-0.19361,0.0,2023,6,7,11,15,57,-1755
28.16130,0.04217,-0.06825,0.00000,0.02904,0.97539,-0.19471,0.0,2023,6,7,11,15,57,-1755
28.16140,0.11217,0.05425,0.00000,0.02940,0.97405,-0.19337,0.0,2023,6,7,11,15,57,-1755
28.16150,0.19967,0.01925,0.00000,0.02782,0.97673,-0.19215,0.0,2023,6,7,11,15,57,-1755
28.16160,0.25217,-0.08575,0.00000,0.02757,0.97539,-0.19764,0.0,2023,6,7,11,15,57,-1755
28.16170,0.07717,0.07175,0.00000,0.02684,0.97502,-0.19593,0.0,2023,6,7,11,15,57,-1755
28.16180,-0.02783,0.17675,0.00000,0.02952,0.97490,-0.19471,0.0,2023,6,7,11,15,57,-1755
28.16190,-0.02783,0.01925,0.00000,0.02855,0.97649,-0.19520,0.0,2023,6,7,11,15,57,-1755
28.16200,-0.15033,-0.06825,0.00000,0.02757,0.97417,-0.19435,0.0,2023,6,7,11,15,57,-1755
28.16210,0.11217,0.08925,0.00000,0.03001,0.97466,-0.19459,0.0,2023,6,7,11,15,57,-1755
28.16220,-0.09783,0.01925,0.00000,0.02965,0.97417,-0.19776,0.0,2023,6,7,11,15,57,-1755
28.16230,0.04217,0.10675,0.00000,0.03001,0.97502,-0.19788,0.0,2023,6,7,11,15,57,-1755
28.16240,0.02467,-0.36575,0.00000,0.02745,0.97563,-0.19508,0.0,2023,6,7,11,15,57,-1755
28.16250,0.05967,0.03675,0.00000,0.02867,0.97807,-0.19569,0.0,2023,6,7,11,15,57,-1755
28.16260,0.04217,-0.01575,0.00000,0.02733,0.97429,-0.19471,0.0,2023,6,7,11,15,57,-1755
28.16270,0.00717,-0.06825,0.00000,0.02818,0.97478,-0.19666,0.0,2023,6,7,11,15,57,-1755
28.16280,-0.04533,0.10675,0.00000,0.02757,0.97515,-0.19520,0.0,2023,6,7,11,15,57,-1755
28.16290,-0.02783,0.01925,0.00000,0.02818,0.97746,-0.19435,0.0,2023,6,7,11,15,57,-1755
28.16300,-0.02783,-0.03325,0.00000,0.02867,0.97539,-0.19447,0.0,2023,6,7,11,15,57,-1755
28.16310,0.02467,0.05425,0.00000,0.02879,0.97563,-0.19642,0.0,2023,6,7,11,15,57,-1755
28.16320,-0.06283,-0.12075,0.00000,0.02745,0.97454,-0.19666,0.0,2023,6,7,11,15,57,-1755
28.16330,0.04217,0.10675,0.00000,0.02794,0.97710,-0.19508,0.0,2023,6,7,11,15,57,-1755
28.16340,0.00717,-0.01575,0.00000,0.02696,0.97454,-0.19630,0.0,2023,6,7,11,15,57,-1755
28.16350,0.16467,-0.26075,0.00000,0.02867,0.97368,-0.19508,0.0,2023,6,7,11,15,57,-1755
28.16360,0.05967,-0.13825,0.00000,0.02745,0.97527,-0.19593,0.0,2023,6,7,11,15,57,-1755
28.16370,0.07717,-0.01575,0.00000,0.02538,0.97441,-0.19740,0.0,2023,6,7,11,15,57,-1755
28.16380,-0.22033,0.03675,0.00000,0.03026,0.97417,-0.19508,0.0,2023,6,7,11,15,57,-1755
28.16390,0.05967,-0.13825,0.00000,0.02989,0.97563,-0.19557,0.0,2023,6,7,11,15,57,-1755
28.16400,0.02467,-0.10325,0.00000,0.02989,0.97710,-0.19569,0.0,2023,6,7,11,15,57,-1755
28.16410,-0.11533,0.10675,0.00000,0.02867,0.97624,-0.19508,0.0,2023,6,7,11,15,57,-1755
28.16420,0.02467,-0.06825,0.00000,0.02879,0.97380,-0.19764,0.0,2023,6,7,11,15,57,-1755
28.16430,0.05967,-0.22575,0.00000,0.02794,0.97393,-0.19483,0.0,2023,6,7,11,15,57,-1755
28.16440,-0.09783,0.00175,0.00000,0.02855,0.97368,-0.19483,0.0,2023,6,7,11,15,57,-1755
28.16450,0.07717,-0.12075,0.00000,0.02940,0.97551,-0.19447,0.0,2023,6,7,11,15,57,-1755
28.16460,-0.13283,-0.01575,0.00000,0.02867,0.97600,-0.19605,0.0,2023,6,7,11,15,57,-1755
28.16470,0.09467,0.03675,0.00000,0.02855,0.97490,-0.19581,0.0,2023,6,7,11,15,57,-1755
28.16480,-0.02783,0.00175,0.00000,0.02806,0.97454,-0.19569,0.0,2023,6,7,11,15,57,-1755
28.16490,0.05967,-0.01575,0.00000,0.02818,0.97649,-0.19508,0.0,2023,6,7,11,15,57,-1755
28.16500,-0.06283,-0.05075,0.00000,0.02879,0.97576,-0.19618,0.0,2023,6,7,11,15,57,-1755
28.16510,-0.15033,0.03675,0.00000,0.02830,0.97588,-0.19618,0.0,2023,6,7,11,15,57,-1755
28.16520,-0.22033,-0.01575,0.00000,0.02721,0.97380,-0.19605,0.0,2023,6,7,11,15,57,-1755
28.16530,-0.02783,-0.08575,0.00000,0.02928,0.97380,-0.19581,0.0,2023,6,7,11,15,57,-1755
28.16540,-0.01033,-0.08575,0.00000,0.02599,0.97319,-0.19435,0.0,2023,6,7,11,15,57,-1755
28.16550,-0.02783,-0.01575,0.00000,0.02904,0.97588,-0.19398,0.0,2023,6,7,11,15,57,-1755
28.16560,0.07717,-0.03325,0.00000,0.02891,0.97624,-0.19581,0.0,2023,6,7,11,15,57,-1755
28.16570,0.00717,-0.03325,0.00000,0.02928,0.97527,-0.19532,0.0,2023,6,7,11,15,57,-1755
28.16580,-0.06283,0.05425,0.00000,0.02708,0.97490,-0.19569,0.0,2023,6,7,11,15,57,-1755
28.16590,0.02467,-0.05075,0.00000,0.02794,0.97490,-0.19435,0.0,2023,6,7,11,15,57,-1755
28.16600,0.04217,-0.15575,0.00000,0.02928,0.97612,-0.19447,0.0,2023,6,7,11,15,57,-1755
28.16610,-0.11533,0.10675,0.00000,0.02525,0.97600,-0.19483,0.0,2023,6,7,11,15,57,-1755
28.16620,-0.04533,0.07175,0.00000,0.02830,0.97539,-0.19337,0.0,2023,6,7,11,15,57,-1755
28.16630,0.18217,-0.10325,0.00000,0.03013,0.97393,-0.19715,0.0,2023,6,7,11,15,57,-1755
28.16640,-0.04533,0.01925,0.00000,0.02513,0.97478,-0.19374,0.0,2023,6,7,11,15,57,-1755
28.16650,-0.01033,-0.33075,0.00000,0.02879,0.97576,-0.19605,0.0,2023,6,7,11,15,57,-1755
28.16660,0.05967,-0.13825,0.00000,0.02843,0.97612,-0.19642,0.0,2023,6,7,11,15,57,-1755
28.16670,-0.02783,-0.03325,0.00000,0.02818,0.97685,-0.19666,0.0,2023,6,7,11,15,57,-1755
28.16680,-0.27283,-0.01575,0.00000,0.02867,0.97490,-0.19471,0.0,2023,6,7,11,15,57,-1755
28.16690,-0.25533,0.05425,0.00000,0.02721,0.97685,-0.19508,0.0,2023,6,7,11,15,58,-1755
28.16700,-0.23783,0.05425,0.00000,0.02769,0.97783,-0.19520,0.0,2023,6,7,11,15,58,-1755
28.16710,-0.02783,0.01925,0.00000,0.02745,0.97478,-0.19654,0.0,2023,6,7,11,15,58,-1755
28.16720,0.05967,0.00175,0.00000,0.02782,0.97746,-0.19557,0.0,2023,6,7,11,15,58,-1755
28.16730,-0.01033,-0.17325,0.00000,0.02745,0.97710,-0.19032,0.0,2023,6,7,11,15,58,-1755
28.16740,-0.09783,0.03675,0.00000,0.02916,0.97441,-0.19459,0.0,2023,6,7,11,15,58,-1755
28.16750,-0.01033,-0.01575,0.00000,0.02647,0.97600,-0.19557,0.0,2023,6,7,11,15,58,-1755
28.16760,-0.11533,0.03675,0.00000,0.02769,0.97539,-0.19398,0.0,2023,6,7,11,15,58,-1755
28.16770,-0.06283,0.01925,0.00000,0.02745,0.97417,-0.19776,0.0,2023,6,7,11,15,58,-1755
28.16780,0.05967,-0.01575,0.00000,0.02916,0.97563,-0.19618,0.0,2023,6,7,11,15,58,-1755
28.16790,0.04217,0.03675,0.00000,0.02989,0.97405,-0.19520,0.0,2023,6,7,11,15,58,-1755
28.16800,-0.02783,0.07175,0.00000,0.02635,0.97576,-0.19398,0.0,2023,6,7,11,15,58,-1755
28.16810,0.11217,-0.01575,0.00000,0.02867,0.97454,-0.19581,0.0,2023,6,7,11,15,58,-1755
28.16820,-0.09783,0.14175,0.00000,0.02782,0.97429,-0.19288,0.0,2023,6,7,11,15,58,-1755
28.16830,0.05967,-0.13825,0.00000,0.02721,0.97807,-0.19203,0.0,2023,6,7,11,15,58,-1755
28.16840,-0.06283,-0.19075,0.00000,0.02867,0.97722,-0.19618,0.0,2023,6,7,11,15,58,-1755
28.16850,0.02467,-0.05075,0.00000,0.02891,0.97539,-0.19544,0.0,2023,6,7,11,15,58,-1755
28.16860,0.21717,0.01925,0.00000,0.02806,0.97539,-0.19508,0.0,2023,6,7,11,15,58,-1755
28.16870,-0.01033,0.03675,0.00000,0.02916,0.97490,-0.19532,0.0,2023,6,7,11,15,58,-1755
28.16880,0.00717,0.00175,0.00000,0.02916,0.97551,-0.19227,0.0,2023,6,7,11,15,58,-1755
28.16890,0.02467,-0.01575,0.00000,0.02818,0.97771,-0.19459,0.0,2023,6,7,11,15,58,-1755
28.16900,0.04217,-0.03325,0.00000,0.02733,0.97515,-0.19703,0.0,2023,6,7,11,15,58,-1755
28.16910,-0.15033,0.07175,0.00000,0.02586,0.97624,-0.19715,0.0,2023,6,7,11,15,58,-1755
28.16920,0.02467,-0.05075,0.00000,0.02757,0.97868,-0.19483,0.0,2023,6,7,11,15,58,-1755
28.16930,0.07717,-0.22575,0.00000,0.02782,0.97698,-0.19508,0.0,2023,6,7,11,15,58,-1755
28.16940,-0.15033,-0.27825,0.00000,0.02696,0.97478,-0.19557,0.0,2023,6,7,11,15,58,-1755
28.16950,0.02467,-0.06825,0.00000,0.02708,0.97393,-0.19618,0.0,2023,6,7,11,15,58,-1755
28.16960,-0.04533,0.00175,0.00000,0.02989,0.97441,-0.19483,0.0,2023,6,7,11,15,58,-1755
28.16970,0.04217,0.07175,0.00000,0.02891,0.97746,-0.19630,0.0,2023,6,7,11,15,58,-1755
28.16980,0.04217,-0.13825,0.00000,0.02757,0.97454,-0.19618,0.0,2023,6,7,11,15,58,-1755
28.16990,0.04217,0.22925,0.00000,0.02830,0.97441,-0.19483,0.0,2023,6,7,11,15,58,-1755
28.17000,-0.02783,-0.13825,0.00000,0.02745,0.97576,-0.19569,0.0,2023,6,7,11,15,58,-1755
28.17010,0.05967,0.12425,0.00000,0.02843,0.97698,-0.19471,0.0,2023,6,7,11,15,58,-1755
28.17020,-0.02783,0.05425,0.00000,0.02879,0.97698,-0.19264,0.0,2023,6,7,11,15,58,-1755
28.17030,0.02467,0.10675,0.00000,0.02806,0.97466,-0.19666,0.0,2023,6,7,11,15,58,-1755
28.17040,0.00717,-0.12075,0.00000,0.02855,0.97515,-0.19727,0.0,2023,6,7,11,15,58,-1755
28.17050,-0.08033,0.03675,0.00000,0.02660,0.97454,-0.19337,0.0,2023,6,7,11,15,58,-1755
28.17060,0.07717,-0.10325,0.00000,0.02879,0.97405,-0.19581,0.0,2023,6,7,11,15,58,-1755
28.17070,-0.20283,0.15925,0.00000,0.02733,0.97746,-0.19544,0.0,2023,6,7,11,15,58,-1755
28.17080,-0.01033,0.28175,0.00000,0.02867,0.97685,-0.19654,0.0,2023,6,7,11,15,58,-1755
28.17090,0.14717,0.00175,0.00000,0.02879,0.97429,-0.19740,0.0,2023,6,7,11,15,58,-1755
28.17100,-0.11533,-0.15575,0.00000,0.02867,0.97685,-0.19447,0.0,2023,6,7,11,15,58,-1755
28.17110,-0.09783,0.08925,0.00000,0.02769,0.97734,-0.19130,0.0,2023,6,7,11,15,58,-1755
28.17120,0.00717,-0.01575,0.00000,0.02879,0.97673,-0.19435,0.0,2023,6,7,11,15,58,-1755
28.17130,-0.11533,0.08925,0.00000,0.02965,0.97539,-0.19666,0.0,2023,6,7,11,15,58,-1755
28.17140,-0.11533,0.21175,0.00000,0.02965,0.97710,-0.19569,0.0,2023,6,7,11,15,58,-1755
28.17150,0.05967,0.05425,0.00000,0.02830,0.97612,-0.19398,0.0,2023,6,7,11,15,58,-1755
28.17160,-0.13283,0.08925,0.00000,0.02965,0.97600,-0.19386,0.0,2023,6,7,11,15,58,-1755
28.17170,0.16467,-0.01575,0.00000,0.02916,0.97405,-0.19496,0.0,2023,6,7,11,15,58,-1755
28.17180,0.12967,-0.10325,0.00000,0.02782,0.97661,-0.19557,0.0,2023,6,7,11,15,58,-1755
28.17190,-0.11533,-0.10325,0.00000,0.02928,0.97429,-0.19422,0.0,2023,6,7,11,15,58,-1755
28.17200,0.02467,0.00175,0.00000,0.02635,0.97576,-0.19520,0.0,2023,6,7,11,15,58,-1755
28.17210,0.18217,-0.17325,0.00000,0.03099,0.97478,-0.19337,0.0,2023,6,7,11,15,58,-1755
28.17220,-0.01033,0.10675,0.00000,0.02782,0.97368,-0.19447,0.0,2023,6,7,11,15,58,-1755
28.17230,0.04217,0.05425,0.00000,0.02891,0.97576,-0.19679,0.0,2023,6,7,11,15,58,-1755
28.17240,-0.08033,0.08925,0.00000,0.02843,0.97698,-0.19557,0.0,2023,6,7,11,15,58,-1755
28.17250,-0.08033,-0.05075,0.00000,0.02794,0.97685,-0.19422,0.0,2023,6,7,11,15,58,-1755
28.17260,0.02467,0.00175,0.00000,0.02879,0.97478,-0.19410,0.0,2023,6,7,11,15,58,-1755
28.17270,-0.01033,0.14175,0.00000,0.02708,0.97429,-0.19642,0.0,2023,6,7,11,15,58,-1755
28.17280,0.12967,0.10675,0.00000,0.03013,0.97515,-0.19532,0.0,2023,6,7,11,15,58,-1755
28.17290,-0.13283,0.03675,0.00000,0.02916,0.97722,-0.19654,0.0,2023,6,7,11,15,58,-1755
28.17300,-0.06283,-0.05075,0.00000,0.02891,0.97478,-0.19386,0.0,2023,6,7,11,15,58,-1755
28.17310,0.00717,-0.13825,0.00000,0.02891,0.97527,-0.19837,0.0,2023,6,7,11,15,58,-1755
28.17320,0.04217,-0.19075,0.00000,0.02721,0.97637,-0.19593,0.0,2023,6,7,11,15,58,-1755
28.17330,-0.01033,-0.10325,0.00000,0.02940,0.97405,-0.19496,0.0,2023,6,7,11,15,58,-1755
28.17340,0.18217,-0.08575,0.00000,0.02611,0.97405,-0.19740,0.0,2023,6,7,11,15,58,-1755
28.17350,0.23467,0.01925,0.00000,0.02745,0.97539,-0.19496,0.0,2023,6,7,11,15,58,-1755
28.17360,0.09467,0.00175,0.00000,0.02830,0.97502,-0.19459,0.0,2023,6,7,11,15,58,-1755
28.17370,-0.08033,-0.12075,0.00000,0.02952,0.97502,-0.19374,0.0,2023,6,7,11,15,58,-1755
28.17380,-0.22033,-0.12075,0.00000,0.02794,0.97454,-0.19605,0.0,2023,6,7,11,15,58,-1755
28.17390,-0.04533,0.19425,0.00000,0.02782,0.97649,-0.19520,0.0,2023,6,7,11,15,58,-1755
28.17400,0.16467,-0.17325,0.00000,0.02635,0.97441,-0.19666,0.0,2023,6,7,11,15,58,-1755
28.17410,0.02467,0.03675,0.00000,0.02940,0.97454,-0.19618,0.0,2023,6,7,11,15,58,-1755
28.17420,-0.02783,0.08925,0.00000,0.02855,0.97490,-0.19483,0.0,2023,6,7,11,15,58,-1755
28.17430,0.00717,-0.12075,0.00000,0.02916,0.97844,-0.19605,0.0,2023,6,7,11,15,58,-1755
28.17440,0.00717,-0.03325,0.00000,0.02855,0.97722,-0.19569,0.0,2023,6,7,11,15,58,-1755
28.17450,0.05967,0.03675,0.00000,0.02611,0.97612,-0.19544,0.0,2023,6,7,11,15,58,-1755
28.17460,-0.02783,-0.06825,0.00000,0.02879,0.97466,-0.19459,0.0,2023,6,7,11,15,58,-1755
28.17470,-0.04533,-0.22575,0.00000,0.02965,0.97637,-0.19496,0.0,2023,6,7,11,15,58,-1755
28.17480,-0.01033,-0.03325,0.00000,0.02989,0.97454,-0.19374,0.0,2023,6,7,11,15,58,-1755
28.17490,0.11217,-0.13825,0.00000,0.02867,0.97649,-0.19544,0.0,2023,6,7,11,15,58,-1755
28.17500,-0.13283,0.01925,0.00000,0.02550,0.97612,-0.19605,0.0,2023,6,7,11,15,58,-1755
28.17510,0.07717,0.17675,0.00000,0.02928,0.97905,-0.19544,0.0,2023,6,7,11,15,58,-1755
28.17520,0.00717,0.10675,0.00000,0.02916,0.97527,-0.19618,0.0,2023,6,7,11,15,58,-1755
28.17530,-0.08033,-0.10325,0.00000,0.02830,0.97685,-0.19483,0.0,2023,6,7,11,15,58,-1755
28.17540,0.14717,-0.03325,0.00000,0.02843,0.97405,-0.19813,0.0,2023,6,7,11,15,58,-1755
28.17550,0.12967,-0.05075,0.00000,0.02782,0.97563,-0.19715,0.0,2023,6,7,11,15,58,-1755
28.17560,0.05967,-0.05075,0.00000,0.02928,0.97429,-0.19764,0.0,2023,6,7,11,15,58,-1755
28.17570,-0.04533,0.08925,0.00000,0.03013,0.97539,-0.19691,0.0,2023,6,7,11,15,58,-1755
28.17580,0.04217,-0.10325,0.00000,0.02830,0.97490,-0.19874,0.0,2023,6,7,11,15,58,-1755
28.17590,0.16467,-0.06825,0.00000,0.02843,0.97417,-0.19410,0.0,2023,6,7,11,15,59,-1755
28.17600,-0.04533,-0.08575,0.00000,0.02733,0.97393,-0.19618,0.0,2023,6,7,11,15,59,-1755
28.17610,-0.16783,-0.03325,0.00000,0.02708,0.97661,-0.19508,0.0,2023,6,7,11,15,59,-1755
28.17620,-0.16783,0.01925,0.00000,0.02928,0.97661,-0.19532,0.0,2023,6,7,11,15,59,-1755
28.17630,-0.09783,0.22925,0.00000,0.02721,0.97661,-0.19874,0.0,2023,6,7,11,15,59,-1755
28.17640,-0.04533,-0.13825,0.00000,0.02928,0.97576,-0.19740,0.0,2023,6,7,11,15,59,-1755
28.17650,0.00717,0.08925,0.00000,0.02989,0.97698,-0.19642,0.0,2023,6,7,11,15,59,-1755
28.17660,0.04217,-0.03325,0.00000,0.02904,0.97515,-0.19849,0.0,2023,6,7,11,15,59,-1755
28.17670,0.00717,0.07175,0.00000,0.02952,0.97380,-0.19605,0.0,2023,6,7,11,15,59,-1755
28.17680,0.04217,-0.12075,0.00000,0.02733,0.97576,-0.19654,0.0,2023,6,7,11,15,59,-1755
28.17690,0.12967,-0.15575,0.00000,0.02745,0.97673,-0.19691,0.0,2023,6,7,11,15,59,-1755
28.17700,-0.20283,0.10675,0.00000,0.03074,0.97844,-0.19544,0.0,2023,6,7,11,15,59,-1755
28.17710,-0.06283,0.10675,0.00000,0.02672,0.97746,-0.19435,0.0,2023,6,7,11,15,59,-1755
28.17720,-0.09783,0.17675,0.00000,0.02696,0.97685,-0.19618,0.0,2023,6,7,11,15,59,-1755
28.17730,-0.09783,0.19425,0.00000,0.02928,0.97502,-0.19691,0.0,2023,6,7,11,15,59,-1755
28.17740,-0.09783,0.08925,0.00000,0.02794,0.97685,-0.19581,0.0,2023,6,7,11,15,59,-1755
28.17750,-0.16783,-0.03325,0.00000,0.02757,0.97710,-0.19764,0.0,2023,6,7,11,15,59,-1755
28.17760,0.28717,-0.24325,0.00000,0.02684,0.97454,-0.19630,0.0,2023,6,7,11,15,59,-1755
28.17770,-0.06283,-0.12075,0.00000,0.02794,0.97551,-0.19569,0.0,2023,6,7,11,15,59,-1755
28.17780,-0.06283,0.15925,0.00000,0.02806,0.97576,-0.19569,0.0,2023,6,7,11,15,59,-1755
28.17790,0.00717,-0.13825,0.00000,0.02733,0.97649,-0.19569,0.0,2023,6,7,11,15,59,-1755
28.17800,0.02467,-0.03325,0.00000,0.03013,0.97734,-0.19581,0.0,2023,6,7,11,15,59,-1755
28.17810,0.02467,0.01925,0.00000,0.02684,0.97478,-0.19508,0.0,2023,6,7,11,15,59,-1755
28.17820,0.09467,-0.08575,0.00000,0.02867,0.97539,-0.19727,0.0,2023,6,7,11,15,59,-1755
28.17830,-0.04533,0.00175,0.00000,0.02708,0.97600,-0.19386,0.0,2023,6,7,11,15,59,-1755
28.17840,-0.06283,0.19425,0.00000,0.02806,0.97527,-0.19398,0.0,2023,6,7,11,15,59,-1755
28.17850,-0.22033,0.15925,0.00000,0.02891,0.97588,-0.19971,0.0,2023,6,7,11,15,59,-1755
28.17860,0.07717,-0.03325,0.00000,0.02672,0.97539,-0.19435,0.0,2023,6,7,11,15,59,-1755
28.17870,-0.09783,-0.08575,0.00000,0.02611,0.97527,-0.19532,0.0,2023,6,7,11,15,59,-1755
28.17880,-0.06283,-0.06825,0.00000,0.02879,0.97600,-0.19544,0.0,2023,6,7,11,15,59,-1755
28.17890,-0.06283,0.10675,0.00000,0.02989,0.97588,-0.19654,0.0,2023,6,7,11,15,59,-1755
28.17900,-0.13283,-0.03325,0.00000,0.02818,0.97490,-0.19691,0.0,2023,6,7,11,15,59,-1755
28.17910,-0.06283,-0.06825,0.00000,0.02830,0.97539,-0.19520,0.0,2023,6,7,11,15,59,-1755
28.17920,-0.15033,0.07175,0.00000,0.02757,0.97551,-0.19569,0.0,2023,6,7,11,15,59,-1755
28.17930,0.07717,-0.17325,0.00000,0.02806,0.97563,-0.19715,0.0,2023,6,7,11,15,59,-1755
28.17940,0.00717,-0.03325,0.00000,0.02647,0.97722,-0.19337,0.0,2023,6,7,11,15,59,-1755
28.17950,-0.02783,-0.03325,0.00000,0.02721,0.97502,-0.19544,0.0,2023,6,7,11,15,59,-1755
28.17960,-0.11533,0.01925,0.00000,0.02672,0.97759,-0.19618,0.0,2023,6,7,11,15,59,-1755
28.17970,-0.08033,0.01925,0.00000,0.02830,0.97490,-0.19605,0.0,2023,6,7,11,15,59,-1755
28.17980,0.07717,0.10675,0.00000,0.02843,0.97563,-0.19593,0.0,2023,6,7,11,15,59,-1755
28.17990,0.04217,-0.08575,0.00000,0.02782,0.97771,-0.19532,0.0,2023,6,7,11,15,59,-1755
28.18000,-0.09783,0.21175,0.00000,0.02684,0.97441,-0.19666,0.0,2023,6,7,11,15,59,-1755
28.18010,-0.30783,0.29925,0.00000,0.02769,0.97600,-0.19642,0.0,2023,6,7,11,15,59,-1755
28.18020,0.25217,-0.19075,0.00000,0.02721,0.97429,-0.19679,0.0,2023,6,7,11,15,59,-1755
28.18030,-0.11533,-0.05075,0.00000,0.02989,0.97478,-0.19520,0.0,2023,6,7,11,15,59,-1755
28.18040,0.09467,0.03675,0.00000,0.02672,0.97600,-0.19581,0.0,2023,6,7,11,15,59,-1755
28.18050,0.07717,-0.06825,0.00000,0.02757,0.97588,-0.19422,0.0,2023,6,7,11,15,59,-1755
28.18060,0.12967,-0.05075,0.00000,0.02940,0.97441,-0.19642,0.0,2023,6,7,11,15,59,-1755
28.18070,-0.23783,0.10675,0.00000,0.02708,0.97539,-0.19532,0.0,2023,6,7,11,15,59,-1755
28.18080,-0.01033,0.01925,0.00000,0.02769,0.97527,-0.19618,0.0,2023,6,7,11,15,59,-1755
28.18090,-0.06283,0.10675,0.00000,0.02952,0.97588,-0.19508,0.0,2023,6,7,11,15,59,-1755
28.18100,-0.04533,0.00175,0.00000,0.02855,0.97563,-0.19581,0.0,2023,6,7,11,15,59,-1755
28.18110,-0.09783,-0.06825,0.00000,0.02904,0.97429,-0.19569,0.0,2023,6,7,11,15,59,-1755
28.18120,-0.01033,0.12425,0.00000,0.02757,0.97759,-0.19691,0.0,2023,6,7,11,15,59,-1755
28.18130,-0.02783,0.14175,0.00000,0.02672,0.97551,-0.19557,0.0,2023,6,7,11,15,59,-1755
28.18140,0.19967,-0.15575,0.00000,0.02867,0.97746,-0.19715,0.0,2023,6,7,11,15,59,-1755
28.18150,-0.08033,0.05425,0.00000,0.02855,0.97576,-0.19618,0.0,2023,6,7,11,15,59,-1755
28.18160,-0.01033,-0.06825,0.00000,0.02635,0.97454,-0.19483,0.0,2023,6,7,11,15,59,-1755
28.18170,-0.13283,0.36925,0.00000,0.02806,0.97454,-0.19191,0.0,2023,6,7,11,15,59,-1755
28.18180,0.05967,-0.10325,0.00000,0.02806,0.97588,-0.19422,0.0,2023,6,7,11,15,59,-1755
28.18190,-0.08033,0.12425,0.00000,0.03013,0.97417,-0.19605,0.0,2023,6,7,11,15,59,-1755
28.18200,-0.09783,0.03675,0.00000,0.02879,0.97795,-0.19630,0.0,2023,6,7,11,15,59,-1755
28.18210,0.05967,0.10675,0.00000,0.02977,0.97466,-0.19776,0.0,2023,6,7,11,15,59,-1755
28.18220,-0.11533,0.03675,0.00000,0.02867,0.97441,-0.19679,0.0,2023,6,7,11,15,59,-1755
28.18230,-0.13283,-0.05075,0.00000,0.02879,0.97685,-0.19703,0.0,2023,6,7,11,15,59,-1755
28.18240,0.09467,0.10675,0.00000,0.02782,0.97612,-0.19654,0.0,2023,6,7,11,15,59,-1755
28.18250,-0.04533,-0.01575,0.00000,0.02769,0.97466,-0.19374,0.0,2023,6,7,11,15,59,-1755
28.18260,0.05967,-0.05075,0.00000,0.02830,0.97637,-0.19813,0.0,2023,6,7,11,15,59,-1755
28.18270,-0.16783,0.08925,0.00000,0.02952,0.97417,-0.19520,0.0,2023,6,7,11,15,59,-1755
28.18280,-0.02783,0.01925,0.00000,0.02891,0.97588,-0.19618,0.0,2023,6,7,11,15,59,-1755
28.18290,-0.09783,0.10675,0.00000,0.02965,0.97807,-0.19666,0.0,2023,6,7,11,15,59,-1755
28.18300,-0.15033,-0.06825,0.00000,0.02806,0.97600,-0.19557,0.0,2023,6,7,11,15,59,-1755
28.18310,0.19967,0.01925,0.00000,0.02794,0.97722,-0.19715,0.0,2023,6,7,11,15,59,-1755
28.18320,-0.02783,0.03675,0.00000,0.02830,0.97368,-0.19703,0.0,2023,6,7,11,15,59,-1755
28.18330,0.07717,-0.24325,0.00000,0.02916,0.97393,-0.19398,0.0,2023,6,7,11,15,59,-1755
28.18340,-0.08033,-0.01575,0.00000,0.02745,0.97551,-0.19557,0.0,2023,6,7,11,15,59,-1755
28.18350,-0.04533,0.10675,0.00000,0.02745,0.97454,-0.19862,0.0,2023,6,7,11,15,59,-1755
28.18360,-0.01033,-0.22575,0.00000,0.02867,0.97466,-0.19703,0.0,2023,6,7,11,15,59,-1755
28.18370,0.02467,-0.05075,0.00000,0.02733,0.97515,-0.19630,0.0,2023,6,7,11,15,59,-1755
28.18380,0.19967,-0.27825,0.00000,0.02757,0.97637,-0.19691,0.0,2023,6,7,11,15,59,-1755
28.18390,0.04217,0.01925,0.00000,0.02977,0.97637,-0.19483,0.0,2023,6,7,11,15,59,-1755
28.18400,0.04217,-0.06825,0.00000,0.02623,0.97649,-0.19691,0.0,2023,6,7,11,15,59,-1755
28.18410,-0.02783,-0.15575,0.00000,0.02708,0.97807,-0.19496,0.0,2023,6,7,11,15,59,-1755
28.18420,-0.08033,0.14175,0.00000,0.02977,0.97612,-0.19544,0.0,2023,6,7,11,15,59,-1755
28.18430,-0.13283,0.08925,0.00000,0.02696,0.97576,-0.19593,0.0,2023,6,7,11,15,59,-1755
28.18440,-0.06283,0.00175,0.00000,0.02977,0.97576,-0.19544,0.0,2023,6,7,11,15,59,-1755
28.18450,-0.06283,-0.15575,0.00000,0.02867,0.97685,-0.19618,0.0,2023,6,7,11,15,59,-1755
28.18460,0.07717,-0.24325,0.00000,0.02867,0.97490,-0.19691,0.0,2023,6,7,11,15,59,-1755
28.18470,-0.13283,0.03675,0.00000,0.02745,0.97649,-0.19483,0.0,2023,6,7,11,15,59,-1755
28.18480,0.07717,0.00175,0.00000,0.02745,0.97600,-0.19386,0.0,2023,6,7,11,15,59,-1755
28.18490,0.07717,0.03675,0.00000,0.02867,0.97478,-0.19459,0.0,2023,6,7,11,16,0,-1755
28.18500,-0.02783,0.17675,0.00000,0.02782,0.97600,-0.19422,0.0,2023,6,7,11,16,0,-1755
28.18510,0.23467,-0.06825,0.00000,0.02843,0.97429,-0.19349,0.0,2023,6,7,11,16,0,-1755
28.18520,0.14717,0.03675,0.00000,0.03026,0.97612,-0.19410,0.0,2023,6,7,11,16,0,-1755
28.18530,-0.09783,-0.05075,0.00000,0.02708,0.97344,-0.19727,0.0,2023,6,7,11,16,0,-1755
28.18540,0.07717,-0.08575,0.00000,0.02769,0.97271,-0.19642,0.0,2023,6,7,11,16,0,-1755
28.18550,-0.09783,0.17675,0.00000,0.02733,0.97515,-0.19654,0.0,2023,6,7,11,16,0,-1755
28.18560,-0.01033,0.05425,0.00000,0.03026,0.97478,-0.19496,0.0,2023,6,7,11,16,0,-1755
28.18570,-0.13283,-0.13825,0.00000,0.02769,0.97429,-0.19654,0.0,2023,6,7,11,16,0,-1755
28.18580,0.04217,0.05425,0.00000,0.02916,0.97417,-0.19630,0.0,2023,6,7,11,16,0,-1755
28.18590,-0.08033,0.03675,0.00000,0.02818,0.97368,-0.19520,0.0,2023,6,7,11,16,0,-1755
28.18600,0.00717,0.15925,0.00000,0.02952,0.97563,-0.19825,0.0,2023,6,7,11,16,0,-1755
28.18610,-0.04533,-0.15575,0.00000,0.02818,0.97368,-0.19837,0.0,2023,6,7,11,16,0,-1755
28.18620,-0.01033,0.03675,0.00000,0.02952,0.97527,-0.19618,0.0,2023,6,7,11,16,0,-1755
28.18630,0.00717,-0.08575,0.00000,0.02733,0.97502,-0.19642,0.0,2023,6,7,11,16,0,-1755
28.18640,-0.08033,0.01925,0.00000,0.02843,0.97588,-0.19752,0.0,2023,6,7,11,16,0,-1755
28.18650,0.04217,0.03675,0.00000,0.02904,0.97563,-0.19642,0.0,2023,6,7,11,16,0,-1755
28.18660,-0.22033,0.03675,0.00000,0.02843,0.97722,-0.19630,0.0,2023,6,7,11,16,0,-1755
28.18670,-0.16783,0.21175,0.00000,0.02977,0.97515,-0.19703,0.0,2023,6,7,11,16,0,-1755
28.18680,0.04217,-0.08575,0.00000,0.03026,0.97478,-0.19618,0.0,2023,6,7,11,16,0,-1755
28.18690,-0.11533,0.05425,0.00000,0.02891,0.97637,-0.19679,0.0,2023,6,7,11,16,0,-1755
28.18700,-0.06283,-0.01575,0.00000,0.02782,0.97624,-0.19862,0.0,2023,6,7,11,16,0,-1755
28.18710,-0.02783,-0.03325,0.00000,0.02843,0.97600,-0.19801,0.0,2023,6,7,11,16,0,-1755
28.18720,-0.06283,0.05425,0.00000,0.02696,0.97454,-0.19630,0.0,2023,6,7,11,16,0,-1755
28.18730,-0.06283,-0.06825,0.00000,0.02855,0.97588,-0.19813,0.0,2023,6,7,11,16,0,-1755
28.18740,-0.06283,0.10675,0.00000,0.02867,0.97551,-0.19837,0.0,2023,6,7,11,16,0,-1755
28.18750,-0.08033,0.21175,0.00000,0.02782,0.97393,-0.19898,0.0,2023,6,7,11,16,0,-1755
28.18760,0.05967,-0.01575,0.00000,0.02684,0.97551,-0.19825,0.0,2023,6,7,11,16,0,-1755
28.18770,-0.18533,0.14175,0.00000,0.02904,0.97807,-0.19752,0.0,2023,6,7,11,16,0,-1755
28.18780,-0.01033,0.17675,0.00000,0.02867,0.97539,-0.19557,0.0,2023,6,7,11,16,0,-1755
28.18790,0.02467,-0.06825,0.00000,0.02855,0.97661,-0.19691,0.0,2023,6,7,11,16,0,-1755
28.18800,0.04217,-0.13825,0.00000,0.03062,0.97454,-0.19801,0.0,2023,6,7,11,16,0,-1755
28.18810,0.05967,0.05425,0.00000,0.02989,0.97466,-0.19593,0.0,2023,6,7,11,16,0,-1755
28.18820,-0.32533,0.24675,0.00000,0.02940,0.97673,-0.19837,0.0,2023,6,7,11,16,0,-1755
28.18830,0.19967,-0.13825,0.00000,0.02525,0.97685,-0.19752,0.0,2023,6,7,11,16,0,-1755
28.18840,0.19967,0.00175,0.00000,0.02855,0.97478,-0.19752,0.0,2023,6,7,11,16,0,-1755
28.18850,0.04217,-0.01575,0.00000,0.02855,0.97588,-0.19764,0.0,2023,6,7,11,16,0,-1755
28.18860,-0.09783,-0.15575,0.00000,0.02928,0.97490,-0.19715,0.0,2023,6,7,11,16,0,-1755
28.18870,0.07717,-0.13825,0.00000,0.02928,0.97563,-0.19544,0.0,2023,6,7,11,16,0,-1755
28.18880,-0.02783,0.19425,0.00000,0.03074,0.97502,-0.19483,0.0,2023,6,7,11,16,0,-1755
28.18890,0.00717,0.17675,0.00000,0.02611,0.97502,-0.19862,0.0,2023,6,7,11,16,0,-1755
28.18900,0.02467,0.00175,0.00000,0.02769,0.97576,-0.19898,0.0,2023,6,7,11,16,0,-1755
28.18910,-0.08033,0.00175,0.00000,0.02684,0.97661,-0.19776,0.0,2023,6,7,11,16,0,-1755
28.18920,-0.15033,0.10675,0.00000,0.03135,0.97515,-0.19849,0.0,2023,6,7,11,16,0,-1755
28.18930,-0.18533,0.17675,0.00000,0.02769,0.97539,-0.19666,0.0,2023,6,7,11,16,0,-1755
28.18940,-0.16783,0.31675,0.00000,0.02879,0.97612,-0.19788,0.0,2023,6,7,11,16,0,-1755
28.18950,-0.06283,-0.05075,0.00000,0.02855,0.97710,-0.19923,0.0,2023,6,7,11,16,0,-1755
28.18960,0.09467,-0.05075,0.00000,0.02928,0.97393,-0.19886,0.0,2023,6,7,11,16,0,-1755
28.18970,-0.09783,-0.03325,0.00000,0.02635,0.97612,-0.19605,0.0,2023,6,7,11,16,0,-1755
28.18980,0.04217,-0.05075,0.00000,0.02684,0.97563,-0.19752,0.0,2023,6,7,11,16,0,-1755
28.18990,0.11217,0.01925,0.00000,0.02769,0.97539,-0.19874,0.0,2023,6,7,11,16,0,-1755
28.19000,0.00717,-0.08575,0.00000,0.02745,0.97576,-0.19727,0.0,2023,6,7,11,16,0,-1755
28.19010,0.14717,0.03675,0.00000,0.02830,0.97759,-0.19788,0.0,2023,6,7,11,16,0,-1755
28.19020,-0.02783,-0.06825,0.00000,0.02855,0.97576,-0.19727,0.0,2023,6,7,11,16,0,-1755
28.19030,-0.04533,-0.19075,0.00000,0.02940,0.97576,-0.19569,0.0,2023,6,7,11,16,0,-1755
28.19040,-0.01033,-0.20825,0.00000,0.02623,0.97710,-0.19874,0.0,2023,6,7,11,16,0,-1755
28.19050,0.04217,-0.19075,0.00000,0.02843,0.97368,-0.19618,0.0,2023,6,7,11,16,0,-1755
28.19060,-0.29033,-0.03325,0.00000,0.02806,0.97393,-0.19947,0.0,2023,6,7,11,16,0,-1755
28.19070,-0.01033,0.01925,0.00000,0.02757,0.97563,-0.19691,0.0,2023,6,7,11,16,0,-1755
28.19080,0.02467,-0.06825,0.00000,0.02928,0.97661,-0.19569,0.0,2023,6,7,11,16,0,-1755
28.19090,-0.11533,0.07175,0.00000,0.02843,0.97551,-0.19654,0.0,2023,6,7,11,16,0,-1755
28.19100,0.09467,0.07175,0.00000,0.02867,0.97673,-0.19605,0.0,2023,6,7,11,16,0,-1755
28.19110,-0.08033,0.00175,0.00000,0.02952,0.97685,-0.19642,0.0,2023,6,7,11,16,0,-1755
28.19120,0.11217,-0.01575,0.00000,0.03038,0.97600,-0.19691,0.0,2023,6,7,11,16,0,-1755
28.19130,-0.08033,0.12425,0.00000,0.02806,0.97234,-0.19679,0.0,2023,6,7,11,16,0,-1755
28.19140,0.21717,0.01925,0.00000,0.02708,0.97539,-0.19837,0.0,2023,6,7,11,16,0,-1755
28.19150,-0.11533,0.07175,0.00000,0.02891,0.97478,-0.19666,0.0,2023,6,7,11,16,0,-1755
28.19160,0.09467,-0.08575,0.00000,0.02757,0.97441,-0.19801,0.0,2023,6,7,11,16,0,-1755
28.19170,0.00717,0.14175,0.00000,0.02684,0.97624,-0.19740,0.0,2023,6,7,11,16,0,-1755
28.19180,-0.13283,-0.05075,0.00000,0.02757,0.97478,-0.19679,0.0,2023,6,7,11,16,0,-1755
28.19190,-0.04533,0.07175,0.00000,0.02867,0.97490,-0.19727,0.0,2023,6,7,11,16,0,-1755
28.19200,-0.01033,-0.12075,0.00000,0.02782,0.97380,-0.19557,0.0,2023,6,7,11,16,0,-1755
28.19210,-0.22033,-0.10325,0.00000,0.02843,0.97588,-0.19691,0.0,2023,6,7,11,16,0,-1755
28.19220,0.04217,0.01925,0.00000,0.02672,0.97490,-0.19666,0.0,2023,6,7,11,16,0,-1755
28.19230,-0.13283,0.08925,0.00000,0.02830,0.97637,-0.19508,0.0,2023,6,7,11,16,0,-1755
28.19240,-0.13283,0.17675,0.00000,0.02647,0.97637,-0.19752,0.0,2023,6,7,11,16,0,-1755
28.19250,-0.08033,0.05425,0.00000,0.02916,0.97673,-0.19593,0.0,2023,6,7,11,16,0,-1755
28.19260,0.07717,-0.01575,0.00000,0.02916,0.97502,-0.19740,0.0,2023,6,7,11,16,0,-1755
28.19270,-0.20283,0.14175,0.00000,0.02867,0.97295,-0.19398,0.0,2023,6,7,11,16,0,-1755
28.19280,0.07717,0.00175,0.00000,0.02806,0.97539,-0.19654,0.0,2023,6,7,11,16,0,-1755
28.19290,0.19967,-0.27825,0.00000,0.02965,0.97698,-0.19618,0.0,2023,6,7,11,16,0,-1755
28.19300,-0.01033,0.07175,0.00000,0.02916,0.97515,-0.19764,0.0,2023,6,7,11,16,0,-1755
28.19310,-0.16783,0.21175,0.00000,0.02843,0.97612,-0.19532,0.0,2023,6,7,11,16,0,-1755
28.19320,-0.01033,-0.06825,0.00000,0.02904,0.97429,-0.19581,0.0,2023,6,7,11,16,0,-1755
28.19330,0.09467,0.08925,0.00000,0.02733,0.97673,-0.19776,0.0,2023,6,7,11,16,0,-1755
28.19340,0.23467,-0.03325,0.00000,0.02708,0.97539,-0.19874,0.0,2023,6,7,11,16,0,-1755
28.19350,-0.06283,0.07175,0.00000,0.02806,0.97405,-0.19593,0.0,2023,6,7,11,16,0,-1755
28.19360,0.14717,0.03675,0.00000,0.02818,0.97576,-0.19532,0.0,2023,6,7,11,16,0,-1755
28.19370,0.14717,-0.10325,0.00000,0.02855,0.97527,-0.19764,0.0,2023,6,7,11,16,0,-1755
28.19380,-0.06283,0.05425,0.00000,0.02867,0.97551,-0.19727,0.0,2023,6,7,11,16,0,-1755
28.19390,0.12967,-0.17325,0.00000,0.02867,0.97380,-0.19569,0.0,2023,6,7,11,16,0,-1755
28.19400,-0.09783,0.03675,0.00000,0.02830,0.97527,-0.19984,0.0,2023,6,7,11,16,1,-1755
28.19410,0.05967,0.14175,0.00000,0.02769,0.97173,-0.19581,0.0,2023,6,7,11,16,1,-1755
28.19420,-0.09783,0.00175,0.00000,0.02733,0.97502,-0.19740,0.0,2023,6,7,11,16,1,-1755
28.19430,0.00717,-0.01575,0.00000,0.02830,0.97368,-0.19886,0.0,2023,6,7,11,16,1,-1755
28.19440,-0.09783,-0.06825,0.00000,0.02952,0.97734,-0.19898,0.0,2023,6,7,11,16,1,-1755
28.19450,-0.22033,0.12425,0.00000,0.02891,0.97551,-0.19837,0.0,2023,6,7,11,16,1,-1755
28.19460,0.00717,0.19425,0.00000,0.02769,0.97490,-0.19544,0.0,2023,6,7,11,16,1,-1755
28.19470,0.11217,-0.12075,0.00000,0.02891,0.97441,-0.19544,0.0,2023,6,7,11,16,1,-1755
28.19480,0.00717,0.10675,0.00000,0.02757,0.97698,-0.19679,0.0,2023,6,7,11,16,1,-1755
28.19490,-0.06283,0.12425,0.00000,0.02891,0.97734,-0.19764,0.0,2023,6,7,11,16,1,-1755
28.19500,0.02467,-0.10325,0.00000,0.02867,0.97551,-0.19654,0.0,2023,6,7,11,16,1,-1755
28.19510,-0.09783,-0.13825,0.00000,0.02782,0.97527,-0.19593,0.0,2023,6,7,11,16,1,-1755
28.19520,-0.06283,0.00175,0.00000,0.02745,0.97588,-0.19642,0.0,2023,6,7,11,16,1,-1755
28.19530,0.09467,0.01925,0.00000,0.02794,0.97344,-0.19727,0.0,2023,6,7,11,16,1,-1755
28.19540,-0.08033,0.19425,0.00000,0.02843,0.97380,-0.19666,0.0,2023,6,7,11,16,1,-1755
28.19550,0.28717,-0.19075,0.00000,0.02904,0.97356,-0.19349,0.0,2023,6,7,11,16,1,-1755
28.19560,-0.13283,-0.05075,0.00000,0.02928,0.97380,-0.19618,0.0,2023,6,7,11,16,1,-1755
28.19570,0.07717,-0.10325,0.00000,0.02830,0.97478,-0.19862,0.0,2023,6,7,11,16,1,-1755
28.19580,-0.02783,-0.05075,0.00000,0.02769,0.97893,-0.19886,0.0,2023,6,7,11,16,1,-1755
28.19590,0.16467,-0.08575,0.00000,0.02855,0.97685,-0.19764,0.0,2023,6,7,11,16,1,-1755
28.19600,-0.01033,0.07175,0.00000,0.02769,0.97502,-0.19593,0.0,2023,6,7,11,16,1,-1755
28.19610,-0.09783,-0.03325,0.00000,0.02904,0.97698,-0.19557,0.0,2023,6,7,11,16,1,-1755
28.19620,-0.20283,0.03675,0.00000,0.02855,0.97405,-0.19605,0.0,2023,6,7,11,16,1,-1755
28.19630,-0.08033,0.24675,0.00000,0.02733,0.97710,-0.19447,0.0,2023,6,7,11,16,1,-1755
28.19640,-0.02783,-0.12075,0.00000,0.02855,0.97649,-0.19483,0.0,2023,6,7,11,16,1,-1755
28.19650,-0.16783,0.08925,0.00000,0.02721,0.97612,-0.19569,0.0,2023,6,7,11,16,1,-1755
28.19660,-0.09783,0.05425,0.00000,0.02928,0.97380,-0.19508,0.0,2023,6,7,11,16,1,-1755
28.19670,0.11217,-0.01575,0.00000,0.02855,0.97490,-0.19605,0.0,2023,6,7,11,16,1,-1755
28.19680,-0.04533,0.01925,0.00000,0.02696,0.97649,-0.19666,0.0,2023,6,7,11,16,1,-1755
28.19690,0.04217,0.21175,0.00000,0.02940,0.97649,-0.19581,0.0,2023,6,7,11,16,1,-1755
28.19700,0.00717,-0.15575,0.00000,0.02977,0.97649,-0.19605,0.0,2023,6,7,11,16,1,-1755
28.19710,-0.01033,-0.01575,0.00000,0.02745,0.97551,-0.19752,0.0,2023,6,7,11,16,1,-1755
28.19720,0.00717,0.07175,0.00000,0.02647,0.97515,-0.19898,0.0,2023,6,7,11,16,1,-1755
28.19730,0.12967,-0.22575,0.00000,0.02818,0.97441,-0.19776,0.0,2023,6,7,11,16,1,-1755
28.19740,-0.01033,-0.05075,0.00000,0.02940,0.97624,-0.19532,0.0,2023,6,7,11,16,1,-1755
28.19750,-0.11533,-0.03325,0.00000,0.02928,0.97539,-0.19288,0.0,2023,6,7,11,16,1,-1755
28.19760,0.11217,-0.20825,0.00000,0.02696,0.97722,-0.19837,0.0,2023,6,7,11,16,1,-1755
28.19770,-0.16783,0.03675,0.00000,0.02647,0.97734,-0.19740,0.0,2023,6,7,11,16,1,-1755
28.19780,0.05967,-0.17325,0.00000,0.03013,0.97527,-0.19630,0.0,2023,6,7,11,16,1,-1755
28.19790,0.07717,0.10675,0.00000,0.02952,0.97783,-0.19715,0.0,2023,6,7,11,16,1,-1755
28.19800,-0.01033,0.01925,0.00000,0.02916,0.97600,-0.19703,0.0,2023,6,7,11,16,1,-1755
28.19810,-0.02783,0.03675,0.00000,0.03038,0.97210,-0.19776,0.0,2023,6,7,11,16,1,-1755
28.19820,-0.01033,0.00175,0.00000,0.02928,0.97612,-0.19666,0.0,2023,6,7,11,16,1,-1755
28.19830,-0.04533,-0.05075,0.00000,0.02745,0.97576,-0.19947,0.0,2023,6,7,11,16,1,-1755
28.19840,-0.09783,0.15925,0.00000,0.02745,0.97563,-0.19483,0.0,2023,6,7,11,16,1,-1755
28.19850,-0.02783,0.08925,0.00000,0.02708,0.97563,-0.19691,0.0,2023,6,7,11,16,1,-1755
28.19860,0.00717,-0.27825,0.00000,0.02721,0.97661,-0.19813,0.0,2023,6,7,11,16,1,-1755
28.19870,0.19967,0.08925,0.00000,0.02843,0.97771,-0.19740,0.0,2023,6,7,11,16,1,-1755
28.19880,-0.08033,0.15925,0.00000,0.02574,0.97490,-0.19386,0.0,2023,6,7,11,16,1,-1755
28.19890,-0.13283,0.12425,0.00000,0.03123,0.97551,-0.19581,0.0,2023,6,7,11,16,1,-1755
28.19900,-0.09783,0.10675,0.00000,0.02830,0.97441,-0.19837,0.0,2023,6,7,11,16,1,-1755
28.19910,0.12967,-0.05075,0.00000,0.02952,0.97478,-0.19886,0.0,2023,6,7,11,16,1,-1755
28.19920,0.12967,-0.15575,0.00000,0.02830,0.97271,-0.19544,0.0,2023,6,7,11,16,1,-1755
28.19930,-0.06283,0.07175,0.00000,0.02806,0.97539,-0.19776,0.0,2023,6,7,11,16,1,-1755
28.19940,-0.11533,0.08925,0.00000,0.02867,0.97502,-0.19764,0.0,2023,6,7,11,16,1,-1755
28.19950,-0.06283,-0.06825,0.00000,0.03026,0.97759,-0.19520,0.0,2023,6,7,11,16,1,-1755
28.19960,0.04217,0.14175,0.00000,0.02733,0.97490,-0.19923,0.0,2023,6,7,11,16,1,-1755
28.19970,0.00717,-0.10325,0.00000,0.02879,0.97832,-0.19825,0.0,2023,6,7,11,16,1,-1755
28.19980,-0.02783,0.10675,0.00000,0.02757,0.97527,-0.19630,0.0,2023,6,7,11,16,1,-1755
28.19990,-0.02783,0.05425,0.00000,0.02708,0.97466,-0.19593,0.0,2023,6,7,11,16,1,-1755
28.20000,-0.06283,-0.15575,0.00000,0.02696,0.97344,-0.19727,0.0,2023,6,7,11,16,1,-1755
28.20010,-0.23783,0.08925,0.00000,0.03013,0.97551,-0.19618,0.0,2023,6,7,11,16,1,-1755
28.20020,0.05967,-0.19075,0.00000,0.02757,0.97527,-0.19825,0.0,2023,6,7,11,16,1,-1755
28.20030,-0.09783,0.14175,0.00000,0.02794,0.97441,-0.19618,0.0,2023,6,7,11,16,1,-1755
28.20040,0.04217,-0.06825,0.00000,0.02647,0.97685,-0.19813,0.0,2023,6,7,11,16,1,-1755
28.20050,0.02467,0.03675,0.00000,0.02940,0.97612,-0.19630,0.0,2023,6,7,11,16,1,-1755
28.20060,-0.09783,0.12425,0.00000,0.02806,0.97405,-0.19557,0.0,2023,6,7,11,16,1,-1755
28.20070,0.04217,-0.27825,0.00000,0.02684,0.97576,-0.19581,0.0,2023,6,7,11,16,1,-1755
28.20080,0.02467,0.14175,0.00000,0.03001,0.97441,-0.19642,0.0,2023,6,7,11,16,1,-1755
28.20090,-0.04533,-0.15575,0.00000,0.02684,0.97417,-0.19642,0.0,2023,6,7,11,16,1,-1755
28.20100,0.02467,-0.05075,0.00000,0.02769,0.97563,-0.19740,0.0,2023,6,7,11,16,1,-1755
28.20110,-0.01033,-0.05075,0.00000,0.02525,0.97441,-0.19654,0.0,2023,6,7,11,16,1,-1755
28.20120,-0.04533,0.08925,0.00000,0.02952,0.97746,-0.19520,0.0,2023,6,7,11,16,1,-1755
28.20130,-0.15033,0.01925,0.00000,0.02867,0.97600,-0.19788,0.0,2023,6,7,11,16,1,-1755
28.20140,0.09467,-0.06825,0.00000,0.03013,0.97588,-0.19483,0.0,2023,6,7,11,16,1,-1755
28.20150,0.04217,-0.01575,0.00000,0.02806,0.97771,-0.19593,0.0,2023,6,7,11,16,1,-1755
28.20160,-0.02783,-0.17325,0.00000,0.02989,0.97685,-0.19776,0.0,2023,6,7,11,16,1,-1755
28.20170,-0.01033,0.08925,0.00000,0.02891,0.97356,-0.19801,0.0,2023,6,7,11,16,1,-1755
28.20180,0.07717,0.08925,0.00000,0.02989,0.97551,-0.19508,0.0,2023,6,7,11,16,1,-1755
28.20190,0.07717,-0.05075,0.00000,0.02733,0.97624,-0.19605,0.0,2023,6,7,11,16,1,-1755
28.20200,0.19967,-0.13825,0.00000,0.02843,0.97746,-0.19435,0.0,2023,6,7,11,16,1,-1755
28.20210,-0.06283,-0.03325,0.00000,0.02794,0.97576,-0.19496,0.0,2023,6,7,11,16,1,-1755
28.20220,0.05967,-0.26075,0.00000,0.02794,0.97624,-0.19496,0.0,2023,6,7,11,16,1,-1755
28.20230,0.18217,-0.08575,0.00000,0.02818,0.97710,-0.19679,0.0,2023,6,7,11,16,1,-1755
28.20240,-0.01033,-0.08575,0.00000,0.02769,0.97380,-0.19605,0.0,2023,6,7,11,16,1,-1755
28.20250,0.09467,-0.05075,0.00000,0.03026,0.97637,-0.19642,0.0,2023,6,7,11,16,1,-1755
28.20260,-0.06283,-0.19075,0.00000,0.02916,0.97429,-0.19727,0.0,2023,6,7,11,16,1,-1755
28.20270,-0.16783,0.03675,0.00000,0.02867,0.97539,-0.19727,0.0,2023,6,7,11,16,1,-1755
28.20280,0.23467,-0.22575,0.00000,0.02745,0.97685,-0.19544,0.0,2023,6,7,11,16,1,-1755
28.20290,0.14717,-0.15575,0.00000,0.02745,0.97393,-0.19752,0.0,2023,6,7,11,16,2,-1755
28.20300,-0.01033,-0.10325,0.00000,0.02684,0.97563,-0.19593,0.0,2023,6,7,11,16,2,-1755
28.20310,-0.13283,0.08925,0.00000,0.02708,0.97539,-0.19386,0.0,2023,6,7,11,16,2,-1755
28.20320,-0.20283,0.05425,0.00000,0.02867,0.97478,-0.19703,0.0,2023,6,7,11,16,2,-1755
28.20330,-0.02783,0.12425,0.00000,0.02769,0.97624,-0.19642,0.0,2023,6,7,11,16,2,-1755
28.20340,-0.08033,-0.08575,0.00000,0.03099,0.97490,-0.19691,0.0,2023,6,7,11,16,2,-1755
28.20350,-0.13283,-0.01575,0.00000,0.02965,0.97490,-0.19483,0.0,2023,6,7,11,16,2,-1755
28.20360,-0.09783,-0.17325,0.00000,0.02794,0.97441,-0.19727,0.0,2023,6,7,11,16,2,-1755
28.20370,-0.06283,-0.08575,0.00000,0.02928,0.97319,-0.19740,0.0,2023,6,7,11,16,2,-1755
28.20380,0.12967,0.12425,0.00000,0.02928,0.97795,-0.19801,0.0,2023,6,7,11,16,2,-1755
28.20390,0.12967,-0.10325,0.00000,0.02830,0.97466,-0.19764,0.0,2023,6,7,11,16,2,-1755
28.20400,0.05967,0.00175,0.00000,0.02611,0.97527,-0.19483,0.0,2023,6,7,11,16,2,-1755
28.20410,0.14717,0.00175,0.00000,0.02708,0.97624,-0.19825,0.0,2023,6,7,11,16,2,-1755
28.20420,0.16467,0.05425,0.00000,0.02916,0.97380,-0.19666,0.0,2023,6,7,11,16,2,-1755
28.20430,-0.09783,0.05425,0.00000,0.02782,0.97441,-0.19642,0.0,2023,6,7,11,16,2,-1755
28.20440,-0.01033,-0.10325,0.00000,0.03013,0.97710,-0.19459,0.0,2023,6,7,11,16,2,-1755
28.20450,-0.01033,-0.03325,0.00000,0.02830,0.97759,-0.19679,0.0,2023,6,7,11,16,2,-1755
28.20460,0.18217,-0.26075,0.00000,0.02879,0.97759,-0.19886,0.0,2023,6,7,11,16,2,-1755
28.20470,0.14717,0.14175,0.00000,0.02867,0.97588,-0.19740,0.0,2023,6,7,11,16,2,-1755
28.20480,-0.08033,-0.05075,0.00000,0.02294,0.97222,-0.18715,0.0,2023,6,7,11,16,2,-1755
28.20490,-0.01033,-0.15575,0.00000,0.02660,0.97685,-0.20203,0.0,2023,6,7,11,16,2,-1755
28.20500,-0.06283,0.03675,0.00000,0.03050,0.97563,-0.19544,0.0,2023,6,7,11,16,2,-1755
28.20510,0.14717,0.22925,0.00000,0.02940,0.97368,-0.19837,0.0,2023,6,7,11,16,2,-1755
28.20520,-0.18533,0.12425,0.00000,0.02647,0.97515,-0.19532,0.0,2023,6,7,11,16,2,-1755
28.20530,0.04217,-0.05075,0.00000,0.02769,0.97502,-0.19288,0.0,2023,6,7,11,16,2,-1755
28.20540,-0.23783,0.01925,0.00000,0.02660,0.97637,-0.19398,0.0,2023,6,7,11,16,2,-1755
28.20550,0.18217,-0.13825,0.00000,0.02806,0.97576,-0.19715,0.0,2023,6,7,11,16,2,-1755
28.20560,0.12967,-0.05075,0.00000,0.02708,0.97502,-0.19898,0.0,2023,6,7,11,16,2,-1755
28.20570,0.07717,0.05425,0.00000,0.02708,0.97319,-0.19776,0.0,2023,6,7,11,16,2,-1755
28.20580,0.09467,-0.05075,0.00000,0.02830,0.97405,-0.19642,0.0,2023,6,7,11,16,2,-1755
28.20590,-0.04533,-0.08575,0.00000,0.03099,0.97527,-0.19483,0.0,2023,6,7,11,16,2,-1755
28.20600,-0.01033,0.08925,0.00000,0.02965,0.97295,-0.19666,0.0,2023,6,7,11,16,2,-1755
28.20610,0.00717,0.08925,0.00000,0.02904,0.97539,-0.19691,0.0,2023,6,7,11,16,2,-1755
28.20620,0.14717,-0.01575,0.00000,0.02891,0.97539,-0.19605,0.0,2023,6,7,11,16,2,-1755
28.20630,0.11217,0.01925,0.00000,0.02745,0.97307,-0.19825,0.0,2023,6,7,11,16,2,-1755
28.20640,0.00717,-0.03325,0.00000,0.02879,0.97539,-0.19691,0.0,2023,6,7,11,16,2,-1755
28.20650,-0.06283,-0.03325,0.00000,0.02647,0.97478,-0.19837,0.0,2023,6,7,11,16,2,-1755
28.20660,-0.01033,-0.20825,0.00000,0.02672,0.97271,-0.19569,0.0,2023,6,7,11,16,2,-1755
28.20670,-0.02783,-0.05075,0.00000,0.02562,0.97563,-0.19508,0.0,2023,6,7,11,16,2,-1755
28.20680,0.07717,-0.12075,0.00000,0.03074,0.97612,-0.19788,0.0,2023,6,7,11,16,2,-1755
28.20690,0.00717,0.00175,0.00000,0.03013,0.97563,-0.19520,0.0,2023,6,7,11,16,2,-1755
28.20700,-0.09783,-0.03325,0.00000,0.02574,0.97551,-0.19496,0.0,2023,6,7,11,16,2,-1755
28.20710,-0.04533,-0.08575,0.00000,0.02696,0.97478,-0.19801,0.0,2023,6,7,11,16,2,-1755
28.20720,0.11217,0.03675,0.00000,0.03026,0.97429,-0.19642,0.0,2023,6,7,11,16,2,-1755
28.20730,0.05967,0.10675,0.00000,0.02660,0.97600,-0.19630,0.0,2023,6,7,11,16,2,-1755
28.20740,0.00717,0.03675,0.00000,0.03038,0.97405,-0.19630,0.0,2023,6,7,11,16,2,-1755
28.20750,0.11217,0.15925,0.00000,0.03038,0.97380,-0.19825,0.0,2023,6,7,11,16,2,-1755
28.20760,0.00717,-0.19075,0.00000,0.03013,0.97649,-0.19898,0.0,2023,6,7,11,16,2,-1755
28.20770,0.09467,-0.12075,0.00000,0.03001,0.97612,-0.19508,0.0,2023,6,7,11,16,2,-1755
28.20780,-0.09783,-0.01575,0.00000,0.02782,0.97527,-0.19532,0.0,2023,6,7,11,16,2,-1755
28.20790,-0.01033,-0.15575,0.00000,0.02660,0.97624,-0.19483,0.0,2023,6,7,11,16,2,-1755
28.20800,0.09467,0.01925,0.00000,0.02696,0.97600,-0.19666,0.0,2023,6,7,11,16,2,-1755
28.20810,-0.08033,-0.01575,0.00000,0.02891,0.97515,-0.19508,0.0,2023,6,7,11,16,2,-1755
28.20820,0.04217,-0.12075,0.00000,0.02952,0.97612,-0.19679,0.0,2023,6,7,11,16,2,-1755
28.20830,-0.01033,-0.08575,0.00000,0.03111,0.97612,-0.19605,0.0,2023,6,7,11,16,2,-1755
28.20840,0.04217,-0.06825,0.00000,0.02794,0.97563,-0.19740,0.0,2023,6,7,11,16,2,-1755
28.20850,0.04217,-0.01575,0.00000,0.02684,0.97637,-0.19813,0.0,2023,6,7,11,16,2,-1755
28.20860,-0.13283,0.03675,0.00000,0.02782,0.97759,-0.19569,0.0,2023,6,7,11,16,2,-1755
28.20870,0.07717,-0.06825,0.00000,0.02830,0.97222,-0.19557,0.0,2023,6,7,11,16,2,-1755
28.20880,0.09467,0.03675,0.00000,0.02623,0.97649,-0.19435,0.0,2023,6,7,11,16,2,-1755
28.20890,0.02467,0.01925,0.00000,0.02635,0.97722,-0.19642,0.0,2023,6,7,11,16,2,-1755
28.20900,0.05967,0.01925,0.00000,0.03074,0.97746,-0.19520,0.0,2023,6,7,11,16,2,-1755
28.20910,-0.09783,-0.05075,0.00000,0.02538,0.97380,-0.19557,0.0,2023,6,7,11,16,2,-1755
28.20920,-0.15033,-0.05075,0.00000,0.02977,0.97466,-0.19618,0.0,2023,6,7,11,16,2,-1755
28.20930,0.00717,-0.01575,0.00000,0.02867,0.97429,-0.19313,0.0,2023,6,7,11,16,2,-1755
28.20940,0.05967,0.07175,0.00000,0.02904,0.97698,-0.19654,0.0,2023,6,7,11,16,2,-1755
28.20950,-0.11533,-0.15575,0.00000,0.02757,0.97502,-0.19447,0.0,2023,6,7,11,16,2,-1755
28.20960,-0.09783,0.01925,0.00000,0.02769,0.97380,-0.19398,0.0,2023,6,7,11,16,2,-1755
28.20970,0.12967,-0.06825,0.00000,0.02916,0.97661,-0.19581,0.0,2023,6,7,11,16,2,-1755
28.20980,-0.15033,0.03675,0.00000,0.02940,0.97222,-0.19422,0.0,2023,6,7,11,16,2,-1755
28.20990,0.07717,0.17675,0.00000,0.02806,0.97661,-0.19654,0.0,2023,6,7,11,16,2,-1755
28.21000,0.05967,0.08925,0.00000,0.02745,0.97771,-0.19715,0.0,2023,6,7,11,16,2,-1755
28.21010,-0.08033,0.08925,0.00000,0.02867,0.97490,-0.19618,0.0,2023,6,7,11,16,2,-1755
28.21020,-0.11533,0.07175,0.00000,0.02794,0.97393,-0.19557,0.0,2023,6,7,11,16,2,-1755
28.21030,0.07717,0.00175,0.00000,0.02891,0.97551,-0.19593,0.0,2023,6,7,11,16,2,-1755
28.21040,-0.06283,-0.03325,0.00000,0.02952,0.97637,-0.19459,0.0,2023,6,7,11,16,2,-1755
28.21050,-0.20283,0.26425,0.00000,0.02855,0.97515,-0.19459,0.0,2023,6,7,11,16,2,-1755
28.21060,-0.02783,-0.05075,0.00000,0.02806,0.97698,-0.19557,0.0,2023,6,7,11,16,2,-1755
28.21070,-0.06283,-0.05075,0.00000,0.02855,0.97563,-0.19496,0.0,2023,6,7,11,16,2,-1755
28.21080,-0.04533,-0.10325,0.00000,0.02611,0.97417,-0.19544,0.0,2023,6,7,11,16,2,-1755
28.21090,-0.04533,-0.10325,0.00000,0.02635,0.97551,-0.19361,0.0,2023,6,7,11,16,2,-1755
28.21100,0.05967,-0.05075,0.00000,0.02891,0.97649,-0.19447,0.0,2023,6,7,11,16,2,-1755
28.21110,-0.13283,0.08925,0.00000,0.03001,0.97673,-0.19666,0.0,2023,6,7,11,16,2,-1755
28.21120,0.02467,0.01925,0.00000,0.03099,0.97612,-0.19300,0.0,2023,6,7,11,16,2,-1755
28.21130,-0.04533,0.08925,0.00000,0.02891,0.97441,-0.19532,0.0,2023,6,7,11,16,2,-1755
28.21140,0.05967,0.03675,0.00000,0.03050,0.97734,-0.19618,0.0,2023,6,7,11,16,2,-1755
28.21150,-0.02783,0.08925,0.00000,0.02916,0.97722,-0.19569,0.0,2023,6,7,11,16,2,-1755
28.21160,0.11217,-0.03325,0.00000,0.02904,0.97551,-0.19374,0.0,2023,6,7,11,16,2,-1755
28.21170,0.00717,0.00175,0.00000,0.02867,0.97637,-0.19447,0.0,2023,6,7,11,16,2,-1755
28.21180,0.00717,0.07175,0.00000,0.02684,0.97588,-0.19410,0.0,2023,6,7,11,16,2,-1755
28.21190,0.04217,-0.01575,0.00000,0.02769,0.97344,-0.19410,0.0,2023,6,7,11,16,3,-1755
28.21200,-0.02783,0.01925,0.00000,0.02708,0.97734,-0.19447,0.0,2023,6,7,11,16,3,-1755
28.21210,-0.09783,0.08925,0.00000,0.02635,0.97539,-0.19447,0.0,2023,6,7,11,16,3,-1755
28.21220,-0.04533,-0.06825,0.00000,0.02745,0.97380,-0.19520,0.0,2023,6,7,11,16,3,-1755
28.21230,0.02467,-0.03325,0.00000,0.02757,0.97576,-0.19459,0.0,2023,6,7,11,16,3,-1755
28.21240,0.00717,-0.01575,0.00000,0.02757,0.97393,-0.19581,0.0,2023,6,7,11,16,3,-1755
28.21250,0.02467,0.01925,0.00000,0.02757,0.97539,-0.19447,0.0,2023,6,7,11,16,3,-1755
28.21260,0.04217,0.15925,0.00000,0.03001,0.97710,-0.19593,0.0,2023,6,7,11,16,3,-1755
28.21270,-0.22033,0.21175,0.00000,0.02904,0.97441,-0.19666,0.0,2023,6,7,11,16,3,-1755
28.21280,0.00717,-0.10325,0.00000,0.02989,0.97563,-0.19532,0.0,2023,6,7,11,16,3,-1755
28.21290,0.18217,-0.05075,0.00000,0.02794,0.97710,-0.19386,0.0,2023,6,7,11,16,3,-1755
28.21300,0.05967,-0.12075,0.00000,0.02708,0.97563,-0.19410,0.0,2023,6,7,11,16,3,-1755
28.21310,-0.20283,0.12425,0.00000,0.02733,0.97563,-0.19483,0.0,2023,6,7,11,16,3,-1755
28.21320,-0.08033,-0.15575,0.00000,0.02952,0.97624,-0.19459,0.0,2023,6,7,11,16,3,-1755
28.21330,0.05967,0.05425,0.00000,0.02794,0.97454,-0.19337,0.0,2023,6,7,11,16,3,-1755
28.21340,-0.08033,0.15925,0.00000,0.02745,0.97502,-0.19605,0.0,2023,6,7,11,16,3,-1755
28.21350,0.07717,-0.19075,0.00000,0.02660,0.97368,-0.19666,0.0,2023,6,7,11,16,3,-1755
28.21360,0.04217,-0.08575,0.00000,0.02928,0.97527,-0.19679,0.0,2023,6,7,11,16,3,-1755
28.21370,0.00717,-0.03325,0.00000,0.02904,0.97527,-0.19496,0.0,2023,6,7,11,16,3,-1755
28.21380,0.02467,-0.10325,0.00000,0.02965,0.97759,-0.19508,0.0,2023,6,7,11,16,3,-1755
28.21390,-0.06283,0.22925,0.00000,0.02782,0.97612,-0.19618,0.0,2023,6,7,11,16,3,-1755
28.21400,-0.01033,0.12425,0.00000,0.02867,0.97624,-0.19642,0.0,2023,6,7,11,16,3,-1755
28.21410,0.00717,0.01925,0.00000,0.02830,0.97405,-0.19618,0.0,2023,6,7,11,16,3,-1755
28.21420,0.02467,0.21175,0.00000,0.02928,0.97466,-0.19374,0.0,2023,6,7,11,16,3,-1755
28.21430,0.00717,0.21175,0.00000,0.02977,0.97612,-0.19508,0.0,2023,6,7,11,16,3,-1755
28.21440,0.04217,-0.03325,0.00000,0.02928,0.97539,-0.19593,0.0,2023,6,7,11,16,3,-1755
28.21450,-0.08033,0.05425,0.00000,0.02891,0.97515,-0.19776,0.0,2023,6,7,11,16,3,-1755
28.21460,0.05967,0.05425,0.00000,0.02977,0.97527,-0.19178,0.0,2023,6,7,11,16,3,-1755
28.21470,-0.13283,-0.17325,0.00000,0.02855,0.97429,-0.19496,0.0,2023,6,7,11,16,3,-1755
28.21480,-0.01033,-0.08575,0.00000,0.02879,0.97502,-0.19654,0.0,2023,6,7,11,16,3,-1755
28.21490,0.05967,-0.12075,0.00000,0.02782,0.97600,-0.19300,0.0,2023,6,7,11,16,3,-1755
28.21500,-0.13283,-0.06825,0.00000,0.03038,0.97624,-0.19569,0.0,2023,6,7,11,16,3,-1755
28.21510,0.16467,-0.15575,0.00000,0.02635,0.97441,-0.19227,0.0,2023,6,7,11,16,3,-1755
28.21520,0.02467,-0.01575,0.00000,0.02879,0.97637,-0.19471,0.0,2023,6,7,11,16,3,-1755
28.21530,0.11217,-0.17325,0.00000,0.02574,0.97527,-0.19581,0.0,2023,6,7,11,16,3,-1755
28.21540,0.19967,-0.10325,0.00000,0.02891,0.97429,-0.19703,0.0,2023,6,7,11,16,3,-1755
28.21550,0.07717,-0.08575,0.00000,0.02757,0.97685,-0.19361,0.0,2023,6,7,11,16,3,-1755
28.21560,-0.06283,-0.15575,0.00000,0.02879,0.97246,-0.19471,0.0,2023,6,7,11,16,3,-1755
28.21570,0.02467,-0.12075,0.00000,0.02769,0.97637,-0.19447,0.0,2023,6,7,11,16,3,-1755
28.21580,0.05967,0.07175,0.00000,0.02867,0.97515,-0.19557,0.0,2023,6,7,11,16,3,-1755
28.21590,0.11217,-0.19075,0.00000,0.02757,0.97429,-0.19349,0.0,2023,6,7,11,16,3,-1755
28.21600,-0.15033,0.08925,0.00000,0.02989,0.97685,-0.19532,0.0,2023,6,7,11,16,3,-1755
28.21610,-0.11533,-0.06825,0.00000,0.02940,0.97576,-0.19398,0.0,2023,6,7,11,16,3,-1755
28.21620,0.05967,-0.12075,0.00000,0.02721,0.97783,-0.19532,0.0,2023,6,7,11,16,3,-1755
28.21630,-0.01033,-0.03325,0.00000,0.02782,0.97356,-0.19544,0.0,2023,6,7,11,16,3,-1755
28.21640,-0.11533,0.10675,0.00000,0.02843,0.97673,-0.19630,0.0,2023,6,7,11,16,3,-1755
28.21650,-0.06283,0.08925,0.00000,0.02879,0.97600,-0.19435,0.0,2023,6,7,11,16,3,-1755
28.21660,0.04217,0.07175,0.00000,0.02708,0.97685,-0.19313,0.0,2023,6,7,11,16,3,-1755
28.21670,-0.06283,-0.05075,0.00000,0.02745,0.97502,-0.19618,0.0,2023,6,7,11,16,3,-1755
28.21680,0.19967,0.00175,0.00000,0.02843,0.97588,-0.19801,0.0,2023,6,7,11,16,3,-1755
28.21690,-0.01033,-0.06825,0.00000,0.02733,0.97551,-0.19422,0.0,2023,6,7,11,16,3,-1755
28.21700,-0.06283,0.08925,0.00000,0.02696,0.97502,-0.19581,0.0,2023,6,7,11,16,3,-1755
28.21710,0.02467,-0.01575,0.00000,0.02806,0.97490,-0.19618,0.0,2023,6,7,11,16,3,-1755
28.21720,0.21717,-0.13825,0.00000,0.02879,0.97576,-0.19679,0.0,2023,6,7,11,16,3,-1755
28.21730,0.00717,0.12425,0.00000,0.02916,0.97563,-0.19325,0.0,2023,6,7,11,16,3,-1755
28.21740,-0.02783,-0.13825,0.00000,0.02696,0.97637,-0.19654,0.0,2023,6,7,11,16,3,-1755
28.21750,0.25217,0.01925,0.00000,0.02684,0.97454,-0.19081,0.0,2023,6,7,11,16,3,-1755
28.21760,0.11217,0.00175,0.00000,0.02599,0.97539,-0.19313,0.0,2023,6,7,11,16,3,-1755
28.21770,0.11217,-0.01575,0.00000,0.02904,0.97539,-0.19520,0.0,2023,6,7,11,16,3,-1755
28.21780,0.00717,0.21175,0.00000,0.02904,0.97527,-0.19496,0.0,2023,6,7,11,16,3,-1755
28.21790,-0.16783,-0.08575,0.00000,0.02684,0.97563,-0.19422,0.0,2023,6,7,11,16,3,-1755
28.21800,-0.06283,0.17675,0.00000,0.02733,0.97600,-0.19337,0.0,2023,6,7,11,16,3,-1755
28.21810,-0.13283,0.01925,0.00000,0.02757,0.97759,-0.19459,0.0,2023,6,7,11,16,3,-1755
28.21820,0.02467,-0.01575,0.00000,0.02818,0.97746,-0.19544,0.0,2023,6,7,11,16,3,-1755
28.21830,0.05967,0.01925,0.00000,0.02843,0.97637,-0.19483,0.0,2023,6,7,11,16,3,-1755
28.21840,-0.13283,0.10675,0.00000,0.02721,0.97454,-0.19752,0.0,2023,6,7,11,16,3,-1755
28.21850,0.00717,0.15925,0.00000,0.02916,0.97515,-0.19361,0.0,2023,6,7,11,16,3,-1755
28.21860,-0.11533,0.08925,0.00000,0.02843,0.97551,-0.19154,0.0,2023,6,7,11,16,3,-1755
28.21870,-0.02783,0.08925,0.00000,0.02501,0.97600,-0.19557,0.0,2023,6,7,11,16,3,-1755
28.21880,0.05967,0.05425,0.00000,0.02879,0.97466,-0.19691,0.0,2023,6,7,11,16,3,-1755
28.21890,0.16467,-0.08575,0.00000,0.02977,0.97478,-0.19569,0.0,2023,6,7,11,16,3,-1755
28.21900,-0.09783,0.12425,0.00000,0.02855,0.97551,-0.19227,0.0,2023,6,7,11,16,3,-1755
28.21910,-0.01033,-0.10325,0.00000,0.02843,0.97612,-0.19361,0.0,2023,6,7,11,16,3,-1755
28.21920,0.07717,-0.19075,0.00000,0.02599,0.97539,-0.19398,0.0,2023,6,7,11,16,3,-1755
28.21930,0.09467,-0.01575,0.00000,0.02830,0.97441,-0.19386,0.0,2023,6,7,11,16,3,-1755
28.21940,0.14717,0.12425,0.00000,0.02855,0.97478,-0.19666,0.0,2023,6,7,11,16,3,-1755
28.21950,0.00717,-0.15575,0.00000,0.02769,0.97673,-0.19252,0.0,2023,6,7,11,16,3,-1755
28.21960,-0.08033,-0.06825,0.00000,0.02733,0.97502,-0.19447,0.0,2023,6,7,11,16,3,-1755
28.21970,-0.06283,-0.01575,0.00000,0.02977,0.97563,-0.19666,0.0,2023,6,7,11,16,3,-1755
28.21980,-0.06283,-0.05075,0.00000,0.02904,0.97466,-0.19496,0.0,2023,6,7,11,16,3,-1755
28.21990,0.00717,-0.01575,0.00000,0.02989,0.97368,-0.19410,0.0,2023,6,7,11,16,3,-1755
28.22000,0.09467,-0.01575,0.00000,0.02952,0.97502,-0.19727,0.0,2023,6,7,11,16,3,-1755
28.22010,0.02467,-0.19075,0.00000,0.02782,0.97551,-0.19337,0.0,2023,6,7,11,16,3,-1755
28.22020,-0.06283,-0.24325,0.00000,0.02830,0.97466,-0.19471,0.0,2023,6,7,11,16,3,-1755
28.22030,0.04217,-0.03325,0.00000,0.02769,0.97344,-0.19679,0.0,2023,6,7,11,16,3,-1755
28.22040,-0.08033,-0.10325,0.00000,0.02721,0.97563,-0.19410,0.0,2023,6,7,11,16,3,-1755
28.22050,0.14717,0.10675,0.00000,0.02977,0.97576,-0.19422,0.0,2023,6,7,11,16,3,-1755
28.22060,-0.02783,-0.03325,0.00000,0.02891,0.97588,-0.19300,0.0,2023,6,7,11,16,3,-1755
