#2023/06/07 15:25:15
time,wx,wy,wz,ax,ay,az,yy,MM,dd,hh,mm,ss,ms
42.60330,-0.03710,0.00298,0.00000,0.03282,0.97527,-0.18739,0.0,2023,6,7,15,25,16,890
42.60340,0.13790,0.09048,0.00000,0.03074,0.97417,-0.18898,0.0,2023,6,7,15,25,16,900
42.60350,-0.15960,-0.01452,0.00000,0.03160,0.97746,-0.18861,0.0,2023,6,7,15,25,16,910
42.60360,0.03290,0.00298,0.00000,0.02855,0.97576,-0.18666,0.0,2023,6,7,15,25,16,920
42.60370,0.08540,-0.15452,0.00000,0.03135,0.97588,-0.18593,0.0,2023,6,7,15,25,16,930
42.60380,-0.03710,0.14298,0.00000,0.03209,0.97698,-0.18568,0.0,2023,6,7,15,25,16,940
42.60390,0.10290,-0.20702,0.00000,0.03331,0.97393,-0.18690,0.0,2023,6,7,15,25,16,950
42.60400,0.06790,-0.10202,0.00000,0.03050,0.97661,-0.18764,0.0,2023,6,7,15,25,16,960
42.60410,-0.05460,0.09048,0.00000,0.03233,0.97307,-0.18812,0.0,2023,6,7,15,25,16,970
42.60420,0.10290,0.10798,0.00000,0.03074,0.97527,-0.18971,0.0,2023,6,7,15,25,16,980
42.60430,-0.08960,0.05548,0.00000,0.03038,0.97515,-0.19081,0.0,2023,6,7,15,25,16,990
42.60440,0.01540,0.02048,0.00000,0.03160,0.97624,-0.18605,0.0,2023,6,7,15,25,16,0
42.60450,-0.10710,0.12548,0.00000,0.03148,0.97551,-0.18861,0.0,2023,6,7,15,25,16,10
42.60460,0.12040,-0.06702,0.00000,0.03099,0.97576,-0.18812,0.0,2023,6,7,15,25,16,20
42.60470,-0.22960,0.14298,0.00000,0.02977,0.97661,-0.18825,0.0,2023,6,7,15,25,16,30
42.60480,-0.05460,0.12548,0.00000,0.03221,0.97759,-0.18727,0.0,2023,6,7,15,25,16,40
42.60490,0.12040,-0.11952,0.00000,0.03245,0.97722,-0.18605,0.0,2023,6,7,15,25,16,50
42.60500,0.17290,-0.25952,0.00000,0.03123,0.97441,-0.18568,0.0,2023,6,7,15,25,16,60
42.60510,-0.17710,0.00298,0.00000,0.03148,0.97478,-0.18910,0.0,2023,6,7,15,25,16,70
42.60520,0.12040,0.02048,0.00000,0.03257,0.97515,-0.18959,0.0,2023,6,7,15,25,16,80
42.60530,-0.08960,-0.01452,0.00000,0.03172,0.97539,-0.18642,0.0,2023,6,7,15,25,16,90
42.60540,-0.05460,-0.01452,0.00000,0.02965,0.97588,-0.18776,0.0,2023,6,7,15,25,16,100
42.60550,0.10290,-0.01452,0.00000,0.03306,0.97685,-0.18654,0.0,2023,6,7,15,25,16,110
42.60560,0.01540,0.07298,0.00000,0.03111,0.97563,-0.18971,0.0,2023,6,7,15,25,16,120
42.60570,-0.00210,-0.04952,0.00000,0.03062,0.97527,-0.18922,0.0,2023,6,7,15,25,16,130
42.60580,-0.22960,0.26548,0.00000,0.03050,0.97307,-0.18861,0.0,2023,6,7,15,25,16,140
42.60590,0.06790,0.07298,0.00000,0.03062,0.97746,-0.18654,0.0,2023,6,7,15,25,16,150
42.60600,-0.08960,0.00298,0.00000,0.03087,0.97868,-0.18605,0.0,2023,6,7,15,25,16,160
42.60610,-0.07210,0.30048,0.00000,0.03160,0.97539,-0.18800,0.0,2023,6,7,15,25,16,170
42.60620,0.08540,-0.03202,0.00000,0.03123,0.97637,-0.18642,0.0,2023,6,7,15,25,16,180
42.60630,0.06790,0.03798,0.00000,0.03209,0.97368,-0.18812,0.0,2023,6,7,15,25,16,190
42.60640,0.01540,0.00298,0.00000,0.03099,0.97563,-0.18849,0.0,2023,6,7,15,25,16,200
42.60650,0.17290,-0.04952,0.00000,0.03062,0.97600,-0.18812,0.0,2023,6,7,15,25,16,210
42.60660,0.05040,0.00298,0.00000,0.03379,0.97673,-0.18873,0.0,2023,6,7,15,25,16,220
42.60670,-0.01960,-0.03202,0.00000,0.03074,0.97661,-0.18861,0.0,2023,6,7,15,25,16,230
42.60680,-0.03710,-0.18952,0.00000,0.03221,0.97624,-0.18873,0.0,2023,6,7,15,25,16,240
42.60690,0.03290,0.02048,0.00000,0.03184,0.97661,-0.18837,0.0,2023,6,7,15,25,16,250
42.60700,-0.15960,0.09048,0.00000,0.03221,0.97600,-0.18739,0.0,2023,6,7,15,25,16,260
42.60710,0.20790,-0.27702,0.00000,0.02989,0.97759,-0.18910,0.0,2023,6,7,15,25,16,270
42.60720,0.06790,-0.11952,0.00000,0.03001,0.97551,-0.18898,0.0,2023,6,7,15,25,16,280
42.60730,-0.12460,0.03798,0.00000,0.03270,0.97576,-0.18910,0.0,2023,6,7,15,25,16,290
42.60740,-0.15960,-0.03202,0.00000,0.03087,0.97722,-0.18898,0.0,2023,6,7,15,25,16,300
42.60750,0.06790,0.09048,0.00000,0.03318,0.97478,-0.18947,0.0,2023,6,7,15,25,16,310
42.60760,0.10290,-0.01452,0.00000,0.03135,0.97429,-0.18861,0.0,2023,6,7,15,25,16,320
42.60770,0.08540,-0.03202,0.00000,0.03074,0.97344,-0.18800,0.0,2023,6,7,15,25,16,330
42.60780,0.05040,0.03798,0.00000,0.03367,0.97588,-0.18934,0.0,2023,6,7,15,25,16,340
42.60790,0.10290,-0.04952,0.00000,0.03257,0.97649,-0.18422,0.0,2023,6,7,15,25,16,350
42.60800,-0.03710,0.00298,0.00000,0.03074,0.97722,-0.18983,0.0,2023,6,7,15,25,16,360
42.60810,-0.05460,0.07298,0.00000,0.03074,0.97539,-0.18873,0.0,2023,6,7,15,25,16,370
42.60820,-0.05460,-0.06702,0.00000,0.03148,0.97698,-0.18898,0.0,2023,6,7,15,25,16,380
42.60830,0.08540,-0.11952,0.00000,0.03245,0.97393,-0.18934,0.0,2023,6,7,15,25,16,390
42.60840,0.05040,-0.06702,0.00000,0.03282,0.97734,-0.18654,0.0,2023,6,7,15,25,16,400
42.60850,-0.00210,-0.06702,0.00000,0.03172,0.97283,-0.18703,0.0,2023,6,7,15,25,16,410
42.60860,-0.15960,0.07298,0.00000,0.03184,0.97734,-0.18837,0.0,2023,6,7,15,25,16,420
42.60870,-0.01960,-0.10202,0.00000,0.03038,0.97637,-0.18800,0.0,2023,6,7,15,25,16,430
42.60880,-0.14210,0.07298,0.00000,0.02940,0.97868,-0.18995,0.0,2023,6,7,15,25,16,440
42.60890,0.01540,-0.17202,0.00000,0.03221,0.97490,-0.18825,0.0,2023,6,7,15,25,16,450
42.60900,-0.12460,0.02048,0.00000,0.03270,0.97466,-0.18922,0.0,2023,6,7,15,25,16,460
42.60910,-0.10710,-0.10202,0.00000,0.03062,0.97429,-0.18922,0.0,2023,6,7,15,25,16,470
42.60920,-0.08960,-0.01452,0.00000,0.03184,0.97734,-0.18849,0.0,2023,6,7,15,25,16,480
42.60930,-0.01960,0.02048,0.00000,0.03148,0.97771,-0.18715,0.0,2023,6,7,15,25,16,490
42.60940,-0.10710,0.00298,0.00000,0.03245,0.97734,-0.18764,0.0,2023,6,7,15,25,16,500
42.60950,-0.12460,-0.17202,0.00000,0.03294,0.97417,-0.18764,0.0,2023,6,7,15,25,16,510
42.60960,-0.01960,-0.11952,0.00000,0.03331,0.97490,-0.18849,0.0,2023,6,7,15,25,16,520
42.60970,-0.00210,-0.11952,0.00000,0.03160,0.97515,-0.18715,0.0,2023,6,7,15,25,16,530
42.60980,0.12040,-0.17202,0.00000,0.03111,0.97661,-0.18690,0.0,2023,6,7,15,25,16,540
42.60990,-0.08960,0.12548,0.00000,0.03233,0.97710,-0.18666,0.0,2023,6,7,15,25,16,550
42.61000,-0.19460,-0.11952,0.00000,0.03233,0.97673,-0.18739,0.0,2023,6,7,15,25,16,560
42.61010,0.01540,-0.08452,0.00000,0.02904,0.97661,-0.18849,0.0,2023,6,7,15,25,16,570
42.61020,0.01540,0.00298,0.00000,0.03233,0.97563,-0.19032,0.0,2023,6,7,15,25,16,580
42.61030,0.03290,0.03798,0.00000,0.03062,0.97746,-0.18715,0.0,2023,6,7,15,25,16,590
42.61040,-0.08960,-0.04952,0.00000,0.03160,0.97698,-0.18690,0.0,2023,6,7,15,25,16,600
42.61050,0.03290,0.12548,0.00000,0.03160,0.97612,-0.18727,0.0,2023,6,7,15,25,16,610
42.61060,0.22540,-0.08452,0.00000,0.03184,0.97380,-0.18739,0.0,2023,6,7,15,25,16,620
42.61070,-0.01960,0.05548,0.00000,0.03087,0.97685,-0.18983,0.0,2023,6,7,15,25,16,630
42.61080,-0.14210,-0.20702,0.00000,0.03331,0.97515,-0.18886,0.0,2023,6,7,15,25,16,640
42.61090,-0.01960,0.14298,0.00000,0.03270,0.97515,-0.18812,0.0,2023,6,7,15,25,16,650
42.61100,-0.01960,0.09048,0.00000,0.02977,0.97661,-0.18788,0.0,2023,6,7,15,25,16,660
42.61110,-0.10710,-0.13702,0.00000,0.03404,0.97710,-0.18776,0.0,2023,6,7,15,25,16,670
42.61120,-0.00210,0.12548,0.00000,0.03196,0.97563,-0.18800,0.0,2023,6,7,15,25,16,680
42.61130,0.05040,-0.03202,0.00000,0.03111,0.97661,-0.18751,0.0,2023,6,7,15,25,16,690
42.61140,0.06790,-0.01452,0.00000,0.03160,0.97563,-0.18861,0.0,2023,6,7,15,25,16,700
42.61150,0.24290,-0.11952,0.00000,0.03282,0.97759,-0.18764,0.0,2023,6,7,15,25,16,710
42.61160,0.12040,-0.13702,0.00000,0.03038,0.97637,-0.18873,0.0,2023,6,7,15,25,16,720
42.61170,0.10290,0.03798,0.00000,0.03050,0.97759,-0.18715,0.0,2023,6,7,15,25,16,730
42.61180,0.03290,-0.17202,0.00000,0.03099,0.97637,-0.18715,0.0,2023,6,7,15,25,16,740
42.61190,0.03290,0.05548,0.00000,0.03257,0.97673,-0.18812,0.0,2023,6,7,15,25,16,750
42.61200,-0.03710,-0.13702,0.00000,0.03074,0.97612,-0.18800,0.0,2023,6,7,15,25,16,760
42.61210,-0.10710,0.07298,0.00000,0.03172,0.97612,-0.18654,0.0,2023,6,7,15,25,16,770
42.61220,-0.03710,0.12548,0.00000,0.03233,0.97698,-0.18739,0.0,2023,6,7,15,25,16,780
42.61230,-0.14210,0.10798,0.00000,0.03160,0.97454,-0.18751,0.0,2023,6,7,15,25,16,790
42.61240,0.12040,0.21298,0.00000,0.03172,0.97624,-0.18581,0.0,2023,6,7,15,25,16,800
42.61250,0.12040,0.02048,0.00000,0.03245,0.97624,-0.18861,0.0,2023,6,7,15,25,16,810
42.61260,0.12040,-0.01452,0.00000,0.02952,0.97673,-0.18922,0.0,2023,6,7,15,25,16,820
42.61270,0.03290,-0.04952,0.00000,0.03196,0.97612,-0.18642,0.0,2023,6,7,15,25,16,830
42.61280,-0.00210,-0.08452,0.00000,0.03087,0.97600,-0.18800,0.0,2023,6,7,15,25,16,840
42.61290,-0.10710,-0.03202,0.00000,0.03026,0.97649,-0.18703,0.0,2023,6,7,15,25,16,850
42.61300,-0.14210,0.00298,0.00000,0.03099,0.97612,-0.18715,0.0,2023,6,7,15,25,16,860
42.61310,0.08540,-0.04952,0.00000,0.03160,0.97405,-0.18886,0.0,2023,6,7,15,25,16,870
42.61320,-0.07210,-0.01452,0.00000,0.02952,0.97466,-0.18812,0.0,2023,6,7,15,25,16,880
42.61330,-0.00210,-0.18952,0.00000,0.03135,0.97673,-0.18361,0.0,2023,6,7,15,25,16,890
42.61340,-0.08960,-0.13702,0.00000,0.02989,0.97527,-0.18727,0.0,2023,6,7,15,25,16,900
42.61350,0.10290,0.12548,0.00000,0.03050,0.97649,-0.18434,0.0,2023,6,7,15,25,16,910
42.61360,-0.00210,0.09048,0.00000,0.03233,0.97710,-0.18922,0.0,2023,6,7,15,25,16,920
42.61370,0.06790,0.03798,0.00000,0.03160,0.97795,-0.18690,0.0,2023,6,7,15,25,16,930
42.61380,0.05040,0.26548,0.00000,0.03148,0.97563,-0.18776,0.0,2023,6,7,15,25,16,940
42.61390,-0.07210,0.05548,0.00000,0.03209,0.97722,-0.18471,0.0,2023,6,7,15,25,16,950
42.61400,-0.15960,-0.04952,0.00000,0.03135,0.97527,-0.18739,0.0,2023,6,7,15,25,16,960
42.61410,0.08540,0.10798,0.00000,0.02989,0.97685,-0.18971,0.0,2023,6,7,15,25,16,970
42.61420,0.05040,-0.13702,0.00000,0.02989,0.97771,-0.18776,0.0,2023,6,7,15,25,16,980
42.61430,-0.03710,-0.03202,0.00000,0.03318,0.97502,-0.18947,0.0,2023,6,7,15,25,16,990
42.61440,-0.03710,0.07298,0.00000,0.03245,0.97563,-0.18910,0.0,2023,6,7,15,25,16,0
42.61450,0.12040,-0.15452,0.00000,0.03160,0.97393,-0.18666,0.0,2023,6,7,15,25,16,10
42.61460,-0.07210,-0.10202,0.00000,0.03331,0.97649,-0.18751,0.0,2023,6,7,15,25,16,20
42.61470,-0.03710,0.24798,0.00000,0.03050,0.97746,-0.18629,0.0,2023,6,7,15,25,16,30
42.61480,0.10290,-0.06702,0.00000,0.03233,0.97539,-0.18715,0.0,2023,6,7,15,25,16,40
42.61490,0.10290,0.02048,0.00000,0.03160,0.97722,-0.18849,0.0,2023,6,7,15,25,16,50
42.61500,0.03290,-0.11952,0.00000,0.03209,0.97661,-0.18861,0.0,2023,6,7,15,25,16,60
42.61510,0.05040,0.02048,0.00000,0.03172,0.97576,-0.18703,0.0,2023,6,7,15,25,16,70
42.61520,0.13790,0.03798,0.00000,0.03257,0.97698,-0.18715,0.0,2023,6,7,15,25,16,80
42.61530,-0.07210,0.03798,0.00000,0.03099,0.97637,-0.18788,0.0,2023,6,7,15,25,16,90
42.61540,0.06790,-0.04952,0.00000,0.03221,0.97502,-0.18934,0.0,2023,6,7,15,25,16,100
42.61550,-0.03710,0.00298,0.00000,0.03306,0.97685,-0.18849,0.0,2023,6,7,15,25,16,110
42.61560,0.15540,0.03798,0.00000,0.03050,0.97637,-0.18520,0.0,2023,6,7,15,25,16,120
42.61570,0.05040,0.17798,0.00000,0.03123,0.97576,-0.18739,0.0,2023,6,7,15,25,16,130
42.61580,-0.03710,-0.24202,0.00000,0.03184,0.97356,-0.18446,0.0,2023,6,7,15,25,16,140
42.61590,-0.14210,0.07298,0.00000,0.03135,0.97539,-0.18764,0.0,2023,6,7,15,25,16,150
42.61600,-0.03710,-0.20702,0.00000,0.02952,0.97563,-0.18800,0.0,2023,6,7,15,25,16,160
42.61610,-0.01960,0.12548,0.00000,0.02855,0.97515,-0.18788,0.0,2023,6,7,15,25,16,170
42.61620,-0.05460,-0.01452,0.00000,0.03209,0.97807,-0.18764,0.0,2023,6,7,15,25,16,180
42.61630,-0.00210,-0.03202,0.00000,0.03294,0.97600,-0.18788,0.0,2023,6,7,15,25,16,190
42.61640,-0.03710,0.12548,0.00000,0.03038,0.97478,-0.18727,0.0,2023,6,7,15,25,16,200
42.61650,-0.01960,0.09048,0.00000,0.03209,0.97698,-0.18764,0.0,2023,6,7,15,25,16,210
42.61660,-0.03710,0.02048,0.00000,0.03135,0.97783,-0.18788,0.0,2023,6,7,15,25,16,220
42.61670,-0.03710,0.07298,0.00000,0.03416,0.97466,-0.18642,0.0,2023,6,7,15,25,16,230
42.61680,0.08540,-0.11952,0.00000,0.02928,0.97563,-0.18617,0.0,2023,6,7,15,25,16,240
42.61690,0.06790,-0.06702,0.00000,0.03318,0.97588,-0.18983,0.0,2023,6,7,15,25,16,250
42.61700,0.05040,-0.08452,0.00000,0.03367,0.97356,-0.18446,0.0,2023,6,7,15,25,16,260
42.61710,0.06790,-0.08452,0.00000,0.03074,0.97807,-0.18690,0.0,2023,6,7,15,25,16,270
42.61720,-0.12460,-0.11952,0.00000,0.03209,0.97478,-0.18642,0.0,2023,6,7,15,25,16,280
42.61730,-0.01960,-0.04952,0.00000,0.03221,0.97722,-0.18764,0.0,2023,6,7,15,25,16,290
42.61740,0.10290,0.02048,0.00000,0.03123,0.97563,-0.18788,0.0,2023,6,7,15,25,16,300
42.61750,0.08540,0.14298,0.00000,0.03050,0.97539,-0.18934,0.0,2023,6,7,15,25,16,310
42.61760,-0.01960,0.03798,0.00000,0.03148,0.97527,-0.18690,0.0,2023,6,7,15,25,16,320
42.61770,-0.05460,-0.06702,0.00000,0.03099,0.97588,-0.18849,0.0,2023,6,7,15,25,16,330
42.61780,0.01540,0.05548,0.00000,0.03416,0.97661,-0.18629,0.0,2023,6,7,15,25,16,340
42.61790,-0.07210,0.19548,0.00000,0.03331,0.97576,-0.18495,0.0,2023,6,7,15,25,16,350
42.61800,0.03290,-0.04952,0.00000,0.03001,0.97527,-0.18642,0.0,2023,6,7,15,25,16,360
42.61810,-0.12460,-0.11952,0.00000,0.03184,0.97588,-0.18800,0.0,2023,6,7,15,25,16,370
42.61820,0.13790,-0.08452,0.00000,0.03196,0.97832,-0.18593,0.0,2023,6,7,15,25,16,380
42.61830,-0.01960,0.00298,0.00000,0.03318,0.97673,-0.18861,0.0,2023,6,7,15,25,16,390
42.61840,-0.08960,-0.01452,0.00000,0.03148,0.97673,-0.19032,0.0,2023,6,7,15,25,16,400
42.61850,-0.14210,0.19548,0.00000,0.03123,0.97612,-0.18507,0.0,2023,6,7,15,25,16,410
42.61860,0.06790,-0.13702,0.00000,0.03221,0.97515,-0.18690,0.0,2023,6,7,15,25,16,420
42.61870,0.12040,0.05548,0.00000,0.03160,0.97624,-0.18629,0.0,2023,6,7,15,25,16,430
42.61880,-0.01960,-0.10202,0.00000,0.03026,0.97490,-0.18812,0.0,2023,6,7,15,25,16,440
42.61890,0.12040,-0.04952,0.00000,0.03257,0.97527,-0.18849,0.0,2023,6,7,15,25,16,450
42.61900,0.12040,0.07298,0.00000,0.03062,0.97429,-0.18861,0.0,2023,6,7,15,25,16,460
42.61910,0.05040,0.24798,0.00000,0.03087,0.97588,-0.18544,0.0,2023,6,7,15,25,16,470
42.61920,0.06790,-0.17202,0.00000,0.03184,0.97454,-0.18825,0.0,2023,6,7,15,25,16,480
42.61930,0.08540,0.02048,0.00000,0.02989,0.97673,-0.18751,0.0,2023,6,7,15,25,16,490
42.61940,-0.00210,0.09048,0.00000,0.02769,0.97539,-0.18910,0.0,2023,6,7,15,25,16,500
42.61950,-0.12460,-0.08452,0.00000,0.02879,0.97478,-0.18849,0.0,2023,6,7,15,25,16,510
42.61960,-0.12460,-0.13702,0.00000,0.03184,0.97466,-0.18934,0.0,2023,6,7,15,25,16,520
42.61970,0.08540,-0.08452,0.00000,0.03184,0.97600,-0.18898,0.0,2023,6,7,15,25,16,530
42.61980,-0.03710,-0.10202,0.00000,0.03087,0.97515,-0.18776,0.0,2023,6,7,15,25,16,540
42.61990,0.15540,-0.08452,0.00000,0.03282,0.97527,-0.18678,0.0,2023,6,7,15,25,16,550
42.62000,-0.05460,0.07298,0.00000,0.03221,0.97502,-0.18727,0.0,2023,6,7,15,25,16,560
42.62010,0.05040,-0.06702,0.00000,0.03062,0.97588,-0.18959,0.0,2023,6,7,15,25,16,570
42.62020,-0.00210,0.07298,0.00000,0.02940,0.97576,-0.18910,0.0,2023,6,7,15,25,16,580
42.62030,-0.03710,0.02048,0.00000,0.03270,0.97454,-0.18861,0.0,2023,6,7,15,25,16,590
42.62040,-0.01960,0.05548,0.00000,0.03196,0.97332,-0.18654,0.0,2023,6,7,15,25,16,600
42.62050,0.03290,-0.06702,0.00000,0.03209,0.97551,-0.18812,0.0,2023,6,7,15,25,16,610
42.62060,0.03290,0.12548,0.00000,0.03294,0.97746,-0.18898,0.0,2023,6,7,15,25,16,620
42.62070,0.15540,-0.24202,0.00000,0.03050,0.97759,-0.18703,0.0,2023,6,7,15,25,16,630
42.62080,0.01540,0.00298,0.00000,0.03245,0.97624,-0.18995,0.0,2023,6,7,15,25,16,640
42.62090,0.03290,-0.04952,0.00000,0.03318,0.97563,-0.18715,0.0,2023,6,7,15,25,16,650
42.62100,0.12040,-0.01452,0.00000,0.03233,0.97637,-0.18825,0.0,2023,6,7,15,25,16,660
42.62110,-0.03710,0.05548,0.00000,0.03050,0.97783,-0.18886,0.0,2023,6,7,15,25,16,670
42.62120,-0.00210,0.19548,0.00000,0.03221,0.97893,-0.18873,0.0,2023,6,7,15,25,16,680
42.62130,-0.08960,0.19548,0.00000,0.03160,0.97649,-0.18581,0.0,2023,6,7,15,25,16,690
42.62140,0.13790,-0.03202,0.00000,0.02989,0.97710,-0.18910,0.0,2023,6,7,15,25,16,700
42.62150,0.22540,0.00298,0.00000,0.03111,0.97588,-0.18861,0.0,2023,6,7,15,25,16,710
42.62160,0.05040,0.05548,0.00000,0.03245,0.97576,-0.18849,0.0,2023,6,7,15,25,16,720
42.62170,-0.10710,0.03798,0.00000,0.03257,0.97783,-0.18861,0.0,2023,6,7,15,25,16,730
42.62180,0.01540,-0.10202,0.00000,0.03270,0.97405,-0.18690,0.0,2023,6,7,15,25,16,740
42.62190,-0.03710,0.16048,0.00000,0.03074,0.97722,-0.18800,0.0,2023,6,7,15,25,16,750
42.62200,0.10290,-0.15452,0.00000,0.03148,0.97795,-0.18800,0.0,2023,6,7,15,25,16,760
42.62210,-0.05460,-0.01452,0.00000,0.03209,0.97515,-0.18825,0.0,2023,6,7,15,25,16,770
42.62220,0.12040,0.14298,0.00000,0.03550,0.97722,-0.18825,0.0,2023,6,7,15,25,16,780
42.62230,0.01540,0.09048,0.00000,0.03074,0.97734,-0.18886,0.0,2023,6,7,15,25,16,790
42.62240,-0.10710,0.02048,0.00000,0.03148,0.97698,-0.18861,0.0,2023,6,7,15,25,16,800
42.62250,0.05040,0.03798,0.00000,0.03184,0.97661,-0.18678,0.0,2023,6,7,15,25,16,810
42.62260,-0.08960,0.21298,0.00000,0.03050,0.97612,-0.18922,0.0,2023,6,7,15,25,16,820
42.62270,-0.07210,-0.20702,0.00000,0.03013,0.97783,-0.18898,0.0,2023,6,7,15,25,16,830
42.62280,0.12040,-0.03202,0.00000,0.02977,0.97661,-0.18849,0.0,2023,6,7,15,25,16,840
42.62290,-0.03710,0.07298,0.00000,0.03026,0.97539,-0.18873,0.0,2023,6,7,15,25,16,850
42.62300,-0.05460,0.14298,0.00000,0.02928,0.97441,-0.18739,0.0,2023,6,7,15,25,16,860
42.62310,-0.15960,0.09048,0.00000,0.03111,0.97734,-0.18764,0.0,2023,6,7,15,25,16,870
42.62320,0.05040,-0.06702,0.00000,0.03270,0.97649,-0.18886,0.0,2023,6,7,15,25,16,880
42.62330,0.15540,-0.29452,0.00000,0.03038,0.97661,-0.18654,0.0,2023,6,7,15,25,16,890
42.62340,-0.12460,0.10798,0.00000,0.03209,0.97673,-0.18788,0.0,2023,6,7,15,25,16,900
42.62350,-0.00210,-0.04952,0.00000,0.03026,0.97710,-0.18727,0.0,2023,6,7,15,25,16,910
42.62360,-0.10710,-0.06702,0.00000,0.03184,0.97356,-0.18886,0.0,2023,6,7,15,25,16,920
42.62370,0.10290,-0.08452,0.00000,0.03257,0.97576,-0.18812,0.0,2023,6,7,15,25,16,930
42.62380,0.01540,-0.11952,0.00000,0.03465,0.98039,-0.18751,0.0,2023,6,7,15,25,16,940
42.62390,0.10290,-0.13702,0.00000,0.02916,0.97966,-0.18776,0.0,2023,6,7,15,25,16,950
42.62400,-0.01960,0.09048,0.00000,0.03099,0.97563,-0.18666,0.0,2023,6,7,15,25,16,960
42.62410,-0.17710,-0.08452,0.00000,0.02977,0.97563,-0.18544,0.0,2023,6,7,15,25,16,970
42.62420,0.15540,-0.11952,0.00000,0.03233,0.97588,-0.18861,0.0,2023,6,7,15,25,16,980
42.62430,0.03290,0.05548,0.00000,0.03270,0.97868,-0.18715,0.0,2023,6,7,15,25,16,990
42.62440,0.03290,0.09048,0.00000,0.03026,0.97929,-0.18642,0.0,2023,6,7,15,25,16,0
42.62450,0.12040,-0.03202,0.00000,0.03160,0.97783,-0.18825,0.0,2023,6,7,15,25,16,10
42.62460,-0.00210,0.10798,0.00000,0.03013,0.97490,-0.18678,0.0,2023,6,7,15,25,16,20
42.62470,-0.05460,-0.18952,0.00000,0.02965,0.97454,-0.18459,0.0,2023,6,7,15,25,16,30
42.62480,-0.14210,0.10798,0.00000,0.03135,0.97563,-0.18886,0.0,2023,6,7,15,25,16,40
42.62490,-0.01960,0.05548,0.00000,0.03172,0.97539,-0.18922,0.0,2023,6,7,15,25,16,50
42.62500,-0.10710,0.09048,0.00000,0.03099,0.97734,-0.18715,0.0,2023,6,7,15,25,16,60
42.62510,0.05040,-0.03202,0.00000,0.03111,0.97576,-0.18690,0.0,2023,6,7,15,25,16,70
42.62520,0.17290,0.07298,0.00000,0.02916,0.97551,-0.18593,0.0,2023,6,7,15,25,16,80
42.62530,0.15540,-0.24202,0.00000,0.03355,0.97429,-0.18788,0.0,2023,6,7,15,25,16,90
42.62540,-0.08960,0.14298,0.00000,0.02965,0.97698,-0.18678,0.0,2023,6,7,15,25,16,100
42.62550,-0.10710,0.07298,0.00000,0.03294,0.97746,-0.18788,0.0,2023,6,7,15,25,16,110
42.62560,-0.05460,-0.10202,0.00000,0.03196,0.97746,-0.18788,0.0,2023,6,7,15,25,16,120
42.62570,0.03290,-0.11952,0.00000,0.03111,0.97746,-0.18898,0.0,2023,6,7,15,25,16,130
42.62580,-0.03710,0.05548,0.00000,0.03087,0.97722,-0.18812,0.0,2023,6,7,15,25,16,140
42.62590,-0.12460,-0.03202,0.00000,0.03196,0.97454,-0.18849,0.0,2023,6,7,15,25,16,150
42.62600,0.01540,0.19548,0.00000,0.03099,0.97551,-0.18886,0.0,2023,6,7,15,25,16,160
42.62610,0.03290,0.00298,0.00000,0.02989,0.97380,-0.18788,0.0,2023,6,7,15,25,16,170
42.62620,-0.15960,0.12548,0.00000,0.03172,0.97588,-0.18666,0.0,2023,6,7,15,25,16,180
42.62630,0.13790,-0.15452,0.00000,0.03087,0.97783,-0.18690,0.0,2023,6,7,15,25,16,190
42.62640,-0.00210,0.17798,0.00000,0.03123,0.97698,-0.18898,0.0,2023,6,7,15,25,16,200
42.62650,0.08540,-0.04952,0.00000,0.03062,0.97649,-0.18800,0.0,2023,6,7,15,25,16,210
42.62660,-0.17710,0.17798,0.00000,0.03209,0.97539,-0.18666,0.0,2023,6,7,15,25,16,220
42.62670,0.06790,0.02048,0.00000,0.03074,0.97759,-0.18690,0.0,2023,6,7,15,25,16,230
42.62680,-0.10710,0.12548,0.00000,0.03087,0.97807,-0.18495,0.0,2023,6,7,15,25,16,240
42.62690,-0.17710,0.24798,0.00000,0.03013,0.97539,-0.18764,0.0,2023,6,7,15,25,16,250
42.62700,0.03290,-0.10202,0.00000,0.03416,0.97563,-0.18800,0.0,2023,6,7,15,25,16,260
42.62710,0.03290,0.28298,0.00000,0.03099,0.97673,-0.18764,0.0,2023,6,7,15,25,16,270
42.62720,0.01540,-0.01452,0.00000,0.03160,0.97539,-0.18837,0.0,2023,6,7,15,25,16,280
42.62730,0.06790,0.17798,0.00000,0.03050,0.97624,-0.18690,0.0,2023,6,7,15,25,16,290
42.62740,0.08540,-0.13702,0.00000,0.03367,0.97612,-0.18934,0.0,2023,6,7,15,25,16,300
42.62750,0.01540,-0.13702,0.00000,0.03038,0.97624,-0.19032,0.0,2023,6,7,15,25,16,310
42.62760,-0.26460,0.28298,0.00000,0.03135,0.97600,-0.18764,0.0,2023,6,7,15,25,16,320
42.62770,0.12040,-0.15452,0.00000,0.02965,0.97539,-0.18825,0.0,2023,6,7,15,25,16,330
42.62780,-0.10710,0.05548,0.00000,0.02977,0.97685,-0.18776,0.0,2023,6,7,15,25,16,340
42.62790,0.13790,-0.13702,0.00000,0.03074,0.97673,-0.18959,0.0,2023,6,7,15,25,16,350
42.62800,-0.01960,-0.20702,0.00000,0.03013,0.97624,-0.18800,0.0,2023,6,7,15,25,16,360
42.62810,-0.08960,0.05548,0.00000,0.03123,0.97563,-0.19032,0.0,2023,6,7,15,25,16,370
42.62820,0.27790,-0.10202,0.00000,0.03196,0.97502,-0.18751,0.0,2023,6,7,15,25,16,380
42.62830,0.05040,-0.17202,0.00000,0.03148,0.97820,-0.18861,0.0,2023,6,7,15,25,16,390
42.62840,-0.17710,0.00298,0.00000,0.03148,0.97515,-0.18751,0.0,2023,6,7,15,25,16,400
42.62850,0.05040,-0.04952,0.00000,0.03148,0.97698,-0.18776,0.0,2023,6,7,15,25,16,410
42.62860,-0.00210,-0.01452,0.00000,0.02928,0.97563,-0.18873,0.0,2023,6,7,15,25,16,420
42.62870,-0.15960,0.28298,0.00000,0.03318,0.97929,-0.18800,0.0,2023,6,7,15,25,16,430
42.62880,-0.10710,0.16048,0.00000,0.03148,0.97466,-0.18800,0.0,2023,6,7,15,25,16,440
42.62890,-0.01960,-0.08452,0.00000,0.03257,0.97649,-0.18690,0.0,2023,6,7,15,25,16,450
42.62900,-0.00210,-0.03202,0.00000,0.03062,0.97661,-0.18776,0.0,2023,6,7,15,25,16,460
42.62910,-0.10710,-0.04952,0.00000,0.03062,0.97698,-0.18947,0.0,2023,6,7,15,25,16,470
42.62920,0.06790,-0.03202,0.00000,0.03111,0.97771,-0.18971,0.0,2023,6,7,15,25,16,480
42.62930,-0.03710,0.24798,0.00000,0.03196,0.97551,-0.18947,0.0,2023,6,7,15,25,16,490
42.62940,0.05040,-0.20702,0.00000,0.03233,0.97576,-0.18971,0.0,2023,6,7,15,25,16,500
42.62950,0.06790,0.02048,0.00000,0.02879,0.97612,-0.18898,0.0,2023,6,7,15,25,16,510
42.62960,0.20790,-0.22452,0.00000,0.02928,0.97588,-0.18776,0.0,2023,6,7,15,25,16,520
42.62970,-0.01960,0.09048,0.00000,0.02965,0.97698,-0.18873,0.0,2023,6,7,15,25,16,530
42.62980,-0.08960,0.14298,0.00000,0.03135,0.97563,-0.19008,0.0,2023,6,7,15,25,16,540
42.62990,-0.15960,-0.01452,0.00000,0.03331,0.97771,-0.18825,0.0,2023,6,7,15,25,16,550
42.63000,0.03290,0.24798,0.00000,0.03221,0.97637,-0.18959,0.0,2023,6,7,15,25,16,560
42.63010,-0.12460,0.05548,0.00000,0.03233,0.97673,-0.18764,0.0,2023,6,7,15,25,16,570
42.63020,0.01540,0.00298,0.00000,0.03062,0.97563,-0.19093,0.0,2023,6,7,15,25,16,580
42.63030,0.05040,0.05548,0.00000,0.03257,0.97734,-0.18825,0.0,2023,6,7,15,25,16,590
42.63040,-0.12460,0.03798,0.00000,0.03038,0.97746,-0.18825,0.0,2023,6,7,15,25,16,600
42.63050,-0.08960,0.23048,0.00000,0.03135,0.97527,-0.18873,0.0,2023,6,7,15,25,16,610
42.63060,0.06790,0.12548,0.00000,0.03123,0.97393,-0.18764,0.0,2023,6,7,15,25,16,620
42.63070,-0.00210,-0.11952,0.00000,0.03062,0.97759,-0.18825,0.0,2023,6,7,15,25,16,630
42.63080,-0.07210,0.21298,0.00000,0.03160,0.97917,-0.18727,0.0,2023,6,7,15,25,16,640
42.63090,0.12040,0.05548,0.00000,0.03087,0.97710,-0.18898,0.0,2023,6,7,15,25,16,650
42.63100,0.01540,0.12548,0.00000,0.03026,0.97502,-0.18861,0.0,2023,6,7,15,25,16,660
42.63110,-0.07210,0.03798,0.00000,0.03306,0.97783,-0.18861,0.0,2023,6,7,15,25,16,670
42.63120,-0.14210,-0.10202,0.00000,0.03062,0.97576,-0.18764,0.0,2023,6,7,15,25,16,680
42.63130,-0.05460,0.10798,0.00000,0.03148,0.97588,-0.18849,0.0,2023,6,7,15,25,16,690
42.63140,0.05040,0.03798,0.00000,0.03087,0.97795,-0.18654,0.0,2023,6,7,15,25,16,700
42.63150,0.03290,-0.11952,0.00000,0.03160,0.97820,-0.18690,0.0,2023,6,7,15,25,16,710
42.63160,-0.12460,0.03798,0.00000,0.02879,0.97502,-0.18886,0.0,2023,6,7,15,25,16,720
42.63170,0.12040,0.05548,0.00000,0.03038,0.97588,-0.18776,0.0,2023,6,7,15,25,16,730
42.63180,0.13790,0.03798,0.00000,0.03087,0.97576,-0.18739,0.0,2023,6,7,15,25,16,740
42.63190,0.12040,-0.01452,0.00000,0.02977,0.97624,-0.18642,0.0,2023,6,7,15,25,16,750
42.63200,-0.14210,-0.04952,0.00000,0.03318,0.97734,-0.18947,0.0,2023,6,7,15,25,16,760
42.63210,0.15540,0.07298,0.00000,0.03172,0.97698,-0.18947,0.0,2023,6,7,15,25,16,770
42.63220,-0.07210,0.02048,0.00000,0.03087,0.97576,-0.18666,0.0,2023,6,7,15,25,16,780
42.63230,0.06790,-0.08452,0.00000,0.03172,0.97746,-0.18568,0.0,2023,6,7,15,25,16,790
42.63240,0.08540,-0.15452,0.00000,0.03404,0.97563,-0.18800,0.0,2023,6,7,15,25,16,800
42.63250,0.05040,-0.04952,0.00000,0.02916,0.97515,-0.18715,0.0,2023,6,7,15,25,16,810
42.63260,-0.01960,-0.13702,0.00000,0.03233,0.97515,-0.18544,0.0,2023,6,7,15,25,16,820
42.63270,-0.03710,0.10798,0.00000,0.03148,0.97490,-0.18751,0.0,2023,6,7,15,25,16,830
42.63280,0.01540,0.09048,0.00000,0.03148,0.97393,-0.18605,0.0,2023,6,7,15,25,16,840
42.63290,0.19040,0.03798,0.00000,0.03087,0.97637,-0.18617,0.0,2023,6,7,15,25,16,850
42.63300,0.01540,-0.13702,0.00000,0.03172,0.97612,-0.18739,0.0,2023,6,7,15,25,16,860
42.63310,0.05040,0.14298,0.00000,0.03196,0.97856,-0.18849,0.0,2023,6,7,15,25,16,870
42.63320,0.10290,-0.10202,0.00000,0.03172,0.97844,-0.18898,0.0,2023,6,7,15,25,16,880
42.63330,0.03290,-0.03202,0.00000,0.02989,0.97563,-0.18642,0.0,2023,6,7,15,25,16,890
42.63340,-0.07210,0.02048,0.00000,0.03196,0.97588,-0.18861,0.0,2023,6,7,15,25,16,900
42.63350,-0.12460,0.16048,0.00000,0.03233,0.97539,-0.18605,0.0,2023,6,7,15,25,16,910
42.63360,0.06790,0.00298,0.00000,0.03087,0.97637,-0.18703,0.0,2023,6,7,15,25,16,920
42.63370,0.01540,-0.15452,0.00000,0.03196,0.97820,-0.18776,0.0,2023,6,7,15,25,16,930
42.63380,-0.05460,0.05548,0.00000,0.03087,0.97624,-0.18739,0.0,2023,6,7,15,25,16,940
42.63390,-0.12460,0.16048,0.00000,0.03343,0.97600,-0.18715,0.0,2023,6,7,15,25,16,950
42.63400,-0.03710,-0.01452,0.00000,0.03282,0.97637,-0.18861,0.0,2023,6,7,15,25,16,960
42.63410,-0.07210,0.07298,0.00000,0.03148,0.97783,-0.18727,0.0,2023,6,7,15,25,16,970
42.63420,-0.01960,-0.06702,0.00000,0.03050,0.97673,-0.18629,0.0,2023,6,7,15,25,16,980
42.63430,-0.26460,0.00298,0.00000,0.03294,0.97502,-0.18666,0.0,2023,6,7,15,25,16,990
42.63440,-0.19460,0.00298,0.00000,0.03111,0.97502,-0.18678,0.0,2023,6,7,15,25,16,0
42.63450,-0.10710,-0.08452,0.00000,0.03221,0.97576,-0.18434,0.0,2023,6,7,15,25,16,10
42.63460,-0.08960,0.05548,0.00000,0.03123,0.97624,-0.18910,0.0,2023,6,7,15,25,16,20
42.63470,-0.05460,0.14298,0.00000,0.03001,0.97685,-0.18642,0.0,2023,6,7,15,25,16,30
42.63480,-0.01960,0.02048,0.00000,0.03135,0.97563,-0.18703,0.0,2023,6,7,15,25,16,40
42.63490,0.13790,-0.01452,0.00000,0.03111,0.97637,-0.18629,0.0,2023,6,7,15,25,16,50
42.63500,-0.07210,0.12548,0.00000,0.03087,0.97820,-0.18812,0.0,2023,6,7,15,25,16,60
42.63510,0.03290,-0.01452,0.00000,0.03282,0.97722,-0.18690,0.0,2023,6,7,15,25,16,70
42.63520,0.08540,0.12548,0.00000,0.03209,0.97746,-0.18800,0.0,2023,6,7,15,25,17,80
42.63530,-0.07210,0.10798,0.00000,0.03196,0.97344,-0.18593,0.0,2023,6,7,15,25,17,90
42.63540,0.08540,0.02048,0.00000,0.03209,0.97539,-0.18593,0.0,2023,6,7,15,25,17,100
42.63550,-0.12460,0.12548,0.00000,0.03233,0.97466,-0.18910,0.0,2023,6,7,15,25,17,110
42.63560,0.06790,0.03798,0.00000,0.03245,0.97283,-0.18593,0.0,2023,6,7,15,25,17,120
42.63570,0.19040,-0.11952,0.00000,0.03245,0.97637,-0.18544,0.0,2023,6,7,15,25,17,130
42.63580,0.01540,0.03798,0.00000,0.03111,0.97563,-0.18617,0.0,2023,6,7,15,25,17,140
42.63590,-0.03710,0.16048,0.00000,0.03062,0.97685,-0.18812,0.0,2023,6,7,15,25,17,150
42.63600,-0.19460,0.09048,0.00000,0.03209,0.97624,-0.18703,0.0,2023,6,7,15,25,17,160
42.63610,-0.00210,-0.31202,0.00000,0.03172,0.97722,-0.18837,0.0,2023,6,7,15,25,17,170
42.63620,-0.10710,-0.06702,0.00000,0.03282,0.97612,-0.18873,0.0,2023,6,7,15,25,17,180
42.63630,0.03290,-0.06702,0.00000,0.03196,0.97490,-0.18983,0.0,2023,6,7,15,25,17,190
42.63640,0.13790,-0.18952,0.00000,0.03221,0.97588,-0.18605,0.0,2023,6,7,15,25,17,200
42.63650,0.05040,-0.18952,0.00000,0.03038,0.97673,-0.18690,0.0,2023,6,7,15,25,17,210
42.63660,0.03290,-0.06702,0.00000,0.03148,0.97759,-0.18751,0.0,2023,6,7,15,25,17,220
42.63670,0.06790,-0.01452,0.00000,0.03111,0.97637,-0.18739,0.0,2023,6,7,15,25,17,230
42.63680,0.22540,-0.03202,0.00000,0.02989,0.97698,-0.18715,0.0,2023,6,7,15,25,17,240
42.63690,-0.08960,0.21298,0.00000,0.03123,0.97417,-0.18715,0.0,2023,6,7,15,25,17,250
42.63700,-0.10710,-0.10202,0.00000,0.03111,0.97588,-0.18568,0.0,2023,6,7,15,25,17,260
42.63710,0.06790,-0.13702,0.00000,0.03099,0.97685,-0.18922,0.0,2023,6,7,15,25,17,270
42.63720,-0.14210,0.07298,0.00000,0.03294,0.97551,-0.18568,0.0,2023,6,7,15,25,17,280
42.63730,-0.14210,0.00298,0.00000,0.03196,0.97722,-0.18617,0.0,2023,6,7,15,25,17,290
42.63740,0.05040,-0.06702,0.00000,0.02879,0.97807,-0.18764,0.0,2023,6,7,15,25,17,300
42.63750,0.13790,-0.08452,0.00000,0.03160,0.97649,-0.18678,0.0,2023,6,7,15,25,17,310
42.63760,0.22540,0.02048,0.00000,0.03245,0.97515,-0.18690,0.0,2023,6,7,15,25,17,320
42.63770,0.03290,-0.27702,0.00000,0.03221,0.97539,-0.18629,0.0,2023,6,7,15,25,17,330
42.63780,-0.00210,0.07298,0.00000,0.03172,0.97661,-0.18385,0.0,2023,6,7,15,25,17,340
42.63790,-0.10710,-0.08452,0.00000,0.03196,0.97441,-0.18825,0.0,2023,6,7,15,25,17,350
42.63800,0.13790,0.24798,0.00000,0.03111,0.97734,-0.18617,0.0,2023,6,7,15,25,17,360
42.63810,0.05040,-0.06702,0.00000,0.03343,0.97795,-0.18690,0.0,2023,6,7,15,25,17,370
42.63820,-0.01960,-0.08452,0.00000,0.03379,0.97759,-0.18703,0.0,2023,6,7,15,25,17,380
42.63830,0.01540,0.00298,0.00000,0.03196,0.97563,-0.18678,0.0,2023,6,7,15,25,17,390
42.63840,0.08540,-0.20702,0.00000,0.03196,0.97795,-0.18751,0.0,2023,6,7,15,25,17,400
42.63850,0.12040,-0.20702,0.00000,0.03038,0.97722,-0.18776,0.0,2023,6,7,15,25,17,410
42.63860,0.12040,-0.04952,0.00000,0.03148,0.97588,-0.18849,0.0,2023,6,7,15,25,17,420
42.63870,-0.05460,0.03798,0.00000,0.03172,0.97637,-0.18629,0.0,2023,6,7,15,25,17,430
42.63880,0.26040,-0.10202,0.00000,0.02916,0.97685,-0.18764,0.0,2023,6,7,15,25,17,440
42.63890,0.10290,0.16048,0.00000,0.03026,0.97759,-0.18776,0.0,2023,6,7,15,25,17,450
42.63900,-0.05460,0.05548,0.00000,0.03172,0.97393,-0.18800,0.0,2023,6,7,15,25,17,460
42.63910,0.08540,-0.08452,0.00000,0.03221,0.97502,-0.18825,0.0,2023,6,7,15,25,17,470
42.63920,-0.10710,0.10798,0.00000,0.03123,0.97673,-0.18873,0.0,2023,6,7,15,25,17,480
42.63930,-0.01960,0.16048,0.00000,0.03148,0.97783,-0.18898,0.0,2023,6,7,15,25,17,490
42.63940,-0.03710,0.31798,0.00000,0.03343,0.97576,-0.18703,0.0,2023,6,7,15,25,17,500
42.63950,0.06790,0.10798,0.00000,0.02965,0.97551,-0.18947,0.0,2023,6,7,15,25,17,510
42.63960,-0.05460,-0.06702,0.00000,0.03209,0.97539,-0.18812,0.0,2023,6,7,15,25,17,520
42.63970,-0.10710,0.10798,0.00000,0.03196,0.97661,-0.18678,0.0,2023,6,7,15,25,17,530
42.63980,-0.01960,-0.04952,0.00000,0.03343,0.97685,-0.18788,0.0,2023,6,7,15,25,17,540
42.63990,-0.08960,0.00298,0.00000,0.03050,0.97673,-0.18776,0.0,2023,6,7,15,25,17,550
42.64000,-0.07210,-0.03202,0.00000,0.03074,0.97746,-0.18642,0.0,2023,6,7,15,25,17,560
42.64010,-0.10710,-0.08452,0.00000,0.03221,0.97466,-0.18593,0.0,2023,6,7,15,25,17,570
42.64020,0.06790,-0.11952,0.00000,0.03282,0.97722,-0.18812,0.0,2023,6,7,15,25,17,580
42.64030,-0.01960,0.00298,0.00000,0.03196,0.97539,-0.18776,0.0,2023,6,7,15,25,17,590
42.64040,-0.14210,0.03798,0.00000,0.03135,0.97344,-0.18837,0.0,2023,6,7,15,25,17,600
42.64050,0.05040,-0.03202,0.00000,0.02965,0.97771,-0.18922,0.0,2023,6,7,15,25,17,610
42.64060,-0.03710,0.02048,0.00000,0.03099,0.97588,-0.18739,0.0,2023,6,7,15,25,17,620
42.64070,-0.05460,-0.22452,0.00000,0.03294,0.97759,-0.18666,0.0,2023,6,7,15,25,17,630
42.64080,0.05040,-0.03202,0.00000,0.03282,0.97661,-0.18703,0.0,2023,6,7,15,25,17,640
42.64090,-0.15960,0.02048,0.00000,0.03013,0.97490,-0.18849,0.0,2023,6,7,15,25,17,650
42.64100,-0.08960,0.26548,0.00000,0.03160,0.97490,-0.18812,0.0,2023,6,7,15,25,17,660
42.64110,-0.12460,0.05548,0.00000,0.03209,0.97734,-0.18642,0.0,2023,6,7,15,25,17,670
42.64120,-0.10710,0.12548,0.00000,0.03270,0.97734,-0.18788,0.0,2023,6,7,15,25,17,680
42.64130,-0.15960,0.02048,0.00000,0.03331,0.97649,-0.18642,0.0,2023,6,7,15,25,17,690
42.64140,-0.01960,-0.17202,0.00000,0.03099,0.97698,-0.18764,0.0,2023,6,7,15,25,17,700
42.64150,-0.00210,0.03798,0.00000,0.03257,0.97539,-0.18715,0.0,2023,6,7,15,25,17,710
42.64160,0.20790,-0.20702,0.00000,0.03148,0.97771,-0.18837,0.0,2023,6,7,15,25,17,720
42.64170,0.08540,-0.04952,0.00000,0.03172,0.97990,-0.18873,0.0,2023,6,7,15,25,17,730
42.64180,0.08540,-0.24202,0.00000,0.03099,0.97612,-0.18861,0.0,2023,6,7,15,25,17,740
42.64190,0.05040,-0.13702,0.00000,0.03184,0.97490,-0.18605,0.0,2023,6,7,15,25,17,750
42.64200,0.20790,-0.20702,0.00000,0.03209,0.97661,-0.18629,0.0,2023,6,7,15,25,17,760
42.64210,-0.10710,0.21298,0.00000,0.03160,0.97600,-0.18886,0.0,2023,6,7,15,25,17,770
42.64220,0.10290,0.02048,0.00000,0.03245,0.97478,-0.18593,0.0,2023,6,7,15,25,17,780
42.64230,0.13790,-0.10202,0.00000,0.02977,0.97624,-0.18947,0.0,2023,6,7,15,25,17,790
42.64240,0.06790,-0.10202,0.00000,0.03221,0.97515,-0.18605,0.0,2023,6,7,15,25,17,800
42.64250,-0.08960,0.26548,0.00000,0.03111,0.97624,-0.18727,0.0,2023,6,7,15,25,17,810
42.64260,-0.05460,-0.03202,0.00000,0.02952,0.97502,-0.19020,0.0,2023,6,7,15,25,17,820
42.64270,0.12040,0.09048,0.00000,0.03074,0.97539,-0.18849,0.0,2023,6,7,15,25,17,830
42.64280,-0.05460,0.12548,0.00000,0.03123,0.97551,-0.18507,0.0,2023,6,7,15,25,17,840
42.64290,0.10290,0.12548,0.00000,0.03123,0.97588,-0.18764,0.0,2023,6,7,15,25,17,850
42.64300,0.03290,-0.17202,0.00000,0.03123,0.97441,-0.18788,0.0,2023,6,7,15,25,17,860
42.64310,-0.08960,-0.20702,0.00000,0.03050,0.97527,-0.18861,0.0,2023,6,7,15,25,17,870
42.64320,-0.15960,-0.03202,0.00000,0.03062,0.97588,-0.18715,0.0,2023,6,7,15,25,17,880
42.64330,-0.08960,0.12548,0.00000,0.03123,0.97624,-0.18739,0.0,2023,6,7,15,25,17,890
42.64340,-0.00210,0.02048,0.00000,0.03245,0.97588,-0.18947,0.0,2023,6,7,15,25,17,900
42.64350,-0.03710,-0.01452,0.00000,0.03221,0.97795,-0.18873,0.0,2023,6,7,15,25,17,910
42.64360,-0.12460,0.00298,0.00000,0.03209,0.97917,-0.18764,0.0,2023,6,7,15,25,17,920
42.64370,-0.07210,-0.01452,0.00000,0.03050,0.97600,-0.18532,0.0,2023,6,7,15,25,17,930
42.64380,0.03290,-0.06702,0.00000,0.03123,0.97783,-0.18873,0.0,2023,6,7,15,25,17,940
42.64390,0.12040,-0.15452,0.00000,0.03123,0.97612,-0.18739,0.0,2023,6,7,15,25,17,950
42.64400,-0.01960,-0.15452,0.00000,0.03428,0.97661,-0.18812,0.0,2023,6,7,15,25,17,960
42.64410,0.22540,-0.18952,0.00000,0.03209,0.97710,-0.18715,0.0,2023,6,7,15,25,17,970
42.64420,-0.03710,0.07298,0.00000,0.03038,0.97600,-0.19081,0.0,2023,6,7,15,25,17,980
42.64430,-0.08960,0.09048,0.00000,0.03172,0.97576,-0.18886,0.0,2023,6,7,15,25,17,990
42.64440,-0.10710,-0.01452,0.00000,0.03184,0.97588,-0.18715,0.0,2023,6,7,15,25,17,0
42.64450,-0.00210,-0.06702,0.00000,0.03123,0.97515,-0.18642,0.0,2023,6,7,15,25,17,10
42.64460,0.08540,-0.01452,0.00000,0.03184,0.97515,-0.19044,0.0,2023,6,7,15,25,17,20
42.64470,-0.07210,0.02048,0.00000,0.03245,0.97673,-0.18812,0.0,2023,6,7,15,25,17,30
42.64480,-0.00210,-0.13702,0.00000,0.03221,0.97466,-0.18800,0.0,2023,6,7,15,25,17,40
42.64490,-0.10710,0.05548,0.00000,0.03013,0.97929,-0.18898,0.0,2023,6,7,15,25,17,50
42.64500,-0.07210,0.02048,0.00000,0.03099,0.97393,-0.18959,0.0,2023,6,7,15,25,17,60
42.64510,-0.05460,0.00298,0.00000,0.03318,0.97624,-0.18715,0.0,2023,6,7,15,25,17,70
42.64520,-0.03710,-0.10202,0.00000,0.03318,0.97502,-0.18788,0.0,2023,6,7,15,25,17,80
42.64530,0.06790,-0.04952,0.00000,0.03282,0.97527,-0.18727,0.0,2023,6,7,15,25,17,90
42.64540,0.17290,-0.36452,0.00000,0.03135,0.97685,-0.18898,0.0,2023,6,7,15,25,17,100
42.64550,-0.05460,0.05548,0.00000,0.03074,0.97661,-0.18788,0.0,2023,6,7,15,25,17,110
42.64560,0.08540,-0.06702,0.00000,0.03148,0.97685,-0.18751,0.0,2023,6,7,15,25,17,120
42.64570,0.03290,-0.15452,0.00000,0.03148,0.97637,-0.18837,0.0,2023,6,7,15,25,17,130
42.64580,-0.01960,-0.06702,0.00000,0.03160,0.97478,-0.18703,0.0,2023,6,7,15,25,17,140
42.64590,0.12040,-0.04952,0.00000,0.03062,0.97820,-0.18995,0.0,2023,6,7,15,25,17,150
42.64600,-0.03710,0.00298,0.00000,0.03221,0.97637,-0.18983,0.0,2023,6,7,15,25,17,160
42.64610,-0.15960,0.17798,0.00000,0.03148,0.97698,-0.18764,0.0,2023,6,7,15,25,18,170
42.64620,0.08540,-0.06702,0.00000,0.03196,0.97490,-0.18666,0.0,2023,6,7,15,25,18,180
42.64630,0.12040,-0.04952,0.00000,0.03026,0.97612,-0.18837,0.0,2023,6,7,15,25,18,190
42.64640,0.06790,0.09048,0.00000,0.03160,0.97637,-0.18776,0.0,2023,6,7,15,25,18,200
42.64650,-0.00210,-0.01452,0.00000,0.03050,0.97490,-0.18800,0.0,2023,6,7,15,25,18,210
42.64660,-0.03710,0.21298,0.00000,0.03135,0.97905,-0.18629,0.0,2023,6,7,15,25,18,220
42.64670,-0.05460,-0.18952,0.00000,0.03306,0.97734,-0.18776,0.0,2023,6,7,15,25,18,230
42.64680,0.13790,-0.03202,0.00000,0.03148,0.97734,-0.19020,0.0,2023,6,7,15,25,18,240
42.64690,-0.21210,-0.17202,0.00000,0.03013,0.97710,-0.18812,0.0,2023,6,7,15,25,18,250
42.64700,-0.08960,-0.11952,0.00000,0.03221,0.97515,-0.18678,0.0,2023,6,7,15,25,18,260
42.64710,-0.00210,0.07298,0.00000,0.03038,0.97624,-0.18873,0.0,2023,6,7,15,25,18,270
42.64720,-0.12460,0.14298,0.00000,0.03062,0.97612,-0.18764,0.0,2023,6,7,15,25,18,280
42.64730,0.03290,-0.06702,0.00000,0.03306,0.97637,-0.18788,0.0,2023,6,7,15,25,18,290
42.64740,0.01540,-0.17202,0.00000,0.03123,0.97649,-0.18459,0.0,2023,6,7,15,25,18,300
42.64750,-0.01960,-0.06702,0.00000,0.03184,0.97612,-0.18788,0.0,2023,6,7,15,25,18,310
42.64760,-0.01960,0.03798,0.00000,0.02916,0.97624,-0.18727,0.0,2023,6,7,15,25,18,320
42.64770,-0.05460,0.03798,0.00000,0.02977,0.97624,-0.19044,0.0,2023,6,7,15,25,18,330
42.64780,-0.03710,-0.10202,0.00000,0.03111,0.97588,-0.18776,0.0,2023,6,7,15,25,18,340
42.64790,-0.01960,-0.18952,0.00000,0.03294,0.97746,-0.18947,0.0,2023,6,7,15,25,18,350
42.64800,0.12040,0.16048,0.00000,0.03221,0.97795,-0.18898,0.0,2023,6,7,15,25,18,360
42.64810,-0.21210,0.02048,0.00000,0.02977,0.97624,-0.18922,0.0,2023,6,7,15,25,18,370
42.64820,0.13790,-0.13702,0.00000,0.03148,0.97722,-0.18751,0.0,2023,6,7,15,25,18,380
42.64830,-0.14210,0.16048,0.00000,0.03148,0.97673,-0.18764,0.0,2023,6,7,15,25,18,390
42.64840,0.05040,-0.06702,0.00000,0.03074,0.97771,-0.18995,0.0,2023,6,7,15,25,18,400
42.64850,-0.01960,0.00298,0.00000,0.03306,0.97637,-0.18812,0.0,2023,6,7,15,25,18,410
42.64860,-0.10710,-0.15452,0.00000,0.03282,0.97551,-0.18605,0.0,2023,6,7,15,25,18,420
42.64870,0.05040,0.09048,0.00000,0.03123,0.97478,-0.18422,0.0,2023,6,7,15,25,18,430
42.64880,0.19040,-0.06702,0.00000,0.03355,0.97624,-0.18922,0.0,2023,6,7,15,25,18,440
42.64890,-0.03710,-0.17202,0.00000,0.03038,0.97783,-0.18934,0.0,2023,6,7,15,25,18,450
42.64900,-0.08960,-0.15452,0.00000,0.03123,0.97759,-0.18751,0.0,2023,6,7,15,25,18,460
42.64910,-0.01960,0.05548,0.00000,0.03148,0.97515,-0.18922,0.0,2023,6,7,15,25,18,470
42.64920,0.08540,-0.04952,0.00000,0.03270,0.97576,-0.18739,0.0,2023,6,7,15,25,18,480
42.64930,0.06790,-0.01452,0.00000,0.03270,0.97563,-0.18690,0.0,2023,6,7,15,25,18,490
42.64940,0.05040,0.00298,0.00000,0.03013,0.97685,-0.18690,0.0,2023,6,7,15,25,18,500
42.64950,0.12040,-0.04952,0.00000,0.03209,0.97856,-0.18727,0.0,2023,6,7,15,25,18,510
42.64960,0.08540,-0.24202,0.00000,0.03172,0.97600,-0.18922,0.0,2023,6,7,15,25,18,520
42.64970,-0.00210,-0.15452,0.00000,0.03087,0.97673,-0.18849,0.0,2023,6,7,15,25,18,530
42.64980,0.06790,-0.10202,0.00000,0.02977,0.97539,-0.18751,0.0,2023,6,7,15,25,18,540
42.64990,-0.10710,0.17798,0.00000,0.02843,0.97734,-0.18727,0.0,2023,6,7,15,25,18,550
42.65000,-0.00210,-0.04952,0.00000,0.03123,0.97539,-0.18776,0.0,2023,6,7,15,25,18,560
42.65010,-0.05460,-0.01452,0.00000,0.02965,0.97673,-0.18886,0.0,2023,6,7,15,25,18,570
42.65020,0.10290,-0.29452,0.00000,0.03123,0.97478,-0.18886,0.0,2023,6,7,15,25,18,580
42.65030,-0.01960,0.14298,0.00000,0.03135,0.97771,-0.18800,0.0,2023,6,7,15,25,18,590
42.65040,-0.14210,0.26548,0.00000,0.03050,0.97527,-0.18861,0.0,2023,6,7,15,25,18,600
42.65050,0.22540,-0.03202,0.00000,0.02904,0.97429,-0.18764,0.0,2023,6,7,15,25,18,610
42.65060,0.05040,0.07298,0.00000,0.03318,0.97734,-0.18837,0.0,2023,6,7,15,25,18,620
42.65070,-0.12460,-0.04952,0.00000,0.03026,0.97966,-0.18776,0.0,2023,6,7,15,25,18,630
42.65080,0.10290,0.03798,0.00000,0.02928,0.97490,-0.18666,0.0,2023,6,7,15,25,18,640
42.65090,-0.00210,-0.04952,0.00000,0.03013,0.97734,-0.18922,0.0,2023,6,7,15,25,18,650
42.65100,-0.00210,0.05548,0.00000,0.03013,0.97527,-0.18629,0.0,2023,6,7,15,25,18,660
42.65110,-0.17710,-0.04952,0.00000,0.03050,0.97820,-0.18654,0.0,2023,6,7,15,25,18,670
42.65120,-0.08960,0.09048,0.00000,0.03160,0.97344,-0.18776,0.0,2023,6,7,15,25,18,680
42.65130,0.06790,0.05548,0.00000,0.03013,0.97698,-0.18678,0.0,2023,6,7,15,25,18,690
42.65140,-0.00210,-0.03202,0.00000,0.03172,0.97734,-0.18703,0.0,2023,6,7,15,25,18,700
42.65150,0.01540,0.00298,0.00000,0.03001,0.97832,-0.18617,0.0,2023,6,7,15,25,18,710
42.65160,0.03290,-0.01452,0.00000,0.03196,0.97698,-0.18715,0.0,2023,6,7,15,25,18,720
42.65170,0.17290,0.00298,0.00000,0.03221,0.97380,-0.18605,0.0,2023,6,7,15,25,18,730
42.65180,-0.01960,-0.18952,0.00000,0.03123,0.97539,-0.18654,0.0,2023,6,7,15,25,18,740
42.65190,-0.19460,0.00298,0.00000,0.03062,0.97649,-0.18776,0.0,2023,6,7,15,25,18,750
42.65200,-0.17710,0.05548,0.00000,0.03087,0.97637,-0.18690,0.0,2023,6,7,15,25,18,760
42.65210,0.10290,-0.10202,0.00000,0.03087,0.97722,-0.18861,0.0,2023,6,7,15,25,18,770
42.65220,-0.15960,0.14298,0.00000,0.03355,0.97624,-0.18690,0.0,2023,6,7,15,25,18,780
42.65230,-0.01960,0.02048,0.00000,0.03160,0.97319,-0.18739,0.0,2023,6,7,15,25,18,790
42.65240,-0.10710,0.07298,0.00000,0.03209,0.97490,-0.18886,0.0,2023,6,7,15,25,18,800
42.65250,0.03290,-0.03202,0.00000,0.02879,0.97673,-0.18861,0.0,2023,6,7,15,25,18,810
42.65260,0.13790,-0.04952,0.00000,0.03013,0.97734,-0.18678,0.0,2023,6,7,15,25,18,820
42.65270,-0.03710,-0.01452,0.00000,0.02891,0.97698,-0.18642,0.0,2023,6,7,15,25,18,830
42.65280,-0.14210,0.07298,0.00000,0.03062,0.97978,-0.18556,0.0,2023,6,7,15,25,18,840
42.65290,-0.17710,-0.11952,0.00000,0.03099,0.97698,-0.18873,0.0,2023,6,7,15,25,18,850
42.65300,-0.08960,-0.01452,0.00000,0.03257,0.97746,-0.18764,0.0,2023,6,7,15,25,18,860
42.65310,-0.05460,0.05548,0.00000,0.03184,0.97637,-0.18617,0.0,2023,6,7,15,25,18,870
42.65320,0.03290,0.05548,0.00000,0.03038,0.97746,-0.18800,0.0,2023,6,7,15,25,18,880
42.65330,-0.08960,0.00298,0.00000,0.03087,0.97783,-0.18910,0.0,2023,6,7,15,25,18,890
42.65340,0.15540,-0.13702,0.00000,0.02916,0.97649,-0.18800,0.0,2023,6,7,15,25,18,900
42.65350,0.12040,-0.17202,0.00000,0.03184,0.97759,-0.18678,0.0,2023,6,7,15,25,18,910
42.65360,-0.12460,0.33548,0.00000,0.03367,0.97527,-0.18776,0.0,2023,6,7,15,25,18,920
42.65370,-0.01960,0.00298,0.00000,0.03245,0.97917,-0.18739,0.0,2023,6,7,15,25,18,930
42.65380,-0.10710,-0.03202,0.00000,0.03074,0.97637,-0.18629,0.0,2023,6,7,15,25,18,940
42.65390,-0.08960,0.07298,0.00000,0.03099,0.97698,-0.18666,0.0,2023,6,7,15,25,18,950
42.65400,0.10290,-0.01452,0.00000,0.03184,0.97637,-0.18849,0.0,2023,6,7,15,25,18,960
42.65410,-0.15960,0.02048,0.00000,0.03245,0.97722,-0.18886,0.0,2023,6,7,15,25,18,970
42.65420,0.19040,0.00298,0.00000,0.02989,0.97820,-0.18654,0.0,2023,6,7,15,25,18,980
42.65430,-0.03710,0.00298,0.00000,0.03257,0.97649,-0.18703,0.0,2023,6,7,15,25,18,990
42.65440,0.10290,-0.20702,0.00000,0.03209,0.97698,-0.18690,0.0,2023,6,7,15,25,18,0
42.65450,0.08540,0.16048,0.00000,0.03257,0.97515,-0.18837,0.0,2023,6,7,15,25,18,10
42.65460,0.05040,-0.10202,0.00000,0.03257,0.97588,-0.18642,0.0,2023,6,7,15,25,18,20
42.65470,0.05040,-0.06702,0.00000,0.03209,0.97600,-0.18776,0.0,2023,6,7,15,25,18,30
42.65480,0.01540,0.12548,0.00000,0.03184,0.97661,-0.18812,0.0,2023,6,7,15,25,18,40
42.65490,-0.03710,-0.10202,0.00000,0.03001,0.97698,-0.18593,0.0,2023,6,7,15,25,18,50
42.65500,0.17290,0.14298,0.00000,0.03013,0.97527,-0.18739,0.0,2023,6,7,15,25,18,60
42.65510,-0.05460,-0.22452,0.00000,0.03148,0.97685,-0.18532,0.0,2023,6,7,15,25,19,70
42.65520,0.06790,-0.24202,0.00000,0.03172,0.97783,-0.18593,0.0,2023,6,7,15,25,19,80
42.65530,-0.03710,-0.06702,0.00000,0.02965,0.97637,-0.18727,0.0,2023,6,7,15,25,19,90
42.65540,-0.15960,0.23048,0.00000,0.03282,0.97612,-0.18886,0.0,2023,6,7,15,25,19,100
42.65550,-0.22960,0.00298,0.00000,0.03123,0.97490,-0.18678,0.0,2023,6,7,15,25,19,110
42.65560,-0.12460,0.10798,0.00000,0.02928,0.97441,-0.18629,0.0,2023,6,7,15,25,19,120
42.65570,0.08540,0.09048,0.00000,0.03099,0.97466,-0.18715,0.0,2023,6,7,15,25,19,130
42.65580,0.17290,-0.08452,0.00000,0.03172,0.97502,-0.18593,0.0,2023,6,7,15,25,19,140
42.65590,0.03290,-0.04952,0.00000,0.03013,0.97722,-0.18776,0.0,2023,6,7,15,25,19,150
42.65600,-0.12460,0.00298,0.00000,0.03233,0.97600,-0.18727,0.0,2023,6,7,15,25,19,160
42.65610,-0.10710,0.24798,0.00000,0.03099,0.97734,-0.18678,0.0,2023,6,7,15,25,19,170
42.65620,0.05040,-0.08452,0.00000,0.03196,0.97661,-0.18727,0.0,2023,6,7,15,25,19,180
42.65630,-0.00210,0.00298,0.00000,0.03074,0.97710,-0.18703,0.0,2023,6,7,15,25,19,190
42.65640,0.06790,-0.13702,0.00000,0.03233,0.97576,-0.18934,0.0,2023,6,7,15,25,19,200
42.65650,0.01540,-0.11952,0.00000,0.03123,0.97478,-0.18837,0.0,2023,6,7,15,25,19,210
42.65660,-0.07210,-0.04952,0.00000,0.03245,0.97673,-0.18776,0.0,2023,6,7,15,25,19,220
42.65670,0.19040,0.02048,0.00000,0.03257,0.97576,-0.18666,0.0,2023,6,7,15,25,19,230
42.65680,0.13790,-0.18952,0.00000,0.03148,0.97832,-0.18532,0.0,2023,6,7,15,25,19,240
42.65690,-0.01960,0.00298,0.00000,0.03160,0.97734,-0.18849,0.0,2023,6,7,15,25,19,250
42.65700,0.10290,0.00298,0.00000,0.03282,0.97637,-0.18776,0.0,2023,6,7,15,25,19,260
42.65710,-0.03710,-0.01452,0.00000,0.03282,0.97441,-0.18861,0.0,2023,6,7,15,25,19,270
42.65720,0.06790,-0.10202,0.00000,0.03135,0.97649,-0.18910,0.0,2023,6,7,15,25,19,280
42.65730,-0.12460,-0.04952,0.00000,0.03221,0.97563,-0.18617,0.0,2023,6,7,15,25,19,290
42.65740,-0.05460,-0.08452,0.00000,0.03172,0.97685,-0.18715,0.0,2023,6,7,15,25,19,300
42.65750,0.05040,-0.17202,0.00000,0.03160,0.97600,-0.18678,0.0,2023,6,7,15,25,19,310
42.65760,-0.03710,-0.04952,0.00000,0.03111,0.97417,-0.18727,0.0,2023,6,7,15,25,19,320
42.65770,0.06790,-0.18952,0.00000,0.03257,0.97502,-0.18629,0.0,2023,6,7,15,25,19,330
42.65780,-0.03710,-0.04952,0.00000,0.03233,0.97527,-0.18959,0.0,2023,6,7,15,25,19,340
42.65790,-0.03710,0.02048,0.00000,0.03184,0.97527,-0.18617,0.0,2023,6,7,15,25,19,350
42.65800,0.17290,-0.01452,0.00000,0.03184,0.97807,-0.18776,0.0,2023,6,7,15,25,19,360
42.65810,-0.08960,0.10798,0.00000,0.03099,0.97673,-0.18483,0.0,2023,6,7,15,25,19,370
42.65820,-0.14210,-0.01452,0.00000,0.03135,0.97734,-0.18642,0.0,2023,6,7,15,25,19,380
42.65830,0.12040,-0.06702,0.00000,0.03209,0.97588,-0.18520,0.0,2023,6,7,15,25,19,390
42.65840,0.03290,-0.10202,0.00000,0.03196,0.97576,-0.18642,0.0,2023,6,7,15,25,19,400
42.65850,-0.03710,-0.06702,0.00000,0.03099,0.97685,-0.18642,0.0,2023,6,7,15,25,19,410
42.65860,0.12040,-0.08452,0.00000,0.03013,0.97539,-0.18727,0.0,2023,6,7,15,25,19,420
42.65870,-0.05460,0.00298,0.00000,0.03233,0.97661,-0.18581,0.0,2023,6,7,15,25,19,430
42.65880,-0.05460,0.03798,0.00000,0.03050,0.97637,-0.18654,0.0,2023,6,7,15,25,19,440
42.65890,-0.10710,0.07298,0.00000,0.03172,0.97478,-0.18703,0.0,2023,6,7,15,25,19,450
42.65900,-0.07210,0.24798,0.00000,0.03306,0.97551,-0.18495,0.0,2023,6,7,15,25,19,460
42.65910,-0.15960,0.02048,0.00000,0.03257,0.97661,-0.18703,0.0,2023,6,7,15,25,19,470
42.65920,-0.00210,0.02048,0.00000,0.03221,0.97405,-0.18642,0.0,2023,6,7,15,25,19,480
42.65930,0.08540,-0.10202,0.00000,0.03160,0.97637,-0.18617,0.0,2023,6,7,15,25,19,490
42.65940,0.08540,0.03798,0.00000,0.03294,0.97576,-0.18471,0.0,2023,6,7,15,25,19,500
42.65950,-0.00210,0.05548,0.00000,0.03196,0.97746,-0.18715,0.0,2023,6,7,15,25,19,510
42.65960,-0.00210,0.00298,0.00000,0.03087,0.97649,-0.18788,0.0,2023,6,7,15,25,19,520
42.65970,0.03290,-0.10202,0.00000,0.03282,0.97673,-0.18495,0.0,2023,6,7,15,25,19,530
42.65980,0.03290,-0.13702,0.00000,0.03148,0.97795,-0.18629,0.0,2023,6,7,15,25,19,540
42.65990,0.06790,0.09048,0.00000,0.03196,0.97661,-0.18605,0.0,2023,6,7,15,25,19,550
42.66000,-0.03710,-0.10202,0.00000,0.03172,0.97563,-0.18898,0.0,2023,6,7,15,25,19,560
42.66010,-0.14210,-0.24202,0.00000,0.03160,0.97820,-0.18654,0.0,2023,6,7,15,25,19,570
42.66020,0.08540,-0.15452,0.00000,0.03013,0.97441,-0.18654,0.0,2023,6,7,15,25,19,580
42.66030,0.10290,-0.03202,0.00000,0.03050,0.97539,-0.18666,0.0,2023,6,7,15,25,19,590
42.66040,-0.08960,0.12548,0.00000,0.03123,0.97527,-0.18776,0.0,2023,6,7,15,25,19,600
42.66050,-0.01960,0.03798,0.00000,0.03111,0.97515,-0.18727,0.0,2023,6,7,15,25,19,610
42.66060,-0.12460,0.09048,0.00000,0.03196,0.97478,-0.18532,0.0,2023,6,7,15,25,19,620
42.66070,0.10290,0.09048,0.00000,0.03257,0.97759,-0.18776,0.0,2023,6,7,15,25,19,630
42.66080,-0.01960,-0.04952,0.00000,0.03099,0.97551,-0.18690,0.0,2023,6,7,15,25,19,640
42.66090,-0.03710,-0.10202,0.00000,0.02965,0.97563,-0.18617,0.0,2023,6,7,15,25,19,650
42.66100,0.01540,0.17798,0.00000,0.03184,0.97685,-0.18898,0.0,2023,6,7,15,25,19,660
42.66110,-0.10710,0.02048,0.00000,0.03270,0.97490,-0.18849,0.0,2023,6,7,15,25,19,670
42.66120,0.01540,0.12548,0.00000,0.03245,0.97441,-0.18739,0.0,2023,6,7,15,25,19,680
42.66130,0.03290,0.00298,0.00000,0.03038,0.97820,-0.18764,0.0,2023,6,7,15,25,19,690
42.66140,0.17290,0.05548,0.00000,0.02965,0.97734,-0.18886,0.0,2023,6,7,15,25,19,700
42.66150,0.03290,-0.01452,0.00000,0.03111,0.97722,-0.18715,0.0,2023,6,7,15,25,19,710
42.66160,0.06790,-0.11952,0.00000,0.03038,0.97563,-0.18812,0.0,2023,6,7,15,25,19,720
42.66170,-0.07210,0.02048,0.00000,0.03111,0.97722,-0.18825,0.0,2023,6,7,15,25,19,730
42.66180,-0.05460,0.07298,0.00000,0.03074,0.97807,-0.18703,0.0,2023,6,7,15,25,19,740
42.66190,-0.12460,0.02048,0.00000,0.03209,0.97600,-0.18739,0.0,2023,6,7,15,25,19,750
42.66200,-0.10710,0.09048,0.00000,0.03123,0.97710,-0.18764,0.0,2023,6,7,15,25,19,760
42.66210,-0.05460,0.09048,0.00000,0.03196,0.97734,-0.18495,0.0,2023,6,7,15,25,19,770
42.66220,-0.03710,-0.04952,0.00000,0.03087,0.97759,-0.18556,0.0,2023,6,7,15,25,19,780
42.66230,0.22540,-0.11952,0.00000,0.02867,0.97698,-0.18666,0.0,2023,6,7,15,25,19,790
42.66240,0.12040,-0.06702,0.00000,0.02965,0.97710,-0.18690,0.0,2023,6,7,15,25,19,800
42.66250,0.03290,-0.17202,0.00000,0.02965,0.97661,-0.18800,0.0,2023,6,7,15,25,19,810
42.66260,0.03290,-0.13702,0.00000,0.03184,0.97661,-0.18739,0.0,2023,6,7,15,25,19,820
42.66270,0.17290,-0.10202,0.00000,0.03050,0.97612,-0.18593,0.0,2023,6,7,15,25,19,830
42.66280,-0.05460,0.09048,0.00000,0.03233,0.97539,-0.18629,0.0,2023,6,7,15,25,19,840
42.66290,-0.03710,-0.03202,0.00000,0.03050,0.97600,-0.18886,0.0,2023,6,7,15,25,19,850
42.66300,-0.14210,0.02048,0.00000,0.03062,0.97588,-0.18703,0.0,2023,6,7,15,25,19,860
42.66310,-0.07210,0.23048,0.00000,0.03160,0.97759,-0.18532,0.0,2023,6,7,15,25,19,870
42.66320,0.05040,-0.10202,0.00000,0.02952,0.97746,-0.18800,0.0,2023,6,7,15,25,19,880
42.66330,-0.07210,0.02048,0.00000,0.03282,0.97588,-0.18739,0.0,2023,6,7,15,25,19,890
42.66340,0.03290,0.21298,0.00000,0.03294,0.97454,-0.18739,0.0,2023,6,7,15,25,19,900
42.66350,0.17290,-0.04952,0.00000,0.03111,0.97612,-0.18873,0.0,2023,6,7,15,25,19,910
42.66360,-0.03710,0.10798,0.00000,0.02989,0.97795,-0.18690,0.0,2023,6,7,15,25,19,920
42.66370,0.06790,-0.10202,0.00000,0.03209,0.97478,-0.18568,0.0,2023,6,7,15,25,19,930
42.66380,-0.12460,0.16048,0.00000,0.02977,0.97551,-0.18739,0.0,2023,6,7,15,25,19,940
42.66390,0.03290,-0.15452,0.00000,0.03123,0.97722,-0.18629,0.0,2023,6,7,15,25,19,950
42.66400,0.12040,-0.01452,0.00000,0.03209,0.97698,-0.18764,0.0,2023,6,7,15,25,19,960
42.66410,0.06790,0.03798,0.00000,0.03123,0.97685,-0.18605,0.0,2023,6,7,15,25,19,970
42.66420,0.19040,-0.17202,0.00000,0.03465,0.97685,-0.18715,0.0,2023,6,7,15,25,20,980
42.66430,-0.10710,0.19548,0.00000,0.03367,0.97612,-0.18751,0.0,2023,6,7,15,25,20,990
42.66440,-0.01960,0.09048,0.00000,0.02867,0.97759,-0.18666,0.0,2023,6,7,15,25,20,0
42.66450,-0.03710,0.17798,0.00000,0.03013,0.97466,-0.18812,0.0,2023,6,7,15,25,20,10
42.66460,0.05040,0.03798,0.00000,0.03074,0.97588,-0.18751,0.0,2023,6,7,15,25,20,20
42.66470,0.03290,-0.24202,0.00000,0.03135,0.97685,-0.18642,0.0,2023,6,7,15,25,20,30
42.66480,-0.12460,0.05548,0.00000,0.03111,0.97466,-0.18751,0.0,2023,6,7,15,25,20,40
42.66490,-0.14210,0.05548,0.00000,0.03294,0.97905,-0.18605,0.0,2023,6,7,15,25,20,50
42.66500,0.03290,0.10798,0.00000,0.03026,0.97673,-0.18983,0.0,2023,6,7,15,25,20,60
42.66510,0.12040,-0.15452,0.00000,0.02904,0.97441,-0.18642,0.0,2023,6,7,15,25,20,70
42.66520,-0.01960,0.02048,0.00000,0.02989,0.97527,-0.18910,0.0,2023,6,7,15,25,20,80
42.66530,-0.07210,0.26548,0.00000,0.03087,0.97698,-0.18617,0.0,2023,6,7,15,25,20,90
42.66540,-0.08960,0.12548,0.00000,0.03026,0.97551,-0.18776,0.0,2023,6,7,15,25,20,100
42.66550,0.12040,-0.03202,0.00000,0.03087,0.97563,-0.18703,0.0,2023,6,7,15,25,20,110
42.66560,0.06790,-0.22452,0.00000,0.02940,0.97807,-0.18764,0.0,2023,6,7,15,25,20,120
42.66570,0.08540,-0.11952,0.00000,0.03111,0.97527,-0.18727,0.0,2023,6,7,15,25,20,130
42.66580,0.15540,0.02048,0.00000,0.03318,0.97576,-0.18593,0.0,2023,6,7,15,25,20,140
42.66590,0.19040,0.16048,0.00000,0.03282,0.97698,-0.18849,0.0,2023,6,7,15,25,20,150
42.66600,0.10290,-0.13702,0.00000,0.03209,0.97832,-0.18776,0.0,2023,6,7,15,25,20,160
42.66610,-0.05460,-0.01452,0.00000,0.03270,0.97490,-0.18812,0.0,2023,6,7,15,25,20,170
42.66620,-0.00210,-0.20702,0.00000,0.03270,0.97759,-0.18727,0.0,2023,6,7,15,25,20,180
42.66630,0.01540,-0.08452,0.00000,0.03196,0.97551,-0.18629,0.0,2023,6,7,15,25,20,190
42.66640,-0.19460,-0.03202,0.00000,0.03062,0.97515,-0.18568,0.0,2023,6,7,15,25,20,200
42.66650,0.06790,-0.06702,0.00000,0.03062,0.97429,-0.18751,0.0,2023,6,7,15,25,20,210
42.66660,-0.05460,-0.01452,0.00000,0.02855,0.97710,-0.18654,0.0,2023,6,7,15,25,20,220
42.66670,-0.00210,0.07298,0.00000,0.03257,0.97441,-0.18898,0.0,2023,6,7,15,25,20,230
42.66680,0.01540,-0.06702,0.00000,0.02989,0.97734,-0.18739,0.0,2023,6,7,15,25,20,240
42.66690,-0.01960,-0.03202,0.00000,0.03294,0.97698,-0.18690,0.0,2023,6,7,15,25,20,250
42.66700,-0.22960,0.10798,0.00000,0.03270,0.97820,-0.18910,0.0,2023,6,7,15,25,20,260
42.66710,-0.03710,-0.08452,0.00000,0.03050,0.97771,-0.18837,0.0,2023,6,7,15,25,20,270
42.66720,0.10290,-0.04952,0.00000,0.02952,0.97771,-0.18873,0.0,2023,6,7,15,25,20,280
42.66730,-0.24710,-0.03202,0.00000,0.03160,0.97807,-0.18764,0.0,2023,6,7,15,25,20,290
42.66740,-0.05460,0.07298,0.00000,0.03111,0.97685,-0.18690,0.0,2023,6,7,15,25,20,300
42.66750,0.10290,-0.03202,0.00000,0.03355,0.97319,-0.18556,0.0,2023,6,7,15,25,20,310
42.66760,0.03290,-0.17202,0.00000,0.03172,0.97576,-0.18886,0.0,2023,6,7,15,25,20,320
42.66770,0.17290,0.17798,0.00000,0.03196,0.97746,-0.18703,0.0,2023,6,7,15,25,20,330
42.66780,0.03290,0.00298,0.00000,0.03099,0.97478,-0.18959,0.0,2023,6,7,15,25,20,340
42.66790,0.13790,-0.17202,0.00000,0.03221,0.97380,-0.19069,0.0,2023,6,7,15,25,20,350
42.66800,-0.01960,0.07298,0.00000,0.03026,0.97710,-0.18593,0.0,2023,6,7,15,25,20,360
42.66810,0.01540,0.05548,0.00000,0.03160,0.97502,-0.18776,0.0,2023,6,7,15,25,20,370
42.66820,0.10290,0.00298,0.00000,0.03160,0.97441,-0.18947,0.0,2023,6,7,15,25,20,380
42.66830,-0.07210,0.05548,0.00000,0.03343,0.97783,-0.18886,0.0,2023,6,7,15,25,20,390
42.66840,-0.07210,0.02048,0.00000,0.03257,0.97563,-0.18715,0.0,2023,6,7,15,25,20,400
42.66850,-0.07210,-0.04952,0.00000,0.03209,0.97563,-0.18800,0.0,2023,6,7,15,25,20,410
42.66860,0.03290,0.10798,0.00000,0.03062,0.97771,-0.18690,0.0,2023,6,7,15,25,20,420
42.66870,0.10290,-0.06702,0.00000,0.03172,0.97661,-0.18849,0.0,2023,6,7,15,25,20,430
42.66880,-0.17710,0.10798,0.00000,0.03209,0.97478,-0.18825,0.0,2023,6,7,15,25,20,440
42.66890,-0.14210,0.05548,0.00000,0.03111,0.97722,-0.18861,0.0,2023,6,7,15,25,20,450
42.66900,0.01540,0.00298,0.00000,0.03050,0.97527,-0.18873,0.0,2023,6,7,15,25,20,460
42.66910,-0.08960,0.19548,0.00000,0.03172,0.97734,-0.18788,0.0,2023,6,7,15,25,20,470
42.66920,0.05040,0.17798,0.00000,0.03111,0.97746,-0.18727,0.0,2023,6,7,15,25,20,480
42.66930,-0.01960,0.00298,0.00000,0.03062,0.97478,-0.18922,0.0,2023,6,7,15,25,20,490
42.66940,-0.14210,0.16048,0.00000,0.03221,0.97588,-0.18898,0.0,2023,6,7,15,25,20,500
42.66950,-0.01960,0.03798,0.00000,0.03099,0.97637,-0.18764,0.0,2023,6,7,15,25,20,510
42.66960,-0.07210,-0.15452,0.00000,0.03209,0.97478,-0.19105,0.0,2023,6,7,15,25,20,520
42.66970,-0.08960,0.10798,0.00000,0.03111,0.97624,-0.18861,0.0,2023,6,7,15,25,20,530
42.66980,0.24290,-0.03202,0.00000,0.03087,0.97490,-0.18849,0.0,2023,6,7,15,25,20,540
42.66990,-0.08960,0.03798,0.00000,0.03209,0.97576,-0.18861,0.0,2023,6,7,15,25,20,550
42.67000,-0.08960,0.00298,0.00000,0.03074,0.97746,-0.18642,0.0,2023,6,7,15,25,20,560
42.67010,-0.05460,0.00298,0.00000,0.03404,0.97612,-0.18837,0.0,2023,6,7,15,25,20,570
42.67020,-0.17710,-0.08452,0.00000,0.02952,0.97685,-0.18678,0.0,2023,6,7,15,25,20,580
42.67030,-0.00210,-0.10202,0.00000,0.03209,0.97441,-0.19154,0.0,2023,6,7,15,25,20,590
42.67040,-0.14210,0.00298,0.00000,0.03196,0.97600,-0.18934,0.0,2023,6,7,15,25,20,600
42.67050,-0.21210,-0.22452,0.00000,0.03160,0.97673,-0.18971,0.0,2023,6,7,15,25,20,610
42.67060,-0.00210,-0.15452,0.00000,0.03087,0.97746,-0.18825,0.0,2023,6,7,15,25,20,620
42.67070,-0.10710,-0.06702,0.00000,0.03087,0.97539,-0.18934,0.0,2023,6,7,15,25,20,630
42.67080,0.05040,0.09048,0.00000,0.03099,0.97868,-0.18910,0.0,2023,6,7,15,25,20,640
42.67090,-0.01960,-0.06702,0.00000,0.02928,0.97576,-0.18812,0.0,2023,6,7,15,25,20,650
42.67100,-0.05460,-0.08452,0.00000,0.03013,0.97551,-0.18739,0.0,2023,6,7,15,25,20,660
42.67110,0.20790,0.07298,0.00000,0.03074,0.97783,-0.18776,0.0,2023,6,7,15,25,20,670
42.67120,0.12040,-0.17202,0.00000,0.03148,0.97612,-0.18898,0.0,2023,6,7,15,25,20,680
42.67130,0.12040,0.10798,0.00000,0.03172,0.97844,-0.18934,0.0,2023,6,7,15,25,20,690
42.67140,0.15540,0.00298,0.00000,0.03355,0.97490,-0.18776,0.0,2023,6,7,15,25,20,700
42.67150,0.03290,-0.04952,0.00000,0.03123,0.97612,-0.18678,0.0,2023,6,7,15,25,20,710
42.67160,0.06790,0.16048,0.00000,0.03160,0.97405,-0.18788,0.0,2023,6,7,15,25,20,720
42.67170,0.05040,-0.06702,0.00000,0.03087,0.97673,-0.18776,0.0,2023,6,7,15,25,20,730
42.67180,0.15540,0.07298,0.00000,0.03209,0.97868,-0.18886,0.0,2023,6,7,15,25,20,740
42.67190,-0.07210,0.16048,0.00000,0.03099,0.97551,-0.18739,0.0,2023,6,7,15,25,20,750
42.67200,-0.07210,-0.10202,0.00000,0.03184,0.97637,-0.18812,0.0,2023,6,7,15,25,20,760
42.67210,-0.03710,-0.01452,0.00000,0.03245,0.97576,-0.18922,0.0,2023,6,7,15,25,20,770
42.67220,-0.10710,-0.01452,0.00000,0.03099,0.97624,-0.18788,0.0,2023,6,7,15,25,20,780
42.67230,-0.00210,-0.13702,0.00000,0.03148,0.97600,-0.18922,0.0,2023,6,7,15,25,20,790
42.67240,0.08540,0.21298,0.00000,0.03074,0.97527,-0.18690,0.0,2023,6,7,15,25,20,800
42.67250,-0.10710,-0.06702,0.00000,0.03123,0.97844,-0.18581,0.0,2023,6,7,15,25,20,810
42.67260,0.06790,0.05548,0.00000,0.03245,0.97502,-0.18727,0.0,2023,6,7,15,25,20,820
42.67270,0.12040,0.02048,0.00000,0.03026,0.97661,-0.19008,0.0,2023,6,7,15,25,20,830
42.67280,0.10290,-0.27702,0.00000,0.03038,0.97771,-0.18825,0.0,2023,6,7,15,25,20,840
42.67290,-0.03710,0.10798,0.00000,0.03099,0.97563,-0.18898,0.0,2023,6,7,15,25,20,850
42.67300,0.05040,-0.18952,0.00000,0.03135,0.97807,-0.18861,0.0,2023,6,7,15,25,20,860
42.67310,-0.03710,0.10798,0.00000,0.03062,0.97588,-0.18971,0.0,2023,6,7,15,25,20,870
42.67320,-0.05460,-0.04952,0.00000,0.03245,0.97685,-0.18825,0.0,2023,6,7,15,25,21,880
42.67330,0.05040,-0.11952,0.00000,0.03184,0.97795,-0.18873,0.0,2023,6,7,15,25,21,890
42.67340,0.03290,-0.13702,0.00000,0.03172,0.97563,-0.18776,0.0,2023,6,7,15,25,21,900
42.67350,0.12040,-0.06702,0.00000,0.03001,0.97917,-0.18581,0.0,2023,6,7,15,25,21,910
42.67360,-0.12460,-0.10202,0.00000,0.03074,0.97637,-0.18947,0.0,2023,6,7,15,25,21,920
42.67370,0.12040,-0.15452,0.00000,0.03196,0.97502,-0.18934,0.0,2023,6,7,15,25,21,930
42.67380,0.03290,-0.11952,0.00000,0.03196,0.97685,-0.18861,0.0,2023,6,7,15,25,21,940
42.67390,0.10290,-0.15452,0.00000,0.03062,0.97612,-0.18837,0.0,2023,6,7,15,25,21,950
42.67400,-0.10710,0.16048,0.00000,0.03270,0.97673,-0.18934,0.0,2023,6,7,15,25,21,960
42.67410,0.01540,0.07298,0.00000,0.03233,0.97649,-0.18873,0.0,2023,6,7,15,25,21,970
42.67420,-0.10710,0.07298,0.00000,0.03099,0.97685,-0.19044,0.0,2023,6,7,15,25,21,980
42.67430,0.12040,0.03798,0.00000,0.02916,0.97722,-0.18581,0.0,2023,6,7,15,25,21,990
42.67440,-0.08960,-0.17202,0.00000,0.03062,0.97380,-0.19203,0.0,2023,6,7,15,25,21,0
42.67450,0.06790,-0.24202,0.00000,0.03404,0.97746,-0.18715,0.0,2023,6,7,15,25,21,10
42.67460,0.05040,0.07298,0.00000,0.03282,0.97563,-0.18922,0.0,2023,6,7,15,25,21,20
42.67470,0.12040,-0.01452,0.00000,0.03221,0.97466,-0.18971,0.0,2023,6,7,15,25,21,30
42.67480,-0.07210,0.24798,0.00000,0.03221,0.97649,-0.19032,0.0,2023,6,7,15,25,21,40
42.67490,-0.01960,0.03798,0.00000,0.03111,0.97356,-0.19032,0.0,2023,6,7,15,25,21,50
42.67500,-0.14210,0.05548,0.00000,0.03148,0.97685,-0.19032,0.0,2023,6,7,15,25,21,60
42.67510,-0.00210,0.00298,0.00000,0.03050,0.97405,-0.18873,0.0,2023,6,7,15,25,21,70
42.67520,0.01540,-0.10202,0.00000,0.03074,0.97637,-0.18837,0.0,2023,6,7,15,25,21,80
42.67530,0.05040,0.02048,0.00000,0.02977,0.97637,-0.18849,0.0,2023,6,7,15,25,21,90
42.67540,-0.01960,0.02048,0.00000,0.03026,0.97673,-0.18800,0.0,2023,6,7,15,25,21,100
42.67550,0.12040,-0.06702,0.00000,0.03306,0.97734,-0.19093,0.0,2023,6,7,15,25,21,110
42.67560,0.15540,0.21298,0.00000,0.03099,0.97661,-0.18764,0.0,2023,6,7,15,25,21,120
42.67570,-0.01960,0.09048,0.00000,0.03172,0.97795,-0.18764,0.0,2023,6,7,15,25,21,130
42.67580,-0.10710,0.00298,0.00000,0.02940,0.97771,-0.18812,0.0,2023,6,7,15,25,21,140
42.67590,0.06790,-0.06702,0.00000,0.03111,0.97612,-0.18800,0.0,2023,6,7,15,25,21,150
42.67600,0.17290,-0.06702,0.00000,0.03111,0.97673,-0.18910,0.0,2023,6,7,15,25,21,160
42.67610,0.03290,-0.03202,0.00000,0.03111,0.97685,-0.18617,0.0,2023,6,7,15,25,21,170
42.67620,-0.05460,-0.08452,0.00000,0.02965,0.97515,-0.18898,0.0,2023,6,7,15,25,21,180
42.67630,-0.05460,0.02048,0.00000,0.03184,0.97588,-0.18825,0.0,2023,6,7,15,25,21,190
42.67640,-0.07210,0.00298,0.00000,0.03172,0.97490,-0.18678,0.0,2023,6,7,15,25,21,200
42.67650,0.06790,-0.31202,0.00000,0.03038,0.97576,-0.18642,0.0,2023,6,7,15,25,21,210
42.67660,0.01540,-0.18952,0.00000,0.03087,0.97673,-0.18922,0.0,2023,6,7,15,25,21,220
42.67670,0.01540,-0.06702,0.00000,0.03209,0.97588,-0.18690,0.0,2023,6,7,15,25,21,230
42.67680,-0.07210,-0.03202,0.00000,0.03172,0.97466,-0.19056,0.0,2023,6,7,15,25,21,240
42.67690,0.19040,-0.20702,0.00000,0.03355,0.97624,-0.18690,0.0,2023,6,7,15,25,21,250
42.67700,-0.00210,-0.04952,0.00000,0.03111,0.97673,-0.18715,0.0,2023,6,7,15,25,21,260
42.67710,-0.01960,-0.10202,0.00000,0.03148,0.97734,-0.18568,0.0,2023,6,7,15,25,21,270
42.67720,0.24290,0.03798,0.00000,0.03209,0.97685,-0.18886,0.0,2023,6,7,15,25,21,280
42.67730,0.03290,-0.18952,0.00000,0.03135,0.97612,-0.18654,0.0,2023,6,7,15,25,21,290
42.67740,0.06790,0.00298,0.00000,0.03257,0.97698,-0.18995,0.0,2023,6,7,15,25,21,300
42.67750,-0.01960,-0.08452,0.00000,0.03099,0.97844,-0.18715,0.0,2023,6,7,15,25,21,310
42.67760,0.03290,0.03798,0.00000,0.03270,0.97820,-0.19056,0.0,2023,6,7,15,25,21,320
42.67770,-0.15960,-0.04952,0.00000,0.03196,0.97612,-0.18690,0.0,2023,6,7,15,25,21,330
42.67780,-0.00210,-0.06702,0.00000,0.03184,0.97722,-0.18812,0.0,2023,6,7,15,25,21,340
42.67790,-0.07210,0.07298,0.00000,0.03245,0.97844,-0.18617,0.0,2023,6,7,15,25,21,350
42.67800,-0.12460,-0.03202,0.00000,0.03074,0.97515,-0.18764,0.0,2023,6,7,15,25,21,360
42.67810,0.13790,-0.01452,0.00000,0.03038,0.97588,-0.18812,0.0,2023,6,7,15,25,21,370
42.67820,-0.07210,-0.10202,0.00000,0.03135,0.97454,-0.18873,0.0,2023,6,7,15,25,21,380
42.67830,0.12040,-0.13702,0.00000,0.03160,0.97710,-0.18873,0.0,2023,6,7,15,25,21,390
42.67840,-0.07210,0.12548,0.00000,0.03135,0.97612,-0.18910,0.0,2023,6,7,15,25,21,400
42.67850,0.12040,-0.25952,0.00000,0.03062,0.97502,-0.18776,0.0,2023,6,7,15,25,21,410
42.67860,0.01540,-0.06702,0.00000,0.03026,0.97759,-0.18812,0.0,2023,6,7,15,25,21,420
42.67870,0.08540,-0.25952,0.00000,0.03099,0.97624,-0.18812,0.0,2023,6,7,15,25,21,430
42.67880,0.10290,-0.03202,0.00000,0.03257,0.97795,-0.18886,0.0,2023,6,7,15,25,21,440
42.67890,-0.05460,-0.03202,0.00000,0.03270,0.97685,-0.18678,0.0,2023,6,7,15,25,21,450
42.67900,-0.03710,0.02048,0.00000,0.03257,0.97588,-0.18812,0.0,2023,6,7,15,25,21,460
42.67910,-0.15960,0.21298,0.00000,0.03135,0.97661,-0.18703,0.0,2023,6,7,15,25,21,470
42.67920,-0.08960,-0.08452,0.00000,0.02977,0.97722,-0.18934,0.0,2023,6,7,15,25,21,480
42.67930,0.17290,-0.13702,0.00000,0.03001,0.97710,-0.18873,0.0,2023,6,7,15,25,21,490
42.67940,-0.12460,-0.10202,0.00000,0.03001,0.97844,-0.19276,0.0,2023,6,7,15,25,21,500
42.67950,-0.05460,0.05548,0.00000,0.03050,0.97759,-0.18764,0.0,2023,6,7,15,25,21,510
42.67960,0.05040,-0.01452,0.00000,0.03013,0.97612,-0.18605,0.0,2023,6,7,15,25,21,520
42.67970,0.03290,0.03798,0.00000,0.03099,0.97478,-0.18886,0.0,2023,6,7,15,25,21,530
42.67980,0.08540,0.03798,0.00000,0.03160,0.97795,-0.18873,0.0,2023,6,7,15,25,21,540
42.67990,0.05040,-0.13702,0.00000,0.03294,0.97478,-0.18910,0.0,2023,6,7,15,25,21,550
42.68000,0.06790,-0.03202,0.00000,0.03013,0.97685,-0.18873,0.0,2023,6,7,15,25,21,560
42.68010,0.05040,-0.10202,0.00000,0.03318,0.97746,-0.18959,0.0,2023,6,7,15,25,21,570
42.68020,0.12040,-0.18952,0.00000,0.03135,0.97649,-0.18727,0.0,2023,6,7,15,25,21,580
42.68030,-0.03710,0.00298,0.00000,0.03221,0.97661,-0.18849,0.0,2023,6,7,15,25,21,590
42.68040,0.05040,0.17798,0.00000,0.03196,0.97600,-0.18812,0.0,2023,6,7,15,25,21,600
42.68050,0.06790,-0.11952,0.00000,0.03294,0.97832,-0.18715,0.0,2023,6,7,15,25,21,610
42.68060,-0.14210,0.24798,0.00000,0.03099,0.97527,-0.18849,0.0,2023,6,7,15,25,21,620
42.68070,-0.00210,0.19548,0.00000,0.03270,0.97588,-0.19008,0.0,2023,6,7,15,25,21,630
42.68080,0.03290,0.05548,0.00000,0.03196,0.97698,-0.18727,0.0,2023,6,7,15,25,21,640
42.68090,0.12040,-0.24202,0.00000,0.03062,0.97490,-0.18764,0.0,2023,6,7,15,25,21,650
42.68100,-0.21210,-0.08452,0.00000,0.03282,0.97356,-0.18788,0.0,2023,6,7,15,25,21,660
42.68110,0.03290,-0.15452,0.00000,0.03074,0.97454,-0.18788,0.0,2023,6,7,15,25,21,670
42.68120,0.17290,-0.08452,0.00000,0.03099,0.97759,-0.18910,0.0,2023,6,7,15,25,21,680
42.68130,-0.07210,-0.03202,0.00000,0.03209,0.97783,-0.18739,0.0,2023,6,7,15,25,21,690
42.68140,0.20790,-0.22452,0.00000,0.03148,0.97551,-0.18910,0.0,2023,6,7,15,25,21,700
42.68150,0.08540,-0.08452,0.00000,0.03135,0.97673,-0.18507,0.0,2023,6,7,15,25,21,710
42.68160,-0.05460,-0.15452,0.00000,0.03135,0.97734,-0.18751,0.0,2023,6,7,15,25,21,720
42.68170,-0.00210,0.02048,0.00000,0.03440,0.97771,-0.18812,0.0,2023,6,7,15,25,21,730
42.68180,-0.00210,-0.15452,0.00000,0.02989,0.97588,-0.18812,0.0,2023,6,7,15,25,21,740
42.68190,0.01540,0.03798,0.00000,0.03026,0.97612,-0.18934,0.0,2023,6,7,15,25,21,750
42.68200,-0.00210,0.00298,0.00000,0.02904,0.97624,-0.18873,0.0,2023,6,7,15,25,21,760
42.68210,0.15540,0.05548,0.00000,0.03111,0.97771,-0.19069,0.0,2023,6,7,15,25,21,770
42.68220,-0.10710,0.03798,0.00000,0.03038,0.97807,-0.18922,0.0,2023,6,7,15,25,22,780
42.68230,-0.03710,0.00298,0.00000,0.03233,0.97563,-0.18751,0.0,2023,6,7,15,25,22,790
42.68240,-0.12460,-0.10202,0.00000,0.03318,0.97539,-0.18898,0.0,2023,6,7,15,25,22,800
42.68250,0.13790,-0.10202,0.00000,0.03123,0.97771,-0.18703,0.0,2023,6,7,15,25,22,810
42.68260,0.06790,-0.01452,0.00000,0.03392,0.97356,-0.18910,0.0,2023,6,7,15,25,22,820
42.68270,0.03290,-0.15452,0.00000,0.03196,0.97624,-0.19008,0.0,2023,6,7,15,25,22,830
42.68280,0.12040,-0.03202,0.00000,0.03209,0.97624,-0.18886,0.0,2023,6,7,15,25,22,840
42.68290,0.19040,-0.06702,0.00000,0.03294,0.97515,-0.18739,0.0,2023,6,7,15,25,22,850
42.68300,0.08540,0.03798,0.00000,0.03026,0.97746,-0.18776,0.0,2023,6,7,15,25,22,860
42.68310,-0.05460,-0.08452,0.00000,0.03282,0.97527,-0.18703,0.0,2023,6,7,15,25,22,870
42.68320,-0.05460,-0.06702,0.00000,0.03123,0.97710,-0.18812,0.0,2023,6,7,15,25,22,880
42.68330,-0.15960,0.12548,0.00000,0.03099,0.97795,-0.18995,0.0,2023,6,7,15,25,22,890
42.68340,0.08540,0.09048,0.00000,0.03038,0.97710,-0.18898,0.0,2023,6,7,15,25,22,900
42.68350,0.03290,0.00298,0.00000,0.03196,0.97832,-0.18764,0.0,2023,6,7,15,25,22,910
42.68360,-0.01960,-0.11952,0.00000,0.03062,0.97624,-0.18812,0.0,2023,6,7,15,25,22,920
42.68370,0.01540,-0.04952,0.00000,0.02977,0.97649,-0.18947,0.0,2023,6,7,15,25,22,930
42.68380,0.01540,-0.08452,0.00000,0.03209,0.97685,-0.18922,0.0,2023,6,7,15,25,22,940
42.68390,-0.07210,0.14298,0.00000,0.03209,0.98088,-0.18971,0.0,2023,6,7,15,25,22,950
42.68400,-0.01960,-0.15452,0.00000,0.03026,0.97576,-0.18861,0.0,2023,6,7,15,25,22,960
42.68410,0.08540,-0.17202,0.00000,0.03135,0.97466,-0.18654,0.0,2023,6,7,15,25,22,970
42.68420,-0.01960,-0.03202,0.00000,0.02977,0.97746,-0.19093,0.0,2023,6,7,15,25,22,980
42.68430,-0.08960,0.03798,0.00000,0.02989,0.97929,-0.18654,0.0,2023,6,7,15,25,22,990
42.68440,-0.15960,0.12548,0.00000,0.03148,0.97661,-0.18922,0.0,2023,6,7,15,25,22,0
42.68450,-0.07210,-0.22452,0.00000,0.03111,0.97429,-0.18959,0.0,2023,6,7,15,25,22,10
42.68460,-0.15960,0.07298,0.00000,0.03001,0.97612,-0.18971,0.0,2023,6,7,15,25,22,20
42.68470,0.27790,-0.11952,0.00000,0.03001,0.97673,-0.18849,0.0,2023,6,7,15,25,22,30
42.68480,0.01540,0.00298,0.00000,0.02989,0.97588,-0.18983,0.0,2023,6,7,15,25,22,40
42.68490,-0.05460,-0.01452,0.00000,0.03233,0.97539,-0.18837,0.0,2023,6,7,15,25,22,50
42.68500,0.24290,-0.18952,0.00000,0.03355,0.97588,-0.18825,0.0,2023,6,7,15,25,22,60
42.68510,0.05040,0.03798,0.00000,0.03257,0.97771,-0.18837,0.0,2023,6,7,15,25,22,70
42.68520,0.24290,-0.18952,0.00000,0.03062,0.97563,-0.18995,0.0,2023,6,7,15,25,22,80
42.68530,-0.21210,-0.08452,0.00000,0.03160,0.97844,-0.18837,0.0,2023,6,7,15,25,22,90
42.68540,-0.22960,0.03798,0.00000,0.03172,0.97576,-0.18788,0.0,2023,6,7,15,25,22,100
42.68550,-0.03710,0.03798,0.00000,0.03440,0.97661,-0.18715,0.0,2023,6,7,15,25,22,110
42.68560,-0.00210,-0.04952,0.00000,0.03038,0.97685,-0.18922,0.0,2023,6,7,15,25,22,120
42.68570,-0.19460,0.10798,0.00000,0.03038,0.97771,-0.18873,0.0,2023,6,7,15,25,22,130
42.68580,0.13790,-0.15452,0.00000,0.03062,0.97746,-0.19020,0.0,2023,6,7,15,25,22,140
42.68590,0.13790,-0.11952,0.00000,0.03050,0.97917,-0.18654,0.0,2023,6,7,15,25,22,150
42.68600,0.03290,-0.18952,0.00000,0.03099,0.97563,-0.18898,0.0,2023,6,7,15,25,22,160
42.68610,-0.01960,0.12548,0.00000,0.03135,0.97515,-0.18764,0.0,2023,6,7,15,25,22,170
42.68620,-0.01960,0.10798,0.00000,0.03148,0.97771,-0.18727,0.0,2023,6,7,15,25,22,180
42.68630,0.13790,-0.06702,0.00000,0.03026,0.97759,-0.18849,0.0,2023,6,7,15,25,22,190
42.68640,-0.15960,0.17798,0.00000,0.03172,0.97710,-0.18617,0.0,2023,6,7,15,25,22,200
42.68650,-0.07210,0.10798,0.00000,0.03111,0.97698,-0.18800,0.0,2023,6,7,15,25,22,210
42.68660,-0.05460,0.00298,0.00000,0.03148,0.97576,-0.18861,0.0,2023,6,7,15,25,22,220
42.68670,0.05040,-0.04952,0.00000,0.03233,0.97563,-0.18983,0.0,2023,6,7,15,25,22,230
42.68680,0.06790,-0.17202,0.00000,0.03343,0.97685,-0.18825,0.0,2023,6,7,15,25,22,240
42.68690,0.12040,-0.06702,0.00000,0.02916,0.97466,-0.18825,0.0,2023,6,7,15,25,22,250
42.68700,0.01540,0.07298,0.00000,0.03026,0.97722,-0.18703,0.0,2023,6,7,15,25,22,260
42.68710,-0.01960,-0.10202,0.00000,0.03026,0.97600,-0.18971,0.0,2023,6,7,15,25,22,270
42.68720,-0.00210,0.07298,0.00000,0.03160,0.97661,-0.18861,0.0,2023,6,7,15,25,22,280
42.68730,0.01540,-0.18952,0.00000,0.03135,0.97576,-0.19044,0.0,2023,6,7,15,25,22,290
42.68740,0.13790,-0.08452,0.00000,0.02977,0.97783,-0.18837,0.0,2023,6,7,15,25,22,300
42.68750,-0.00210,0.17798,0.00000,0.03074,0.97527,-0.18825,0.0,2023,6,7,15,25,22,310
42.68760,-0.01960,0.07298,0.00000,0.03062,0.97624,-0.18739,0.0,2023,6,7,15,25,22,320
42.68770,0.15540,-0.01452,0.00000,0.03026,0.97661,-0.18910,0.0,2023,6,7,15,25,22,330
42.68780,-0.14210,-0.04952,0.00000,0.03087,0.97637,-0.18593,0.0,2023,6,7,15,25,22,340
42.68790,-0.07210,0.17798,0.00000,0.02940,0.97673,-0.19020,0.0,2023,6,7,15,25,22,350
42.68800,-0.21210,0.03798,0.00000,0.03111,0.97563,-0.18666,0.0,2023,6,7,15,25,22,360
42.68810,0.03290,-0.08452,0.00000,0.03099,0.97624,-0.18764,0.0,2023,6,7,15,25,22,370
42.68820,-0.15960,-0.03202,0.00000,0.03209,0.97502,-0.18849,0.0,2023,6,7,15,25,22,380
42.68830,-0.15960,0.14298,0.00000,0.03050,0.97502,-0.18605,0.0,2023,6,7,15,25,22,390
42.68840,0.01540,-0.11952,0.00000,0.03026,0.97551,-0.18837,0.0,2023,6,7,15,25,22,400
42.68850,0.22540,0.02048,0.00000,0.03233,0.97771,-0.18947,0.0,2023,6,7,15,25,22,410
42.68860,0.10290,-0.01452,0.00000,0.03111,0.97649,-0.18922,0.0,2023,6,7,15,25,22,420
42.68870,-0.10710,0.10798,0.00000,0.03343,0.97515,-0.18934,0.0,2023,6,7,15,25,22,430
42.68880,0.12040,-0.15452,0.00000,0.03160,0.97637,-0.18922,0.0,2023,6,7,15,25,22,440
42.68890,-0.17710,-0.03202,0.00000,0.03160,0.97637,-0.19044,0.0,2023,6,7,15,25,22,450
42.68900,-0.07210,0.10798,0.00000,0.03282,0.97539,-0.18678,0.0,2023,6,7,15,25,22,460
42.68910,-0.00210,-0.01452,0.00000,0.03318,0.97588,-0.18959,0.0,2023,6,7,15,25,22,470
42.68920,-0.08960,-0.06702,0.00000,0.03172,0.97563,-0.18910,0.0,2023,6,7,15,25,22,480
42.68930,0.13790,0.02048,0.00000,0.03282,0.97466,-0.18922,0.0,2023,6,7,15,25,22,490
42.68940,0.06790,0.10798,0.00000,0.03221,0.97612,-0.18898,0.0,2023,6,7,15,25,22,500
42.68950,0.15540,-0.34702,0.00000,0.03294,0.97368,-0.18861,0.0,2023,6,7,15,25,22,510
42.68960,0.08540,-0.29452,0.00000,0.03038,0.97490,-0.18947,0.0,2023,6,7,15,25,22,520
42.68970,-0.12460,0.19548,0.00000,0.03270,0.97600,-0.18690,0.0,2023,6,7,15,25,22,530
42.68980,0.05040,-0.06702,0.00000,0.03087,0.97673,-0.18703,0.0,2023,6,7,15,25,22,540
42.68990,-0.01960,0.16048,0.00000,0.03270,0.97380,-0.19044,0.0,2023,6,7,15,25,22,550
42.69000,0.01540,-0.08452,0.00000,0.03123,0.97844,-0.18861,0.0,2023,6,7,15,25,22,560
42.69010,-0.08960,-0.06702,0.00000,0.03038,0.97417,-0.18922,0.0,2023,6,7,15,25,22,570
42.69020,-0.05460,0.10798,0.00000,0.03062,0.97454,-0.18922,0.0,2023,6,7,15,25,22,580
42.69030,-0.14210,0.24798,0.00000,0.03172,0.97368,-0.18568,0.0,2023,6,7,15,25,22,590
42.69040,-0.01960,0.07298,0.00000,0.03062,0.97612,-0.18825,0.0,2023,6,7,15,25,22,600
42.69050,0.13790,0.16048,0.00000,0.03148,0.97502,-0.18642,0.0,2023,6,7,15,25,22,610
42.69060,-0.07210,0.26548,0.00000,0.03001,0.97539,-0.18812,0.0,2023,6,7,15,25,22,620
42.69070,0.03290,-0.08452,0.00000,0.03184,0.97478,-0.18898,0.0,2023,6,7,15,25,22,630
42.69080,0.17290,-0.10202,0.00000,0.03184,0.97844,-0.18910,0.0,2023,6,7,15,25,22,640
42.69090,-0.03710,0.12548,0.00000,0.03367,0.97844,-0.18568,0.0,2023,6,7,15,25,22,650
42.69100,0.12040,-0.18952,0.00000,0.03111,0.97405,-0.18861,0.0,2023,6,7,15,25,22,660
42.69110,0.01540,0.02048,0.00000,0.03062,0.97563,-0.18812,0.0,2023,6,7,15,25,22,670
42.69120,0.17290,-0.03202,0.00000,0.02989,0.97600,-0.18751,0.0,2023,6,7,15,25,23,680
42.69130,-0.05460,0.02048,0.00000,0.03221,0.97734,-0.18800,0.0,2023,6,7,15,25,23,690
42.69140,-0.01960,-0.03202,0.00000,0.03111,0.97759,-0.18703,0.0,2023,6,7,15,25,23,700
42.69150,0.03290,0.02048,0.00000,0.03221,0.97929,-0.18800,0.0,2023,6,7,15,25,23,710
42.69160,0.20790,-0.25952,0.00000,0.03245,0.97795,-0.18910,0.0,2023,6,7,15,25,23,720
42.69170,0.01540,-0.13702,0.00000,0.03160,0.97685,-0.18947,0.0,2023,6,7,15,25,23,730
42.69180,-0.00210,-0.13702,0.00000,0.03233,0.97551,-0.18727,0.0,2023,6,7,15,25,23,740
42.69190,-0.10710,0.16048,0.00000,0.03282,0.97502,-0.18873,0.0,2023,6,7,15,25,23,750
42.69200,-0.17710,0.10798,0.00000,0.03282,0.97856,-0.18812,0.0,2023,6,7,15,25,23,760
42.69210,0.08540,-0.25952,0.00000,0.03099,0.97734,-0.18971,0.0,2023,6,7,15,25,23,770
42.69220,0.05040,0.05548,0.00000,0.03074,0.97588,-0.18739,0.0,2023,6,7,15,25,23,780
42.69230,0.06790,0.05548,0.00000,0.03172,0.97673,-0.18873,0.0,2023,6,7,15,25,23,790
42.69240,-0.08960,-0.13702,0.00000,0.03135,0.97478,-0.18837,0.0,2023,6,7,15,25,23,800
42.69250,-0.03710,0.00298,0.00000,0.03074,0.97759,-0.18886,0.0,2023,6,7,15,25,23,810
42.69260,0.20790,0.03798,0.00000,0.02989,0.97600,-0.18812,0.0,2023,6,7,15,25,23,820
42.69270,-0.07210,0.05548,0.00000,0.03257,0.97478,-0.18642,0.0,2023,6,7,15,25,23,830
42.69280,0.20790,0.09048,0.00000,0.03270,0.97600,-0.18898,0.0,2023,6,7,15,25,23,840
42.69290,0.08540,-0.15452,0.00000,0.03233,0.97734,-0.18849,0.0,2023,6,7,15,25,23,850
42.69300,-0.07210,-0.17202,0.00000,0.03013,0.97698,-0.18764,0.0,2023,6,7,15,25,23,860
42.69310,0.12040,0.00298,0.00000,0.03209,0.97612,-0.18629,0.0,2023,6,7,15,25,23,870
42.69320,-0.01960,-0.22452,0.00000,0.03038,0.97844,-0.18568,0.0,2023,6,7,15,25,23,880
42.69330,-0.17710,0.19548,0.00000,0.03148,0.97539,-0.18825,0.0,2023,6,7,15,25,23,890
42.69340,-0.19460,0.23048,0.00000,0.03233,0.97624,-0.18886,0.0,2023,6,7,15,25,23,900
42.69350,0.03290,-0.25952,0.00000,0.03282,0.97783,-0.19008,0.0,2023,6,7,15,25,23,910
42.69360,-0.00210,-0.17202,0.00000,0.03367,0.97393,-0.18922,0.0,2023,6,7,15,25,23,920
42.69370,0.20790,-0.20702,0.00000,0.03245,0.97685,-0.18873,0.0,2023,6,7,15,25,23,930
42.69380,0.05040,0.05548,0.00000,0.03111,0.97539,-0.18898,0.0,2023,6,7,15,25,23,940
42.69390,-0.08960,-0.13702,0.00000,0.03099,0.97624,-0.18800,0.0,2023,6,7,15,25,23,950
42.69400,-0.00210,0.05548,0.00000,0.03123,0.97466,-0.18922,0.0,2023,6,7,15,25,23,960
42.69410,-0.12460,0.00298,0.00000,0.03270,0.97612,-0.18605,0.0,2023,6,7,15,25,23,970
42.69420,0.19040,-0.04952,0.00000,0.03184,0.97661,-0.18751,0.0,2023,6,7,15,25,23,980
42.69430,-0.08960,0.00298,0.00000,0.03123,0.97454,-0.18739,0.0,2023,6,7,15,25,23,990
42.69440,0.08540,-0.17202,0.00000,0.03123,0.97759,-0.18812,0.0,2023,6,7,15,25,23,0
42.69450,-0.03710,0.12548,0.00000,0.03209,0.97661,-0.18849,0.0,2023,6,7,15,25,23,10
42.69460,-0.12460,0.17798,0.00000,0.03111,0.97990,-0.18983,0.0,2023,6,7,15,25,23,20
42.69470,-0.12460,0.19548,0.00000,0.03306,0.97771,-0.18727,0.0,2023,6,7,15,25,23,30
42.69480,0.12040,0.10798,0.00000,0.03148,0.97466,-0.18800,0.0,2023,6,7,15,25,23,40
42.69490,0.15540,0.02048,0.00000,0.02904,0.97454,-0.18764,0.0,2023,6,7,15,25,23,50
42.69500,0.13790,0.02048,0.00000,0.03099,0.97649,-0.18581,0.0,2023,6,7,15,25,23,60
42.69510,-0.01960,0.00298,0.00000,0.03087,0.97820,-0.18678,0.0,2023,6,7,15,25,23,70
42.69520,-0.08960,-0.06702,0.00000,0.03379,0.97539,-0.18873,0.0,2023,6,7,15,25,23,80
42.69530,0.13790,0.03798,0.00000,0.03099,0.97698,-0.18703,0.0,2023,6,7,15,25,23,90
42.69540,-0.01960,-0.01452,0.00000,0.03184,0.97722,-0.19020,0.0,2023,6,7,15,25,23,100
42.69550,0.13790,0.00298,0.00000,0.03209,0.97661,-0.18678,0.0,2023,6,7,15,25,23,110
42.69560,-0.05460,-0.01452,0.00000,0.03221,0.97734,-0.18751,0.0,2023,6,7,15,25,23,120
42.69570,-0.14210,0.19548,0.00000,0.02855,0.97637,-0.18715,0.0,2023,6,7,15,25,23,130
42.69580,-0.05460,-0.11952,0.00000,0.02904,0.97380,-0.18568,0.0,2023,6,7,15,25,23,140
42.69590,0.13790,-0.08452,0.00000,0.03233,0.97795,-0.18825,0.0,2023,6,7,15,25,23,150
42.69600,-0.21210,0.23048,0.00000,0.03026,0.97502,-0.18873,0.0,2023,6,7,15,25,23,160
42.69610,-0.14210,0.10798,0.00000,0.03343,0.97868,-0.18861,0.0,2023,6,7,15,25,23,170
42.69620,0.01540,-0.03202,0.00000,0.03160,0.97600,-0.18947,0.0,2023,6,7,15,25,23,180
42.69630,-0.05460,0.05548,0.00000,0.03355,0.97661,-0.18861,0.0,2023,6,7,15,25,23,190
42.69640,0.06790,-0.03202,0.00000,0.02940,0.97698,-0.18825,0.0,2023,6,7,15,25,23,200
42.69650,-0.15960,-0.06702,0.00000,0.03148,0.97527,-0.18934,0.0,2023,6,7,15,25,23,210
42.69660,0.13790,0.09048,0.00000,0.03196,0.97661,-0.18910,0.0,2023,6,7,15,25,23,220
42.69670,-0.10710,-0.18952,0.00000,0.02843,0.97661,-0.18800,0.0,2023,6,7,15,25,23,230
42.69680,-0.26460,0.09048,0.00000,0.03001,0.97600,-0.18922,0.0,2023,6,7,15,25,23,240
42.69690,-0.19460,0.12548,0.00000,0.03294,0.97673,-0.18922,0.0,2023,6,7,15,25,23,250
42.69700,-0.14210,-0.10202,0.00000,0.03318,0.97539,-0.18971,0.0,2023,6,7,15,25,23,260
42.69710,-0.00210,0.30048,0.00000,0.02977,0.97698,-0.18678,0.0,2023,6,7,15,25,23,270
42.69720,-0.10710,0.17798,0.00000,0.03221,0.97698,-0.18666,0.0,2023,6,7,15,25,23,280
42.69730,-0.14210,0.00298,0.00000,0.02891,0.97466,-0.18642,0.0,2023,6,7,15,25,23,290
42.69740,-0.00210,0.17798,0.00000,0.02989,0.97795,-0.18873,0.0,2023,6,7,15,25,23,300
42.69750,-0.01960,0.00298,0.00000,0.02891,0.97515,-0.18812,0.0,2023,6,7,15,25,23,310
42.69760,0.01540,-0.13702,0.00000,0.02940,0.97588,-0.18861,0.0,2023,6,7,15,25,23,320
42.69770,-0.07210,0.02048,0.00000,0.03440,0.97368,-0.18654,0.0,2023,6,7,15,25,23,330
42.69780,-0.00210,-0.01452,0.00000,0.03148,0.97576,-0.18812,0.0,2023,6,7,15,25,23,340
42.69790,-0.15960,0.21298,0.00000,0.03111,0.97637,-0.18922,0.0,2023,6,7,15,25,23,350
42.69800,-0.01960,0.10798,0.00000,0.03135,0.97624,-0.18922,0.0,2023,6,7,15,25,23,360
42.69810,-0.08960,0.12548,0.00000,0.03416,0.97649,-0.18886,0.0,2023,6,7,15,25,23,370
42.69820,0.22540,0.09048,0.00000,0.02916,0.97868,-0.18666,0.0,2023,6,7,15,25,23,380
42.69830,0.03290,-0.11952,0.00000,0.03184,0.97490,-0.18739,0.0,2023,6,7,15,25,23,390
42.69840,-0.28210,-0.10202,0.00000,0.03111,0.97600,-0.18837,0.0,2023,6,7,15,25,23,400
42.69850,-0.08960,-0.03202,0.00000,0.03172,0.97417,-0.18654,0.0,2023,6,7,15,25,23,410
42.69860,0.08540,0.03798,0.00000,0.03196,0.97710,-0.18983,0.0,2023,6,7,15,25,23,420
42.69870,-0.08960,0.28298,0.00000,0.03257,0.97722,-0.18605,0.0,2023,6,7,15,25,23,430
42.69880,-0.05460,-0.06702,0.00000,0.03209,0.97722,-0.18995,0.0,2023,6,7,15,25,23,440
42.69890,0.01540,0.02048,0.00000,0.03135,0.97783,-0.18837,0.0,2023,6,7,15,25,23,450
42.69900,-0.00210,0.07298,0.00000,0.03123,0.97624,-0.18788,0.0,2023,6,7,15,25,23,460
42.69910,-0.19460,-0.04952,0.00000,0.03099,0.97661,-0.18898,0.0,2023,6,7,15,25,23,470
42.69920,-0.01960,0.03798,0.00000,0.02989,0.97917,-0.18727,0.0,2023,6,7,15,25,23,480
42.69930,-0.07210,0.14298,0.00000,0.03111,0.97661,-0.18812,0.0,2023,6,7,15,25,23,490
42.69940,0.10290,-0.03202,0.00000,0.03050,0.97563,-0.18739,0.0,2023,6,7,15,25,23,500
42.69950,0.05040,-0.06702,0.00000,0.03123,0.97637,-0.19020,0.0,2023,6,7,15,25,23,510
42.69960,0.12040,0.03798,0.00000,0.03087,0.97576,-0.18849,0.0,2023,6,7,15,25,23,520
42.69970,-0.08960,0.07298,0.00000,0.03160,0.97710,-0.18520,0.0,2023,6,7,15,25,23,530
42.69980,-0.10710,0.09048,0.00000,0.03294,0.97722,-0.18764,0.0,2023,6,7,15,25,23,540
42.69990,-0.15960,0.14298,0.00000,0.03001,0.97759,-0.18715,0.0,2023,6,7,15,25,23,550
42.70000,-0.03710,0.10798,0.00000,0.03099,0.97527,-0.18776,0.0,2023,6,7,15,25,23,560
42.70010,-0.07210,0.02048,0.00000,0.02928,0.97661,-0.18739,0.0,2023,6,7,15,25,23,570
42.70020,-0.01960,0.09048,0.00000,0.03123,0.97722,-0.18690,0.0,2023,6,7,15,25,23,580
42.70030,0.03290,0.07298,0.00000,0.03123,0.97624,-0.18751,0.0,2023,6,7,15,25,24,590
42.70040,-0.00210,0.05548,0.00000,0.03257,0.97917,-0.18532,0.0,2023,6,7,15,25,24,600
42.70050,0.05040,-0.01452,0.00000,0.03135,0.97759,-0.18886,0.0,2023,6,7,15,25,24,610
42.70060,0.20790,-0.04952,0.00000,0.03160,0.97527,-0.18739,0.0,2023,6,7,15,25,24,620
42.70070,-0.03710,-0.15452,0.00000,0.03184,0.97539,-0.18861,0.0,2023,6,7,15,25,24,630
42.70080,-0.17710,-0.03202,0.00000,0.03245,0.97563,-0.18715,0.0,2023,6,7,15,25,24,640
42.70090,0.01540,0.10798,0.00000,0.03148,0.97832,-0.18751,0.0,2023,6,7,15,25,24,650
42.70100,-0.03710,0.16048,0.00000,0.03440,0.97539,-0.18922,0.0,2023,6,7,15,25,24,660
42.70110,0.03290,0.00298,0.00000,0.03099,0.97441,-0.18947,0.0,2023,6,7,15,25,24,670
42.70120,0.06790,-0.03202,0.00000,0.03294,0.97417,-0.18715,0.0,2023,6,7,15,25,24,680
42.70130,0.10290,-0.06702,0.00000,0.03148,0.97710,-0.18861,0.0,2023,6,7,15,25,24,690
42.70140,-0.00210,0.10798,0.00000,0.03196,0.97734,-0.18788,0.0,2023,6,7,15,25,24,700
42.70150,0.17290,-0.17202,0.00000,0.03294,0.97844,-0.18947,0.0,2023,6,7,15,25,24,710
42.70160,-0.00210,0.14298,0.00000,0.03294,0.97624,-0.18459,0.0,2023,6,7,15,25,24,720
42.70170,0.12040,-0.06702,0.00000,0.03111,0.97478,-0.18581,0.0,2023,6,7,15,25,24,730
42.70180,0.12040,-0.11952,0.00000,0.03160,0.97771,-0.18715,0.0,2023,6,7,15,25,24,740
42.70190,-0.01960,0.00298,0.00000,0.03160,0.97539,-0.18812,0.0,2023,6,7,15,25,24,750
42.70200,0.17290,-0.06702,0.00000,0.03062,0.97722,-0.18654,0.0,2023,6,7,15,25,24,760
42.70210,0.13790,-0.01452,0.00000,0.03233,0.97844,-0.18764,0.0,2023,6,7,15,25,24,770
42.70220,0.03290,-0.06702,0.00000,0.03087,0.97771,-0.18788,0.0,2023,6,7,15,25,24,780
42.70230,-0.15960,0.19548,0.00000,0.03196,0.97844,-0.18739,0.0,2023,6,7,15,25,24,790
42.70240,-0.00210,-0.17202,0.00000,0.02965,0.97795,-0.18678,0.0,2023,6,7,15,25,24,800
42.70250,-0.01960,-0.32952,0.00000,0.03111,0.97795,-0.18642,0.0,2023,6,7,15,25,24,810
42.70260,-0.10710,0.00298,0.00000,0.03172,0.97600,-0.18703,0.0,2023,6,7,15,25,24,820
42.70270,-0.07210,0.00298,0.00000,0.03196,0.97539,-0.18764,0.0,2023,6,7,15,25,24,830
42.70280,0.03290,0.14298,0.00000,0.02891,0.97515,-0.18703,0.0,2023,6,7,15,25,24,840
42.70290,-0.00210,0.00298,0.00000,0.03013,0.97502,-0.18788,0.0,2023,6,7,15,25,24,850
42.70300,0.03290,-0.04952,0.00000,0.03209,0.97502,-0.18788,0.0,2023,6,7,15,25,24,860
42.70310,-0.08960,0.03798,0.00000,0.03257,0.97649,-0.18837,0.0,2023,6,7,15,25,24,870
42.70320,-0.07210,0.02048,0.00000,0.03074,0.97722,-0.18739,0.0,2023,6,7,15,25,24,880
42.70330,-0.01960,0.24798,0.00000,0.03062,0.97612,-0.18727,0.0,2023,6,7,15,25,24,890
42.70340,0.05040,-0.04952,0.00000,0.03221,0.97466,-0.18654,0.0,2023,6,7,15,25,24,900
42.70350,-0.00210,0.30048,0.00000,0.03209,0.97515,-0.18678,0.0,2023,6,7,15,25,24,910
42.70360,0.12040,0.05548,0.00000,0.03343,0.97478,-0.18629,0.0,2023,6,7,15,25,24,920
42.70370,0.01540,-0.04952,0.00000,0.03172,0.97271,-0.18825,0.0,2023,6,7,15,25,24,930
42.70380,-0.07210,0.02048,0.00000,0.03160,0.97515,-0.18764,0.0,2023,6,7,15,25,24,940
42.70390,-0.07210,0.09048,0.00000,0.03135,0.97515,-0.18837,0.0,2023,6,7,15,25,24,950
42.70400,-0.00210,-0.06702,0.00000,0.03062,0.97478,-0.18703,0.0,2023,6,7,15,25,24,960
42.70410,0.06790,0.10798,0.00000,0.03245,0.97795,-0.18703,0.0,2023,6,7,15,25,24,970
42.70420,0.03290,-0.22452,0.00000,0.03087,0.97563,-0.18642,0.0,2023,6,7,15,25,24,980
42.70430,-0.01960,-0.18952,0.00000,0.03050,0.97759,-0.18764,0.0,2023,6,7,15,25,24,990
42.70440,0.05040,-0.06702,0.00000,0.03172,0.97344,-0.18776,0.0,2023,6,7,15,25,24,0
42.70450,0.06790,-0.17202,0.00000,0.03160,0.97600,-0.18861,0.0,2023,6,7,15,25,24,10
42.70460,-0.12460,-0.01452,0.00000,0.03135,0.97795,-0.18678,0.0,2023,6,7,15,25,24,20
42.70470,-0.00210,0.05548,0.00000,0.03270,0.97515,-0.18849,0.0,2023,6,7,15,25,24,30
42.70480,0.10290,-0.01452,0.00000,0.03111,0.97783,-0.18666,0.0,2023,6,7,15,25,24,40
42.70490,0.03290,-0.03202,0.00000,0.03306,0.97588,-0.18678,0.0,2023,6,7,15,25,24,50
42.70500,0.05040,-0.11952,0.00000,0.03209,0.97673,-0.18947,0.0,2023,6,7,15,25,24,60
42.70510,0.15540,-0.18952,0.00000,0.03099,0.97515,-0.18837,0.0,2023,6,7,15,25,24,70
42.70520,-0.03710,0.14298,0.00000,0.02989,0.97466,-0.18849,0.0,2023,6,7,15,25,24,80
42.70530,0.12040,0.12548,0.00000,0.02940,0.97710,-0.18751,0.0,2023,6,7,15,25,24,90
42.70540,0.10290,-0.25952,0.00000,0.03196,0.97612,-0.18751,0.0,2023,6,7,15,25,24,100
42.70550,0.05040,0.00298,0.00000,0.03099,0.97661,-0.18520,0.0,2023,6,7,15,25,24,110
42.70560,-0.03710,0.05548,0.00000,0.03087,0.97929,-0.18812,0.0,2023,6,7,15,25,24,120
42.70570,-0.15960,0.03798,0.00000,0.03331,0.97807,-0.18849,0.0,2023,6,7,15,25,24,130
42.70580,0.08540,-0.11952,0.00000,0.03062,0.97515,-0.18617,0.0,2023,6,7,15,25,24,140
42.70590,-0.08960,0.02048,0.00000,0.02965,0.97600,-0.18764,0.0,2023,6,7,15,25,24,150
42.70600,-0.12460,0.05548,0.00000,0.02965,0.97856,-0.18873,0.0,2023,6,7,15,25,24,160
42.70610,-0.03710,0.05548,0.00000,0.03148,0.97502,-0.18617,0.0,2023,6,7,15,25,24,170
42.70620,0.01540,-0.08452,0.00000,0.03160,0.97515,-0.18849,0.0,2023,6,7,15,25,24,180
42.70630,0.01540,-0.08452,0.00000,0.03148,0.97624,-0.18800,0.0,2023,6,7,15,25,24,190
42.70640,-0.15960,-0.10202,0.00000,0.03233,0.97698,-0.18678,0.0,2023,6,7,15,25,24,200
42.70650,0.19040,-0.06702,0.00000,0.03282,0.97673,-0.18898,0.0,2023,6,7,15,25,24,210
42.70660,-0.08960,0.23048,0.00000,0.03062,0.97551,-0.18715,0.0,2023,6,7,15,25,24,220
42.70670,0.12040,-0.01452,0.00000,0.03135,0.97673,-0.18849,0.0,2023,6,7,15,25,24,230
42.70680,0.01540,0.00298,0.00000,0.03160,0.97551,-0.18629,0.0,2023,6,7,15,25,24,240
42.70690,0.06790,-0.03202,0.00000,0.02879,0.97698,-0.18544,0.0,2023,6,7,15,25,24,250
42.70700,-0.01960,0.03798,0.00000,0.03221,0.97807,-0.18739,0.0,2023,6,7,15,25,24,260
42.70710,0.15540,-0.06702,0.00000,0.03270,0.97624,-0.18849,0.0,2023,6,7,15,25,24,270
42.70720,-0.01960,0.07298,0.00000,0.03172,0.97710,-0.18690,0.0,2023,6,7,15,25,24,280
42.70730,-0.19460,0.09048,0.00000,0.03074,0.97710,-0.18617,0.0,2023,6,7,15,25,24,290
42.70740,-0.00210,0.03798,0.00000,0.03123,0.97637,-0.18666,0.0,2023,6,7,15,25,24,300
42.70750,0.06790,-0.18952,0.00000,0.03172,0.97649,-0.18654,0.0,2023,6,7,15,25,24,310
42.70760,-0.07210,-0.04952,0.00000,0.03148,0.97612,-0.18703,0.0,2023,6,7,15,25,24,320
42.70770,0.06790,-0.03202,0.00000,0.03196,0.97856,-0.18715,0.0,2023,6,7,15,25,24,330
42.70780,0.22540,-0.03202,0.00000,0.03026,0.97759,-0.18690,0.0,2023,6,7,15,25,24,340
42.70790,0.26040,-0.08452,0.00000,0.03343,0.97551,-0.18812,0.0,2023,6,7,15,25,24,350
42.70800,-0.15960,0.02048,0.00000,0.03160,0.97710,-0.18654,0.0,2023,6,7,15,25,24,360
42.70810,-0.10710,0.00298,0.00000,0.03111,0.97551,-0.18751,0.0,2023,6,7,15,25,24,370
42.70820,-0.01960,0.02048,0.00000,0.03087,0.97734,-0.18654,0.0,2023,6,7,15,25,24,380
42.70830,-0.03710,0.05548,0.00000,0.03343,0.97820,-0.18825,0.0,2023,6,7,15,25,24,390
42.70840,0.01540,-0.22452,0.00000,0.02940,0.97673,-0.18861,0.0,2023,6,7,15,25,24,400
42.70850,0.08540,-0.13702,0.00000,0.03306,0.97551,-0.18642,0.0,2023,6,7,15,25,24,410
42.70860,0.05040,0.05548,0.00000,0.03172,0.97698,-0.18910,0.0,2023,6,7,15,25,24,420
42.70870,-0.00210,0.03798,0.00000,0.03196,0.97624,-0.18727,0.0,2023,6,7,15,25,24,430
42.70880,0.06790,-0.15452,0.00000,0.03026,0.97722,-0.18873,0.0,2023,6,7,15,25,24,440
42.70890,-0.00210,0.09048,0.00000,0.03209,0.97563,-0.18568,0.0,2023,6,7,15,25,24,450
42.70900,0.01540,-0.03202,0.00000,0.03270,0.97929,-0.18654,0.0,2023,6,7,15,25,24,460
42.70910,-0.17710,-0.08452,0.00000,0.03148,0.97576,-0.18678,0.0,2023,6,7,15,25,24,470
42.70920,0.15540,-0.32952,0.00000,0.03160,0.97685,-0.18727,0.0,2023,6,7,15,25,24,480
42.70930,-0.00210,-0.18952,0.00000,0.03294,0.97576,-0.18593,0.0,2023,6,7,15,25,25,490
42.70940,-0.05460,-0.01452,0.00000,0.03123,0.97527,-0.18703,0.0,2023,6,7,15,25,25,500
42.70950,0.03290,-0.06702,0.00000,0.02989,0.97576,-0.18849,0.0,2023,6,7,15,25,25,510
42.70960,-0.14210,0.09048,0.00000,0.03074,0.97685,-0.18654,0.0,2023,6,7,15,25,25,520
42.70970,0.01540,0.09048,0.00000,0.03148,0.97673,-0.18800,0.0,2023,6,7,15,25,25,530
42.70980,-0.00210,-0.15452,0.00000,0.03160,0.97649,-0.18776,0.0,2023,6,7,15,25,25,540
42.70990,0.10290,-0.13702,0.00000,0.02977,0.97649,-0.18995,0.0,2023,6,7,15,25,25,550
42.71000,0.12040,0.14298,0.00000,0.03050,0.97722,-0.18715,0.0,2023,6,7,15,25,25,560
42.71010,-0.05460,0.05548,0.00000,0.03099,0.97685,-0.18886,0.0,2023,6,7,15,25,25,570
42.71020,-0.00210,-0.06702,0.00000,0.03062,0.97734,-0.18983,0.0,2023,6,7,15,25,25,580
42.71030,-0.07210,0.00298,0.00000,0.03062,0.97515,-0.18715,0.0,2023,6,7,15,25,25,590
42.71040,-0.22960,0.14298,0.00000,0.03160,0.97551,-0.18703,0.0,2023,6,7,15,25,25,600
42.71050,0.13790,-0.01452,0.00000,0.03270,0.97783,-0.18593,0.0,2023,6,7,15,25,25,610
42.71060,-0.05460,-0.01452,0.00000,0.03172,0.97588,-0.18934,0.0,2023,6,7,15,25,25,620
42.71070,-0.15960,0.38798,0.00000,0.02977,0.97588,-0.18788,0.0,2023,6,7,15,25,25,630
42.71080,-0.00210,-0.13702,0.00000,0.03038,0.97637,-0.18666,0.0,2023,6,7,15,25,25,640
42.71090,-0.00210,0.10798,0.00000,0.03196,0.97576,-0.18861,0.0,2023,6,7,15,25,25,650
42.71100,-0.08960,-0.10202,0.00000,0.02904,0.97844,-0.18788,0.0,2023,6,7,15,25,25,660
42.71110,0.06790,-0.06702,0.00000,0.03013,0.97624,-0.18812,0.0,2023,6,7,15,25,25,670
42.71120,-0.08960,0.09048,0.00000,0.03111,0.97698,-0.18739,0.0,2023,6,7,15,25,25,680
42.71130,0.05040,-0.11952,0.00000,0.03209,0.97380,-0.18776,0.0,2023,6,7,15,25,25,690
42.71140,0.10290,0.07298,0.00000,0.02952,0.97563,-0.18764,0.0,2023,6,7,15,25,25,700
42.71150,0.08540,-0.06702,0.00000,0.03196,0.97588,-0.18825,0.0,2023,6,7,15,25,25,710
42.71160,-0.15960,-0.08452,0.00000,0.03184,0.97734,-0.18947,0.0,2023,6,7,15,25,25,720
42.71170,-0.24710,-0.01452,0.00000,0.03135,0.97624,-0.18959,0.0,2023,6,7,15,25,25,730
42.71180,0.12040,0.02048,0.00000,0.03294,0.97539,-0.18715,0.0,2023,6,7,15,25,25,740
42.71190,0.06790,0.07298,0.00000,0.03160,0.97905,-0.19069,0.0,2023,6,7,15,25,25,750
42.71200,-0.31710,0.02048,0.00000,0.03111,0.97624,-0.18788,0.0,2023,6,7,15,25,25,760
42.71210,-0.00210,-0.20702,0.00000,0.03123,0.97771,-0.18849,0.0,2023,6,7,15,25,25,770
42.71220,-0.01960,-0.04952,0.00000,0.03196,0.97661,-0.18849,0.0,2023,6,7,15,25,25,780
42.71230,-0.03710,-0.13702,0.00000,0.03074,0.97685,-0.18898,0.0,2023,6,7,15,25,25,790
42.71240,-0.00210,-0.08452,0.00000,0.03062,0.97637,-0.18654,0.0,2023,6,7,15,25,25,800
42.71250,-0.01960,0.05548,0.00000,0.03123,0.97649,-0.18666,0.0,2023,6,7,15,25,25,810
42.71260,-0.07210,-0.08452,0.00000,0.03318,0.97490,-0.18873,0.0,2023,6,7,15,25,25,820
42.71270,0.15540,-0.03202,0.00000,0.03209,0.97624,-0.18837,0.0,2023,6,7,15,25,25,830
42.71280,-0.10710,-0.20702,0.00000,0.03111,0.97661,-0.18800,0.0,2023,6,7,15,25,25,840
42.71290,0.03290,0.00298,0.00000,0.02989,0.97759,-0.19081,0.0,2023,6,7,15,25,25,850
42.71300,0.13790,-0.11952,0.00000,0.03148,0.97698,-0.18654,0.0,2023,6,7,15,25,25,860
42.71310,0.06790,-0.08452,0.00000,0.03245,0.97685,-0.18739,0.0,2023,6,7,15,25,25,870
42.71320,0.05040,-0.01452,0.00000,0.03123,0.97576,-0.18739,0.0,2023,6,7,15,25,25,880
42.71330,0.10290,-0.04952,0.00000,0.03306,0.97429,-0.18703,0.0,2023,6,7,15,25,25,890
42.71340,0.08540,0.00298,0.00000,0.03135,0.97490,-0.18593,0.0,2023,6,7,15,25,25,900
42.71350,-0.01960,0.03798,0.00000,0.02818,0.97661,-0.18703,0.0,2023,6,7,15,25,25,910
42.71360,0.03290,-0.13702,0.00000,0.03001,0.97673,-0.18934,0.0,2023,6,7,15,25,25,920
42.71370,-0.10710,0.09048,0.00000,0.03160,0.97441,-0.18886,0.0,2023,6,7,15,25,25,930
42.71380,0.13790,-0.17202,0.00000,0.03074,0.97515,-0.18654,0.0,2023,6,7,15,25,25,940
42.71390,0.15540,0.09048,0.00000,0.03123,0.97551,-0.19056,0.0,2023,6,7,15,25,25,950
42.71400,-0.08960,-0.08452,0.00000,0.03209,0.97856,-0.18629,0.0,2023,6,7,15,25,25,960
42.71410,-0.08960,0.10798,0.00000,0.03160,0.97490,-0.18898,0.0,2023,6,7,15,25,25,970
42.71420,-0.01960,-0.04952,0.00000,0.03172,0.97271,-0.18922,0.0,2023,6,7,15,25,25,980
42.71430,-0.10710,0.14298,0.00000,0.03087,0.97478,-0.18715,0.0,2023,6,7,15,25,25,990
42.71440,0.13790,-0.10202,0.00000,0.03001,0.97612,-0.18751,0.0,2023,6,7,15,25,25,0
42.71450,-0.10710,-0.06702,0.00000,0.02818,0.97759,-0.18812,0.0,2023,6,7,15,25,25,10
42.71460,-0.01960,-0.11952,0.00000,0.03026,0.97454,-0.19117,0.0,2023,6,7,15,25,25,20
42.71470,-0.15960,0.14298,0.00000,0.03221,0.97893,-0.18825,0.0,2023,6,7,15,25,25,30
42.71480,0.36540,-0.04952,0.00000,0.03135,0.97637,-0.18483,0.0,2023,6,7,15,25,25,40
42.71490,-0.05460,0.12548,0.00000,0.03148,0.97649,-0.18934,0.0,2023,6,7,15,25,25,50
42.71500,0.03290,-0.04952,0.00000,0.03148,0.97588,-0.18837,0.0,2023,6,7,15,25,25,60
42.71510,0.15540,-0.03202,0.00000,0.03245,0.97624,-0.18837,0.0,2023,6,7,15,25,25,70
42.71520,-0.03710,-0.04952,0.00000,0.03087,0.97417,-0.18727,0.0,2023,6,7,15,25,25,80
42.71530,0.13790,0.16048,0.00000,0.03160,0.97637,-0.18837,0.0,2023,6,7,15,25,25,90
42.71540,0.05040,0.09048,0.00000,0.02891,0.97637,-0.18825,0.0,2023,6,7,15,25,25,100
42.71550,0.15540,0.02048,0.00000,0.03099,0.97246,-0.18825,0.0,2023,6,7,15,25,25,110
42.71560,0.01540,-0.04952,0.00000,0.03148,0.97759,-0.18666,0.0,2023,6,7,15,25,25,120
42.71570,0.08540,-0.03202,0.00000,0.03160,0.97673,-0.18825,0.0,2023,6,7,15,25,25,130
42.71580,0.06790,-0.18952,0.00000,0.03233,0.97588,-0.18934,0.0,2023,6,7,15,25,25,140
42.71590,-0.17710,-0.11952,0.00000,0.03087,0.97637,-0.18629,0.0,2023,6,7,15,25,25,150
42.71600,0.15540,0.02048,0.00000,0.03074,0.97551,-0.18788,0.0,2023,6,7,15,25,25,160
42.71610,-0.00210,0.00298,0.00000,0.03038,0.97588,-0.19032,0.0,2023,6,7,15,25,25,170
42.71620,0.10290,0.02048,0.00000,0.03062,0.97673,-0.18788,0.0,2023,6,7,15,25,25,180
42.71630,-0.10710,-0.18952,0.00000,0.03001,0.97624,-0.18703,0.0,2023,6,7,15,25,25,190
42.71640,0.15540,-0.13702,0.00000,0.03135,0.97734,-0.18812,0.0,2023,6,7,15,25,25,200
42.71650,0.05040,-0.11952,0.00000,0.02977,0.97685,-0.18947,0.0,2023,6,7,15,25,25,210
42.71660,0.10290,0.03798,0.00000,0.03135,0.97612,-0.18934,0.0,2023,6,7,15,25,25,220
42.71670,0.15540,-0.04952,0.00000,0.03196,0.97563,-0.18910,0.0,2023,6,7,15,25,25,230
42.71680,0.03290,-0.22452,0.00000,0.03196,0.97649,-0.18642,0.0,2023,6,7,15,25,25,240
42.71690,0.17290,-0.10202,0.00000,0.03038,0.97405,-0.19081,0.0,2023,6,7,15,25,25,250
42.71700,0.01540,-0.06702,0.00000,0.03428,0.97551,-0.18812,0.0,2023,6,7,15,25,25,260
42.71710,-0.08960,0.07298,0.00000,0.03135,0.97539,-0.18922,0.0,2023,6,7,15,25,25,270
42.71720,-0.01960,0.00298,0.00000,0.03062,0.97637,-0.18861,0.0,2023,6,7,15,25,25,280
42.71730,-0.07210,-0.24202,0.00000,0.03172,0.97515,-0.18995,0.0,2023,6,7,15,25,25,290
42.71740,0.01540,-0.08452,0.00000,0.03233,0.97881,-0.18800,0.0,2023,6,7,15,25,25,300
42.71750,-0.03710,-0.01452,0.00000,0.03233,0.97612,-0.18910,0.0,2023,6,7,15,25,25,310
42.71760,0.05040,0.05548,0.00000,0.03172,0.97515,-0.18922,0.0,2023,6,7,15,25,25,320
42.71770,0.03290,-0.20702,0.00000,0.03367,0.97612,-0.18825,0.0,2023,6,7,15,25,25,330
42.71780,-0.07210,0.09048,0.00000,0.03026,0.97417,-0.19032,0.0,2023,6,7,15,25,25,340
42.71790,0.03290,0.09048,0.00000,0.03099,0.97820,-0.18983,0.0,2023,6,7,15,25,25,350
42.71800,-0.00210,-0.01452,0.00000,0.03245,0.97820,-0.18861,0.0,2023,6,7,15,25,25,360
42.71810,0.10290,-0.04952,0.00000,0.03074,0.97502,-0.18654,0.0,2023,6,7,15,25,25,370
42.71820,-0.05460,-0.04952,0.00000,0.03245,0.97478,-0.18629,0.0,2023,6,7,15,25,25,380
42.71830,0.01540,0.02048,0.00000,0.03172,0.97698,-0.18556,0.0,2023,6,7,15,25,26,390
42.71840,0.10290,-0.03202,0.00000,0.03196,0.97771,-0.18788,0.0,2023,6,7,15,25,26,400
42.71850,0.06790,-0.04952,0.00000,0.03282,0.97502,-0.18800,0.0,2023,6,7,15,25,26,410
42.71860,-0.00210,-0.11952,0.00000,0.03111,0.97746,-0.18898,0.0,2023,6,7,15,25,26,420
42.71870,0.08540,0.19548,0.00000,0.03245,0.97515,-0.18654,0.0,2023,6,7,15,25,26,430
42.71880,-0.21210,-0.03202,0.00000,0.03111,0.97502,-0.18898,0.0,2023,6,7,15,25,26,440
42.71890,-0.00210,0.16048,0.00000,0.03148,0.97588,-0.18739,0.0,2023,6,7,15,25,26,450
42.71900,0.03290,-0.24202,0.00000,0.03209,0.97637,-0.18788,0.0,2023,6,7,15,25,26,460
42.71910,0.08540,-0.24202,0.00000,0.03184,0.97563,-0.18922,0.0,2023,6,7,15,25,26,470
42.71920,-0.00210,0.07298,0.00000,0.03062,0.98039,-0.18764,0.0,2023,6,7,15,25,26,480
42.71930,0.05040,0.07298,0.00000,0.03111,0.97576,-0.18910,0.0,2023,6,7,15,25,26,490
42.71940,0.22540,0.00298,0.00000,0.03294,0.97746,-0.18825,0.0,2023,6,7,15,25,26,500
42.71950,0.08540,-0.11952,0.00000,0.03050,0.97649,-0.18788,0.0,2023,6,7,15,25,26,510
42.71960,0.06790,0.00298,0.00000,0.03123,0.97661,-0.18751,0.0,2023,6,7,15,25,26,520
42.71970,-0.33460,-0.01452,0.00000,0.03209,0.97746,-0.18776,0.0,2023,6,7,15,25,26,530
42.71980,0.29540,-0.10202,0.00000,0.03233,0.97539,-0.18910,0.0,2023,6,7,15,25,26,540
42.71990,0.19040,-0.20702,0.00000,0.03013,0.97771,-0.18812,0.0,2023,6,7,15,25,26,550
42.72000,-0.08960,0.07298,0.00000,0.03160,0.97649,-0.18593,0.0,2023,6,7,15,25,26,560
42.72010,-0.08960,-0.20702,0.00000,0.03196,0.97637,-0.18861,0.0,2023,6,7,15,25,26,570
42.72020,-0.05460,0.10798,0.00000,0.03013,0.97612,-0.18959,0.0,2023,6,7,15,25,26,580
42.72030,-0.14210,0.24798,0.00000,0.03172,0.97527,-0.18751,0.0,2023,6,7,15,25,26,590
42.72040,-0.10710,0.03798,0.00000,0.02965,0.97637,-0.18751,0.0,2023,6,7,15,25,26,600
42.72050,0.17290,-0.01452,0.00000,0.03209,0.97478,-0.18837,0.0,2023,6,7,15,25,26,610
42.72060,-0.03710,-0.04952,0.00000,0.03062,0.97515,-0.18837,0.0,2023,6,7,15,25,26,620
42.72070,0.12040,-0.13702,0.00000,0.03196,0.97746,-0.18764,0.0,2023,6,7,15,25,26,630
42.72080,0.15540,-0.15452,0.00000,0.03209,0.97551,-0.18739,0.0,2023,6,7,15,25,26,640
42.72090,-0.00210,-0.13702,0.00000,0.03135,0.97490,-0.18507,0.0,2023,6,7,15,25,26,650
42.72100,-0.14210,-0.10202,0.00000,0.03331,0.97612,-0.18910,0.0,2023,6,7,15,25,26,660
42.72110,-0.08960,0.05548,0.00000,0.03135,0.97551,-0.18971,0.0,2023,6,7,15,25,26,670
42.72120,0.03290,0.07298,0.00000,0.03123,0.97454,-0.18971,0.0,2023,6,7,15,25,26,680
42.72130,-0.08960,0.10798,0.00000,0.03038,0.97807,-0.18739,0.0,2023,6,7,15,25,26,690
42.72140,-0.10710,-0.10202,0.00000,0.03087,0.97588,-0.18959,0.0,2023,6,7,15,25,26,700
42.72150,-0.17710,0.14298,0.00000,0.03099,0.97649,-0.18983,0.0,2023,6,7,15,25,26,710
42.72160,0.20790,0.02048,0.00000,0.03123,0.97661,-0.18873,0.0,2023,6,7,15,25,26,720
42.72170,-0.12460,-0.18952,0.00000,0.03087,0.97771,-0.18800,0.0,2023,6,7,15,25,26,730
42.72180,0.13790,0.10798,0.00000,0.03160,0.97588,-0.18934,0.0,2023,6,7,15,25,26,740
42.72190,0.06790,0.02048,0.00000,0.03221,0.97478,-0.18800,0.0,2023,6,7,15,25,26,750
42.72200,-0.17710,-0.04952,0.00000,0.03111,0.97698,-0.18568,0.0,2023,6,7,15,25,26,760
42.72210,0.05040,-0.13702,0.00000,0.03074,0.97661,-0.18776,0.0,2023,6,7,15,25,26,770
42.72220,-0.12460,0.09048,0.00000,0.03184,0.97563,-0.19020,0.0,2023,6,7,15,25,26,780
42.72230,-0.05460,-0.17202,0.00000,0.03160,0.97612,-0.19032,0.0,2023,6,7,15,25,26,790
42.72240,-0.00210,0.16048,0.00000,0.03026,0.97685,-0.18898,0.0,2023,6,7,15,25,26,800
42.72250,0.12040,-0.18952,0.00000,0.03306,0.97661,-0.18593,0.0,2023,6,7,15,25,26,810
42.72260,-0.08960,0.02048,0.00000,0.03135,0.97466,-0.18922,0.0,2023,6,7,15,25,26,820
42.72270,-0.01960,0.07298,0.00000,0.03001,0.97868,-0.18861,0.0,2023,6,7,15,25,26,830
42.72280,-0.12460,0.00298,0.00000,0.03050,0.97502,-0.18593,0.0,2023,6,7,15,25,26,840
42.72290,0.06790,-0.10202,0.00000,0.03160,0.97551,-0.18642,0.0,2023,6,7,15,25,26,850
42.72300,-0.03710,0.14298,0.00000,0.03184,0.97698,-0.18849,0.0,2023,6,7,15,25,26,860
42.72310,-0.03710,0.02048,0.00000,0.02891,0.97380,-0.18788,0.0,2023,6,7,15,25,26,870
42.72320,-0.10710,0.24798,0.00000,0.02977,0.97637,-0.18812,0.0,2023,6,7,15,25,26,880
42.72330,0.06790,0.02048,0.00000,0.03196,0.97673,-0.18739,0.0,2023,6,7,15,25,26,890
42.72340,-0.03710,0.14298,0.00000,0.03111,0.97746,-0.18825,0.0,2023,6,7,15,25,26,900
42.72350,0.03290,-0.18952,0.00000,0.03172,0.97637,-0.18690,0.0,2023,6,7,15,25,26,910
42.72360,-0.03710,-0.20702,0.00000,0.03160,0.97649,-0.18654,0.0,2023,6,7,15,25,26,920
42.72370,0.13790,-0.01452,0.00000,0.02928,0.97588,-0.18764,0.0,2023,6,7,15,25,26,930
42.72380,0.08540,0.05548,0.00000,0.03282,0.97698,-0.18764,0.0,2023,6,7,15,25,26,940
42.72390,0.10290,-0.04952,0.00000,0.03160,0.97698,-0.18751,0.0,2023,6,7,15,25,26,950
42.72400,-0.00210,-0.17202,0.00000,0.03172,0.97539,-0.18739,0.0,2023,6,7,15,25,26,960
42.72410,0.05040,0.09048,0.00000,0.03038,0.97929,-0.18532,0.0,2023,6,7,15,25,26,970
42.72420,-0.07210,0.00298,0.00000,0.03160,0.97929,-0.18715,0.0,2023,6,7,15,25,26,980
42.72430,0.13790,0.00298,0.00000,0.03123,0.97734,-0.18873,0.0,2023,6,7,15,25,26,990
42.72440,0.17290,-0.17202,0.00000,0.03111,0.97649,-0.18617,0.0,2023,6,7,15,25,26,0
42.72450,0.15540,-0.18952,0.00000,0.03245,0.97649,-0.18617,0.0,2023,6,7,15,25,26,10
42.72460,0.01540,0.00298,0.00000,0.03111,0.97380,-0.18629,0.0,2023,6,7,15,25,26,20
42.72470,-0.00210,0.02048,0.00000,0.03172,0.97637,-0.18800,0.0,2023,6,7,15,25,26,30
42.72480,-0.05460,-0.04952,0.00000,0.03087,0.97698,-0.18751,0.0,2023,6,7,15,25,26,40
42.72490,0.13790,-0.08452,0.00000,0.03013,0.97795,-0.18764,0.0,2023,6,7,15,25,26,50
42.72500,0.12040,-0.13702,0.00000,0.03087,0.97759,-0.18776,0.0,2023,6,7,15,25,26,60
42.72510,-0.07210,-0.10202,0.00000,0.03172,0.97929,-0.18800,0.0,2023,6,7,15,25,26,70
42.72520,0.12040,0.05548,0.00000,0.03001,0.97563,-0.18812,0.0,2023,6,7,15,25,26,80
42.72530,0.06790,-0.11952,0.00000,0.03099,0.97478,-0.18739,0.0,2023,6,7,15,25,26,90
42.72540,-0.14210,-0.13702,0.00000,0.03111,0.97771,-0.18703,0.0,2023,6,7,15,25,26,100
42.72550,-0.03710,0.19548,0.00000,0.03233,0.97454,-0.18764,0.0,2023,6,7,15,25,26,110
42.72560,-0.01960,-0.03202,0.00000,0.03306,0.97746,-0.18800,0.0,2023,6,7,15,25,26,120
42.72570,0.10290,-0.06702,0.00000,0.03196,0.97637,-0.18910,0.0,2023,6,7,15,25,26,130
42.72580,-0.21210,0.05548,0.00000,0.03318,0.97576,-0.18544,0.0,2023,6,7,15,25,26,140
42.72590,0.01540,-0.17202,0.00000,0.03196,0.97783,-0.18727,0.0,2023,6,7,15,25,26,150
42.72600,-0.03710,-0.06702,0.00000,0.03001,0.97454,-0.18751,0.0,2023,6,7,15,25,26,160
42.72610,0.06790,-0.15452,0.00000,0.03233,0.97637,-0.18520,0.0,2023,6,7,15,25,26,170
42.72620,-0.01960,-0.01452,0.00000,0.03062,0.97734,-0.18532,0.0,2023,6,7,15,25,26,180
42.72630,-0.01960,-0.10202,0.00000,0.02891,0.97685,-0.18837,0.0,2023,6,7,15,25,26,190
42.72640,-0.03710,-0.06702,0.00000,0.03245,0.97490,-0.18666,0.0,2023,6,7,15,25,26,200
42.72650,0.03290,-0.11952,0.00000,0.03160,0.97612,-0.18642,0.0,2023,6,7,15,25,26,210
42.72660,0.03290,-0.01452,0.00000,0.03111,0.97734,-0.18703,0.0,2023,6,7,15,25,26,220
42.72670,-0.01960,-0.04952,0.00000,0.03111,0.97576,-0.18703,0.0,2023,6,7,15,25,26,230
42.72680,0.08540,0.03798,0.00000,0.03111,0.97527,-0.18934,0.0,2023,6,7,15,25,26,240
42.72690,-0.12460,-0.08452,0.00000,0.02940,0.97527,-0.18751,0.0,2023,6,7,15,25,26,250
42.72700,-0.08960,0.00298,0.00000,0.03099,0.97673,-0.18800,0.0,2023,6,7,15,25,26,260
42.72710,0.06790,-0.22452,0.00000,0.02952,0.97661,-0.18703,0.0,2023,6,7,15,25,26,270
42.72720,0.05040,-0.01452,0.00000,0.03221,0.97356,-0.18581,0.0,2023,6,7,15,25,26,280
42.72730,0.06790,-0.01452,0.00000,0.02879,0.97734,-0.18788,0.0,2023,6,7,15,25,26,290
42.72740,0.05040,0.03798,0.00000,0.03257,0.97759,-0.18825,0.0,2023,6,7,15,25,27,300
42.72750,-0.12460,0.02048,0.00000,0.02977,0.97624,-0.18739,0.0,2023,6,7,15,25,27,310
42.72760,0.12040,-0.03202,0.00000,0.03111,0.97563,-0.18715,0.0,2023,6,7,15,25,27,320
42.72770,0.12040,-0.08452,0.00000,0.03233,0.97673,-0.18715,0.0,2023,6,7,15,25,27,330
42.72780,-0.07210,0.05548,0.00000,0.03062,0.97563,-0.18873,0.0,2023,6,7,15,25,27,340
42.72790,-0.12460,0.21298,0.00000,0.03062,0.97746,-0.18532,0.0,2023,6,7,15,25,27,350
42.72800,0.05040,-0.13702,0.00000,0.03160,0.97893,-0.18690,0.0,2023,6,7,15,25,27,360
42.72810,0.01540,-0.01452,0.00000,0.02977,0.97515,-0.18812,0.0,2023,6,7,15,25,27,370
42.72820,-0.10710,0.12548,0.00000,0.03148,0.97600,-0.18947,0.0,2023,6,7,15,25,27,380
42.72830,-0.01960,-0.10202,0.00000,0.03013,0.97685,-0.18739,0.0,2023,6,7,15,25,27,390
42.72840,0.01540,0.12548,0.00000,0.03038,0.97466,-0.18825,0.0,2023,6,7,15,25,27,400
42.72850,0.03290,-0.15452,0.00000,0.03074,0.97795,-0.18861,0.0,2023,6,7,15,25,27,410
42.72860,-0.05460,0.02048,0.00000,0.03038,0.97795,-0.18764,0.0,2023,6,7,15,25,27,420
42.72870,0.03290,-0.11952,0.00000,0.03245,0.97734,-0.19081,0.0,2023,6,7,15,25,27,430
42.72880,-0.08960,-0.13702,0.00000,0.03245,0.97612,-0.18568,0.0,2023,6,7,15,25,27,440
42.72890,-0.03710,0.07298,0.00000,0.03160,0.97673,-0.18556,0.0,2023,6,7,15,25,27,450
42.72900,0.10290,0.12548,0.00000,0.03233,0.97685,-0.18776,0.0,2023,6,7,15,25,27,460
42.72910,0.10290,-0.11952,0.00000,0.03184,0.97624,-0.18739,0.0,2023,6,7,15,25,27,470
42.72920,-0.03710,-0.08452,0.00000,0.03099,0.97466,-0.18861,0.0,2023,6,7,15,25,27,480
42.72930,-0.00210,-0.13702,0.00000,0.03087,0.97771,-0.18703,0.0,2023,6,7,15,25,27,490
42.72940,0.05040,-0.20702,0.00000,0.02867,0.97490,-0.18800,0.0,2023,6,7,15,25,27,500
42.72950,0.15540,-0.11952,0.00000,0.03196,0.97734,-0.18776,0.0,2023,6,7,15,25,27,510
42.72960,0.01540,0.14298,0.00000,0.03172,0.97380,-0.18666,0.0,2023,6,7,15,25,27,520
42.72970,-0.12460,0.07298,0.00000,0.02989,0.97527,-0.18837,0.0,2023,6,7,15,25,27,530
42.72980,-0.03710,0.02048,0.00000,0.03001,0.97685,-0.18898,0.0,2023,6,7,15,25,27,540
42.72990,0.10290,-0.06702,0.00000,0.03123,0.97759,-0.18642,0.0,2023,6,7,15,25,27,550
42.73000,0.01540,0.14298,0.00000,0.03123,0.97637,-0.18715,0.0,2023,6,7,15,25,27,560
42.73010,0.05040,0.00298,0.00000,0.02965,0.97637,-0.18581,0.0,2023,6,7,15,25,27,570
42.73020,-0.05460,0.14298,0.00000,0.02867,0.97576,-0.18593,0.0,2023,6,7,15,25,27,580
42.73030,-0.08960,0.21298,0.00000,0.03160,0.97722,-0.18922,0.0,2023,6,7,15,25,27,590
42.73040,-0.14210,0.02048,0.00000,0.03196,0.97600,-0.18690,0.0,2023,6,7,15,25,27,600
42.73050,0.12040,-0.04952,0.00000,0.03038,0.97576,-0.18556,0.0,2023,6,7,15,25,27,610
42.73060,-0.07210,0.10798,0.00000,0.03050,0.97856,-0.19008,0.0,2023,6,7,15,25,27,620
42.73070,-0.07210,0.23048,0.00000,0.03013,0.97600,-0.18922,0.0,2023,6,7,15,25,27,630
42.73080,0.13790,0.10798,0.00000,0.03062,0.97588,-0.18837,0.0,2023,6,7,15,25,27,640
42.73090,-0.03710,0.00298,0.00000,0.03172,0.97576,-0.18959,0.0,2023,6,7,15,25,27,650
42.73100,-0.10710,0.05548,0.00000,0.03099,0.97551,-0.18971,0.0,2023,6,7,15,25,27,660
42.73110,0.19040,0.14298,0.00000,0.03392,0.97893,-0.18934,0.0,2023,6,7,15,25,27,670
42.73120,-0.05460,0.10798,0.00000,0.02867,0.97612,-0.18898,0.0,2023,6,7,15,25,27,680
42.73130,-0.12460,-0.01452,0.00000,0.03233,0.97454,-0.18800,0.0,2023,6,7,15,25,27,690
42.73140,0.12040,-0.04952,0.00000,0.03148,0.97746,-0.18471,0.0,2023,6,7,15,25,27,700
42.73150,-0.08960,-0.01452,0.00000,0.03233,0.97698,-0.18593,0.0,2023,6,7,15,25,27,710
42.73160,0.05040,0.00298,0.00000,0.03172,0.97612,-0.18764,0.0,2023,6,7,15,25,27,720
42.73170,0.13790,-0.01452,0.00000,0.03111,0.97539,-0.18666,0.0,2023,6,7,15,25,27,730
42.73180,-0.08960,0.02048,0.00000,0.03111,0.97466,-0.18825,0.0,2023,6,7,15,25,27,740
42.73190,0.03290,0.30048,0.00000,0.02989,0.97722,-0.18922,0.0,2023,6,7,15,25,27,750
42.73200,0.05040,-0.13702,0.00000,0.03001,0.97588,-0.18703,0.0,2023,6,7,15,25,27,760
42.73210,-0.01960,0.02048,0.00000,0.03392,0.97539,-0.19008,0.0,2023,6,7,15,25,27,770
42.73220,-0.10710,0.23048,0.00000,0.03135,0.97673,-0.18837,0.0,2023,6,7,15,25,27,780
42.73230,-0.07210,0.07298,0.00000,0.03196,0.97515,-0.18776,0.0,2023,6,7,15,25,27,790
42.73240,-0.05460,-0.17202,0.00000,0.03087,0.97795,-0.18861,0.0,2023,6,7,15,25,27,800
42.73250,0.06790,-0.04952,0.00000,0.02952,0.97734,-0.18898,0.0,2023,6,7,15,25,27,810
42.73260,-0.01960,-0.10202,0.00000,0.03172,0.97515,-0.18922,0.0,2023,6,7,15,25,27,820
42.73270,-0.05460,-0.04952,0.00000,0.03184,0.97685,-0.18788,0.0,2023,6,7,15,25,27,830
42.73280,0.19040,0.16048,0.00000,0.03416,0.97661,-0.19020,0.0,2023,6,7,15,25,27,840
42.73290,-0.00210,-0.29452,0.00000,0.03172,0.97551,-0.18751,0.0,2023,6,7,15,25,27,850
42.73300,0.17290,-0.01452,0.00000,0.03123,0.97661,-0.18873,0.0,2023,6,7,15,25,27,860
42.73310,0.10290,-0.10202,0.00000,0.03099,0.97576,-0.18983,0.0,2023,6,7,15,25,27,870
42.73320,-0.12460,-0.01452,0.00000,0.03343,0.97502,-0.18971,0.0,2023,6,7,15,25,27,880
42.73330,-0.07210,-0.03202,0.00000,0.03282,0.97576,-0.18788,0.0,2023,6,7,15,25,27,890
42.73340,0.10290,-0.01452,0.00000,0.03074,0.97649,-0.18934,0.0,2023,6,7,15,25,27,900
42.73350,-0.01960,-0.15452,0.00000,0.03099,0.97600,-0.18520,0.0,2023,6,7,15,25,27,910
42.73360,0.13790,-0.11952,0.00000,0.03172,0.97710,-0.18690,0.0,2023,6,7,15,25,27,920
42.73370,-0.03710,-0.10202,0.00000,0.03172,0.97771,-0.19056,0.0,2023,6,7,15,25,27,930
42.73380,0.10290,-0.06702,0.00000,0.03062,0.97649,-0.19117,0.0,2023,6,7,15,25,27,940
42.73390,0.13790,0.09048,0.00000,0.02940,0.97515,-0.18873,0.0,2023,6,7,15,25,27,950
42.73400,0.08540,0.05548,0.00000,0.03123,0.97820,-0.19081,0.0,2023,6,7,15,25,27,960
42.73410,0.05040,-0.03202,0.00000,0.03257,0.97478,-0.18947,0.0,2023,6,7,15,25,27,970
42.73420,0.01540,-0.06702,0.00000,0.03209,0.97722,-0.18947,0.0,2023,6,7,15,25,27,980
42.73430,-0.00210,-0.08452,0.00000,0.03001,0.97685,-0.18764,0.0,2023,6,7,15,25,27,990
42.73440,0.06790,0.00298,0.00000,0.03074,0.97600,-0.19069,0.0,2023,6,7,15,25,27,0
42.73450,0.05040,-0.01452,0.00000,0.03184,0.97637,-0.18873,0.0,2023,6,7,15,25,27,10
42.73460,0.05040,-0.10202,0.00000,0.03245,0.97429,-0.18959,0.0,2023,6,7,15,25,27,20
42.73470,0.05040,0.00298,0.00000,0.03123,0.97673,-0.18873,0.0,2023,6,7,15,25,27,30
42.73480,0.03290,-0.10202,0.00000,0.03196,0.97576,-0.18739,0.0,2023,6,7,15,25,27,40
42.73490,0.05040,0.14298,0.00000,0.02989,0.97539,-0.18947,0.0,2023,6,7,15,25,27,50
42.73500,-0.01960,0.14298,0.00000,0.03026,0.97685,-0.18910,0.0,2023,6,7,15,25,27,60
42.73510,0.01540,-0.03202,0.00000,0.03367,0.97722,-0.18849,0.0,2023,6,7,15,25,27,70
42.73520,0.20790,-0.22452,0.00000,0.03392,0.97441,-0.18995,0.0,2023,6,7,15,25,27,80
42.73530,0.10290,-0.13702,0.00000,0.03038,0.97490,-0.18715,0.0,2023,6,7,15,25,27,90
42.73540,0.06790,-0.22452,0.00000,0.03074,0.97454,-0.18825,0.0,2023,6,7,15,25,27,100
42.73550,0.20790,0.02048,0.00000,0.02904,0.97698,-0.18934,0.0,2023,6,7,15,25,27,110
42.73560,-0.07210,0.07298,0.00000,0.03148,0.97441,-0.19056,0.0,2023,6,7,15,25,27,120
42.73570,0.01540,0.02048,0.00000,0.03294,0.97624,-0.18654,0.0,2023,6,7,15,25,27,130
42.73580,0.03290,0.10798,0.00000,0.03221,0.97771,-0.19020,0.0,2023,6,7,15,25,27,140
42.73590,-0.07210,0.00298,0.00000,0.03404,0.97942,-0.18788,0.0,2023,6,7,15,25,27,150
42.73600,-0.03710,0.03798,0.00000,0.03209,0.97673,-0.19105,0.0,2023,6,7,15,25,27,160
42.73610,-0.08960,-0.15452,0.00000,0.03428,0.97759,-0.19044,0.0,2023,6,7,15,25,27,170
42.73620,-0.03710,-0.04952,0.00000,0.03184,0.97795,-0.18727,0.0,2023,6,7,15,25,27,180
42.73630,0.20790,-0.15452,0.00000,0.03111,0.97417,-0.19020,0.0,2023,6,7,15,25,28,190
42.73640,-0.22960,0.09048,0.00000,0.03111,0.97832,-0.18788,0.0,2023,6,7,15,25,28,200
42.73650,0.06790,-0.10202,0.00000,0.03294,0.97624,-0.19008,0.0,2023,6,7,15,25,28,210
42.73660,0.01540,-0.13702,0.00000,0.03099,0.97710,-0.18776,0.0,2023,6,7,15,25,28,220
42.73670,-0.01960,-0.17202,0.00000,0.03148,0.97588,-0.18922,0.0,2023,6,7,15,25,28,230
42.73680,0.05040,0.02048,0.00000,0.03209,0.97795,-0.19178,0.0,2023,6,7,15,25,28,240
42.73690,0.10290,-0.08452,0.00000,0.03050,0.97661,-0.18898,0.0,2023,6,7,15,25,28,250
42.73700,0.01540,-0.03202,0.00000,0.03099,0.97710,-0.18983,0.0,2023,6,7,15,25,28,260
42.73710,0.10290,-0.08452,0.00000,0.03294,0.97624,-0.18886,0.0,2023,6,7,15,25,28,270
42.73720,-0.05460,-0.11952,0.00000,0.03148,0.97588,-0.18776,0.0,2023,6,7,15,25,28,280
42.73730,-0.08960,0.21298,0.00000,0.03257,0.97515,-0.18922,0.0,2023,6,7,15,25,28,290
42.73740,-0.19460,0.09048,0.00000,0.03123,0.97698,-0.19105,0.0,2023,6,7,15,25,28,300
42.73750,-0.15960,0.10798,0.00000,0.03013,0.97588,-0.18849,0.0,2023,6,7,15,25,28,310
42.73760,0.05040,0.00298,0.00000,0.03123,0.97881,-0.19044,0.0,2023,6,7,15,25,28,320
42.73770,-0.10710,-0.10202,0.00000,0.03184,0.97539,-0.19117,0.0,2023,6,7,15,25,28,330
42.73780,0.06790,-0.11952,0.00000,0.03318,0.97576,-0.18934,0.0,2023,6,7,15,25,28,340
42.73790,0.13790,-0.17202,0.00000,0.03160,0.97795,-0.18764,0.0,2023,6,7,15,25,28,350
42.73800,-0.08960,0.02048,0.00000,0.03001,0.97710,-0.19020,0.0,2023,6,7,15,25,28,360
42.73810,0.06790,0.05548,0.00000,0.03294,0.97637,-0.18788,0.0,2023,6,7,15,25,28,370
42.73820,-0.07210,0.28298,0.00000,0.03160,0.97795,-0.19044,0.0,2023,6,7,15,25,28,380
42.73830,0.03290,0.05548,0.00000,0.03062,0.97649,-0.18983,0.0,2023,6,7,15,25,28,390
42.73840,-0.01960,0.03798,0.00000,0.03087,0.97600,-0.18898,0.0,2023,6,7,15,25,28,400
42.73850,0.05040,-0.04952,0.00000,0.03026,0.97673,-0.18947,0.0,2023,6,7,15,25,28,410
42.73860,0.05040,-0.11952,0.00000,0.03270,0.97539,-0.18837,0.0,2023,6,7,15,25,28,420
42.73870,-0.00210,-0.03202,0.00000,0.02928,0.97820,-0.19020,0.0,2023,6,7,15,25,28,430
42.73880,-0.12460,0.21298,0.00000,0.03196,0.97502,-0.18837,0.0,2023,6,7,15,25,28,440
42.73890,-0.05460,-0.04952,0.00000,0.03184,0.97820,-0.18959,0.0,2023,6,7,15,25,28,450
42.73900,0.29540,0.12548,0.00000,0.03148,0.97490,-0.18788,0.0,2023,6,7,15,25,28,460
42.73910,0.08540,0.02048,0.00000,0.03050,0.97807,-0.18983,0.0,2023,6,7,15,25,28,470
42.73920,0.24290,-0.03202,0.00000,0.02989,0.97844,-0.18812,0.0,2023,6,7,15,25,28,480
42.73930,-0.19460,-0.03202,0.00000,0.03050,0.97649,-0.18703,0.0,2023,6,7,15,25,28,490
42.73940,-0.08960,-0.18952,0.00000,0.02965,0.97612,-0.18947,0.0,2023,6,7,15,25,28,500
42.73950,-0.05460,-0.22452,0.00000,0.02977,0.97807,-0.18971,0.0,2023,6,7,15,25,28,510
42.73960,-0.05460,0.03798,0.00000,0.03172,0.97466,-0.18910,0.0,2023,6,7,15,25,28,520
42.73970,0.13790,-0.01452,0.00000,0.03282,0.97271,-0.18934,0.0,2023,6,7,15,25,28,530
42.73980,0.10290,-0.08452,0.00000,0.03331,0.97600,-0.18727,0.0,2023,6,7,15,25,28,540
42.73990,0.05040,-0.08452,0.00000,0.03221,0.97441,-0.18739,0.0,2023,6,7,15,25,28,550
42.74000,-0.08960,-0.01452,0.00000,0.03270,0.97759,-0.18995,0.0,2023,6,7,15,25,28,560
42.74010,0.17290,-0.13702,0.00000,0.03148,0.97466,-0.18739,0.0,2023,6,7,15,25,28,570
42.74020,-0.03710,0.09048,0.00000,0.03099,0.97612,-0.18764,0.0,2023,6,7,15,25,28,580
42.74030,0.10290,-0.22452,0.00000,0.03294,0.97649,-0.18715,0.0,2023,6,7,15,25,28,590
42.74040,0.06790,-0.08452,0.00000,0.03001,0.97563,-0.18751,0.0,2023,6,7,15,25,28,600
42.74050,0.20790,-0.10202,0.00000,0.03257,0.97661,-0.19069,0.0,2023,6,7,15,25,28,610
42.74060,0.10290,0.16048,0.00000,0.03257,0.97698,-0.18715,0.0,2023,6,7,15,25,28,620
42.74070,0.05040,-0.04952,0.00000,0.03184,0.97441,-0.18690,0.0,2023,6,7,15,25,28,630
42.74080,-0.12460,-0.03202,0.00000,0.03160,0.97576,-0.18825,0.0,2023,6,7,15,25,28,640
42.74090,0.05040,-0.08452,0.00000,0.03026,0.97746,-0.18837,0.0,2023,6,7,15,25,28,650
42.74100,0.05040,-0.36452,0.00000,0.03135,0.97454,-0.18776,0.0,2023,6,7,15,25,28,660
42.74110,-0.12460,0.09048,0.00000,0.03257,0.97637,-0.18922,0.0,2023,6,7,15,25,28,670
42.74120,0.03290,0.07298,0.00000,0.03099,0.97624,-0.18812,0.0,2023,6,7,15,25,28,680
42.74130,-0.05460,0.05548,0.00000,0.03245,0.97685,-0.18959,0.0,2023,6,7,15,25,28,690
42.74140,-0.08960,0.21298,0.00000,0.03013,0.97588,-0.18544,0.0,2023,6,7,15,25,28,700
42.74150,-0.03710,-0.03202,0.00000,0.02916,0.97563,-0.19020,0.0,2023,6,7,15,25,28,710
42.74160,0.03290,-0.06702,0.00000,0.03233,0.97576,-0.18861,0.0,2023,6,7,15,25,28,720
42.74170,0.06790,-0.04952,0.00000,0.03062,0.97466,-0.18959,0.0,2023,6,7,15,25,28,730
42.74180,-0.03710,-0.01452,0.00000,0.03160,0.97624,-0.18849,0.0,2023,6,7,15,25,28,740
42.74190,0.19040,-0.01452,0.00000,0.03099,0.97673,-0.18934,0.0,2023,6,7,15,25,28,750
42.74200,0.06790,0.09048,0.00000,0.03001,0.97722,-0.18898,0.0,2023,6,7,15,25,28,760
42.74210,-0.28210,0.10798,0.00000,0.03050,0.97795,-0.18800,0.0,2023,6,7,15,25,28,770
42.74220,0.17290,0.12548,0.00000,0.03087,0.97527,-0.19069,0.0,2023,6,7,15,25,28,780
42.74230,-0.00210,-0.03202,0.00000,0.03148,0.97637,-0.19032,0.0,2023,6,7,15,25,28,790
42.74240,0.12040,-0.08452,0.00000,0.03209,0.97405,-0.18837,0.0,2023,6,7,15,25,28,800
42.74250,-0.22960,0.03798,0.00000,0.03099,0.97563,-0.18849,0.0,2023,6,7,15,25,28,810
42.74260,-0.01960,-0.10202,0.00000,0.03355,0.97673,-0.18886,0.0,2023,6,7,15,25,28,820
42.74270,-0.08960,0.00298,0.00000,0.03111,0.97515,-0.18983,0.0,2023,6,7,15,25,28,830
42.74280,0.12040,-0.08452,0.00000,0.02989,0.97734,-0.18568,0.0,2023,6,7,15,25,28,840
42.74290,0.10290,-0.20702,0.00000,0.03196,0.97478,-0.18922,0.0,2023,6,7,15,25,28,850
42.74300,0.06790,-0.01452,0.00000,0.03074,0.97600,-0.18959,0.0,2023,6,7,15,25,28,860
42.74310,0.05040,-0.06702,0.00000,0.03099,0.97576,-0.19105,0.0,2023,6,7,15,25,28,870
42.74320,-0.03710,0.24798,0.00000,0.03184,0.97771,-0.18764,0.0,2023,6,7,15,25,28,880
42.74330,0.08540,-0.01452,0.00000,0.03184,0.97637,-0.18825,0.0,2023,6,7,15,25,28,890
42.74340,-0.12460,0.09048,0.00000,0.03160,0.97454,-0.18678,0.0,2023,6,7,15,25,28,900
42.74350,-0.14210,0.09048,0.00000,0.03123,0.97563,-0.18898,0.0,2023,6,7,15,25,28,910
42.74360,0.01540,-0.04952,0.00000,0.03038,0.97722,-0.18776,0.0,2023,6,7,15,25,28,920
42.74370,-0.03710,0.07298,0.00000,0.03099,0.97734,-0.18910,0.0,2023,6,7,15,25,28,930
42.74380,-0.08960,0.07298,0.00000,0.03135,0.97978,-0.18886,0.0,2023,6,7,15,25,28,940
42.74390,0.03290,0.17798,0.00000,0.03050,0.97624,-0.18690,0.0,2023,6,7,15,25,28,950
42.74400,0.06790,-0.11952,0.00000,0.02965,0.97576,-0.18751,0.0,2023,6,7,15,25,28,960
42.74410,0.06790,-0.01452,0.00000,0.03148,0.97527,-0.18825,0.0,2023,6,7,15,25,28,970
42.74420,-0.07210,0.10798,0.00000,0.03233,0.97563,-0.18886,0.0,2023,6,7,15,25,28,980
42.74430,-0.00210,-0.11952,0.00000,0.03196,0.97612,-0.18825,0.0,2023,6,7,15,25,28,990
42.74440,0.05040,-0.15452,0.00000,0.03196,0.97698,-0.18825,0.0,2023,6,7,15,25,28,0
