#2023/06/07 17:48:13
time,wx,wy,wz,ax,ay,az,yy,MM,dd,hh,mm,ss,ms
50.40980,-0.01680,0.10832,0.00000,0.03087,0.97405,-0.19105,0.0,2023,6,7,17,48,14,417
50.40990,0.03570,0.16082,0.00000,0.03245,0.97576,-0.18861,0.0,2023,6,7,17,48,14,428
50.41000,-0.03430,0.03832,0.00000,0.03062,0.97612,-0.18983,0.0,2023,6,7,17,48,14,440
50.41010,0.05320,-0.04917,0.00000,0.02977,0.97637,-0.18764,0.0,2023,6,7,17,48,14,451
50.41020,0.03570,0.02083,0.00000,0.03135,0.97612,-0.18995,0.0,2023,6,7,17,48,14,463
50.41030,0.03570,-0.04917,0.00000,0.03245,0.97649,-0.19056,0.0,2023,6,7,17,48,14,474
50.41040,0.03570,-0.03167,0.00000,0.02952,0.97844,-0.19239,0.0,2023,6,7,17,48,14,486
50.41050,0.17570,0.07332,0.00000,0.03087,0.97771,-0.18959,0.0,2023,6,7,17,48,14,497
50.41060,0.08820,-0.04917,0.00000,0.03001,0.97710,-0.19020,0.0,2023,6,7,17,48,14,509
50.41070,-0.12180,0.02083,0.00000,0.03221,0.97441,-0.18873,0.0,2023,6,7,17,48,14,520
50.41080,-0.08680,0.14332,0.00000,0.03270,0.97649,-0.18800,0.0,2023,6,7,17,48,14,532
50.41090,0.19320,-0.06668,0.00000,0.02928,0.97637,-0.18983,0.0,2023,6,7,17,48,14,543
50.41100,0.10570,-0.06668,0.00000,0.03209,0.97490,-0.18947,0.0,2023,6,7,17,48,14,555
50.41110,0.17570,-0.36418,0.00000,0.03062,0.97673,-0.18764,0.0,2023,6,7,17,48,14,566
50.41120,0.01820,-0.08418,0.00000,0.03221,0.97600,-0.18959,0.0,2023,6,7,17,48,14,578
50.41130,-0.10430,0.26582,0.00000,0.03196,0.97820,-0.19032,0.0,2023,6,7,17,48,14,589
50.41140,-0.12180,-0.13668,0.00000,0.03172,0.97307,-0.18776,0.0,2023,6,7,17,48,14,601
50.41150,-0.27930,-0.01417,0.00000,0.03099,0.97490,-0.18703,0.0,2023,6,7,17,48,14,612
50.41160,0.05320,-0.08418,0.00000,0.03148,0.97661,-0.18812,0.0,2023,6,7,17,48,14,624
50.41170,0.10570,0.12582,0.00000,0.03172,0.97661,-0.18825,0.0,2023,6,7,17,48,14,635
50.41180,0.07070,-0.01417,0.00000,0.02940,0.97563,-0.19130,0.0,2023,6,7,17,48,14,647
50.41190,-0.05180,0.00333,0.00000,0.03111,0.97649,-0.18861,0.0,2023,6,7,17,48,14,658
50.41200,-0.10430,-0.03167,0.00000,0.02891,0.97637,-0.19056,0.0,2023,6,7,17,48,14,670
50.41210,-0.27930,0.14332,0.00000,0.03209,0.97600,-0.19093,0.0,2023,6,7,17,48,14,681
50.41220,-0.06930,-0.01417,0.00000,0.03038,0.97722,-0.18800,0.0,2023,6,7,17,48,14,693
50.41230,-0.17430,0.21333,0.00000,0.03111,0.97637,-0.19020,0.0,2023,6,7,17,48,14,704
50.41240,0.08820,0.00333,0.00000,0.03172,0.97661,-0.19117,0.0,2023,6,7,17,48,14,716
50.41250,-0.10430,0.07332,0.00000,0.03160,0.97673,-0.19154,0.0,2023,6,7,17,48,14,727
50.41260,-0.17430,0.19583,0.00000,0.03245,0.97661,-0.18690,0.0,2023,6,7,17,48,14,739
50.41270,-0.05180,0.02083,0.00000,0.03038,0.97588,-0.18727,0.0,2023,6,7,17,48,14,750
50.41280,-0.08680,0.00333,0.00000,0.03087,0.97795,-0.18886,0.0,2023,6,7,17,48,14,762
50.41290,-0.10430,0.02083,0.00000,0.03074,0.97405,-0.18812,0.0,2023,6,7,17,48,14,773
50.41300,-0.03430,-0.03167,0.00000,0.03111,0.97551,-0.18654,0.0,2023,6,7,17,48,14,785
50.41310,0.07070,-0.20667,0.00000,0.03294,0.97563,-0.18825,0.0,2023,6,7,17,48,14,796
50.41320,-0.03430,0.17833,0.00000,0.03087,0.97478,-0.19008,0.0,2023,6,7,17,48,14,808
50.41330,-0.05180,-0.10168,0.00000,0.02965,0.97795,-0.18861,0.0,2023,6,7,17,48,14,819
50.41340,-0.01680,0.09082,0.00000,0.02989,0.97539,-0.18873,0.0,2023,6,7,17,48,14,831
50.41350,-0.12180,0.19583,0.00000,0.03074,0.97612,-0.18861,0.0,2023,6,7,17,48,14,842
50.41360,-0.24430,-0.01417,0.00000,0.03038,0.97563,-0.19020,0.0,2023,6,7,17,48,14,854
50.41370,0.03570,-0.10168,0.00000,0.03148,0.97527,-0.19069,0.0,2023,6,7,17,48,14,865
50.41380,0.03570,-0.11918,0.00000,0.03050,0.97417,-0.18886,0.0,2023,6,7,17,48,14,877
50.41390,-0.12180,-0.13668,0.00000,0.03233,0.97685,-0.18873,0.0,2023,6,7,17,48,14,888
50.41400,0.01820,-0.08418,0.00000,0.03074,0.97612,-0.18959,0.0,2023,6,7,17,48,14,900
50.41410,0.14070,-0.06668,0.00000,0.03050,0.97576,-0.19081,0.0,2023,6,7,17,48,14,911
50.41420,-0.08680,-0.01417,0.00000,0.03111,0.97624,-0.18617,0.0,2023,6,7,17,48,14,923
50.41430,-0.12180,0.21333,0.00000,0.03148,0.97637,-0.18825,0.0,2023,6,7,17,48,14,934
50.41440,-0.05180,-0.11918,0.00000,0.03111,0.97624,-0.18934,0.0,2023,6,7,17,48,14,946
50.41450,0.19320,-0.08418,0.00000,0.03001,0.97795,-0.19081,0.0,2023,6,7,17,48,14,957
50.41460,0.01820,-0.01417,0.00000,0.03087,0.97563,-0.18825,0.0,2023,6,7,17,48,14,969
50.41470,-0.24430,0.17833,0.00000,0.03233,0.97722,-0.18520,0.0,2023,6,7,17,48,14,980
50.41480,0.15820,-0.06668,0.00000,0.03099,0.97588,-0.19008,0.0,2023,6,7,17,48,14,992
50.41490,-0.10430,-0.04917,0.00000,0.03026,0.97527,-0.18922,0.0,2023,6,7,17,48,14,3
50.41500,-0.10430,0.16082,0.00000,0.03196,0.97612,-0.18947,0.0,2023,6,7,17,48,14,15
50.41510,0.00070,-0.08418,0.00000,0.03062,0.97502,-0.19020,0.0,2023,6,7,17,48,14,26
50.41520,0.07070,-0.18918,0.00000,0.03160,0.97698,-0.18837,0.0,2023,6,7,17,48,14,38
50.41530,-0.01680,0.02083,0.00000,0.03123,0.97868,-0.19008,0.0,2023,6,7,17,48,14,49
50.41540,-0.03430,-0.17168,0.00000,0.03111,0.97624,-0.18983,0.0,2023,6,7,17,48,14,61
50.41550,-0.17430,0.05582,0.00000,0.03111,0.97698,-0.18959,0.0,2023,6,7,17,48,14,72
50.41560,0.12320,-0.10168,0.00000,0.03428,0.97551,-0.18959,0.0,2023,6,7,17,48,14,84
50.41570,0.10570,-0.10168,0.00000,0.03196,0.97527,-0.18947,0.0,2023,6,7,17,48,14,95
50.41580,-0.15680,0.05582,0.00000,0.02940,0.97746,-0.18849,0.0,2023,6,7,17,48,14,107
50.41590,-0.03430,-0.13668,0.00000,0.03172,0.97588,-0.18678,0.0,2023,6,7,17,48,14,118
50.41600,0.12320,-0.15418,0.00000,0.03184,0.97820,-0.19069,0.0,2023,6,7,17,48,14,130
50.41610,-0.20930,0.02083,0.00000,0.03087,0.97698,-0.18788,0.0,2023,6,7,17,48,14,141
50.41620,-0.03430,-0.18918,0.00000,0.03233,0.97673,-0.19117,0.0,2023,6,7,17,48,14,153
50.41630,-0.22680,0.30082,0.00000,0.03148,0.97515,-0.18788,0.0,2023,6,7,17,48,14,164
50.41640,-0.08680,-0.10168,0.00000,0.03135,0.97612,-0.18922,0.0,2023,6,7,17,48,14,176
50.41650,-0.22680,-0.04917,0.00000,0.03209,0.97722,-0.18678,0.0,2023,6,7,17,48,14,187
50.41660,-0.03430,0.12582,0.00000,0.03257,0.97527,-0.18873,0.0,2023,6,7,17,48,14,199
50.41670,-0.03430,0.05582,0.00000,0.03111,0.97551,-0.18776,0.0,2023,6,7,17,48,14,210
50.41680,0.10570,-0.15418,0.00000,0.03123,0.97807,-0.18886,0.0,2023,6,7,17,48,14,222
50.41690,-0.12180,-0.01417,0.00000,0.03099,0.97637,-0.19008,0.0,2023,6,7,17,48,14,233
50.41700,-0.17430,-0.03167,0.00000,0.03184,0.97649,-0.18812,0.0,2023,6,7,17,48,14,245
50.41710,-0.03430,0.00333,0.00000,0.03026,0.97673,-0.18812,0.0,2023,6,7,17,48,14,256
50.41720,0.01820,-0.11918,0.00000,0.03148,0.97673,-0.18934,0.0,2023,6,7,17,48,14,268
50.41730,-0.05180,0.05582,0.00000,0.03404,0.97661,-0.18593,0.0,2023,6,7,17,48,14,279
50.41740,0.08820,0.05582,0.00000,0.02830,0.97539,-0.18825,0.0,2023,6,7,17,48,14,290
50.41750,-0.12180,0.09082,0.00000,0.03196,0.97661,-0.18605,0.0,2023,6,7,17,48,14,302
50.41760,0.07070,0.03832,0.00000,0.03038,0.97661,-0.19166,0.0,2023,6,7,17,48,14,313
50.41770,-0.10430,0.10832,0.00000,0.02952,0.97576,-0.18983,0.0,2023,6,7,17,48,14,325
50.41780,0.07070,-0.13668,0.00000,0.03087,0.97722,-0.19117,0.0,2023,6,7,17,48,14,336
50.41790,0.08820,-0.25917,0.00000,0.03062,0.97698,-0.18764,0.0,2023,6,7,17,48,14,348
50.41800,-0.06930,0.09082,0.00000,0.03282,0.97759,-0.18922,0.0,2023,6,7,17,48,14,359
50.41810,-0.10430,0.03832,0.00000,0.03099,0.97527,-0.18800,0.0,2023,6,7,17,48,14,371
50.41820,0.00070,0.19583,0.00000,0.03099,0.97698,-0.19056,0.0,2023,6,7,17,48,15,382
50.41830,0.05320,0.19583,0.00000,0.03282,0.97539,-0.18764,0.0,2023,6,7,17,48,15,394
50.41840,0.01820,0.07332,0.00000,0.03087,0.97868,-0.18812,0.0,2023,6,7,17,48,15,405
50.41850,-0.03430,-0.08418,0.00000,0.03123,0.97563,-0.18800,0.0,2023,6,7,17,48,15,417
50.41860,0.01820,0.00333,0.00000,0.02843,0.97539,-0.19032,0.0,2023,6,7,17,48,15,428
50.41870,0.05320,0.09082,0.00000,0.03233,0.97612,-0.18947,0.0,2023,6,7,17,48,15,440
50.41880,-0.19180,0.16082,0.00000,0.03245,0.97746,-0.18751,0.0,2023,6,7,17,48,15,451
50.41890,0.00070,-0.01417,0.00000,0.03123,0.97734,-0.18703,0.0,2023,6,7,17,48,15,463
50.41900,0.05320,0.00333,0.00000,0.03050,0.97673,-0.18812,0.0,2023,6,7,17,48,15,474
50.41910,0.10570,0.05582,0.00000,0.02928,0.97344,-0.19044,0.0,2023,6,7,17,48,15,486
50.41920,0.24570,-0.06668,0.00000,0.03123,0.97734,-0.19069,0.0,2023,6,7,17,48,15,497
50.41930,0.03570,-0.24167,0.00000,0.02989,0.97368,-0.18666,0.0,2023,6,7,17,48,15,509
50.41940,0.07070,-0.17168,0.00000,0.03221,0.97588,-0.18934,0.0,2023,6,7,17,48,15,520
50.41950,0.00070,-0.18918,0.00000,0.03135,0.97710,-0.18812,0.0,2023,6,7,17,48,15,532
50.41960,0.12320,-0.04917,0.00000,0.03050,0.97637,-0.18788,0.0,2023,6,7,17,48,15,543
50.41970,0.28070,0.03832,0.00000,0.03221,0.97515,-0.18642,0.0,2023,6,7,17,48,15,555
50.41980,-0.12180,0.24832,0.00000,0.03233,0.97600,-0.18800,0.0,2023,6,7,17,48,15,566
50.41990,0.03570,0.07332,0.00000,0.03148,0.97881,-0.18483,0.0,2023,6,7,17,48,15,578
50.42000,-0.05180,-0.03167,0.00000,0.02989,0.97698,-0.18934,0.0,2023,6,7,17,48,15,589
50.42010,0.07070,0.05582,0.00000,0.02965,0.97624,-0.18825,0.0,2023,6,7,17,48,15,601
50.42020,-0.27930,0.14332,0.00000,0.03135,0.97441,-0.18898,0.0,2023,6,7,17,48,15,612
50.42030,0.26320,0.02083,0.00000,0.03050,0.97746,-0.18837,0.0,2023,6,7,17,48,15,624
50.42040,-0.15680,0.21333,0.00000,0.03135,0.97417,-0.18983,0.0,2023,6,7,17,48,15,635
50.42050,0.05320,-0.08418,0.00000,0.03123,0.97600,-0.18727,0.0,2023,6,7,17,48,15,647
50.42060,0.01820,-0.03167,0.00000,0.03111,0.97722,-0.18666,0.0,2023,6,7,17,48,15,658
50.42070,0.12320,0.00333,0.00000,0.03270,0.97685,-0.19008,0.0,2023,6,7,17,48,15,670
50.42080,0.19320,0.05582,0.00000,0.03135,0.97539,-0.18800,0.0,2023,6,7,17,48,15,681
50.42090,0.05320,-0.10168,0.00000,0.03026,0.97685,-0.18800,0.0,2023,6,7,17,48,15,693
50.42100,-0.12180,-0.17168,0.00000,0.03160,0.97734,-0.18788,0.0,2023,6,7,17,48,15,704
50.42110,0.03570,-0.08418,0.00000,0.03160,0.97795,-0.19032,0.0,2023,6,7,17,48,15,716
50.42120,0.12320,-0.17168,0.00000,0.03148,0.97502,-0.19081,0.0,2023,6,7,17,48,15,727
50.42130,-0.15680,0.16082,0.00000,0.03099,0.97685,-0.18739,0.0,2023,6,7,17,48,15,739
50.42140,-0.12180,0.09082,0.00000,0.03074,0.97759,-0.18959,0.0,2023,6,7,17,48,15,750
50.42150,0.08820,-0.15418,0.00000,0.03026,0.97624,-0.18727,0.0,2023,6,7,17,48,15,762
50.42160,0.10570,0.19583,0.00000,0.03257,0.97844,-0.18947,0.0,2023,6,7,17,48,15,773
50.42170,0.00070,-0.13668,0.00000,0.03111,0.97893,-0.18617,0.0,2023,6,7,17,48,15,785
50.42180,-0.10430,-0.11918,0.00000,0.03123,0.97588,-0.18727,0.0,2023,6,7,17,48,15,796
50.42190,0.05320,-0.01417,0.00000,0.03209,0.97807,-0.18812,0.0,2023,6,7,17,48,15,808
50.42200,-0.06930,-0.04917,0.00000,0.03233,0.97698,-0.18800,0.0,2023,6,7,17,48,15,819
50.42210,-0.26180,0.07332,0.00000,0.03196,0.97661,-0.18898,0.0,2023,6,7,17,48,15,831
50.42220,-0.03430,-0.03167,0.00000,0.03074,0.97771,-0.18934,0.0,2023,6,7,17,48,15,842
50.42230,-0.01680,0.12582,0.00000,0.03160,0.97637,-0.18898,0.0,2023,6,7,17,48,15,854
50.42240,0.19320,-0.10168,0.00000,0.03270,0.97527,-0.18983,0.0,2023,6,7,17,48,15,865
50.42250,-0.05180,-0.08418,0.00000,0.03209,0.97502,-0.18861,0.0,2023,6,7,17,48,15,877
50.42260,-0.01680,-0.06668,0.00000,0.03135,0.97600,-0.18715,0.0,2023,6,7,17,48,15,888
50.42270,-0.19180,0.21333,0.00000,0.02904,0.97576,-0.18849,0.0,2023,6,7,17,48,15,900
50.42280,0.15820,0.02083,0.00000,0.03172,0.97710,-0.18666,0.0,2023,6,7,17,48,15,911
50.42290,-0.05180,-0.13668,0.00000,0.03184,0.97661,-0.18703,0.0,2023,6,7,17,48,15,923
50.42300,-0.01680,0.21333,0.00000,0.03196,0.97734,-0.19093,0.0,2023,6,7,17,48,15,934
50.42310,0.08820,0.00333,0.00000,0.03209,0.97478,-0.18910,0.0,2023,6,7,17,48,15,946
50.42320,-0.08680,0.14332,0.00000,0.03233,0.97759,-0.19069,0.0,2023,6,7,17,48,15,957
50.42330,0.05320,-0.01417,0.00000,0.02891,0.97539,-0.19056,0.0,2023,6,7,17,48,15,969
50.42340,0.00070,0.05582,0.00000,0.03013,0.97771,-0.18764,0.0,2023,6,7,17,48,15,980
50.42350,0.05320,-0.20667,0.00000,0.03001,0.97563,-0.18825,0.0,2023,6,7,17,48,15,992
50.42360,0.21070,-0.01417,0.00000,0.03099,0.97771,-0.18995,0.0,2023,6,7,17,48,15,3
50.42370,0.01820,-0.31168,0.00000,0.03160,0.97783,-0.19020,0.0,2023,6,7,17,48,15,15
50.42380,-0.03430,-0.01417,0.00000,0.03294,0.97612,-0.18654,0.0,2023,6,7,17,48,15,26
50.42390,-0.05180,0.09082,0.00000,0.03257,0.97783,-0.18873,0.0,2023,6,7,17,48,15,38
50.42400,-0.03430,0.09082,0.00000,0.03111,0.97563,-0.18788,0.0,2023,6,7,17,48,15,49
50.42410,0.21070,0.02083,0.00000,0.03233,0.97649,-0.19386,0.0,2023,6,7,17,48,15,61
50.42420,-0.12180,0.07332,0.00000,0.03245,0.97759,-0.18910,0.0,2023,6,7,17,48,15,72
50.42430,0.03570,0.17833,0.00000,0.03221,0.97807,-0.18849,0.0,2023,6,7,17,48,15,84
50.42440,-0.05180,0.03832,0.00000,0.03196,0.97856,-0.18739,0.0,2023,6,7,17,48,15,95
50.42450,0.00070,0.17833,0.00000,0.02904,0.97771,-0.18873,0.0,2023,6,7,17,48,15,107
50.42460,-0.08680,0.09082,0.00000,0.03172,0.97490,-0.18886,0.0,2023,6,7,17,48,15,118
50.42470,0.03570,-0.08418,0.00000,0.02989,0.97722,-0.18751,0.0,2023,6,7,17,48,15,130
50.42480,-0.08680,0.00333,0.00000,0.03087,0.97600,-0.18873,0.0,2023,6,7,17,48,15,141
50.42490,-0.10430,0.14332,0.00000,0.03257,0.97661,-0.18971,0.0,2023,6,7,17,48,15,153
50.42500,0.00070,0.09082,0.00000,0.03196,0.97783,-0.18764,0.0,2023,6,7,17,48,15,164
50.42510,0.08820,-0.10168,0.00000,0.02757,0.97380,-0.19032,0.0,2023,6,7,17,48,15,176
50.42520,0.01820,-0.04917,0.00000,0.03148,0.97722,-0.19008,0.0,2023,6,7,17,48,15,187
50.42530,0.05320,-0.03167,0.00000,0.02965,0.97454,-0.18959,0.0,2023,6,7,17,48,15,199
50.42540,-0.03430,0.05582,0.00000,0.03209,0.97624,-0.18751,0.0,2023,6,7,17,48,15,210
50.42550,-0.15680,0.05582,0.00000,0.02940,0.97832,-0.18910,0.0,2023,6,7,17,48,15,222
50.42560,-0.10430,0.05582,0.00000,0.03050,0.97563,-0.19093,0.0,2023,6,7,17,48,15,233
50.42570,0.10570,0.10832,0.00000,0.03123,0.97685,-0.18934,0.0,2023,6,7,17,48,15,245
50.42580,0.01820,0.21333,0.00000,0.03087,0.97624,-0.18776,0.0,2023,6,7,17,48,15,256
50.42590,-0.24430,0.17833,0.00000,0.03221,0.97795,-0.18715,0.0,2023,6,7,17,48,15,268
50.42600,0.01820,-0.10168,0.00000,0.03074,0.97624,-0.18947,0.0,2023,6,7,17,48,15,279
50.42610,0.05320,0.05582,0.00000,0.03038,0.97588,-0.18934,0.0,2023,6,7,17,48,15,290
50.42620,-0.13930,0.02083,0.00000,0.03392,0.97637,-0.18837,0.0,2023,6,7,17,48,15,302
50.42630,-0.01680,-0.18918,0.00000,0.03111,0.97637,-0.19020,0.0,2023,6,7,17,48,15,313
50.42640,-0.06930,0.02083,0.00000,0.03062,0.97795,-0.18947,0.0,2023,6,7,17,48,15,325
50.42650,0.00070,0.07332,0.00000,0.03294,0.97576,-0.18959,0.0,2023,6,7,17,48,15,336
50.42660,-0.03430,-0.32918,0.00000,0.02952,0.97502,-0.19117,0.0,2023,6,7,17,48,15,348
50.42670,0.03570,0.17833,0.00000,0.03172,0.97490,-0.18886,0.0,2023,6,7,17,48,15,359
50.42680,0.14070,-0.08418,0.00000,0.03135,0.97502,-0.18764,0.0,2023,6,7,17,48,15,371
50.42690,-0.15680,0.24832,0.00000,0.03160,0.97771,-0.18947,0.0,2023,6,7,17,48,15,382
50.42700,0.05320,0.02083,0.00000,0.03038,0.97490,-0.19069,0.0,2023,6,7,17,48,15,394
50.42710,-0.01680,0.17833,0.00000,0.03184,0.97685,-0.18544,0.0,2023,6,7,17,48,15,405
50.42720,-0.26180,0.14332,0.00000,0.03392,0.97795,-0.18776,0.0,2023,6,7,17,48,16,417
50.42730,0.10570,0.03832,0.00000,0.02977,0.97783,-0.18715,0.0,2023,6,7,17,48,16,428
50.42740,-0.01680,0.09082,0.00000,0.03074,0.97746,-0.19044,0.0,2023,6,7,17,48,16,440
50.42750,0.07070,-0.03167,0.00000,0.03123,0.97637,-0.19105,0.0,2023,6,7,17,48,16,451
50.42760,0.00070,-0.03167,0.00000,0.03050,0.97734,-0.18837,0.0,2023,6,7,17,48,16,463
50.42770,0.08820,-0.04917,0.00000,0.03196,0.97746,-0.18861,0.0,2023,6,7,17,48,16,474
50.42780,-0.06930,-0.10168,0.00000,0.03074,0.97673,-0.18825,0.0,2023,6,7,17,48,16,486
50.42790,-0.05180,0.12582,0.00000,0.03318,0.97551,-0.18788,0.0,2023,6,7,17,48,16,497
50.42800,-0.10430,0.09082,0.00000,0.03001,0.97673,-0.18910,0.0,2023,6,7,17,48,16,509
50.42810,-0.15680,0.00333,0.00000,0.03270,0.97661,-0.18800,0.0,2023,6,7,17,48,16,520
50.42820,-0.10430,0.03832,0.00000,0.03270,0.97649,-0.18690,0.0,2023,6,7,17,48,16,532
50.42830,-0.10430,0.09082,0.00000,0.03038,0.97551,-0.18568,0.0,2023,6,7,17,48,16,543
50.42840,0.14070,-0.08418,0.00000,0.03184,0.97746,-0.18751,0.0,2023,6,7,17,48,16,555
50.42850,-0.20930,0.07332,0.00000,0.03062,0.97649,-0.18849,0.0,2023,6,7,17,48,16,566
50.42860,0.19320,-0.10168,0.00000,0.02867,0.97612,-0.18873,0.0,2023,6,7,17,48,16,578
50.42870,-0.08680,0.00333,0.00000,0.03233,0.97466,-0.18690,0.0,2023,6,7,17,48,16,589
50.42880,0.08820,-0.01417,0.00000,0.03050,0.97661,-0.18812,0.0,2023,6,7,17,48,16,601
50.42890,0.10570,-0.04917,0.00000,0.03209,0.97612,-0.18873,0.0,2023,6,7,17,48,16,612
50.42900,0.01820,0.07332,0.00000,0.03123,0.97698,-0.18898,0.0,2023,6,7,17,48,16,624
50.42910,-0.22680,-0.04917,0.00000,0.02965,0.97563,-0.18776,0.0,2023,6,7,17,48,16,635
50.42920,0.07070,0.00333,0.00000,0.02977,0.97539,-0.18886,0.0,2023,6,7,17,48,16,647
50.42930,0.03570,-0.04917,0.00000,0.03209,0.97771,-0.18788,0.0,2023,6,7,17,48,16,658
50.42940,-0.17430,0.09082,0.00000,0.03196,0.97734,-0.18556,0.0,2023,6,7,17,48,16,670
50.42950,-0.20930,0.16082,0.00000,0.03074,0.97844,-0.18812,0.0,2023,6,7,17,48,16,681
50.42960,0.10570,0.07332,0.00000,0.03013,0.97563,-0.18800,0.0,2023,6,7,17,48,16,693
50.42970,-0.12180,-0.06668,0.00000,0.02904,0.97429,-0.18886,0.0,2023,6,7,17,48,16,704
50.42980,0.03570,-0.04917,0.00000,0.03026,0.97527,-0.18812,0.0,2023,6,7,17,48,16,716
50.42990,-0.10430,-0.10168,0.00000,0.03355,0.97795,-0.18898,0.0,2023,6,7,17,48,16,727
50.43000,0.00070,-0.06668,0.00000,0.03123,0.97685,-0.18825,0.0,2023,6,7,17,48,16,739
50.43010,0.12320,-0.04917,0.00000,0.03221,0.97649,-0.18739,0.0,2023,6,7,17,48,16,750
50.43020,-0.10430,0.02083,0.00000,0.03111,0.97685,-0.18739,0.0,2023,6,7,17,48,16,762
50.43030,-0.13930,-0.01417,0.00000,0.03392,0.97661,-0.18739,0.0,2023,6,7,17,48,16,773
50.43040,0.03570,0.10832,0.00000,0.03196,0.97454,-0.18971,0.0,2023,6,7,17,48,16,785
50.43050,0.17570,-0.13668,0.00000,0.03062,0.97990,-0.18922,0.0,2023,6,7,17,48,16,796
50.43060,0.03570,-0.15418,0.00000,0.03367,0.97563,-0.18739,0.0,2023,6,7,17,48,16,808
50.43070,0.17570,-0.10168,0.00000,0.03172,0.97588,-0.18812,0.0,2023,6,7,17,48,16,819
50.43080,-0.15680,-0.04917,0.00000,0.03111,0.97685,-0.18715,0.0,2023,6,7,17,48,16,831
50.43090,0.00070,-0.08418,0.00000,0.03026,0.97478,-0.18788,0.0,2023,6,7,17,48,16,842
50.43100,-0.10430,0.10832,0.00000,0.03038,0.97649,-0.18678,0.0,2023,6,7,17,48,16,854
50.43110,0.00070,-0.03167,0.00000,0.03001,0.97661,-0.18715,0.0,2023,6,7,17,48,16,865
50.43120,0.07070,0.09082,0.00000,0.03062,0.97527,-0.18776,0.0,2023,6,7,17,48,16,877
50.43130,-0.08680,0.00333,0.00000,0.03050,0.97661,-0.18544,0.0,2023,6,7,17,48,16,888
50.43140,-0.19180,0.19583,0.00000,0.03111,0.97893,-0.18629,0.0,2023,6,7,17,48,16,900
50.43150,-0.08680,0.23083,0.00000,0.03013,0.97502,-0.18886,0.0,2023,6,7,17,48,16,911
50.43160,-0.10430,0.10832,0.00000,0.03026,0.97698,-0.18922,0.0,2023,6,7,17,48,16,923
50.43170,0.01820,0.09082,0.00000,0.03148,0.97649,-0.18642,0.0,2023,6,7,17,48,16,934
50.43180,0.21070,-0.11918,0.00000,0.02928,0.97637,-0.18873,0.0,2023,6,7,17,48,16,946
50.43190,0.15820,-0.04917,0.00000,0.03209,0.97771,-0.18861,0.0,2023,6,7,17,48,16,957
50.43200,0.08820,0.09082,0.00000,0.03074,0.97490,-0.18715,0.0,2023,6,7,17,48,16,969
50.43210,-0.01680,-0.03167,0.00000,0.03196,0.97441,-0.18666,0.0,2023,6,7,17,48,16,980
50.43220,-0.13930,0.07332,0.00000,0.03111,0.97576,-0.18934,0.0,2023,6,7,17,48,16,992
50.43230,-0.12180,-0.10168,0.00000,0.03233,0.97539,-0.18800,0.0,2023,6,7,17,48,16,3
50.43240,-0.03430,-0.11918,0.00000,0.02952,0.97698,-0.18837,0.0,2023,6,7,17,48,16,15
50.43250,-0.10430,0.33582,0.00000,0.02977,0.97917,-0.18739,0.0,2023,6,7,17,48,16,26
50.43260,-0.05180,0.14332,0.00000,0.02904,0.97612,-0.18861,0.0,2023,6,7,17,48,16,38
50.43270,0.24570,-0.22417,0.00000,0.03209,0.97368,-0.19154,0.0,2023,6,7,17,48,16,49
50.43280,0.08820,-0.03167,0.00000,0.03087,0.97515,-0.18715,0.0,2023,6,7,17,48,16,61
50.43290,-0.08680,-0.15418,0.00000,0.03282,0.97710,-0.19081,0.0,2023,6,7,17,48,16,72
50.43300,0.01820,-0.06668,0.00000,0.03013,0.97649,-0.18776,0.0,2023,6,7,17,48,16,84
50.43310,0.12320,0.02083,0.00000,0.03148,0.97539,-0.18739,0.0,2023,6,7,17,48,16,95
50.43320,0.15820,-0.06668,0.00000,0.03209,0.97588,-0.19020,0.0,2023,6,7,17,48,16,107
50.43330,0.12320,-0.17168,0.00000,0.03062,0.97490,-0.18727,0.0,2023,6,7,17,48,16,118
50.43340,-0.05180,0.07332,0.00000,0.03172,0.97673,-0.18837,0.0,2023,6,7,17,48,16,130
50.43350,0.12320,-0.15418,0.00000,0.03196,0.97588,-0.18617,0.0,2023,6,7,17,48,16,141
50.43360,0.01820,-0.03167,0.00000,0.03148,0.97759,-0.18898,0.0,2023,6,7,17,48,16,153
50.43370,-0.22680,0.10832,0.00000,0.03318,0.97612,-0.18568,0.0,2023,6,7,17,48,16,164
50.43380,0.03570,0.05582,0.00000,0.03050,0.97600,-0.18581,0.0,2023,6,7,17,48,16,176
50.43390,-0.17430,0.05582,0.00000,0.03245,0.97771,-0.18861,0.0,2023,6,7,17,48,16,187
50.43400,-0.06930,0.00333,0.00000,0.03099,0.97490,-0.18715,0.0,2023,6,7,17,48,16,199
50.43410,-0.03430,0.17833,0.00000,0.03233,0.97539,-0.18873,0.0,2023,6,7,17,48,16,210
50.43420,-0.08680,0.10832,0.00000,0.03221,0.97637,-0.19044,0.0,2023,6,7,17,48,16,222
50.43430,-0.24430,-0.04917,0.00000,0.03087,0.97551,-0.18800,0.0,2023,6,7,17,48,16,233
50.43440,0.01820,0.02083,0.00000,0.03318,0.97454,-0.18971,0.0,2023,6,7,17,48,16,245
50.43450,0.05320,0.00333,0.00000,0.03233,0.97710,-0.18788,0.0,2023,6,7,17,48,16,256
50.43460,0.03570,-0.04917,0.00000,0.03074,0.97576,-0.18861,0.0,2023,6,7,17,48,16,268
50.43470,0.03570,-0.11918,0.00000,0.03062,0.97527,-0.18849,0.0,2023,6,7,17,48,16,279
50.43480,-0.10430,0.10832,0.00000,0.03331,0.97710,-0.18690,0.0,2023,6,7,17,48,16,290
50.43490,-0.06930,0.07332,0.00000,0.03111,0.97527,-0.18727,0.0,2023,6,7,17,48,16,302
50.43500,0.05320,0.07332,0.00000,0.03233,0.97771,-0.18776,0.0,2023,6,7,17,48,16,313
50.43510,0.15820,0.03832,0.00000,0.03111,0.97502,-0.18898,0.0,2023,6,7,17,48,16,325
50.43520,0.08820,-0.06668,0.00000,0.03135,0.97649,-0.18825,0.0,2023,6,7,17,48,16,336
50.43530,-0.01680,-0.11918,0.00000,0.03026,0.97734,-0.18715,0.0,2023,6,7,17,48,16,348
50.43540,0.03570,0.23083,0.00000,0.03233,0.97905,-0.18764,0.0,2023,6,7,17,48,16,359
50.43550,0.05320,-0.08418,0.00000,0.03099,0.97783,-0.18825,0.0,2023,6,7,17,48,16,371
50.43560,0.05320,-0.10168,0.00000,0.03148,0.97502,-0.19154,0.0,2023,6,7,17,48,16,382
50.43570,-0.01680,0.02083,0.00000,0.02977,0.97710,-0.18873,0.0,2023,6,7,17,48,16,394
50.43580,-0.13930,-0.03167,0.00000,0.03074,0.97393,-0.18385,0.0,2023,6,7,17,48,16,405
50.43590,-0.03430,-0.11918,0.00000,0.03221,0.97624,-0.18642,0.0,2023,6,7,17,48,16,417
50.43600,0.00070,0.07332,0.00000,0.03160,0.97612,-0.18739,0.0,2023,6,7,17,48,16,428
50.43610,-0.06930,-0.13668,0.00000,0.03196,0.97649,-0.18983,0.0,2023,6,7,17,48,17,440
50.43620,0.15820,-0.08418,0.00000,0.03001,0.97551,-0.18727,0.0,2023,6,7,17,48,17,451
50.43630,-0.13930,-0.11918,0.00000,0.02989,0.97539,-0.18642,0.0,2023,6,7,17,48,17,463
50.43640,-0.17430,-0.04917,0.00000,0.03050,0.97685,-0.18837,0.0,2023,6,7,17,48,17,474
50.43650,-0.05180,-0.11918,0.00000,0.02977,0.97734,-0.18898,0.0,2023,6,7,17,48,17,486
50.43660,-0.15680,0.03832,0.00000,0.03135,0.97307,-0.18764,0.0,2023,6,7,17,48,17,497
50.43670,0.08820,0.05582,0.00000,0.03209,0.97576,-0.18898,0.0,2023,6,7,17,48,17,509
50.43680,0.03570,-0.20667,0.00000,0.03221,0.97502,-0.18617,0.0,2023,6,7,17,48,17,520
50.43690,0.03570,0.14332,0.00000,0.02989,0.97698,-0.18666,0.0,2023,6,7,17,48,17,532
50.43700,-0.15680,0.02083,0.00000,0.03196,0.97502,-0.18934,0.0,2023,6,7,17,48,17,543
50.43710,0.12320,-0.10168,0.00000,0.03074,0.97515,-0.18910,0.0,2023,6,7,17,48,17,555
50.43720,-0.12180,-0.01417,0.00000,0.03184,0.97600,-0.18800,0.0,2023,6,7,17,48,17,566
50.43730,-0.06930,0.00333,0.00000,0.03184,0.97649,-0.18715,0.0,2023,6,7,17,48,17,578
50.43740,-0.12180,0.02083,0.00000,0.03160,0.97539,-0.18849,0.0,2023,6,7,17,48,17,589
50.43750,0.05320,-0.06668,0.00000,0.03257,0.97746,-0.18825,0.0,2023,6,7,17,48,17,601
50.43760,0.03570,-0.15418,0.00000,0.03270,0.97673,-0.18776,0.0,2023,6,7,17,48,17,612
50.43770,0.01820,-0.04917,0.00000,0.03160,0.97563,-0.18666,0.0,2023,6,7,17,48,17,624
50.43780,-0.08680,0.02083,0.00000,0.03038,0.97856,-0.18886,0.0,2023,6,7,17,48,17,635
50.43790,-0.05180,0.02083,0.00000,0.03160,0.97624,-0.18886,0.0,2023,6,7,17,48,17,647
50.43800,0.10570,-0.11918,0.00000,0.03135,0.97795,-0.19044,0.0,2023,6,7,17,48,17,658
50.43810,0.01820,-0.17168,0.00000,0.03074,0.97746,-0.18898,0.0,2023,6,7,17,48,17,670
50.43820,-0.03430,0.03832,0.00000,0.02977,0.97563,-0.18837,0.0,2023,6,7,17,48,17,681
50.43830,-0.10430,0.09082,0.00000,0.03062,0.97734,-0.18703,0.0,2023,6,7,17,48,17,693
50.43840,-0.27930,0.28332,0.00000,0.03172,0.97661,-0.18678,0.0,2023,6,7,17,48,17,704
50.43850,0.26320,-0.18918,0.00000,0.03209,0.97380,-0.18800,0.0,2023,6,7,17,48,17,716
50.43860,0.00070,0.02083,0.00000,0.02916,0.97637,-0.18617,0.0,2023,6,7,17,48,17,727
50.43870,0.03570,0.07332,0.00000,0.03245,0.97649,-0.18959,0.0,2023,6,7,17,48,17,739
50.43880,0.12320,-0.06668,0.00000,0.03050,0.97515,-0.18556,0.0,2023,6,7,17,48,17,750
50.43890,0.05320,0.23083,0.00000,0.03013,0.97746,-0.18666,0.0,2023,6,7,17,48,17,762
50.43900,0.05320,-0.03167,0.00000,0.03050,0.97783,-0.18715,0.0,2023,6,7,17,48,17,773
50.43910,0.03570,0.09082,0.00000,0.03257,0.97539,-0.18727,0.0,2023,6,7,17,48,17,785
50.43920,-0.13930,-0.06668,0.00000,0.03160,0.97734,-0.18703,0.0,2023,6,7,17,48,17,796
50.43930,0.19320,-0.17168,0.00000,0.03257,0.97490,-0.18629,0.0,2023,6,7,17,48,17,808
50.43940,0.07070,0.05582,0.00000,0.03331,0.97600,-0.18861,0.0,2023,6,7,17,48,17,819
50.43950,0.00070,-0.04917,0.00000,0.03013,0.97637,-0.18837,0.0,2023,6,7,17,48,17,831
50.43960,0.01820,-0.01417,0.00000,0.03184,0.97771,-0.18812,0.0,2023,6,7,17,48,17,842
50.43970,-0.05180,-0.20667,0.00000,0.03184,0.97698,-0.18849,0.0,2023,6,7,17,48,17,854
50.43980,0.10570,0.09082,0.00000,0.03038,0.97807,-0.18861,0.0,2023,6,7,17,48,17,865
50.43990,-0.13930,0.09082,0.00000,0.03294,0.97710,-0.18873,0.0,2023,6,7,17,48,17,877
50.44000,0.00070,0.28332,0.00000,0.03172,0.97600,-0.18995,0.0,2023,6,7,17,48,17,888
50.44010,0.05320,0.00333,0.00000,0.03148,0.97673,-0.18886,0.0,2023,6,7,17,48,17,900
50.44020,0.00070,0.09082,0.00000,0.03196,0.97588,-0.18678,0.0,2023,6,7,17,48,17,911
50.44030,-0.05180,0.03832,0.00000,0.03306,0.97588,-0.18629,0.0,2023,6,7,17,48,17,923
50.44040,0.10570,0.09082,0.00000,0.03050,0.97722,-0.19056,0.0,2023,6,7,17,48,17,934
50.44050,0.14070,-0.17168,0.00000,0.03050,0.97771,-0.18715,0.0,2023,6,7,17,48,17,946
50.44060,-0.19180,0.02083,0.00000,0.02952,0.97710,-0.18861,0.0,2023,6,7,17,48,17,957
50.44070,-0.19180,-0.03167,0.00000,0.03050,0.97710,-0.18764,0.0,2023,6,7,17,48,17,969
50.44080,-0.22680,0.24832,0.00000,0.03013,0.97722,-0.18849,0.0,2023,6,7,17,48,17,980
50.44090,0.08820,0.05582,0.00000,0.03099,0.97673,-0.18861,0.0,2023,6,7,17,48,17,992
50.44100,0.05320,-0.20667,0.00000,0.03184,0.97734,-0.18800,0.0,2023,6,7,17,48,17,3
50.44110,-0.15680,0.05582,0.00000,0.03245,0.97563,-0.18642,0.0,2023,6,7,17,48,17,15
50.44120,-0.08680,-0.11918,0.00000,0.03184,0.97795,-0.19020,0.0,2023,6,7,17,48,17,26
50.44130,0.10570,0.00333,0.00000,0.03196,0.97624,-0.18873,0.0,2023,6,7,17,48,17,38
50.44140,-0.01680,-0.11918,0.00000,0.03099,0.97454,-0.18886,0.0,2023,6,7,17,48,17,49
50.44150,-0.05180,-0.04917,0.00000,0.03453,0.97917,-0.18812,0.0,2023,6,7,17,48,17,61
50.44160,-0.12180,0.00333,0.00000,0.03050,0.97698,-0.18837,0.0,2023,6,7,17,48,17,72
50.44170,0.15820,-0.01417,0.00000,0.03209,0.97576,-0.18727,0.0,2023,6,7,17,48,17,84
50.44180,0.21070,-0.01417,0.00000,0.03087,0.97612,-0.19008,0.0,2023,6,7,17,48,17,95
50.44190,-0.06930,-0.03167,0.00000,0.03062,0.97539,-0.18995,0.0,2023,6,7,17,48,17,107
50.44200,0.17570,-0.01417,0.00000,0.03026,0.97576,-0.18849,0.0,2023,6,7,17,48,17,118
50.44210,-0.01680,0.19583,0.00000,0.03074,0.97710,-0.18715,0.0,2023,6,7,17,48,17,130
50.44220,-0.01680,0.09082,0.00000,0.02965,0.97746,-0.18971,0.0,2023,6,7,17,48,17,141
50.44230,-0.03430,0.05582,0.00000,0.02830,0.97502,-0.18825,0.0,2023,6,7,17,48,17,153
50.44240,-0.24430,-0.01417,0.00000,0.03257,0.97661,-0.18971,0.0,2023,6,7,17,48,17,164
50.44250,0.01820,-0.08418,0.00000,0.02965,0.97637,-0.18910,0.0,2023,6,7,17,48,17,176
50.44260,0.14070,-0.13668,0.00000,0.03209,0.97698,-0.18642,0.0,2023,6,7,17,48,17,187
50.44270,0.12320,0.14332,0.00000,0.03050,0.97844,-0.18825,0.0,2023,6,7,17,48,17,199
50.44280,0.05320,-0.01417,0.00000,0.03257,0.97624,-0.18849,0.0,2023,6,7,17,48,17,210
50.44290,-0.17430,-0.03167,0.00000,0.03318,0.97576,-0.18837,0.0,2023,6,7,17,48,17,222
50.44300,-0.13930,0.12582,0.00000,0.03196,0.97734,-0.18922,0.0,2023,6,7,17,48,17,233
50.44310,-0.03430,0.03832,0.00000,0.02928,0.97698,-0.18971,0.0,2023,6,7,17,48,17,245
50.44320,-0.08680,0.10832,0.00000,0.03135,0.97685,-0.19081,0.0,2023,6,7,17,48,17,256
50.44330,0.14070,0.05582,0.00000,0.03184,0.97868,-0.19093,0.0,2023,6,7,17,48,17,268
50.44340,-0.17430,-0.15418,0.00000,0.03270,0.97685,-0.18898,0.0,2023,6,7,17,48,17,279
50.44350,0.07070,-0.06668,0.00000,0.03087,0.97576,-0.18886,0.0,2023,6,7,17,48,17,290
50.44360,0.12320,-0.01417,0.00000,0.03062,0.97734,-0.18886,0.0,2023,6,7,17,48,17,302
50.44370,-0.13930,-0.01417,0.00000,0.03306,0.97685,-0.18959,0.0,2023,6,7,17,48,17,313
50.44380,-0.12180,0.05582,0.00000,0.03209,0.97637,-0.18593,0.0,2023,6,7,17,48,17,325
50.44390,-0.19180,-0.06668,0.00000,0.03160,0.97649,-0.18922,0.0,2023,6,7,17,48,17,336
50.44400,0.01820,0.02083,0.00000,0.03440,0.97698,-0.18922,0.0,2023,6,7,17,48,17,348
50.44410,0.00070,-0.04917,0.00000,0.03099,0.97637,-0.18947,0.0,2023,6,7,17,48,17,359
50.44420,0.01820,-0.06668,0.00000,0.03135,0.97832,-0.19056,0.0,2023,6,7,17,48,17,371
50.44430,0.00070,0.00333,0.00000,0.03062,0.97990,-0.18959,0.0,2023,6,7,17,48,17,382
50.44440,-0.03430,0.09082,0.00000,0.03184,0.97661,-0.19032,0.0,2023,6,7,17,48,17,394
50.44450,0.15820,0.05582,0.00000,0.02940,0.97405,-0.19142,0.0,2023,6,7,17,48,17,405
50.44460,0.12320,-0.11918,0.00000,0.03050,0.97576,-0.18959,0.0,2023,6,7,17,48,17,417
50.44470,-0.12180,-0.03167,0.00000,0.03270,0.97734,-0.19020,0.0,2023,6,7,17,48,17,428
50.44480,0.15820,-0.11918,0.00000,0.03001,0.97832,-0.18934,0.0,2023,6,7,17,48,17,440
50.44490,-0.08680,0.09082,0.00000,0.03038,0.97856,-0.18861,0.0,2023,6,7,17,48,17,451
50.44500,0.17570,-0.06668,0.00000,0.03489,0.97637,-0.18898,0.0,2023,6,7,17,48,17,463
50.44510,-0.22680,-0.04917,0.00000,0.03282,0.97588,-0.18739,0.0,2023,6,7,17,48,18,474
50.44520,-0.05180,0.03832,0.00000,0.03221,0.97710,-0.19044,0.0,2023,6,7,17,48,18,486
50.44530,-0.01680,0.02083,0.00000,0.03099,0.97759,-0.18934,0.0,2023,6,7,17,48,18,497
50.44540,-0.10430,0.09082,0.00000,0.03111,0.97588,-0.18983,0.0,2023,6,7,17,48,18,509
50.44550,0.05320,-0.01417,0.00000,0.03074,0.97637,-0.18837,0.0,2023,6,7,17,48,18,520
50.44560,0.05320,0.09082,0.00000,0.03331,0.97563,-0.18666,0.0,2023,6,7,17,48,18,532
50.44570,-0.03430,0.07332,0.00000,0.03233,0.97746,-0.18764,0.0,2023,6,7,17,48,18,543
50.44580,0.17570,-0.20667,0.00000,0.03148,0.97722,-0.19093,0.0,2023,6,7,17,48,18,555
50.44590,0.22820,-0.34668,0.00000,0.02916,0.97832,-0.19008,0.0,2023,6,7,17,48,18,566
50.44600,-0.22680,0.03832,0.00000,0.03184,0.97527,-0.19069,0.0,2023,6,7,17,48,18,578
50.44610,-0.13930,0.21333,0.00000,0.03172,0.97734,-0.19032,0.0,2023,6,7,17,48,18,589
50.44620,-0.03430,0.05582,0.00000,0.03148,0.97844,-0.18886,0.0,2023,6,7,17,48,18,601
50.44630,-0.03430,-0.11918,0.00000,0.03148,0.97368,-0.18873,0.0,2023,6,7,17,48,18,612
50.44640,-0.17430,0.14332,0.00000,0.02989,0.97612,-0.18910,0.0,2023,6,7,17,48,18,624
50.44650,-0.05180,0.07332,0.00000,0.03318,0.97454,-0.18922,0.0,2023,6,7,17,48,18,635
50.44660,0.14070,-0.04917,0.00000,0.03062,0.97429,-0.18971,0.0,2023,6,7,17,48,18,647
50.44670,-0.03430,-0.03167,0.00000,0.03343,0.97771,-0.19008,0.0,2023,6,7,17,48,18,658
50.44680,-0.19180,0.19583,0.00000,0.03026,0.97539,-0.19044,0.0,2023,6,7,17,48,18,670
50.44690,-0.10430,0.05582,0.00000,0.03074,0.97466,-0.18593,0.0,2023,6,7,17,48,18,681
50.44700,0.14070,-0.01417,0.00000,0.03343,0.97551,-0.18690,0.0,2023,6,7,17,48,18,693
50.44710,-0.05180,-0.01417,0.00000,0.02977,0.97771,-0.18873,0.0,2023,6,7,17,48,18,704
50.44720,0.03570,0.07332,0.00000,0.03172,0.97685,-0.19069,0.0,2023,6,7,17,48,18,716
50.44730,-0.03430,0.07332,0.00000,0.03172,0.97783,-0.19081,0.0,2023,6,7,17,48,18,727
50.44740,0.01820,0.14332,0.00000,0.03135,0.97624,-0.18873,0.0,2023,6,7,17,48,18,739
50.44750,-0.01680,-0.15418,0.00000,0.03123,0.97637,-0.18764,0.0,2023,6,7,17,48,18,750
50.44760,0.12320,-0.17168,0.00000,0.03306,0.97429,-0.18800,0.0,2023,6,7,17,48,18,762
50.44770,0.10570,0.16082,0.00000,0.03282,0.97734,-0.18971,0.0,2023,6,7,17,48,18,773
50.44780,-0.01680,-0.04917,0.00000,0.03233,0.97588,-0.18898,0.0,2023,6,7,17,48,18,785
50.44790,-0.06930,0.10832,0.00000,0.02940,0.97685,-0.18873,0.0,2023,6,7,17,48,18,796
50.44800,0.15820,0.16082,0.00000,0.03062,0.97795,-0.18703,0.0,2023,6,7,17,48,18,808
50.44810,0.00070,0.00333,0.00000,0.03294,0.97661,-0.19227,0.0,2023,6,7,17,48,18,819
50.44820,0.14070,0.09082,0.00000,0.03050,0.97795,-0.19142,0.0,2023,6,7,17,48,18,831
50.44830,-0.06930,-0.18918,0.00000,0.03135,0.97759,-0.18983,0.0,2023,6,7,17,48,18,842
50.44840,0.03570,0.05582,0.00000,0.03148,0.97771,-0.18971,0.0,2023,6,7,17,48,18,854
50.44850,0.08820,-0.13668,0.00000,0.02952,0.97393,-0.18861,0.0,2023,6,7,17,48,18,865
50.44860,0.19320,0.03832,0.00000,0.03184,0.97685,-0.18715,0.0,2023,6,7,17,48,18,877
50.44870,-0.05180,-0.01417,0.00000,0.02977,0.97551,-0.18800,0.0,2023,6,7,17,48,18,888
50.44880,0.01820,0.07332,0.00000,0.02867,0.97600,-0.18922,0.0,2023,6,7,17,48,18,900
50.44890,-0.10430,-0.04917,0.00000,0.03184,0.97466,-0.19032,0.0,2023,6,7,17,48,18,911
50.44900,0.12320,-0.04917,0.00000,0.03123,0.97905,-0.19056,0.0,2023,6,7,17,48,18,923
50.44910,0.14070,-0.08418,0.00000,0.03209,0.97588,-0.18898,0.0,2023,6,7,17,48,18,934
50.44920,0.15820,-0.20667,0.00000,0.03416,0.97624,-0.19117,0.0,2023,6,7,17,48,18,946
50.44930,-0.15680,0.03832,0.00000,0.03050,0.97893,-0.18910,0.0,2023,6,7,17,48,18,957
50.44940,0.01820,0.00333,0.00000,0.03026,0.97673,-0.18898,0.0,2023,6,7,17,48,18,969
50.44950,-0.01680,-0.08418,0.00000,0.03282,0.97441,-0.18983,0.0,2023,6,7,17,48,18,980
50.44960,-0.12180,0.07332,0.00000,0.03172,0.97649,-0.18861,0.0,2023,6,7,17,48,18,992
50.44970,-0.03430,-0.13668,0.00000,0.03245,0.97783,-0.18751,0.0,2023,6,7,17,48,18,3
50.44980,-0.01680,0.09082,0.00000,0.03099,0.97527,-0.19239,0.0,2023,6,7,17,48,18,15
50.44990,0.07070,-0.08418,0.00000,0.03026,0.97539,-0.19105,0.0,2023,6,7,17,48,18,26
50.45000,0.00070,-0.06668,0.00000,0.02928,0.97588,-0.18983,0.0,2023,6,7,17,48,18,38
50.45010,0.03570,-0.18918,0.00000,0.02916,0.97637,-0.18776,0.0,2023,6,7,17,48,18,49
50.45020,0.15820,-0.24167,0.00000,0.03233,0.97685,-0.18910,0.0,2023,6,7,17,48,18,61
50.45030,-0.08680,-0.24167,0.00000,0.03038,0.97710,-0.18812,0.0,2023,6,7,17,48,18,72
50.45040,0.00070,0.05582,0.00000,0.03074,0.97502,-0.19105,0.0,2023,6,7,17,48,18,84
50.45050,-0.15680,0.09082,0.00000,0.03111,0.97698,-0.18751,0.0,2023,6,7,17,48,18,95
50.45060,0.01820,0.00333,0.00000,0.03087,0.97673,-0.19154,0.0,2023,6,7,17,48,18,107
50.45070,-0.10430,-0.04917,0.00000,0.02830,0.97673,-0.19044,0.0,2023,6,7,17,48,18,118
50.45080,0.17570,-0.03167,0.00000,0.03001,0.97868,-0.19020,0.0,2023,6,7,17,48,18,130
50.45090,-0.03430,0.14332,0.00000,0.03074,0.97600,-0.18788,0.0,2023,6,7,17,48,18,141
50.45100,0.05320,0.05582,0.00000,0.03087,0.97771,-0.18947,0.0,2023,6,7,17,48,18,153
50.45110,0.08820,0.05582,0.00000,0.03172,0.97563,-0.19093,0.0,2023,6,7,17,48,18,164
50.45120,0.10570,-0.27668,0.00000,0.03111,0.97649,-0.18873,0.0,2023,6,7,17,48,18,176
50.45130,-0.03430,0.16082,0.00000,0.03209,0.97710,-0.19117,0.0,2023,6,7,17,48,18,187
50.45140,-0.08680,-0.20667,0.00000,0.03257,0.97612,-0.19093,0.0,2023,6,7,17,48,18,199
50.45150,0.17570,0.02083,0.00000,0.03148,0.97563,-0.18898,0.0,2023,6,7,17,48,18,210
50.45160,-0.10430,0.00333,0.00000,0.03087,0.97600,-0.19178,0.0,2023,6,7,17,48,18,222
50.45170,-0.12180,-0.22417,0.00000,0.03294,0.97563,-0.18654,0.0,2023,6,7,17,48,18,233
50.45180,-0.01680,0.09082,0.00000,0.03160,0.97502,-0.18873,0.0,2023,6,7,17,48,18,245
50.45190,0.10570,-0.18918,0.00000,0.03074,0.97710,-0.19069,0.0,2023,6,7,17,48,18,256
50.45200,0.10570,0.02083,0.00000,0.03123,0.97685,-0.19130,0.0,2023,6,7,17,48,18,268
50.45210,-0.05180,-0.06668,0.00000,0.03062,0.97685,-0.18886,0.0,2023,6,7,17,48,18,279
50.45220,0.01820,0.14332,0.00000,0.03172,0.97612,-0.19081,0.0,2023,6,7,17,48,18,290
50.45230,-0.15680,0.00333,0.00000,0.02916,0.97893,-0.18910,0.0,2023,6,7,17,48,18,302
50.45240,0.15820,0.02083,0.00000,0.03209,0.97563,-0.19044,0.0,2023,6,7,17,48,18,313
50.45250,-0.19180,0.19583,0.00000,0.03111,0.97624,-0.18825,0.0,2023,6,7,17,48,18,325
50.45260,-0.12180,-0.10168,0.00000,0.03123,0.97856,-0.18800,0.0,2023,6,7,17,48,18,336
50.45270,0.08820,-0.04917,0.00000,0.03184,0.97795,-0.19093,0.0,2023,6,7,17,48,18,348
50.45280,-0.17430,0.02083,0.00000,0.03062,0.97588,-0.19166,0.0,2023,6,7,17,48,18,359
50.45290,0.00070,0.10832,0.00000,0.03026,0.97624,-0.18971,0.0,2023,6,7,17,48,18,371
50.45300,0.10570,-0.20667,0.00000,0.03013,0.97612,-0.18971,0.0,2023,6,7,17,48,18,382
50.45310,0.05320,0.16082,0.00000,0.03257,0.97746,-0.18861,0.0,2023,6,7,17,48,18,394
50.45320,0.12320,0.03832,0.00000,0.03087,0.97698,-0.18800,0.0,2023,6,7,17,48,18,405
50.45330,0.00070,0.05582,0.00000,0.02989,0.97637,-0.19044,0.0,2023,6,7,17,48,18,417
50.45340,-0.27930,-0.11918,0.00000,0.03062,0.97563,-0.18825,0.0,2023,6,7,17,48,18,428
50.45350,-0.03430,0.16082,0.00000,0.03050,0.97734,-0.18825,0.0,2023,6,7,17,48,18,440
50.45360,0.07070,-0.03167,0.00000,0.03196,0.97710,-0.18886,0.0,2023,6,7,17,48,18,451
50.45370,0.01820,-0.08418,0.00000,0.03123,0.97417,-0.18654,0.0,2023,6,7,17,48,18,463
50.45380,-0.24430,0.21333,0.00000,0.03233,0.97563,-0.19044,0.0,2023,6,7,17,48,18,474
50.45390,0.12320,-0.03167,0.00000,0.03257,0.97710,-0.19008,0.0,2023,6,7,17,48,18,486
50.45400,-0.05180,-0.06668,0.00000,0.03111,0.97637,-0.18703,0.0,2023,6,7,17,48,18,497
50.45410,-0.08680,0.00333,0.00000,0.03050,0.97771,-0.18837,0.0,2023,6,7,17,48,18,509
50.45420,0.05320,-0.04917,0.00000,0.02952,0.97722,-0.19154,0.0,2023,6,7,17,48,19,520
50.45430,-0.08680,0.21333,0.00000,0.03111,0.97478,-0.19008,0.0,2023,6,7,17,48,19,532
50.45440,-0.12180,0.16082,0.00000,0.03099,0.97685,-0.18739,0.0,2023,6,7,17,48,19,543
50.45450,-0.17430,0.14332,0.00000,0.03282,0.97563,-0.18751,0.0,2023,6,7,17,48,19,555
50.45460,0.05320,-0.03167,0.00000,0.03087,0.97612,-0.18849,0.0,2023,6,7,17,48,19,566
50.45470,-0.08680,-0.06668,0.00000,0.03184,0.97734,-0.18983,0.0,2023,6,7,17,48,19,578
50.45480,-0.06930,-0.15418,0.00000,0.03245,0.97710,-0.18886,0.0,2023,6,7,17,48,19,589
50.45490,0.12320,0.19583,0.00000,0.03074,0.97868,-0.19142,0.0,2023,6,7,17,48,19,601
50.45500,-0.10430,0.10832,0.00000,0.02940,0.97771,-0.19044,0.0,2023,6,7,17,48,19,612
50.45510,-0.03430,0.05582,0.00000,0.03477,0.97746,-0.18788,0.0,2023,6,7,17,48,19,624
50.45520,-0.10430,0.19583,0.00000,0.03294,0.97734,-0.18959,0.0,2023,6,7,17,48,19,635
50.45530,-0.10430,0.07332,0.00000,0.03050,0.97588,-0.18849,0.0,2023,6,7,17,48,19,647
50.45540,-0.22680,0.07332,0.00000,0.02928,0.97746,-0.18764,0.0,2023,6,7,17,48,19,658
50.45550,-0.13930,0.12582,0.00000,0.03123,0.97563,-0.19032,0.0,2023,6,7,17,48,19,670
50.45560,-0.08680,-0.17168,0.00000,0.03050,0.97722,-0.18739,0.0,2023,6,7,17,48,19,681
50.45570,-0.05180,0.07332,0.00000,0.03026,0.97673,-0.19105,0.0,2023,6,7,17,48,19,693
50.45580,-0.10430,0.33582,0.00000,0.02891,0.98015,-0.19105,0.0,2023,6,7,17,48,19,704
50.45590,0.07070,-0.08418,0.00000,0.03209,0.97490,-0.18739,0.0,2023,6,7,17,48,19,716
50.45600,-0.03430,-0.01417,0.00000,0.03148,0.97649,-0.18934,0.0,2023,6,7,17,48,19,727
50.45610,-0.03430,-0.04917,0.00000,0.03355,0.97502,-0.18898,0.0,2023,6,7,17,48,19,739
50.45620,-0.12180,-0.03167,0.00000,0.02977,0.97685,-0.18837,0.0,2023,6,7,17,48,19,750
50.45630,0.03570,0.00333,0.00000,0.03001,0.97698,-0.18764,0.0,2023,6,7,17,48,19,762
50.45640,0.00070,0.02083,0.00000,0.03184,0.97527,-0.18715,0.0,2023,6,7,17,48,19,773
50.45650,-0.05180,-0.08418,0.00000,0.03050,0.97539,-0.18825,0.0,2023,6,7,17,48,19,785
50.45660,-0.15680,-0.01417,0.00000,0.03209,0.97466,-0.18800,0.0,2023,6,7,17,48,19,796
50.45670,-0.05180,0.17833,0.00000,0.03026,0.97563,-0.19020,0.0,2023,6,7,17,48,19,808
50.45680,-0.01680,0.02083,0.00000,0.03148,0.97710,-0.19203,0.0,2023,6,7,17,48,19,819
50.45690,0.03570,-0.01417,0.00000,0.02989,0.97527,-0.18800,0.0,2023,6,7,17,48,19,831
50.45700,-0.05180,-0.04917,0.00000,0.03221,0.97807,-0.18873,0.0,2023,6,7,17,48,19,842
50.45710,-0.01680,0.02083,0.00000,0.03184,0.97673,-0.18910,0.0,2023,6,7,17,48,19,854
50.45720,0.01820,0.03832,0.00000,0.03013,0.97515,-0.19020,0.0,2023,6,7,17,48,19,865
50.45730,-0.01680,-0.13668,0.00000,0.03221,0.97515,-0.18629,0.0,2023,6,7,17,48,19,877
50.45740,0.10570,-0.03167,0.00000,0.03233,0.97624,-0.18812,0.0,2023,6,7,17,48,19,888
50.45750,-0.10430,-0.10168,0.00000,0.03013,0.97722,-0.19044,0.0,2023,6,7,17,48,19,900
50.45760,-0.10430,0.28332,0.00000,0.03233,0.97502,-0.18800,0.0,2023,6,7,17,48,19,911
50.45770,0.05320,0.12582,0.00000,0.03221,0.97417,-0.18995,0.0,2023,6,7,17,48,19,923
50.45780,0.00070,-0.01417,0.00000,0.03087,0.97612,-0.18812,0.0,2023,6,7,17,48,19,934
50.45790,-0.12180,0.03832,0.00000,0.03209,0.97624,-0.18947,0.0,2023,6,7,17,48,19,946
50.45800,0.00070,0.05582,0.00000,0.03135,0.97490,-0.18715,0.0,2023,6,7,17,48,19,957
50.45810,-0.13930,0.24832,0.00000,0.03013,0.97832,-0.19044,0.0,2023,6,7,17,48,19,969
50.45820,-0.05180,0.03832,0.00000,0.03209,0.97637,-0.18812,0.0,2023,6,7,17,48,19,980
50.45830,0.03570,0.07332,0.00000,0.03026,0.97576,-0.18886,0.0,2023,6,7,17,48,19,992
50.45840,-0.03430,-0.04917,0.00000,0.03123,0.97734,-0.18751,0.0,2023,6,7,17,48,19,3
50.45850,-0.01680,-0.11918,0.00000,0.03123,0.97441,-0.18800,0.0,2023,6,7,17,48,19,15
50.45860,0.21070,-0.08418,0.00000,0.03257,0.97478,-0.18837,0.0,2023,6,7,17,48,19,26
50.45870,-0.01680,-0.11918,0.00000,0.03074,0.97515,-0.19056,0.0,2023,6,7,17,48,19,38
50.45880,0.07070,-0.11918,0.00000,0.03209,0.97661,-0.18800,0.0,2023,6,7,17,48,19,49
50.45890,0.15820,0.09082,0.00000,0.03111,0.97649,-0.18776,0.0,2023,6,7,17,48,19,61
50.45900,-0.05180,-0.17168,0.00000,0.03270,0.97539,-0.18971,0.0,2023,6,7,17,48,19,72
50.45910,0.05320,-0.06668,0.00000,0.03196,0.97685,-0.18690,0.0,2023,6,7,17,48,19,84
50.45920,0.03570,-0.10168,0.00000,0.03209,0.97466,-0.18861,0.0,2023,6,7,17,48,19,95
50.45930,0.17570,-0.01417,0.00000,0.03160,0.97698,-0.18727,0.0,2023,6,7,17,48,19,107
50.45940,-0.03430,-0.08418,0.00000,0.03379,0.97624,-0.18886,0.0,2023,6,7,17,48,19,118
50.45950,-0.12180,-0.01417,0.00000,0.03392,0.97795,-0.18666,0.0,2023,6,7,17,48,19,130
50.45960,0.07070,0.12582,0.00000,0.03184,0.97612,-0.18873,0.0,2023,6,7,17,48,19,141
50.45970,0.22820,-0.13668,0.00000,0.03270,0.97661,-0.19056,0.0,2023,6,7,17,48,19,153
50.45980,-0.06930,0.00333,0.00000,0.03160,0.97551,-0.19178,0.0,2023,6,7,17,48,19,164
50.45990,-0.17430,0.09082,0.00000,0.03184,0.97710,-0.18947,0.0,2023,6,7,17,48,19,176
50.46000,0.14070,-0.08418,0.00000,0.03209,0.97576,-0.18934,0.0,2023,6,7,17,48,19,187
50.46010,0.10570,-0.04917,0.00000,0.03148,0.97734,-0.18861,0.0,2023,6,7,17,48,19,199
50.46020,0.07070,-0.15418,0.00000,0.02977,0.97563,-0.19069,0.0,2023,6,7,17,48,19,210
50.46030,-0.06930,0.00333,0.00000,0.03221,0.97722,-0.18788,0.0,2023,6,7,17,48,19,222
50.46040,0.07070,0.02083,0.00000,0.03367,0.97771,-0.18678,0.0,2023,6,7,17,48,19,233
50.46050,-0.08680,0.05582,0.00000,0.02989,0.97527,-0.18605,0.0,2023,6,7,17,48,19,245
50.46060,-0.13930,0.09082,0.00000,0.03160,0.97673,-0.18849,0.0,2023,6,7,17,48,19,256
50.46070,0.07070,0.09082,0.00000,0.03111,0.97600,-0.19032,0.0,2023,6,7,17,48,19,268
50.46080,0.03570,0.09082,0.00000,0.03111,0.97710,-0.18995,0.0,2023,6,7,17,48,19,279
50.46090,-0.12180,0.21333,0.00000,0.03282,0.97527,-0.18837,0.0,2023,6,7,17,48,19,290
50.46100,-0.13930,-0.08418,0.00000,0.03013,0.97746,-0.18849,0.0,2023,6,7,17,48,19,302
50.46110,-0.01680,-0.03167,0.00000,0.03221,0.97734,-0.18886,0.0,2023,6,7,17,48,19,313
50.46120,0.07070,0.02083,0.00000,0.03148,0.97454,-0.18995,0.0,2023,6,7,17,48,19,325
50.46130,-0.08680,0.02083,0.00000,0.02928,0.97710,-0.18837,0.0,2023,6,7,17,48,19,336
50.46140,0.08820,0.10832,0.00000,0.03001,0.97807,-0.18873,0.0,2023,6,7,17,48,19,348
50.46150,0.17570,-0.01417,0.00000,0.02867,0.97771,-0.18629,0.0,2023,6,7,17,48,19,359
50.46160,-0.10430,0.02083,0.00000,0.03111,0.97673,-0.19044,0.0,2023,6,7,17,48,19,371
50.46170,-0.03430,0.10832,0.00000,0.03221,0.97685,-0.18776,0.0,2023,6,7,17,48,19,382
50.46180,0.17570,-0.11918,0.00000,0.03160,0.97734,-0.18788,0.0,2023,6,7,17,48,19,394
50.46190,0.12320,-0.10168,0.00000,0.03099,0.97637,-0.18654,0.0,2023,6,7,17,48,19,405
50.46200,0.08820,-0.04917,0.00000,0.03135,0.97454,-0.19020,0.0,2023,6,7,17,48,19,417
50.46210,-0.05180,0.07332,0.00000,0.03001,0.97783,-0.18983,0.0,2023,6,7,17,48,19,428
50.46220,0.17570,0.07332,0.00000,0.03026,0.97527,-0.18898,0.0,2023,6,7,17,48,19,440
50.46230,0.05320,0.16082,0.00000,0.03074,0.97832,-0.18886,0.0,2023,6,7,17,48,19,451
50.46240,-0.26180,0.35332,0.00000,0.03111,0.97478,-0.18825,0.0,2023,6,7,17,48,19,463
50.46250,0.12320,0.05582,0.00000,0.03050,0.97624,-0.19020,0.0,2023,6,7,17,48,19,474
50.46260,-0.12180,0.02083,0.00000,0.03038,0.97393,-0.19008,0.0,2023,6,7,17,48,19,486
50.46270,-0.08680,0.19583,0.00000,0.03209,0.97588,-0.18764,0.0,2023,6,7,17,48,19,497
50.46280,0.00070,-0.27668,0.00000,0.03148,0.97685,-0.18776,0.0,2023,6,7,17,48,19,509
50.46290,0.00070,-0.04917,0.00000,0.03245,0.97551,-0.18995,0.0,2023,6,7,17,48,19,520
50.46300,0.07070,-0.15418,0.00000,0.03184,0.97429,-0.18995,0.0,2023,6,7,17,48,19,532
50.46310,0.05320,0.02083,0.00000,0.03184,0.97661,-0.18776,0.0,2023,6,7,17,48,19,543
50.46320,0.03570,-0.15418,0.00000,0.03428,0.97661,-0.18837,0.0,2023,6,7,17,48,20,555
50.46330,-0.01680,0.16082,0.00000,0.03123,0.97637,-0.18739,0.0,2023,6,7,17,48,20,566
50.46340,0.00070,-0.17168,0.00000,0.03062,0.97588,-0.19105,0.0,2023,6,7,17,48,20,578
50.46350,0.01820,0.07332,0.00000,0.03331,0.97685,-0.18788,0.0,2023,6,7,17,48,20,589
50.46360,-0.05180,0.03832,0.00000,0.03209,0.97673,-0.18703,0.0,2023,6,7,17,48,20,601
50.46370,0.15820,-0.22417,0.00000,0.03196,0.97856,-0.18751,0.0,2023,6,7,17,48,20,612
50.46380,-0.12180,0.19583,0.00000,0.03062,0.97771,-0.18959,0.0,2023,6,7,17,48,20,624
50.46390,-0.15680,-0.11918,0.00000,0.03013,0.97698,-0.18788,0.0,2023,6,7,17,48,20,635
50.46400,0.01820,0.09082,0.00000,0.03160,0.97771,-0.18959,0.0,2023,6,7,17,48,20,647
50.46410,-0.05180,-0.08418,0.00000,0.03123,0.97502,-0.18764,0.0,2023,6,7,17,48,20,658
50.46420,0.08820,-0.03167,0.00000,0.03074,0.97734,-0.18922,0.0,2023,6,7,17,48,20,670
50.46430,-0.01680,0.05582,0.00000,0.03099,0.97673,-0.18947,0.0,2023,6,7,17,48,20,681
50.46440,0.12320,0.00333,0.00000,0.02965,0.97441,-0.18812,0.0,2023,6,7,17,48,20,693
50.46450,0.19320,-0.03167,0.00000,0.03135,0.97563,-0.18837,0.0,2023,6,7,17,48,20,704
50.46460,0.24570,-0.04917,0.00000,0.02977,0.97722,-0.18678,0.0,2023,6,7,17,48,20,716
50.46470,-0.10430,-0.01417,0.00000,0.03074,0.97685,-0.18910,0.0,2023,6,7,17,48,20,727
50.46480,-0.08680,-0.01417,0.00000,0.03428,0.97661,-0.18995,0.0,2023,6,7,17,48,20,739
50.46490,-0.12180,0.14332,0.00000,0.03172,0.97502,-0.18959,0.0,2023,6,7,17,48,20,750
50.46500,0.03570,-0.04917,0.00000,0.03294,0.97539,-0.18947,0.0,2023,6,7,17,48,20,762
50.46510,-0.13930,0.26582,0.00000,0.03087,0.97637,-0.18739,0.0,2023,6,7,17,48,20,773
50.46520,0.14070,0.02083,0.00000,0.03233,0.97624,-0.18910,0.0,2023,6,7,17,48,20,785
50.46530,0.14070,0.07332,0.00000,0.02806,0.97563,-0.19008,0.0,2023,6,7,17,48,20,796
50.46540,-0.03430,0.03832,0.00000,0.03062,0.97881,-0.18593,0.0,2023,6,7,17,48,20,808
50.46550,-0.08680,-0.11918,0.00000,0.03123,0.97624,-0.18922,0.0,2023,6,7,17,48,20,819
50.46560,0.03570,0.03832,0.00000,0.03184,0.97807,-0.18910,0.0,2023,6,7,17,48,20,831
50.46570,0.10570,0.21333,0.00000,0.03245,0.97527,-0.19020,0.0,2023,6,7,17,48,20,842
50.46580,-0.03430,0.26582,0.00000,0.03026,0.97539,-0.19178,0.0,2023,6,7,17,48,20,854
50.46590,0.05320,-0.08418,0.00000,0.03074,0.97844,-0.18788,0.0,2023,6,7,17,48,20,865
50.46600,-0.13930,-0.15418,0.00000,0.03001,0.97844,-0.18934,0.0,2023,6,7,17,48,20,877
50.46610,-0.01680,0.02083,0.00000,0.03062,0.97441,-0.19069,0.0,2023,6,7,17,48,20,888
50.46620,-0.01680,-0.03167,0.00000,0.03221,0.97515,-0.18922,0.0,2023,6,7,17,48,20,900
50.46630,-0.20930,-0.17168,0.00000,0.03148,0.97649,-0.18642,0.0,2023,6,7,17,48,20,911
50.46640,-0.05180,-0.22417,0.00000,0.03209,0.97795,-0.18410,0.0,2023,6,7,17,48,20,923
50.46650,0.07070,0.05582,0.00000,0.03184,0.97783,-0.18788,0.0,2023,6,7,17,48,20,934
50.46660,0.10570,0.07332,0.00000,0.03111,0.97637,-0.18934,0.0,2023,6,7,17,48,20,946
50.46670,0.14070,0.00333,0.00000,0.03318,0.97649,-0.18898,0.0,2023,6,7,17,48,20,957
50.46680,0.03570,-0.04917,0.00000,0.03123,0.97637,-0.18995,0.0,2023,6,7,17,48,20,969
50.46690,0.12320,0.00333,0.00000,0.03233,0.97527,-0.18910,0.0,2023,6,7,17,48,20,980
50.46700,-0.15680,0.09082,0.00000,0.03221,0.97856,-0.18873,0.0,2023,6,7,17,48,20,992
50.46710,-0.10430,0.05582,0.00000,0.02855,0.97612,-0.18800,0.0,2023,6,7,17,48,20,3
50.46720,-0.03430,0.05582,0.00000,0.03209,0.97685,-0.18825,0.0,2023,6,7,17,48,20,15
50.46730,-0.24430,-0.06668,0.00000,0.03257,0.97673,-0.18959,0.0,2023,6,7,17,48,20,26
50.46740,0.17570,0.09082,0.00000,0.02977,0.97771,-0.18800,0.0,2023,6,7,17,48,20,38
50.46750,0.03570,-0.27668,0.00000,0.03196,0.97954,-0.18703,0.0,2023,6,7,17,48,20,49
50.46760,-0.22680,0.10832,0.00000,0.03233,0.97649,-0.18825,0.0,2023,6,7,17,48,20,61
50.46770,0.03570,-0.04917,0.00000,0.02940,0.97771,-0.18910,0.0,2023,6,7,17,48,20,72
50.46780,-0.13930,0.14332,0.00000,0.02940,0.97563,-0.18873,0.0,2023,6,7,17,48,20,84
50.46790,0.17570,-0.18918,0.00000,0.03270,0.97600,-0.19130,0.0,2023,6,7,17,48,20,95
50.46800,0.05320,0.02083,0.00000,0.03184,0.97734,-0.18727,0.0,2023,6,7,17,48,20,107
50.46810,-0.03430,0.00333,0.00000,0.03013,0.97759,-0.18690,0.0,2023,6,7,17,48,20,118
50.46820,0.14070,-0.10168,0.00000,0.03209,0.97637,-0.18825,0.0,2023,6,7,17,48,20,130
50.46830,0.01820,-0.04917,0.00000,0.03196,0.97661,-0.18873,0.0,2023,6,7,17,48,20,141
50.46840,0.14070,0.09082,0.00000,0.03062,0.97490,-0.18947,0.0,2023,6,7,17,48,20,153
50.46850,0.05320,-0.01417,0.00000,0.03270,0.97600,-0.18910,0.0,2023,6,7,17,48,20,164
50.46860,-0.06930,0.00333,0.00000,0.03062,0.97771,-0.18776,0.0,2023,6,7,17,48,20,176
50.46870,-0.06930,-0.08418,0.00000,0.02952,0.97649,-0.18959,0.0,2023,6,7,17,48,20,187
50.46880,0.08820,-0.01417,0.00000,0.03050,0.97527,-0.19154,0.0,2023,6,7,17,48,20,199
50.46890,0.03570,-0.18918,0.00000,0.03233,0.97563,-0.18825,0.0,2023,6,7,17,48,20,210
50.46900,-0.05180,0.09082,0.00000,0.03111,0.97600,-0.18947,0.0,2023,6,7,17,48,20,222
50.46910,-0.13930,0.02083,0.00000,0.02977,0.97661,-0.18922,0.0,2023,6,7,17,48,20,233
50.46920,-0.01680,0.05582,0.00000,0.03196,0.97722,-0.18532,0.0,2023,6,7,17,48,20,245
50.46930,0.07070,0.07332,0.00000,0.02965,0.97612,-0.19130,0.0,2023,6,7,17,48,20,256
50.46940,-0.05180,0.00333,0.00000,0.03196,0.97527,-0.18800,0.0,2023,6,7,17,48,20,268
50.46950,0.01820,0.21333,0.00000,0.03233,0.97722,-0.18703,0.0,2023,6,7,17,48,20,279
50.46960,-0.26180,0.14332,0.00000,0.03160,0.97905,-0.19105,0.0,2023,6,7,17,48,20,290
50.46970,0.22820,-0.01417,0.00000,0.03184,0.97807,-0.19178,0.0,2023,6,7,17,48,20,302
50.46980,-0.19180,0.19583,0.00000,0.02843,0.97649,-0.18947,0.0,2023,6,7,17,48,20,313
50.46990,0.19320,-0.15418,0.00000,0.03111,0.97563,-0.18995,0.0,2023,6,7,17,48,20,325
50.47000,0.10570,0.07332,0.00000,0.03257,0.97832,-0.18800,0.0,2023,6,7,17,48,20,336
50.47010,0.14070,-0.13668,0.00000,0.03062,0.97612,-0.18947,0.0,2023,6,7,17,48,20,348
50.47020,-0.10430,0.00333,0.00000,0.02952,0.97551,-0.18947,0.0,2023,6,7,17,48,20,359
50.47030,0.05320,0.16082,0.00000,0.03172,0.97722,-0.18727,0.0,2023,6,7,17,48,20,371
50.47040,0.08820,-0.08418,0.00000,0.03245,0.97576,-0.18764,0.0,2023,6,7,17,48,20,382
50.47050,0.05320,0.16082,0.00000,0.03294,0.97576,-0.18934,0.0,2023,6,7,17,48,20,394
50.47060,0.05320,0.03832,0.00000,0.03074,0.97649,-0.18947,0.0,2023,6,7,17,48,20,405
50.47070,-0.05180,0.10832,0.00000,0.03245,0.97820,-0.18873,0.0,2023,6,7,17,48,20,417
50.47080,0.05320,0.05582,0.00000,0.03123,0.97673,-0.18764,0.0,2023,6,7,17,48,20,428
50.47090,-0.20930,0.19583,0.00000,0.03221,0.97637,-0.18934,0.0,2023,6,7,17,48,20,440
50.47100,0.19320,0.10832,0.00000,0.03099,0.97600,-0.18934,0.0,2023,6,7,17,48,20,451
50.47110,0.03570,-0.03167,0.00000,0.03074,0.97551,-0.18837,0.0,2023,6,7,17,48,20,463
50.47120,-0.03430,-0.06668,0.00000,0.03026,0.97588,-0.18959,0.0,2023,6,7,17,48,20,474
50.47130,-0.17430,0.03832,0.00000,0.02867,0.97490,-0.18751,0.0,2023,6,7,17,48,20,486
50.47140,0.10570,-0.13668,0.00000,0.03233,0.97600,-0.19032,0.0,2023,6,7,17,48,20,497
50.47150,0.07070,0.00333,0.00000,0.03148,0.97637,-0.18873,0.0,2023,6,7,17,48,20,509
50.47160,0.07070,0.05582,0.00000,0.03209,0.97807,-0.19020,0.0,2023,6,7,17,48,20,520
50.47170,0.01820,0.05582,0.00000,0.03245,0.97588,-0.18739,0.0,2023,6,7,17,48,20,532
50.47180,-0.31430,0.07332,0.00000,0.03221,0.97563,-0.18959,0.0,2023,6,7,17,48,20,543
50.47190,-0.13930,-0.01417,0.00000,0.03257,0.97466,-0.18812,0.0,2023,6,7,17,48,20,555
50.47200,0.12320,0.05582,0.00000,0.02916,0.97710,-0.18934,0.0,2023,6,7,17,48,20,566
50.47210,-0.12180,0.28332,0.00000,0.03026,0.97490,-0.18995,0.0,2023,6,7,17,48,21,578
50.47220,0.14070,-0.29418,0.00000,0.03196,0.97490,-0.18849,0.0,2023,6,7,17,48,21,589
50.47230,0.03570,-0.11918,0.00000,0.02989,0.97417,-0.18934,0.0,2023,6,7,17,48,21,601
50.47240,-0.10430,-0.08418,0.00000,0.03306,0.97588,-0.19117,0.0,2023,6,7,17,48,21,612
50.47250,-0.22680,0.21333,0.00000,0.03001,0.97588,-0.19044,0.0,2023,6,7,17,48,21,624
50.47260,-0.15680,0.10832,0.00000,0.03050,0.97637,-0.18983,0.0,2023,6,7,17,48,21,635
50.47270,0.12320,0.03832,0.00000,0.03367,0.97624,-0.18922,0.0,2023,6,7,17,48,21,647
50.47280,-0.05180,0.02083,0.00000,0.03135,0.97868,-0.18544,0.0,2023,6,7,17,48,21,658
50.47290,0.03570,-0.11918,0.00000,0.03196,0.97539,-0.18825,0.0,2023,6,7,17,48,21,670
50.47300,0.07070,0.17833,0.00000,0.03196,0.97771,-0.18934,0.0,2023,6,7,17,48,21,681
50.47310,0.00070,0.12582,0.00000,0.03343,0.97441,-0.19056,0.0,2023,6,7,17,48,21,693
50.47320,0.01820,0.16082,0.00000,0.03111,0.97734,-0.19142,0.0,2023,6,7,17,48,21,704
50.47330,0.01820,0.05582,0.00000,0.03087,0.97502,-0.18617,0.0,2023,6,7,17,48,21,716
50.47340,0.14070,0.24832,0.00000,0.02867,0.97661,-0.19081,0.0,2023,6,7,17,48,21,727
50.47350,-0.01680,0.14332,0.00000,0.03111,0.97905,-0.18849,0.0,2023,6,7,17,48,21,739
50.47360,-0.12180,0.16082,0.00000,0.03111,0.97454,-0.18983,0.0,2023,6,7,17,48,21,750
50.47370,0.19320,-0.15418,0.00000,0.03026,0.97624,-0.18971,0.0,2023,6,7,17,48,21,762
50.47380,-0.03430,0.07332,0.00000,0.03135,0.97661,-0.18825,0.0,2023,6,7,17,48,21,773
50.47390,-0.08680,-0.03167,0.00000,0.03209,0.97685,-0.18629,0.0,2023,6,7,17,48,21,785
50.47400,-0.10430,0.05582,0.00000,0.03026,0.97783,-0.18971,0.0,2023,6,7,17,48,21,796
50.47410,-0.03430,0.28332,0.00000,0.03331,0.97490,-0.18825,0.0,2023,6,7,17,48,21,808
50.47420,-0.03430,0.03832,0.00000,0.03111,0.97539,-0.19239,0.0,2023,6,7,17,48,21,819
50.47430,0.07070,-0.04917,0.00000,0.02989,0.97612,-0.19117,0.0,2023,6,7,17,48,21,831
50.47440,0.12320,-0.18918,0.00000,0.03099,0.97710,-0.19117,0.0,2023,6,7,17,48,21,842
50.47450,0.12320,0.09082,0.00000,0.03001,0.97844,-0.19105,0.0,2023,6,7,17,48,21,854
50.47460,0.14070,-0.01417,0.00000,0.03172,0.97551,-0.18727,0.0,2023,6,7,17,48,21,865
50.47470,0.00070,0.00333,0.00000,0.03074,0.97734,-0.19093,0.0,2023,6,7,17,48,21,877
50.47480,-0.01680,-0.10168,0.00000,0.02952,0.97563,-0.19093,0.0,2023,6,7,17,48,21,888
50.47490,-0.10430,0.05582,0.00000,0.03123,0.97856,-0.18934,0.0,2023,6,7,17,48,21,900
50.47500,0.08820,0.03832,0.00000,0.03038,0.97576,-0.18751,0.0,2023,6,7,17,48,21,911
50.47510,0.07070,0.03832,0.00000,0.03111,0.97722,-0.19117,0.0,2023,6,7,17,48,21,923
50.47520,0.01820,0.10832,0.00000,0.03270,0.97490,-0.19044,0.0,2023,6,7,17,48,21,934
50.47530,0.10570,0.03832,0.00000,0.03111,0.97551,-0.18971,0.0,2023,6,7,17,48,21,946
50.47540,-0.19180,0.07332,0.00000,0.03026,0.97624,-0.18727,0.0,2023,6,7,17,48,21,957
50.47550,0.12320,-0.03167,0.00000,0.03013,0.97698,-0.18983,0.0,2023,6,7,17,48,21,969
50.47560,-0.01680,0.09082,0.00000,0.03074,0.97515,-0.18861,0.0,2023,6,7,17,48,21,980
50.47570,0.12320,-0.01417,0.00000,0.03257,0.97551,-0.19032,0.0,2023,6,7,17,48,21,992
50.47580,0.07070,-0.04917,0.00000,0.03148,0.97380,-0.18837,0.0,2023,6,7,17,48,21,3
50.47590,0.12320,0.03832,0.00000,0.03196,0.97588,-0.18849,0.0,2023,6,7,17,48,21,15
50.47600,-0.31430,0.12582,0.00000,0.03135,0.97771,-0.18812,0.0,2023,6,7,17,48,21,26
50.47610,-0.05180,0.03832,0.00000,0.02928,0.97612,-0.18971,0.0,2023,6,7,17,48,21,38
50.47620,-0.05180,0.02083,0.00000,0.03331,0.97722,-0.18971,0.0,2023,6,7,17,48,21,49
50.47630,-0.27930,0.17833,0.00000,0.03184,0.97600,-0.18995,0.0,2023,6,7,17,48,21,61
50.47640,0.01820,0.03832,0.00000,0.03062,0.97576,-0.18959,0.0,2023,6,7,17,48,21,72
50.47650,-0.05180,0.12582,0.00000,0.02940,0.97539,-0.19105,0.0,2023,6,7,17,48,21,84
50.47660,-0.10430,0.02083,0.00000,0.03221,0.97454,-0.18910,0.0,2023,6,7,17,48,21,95
50.47670,0.00070,0.14332,0.00000,0.02928,0.97722,-0.19081,0.0,2023,6,7,17,48,21,107
50.47680,-0.01680,0.03832,0.00000,0.03038,0.97661,-0.19008,0.0,2023,6,7,17,48,21,118
50.47690,-0.13930,-0.03167,0.00000,0.03099,0.97807,-0.19044,0.0,2023,6,7,17,48,21,130
50.47700,0.03570,-0.08418,0.00000,0.03074,0.97612,-0.18983,0.0,2023,6,7,17,48,21,141
50.47710,0.00070,0.14332,0.00000,0.03135,0.97429,-0.18995,0.0,2023,6,7,17,48,21,153
50.47720,0.12320,0.21333,0.00000,0.03294,0.97734,-0.18800,0.0,2023,6,7,17,48,21,164
50.47730,-0.15680,0.16082,0.00000,0.03111,0.97759,-0.19069,0.0,2023,6,7,17,48,21,176
50.47740,0.03570,-0.11918,0.00000,0.03184,0.97563,-0.19239,0.0,2023,6,7,17,48,21,187
50.47750,-0.03430,0.09082,0.00000,0.02916,0.97710,-0.19081,0.0,2023,6,7,17,48,21,199
50.47760,-0.01680,-0.04917,0.00000,0.03026,0.97624,-0.18751,0.0,2023,6,7,17,48,21,210
50.47770,-0.15680,0.19583,0.00000,0.02940,0.97698,-0.18910,0.0,2023,6,7,17,48,21,222
50.47780,-0.05180,0.03832,0.00000,0.03050,0.97649,-0.19008,0.0,2023,6,7,17,48,21,233
50.47790,-0.05180,-0.06668,0.00000,0.03306,0.97722,-0.19252,0.0,2023,6,7,17,48,21,245
50.47800,-0.27930,0.14332,0.00000,0.03135,0.97576,-0.18922,0.0,2023,6,7,17,48,21,256
50.47810,0.00070,0.12582,0.00000,0.03026,0.97661,-0.18959,0.0,2023,6,7,17,48,21,268
50.47820,-0.06930,-0.04917,0.00000,0.03013,0.97551,-0.19020,0.0,2023,6,7,17,48,21,279
50.47830,-0.03430,0.09082,0.00000,0.03233,0.97502,-0.18947,0.0,2023,6,7,17,48,21,290
50.47840,-0.01680,0.09082,0.00000,0.03270,0.97661,-0.19215,0.0,2023,6,7,17,48,21,302
50.47850,-0.15680,0.16082,0.00000,0.03087,0.97771,-0.18849,0.0,2023,6,7,17,48,21,313
50.47860,-0.08680,0.05582,0.00000,0.02940,0.97612,-0.18629,0.0,2023,6,7,17,48,21,325
50.47870,-0.06930,0.02083,0.00000,0.02940,0.97502,-0.18910,0.0,2023,6,7,17,48,21,336
50.47880,0.07070,-0.10168,0.00000,0.03196,0.97698,-0.19105,0.0,2023,6,7,17,48,21,348
50.47890,-0.05180,-0.01417,0.00000,0.03099,0.97612,-0.19130,0.0,2023,6,7,17,48,21,359
50.47900,0.03570,-0.13668,0.00000,0.03074,0.97722,-0.18800,0.0,2023,6,7,17,48,21,371
50.47910,-0.12180,-0.06668,0.00000,0.03270,0.97783,-0.19032,0.0,2023,6,7,17,48,21,382
50.47920,-0.06930,0.07332,0.00000,0.03221,0.97588,-0.19056,0.0,2023,6,7,17,48,21,394
50.47930,-0.08680,0.12582,0.00000,0.03062,0.97685,-0.19069,0.0,2023,6,7,17,48,21,405
50.47940,0.05320,-0.18918,0.00000,0.03196,0.97490,-0.18934,0.0,2023,6,7,17,48,21,417
50.47950,0.03570,-0.08418,0.00000,0.03355,0.97502,-0.18922,0.0,2023,6,7,17,48,21,428
50.47960,-0.01680,0.16082,0.00000,0.03233,0.97698,-0.18910,0.0,2023,6,7,17,48,21,440
50.47970,-0.08680,-0.04917,0.00000,0.02916,0.97258,-0.18800,0.0,2023,6,7,17,48,21,451
50.47980,0.08820,-0.06668,0.00000,0.03013,0.97637,-0.18837,0.0,2023,6,7,17,48,21,463
50.47990,-0.01680,-0.06668,0.00000,0.03196,0.97710,-0.18995,0.0,2023,6,7,17,48,21,474
50.48000,0.01820,0.00333,0.00000,0.03026,0.97710,-0.18983,0.0,2023,6,7,17,48,21,486
50.48010,0.12320,-0.22417,0.00000,0.03196,0.97600,-0.19227,0.0,2023,6,7,17,48,21,497
50.48020,-0.12180,0.16082,0.00000,0.03379,0.97710,-0.18898,0.0,2023,6,7,17,48,21,509
50.48030,-0.26180,0.09082,0.00000,0.03233,0.97539,-0.18800,0.0,2023,6,7,17,48,21,520
50.48040,0.08820,-0.04917,0.00000,0.03074,0.97612,-0.18995,0.0,2023,6,7,17,48,21,532
50.48050,0.10570,-0.17168,0.00000,0.03074,0.97685,-0.18727,0.0,2023,6,7,17,48,21,543
50.48060,0.08820,-0.06668,0.00000,0.03013,0.97624,-0.18886,0.0,2023,6,7,17,48,21,555
50.48070,0.15820,-0.10168,0.00000,0.03123,0.97563,-0.18788,0.0,2023,6,7,17,48,21,566
50.48080,-0.01680,-0.10168,0.00000,0.03160,0.97685,-0.19056,0.0,2023,6,7,17,48,21,578
50.48090,0.00070,-0.03167,0.00000,0.03111,0.97624,-0.19056,0.0,2023,6,7,17,48,21,589
50.48100,-0.05180,-0.06668,0.00000,0.03062,0.97515,-0.19093,0.0,2023,6,7,17,48,21,601
50.48110,0.05320,-0.11918,0.00000,0.03038,0.97844,-0.18898,0.0,2023,6,7,17,48,21,612
50.48120,0.00070,-0.08418,0.00000,0.02818,0.97576,-0.18837,0.0,2023,6,7,17,48,22,624
50.48130,0.03570,0.17833,0.00000,0.03087,0.97685,-0.19239,0.0,2023,6,7,17,48,22,635
50.48140,-0.08680,0.10832,0.00000,0.03160,0.97417,-0.18959,0.0,2023,6,7,17,48,22,647
50.48150,-0.05180,-0.04917,0.00000,0.03160,0.97612,-0.18861,0.0,2023,6,7,17,48,22,658
50.48160,0.05320,-0.06668,0.00000,0.03099,0.97661,-0.18971,0.0,2023,6,7,17,48,22,670
50.48170,0.01820,0.09082,0.00000,0.03148,0.97685,-0.18971,0.0,2023,6,7,17,48,22,681
50.48180,0.08820,-0.13668,0.00000,0.02818,0.97612,-0.18922,0.0,2023,6,7,17,48,22,693
50.48190,-0.05180,-0.13668,0.00000,0.03233,0.97710,-0.18922,0.0,2023,6,7,17,48,22,704
50.48200,-0.06930,-0.06668,0.00000,0.03196,0.97637,-0.18886,0.0,2023,6,7,17,48,22,716
50.48210,-0.36680,0.21333,0.00000,0.02989,0.97868,-0.18898,0.0,2023,6,7,17,48,22,727
50.48220,-0.08680,-0.10168,0.00000,0.03050,0.97515,-0.19020,0.0,2023,6,7,17,48,22,739
50.48230,-0.08680,-0.03167,0.00000,0.03087,0.97576,-0.19069,0.0,2023,6,7,17,48,22,750
50.48240,-0.01680,0.12582,0.00000,0.03001,0.97820,-0.19191,0.0,2023,6,7,17,48,22,762
50.48250,-0.15680,0.28332,0.00000,0.03050,0.97551,-0.19069,0.0,2023,6,7,17,48,22,773
50.48260,-0.15680,0.03832,0.00000,0.02965,0.97551,-0.19093,0.0,2023,6,7,17,48,22,785
50.48270,0.01820,-0.03167,0.00000,0.03257,0.97637,-0.18922,0.0,2023,6,7,17,48,22,796
50.48280,-0.13930,-0.01417,0.00000,0.03257,0.97539,-0.18764,0.0,2023,6,7,17,48,22,808
50.48290,0.00070,-0.10168,0.00000,0.02989,0.97673,-0.18910,0.0,2023,6,7,17,48,22,819
50.48300,-0.01680,-0.01417,0.00000,0.03270,0.97637,-0.19117,0.0,2023,6,7,17,48,22,831
50.48310,-0.06930,0.05582,0.00000,0.03013,0.97527,-0.19215,0.0,2023,6,7,17,48,22,842
50.48320,-0.24430,0.23083,0.00000,0.03318,0.97490,-0.18849,0.0,2023,6,7,17,48,22,854
50.48330,-0.13930,0.05582,0.00000,0.02989,0.97563,-0.18959,0.0,2023,6,7,17,48,22,865
50.48340,-0.03430,-0.24167,0.00000,0.03184,0.97820,-0.18898,0.0,2023,6,7,17,48,22,877
50.48350,0.00070,0.07332,0.00000,0.03184,0.97502,-0.18764,0.0,2023,6,7,17,48,22,888
50.48360,-0.01680,-0.06668,0.00000,0.03099,0.97405,-0.18849,0.0,2023,6,7,17,48,22,900
50.48370,-0.06930,-0.10168,0.00000,0.03111,0.97502,-0.19032,0.0,2023,6,7,17,48,22,911
50.48380,0.03570,-0.03167,0.00000,0.03099,0.97783,-0.19008,0.0,2023,6,7,17,48,22,923
50.48390,0.10570,0.16082,0.00000,0.03160,0.97441,-0.18971,0.0,2023,6,7,17,48,22,934
50.48400,0.00070,0.12582,0.00000,0.03294,0.97502,-0.19008,0.0,2023,6,7,17,48,22,946
50.48410,-0.15680,0.02083,0.00000,0.03148,0.97515,-0.18751,0.0,2023,6,7,17,48,22,957
50.48420,-0.03430,-0.25917,0.00000,0.03196,0.97368,-0.18727,0.0,2023,6,7,17,48,22,969
50.48430,-0.08680,0.09082,0.00000,0.02891,0.97710,-0.19020,0.0,2023,6,7,17,48,22,980
50.48440,0.12320,-0.03167,0.00000,0.03099,0.97624,-0.18593,0.0,2023,6,7,17,48,22,992
50.48450,0.01820,-0.01417,0.00000,0.03050,0.97454,-0.18886,0.0,2023,6,7,17,48,22,3
50.48460,-0.17430,-0.04917,0.00000,0.03001,0.97661,-0.18825,0.0,2023,6,7,17,48,22,15
50.48470,0.12320,-0.18918,0.00000,0.03062,0.97502,-0.19166,0.0,2023,6,7,17,48,22,26
50.48480,-0.06930,0.03832,0.00000,0.03111,0.97661,-0.18995,0.0,2023,6,7,17,48,22,38
50.48490,-0.01680,0.05582,0.00000,0.03172,0.97490,-0.18873,0.0,2023,6,7,17,48,22,49
50.48500,-0.17430,0.07332,0.00000,0.02855,0.97783,-0.19081,0.0,2023,6,7,17,48,22,61
50.48510,0.10570,0.03832,0.00000,0.03221,0.97490,-0.18861,0.0,2023,6,7,17,48,22,72
50.48520,0.00070,0.09082,0.00000,0.03074,0.97624,-0.19008,0.0,2023,6,7,17,48,22,84
50.48530,-0.08680,-0.06668,0.00000,0.03038,0.97783,-0.18788,0.0,2023,6,7,17,48,22,95
50.48540,-0.08680,0.09082,0.00000,0.03270,0.97539,-0.18703,0.0,2023,6,7,17,48,22,107
50.48550,0.08820,-0.03167,0.00000,0.03135,0.97502,-0.18861,0.0,2023,6,7,17,48,22,118
50.48560,-0.26180,0.21333,0.00000,0.03038,0.97710,-0.18922,0.0,2023,6,7,17,48,22,130
50.48570,0.01820,-0.06668,0.00000,0.03221,0.97356,-0.19008,0.0,2023,6,7,17,48,22,141
50.48580,0.15820,-0.04917,0.00000,0.03172,0.97734,-0.18983,0.0,2023,6,7,17,48,22,153
50.48590,-0.10430,0.09082,0.00000,0.02916,0.97612,-0.18995,0.0,2023,6,7,17,48,22,164
50.48600,0.01820,0.02083,0.00000,0.03026,0.97759,-0.19056,0.0,2023,6,7,17,48,22,176
50.48610,0.03570,0.16082,0.00000,0.02952,0.97820,-0.19056,0.0,2023,6,7,17,48,22,187
50.48620,-0.27930,0.14332,0.00000,0.03282,0.97649,-0.18544,0.0,2023,6,7,17,48,22,199
50.48630,0.08820,-0.10168,0.00000,0.03135,0.97539,-0.18910,0.0,2023,6,7,17,48,22,210
50.48640,0.03570,0.02083,0.00000,0.03209,0.97551,-0.19032,0.0,2023,6,7,17,48,22,222
50.48650,0.03570,-0.03167,0.00000,0.03233,0.97600,-0.18947,0.0,2023,6,7,17,48,22,233
50.48660,0.00070,0.12582,0.00000,0.02989,0.97551,-0.18886,0.0,2023,6,7,17,48,22,245
50.48670,-0.13930,-0.10168,0.00000,0.03074,0.97673,-0.18678,0.0,2023,6,7,17,48,22,256
50.48680,-0.10430,0.05582,0.00000,0.03038,0.97746,-0.19056,0.0,2023,6,7,17,48,22,268
50.48690,0.03570,0.12582,0.00000,0.03184,0.97624,-0.18947,0.0,2023,6,7,17,48,22,279
50.48700,-0.08680,0.03832,0.00000,0.03270,0.97807,-0.18739,0.0,2023,6,7,17,48,22,290
50.48710,0.10570,0.07332,0.00000,0.03062,0.97515,-0.18910,0.0,2023,6,7,17,48,22,302
50.48720,-0.06930,0.21333,0.00000,0.03172,0.97685,-0.18654,0.0,2023,6,7,17,48,22,313
50.48730,-0.03430,-0.13668,0.00000,0.03245,0.97405,-0.19044,0.0,2023,6,7,17,48,22,325
50.48740,-0.13930,-0.01417,0.00000,0.03123,0.97600,-0.18898,0.0,2023,6,7,17,48,22,336
50.48750,0.10570,-0.01417,0.00000,0.03026,0.97673,-0.18934,0.0,2023,6,7,17,48,22,348
50.48760,0.07070,-0.04917,0.00000,0.03209,0.97783,-0.18886,0.0,2023,6,7,17,48,22,359
50.48770,0.05320,0.03832,0.00000,0.03074,0.97649,-0.18971,0.0,2023,6,7,17,48,22,371
50.48780,-0.01680,-0.11918,0.00000,0.03282,0.97832,-0.18764,0.0,2023,6,7,17,48,22,382
50.48790,-0.08680,-0.15418,0.00000,0.03257,0.97759,-0.18898,0.0,2023,6,7,17,48,22,394
50.48800,0.03570,-0.10168,0.00000,0.03184,0.97710,-0.19117,0.0,2023,6,7,17,48,22,405
50.48810,-0.12180,0.28332,0.00000,0.02977,0.97429,-0.19032,0.0,2023,6,7,17,48,22,417
50.48820,-0.06930,-0.22417,0.00000,0.03257,0.97612,-0.18922,0.0,2023,6,7,17,48,22,428
50.48830,-0.05180,-0.01417,0.00000,0.03148,0.97515,-0.18642,0.0,2023,6,7,17,48,22,440
50.48840,-0.08680,0.03832,0.00000,0.03282,0.97515,-0.18910,0.0,2023,6,7,17,48,22,451
50.48850,0.07070,0.19583,0.00000,0.03172,0.97502,-0.18703,0.0,2023,6,7,17,48,22,463
50.48860,0.03570,-0.04917,0.00000,0.03099,0.97637,-0.18886,0.0,2023,6,7,17,48,22,474
50.48870,0.07070,-0.10168,0.00000,0.03038,0.97856,-0.18739,0.0,2023,6,7,17,48,22,486
50.48880,0.01820,-0.06668,0.00000,0.03087,0.97746,-0.18715,0.0,2023,6,7,17,48,22,497
50.48890,-0.13930,-0.10168,0.00000,0.02989,0.97527,-0.19105,0.0,2023,6,7,17,48,22,509
50.48900,0.12320,-0.01417,0.00000,0.03111,0.97698,-0.18690,0.0,2023,6,7,17,48,22,520
50.48910,-0.17430,-0.11918,0.00000,0.03050,0.97612,-0.19020,0.0,2023,6,7,17,48,22,532
50.48920,-0.08680,-0.01417,0.00000,0.03172,0.97734,-0.18898,0.0,2023,6,7,17,48,22,543
50.48930,-0.05180,0.17833,0.00000,0.03306,0.97527,-0.18776,0.0,2023,6,7,17,48,22,555
50.48940,-0.05180,0.10832,0.00000,0.03343,0.97698,-0.18812,0.0,2023,6,7,17,48,22,566
50.48950,-0.08680,0.07332,0.00000,0.03270,0.97637,-0.19166,0.0,2023,6,7,17,48,22,578
50.48960,-0.05180,-0.03167,0.00000,0.03440,0.97673,-0.19117,0.0,2023,6,7,17,48,22,589
50.48970,-0.15680,0.09082,0.00000,0.03026,0.97783,-0.18861,0.0,2023,6,7,17,48,22,601
50.48980,0.08820,0.09082,0.00000,0.03172,0.97551,-0.18764,0.0,2023,6,7,17,48,22,612
50.48990,-0.19180,0.10832,0.00000,0.03209,0.97783,-0.18849,0.0,2023,6,7,17,48,22,624
50.49000,-0.06930,-0.17168,0.00000,0.02916,0.97588,-0.18983,0.0,2023,6,7,17,48,22,635
50.49010,0.15820,0.26582,0.00000,0.03282,0.97722,-0.18873,0.0,2023,6,7,17,48,22,647
50.49020,-0.12180,-0.08418,0.00000,0.03355,0.97637,-0.18934,0.0,2023,6,7,17,48,23,658
50.49030,0.07070,-0.04917,0.00000,0.03294,0.97698,-0.18739,0.0,2023,6,7,17,48,23,670
50.49040,-0.03430,-0.13668,0.00000,0.03087,0.97685,-0.18764,0.0,2023,6,7,17,48,23,681
50.49050,0.12320,-0.06668,0.00000,0.03221,0.97588,-0.18873,0.0,2023,6,7,17,48,23,693
50.49060,-0.17430,-0.01417,0.00000,0.03001,0.97624,-0.18910,0.0,2023,6,7,17,48,23,704
50.49070,-0.06930,0.05582,0.00000,0.03172,0.97466,-0.18934,0.0,2023,6,7,17,48,23,716
50.49080,-0.01680,0.10832,0.00000,0.02989,0.97685,-0.18922,0.0,2023,6,7,17,48,23,727
50.49090,-0.15680,-0.03167,0.00000,0.03111,0.97722,-0.18995,0.0,2023,6,7,17,48,23,739
50.49100,-0.08680,-0.11918,0.00000,0.03148,0.97722,-0.18934,0.0,2023,6,7,17,48,23,750
50.49110,-0.05180,0.05582,0.00000,0.03062,0.97527,-0.18910,0.0,2023,6,7,17,48,23,762
50.49120,-0.10430,0.10832,0.00000,0.03026,0.97478,-0.18776,0.0,2023,6,7,17,48,23,773
50.49130,-0.03430,-0.08418,0.00000,0.03123,0.97685,-0.18642,0.0,2023,6,7,17,48,23,785
50.49140,0.19320,0.14332,0.00000,0.03270,0.97588,-0.18800,0.0,2023,6,7,17,48,23,796
50.49150,0.17570,-0.15418,0.00000,0.03245,0.97673,-0.19081,0.0,2023,6,7,17,48,23,808
50.49160,-0.13930,-0.06668,0.00000,0.02855,0.97832,-0.18959,0.0,2023,6,7,17,48,23,819
50.49170,-0.22680,0.30082,0.00000,0.03184,0.97685,-0.18825,0.0,2023,6,7,17,48,23,831
50.49180,0.00070,-0.18918,0.00000,0.03087,0.97759,-0.18800,0.0,2023,6,7,17,48,23,842
50.49190,0.22820,-0.10168,0.00000,0.03196,0.97832,-0.18764,0.0,2023,6,7,17,48,23,854
50.49200,-0.05180,-0.03167,0.00000,0.03331,0.97624,-0.19081,0.0,2023,6,7,17,48,23,865
50.49210,0.00070,-0.03167,0.00000,0.03087,0.97515,-0.19239,0.0,2023,6,7,17,48,23,877
50.49220,-0.08680,0.17833,0.00000,0.03294,0.97563,-0.18800,0.0,2023,6,7,17,48,23,888
50.49230,-0.17430,-0.03167,0.00000,0.02952,0.97649,-0.18849,0.0,2023,6,7,17,48,23,900
50.49240,0.21070,0.12582,0.00000,0.03233,0.97637,-0.19081,0.0,2023,6,7,17,48,23,911
50.49250,-0.17430,0.02083,0.00000,0.03148,0.97673,-0.18788,0.0,2023,6,7,17,48,23,923
50.49260,0.07070,0.02083,0.00000,0.03196,0.97637,-0.18983,0.0,2023,6,7,17,48,23,934
50.49270,-0.01680,0.10832,0.00000,0.03099,0.97417,-0.18873,0.0,2023,6,7,17,48,23,946
50.49280,-0.12180,0.03832,0.00000,0.03294,0.97527,-0.18629,0.0,2023,6,7,17,48,23,957
50.49290,0.07070,-0.03167,0.00000,0.03306,0.97600,-0.19069,0.0,2023,6,7,17,48,23,969
50.49300,0.00070,0.10832,0.00000,0.03233,0.97466,-0.18922,0.0,2023,6,7,17,48,23,980
50.49310,-0.19180,0.07332,0.00000,0.03074,0.97588,-0.18934,0.0,2023,6,7,17,48,23,992
50.49320,-0.17430,0.10832,0.00000,0.03099,0.97612,-0.18849,0.0,2023,6,7,17,48,23,3
50.49330,0.08820,-0.10168,0.00000,0.03087,0.97722,-0.18776,0.0,2023,6,7,17,48,23,15
50.49340,-0.26180,-0.10168,0.00000,0.03245,0.97466,-0.18947,0.0,2023,6,7,17,48,23,26
50.49350,0.14070,0.03832,0.00000,0.03233,0.97368,-0.19056,0.0,2023,6,7,17,48,23,38
50.49360,0.12320,0.03832,0.00000,0.03099,0.97624,-0.19044,0.0,2023,6,7,17,48,23,49
50.49370,-0.06930,0.14332,0.00000,0.03416,0.97698,-0.18934,0.0,2023,6,7,17,48,23,61
50.49380,-0.05180,0.19583,0.00000,0.03135,0.97624,-0.18898,0.0,2023,6,7,17,48,23,72
50.49390,-0.05180,0.07332,0.00000,0.03172,0.97783,-0.18739,0.0,2023,6,7,17,48,23,84
50.49400,-0.05180,0.10832,0.00000,0.03026,0.97746,-0.19020,0.0,2023,6,7,17,48,23,95
50.49410,0.05320,-0.04917,0.00000,0.03099,0.97539,-0.18873,0.0,2023,6,7,17,48,23,107
50.49420,-0.06930,-0.01417,0.00000,0.03062,0.97502,-0.18751,0.0,2023,6,7,17,48,23,118
50.49430,-0.05180,-0.04917,0.00000,0.03196,0.97698,-0.18764,0.0,2023,6,7,17,48,23,130
50.49440,-0.17430,-0.04917,0.00000,0.02989,0.97551,-0.18873,0.0,2023,6,7,17,48,23,141
50.49450,0.00070,-0.01417,0.00000,0.03087,0.97454,-0.19239,0.0,2023,6,7,17,48,23,153
50.49460,-0.12180,-0.08418,0.00000,0.03221,0.97783,-0.18800,0.0,2023,6,7,17,48,23,164
50.49470,-0.13930,0.28332,0.00000,0.03233,0.97600,-0.18910,0.0,2023,6,7,17,48,23,176
50.49480,-0.22680,0.00333,0.00000,0.02891,0.97649,-0.18715,0.0,2023,6,7,17,48,23,187
50.49490,0.05320,-0.20667,0.00000,0.03062,0.97515,-0.19105,0.0,2023,6,7,17,48,23,199
50.49500,0.10570,-0.08418,0.00000,0.03282,0.97515,-0.18959,0.0,2023,6,7,17,48,23,210
50.49510,-0.19180,-0.01417,0.00000,0.03062,0.97783,-0.18849,0.0,2023,6,7,17,48,23,222
50.49520,0.08820,-0.01417,0.00000,0.03062,0.97844,-0.18751,0.0,2023,6,7,17,48,23,233
50.49530,0.07070,0.00333,0.00000,0.03172,0.97771,-0.19044,0.0,2023,6,7,17,48,23,245
50.49540,-0.05180,-0.13668,0.00000,0.03050,0.97588,-0.18861,0.0,2023,6,7,17,48,23,256
50.49550,-0.31430,-0.04917,0.00000,0.03245,0.97710,-0.18886,0.0,2023,6,7,17,48,23,268
50.49560,-0.06930,-0.01417,0.00000,0.02952,0.97576,-0.18727,0.0,2023,6,7,17,48,23,279
50.49570,0.05320,0.00333,0.00000,0.03245,0.97661,-0.18715,0.0,2023,6,7,17,48,23,290
50.49580,0.12320,-0.06668,0.00000,0.03257,0.97734,-0.18800,0.0,2023,6,7,17,48,23,302
50.49590,-0.01680,-0.01417,0.00000,0.03306,0.97624,-0.18886,0.0,2023,6,7,17,48,23,313
50.49600,-0.12180,-0.04917,0.00000,0.03148,0.97746,-0.18886,0.0,2023,6,7,17,48,23,325
50.49610,0.03570,-0.04917,0.00000,0.02965,0.97527,-0.18812,0.0,2023,6,7,17,48,23,336
50.49620,-0.10430,0.19583,0.00000,0.03074,0.97637,-0.19203,0.0,2023,6,7,17,48,23,348
50.49630,-0.10430,0.00333,0.00000,0.03160,0.97698,-0.18764,0.0,2023,6,7,17,48,23,359
50.49640,-0.13930,0.23083,0.00000,0.03184,0.97588,-0.19044,0.0,2023,6,7,17,48,23,371
50.49650,0.26320,-0.06668,0.00000,0.03257,0.97820,-0.18764,0.0,2023,6,7,17,48,23,382
50.49660,-0.08680,0.00333,0.00000,0.03221,0.97685,-0.18849,0.0,2023,6,7,17,48,23,394
50.49670,0.05320,-0.03167,0.00000,0.03184,0.97722,-0.18800,0.0,2023,6,7,17,48,23,405
50.49680,-0.06930,0.21333,0.00000,0.03074,0.97746,-0.18934,0.0,2023,6,7,17,48,23,417
50.49690,-0.13930,0.21333,0.00000,0.03135,0.97783,-0.18629,0.0,2023,6,7,17,48,23,428
50.49700,0.03570,0.02083,0.00000,0.03087,0.97710,-0.18886,0.0,2023,6,7,17,48,23,440
50.49710,-0.03430,0.00333,0.00000,0.02989,0.97612,-0.18934,0.0,2023,6,7,17,48,23,451
50.49720,0.07070,0.10832,0.00000,0.03196,0.97807,-0.18959,0.0,2023,6,7,17,48,23,463
50.49730,0.12320,0.17833,0.00000,0.03087,0.97588,-0.18959,0.0,2023,6,7,17,48,23,474
50.49740,0.05320,-0.17168,0.00000,0.02977,0.97539,-0.18800,0.0,2023,6,7,17,48,23,486
50.49750,-0.06930,0.07332,0.00000,0.03001,0.97576,-0.19154,0.0,2023,6,7,17,48,23,497
50.49760,0.21070,0.03832,0.00000,0.03233,0.97624,-0.19154,0.0,2023,6,7,17,48,23,509
50.49770,-0.05180,-0.04917,0.00000,0.03270,0.97978,-0.18666,0.0,2023,6,7,17,48,23,520
50.49780,-0.03430,0.00333,0.00000,0.03172,0.97490,-0.18861,0.0,2023,6,7,17,48,23,532
50.49790,0.08820,-0.17168,0.00000,0.03331,0.97515,-0.18751,0.0,2023,6,7,17,48,23,543
50.49800,-0.06930,0.00333,0.00000,0.02940,0.97600,-0.18751,0.0,2023,6,7,17,48,23,555
50.49810,-0.12180,0.07332,0.00000,0.03074,0.97722,-0.19154,0.0,2023,6,7,17,48,23,566
50.49820,-0.03430,0.07332,0.00000,0.03209,0.97722,-0.18849,0.0,2023,6,7,17,48,23,578
50.49830,0.19320,-0.13668,0.00000,0.03184,0.97759,-0.18947,0.0,2023,6,7,17,48,23,589
50.49840,0.01820,0.02083,0.00000,0.03050,0.97795,-0.18825,0.0,2023,6,7,17,48,23,601
50.49850,0.14070,-0.04917,0.00000,0.03001,0.97673,-0.19044,0.0,2023,6,7,17,48,23,612
50.49860,-0.12180,0.14332,0.00000,0.03050,0.97612,-0.18910,0.0,2023,6,7,17,48,23,624
50.49870,0.07070,0.10832,0.00000,0.03221,0.97624,-0.18873,0.0,2023,6,7,17,48,23,635
50.49880,-0.17430,0.07332,0.00000,0.03221,0.97502,-0.18959,0.0,2023,6,7,17,48,23,647
50.49890,-0.03430,0.10832,0.00000,0.03160,0.97710,-0.19191,0.0,2023,6,7,17,48,23,658
50.49900,0.05320,0.10832,0.00000,0.03074,0.97771,-0.18934,0.0,2023,6,7,17,48,23,670
50.49910,-0.36680,0.05582,0.00000,0.03148,0.97527,-0.18825,0.0,2023,6,7,17,48,23,681
50.49920,0.03570,0.14332,0.00000,0.03160,0.97588,-0.18934,0.0,2023,6,7,17,48,24,693
50.49930,-0.12180,0.02083,0.00000,0.03135,0.97698,-0.18873,0.0,2023,6,7,17,48,24,704
50.49940,0.00070,0.00333,0.00000,0.03282,0.97466,-0.19093,0.0,2023,6,7,17,48,24,716
50.49950,0.05320,0.12582,0.00000,0.02989,0.97527,-0.18886,0.0,2023,6,7,17,48,24,727
50.49960,0.07070,0.00333,0.00000,0.03001,0.97637,-0.18703,0.0,2023,6,7,17,48,24,739
50.49970,-0.13930,-0.13668,0.00000,0.03087,0.97795,-0.18959,0.0,2023,6,7,17,48,24,750
50.49980,-0.17430,-0.01417,0.00000,0.03294,0.97539,-0.18788,0.0,2023,6,7,17,48,24,762
50.49990,0.12320,0.10832,0.00000,0.03062,0.97710,-0.18825,0.0,2023,6,7,17,48,24,773
50.50000,0.03570,0.07332,0.00000,0.02940,0.97515,-0.19130,0.0,2023,6,7,17,48,24,785
50.50010,-0.10430,0.12582,0.00000,0.03135,0.97539,-0.18959,0.0,2023,6,7,17,48,24,796
50.50020,0.05320,0.09082,0.00000,0.03111,0.97734,-0.18837,0.0,2023,6,7,17,48,24,808
50.50030,-0.05180,-0.01417,0.00000,0.03379,0.97502,-0.19130,0.0,2023,6,7,17,48,24,819
50.50040,0.12320,-0.10168,0.00000,0.03013,0.97502,-0.19081,0.0,2023,6,7,17,48,24,831
50.50050,0.00070,-0.08418,0.00000,0.03123,0.97600,-0.18922,0.0,2023,6,7,17,48,24,842
50.50060,-0.01680,-0.10168,0.00000,0.03050,0.97637,-0.18873,0.0,2023,6,7,17,48,24,854
50.50070,-0.05180,0.19583,0.00000,0.03318,0.97881,-0.19069,0.0,2023,6,7,17,48,24,865
50.50080,-0.08680,-0.04917,0.00000,0.03184,0.97612,-0.18715,0.0,2023,6,7,17,48,24,877
50.50090,-0.03430,-0.08418,0.00000,0.03148,0.97673,-0.18995,0.0,2023,6,7,17,48,24,888
50.50100,-0.05180,-0.15418,0.00000,0.02989,0.97685,-0.18983,0.0,2023,6,7,17,48,24,900
50.50110,-0.03430,-0.03167,0.00000,0.03062,0.97649,-0.18861,0.0,2023,6,7,17,48,24,911
50.50120,-0.05180,-0.08418,0.00000,0.03270,0.97637,-0.19069,0.0,2023,6,7,17,48,24,923
50.50130,-0.05180,0.05582,0.00000,0.03074,0.97881,-0.18910,0.0,2023,6,7,17,48,24,934
50.50140,0.19320,-0.15418,0.00000,0.03038,0.97698,-0.18678,0.0,2023,6,7,17,48,24,946
50.50150,-0.01680,0.00333,0.00000,0.03196,0.97637,-0.18922,0.0,2023,6,7,17,48,24,957
50.50160,0.00070,0.09082,0.00000,0.03001,0.97795,-0.19044,0.0,2023,6,7,17,48,24,969
50.50170,0.12320,-0.17168,0.00000,0.03160,0.97734,-0.19093,0.0,2023,6,7,17,48,24,980
50.50180,0.00070,-0.13668,0.00000,0.03038,0.97759,-0.18800,0.0,2023,6,7,17,48,24,992
50.50190,0.08820,0.09082,0.00000,0.03135,0.97624,-0.18568,0.0,2023,6,7,17,48,24,3
50.50200,-0.01680,-0.06668,0.00000,0.03196,0.97576,-0.18873,0.0,2023,6,7,17,48,24,15
50.50210,-0.15680,-0.03167,0.00000,0.03233,0.97576,-0.19008,0.0,2023,6,7,17,48,24,26
50.50220,0.01820,-0.08418,0.00000,0.03111,0.97612,-0.19191,0.0,2023,6,7,17,48,24,38
50.50230,0.03570,-0.03167,0.00000,0.02940,0.97527,-0.18898,0.0,2023,6,7,17,48,24,49
50.50240,-0.15680,0.05582,0.00000,0.03306,0.97649,-0.19081,0.0,2023,6,7,17,48,24,61
50.50250,0.05320,0.03832,0.00000,0.02940,0.97807,-0.18898,0.0,2023,6,7,17,48,24,72
50.50260,-0.10430,0.12582,0.00000,0.03087,0.97624,-0.18910,0.0,2023,6,7,17,48,24,84
50.50270,0.10570,-0.22417,0.00000,0.03099,0.97722,-0.18910,0.0,2023,6,7,17,48,24,95
50.50280,-0.20930,0.05582,0.00000,0.03257,0.97661,-0.18873,0.0,2023,6,7,17,48,24,107
50.50290,0.07070,0.09082,0.00000,0.03270,0.97783,-0.18825,0.0,2023,6,7,17,48,24,118
50.50300,0.01820,0.14332,0.00000,0.02952,0.97771,-0.18800,0.0,2023,6,7,17,48,24,130
50.50310,-0.03430,-0.10168,0.00000,0.03172,0.97795,-0.18873,0.0,2023,6,7,17,48,24,141
50.50320,0.10570,-0.06668,0.00000,0.03160,0.97527,-0.18947,0.0,2023,6,7,17,48,24,153
50.50330,0.00070,-0.11918,0.00000,0.03221,0.97454,-0.18947,0.0,2023,6,7,17,48,24,164
50.50340,-0.15680,0.23083,0.00000,0.03221,0.97685,-0.18739,0.0,2023,6,7,17,48,24,176
50.50350,-0.03430,0.00333,0.00000,0.03209,0.97527,-0.18764,0.0,2023,6,7,17,48,24,187
50.50360,0.03570,0.02083,0.00000,0.02977,0.97710,-0.19032,0.0,2023,6,7,17,48,24,199
50.50370,0.14070,-0.06668,0.00000,0.03233,0.97661,-0.18934,0.0,2023,6,7,17,48,24,210
50.50380,-0.12180,0.05582,0.00000,0.03196,0.97673,-0.18983,0.0,2023,6,7,17,48,24,222
50.50390,0.10570,-0.03167,0.00000,0.03099,0.97490,-0.18886,0.0,2023,6,7,17,48,24,233
50.50400,-0.15680,0.17833,0.00000,0.03050,0.97673,-0.18800,0.0,2023,6,7,17,48,24,245
50.50410,0.03570,-0.17168,0.00000,0.03184,0.97844,-0.19142,0.0,2023,6,7,17,48,24,256
50.50420,-0.03430,0.03832,0.00000,0.03050,0.97563,-0.18934,0.0,2023,6,7,17,48,24,268
50.50430,0.01820,-0.03167,0.00000,0.02916,0.97649,-0.18776,0.0,2023,6,7,17,48,24,279
50.50440,0.03570,-0.01417,0.00000,0.03184,0.97563,-0.18837,0.0,2023,6,7,17,48,24,290
50.50450,-0.12180,-0.08418,0.00000,0.02977,0.97368,-0.18776,0.0,2023,6,7,17,48,24,302
50.50460,0.14070,0.02083,0.00000,0.03257,0.97649,-0.19032,0.0,2023,6,7,17,48,24,313
50.50470,0.14070,0.09082,0.00000,0.03306,0.97759,-0.19105,0.0,2023,6,7,17,48,24,325
50.50480,-0.27930,0.10832,0.00000,0.03074,0.97612,-0.18873,0.0,2023,6,7,17,48,24,336
50.50490,0.05320,-0.06668,0.00000,0.03221,0.97856,-0.18837,0.0,2023,6,7,17,48,24,348
50.50500,-0.08680,-0.06668,0.00000,0.03245,0.97637,-0.18715,0.0,2023,6,7,17,48,24,359
50.50510,-0.05180,-0.01417,0.00000,0.02977,0.97661,-0.18690,0.0,2023,6,7,17,48,24,371
50.50520,-0.05180,0.07332,0.00000,0.03050,0.97710,-0.19044,0.0,2023,6,7,17,48,24,382
50.50530,0.05320,-0.03167,0.00000,0.03062,0.97624,-0.18934,0.0,2023,6,7,17,48,24,394
50.50540,0.07070,0.00333,0.00000,0.03196,0.97478,-0.18898,0.0,2023,6,7,17,48,24,405
50.50550,0.08820,-0.08418,0.00000,0.03306,0.97746,-0.18910,0.0,2023,6,7,17,48,24,417
50.50560,0.08820,-0.10168,0.00000,0.03135,0.97454,-0.18800,0.0,2023,6,7,17,48,24,428
50.50570,-0.06930,0.12582,0.00000,0.03172,0.97673,-0.19056,0.0,2023,6,7,17,48,24,440
50.50580,0.10570,0.09082,0.00000,0.03123,0.97478,-0.18971,0.0,2023,6,7,17,48,24,451
50.50590,0.19320,-0.03167,0.00000,0.02891,0.97576,-0.18776,0.0,2023,6,7,17,48,24,463
50.50600,-0.03430,-0.15418,0.00000,0.03184,0.97576,-0.18886,0.0,2023,6,7,17,48,24,474
50.50610,0.03570,0.05582,0.00000,0.03099,0.97661,-0.18983,0.0,2023,6,7,17,48,24,486
50.50620,-0.06930,0.00333,0.00000,0.03087,0.97478,-0.18666,0.0,2023,6,7,17,48,24,497
50.50630,0.05320,-0.22417,0.00000,0.03196,0.97624,-0.18812,0.0,2023,6,7,17,48,24,509
50.50640,0.00070,0.23083,0.00000,0.03416,0.97417,-0.18959,0.0,2023,6,7,17,48,24,520
50.50650,-0.17430,-0.04917,0.00000,0.03111,0.97905,-0.18910,0.0,2023,6,7,17,48,24,532
50.50660,-0.20930,0.14332,0.00000,0.03282,0.97649,-0.18873,0.0,2023,6,7,17,48,24,543
50.50670,0.08820,-0.04917,0.00000,0.03184,0.97759,-0.18690,0.0,2023,6,7,17,48,24,555
50.50680,0.01820,-0.24167,0.00000,0.03135,0.97527,-0.18739,0.0,2023,6,7,17,48,24,566
50.50690,-0.03430,0.02083,0.00000,0.03087,0.97685,-0.18800,0.0,2023,6,7,17,48,24,578
50.50700,-0.01680,0.21333,0.00000,0.03013,0.97746,-0.18910,0.0,2023,6,7,17,48,24,589
50.50710,-0.06930,-0.32918,0.00000,0.03221,0.97478,-0.18739,0.0,2023,6,7,17,48,24,601
50.50720,-0.08680,0.02083,0.00000,0.03172,0.97466,-0.18764,0.0,2023,6,7,17,48,24,612
50.50730,0.05320,-0.04917,0.00000,0.03245,0.97844,-0.18959,0.0,2023,6,7,17,48,24,624
50.50740,-0.06930,-0.03167,0.00000,0.03013,0.97698,-0.18776,0.0,2023,6,7,17,48,24,635
50.50750,0.22820,0.00333,0.00000,0.02916,0.97563,-0.19191,0.0,2023,6,7,17,48,24,647
50.50760,-0.05180,0.07332,0.00000,0.03196,0.97612,-0.19044,0.0,2023,6,7,17,48,24,658
50.50770,0.00070,-0.04917,0.00000,0.03233,0.97539,-0.18751,0.0,2023,6,7,17,48,24,670
50.50780,-0.06930,0.00333,0.00000,0.03135,0.97771,-0.18764,0.0,2023,6,7,17,48,24,681
50.50790,0.07070,-0.29418,0.00000,0.03050,0.97515,-0.18995,0.0,2023,6,7,17,48,24,693
50.50800,0.10570,-0.01417,0.00000,0.03111,0.97771,-0.18873,0.0,2023,6,7,17,48,24,704
50.50810,0.01820,0.02083,0.00000,0.03038,0.97490,-0.19154,0.0,2023,6,7,17,48,24,716
50.50820,0.08820,-0.27668,0.00000,0.03135,0.97527,-0.18617,0.0,2023,6,7,17,48,25,727
50.50830,-0.10430,-0.01417,0.00000,0.03087,0.97807,-0.18800,0.0,2023,6,7,17,48,25,739
50.50840,0.12320,0.23083,0.00000,0.03135,0.97771,-0.18947,0.0,2023,6,7,17,48,25,750
50.50850,0.07070,0.12582,0.00000,0.02928,0.97563,-0.19130,0.0,2023,6,7,17,48,25,762
50.50860,0.12320,0.10832,0.00000,0.02989,0.97393,-0.19032,0.0,2023,6,7,17,48,25,773
50.50870,-0.01680,0.03832,0.00000,0.03355,0.97466,-0.18751,0.0,2023,6,7,17,48,25,785
50.50880,0.01820,-0.08418,0.00000,0.03026,0.97905,-0.18703,0.0,2023,6,7,17,48,25,796
50.50890,-0.05180,0.21333,0.00000,0.02977,0.97771,-0.18983,0.0,2023,6,7,17,48,25,808
50.50900,0.01820,0.00333,0.00000,0.03013,0.97673,-0.18898,0.0,2023,6,7,17,48,25,819
50.50910,-0.05180,-0.01417,0.00000,0.03196,0.97637,-0.18812,0.0,2023,6,7,17,48,25,831
50.50920,-0.03430,-0.01417,0.00000,0.03123,0.97771,-0.18983,0.0,2023,6,7,17,48,25,842
50.50930,0.21070,-0.25917,0.00000,0.03062,0.97527,-0.18837,0.0,2023,6,7,17,48,25,854
50.50940,0.07070,0.14332,0.00000,0.03318,0.97612,-0.18751,0.0,2023,6,7,17,48,25,865
50.50950,0.05320,0.10832,0.00000,0.03135,0.97734,-0.19215,0.0,2023,6,7,17,48,25,877
50.50960,-0.19180,0.00333,0.00000,0.03026,0.97637,-0.18690,0.0,2023,6,7,17,48,25,888
50.50970,-0.19180,-0.22417,0.00000,0.03074,0.97637,-0.18898,0.0,2023,6,7,17,48,25,900
50.50980,0.19320,-0.04917,0.00000,0.03196,0.97588,-0.18849,0.0,2023,6,7,17,48,25,911
50.50990,0.00070,0.10832,0.00000,0.03123,0.97515,-0.18800,0.0,2023,6,7,17,48,25,923
50.51000,-0.06930,-0.06668,0.00000,0.03160,0.97393,-0.18910,0.0,2023,6,7,17,48,25,934
50.51010,0.00070,-0.18918,0.00000,0.03074,0.97734,-0.18971,0.0,2023,6,7,17,48,25,946
50.51020,0.03570,-0.11918,0.00000,0.03074,0.97978,-0.18910,0.0,2023,6,7,17,48,25,957
50.51030,0.24570,-0.17168,0.00000,0.02879,0.97515,-0.19130,0.0,2023,6,7,17,48,25,969
50.51040,0.17570,0.09082,0.00000,0.03233,0.97637,-0.19008,0.0,2023,6,7,17,48,25,980
50.51050,-0.03430,-0.17168,0.00000,0.03331,0.97466,-0.18910,0.0,2023,6,7,17,48,25,992
50.51060,0.14070,-0.04917,0.00000,0.03282,0.97637,-0.18873,0.0,2023,6,7,17,48,25,3
50.51070,0.19320,-0.13668,0.00000,0.03355,0.97807,-0.19130,0.0,2023,6,7,17,48,25,15
50.51080,-0.03430,0.14332,0.00000,0.03026,0.97624,-0.19227,0.0,2023,6,7,17,48,25,26
50.51090,-0.06930,-0.06668,0.00000,0.03099,0.97515,-0.19069,0.0,2023,6,7,17,48,25,38
50.51100,-0.12180,0.16082,0.00000,0.03135,0.97673,-0.19008,0.0,2023,6,7,17,48,25,49
50.51110,0.07070,0.00333,0.00000,0.03135,0.97588,-0.19032,0.0,2023,6,7,17,48,25,61
50.51120,-0.10430,0.09082,0.00000,0.03160,0.97673,-0.18971,0.0,2023,6,7,17,48,25,72
50.51130,-0.06930,0.12582,0.00000,0.03172,0.97563,-0.19056,0.0,2023,6,7,17,48,25,84
50.51140,-0.08680,-0.10168,0.00000,0.03392,0.97600,-0.18715,0.0,2023,6,7,17,48,25,95
50.51150,-0.15680,-0.13668,0.00000,0.03111,0.97441,-0.19008,0.0,2023,6,7,17,48,25,107
50.51160,0.15820,-0.20667,0.00000,0.03074,0.97454,-0.19252,0.0,2023,6,7,17,48,25,118
50.51170,0.01820,0.07332,0.00000,0.03209,0.97649,-0.18922,0.0,2023,6,7,17,48,25,130
50.51180,0.03570,-0.01417,0.00000,0.03196,0.97551,-0.19044,0.0,2023,6,7,17,48,25,141
50.51190,0.03570,-0.06668,0.00000,0.03257,0.97710,-0.18934,0.0,2023,6,7,17,48,25,153
50.51200,-0.10430,0.00333,0.00000,0.03123,0.97356,-0.18825,0.0,2023,6,7,17,48,25,164
50.51210,0.14070,-0.04917,0.00000,0.03001,0.97820,-0.19252,0.0,2023,6,7,17,48,25,176
50.51220,0.10570,-0.08418,0.00000,0.03026,0.97710,-0.18788,0.0,2023,6,7,17,48,25,187
50.51230,-0.01680,0.00333,0.00000,0.03074,0.97502,-0.18812,0.0,2023,6,7,17,48,25,199
50.51240,0.01820,0.07332,0.00000,0.03245,0.97698,-0.18800,0.0,2023,6,7,17,48,25,210
50.51250,0.00070,0.23083,0.00000,0.02916,0.97673,-0.18910,0.0,2023,6,7,17,48,25,222
50.51260,-0.05180,0.14332,0.00000,0.03111,0.97612,-0.19008,0.0,2023,6,7,17,48,25,233
50.51270,0.12320,-0.13668,0.00000,0.03184,0.97515,-0.18983,0.0,2023,6,7,17,48,25,245
50.51280,-0.05180,0.09082,0.00000,0.02952,0.97649,-0.18922,0.0,2023,6,7,17,48,25,256
50.51290,-0.05180,-0.03167,0.00000,0.03221,0.97490,-0.18739,0.0,2023,6,7,17,48,25,268
50.51300,0.15820,-0.24167,0.00000,0.03111,0.97661,-0.19020,0.0,2023,6,7,17,48,25,279
50.51310,0.01820,0.16082,0.00000,0.03111,0.97893,-0.19081,0.0,2023,6,7,17,48,25,290
50.51320,0.15820,-0.13668,0.00000,0.03257,0.97661,-0.18873,0.0,2023,6,7,17,48,25,302
50.51330,-0.03430,-0.04917,0.00000,0.03148,0.97502,-0.19020,0.0,2023,6,7,17,48,25,313
50.51340,0.07070,-0.08418,0.00000,0.03074,0.97795,-0.19130,0.0,2023,6,7,17,48,25,325
50.51350,0.05320,0.02083,0.00000,0.02952,0.97807,-0.19178,0.0,2023,6,7,17,48,25,336
50.51360,0.00070,0.00333,0.00000,0.02977,0.97685,-0.19044,0.0,2023,6,7,17,48,25,348
50.51370,-0.01680,0.12582,0.00000,0.03257,0.97685,-0.19020,0.0,2023,6,7,17,48,25,359
50.51380,0.00070,-0.10168,0.00000,0.03148,0.97515,-0.18849,0.0,2023,6,7,17,48,25,371
50.51390,-0.06930,0.09082,0.00000,0.03013,0.97661,-0.19081,0.0,2023,6,7,17,48,25,382
50.51400,0.10570,-0.13668,0.00000,0.03074,0.97637,-0.19142,0.0,2023,6,7,17,48,25,394
50.51410,-0.12180,-0.15418,0.00000,0.03087,0.97502,-0.18947,0.0,2023,6,7,17,48,25,405
50.51420,0.05320,-0.18918,0.00000,0.03196,0.97710,-0.18520,0.0,2023,6,7,17,48,25,417
50.51430,-0.03430,0.12582,0.00000,0.03099,0.97551,-0.19020,0.0,2023,6,7,17,48,25,428
50.51440,0.00070,-0.01417,0.00000,0.03135,0.97527,-0.18934,0.0,2023,6,7,17,48,25,440
50.51450,-0.03430,0.23083,0.00000,0.02928,0.97612,-0.18983,0.0,2023,6,7,17,48,25,451
50.51460,-0.17430,0.09082,0.00000,0.03087,0.97698,-0.18971,0.0,2023,6,7,17,48,25,463
50.51470,-0.10430,0.14332,0.00000,0.03379,0.97612,-0.18886,0.0,2023,6,7,17,48,25,474
50.51480,0.15820,-0.04917,0.00000,0.02867,0.97807,-0.18922,0.0,2023,6,7,17,48,25,486
50.51490,-0.22680,0.03832,0.00000,0.03026,0.97588,-0.18849,0.0,2023,6,7,17,48,25,497
50.51500,0.07070,-0.11918,0.00000,0.03148,0.97673,-0.18776,0.0,2023,6,7,17,48,25,509
50.51510,0.01820,-0.04917,0.00000,0.03233,0.97698,-0.18812,0.0,2023,6,7,17,48,25,520
50.51520,-0.10430,-0.03167,0.00000,0.03099,0.97710,-0.18593,0.0,2023,6,7,17,48,25,532
50.51530,-0.10430,-0.01417,0.00000,0.03282,0.97649,-0.18788,0.0,2023,6,7,17,48,25,543
50.51540,0.07070,-0.13668,0.00000,0.03172,0.97588,-0.19008,0.0,2023,6,7,17,48,25,555
50.51550,0.10570,-0.08418,0.00000,0.02952,0.97685,-0.18861,0.0,2023,6,7,17,48,25,566
50.51560,0.05320,0.07332,0.00000,0.03233,0.97405,-0.18837,0.0,2023,6,7,17,48,25,578
50.51570,0.22820,-0.03167,0.00000,0.03001,0.97515,-0.18861,0.0,2023,6,7,17,48,25,589
50.51580,-0.06930,-0.01417,0.00000,0.03062,0.97783,-0.19093,0.0,2023,6,7,17,48,25,601
50.51590,0.00070,0.14332,0.00000,0.02782,0.97893,-0.19117,0.0,2023,6,7,17,48,25,612
50.51600,-0.01680,-0.08418,0.00000,0.03111,0.97893,-0.18886,0.0,2023,6,7,17,48,25,624
50.51610,-0.10430,0.09082,0.00000,0.03111,0.97539,-0.18873,0.0,2023,6,7,17,48,25,635
50.51620,-0.17430,0.03832,0.00000,0.03294,0.97490,-0.18776,0.0,2023,6,7,17,48,25,647
50.51630,0.08820,-0.01417,0.00000,0.03062,0.97563,-0.19130,0.0,2023,6,7,17,48,25,658
50.51640,-0.20930,0.10832,0.00000,0.03099,0.97746,-0.19008,0.0,2023,6,7,17,48,25,670
50.51650,0.17570,-0.08418,0.00000,0.03013,0.97551,-0.19142,0.0,2023,6,7,17,48,25,681
50.51660,0.00070,-0.13668,0.00000,0.03355,0.97746,-0.18849,0.0,2023,6,7,17,48,25,693
50.51670,-0.01680,-0.04917,0.00000,0.03331,0.97710,-0.18995,0.0,2023,6,7,17,48,25,704
50.51680,-0.03430,-0.17168,0.00000,0.03331,0.97722,-0.18861,0.0,2023,6,7,17,48,25,716
50.51690,-0.10430,-0.06668,0.00000,0.03013,0.97588,-0.18800,0.0,2023,6,7,17,48,25,727
50.51700,0.01820,-0.06668,0.00000,0.03038,0.97515,-0.18764,0.0,2023,6,7,17,48,26,739
50.51710,0.05320,-0.08418,0.00000,0.03306,0.97978,-0.18812,0.0,2023,6,7,17,48,26,750
50.51720,0.03570,-0.08418,0.00000,0.03050,0.97722,-0.18934,0.0,2023,6,7,17,48,26,762
50.51730,-0.03430,-0.10168,0.00000,0.03074,0.97734,-0.18971,0.0,2023,6,7,17,48,26,773
50.51740,0.01820,0.00333,0.00000,0.02891,0.97881,-0.19056,0.0,2023,6,7,17,48,26,785
50.51750,-0.03430,-0.11918,0.00000,0.03135,0.97527,-0.18764,0.0,2023,6,7,17,48,26,796
50.51760,0.10570,0.12582,0.00000,0.03233,0.97759,-0.18934,0.0,2023,6,7,17,48,26,808
50.51770,0.01820,-0.04917,0.00000,0.03270,0.97722,-0.18910,0.0,2023,6,7,17,48,26,819
50.51780,-0.13930,0.26582,0.00000,0.03343,0.97746,-0.18812,0.0,2023,6,7,17,48,26,831
50.51790,-0.15680,-0.08418,0.00000,0.03318,0.97661,-0.18825,0.0,2023,6,7,17,48,26,842
50.51800,0.19320,-0.11918,0.00000,0.02965,0.97527,-0.18642,0.0,2023,6,7,17,48,26,854
50.51810,0.05320,-0.01417,0.00000,0.03245,0.97698,-0.18861,0.0,2023,6,7,17,48,26,865
50.51820,-0.22680,0.10832,0.00000,0.03111,0.97563,-0.18751,0.0,2023,6,7,17,48,26,877
50.51830,0.01820,0.03832,0.00000,0.03209,0.97466,-0.19081,0.0,2023,6,7,17,48,26,888
50.51840,0.07070,0.03832,0.00000,0.02989,0.97563,-0.19056,0.0,2023,6,7,17,48,26,900
50.51850,0.14070,-0.10168,0.00000,0.03111,0.97515,-0.18861,0.0,2023,6,7,17,48,26,911
50.51860,-0.06930,0.05582,0.00000,0.03001,0.97637,-0.19020,0.0,2023,6,7,17,48,26,923
50.51870,-0.19180,-0.04917,0.00000,0.03099,0.97710,-0.18922,0.0,2023,6,7,17,48,26,934
50.51880,0.10570,-0.13668,0.00000,0.03148,0.97710,-0.18922,0.0,2023,6,7,17,48,26,946
50.51890,-0.03430,0.03832,0.00000,0.03135,0.97527,-0.19203,0.0,2023,6,7,17,48,26,957
50.51900,-0.01680,-0.03167,0.00000,0.03026,0.97515,-0.18910,0.0,2023,6,7,17,48,26,969
50.51910,-0.08680,0.07332,0.00000,0.03135,0.97563,-0.18825,0.0,2023,6,7,17,48,26,980
50.51920,0.00070,-0.13668,0.00000,0.03135,0.97515,-0.18910,0.0,2023,6,7,17,48,26,992
50.51930,-0.08680,0.10832,0.00000,0.03148,0.97746,-0.18886,0.0,2023,6,7,17,48,26,3
50.51940,0.08820,0.00333,0.00000,0.03038,0.97868,-0.19008,0.0,2023,6,7,17,48,26,15
50.51950,0.00070,-0.24167,0.00000,0.03087,0.97576,-0.18898,0.0,2023,6,7,17,48,26,26
50.51960,-0.03430,-0.29418,0.00000,0.03270,0.97661,-0.18873,0.0,2023,6,7,17,48,26,38
50.51970,0.14070,-0.03167,0.00000,0.03038,0.97759,-0.18886,0.0,2023,6,7,17,48,26,49
50.51980,-0.08680,0.17833,0.00000,0.03038,0.97685,-0.18849,0.0,2023,6,7,17,48,26,61
50.51990,0.24570,-0.24167,0.00000,0.03050,0.97734,-0.18837,0.0,2023,6,7,17,48,26,72
50.52000,0.10570,-0.17168,0.00000,0.03062,0.97649,-0.19105,0.0,2023,6,7,17,48,26,84
50.52010,-0.05180,0.16082,0.00000,0.03318,0.97698,-0.18837,0.0,2023,6,7,17,48,26,95
50.52020,0.05320,0.17833,0.00000,0.03050,0.97576,-0.19105,0.0,2023,6,7,17,48,26,107
50.52030,-0.01680,0.07332,0.00000,0.03245,0.97563,-0.18715,0.0,2023,6,7,17,48,26,118
50.52040,0.00070,0.02083,0.00000,0.03050,0.97746,-0.18849,0.0,2023,6,7,17,48,26,130
50.52050,0.05320,0.37082,0.00000,0.03050,0.97576,-0.18739,0.0,2023,6,7,17,48,26,141
50.52060,-0.01680,0.03832,0.00000,0.03026,0.97612,-0.18788,0.0,2023,6,7,17,48,26,153
50.52070,-0.13930,-0.18918,0.00000,0.03038,0.97868,-0.19020,0.0,2023,6,7,17,48,26,164
50.52080,0.05320,-0.15418,0.00000,0.02843,0.97673,-0.18886,0.0,2023,6,7,17,48,26,176
50.52090,0.10570,-0.04917,0.00000,0.02916,0.97698,-0.18873,0.0,2023,6,7,17,48,26,187
50.52100,-0.03430,-0.11918,0.00000,0.03099,0.97393,-0.18922,0.0,2023,6,7,17,48,26,199
50.52110,0.01820,0.00333,0.00000,0.03111,0.97759,-0.18934,0.0,2023,6,7,17,48,26,210
50.52120,-0.08680,-0.11918,0.00000,0.03282,0.97807,-0.18947,0.0,2023,6,7,17,48,26,222
50.52130,0.14070,-0.10168,0.00000,0.03123,0.97515,-0.19056,0.0,2023,6,7,17,48,26,233
50.52140,-0.17430,-0.03167,0.00000,0.03148,0.97771,-0.18837,0.0,2023,6,7,17,48,26,245
50.52150,0.00070,-0.03167,0.00000,0.03111,0.97551,-0.18959,0.0,2023,6,7,17,48,26,256
50.52160,-0.05180,0.03832,0.00000,0.03123,0.97771,-0.18898,0.0,2023,6,7,17,48,26,268
50.52170,0.15820,0.02083,0.00000,0.03013,0.97673,-0.19056,0.0,2023,6,7,17,48,26,279
50.52180,0.00070,-0.01417,0.00000,0.03196,0.97649,-0.19166,0.0,2023,6,7,17,48,26,290
50.52190,0.21070,-0.03167,0.00000,0.03160,0.97429,-0.19044,0.0,2023,6,7,17,48,26,302
50.52200,0.03570,-0.17168,0.00000,0.03367,0.97515,-0.18739,0.0,2023,6,7,17,48,26,313
50.52210,-0.01680,-0.04917,0.00000,0.03123,0.97576,-0.18739,0.0,2023,6,7,17,48,26,325
50.52220,-0.10430,0.09082,0.00000,0.03245,0.97478,-0.18825,0.0,2023,6,7,17,48,26,336
50.52230,-0.12180,0.05582,0.00000,0.03221,0.97685,-0.18971,0.0,2023,6,7,17,48,26,348
50.52240,-0.20930,0.09082,0.00000,0.03026,0.97637,-0.18910,0.0,2023,6,7,17,48,26,359
50.52250,-0.01680,0.05582,0.00000,0.03209,0.97441,-0.18861,0.0,2023,6,7,17,48,26,371
50.52260,-0.01680,0.14332,0.00000,0.03257,0.97685,-0.18739,0.0,2023,6,7,17,48,26,382
50.52270,-0.06930,0.09082,0.00000,0.03111,0.97588,-0.18971,0.0,2023,6,7,17,48,26,394
50.52280,0.12320,-0.01417,0.00000,0.03148,0.97832,-0.18922,0.0,2023,6,7,17,48,26,405
50.52290,-0.05180,-0.18918,0.00000,0.03123,0.97576,-0.18959,0.0,2023,6,7,17,48,26,417
50.52300,-0.08680,-0.01417,0.00000,0.03026,0.97734,-0.19044,0.0,2023,6,7,17,48,26,428
50.52310,-0.17430,-0.11918,0.00000,0.03123,0.97771,-0.18837,0.0,2023,6,7,17,48,26,440
50.52320,0.08820,-0.04917,0.00000,0.03038,0.97722,-0.19008,0.0,2023,6,7,17,48,26,451
50.52330,0.00070,0.02083,0.00000,0.03379,0.97576,-0.19081,0.0,2023,6,7,17,48,26,463
50.52340,0.07070,0.05582,0.00000,0.03294,0.97563,-0.18861,0.0,2023,6,7,17,48,26,474
50.52350,-0.12180,-0.06668,0.00000,0.02989,0.97612,-0.19032,0.0,2023,6,7,17,48,26,486
50.52360,0.15820,0.03832,0.00000,0.03026,0.97490,-0.19069,0.0,2023,6,7,17,48,26,497
50.52370,-0.10430,0.03832,0.00000,0.03013,0.97929,-0.18800,0.0,2023,6,7,17,48,26,509
50.52380,-0.31430,0.03832,0.00000,0.03257,0.97588,-0.18873,0.0,2023,6,7,17,48,26,520
50.52390,-0.19180,0.02083,0.00000,0.02952,0.97405,-0.18922,0.0,2023,6,7,17,48,26,532
50.52400,0.00070,0.05582,0.00000,0.03123,0.97698,-0.19044,0.0,2023,6,7,17,48,26,543
50.52410,0.15820,-0.31168,0.00000,0.03111,0.97478,-0.18764,0.0,2023,6,7,17,48,26,555
50.52420,0.03570,-0.03167,0.00000,0.03209,0.97673,-0.18886,0.0,2023,6,7,17,48,26,566
50.52430,0.14070,-0.17168,0.00000,0.03111,0.97795,-0.19056,0.0,2023,6,7,17,48,26,578
50.52440,-0.03430,-0.13668,0.00000,0.03099,0.97600,-0.18995,0.0,2023,6,7,17,48,26,589
50.52450,0.15820,0.00333,0.00000,0.02928,0.97551,-0.19215,0.0,2023,6,7,17,48,26,601
50.52460,-0.20930,0.05582,0.00000,0.03026,0.97698,-0.18983,0.0,2023,6,7,17,48,26,612
50.52470,0.31570,-0.18918,0.00000,0.02989,0.97515,-0.18995,0.0,2023,6,7,17,48,26,624
50.52480,0.12320,-0.01417,0.00000,0.03013,0.97612,-0.18947,0.0,2023,6,7,17,48,26,635
50.52490,0.01820,-0.22417,0.00000,0.03270,0.97832,-0.18812,0.0,2023,6,7,17,48,26,647
50.52500,-0.03430,-0.06668,0.00000,0.03099,0.97319,-0.18812,0.0,2023,6,7,17,48,26,658
50.52510,-0.06930,0.02083,0.00000,0.03074,0.97722,-0.18776,0.0,2023,6,7,17,48,26,670
50.52520,-0.10430,0.05582,0.00000,0.03099,0.97539,-0.19093,0.0,2023,6,7,17,48,26,681
50.52530,0.08820,0.00333,0.00000,0.03306,0.97637,-0.18983,0.0,2023,6,7,17,48,26,693
50.52540,0.00070,-0.03167,0.00000,0.03428,0.97795,-0.18703,0.0,2023,6,7,17,48,26,704
50.52550,0.05320,0.03832,0.00000,0.03172,0.97820,-0.18910,0.0,2023,6,7,17,48,26,716
50.52560,0.00070,0.02083,0.00000,0.03135,0.97661,-0.18800,0.0,2023,6,7,17,48,26,727
50.52570,0.05320,-0.06668,0.00000,0.03026,0.97881,-0.18898,0.0,2023,6,7,17,48,26,739
50.52580,0.03570,-0.04917,0.00000,0.03013,0.97502,-0.18861,0.0,2023,6,7,17,48,26,750
50.52590,-0.27930,0.17833,0.00000,0.03013,0.97771,-0.18690,0.0,2023,6,7,17,48,26,762
50.52600,-0.06930,-0.03167,0.00000,0.03001,0.97637,-0.19032,0.0,2023,6,7,17,48,27,773
50.52610,0.29820,-0.06668,0.00000,0.03001,0.97795,-0.19044,0.0,2023,6,7,17,48,27,785
50.52620,0.03570,0.02083,0.00000,0.03026,0.97454,-0.18751,0.0,2023,6,7,17,48,27,796
50.52630,-0.08680,-0.10168,0.00000,0.03038,0.97600,-0.18751,0.0,2023,6,7,17,48,27,808
50.52640,0.07070,-0.08418,0.00000,0.02867,0.97612,-0.18934,0.0,2023,6,7,17,48,27,819
50.52650,-0.06930,-0.04917,0.00000,0.03087,0.97563,-0.18812,0.0,2023,6,7,17,48,27,831
50.52660,0.08820,-0.06668,0.00000,0.02965,0.97771,-0.18629,0.0,2023,6,7,17,48,27,842
50.52670,0.05320,-0.01417,0.00000,0.03160,0.97807,-0.18995,0.0,2023,6,7,17,48,27,854
50.52680,0.14070,0.14332,0.00000,0.03233,0.97612,-0.19044,0.0,2023,6,7,17,48,27,865
50.52690,-0.03430,-0.22417,0.00000,0.03172,0.97576,-0.18910,0.0,2023,6,7,17,48,27,877
50.52700,-0.03430,-0.06668,0.00000,0.03355,0.97795,-0.18825,0.0,2023,6,7,17,48,27,888
50.52710,-0.17430,0.00333,0.00000,0.03050,0.97698,-0.18959,0.0,2023,6,7,17,48,27,900
50.52720,0.00070,0.00333,0.00000,0.03026,0.97685,-0.19032,0.0,2023,6,7,17,48,27,911
50.52730,0.12320,0.07332,0.00000,0.03074,0.97673,-0.19130,0.0,2023,6,7,17,48,27,923
50.52740,-0.12180,0.14332,0.00000,0.03087,0.97710,-0.19020,0.0,2023,6,7,17,48,27,934
50.52750,0.08820,-0.03167,0.00000,0.03270,0.97661,-0.19117,0.0,2023,6,7,17,48,27,946
50.52760,0.17570,-0.03167,0.00000,0.03172,0.97454,-0.18995,0.0,2023,6,7,17,48,27,957
50.52770,0.00070,-0.04917,0.00000,0.03099,0.97637,-0.19093,0.0,2023,6,7,17,48,27,969
50.52780,-0.08680,0.09082,0.00000,0.02879,0.97734,-0.18947,0.0,2023,6,7,17,48,27,980
50.52790,-0.12180,-0.04917,0.00000,0.03099,0.97954,-0.18959,0.0,2023,6,7,17,48,27,992
50.52800,-0.08680,-0.13668,0.00000,0.02965,0.97624,-0.19008,0.0,2023,6,7,17,48,27,3
50.52810,0.08820,0.05582,0.00000,0.03074,0.97722,-0.19093,0.0,2023,6,7,17,48,27,15
50.52820,-0.06930,0.17833,0.00000,0.03184,0.97820,-0.18886,0.0,2023,6,7,17,48,27,26
50.52830,-0.17430,-0.11918,0.00000,0.03013,0.97551,-0.18678,0.0,2023,6,7,17,48,27,38
50.52840,0.14070,-0.13668,0.00000,0.02769,0.97673,-0.19093,0.0,2023,6,7,17,48,27,49
50.52850,0.14070,-0.08418,0.00000,0.03184,0.97759,-0.18947,0.0,2023,6,7,17,48,27,61
50.52860,-0.10430,0.28332,0.00000,0.03062,0.97563,-0.18898,0.0,2023,6,7,17,48,27,72
50.52870,0.12320,-0.11918,0.00000,0.03099,0.97600,-0.19215,0.0,2023,6,7,17,48,27,84
50.52880,-0.12180,-0.06668,0.00000,0.03135,0.97661,-0.18886,0.0,2023,6,7,17,48,27,95
50.52890,0.03570,0.02083,0.00000,0.02855,0.97783,-0.19300,0.0,2023,6,7,17,48,27,107
50.52900,0.07070,-0.06668,0.00000,0.03050,0.97734,-0.18739,0.0,2023,6,7,17,48,27,118
50.52910,-0.03430,-0.04917,0.00000,0.03062,0.97527,-0.18898,0.0,2023,6,7,17,48,27,130
50.52920,0.07070,0.21333,0.00000,0.03282,0.97673,-0.18861,0.0,2023,6,7,17,48,27,141
50.52930,0.00070,0.00333,0.00000,0.02940,0.97685,-0.19056,0.0,2023,6,7,17,48,27,153
50.52940,0.10570,-0.08418,0.00000,0.03062,0.97661,-0.18947,0.0,2023,6,7,17,48,27,164
50.52950,-0.06930,0.00333,0.00000,0.03209,0.97685,-0.18837,0.0,2023,6,7,17,48,27,176
50.52960,0.03570,-0.13668,0.00000,0.02989,0.97490,-0.18873,0.0,2023,6,7,17,48,27,187
50.52970,-0.03430,0.02083,0.00000,0.03111,0.97441,-0.18922,0.0,2023,6,7,17,48,27,199
50.52980,-0.19180,0.10832,0.00000,0.03196,0.97441,-0.18861,0.0,2023,6,7,17,48,27,210
50.52990,-0.12180,0.02083,0.00000,0.03123,0.97759,-0.18971,0.0,2023,6,7,17,48,27,222
50.53000,-0.03430,0.02083,0.00000,0.02989,0.97710,-0.18825,0.0,2023,6,7,17,48,27,233
50.53010,0.12320,0.02083,0.00000,0.03209,0.97759,-0.19056,0.0,2023,6,7,17,48,27,245
50.53020,-0.13930,0.09082,0.00000,0.03026,0.97502,-0.19008,0.0,2023,6,7,17,48,27,256
50.53030,0.15820,-0.06668,0.00000,0.03099,0.97600,-0.18983,0.0,2023,6,7,17,48,27,268
50.53040,-0.01680,-0.10168,0.00000,0.03416,0.97661,-0.18983,0.0,2023,6,7,17,48,27,279
50.53050,0.00070,-0.04917,0.00000,0.03074,0.97771,-0.18934,0.0,2023,6,7,17,48,27,290
50.53060,0.14070,-0.11918,0.00000,0.03221,0.97502,-0.18983,0.0,2023,6,7,17,48,27,302
50.53070,-0.19180,0.35332,0.00000,0.03038,0.97649,-0.18788,0.0,2023,6,7,17,48,27,313
50.53080,0.17570,-0.18918,0.00000,0.03257,0.97832,-0.18995,0.0,2023,6,7,17,48,27,325
50.53090,0.12320,-0.03167,0.00000,0.03087,0.97856,-0.19081,0.0,2023,6,7,17,48,27,336
50.53100,0.01820,-0.01417,0.00000,0.02952,0.97685,-0.19191,0.0,2023,6,7,17,48,27,348
50.53110,0.12320,-0.08418,0.00000,0.03306,0.97759,-0.19337,0.0,2023,6,7,17,48,27,359
50.53120,0.00070,0.03832,0.00000,0.03416,0.97588,-0.19008,0.0,2023,6,7,17,48,27,371
50.53130,-0.08680,-0.11918,0.00000,0.03282,0.97722,-0.18825,0.0,2023,6,7,17,48,27,382
50.53140,-0.03430,0.00333,0.00000,0.03184,0.97624,-0.18788,0.0,2023,6,7,17,48,27,394
50.53150,-0.10430,0.12582,0.00000,0.03074,0.97600,-0.18849,0.0,2023,6,7,17,48,27,405
50.53160,0.10570,-0.06668,0.00000,0.03148,0.97649,-0.18788,0.0,2023,6,7,17,48,27,417
50.53170,0.14070,-0.06668,0.00000,0.03111,0.97612,-0.18898,0.0,2023,6,7,17,48,27,428
50.53180,0.03570,0.09082,0.00000,0.03062,0.97563,-0.19093,0.0,2023,6,7,17,48,27,440
50.53190,-0.10430,0.23083,0.00000,0.03245,0.97637,-0.19142,0.0,2023,6,7,17,48,27,451
50.53200,0.38570,-0.20667,0.00000,0.02965,0.97576,-0.18983,0.0,2023,6,7,17,48,27,463
50.53210,-0.06930,-0.03167,0.00000,0.02977,0.97624,-0.18849,0.0,2023,6,7,17,48,27,474
50.53220,0.01820,0.07332,0.00000,0.03099,0.97478,-0.19105,0.0,2023,6,7,17,48,27,486
50.53230,0.21070,0.10832,0.00000,0.03343,0.97624,-0.18837,0.0,2023,6,7,17,48,27,497
50.53240,-0.19180,-0.01417,0.00000,0.03184,0.97332,-0.18800,0.0,2023,6,7,17,48,27,509
50.53250,-0.03430,0.14332,0.00000,0.03148,0.97771,-0.18837,0.0,2023,6,7,17,48,27,520
50.53260,0.12320,0.14332,0.00000,0.03074,0.97710,-0.19069,0.0,2023,6,7,17,48,27,532
50.53270,-0.08680,0.07332,0.00000,0.03026,0.97746,-0.19069,0.0,2023,6,7,17,48,27,543
50.53280,0.22820,0.00333,0.00000,0.03148,0.97539,-0.19032,0.0,2023,6,7,17,48,27,555
50.53290,0.12320,0.14332,0.00000,0.02977,0.97563,-0.19044,0.0,2023,6,7,17,48,27,566
50.53300,-0.08680,0.33582,0.00000,0.03233,0.97673,-0.18849,0.0,2023,6,7,17,48,27,578
50.53310,0.17570,-0.10168,0.00000,0.03062,0.97673,-0.19203,0.0,2023,6,7,17,48,27,589
50.53320,0.00070,0.33582,0.00000,0.03270,0.97710,-0.19093,0.0,2023,6,7,17,48,27,601
50.53330,0.05320,0.00333,0.00000,0.03318,0.97600,-0.18959,0.0,2023,6,7,17,48,27,612
50.53340,0.03570,-0.13668,0.00000,0.03196,0.97637,-0.19093,0.0,2023,6,7,17,48,27,624
50.53350,0.10570,0.03832,0.00000,0.03221,0.97649,-0.19008,0.0,2023,6,7,17,48,27,635
50.53360,-0.06930,-0.17168,0.00000,0.03001,0.97612,-0.19300,0.0,2023,6,7,17,48,27,647
50.53370,0.15820,0.05582,0.00000,0.03013,0.97637,-0.19239,0.0,2023,6,7,17,48,27,658
50.53380,0.08820,0.19583,0.00000,0.03074,0.97527,-0.18995,0.0,2023,6,7,17,48,27,670
50.53390,-0.20930,0.16082,0.00000,0.03013,0.97612,-0.19130,0.0,2023,6,7,17,48,27,681
50.53400,0.00070,0.03832,0.00000,0.03148,0.97685,-0.18825,0.0,2023,6,7,17,48,27,693
50.53410,0.05320,-0.01417,0.00000,0.03013,0.97502,-0.19069,0.0,2023,6,7,17,48,27,704
50.53420,-0.03430,-0.04917,0.00000,0.03282,0.97600,-0.18873,0.0,2023,6,7,17,48,27,716
50.53430,-0.06930,-0.03167,0.00000,0.02965,0.97685,-0.19069,0.0,2023,6,7,17,48,27,727
50.53440,-0.03430,0.12582,0.00000,0.03209,0.97698,-0.19069,0.0,2023,6,7,17,48,27,739
50.53450,-0.06930,0.02083,0.00000,0.03050,0.97490,-0.19130,0.0,2023,6,7,17,48,27,750
50.53460,0.05320,0.09082,0.00000,0.03087,0.97563,-0.19191,0.0,2023,6,7,17,48,27,762
50.53470,-0.03430,-0.20667,0.00000,0.03026,0.97600,-0.18959,0.0,2023,6,7,17,48,27,773
50.53480,-0.03430,-0.11918,0.00000,0.03172,0.97612,-0.19056,0.0,2023,6,7,17,48,27,785
50.53490,0.00070,0.02083,0.00000,0.03111,0.97661,-0.18947,0.0,2023,6,7,17,48,27,796
50.53500,0.05320,0.10832,0.00000,0.02843,0.97685,-0.19044,0.0,2023,6,7,17,48,27,808
50.53510,-0.01680,-0.08418,0.00000,0.03209,0.97673,-0.19056,0.0,2023,6,7,17,48,28,819
50.53520,0.07070,-0.13668,0.00000,0.03257,0.97637,-0.18947,0.0,2023,6,7,17,48,28,831
50.53530,-0.10430,-0.13668,0.00000,0.03087,0.97649,-0.18873,0.0,2023,6,7,17,48,28,842
50.53540,0.03570,-0.20667,0.00000,0.03050,0.97539,-0.18934,0.0,2023,6,7,17,48,28,854
50.53550,-0.08680,0.05582,0.00000,0.03013,0.97649,-0.19020,0.0,2023,6,7,17,48,28,865
50.53560,-0.17430,0.02083,0.00000,0.03050,0.97624,-0.18800,0.0,2023,6,7,17,48,28,877
50.53570,0.10570,-0.04917,0.00000,0.03392,0.97661,-0.18910,0.0,2023,6,7,17,48,28,888
50.53580,0.01820,0.00333,0.00000,0.03184,0.97868,-0.18764,0.0,2023,6,7,17,48,28,900
50.53590,-0.06930,0.02083,0.00000,0.02977,0.97746,-0.18971,0.0,2023,6,7,17,48,28,911
50.53600,0.15820,0.09082,0.00000,0.03111,0.97551,-0.19166,0.0,2023,6,7,17,48,28,923
50.53610,-0.19180,0.21333,0.00000,0.03099,0.97661,-0.18727,0.0,2023,6,7,17,48,28,934
50.53620,0.08820,-0.01417,0.00000,0.03172,0.97600,-0.18861,0.0,2023,6,7,17,48,28,946
50.53630,-0.19180,0.12582,0.00000,0.03074,0.97856,-0.18715,0.0,2023,6,7,17,48,28,957
50.53640,-0.10430,0.02083,0.00000,0.02904,0.97649,-0.19093,0.0,2023,6,7,17,48,28,969
50.53650,-0.01680,0.16082,0.00000,0.03087,0.97441,-0.19117,0.0,2023,6,7,17,48,28,980
50.53660,-0.06930,0.00333,0.00000,0.03038,0.97637,-0.18910,0.0,2023,6,7,17,48,28,992
50.53670,-0.03430,0.05582,0.00000,0.03184,0.97576,-0.18739,0.0,2023,6,7,17,48,28,3
50.53680,-0.08680,0.21333,0.00000,0.02977,0.97698,-0.18983,0.0,2023,6,7,17,48,28,15
50.53690,-0.13930,0.07332,0.00000,0.03135,0.97539,-0.19093,0.0,2023,6,7,17,48,28,26
50.53700,0.01820,-0.08418,0.00000,0.03318,0.97759,-0.18910,0.0,2023,6,7,17,48,28,38
50.53710,0.10570,0.05582,0.00000,0.03404,0.97746,-0.18666,0.0,2023,6,7,17,48,28,49
50.53720,-0.19180,0.14332,0.00000,0.03367,0.97698,-0.19081,0.0,2023,6,7,17,48,28,61
50.53730,0.05320,0.05582,0.00000,0.03123,0.97746,-0.19093,0.0,2023,6,7,17,48,28,72
50.53740,-0.08680,0.03832,0.00000,0.03245,0.97539,-0.19300,0.0,2023,6,7,17,48,28,84
50.53750,-0.06930,0.05582,0.00000,0.03257,0.97515,-0.19130,0.0,2023,6,7,17,48,28,95
50.53760,0.01820,-0.11918,0.00000,0.03087,0.97734,-0.19081,0.0,2023,6,7,17,48,28,107
50.53770,-0.05180,0.02083,0.00000,0.03233,0.97649,-0.19081,0.0,2023,6,7,17,48,28,118
50.53780,0.14070,-0.04917,0.00000,0.03013,0.97820,-0.19252,0.0,2023,6,7,17,48,28,130
50.53790,0.03570,-0.08418,0.00000,0.03123,0.97722,-0.19252,0.0,2023,6,7,17,48,28,141
50.53800,0.05320,0.00333,0.00000,0.03074,0.97759,-0.19056,0.0,2023,6,7,17,48,28,153
50.53810,0.15820,0.14332,0.00000,0.03001,0.97698,-0.19069,0.0,2023,6,7,17,48,28,164
50.53820,0.14070,0.00333,0.00000,0.03135,0.97795,-0.18910,0.0,2023,6,7,17,48,28,176
50.53830,-0.05180,-0.06668,0.00000,0.03282,0.97551,-0.18910,0.0,2023,6,7,17,48,28,187
50.53840,0.03570,-0.04917,0.00000,0.03172,0.97673,-0.18934,0.0,2023,6,7,17,48,28,199
50.53850,0.03570,0.02083,0.00000,0.03172,0.97600,-0.19020,0.0,2023,6,7,17,48,28,210
50.53860,0.01820,0.03832,0.00000,0.03355,0.97795,-0.18861,0.0,2023,6,7,17,48,28,222
50.53870,0.00070,-0.01417,0.00000,0.02928,0.97624,-0.18995,0.0,2023,6,7,17,48,28,233
50.53880,0.01820,0.03832,0.00000,0.03001,0.97527,-0.19276,0.0,2023,6,7,17,48,28,245
50.53890,0.03570,0.09082,0.00000,0.03221,0.97673,-0.19044,0.0,2023,6,7,17,48,28,256
50.53900,0.05320,0.14332,0.00000,0.02977,0.97563,-0.18971,0.0,2023,6,7,17,48,28,268
50.53910,-0.03430,-0.17168,0.00000,0.02867,0.97673,-0.18971,0.0,2023,6,7,17,48,28,279
50.53920,0.07070,0.07332,0.00000,0.02989,0.97612,-0.19032,0.0,2023,6,7,17,48,28,290
50.53930,-0.01680,-0.06668,0.00000,0.03062,0.97624,-0.19130,0.0,2023,6,7,17,48,28,302
50.53940,-0.08680,0.23083,0.00000,0.03148,0.97661,-0.18849,0.0,2023,6,7,17,48,28,313
50.53950,-0.03430,0.12582,0.00000,0.03135,0.97685,-0.18947,0.0,2023,6,7,17,48,28,325
50.53960,-0.03430,-0.04917,0.00000,0.03135,0.97576,-0.18971,0.0,2023,6,7,17,48,28,336
50.53970,0.03570,0.00333,0.00000,0.02952,0.97722,-0.18898,0.0,2023,6,7,17,48,28,348
50.53980,-0.10430,-0.03167,0.00000,0.03135,0.97454,-0.18971,0.0,2023,6,7,17,48,28,359
50.53990,-0.13930,0.10832,0.00000,0.03221,0.97539,-0.18849,0.0,2023,6,7,17,48,28,371
50.54000,0.00070,0.03832,0.00000,0.03135,0.97868,-0.18825,0.0,2023,6,7,17,48,28,382
50.54010,0.05320,-0.25917,0.00000,0.02989,0.97673,-0.18959,0.0,2023,6,7,17,48,28,394
50.54020,-0.12180,0.09082,0.00000,0.03172,0.97551,-0.19056,0.0,2023,6,7,17,48,28,405
50.54030,0.10570,-0.20667,0.00000,0.03087,0.97380,-0.18873,0.0,2023,6,7,17,48,28,417
50.54040,0.10570,-0.03167,0.00000,0.03087,0.97539,-0.18800,0.0,2023,6,7,17,48,28,428
50.54050,-0.19180,0.03832,0.00000,0.03062,0.97637,-0.19154,0.0,2023,6,7,17,48,28,440
50.54060,-0.06930,-0.03167,0.00000,0.03172,0.97746,-0.18873,0.0,2023,6,7,17,48,28,451
50.54070,-0.05180,0.02083,0.00000,0.03050,0.97466,-0.19117,0.0,2023,6,7,17,48,28,463
50.54080,0.05320,0.16082,0.00000,0.02928,0.97576,-0.18849,0.0,2023,6,7,17,48,28,474
50.54090,0.01820,0.19583,0.00000,0.03160,0.97466,-0.18715,0.0,2023,6,7,17,48,28,486
50.54100,0.00070,0.16082,0.00000,0.03099,0.97673,-0.18983,0.0,2023,6,7,17,48,28,497
50.54110,0.10570,0.02083,0.00000,0.02977,0.97722,-0.18837,0.0,2023,6,7,17,48,28,509
50.54120,-0.15680,-0.11918,0.00000,0.03209,0.97685,-0.18764,0.0,2023,6,7,17,48,28,520
50.54130,-0.06930,0.02083,0.00000,0.03062,0.97551,-0.18959,0.0,2023,6,7,17,48,28,532
50.54140,-0.01680,0.05582,0.00000,0.03379,0.97685,-0.18934,0.0,2023,6,7,17,48,28,543
50.54150,0.00070,0.12582,0.00000,0.03111,0.97624,-0.19020,0.0,2023,6,7,17,48,28,555
50.54160,-0.19180,0.05582,0.00000,0.03148,0.97490,-0.19044,0.0,2023,6,7,17,48,28,566
50.54170,0.03570,0.03832,0.00000,0.03221,0.97612,-0.18873,0.0,2023,6,7,17,48,28,578
50.54180,-0.10430,-0.10168,0.00000,0.03135,0.97612,-0.18898,0.0,2023,6,7,17,48,28,589
50.54190,-0.08680,0.10832,0.00000,0.03282,0.97539,-0.19008,0.0,2023,6,7,17,48,28,601
50.54200,-0.01680,-0.13668,0.00000,0.03184,0.97661,-0.18910,0.0,2023,6,7,17,48,28,612
50.54210,-0.01680,-0.06668,0.00000,0.02965,0.97576,-0.19081,0.0,2023,6,7,17,48,28,624
50.54220,-0.06930,0.07332,0.00000,0.03160,0.97502,-0.18764,0.0,2023,6,7,17,48,28,635
50.54230,0.03570,0.09082,0.00000,0.03282,0.97429,-0.18910,0.0,2023,6,7,17,48,28,647
50.54240,-0.06930,-0.15418,0.00000,0.03233,0.97771,-0.18861,0.0,2023,6,7,17,48,28,658
50.54250,0.00070,0.00333,0.00000,0.03148,0.97978,-0.19166,0.0,2023,6,7,17,48,28,670
50.54260,-0.05180,0.14332,0.00000,0.03367,0.97515,-0.19130,0.0,2023,6,7,17,48,28,681
50.54270,0.07070,0.05582,0.00000,0.03050,0.97454,-0.18825,0.0,2023,6,7,17,48,28,693
50.54280,0.14070,0.10832,0.00000,0.03111,0.97478,-0.18995,0.0,2023,6,7,17,48,28,704
50.54290,-0.15680,-0.01417,0.00000,0.02952,0.97698,-0.18642,0.0,2023,6,7,17,48,28,716
50.54300,-0.06930,0.00333,0.00000,0.03001,0.97856,-0.19117,0.0,2023,6,7,17,48,28,727
50.54310,-0.03430,0.17833,0.00000,0.03062,0.97771,-0.19032,0.0,2023,6,7,17,48,28,739
50.54320,-0.17430,-0.01417,0.00000,0.03221,0.97649,-0.18825,0.0,2023,6,7,17,48,28,750
50.54330,0.08820,-0.11918,0.00000,0.03148,0.97588,-0.18849,0.0,2023,6,7,17,48,28,762
50.54340,0.00070,0.03832,0.00000,0.03160,0.97600,-0.18739,0.0,2023,6,7,17,48,28,773
50.54350,-0.05180,0.00333,0.00000,0.03123,0.97478,-0.19105,0.0,2023,6,7,17,48,28,785
50.54360,-0.06930,0.14332,0.00000,0.03050,0.97856,-0.19166,0.0,2023,6,7,17,48,28,796
50.54370,-0.12180,-0.04917,0.00000,0.02965,0.97283,-0.18873,0.0,2023,6,7,17,48,28,808
50.54380,0.07070,0.03832,0.00000,0.03135,0.97405,-0.18861,0.0,2023,6,7,17,48,28,819
50.54390,-0.12180,-0.15418,0.00000,0.03282,0.97685,-0.19056,0.0,2023,6,7,17,48,28,831
50.54400,-0.01680,-0.06668,0.00000,0.03062,0.97551,-0.19154,0.0,2023,6,7,17,48,29,842
50.54410,-0.10430,0.00333,0.00000,0.03074,0.97783,-0.18812,0.0,2023,6,7,17,48,29,854
50.54420,0.00070,0.02083,0.00000,0.03087,0.97502,-0.18739,0.0,2023,6,7,17,48,29,865
50.54430,0.05320,-0.24167,0.00000,0.03099,0.97466,-0.19093,0.0,2023,6,7,17,48,29,877
50.54440,-0.20930,0.26582,0.00000,0.03172,0.97710,-0.18934,0.0,2023,6,7,17,48,29,888
50.54450,0.05320,0.05582,0.00000,0.03099,0.97624,-0.18971,0.0,2023,6,7,17,48,29,900
50.54460,0.12320,0.23083,0.00000,0.03148,0.97478,-0.18983,0.0,2023,6,7,17,48,29,911
50.54470,0.15820,0.00333,0.00000,0.02965,0.97649,-0.18776,0.0,2023,6,7,17,48,29,923
50.54480,0.01820,0.07332,0.00000,0.03172,0.97661,-0.18849,0.0,2023,6,7,17,48,29,934
50.54490,0.05320,-0.10168,0.00000,0.03245,0.97405,-0.18886,0.0,2023,6,7,17,48,29,946
50.54500,-0.08680,0.05582,0.00000,0.03062,0.97759,-0.19191,0.0,2023,6,7,17,48,29,957
50.54510,-0.06930,0.10832,0.00000,0.03331,0.97771,-0.18715,0.0,2023,6,7,17,48,29,969
50.54520,0.03570,0.00333,0.00000,0.03294,0.97612,-0.18849,0.0,2023,6,7,17,48,29,980
50.54530,0.03570,0.09082,0.00000,0.03123,0.97527,-0.18959,0.0,2023,6,7,17,48,29,992
50.54540,-0.12180,0.05582,0.00000,0.03111,0.97588,-0.18812,0.0,2023,6,7,17,48,29,3
50.54550,0.22820,-0.03167,0.00000,0.03026,0.97783,-0.18666,0.0,2023,6,7,17,48,29,15
50.54560,-0.12180,-0.03167,0.00000,0.02904,0.97734,-0.19056,0.0,2023,6,7,17,48,29,26
50.54570,0.00070,-0.06668,0.00000,0.02940,0.97588,-0.19056,0.0,2023,6,7,17,48,29,38
50.54580,0.01820,-0.01417,0.00000,0.03135,0.97624,-0.19178,0.0,2023,6,7,17,48,29,49
50.54590,-0.08680,0.09082,0.00000,0.03355,0.97576,-0.18837,0.0,2023,6,7,17,48,29,61
50.54600,-0.20930,-0.11918,0.00000,0.03160,0.97624,-0.18751,0.0,2023,6,7,17,48,29,72
50.54610,-0.06930,-0.01417,0.00000,0.03099,0.97600,-0.18788,0.0,2023,6,7,17,48,29,84
50.54620,0.00070,0.02083,0.00000,0.03111,0.97685,-0.19056,0.0,2023,6,7,17,48,29,95
50.54630,-0.10430,0.10832,0.00000,0.03245,0.97551,-0.18751,0.0,2023,6,7,17,48,29,107
50.54640,-0.19180,-0.11918,0.00000,0.03221,0.97600,-0.18776,0.0,2023,6,7,17,48,29,118
50.54650,-0.03430,-0.11918,0.00000,0.03148,0.97795,-0.18776,0.0,2023,6,7,17,48,29,130
50.54660,-0.15680,-0.03167,0.00000,0.03160,0.97563,-0.18825,0.0,2023,6,7,17,48,29,141
50.54670,0.10570,0.10832,0.00000,0.03001,0.97563,-0.18922,0.0,2023,6,7,17,48,29,153
50.54680,0.07070,-0.03167,0.00000,0.03196,0.97551,-0.18995,0.0,2023,6,7,17,48,29,164
50.54690,-0.01680,0.02083,0.00000,0.03233,0.97539,-0.18922,0.0,2023,6,7,17,48,29,176
50.54700,-0.06930,-0.27668,0.00000,0.03184,0.97722,-0.18910,0.0,2023,6,7,17,48,29,187
50.54710,0.07070,0.24832,0.00000,0.03343,0.97795,-0.18678,0.0,2023,6,7,17,48,29,199
50.54720,0.01820,0.09082,0.00000,0.03111,0.97685,-0.18898,0.0,2023,6,7,17,48,29,210
50.54730,0.07070,0.23083,0.00000,0.03221,0.97795,-0.19069,0.0,2023,6,7,17,48,29,222
50.54740,-0.06930,0.19583,0.00000,0.03099,0.97612,-0.18507,0.0,2023,6,7,17,48,29,233
50.54750,0.07070,-0.10168,0.00000,0.03209,0.97698,-0.18886,0.0,2023,6,7,17,48,29,245
50.54760,-0.15680,0.05582,0.00000,0.03135,0.97576,-0.18959,0.0,2023,6,7,17,48,29,256
50.54770,-0.05180,0.00333,0.00000,0.03123,0.97576,-0.18666,0.0,2023,6,7,17,48,29,268
50.54780,-0.08680,0.05582,0.00000,0.02977,0.97698,-0.18910,0.0,2023,6,7,17,48,29,279
50.54790,0.08820,0.10832,0.00000,0.02952,0.97661,-0.18898,0.0,2023,6,7,17,48,29,290
50.54800,0.08820,-0.24167,0.00000,0.03306,0.97502,-0.18922,0.0,2023,6,7,17,48,29,302
50.54810,-0.19180,-0.08418,0.00000,0.03184,0.97771,-0.18776,0.0,2023,6,7,17,48,29,313
50.54820,-0.05180,0.02083,0.00000,0.03148,0.97637,-0.18751,0.0,2023,6,7,17,48,29,325
50.54830,-0.06930,-0.06668,0.00000,0.03367,0.97637,-0.19044,0.0,2023,6,7,17,48,29,336
50.54840,0.14070,-0.13668,0.00000,0.02965,0.97588,-0.18934,0.0,2023,6,7,17,48,29,348
50.54850,0.12320,-0.15418,0.00000,0.03294,0.97649,-0.18983,0.0,2023,6,7,17,48,29,359
50.54860,-0.08680,-0.10168,0.00000,0.03245,0.97502,-0.18812,0.0,2023,6,7,17,48,29,371
50.54870,0.01820,0.09082,0.00000,0.03209,0.97771,-0.18715,0.0,2023,6,7,17,48,29,382
50.54880,0.15820,0.05582,0.00000,0.03209,0.97527,-0.18825,0.0,2023,6,7,17,48,29,394
50.54890,-0.08680,-0.10168,0.00000,0.03221,0.97478,-0.19093,0.0,2023,6,7,17,48,29,405
50.54900,-0.03430,0.12582,0.00000,0.02989,0.97649,-0.18934,0.0,2023,6,7,17,48,29,417
50.54910,0.01820,0.00333,0.00000,0.03196,0.97832,-0.18398,0.0,2023,6,7,17,48,29,428
50.54920,-0.03430,0.03832,0.00000,0.03013,0.97563,-0.18849,0.0,2023,6,7,17,48,29,440
50.54930,0.24570,-0.06668,0.00000,0.03123,0.97698,-0.19069,0.0,2023,6,7,17,48,29,451
50.54940,0.14070,0.00333,0.00000,0.03135,0.97502,-0.18898,0.0,2023,6,7,17,48,29,463
50.54950,-0.17430,0.14332,0.00000,0.03221,0.97661,-0.18666,0.0,2023,6,7,17,48,29,474
50.54960,0.00070,-0.11918,0.00000,0.03306,0.97722,-0.18764,0.0,2023,6,7,17,48,29,486
50.54970,0.10570,-0.03167,0.00000,0.03270,0.97759,-0.18544,0.0,2023,6,7,17,48,29,497
50.54980,-0.12180,0.21333,0.00000,0.03050,0.97820,-0.18886,0.0,2023,6,7,17,48,29,509
50.54990,-0.05180,0.00333,0.00000,0.03172,0.97539,-0.18959,0.0,2023,6,7,17,48,29,520
50.55000,0.08820,0.03832,0.00000,0.03038,0.97563,-0.18825,0.0,2023,6,7,17,48,29,532
50.55010,-0.12180,0.00333,0.00000,0.03074,0.97820,-0.18764,0.0,2023,6,7,17,48,29,543
50.55020,0.03570,0.09082,0.00000,0.03245,0.97490,-0.18898,0.0,2023,6,7,17,48,29,555
50.55030,0.07070,0.00333,0.00000,0.02879,0.97710,-0.18849,0.0,2023,6,7,17,48,29,566
50.55040,-0.08680,0.05582,0.00000,0.03209,0.97893,-0.18886,0.0,2023,6,7,17,48,29,578
50.55050,0.10570,0.30082,0.00000,0.03245,0.97673,-0.19020,0.0,2023,6,7,17,48,29,589
50.55060,0.05320,0.07332,0.00000,0.03026,0.97649,-0.18910,0.0,2023,6,7,17,48,29,601
50.55070,-0.10430,-0.04917,0.00000,0.03099,0.97795,-0.18764,0.0,2023,6,7,17,48,29,612
50.55080,0.24570,-0.18918,0.00000,0.03099,0.97515,-0.18934,0.0,2023,6,7,17,48,29,624
50.55090,0.05320,0.16082,0.00000,0.03245,0.97539,-0.18910,0.0,2023,6,7,17,48,29,635
50.55100,-0.06930,0.05582,0.00000,0.02891,0.97368,-0.18825,0.0,2023,6,7,17,48,29,647
