#2023/06/07 12:14:26
time,wx,wy,wz,ax,ay,az,yy,MM,dd,hh,mm,ss,ms
39.08960,-0.01838,-0.01838,0.00000,0.02855,0.97685,-0.19471,0.0,2023,6,7,12,14,27,80
39.08970,-0.10588,0.10412,0.00000,0.02843,0.97673,-0.19776,0.0,2023,6,7,12,14,27,90
39.08980,-0.12338,-0.05338,0.00000,0.02794,0.97527,-0.19605,0.0,2023,6,7,12,14,27,100
39.08990,0.03412,-0.08838,0.00000,0.02940,0.97685,-0.19276,0.0,2023,6,7,12,14,27,110
39.09000,-0.01838,-0.10588,0.00000,0.03087,0.97612,-0.19569,0.0,2023,6,7,12,14,27,120
39.09010,0.05162,-0.07088,0.00000,0.02782,0.97661,-0.19508,0.0,2023,6,7,12,14,27,130
39.09020,-0.00088,-0.24588,0.00000,0.02965,0.97795,-0.19483,0.0,2023,6,7,12,14,27,140
39.09030,-0.08838,-0.01838,0.00000,0.02867,0.97441,-0.19398,0.0,2023,6,7,12,14,27,150
39.09040,-0.05338,0.01662,0.00000,0.02940,0.97539,-0.19361,0.0,2023,6,7,12,14,27,160
39.09050,0.20912,0.01662,0.00000,0.02769,0.97637,-0.19630,0.0,2023,6,7,12,14,27,170
39.09060,-0.07088,-0.00088,0.00000,0.02806,0.97539,-0.19764,0.0,2023,6,7,12,14,27,180
39.09070,0.01662,0.08662,0.00000,0.02916,0.97490,-0.19569,0.0,2023,6,7,12,14,27,190
39.09080,0.19162,0.24412,0.00000,0.02904,0.97563,-0.19642,0.0,2023,6,7,12,14,27,200
39.09090,-0.15838,-0.00088,0.00000,0.02879,0.97515,-0.19618,0.0,2023,6,7,12,14,27,210
39.09100,-0.10588,0.08662,0.00000,0.02745,0.97563,-0.19435,0.0,2023,6,7,12,14,27,220
39.09110,-0.00088,-0.05338,0.00000,0.02830,0.97478,-0.19605,0.0,2023,6,7,12,14,27,230
39.09120,0.03412,-0.21088,0.00000,0.03001,0.97624,-0.19325,0.0,2023,6,7,12,14,27,240
39.09130,-0.17588,0.26162,0.00000,0.02818,0.97551,-0.19459,0.0,2023,6,7,12,14,27,250
39.09140,-0.03588,-0.07088,0.00000,0.02989,0.97771,-0.19654,0.0,2023,6,7,12,14,27,260
39.09150,-0.03588,-0.00088,0.00000,0.03074,0.97515,-0.19618,0.0,2023,6,7,12,14,27,270
39.09160,0.03412,-0.21088,0.00000,0.02916,0.97698,-0.19520,0.0,2023,6,7,12,14,27,280
39.09170,0.10412,-0.07088,0.00000,0.02647,0.97441,-0.19520,0.0,2023,6,7,12,14,27,290
39.09180,0.10412,-0.14088,0.00000,0.02879,0.97563,-0.19605,0.0,2023,6,7,12,14,27,300
39.09190,0.01662,-0.05338,0.00000,0.03038,0.97673,-0.19569,0.0,2023,6,7,12,14,27,310
39.09200,0.19162,0.19162,0.00000,0.02843,0.97588,-0.19666,0.0,2023,6,7,12,14,27,320
39.09210,0.05162,0.15662,0.00000,0.02696,0.97502,-0.19508,0.0,2023,6,7,12,14,27,330
39.09220,-0.00088,0.19162,0.00000,0.02843,0.97478,-0.19398,0.0,2023,6,7,12,14,27,340
39.09230,-0.00088,-0.22838,0.00000,0.02708,0.97600,-0.19459,0.0,2023,6,7,12,14,27,350
39.09240,-0.10588,0.01662,0.00000,0.02904,0.97539,-0.19605,0.0,2023,6,7,12,14,27,360
39.09250,-0.12338,-0.01838,0.00000,0.02867,0.97588,-0.19471,0.0,2023,6,7,12,14,27,370
39.09260,-0.07088,0.10412,0.00000,0.02818,0.97649,-0.19422,0.0,2023,6,7,12,14,27,380
39.09270,-0.01838,0.19162,0.00000,0.02818,0.97661,-0.19703,0.0,2023,6,7,12,14,27,390
39.09280,-0.10588,-0.12338,0.00000,0.02977,0.97661,-0.19557,0.0,2023,6,7,12,14,27,400
39.09290,-0.07088,0.01662,0.00000,0.02891,0.97783,-0.19605,0.0,2023,6,7,12,14,27,410
39.09300,-0.01838,-0.07088,0.00000,0.02891,0.97490,-0.19459,0.0,2023,6,7,12,14,27,420
39.09310,-0.01838,-0.19338,0.00000,0.02843,0.97563,-0.19618,0.0,2023,6,7,12,14,27,430
39.09320,0.20912,-0.24588,0.00000,0.02830,0.97441,-0.19422,0.0,2023,6,7,12,14,27,440
39.09330,-0.10588,0.05162,0.00000,0.02952,0.97685,-0.19508,0.0,2023,6,7,12,14,27,450
39.09340,0.01662,0.03412,0.00000,0.02867,0.97551,-0.19715,0.0,2023,6,7,12,14,27,460
39.09350,0.19162,0.03412,0.00000,0.02660,0.97588,-0.19569,0.0,2023,6,7,12,14,27,470
39.09360,-0.00088,-0.14088,0.00000,0.02965,0.97576,-0.19386,0.0,2023,6,7,12,14,27,480
39.09370,0.12162,-0.03588,0.00000,0.02855,0.97661,-0.19435,0.0,2023,6,7,12,14,27,490
39.09380,0.06912,-0.07088,0.00000,0.02965,0.97600,-0.19569,0.0,2023,6,7,12,14,27,500
39.09390,-0.03588,-0.01838,0.00000,0.02672,0.97356,-0.19532,0.0,2023,6,7,12,14,27,510
39.09400,0.20912,-0.00088,0.00000,0.02952,0.97515,-0.19447,0.0,2023,6,7,12,14,27,520
39.09410,-0.00088,-0.07088,0.00000,0.02904,0.97490,-0.19435,0.0,2023,6,7,12,14,27,530
39.09420,0.13912,-0.03588,0.00000,0.02952,0.97576,-0.19520,0.0,2023,6,7,12,14,27,540
39.09430,-0.15838,0.10412,0.00000,0.02940,0.97527,-0.19483,0.0,2023,6,7,12,14,27,550
39.09440,0.03412,0.10412,0.00000,0.02489,0.97612,-0.19654,0.0,2023,6,7,12,14,27,560
39.09450,-0.07088,-0.03588,0.00000,0.02904,0.97600,-0.19374,0.0,2023,6,7,12,14,27,570
39.09460,0.08662,-0.05338,0.00000,0.02965,0.97502,-0.19618,0.0,2023,6,7,12,14,27,580
39.09470,0.01662,0.03412,0.00000,0.02696,0.97832,-0.19483,0.0,2023,6,7,12,14,27,590
39.09480,-0.15838,0.06912,0.00000,0.02672,0.97637,-0.19740,0.0,2023,6,7,12,14,27,600
39.09490,0.06912,-0.12338,0.00000,0.02830,0.97588,-0.19801,0.0,2023,6,7,12,14,27,610
39.09500,-0.07088,0.03412,0.00000,0.02855,0.97478,-0.19715,0.0,2023,6,7,12,14,27,620
39.09510,-0.00088,-0.12338,0.00000,0.02916,0.97441,-0.19459,0.0,2023,6,7,12,14,27,630
39.09520,-0.07088,0.13912,0.00000,0.02794,0.97893,-0.19593,0.0,2023,6,7,12,14,27,640
39.09530,0.12162,-0.05338,0.00000,0.02830,0.97624,-0.19544,0.0,2023,6,7,12,14,27,650
39.09540,0.17412,-0.22838,0.00000,0.02745,0.97515,-0.19557,0.0,2023,6,7,12,14,27,660
39.09550,-0.01838,-0.01838,0.00000,0.03001,0.97673,-0.19532,0.0,2023,6,7,12,14,28,670
39.09560,-0.14088,0.10412,0.00000,0.03123,0.97637,-0.19471,0.0,2023,6,7,12,14,28,680
39.09570,0.03412,-0.26338,0.00000,0.02708,0.97429,-0.19557,0.0,2023,6,7,12,14,28,690
39.09580,0.05162,-0.00088,0.00000,0.03160,0.97576,-0.19374,0.0,2023,6,7,12,14,28,700
39.09590,-0.10588,0.08662,0.00000,0.03038,0.97588,-0.19532,0.0,2023,6,7,12,14,28,710
39.09600,-0.10588,-0.00088,0.00000,0.02672,0.97441,-0.19496,0.0,2023,6,7,12,14,28,720
39.09610,-0.12338,-0.08838,0.00000,0.03013,0.97832,-0.19520,0.0,2023,6,7,12,14,28,730
39.09620,-0.01838,0.08662,0.00000,0.02940,0.97893,-0.19764,0.0,2023,6,7,12,14,28,740
39.09630,-0.08838,0.05162,0.00000,0.03160,0.97563,-0.19496,0.0,2023,6,7,12,14,28,750
39.09640,0.10412,0.08662,0.00000,0.02916,0.97478,-0.19740,0.0,2023,6,7,12,14,28,760
39.09650,-0.10588,0.08662,0.00000,0.02769,0.97490,-0.19447,0.0,2023,6,7,12,14,28,770
39.09660,-0.03588,-0.10588,0.00000,0.02830,0.97380,-0.19581,0.0,2023,6,7,12,14,28,780
39.09670,-0.14088,0.31412,0.00000,0.02806,0.97624,-0.19642,0.0,2023,6,7,12,14,28,790
39.09680,0.05162,-0.00088,0.00000,0.02843,0.97868,-0.19532,0.0,2023,6,7,12,14,28,800
39.09690,-0.08838,0.05162,0.00000,0.02830,0.97454,-0.19740,0.0,2023,6,7,12,14,28,810
39.09700,-0.01838,-0.01838,0.00000,0.03038,0.97698,-0.19325,0.0,2023,6,7,12,14,28,820
39.09710,0.06912,-0.12338,0.00000,0.02708,0.97661,-0.19618,0.0,2023,6,7,12,14,28,830
39.09720,-0.15838,0.03412,0.00000,0.02928,0.97844,-0.19618,0.0,2023,6,7,12,14,28,840
39.09730,0.17412,-0.08838,0.00000,0.02830,0.97576,-0.19679,0.0,2023,6,7,12,14,28,850
39.09740,-0.03588,0.12162,0.00000,0.02867,0.97478,-0.19703,0.0,2023,6,7,12,14,28,860
39.09750,-0.07088,0.10412,0.00000,0.02977,0.97722,-0.19447,0.0,2023,6,7,12,14,28,870
39.09760,0.08662,0.15662,0.00000,0.02684,0.97466,-0.19593,0.0,2023,6,7,12,14,28,880
39.09770,-0.00088,0.06912,0.00000,0.02684,0.97551,-0.19618,0.0,2023,6,7,12,14,28,890
39.09780,0.05162,-0.08838,0.00000,0.02843,0.97502,-0.19874,0.0,2023,6,7,12,14,28,900
39.09790,-0.07088,-0.03588,0.00000,0.02830,0.97368,-0.19459,0.0,2023,6,7,12,14,28,910
39.09800,-0.00088,0.03412,0.00000,0.02733,0.97576,-0.19618,0.0,2023,6,7,12,14,28,920
39.09810,0.05162,0.06912,0.00000,0.03050,0.97746,-0.19654,0.0,2023,6,7,12,14,28,930
39.09820,0.17412,0.08662,0.00000,0.02855,0.97539,-0.19483,0.0,2023,6,7,12,14,28,940
39.09830,-0.00088,-0.10588,0.00000,0.02989,0.97466,-0.19557,0.0,2023,6,7,12,14,28,950
39.09840,-0.01838,0.05162,0.00000,0.02977,0.97844,-0.19496,0.0,2023,6,7,12,14,28,960
39.09850,0.06912,0.01662,0.00000,0.02855,0.97588,-0.19679,0.0,2023,6,7,12,14,28,970
39.09860,-0.07088,-0.05338,0.00000,0.02977,0.97612,-0.19788,0.0,2023,6,7,12,14,28,980
39.09870,-0.14088,0.03412,0.00000,0.02879,0.97429,-0.19764,0.0,2023,6,7,12,14,28,990
39.09880,0.01662,-0.14088,0.00000,0.03233,0.97612,-0.19508,0.0,2023,6,7,12,14,28,0
39.09890,-0.05338,-0.07088,0.00000,0.02928,0.97490,-0.19679,0.0,2023,6,7,12,14,28,10
39.09900,-0.08838,-0.00088,0.00000,0.02843,0.97576,-0.19557,0.0,2023,6,7,12,14,28,20
39.09910,0.03412,-0.07088,0.00000,0.02904,0.97356,-0.19532,0.0,2023,6,7,12,14,28,30
39.09920,-0.14088,-0.01838,0.00000,0.02928,0.97612,-0.19727,0.0,2023,6,7,12,14,28,40
39.09930,0.08662,0.03412,0.00000,0.02794,0.97588,-0.19679,0.0,2023,6,7,12,14,28,50
39.09940,0.05162,0.08662,0.00000,0.02757,0.97649,-0.19666,0.0,2023,6,7,12,14,28,60
39.09950,-0.08838,-0.00088,0.00000,0.02940,0.97661,-0.19496,0.0,2023,6,7,12,14,28,70
39.09960,-0.10588,-0.00088,0.00000,0.02879,0.97710,-0.19679,0.0,2023,6,7,12,14,28,80
39.09970,0.15662,0.03412,0.00000,0.02855,0.97588,-0.19691,0.0,2023,6,7,12,14,28,90
39.09980,0.19162,-0.21088,0.00000,0.02891,0.97588,-0.19593,0.0,2023,6,7,12,14,28,100
39.09990,-0.05338,0.08662,0.00000,0.03111,0.97856,-0.19630,0.0,2023,6,7,12,14,28,110
39.10000,0.08662,-0.21088,0.00000,0.02721,0.97734,-0.19435,0.0,2023,6,7,12,14,28,120
39.10010,0.13912,-0.14088,0.00000,0.03001,0.97527,-0.19788,0.0,2023,6,7,12,14,28,130
39.10020,0.08662,-0.00088,0.00000,0.02818,0.97515,-0.19313,0.0,2023,6,7,12,14,28,140
39.10030,-0.12338,-0.17588,0.00000,0.02855,0.97185,-0.19483,0.0,2023,6,7,12,14,28,150
39.10040,0.01662,0.01662,0.00000,0.02891,0.97551,-0.19459,0.0,2023,6,7,12,14,28,160
39.10050,0.03412,-0.10588,0.00000,0.02879,0.97319,-0.19557,0.0,2023,6,7,12,14,28,170
39.10060,-0.00088,0.08662,0.00000,0.02757,0.97527,-0.19581,0.0,2023,6,7,12,14,28,180
39.10070,-0.01838,0.01662,0.00000,0.02891,0.97685,-0.19581,0.0,2023,6,7,12,14,28,190
39.10080,0.03412,-0.35088,0.00000,0.02977,0.97466,-0.19532,0.0,2023,6,7,12,14,28,200
39.10090,-0.00088,0.08662,0.00000,0.02891,0.97502,-0.19398,0.0,2023,6,7,12,14,28,210
39.10100,-0.05338,-0.19338,0.00000,0.02855,0.97515,-0.19727,0.0,2023,6,7,12,14,28,220
39.10110,-0.07088,-0.05338,0.00000,0.02952,0.97551,-0.19642,0.0,2023,6,7,12,14,28,230
39.10120,-0.03588,-0.15838,0.00000,0.02855,0.97759,-0.19666,0.0,2023,6,7,12,14,28,240
39.10130,-0.08838,0.03412,0.00000,0.02818,0.97759,-0.19557,0.0,2023,6,7,12,14,28,250
39.10140,-0.03588,-0.21088,0.00000,0.03001,0.97576,-0.19483,0.0,2023,6,7,12,14,28,260
39.10150,0.01662,-0.05338,0.00000,0.02891,0.97502,-0.19459,0.0,2023,6,7,12,14,28,270
39.10160,0.03412,-0.08838,0.00000,0.03001,0.97368,-0.19557,0.0,2023,6,7,12,14,28,280
39.10170,-0.14088,0.01662,0.00000,0.02977,0.97563,-0.19435,0.0,2023,6,7,12,14,28,290
39.10180,-0.07088,-0.00088,0.00000,0.02916,0.97417,-0.19630,0.0,2023,6,7,12,14,28,300
39.10190,0.10412,-0.14088,0.00000,0.02843,0.97515,-0.19618,0.0,2023,6,7,12,14,28,310
39.10200,0.08662,0.22662,0.00000,0.02684,0.97576,-0.19618,0.0,2023,6,7,12,14,28,320
39.10210,-0.08838,0.06912,0.00000,0.02879,0.97502,-0.19496,0.0,2023,6,7,12,14,28,330
39.10220,-0.07088,0.12162,0.00000,0.02916,0.97795,-0.19618,0.0,2023,6,7,12,14,28,340
39.10230,0.01662,0.15662,0.00000,0.03001,0.97685,-0.19703,0.0,2023,6,7,12,14,28,350
39.10240,-0.00088,-0.01838,0.00000,0.02989,0.97563,-0.19666,0.0,2023,6,7,12,14,28,360
39.10250,-0.05338,-0.24588,0.00000,0.02891,0.97295,-0.19325,0.0,2023,6,7,12,14,28,370
39.10260,-0.22838,0.26162,0.00000,0.02891,0.97661,-0.19569,0.0,2023,6,7,12,14,28,380
39.10270,0.12162,0.31412,0.00000,0.02904,0.97698,-0.19679,0.0,2023,6,7,12,14,28,390
39.10280,0.08662,-0.17588,0.00000,0.02891,0.97417,-0.19520,0.0,2023,6,7,12,14,28,400
39.10290,-0.01838,0.01662,0.00000,0.03026,0.97454,-0.19715,0.0,2023,6,7,12,14,28,410
39.10300,0.15662,0.01662,0.00000,0.02830,0.97515,-0.19727,0.0,2023,6,7,12,14,28,420
39.10310,-0.00088,0.26162,0.00000,0.02806,0.97661,-0.19666,0.0,2023,6,7,12,14,28,430
39.10320,-0.07088,0.05162,0.00000,0.02696,0.97502,-0.19581,0.0,2023,6,7,12,14,28,440
39.10330,-0.10588,-0.03588,0.00000,0.02782,0.97515,-0.19532,0.0,2023,6,7,12,14,28,450
39.10340,-0.07088,0.05162,0.00000,0.02952,0.97637,-0.19874,0.0,2023,6,7,12,14,28,460
39.10350,0.03412,-0.01838,0.00000,0.02782,0.97441,-0.19581,0.0,2023,6,7,12,14,28,470
39.10360,0.08662,-0.28088,0.00000,0.02794,0.97368,-0.19410,0.0,2023,6,7,12,14,28,480
39.10370,0.03412,0.12162,0.00000,0.02940,0.97502,-0.19679,0.0,2023,6,7,12,14,28,490
39.10380,-0.15838,0.29662,0.00000,0.02757,0.97612,-0.19508,0.0,2023,6,7,12,14,28,500
39.10390,-0.12338,0.10412,0.00000,0.02721,0.97771,-0.19581,0.0,2023,6,7,12,14,28,510
39.10400,0.06912,-0.12338,0.00000,0.02928,0.97698,-0.19410,0.0,2023,6,7,12,14,28,520
39.10410,-0.07088,-0.08838,0.00000,0.02843,0.97685,-0.19532,0.0,2023,6,7,12,14,28,530
39.10420,0.17412,0.08662,0.00000,0.02879,0.97393,-0.19557,0.0,2023,6,7,12,14,28,540
39.10430,-0.08838,0.20912,0.00000,0.03087,0.97405,-0.19605,0.0,2023,6,7,12,14,28,550
39.10440,0.05162,-0.17588,0.00000,0.02891,0.97490,-0.19483,0.0,2023,6,7,12,14,29,560
39.10450,0.19162,-0.26338,0.00000,0.02782,0.97454,-0.19630,0.0,2023,6,7,12,14,29,570
39.10460,-0.03588,-0.15838,0.00000,0.03099,0.97417,-0.19325,0.0,2023,6,7,12,14,29,580
39.10470,0.08662,-0.05338,0.00000,0.02916,0.97661,-0.19630,0.0,2023,6,7,12,14,29,590
39.10480,-0.22838,0.12162,0.00000,0.02696,0.97759,-0.19508,0.0,2023,6,7,12,14,29,600
39.10490,-0.15838,-0.07088,0.00000,0.02891,0.97466,-0.19715,0.0,2023,6,7,12,14,29,610
39.10500,0.06912,-0.10588,0.00000,0.03111,0.97710,-0.19691,0.0,2023,6,7,12,14,29,620
39.10510,0.03412,0.10412,0.00000,0.02733,0.97661,-0.19618,0.0,2023,6,7,12,14,29,630
39.10520,0.05162,-0.12338,0.00000,0.02989,0.97539,-0.19691,0.0,2023,6,7,12,14,29,640
39.10530,0.12162,0.05162,0.00000,0.03172,0.97746,-0.19703,0.0,2023,6,7,12,14,29,650
39.10540,0.19162,-0.29838,0.00000,0.02818,0.97454,-0.19801,0.0,2023,6,7,12,14,29,660
39.10550,0.10412,0.03412,0.00000,0.02916,0.97466,-0.19801,0.0,2023,6,7,12,14,29,670
39.10560,0.03412,-0.21088,0.00000,0.02928,0.97515,-0.19679,0.0,2023,6,7,12,14,29,680
39.10570,0.15662,-0.05338,0.00000,0.02904,0.97722,-0.19508,0.0,2023,6,7,12,14,29,690
39.10580,-0.03588,0.13912,0.00000,0.02745,0.97588,-0.19715,0.0,2023,6,7,12,14,29,700
39.10590,-0.10588,-0.00088,0.00000,0.02916,0.97502,-0.19398,0.0,2023,6,7,12,14,29,710
39.10600,-0.00088,-0.00088,0.00000,0.02794,0.97576,-0.19764,0.0,2023,6,7,12,14,29,720
39.10610,0.08662,-0.15838,0.00000,0.02940,0.97698,-0.19410,0.0,2023,6,7,12,14,29,730
39.10620,-0.07088,-0.03588,0.00000,0.02782,0.97527,-0.19447,0.0,2023,6,7,12,14,29,740
39.10630,-0.07088,-0.05338,0.00000,0.02855,0.97832,-0.19410,0.0,2023,6,7,12,14,29,750
39.10640,0.24412,-0.26338,0.00000,0.03026,0.97502,-0.19691,0.0,2023,6,7,12,14,29,760
39.10650,-0.03588,0.01662,0.00000,0.02977,0.97551,-0.19422,0.0,2023,6,7,12,14,29,770
39.10660,-0.03588,-0.08838,0.00000,0.02769,0.97454,-0.19593,0.0,2023,6,7,12,14,29,780
39.10670,-0.03588,-0.01838,0.00000,0.02708,0.97673,-0.19349,0.0,2023,6,7,12,14,29,790
39.10680,0.08662,0.03412,0.00000,0.02952,0.97844,-0.19727,0.0,2023,6,7,12,14,29,800
39.10690,0.15662,-0.01838,0.00000,0.03001,0.97820,-0.19447,0.0,2023,6,7,12,14,29,810
39.10700,0.05162,0.12162,0.00000,0.03111,0.97783,-0.19520,0.0,2023,6,7,12,14,29,820
39.10710,0.13912,-0.17588,0.00000,0.03013,0.97576,-0.19398,0.0,2023,6,7,12,14,29,830
39.10720,0.01662,-0.08838,0.00000,0.02794,0.97466,-0.19325,0.0,2023,6,7,12,14,29,840
39.10730,-0.03588,0.10412,0.00000,0.02965,0.97612,-0.19544,0.0,2023,6,7,12,14,29,850
39.10740,-0.00088,0.06912,0.00000,0.03001,0.97685,-0.19605,0.0,2023,6,7,12,14,29,860
39.10750,0.05162,-0.01838,0.00000,0.02965,0.97685,-0.19630,0.0,2023,6,7,12,14,29,870
39.10760,0.10412,0.13912,0.00000,0.02696,0.97527,-0.19508,0.0,2023,6,7,12,14,29,880
39.10770,0.08662,0.10412,0.00000,0.02769,0.97624,-0.19691,0.0,2023,6,7,12,14,29,890
39.10780,-0.12338,0.24412,0.00000,0.02965,0.97466,-0.19666,0.0,2023,6,7,12,14,29,900
39.10790,0.01662,-0.15838,0.00000,0.03160,0.97478,-0.19593,0.0,2023,6,7,12,14,29,910
39.10800,0.08662,-0.24588,0.00000,0.02733,0.97417,-0.19593,0.0,2023,6,7,12,14,29,920
39.10810,0.06912,-0.00088,0.00000,0.02855,0.97441,-0.19569,0.0,2023,6,7,12,14,29,930
39.10820,0.17412,-0.15838,0.00000,0.02855,0.97698,-0.19496,0.0,2023,6,7,12,14,29,940
39.10830,-0.01838,0.03412,0.00000,0.02830,0.97722,-0.19471,0.0,2023,6,7,12,14,29,950
39.10840,0.06912,-0.10588,0.00000,0.02794,0.97405,-0.19679,0.0,2023,6,7,12,14,29,960
39.10850,0.05162,-0.03588,0.00000,0.03087,0.97271,-0.19435,0.0,2023,6,7,12,14,29,970
39.10860,-0.12338,-0.10588,0.00000,0.02940,0.97698,-0.19264,0.0,2023,6,7,12,14,29,980
39.10870,-0.15838,0.10412,0.00000,0.02794,0.97771,-0.19557,0.0,2023,6,7,12,14,29,990
39.10880,-0.01838,-0.07088,0.00000,0.02647,0.97502,-0.19520,0.0,2023,6,7,12,14,29,0
39.10890,-0.03588,0.03412,0.00000,0.02904,0.97624,-0.19666,0.0,2023,6,7,12,14,29,10
39.10900,0.12162,-0.05338,0.00000,0.02891,0.97515,-0.19593,0.0,2023,6,7,12,14,29,20
39.10910,0.03412,-0.03588,0.00000,0.02952,0.97759,-0.19447,0.0,2023,6,7,12,14,29,30
39.10920,-0.05338,-0.12338,0.00000,0.02769,0.97417,-0.19544,0.0,2023,6,7,12,14,29,40
39.10930,-0.05338,-0.01838,0.00000,0.02830,0.97490,-0.19520,0.0,2023,6,7,12,14,29,50
39.10940,-0.19338,0.06912,0.00000,0.03038,0.97649,-0.19715,0.0,2023,6,7,12,14,29,60
39.10950,-0.03588,-0.14088,0.00000,0.02708,0.97551,-0.19630,0.0,2023,6,7,12,14,29,70
39.10960,0.01662,-0.19338,0.00000,0.02904,0.97551,-0.19715,0.0,2023,6,7,12,14,29,80
39.10970,-0.17588,0.12162,0.00000,0.02708,0.97380,-0.19422,0.0,2023,6,7,12,14,29,90
39.10980,0.05162,-0.10588,0.00000,0.02660,0.97734,-0.19557,0.0,2023,6,7,12,14,29,100
39.10990,0.12162,-0.15838,0.00000,0.02818,0.97661,-0.19679,0.0,2023,6,7,12,14,29,110
39.11000,0.06912,-0.03588,0.00000,0.02952,0.97563,-0.19361,0.0,2023,6,7,12,14,29,120
39.11010,-0.10588,-0.01838,0.00000,0.02952,0.97624,-0.19630,0.0,2023,6,7,12,14,29,130
39.11020,0.01662,0.12162,0.00000,0.02904,0.97612,-0.19630,0.0,2023,6,7,12,14,29,140
39.11030,-0.08838,0.22662,0.00000,0.02855,0.97624,-0.19398,0.0,2023,6,7,12,14,29,150
39.11040,-0.05338,0.05162,0.00000,0.03013,0.97783,-0.19630,0.0,2023,6,7,12,14,29,160
39.11050,0.05162,0.12162,0.00000,0.02879,0.97637,-0.19764,0.0,2023,6,7,12,14,29,170
39.11060,0.03412,0.01662,0.00000,0.02977,0.97673,-0.19593,0.0,2023,6,7,12,14,29,180
39.11070,0.10412,-0.05338,0.00000,0.02904,0.97441,-0.19496,0.0,2023,6,7,12,14,29,190
39.11080,0.10412,-0.05338,0.00000,0.02843,0.97478,-0.19618,0.0,2023,6,7,12,14,29,200
39.11090,0.15662,-0.07088,0.00000,0.02708,0.97490,-0.19618,0.0,2023,6,7,12,14,29,210
39.11100,-0.01838,0.19162,0.00000,0.02769,0.97502,-0.19532,0.0,2023,6,7,12,14,29,220
39.11110,0.10412,0.13912,0.00000,0.02757,0.97661,-0.19630,0.0,2023,6,7,12,14,29,230
39.11120,0.03412,-0.28088,0.00000,0.02904,0.97649,-0.19727,0.0,2023,6,7,12,14,29,240
39.11130,0.05162,0.01662,0.00000,0.02696,0.97551,-0.19532,0.0,2023,6,7,12,14,29,250
39.11140,-0.01838,0.06912,0.00000,0.02916,0.97698,-0.19496,0.0,2023,6,7,12,14,29,260
39.11150,-0.12338,-0.07088,0.00000,0.02843,0.97588,-0.19410,0.0,2023,6,7,12,14,29,270
39.11160,-0.03588,-0.12338,0.00000,0.02904,0.97466,-0.19520,0.0,2023,6,7,12,14,29,280
39.11170,0.05162,-0.05338,0.00000,0.02855,0.97478,-0.19557,0.0,2023,6,7,12,14,29,290
39.11180,-0.10588,-0.01838,0.00000,0.02891,0.97429,-0.19447,0.0,2023,6,7,12,14,29,300
39.11190,0.03412,0.08662,0.00000,0.02660,0.97527,-0.19459,0.0,2023,6,7,12,14,29,310
39.11200,0.12162,-0.12338,0.00000,0.02855,0.97600,-0.19435,0.0,2023,6,7,12,14,29,320
39.11210,0.01662,-0.07088,0.00000,0.02769,0.97624,-0.19435,0.0,2023,6,7,12,14,29,330
39.11220,-0.14088,0.27912,0.00000,0.02623,0.97612,-0.19435,0.0,2023,6,7,12,14,29,340
39.11230,0.12162,-0.08838,0.00000,0.02830,0.97576,-0.19496,0.0,2023,6,7,12,14,29,350
39.11240,-0.00088,0.06912,0.00000,0.02940,0.97515,-0.19410,0.0,2023,6,7,12,14,29,360
39.11250,-0.00088,-0.07088,0.00000,0.02879,0.97515,-0.19483,0.0,2023,6,7,12,14,29,370
39.11260,-0.03588,-0.21088,0.00000,0.02757,0.97258,-0.19557,0.0,2023,6,7,12,14,29,380
39.11270,-0.00088,0.05162,0.00000,0.02684,0.97502,-0.19557,0.0,2023,6,7,12,14,29,390
39.11280,0.08662,0.01662,0.00000,0.02818,0.97783,-0.19654,0.0,2023,6,7,12,14,29,400
39.11290,-0.00088,-0.15838,0.00000,0.02684,0.97710,-0.19740,0.0,2023,6,7,12,14,29,410
39.11300,-0.05338,-0.01838,0.00000,0.02891,0.97454,-0.19508,0.0,2023,6,7,12,14,29,420
39.11310,-0.12338,-0.00088,0.00000,0.02928,0.97637,-0.19569,0.0,2023,6,7,12,14,29,430
39.11320,-0.07088,0.01662,0.00000,0.02928,0.97832,-0.19727,0.0,2023,6,7,12,14,29,440
39.11330,0.08662,-0.19338,0.00000,0.02684,0.97612,-0.19642,0.0,2023,6,7,12,14,29,450
39.11340,0.05162,0.15662,0.00000,0.02940,0.97649,-0.19630,0.0,2023,6,7,12,14,30,460
39.11350,0.05162,0.05162,0.00000,0.02928,0.97527,-0.19422,0.0,2023,6,7,12,14,30,470
39.11360,0.03412,-0.12338,0.00000,0.02977,0.97734,-0.19520,0.0,2023,6,7,12,14,30,480
39.11370,-0.10588,0.01662,0.00000,0.02940,0.97576,-0.19520,0.0,2023,6,7,12,14,30,490
39.11380,0.01662,0.15662,0.00000,0.02867,0.97563,-0.19605,0.0,2023,6,7,12,14,30,500
39.11390,0.08662,0.15662,0.00000,0.02891,0.97502,-0.19569,0.0,2023,6,7,12,14,30,510
39.11400,-0.22838,0.08662,0.00000,0.02806,0.97868,-0.19386,0.0,2023,6,7,12,14,30,520
39.11410,0.03412,0.05162,0.00000,0.02867,0.97795,-0.19593,0.0,2023,6,7,12,14,30,530
39.11420,0.03412,-0.08838,0.00000,0.02757,0.97746,-0.19569,0.0,2023,6,7,12,14,30,540
39.11430,0.13912,-0.29838,0.00000,0.03038,0.97685,-0.19569,0.0,2023,6,7,12,14,30,550
39.11440,-0.19338,-0.03588,0.00000,0.02904,0.97649,-0.19337,0.0,2023,6,7,12,14,30,560
39.11450,-0.00088,0.15662,0.00000,0.02733,0.97527,-0.19557,0.0,2023,6,7,12,14,30,570
39.11460,-0.01838,-0.15838,0.00000,0.02879,0.97673,-0.19703,0.0,2023,6,7,12,14,30,580
39.11470,0.13912,-0.05338,0.00000,0.03001,0.97490,-0.19313,0.0,2023,6,7,12,14,30,590
39.11480,0.15662,-0.07088,0.00000,0.03026,0.97649,-0.19239,0.0,2023,6,7,12,14,30,600
39.11490,-0.10588,0.03412,0.00000,0.02952,0.97783,-0.19605,0.0,2023,6,7,12,14,30,610
39.11500,0.20912,0.01662,0.00000,0.02611,0.97588,-0.19581,0.0,2023,6,7,12,14,30,620
39.11510,-0.10588,-0.01838,0.00000,0.02818,0.97588,-0.19557,0.0,2023,6,7,12,14,30,630
39.11520,0.03412,0.03412,0.00000,0.02757,0.97588,-0.19605,0.0,2023,6,7,12,14,30,640
39.11530,-0.10588,0.05162,0.00000,0.03087,0.97649,-0.19520,0.0,2023,6,7,12,14,30,650
39.11540,-0.03588,-0.12338,0.00000,0.02855,0.97600,-0.19557,0.0,2023,6,7,12,14,30,660
39.11550,0.12162,-0.05338,0.00000,0.02782,0.97515,-0.19557,0.0,2023,6,7,12,14,30,670
39.11560,-0.12338,0.08662,0.00000,0.02830,0.97527,-0.19422,0.0,2023,6,7,12,14,30,680
39.11570,0.19162,0.05162,0.00000,0.02916,0.97576,-0.19459,0.0,2023,6,7,12,14,30,690
39.11580,-0.03588,-0.15838,0.00000,0.02635,0.97466,-0.19459,0.0,2023,6,7,12,14,30,700
39.11590,0.08662,-0.10588,0.00000,0.02940,0.97771,-0.19459,0.0,2023,6,7,12,14,30,710
39.11600,-0.03588,-0.08838,0.00000,0.02855,0.97417,-0.19520,0.0,2023,6,7,12,14,30,720
39.11610,-0.03588,0.01662,0.00000,0.02965,0.97478,-0.19593,0.0,2023,6,7,12,14,30,730
39.11620,0.08662,-0.01838,0.00000,0.02745,0.97673,-0.19569,0.0,2023,6,7,12,14,30,740
39.11630,0.20912,0.01662,0.00000,0.03050,0.97661,-0.19532,0.0,2023,6,7,12,14,30,750
39.11640,0.05162,0.03412,0.00000,0.02965,0.97820,-0.19447,0.0,2023,6,7,12,14,30,760
39.11650,0.03412,0.06912,0.00000,0.02794,0.97405,-0.19605,0.0,2023,6,7,12,14,30,770
39.11660,-0.08838,-0.14088,0.00000,0.02904,0.97624,-0.19410,0.0,2023,6,7,12,14,30,780
39.11670,-0.01838,0.03412,0.00000,0.02769,0.97576,-0.19313,0.0,2023,6,7,12,14,30,790
39.11680,0.13912,-0.03588,0.00000,0.02830,0.97807,-0.19581,0.0,2023,6,7,12,14,30,800
39.11690,-0.10588,0.10412,0.00000,0.02940,0.98027,-0.19605,0.0,2023,6,7,12,14,30,810
39.11700,-0.05338,-0.07088,0.00000,0.02769,0.97502,-0.19605,0.0,2023,6,7,12,14,30,820
39.11710,-0.01838,-0.15838,0.00000,0.02904,0.97356,-0.19337,0.0,2023,6,7,12,14,30,830
39.11720,-0.08838,0.08662,0.00000,0.02879,0.97307,-0.19435,0.0,2023,6,7,12,14,30,840
39.11730,-0.17588,-0.14088,0.00000,0.02757,0.97319,-0.19410,0.0,2023,6,7,12,14,30,850
39.11740,-0.03588,-0.01838,0.00000,0.02745,0.97612,-0.19630,0.0,2023,6,7,12,14,30,860
39.11750,0.03412,0.01662,0.00000,0.02904,0.97283,-0.19374,0.0,2023,6,7,12,14,30,870
39.11760,-0.00088,0.05162,0.00000,0.03184,0.97722,-0.19532,0.0,2023,6,7,12,14,30,880
39.11770,-0.01838,0.13912,0.00000,0.02745,0.97539,-0.19447,0.0,2023,6,7,12,14,30,890
39.11780,-0.01838,0.13912,0.00000,0.02916,0.97698,-0.19471,0.0,2023,6,7,12,14,30,900
39.11790,-0.01838,-0.08838,0.00000,0.02904,0.97734,-0.19532,0.0,2023,6,7,12,14,30,910
39.11800,0.01662,0.06912,0.00000,0.02940,0.97612,-0.19569,0.0,2023,6,7,12,14,30,920
39.11810,-0.00088,-0.14088,0.00000,0.03062,0.97710,-0.19691,0.0,2023,6,7,12,14,30,930
39.11820,0.05162,-0.07088,0.00000,0.02879,0.97600,-0.19752,0.0,2023,6,7,12,14,30,940
39.11830,0.10412,0.06912,0.00000,0.02965,0.97527,-0.19374,0.0,2023,6,7,12,14,30,950
39.11840,-0.12338,0.19162,0.00000,0.02952,0.97722,-0.19386,0.0,2023,6,7,12,14,30,960
39.11850,0.08662,-0.00088,0.00000,0.03074,0.97637,-0.19471,0.0,2023,6,7,12,14,30,970
39.11860,0.01662,-0.00088,0.00000,0.02867,0.97661,-0.19642,0.0,2023,6,7,12,14,30,980
39.11870,-0.19338,-0.12338,0.00000,0.03001,0.97661,-0.19459,0.0,2023,6,7,12,14,30,990
39.11880,-0.05338,-0.14088,0.00000,0.02733,0.97722,-0.19398,0.0,2023,6,7,12,14,30,0
39.11890,0.15662,0.01662,0.00000,0.03196,0.97417,-0.19593,0.0,2023,6,7,12,14,30,10
39.11900,-0.19338,0.15662,0.00000,0.02855,0.97637,-0.19447,0.0,2023,6,7,12,14,30,20
39.11910,0.05162,0.01662,0.00000,0.03038,0.97539,-0.19288,0.0,2023,6,7,12,14,30,30
39.11920,0.10412,0.05162,0.00000,0.02721,0.97551,-0.19532,0.0,2023,6,7,12,14,30,40
39.11930,0.05162,-0.17588,0.00000,0.02940,0.97429,-0.19618,0.0,2023,6,7,12,14,30,50
39.11940,-0.05338,0.08662,0.00000,0.03013,0.97563,-0.19715,0.0,2023,6,7,12,14,30,60
39.11950,-0.07088,0.10412,0.00000,0.02916,0.97673,-0.19569,0.0,2023,6,7,12,14,30,70
39.11960,-0.03588,0.20912,0.00000,0.02696,0.97649,-0.19483,0.0,2023,6,7,12,14,30,80
39.11970,-0.08838,0.10412,0.00000,0.02830,0.97454,-0.19166,0.0,2023,6,7,12,14,30,90
39.11980,-0.05338,0.10412,0.00000,0.02696,0.97502,-0.19557,0.0,2023,6,7,12,14,30,100
39.11990,-0.10588,-0.21088,0.00000,0.02696,0.97466,-0.19715,0.0,2023,6,7,12,14,30,110
39.12000,-0.14088,0.17412,0.00000,0.02660,0.97393,-0.19410,0.0,2023,6,7,12,14,30,120
39.12010,-0.14088,-0.00088,0.00000,0.03123,0.97515,-0.19398,0.0,2023,6,7,12,14,30,130
39.12020,-0.05338,-0.01838,0.00000,0.02989,0.97759,-0.19447,0.0,2023,6,7,12,14,30,140
39.12030,-0.03588,0.06912,0.00000,0.02879,0.97478,-0.19776,0.0,2023,6,7,12,14,30,150
39.12040,-0.31588,0.17412,0.00000,0.02952,0.97466,-0.19544,0.0,2023,6,7,12,14,30,160
39.12050,-0.15838,-0.05338,0.00000,0.02818,0.97685,-0.19703,0.0,2023,6,7,12,14,30,170
39.12060,-0.01838,-0.07088,0.00000,0.02977,0.97478,-0.19508,0.0,2023,6,7,12,14,30,180
39.12070,0.03412,-0.10588,0.00000,0.02977,0.97637,-0.19764,0.0,2023,6,7,12,14,30,190
39.12080,-0.08838,-0.08838,0.00000,0.03038,0.97795,-0.19459,0.0,2023,6,7,12,14,30,200
39.12090,-0.00088,0.01662,0.00000,0.02733,0.97441,-0.19386,0.0,2023,6,7,12,14,30,210
39.12100,0.03412,-0.00088,0.00000,0.02830,0.97502,-0.19459,0.0,2023,6,7,12,14,30,220
39.12110,-0.15838,0.19162,0.00000,0.02891,0.97527,-0.19703,0.0,2023,6,7,12,14,30,230
39.12120,0.08662,-0.05338,0.00000,0.03026,0.97685,-0.19666,0.0,2023,6,7,12,14,30,240
39.12130,-0.03588,-0.03588,0.00000,0.02806,0.97527,-0.19496,0.0,2023,6,7,12,14,30,250
39.12140,0.01662,0.03412,0.00000,0.03123,0.97624,-0.19191,0.0,2023,6,7,12,14,30,260
39.12150,0.05162,0.06912,0.00000,0.02757,0.97698,-0.19386,0.0,2023,6,7,12,14,30,270
39.12160,0.12162,-0.00088,0.00000,0.02904,0.97832,-0.19825,0.0,2023,6,7,12,14,30,280
39.12170,-0.05338,0.01662,0.00000,0.02977,0.97868,-0.19605,0.0,2023,6,7,12,14,30,290
39.12180,-0.07088,0.13912,0.00000,0.02757,0.97417,-0.19508,0.0,2023,6,7,12,14,30,300
39.12190,-0.08838,-0.14088,0.00000,0.02708,0.97771,-0.19593,0.0,2023,6,7,12,14,30,310
39.12200,-0.01838,-0.22838,0.00000,0.02879,0.97356,-0.19313,0.0,2023,6,7,12,14,30,320
39.12210,-0.10588,0.17412,0.00000,0.02904,0.97600,-0.19337,0.0,2023,6,7,12,14,30,330
39.12220,0.01662,-0.05338,0.00000,0.02672,0.97551,-0.19386,0.0,2023,6,7,12,14,30,340
39.12230,0.01662,0.03412,0.00000,0.03026,0.97637,-0.19557,0.0,2023,6,7,12,14,30,350
39.12240,-0.12338,-0.05338,0.00000,0.03001,0.97576,-0.19605,0.0,2023,6,7,12,14,31,360
39.12250,-0.15838,0.05162,0.00000,0.02855,0.97746,-0.19752,0.0,2023,6,7,12,14,31,370
39.12260,0.15662,0.06912,0.00000,0.02818,0.97807,-0.19630,0.0,2023,6,7,12,14,31,380
39.12270,-0.01838,0.15662,0.00000,0.02928,0.97673,-0.19447,0.0,2023,6,7,12,14,31,390
39.12280,-0.05338,0.01662,0.00000,0.03038,0.97588,-0.19581,0.0,2023,6,7,12,14,31,400
39.12290,0.03412,0.12162,0.00000,0.03038,0.97661,-0.19666,0.0,2023,6,7,12,14,31,410
39.12300,0.20912,0.08662,0.00000,0.02855,0.97466,-0.19569,0.0,2023,6,7,12,14,31,420
39.12310,-0.10588,0.26162,0.00000,0.02940,0.97807,-0.19581,0.0,2023,6,7,12,14,31,430
39.12320,0.06912,0.05162,0.00000,0.02891,0.97698,-0.19642,0.0,2023,6,7,12,14,31,440
39.12330,0.13912,-0.21088,0.00000,0.02696,0.97649,-0.19581,0.0,2023,6,7,12,14,31,450
39.12340,0.12162,-0.05338,0.00000,0.02952,0.97771,-0.19447,0.0,2023,6,7,12,14,31,460
39.12350,-0.07088,-0.08838,0.00000,0.02855,0.97502,-0.19447,0.0,2023,6,7,12,14,31,470
39.12360,-0.07088,0.05162,0.00000,0.02904,0.97600,-0.19679,0.0,2023,6,7,12,14,31,480
39.12370,0.01662,0.06912,0.00000,0.02977,0.97539,-0.19532,0.0,2023,6,7,12,14,31,490
39.12380,0.06912,-0.12338,0.00000,0.02794,0.97441,-0.19727,0.0,2023,6,7,12,14,31,500
39.12390,0.05162,0.01662,0.00000,0.02867,0.97490,-0.19849,0.0,2023,6,7,12,14,31,510
39.12400,-0.10588,0.06912,0.00000,0.02879,0.97661,-0.19630,0.0,2023,6,7,12,14,31,520
39.12410,-0.07088,0.15662,0.00000,0.03062,0.97661,-0.19691,0.0,2023,6,7,12,14,31,530
39.12420,-0.10588,0.03412,0.00000,0.02806,0.97576,-0.19740,0.0,2023,6,7,12,14,31,540
39.12430,0.19162,-0.10588,0.00000,0.02965,0.97551,-0.19386,0.0,2023,6,7,12,14,31,550
39.12440,0.06912,-0.12338,0.00000,0.02794,0.97490,-0.19520,0.0,2023,6,7,12,14,31,560
39.12450,-0.15838,-0.12338,0.00000,0.02733,0.97539,-0.19801,0.0,2023,6,7,12,14,31,570
39.12460,0.03412,-0.00088,0.00000,0.02794,0.97515,-0.19654,0.0,2023,6,7,12,14,31,580
39.12470,-0.03588,-0.17588,0.00000,0.03062,0.97795,-0.19557,0.0,2023,6,7,12,14,31,590
39.12480,0.05162,0.01662,0.00000,0.02855,0.97661,-0.19532,0.0,2023,6,7,12,14,31,600
39.12490,0.01662,0.03412,0.00000,0.02574,0.97783,-0.19581,0.0,2023,6,7,12,14,31,610
39.12500,0.10412,0.03412,0.00000,0.02806,0.97454,-0.19398,0.0,2023,6,7,12,14,31,620
39.12510,-0.03588,-0.01838,0.00000,0.02464,0.97490,-0.19581,0.0,2023,6,7,12,14,31,630
39.12520,0.03412,-0.01838,0.00000,0.02940,0.97600,-0.19435,0.0,2023,6,7,12,14,31,640
39.12530,-0.07088,0.12162,0.00000,0.03074,0.97673,-0.19532,0.0,2023,6,7,12,14,31,650
39.12540,0.03412,-0.10588,0.00000,0.02940,0.97637,-0.19544,0.0,2023,6,7,12,14,31,660
39.12550,0.06912,0.13912,0.00000,0.02806,0.97478,-0.19593,0.0,2023,6,7,12,14,31,670
39.12560,-0.01838,0.12162,0.00000,0.02733,0.97722,-0.19483,0.0,2023,6,7,12,14,31,680
39.12570,-0.01838,-0.07088,0.00000,0.02965,0.97368,-0.19300,0.0,2023,6,7,12,14,31,690
39.12580,0.15662,-0.01838,0.00000,0.02855,0.97612,-0.19703,0.0,2023,6,7,12,14,31,700
39.12590,0.06912,-0.01838,0.00000,0.03087,0.97393,-0.19520,0.0,2023,6,7,12,14,31,710
39.12600,-0.03588,0.13912,0.00000,0.02965,0.97344,-0.19764,0.0,2023,6,7,12,14,31,720
39.12610,-0.15838,0.01662,0.00000,0.03111,0.97637,-0.19788,0.0,2023,6,7,12,14,31,730
39.12620,-0.01838,-0.21088,0.00000,0.02928,0.97502,-0.19471,0.0,2023,6,7,12,14,31,740
39.12630,-0.10588,-0.21088,0.00000,0.02952,0.97624,-0.19459,0.0,2023,6,7,12,14,31,750
39.12640,-0.19338,0.01662,0.00000,0.02928,0.97429,-0.19544,0.0,2023,6,7,12,14,31,760
39.12650,0.03412,-0.14088,0.00000,0.02952,0.97344,-0.19801,0.0,2023,6,7,12,14,31,770
39.12660,0.10412,-0.12338,0.00000,0.02782,0.97515,-0.19557,0.0,2023,6,7,12,14,31,780
39.12670,-0.03588,-0.17588,0.00000,0.03062,0.97637,-0.19581,0.0,2023,6,7,12,14,31,790
39.12680,0.03412,0.01662,0.00000,0.02965,0.97551,-0.19679,0.0,2023,6,7,12,14,31,800
39.12690,-0.05338,-0.17588,0.00000,0.02782,0.97502,-0.19374,0.0,2023,6,7,12,14,31,810
39.12700,-0.19338,-0.07088,0.00000,0.02952,0.97344,-0.19691,0.0,2023,6,7,12,14,31,820
39.12710,0.01662,0.01662,0.00000,0.03001,0.97417,-0.19581,0.0,2023,6,7,12,14,31,830
39.12720,-0.14088,-0.03588,0.00000,0.02708,0.97527,-0.19569,0.0,2023,6,7,12,14,31,840
39.12730,0.27912,0.19162,0.00000,0.02867,0.97478,-0.19788,0.0,2023,6,7,12,14,31,850
39.12740,0.08662,-0.15838,0.00000,0.02916,0.97673,-0.19825,0.0,2023,6,7,12,14,31,860
39.12750,-0.12338,0.03412,0.00000,0.02952,0.97454,-0.19483,0.0,2023,6,7,12,14,31,870
39.12760,0.12162,0.12162,0.00000,0.03001,0.97515,-0.19605,0.0,2023,6,7,12,14,31,880
39.12770,0.20912,-0.05338,0.00000,0.02867,0.97746,-0.19862,0.0,2023,6,7,12,14,31,890
39.12780,-0.14088,0.13912,0.00000,0.03001,0.97490,-0.19618,0.0,2023,6,7,12,14,31,900
39.12790,-0.01838,0.15662,0.00000,0.03001,0.97417,-0.19557,0.0,2023,6,7,12,14,31,910
39.12800,0.03412,0.08662,0.00000,0.02855,0.97649,-0.19666,0.0,2023,6,7,12,14,31,920
39.12810,0.12162,-0.14088,0.00000,0.02782,0.97380,-0.19679,0.0,2023,6,7,12,14,31,930
39.12820,-0.01838,0.17412,0.00000,0.03062,0.97612,-0.19422,0.0,2023,6,7,12,14,31,940
39.12830,0.01662,0.17412,0.00000,0.02684,0.97685,-0.19459,0.0,2023,6,7,12,14,31,950
39.12840,-0.19338,0.01662,0.00000,0.03001,0.97624,-0.19264,0.0,2023,6,7,12,14,31,960
39.12850,-0.10588,-0.17588,0.00000,0.02928,0.97551,-0.19508,0.0,2023,6,7,12,14,31,970
39.12860,-0.00088,-0.03588,0.00000,0.03148,0.97637,-0.19630,0.0,2023,6,7,12,14,31,980
39.12870,-0.07088,0.10412,0.00000,0.02696,0.97759,-0.19544,0.0,2023,6,7,12,14,31,990
39.12880,-0.07088,-0.14088,0.00000,0.03001,0.97771,-0.19386,0.0,2023,6,7,12,14,31,0
39.12890,-0.12338,0.01662,0.00000,0.03001,0.97576,-0.19569,0.0,2023,6,7,12,14,31,10
39.12900,-0.12338,-0.05338,0.00000,0.02867,0.97649,-0.19618,0.0,2023,6,7,12,14,31,20
39.12910,0.08662,-0.17588,0.00000,0.02916,0.97661,-0.19459,0.0,2023,6,7,12,14,31,30
39.12920,-0.05338,-0.15838,0.00000,0.02891,0.97844,-0.19630,0.0,2023,6,7,12,14,31,40
39.12930,-0.01838,-0.19338,0.00000,0.03074,0.97405,-0.19532,0.0,2023,6,7,12,14,31,50
39.12940,-0.08838,-0.08838,0.00000,0.02916,0.97466,-0.19605,0.0,2023,6,7,12,14,31,60
39.12950,0.03412,0.13912,0.00000,0.02757,0.97563,-0.19679,0.0,2023,6,7,12,14,31,70
39.12960,-0.19338,0.03412,0.00000,0.03099,0.97527,-0.19349,0.0,2023,6,7,12,14,31,80
39.12970,0.17412,-0.19338,0.00000,0.03013,0.97588,-0.19386,0.0,2023,6,7,12,14,31,90
39.12980,-0.24588,-0.01838,0.00000,0.02879,0.97624,-0.19630,0.0,2023,6,7,12,14,31,100
39.12990,0.03412,0.01662,0.00000,0.02879,0.97515,-0.19471,0.0,2023,6,7,12,14,31,110
39.13000,0.05162,-0.12338,0.00000,0.02989,0.97515,-0.19581,0.0,2023,6,7,12,14,31,120
39.13010,0.03412,-0.05338,0.00000,0.02818,0.97515,-0.19764,0.0,2023,6,7,12,14,31,130
39.13020,-0.15838,-0.17588,0.00000,0.03160,0.97527,-0.19618,0.0,2023,6,7,12,14,31,140
39.13030,-0.14088,0.13912,0.00000,0.02867,0.97637,-0.19496,0.0,2023,6,7,12,14,31,150
39.13040,0.08662,-0.03588,0.00000,0.02879,0.97588,-0.19544,0.0,2023,6,7,12,14,31,160
39.13050,0.13912,0.10412,0.00000,0.02757,0.97637,-0.19642,0.0,2023,6,7,12,14,31,170
39.13060,0.08662,-0.22838,0.00000,0.02855,0.97685,-0.19508,0.0,2023,6,7,12,14,31,180
39.13070,0.08662,-0.14088,0.00000,0.02830,0.97515,-0.19874,0.0,2023,6,7,12,14,31,190
39.13080,0.06912,-0.03588,0.00000,0.02879,0.97466,-0.19715,0.0,2023,6,7,12,14,31,200
39.13090,-0.03588,-0.07088,0.00000,0.02867,0.97685,-0.19715,0.0,2023,6,7,12,14,31,210
39.13100,0.01662,-0.05338,0.00000,0.02782,0.97478,-0.19679,0.0,2023,6,7,12,14,31,220
39.13110,-0.03588,0.12162,0.00000,0.02952,0.97527,-0.19630,0.0,2023,6,7,12,14,31,230
39.13120,0.06912,-0.05338,0.00000,0.02769,0.97746,-0.19337,0.0,2023,6,7,12,14,31,240
39.13130,0.24412,0.06912,0.00000,0.02916,0.97612,-0.19557,0.0,2023,6,7,12,14,31,250
39.13140,-0.19338,0.22662,0.00000,0.02855,0.97588,-0.19532,0.0,2023,6,7,12,14,32,260
39.13150,-0.12338,-0.26338,0.00000,0.02891,0.97868,-0.19349,0.0,2023,6,7,12,14,32,270
39.13160,0.08662,-0.21088,0.00000,0.03013,0.97771,-0.19740,0.0,2023,6,7,12,14,32,280
39.13170,0.06912,0.03412,0.00000,0.03087,0.97661,-0.19642,0.0,2023,6,7,12,14,32,290
39.13180,-0.00088,-0.03588,0.00000,0.03001,0.97441,-0.19178,0.0,2023,6,7,12,14,32,300
39.13190,0.08662,-0.14088,0.00000,0.02843,0.97783,-0.19605,0.0,2023,6,7,12,14,32,310
39.13200,-0.08838,0.22662,0.00000,0.02904,0.97466,-0.19508,0.0,2023,6,7,12,14,32,320
39.13210,0.12162,-0.03588,0.00000,0.03087,0.97612,-0.19471,0.0,2023,6,7,12,14,32,330
39.13220,-0.00088,-0.03588,0.00000,0.02952,0.97685,-0.19508,0.0,2023,6,7,12,14,32,340
39.13230,-0.01838,-0.01838,0.00000,0.02574,0.97563,-0.19630,0.0,2023,6,7,12,14,32,350
39.13240,-0.03588,-0.01838,0.00000,0.02879,0.97490,-0.19447,0.0,2023,6,7,12,14,32,360
39.13250,-0.12338,0.10412,0.00000,0.03087,0.97637,-0.19483,0.0,2023,6,7,12,14,32,370
39.13260,-0.03588,0.05162,0.00000,0.02806,0.97698,-0.19776,0.0,2023,6,7,12,14,32,380
39.13270,0.08662,0.03412,0.00000,0.02965,0.97685,-0.19435,0.0,2023,6,7,12,14,32,390
39.13280,-0.07088,-0.00088,0.00000,0.03013,0.97344,-0.19788,0.0,2023,6,7,12,14,32,400
39.13290,-0.03588,0.13912,0.00000,0.02928,0.97441,-0.19703,0.0,2023,6,7,12,14,32,410
39.13300,0.12162,-0.03588,0.00000,0.02928,0.97527,-0.19605,0.0,2023,6,7,12,14,32,420
39.13310,-0.05338,0.03412,0.00000,0.02940,0.97698,-0.19654,0.0,2023,6,7,12,14,32,430
39.13320,0.12162,0.03412,0.00000,0.02977,0.97759,-0.19618,0.0,2023,6,7,12,14,32,440
39.13330,0.22662,-0.22838,0.00000,0.02977,0.97612,-0.19849,0.0,2023,6,7,12,14,32,450
39.13340,-0.15838,-0.07088,0.00000,0.02940,0.97429,-0.19410,0.0,2023,6,7,12,14,32,460
39.13350,0.22662,-0.03588,0.00000,0.02891,0.97746,-0.19288,0.0,2023,6,7,12,14,32,470
39.13360,-0.05338,0.06912,0.00000,0.02916,0.97612,-0.19532,0.0,2023,6,7,12,14,32,480
39.13370,0.17412,-0.05338,0.00000,0.03038,0.97515,-0.19569,0.0,2023,6,7,12,14,32,490
39.13380,0.03412,-0.03588,0.00000,0.02818,0.97649,-0.19435,0.0,2023,6,7,12,14,32,500
39.13390,-0.14088,0.05162,0.00000,0.02855,0.97759,-0.19410,0.0,2023,6,7,12,14,32,510
39.13400,-0.05338,0.08662,0.00000,0.02916,0.97319,-0.19435,0.0,2023,6,7,12,14,32,520
39.13410,-0.01838,-0.12338,0.00000,0.02916,0.97515,-0.19642,0.0,2023,6,7,12,14,32,530
39.13420,-0.01838,0.01662,0.00000,0.02733,0.97490,-0.19313,0.0,2023,6,7,12,14,32,540
39.13430,-0.05338,-0.01838,0.00000,0.02782,0.97563,-0.19520,0.0,2023,6,7,12,14,32,550
39.13440,-0.01838,-0.07088,0.00000,0.02916,0.97856,-0.19435,0.0,2023,6,7,12,14,32,560
39.13450,-0.00088,-0.14088,0.00000,0.02916,0.97563,-0.19630,0.0,2023,6,7,12,14,32,570
39.13460,0.03412,0.03412,0.00000,0.03050,0.97441,-0.19447,0.0,2023,6,7,12,14,32,580
39.13470,-0.10588,-0.01838,0.00000,0.02904,0.97637,-0.19361,0.0,2023,6,7,12,14,32,590
39.13480,0.01662,-0.05338,0.00000,0.02928,0.97539,-0.19471,0.0,2023,6,7,12,14,32,600
39.13490,-0.08838,0.20912,0.00000,0.02855,0.97515,-0.19422,0.0,2023,6,7,12,14,32,610
39.13500,-0.07088,0.08662,0.00000,0.02830,0.97502,-0.19557,0.0,2023,6,7,12,14,32,620
39.13510,-0.08838,0.01662,0.00000,0.02855,0.97478,-0.19557,0.0,2023,6,7,12,14,32,630
39.13520,0.17412,0.08662,0.00000,0.02940,0.97405,-0.19532,0.0,2023,6,7,12,14,32,640
39.13530,-0.08838,0.17412,0.00000,0.03099,0.97600,-0.19337,0.0,2023,6,7,12,14,32,650
39.13540,-0.00088,0.06912,0.00000,0.02623,0.97649,-0.19764,0.0,2023,6,7,12,14,32,660
39.13550,0.03412,-0.12338,0.00000,0.02891,0.97405,-0.19715,0.0,2023,6,7,12,14,32,670
39.13560,0.03412,0.08662,0.00000,0.02708,0.97624,-0.19288,0.0,2023,6,7,12,14,32,680
39.13570,-0.03588,-0.05338,0.00000,0.02891,0.97344,-0.19837,0.0,2023,6,7,12,14,32,690
39.13580,-0.00088,0.01662,0.00000,0.02891,0.97649,-0.19557,0.0,2023,6,7,12,14,32,700
39.13590,-0.03588,-0.00088,0.00000,0.02806,0.97722,-0.19679,0.0,2023,6,7,12,14,32,710
39.13600,-0.08838,-0.08838,0.00000,0.02794,0.97429,-0.19471,0.0,2023,6,7,12,14,32,720
39.13610,0.06912,-0.08838,0.00000,0.02965,0.97478,-0.19630,0.0,2023,6,7,12,14,32,730
39.13620,0.08662,0.08662,0.00000,0.02806,0.97478,-0.19630,0.0,2023,6,7,12,14,32,740
39.13630,-0.15838,0.03412,0.00000,0.02782,0.97551,-0.19471,0.0,2023,6,7,12,14,32,750
39.13640,-0.01838,0.03412,0.00000,0.02745,0.97527,-0.19459,0.0,2023,6,7,12,14,32,760
39.13650,-0.10588,0.03412,0.00000,0.02782,0.97527,-0.19618,0.0,2023,6,7,12,14,32,770
39.13660,-0.15838,0.01662,0.00000,0.02855,0.97795,-0.19410,0.0,2023,6,7,12,14,32,780
39.13670,-0.14088,0.13912,0.00000,0.02696,0.97673,-0.19788,0.0,2023,6,7,12,14,32,790
39.13680,-0.05338,-0.07088,0.00000,0.02733,0.97588,-0.19752,0.0,2023,6,7,12,14,32,800
39.13690,-0.00088,0.29662,0.00000,0.02867,0.97637,-0.19361,0.0,2023,6,7,12,14,32,810
39.13700,-0.03588,-0.07088,0.00000,0.03087,0.97380,-0.19618,0.0,2023,6,7,12,14,32,820
39.13710,-0.05338,-0.00088,0.00000,0.02830,0.97588,-0.19508,0.0,2023,6,7,12,14,32,830
39.13720,-0.24588,0.03412,0.00000,0.02891,0.97417,-0.19703,0.0,2023,6,7,12,14,32,840
39.13730,-0.07088,-0.00088,0.00000,0.02708,0.97502,-0.19740,0.0,2023,6,7,12,14,32,850
39.13740,-0.12338,0.19162,0.00000,0.02782,0.97783,-0.19752,0.0,2023,6,7,12,14,32,860
39.13750,0.10412,-0.14088,0.00000,0.02879,0.97612,-0.19557,0.0,2023,6,7,12,14,32,870
39.13760,0.22662,0.01662,0.00000,0.02916,0.97624,-0.19630,0.0,2023,6,7,12,14,32,880
39.13770,-0.00088,-0.15838,0.00000,0.02708,0.97771,-0.19788,0.0,2023,6,7,12,14,32,890
39.13780,-0.05338,-0.10588,0.00000,0.02928,0.97637,-0.19727,0.0,2023,6,7,12,14,32,900
39.13790,-0.17588,0.13912,0.00000,0.02733,0.97356,-0.19435,0.0,2023,6,7,12,14,32,910
39.13800,0.01662,-0.05338,0.00000,0.02769,0.97661,-0.19483,0.0,2023,6,7,12,14,32,920
39.13810,0.03412,-0.00088,0.00000,0.02721,0.97539,-0.19349,0.0,2023,6,7,12,14,32,930
39.13820,0.01662,0.12162,0.00000,0.02794,0.97746,-0.19557,0.0,2023,6,7,12,14,32,940
39.13830,0.13912,0.06912,0.00000,0.02843,0.97612,-0.19459,0.0,2023,6,7,12,14,32,950
39.13840,-0.05338,0.20912,0.00000,0.02843,0.97490,-0.19740,0.0,2023,6,7,12,14,32,960
39.13850,-0.08838,-0.07088,0.00000,0.02928,0.97698,-0.19764,0.0,2023,6,7,12,14,32,970
39.13860,-0.05338,-0.03588,0.00000,0.02721,0.97490,-0.19532,0.0,2023,6,7,12,14,32,980
39.13870,-0.01838,-0.01838,0.00000,0.02855,0.97600,-0.19630,0.0,2023,6,7,12,14,32,990
39.13880,-0.05338,-0.03588,0.00000,0.02891,0.97539,-0.19520,0.0,2023,6,7,12,14,32,0
39.13890,-0.03588,0.01662,0.00000,0.02782,0.97466,-0.19471,0.0,2023,6,7,12,14,32,10
39.13900,-0.08838,0.01662,0.00000,0.02660,0.97527,-0.19618,0.0,2023,6,7,12,14,32,20
39.13910,-0.17588,-0.01838,0.00000,0.02916,0.97539,-0.19691,0.0,2023,6,7,12,14,32,30
39.13920,0.13912,-0.05338,0.00000,0.02916,0.97734,-0.19654,0.0,2023,6,7,12,14,32,40
39.13930,0.10412,-0.07088,0.00000,0.02733,0.97551,-0.19740,0.0,2023,6,7,12,14,32,50
39.13940,-0.03588,-0.01838,0.00000,0.02928,0.97515,-0.19727,0.0,2023,6,7,12,14,32,60
39.13950,-0.10588,-0.01838,0.00000,0.02855,0.97478,-0.19593,0.0,2023,6,7,12,14,32,70
39.13960,0.08662,-0.35088,0.00000,0.03001,0.97661,-0.19813,0.0,2023,6,7,12,14,32,80
39.13970,0.08662,0.06912,0.00000,0.02843,0.97807,-0.19654,0.0,2023,6,7,12,14,32,90
39.13980,-0.01838,-0.19338,0.00000,0.02843,0.97673,-0.19691,0.0,2023,6,7,12,14,32,100
39.13990,0.22662,0.15662,0.00000,0.02745,0.97624,-0.19593,0.0,2023,6,7,12,14,32,110
39.14000,-0.10588,0.03412,0.00000,0.03099,0.97490,-0.19520,0.0,2023,6,7,12,14,32,120
39.14010,-0.01838,-0.08838,0.00000,0.02769,0.97612,-0.19447,0.0,2023,6,7,12,14,32,130
39.14020,-0.12338,0.03412,0.00000,0.03013,0.97624,-0.19862,0.0,2023,6,7,12,14,32,140
39.14030,-0.08838,-0.15838,0.00000,0.03013,0.97624,-0.19471,0.0,2023,6,7,12,14,32,150
39.14040,-0.00088,0.01662,0.00000,0.02965,0.97710,-0.19325,0.0,2023,6,7,12,14,33,160
39.14050,-0.07088,0.06912,0.00000,0.02989,0.97746,-0.19679,0.0,2023,6,7,12,14,33,170
39.14060,-0.15838,0.03412,0.00000,0.02806,0.97539,-0.19532,0.0,2023,6,7,12,14,33,180
39.14070,0.08662,-0.00088,0.00000,0.02904,0.97576,-0.19361,0.0,2023,6,7,12,14,33,190
39.14080,0.01662,0.08662,0.00000,0.02794,0.97576,-0.19666,0.0,2023,6,7,12,14,33,200
39.14090,-0.01838,0.03412,0.00000,0.02745,0.97771,-0.19642,0.0,2023,6,7,12,14,33,210
39.14100,0.12162,-0.03588,0.00000,0.02904,0.97454,-0.19557,0.0,2023,6,7,12,14,33,220
39.14110,-0.03588,-0.22838,0.00000,0.02782,0.97466,-0.19593,0.0,2023,6,7,12,14,33,230
39.14120,0.08662,0.06912,0.00000,0.02977,0.97576,-0.19654,0.0,2023,6,7,12,14,33,240
39.14130,0.10412,0.06912,0.00000,0.02696,0.97429,-0.19422,0.0,2023,6,7,12,14,33,250
39.14140,0.12162,-0.26338,0.00000,0.02977,0.97722,-0.19569,0.0,2023,6,7,12,14,33,260
39.14150,0.05162,-0.01838,0.00000,0.02904,0.97576,-0.19471,0.0,2023,6,7,12,14,33,270
39.14160,0.15662,-0.00088,0.00000,0.02879,0.97454,-0.19471,0.0,2023,6,7,12,14,33,280
39.14170,0.05162,0.03412,0.00000,0.02782,0.97612,-0.19813,0.0,2023,6,7,12,14,33,290
39.14180,0.01662,0.13912,0.00000,0.02806,0.97527,-0.19581,0.0,2023,6,7,12,14,33,300
39.14190,0.10412,-0.12338,0.00000,0.02855,0.97502,-0.19740,0.0,2023,6,7,12,14,33,310
39.14200,0.03412,-0.12338,0.00000,0.02733,0.97490,-0.19520,0.0,2023,6,7,12,14,33,320
39.14210,0.01662,0.19162,0.00000,0.02721,0.97795,-0.19593,0.0,2023,6,7,12,14,33,330
39.14220,0.12162,-0.05338,0.00000,0.03013,0.97637,-0.19630,0.0,2023,6,7,12,14,33,340
39.14230,-0.03588,-0.29838,0.00000,0.02672,0.97515,-0.19557,0.0,2023,6,7,12,14,33,350
39.14240,-0.14088,-0.10588,0.00000,0.02733,0.97795,-0.19532,0.0,2023,6,7,12,14,33,360
39.14250,0.12162,-0.21088,0.00000,0.02867,0.97612,-0.19605,0.0,2023,6,7,12,14,33,370
39.14260,-0.14088,-0.10588,0.00000,0.03099,0.97807,-0.19654,0.0,2023,6,7,12,14,33,380
39.14270,0.03412,0.20912,0.00000,0.02904,0.97502,-0.19532,0.0,2023,6,7,12,14,33,390
39.14280,0.06912,0.08662,0.00000,0.03013,0.97673,-0.19788,0.0,2023,6,7,12,14,33,400
39.14290,0.26162,-0.22838,0.00000,0.02794,0.97698,-0.19544,0.0,2023,6,7,12,14,33,410
39.14300,0.08662,0.13912,0.00000,0.02818,0.97539,-0.19508,0.0,2023,6,7,12,14,33,420
39.14310,0.24412,-0.15838,0.00000,0.02806,0.97319,-0.19581,0.0,2023,6,7,12,14,33,430
39.14320,0.03412,-0.05338,0.00000,0.02916,0.97612,-0.19715,0.0,2023,6,7,12,14,33,440
39.14330,-0.10588,-0.19338,0.00000,0.02721,0.97685,-0.19691,0.0,2023,6,7,12,14,33,450
39.14340,-0.10588,0.08662,0.00000,0.03001,0.97673,-0.19740,0.0,2023,6,7,12,14,33,460
39.14350,0.17412,-0.03588,0.00000,0.02794,0.97527,-0.19630,0.0,2023,6,7,12,14,33,470
39.14360,-0.01838,-0.00088,0.00000,0.03001,0.97649,-0.19422,0.0,2023,6,7,12,14,33,480
39.14370,0.13912,-0.19338,0.00000,0.02745,0.97539,-0.19593,0.0,2023,6,7,12,14,33,490
39.14380,-0.00088,0.13912,0.00000,0.02623,0.97685,-0.19703,0.0,2023,6,7,12,14,33,500
39.14390,-0.01838,-0.03588,0.00000,0.03026,0.97576,-0.19715,0.0,2023,6,7,12,14,33,510
39.14400,0.06912,0.05162,0.00000,0.02806,0.97539,-0.19593,0.0,2023,6,7,12,14,33,520
39.14410,0.06912,0.20912,0.00000,0.02721,0.97637,-0.19666,0.0,2023,6,7,12,14,33,530
39.14420,0.22662,0.03412,0.00000,0.03026,0.97722,-0.19386,0.0,2023,6,7,12,14,33,540
39.14430,0.13912,0.08662,0.00000,0.02891,0.97722,-0.19361,0.0,2023,6,7,12,14,33,550
39.14440,-0.00088,0.13912,0.00000,0.02586,0.97466,-0.19642,0.0,2023,6,7,12,14,33,560
39.14450,-0.12338,0.01662,0.00000,0.02965,0.97673,-0.19520,0.0,2023,6,7,12,14,33,570
39.14460,0.15662,-0.05338,0.00000,0.02916,0.97685,-0.19630,0.0,2023,6,7,12,14,33,580
39.14470,0.13912,0.03412,0.00000,0.02977,0.97734,-0.19654,0.0,2023,6,7,12,14,33,590
39.14480,0.05162,0.19162,0.00000,0.03038,0.97380,-0.19642,0.0,2023,6,7,12,14,33,600
39.14490,0.03412,-0.10588,0.00000,0.02965,0.97576,-0.19520,0.0,2023,6,7,12,14,33,610
39.14500,0.05162,-0.14088,0.00000,0.02769,0.97600,-0.19557,0.0,2023,6,7,12,14,33,620
39.14510,-0.10588,-0.14088,0.00000,0.02782,0.97551,-0.19544,0.0,2023,6,7,12,14,33,630
39.14520,-0.15838,0.20912,0.00000,0.02684,0.97685,-0.19557,0.0,2023,6,7,12,14,33,640
39.14530,0.06912,-0.19338,0.00000,0.02806,0.97576,-0.19557,0.0,2023,6,7,12,14,33,650
39.14540,-0.19338,-0.00088,0.00000,0.02940,0.97710,-0.19691,0.0,2023,6,7,12,14,33,660
39.14550,0.03412,0.15662,0.00000,0.02965,0.97588,-0.19715,0.0,2023,6,7,12,14,33,670
39.14560,-0.08838,0.03412,0.00000,0.02891,0.97429,-0.19557,0.0,2023,6,7,12,14,33,680
39.14570,-0.07088,-0.10588,0.00000,0.03013,0.97539,-0.19544,0.0,2023,6,7,12,14,33,690
39.14580,-0.00088,0.06912,0.00000,0.02965,0.97515,-0.19422,0.0,2023,6,7,12,14,33,700
39.14590,0.15662,-0.05338,0.00000,0.02891,0.97722,-0.19776,0.0,2023,6,7,12,14,33,710
39.14600,-0.00088,-0.19338,0.00000,0.02952,0.97612,-0.19679,0.0,2023,6,7,12,14,33,720
39.14610,0.06912,-0.19338,0.00000,0.02940,0.97429,-0.19605,0.0,2023,6,7,12,14,33,730
39.14620,-0.07088,0.06912,0.00000,0.02904,0.97966,-0.19581,0.0,2023,6,7,12,14,33,740
39.14630,0.08662,-0.29838,0.00000,0.03026,0.97393,-0.19886,0.0,2023,6,7,12,14,33,750
39.14640,-0.12338,-0.10588,0.00000,0.02684,0.97576,-0.19435,0.0,2023,6,7,12,14,33,760
39.14650,0.05162,-0.21088,0.00000,0.02916,0.97734,-0.19666,0.0,2023,6,7,12,14,33,770
39.14660,-0.07088,0.12162,0.00000,0.03135,0.97466,-0.19642,0.0,2023,6,7,12,14,33,780
39.14670,-0.15838,0.20912,0.00000,0.02940,0.97673,-0.19654,0.0,2023,6,7,12,14,33,790
39.14680,-0.15838,0.15662,0.00000,0.02769,0.97649,-0.19703,0.0,2023,6,7,12,14,33,800
39.14690,0.05162,0.10412,0.00000,0.02843,0.97673,-0.19788,0.0,2023,6,7,12,14,33,810
39.14700,-0.10588,0.10412,0.00000,0.02904,0.97490,-0.19605,0.0,2023,6,7,12,14,33,820
39.14710,0.08662,-0.03588,0.00000,0.02586,0.97466,-0.19654,0.0,2023,6,7,12,14,33,830
39.14720,-0.03588,0.06912,0.00000,0.02757,0.97649,-0.19654,0.0,2023,6,7,12,14,33,840
39.14730,0.12162,-0.01838,0.00000,0.02843,0.97441,-0.19581,0.0,2023,6,7,12,14,33,850
39.14740,-0.10588,-0.05338,0.00000,0.02843,0.97820,-0.19557,0.0,2023,6,7,12,14,33,860
39.14750,-0.00088,0.06912,0.00000,0.02599,0.97563,-0.19874,0.0,2023,6,7,12,14,33,870
39.14760,0.05162,0.01662,0.00000,0.03001,0.97649,-0.19557,0.0,2023,6,7,12,14,33,880
39.14770,0.06912,-0.24588,0.00000,0.02940,0.97661,-0.19496,0.0,2023,6,7,12,14,33,890
39.14780,-0.24588,0.01662,0.00000,0.02940,0.97612,-0.19715,0.0,2023,6,7,12,14,33,900
39.14790,-0.10588,0.01662,0.00000,0.02989,0.97454,-0.19483,0.0,2023,6,7,12,14,33,910
39.14800,-0.14088,0.05162,0.00000,0.02843,0.97588,-0.19471,0.0,2023,6,7,12,14,33,920
39.14810,-0.05338,-0.05338,0.00000,0.02916,0.97710,-0.19630,0.0,2023,6,7,12,14,33,930
39.14820,0.10412,-0.05338,0.00000,0.02830,0.97319,-0.19569,0.0,2023,6,7,12,14,33,940
39.14830,-0.00088,-0.24588,0.00000,0.02965,0.97588,-0.19605,0.0,2023,6,7,12,14,33,950
39.14840,-0.14088,0.15662,0.00000,0.02769,0.97441,-0.19630,0.0,2023,6,7,12,14,33,960
39.14850,-0.07088,-0.03588,0.00000,0.02904,0.97454,-0.19618,0.0,2023,6,7,12,14,33,970
39.14860,0.03412,-0.21088,0.00000,0.02733,0.97588,-0.19618,0.0,2023,6,7,12,14,33,980
39.14870,-0.03588,-0.03588,0.00000,0.02965,0.97685,-0.19642,0.0,2023,6,7,12,14,33,990
39.14880,0.06912,-0.10588,0.00000,0.02806,0.97710,-0.19618,0.0,2023,6,7,12,14,33,0
39.14890,0.03412,0.08662,0.00000,0.02989,0.97417,-0.19740,0.0,2023,6,7,12,14,33,10
39.14900,0.10412,-0.10588,0.00000,0.02635,0.97685,-0.19496,0.0,2023,6,7,12,14,33,20
39.14910,-0.00088,0.12162,0.00000,0.02855,0.97795,-0.19837,0.0,2023,6,7,12,14,33,30
39.14920,-0.07088,0.13912,0.00000,0.03013,0.97271,-0.19422,0.0,2023,6,7,12,14,33,40
39.14930,-0.07088,-0.07088,0.00000,0.02879,0.97600,-0.19544,0.0,2023,6,7,12,14,33,50
39.14940,0.01662,-0.00088,0.00000,0.02745,0.97417,-0.19849,0.0,2023,6,7,12,14,33,60
39.14950,-0.01838,-0.01838,0.00000,0.03038,0.97710,-0.19471,0.0,2023,6,7,12,14,34,70
39.14960,0.06912,-0.08838,0.00000,0.02916,0.97588,-0.19447,0.0,2023,6,7,12,14,34,80
39.14970,-0.08838,0.01662,0.00000,0.02757,0.97661,-0.19679,0.0,2023,6,7,12,14,34,90
39.14980,-0.03588,-0.07088,0.00000,0.02708,0.97612,-0.19630,0.0,2023,6,7,12,14,34,100
39.14990,0.15662,0.12162,0.00000,0.02855,0.97441,-0.19666,0.0,2023,6,7,12,14,34,110
39.15000,-0.07088,0.01662,0.00000,0.02769,0.97466,-0.19874,0.0,2023,6,7,12,14,34,120
39.15010,-0.05338,-0.10588,0.00000,0.02806,0.97393,-0.19715,0.0,2023,6,7,12,14,34,130
39.15020,-0.00088,0.01662,0.00000,0.02904,0.97746,-0.19666,0.0,2023,6,7,12,14,34,140
39.15030,0.01662,-0.03588,0.00000,0.02855,0.97661,-0.19618,0.0,2023,6,7,12,14,34,150
39.15040,0.10412,-0.00088,0.00000,0.03099,0.97698,-0.19642,0.0,2023,6,7,12,14,34,160
39.15050,-0.03588,-0.24588,0.00000,0.02916,0.97637,-0.19654,0.0,2023,6,7,12,14,34,170
39.15060,-0.00088,-0.15838,0.00000,0.02843,0.97722,-0.19581,0.0,2023,6,7,12,14,34,180
39.15070,-0.00088,0.05162,0.00000,0.02891,0.97868,-0.19727,0.0,2023,6,7,12,14,34,190
39.15080,0.17412,-0.00088,0.00000,0.02879,0.97673,-0.19471,0.0,2023,6,7,12,14,34,200
39.15090,-0.17588,-0.03588,0.00000,0.02989,0.97820,-0.19679,0.0,2023,6,7,12,14,34,210
39.15100,-0.15838,-0.10588,0.00000,0.03074,0.97685,-0.19642,0.0,2023,6,7,12,14,34,220
39.15110,-0.03588,0.05162,0.00000,0.02977,0.97563,-0.19398,0.0,2023,6,7,12,14,34,230
39.15120,0.12162,-0.21088,0.00000,0.02977,0.97771,-0.19496,0.0,2023,6,7,12,14,34,240
39.15130,-0.03588,-0.10588,0.00000,0.02879,0.97637,-0.19691,0.0,2023,6,7,12,14,34,250
39.15140,-0.19338,0.08662,0.00000,0.02891,0.97246,-0.19618,0.0,2023,6,7,12,14,34,260
39.15150,-0.21088,0.33162,0.00000,0.02940,0.97405,-0.19508,0.0,2023,6,7,12,14,34,270
39.15160,-0.00088,0.06912,0.00000,0.02672,0.97502,-0.19581,0.0,2023,6,7,12,14,34,280
39.15170,0.01662,-0.05338,0.00000,0.02806,0.97807,-0.19508,0.0,2023,6,7,12,14,34,290
39.15180,-0.08838,-0.17588,0.00000,0.02867,0.97551,-0.19593,0.0,2023,6,7,12,14,34,300
39.15190,-0.24588,0.17412,0.00000,0.02684,0.97820,-0.19557,0.0,2023,6,7,12,14,34,310
39.15200,-0.17588,-0.05338,0.00000,0.02977,0.97478,-0.19593,0.0,2023,6,7,12,14,34,320
39.15210,-0.03588,0.03412,0.00000,0.02843,0.97685,-0.19459,0.0,2023,6,7,12,14,34,330
39.15220,0.06912,-0.05338,0.00000,0.02830,0.97588,-0.19654,0.0,2023,6,7,12,14,34,340
39.15230,0.05162,0.05162,0.00000,0.02855,0.97698,-0.19544,0.0,2023,6,7,12,14,34,350
39.15240,0.06912,0.01662,0.00000,0.02672,0.97441,-0.19447,0.0,2023,6,7,12,14,34,360
39.15250,0.10412,0.08662,0.00000,0.03001,0.97661,-0.19532,0.0,2023,6,7,12,14,34,370
39.15260,-0.10588,-0.10588,0.00000,0.02782,0.97405,-0.19618,0.0,2023,6,7,12,14,34,380
39.15270,0.12162,0.17412,0.00000,0.02721,0.97844,-0.19764,0.0,2023,6,7,12,14,34,390
39.15280,-0.01838,0.19162,0.00000,0.03013,0.97527,-0.19337,0.0,2023,6,7,12,14,34,400
39.15290,0.19162,-0.28088,0.00000,0.02940,0.97466,-0.19422,0.0,2023,6,7,12,14,34,410
39.15300,0.19162,0.10412,0.00000,0.02940,0.97637,-0.19642,0.0,2023,6,7,12,14,34,420
39.15310,-0.00088,-0.00088,0.00000,0.02794,0.97588,-0.19471,0.0,2023,6,7,12,14,34,430
39.15320,-0.03588,0.01662,0.00000,0.02904,0.97502,-0.19459,0.0,2023,6,7,12,14,34,440
39.15330,-0.05338,0.03412,0.00000,0.02843,0.97881,-0.19520,0.0,2023,6,7,12,14,34,450
39.15340,0.01662,-0.01838,0.00000,0.02733,0.97429,-0.19557,0.0,2023,6,7,12,14,34,460
39.15350,0.03412,0.03412,0.00000,0.02989,0.97722,-0.19532,0.0,2023,6,7,12,14,34,470
39.15360,0.03412,0.05162,0.00000,0.03001,0.97466,-0.19459,0.0,2023,6,7,12,14,34,480
39.15370,-0.07088,0.03412,0.00000,0.02989,0.97673,-0.19618,0.0,2023,6,7,12,14,34,490
39.15380,0.19162,0.08662,0.00000,0.02916,0.97563,-0.19557,0.0,2023,6,7,12,14,34,500
39.15390,0.10412,-0.03588,0.00000,0.03050,0.97673,-0.19618,0.0,2023,6,7,12,14,34,510
39.15400,-0.01838,-0.17588,0.00000,0.02672,0.97795,-0.19459,0.0,2023,6,7,12,14,34,520
39.15410,-0.07088,0.10412,0.00000,0.02745,0.97368,-0.19532,0.0,2023,6,7,12,14,34,530
39.15420,-0.10588,0.01662,0.00000,0.02904,0.97722,-0.19654,0.0,2023,6,7,12,14,34,540
39.15430,-0.05338,-0.00088,0.00000,0.03001,0.97441,-0.19532,0.0,2023,6,7,12,14,34,550
39.15440,-0.05338,-0.08838,0.00000,0.02965,0.97856,-0.19691,0.0,2023,6,7,12,14,34,560
39.15450,-0.01838,0.03412,0.00000,0.03013,0.97661,-0.19532,0.0,2023,6,7,12,14,34,570
39.15460,0.06912,0.06912,0.00000,0.02989,0.97771,-0.19483,0.0,2023,6,7,12,14,34,580
39.15470,-0.00088,-0.08838,0.00000,0.03026,0.97722,-0.19300,0.0,2023,6,7,12,14,34,590
39.15480,-0.12338,-0.03588,0.00000,0.02989,0.97515,-0.19727,0.0,2023,6,7,12,14,34,600
39.15490,0.15662,0.03412,0.00000,0.02989,0.97527,-0.19520,0.0,2023,6,7,12,14,34,610
39.15500,-0.12338,0.08662,0.00000,0.02904,0.97417,-0.19410,0.0,2023,6,7,12,14,34,620
39.15510,-0.10588,0.12162,0.00000,0.03013,0.97588,-0.19447,0.0,2023,6,7,12,14,34,630
39.15520,0.12162,-0.01838,0.00000,0.02721,0.97661,-0.19910,0.0,2023,6,7,12,14,34,640
39.15530,0.15662,-0.08838,0.00000,0.03123,0.97502,-0.19666,0.0,2023,6,7,12,14,34,650
39.15540,-0.17588,0.12162,0.00000,0.03038,0.97563,-0.19618,0.0,2023,6,7,12,14,34,660
39.15550,0.08662,0.12162,0.00000,0.03148,0.97429,-0.19410,0.0,2023,6,7,12,14,34,670
39.15560,0.01662,-0.05338,0.00000,0.02855,0.97637,-0.19361,0.0,2023,6,7,12,14,34,680
39.15570,0.03412,0.06912,0.00000,0.02867,0.97710,-0.19422,0.0,2023,6,7,12,14,34,690
39.15580,-0.03588,-0.10588,0.00000,0.03074,0.97832,-0.19374,0.0,2023,6,7,12,14,34,700
39.15590,-0.01838,-0.07088,0.00000,0.02989,0.97746,-0.19288,0.0,2023,6,7,12,14,34,710
39.15600,0.19162,0.01662,0.00000,0.02782,0.97393,-0.19813,0.0,2023,6,7,12,14,34,720
39.15610,-0.01838,-0.10588,0.00000,0.03026,0.97673,-0.19276,0.0,2023,6,7,12,14,34,730
39.15620,-0.07088,0.01662,0.00000,0.02769,0.97771,-0.19435,0.0,2023,6,7,12,14,34,740
39.15630,0.01662,0.15662,0.00000,0.02757,0.97685,-0.19557,0.0,2023,6,7,12,14,34,750
39.15640,0.01662,-0.12338,0.00000,0.02745,0.97515,-0.19447,0.0,2023,6,7,12,14,34,760
39.15650,-0.08838,-0.05338,0.00000,0.02745,0.97515,-0.19337,0.0,2023,6,7,12,14,34,770
39.15660,0.05162,-0.01838,0.00000,0.02904,0.97710,-0.19581,0.0,2023,6,7,12,14,34,780
39.15670,0.05162,-0.10588,0.00000,0.02782,0.97673,-0.19642,0.0,2023,6,7,12,14,34,790
39.15680,0.03412,0.19162,0.00000,0.02757,0.97527,-0.19447,0.0,2023,6,7,12,14,34,800
39.15690,0.06912,0.12162,0.00000,0.02708,0.97429,-0.19337,0.0,2023,6,7,12,14,34,810
39.15700,-0.01838,-0.01838,0.00000,0.03013,0.97746,-0.19557,0.0,2023,6,7,12,14,34,820
39.15710,-0.05338,-0.03588,0.00000,0.02879,0.97527,-0.19593,0.0,2023,6,7,12,14,34,830
39.15720,0.12162,-0.12338,0.00000,0.02757,0.97673,-0.19459,0.0,2023,6,7,12,14,34,840
39.15730,-0.01838,0.01662,0.00000,0.02916,0.97588,-0.19410,0.0,2023,6,7,12,14,34,850
39.15740,-0.05338,0.03412,0.00000,0.03074,0.97429,-0.19337,0.0,2023,6,7,12,14,34,860
39.15750,0.13912,0.01662,0.00000,0.03074,0.97478,-0.19447,0.0,2023,6,7,12,14,34,870
39.15760,0.05162,-0.21088,0.00000,0.03062,0.97527,-0.19386,0.0,2023,6,7,12,14,34,880
39.15770,-0.08838,-0.07088,0.00000,0.02757,0.97454,-0.19337,0.0,2023,6,7,12,14,34,890
39.15780,-0.10588,0.13912,0.00000,0.02855,0.97527,-0.19691,0.0,2023,6,7,12,14,34,900
39.15790,-0.14088,0.12162,0.00000,0.02843,0.97649,-0.19691,0.0,2023,6,7,12,14,34,910
39.15800,-0.15838,-0.03588,0.00000,0.02891,0.97405,-0.19679,0.0,2023,6,7,12,14,34,920
39.15810,0.12162,0.01662,0.00000,0.02806,0.97441,-0.19520,0.0,2023,6,7,12,14,34,930
39.15820,0.08662,0.24412,0.00000,0.02794,0.97319,-0.19313,0.0,2023,6,7,12,14,34,940
39.15830,0.12162,0.22662,0.00000,0.02940,0.97954,-0.19764,0.0,2023,6,7,12,14,34,950
39.15840,0.06912,-0.07088,0.00000,0.02965,0.97771,-0.19557,0.0,2023,6,7,12,14,34,960
39.15850,0.06912,0.10412,0.00000,0.02708,0.97502,-0.19557,0.0,2023,6,7,12,14,35,970
39.15860,0.03412,-0.07088,0.00000,0.02623,0.97576,-0.19679,0.0,2023,6,7,12,14,35,980
39.15870,0.10412,-0.00088,0.00000,0.02916,0.97551,-0.19654,0.0,2023,6,7,12,14,35,990
39.15880,-0.01838,-0.08838,0.00000,0.03074,0.97637,-0.19410,0.0,2023,6,7,12,14,35,0
39.15890,0.06912,-0.07088,0.00000,0.02806,0.97612,-0.19410,0.0,2023,6,7,12,14,35,10
39.15900,-0.10588,0.31412,0.00000,0.03087,0.97710,-0.19654,0.0,2023,6,7,12,14,35,20
39.15910,-0.15838,0.01662,0.00000,0.03062,0.97795,-0.19581,0.0,2023,6,7,12,14,35,30
39.15920,-0.03588,-0.17588,0.00000,0.03087,0.97746,-0.19313,0.0,2023,6,7,12,14,35,40
39.15930,0.08662,-0.05338,0.00000,0.02806,0.97490,-0.19642,0.0,2023,6,7,12,14,35,50
39.15940,-0.10588,0.17412,0.00000,0.02721,0.97551,-0.19447,0.0,2023,6,7,12,14,35,60
39.15950,-0.08838,-0.01838,0.00000,0.02782,0.97515,-0.19581,0.0,2023,6,7,12,14,35,70
39.15960,0.15662,0.01662,0.00000,0.03013,0.97722,-0.19386,0.0,2023,6,7,12,14,35,80
39.15970,0.01662,-0.03588,0.00000,0.02855,0.97600,-0.19654,0.0,2023,6,7,12,14,35,90
39.15980,-0.15838,0.22662,0.00000,0.02977,0.97588,-0.19605,0.0,2023,6,7,12,14,35,100
39.15990,-0.07088,0.03412,0.00000,0.02818,0.97466,-0.19459,0.0,2023,6,7,12,14,35,110
39.16000,-0.07088,0.10412,0.00000,0.02733,0.97515,-0.19740,0.0,2023,6,7,12,14,35,120
39.16010,-0.00088,0.01662,0.00000,0.02806,0.97441,-0.19605,0.0,2023,6,7,12,14,35,130
39.16020,0.08662,-0.07088,0.00000,0.02891,0.97454,-0.19422,0.0,2023,6,7,12,14,35,140
39.16030,0.15662,-0.17588,0.00000,0.02952,0.97551,-0.19557,0.0,2023,6,7,12,14,35,150
39.16040,0.08662,0.01662,0.00000,0.02904,0.97466,-0.19520,0.0,2023,6,7,12,14,35,160
39.16050,-0.03588,0.05162,0.00000,0.02708,0.97637,-0.19569,0.0,2023,6,7,12,14,35,170
39.16060,0.13912,-0.21088,0.00000,0.02745,0.97576,-0.19715,0.0,2023,6,7,12,14,35,180
39.16070,0.03412,-0.07088,0.00000,0.02745,0.97637,-0.19447,0.0,2023,6,7,12,14,35,190
39.16080,0.08662,0.06912,0.00000,0.02696,0.97783,-0.19459,0.0,2023,6,7,12,14,35,200
39.16090,-0.12338,-0.01838,0.00000,0.02879,0.97551,-0.19581,0.0,2023,6,7,12,14,35,210
39.16100,0.05162,0.01662,0.00000,0.02806,0.97466,-0.19630,0.0,2023,6,7,12,14,35,220
39.16110,0.06912,-0.07088,0.00000,0.02952,0.97380,-0.19557,0.0,2023,6,7,12,14,35,230
39.16120,-0.00088,-0.05338,0.00000,0.03001,0.97515,-0.19654,0.0,2023,6,7,12,14,35,240
39.16130,0.03412,0.08662,0.00000,0.02891,0.97478,-0.19374,0.0,2023,6,7,12,14,35,250
39.16140,-0.14088,0.06912,0.00000,0.02757,0.97441,-0.19508,0.0,2023,6,7,12,14,35,260
39.16150,-0.03588,-0.10588,0.00000,0.02745,0.97344,-0.19435,0.0,2023,6,7,12,14,35,270
39.16160,0.05162,-0.07088,0.00000,0.02879,0.97820,-0.19618,0.0,2023,6,7,12,14,35,280
39.16170,-0.07088,0.24412,0.00000,0.02708,0.97551,-0.19508,0.0,2023,6,7,12,14,35,290
39.16180,-0.12338,0.12162,0.00000,0.02818,0.97527,-0.19435,0.0,2023,6,7,12,14,35,300
39.16190,-0.17588,-0.10588,0.00000,0.02794,0.97624,-0.19361,0.0,2023,6,7,12,14,35,310
39.16200,0.03412,-0.03588,0.00000,0.02806,0.97466,-0.19715,0.0,2023,6,7,12,14,35,320
39.16210,-0.00088,-0.14088,0.00000,0.02806,0.97478,-0.19764,0.0,2023,6,7,12,14,35,330
39.16220,-0.00088,-0.17588,0.00000,0.03013,0.97612,-0.19532,0.0,2023,6,7,12,14,35,340
39.16230,-0.07088,-0.01838,0.00000,0.03026,0.97685,-0.19276,0.0,2023,6,7,12,14,35,350
39.16240,0.10412,0.03412,0.00000,0.02830,0.97612,-0.19618,0.0,2023,6,7,12,14,35,360
39.16250,0.01662,0.08662,0.00000,0.02867,0.97588,-0.19605,0.0,2023,6,7,12,14,35,370
39.16260,0.13912,0.17412,0.00000,0.03123,0.97710,-0.19520,0.0,2023,6,7,12,14,35,380
39.16270,0.12162,0.03412,0.00000,0.02806,0.97649,-0.19618,0.0,2023,6,7,12,14,35,390
39.16280,-0.12338,-0.00088,0.00000,0.02928,0.97832,-0.19618,0.0,2023,6,7,12,14,35,400
39.16290,-0.26338,-0.00088,0.00000,0.02696,0.97417,-0.19471,0.0,2023,6,7,12,14,35,410
39.16300,-0.12338,0.17412,0.00000,0.02928,0.97673,-0.19349,0.0,2023,6,7,12,14,35,420
39.16310,-0.22838,0.20912,0.00000,0.02794,0.97624,-0.19532,0.0,2023,6,7,12,14,35,430
39.16320,0.05162,0.03412,0.00000,0.03026,0.97393,-0.19435,0.0,2023,6,7,12,14,35,440
39.16330,0.06912,-0.12338,0.00000,0.02904,0.97746,-0.19605,0.0,2023,6,7,12,14,35,450
39.16340,-0.01838,0.03412,0.00000,0.02830,0.97454,-0.19398,0.0,2023,6,7,12,14,35,460
39.16350,0.08662,-0.15838,0.00000,0.03013,0.97441,-0.19569,0.0,2023,6,7,12,14,35,470
39.16360,0.05162,-0.12338,0.00000,0.03257,0.97502,-0.19593,0.0,2023,6,7,12,14,35,480
39.16370,0.10412,0.08662,0.00000,0.02904,0.97624,-0.19752,0.0,2023,6,7,12,14,35,490
39.16380,-0.07088,0.03412,0.00000,0.02684,0.97881,-0.19630,0.0,2023,6,7,12,14,35,500
39.16390,0.17412,-0.01838,0.00000,0.02721,0.97600,-0.19386,0.0,2023,6,7,12,14,35,510
39.16400,-0.15838,0.15662,0.00000,0.02879,0.97649,-0.19252,0.0,2023,6,7,12,14,35,520
39.16410,0.19162,0.08662,0.00000,0.03184,0.97539,-0.19422,0.0,2023,6,7,12,14,35,530
39.16420,-0.03588,-0.08838,0.00000,0.02843,0.97746,-0.19532,0.0,2023,6,7,12,14,35,540
39.16430,0.15662,-0.10588,0.00000,0.03050,0.97649,-0.19386,0.0,2023,6,7,12,14,35,550
39.16440,-0.05338,0.06912,0.00000,0.02867,0.97515,-0.19679,0.0,2023,6,7,12,14,35,560
39.16450,0.13912,-0.08838,0.00000,0.02769,0.97637,-0.19691,0.0,2023,6,7,12,14,35,570
39.16460,-0.03588,-0.03588,0.00000,0.02867,0.97759,-0.19496,0.0,2023,6,7,12,14,35,580
39.16470,0.06912,-0.15838,0.00000,0.02891,0.97807,-0.19447,0.0,2023,6,7,12,14,35,590
39.16480,-0.01838,0.19162,0.00000,0.02611,0.97612,-0.19618,0.0,2023,6,7,12,14,35,600
39.16490,-0.12338,-0.03588,0.00000,0.03013,0.97551,-0.19691,0.0,2023,6,7,12,14,35,610
39.16500,-0.05338,-0.07088,0.00000,0.02757,0.97600,-0.19496,0.0,2023,6,7,12,14,35,620
39.16510,0.13912,-0.19338,0.00000,0.03001,0.97527,-0.19569,0.0,2023,6,7,12,14,35,630
39.16520,0.06912,-0.12338,0.00000,0.03001,0.97868,-0.19532,0.0,2023,6,7,12,14,35,640
39.16530,0.05162,0.10412,0.00000,0.02891,0.97551,-0.19483,0.0,2023,6,7,12,14,35,650
39.16540,-0.03588,-0.01838,0.00000,0.03062,0.97881,-0.19605,0.0,2023,6,7,12,14,35,660
39.16550,0.01662,-0.10588,0.00000,0.02818,0.97771,-0.19520,0.0,2023,6,7,12,14,35,670
39.16560,0.06912,-0.17588,0.00000,0.02916,0.97539,-0.19435,0.0,2023,6,7,12,14,35,680
39.16570,0.13912,-0.01838,0.00000,0.02904,0.97734,-0.19337,0.0,2023,6,7,12,14,35,690
39.16580,0.12162,0.05162,0.00000,0.02916,0.97746,-0.19520,0.0,2023,6,7,12,14,35,700
39.16590,0.20912,0.05162,0.00000,0.02855,0.97466,-0.19752,0.0,2023,6,7,12,14,35,710
39.16600,0.08662,-0.12338,0.00000,0.02818,0.97393,-0.19581,0.0,2023,6,7,12,14,35,720
39.16610,0.06912,0.08662,0.00000,0.02952,0.97710,-0.19459,0.0,2023,6,7,12,14,35,730
39.16620,0.06912,-0.17588,0.00000,0.02891,0.97576,-0.19630,0.0,2023,6,7,12,14,35,740
39.16630,-0.00088,-0.15838,0.00000,0.03013,0.97441,-0.19654,0.0,2023,6,7,12,14,35,750
39.16640,-0.21088,0.24412,0.00000,0.02879,0.97563,-0.19532,0.0,2023,6,7,12,14,35,760
39.16650,-0.00088,-0.05338,0.00000,0.02769,0.97344,-0.19581,0.0,2023,6,7,12,14,35,770
39.16660,-0.08838,0.10412,0.00000,0.02904,0.97588,-0.19654,0.0,2023,6,7,12,14,35,780
39.16670,-0.05338,0.08662,0.00000,0.02855,0.97441,-0.19691,0.0,2023,6,7,12,14,35,790
39.16680,-0.08838,0.08662,0.00000,0.02891,0.97600,-0.19325,0.0,2023,6,7,12,14,35,800
39.16690,0.17412,0.03412,0.00000,0.02904,0.97441,-0.19422,0.0,2023,6,7,12,14,35,810
39.16700,0.05162,0.01662,0.00000,0.03074,0.97759,-0.19618,0.0,2023,6,7,12,14,35,820
39.16710,0.05162,0.06912,0.00000,0.02928,0.97905,-0.19605,0.0,2023,6,7,12,14,35,830
39.16720,-0.14088,0.24412,0.00000,0.03026,0.97478,-0.19374,0.0,2023,6,7,12,14,35,840
39.16730,-0.03588,0.01662,0.00000,0.02904,0.97551,-0.19483,0.0,2023,6,7,12,14,35,850
39.16740,0.10412,-0.21088,0.00000,0.02855,0.97466,-0.19374,0.0,2023,6,7,12,14,35,860
39.16750,-0.01838,-0.10588,0.00000,0.02733,0.97807,-0.19520,0.0,2023,6,7,12,14,36,870
39.16760,0.15662,0.08662,0.00000,0.02904,0.97722,-0.19471,0.0,2023,6,7,12,14,36,880
39.16770,0.01662,0.06912,0.00000,0.02904,0.97783,-0.19288,0.0,2023,6,7,12,14,36,890
39.16780,-0.14088,-0.00088,0.00000,0.02916,0.97600,-0.19459,0.0,2023,6,7,12,14,36,900
39.16790,-0.00088,0.06912,0.00000,0.02879,0.97637,-0.19581,0.0,2023,6,7,12,14,36,910
39.16800,0.01662,-0.15838,0.00000,0.02623,0.97990,-0.19581,0.0,2023,6,7,12,14,36,920
39.16810,-0.03588,0.03412,0.00000,0.03135,0.97600,-0.19447,0.0,2023,6,7,12,14,36,930
39.16820,-0.10588,0.06912,0.00000,0.02928,0.97746,-0.19361,0.0,2023,6,7,12,14,36,940
39.16830,-0.26338,0.19162,0.00000,0.02952,0.97515,-0.19325,0.0,2023,6,7,12,14,36,950
39.16840,-0.10588,-0.17588,0.00000,0.03038,0.97600,-0.19422,0.0,2023,6,7,12,14,36,960
39.16850,-0.05338,0.01662,0.00000,0.02757,0.97502,-0.19642,0.0,2023,6,7,12,14,36,970
39.16860,0.01662,0.03412,0.00000,0.02904,0.97624,-0.19447,0.0,2023,6,7,12,14,36,980
39.16870,0.01662,0.03412,0.00000,0.02940,0.97649,-0.19483,0.0,2023,6,7,12,14,36,990
39.16880,-0.14088,-0.03588,0.00000,0.02782,0.97478,-0.19349,0.0,2023,6,7,12,14,36,0
39.16890,0.15662,0.05162,0.00000,0.02818,0.97783,-0.19642,0.0,2023,6,7,12,14,36,10
39.16900,-0.03588,0.10412,0.00000,0.02794,0.97502,-0.19886,0.0,2023,6,7,12,14,36,20
39.16910,0.05162,0.05162,0.00000,0.02806,0.97429,-0.19557,0.0,2023,6,7,12,14,36,30
39.16920,0.10412,0.01662,0.00000,0.02794,0.97539,-0.19508,0.0,2023,6,7,12,14,36,40
39.16930,0.05162,-0.01838,0.00000,0.02867,0.97539,-0.19313,0.0,2023,6,7,12,14,36,50
39.16940,0.15662,-0.00088,0.00000,0.02904,0.97722,-0.19605,0.0,2023,6,7,12,14,36,60
39.16950,-0.15838,0.22662,0.00000,0.02757,0.97502,-0.19642,0.0,2023,6,7,12,14,36,70
39.16960,0.10412,-0.15838,0.00000,0.02818,0.97502,-0.19520,0.0,2023,6,7,12,14,36,80
39.16970,-0.00088,-0.14088,0.00000,0.02928,0.97649,-0.19496,0.0,2023,6,7,12,14,36,90
39.16980,-0.01838,0.01662,0.00000,0.02794,0.97478,-0.19605,0.0,2023,6,7,12,14,36,100
39.16990,0.24412,-0.14088,0.00000,0.02928,0.97734,-0.19654,0.0,2023,6,7,12,14,36,110
39.17000,0.01662,0.10412,0.00000,0.02696,0.97405,-0.19825,0.0,2023,6,7,12,14,36,120
39.17010,-0.17588,-0.01838,0.00000,0.02989,0.97722,-0.19447,0.0,2023,6,7,12,14,36,130
39.17020,-0.03588,0.27912,0.00000,0.03026,0.97722,-0.19300,0.0,2023,6,7,12,14,36,140
39.17030,0.01662,-0.10588,0.00000,0.02782,0.97551,-0.19361,0.0,2023,6,7,12,14,36,150
39.17040,0.05162,-0.21088,0.00000,0.02843,0.97649,-0.19557,0.0,2023,6,7,12,14,36,160
39.17050,-0.05338,0.05162,0.00000,0.02745,0.97685,-0.19593,0.0,2023,6,7,12,14,36,170
39.17060,-0.12338,0.10412,0.00000,0.02916,0.97698,-0.19435,0.0,2023,6,7,12,14,36,180
39.17070,-0.08838,0.10412,0.00000,0.02855,0.97698,-0.19374,0.0,2023,6,7,12,14,36,190
39.17080,0.01662,0.10412,0.00000,0.02879,0.97490,-0.19447,0.0,2023,6,7,12,14,36,200
39.17090,0.08662,-0.07088,0.00000,0.02794,0.97490,-0.19727,0.0,2023,6,7,12,14,36,210
39.17100,-0.15838,-0.05338,0.00000,0.02904,0.97441,-0.19569,0.0,2023,6,7,12,14,36,220
39.17110,0.10412,0.05162,0.00000,0.02855,0.97417,-0.19459,0.0,2023,6,7,12,14,36,230
39.17120,0.05162,-0.01838,0.00000,0.02830,0.97612,-0.19618,0.0,2023,6,7,12,14,36,240
39.17130,0.01662,-0.00088,0.00000,0.02952,0.97624,-0.19508,0.0,2023,6,7,12,14,36,250
39.17140,-0.10588,0.01662,0.00000,0.03013,0.97380,-0.19654,0.0,2023,6,7,12,14,36,260
39.17150,-0.07088,0.03412,0.00000,0.03135,0.97588,-0.19618,0.0,2023,6,7,12,14,36,270
39.17160,-0.21088,0.27912,0.00000,0.02794,0.97685,-0.19618,0.0,2023,6,7,12,14,36,280
39.17170,-0.05338,-0.17588,0.00000,0.02965,0.97454,-0.19386,0.0,2023,6,7,12,14,36,290
39.17180,0.06912,-0.12338,0.00000,0.02696,0.97563,-0.19703,0.0,2023,6,7,12,14,36,300
39.17190,-0.03588,0.01662,0.00000,0.02757,0.97454,-0.19410,0.0,2023,6,7,12,14,36,310
39.17200,0.12162,0.05162,0.00000,0.02660,0.97612,-0.19654,0.0,2023,6,7,12,14,36,320
39.17210,-0.05338,-0.05338,0.00000,0.02977,0.97588,-0.19325,0.0,2023,6,7,12,14,36,330
39.17220,0.10412,0.08662,0.00000,0.02952,0.97515,-0.19764,0.0,2023,6,7,12,14,36,340
39.17230,0.15662,-0.29838,0.00000,0.02818,0.97588,-0.19703,0.0,2023,6,7,12,14,36,350
39.17240,0.01662,-0.14088,0.00000,0.02855,0.97576,-0.19691,0.0,2023,6,7,12,14,36,360
39.17250,0.03412,0.20912,0.00000,0.02867,0.97649,-0.19532,0.0,2023,6,7,12,14,36,370
39.17260,-0.08838,-0.05338,0.00000,0.02867,0.97563,-0.19361,0.0,2023,6,7,12,14,36,380
39.17270,-0.05338,-0.19338,0.00000,0.02830,0.97393,-0.19520,0.0,2023,6,7,12,14,36,390
39.17280,-0.05338,0.15662,0.00000,0.02891,0.97478,-0.19435,0.0,2023,6,7,12,14,36,400
39.17290,-0.07088,-0.07088,0.00000,0.02977,0.97759,-0.19679,0.0,2023,6,7,12,14,36,410
39.17300,-0.17588,0.31412,0.00000,0.02891,0.97844,-0.19605,0.0,2023,6,7,12,14,36,420
39.17310,0.01662,0.01662,0.00000,0.02916,0.97405,-0.19386,0.0,2023,6,7,12,14,36,430
39.17320,-0.03588,-0.05338,0.00000,0.02916,0.97698,-0.19813,0.0,2023,6,7,12,14,36,440
39.17330,0.08662,0.01662,0.00000,0.02940,0.97295,-0.19691,0.0,2023,6,7,12,14,36,450
39.17340,0.08662,-0.03588,0.00000,0.02757,0.97588,-0.19557,0.0,2023,6,7,12,14,36,460
39.17350,-0.07088,0.08662,0.00000,0.02952,0.97820,-0.19398,0.0,2023,6,7,12,14,36,470
39.17360,-0.03588,-0.00088,0.00000,0.02965,0.97698,-0.19508,0.0,2023,6,7,12,14,36,480
39.17370,-0.07088,-0.08838,0.00000,0.02940,0.97868,-0.19593,0.0,2023,6,7,12,14,36,490
39.17380,-0.24588,0.29662,0.00000,0.03148,0.97649,-0.19227,0.0,2023,6,7,12,14,36,500
39.17390,0.12162,-0.00088,0.00000,0.02916,0.97820,-0.19666,0.0,2023,6,7,12,14,36,510
39.17400,0.05162,0.08662,0.00000,0.03074,0.97441,-0.19435,0.0,2023,6,7,12,14,36,520
39.17410,-0.01838,-0.08838,0.00000,0.02855,0.97527,-0.19752,0.0,2023,6,7,12,14,36,530
39.17420,-0.01838,0.06912,0.00000,0.02977,0.97515,-0.19520,0.0,2023,6,7,12,14,36,540
39.17430,-0.21088,-0.15838,0.00000,0.02855,0.97759,-0.19557,0.0,2023,6,7,12,14,36,550
39.17440,-0.05338,-0.01838,0.00000,0.02989,0.97600,-0.19618,0.0,2023,6,7,12,14,36,560
39.17450,0.10412,-0.07088,0.00000,0.02977,0.97490,-0.19715,0.0,2023,6,7,12,14,36,570
39.17460,0.06912,-0.33338,0.00000,0.03001,0.97515,-0.19715,0.0,2023,6,7,12,14,36,580
39.17470,-0.07088,-0.00088,0.00000,0.02879,0.97563,-0.19471,0.0,2023,6,7,12,14,36,590
39.17480,0.22662,0.05162,0.00000,0.02769,0.97441,-0.19630,0.0,2023,6,7,12,14,36,600
39.17490,-0.01838,0.03412,0.00000,0.02696,0.97649,-0.19520,0.0,2023,6,7,12,14,36,610
39.17500,0.01662,-0.22838,0.00000,0.02891,0.97539,-0.19374,0.0,2023,6,7,12,14,36,620
39.17510,0.17412,-0.19338,0.00000,0.02794,0.97600,-0.19569,0.0,2023,6,7,12,14,36,630
39.17520,-0.00088,-0.03588,0.00000,0.02879,0.97673,-0.19520,0.0,2023,6,7,12,14,36,640
39.17530,-0.08838,0.08662,0.00000,0.02818,0.97527,-0.19605,0.0,2023,6,7,12,14,36,650
39.17540,0.08662,-0.00088,0.00000,0.02806,0.97612,-0.19435,0.0,2023,6,7,12,14,36,660
39.17550,0.15662,-0.03588,0.00000,0.02867,0.97698,-0.19508,0.0,2023,6,7,12,14,36,670
39.17560,0.03412,-0.03588,0.00000,0.02952,0.97624,-0.19483,0.0,2023,6,7,12,14,36,680
39.17570,-0.03588,0.08662,0.00000,0.02769,0.97515,-0.19447,0.0,2023,6,7,12,14,36,690
39.17580,0.03412,0.20912,0.00000,0.03001,0.97832,-0.19459,0.0,2023,6,7,12,14,36,700
39.17590,-0.15838,0.40162,0.00000,0.02867,0.97527,-0.19605,0.0,2023,6,7,12,14,36,710
39.17600,0.01662,0.10412,0.00000,0.02794,0.97637,-0.19532,0.0,2023,6,7,12,14,36,720
39.17610,0.01662,-0.07088,0.00000,0.02696,0.97502,-0.19544,0.0,2023,6,7,12,14,36,730
39.17620,-0.07088,0.05162,0.00000,0.02867,0.97490,-0.19520,0.0,2023,6,7,12,14,36,740
39.17630,0.08662,-0.00088,0.00000,0.02891,0.97746,-0.19398,0.0,2023,6,7,12,14,36,750
39.17640,0.19162,-0.26338,0.00000,0.02989,0.97405,-0.19459,0.0,2023,6,7,12,14,37,760
39.17650,-0.01838,-0.03588,0.00000,0.03001,0.97661,-0.19776,0.0,2023,6,7,12,14,37,770
39.17660,-0.01838,-0.01838,0.00000,0.03184,0.97539,-0.19715,0.0,2023,6,7,12,14,37,780
39.17670,0.05162,0.05162,0.00000,0.02977,0.97734,-0.19679,0.0,2023,6,7,12,14,37,790
39.17680,0.08662,0.08662,0.00000,0.02830,0.97222,-0.19386,0.0,2023,6,7,12,14,37,800
39.17690,0.03412,0.17412,0.00000,0.03221,0.97478,-0.19508,0.0,2023,6,7,12,14,37,810
39.17700,0.03412,0.13912,0.00000,0.02940,0.97600,-0.19471,0.0,2023,6,7,12,14,37,820
39.17710,0.10412,-0.08838,0.00000,0.02891,0.97527,-0.19618,0.0,2023,6,7,12,14,37,830
39.17720,-0.07088,-0.10588,0.00000,0.02916,0.97466,-0.19239,0.0,2023,6,7,12,14,37,840
39.17730,0.22662,0.06912,0.00000,0.02867,0.97795,-0.19483,0.0,2023,6,7,12,14,37,850
39.17740,0.05162,0.05162,0.00000,0.03038,0.97515,-0.19727,0.0,2023,6,7,12,14,37,860
39.17750,-0.08838,0.15662,0.00000,0.02684,0.97588,-0.19654,0.0,2023,6,7,12,14,37,870
39.17760,-0.03588,-0.10588,0.00000,0.02989,0.97624,-0.19544,0.0,2023,6,7,12,14,37,880
39.17770,0.01662,0.08662,0.00000,0.03062,0.97624,-0.19532,0.0,2023,6,7,12,14,37,890
39.17780,0.08662,-0.22838,0.00000,0.02977,0.97515,-0.19532,0.0,2023,6,7,12,14,37,900
39.17790,-0.08838,0.12162,0.00000,0.02989,0.97637,-0.19361,0.0,2023,6,7,12,14,37,910
39.17800,0.06912,0.01662,0.00000,0.02989,0.97600,-0.19569,0.0,2023,6,7,12,14,37,920
39.17810,0.06912,-0.12338,0.00000,0.03111,0.97478,-0.19520,0.0,2023,6,7,12,14,37,930
39.17820,0.13912,-0.07088,0.00000,0.02806,0.97551,-0.19410,0.0,2023,6,7,12,14,37,940
39.17830,0.19162,-0.07088,0.00000,0.02830,0.97283,-0.19508,0.0,2023,6,7,12,14,37,950
39.17840,0.29662,-0.01838,0.00000,0.02891,0.97380,-0.19703,0.0,2023,6,7,12,14,37,960
39.17850,-0.10588,0.12162,0.00000,0.02916,0.97588,-0.19569,0.0,2023,6,7,12,14,37,970
39.17860,0.15662,-0.12338,0.00000,0.02867,0.97551,-0.19520,0.0,2023,6,7,12,14,37,980
39.17870,-0.01838,-0.08838,0.00000,0.03013,0.97820,-0.19581,0.0,2023,6,7,12,14,37,990
39.17880,-0.01838,-0.01838,0.00000,0.02891,0.97673,-0.19191,0.0,2023,6,7,12,14,37,0
39.17890,-0.22838,-0.07088,0.00000,0.03013,0.97856,-0.19776,0.0,2023,6,7,12,14,37,10
39.17900,-0.07088,-0.07088,0.00000,0.02904,0.97466,-0.19374,0.0,2023,6,7,12,14,37,20
39.17910,-0.01838,-0.01838,0.00000,0.03099,0.97820,-0.19459,0.0,2023,6,7,12,14,37,30
39.17920,0.05162,0.12162,0.00000,0.02806,0.97661,-0.19508,0.0,2023,6,7,12,14,37,40
39.17930,-0.19338,0.05162,0.00000,0.02794,0.97344,-0.19508,0.0,2023,6,7,12,14,37,50
39.17940,0.12162,-0.21088,0.00000,0.02684,0.97515,-0.19532,0.0,2023,6,7,12,14,37,60
39.17950,-0.03588,-0.14088,0.00000,0.02733,0.97698,-0.19496,0.0,2023,6,7,12,14,37,70
39.17960,-0.01838,-0.17588,0.00000,0.02965,0.97539,-0.19544,0.0,2023,6,7,12,14,37,80
39.17970,0.01662,-0.01838,0.00000,0.02818,0.97673,-0.19459,0.0,2023,6,7,12,14,37,90
39.17980,-0.01838,0.10412,0.00000,0.02818,0.97405,-0.19630,0.0,2023,6,7,12,14,37,100
39.17990,0.03412,0.03412,0.00000,0.02855,0.97600,-0.19532,0.0,2023,6,7,12,14,37,110
39.18000,0.06912,0.08662,0.00000,0.02940,0.97685,-0.19605,0.0,2023,6,7,12,14,37,120
39.18010,0.12162,0.05162,0.00000,0.02916,0.97527,-0.19557,0.0,2023,6,7,12,14,37,130
39.18020,0.06912,0.15662,0.00000,0.03087,0.97649,-0.19557,0.0,2023,6,7,12,14,37,140
39.18030,0.08662,0.06912,0.00000,0.02696,0.97576,-0.19581,0.0,2023,6,7,12,14,37,150
39.18040,-0.00088,-0.03588,0.00000,0.02965,0.97441,-0.19300,0.0,2023,6,7,12,14,37,160
39.18050,0.01662,0.01662,0.00000,0.02867,0.97478,-0.19520,0.0,2023,6,7,12,14,37,170
39.18060,-0.08838,0.12162,0.00000,0.03026,0.97527,-0.19691,0.0,2023,6,7,12,14,37,180
39.18070,-0.10588,-0.12338,0.00000,0.02891,0.97490,-0.19520,0.0,2023,6,7,12,14,37,190
39.18080,-0.19338,0.17412,0.00000,0.02794,0.97295,-0.19532,0.0,2023,6,7,12,14,37,200
39.18090,0.10412,0.08662,0.00000,0.02843,0.97722,-0.19618,0.0,2023,6,7,12,14,37,210
39.18100,-0.17588,-0.03588,0.00000,0.02891,0.97637,-0.19459,0.0,2023,6,7,12,14,37,220
39.18110,-0.10588,0.08662,0.00000,0.02977,0.97417,-0.19398,0.0,2023,6,7,12,14,37,230
39.18120,-0.12338,0.06912,0.00000,0.02721,0.97527,-0.19666,0.0,2023,6,7,12,14,37,240
39.18130,-0.00088,-0.19338,0.00000,0.02843,0.97795,-0.19447,0.0,2023,6,7,12,14,37,250
39.18140,0.05162,-0.24588,0.00000,0.03050,0.97563,-0.19679,0.0,2023,6,7,12,14,37,260
39.18150,0.03412,-0.00088,0.00000,0.02818,0.97637,-0.19715,0.0,2023,6,7,12,14,37,270
39.18160,0.06912,-0.07088,0.00000,0.02916,0.97417,-0.19618,0.0,2023,6,7,12,14,37,280
39.18170,-0.03588,-0.10588,0.00000,0.03123,0.97698,-0.19544,0.0,2023,6,7,12,14,37,290
39.18180,0.05162,-0.01838,0.00000,0.02855,0.97539,-0.19386,0.0,2023,6,7,12,14,37,300
39.18190,-0.14088,-0.00088,0.00000,0.02879,0.97417,-0.19593,0.0,2023,6,7,12,14,37,310
39.18200,-0.03588,-0.03588,0.00000,0.02708,0.97490,-0.19447,0.0,2023,6,7,12,14,37,320
39.18210,-0.08838,0.13912,0.00000,0.02867,0.97661,-0.19630,0.0,2023,6,7,12,14,37,330
39.18220,-0.07088,-0.10588,0.00000,0.02745,0.97332,-0.19605,0.0,2023,6,7,12,14,37,340
39.18230,-0.01838,0.08662,0.00000,0.02891,0.97588,-0.19483,0.0,2023,6,7,12,14,37,350
39.18240,0.12162,0.01662,0.00000,0.02794,0.97380,-0.19715,0.0,2023,6,7,12,14,37,360
39.18250,0.06912,0.05162,0.00000,0.02794,0.97649,-0.19593,0.0,2023,6,7,12,14,37,370
39.18260,0.06912,-0.10588,0.00000,0.02830,0.97417,-0.19581,0.0,2023,6,7,12,14,37,380
39.18270,-0.01838,-0.00088,0.00000,0.02794,0.97454,-0.19666,0.0,2023,6,7,12,14,37,390
39.18280,-0.05338,-0.24588,0.00000,0.02940,0.97710,-0.19215,0.0,2023,6,7,12,14,37,400
39.18290,-0.01838,-0.12338,0.00000,0.03001,0.97600,-0.19483,0.0,2023,6,7,12,14,37,410
39.18300,0.12162,-0.07088,0.00000,0.02806,0.97649,-0.19483,0.0,2023,6,7,12,14,37,420
39.18310,0.03412,-0.05338,0.00000,0.02928,0.97734,-0.19435,0.0,2023,6,7,12,14,37,430
39.18320,0.10412,-0.01838,0.00000,0.02952,0.97624,-0.19483,0.0,2023,6,7,12,14,37,440
39.18330,-0.17588,0.12162,0.00000,0.02745,0.97661,-0.19654,0.0,2023,6,7,12,14,37,450
39.18340,0.10412,-0.07088,0.00000,0.02867,0.97746,-0.19496,0.0,2023,6,7,12,14,37,460
39.18350,0.01662,-0.15838,0.00000,0.02977,0.97661,-0.19435,0.0,2023,6,7,12,14,37,470
39.18360,-0.05338,-0.07088,0.00000,0.02867,0.97454,-0.19630,0.0,2023,6,7,12,14,37,480
39.18370,0.12162,0.08662,0.00000,0.02940,0.97783,-0.19544,0.0,2023,6,7,12,14,37,490
39.18380,0.10412,0.10412,0.00000,0.02904,0.97698,-0.19264,0.0,2023,6,7,12,14,37,500
39.18390,-0.00088,-0.08838,0.00000,0.02952,0.97332,-0.19496,0.0,2023,6,7,12,14,37,510
39.18400,0.24412,-0.35088,0.00000,0.02928,0.97685,-0.19532,0.0,2023,6,7,12,14,37,520
39.18410,-0.12338,-0.15838,0.00000,0.02867,0.97368,-0.19410,0.0,2023,6,7,12,14,37,530
39.18420,0.08662,-0.03588,0.00000,0.02940,0.97551,-0.19532,0.0,2023,6,7,12,14,37,540
39.18430,-0.28088,-0.03588,0.00000,0.02928,0.97551,-0.19630,0.0,2023,6,7,12,14,37,550
39.18440,0.05162,-0.01838,0.00000,0.02708,0.97393,-0.19386,0.0,2023,6,7,12,14,37,560
39.18450,-0.05338,-0.01838,0.00000,0.02965,0.97515,-0.19544,0.0,2023,6,7,12,14,37,570
39.18460,-0.15838,-0.07088,0.00000,0.03038,0.97429,-0.19654,0.0,2023,6,7,12,14,37,580
39.18470,-0.10588,-0.07088,0.00000,0.02843,0.97649,-0.19569,0.0,2023,6,7,12,14,37,590
39.18480,-0.05338,-0.05338,0.00000,0.02891,0.97539,-0.19227,0.0,2023,6,7,12,14,37,600
39.18490,-0.00088,0.05162,0.00000,0.02855,0.97551,-0.19483,0.0,2023,6,7,12,14,37,610
39.18500,-0.12338,-0.05338,0.00000,0.02867,0.97600,-0.19496,0.0,2023,6,7,12,14,37,620
39.18510,0.13912,-0.17588,0.00000,0.03001,0.97673,-0.19715,0.0,2023,6,7,12,14,37,630
39.18520,0.01662,0.17412,0.00000,0.02855,0.97478,-0.19361,0.0,2023,6,7,12,14,37,640
39.18530,-0.21088,-0.10588,0.00000,0.02952,0.97576,-0.19447,0.0,2023,6,7,12,14,37,650
39.18540,-0.10588,-0.01838,0.00000,0.02794,0.97673,-0.19459,0.0,2023,6,7,12,14,38,660
39.18550,0.08662,-0.00088,0.00000,0.02891,0.97502,-0.19422,0.0,2023,6,7,12,14,38,670
39.18560,0.10412,-0.00088,0.00000,0.02696,0.97795,-0.19642,0.0,2023,6,7,12,14,38,680
39.18570,-0.01838,-0.10588,0.00000,0.02782,0.97515,-0.19630,0.0,2023,6,7,12,14,38,690
39.18580,0.17412,0.01662,0.00000,0.02818,0.97380,-0.19544,0.0,2023,6,7,12,14,38,700
39.18590,0.13912,-0.01838,0.00000,0.02757,0.97661,-0.19447,0.0,2023,6,7,12,14,38,710
39.18600,-0.03588,-0.01838,0.00000,0.02550,0.97405,-0.19605,0.0,2023,6,7,12,14,38,720
39.18610,0.01662,-0.14088,0.00000,0.02989,0.97722,-0.19398,0.0,2023,6,7,12,14,38,730
39.18620,-0.12338,-0.17588,0.00000,0.02989,0.97649,-0.19496,0.0,2023,6,7,12,14,38,740
39.18630,-0.03588,0.01662,0.00000,0.02806,0.97417,-0.19422,0.0,2023,6,7,12,14,38,750
39.18640,-0.00088,-0.07088,0.00000,0.02806,0.97527,-0.19630,0.0,2023,6,7,12,14,38,760
39.18650,-0.07088,-0.08838,0.00000,0.02794,0.97612,-0.19703,0.0,2023,6,7,12,14,38,770
39.18660,0.08662,0.15662,0.00000,0.02721,0.97368,-0.19691,0.0,2023,6,7,12,14,38,780
39.18670,0.10412,0.12162,0.00000,0.03050,0.97466,-0.19776,0.0,2023,6,7,12,14,38,790
39.18680,0.08662,0.13912,0.00000,0.02855,0.97698,-0.19178,0.0,2023,6,7,12,14,38,800
39.18690,0.01662,-0.05338,0.00000,0.02879,0.97576,-0.19642,0.0,2023,6,7,12,14,38,810
39.18700,-0.03588,-0.03588,0.00000,0.02843,0.97637,-0.19166,0.0,2023,6,7,12,14,38,820
39.18710,0.19162,-0.31588,0.00000,0.03050,0.97624,-0.19752,0.0,2023,6,7,12,14,38,830
39.18720,-0.01838,0.12162,0.00000,0.02684,0.97515,-0.19544,0.0,2023,6,7,12,14,38,840
39.18730,0.01662,-0.14088,0.00000,0.02904,0.97600,-0.19349,0.0,2023,6,7,12,14,38,850
39.18740,-0.15838,-0.00088,0.00000,0.02916,0.97588,-0.19654,0.0,2023,6,7,12,14,38,860
39.18750,-0.03588,-0.08838,0.00000,0.03013,0.97624,-0.19788,0.0,2023,6,7,12,14,38,870
39.18760,0.17412,-0.15838,0.00000,0.03074,0.97783,-0.19679,0.0,2023,6,7,12,14,38,880
39.18770,-0.00088,-0.12338,0.00000,0.02940,0.97685,-0.19544,0.0,2023,6,7,12,14,38,890
39.18780,0.06912,-0.01838,0.00000,0.02647,0.97746,-0.19666,0.0,2023,6,7,12,14,38,900
39.18790,0.10412,-0.01838,0.00000,0.02721,0.97466,-0.19618,0.0,2023,6,7,12,14,38,910
39.18800,0.05162,-0.03588,0.00000,0.02904,0.97710,-0.19300,0.0,2023,6,7,12,14,38,920
39.18810,0.10412,-0.05338,0.00000,0.02562,0.97685,-0.19496,0.0,2023,6,7,12,14,38,930
39.18820,-0.10588,-0.01838,0.00000,0.02745,0.97600,-0.19483,0.0,2023,6,7,12,14,38,940
39.18830,-0.00088,-0.01838,0.00000,0.02806,0.97649,-0.19630,0.0,2023,6,7,12,14,38,950
39.18840,-0.08838,-0.00088,0.00000,0.02757,0.97649,-0.19374,0.0,2023,6,7,12,14,38,960
39.18850,-0.17588,0.05162,0.00000,0.02745,0.97454,-0.19569,0.0,2023,6,7,12,14,38,970
39.18860,0.01662,0.12162,0.00000,0.03001,0.97722,-0.19264,0.0,2023,6,7,12,14,38,980
39.18870,0.06912,-0.08838,0.00000,0.02891,0.97624,-0.19642,0.0,2023,6,7,12,14,38,990
39.18880,-0.08838,-0.01838,0.00000,0.02745,0.97527,-0.19581,0.0,2023,6,7,12,14,38,0
39.18890,0.12162,-0.07088,0.00000,0.02879,0.97600,-0.19142,0.0,2023,6,7,12,14,38,10
39.18900,-0.10588,0.06912,0.00000,0.02818,0.97283,-0.19471,0.0,2023,6,7,12,14,38,20
39.18910,-0.15838,-0.21088,0.00000,0.02818,0.97649,-0.19801,0.0,2023,6,7,12,14,38,30
39.18920,-0.07088,0.08662,0.00000,0.02757,0.97576,-0.19532,0.0,2023,6,7,12,14,38,40
39.18930,0.06912,-0.05338,0.00000,0.02891,0.97600,-0.19508,0.0,2023,6,7,12,14,38,50
39.18940,0.08662,-0.15838,0.00000,0.02843,0.97612,-0.19715,0.0,2023,6,7,12,14,38,60
39.18950,-0.10588,0.01662,0.00000,0.02806,0.97539,-0.19386,0.0,2023,6,7,12,14,38,70
39.18960,-0.14088,-0.01838,0.00000,0.02721,0.97478,-0.19508,0.0,2023,6,7,12,14,38,80
39.18970,0.06912,-0.01838,0.00000,0.02757,0.97527,-0.19618,0.0,2023,6,7,12,14,38,90
39.18980,0.01662,0.01662,0.00000,0.02904,0.97759,-0.19496,0.0,2023,6,7,12,14,38,100
39.18990,0.12162,-0.03588,0.00000,0.02904,0.97722,-0.19349,0.0,2023,6,7,12,14,38,110
39.19000,0.13912,-0.05338,0.00000,0.02843,0.97515,-0.19593,0.0,2023,6,7,12,14,38,120
39.19010,-0.01838,-0.05338,0.00000,0.02708,0.97539,-0.19471,0.0,2023,6,7,12,14,38,130
39.19020,0.12162,0.03412,0.00000,0.03050,0.97722,-0.19776,0.0,2023,6,7,12,14,38,140
39.19030,0.03412,-0.03588,0.00000,0.02855,0.97417,-0.19520,0.0,2023,6,7,12,14,38,150
39.19040,-0.05338,-0.22838,0.00000,0.02647,0.97515,-0.19398,0.0,2023,6,7,12,14,38,160
39.19050,0.13912,-0.07088,0.00000,0.02965,0.97563,-0.19776,0.0,2023,6,7,12,14,38,170
39.19060,0.13912,-0.03588,0.00000,0.02782,0.97661,-0.19727,0.0,2023,6,7,12,14,38,180
39.19070,-0.10588,-0.01838,0.00000,0.02965,0.97551,-0.19496,0.0,2023,6,7,12,14,38,190
39.19080,-0.05338,0.12162,0.00000,0.02904,0.97527,-0.19508,0.0,2023,6,7,12,14,38,200
39.19090,0.01662,-0.03588,0.00000,0.02855,0.97868,-0.19642,0.0,2023,6,7,12,14,38,210
39.19100,-0.12338,0.12162,0.00000,0.02940,0.97698,-0.19508,0.0,2023,6,7,12,14,38,220
39.19110,0.03412,0.08662,0.00000,0.03062,0.97624,-0.19581,0.0,2023,6,7,12,14,38,230
39.19120,0.12162,0.06912,0.00000,0.02904,0.97771,-0.19666,0.0,2023,6,7,12,14,38,240
39.19130,-0.03588,-0.03588,0.00000,0.03001,0.97576,-0.19483,0.0,2023,6,7,12,14,38,250
39.19140,0.03412,0.06912,0.00000,0.03294,0.97698,-0.19642,0.0,2023,6,7,12,14,38,260
39.19150,0.10412,-0.08838,0.00000,0.02599,0.97600,-0.19605,0.0,2023,6,7,12,14,38,270
39.19160,0.05162,0.13912,0.00000,0.02891,0.97649,-0.19715,0.0,2023,6,7,12,14,38,280
39.19170,0.10412,0.03412,0.00000,0.02928,0.97576,-0.19483,0.0,2023,6,7,12,14,38,290
39.19180,-0.03588,0.20912,0.00000,0.02952,0.97746,-0.19325,0.0,2023,6,7,12,14,38,300
39.19190,0.03412,-0.01838,0.00000,0.03026,0.97478,-0.19496,0.0,2023,6,7,12,14,38,310
39.19200,-0.01838,0.15662,0.00000,0.02769,0.97502,-0.19666,0.0,2023,6,7,12,14,38,320
39.19210,0.03412,-0.10588,0.00000,0.02879,0.97478,-0.19313,0.0,2023,6,7,12,14,38,330
39.19220,-0.05338,0.05162,0.00000,0.02940,0.97515,-0.19508,0.0,2023,6,7,12,14,38,340
39.19230,0.03412,-0.00088,0.00000,0.02965,0.97527,-0.19679,0.0,2023,6,7,12,14,38,350
39.19240,0.06912,-0.19338,0.00000,0.03062,0.97210,-0.19679,0.0,2023,6,7,12,14,38,360
39.19250,-0.07088,-0.07088,0.00000,0.02843,0.97649,-0.19593,0.0,2023,6,7,12,14,38,370
39.19260,-0.01838,-0.08838,0.00000,0.02855,0.97600,-0.19447,0.0,2023,6,7,12,14,38,380
39.19270,0.01662,-0.00088,0.00000,0.02867,0.97417,-0.19764,0.0,2023,6,7,12,14,38,390
39.19280,-0.00088,-0.17588,0.00000,0.02867,0.97734,-0.19557,0.0,2023,6,7,12,14,38,400
39.19290,0.01662,0.06912,0.00000,0.02721,0.97673,-0.19630,0.0,2023,6,7,12,14,38,410
39.19300,-0.07088,0.15662,0.00000,0.02940,0.97783,-0.19654,0.0,2023,6,7,12,14,38,420
39.19310,0.06912,-0.15838,0.00000,0.02904,0.97454,-0.19520,0.0,2023,6,7,12,14,38,430
39.19320,-0.07088,0.05162,0.00000,0.02928,0.97576,-0.19410,0.0,2023,6,7,12,14,38,440
39.19330,0.06912,0.10412,0.00000,0.02928,0.97637,-0.19520,0.0,2023,6,7,12,14,38,450
39.19340,-0.01838,-0.03588,0.00000,0.02879,0.97502,-0.19642,0.0,2023,6,7,12,14,38,460
39.19350,0.12162,-0.07088,0.00000,0.03160,0.97441,-0.19496,0.0,2023,6,7,12,14,38,470
39.19360,0.03412,-0.07088,0.00000,0.02965,0.97685,-0.19496,0.0,2023,6,7,12,14,38,480
39.19370,0.10412,-0.05338,0.00000,0.02830,0.97539,-0.19605,0.0,2023,6,7,12,14,38,490
39.19380,0.05162,-0.14088,0.00000,0.02904,0.97734,-0.19374,0.0,2023,6,7,12,14,38,500
39.19390,0.08662,-0.05338,0.00000,0.03013,0.97502,-0.19544,0.0,2023,6,7,12,14,38,510
39.19400,0.10412,-0.15838,0.00000,0.02794,0.97588,-0.19581,0.0,2023,6,7,12,14,38,520
39.19410,0.06912,-0.22838,0.00000,0.02818,0.97502,-0.19666,0.0,2023,6,7,12,14,38,530
39.19420,-0.07088,-0.07088,0.00000,0.02830,0.97588,-0.19471,0.0,2023,6,7,12,14,38,540
39.19430,-0.07088,0.03412,0.00000,0.02635,0.97637,-0.19544,0.0,2023,6,7,12,14,38,550
39.19440,0.12162,0.03412,0.00000,0.02940,0.97429,-0.19691,0.0,2023,6,7,12,14,39,560
39.19450,-0.14088,0.26162,0.00000,0.02757,0.97576,-0.19349,0.0,2023,6,7,12,14,39,570
39.19460,-0.21088,-0.08838,0.00000,0.02611,0.97685,-0.19361,0.0,2023,6,7,12,14,39,580
39.19470,0.06912,-0.12338,0.00000,0.02879,0.97710,-0.19727,0.0,2023,6,7,12,14,39,590
39.19480,-0.14088,0.12162,0.00000,0.03001,0.97637,-0.19703,0.0,2023,6,7,12,14,39,600
39.19490,-0.08838,0.06912,0.00000,0.02891,0.97429,-0.19508,0.0,2023,6,7,12,14,39,610
39.19500,-0.29838,0.22662,0.00000,0.02952,0.97624,-0.19618,0.0,2023,6,7,12,14,39,620
39.19510,0.01662,0.10412,0.00000,0.03062,0.97722,-0.19435,0.0,2023,6,7,12,14,39,630
39.19520,0.12162,-0.33338,0.00000,0.03013,0.97881,-0.19410,0.0,2023,6,7,12,14,39,640
39.19530,-0.08838,0.05162,0.00000,0.03038,0.97466,-0.19483,0.0,2023,6,7,12,14,39,650
39.19540,-0.14088,0.10412,0.00000,0.02879,0.97722,-0.19532,0.0,2023,6,7,12,14,39,660
39.19550,-0.03588,0.03412,0.00000,0.02965,0.97661,-0.19508,0.0,2023,6,7,12,14,39,670
39.19560,0.05162,0.06912,0.00000,0.02794,0.97380,-0.19361,0.0,2023,6,7,12,14,39,680
39.19570,-0.21088,-0.03588,0.00000,0.02952,0.97368,-0.19471,0.0,2023,6,7,12,14,39,690
39.19580,0.12162,-0.01838,0.00000,0.02635,0.97649,-0.19361,0.0,2023,6,7,12,14,39,700
39.19590,0.03412,-0.01838,0.00000,0.02818,0.97637,-0.19666,0.0,2023,6,7,12,14,39,710
39.19600,0.05162,0.03412,0.00000,0.03148,0.97612,-0.19581,0.0,2023,6,7,12,14,39,720
39.19610,-0.08838,0.01662,0.00000,0.03123,0.97576,-0.19459,0.0,2023,6,7,12,14,39,730
39.19620,-0.05338,-0.05338,0.00000,0.02830,0.97759,-0.19557,0.0,2023,6,7,12,14,39,740
39.19630,-0.03588,-0.03588,0.00000,0.02867,0.97454,-0.19593,0.0,2023,6,7,12,14,39,750
39.19640,-0.03588,0.10412,0.00000,0.03123,0.97600,-0.19544,0.0,2023,6,7,12,14,39,760
39.19650,0.10412,-0.00088,0.00000,0.02977,0.97368,-0.19459,0.0,2023,6,7,12,14,39,770
39.19660,0.01662,0.10412,0.00000,0.02794,0.97673,-0.19569,0.0,2023,6,7,12,14,39,780
39.19670,-0.03588,-0.14088,0.00000,0.02916,0.97307,-0.19361,0.0,2023,6,7,12,14,39,790
39.19680,0.13912,-0.01838,0.00000,0.02757,0.97637,-0.19557,0.0,2023,6,7,12,14,39,800
39.19690,0.05162,-0.03588,0.00000,0.02818,0.97490,-0.19520,0.0,2023,6,7,12,14,39,810
39.19700,0.08662,-0.15838,0.00000,0.02928,0.97563,-0.19544,0.0,2023,6,7,12,14,39,820
39.19710,0.08662,0.22662,0.00000,0.03074,0.97710,-0.19593,0.0,2023,6,7,12,14,39,830
39.19720,-0.08838,0.01662,0.00000,0.03026,0.97502,-0.19544,0.0,2023,6,7,12,14,39,840
39.19730,-0.15838,0.03412,0.00000,0.02891,0.97551,-0.19496,0.0,2023,6,7,12,14,39,850
39.19740,0.08662,-0.01838,0.00000,0.03013,0.97673,-0.19508,0.0,2023,6,7,12,14,39,860
39.19750,0.20912,-0.19338,0.00000,0.02818,0.97380,-0.19654,0.0,2023,6,7,12,14,39,870
39.19760,0.13912,-0.10588,0.00000,0.02843,0.97478,-0.19459,0.0,2023,6,7,12,14,39,880
39.19770,-0.00088,-0.07088,0.00000,0.02904,0.97356,-0.19483,0.0,2023,6,7,12,14,39,890
39.19780,0.01662,0.06912,0.00000,0.02904,0.97673,-0.19520,0.0,2023,6,7,12,14,39,900
39.19790,0.15662,-0.19338,0.00000,0.02769,0.97429,-0.19496,0.0,2023,6,7,12,14,39,910
39.19800,-0.03588,-0.10588,0.00000,0.02940,0.97563,-0.19361,0.0,2023,6,7,12,14,39,920
39.19810,-0.15838,0.15662,0.00000,0.02965,0.97368,-0.19691,0.0,2023,6,7,12,14,39,930
39.19820,-0.21088,0.03412,0.00000,0.02977,0.97429,-0.19544,0.0,2023,6,7,12,14,39,940
39.19830,0.24412,-0.12338,0.00000,0.02782,0.97795,-0.19703,0.0,2023,6,7,12,14,39,950
39.19840,0.13912,-0.10588,0.00000,0.02904,0.97454,-0.19752,0.0,2023,6,7,12,14,39,960
39.19850,0.06912,0.05162,0.00000,0.02977,0.97600,-0.19581,0.0,2023,6,7,12,14,39,970
39.19860,-0.03588,0.10412,0.00000,0.03160,0.97405,-0.19398,0.0,2023,6,7,12,14,39,980
39.19870,-0.12338,-0.10588,0.00000,0.03062,0.97661,-0.19361,0.0,2023,6,7,12,14,39,990
39.19880,-0.08838,0.19162,0.00000,0.02940,0.97454,-0.19398,0.0,2023,6,7,12,14,39,0
39.19890,0.06912,0.06912,0.00000,0.02696,0.97624,-0.19422,0.0,2023,6,7,12,14,39,10
39.19900,0.01662,-0.03588,0.00000,0.02952,0.97515,-0.19361,0.0,2023,6,7,12,14,39,20
39.19910,-0.08838,0.06912,0.00000,0.02830,0.97380,-0.19752,0.0,2023,6,7,12,14,39,30
39.19920,-0.07088,0.05162,0.00000,0.02940,0.97515,-0.19666,0.0,2023,6,7,12,14,39,40
39.19930,0.17412,-0.07088,0.00000,0.02806,0.97698,-0.19557,0.0,2023,6,7,12,14,39,50
39.19940,-0.05338,0.05162,0.00000,0.02769,0.97624,-0.19569,0.0,2023,6,7,12,14,39,60
39.19950,-0.05338,-0.12338,0.00000,0.02916,0.97429,-0.19654,0.0,2023,6,7,12,14,39,70
39.19960,-0.10588,0.08662,0.00000,0.02769,0.97637,-0.19471,0.0,2023,6,7,12,14,39,80
39.19970,0.03412,0.06912,0.00000,0.02647,0.97771,-0.19410,0.0,2023,6,7,12,14,39,90
39.19980,-0.01838,0.13912,0.00000,0.03001,0.97673,-0.19642,0.0,2023,6,7,12,14,39,100
39.19990,-0.05338,0.08662,0.00000,0.02830,0.97356,-0.19581,0.0,2023,6,7,12,14,39,110
39.20000,0.15662,-0.08838,0.00000,0.02830,0.97637,-0.19422,0.0,2023,6,7,12,14,39,120
39.20010,0.06912,0.03412,0.00000,0.02855,0.97722,-0.19532,0.0,2023,6,7,12,14,39,130
39.20020,0.01662,-0.01838,0.00000,0.03013,0.97612,-0.19715,0.0,2023,6,7,12,14,39,140
39.20030,0.13912,-0.03588,0.00000,0.02965,0.97600,-0.19288,0.0,2023,6,7,12,14,39,150
39.20040,0.01662,0.03412,0.00000,0.02818,0.97612,-0.19679,0.0,2023,6,7,12,14,39,160
39.20050,0.13912,-0.21088,0.00000,0.02891,0.97454,-0.19288,0.0,2023,6,7,12,14,39,170
39.20060,-0.05338,0.19162,0.00000,0.02696,0.97539,-0.19618,0.0,2023,6,7,12,14,39,180
39.20070,-0.22838,-0.08838,0.00000,0.03111,0.97612,-0.19398,0.0,2023,6,7,12,14,39,190
39.20080,0.10412,0.12162,0.00000,0.02977,0.97637,-0.19496,0.0,2023,6,7,12,14,39,200
39.20090,0.05162,0.17412,0.00000,0.02879,0.97478,-0.19581,0.0,2023,6,7,12,14,39,210
39.20100,0.08662,-0.00088,0.00000,0.03050,0.97563,-0.19654,0.0,2023,6,7,12,14,39,220
39.20110,0.01662,-0.01838,0.00000,0.02965,0.97600,-0.19508,0.0,2023,6,7,12,14,39,230
39.20120,0.03412,-0.05338,0.00000,0.02769,0.97624,-0.19422,0.0,2023,6,7,12,14,39,240
39.20130,0.05162,0.24412,0.00000,0.02806,0.97600,-0.19666,0.0,2023,6,7,12,14,39,250
39.20140,0.13912,0.20912,0.00000,0.02696,0.97502,-0.19447,0.0,2023,6,7,12,14,39,260
39.20150,0.12162,-0.15838,0.00000,0.02867,0.97942,-0.19691,0.0,2023,6,7,12,14,39,270
39.20160,-0.03588,-0.10588,0.00000,0.02952,0.97783,-0.19496,0.0,2023,6,7,12,14,39,280
39.20170,0.03412,0.01662,0.00000,0.02855,0.97515,-0.19740,0.0,2023,6,7,12,14,39,290
39.20180,0.12162,-0.05338,0.00000,0.02794,0.97502,-0.19215,0.0,2023,6,7,12,14,39,300
39.20190,-0.03588,-0.12338,0.00000,0.02647,0.97466,-0.19593,0.0,2023,6,7,12,14,39,310
39.20200,0.05162,-0.05338,0.00000,0.02794,0.97673,-0.19691,0.0,2023,6,7,12,14,39,320
39.20210,0.08662,-0.00088,0.00000,0.02989,0.97502,-0.19569,0.0,2023,6,7,12,14,39,330
39.20220,0.10412,0.06912,0.00000,0.02794,0.97490,-0.19593,0.0,2023,6,7,12,14,39,340
39.20230,-0.00088,-0.07088,0.00000,0.02879,0.97515,-0.19618,0.0,2023,6,7,12,14,39,350
39.20240,-0.08838,0.17412,0.00000,0.02830,0.97502,-0.19630,0.0,2023,6,7,12,14,39,360
39.20250,-0.01838,0.01662,0.00000,0.03013,0.97551,-0.19447,0.0,2023,6,7,12,14,39,370
39.20260,0.05162,0.31412,0.00000,0.03160,0.97637,-0.19788,0.0,2023,6,7,12,14,39,380
39.20270,0.08662,-0.03588,0.00000,0.03050,0.97734,-0.19557,0.0,2023,6,7,12,14,39,390
39.20280,0.19162,-0.08838,0.00000,0.02965,0.97661,-0.19703,0.0,2023,6,7,12,14,39,400
39.20290,0.01662,-0.07088,0.00000,0.02818,0.97368,-0.19654,0.0,2023,6,7,12,14,39,410
39.20300,0.01662,-0.01838,0.00000,0.02940,0.97417,-0.19459,0.0,2023,6,7,12,14,39,420
39.20310,-0.05338,-0.24588,0.00000,0.02904,0.97539,-0.19471,0.0,2023,6,7,12,14,39,430
39.20320,-0.10588,0.03412,0.00000,0.02745,0.97551,-0.19691,0.0,2023,6,7,12,14,39,440
39.20330,-0.21088,0.12162,0.00000,0.03001,0.97783,-0.19605,0.0,2023,6,7,12,14,40,450
39.20340,0.06912,-0.07088,0.00000,0.02855,0.97600,-0.19630,0.0,2023,6,7,12,14,40,460
39.20350,0.01662,-0.08838,0.00000,0.02818,0.97478,-0.19410,0.0,2023,6,7,12,14,40,470
39.20360,-0.14088,0.03412,0.00000,0.02794,0.97551,-0.19605,0.0,2023,6,7,12,14,40,480
39.20370,-0.00088,0.15662,0.00000,0.02904,0.97515,-0.19496,0.0,2023,6,7,12,14,40,490
39.20380,-0.01838,0.08662,0.00000,0.02928,0.97600,-0.19361,0.0,2023,6,7,12,14,40,500
39.20390,-0.00088,-0.03588,0.00000,0.02867,0.97466,-0.19630,0.0,2023,6,7,12,14,40,510
39.20400,0.10412,0.12162,0.00000,0.03050,0.97624,-0.19508,0.0,2023,6,7,12,14,40,520
39.20410,-0.05338,-0.05338,0.00000,0.02684,0.97661,-0.19532,0.0,2023,6,7,12,14,40,530
39.20420,-0.03588,-0.15838,0.00000,0.02855,0.97527,-0.19544,0.0,2023,6,7,12,14,40,540
39.20430,-0.14088,-0.10588,0.00000,0.02635,0.97588,-0.19203,0.0,2023,6,7,12,14,40,550
39.20440,0.10412,-0.05338,0.00000,0.03038,0.97502,-0.19630,0.0,2023,6,7,12,14,40,560
39.20450,-0.10588,-0.01838,0.00000,0.03050,0.97393,-0.19679,0.0,2023,6,7,12,14,40,570
39.20460,-0.05338,-0.00088,0.00000,0.02635,0.97563,-0.19496,0.0,2023,6,7,12,14,40,580
39.20470,-0.19338,0.01662,0.00000,0.02977,0.97637,-0.19520,0.0,2023,6,7,12,14,40,590
39.20480,-0.15838,0.15662,0.00000,0.02782,0.97771,-0.19386,0.0,2023,6,7,12,14,40,600
39.20490,0.08662,-0.10588,0.00000,0.02843,0.97466,-0.19691,0.0,2023,6,7,12,14,40,610
39.20500,-0.07088,0.13912,0.00000,0.02904,0.97685,-0.19386,0.0,2023,6,7,12,14,40,620
39.20510,-0.15838,0.17412,0.00000,0.02684,0.97893,-0.19544,0.0,2023,6,7,12,14,40,630
39.20520,-0.03588,-0.00088,0.00000,0.03001,0.97588,-0.19532,0.0,2023,6,7,12,14,40,640
39.20530,-0.08838,0.08662,0.00000,0.02879,0.97576,-0.19422,0.0,2023,6,7,12,14,40,650
39.20540,0.01662,0.06912,0.00000,0.02745,0.97441,-0.19508,0.0,2023,6,7,12,14,40,660
39.20550,-0.26338,0.06912,0.00000,0.02782,0.97637,-0.19581,0.0,2023,6,7,12,14,40,670
39.20560,0.05162,0.26162,0.00000,0.02977,0.97551,-0.19361,0.0,2023,6,7,12,14,40,680
39.20570,0.12162,-0.24588,0.00000,0.02721,0.97466,-0.19654,0.0,2023,6,7,12,14,40,690
39.20580,0.03412,-0.01838,0.00000,0.03013,0.97832,-0.19422,0.0,2023,6,7,12,14,40,700
39.20590,0.08662,-0.15838,0.00000,0.03013,0.97600,-0.19581,0.0,2023,6,7,12,14,40,710
39.20600,0.22662,-0.17588,0.00000,0.03026,0.97637,-0.19386,0.0,2023,6,7,12,14,40,720
39.20610,-0.10588,0.05162,0.00000,0.02940,0.97612,-0.19691,0.0,2023,6,7,12,14,40,730
39.20620,0.13912,-0.14088,0.00000,0.02708,0.97539,-0.19703,0.0,2023,6,7,12,14,40,740
39.20630,-0.03588,-0.07088,0.00000,0.03038,0.97698,-0.19703,0.0,2023,6,7,12,14,40,750
39.20640,0.03412,-0.12338,0.00000,0.02818,0.97673,-0.19422,0.0,2023,6,7,12,14,40,760
39.20650,-0.08838,0.05162,0.00000,0.02989,0.97685,-0.19691,0.0,2023,6,7,12,14,40,770
39.20660,0.12162,-0.10588,0.00000,0.02940,0.97685,-0.19618,0.0,2023,6,7,12,14,40,780
39.20670,-0.05338,-0.12338,0.00000,0.02672,0.97478,-0.19605,0.0,2023,6,7,12,14,40,790
39.20680,0.05162,0.13912,0.00000,0.02904,0.97685,-0.19435,0.0,2023,6,7,12,14,40,800
39.20690,-0.10588,0.12162,0.00000,0.02989,0.97515,-0.19337,0.0,2023,6,7,12,14,40,810
39.20700,0.05162,0.03412,0.00000,0.02952,0.97637,-0.19410,0.0,2023,6,7,12,14,40,820
39.20710,-0.01838,-0.12338,0.00000,0.02891,0.97588,-0.19544,0.0,2023,6,7,12,14,40,830
39.20720,-0.22838,-0.03588,0.00000,0.02879,0.97563,-0.19520,0.0,2023,6,7,12,14,40,840
39.20730,-0.00088,-0.08838,0.00000,0.02818,0.97490,-0.19569,0.0,2023,6,7,12,14,40,850
39.20740,-0.05338,-0.08838,0.00000,0.02916,0.97588,-0.19618,0.0,2023,6,7,12,14,40,860
39.20750,-0.26338,0.05162,0.00000,0.02684,0.97661,-0.19435,0.0,2023,6,7,12,14,40,870
39.20760,0.08662,0.06912,0.00000,0.02855,0.97551,-0.19508,0.0,2023,6,7,12,14,40,880
39.20770,0.15662,-0.15838,0.00000,0.03221,0.97515,-0.19727,0.0,2023,6,7,12,14,40,890
39.20780,0.20912,-0.14088,0.00000,0.03074,0.97698,-0.19630,0.0,2023,6,7,12,14,40,900
39.20790,-0.07088,0.03412,0.00000,0.02891,0.97563,-0.19837,0.0,2023,6,7,12,14,40,910
39.20800,-0.12338,0.12162,0.00000,0.02928,0.97698,-0.19740,0.0,2023,6,7,12,14,40,920
39.20810,-0.05338,0.05162,0.00000,0.02806,0.97454,-0.19508,0.0,2023,6,7,12,14,40,930
39.20820,-0.28088,-0.10588,0.00000,0.02879,0.97417,-0.19630,0.0,2023,6,7,12,14,40,940
39.20830,-0.00088,-0.10588,0.00000,0.02904,0.97417,-0.19642,0.0,2023,6,7,12,14,40,950
39.20840,-0.08838,0.10412,0.00000,0.02843,0.97417,-0.19654,0.0,2023,6,7,12,14,40,960
39.20850,-0.03588,0.08662,0.00000,0.02818,0.97624,-0.19337,0.0,2023,6,7,12,14,40,970
39.20860,0.10412,0.19162,0.00000,0.02879,0.97576,-0.19776,0.0,2023,6,7,12,14,40,980
39.20870,-0.03588,-0.07088,0.00000,0.02818,0.97746,-0.19459,0.0,2023,6,7,12,14,40,990
39.20880,0.10412,-0.15838,0.00000,0.03013,0.97515,-0.19666,0.0,2023,6,7,12,14,40,0
39.20890,0.06912,-0.05338,0.00000,0.02818,0.97441,-0.19386,0.0,2023,6,7,12,14,40,10
39.20900,0.13912,-0.08838,0.00000,0.03050,0.97441,-0.19630,0.0,2023,6,7,12,14,40,20
39.20910,-0.12338,0.38412,0.00000,0.02916,0.97332,-0.19764,0.0,2023,6,7,12,14,40,30
39.20920,-0.05338,0.13912,0.00000,0.02843,0.97734,-0.19618,0.0,2023,6,7,12,14,40,40
39.20930,0.06912,-0.12338,0.00000,0.02891,0.97368,-0.19520,0.0,2023,6,7,12,14,40,50
39.20940,-0.01838,-0.07088,0.00000,0.02843,0.97441,-0.19422,0.0,2023,6,7,12,14,40,60
39.20950,0.19162,-0.12338,0.00000,0.02879,0.97539,-0.19764,0.0,2023,6,7,12,14,40,70
39.20960,0.03412,-0.12338,0.00000,0.02904,0.97795,-0.19508,0.0,2023,6,7,12,14,40,80
39.20970,0.10412,-0.08838,0.00000,0.02696,0.97746,-0.19581,0.0,2023,6,7,12,14,40,90
39.20980,-0.14088,0.10412,0.00000,0.02855,0.97454,-0.19300,0.0,2023,6,7,12,14,40,100
39.20990,-0.07088,-0.15838,0.00000,0.02940,0.97649,-0.19593,0.0,2023,6,7,12,14,40,110
39.21000,0.13912,-0.03588,0.00000,0.02928,0.97478,-0.19715,0.0,2023,6,7,12,14,40,120
39.21010,0.13912,-0.14088,0.00000,0.02867,0.97698,-0.19569,0.0,2023,6,7,12,14,40,130
39.21020,0.05162,-0.19338,0.00000,0.02904,0.97441,-0.19520,0.0,2023,6,7,12,14,40,140
39.21030,0.06912,-0.07088,0.00000,0.02928,0.97502,-0.19679,0.0,2023,6,7,12,14,40,150
39.21040,0.03412,-0.01838,0.00000,0.02855,0.97820,-0.19618,0.0,2023,6,7,12,14,40,160
39.21050,0.20912,-0.12338,0.00000,0.02769,0.97685,-0.19386,0.0,2023,6,7,12,14,40,170
39.21060,-0.07088,0.03412,0.00000,0.02672,0.97649,-0.19496,0.0,2023,6,7,12,14,40,180
39.21070,0.13912,-0.21088,0.00000,0.02794,0.97502,-0.19715,0.0,2023,6,7,12,14,40,190
39.21080,0.01662,0.05162,0.00000,0.02794,0.97393,-0.19496,0.0,2023,6,7,12,14,40,200
39.21090,-0.01838,-0.03588,0.00000,0.02904,0.97710,-0.19679,0.0,2023,6,7,12,14,40,210
39.21100,0.03412,-0.12338,0.00000,0.02965,0.97551,-0.19703,0.0,2023,6,7,12,14,40,220
39.21110,0.03412,-0.03588,0.00000,0.02855,0.97600,-0.19727,0.0,2023,6,7,12,14,40,230
39.21120,-0.12338,0.17412,0.00000,0.02684,0.97649,-0.19459,0.0,2023,6,7,12,14,40,240
39.21130,-0.05338,-0.08838,0.00000,0.03038,0.97612,-0.19459,0.0,2023,6,7,12,14,40,250
39.21140,-0.12338,0.05162,0.00000,0.02794,0.97393,-0.19630,0.0,2023,6,7,12,14,40,260
39.21150,-0.01838,0.24412,0.00000,0.02647,0.97612,-0.19569,0.0,2023,6,7,12,14,40,270
39.21160,0.06912,-0.12338,0.00000,0.03026,0.97417,-0.19569,0.0,2023,6,7,12,14,40,280
39.21170,-0.05338,-0.14088,0.00000,0.02818,0.97478,-0.19593,0.0,2023,6,7,12,14,40,290
39.21180,-0.00088,-0.12338,0.00000,0.02916,0.97466,-0.19508,0.0,2023,6,7,12,14,40,300
39.21190,0.10412,0.01662,0.00000,0.02843,0.97478,-0.19557,0.0,2023,6,7,12,14,40,310
39.21200,-0.21088,-0.07088,0.00000,0.02965,0.97624,-0.19801,0.0,2023,6,7,12,14,40,320
39.21210,-0.05338,0.03412,0.00000,0.02769,0.97551,-0.19435,0.0,2023,6,7,12,14,40,330
39.21220,0.08662,-0.07088,0.00000,0.02867,0.97563,-0.19459,0.0,2023,6,7,12,14,40,340
39.21230,-0.05338,0.08662,0.00000,0.02696,0.97478,-0.19593,0.0,2023,6,7,12,14,41,350
39.21240,-0.07088,0.08662,0.00000,0.02989,0.97490,-0.19532,0.0,2023,6,7,12,14,41,360
39.21250,0.19162,-0.12338,0.00000,0.02989,0.97502,-0.19496,0.0,2023,6,7,12,14,41,370
39.21260,-0.03588,-0.01838,0.00000,0.02684,0.97746,-0.19593,0.0,2023,6,7,12,14,41,380
39.21270,0.08662,0.22662,0.00000,0.03026,0.97539,-0.19618,0.0,2023,6,7,12,14,41,390
39.21280,-0.03588,-0.00088,0.00000,0.02989,0.97685,-0.19496,0.0,2023,6,7,12,14,41,400
39.21290,-0.08838,-0.01838,0.00000,0.02623,0.97649,-0.19361,0.0,2023,6,7,12,14,41,410
39.21300,0.06912,-0.08838,0.00000,0.03050,0.97637,-0.19593,0.0,2023,6,7,12,14,41,420
39.21310,-0.05338,-0.08838,0.00000,0.03038,0.97795,-0.19532,0.0,2023,6,7,12,14,41,430
39.21320,0.03412,-0.26338,0.00000,0.02794,0.97600,-0.19630,0.0,2023,6,7,12,14,41,440
39.21330,-0.17588,0.08662,0.00000,0.02904,0.97807,-0.19740,0.0,2023,6,7,12,14,41,450
39.21340,0.03412,0.10412,0.00000,0.02806,0.97746,-0.19386,0.0,2023,6,7,12,14,41,460
39.21350,0.01662,-0.01838,0.00000,0.03026,0.97893,-0.19715,0.0,2023,6,7,12,14,41,470
39.21360,-0.19338,0.27912,0.00000,0.02928,0.97685,-0.19410,0.0,2023,6,7,12,14,41,480
39.21370,-0.07088,0.05162,0.00000,0.02855,0.97478,-0.19569,0.0,2023,6,7,12,14,41,490
39.21380,-0.01838,-0.15838,0.00000,0.02684,0.97612,-0.19532,0.0,2023,6,7,12,14,41,500
39.21390,-0.03588,0.08662,0.00000,0.02745,0.97478,-0.19569,0.0,2023,6,7,12,14,41,510
39.21400,0.05162,-0.17588,0.00000,0.02940,0.97551,-0.19483,0.0,2023,6,7,12,14,41,520
39.21410,-0.01838,-0.03588,0.00000,0.03001,0.97576,-0.19605,0.0,2023,6,7,12,14,41,530
39.21420,-0.03588,0.10412,0.00000,0.02904,0.97685,-0.19569,0.0,2023,6,7,12,14,41,540
39.21430,0.03412,-0.08838,0.00000,0.02904,0.97502,-0.19642,0.0,2023,6,7,12,14,41,550
39.21440,0.12162,-0.00088,0.00000,0.02965,0.97637,-0.19300,0.0,2023,6,7,12,14,41,560
39.21450,-0.05338,-0.12338,0.00000,0.02952,0.97649,-0.19666,0.0,2023,6,7,12,14,41,570
39.21460,-0.14088,-0.00088,0.00000,0.02830,0.97551,-0.19642,0.0,2023,6,7,12,14,41,580
39.21470,-0.03588,-0.10588,0.00000,0.02818,0.97429,-0.19605,0.0,2023,6,7,12,14,41,590
39.21480,-0.03588,0.01662,0.00000,0.02769,0.97661,-0.19386,0.0,2023,6,7,12,14,41,600
39.21490,-0.14088,0.19162,0.00000,0.02891,0.97551,-0.19569,0.0,2023,6,7,12,14,41,610
39.21500,0.08662,0.01662,0.00000,0.02708,0.97588,-0.19544,0.0,2023,6,7,12,14,41,620
39.21510,0.01662,0.08662,0.00000,0.02916,0.97368,-0.19374,0.0,2023,6,7,12,14,41,630
39.21520,-0.00088,0.13912,0.00000,0.02891,0.97332,-0.19520,0.0,2023,6,7,12,14,41,640
39.21530,0.06912,-0.07088,0.00000,0.02940,0.97807,-0.19593,0.0,2023,6,7,12,14,41,650
39.21540,0.01662,-0.01838,0.00000,0.02794,0.97405,-0.19654,0.0,2023,6,7,12,14,41,660
39.21550,-0.07088,-0.12338,0.00000,0.02940,0.97454,-0.19630,0.0,2023,6,7,12,14,41,670
39.21560,-0.01838,0.03412,0.00000,0.02904,0.97637,-0.19544,0.0,2023,6,7,12,14,41,680
39.21570,0.13912,0.03412,0.00000,0.02806,0.97649,-0.19483,0.0,2023,6,7,12,14,41,690
39.21580,0.08662,0.15662,0.00000,0.02635,0.97685,-0.19618,0.0,2023,6,7,12,14,41,700
39.21590,-0.03588,-0.22838,0.00000,0.03013,0.97502,-0.19752,0.0,2023,6,7,12,14,41,710
39.21600,-0.07088,0.12162,0.00000,0.03001,0.97502,-0.19508,0.0,2023,6,7,12,14,41,720
39.21610,-0.17588,-0.03588,0.00000,0.02830,0.97588,-0.19581,0.0,2023,6,7,12,14,41,730
39.21620,-0.01838,-0.10588,0.00000,0.02879,0.97673,-0.19666,0.0,2023,6,7,12,14,41,740
39.21630,-0.10588,-0.00088,0.00000,0.02855,0.97539,-0.19410,0.0,2023,6,7,12,14,41,750
39.21640,0.10412,-0.14088,0.00000,0.02965,0.97710,-0.19508,0.0,2023,6,7,12,14,41,760
39.21650,0.12162,-0.03588,0.00000,0.02769,0.97722,-0.19654,0.0,2023,6,7,12,14,41,770
39.21660,-0.29838,-0.03588,0.00000,0.02904,0.97685,-0.19654,0.0,2023,6,7,12,14,41,780
39.21670,-0.03588,-0.07088,0.00000,0.02843,0.97563,-0.19630,0.0,2023,6,7,12,14,41,790
39.21680,-0.28088,0.17412,0.00000,0.02757,0.97356,-0.19508,0.0,2023,6,7,12,14,41,800
39.21690,0.08662,0.12162,0.00000,0.02916,0.97539,-0.19605,0.0,2023,6,7,12,14,41,810
39.21700,-0.05338,-0.15838,0.00000,0.03050,0.97722,-0.19398,0.0,2023,6,7,12,14,41,820
39.21710,-0.01838,0.19162,0.00000,0.02708,0.97539,-0.19508,0.0,2023,6,7,12,14,41,830
39.21720,0.12162,-0.01838,0.00000,0.02843,0.97478,-0.19618,0.0,2023,6,7,12,14,41,840
39.21730,-0.00088,-0.07088,0.00000,0.02904,0.97734,-0.19471,0.0,2023,6,7,12,14,41,850
39.21740,0.03412,-0.12338,0.00000,0.02574,0.97490,-0.19313,0.0,2023,6,7,12,14,41,860
39.21750,0.12162,-0.07088,0.00000,0.02684,0.97722,-0.19471,0.0,2023,6,7,12,14,41,870
39.21760,-0.15838,0.10412,0.00000,0.02855,0.97844,-0.19557,0.0,2023,6,7,12,14,41,880
39.21770,0.03412,-0.00088,0.00000,0.03135,0.97600,-0.19532,0.0,2023,6,7,12,14,41,890
39.21780,0.22662,-0.21088,0.00000,0.02891,0.97502,-0.19581,0.0,2023,6,7,12,14,41,900
39.21790,-0.05338,0.05162,0.00000,0.02977,0.97612,-0.19715,0.0,2023,6,7,12,14,41,910
39.21800,0.15662,-0.10588,0.00000,0.03026,0.97490,-0.19447,0.0,2023,6,7,12,14,41,920
39.21810,-0.08838,-0.19338,0.00000,0.03074,0.97649,-0.19752,0.0,2023,6,7,12,14,41,930
39.21820,0.03412,0.10412,0.00000,0.02928,0.97417,-0.19593,0.0,2023,6,7,12,14,41,940
39.21830,0.12162,-0.15838,0.00000,0.03087,0.97551,-0.19252,0.0,2023,6,7,12,14,41,950
39.21840,-0.00088,0.03412,0.00000,0.02928,0.97332,-0.19630,0.0,2023,6,7,12,14,41,960
39.21850,0.10412,-0.01838,0.00000,0.02928,0.97673,-0.19459,0.0,2023,6,7,12,14,41,970
39.21860,-0.05338,0.17412,0.00000,0.02928,0.97478,-0.19593,0.0,2023,6,7,12,14,41,980
39.21870,0.24412,-0.10588,0.00000,0.03026,0.97539,-0.19605,0.0,2023,6,7,12,14,41,990
39.21880,-0.00088,0.06912,0.00000,0.02782,0.97649,-0.19349,0.0,2023,6,7,12,14,41,0
39.21890,0.05162,-0.05338,0.00000,0.02782,0.97600,-0.19508,0.0,2023,6,7,12,14,41,10
39.21900,0.03412,-0.17588,0.00000,0.02818,0.97527,-0.19471,0.0,2023,6,7,12,14,41,20
39.21910,-0.10588,-0.21088,0.00000,0.03026,0.97380,-0.19544,0.0,2023,6,7,12,14,41,30
39.21920,0.20912,-0.07088,0.00000,0.02904,0.97685,-0.19691,0.0,2023,6,7,12,14,41,40
39.21930,0.13912,-0.12338,0.00000,0.02879,0.97527,-0.19544,0.0,2023,6,7,12,14,41,50
39.21940,0.05162,-0.07088,0.00000,0.02940,0.97539,-0.19666,0.0,2023,6,7,12,14,41,60
39.21950,0.10412,-0.12338,0.00000,0.02916,0.97527,-0.19679,0.0,2023,6,7,12,14,41,70
39.21960,-0.07088,-0.01838,0.00000,0.02928,0.97734,-0.19520,0.0,2023,6,7,12,14,41,80
39.21970,-0.08838,0.12162,0.00000,0.02952,0.97637,-0.19593,0.0,2023,6,7,12,14,41,90
39.21980,0.15662,-0.12338,0.00000,0.02806,0.97661,-0.19508,0.0,2023,6,7,12,14,41,100
39.21990,0.03412,-0.07088,0.00000,0.02855,0.97600,-0.19422,0.0,2023,6,7,12,14,41,110
39.22000,-0.17588,0.13912,0.00000,0.02928,0.97612,-0.19435,0.0,2023,6,7,12,14,41,120
39.22010,0.06912,0.06912,0.00000,0.02623,0.97393,-0.19520,0.0,2023,6,7,12,14,41,130
39.22020,0.12162,-0.07088,0.00000,0.02965,0.97490,-0.19422,0.0,2023,6,7,12,14,41,140
39.22030,0.13912,0.05162,0.00000,0.02891,0.97539,-0.19630,0.0,2023,6,7,12,14,41,150
39.22040,-0.05338,0.01662,0.00000,0.02940,0.97624,-0.19508,0.0,2023,6,7,12,14,41,160
39.22050,0.15662,-0.10588,0.00000,0.02940,0.97502,-0.19361,0.0,2023,6,7,12,14,41,170
39.22060,-0.01838,-0.00088,0.00000,0.02916,0.97734,-0.19374,0.0,2023,6,7,12,14,41,180
39.22070,-0.07088,0.03412,0.00000,0.02891,0.97393,-0.19532,0.0,2023,6,7,12,14,41,190
39.22080,-0.00088,-0.03588,0.00000,0.02660,0.97502,-0.19764,0.0,2023,6,7,12,14,41,200
39.22090,0.01662,0.05162,0.00000,0.02916,0.97722,-0.19459,0.0,2023,6,7,12,14,41,210
39.22100,-0.10588,-0.08838,0.00000,0.02769,0.97515,-0.19605,0.0,2023,6,7,12,14,41,220
39.22110,-0.19338,0.17412,0.00000,0.03038,0.97722,-0.19422,0.0,2023,6,7,12,14,41,230
39.22120,-0.10588,-0.01838,0.00000,0.02879,0.97722,-0.19374,0.0,2023,6,7,12,14,41,240
39.22130,0.03412,-0.07088,0.00000,0.02830,0.97527,-0.19264,0.0,2023,6,7,12,14,41,250
39.22140,-0.01838,-0.10588,0.00000,0.02855,0.97771,-0.19544,0.0,2023,6,7,12,14,42,260
39.22150,-0.14088,0.01662,0.00000,0.02806,0.97466,-0.19642,0.0,2023,6,7,12,14,42,270
39.22160,-0.03588,-0.10588,0.00000,0.02806,0.97576,-0.19557,0.0,2023,6,7,12,14,42,280
39.22170,0.12162,0.03412,0.00000,0.02806,0.97405,-0.19325,0.0,2023,6,7,12,14,42,290
39.22180,0.01662,0.12162,0.00000,0.02977,0.97478,-0.19410,0.0,2023,6,7,12,14,42,300
39.22190,0.24412,-0.05338,0.00000,0.02989,0.97551,-0.19532,0.0,2023,6,7,12,14,42,310
39.22200,-0.03588,-0.10588,0.00000,0.02952,0.97527,-0.19520,0.0,2023,6,7,12,14,42,320
39.22210,0.08662,0.03412,0.00000,0.02794,0.97527,-0.19508,0.0,2023,6,7,12,14,42,330
39.22220,0.10412,-0.03588,0.00000,0.02928,0.97527,-0.19691,0.0,2023,6,7,12,14,42,340
39.22230,-0.01838,-0.08838,0.00000,0.02721,0.97722,-0.19630,0.0,2023,6,7,12,14,42,350
39.22240,-0.01838,0.13912,0.00000,0.02989,0.97502,-0.19520,0.0,2023,6,7,12,14,42,360
39.22250,-0.01838,0.01662,0.00000,0.02904,0.97502,-0.19630,0.0,2023,6,7,12,14,42,370
39.22260,-0.07088,0.03412,0.00000,0.02904,0.97759,-0.19508,0.0,2023,6,7,12,14,42,380
39.22270,0.03412,-0.01838,0.00000,0.02952,0.97222,-0.19569,0.0,2023,6,7,12,14,42,390
39.22280,0.01662,-0.07088,0.00000,0.03062,0.97539,-0.19666,0.0,2023,6,7,12,14,42,400
39.22290,0.05162,0.15662,0.00000,0.02916,0.97673,-0.19618,0.0,2023,6,7,12,14,42,410
39.22300,0.08662,0.10412,0.00000,0.02769,0.97258,-0.19264,0.0,2023,6,7,12,14,42,420
39.22310,0.03412,0.03412,0.00000,0.02965,0.97637,-0.19496,0.0,2023,6,7,12,14,42,430
39.22320,-0.05338,0.06912,0.00000,0.02904,0.97539,-0.19557,0.0,2023,6,7,12,14,42,440
39.22330,0.01662,0.05162,0.00000,0.02928,0.97551,-0.19520,0.0,2023,6,7,12,14,42,450
39.22340,-0.10588,0.03412,0.00000,0.02830,0.97783,-0.19618,0.0,2023,6,7,12,14,42,460
39.22350,-0.21088,0.10412,0.00000,0.02977,0.97612,-0.19532,0.0,2023,6,7,12,14,42,470
39.22360,-0.07088,0.05162,0.00000,0.02818,0.97466,-0.19666,0.0,2023,6,7,12,14,42,480
39.22370,0.03412,0.08662,0.00000,0.02843,0.97405,-0.19483,0.0,2023,6,7,12,14,42,490
39.22380,0.15662,-0.03588,0.00000,0.02940,0.97502,-0.19459,0.0,2023,6,7,12,14,42,500
39.22390,0.10412,0.15662,0.00000,0.03087,0.97734,-0.19703,0.0,2023,6,7,12,14,42,510
39.22400,-0.05338,0.01662,0.00000,0.02879,0.97588,-0.19666,0.0,2023,6,7,12,14,42,520
39.22410,0.01662,-0.05338,0.00000,0.02745,0.97551,-0.19740,0.0,2023,6,7,12,14,42,530
39.22420,0.08662,0.12162,0.00000,0.02843,0.97502,-0.19532,0.0,2023,6,7,12,14,42,540
39.22430,0.03412,0.12162,0.00000,0.02965,0.97637,-0.19508,0.0,2023,6,7,12,14,42,550
39.22440,-0.12338,0.20912,0.00000,0.02721,0.97551,-0.19764,0.0,2023,6,7,12,14,42,560
39.22450,0.01662,-0.01838,0.00000,0.02745,0.97527,-0.19886,0.0,2023,6,7,12,14,42,570
39.22460,0.08662,-0.07088,0.00000,0.02989,0.97466,-0.19691,0.0,2023,6,7,12,14,42,580
39.22470,-0.05338,0.12162,0.00000,0.02733,0.97441,-0.19642,0.0,2023,6,7,12,14,42,590
39.22480,0.20912,0.01662,0.00000,0.02977,0.97527,-0.19496,0.0,2023,6,7,12,14,42,600
39.22490,-0.03588,0.08662,0.00000,0.02879,0.97612,-0.19740,0.0,2023,6,7,12,14,42,610
39.22500,-0.12338,0.12162,0.00000,0.02916,0.97600,-0.19557,0.0,2023,6,7,12,14,42,620
39.22510,-0.01838,-0.19338,0.00000,0.02891,0.97600,-0.19691,0.0,2023,6,7,12,14,42,630
39.22520,-0.08838,0.17412,0.00000,0.02708,0.97478,-0.19471,0.0,2023,6,7,12,14,42,640
39.22530,-0.07088,-0.08838,0.00000,0.02867,0.97551,-0.19544,0.0,2023,6,7,12,14,42,650
39.22540,-0.08838,0.13912,0.00000,0.02782,0.97527,-0.19435,0.0,2023,6,7,12,14,42,660
39.22550,-0.03588,0.01662,0.00000,0.03050,0.97454,-0.19581,0.0,2023,6,7,12,14,42,670
39.22560,-0.03588,0.05162,0.00000,0.02940,0.97551,-0.19715,0.0,2023,6,7,12,14,42,680
39.22570,-0.00088,0.03412,0.00000,0.03062,0.97454,-0.19471,0.0,2023,6,7,12,14,42,690
39.22580,-0.00088,0.08662,0.00000,0.02867,0.97612,-0.19642,0.0,2023,6,7,12,14,42,700
39.22590,0.03412,-0.12338,0.00000,0.03050,0.97551,-0.19715,0.0,2023,6,7,12,14,42,710
39.22600,-0.00088,0.06912,0.00000,0.02989,0.97807,-0.19593,0.0,2023,6,7,12,14,42,720
39.22610,-0.08838,-0.12338,0.00000,0.03026,0.97698,-0.19557,0.0,2023,6,7,12,14,42,730
39.22620,0.05162,0.13912,0.00000,0.02782,0.97600,-0.19593,0.0,2023,6,7,12,14,42,740
39.22630,0.05162,0.08662,0.00000,0.02855,0.97502,-0.19654,0.0,2023,6,7,12,14,42,750
39.22640,0.19162,-0.21088,0.00000,0.02696,0.97624,-0.19727,0.0,2023,6,7,12,14,42,760
39.22650,0.27912,-0.03588,0.00000,0.02965,0.97563,-0.19496,0.0,2023,6,7,12,14,42,770
39.22660,-0.03588,-0.00088,0.00000,0.02916,0.97685,-0.19544,0.0,2023,6,7,12,14,42,780
39.22670,0.10412,0.03412,0.00000,0.02672,0.97515,-0.19740,0.0,2023,6,7,12,14,42,790
39.22680,-0.03588,0.01662,0.00000,0.02891,0.97637,-0.19349,0.0,2023,6,7,12,14,42,800
39.22690,-0.00088,0.06912,0.00000,0.02867,0.97576,-0.19496,0.0,2023,6,7,12,14,42,810
39.22700,-0.01838,-0.08838,0.00000,0.03001,0.97454,-0.19471,0.0,2023,6,7,12,14,42,820
39.22710,-0.00088,0.06912,0.00000,0.03135,0.97588,-0.19447,0.0,2023,6,7,12,14,42,830
39.22720,0.06912,-0.10588,0.00000,0.02769,0.97600,-0.19752,0.0,2023,6,7,12,14,42,840
39.22730,0.05162,-0.01838,0.00000,0.02977,0.97539,-0.19496,0.0,2023,6,7,12,14,42,850
39.22740,0.27912,-0.17588,0.00000,0.02830,0.97612,-0.19886,0.0,2023,6,7,12,14,42,860
39.22750,0.13912,-0.14088,0.00000,0.02916,0.97783,-0.19496,0.0,2023,6,7,12,14,42,870
39.22760,0.15662,-0.10588,0.00000,0.02757,0.97527,-0.19435,0.0,2023,6,7,12,14,42,880
39.22770,-0.14088,-0.03588,0.00000,0.02891,0.97600,-0.19471,0.0,2023,6,7,12,14,42,890
39.22780,-0.03588,-0.07088,0.00000,0.02977,0.97795,-0.19679,0.0,2023,6,7,12,14,42,900
39.22790,-0.10588,0.03412,0.00000,0.02818,0.97722,-0.19581,0.0,2023,6,7,12,14,42,910
39.22800,-0.03588,-0.12338,0.00000,0.02928,0.97624,-0.19630,0.0,2023,6,7,12,14,42,920
39.22810,0.06912,-0.05338,0.00000,0.02879,0.97515,-0.19581,0.0,2023,6,7,12,14,42,930
39.22820,-0.12338,0.19162,0.00000,0.02635,0.97600,-0.19569,0.0,2023,6,7,12,14,42,940
39.22830,0.06912,-0.01838,0.00000,0.03184,0.97515,-0.19471,0.0,2023,6,7,12,14,42,950
39.22840,0.10412,-0.08838,0.00000,0.02916,0.97637,-0.19776,0.0,2023,6,7,12,14,42,960
39.22850,-0.01838,-0.08838,0.00000,0.02928,0.97527,-0.19544,0.0,2023,6,7,12,14,42,970
39.22860,-0.10588,0.01662,0.00000,0.02721,0.97527,-0.19801,0.0,2023,6,7,12,14,42,980
39.22870,-0.08838,-0.01838,0.00000,0.02940,0.97344,-0.19459,0.0,2023,6,7,12,14,42,990
39.22880,-0.05338,-0.07088,0.00000,0.03001,0.97478,-0.19471,0.0,2023,6,7,12,14,42,0
39.22890,0.06912,0.19162,0.00000,0.02843,0.97746,-0.19300,0.0,2023,6,7,12,14,42,10
39.22900,0.10412,-0.05338,0.00000,0.02806,0.97649,-0.19410,0.0,2023,6,7,12,14,42,20
39.22910,-0.28088,-0.12338,0.00000,0.03013,0.97600,-0.19703,0.0,2023,6,7,12,14,42,30
39.22920,0.15662,-0.15838,0.00000,0.03050,0.97502,-0.19471,0.0,2023,6,7,12,14,42,40
39.22930,-0.00088,0.15662,0.00000,0.02708,0.97746,-0.19642,0.0,2023,6,7,12,14,42,50
39.22940,-0.24588,-0.10588,0.00000,0.02928,0.97746,-0.19581,0.0,2023,6,7,12,14,42,60
39.22950,0.17412,0.15662,0.00000,0.03013,0.97478,-0.19581,0.0,2023,6,7,12,14,42,70
39.22960,-0.07088,-0.05338,0.00000,0.03013,0.97429,-0.19654,0.0,2023,6,7,12,14,42,80
39.22970,-0.17588,-0.03588,0.00000,0.02879,0.97600,-0.19752,0.0,2023,6,7,12,14,42,90
39.22980,-0.07088,0.10412,0.00000,0.02721,0.97612,-0.19459,0.0,2023,6,7,12,14,42,100
39.22990,-0.12338,0.03412,0.00000,0.03062,0.97612,-0.19239,0.0,2023,6,7,12,14,42,110
39.23000,0.33162,-0.21088,0.00000,0.02794,0.97405,-0.19422,0.0,2023,6,7,12,14,42,120
39.23010,-0.17588,0.01662,0.00000,0.02672,0.97649,-0.19703,0.0,2023,6,7,12,14,42,130
39.23020,-0.12338,0.19162,0.00000,0.02879,0.97502,-0.19435,0.0,2023,6,7,12,14,42,140
39.23030,0.06912,-0.17588,0.00000,0.02940,0.97588,-0.19398,0.0,2023,6,7,12,14,42,150
39.23040,-0.03588,-0.03588,0.00000,0.02940,0.97563,-0.19459,0.0,2023,6,7,12,14,42,160
39.23050,0.12162,-0.08838,0.00000,0.02745,0.97612,-0.19593,0.0,2023,6,7,12,14,43,170
39.23060,0.03412,-0.12338,0.00000,0.02647,0.97673,-0.19703,0.0,2023,6,7,12,14,43,180
