#2023/06/07 17:03:53
time,wx,wy,wz,ax,ay,az,yy,MM,dd,hh,mm,ss,ms
48.40820,0.10027,-0.01838,0.00000,0.03123,0.97820,-0.18873,0.0,2023,6,7,17,3,54,-395
48.40830,0.10027,-0.07088,0.00000,0.02794,0.97685,-0.18922,0.0,2023,6,7,17,3,54,-384
48.40840,0.22277,-0.10588,0.00000,0.03221,0.97832,-0.19032,0.0,2023,6,7,17,3,54,-373
48.40850,0.01277,-0.10588,0.00000,0.03111,0.97637,-0.18971,0.0,2023,6,7,17,3,54,-362
48.40860,-0.00473,-0.12338,0.00000,0.03453,0.97466,-0.18849,0.0,2023,6,7,17,3,54,-351
48.40870,0.01277,-0.08838,0.00000,0.03111,0.97600,-0.18910,0.0,2023,6,7,17,3,54,-339
48.40880,0.01277,0.01662,0.00000,0.03257,0.97405,-0.18800,0.0,2023,6,7,17,3,54,-328
48.40890,0.17027,-0.05338,0.00000,0.03050,0.97783,-0.18812,0.0,2023,6,7,17,3,54,-317
48.40900,0.15277,-0.00088,0.00000,0.02965,0.97746,-0.19056,0.0,2023,6,7,17,3,54,-306
48.40910,0.04777,-0.01838,0.00000,0.03233,0.97759,-0.18703,0.0,2023,6,7,17,3,54,-295
48.40920,-0.09223,0.08662,0.00000,0.03257,0.97539,-0.18751,0.0,2023,6,7,17,3,54,-283
48.40930,-0.03973,-0.05338,0.00000,0.03160,0.97917,-0.18971,0.0,2023,6,7,17,3,54,-272
48.40940,-0.10973,-0.08838,0.00000,0.03294,0.97612,-0.18983,0.0,2023,6,7,17,3,54,-261
48.40950,-0.31973,-0.07088,0.00000,0.03160,0.97527,-0.18947,0.0,2023,6,7,17,3,54,-250
48.40960,-0.21473,0.08662,0.00000,0.03099,0.97612,-0.18788,0.0,2023,6,7,17,3,54,-239
48.40970,-0.14473,0.17412,0.00000,0.03294,0.97771,-0.18703,0.0,2023,6,7,17,3,54,-227
48.40980,0.03027,-0.00088,0.00000,0.03257,0.97454,-0.18947,0.0,2023,6,7,17,3,54,-216
48.40990,0.01277,-0.12338,0.00000,0.03196,0.97454,-0.18812,0.0,2023,6,7,17,3,54,-205
48.41000,0.11777,0.03412,0.00000,0.03160,0.97417,-0.18642,0.0,2023,6,7,17,3,54,-194
48.41010,0.18777,0.03412,0.00000,0.03172,0.97734,-0.18886,0.0,2023,6,7,17,3,54,-183
48.41020,-0.14473,-0.07088,0.00000,0.03087,0.97429,-0.19044,0.0,2023,6,7,17,3,54,-171
48.41030,-0.09223,-0.21088,0.00000,0.03013,0.97673,-0.19032,0.0,2023,6,7,17,3,54,-160
48.41040,0.10027,-0.00088,0.00000,0.03111,0.97734,-0.18812,0.0,2023,6,7,17,3,54,-149
48.41050,-0.21473,0.06912,0.00000,0.03318,0.97588,-0.18715,0.0,2023,6,7,17,3,54,-138
48.41060,0.15277,-0.00088,0.00000,0.03160,0.97637,-0.18934,0.0,2023,6,7,17,3,54,-127
48.41070,0.03027,0.05162,0.00000,0.03257,0.97637,-0.19069,0.0,2023,6,7,17,3,54,-115
48.41080,-0.12723,0.06912,0.00000,0.03099,0.97807,-0.18739,0.0,2023,6,7,17,3,54,-104
48.41090,-0.09223,-0.14088,0.00000,0.03148,0.97771,-0.18910,0.0,2023,6,7,17,3,54,-93
48.41100,0.01277,0.03412,0.00000,0.02977,0.97807,-0.18934,0.0,2023,6,7,17,3,54,-82
48.41110,-0.03973,-0.08838,0.00000,0.03245,0.97515,-0.18886,0.0,2023,6,7,17,3,54,-71
48.41120,0.15277,-0.29838,0.00000,0.03074,0.97478,-0.18861,0.0,2023,6,7,17,3,54,-59
48.41130,0.04777,0.01662,0.00000,0.03196,0.97551,-0.18556,0.0,2023,6,7,17,3,54,-48
48.41140,-0.09223,0.20912,0.00000,0.03270,0.97661,-0.19032,0.0,2023,6,7,17,3,54,-37
48.41150,-0.00473,0.10412,0.00000,0.03074,0.97759,-0.19142,0.0,2023,6,7,17,3,54,-26
48.41160,-0.00473,-0.05338,0.00000,0.02891,0.97893,-0.18800,0.0,2023,6,7,17,3,54,-15
48.41170,-0.28473,0.10412,0.00000,0.03172,0.97527,-0.18666,0.0,2023,6,7,17,3,54,-3
48.41180,-0.30223,0.03412,0.00000,0.03233,0.97698,-0.18776,0.0,2023,6,7,17,3,54,7
48.41190,0.06527,0.03412,0.00000,0.03026,0.97637,-0.18800,0.0,2023,6,7,17,3,54,18
48.41200,0.18777,0.03412,0.00000,0.03148,0.97612,-0.18873,0.0,2023,6,7,17,3,54,29
48.41210,-0.02223,-0.00088,0.00000,0.02977,0.97600,-0.19130,0.0,2023,6,7,17,3,54,40
48.41220,-0.05723,-0.24588,0.00000,0.03172,0.97710,-0.18861,0.0,2023,6,7,17,3,54,52
48.41230,-0.16223,-0.15838,0.00000,0.03099,0.97710,-0.18800,0.0,2023,6,7,17,3,54,63
48.41240,0.11777,-0.01838,0.00000,0.03013,0.97917,-0.19117,0.0,2023,6,7,17,3,54,74
48.41250,-0.03973,-0.12338,0.00000,0.03343,0.97588,-0.18898,0.0,2023,6,7,17,3,54,85
48.41260,-0.03973,-0.00088,0.00000,0.03026,0.97624,-0.18837,0.0,2023,6,7,17,3,54,96
48.41270,0.08277,0.01662,0.00000,0.03148,0.97746,-0.18886,0.0,2023,6,7,17,3,54,108
48.41280,0.04777,-0.05338,0.00000,0.03172,0.97685,-0.18727,0.0,2023,6,7,17,3,54,119
48.41290,-0.10973,-0.00088,0.00000,0.03050,0.97722,-0.18715,0.0,2023,6,7,17,3,54,130
48.41300,0.11777,0.01662,0.00000,0.03026,0.97637,-0.19276,0.0,2023,6,7,17,3,54,141
48.41310,-0.02223,-0.10588,0.00000,0.03160,0.97539,-0.18800,0.0,2023,6,7,17,3,54,152
48.41320,0.01277,-0.31588,0.00000,0.03038,0.97734,-0.18812,0.0,2023,6,7,17,3,54,164
48.41330,-0.00473,-0.05338,0.00000,0.02965,0.97685,-0.18764,0.0,2023,6,7,17,3,54,175
48.41340,-0.00473,-0.01838,0.00000,0.02904,0.97661,-0.18800,0.0,2023,6,7,17,3,54,186
48.41350,0.18777,0.01662,0.00000,0.03050,0.97759,-0.19105,0.0,2023,6,7,17,3,54,197
48.41360,0.06527,0.01662,0.00000,0.03233,0.97600,-0.18800,0.0,2023,6,7,17,3,54,208
48.41370,-0.21473,-0.08838,0.00000,0.03135,0.97698,-0.18483,0.0,2023,6,7,17,3,54,220
48.41380,0.20527,0.20912,0.00000,0.03196,0.97588,-0.18947,0.0,2023,6,7,17,3,54,231
48.41390,-0.07473,0.10412,0.00000,0.03160,0.97612,-0.18971,0.0,2023,6,7,17,3,54,242
48.41400,-0.03973,0.03412,0.00000,0.03221,0.97649,-0.18812,0.0,2023,6,7,17,3,54,253
48.41410,0.08277,-0.17588,0.00000,0.03209,0.97710,-0.18849,0.0,2023,6,7,17,3,54,264
48.41420,-0.02223,-0.12338,0.00000,0.03160,0.97746,-0.18861,0.0,2023,6,7,17,3,54,276
48.41430,-0.07473,-0.08838,0.00000,0.03038,0.97710,-0.18861,0.0,2023,6,7,17,3,54,287
48.41440,0.01277,-0.00088,0.00000,0.03087,0.97783,-0.19008,0.0,2023,6,7,17,3,54,298
48.41450,0.04777,-0.07088,0.00000,0.03343,0.97515,-0.18898,0.0,2023,6,7,17,3,55,-690
48.41460,-0.03973,-0.07088,0.00000,0.03099,0.97612,-0.19130,0.0,2023,6,7,17,3,55,-679
48.41470,-0.02223,0.05162,0.00000,0.03135,0.97612,-0.18861,0.0,2023,6,7,17,3,55,-667
48.41480,-0.28473,-0.10588,0.00000,0.03148,0.97783,-0.19081,0.0,2023,6,7,17,3,55,-656
48.41490,0.06527,-0.05338,0.00000,0.03026,0.97710,-0.18690,0.0,2023,6,7,17,3,55,-645
48.41500,0.04777,-0.03588,0.00000,0.02965,0.97832,-0.19044,0.0,2023,6,7,17,3,55,-634
48.41510,-0.07473,-0.10588,0.00000,0.03050,0.97685,-0.18861,0.0,2023,6,7,17,3,55,-623
48.41520,0.15277,-0.03588,0.00000,0.03209,0.97783,-0.18678,0.0,2023,6,7,17,3,55,-611
48.41530,-0.12723,-0.17588,0.00000,0.03404,0.97600,-0.18886,0.0,2023,6,7,17,3,55,-600
48.41540,-0.10973,0.12162,0.00000,0.03135,0.97527,-0.18983,0.0,2023,6,7,17,3,55,-589
48.41550,-0.00473,0.05162,0.00000,0.03221,0.97673,-0.18800,0.0,2023,6,7,17,3,55,-578
48.41560,-0.07473,-0.10588,0.00000,0.03123,0.97844,-0.18751,0.0,2023,6,7,17,3,55,-567
48.41570,-0.05723,0.05162,0.00000,0.03160,0.97868,-0.18849,0.0,2023,6,7,17,3,55,-555
48.41580,0.15277,-0.10588,0.00000,0.02989,0.97783,-0.18873,0.0,2023,6,7,17,3,55,-544
48.41590,0.11777,0.12162,0.00000,0.02952,0.97380,-0.18776,0.0,2023,6,7,17,3,55,-533
48.41600,-0.00473,-0.00088,0.00000,0.03099,0.97698,-0.18788,0.0,2023,6,7,17,3,55,-522
48.41610,-0.10973,0.19162,0.00000,0.03318,0.97844,-0.18800,0.0,2023,6,7,17,3,55,-511
48.41620,-0.17973,-0.00088,0.00000,0.03270,0.97661,-0.18812,0.0,2023,6,7,17,3,55,-499
48.41630,-0.00473,-0.05338,0.00000,0.03099,0.97466,-0.19093,0.0,2023,6,7,17,3,55,-488
48.41640,0.01277,-0.14088,0.00000,0.03160,0.97759,-0.18922,0.0,2023,6,7,17,3,55,-477
48.41650,-0.19723,-0.14088,0.00000,0.03074,0.97698,-0.18947,0.0,2023,6,7,17,3,55,-466
48.41660,-0.00473,-0.08838,0.00000,0.02830,0.97624,-0.19191,0.0,2023,6,7,17,3,55,-455
48.41670,-0.09223,0.01662,0.00000,0.03196,0.97661,-0.18800,0.0,2023,6,7,17,3,55,-443
48.41680,-0.07473,0.03412,0.00000,0.02940,0.97722,-0.18983,0.0,2023,6,7,17,3,55,-432
48.41690,-0.10973,0.05162,0.00000,0.03233,0.97649,-0.18764,0.0,2023,6,7,17,3,55,-421
48.41700,0.01277,-0.07088,0.00000,0.03001,0.97624,-0.18751,0.0,2023,6,7,17,3,55,-410
48.41710,-0.05723,0.06912,0.00000,0.03123,0.97795,-0.19117,0.0,2023,6,7,17,3,55,-399
48.41720,0.17027,-0.07088,0.00000,0.03062,0.97649,-0.19044,0.0,2023,6,7,17,3,55,-387
48.41730,-0.09223,-0.01838,0.00000,0.03270,0.97588,-0.18520,0.0,2023,6,7,17,3,55,-376
48.41740,-0.00473,0.10412,0.00000,0.03270,0.97588,-0.18995,0.0,2023,6,7,17,3,55,-365
48.41750,-0.02223,-0.05338,0.00000,0.03257,0.97966,-0.19044,0.0,2023,6,7,17,3,55,-354
48.41760,-0.09223,0.06912,0.00000,0.02891,0.97698,-0.18947,0.0,2023,6,7,17,3,55,-343
48.41770,-0.05723,-0.15838,0.00000,0.03148,0.97673,-0.18983,0.0,2023,6,7,17,3,55,-331
48.41780,0.01277,0.22662,0.00000,0.03257,0.97807,-0.18934,0.0,2023,6,7,17,3,55,-320
48.41790,0.01277,-0.14088,0.00000,0.03111,0.97527,-0.18898,0.0,2023,6,7,17,3,55,-309
48.41800,-0.03973,0.05162,0.00000,0.03160,0.97893,-0.19093,0.0,2023,6,7,17,3,55,-298
48.41810,0.10027,-0.12338,0.00000,0.03148,0.97820,-0.18849,0.0,2023,6,7,17,3,55,-287
48.41820,0.01277,-0.08838,0.00000,0.03318,0.97698,-0.18873,0.0,2023,6,7,17,3,55,-275
48.41830,-0.02223,-0.00088,0.00000,0.03294,0.97551,-0.18910,0.0,2023,6,7,17,3,55,-264
48.41840,-0.03973,0.05162,0.00000,0.02855,0.97698,-0.19044,0.0,2023,6,7,17,3,55,-253
48.41850,-0.12723,0.13912,0.00000,0.03196,0.97637,-0.18983,0.0,2023,6,7,17,3,55,-242
48.41860,0.11777,-0.14088,0.00000,0.03111,0.97527,-0.18861,0.0,2023,6,7,17,3,55,-231
48.41870,0.10027,-0.03588,0.00000,0.03123,0.97600,-0.18776,0.0,2023,6,7,17,3,55,-219
48.41880,0.11777,0.12162,0.00000,0.03038,0.97746,-0.18971,0.0,2023,6,7,17,3,55,-208
48.41890,-0.03973,-0.00088,0.00000,0.03123,0.97783,-0.18544,0.0,2023,6,7,17,3,55,-197
48.41900,-0.02223,-0.14088,0.00000,0.03050,0.97759,-0.18678,0.0,2023,6,7,17,3,55,-186
48.41910,0.08277,-0.01838,0.00000,0.03087,0.97771,-0.18703,0.0,2023,6,7,17,3,55,-175
48.41920,-0.10973,0.17412,0.00000,0.03221,0.97588,-0.18690,0.0,2023,6,7,17,3,55,-163
48.41930,-0.03973,0.12162,0.00000,0.03306,0.97380,-0.18605,0.0,2023,6,7,17,3,55,-152
48.41940,0.06527,0.17412,0.00000,0.03270,0.97539,-0.18837,0.0,2023,6,7,17,3,55,-141
48.41950,0.08277,-0.19338,0.00000,0.03209,0.97380,-0.18983,0.0,2023,6,7,17,3,55,-130
48.41960,0.04777,0.29662,0.00000,0.03270,0.97868,-0.18983,0.0,2023,6,7,17,3,55,-119
48.41970,-0.14473,0.01662,0.00000,0.02891,0.97624,-0.18886,0.0,2023,6,7,17,3,55,-107
48.41980,-0.17973,0.08662,0.00000,0.03123,0.97722,-0.19020,0.0,2023,6,7,17,3,55,-96
48.41990,0.11777,-0.07088,0.00000,0.03184,0.97649,-0.18910,0.0,2023,6,7,17,3,55,-85
48.42000,-0.00473,-0.07088,0.00000,0.03392,0.97685,-0.18886,0.0,2023,6,7,17,3,55,-74
48.42010,-0.05723,0.01662,0.00000,0.03123,0.97588,-0.18739,0.0,2023,6,7,17,3,55,-63
48.42020,0.01277,-0.08838,0.00000,0.03074,0.97624,-0.18690,0.0,2023,6,7,17,3,55,-51
48.42030,-0.10973,0.19162,0.00000,0.03318,0.97576,-0.18959,0.0,2023,6,7,17,3,55,-40
48.42040,0.03027,0.06912,0.00000,0.03184,0.97588,-0.18825,0.0,2023,6,7,17,3,55,-29
48.42050,-0.07473,-0.00088,0.00000,0.03306,0.97624,-0.18788,0.0,2023,6,7,17,3,55,-18
48.42060,-0.03973,-0.14088,0.00000,0.02928,0.97551,-0.18849,0.0,2023,6,7,17,3,55,-7
48.42070,0.11777,-0.19338,0.00000,0.03172,0.97734,-0.18971,0.0,2023,6,7,17,3,55,4
48.42080,-0.09223,0.03412,0.00000,0.03001,0.97661,-0.18971,0.0,2023,6,7,17,3,55,15
48.42090,-0.02223,-0.01838,0.00000,0.03221,0.97820,-0.18910,0.0,2023,6,7,17,3,55,26
48.42100,0.01277,0.06912,0.00000,0.03367,0.97612,-0.18947,0.0,2023,6,7,17,3,55,37
48.42110,-0.02223,-0.14088,0.00000,0.03050,0.97527,-0.18922,0.0,2023,6,7,17,3,55,48
48.42120,0.08277,0.06912,0.00000,0.03123,0.97698,-0.18776,0.0,2023,6,7,17,3,55,60
48.42130,-0.07473,-0.08838,0.00000,0.03196,0.97881,-0.18751,0.0,2023,6,7,17,3,55,71
48.42140,0.08277,0.03412,0.00000,0.03233,0.97612,-0.19069,0.0,2023,6,7,17,3,55,82
48.42150,-0.00473,-0.00088,0.00000,0.03026,0.97759,-0.18751,0.0,2023,6,7,17,3,55,93
48.42160,-0.12723,0.05162,0.00000,0.03160,0.97490,-0.18690,0.0,2023,6,7,17,3,55,104
48.42170,-0.21473,-0.05338,0.00000,0.03148,0.97661,-0.18703,0.0,2023,6,7,17,3,55,116
48.42180,-0.09223,-0.08838,0.00000,0.02855,0.97929,-0.18837,0.0,2023,6,7,17,3,55,127
48.42190,-0.02223,-0.12338,0.00000,0.03257,0.97600,-0.18837,0.0,2023,6,7,17,3,55,138
48.42200,-0.17973,-0.01838,0.00000,0.03111,0.97563,-0.19081,0.0,2023,6,7,17,3,55,149
48.42210,0.13527,-0.00088,0.00000,0.03074,0.97441,-0.19117,0.0,2023,6,7,17,3,55,160
48.42220,-0.17973,-0.05338,0.00000,0.03013,0.97429,-0.18873,0.0,2023,6,7,17,3,55,172
48.42230,-0.07473,-0.03588,0.00000,0.03111,0.97820,-0.18886,0.0,2023,6,7,17,3,55,183
48.42240,0.01277,-0.08838,0.00000,0.03074,0.97576,-0.19178,0.0,2023,6,7,17,3,55,194
48.42250,0.04777,0.19162,0.00000,0.03123,0.97527,-0.18678,0.0,2023,6,7,17,3,55,205
48.42260,-0.07473,-0.03588,0.00000,0.03074,0.97624,-0.18788,0.0,2023,6,7,17,3,55,216
48.42270,-0.10973,0.05162,0.00000,0.03270,0.97551,-0.18995,0.0,2023,6,7,17,3,55,228
48.42280,0.20527,-0.07088,0.00000,0.03184,0.97600,-0.18788,0.0,2023,6,7,17,3,55,239
48.42290,-0.00473,0.01662,0.00000,0.03233,0.97515,-0.18666,0.0,2023,6,7,17,3,55,250
48.42300,-0.05723,-0.00088,0.00000,0.03001,0.97771,-0.19105,0.0,2023,6,7,17,3,55,261
48.42310,0.04777,-0.21088,0.00000,0.03050,0.97685,-0.18983,0.0,2023,6,7,17,3,55,272
48.42320,0.04777,0.03412,0.00000,0.03148,0.97710,-0.18898,0.0,2023,6,7,17,3,55,284
48.42330,0.04777,-0.31588,0.00000,0.03148,0.97661,-0.18739,0.0,2023,6,7,17,3,55,295
48.42340,0.08277,-0.12338,0.00000,0.03013,0.97649,-0.18947,0.0,2023,6,7,17,3,55,306
48.42350,-0.00473,-0.07088,0.00000,0.03001,0.97502,-0.19020,0.0,2023,6,7,17,3,56,-682
48.42360,-0.05723,-0.15838,0.00000,0.02867,0.97698,-0.19142,0.0,2023,6,7,17,3,56,-671
48.42370,-0.00473,0.12162,0.00000,0.03172,0.97649,-0.18678,0.0,2023,6,7,17,3,56,-659
48.42380,0.20527,0.03412,0.00000,0.03062,0.97844,-0.19056,0.0,2023,6,7,17,3,56,-648
48.42390,-0.00473,-0.17588,0.00000,0.03343,0.97722,-0.18715,0.0,2023,6,7,17,3,56,-637
48.42400,0.22277,0.03412,0.00000,0.03318,0.97673,-0.18971,0.0,2023,6,7,17,3,56,-626
48.42410,0.18777,-0.12338,0.00000,0.02989,0.97771,-0.19069,0.0,2023,6,7,17,3,56,-615
48.42420,-0.00473,-0.15838,0.00000,0.03087,0.97527,-0.18776,0.0,2023,6,7,17,3,56,-603
48.42430,0.01277,-0.12338,0.00000,0.03050,0.97820,-0.18910,0.0,2023,6,7,17,3,56,-592
48.42440,-0.17973,-0.21088,0.00000,0.03038,0.97783,-0.18947,0.0,2023,6,7,17,3,56,-581
48.42450,-0.12723,-0.01838,0.00000,0.03087,0.97478,-0.18861,0.0,2023,6,7,17,3,56,-570
48.42460,-0.09223,0.15662,0.00000,0.03050,0.97624,-0.18727,0.0,2023,6,7,17,3,56,-559
48.42470,0.10027,0.01662,0.00000,0.03001,0.97527,-0.18910,0.0,2023,6,7,17,3,56,-547
48.42480,-0.02223,-0.24588,0.00000,0.03074,0.97576,-0.19044,0.0,2023,6,7,17,3,56,-536
48.42490,0.01277,-0.33338,0.00000,0.03026,0.97759,-0.18776,0.0,2023,6,7,17,3,56,-525
48.42500,-0.12723,-0.07088,0.00000,0.03026,0.97722,-0.18922,0.0,2023,6,7,17,3,56,-514
48.42510,-0.00473,0.05162,0.00000,0.03160,0.97515,-0.18947,0.0,2023,6,7,17,3,56,-503
48.42520,-0.14473,-0.17588,0.00000,0.03050,0.97673,-0.18788,0.0,2023,6,7,17,3,56,-491
48.42530,0.03027,0.13912,0.00000,0.03196,0.97759,-0.19020,0.0,2023,6,7,17,3,56,-480
48.42540,0.11777,-0.07088,0.00000,0.02952,0.97454,-0.18861,0.0,2023,6,7,17,3,56,-469
48.42550,0.06527,-0.26338,0.00000,0.03160,0.97661,-0.18910,0.0,2023,6,7,17,3,56,-458
48.42560,0.01277,-0.10588,0.00000,0.03087,0.97612,-0.19239,0.0,2023,6,7,17,3,56,-447
48.42570,0.01277,0.08662,0.00000,0.03001,0.97868,-0.19142,0.0,2023,6,7,17,3,56,-435
48.42580,-0.00473,-0.14088,0.00000,0.03343,0.97344,-0.18873,0.0,2023,6,7,17,3,56,-424
48.42590,-0.30223,0.10412,0.00000,0.03184,0.97563,-0.18898,0.0,2023,6,7,17,3,56,-413
48.42600,0.11777,0.01662,0.00000,0.03209,0.97685,-0.18934,0.0,2023,6,7,17,3,56,-402
48.42610,-0.14473,0.01662,0.00000,0.03050,0.97454,-0.18812,0.0,2023,6,7,17,3,56,-391
48.42620,-0.02223,-0.05338,0.00000,0.03172,0.97551,-0.18788,0.0,2023,6,7,17,3,56,-379
48.42630,0.08277,0.05162,0.00000,0.03270,0.97722,-0.18886,0.0,2023,6,7,17,3,56,-368
48.42640,0.03027,-0.28088,0.00000,0.03367,0.97746,-0.18910,0.0,2023,6,7,17,3,56,-357
48.42650,-0.12723,0.06912,0.00000,0.03160,0.97563,-0.18995,0.0,2023,6,7,17,3,56,-346
48.42660,-0.03973,-0.07088,0.00000,0.03074,0.97868,-0.19044,0.0,2023,6,7,17,3,56,-335
48.42670,0.06527,0.05162,0.00000,0.02916,0.97698,-0.18922,0.0,2023,6,7,17,3,56,-323
48.42680,0.06527,-0.03588,0.00000,0.03221,0.97490,-0.18910,0.0,2023,6,7,17,3,56,-312
48.42690,0.08277,-0.07088,0.00000,0.03270,0.97502,-0.18910,0.0,2023,6,7,17,3,56,-301
48.42700,-0.03973,-0.00088,0.00000,0.03172,0.97551,-0.18959,0.0,2023,6,7,17,3,56,-290
48.42710,0.25777,0.01662,0.00000,0.02977,0.97502,-0.19032,0.0,2023,6,7,17,3,56,-279
48.42720,-0.00473,-0.07088,0.00000,0.03087,0.97612,-0.18715,0.0,2023,6,7,17,3,56,-267
48.42730,-0.05723,0.03412,0.00000,0.03331,0.97673,-0.19117,0.0,2023,6,7,17,3,56,-256
48.42740,0.06527,-0.01838,0.00000,0.03123,0.97624,-0.19105,0.0,2023,6,7,17,3,56,-245
48.42750,-0.05723,0.10412,0.00000,0.03087,0.97576,-0.18654,0.0,2023,6,7,17,3,56,-234
48.42760,-0.09223,-0.07088,0.00000,0.03270,0.97905,-0.19008,0.0,2023,6,7,17,3,56,-223
48.42770,0.01277,-0.05338,0.00000,0.03087,0.97661,-0.18922,0.0,2023,6,7,17,3,56,-211
48.42780,-0.21473,0.03412,0.00000,0.03245,0.97563,-0.18983,0.0,2023,6,7,17,3,56,-200
48.42790,-0.19723,0.06912,0.00000,0.03221,0.97539,-0.18825,0.0,2023,6,7,17,3,56,-189
48.42800,-0.02223,-0.03588,0.00000,0.03001,0.97588,-0.18861,0.0,2023,6,7,17,3,56,-178
48.42810,0.15277,-0.12338,0.00000,0.03306,0.97563,-0.18788,0.0,2023,6,7,17,3,56,-167
48.42820,-0.17973,0.08662,0.00000,0.03184,0.97478,-0.18861,0.0,2023,6,7,17,3,56,-155
48.42830,-0.07473,0.06912,0.00000,0.03245,0.97624,-0.18898,0.0,2023,6,7,17,3,56,-144
48.42840,-0.09223,-0.19338,0.00000,0.03282,0.97795,-0.18703,0.0,2023,6,7,17,3,56,-133
48.42850,0.04777,-0.00088,0.00000,0.03135,0.97783,-0.18459,0.0,2023,6,7,17,3,56,-122
48.42860,0.13527,0.03412,0.00000,0.03135,0.97515,-0.18764,0.0,2023,6,7,17,3,56,-111
48.42870,-0.05723,-0.03588,0.00000,0.03148,0.97576,-0.19117,0.0,2023,6,7,17,3,56,-99
48.42880,-0.03973,0.10412,0.00000,0.03074,0.97722,-0.18800,0.0,2023,6,7,17,3,56,-88
48.42890,0.13527,-0.19338,0.00000,0.03123,0.97868,-0.18690,0.0,2023,6,7,17,3,56,-77
48.42900,-0.02223,0.05162,0.00000,0.03074,0.97612,-0.18983,0.0,2023,6,7,17,3,56,-66
48.42910,-0.09223,-0.10588,0.00000,0.03416,0.97637,-0.18861,0.0,2023,6,7,17,3,56,-55
48.42920,-0.10973,0.15662,0.00000,0.03123,0.97722,-0.18666,0.0,2023,6,7,17,3,56,-43
48.42930,0.04777,0.15662,0.00000,0.03135,0.97685,-0.18764,0.0,2023,6,7,17,3,56,-32
48.42940,0.17027,-0.05338,0.00000,0.03172,0.97515,-0.18776,0.0,2023,6,7,17,3,56,-21
48.42950,-0.09223,-0.08838,0.00000,0.03148,0.97685,-0.18690,0.0,2023,6,7,17,3,56,-10
48.42960,-0.24973,0.17412,0.00000,0.03343,0.97832,-0.18800,0.0,2023,6,7,17,3,56,0
48.42970,0.01277,-0.08838,0.00000,0.03282,0.97417,-0.19142,0.0,2023,6,7,17,3,56,12
48.42980,-0.09223,-0.08838,0.00000,0.02867,0.97759,-0.18837,0.0,2023,6,7,17,3,56,23
48.42990,-0.19723,-0.14088,0.00000,0.03172,0.97624,-0.18715,0.0,2023,6,7,17,3,56,34
48.43000,-0.00473,-0.03588,0.00000,0.03050,0.97637,-0.19154,0.0,2023,6,7,17,3,56,45
48.43010,0.01277,-0.08838,0.00000,0.03257,0.97637,-0.19032,0.0,2023,6,7,17,3,56,56
48.43020,-0.19723,-0.07088,0.00000,0.03148,0.97783,-0.18812,0.0,2023,6,7,17,3,56,68
48.43030,0.08277,0.10412,0.00000,0.03062,0.97856,-0.18825,0.0,2023,6,7,17,3,56,79
48.43040,-0.02223,-0.01838,0.00000,0.03209,0.97527,-0.18983,0.0,2023,6,7,17,3,56,90
48.43050,-0.00473,-0.17588,0.00000,0.02965,0.97637,-0.18666,0.0,2023,6,7,17,3,56,101
48.43060,-0.05723,0.15662,0.00000,0.03270,0.97551,-0.18995,0.0,2023,6,7,17,3,56,112
48.43070,0.01277,-0.00088,0.00000,0.03233,0.97929,-0.18690,0.0,2023,6,7,17,3,56,124
48.43080,0.04777,-0.00088,0.00000,0.03111,0.97490,-0.18861,0.0,2023,6,7,17,3,56,135
48.43090,0.01277,0.19162,0.00000,0.03123,0.97502,-0.18971,0.0,2023,6,7,17,3,56,146
48.43100,-0.03973,0.05162,0.00000,0.03172,0.97746,-0.18751,0.0,2023,6,7,17,3,56,157
48.43110,0.25777,-0.12338,0.00000,0.03062,0.97856,-0.18812,0.0,2023,6,7,17,3,56,168
48.43120,0.29277,-0.01838,0.00000,0.02965,0.97515,-0.18995,0.0,2023,6,7,17,3,56,180
48.43130,-0.14473,0.12162,0.00000,0.03257,0.97710,-0.18812,0.0,2023,6,7,17,3,56,191
48.43140,0.01277,0.08662,0.00000,0.03294,0.97734,-0.18861,0.0,2023,6,7,17,3,56,202
48.43150,0.03027,-0.05338,0.00000,0.03270,0.97832,-0.18727,0.0,2023,6,7,17,3,56,213
48.43160,0.03027,-0.03588,0.00000,0.03257,0.97490,-0.18825,0.0,2023,6,7,17,3,56,224
48.43170,0.03027,-0.12338,0.00000,0.03001,0.97673,-0.18812,0.0,2023,6,7,17,3,56,236
48.43180,-0.09223,0.12162,0.00000,0.03282,0.97563,-0.19008,0.0,2023,6,7,17,3,56,247
48.43190,-0.24973,-0.10588,0.00000,0.03087,0.97759,-0.18837,0.0,2023,6,7,17,3,56,258
48.43200,0.11777,-0.19338,0.00000,0.03318,0.97868,-0.19008,0.0,2023,6,7,17,3,56,269
48.43210,0.03027,-0.15838,0.00000,0.03270,0.97539,-0.18910,0.0,2023,6,7,17,3,56,280
48.43220,0.01277,-0.03588,0.00000,0.03245,0.97734,-0.18886,0.0,2023,6,7,17,3,56,292
48.43230,-0.03973,-0.01838,0.00000,0.02952,0.97612,-0.18788,0.0,2023,6,7,17,3,56,303
48.43240,-0.12723,0.13912,0.00000,0.03087,0.97673,-0.18776,0.0,2023,6,7,17,3,56,314
48.43250,0.22277,-0.14088,0.00000,0.03074,0.97783,-0.18995,0.0,2023,6,7,17,3,57,-674
48.43260,0.03027,-0.00088,0.00000,0.02952,0.97637,-0.19044,0.0,2023,6,7,17,3,57,-663
48.43270,0.10027,-0.10588,0.00000,0.03209,0.97612,-0.18837,0.0,2023,6,7,17,3,57,-651
48.43280,-0.16223,0.19162,0.00000,0.03209,0.97466,-0.19008,0.0,2023,6,7,17,3,57,-640
48.43290,-0.09223,-0.05338,0.00000,0.03074,0.97722,-0.18934,0.0,2023,6,7,17,3,57,-629
48.43300,-0.17973,-0.17588,0.00000,0.03087,0.97600,-0.18983,0.0,2023,6,7,17,3,57,-618
48.43310,-0.19723,-0.00088,0.00000,0.03062,0.97661,-0.18995,0.0,2023,6,7,17,3,57,-607
48.43320,-0.02223,0.12162,0.00000,0.03123,0.97942,-0.19008,0.0,2023,6,7,17,3,57,-595
48.43330,-0.05723,-0.01838,0.00000,0.03294,0.97563,-0.18995,0.0,2023,6,7,17,3,57,-584
48.43340,0.04777,-0.15838,0.00000,0.03087,0.97698,-0.19081,0.0,2023,6,7,17,3,57,-573
48.43350,-0.12723,-0.03588,0.00000,0.03123,0.97673,-0.19117,0.0,2023,6,7,17,3,57,-562
48.43360,0.08277,0.12162,0.00000,0.03221,0.97771,-0.18898,0.0,2023,6,7,17,3,57,-551
48.43370,-0.07473,0.06912,0.00000,0.03038,0.97551,-0.19215,0.0,2023,6,7,17,3,57,-539
48.43380,-0.12723,0.03412,0.00000,0.03099,0.97600,-0.19325,0.0,2023,6,7,17,3,57,-528
48.43390,0.03027,0.10412,0.00000,0.03135,0.97844,-0.18788,0.0,2023,6,7,17,3,57,-517
48.43400,0.06527,-0.03588,0.00000,0.03001,0.97563,-0.19154,0.0,2023,6,7,17,3,57,-506
48.43410,0.15277,-0.03588,0.00000,0.03245,0.97685,-0.18837,0.0,2023,6,7,17,3,57,-495
48.43420,-0.14473,-0.17588,0.00000,0.03270,0.97917,-0.18837,0.0,2023,6,7,17,3,57,-483
48.43430,0.08277,-0.00088,0.00000,0.02940,0.97624,-0.18995,0.0,2023,6,7,17,3,57,-472
48.43440,0.11777,0.01662,0.00000,0.03001,0.97759,-0.18910,0.0,2023,6,7,17,3,57,-461
48.43450,-0.05723,-0.05338,0.00000,0.03196,0.97429,-0.18690,0.0,2023,6,7,17,3,57,-450
48.43460,0.17027,0.15662,0.00000,0.03062,0.97612,-0.18690,0.0,2023,6,7,17,3,57,-439
48.43470,-0.12723,-0.10588,0.00000,0.03074,0.97771,-0.18934,0.0,2023,6,7,17,3,57,-427
48.43480,-0.07473,-0.00088,0.00000,0.03135,0.97771,-0.18995,0.0,2023,6,7,17,3,57,-416
48.43490,0.01277,-0.03588,0.00000,0.02830,0.97783,-0.18910,0.0,2023,6,7,17,3,57,-405
48.43500,0.01277,0.10412,0.00000,0.03074,0.97637,-0.19056,0.0,2023,6,7,17,3,57,-394
48.43510,-0.10973,-0.01838,0.00000,0.03294,0.97576,-0.19020,0.0,2023,6,7,17,3,57,-383
48.43520,0.03027,-0.05338,0.00000,0.03038,0.97405,-0.19239,0.0,2023,6,7,17,3,57,-371
48.43530,0.06527,-0.07088,0.00000,0.03270,0.97368,-0.18800,0.0,2023,6,7,17,3,57,-360
48.43540,-0.07473,-0.05338,0.00000,0.03318,0.97649,-0.19056,0.0,2023,6,7,17,3,57,-349
48.43550,0.10027,0.01662,0.00000,0.03026,0.97698,-0.19020,0.0,2023,6,7,17,3,57,-338
48.43560,-0.02223,0.26162,0.00000,0.03209,0.97515,-0.18873,0.0,2023,6,7,17,3,57,-327
48.43570,0.08277,0.01662,0.00000,0.03184,0.97551,-0.19008,0.0,2023,6,7,17,3,57,-315
48.43580,0.10027,0.12162,0.00000,0.03099,0.97441,-0.19142,0.0,2023,6,7,17,3,57,-304
48.43590,-0.24973,0.12162,0.00000,0.02989,0.97600,-0.19008,0.0,2023,6,7,17,3,57,-293
48.43600,-0.07473,-0.15838,0.00000,0.03087,0.97783,-0.18910,0.0,2023,6,7,17,3,57,-282
48.43610,0.04777,0.29662,0.00000,0.03087,0.97612,-0.18910,0.0,2023,6,7,17,3,57,-271
48.43620,-0.00473,-0.14088,0.00000,0.02733,0.97527,-0.19117,0.0,2023,6,7,17,3,57,-259
48.43630,0.03027,0.01662,0.00000,0.03111,0.97698,-0.19093,0.0,2023,6,7,17,3,57,-248
48.43640,-0.03973,-0.01838,0.00000,0.02977,0.97612,-0.19020,0.0,2023,6,7,17,3,57,-237
48.43650,-0.00473,-0.00088,0.00000,0.03245,0.97734,-0.18861,0.0,2023,6,7,17,3,57,-226
48.43660,0.01277,-0.22838,0.00000,0.02916,0.97881,-0.18910,0.0,2023,6,7,17,3,57,-215
48.43670,0.04777,-0.08838,0.00000,0.02977,0.97783,-0.19349,0.0,2023,6,7,17,3,57,-203
48.43680,-0.03973,-0.21088,0.00000,0.03184,0.97588,-0.18995,0.0,2023,6,7,17,3,57,-192
48.43690,0.04777,-0.17588,0.00000,0.02952,0.97783,-0.19032,0.0,2023,6,7,17,3,57,-181
48.43700,0.04777,-0.07088,0.00000,0.03233,0.97698,-0.19142,0.0,2023,6,7,17,3,57,-170
48.43710,0.22277,-0.08838,0.00000,0.03111,0.97466,-0.19105,0.0,2023,6,7,17,3,57,-159
48.43720,-0.07473,-0.05338,0.00000,0.03062,0.97368,-0.18825,0.0,2023,6,7,17,3,57,-147
48.43730,-0.00473,0.05162,0.00000,0.03087,0.97588,-0.18776,0.0,2023,6,7,17,3,57,-136
48.43740,0.10027,-0.24588,0.00000,0.03184,0.97576,-0.19056,0.0,2023,6,7,17,3,57,-125
48.43750,-0.05723,-0.07088,0.00000,0.03099,0.97478,-0.19008,0.0,2023,6,7,17,3,57,-114
48.43760,-0.07473,-0.03588,0.00000,0.03233,0.97820,-0.19020,0.0,2023,6,7,17,3,57,-103
48.43770,0.08277,-0.21088,0.00000,0.03135,0.97588,-0.18971,0.0,2023,6,7,17,3,57,-91
48.43780,0.08277,-0.21088,0.00000,0.02989,0.97771,-0.18873,0.0,2023,6,7,17,3,57,-80
48.43790,-0.02223,0.10412,0.00000,0.03221,0.97527,-0.18947,0.0,2023,6,7,17,3,57,-69
48.43800,-0.05723,-0.07088,0.00000,0.03172,0.97539,-0.18812,0.0,2023,6,7,17,3,57,-58
48.43810,0.17027,-0.15838,0.00000,0.02989,0.97893,-0.18751,0.0,2023,6,7,17,3,57,-47
48.43820,0.11777,0.13912,0.00000,0.03160,0.97649,-0.19008,0.0,2023,6,7,17,3,57,-35
48.43830,-0.12723,-0.01838,0.00000,0.03001,0.97771,-0.18898,0.0,2023,6,7,17,3,57,-24
48.43840,0.03027,0.05162,0.00000,0.03001,0.97624,-0.18886,0.0,2023,6,7,17,3,57,-13
48.43850,0.03027,0.08662,0.00000,0.03050,0.97612,-0.18922,0.0,2023,6,7,17,3,57,-2
48.43860,-0.03973,0.03412,0.00000,0.03221,0.97539,-0.19117,0.0,2023,6,7,17,3,57,8
48.43870,0.04777,0.05162,0.00000,0.03111,0.97649,-0.18886,0.0,2023,6,7,17,3,57,20
48.43880,-0.05723,0.17412,0.00000,0.02794,0.97759,-0.18922,0.0,2023,6,7,17,3,57,31
48.43890,0.01277,0.12162,0.00000,0.03416,0.97478,-0.19069,0.0,2023,6,7,17,3,57,42
48.43900,0.03027,-0.05338,0.00000,0.02952,0.97795,-0.18910,0.0,2023,6,7,17,3,57,53
48.43910,-0.14473,0.15662,0.00000,0.03160,0.97734,-0.19008,0.0,2023,6,7,17,3,57,64
48.43920,-0.19723,0.01662,0.00000,0.03209,0.97820,-0.18812,0.0,2023,6,7,17,3,57,76
48.43930,0.08277,-0.01838,0.00000,0.03135,0.97637,-0.19105,0.0,2023,6,7,17,3,57,87
48.43940,0.06527,-0.05338,0.00000,0.03257,0.97637,-0.18812,0.0,2023,6,7,17,3,57,98
48.43950,-0.31973,-0.01838,0.00000,0.03270,0.97576,-0.18556,0.0,2023,6,7,17,3,57,109
48.43960,-0.00473,0.10412,0.00000,0.03245,0.97527,-0.18947,0.0,2023,6,7,17,3,57,120
48.43970,0.13527,0.15662,0.00000,0.03013,0.97844,-0.19105,0.0,2023,6,7,17,3,57,132
48.43980,0.06527,0.08662,0.00000,0.02989,0.97515,-0.18776,0.0,2023,6,7,17,3,57,143
48.43990,-0.14473,0.10412,0.00000,0.03087,0.97515,-0.18837,0.0,2023,6,7,17,3,57,154
48.44000,-0.03973,-0.00088,0.00000,0.03294,0.97685,-0.18947,0.0,2023,6,7,17,3,57,165
48.44010,0.17027,-0.07088,0.00000,0.03294,0.97405,-0.18934,0.0,2023,6,7,17,3,57,176
48.44020,-0.07473,0.05162,0.00000,0.03148,0.97795,-0.18715,0.0,2023,6,7,17,3,57,188
48.44030,-0.07473,-0.15838,0.00000,0.03050,0.97490,-0.18898,0.0,2023,6,7,17,3,57,199
48.44040,-0.10973,0.03412,0.00000,0.03038,0.97624,-0.18898,0.0,2023,6,7,17,3,57,210
48.44050,-0.03973,-0.08838,0.00000,0.03038,0.97551,-0.19056,0.0,2023,6,7,17,3,57,221
48.44060,-0.09223,0.13912,0.00000,0.03050,0.97576,-0.18642,0.0,2023,6,7,17,3,57,232
48.44070,-0.17973,-0.14088,0.00000,0.03074,0.97649,-0.18849,0.0,2023,6,7,17,3,57,244
48.44080,0.11777,-0.07088,0.00000,0.03257,0.97637,-0.18886,0.0,2023,6,7,17,3,57,255
48.44090,-0.24973,0.13912,0.00000,0.02940,0.97710,-0.18873,0.0,2023,6,7,17,3,57,266
48.44100,0.17027,0.20912,0.00000,0.03074,0.97795,-0.19032,0.0,2023,6,7,17,3,57,277
48.44110,0.06527,-0.28088,0.00000,0.03123,0.97722,-0.18861,0.0,2023,6,7,17,3,57,288
48.44120,-0.17973,0.03412,0.00000,0.03221,0.97563,-0.18788,0.0,2023,6,7,17,3,57,300
48.44130,0.10027,-0.03588,0.00000,0.03233,0.97563,-0.19264,0.0,2023,6,7,17,3,57,311
48.44140,0.10027,-0.08838,0.00000,0.03111,0.97551,-0.18959,0.0,2023,6,7,17,3,58,-677
48.44150,-0.09223,0.15662,0.00000,0.03026,0.97685,-0.19288,0.0,2023,6,7,17,3,58,-666
48.44160,-0.05723,-0.10588,0.00000,0.02843,0.97539,-0.18983,0.0,2023,6,7,17,3,58,-655
48.44170,-0.09223,0.15662,0.00000,0.03294,0.97649,-0.18959,0.0,2023,6,7,17,3,58,-643
48.44180,0.17027,-0.21088,0.00000,0.03148,0.97527,-0.19239,0.0,2023,6,7,17,3,58,-632
48.44190,-0.00473,-0.19338,0.00000,0.03196,0.97698,-0.19081,0.0,2023,6,7,17,3,58,-621
48.44200,0.06527,-0.19338,0.00000,0.03306,0.97759,-0.19093,0.0,2023,6,7,17,3,58,-610
48.44210,-0.05723,-0.00088,0.00000,0.02952,0.97624,-0.19044,0.0,2023,6,7,17,3,58,-599
48.44220,0.03027,0.13912,0.00000,0.02952,0.97661,-0.19117,0.0,2023,6,7,17,3,58,-587
48.44230,-0.17973,-0.08838,0.00000,0.03318,0.97710,-0.18837,0.0,2023,6,7,17,3,58,-576
48.44240,-0.07473,-0.10588,0.00000,0.03111,0.97710,-0.18947,0.0,2023,6,7,17,3,58,-565
48.44250,-0.17973,-0.07088,0.00000,0.03087,0.97661,-0.19008,0.0,2023,6,7,17,3,58,-554
48.44260,-0.09223,-0.07088,0.00000,0.03172,0.97576,-0.18971,0.0,2023,6,7,17,3,58,-543
48.44270,0.04777,0.20912,0.00000,0.03160,0.97685,-0.18837,0.0,2023,6,7,17,3,58,-531
48.44280,-0.17973,-0.14088,0.00000,0.03209,0.97588,-0.19008,0.0,2023,6,7,17,3,58,-520
48.44290,-0.05723,0.12162,0.00000,0.03135,0.97661,-0.19093,0.0,2023,6,7,17,3,58,-509
48.44300,0.08277,-0.21088,0.00000,0.03135,0.97637,-0.19264,0.0,2023,6,7,17,3,58,-498
48.44310,0.18777,-0.07088,0.00000,0.02916,0.97563,-0.19044,0.0,2023,6,7,17,3,58,-487
48.44320,0.11777,-0.07088,0.00000,0.03221,0.97478,-0.18971,0.0,2023,6,7,17,3,58,-475
48.44330,0.13527,0.10412,0.00000,0.02977,0.97588,-0.18971,0.0,2023,6,7,17,3,58,-464
48.44340,0.08277,-0.10588,0.00000,0.03209,0.97685,-0.18983,0.0,2023,6,7,17,3,58,-453
48.44350,-0.00473,-0.08838,0.00000,0.03184,0.97624,-0.18873,0.0,2023,6,7,17,3,58,-442
48.44360,-0.21473,0.05162,0.00000,0.03440,0.97734,-0.19081,0.0,2023,6,7,17,3,58,-431
48.44370,0.18777,0.08662,0.00000,0.03221,0.97502,-0.19032,0.0,2023,6,7,17,3,58,-419
48.44380,0.04777,-0.17588,0.00000,0.03294,0.97746,-0.19008,0.0,2023,6,7,17,3,58,-408
48.44390,-0.09223,-0.24588,0.00000,0.02916,0.97490,-0.19191,0.0,2023,6,7,17,3,58,-397
48.44400,0.01277,-0.12338,0.00000,0.03257,0.97710,-0.19069,0.0,2023,6,7,17,3,58,-386
48.44410,0.06527,0.29662,0.00000,0.02977,0.97673,-0.18800,0.0,2023,6,7,17,3,58,-375
48.44420,-0.07473,-0.12338,0.00000,0.03050,0.97698,-0.18971,0.0,2023,6,7,17,3,58,-363
48.44430,0.10027,-0.03588,0.00000,0.03062,0.97832,-0.19081,0.0,2023,6,7,17,3,58,-352
48.44440,-0.09223,0.24412,0.00000,0.02977,0.97551,-0.19142,0.0,2023,6,7,17,3,58,-341
48.44450,0.03027,0.12162,0.00000,0.03270,0.97673,-0.19056,0.0,2023,6,7,17,3,58,-330
48.44460,-0.19723,0.06912,0.00000,0.03148,0.97881,-0.18947,0.0,2023,6,7,17,3,58,-319
48.44470,-0.16223,0.22662,0.00000,0.02879,0.97490,-0.18886,0.0,2023,6,7,17,3,58,-307
48.44480,0.10027,-0.00088,0.00000,0.03123,0.97612,-0.19166,0.0,2023,6,7,17,3,58,-296
48.44490,0.20527,-0.03588,0.00000,0.03257,0.97563,-0.19142,0.0,2023,6,7,17,3,58,-285
48.44500,-0.07473,-0.05338,0.00000,0.03294,0.97502,-0.18776,0.0,2023,6,7,17,3,58,-274
48.44510,-0.05723,-0.01838,0.00000,0.03135,0.97478,-0.18812,0.0,2023,6,7,17,3,58,-263
48.44520,0.11777,0.12162,0.00000,0.03318,0.97746,-0.18983,0.0,2023,6,7,17,3,58,-251
48.44530,-0.23223,-0.17588,0.00000,0.03245,0.97722,-0.19020,0.0,2023,6,7,17,3,58,-240
48.44540,0.15277,-0.05338,0.00000,0.03233,0.97637,-0.18995,0.0,2023,6,7,17,3,58,-229
48.44550,0.06527,-0.01838,0.00000,0.03062,0.97881,-0.18983,0.0,2023,6,7,17,3,58,-218
48.44560,-0.03973,0.01662,0.00000,0.03294,0.97893,-0.18812,0.0,2023,6,7,17,3,58,-207
48.44570,0.15277,-0.00088,0.00000,0.03392,0.97539,-0.19215,0.0,2023,6,7,17,3,58,-195
48.44580,0.08277,0.17412,0.00000,0.03160,0.97710,-0.18922,0.0,2023,6,7,17,3,58,-184
48.44590,-0.00473,0.01662,0.00000,0.03001,0.97527,-0.18959,0.0,2023,6,7,17,3,58,-173
48.44600,-0.21473,0.24412,0.00000,0.03294,0.97685,-0.18800,0.0,2023,6,7,17,3,58,-162
48.44610,0.03027,-0.22838,0.00000,0.03148,0.97588,-0.18812,0.0,2023,6,7,17,3,58,-151
48.44620,-0.09223,0.12162,0.00000,0.03294,0.97917,-0.18886,0.0,2023,6,7,17,3,58,-139
48.44630,0.10027,-0.00088,0.00000,0.03038,0.97637,-0.18751,0.0,2023,6,7,17,3,58,-128
48.44640,0.04777,-0.19338,0.00000,0.03148,0.97759,-0.18849,0.0,2023,6,7,17,3,58,-117
48.44650,-0.02223,-0.10588,0.00000,0.03257,0.97710,-0.19020,0.0,2023,6,7,17,3,58,-106
48.44660,-0.03973,0.01662,0.00000,0.03184,0.97722,-0.18886,0.0,2023,6,7,17,3,58,-95
48.44670,-0.02223,-0.12338,0.00000,0.03001,0.97478,-0.19105,0.0,2023,6,7,17,3,58,-83
48.44680,-0.02223,0.12162,0.00000,0.03160,0.97441,-0.18959,0.0,2023,6,7,17,3,58,-72
48.44690,-0.07473,-0.10588,0.00000,0.03184,0.97515,-0.18886,0.0,2023,6,7,17,3,58,-61
48.44700,-0.03973,0.01662,0.00000,0.03013,0.97454,-0.18812,0.0,2023,6,7,17,3,58,-50
48.44710,-0.02223,-0.12338,0.00000,0.03209,0.97563,-0.18825,0.0,2023,6,7,17,3,58,-39
48.44720,-0.05723,0.10412,0.00000,0.03026,0.97576,-0.19020,0.0,2023,6,7,17,3,58,-27
48.44730,0.15277,-0.22838,0.00000,0.03099,0.97746,-0.18934,0.0,2023,6,7,17,3,58,-16
48.44740,0.08277,-0.00088,0.00000,0.03343,0.97710,-0.18642,0.0,2023,6,7,17,3,58,-5
48.44750,-0.14473,0.05162,0.00000,0.03135,0.97624,-0.18593,0.0,2023,6,7,17,3,58,5
48.44760,-0.07473,0.06912,0.00000,0.03318,0.97588,-0.19032,0.0,2023,6,7,17,3,58,16
48.44770,-0.10973,-0.03588,0.00000,0.02977,0.97490,-0.18812,0.0,2023,6,7,17,3,58,28
48.44780,-0.00473,-0.14088,0.00000,0.03123,0.97527,-0.19117,0.0,2023,6,7,17,3,58,39
48.44790,-0.03973,0.03412,0.00000,0.02965,0.97746,-0.18837,0.0,2023,6,7,17,3,58,50
48.44800,0.18777,0.05162,0.00000,0.03196,0.97734,-0.18947,0.0,2023,6,7,17,3,58,61
48.44810,0.08277,-0.03588,0.00000,0.03184,0.97637,-0.19117,0.0,2023,6,7,17,3,58,72
48.44820,0.22277,-0.07088,0.00000,0.03233,0.97673,-0.19142,0.0,2023,6,7,17,3,58,84
48.44830,-0.07473,0.22662,0.00000,0.03233,0.97624,-0.18837,0.0,2023,6,7,17,3,58,95
48.44840,-0.10973,-0.07088,0.00000,0.02952,0.97771,-0.18727,0.0,2023,6,7,17,3,58,106
48.44850,-0.14473,-0.14088,0.00000,0.03026,0.97698,-0.19008,0.0,2023,6,7,17,3,58,117
48.44860,0.08277,-0.07088,0.00000,0.02965,0.97685,-0.19239,0.0,2023,6,7,17,3,58,128
48.44870,-0.16223,-0.03588,0.00000,0.03294,0.97637,-0.18825,0.0,2023,6,7,17,3,58,140
48.44880,0.03027,0.03412,0.00000,0.03209,0.97807,-0.18764,0.0,2023,6,7,17,3,58,151
48.44890,0.03027,-0.01838,0.00000,0.03135,0.97844,-0.18837,0.0,2023,6,7,17,3,58,162
48.44900,0.13527,-0.29838,0.00000,0.03172,0.97563,-0.18520,0.0,2023,6,7,17,3,58,173
48.44910,0.03027,0.10412,0.00000,0.03074,0.97380,-0.18776,0.0,2023,6,7,17,3,58,184
48.44920,0.03027,0.13912,0.00000,0.03221,0.97600,-0.18971,0.0,2023,6,7,17,3,58,196
48.44930,-0.00473,0.01662,0.00000,0.03294,0.97515,-0.19117,0.0,2023,6,7,17,3,58,207
48.44940,0.10027,-0.01838,0.00000,0.03013,0.97624,-0.19166,0.0,2023,6,7,17,3,58,218
48.44950,0.11777,0.03412,0.00000,0.03087,0.97759,-0.18934,0.0,2023,6,7,17,3,58,229
48.44960,-0.16223,0.13912,0.00000,0.03184,0.97661,-0.18959,0.0,2023,6,7,17,3,58,240
48.44970,0.20527,-0.05338,0.00000,0.03196,0.97661,-0.19117,0.0,2023,6,7,17,3,58,252
48.44980,-0.05723,0.15662,0.00000,0.03318,0.97466,-0.18764,0.0,2023,6,7,17,3,58,263
48.44990,0.10027,-0.17588,0.00000,0.03148,0.97612,-0.18825,0.0,2023,6,7,17,3,58,274
48.45000,0.10027,0.15662,0.00000,0.03294,0.97759,-0.18934,0.0,2023,6,7,17,3,58,285
48.45010,0.08277,0.03412,0.00000,0.02965,0.97649,-0.18666,0.0,2023,6,7,17,3,58,296
48.45020,0.03027,-0.15838,0.00000,0.03099,0.97344,-0.19093,0.0,2023,6,7,17,3,58,308
48.45030,0.06527,0.10412,0.00000,0.03160,0.97661,-0.18825,0.0,2023,6,7,17,3,58,319
48.45040,-0.02223,-0.01838,0.00000,0.02916,0.97637,-0.18898,0.0,2023,6,7,17,3,59,-669
48.45050,0.27527,-0.19338,0.00000,0.03172,0.97563,-0.19008,0.0,2023,6,7,17,3,59,-658
48.45060,-0.03973,-0.08838,0.00000,0.03196,0.97454,-0.18922,0.0,2023,6,7,17,3,59,-647
48.45070,-0.07473,0.17412,0.00000,0.02952,0.97612,-0.18690,0.0,2023,6,7,17,3,59,-635
48.45080,0.10027,0.05162,0.00000,0.03001,0.97551,-0.18934,0.0,2023,6,7,17,3,59,-624
48.45090,-0.00473,-0.10588,0.00000,0.03392,0.97746,-0.18922,0.0,2023,6,7,17,3,59,-613
48.45100,-0.14473,-0.00088,0.00000,0.03184,0.97502,-0.19166,0.0,2023,6,7,17,3,59,-602
48.45110,0.03027,0.06912,0.00000,0.03306,0.97685,-0.18922,0.0,2023,6,7,17,3,59,-591
48.45120,-0.02223,0.06912,0.00000,0.03087,0.97661,-0.18764,0.0,2023,6,7,17,3,59,-579
48.45130,-0.09223,-0.03588,0.00000,0.03379,0.97734,-0.19191,0.0,2023,6,7,17,3,59,-568
48.45140,0.20527,-0.08838,0.00000,0.03160,0.97405,-0.19044,0.0,2023,6,7,17,3,59,-557
48.45150,-0.05723,0.19162,0.00000,0.03013,0.97734,-0.18898,0.0,2023,6,7,17,3,59,-546
48.45160,0.06527,-0.07088,0.00000,0.03050,0.97734,-0.18910,0.0,2023,6,7,17,3,59,-535
48.45170,0.06527,0.17412,0.00000,0.03074,0.97710,-0.18861,0.0,2023,6,7,17,3,59,-523
48.45180,-0.09223,-0.22838,0.00000,0.03160,0.97588,-0.18788,0.0,2023,6,7,17,3,59,-512
48.45190,0.08277,-0.07088,0.00000,0.03184,0.97795,-0.18690,0.0,2023,6,7,17,3,59,-501
48.45200,-0.02223,0.01662,0.00000,0.03099,0.97820,-0.18934,0.0,2023,6,7,17,3,59,-490
48.45210,-0.10973,0.01662,0.00000,0.03074,0.97698,-0.18776,0.0,2023,6,7,17,3,59,-479
48.45220,0.20527,-0.12338,0.00000,0.03148,0.97637,-0.19056,0.0,2023,6,7,17,3,59,-467
48.45230,-0.02223,-0.00088,0.00000,0.03160,0.97417,-0.18959,0.0,2023,6,7,17,3,59,-456
48.45240,-0.16223,0.19162,0.00000,0.03184,0.97734,-0.18825,0.0,2023,6,7,17,3,59,-445
48.45250,-0.02223,0.01662,0.00000,0.03184,0.97624,-0.18861,0.0,2023,6,7,17,3,59,-434
48.45260,-0.09223,0.17412,0.00000,0.03172,0.97722,-0.18886,0.0,2023,6,7,17,3,59,-423
48.45270,0.04777,-0.01838,0.00000,0.02965,0.97868,-0.19105,0.0,2023,6,7,17,3,59,-411
48.45280,0.10027,0.13912,0.00000,0.02989,0.97698,-0.18825,0.0,2023,6,7,17,3,59,-400
48.45290,0.04777,0.01662,0.00000,0.03074,0.97685,-0.18617,0.0,2023,6,7,17,3,59,-389
48.45300,-0.00473,0.06912,0.00000,0.03172,0.97588,-0.18983,0.0,2023,6,7,17,3,59,-378
48.45310,0.11777,0.03412,0.00000,0.03062,0.97490,-0.19056,0.0,2023,6,7,17,3,59,-367
48.45320,-0.03973,-0.12338,0.00000,0.02965,0.97527,-0.18995,0.0,2023,6,7,17,3,59,-355
48.45330,0.03027,-0.01838,0.00000,0.03233,0.97759,-0.18776,0.0,2023,6,7,17,3,59,-344
48.45340,-0.03973,-0.01838,0.00000,0.03184,0.97563,-0.19105,0.0,2023,6,7,17,3,59,-333
48.45350,-0.02223,-0.00088,0.00000,0.03123,0.97722,-0.18898,0.0,2023,6,7,17,3,59,-322
48.45360,-0.03973,0.01662,0.00000,0.03050,0.97344,-0.18873,0.0,2023,6,7,17,3,59,-311
48.45370,-0.03973,-0.21088,0.00000,0.03013,0.97539,-0.18654,0.0,2023,6,7,17,3,59,-299
48.45380,0.08277,-0.14088,0.00000,0.03111,0.97563,-0.18886,0.0,2023,6,7,17,3,59,-288
48.45390,0.10027,-0.28088,0.00000,0.02952,0.97454,-0.18934,0.0,2023,6,7,17,3,59,-277
48.45400,0.10027,0.10412,0.00000,0.03196,0.97820,-0.19032,0.0,2023,6,7,17,3,59,-266
48.45410,-0.00473,0.15662,0.00000,0.03172,0.97771,-0.18861,0.0,2023,6,7,17,3,59,-255
48.45420,-0.03973,-0.33338,0.00000,0.03196,0.97576,-0.18703,0.0,2023,6,7,17,3,59,-243
48.45430,0.08277,-0.08838,0.00000,0.03148,0.97844,-0.18751,0.0,2023,6,7,17,3,59,-232
48.45440,-0.07473,0.01662,0.00000,0.03135,0.97917,-0.18825,0.0,2023,6,7,17,3,59,-221
48.45450,-0.05723,0.13912,0.00000,0.03160,0.97832,-0.19166,0.0,2023,6,7,17,3,59,-210
48.45460,-0.10973,0.06912,0.00000,0.03038,0.97368,-0.18898,0.0,2023,6,7,17,3,59,-199
48.45470,0.03027,0.01662,0.00000,0.03172,0.97637,-0.18837,0.0,2023,6,7,17,3,59,-187
48.45480,0.06527,-0.07088,0.00000,0.03184,0.97649,-0.19142,0.0,2023,6,7,17,3,59,-176
48.45490,-0.07473,0.15662,0.00000,0.03148,0.97417,-0.19081,0.0,2023,6,7,17,3,59,-165
48.45500,-0.14473,0.03412,0.00000,0.03148,0.97710,-0.18605,0.0,2023,6,7,17,3,59,-154
48.45510,-0.12723,-0.08838,0.00000,0.03026,0.97746,-0.18715,0.0,2023,6,7,17,3,59,-143
48.45520,0.04777,0.05162,0.00000,0.03135,0.97637,-0.18873,0.0,2023,6,7,17,3,59,-131
48.45530,-0.14473,-0.10588,0.00000,0.03172,0.97929,-0.19020,0.0,2023,6,7,17,3,59,-120
48.45540,0.10027,0.01662,0.00000,0.03282,0.97710,-0.19020,0.0,2023,6,7,17,3,59,-109
48.45550,-0.19723,0.15662,0.00000,0.03148,0.97673,-0.18959,0.0,2023,6,7,17,3,59,-98
48.45560,0.03027,-0.03588,0.00000,0.03172,0.97502,-0.19044,0.0,2023,6,7,17,3,59,-87
48.45570,-0.12723,-0.05338,0.00000,0.03257,0.97942,-0.18922,0.0,2023,6,7,17,3,59,-75
48.45580,-0.03973,0.12162,0.00000,0.03172,0.97722,-0.19044,0.0,2023,6,7,17,3,59,-64
48.45590,-0.07473,-0.10588,0.00000,0.03233,0.97649,-0.18995,0.0,2023,6,7,17,3,59,-53
48.45600,-0.21473,0.26162,0.00000,0.03526,0.97685,-0.18715,0.0,2023,6,7,17,3,59,-42
48.45610,-0.16223,0.12162,0.00000,0.02965,0.97734,-0.19008,0.0,2023,6,7,17,3,59,-31
48.45620,-0.12723,0.05162,0.00000,0.03050,0.97649,-0.18947,0.0,2023,6,7,17,3,59,-19
48.45630,-0.14473,-0.01838,0.00000,0.03026,0.97551,-0.18678,0.0,2023,6,7,17,3,59,-8
48.45640,-0.05723,0.06912,0.00000,0.02843,0.97612,-0.18837,0.0,2023,6,7,17,3,59,2
48.45650,0.06527,0.03412,0.00000,0.02965,0.97759,-0.19117,0.0,2023,6,7,17,3,59,13
48.45660,0.04777,-0.17588,0.00000,0.03184,0.97771,-0.18934,0.0,2023,6,7,17,3,59,24
48.45670,0.06527,0.01662,0.00000,0.03245,0.97685,-0.18837,0.0,2023,6,7,17,3,59,36
48.45680,0.08277,-0.00088,0.00000,0.03160,0.97698,-0.18873,0.0,2023,6,7,17,3,59,47
48.45690,0.01277,0.05162,0.00000,0.02965,0.97771,-0.19227,0.0,2023,6,7,17,3,59,58
48.45700,0.06527,-0.00088,0.00000,0.03196,0.97527,-0.18849,0.0,2023,6,7,17,3,59,69
48.45710,-0.00473,-0.01838,0.00000,0.03111,0.97710,-0.18886,0.0,2023,6,7,17,3,59,80
48.45720,0.11777,0.01662,0.00000,0.03050,0.97649,-0.19178,0.0,2023,6,7,17,3,59,92
48.45730,-0.16223,0.08662,0.00000,0.03026,0.97746,-0.19069,0.0,2023,6,7,17,3,59,103
48.45740,0.04777,0.05162,0.00000,0.03026,0.97576,-0.18971,0.0,2023,6,7,17,3,59,114
48.45750,-0.03973,0.20912,0.00000,0.03282,0.97698,-0.18812,0.0,2023,6,7,17,3,59,125
48.45760,-0.09223,0.01662,0.00000,0.03038,0.97600,-0.18898,0.0,2023,6,7,17,3,59,136
48.45770,-0.07473,-0.10588,0.00000,0.03099,0.97539,-0.18934,0.0,2023,6,7,17,3,59,148
48.45780,0.04777,-0.17588,0.00000,0.03257,0.97588,-0.18825,0.0,2023,6,7,17,3,59,159
48.45790,0.04777,0.05162,0.00000,0.03245,0.97673,-0.18532,0.0,2023,6,7,17,3,59,170
48.45800,-0.21473,0.13912,0.00000,0.03245,0.97600,-0.18971,0.0,2023,6,7,17,3,59,181
48.45810,0.03027,0.06912,0.00000,0.02891,0.97759,-0.18983,0.0,2023,6,7,17,3,59,192
48.45820,0.08277,-0.00088,0.00000,0.03172,0.97661,-0.19032,0.0,2023,6,7,17,3,59,204
48.45830,-0.10973,0.12162,0.00000,0.03221,0.97515,-0.18934,0.0,2023,6,7,17,3,59,215
48.45840,0.04777,-0.01838,0.00000,0.03135,0.97673,-0.19093,0.0,2023,6,7,17,3,59,226
48.45850,-0.05723,-0.14088,0.00000,0.03135,0.97478,-0.18971,0.0,2023,6,7,17,3,59,237
48.45860,-0.07473,0.01662,0.00000,0.03209,0.97624,-0.18764,0.0,2023,6,7,17,3,59,248
48.45870,0.06527,-0.12338,0.00000,0.03099,0.97844,-0.18849,0.0,2023,6,7,17,3,59,260
48.45880,0.17027,-0.03588,0.00000,0.02952,0.97832,-0.19154,0.0,2023,6,7,17,3,59,271
48.45890,0.11777,-0.28088,0.00000,0.03001,0.97563,-0.19044,0.0,2023,6,7,17,3,59,282
48.45900,-0.09223,-0.15838,0.00000,0.03160,0.97563,-0.19056,0.0,2023,6,7,17,3,59,293
48.45910,-0.03973,0.13912,0.00000,0.03196,0.97649,-0.18849,0.0,2023,6,7,17,3,59,304
48.45920,0.04777,-0.01838,0.00000,0.03294,0.97771,-0.18861,0.0,2023,6,7,17,3,59,316
48.45930,-0.03973,0.03412,0.00000,0.03184,0.97637,-0.18788,0.0,2023,6,7,17,3,59,327
48.45940,0.08277,-0.03588,0.00000,0.03184,0.97783,-0.18971,0.0,2023,6,7,17,3,59,338
48.45950,0.03027,-0.07088,0.00000,0.03172,0.97759,-0.18849,0.0,2023,6,7,17,4,0,-650
48.45960,0.03027,-0.03588,0.00000,0.03172,0.97380,-0.18788,0.0,2023,6,7,17,4,0,-639
48.45970,0.04777,-0.15838,0.00000,0.03026,0.97722,-0.19215,0.0,2023,6,7,17,4,0,-627
48.45980,-0.02223,-0.03588,0.00000,0.03038,0.97551,-0.18983,0.0,2023,6,7,17,4,0,-616
48.45990,0.10027,0.01662,0.00000,0.03087,0.97612,-0.19020,0.0,2023,6,7,17,4,0,-605
48.46000,0.04777,-0.00088,0.00000,0.03087,0.97807,-0.18654,0.0,2023,6,7,17,4,0,-594
48.46010,0.04777,-0.15838,0.00000,0.03050,0.97673,-0.18934,0.0,2023,6,7,17,4,0,-583
48.46020,0.01277,0.13912,0.00000,0.03196,0.97515,-0.18947,0.0,2023,6,7,17,4,0,-571
48.46030,-0.10973,-0.10588,0.00000,0.03135,0.97710,-0.18788,0.0,2023,6,7,17,4,0,-560
48.46040,-0.09223,-0.03588,0.00000,0.03318,0.97624,-0.18629,0.0,2023,6,7,17,4,0,-549
48.46050,-0.03973,-0.08838,0.00000,0.03282,0.97673,-0.18898,0.0,2023,6,7,17,4,0,-538
48.46060,-0.16223,0.08662,0.00000,0.03367,0.97576,-0.19081,0.0,2023,6,7,17,4,0,-527
48.46070,-0.16223,-0.12338,0.00000,0.03135,0.97942,-0.18751,0.0,2023,6,7,17,4,0,-515
48.46080,-0.07473,-0.03588,0.00000,0.02916,0.97429,-0.18886,0.0,2023,6,7,17,4,0,-504
48.46090,0.03027,-0.08838,0.00000,0.03135,0.97807,-0.18898,0.0,2023,6,7,17,4,0,-493
48.46100,-0.16223,0.27912,0.00000,0.03233,0.97649,-0.19008,0.0,2023,6,7,17,4,0,-482
48.46110,-0.05723,0.06912,0.00000,0.03050,0.97685,-0.19130,0.0,2023,6,7,17,4,0,-471
48.46120,-0.07473,0.01662,0.00000,0.03318,0.97893,-0.18800,0.0,2023,6,7,17,4,0,-459
48.46130,-0.02223,0.05162,0.00000,0.03196,0.97637,-0.18690,0.0,2023,6,7,17,4,0,-448
48.46140,0.04777,-0.22838,0.00000,0.03196,0.97673,-0.18812,0.0,2023,6,7,17,4,0,-437
48.46150,-0.26723,0.31412,0.00000,0.03050,0.97868,-0.18764,0.0,2023,6,7,17,4,0,-426
48.46160,0.11777,-0.05338,0.00000,0.03050,0.97588,-0.18934,0.0,2023,6,7,17,4,0,-415
48.46170,0.15277,-0.22838,0.00000,0.03026,0.97771,-0.18617,0.0,2023,6,7,17,4,0,-403
48.46180,-0.30223,-0.03588,0.00000,0.03038,0.97490,-0.18764,0.0,2023,6,7,17,4,0,-392
48.46190,0.10027,-0.07088,0.00000,0.03099,0.97771,-0.18886,0.0,2023,6,7,17,4,0,-381
48.46200,0.18777,-0.29838,0.00000,0.02965,0.97771,-0.18654,0.0,2023,6,7,17,4,0,-370
48.46210,0.25777,0.12162,0.00000,0.03135,0.97905,-0.19081,0.0,2023,6,7,17,4,0,-359
48.46220,-0.10973,0.05162,0.00000,0.03074,0.97698,-0.18764,0.0,2023,6,7,17,4,0,-347
48.46230,-0.19723,-0.05338,0.00000,0.03184,0.97551,-0.18605,0.0,2023,6,7,17,4,0,-336
48.46240,-0.24973,0.06912,0.00000,0.03001,0.97576,-0.18776,0.0,2023,6,7,17,4,0,-325
48.46250,-0.14473,-0.14088,0.00000,0.02965,0.98015,-0.18910,0.0,2023,6,7,17,4,0,-314
48.46260,-0.05723,0.08662,0.00000,0.03148,0.97685,-0.18959,0.0,2023,6,7,17,4,0,-303
48.46270,-0.00473,-0.08838,0.00000,0.03123,0.97637,-0.18751,0.0,2023,6,7,17,4,0,-291
48.46280,0.24027,-0.01838,0.00000,0.03160,0.97771,-0.19069,0.0,2023,6,7,17,4,0,-280
48.46290,0.01277,-0.10588,0.00000,0.03367,0.97551,-0.18812,0.0,2023,6,7,17,4,0,-269
48.46300,-0.05723,0.08662,0.00000,0.03038,0.97771,-0.18959,0.0,2023,6,7,17,4,0,-258
48.46310,0.13527,-0.01838,0.00000,0.02977,0.97551,-0.18837,0.0,2023,6,7,17,4,0,-247
48.46320,-0.02223,-0.07088,0.00000,0.03074,0.97759,-0.18483,0.0,2023,6,7,17,4,0,-235
48.46330,-0.02223,0.20912,0.00000,0.03282,0.97417,-0.19044,0.0,2023,6,7,17,4,0,-224
48.46340,-0.05723,-0.24588,0.00000,0.03270,0.97661,-0.18934,0.0,2023,6,7,17,4,0,-213
48.46350,-0.03973,0.15662,0.00000,0.03087,0.97539,-0.18825,0.0,2023,6,7,17,4,0,-202
48.46360,0.10027,-0.15838,0.00000,0.02855,0.97527,-0.18934,0.0,2023,6,7,17,4,0,-191
48.46370,0.15277,-0.12338,0.00000,0.03123,0.97576,-0.18788,0.0,2023,6,7,17,4,0,-179
48.46380,-0.07473,-0.05338,0.00000,0.03172,0.97588,-0.18788,0.0,2023,6,7,17,4,0,-168
48.46390,0.17027,-0.07088,0.00000,0.03026,0.97515,-0.18922,0.0,2023,6,7,17,4,0,-157
48.46400,0.11777,-0.00088,0.00000,0.03379,0.97502,-0.18727,0.0,2023,6,7,17,4,0,-146
48.46410,-0.07473,0.20912,0.00000,0.02989,0.97832,-0.18703,0.0,2023,6,7,17,4,0,-135
48.46420,-0.07473,-0.10588,0.00000,0.03148,0.97661,-0.18654,0.0,2023,6,7,17,4,0,-123
48.46430,-0.02223,-0.01838,0.00000,0.03160,0.97746,-0.18800,0.0,2023,6,7,17,4,0,-112
48.46440,-0.12723,0.03412,0.00000,0.03172,0.97576,-0.18922,0.0,2023,6,7,17,4,0,-101
48.46450,0.04777,-0.00088,0.00000,0.03148,0.97478,-0.18849,0.0,2023,6,7,17,4,0,-90
48.46460,0.10027,-0.03588,0.00000,0.02977,0.97722,-0.18764,0.0,2023,6,7,17,4,0,-79
48.46470,0.04777,-0.14088,0.00000,0.03196,0.97515,-0.18776,0.0,2023,6,7,17,4,0,-67
48.46480,-0.05723,-0.22838,0.00000,0.03026,0.97734,-0.18812,0.0,2023,6,7,17,4,0,-56
48.46490,0.10027,-0.07088,0.00000,0.03087,0.97771,-0.19044,0.0,2023,6,7,17,4,0,-45
48.46500,-0.10973,0.13912,0.00000,0.03172,0.97734,-0.19008,0.0,2023,6,7,17,4,0,-34
48.46510,0.06527,0.03412,0.00000,0.03135,0.97466,-0.18898,0.0,2023,6,7,17,4,0,-23
48.46520,-0.19723,0.19162,0.00000,0.03184,0.97490,-0.18812,0.0,2023,6,7,17,4,0,-11
48.46530,-0.10973,-0.01838,0.00000,0.03087,0.97710,-0.19166,0.0,2023,6,7,17,4,0,0
48.46540,0.10027,0.06912,0.00000,0.03392,0.97783,-0.19178,0.0,2023,6,7,17,4,0,10
48.46550,-0.05723,0.08662,0.00000,0.03172,0.97734,-0.19020,0.0,2023,6,7,17,4,0,21
48.46560,0.01277,-0.01838,0.00000,0.03233,0.97807,-0.18764,0.0,2023,6,7,17,4,0,32
48.46570,0.06527,0.06912,0.00000,0.03306,0.97502,-0.18678,0.0,2023,6,7,17,4,0,44
48.46580,-0.05723,-0.22838,0.00000,0.03038,0.97576,-0.18739,0.0,2023,6,7,17,4,0,55
48.46590,0.11777,0.12162,0.00000,0.03148,0.97405,-0.19044,0.0,2023,6,7,17,4,0,66
48.46600,-0.21473,0.10412,0.00000,0.03172,0.97515,-0.18934,0.0,2023,6,7,17,4,0,77
48.46610,-0.07473,-0.10588,0.00000,0.03294,0.97832,-0.18873,0.0,2023,6,7,17,4,0,88
48.46620,0.04777,-0.19338,0.00000,0.03074,0.97576,-0.18886,0.0,2023,6,7,17,4,0,100
48.46630,-0.02223,-0.01838,0.00000,0.03099,0.97746,-0.18971,0.0,2023,6,7,17,4,0,111
48.46640,0.03027,-0.08838,0.00000,0.02989,0.97685,-0.18703,0.0,2023,6,7,17,4,0,122
48.46650,-0.03973,-0.07088,0.00000,0.03257,0.97783,-0.18825,0.0,2023,6,7,17,4,0,133
48.46660,-0.24973,0.05162,0.00000,0.03392,0.97624,-0.18751,0.0,2023,6,7,17,4,0,144
48.46670,0.03027,-0.05338,0.00000,0.03001,0.97600,-0.18971,0.0,2023,6,7,17,4,0,156
48.46680,0.03027,0.01662,0.00000,0.02965,0.97759,-0.19069,0.0,2023,6,7,17,4,0,167
48.46690,-0.00473,0.05162,0.00000,0.02989,0.97795,-0.18861,0.0,2023,6,7,17,4,0,178
48.46700,-0.05723,-0.19338,0.00000,0.03111,0.97698,-0.18678,0.0,2023,6,7,17,4,0,189
48.46710,-0.02223,-0.01838,0.00000,0.03160,0.97832,-0.18837,0.0,2023,6,7,17,4,0,200
48.46720,-0.12723,0.03412,0.00000,0.03074,0.97759,-0.18983,0.0,2023,6,7,17,4,0,212
48.46730,-0.10973,0.01662,0.00000,0.03196,0.97563,-0.18861,0.0,2023,6,7,17,4,0,223
48.46740,-0.09223,0.17412,0.00000,0.03087,0.98015,-0.18642,0.0,2023,6,7,17,4,0,234
48.46750,0.01277,0.08662,0.00000,0.03209,0.97490,-0.18617,0.0,2023,6,7,17,4,0,245
48.46760,0.08277,-0.03588,0.00000,0.03099,0.97637,-0.19032,0.0,2023,6,7,17,4,0,256
48.46770,0.08277,0.13912,0.00000,0.03026,0.97698,-0.19166,0.0,2023,6,7,17,4,0,268
48.46780,0.06527,-0.07088,0.00000,0.03221,0.97502,-0.19081,0.0,2023,6,7,17,4,0,279
48.46790,-0.14473,-0.00088,0.00000,0.03270,0.97466,-0.18959,0.0,2023,6,7,17,4,0,290
48.46800,-0.07473,0.17412,0.00000,0.03257,0.97515,-0.19020,0.0,2023,6,7,17,4,0,301
48.46810,0.08277,0.03412,0.00000,0.03148,0.97624,-0.18873,0.0,2023,6,7,17,4,0,312
48.46820,-0.09223,-0.07088,0.00000,0.03062,0.97929,-0.18873,0.0,2023,6,7,17,4,0,324
48.46830,-0.19723,0.17412,0.00000,0.03111,0.97673,-0.19020,0.0,2023,6,7,17,4,0,335
48.46840,0.01277,-0.28088,0.00000,0.03062,0.97868,-0.18556,0.0,2023,6,7,17,4,0,346
48.46850,-0.07473,-0.12338,0.00000,0.03001,0.97563,-0.18812,0.0,2023,6,7,17,4,1,-642
48.46860,-0.05723,0.06912,0.00000,0.02928,0.97454,-0.19130,0.0,2023,6,7,17,4,1,-631
48.46870,-0.03973,0.06912,0.00000,0.03172,0.97722,-0.19081,0.0,2023,6,7,17,4,1,-619
48.46880,0.01277,-0.08838,0.00000,0.02989,0.97637,-0.19044,0.0,2023,6,7,17,4,1,-608
48.46890,-0.05723,-0.07088,0.00000,0.03123,0.97551,-0.18800,0.0,2023,6,7,17,4,1,-597
48.46900,-0.12723,0.08662,0.00000,0.03050,0.97893,-0.18849,0.0,2023,6,7,17,4,1,-586
48.46910,0.11777,0.05162,0.00000,0.03148,0.97600,-0.18983,0.0,2023,6,7,17,4,1,-575
48.46920,-0.14473,-0.19338,0.00000,0.03148,0.97368,-0.18751,0.0,2023,6,7,17,4,1,-563
48.46930,0.03027,0.05162,0.00000,0.03087,0.97539,-0.18727,0.0,2023,6,7,17,4,1,-552
48.46940,-0.00473,-0.14088,0.00000,0.03123,0.97722,-0.18739,0.0,2023,6,7,17,4,1,-541
48.46950,0.04777,0.10412,0.00000,0.03050,0.97539,-0.19117,0.0,2023,6,7,17,4,1,-530
48.46960,0.20527,-0.08838,0.00000,0.03099,0.97673,-0.19178,0.0,2023,6,7,17,4,1,-519
48.46970,-0.16223,-0.14088,0.00000,0.03209,0.97563,-0.18886,0.0,2023,6,7,17,4,1,-507
48.46980,-0.03973,0.22662,0.00000,0.03123,0.97746,-0.18800,0.0,2023,6,7,17,4,1,-496
48.46990,0.10027,-0.22838,0.00000,0.03257,0.97576,-0.18922,0.0,2023,6,7,17,4,1,-485
48.47000,0.08277,0.10412,0.00000,0.03160,0.97612,-0.18898,0.0,2023,6,7,17,4,1,-474
48.47010,-0.14473,-0.08838,0.00000,0.02879,0.97539,-0.18739,0.0,2023,6,7,17,4,1,-463
#2023/06/07 17:04:01
