#2023/06/07 17:21:52
time,wx,wy,wz,ax,ay,az,yy,MM,dd,hh,mm,ss,ms
49.35250,-0.09800,-0.01995,0.00000,0.03099,0.97588,-0.18727,0.0,2023,6,7,17,21,53,291
49.35260,-0.04550,0.17255,0.00000,0.03050,0.97698,-0.18947,0.0,2023,6,7,17,21,53,302
49.35270,-0.11550,-0.14245,0.00000,0.03135,0.97734,-0.18922,0.0,2023,6,7,17,21,53,313
49.35280,-0.02800,-0.24745,0.00000,0.03306,0.97576,-0.18739,0.0,2023,6,7,17,21,53,324
49.35290,0.14700,-0.05495,0.00000,0.03331,0.97759,-0.18898,0.0,2023,6,7,17,21,53,335
49.35300,-0.08050,-0.01995,0.00000,0.03233,0.97490,-0.18971,0.0,2023,6,7,17,21,53,346
49.35310,-0.09800,0.22505,0.00000,0.03428,0.97563,-0.18861,0.0,2023,6,7,17,21,53,357
49.35320,-0.01050,0.10255,0.00000,0.03135,0.97551,-0.18971,0.0,2023,6,7,17,21,53,368
49.35330,0.04200,-0.22995,0.00000,0.03123,0.97881,-0.18788,0.0,2023,6,7,17,21,53,379
49.35340,0.00700,0.03255,0.00000,0.03026,0.97649,-0.18703,0.0,2023,6,7,17,21,53,390
49.35350,0.09450,-0.05495,0.00000,0.02952,0.97661,-0.18727,0.0,2023,6,7,17,21,53,401
49.35360,0.14700,0.10255,0.00000,0.03184,0.97771,-0.19020,0.0,2023,6,7,17,21,53,412
49.35370,-0.16800,-0.12495,0.00000,0.03160,0.97771,-0.18593,0.0,2023,6,7,17,21,53,423
49.35380,-0.04550,0.13755,0.00000,0.03245,0.97795,-0.18764,0.0,2023,6,7,17,21,53,434
49.35390,-0.02800,-0.17745,0.00000,0.03123,0.97698,-0.18788,0.0,2023,6,7,17,21,53,445
49.35400,-0.04550,0.08505,0.00000,0.02989,0.97600,-0.18934,0.0,2023,6,7,17,21,53,456
49.35410,-0.16800,-0.01995,0.00000,0.03050,0.97661,-0.18751,0.0,2023,6,7,17,21,53,467
49.35420,-0.04550,0.20755,0.00000,0.03099,0.97612,-0.18739,0.0,2023,6,7,17,21,53,478
49.35430,-0.08050,0.31255,0.00000,0.03245,0.97624,-0.18873,0.0,2023,6,7,17,21,53,489
49.35440,0.18200,-0.08995,0.00000,0.03270,0.97624,-0.18898,0.0,2023,6,7,17,21,53,500
49.35450,-0.01050,-0.12495,0.00000,0.02928,0.97551,-0.18934,0.0,2023,6,7,17,21,53,511
49.35460,-0.08050,0.01505,0.00000,0.03318,0.97624,-0.18715,0.0,2023,6,7,17,21,53,522
49.35470,-0.04550,-0.01995,0.00000,0.03221,0.97710,-0.18568,0.0,2023,6,7,17,21,53,533
49.35480,-0.09800,0.27755,0.00000,0.03172,0.97783,-0.18764,0.0,2023,6,7,17,21,53,544
49.35490,-0.08050,0.15505,0.00000,0.03355,0.97332,-0.18886,0.0,2023,6,7,17,21,53,555
49.35500,-0.02800,0.08505,0.00000,0.03233,0.97612,-0.18776,0.0,2023,6,7,17,21,53,566
49.35510,-0.01050,0.06755,0.00000,0.03270,0.97795,-0.18617,0.0,2023,6,7,17,21,53,577
49.35520,0.04200,-0.03745,0.00000,0.03282,0.97563,-0.18739,0.0,2023,6,7,17,21,53,588
49.35530,0.07700,-0.17745,0.00000,0.03050,0.97417,-0.19044,0.0,2023,6,7,17,21,53,599
49.35540,-0.04550,0.13755,0.00000,0.03074,0.97759,-0.18629,0.0,2023,6,7,17,21,53,610
49.35550,0.05950,-0.03745,0.00000,0.03074,0.97661,-0.18812,0.0,2023,6,7,17,21,53,621
49.35560,0.04200,-0.05495,0.00000,0.02989,0.97746,-0.18825,0.0,2023,6,7,17,21,53,632
49.35570,-0.13300,0.08505,0.00000,0.03038,0.97612,-0.19093,0.0,2023,6,7,17,21,53,643
49.35580,0.02450,-0.10745,0.00000,0.03221,0.97661,-0.18776,0.0,2023,6,7,17,21,53,654
49.35590,-0.13300,0.06755,0.00000,0.03331,0.97807,-0.18849,0.0,2023,6,7,17,21,53,665
49.35600,-0.01050,-0.07245,0.00000,0.03318,0.97673,-0.18788,0.0,2023,6,7,17,21,53,676
49.35610,0.02450,0.13755,0.00000,0.03148,0.97771,-0.19008,0.0,2023,6,7,17,21,53,687
49.35620,0.02450,0.03255,0.00000,0.03135,0.97698,-0.18971,0.0,2023,6,7,17,21,53,698
49.35630,0.11200,0.10255,0.00000,0.03416,0.97417,-0.18971,0.0,2023,6,7,17,21,53,709
49.35640,-0.16800,-0.05495,0.00000,0.03099,0.97673,-0.18703,0.0,2023,6,7,17,21,53,720
49.35650,-0.11550,0.01505,0.00000,0.03111,0.97698,-0.18690,0.0,2023,6,7,17,21,53,731
49.35660,-0.06300,-0.10745,0.00000,0.02867,0.97502,-0.18849,0.0,2023,6,7,17,21,53,742
49.35670,-0.01050,0.17255,0.00000,0.03111,0.97832,-0.19032,0.0,2023,6,7,17,21,53,753
49.35680,0.04200,0.06755,0.00000,0.03050,0.97698,-0.18654,0.0,2023,6,7,17,21,53,764
49.35690,-0.02800,0.15505,0.00000,0.03148,0.97661,-0.18959,0.0,2023,6,7,17,21,53,775
49.35700,0.11200,-0.00245,0.00000,0.03087,0.97539,-0.19008,0.0,2023,6,7,17,21,53,786
49.35710,-0.18550,0.05005,0.00000,0.03184,0.97624,-0.18666,0.0,2023,6,7,17,21,53,797
49.35720,0.16450,-0.05495,0.00000,0.03001,0.97527,-0.18812,0.0,2023,6,7,17,21,53,808
49.35730,0.04200,-0.05495,0.00000,0.03099,0.97722,-0.18739,0.0,2023,6,7,17,21,53,819
49.35740,-0.01050,-0.21245,0.00000,0.03245,0.97417,-0.18788,0.0,2023,6,7,17,21,53,830
49.35750,0.04200,-0.01995,0.00000,0.03013,0.97600,-0.18617,0.0,2023,6,7,17,21,53,841
49.35760,-0.25550,0.05005,0.00000,0.03257,0.97637,-0.18629,0.0,2023,6,7,17,21,53,852
49.35770,-0.02800,-0.03745,0.00000,0.03160,0.97612,-0.18727,0.0,2023,6,7,17,21,53,863
49.35780,-0.06300,-0.00245,0.00000,0.03270,0.97588,-0.18922,0.0,2023,6,7,17,21,53,874
49.35790,0.18200,0.12005,0.00000,0.03221,0.97624,-0.18849,0.0,2023,6,7,17,21,53,885
49.35800,0.04200,-0.01995,0.00000,0.03209,0.97576,-0.18666,0.0,2023,6,7,17,21,53,896
49.35810,-0.13300,-0.10745,0.00000,0.03221,0.97551,-0.18605,0.0,2023,6,7,17,21,53,907
49.35820,0.00700,-0.07245,0.00000,0.03233,0.97710,-0.18788,0.0,2023,6,7,17,21,53,918
49.35830,-0.02800,0.12005,0.00000,0.03196,0.97759,-0.18800,0.0,2023,6,7,17,21,53,929
49.35840,-0.11550,0.01505,0.00000,0.03160,0.97673,-0.18886,0.0,2023,6,7,17,21,53,940
49.35850,-0.04550,0.15505,0.00000,0.02928,0.97698,-0.18629,0.0,2023,6,7,17,21,53,951
49.35860,-0.06300,0.03255,0.00000,0.02867,0.97478,-0.18764,0.0,2023,6,7,17,21,53,962
49.35870,0.11200,-0.10745,0.00000,0.03245,0.97783,-0.18922,0.0,2023,6,7,17,21,53,973
49.35880,-0.06300,0.13755,0.00000,0.03245,0.97734,-0.18898,0.0,2023,6,7,17,21,53,984
49.35890,-0.04550,0.01505,0.00000,0.03135,0.97661,-0.18678,0.0,2023,6,7,17,21,54,995
49.35900,0.11200,0.01505,0.00000,0.02928,0.97527,-0.18934,0.0,2023,6,7,17,21,54,6
49.35910,0.12950,-0.05495,0.00000,0.03135,0.97551,-0.19081,0.0,2023,6,7,17,21,54,17
49.35920,-0.09800,0.03255,0.00000,0.03318,0.97637,-0.18898,0.0,2023,6,7,17,21,54,28
49.35930,-0.04550,0.06755,0.00000,0.03209,0.97539,-0.18812,0.0,2023,6,7,17,21,54,39
49.35940,-0.06300,-0.00245,0.00000,0.03221,0.97600,-0.18922,0.0,2023,6,7,17,21,54,50
49.35950,-0.11550,0.01505,0.00000,0.03294,0.97637,-0.18654,0.0,2023,6,7,17,21,54,61
49.35960,-0.13300,0.08505,0.00000,0.03111,0.97673,-0.18532,0.0,2023,6,7,17,21,54,72
49.35970,-0.06300,-0.01995,0.00000,0.03111,0.97746,-0.18678,0.0,2023,6,7,17,21,54,83
49.35980,-0.11550,0.10255,0.00000,0.03062,0.97673,-0.18825,0.0,2023,6,7,17,21,54,94
49.35990,0.12950,-0.10745,0.00000,0.03245,0.97929,-0.18849,0.0,2023,6,7,17,21,54,105
49.36000,-0.09800,0.13755,0.00000,0.03099,0.97502,-0.18751,0.0,2023,6,7,17,21,54,116
49.36010,0.16450,-0.03745,0.00000,0.03245,0.97649,-0.19166,0.0,2023,6,7,17,21,54,127
49.36020,0.04200,0.27755,0.00000,0.03148,0.97661,-0.19032,0.0,2023,6,7,17,21,54,138
49.36030,0.12950,0.03255,0.00000,0.02879,0.97344,-0.18861,0.0,2023,6,7,17,21,54,149
49.36040,0.02450,-0.00245,0.00000,0.03062,0.97710,-0.18715,0.0,2023,6,7,17,21,54,160
49.36050,0.05950,-0.05495,0.00000,0.03135,0.97710,-0.18898,0.0,2023,6,7,17,21,54,171
49.36060,0.05950,-0.22995,0.00000,0.03123,0.97685,-0.18922,0.0,2023,6,7,17,21,54,182
49.36070,0.19950,-0.15995,0.00000,0.03379,0.97551,-0.18825,0.0,2023,6,7,17,21,54,193
49.36080,-0.16800,-0.08995,0.00000,0.03172,0.97807,-0.18739,0.0,2023,6,7,17,21,54,204
49.36090,0.07700,0.26005,0.00000,0.03111,0.97563,-0.18788,0.0,2023,6,7,17,21,54,215
49.36100,-0.11550,-0.05495,0.00000,0.03160,0.97515,-0.19069,0.0,2023,6,7,17,21,54,226
49.36110,-0.09800,0.05005,0.00000,0.03294,0.97673,-0.18934,0.0,2023,6,7,17,21,54,237
49.36120,0.18200,-0.17745,0.00000,0.03026,0.97710,-0.18751,0.0,2023,6,7,17,21,54,248
49.36130,0.05950,-0.07245,0.00000,0.03306,0.97624,-0.19178,0.0,2023,6,7,17,21,54,259
49.36140,0.07700,-0.26495,0.00000,0.03038,0.97710,-0.18873,0.0,2023,6,7,17,21,54,270
49.36150,0.19950,-0.10745,0.00000,0.03233,0.97612,-0.18910,0.0,2023,6,7,17,21,54,281
49.36160,-0.18550,0.12005,0.00000,0.03294,0.97795,-0.18910,0.0,2023,6,7,17,21,54,292
49.36170,0.04200,0.03255,0.00000,0.03245,0.97698,-0.18898,0.0,2023,6,7,17,21,54,303
49.36180,-0.06300,-0.03745,0.00000,0.03196,0.97417,-0.18642,0.0,2023,6,7,17,21,54,314
49.36190,0.14700,-0.03745,0.00000,0.03148,0.97734,-0.18703,0.0,2023,6,7,17,21,54,325
49.36200,-0.09800,-0.12495,0.00000,0.03148,0.97368,-0.18751,0.0,2023,6,7,17,21,54,336
49.36210,-0.09800,-0.05495,0.00000,0.02965,0.97600,-0.18849,0.0,2023,6,7,17,21,54,347
49.36220,0.12950,-0.05495,0.00000,0.03013,0.97710,-0.18666,0.0,2023,6,7,17,21,54,358
49.36230,0.07700,0.01505,0.00000,0.03111,0.97746,-0.18776,0.0,2023,6,7,17,21,54,369
49.36240,0.16450,-0.05495,0.00000,0.03221,0.97783,-0.18873,0.0,2023,6,7,17,21,54,380
49.36250,-0.01050,0.08505,0.00000,0.03038,0.97685,-0.18861,0.0,2023,6,7,17,21,54,391
49.36260,-0.09800,0.19005,0.00000,0.03257,0.97490,-0.18703,0.0,2023,6,7,17,21,54,402
49.36270,-0.02800,-0.07245,0.00000,0.03245,0.97502,-0.18666,0.0,2023,6,7,17,21,54,413
49.36280,-0.02800,-0.21245,0.00000,0.03172,0.97490,-0.18886,0.0,2023,6,7,17,21,54,424
49.36290,-0.01050,-0.05495,0.00000,0.03392,0.97673,-0.18886,0.0,2023,6,7,17,21,54,435
49.36300,-0.09800,-0.15995,0.00000,0.03099,0.97624,-0.18678,0.0,2023,6,7,17,21,54,446
49.36310,-0.09800,0.10255,0.00000,0.03318,0.97515,-0.18593,0.0,2023,6,7,17,21,54,457
49.36320,0.02450,0.08505,0.00000,0.02928,0.97844,-0.18886,0.0,2023,6,7,17,21,54,468
49.36330,0.05950,0.22505,0.00000,0.03196,0.97490,-0.19056,0.0,2023,6,7,17,21,54,479
49.36340,-0.08050,0.05005,0.00000,0.03099,0.97319,-0.18727,0.0,2023,6,7,17,21,54,490
49.36350,-0.11550,-0.00245,0.00000,0.02891,0.97722,-0.18776,0.0,2023,6,7,17,21,54,501
49.36360,-0.02800,-0.07245,0.00000,0.03331,0.97698,-0.18983,0.0,2023,6,7,17,21,54,512
49.36370,0.11200,-0.03745,0.00000,0.02916,0.97807,-0.18995,0.0,2023,6,7,17,21,54,523
49.36380,-0.16800,-0.05495,0.00000,0.03282,0.97637,-0.18812,0.0,2023,6,7,17,21,54,534
49.36390,0.11200,-0.03745,0.00000,0.03050,0.97832,-0.18849,0.0,2023,6,7,17,21,54,545
49.36400,-0.08050,0.13755,0.00000,0.03001,0.97576,-0.18751,0.0,2023,6,7,17,21,54,556
49.36410,0.00700,-0.05495,0.00000,0.03062,0.97466,-0.18825,0.0,2023,6,7,17,21,54,567
49.36420,0.07700,0.03255,0.00000,0.03209,0.97600,-0.18776,0.0,2023,6,7,17,21,54,578
49.36430,0.00700,-0.03745,0.00000,0.03331,0.97795,-0.18800,0.0,2023,6,7,17,21,54,589
49.36440,0.18200,-0.12495,0.00000,0.03123,0.97612,-0.18898,0.0,2023,6,7,17,21,54,600
49.36450,0.02450,-0.03745,0.00000,0.02843,0.97734,-0.18873,0.0,2023,6,7,17,21,54,611
49.36460,0.18200,-0.14245,0.00000,0.03148,0.97661,-0.18776,0.0,2023,6,7,17,21,54,622
49.36470,-0.15050,0.13755,0.00000,0.03087,0.97527,-0.18947,0.0,2023,6,7,17,21,54,633
49.36480,-0.02800,0.29505,0.00000,0.03294,0.97795,-0.18873,0.0,2023,6,7,17,21,54,644
49.36490,-0.23800,0.31255,0.00000,0.03221,0.97856,-0.18837,0.0,2023,6,7,17,21,54,655
49.36500,0.04200,0.13755,0.00000,0.03343,0.97771,-0.18922,0.0,2023,6,7,17,21,54,666
49.36510,-0.02800,0.12005,0.00000,0.03087,0.97685,-0.19081,0.0,2023,6,7,17,21,54,677
49.36520,-0.08050,0.10255,0.00000,0.03087,0.97942,-0.18800,0.0,2023,6,7,17,21,54,688
49.36530,-0.08050,-0.00245,0.00000,0.03148,0.97661,-0.18495,0.0,2023,6,7,17,21,54,699
49.36540,-0.01050,0.06755,0.00000,0.03160,0.97661,-0.18764,0.0,2023,6,7,17,21,54,710
49.36550,-0.01050,0.13755,0.00000,0.03087,0.97759,-0.18812,0.0,2023,6,7,17,21,54,721
49.36560,-0.01050,0.06755,0.00000,0.03245,0.97698,-0.18788,0.0,2023,6,7,17,21,54,732
49.36570,-0.01050,-0.08995,0.00000,0.03257,0.97685,-0.18666,0.0,2023,6,7,17,21,54,743
49.36580,-0.20300,0.10255,0.00000,0.03245,0.97673,-0.19093,0.0,2023,6,7,17,21,54,754
49.36590,0.00700,-0.01995,0.00000,0.03001,0.97685,-0.18910,0.0,2023,6,7,17,21,54,765
49.36600,-0.13300,-0.03745,0.00000,0.03099,0.97685,-0.18654,0.0,2023,6,7,17,21,54,776
49.36610,0.18200,-0.01995,0.00000,0.03099,0.97649,-0.18922,0.0,2023,6,7,17,21,54,787
49.36620,0.18200,-0.12495,0.00000,0.03257,0.97710,-0.18812,0.0,2023,6,7,17,21,54,798
49.36630,0.07700,0.01505,0.00000,0.03148,0.97856,-0.18629,0.0,2023,6,7,17,21,54,809
49.36640,-0.01050,0.17255,0.00000,0.03270,0.97734,-0.19020,0.0,2023,6,7,17,21,54,820
49.36650,-0.01050,0.01505,0.00000,0.03160,0.97624,-0.18873,0.0,2023,6,7,17,21,54,831
49.36660,0.00700,0.19005,0.00000,0.03294,0.97624,-0.18861,0.0,2023,6,7,17,21,54,842
49.36670,0.05950,-0.15995,0.00000,0.03099,0.97698,-0.18837,0.0,2023,6,7,17,21,54,853
49.36680,0.11200,-0.08995,0.00000,0.03087,0.97637,-0.18959,0.0,2023,6,7,17,21,54,864
49.36690,0.11200,-0.00245,0.00000,0.03160,0.97807,-0.18739,0.0,2023,6,7,17,21,54,875
49.36700,0.07700,0.05005,0.00000,0.03172,0.97612,-0.18959,0.0,2023,6,7,17,21,54,886
49.36710,-0.09800,-0.08995,0.00000,0.03135,0.97600,-0.18825,0.0,2023,6,7,17,21,54,897
49.36720,-0.08050,-0.00245,0.00000,0.03196,0.97734,-0.19032,0.0,2023,6,7,17,21,54,908
49.36730,0.02450,-0.26495,0.00000,0.03270,0.97759,-0.18751,0.0,2023,6,7,17,21,54,919
49.36740,-0.02800,0.10255,0.00000,0.03379,0.97576,-0.18764,0.0,2023,6,7,17,21,54,930
49.36750,-0.06300,-0.08995,0.00000,0.03026,0.97771,-0.18776,0.0,2023,6,7,17,21,54,941
49.36760,-0.13300,0.13755,0.00000,0.02989,0.97515,-0.18825,0.0,2023,6,7,17,21,54,952
49.36770,-0.11550,0.08505,0.00000,0.03160,0.97649,-0.18971,0.0,2023,6,7,17,21,54,963
49.36780,0.05950,-0.07245,0.00000,0.03172,0.97685,-0.18861,0.0,2023,6,7,17,21,54,974
49.36790,0.00700,-0.07245,0.00000,0.03416,0.97673,-0.19008,0.0,2023,6,7,17,21,55,985
49.36800,0.14700,-0.03745,0.00000,0.03001,0.97624,-0.18666,0.0,2023,6,7,17,21,55,996
49.36810,0.12950,-0.19495,0.00000,0.02952,0.97417,-0.18873,0.0,2023,6,7,17,21,55,7
49.36820,0.23450,-0.15995,0.00000,0.03282,0.97685,-0.19044,0.0,2023,6,7,17,21,55,18
49.36830,-0.13300,-0.05495,0.00000,0.03135,0.97637,-0.18825,0.0,2023,6,7,17,21,55,29
49.36840,0.05950,0.10255,0.00000,0.03148,0.97637,-0.18971,0.0,2023,6,7,17,21,55,40
49.36850,0.07700,-0.17745,0.00000,0.03196,0.97759,-0.18727,0.0,2023,6,7,17,21,55,51
49.36860,0.12950,-0.14245,0.00000,0.03331,0.97515,-0.18825,0.0,2023,6,7,17,21,55,62
49.36870,0.14700,-0.08995,0.00000,0.03148,0.97539,-0.18629,0.0,2023,6,7,17,21,55,73
49.36880,-0.11550,-0.03745,0.00000,0.02904,0.97649,-0.19069,0.0,2023,6,7,17,21,55,84
49.36890,0.40950,-0.12495,0.00000,0.03172,0.97685,-0.18678,0.0,2023,6,7,17,21,55,95
49.36900,-0.01050,0.10255,0.00000,0.03123,0.97649,-0.18837,0.0,2023,6,7,17,21,55,106
49.36910,0.02450,0.03255,0.00000,0.03196,0.97612,-0.18959,0.0,2023,6,7,17,21,55,117
49.36920,0.18200,-0.00245,0.00000,0.03221,0.97698,-0.18678,0.0,2023,6,7,17,21,55,128
49.36930,0.05950,-0.15995,0.00000,0.03148,0.97515,-0.18959,0.0,2023,6,7,17,21,55,139
49.36940,-0.11550,0.15505,0.00000,0.03148,0.97990,-0.19008,0.0,2023,6,7,17,21,55,150
49.36950,-0.13300,0.06755,0.00000,0.03099,0.97380,-0.18715,0.0,2023,6,7,17,21,55,161
49.36960,-0.18550,-0.07245,0.00000,0.03148,0.97807,-0.18837,0.0,2023,6,7,17,21,55,172
49.36970,0.21700,-0.01995,0.00000,0.03294,0.97698,-0.18971,0.0,2023,6,7,17,21,55,183
49.36980,-0.09800,0.01505,0.00000,0.03123,0.97661,-0.18520,0.0,2023,6,7,17,21,55,194
49.36990,-0.11550,-0.05495,0.00000,0.03099,0.97844,-0.18825,0.0,2023,6,7,17,21,55,205
49.37000,0.30450,-0.24745,0.00000,0.03001,0.97734,-0.19056,0.0,2023,6,7,17,21,55,216
49.37010,-0.06300,-0.12495,0.00000,0.03038,0.97710,-0.18739,0.0,2023,6,7,17,21,55,227
49.37020,0.04200,0.08505,0.00000,0.03221,0.97600,-0.18703,0.0,2023,6,7,17,21,55,238
49.37030,0.14700,0.12005,0.00000,0.03148,0.97710,-0.18995,0.0,2023,6,7,17,21,55,249
49.37040,0.02450,-0.21245,0.00000,0.03026,0.97490,-0.18861,0.0,2023,6,7,17,21,55,260
49.37050,0.11200,-0.05495,0.00000,0.03062,0.97563,-0.18764,0.0,2023,6,7,17,21,55,271
49.37060,0.14700,-0.12495,0.00000,0.03123,0.97868,-0.18715,0.0,2023,6,7,17,21,55,282
49.37070,0.02450,-0.19495,0.00000,0.03062,0.97685,-0.18825,0.0,2023,6,7,17,21,55,293
49.37080,0.09450,-0.00245,0.00000,0.03062,0.97539,-0.18910,0.0,2023,6,7,17,21,55,304
49.37090,0.11200,0.05005,0.00000,0.03209,0.97576,-0.18776,0.0,2023,6,7,17,21,55,315
49.37100,0.05950,0.17255,0.00000,0.03245,0.97466,-0.18666,0.0,2023,6,7,17,21,55,326
49.37110,0.11200,0.08505,0.00000,0.03099,0.97478,-0.18873,0.0,2023,6,7,17,21,55,337
49.37120,0.05950,-0.00245,0.00000,0.03355,0.97685,-0.18629,0.0,2023,6,7,17,21,55,348
49.37130,-0.20300,0.03255,0.00000,0.02891,0.97722,-0.18715,0.0,2023,6,7,17,21,55,359
49.37140,0.04200,-0.01995,0.00000,0.03172,0.97649,-0.19117,0.0,2023,6,7,17,21,55,370
49.37150,0.05950,-0.10745,0.00000,0.03135,0.97551,-0.18568,0.0,2023,6,7,17,21,55,381
49.37160,-0.02800,-0.08995,0.00000,0.03148,0.97600,-0.18898,0.0,2023,6,7,17,21,55,392
49.37170,0.04200,-0.24745,0.00000,0.03111,0.98003,-0.18995,0.0,2023,6,7,17,21,55,403
49.37180,-0.08050,0.10255,0.00000,0.03160,0.97685,-0.18556,0.0,2023,6,7,17,21,55,414
49.37190,-0.25550,0.19005,0.00000,0.03294,0.97612,-0.18837,0.0,2023,6,7,17,21,55,425
49.37200,-0.02800,-0.03745,0.00000,0.03221,0.97661,-0.18764,0.0,2023,6,7,17,21,55,436
49.37210,0.12950,-0.17745,0.00000,0.03294,0.97539,-0.18800,0.0,2023,6,7,17,21,55,447
49.37220,-0.04550,0.06755,0.00000,0.03074,0.97551,-0.18861,0.0,2023,6,7,17,21,55,458
49.37230,0.11200,0.10255,0.00000,0.03160,0.97576,-0.19008,0.0,2023,6,7,17,21,55,469
49.37240,-0.22050,0.10255,0.00000,0.02965,0.97527,-0.18849,0.0,2023,6,7,17,21,55,480
49.37250,-0.04550,-0.00245,0.00000,0.03331,0.97405,-0.18751,0.0,2023,6,7,17,21,55,491
49.37260,-0.04550,0.19005,0.00000,0.03575,0.97881,-0.18739,0.0,2023,6,7,17,21,55,502
49.37270,-0.11550,0.06755,0.00000,0.03013,0.97746,-0.18983,0.0,2023,6,7,17,21,55,513
49.37280,0.14700,-0.26495,0.00000,0.03270,0.97576,-0.19020,0.0,2023,6,7,17,21,55,524
49.37290,-0.08050,-0.01995,0.00000,0.03001,0.97466,-0.18861,0.0,2023,6,7,17,21,55,535
49.37300,-0.20300,-0.00245,0.00000,0.03331,0.97795,-0.18825,0.0,2023,6,7,17,21,55,546
49.37310,-0.01050,-0.05495,0.00000,0.03184,0.97454,-0.18690,0.0,2023,6,7,17,21,55,557
49.37320,-0.15050,-0.12495,0.00000,0.03123,0.97600,-0.18776,0.0,2023,6,7,17,21,55,568
49.37330,-0.09800,0.29505,0.00000,0.03111,0.97563,-0.18703,0.0,2023,6,7,17,21,55,579
49.37340,0.02450,0.01505,0.00000,0.03282,0.97637,-0.18922,0.0,2023,6,7,17,21,55,590
49.37350,-0.15050,-0.10745,0.00000,0.03306,0.97539,-0.18690,0.0,2023,6,7,17,21,55,601
49.37360,-0.04550,0.08505,0.00000,0.03196,0.97722,-0.18788,0.0,2023,6,7,17,21,55,612
49.37370,0.05950,0.06755,0.00000,0.03148,0.97539,-0.19008,0.0,2023,6,7,17,21,55,623
49.37380,0.05950,0.01505,0.00000,0.03270,0.97734,-0.18703,0.0,2023,6,7,17,21,55,634
49.37390,-0.18550,0.20755,0.00000,0.03148,0.97441,-0.18764,0.0,2023,6,7,17,21,55,645
49.37400,-0.16800,0.17255,0.00000,0.02977,0.97844,-0.18910,0.0,2023,6,7,17,21,55,656
49.37410,-0.02800,0.05005,0.00000,0.03038,0.97807,-0.18898,0.0,2023,6,7,17,21,55,667
49.37420,-0.01050,-0.00245,0.00000,0.03294,0.97624,-0.18776,0.0,2023,6,7,17,21,55,678
49.37430,-0.04550,0.05005,0.00000,0.03001,0.97600,-0.18629,0.0,2023,6,7,17,21,55,689
49.37440,-0.02800,0.10255,0.00000,0.03123,0.97710,-0.19032,0.0,2023,6,7,17,21,55,700
49.37450,0.07700,-0.21245,0.00000,0.03160,0.97478,-0.18617,0.0,2023,6,7,17,21,55,711
49.37460,-0.09800,-0.03745,0.00000,0.03196,0.97515,-0.18934,0.0,2023,6,7,17,21,55,722
49.37470,0.04200,-0.03745,0.00000,0.03221,0.97759,-0.19117,0.0,2023,6,7,17,21,55,733
49.37480,-0.02800,-0.08995,0.00000,0.03135,0.97783,-0.18983,0.0,2023,6,7,17,21,55,744
49.37490,-0.08050,-0.00245,0.00000,0.03160,0.97563,-0.18800,0.0,2023,6,7,17,21,55,755
49.37500,0.07700,0.05005,0.00000,0.03282,0.97612,-0.19142,0.0,2023,6,7,17,21,55,766
49.37510,-0.25550,-0.07245,0.00000,0.03026,0.97673,-0.18959,0.0,2023,6,7,17,21,55,777
49.37520,0.16450,0.06755,0.00000,0.03026,0.97454,-0.18995,0.0,2023,6,7,17,21,55,788
49.37530,0.05950,-0.17745,0.00000,0.02965,0.97759,-0.18898,0.0,2023,6,7,17,21,55,799
49.37540,0.04200,-0.01995,0.00000,0.03184,0.97673,-0.18849,0.0,2023,6,7,17,21,55,810
49.37550,0.07700,-0.21245,0.00000,0.03160,0.97820,-0.19032,0.0,2023,6,7,17,21,55,821
49.37560,-0.02800,0.01505,0.00000,0.03135,0.97539,-0.19008,0.0,2023,6,7,17,21,55,832
49.37570,0.07700,0.03255,0.00000,0.03001,0.97771,-0.18983,0.0,2023,6,7,17,21,55,843
49.37580,-0.01050,-0.15995,0.00000,0.03099,0.97783,-0.18520,0.0,2023,6,7,17,21,55,854
49.37590,0.05950,-0.14245,0.00000,0.03135,0.97624,-0.18642,0.0,2023,6,7,17,21,55,865
49.37600,0.05950,0.19005,0.00000,0.03245,0.97783,-0.18629,0.0,2023,6,7,17,21,55,876
49.37610,-0.04550,-0.22995,0.00000,0.03013,0.97942,-0.19020,0.0,2023,6,7,17,21,55,887
49.37620,-0.02800,0.03255,0.00000,0.03245,0.97661,-0.18861,0.0,2023,6,7,17,21,55,898
49.37630,0.07700,-0.03745,0.00000,0.03233,0.97637,-0.18873,0.0,2023,6,7,17,21,55,909
49.37640,-0.01050,0.10255,0.00000,0.03184,0.97673,-0.19227,0.0,2023,6,7,17,21,55,920
49.37650,-0.09800,-0.10745,0.00000,0.03062,0.97551,-0.18886,0.0,2023,6,7,17,21,55,931
49.37660,-0.06300,0.12005,0.00000,0.03196,0.97820,-0.18544,0.0,2023,6,7,17,21,55,942
49.37670,-0.13300,-0.00245,0.00000,0.03001,0.97673,-0.18934,0.0,2023,6,7,17,21,55,953
49.37680,-0.01050,-0.08995,0.00000,0.03062,0.97685,-0.19020,0.0,2023,6,7,17,21,55,964
49.37690,-0.08050,-0.03745,0.00000,0.02977,0.97771,-0.19069,0.0,2023,6,7,17,21,56,975
49.37700,0.14700,0.08505,0.00000,0.03050,0.97844,-0.18947,0.0,2023,6,7,17,21,56,986
49.37710,0.16450,-0.19495,0.00000,0.03221,0.97893,-0.19032,0.0,2023,6,7,17,21,56,997
49.37720,0.09450,-0.00245,0.00000,0.03135,0.97527,-0.19130,0.0,2023,6,7,17,21,56,8
49.37730,-0.01050,0.20755,0.00000,0.03123,0.97563,-0.18690,0.0,2023,6,7,17,21,56,19
49.37740,0.00700,0.22505,0.00000,0.03209,0.97563,-0.19044,0.0,2023,6,7,17,21,56,30
49.37750,0.09450,0.08505,0.00000,0.03184,0.97441,-0.19117,0.0,2023,6,7,17,21,56,41
49.37760,0.04200,-0.03745,0.00000,0.03355,0.97685,-0.18898,0.0,2023,6,7,17,21,56,52
49.37770,-0.16800,-0.00245,0.00000,0.02940,0.97576,-0.19069,0.0,2023,6,7,17,21,56,63
49.37780,-0.01050,-0.17745,0.00000,0.03306,0.97771,-0.19142,0.0,2023,6,7,17,21,56,74
49.37790,0.02450,-0.00245,0.00000,0.03111,0.97710,-0.18800,0.0,2023,6,7,17,21,56,85
49.37800,-0.02800,0.12005,0.00000,0.02855,0.97600,-0.19142,0.0,2023,6,7,17,21,56,96
49.37810,0.19950,-0.14245,0.00000,0.03148,0.97649,-0.19191,0.0,2023,6,7,17,21,56,107
49.37820,0.18200,-0.07245,0.00000,0.03270,0.97685,-0.19105,0.0,2023,6,7,17,21,56,118
49.37830,-0.06300,-0.15995,0.00000,0.03221,0.97783,-0.18898,0.0,2023,6,7,17,21,56,129
49.37840,-0.13300,-0.14245,0.00000,0.03062,0.97661,-0.19203,0.0,2023,6,7,17,21,56,140
49.37850,0.11200,-0.17745,0.00000,0.03135,0.97588,-0.19191,0.0,2023,6,7,17,21,56,151
49.37860,-0.18550,0.15505,0.00000,0.02879,0.97344,-0.19142,0.0,2023,6,7,17,21,56,162
49.37870,0.02450,0.12005,0.00000,0.03257,0.97637,-0.19130,0.0,2023,6,7,17,21,56,173
49.37880,0.02450,0.27755,0.00000,0.03062,0.97795,-0.19117,0.0,2023,6,7,17,21,56,184
49.37890,0.05950,0.17255,0.00000,0.03074,0.97722,-0.18800,0.0,2023,6,7,17,21,56,195
49.37900,0.05950,-0.21245,0.00000,0.03294,0.97783,-0.18825,0.0,2023,6,7,17,21,56,206
49.37910,0.05950,0.03255,0.00000,0.03026,0.97600,-0.18959,0.0,2023,6,7,17,21,56,217
49.37920,0.02450,0.03255,0.00000,0.02952,0.97685,-0.19008,0.0,2023,6,7,17,21,56,228
49.37930,-0.01050,-0.03745,0.00000,0.03172,0.97832,-0.18642,0.0,2023,6,7,17,21,56,239
49.37940,-0.04550,0.01505,0.00000,0.03062,0.97710,-0.18739,0.0,2023,6,7,17,21,56,250
49.37950,-0.01050,0.08505,0.00000,0.03062,0.97771,-0.18837,0.0,2023,6,7,17,21,56,261
49.37960,0.04200,-0.26495,0.00000,0.03318,0.97600,-0.18642,0.0,2023,6,7,17,21,56,272
49.37970,-0.04550,-0.12495,0.00000,0.03050,0.97759,-0.19117,0.0,2023,6,7,17,21,56,283
49.37980,-0.02800,-0.00245,0.00000,0.03050,0.97612,-0.18812,0.0,2023,6,7,17,21,56,294
49.37990,0.16450,-0.15995,0.00000,0.02904,0.97698,-0.18861,0.0,2023,6,7,17,21,56,305
49.38000,-0.04550,0.05005,0.00000,0.03099,0.97551,-0.18959,0.0,2023,6,7,17,21,56,316
49.38010,-0.11550,0.24255,0.00000,0.02989,0.97673,-0.19008,0.0,2023,6,7,17,21,56,327
49.38020,-0.18550,0.03255,0.00000,0.03184,0.97515,-0.18654,0.0,2023,6,7,17,21,56,338
49.38030,-0.08050,0.08505,0.00000,0.03160,0.97637,-0.18727,0.0,2023,6,7,17,21,56,349
49.38040,0.12950,-0.03745,0.00000,0.03148,0.97649,-0.18922,0.0,2023,6,7,17,21,56,360
49.38050,0.00700,-0.21245,0.00000,0.03172,0.97539,-0.18825,0.0,2023,6,7,17,21,56,371
49.38060,-0.27300,-0.07245,0.00000,0.03245,0.97746,-0.18617,0.0,2023,6,7,17,21,56,382
49.38070,-0.18550,0.13755,0.00000,0.03135,0.97563,-0.18995,0.0,2023,6,7,17,21,56,393
49.38080,0.16450,-0.24745,0.00000,0.03209,0.97380,-0.18910,0.0,2023,6,7,17,21,56,404
49.38090,-0.11550,-0.17745,0.00000,0.03135,0.97649,-0.18703,0.0,2023,6,7,17,21,56,415
49.38100,0.02450,0.05005,0.00000,0.02952,0.97588,-0.18898,0.0,2023,6,7,17,21,56,426
49.38110,0.12950,0.13755,0.00000,0.02916,0.97661,-0.18995,0.0,2023,6,7,17,21,56,437
49.38120,-0.02800,0.06755,0.00000,0.03196,0.97759,-0.18910,0.0,2023,6,7,17,21,56,448
49.38130,0.04200,-0.05495,0.00000,0.03050,0.97734,-0.18727,0.0,2023,6,7,17,21,56,459
49.38140,-0.04550,-0.21245,0.00000,0.03184,0.97856,-0.18800,0.0,2023,6,7,17,21,56,470
49.38150,-0.04550,0.05005,0.00000,0.03026,0.97551,-0.19056,0.0,2023,6,7,17,21,56,481
49.38160,0.07700,0.01505,0.00000,0.03209,0.97576,-0.18678,0.0,2023,6,7,17,21,56,492
49.38170,0.09450,0.03255,0.00000,0.03294,0.97624,-0.18995,0.0,2023,6,7,17,21,56,503
49.38180,0.02450,0.03255,0.00000,0.03001,0.97624,-0.19081,0.0,2023,6,7,17,21,56,514
49.38190,0.00700,-0.01995,0.00000,0.03318,0.97551,-0.18739,0.0,2023,6,7,17,21,56,525
49.38200,-0.04550,-0.10745,0.00000,0.03123,0.97600,-0.18849,0.0,2023,6,7,17,21,56,536
49.38210,0.12950,0.05005,0.00000,0.03123,0.97820,-0.19203,0.0,2023,6,7,17,21,56,547
49.38220,-0.23800,0.08505,0.00000,0.03196,0.97807,-0.18971,0.0,2023,6,7,17,21,56,558
49.38230,-0.13300,-0.15995,0.00000,0.03184,0.97759,-0.18788,0.0,2023,6,7,17,21,56,569
49.38240,0.18200,-0.05495,0.00000,0.03257,0.97649,-0.18947,0.0,2023,6,7,17,21,56,580
49.38250,-0.01050,0.08505,0.00000,0.03160,0.97771,-0.18800,0.0,2023,6,7,17,21,56,591
49.38260,-0.15050,0.12005,0.00000,0.03111,0.97685,-0.18776,0.0,2023,6,7,17,21,56,602
49.38270,0.07700,0.05005,0.00000,0.03148,0.97612,-0.18873,0.0,2023,6,7,17,21,56,613
49.38280,0.28700,-0.21245,0.00000,0.03111,0.97649,-0.18971,0.0,2023,6,7,17,21,56,624
49.38290,-0.02800,-0.03745,0.00000,0.03111,0.97624,-0.18825,0.0,2023,6,7,17,21,56,635
49.38300,-0.01050,0.12005,0.00000,0.03074,0.97807,-0.18837,0.0,2023,6,7,17,21,56,646
49.38310,-0.02800,0.08505,0.00000,0.03062,0.97490,-0.18922,0.0,2023,6,7,17,21,56,657
49.38320,-0.08050,0.01505,0.00000,0.03148,0.97624,-0.18910,0.0,2023,6,7,17,21,56,668
49.38330,0.04200,0.12005,0.00000,0.03221,0.97698,-0.18910,0.0,2023,6,7,17,21,56,679
49.38340,-0.08050,0.22505,0.00000,0.03172,0.97502,-0.18861,0.0,2023,6,7,17,21,56,690
49.38350,0.04200,-0.03745,0.00000,0.03355,0.97454,-0.18593,0.0,2023,6,7,17,21,56,701
49.38360,0.00700,-0.07245,0.00000,0.03050,0.97637,-0.18825,0.0,2023,6,7,17,21,56,712
49.38370,0.04200,-0.21245,0.00000,0.02904,0.97576,-0.18617,0.0,2023,6,7,17,21,56,723
49.38380,0.05950,-0.00245,0.00000,0.03318,0.97661,-0.18861,0.0,2023,6,7,17,21,56,734
49.38390,-0.13300,-0.14245,0.00000,0.03379,0.97624,-0.18995,0.0,2023,6,7,17,21,56,745
49.38400,-0.08050,0.13755,0.00000,0.03196,0.97551,-0.18959,0.0,2023,6,7,17,21,56,756
49.38410,0.12950,-0.01995,0.00000,0.03111,0.97771,-0.18959,0.0,2023,6,7,17,21,56,767
49.38420,-0.13300,0.19005,0.00000,0.03282,0.97515,-0.18654,0.0,2023,6,7,17,21,56,778
49.38430,-0.34300,-0.03745,0.00000,0.02879,0.97258,-0.18764,0.0,2023,6,7,17,21,56,789
49.38440,0.19950,0.08505,0.00000,0.03306,0.97612,-0.19056,0.0,2023,6,7,17,21,56,800
49.38450,-0.11550,-0.10745,0.00000,0.03184,0.97527,-0.18837,0.0,2023,6,7,17,21,56,811
49.38460,-0.04550,-0.05495,0.00000,0.02977,0.97832,-0.18764,0.0,2023,6,7,17,21,56,822
49.38470,0.11200,0.08505,0.00000,0.03233,0.97466,-0.18788,0.0,2023,6,7,17,21,56,833
49.38480,-0.20300,0.08505,0.00000,0.03050,0.97783,-0.18520,0.0,2023,6,7,17,21,56,844
49.38490,0.14700,-0.19495,0.00000,0.03148,0.97478,-0.18983,0.0,2023,6,7,17,21,56,855
49.38500,0.05950,0.01505,0.00000,0.03038,0.97600,-0.18873,0.0,2023,6,7,17,21,56,866
49.38510,0.05950,-0.10745,0.00000,0.02952,0.97539,-0.18934,0.0,2023,6,7,17,21,56,877
49.38520,0.26950,-0.00245,0.00000,0.03184,0.97600,-0.18922,0.0,2023,6,7,17,21,56,888
49.38530,0.21700,-0.15995,0.00000,0.03184,0.97551,-0.18788,0.0,2023,6,7,17,21,56,899
49.38540,0.00700,-0.08995,0.00000,0.03184,0.97820,-0.19203,0.0,2023,6,7,17,21,56,910
49.38550,0.16450,0.12005,0.00000,0.03111,0.97478,-0.18739,0.0,2023,6,7,17,21,56,921
49.38560,-0.16800,-0.05495,0.00000,0.03196,0.97795,-0.18800,0.0,2023,6,7,17,21,56,932
49.38570,0.00700,-0.05495,0.00000,0.03074,0.97661,-0.19044,0.0,2023,6,7,17,21,56,943
49.38580,0.12950,-0.08995,0.00000,0.03123,0.97502,-0.18910,0.0,2023,6,7,17,21,57,954
49.38590,-0.08050,0.06755,0.00000,0.03233,0.97515,-0.18568,0.0,2023,6,7,17,21,57,965
49.38600,0.26950,-0.00245,0.00000,0.03050,0.97624,-0.18678,0.0,2023,6,7,17,21,57,976
49.38610,0.14700,-0.01995,0.00000,0.03099,0.97393,-0.18690,0.0,2023,6,7,17,21,57,987
49.38620,0.02450,-0.05495,0.00000,0.03123,0.97844,-0.18934,0.0,2023,6,7,17,21,57,998
49.38630,0.16450,0.13755,0.00000,0.03343,0.97588,-0.19081,0.0,2023,6,7,17,21,57,9
49.38640,-0.11550,0.10255,0.00000,0.03172,0.97332,-0.18727,0.0,2023,6,7,17,21,57,20
49.38650,0.09450,-0.17745,0.00000,0.02916,0.97661,-0.18825,0.0,2023,6,7,17,21,57,31
49.38660,-0.04550,-0.17745,0.00000,0.03209,0.97661,-0.18727,0.0,2023,6,7,17,21,57,42
49.38670,-0.06300,0.03255,0.00000,0.03160,0.97612,-0.18886,0.0,2023,6,7,17,21,57,53
49.38680,-0.13300,0.10255,0.00000,0.03001,0.97954,-0.18666,0.0,2023,6,7,17,21,57,64
49.38690,0.14700,-0.07245,0.00000,0.03209,0.97759,-0.18898,0.0,2023,6,7,17,21,57,75
49.38700,0.04200,-0.01995,0.00000,0.03184,0.97832,-0.18837,0.0,2023,6,7,17,21,57,86
49.38710,0.02450,-0.00245,0.00000,0.03111,0.97454,-0.18654,0.0,2023,6,7,17,21,57,97
49.38720,0.05950,0.15505,0.00000,0.03099,0.97710,-0.18861,0.0,2023,6,7,17,21,57,108
49.38730,-0.06300,0.13755,0.00000,0.03111,0.97820,-0.18727,0.0,2023,6,7,17,21,57,119
49.38740,-0.06300,0.06755,0.00000,0.03270,0.97746,-0.18983,0.0,2023,6,7,17,21,57,130
49.38750,-0.08050,-0.12495,0.00000,0.02989,0.97612,-0.18934,0.0,2023,6,7,17,21,57,141
49.38760,-0.06300,0.17255,0.00000,0.03099,0.97624,-0.19215,0.0,2023,6,7,17,21,57,152
49.38770,-0.18550,-0.01995,0.00000,0.03135,0.97795,-0.18800,0.0,2023,6,7,17,21,57,163
49.38780,0.00700,-0.03745,0.00000,0.03343,0.97576,-0.18861,0.0,2023,6,7,17,21,57,174
49.38790,-0.09800,0.03255,0.00000,0.03148,0.97576,-0.18886,0.0,2023,6,7,17,21,57,185
49.38800,0.11200,-0.15995,0.00000,0.03221,0.97868,-0.18605,0.0,2023,6,7,17,21,57,196
49.38810,0.04200,-0.21245,0.00000,0.03245,0.97722,-0.18934,0.0,2023,6,7,17,21,57,207
49.38820,0.11200,-0.17745,0.00000,0.03270,0.97551,-0.18922,0.0,2023,6,7,17,21,57,218
49.38830,0.07700,-0.00245,0.00000,0.03074,0.97612,-0.18788,0.0,2023,6,7,17,21,57,229
49.38840,-0.06300,0.05005,0.00000,0.03123,0.97746,-0.19093,0.0,2023,6,7,17,21,57,240
49.38850,0.12950,-0.12495,0.00000,0.02940,0.97771,-0.18947,0.0,2023,6,7,17,21,57,251
49.38860,0.16450,-0.03745,0.00000,0.03123,0.97612,-0.18959,0.0,2023,6,7,17,21,57,262
49.38870,0.12950,-0.00245,0.00000,0.03404,0.97539,-0.18800,0.0,2023,6,7,17,21,57,273
49.38880,-0.09800,-0.05495,0.00000,0.03013,0.97710,-0.19227,0.0,2023,6,7,17,21,57,284
49.38890,0.14700,0.05005,0.00000,0.03209,0.97563,-0.18715,0.0,2023,6,7,17,21,57,295
49.38900,0.04200,0.19005,0.00000,0.03099,0.97637,-0.18947,0.0,2023,6,7,17,21,57,306
49.38910,0.18200,-0.03745,0.00000,0.03172,0.97637,-0.19069,0.0,2023,6,7,17,21,57,317
49.38920,-0.09800,0.15505,0.00000,0.03233,0.97502,-0.19008,0.0,2023,6,7,17,21,57,328
49.38930,0.11200,-0.22995,0.00000,0.03221,0.97820,-0.18971,0.0,2023,6,7,17,21,57,339
49.38940,-0.09800,0.08505,0.00000,0.03026,0.97820,-0.18947,0.0,2023,6,7,17,21,57,350
49.38950,0.04200,0.26005,0.00000,0.03026,0.97490,-0.19056,0.0,2023,6,7,17,21,57,361
49.38960,0.04200,-0.07245,0.00000,0.02977,0.97661,-0.18593,0.0,2023,6,7,17,21,57,372
49.38970,0.04200,-0.10745,0.00000,0.03184,0.97759,-0.18812,0.0,2023,6,7,17,21,57,383
49.38980,-0.16800,0.05005,0.00000,0.03135,0.97612,-0.19142,0.0,2023,6,7,17,21,57,394
49.38990,0.14700,0.06755,0.00000,0.03331,0.97649,-0.18605,0.0,2023,6,7,17,21,57,405
49.39000,0.02450,0.13755,0.00000,0.03087,0.97624,-0.18983,0.0,2023,6,7,17,21,57,416
49.39010,0.16450,0.05005,0.00000,0.02879,0.97795,-0.18727,0.0,2023,6,7,17,21,57,427
49.39020,-0.16800,0.12005,0.00000,0.02965,0.97710,-0.18886,0.0,2023,6,7,17,21,57,438
49.39030,0.09450,0.05005,0.00000,0.03160,0.97746,-0.18849,0.0,2023,6,7,17,21,57,449
49.39040,0.12950,0.06755,0.00000,0.03196,0.97612,-0.18959,0.0,2023,6,7,17,21,57,460
49.39050,-0.18550,-0.07245,0.00000,0.03038,0.97515,-0.18886,0.0,2023,6,7,17,21,57,471
49.39060,-0.18550,0.08505,0.00000,0.03294,0.97759,-0.18947,0.0,2023,6,7,17,21,57,482
49.39070,0.07700,0.15505,0.00000,0.03135,0.97502,-0.18812,0.0,2023,6,7,17,21,57,493
49.39080,-0.11550,0.12005,0.00000,0.02977,0.97429,-0.18873,0.0,2023,6,7,17,21,57,504
49.39090,-0.02800,0.01505,0.00000,0.03331,0.97722,-0.18934,0.0,2023,6,7,17,21,57,515
49.39100,0.02450,-0.05495,0.00000,0.03184,0.97539,-0.18910,0.0,2023,6,7,17,21,57,526
49.39110,-0.04550,0.06755,0.00000,0.03331,0.97844,-0.18849,0.0,2023,6,7,17,21,57,537
49.39120,-0.02800,0.10255,0.00000,0.03135,0.97612,-0.18812,0.0,2023,6,7,17,21,57,548
49.39130,-0.08050,0.01505,0.00000,0.03270,0.97771,-0.18507,0.0,2023,6,7,17,21,57,559
49.39140,0.02450,0.05005,0.00000,0.03135,0.97588,-0.18812,0.0,2023,6,7,17,21,57,570
49.39150,-0.09800,0.01505,0.00000,0.03148,0.97685,-0.18520,0.0,2023,6,7,17,21,57,581
49.39160,-0.09800,0.24255,0.00000,0.03148,0.97624,-0.18886,0.0,2023,6,7,17,21,57,592
49.39170,-0.08050,0.03255,0.00000,0.03123,0.97649,-0.18959,0.0,2023,6,7,17,21,57,603
49.39180,0.00700,-0.24745,0.00000,0.03343,0.97759,-0.18703,0.0,2023,6,7,17,21,57,614
49.39190,-0.22050,0.13755,0.00000,0.03233,0.97637,-0.18971,0.0,2023,6,7,17,21,57,625
49.39200,0.16450,-0.17745,0.00000,0.03148,0.97795,-0.19117,0.0,2023,6,7,17,21,57,636
49.39210,-0.01050,0.03255,0.00000,0.03135,0.97954,-0.18629,0.0,2023,6,7,17,21,57,647
49.39220,-0.16800,0.40005,0.00000,0.03013,0.97868,-0.18934,0.0,2023,6,7,17,21,57,658
49.39230,0.00700,-0.19495,0.00000,0.03087,0.97832,-0.19044,0.0,2023,6,7,17,21,57,669
49.39240,0.00700,-0.17745,0.00000,0.03074,0.97624,-0.18642,0.0,2023,6,7,17,21,57,680
49.39250,-0.13300,-0.17745,0.00000,0.03270,0.97673,-0.18825,0.0,2023,6,7,17,21,57,691
49.39260,0.19950,0.19005,0.00000,0.03172,0.97710,-0.18995,0.0,2023,6,7,17,21,57,702
49.39270,0.07700,0.08505,0.00000,0.03123,0.97478,-0.18788,0.0,2023,6,7,17,21,57,713
49.39280,0.09450,0.12005,0.00000,0.03343,0.97588,-0.18837,0.0,2023,6,7,17,21,57,724
49.39290,0.23450,0.01505,0.00000,0.03038,0.97746,-0.19081,0.0,2023,6,7,17,21,57,735
49.39300,-0.04550,-0.12495,0.00000,0.03038,0.97490,-0.18825,0.0,2023,6,7,17,21,57,746
49.39310,-0.01050,0.06755,0.00000,0.02952,0.97673,-0.18934,0.0,2023,6,7,17,21,57,757
49.39320,0.11200,0.01505,0.00000,0.03245,0.97588,-0.18947,0.0,2023,6,7,17,21,57,768
49.39330,-0.08050,0.08505,0.00000,0.03148,0.97710,-0.18886,0.0,2023,6,7,17,21,57,779
49.39340,0.23450,-0.08995,0.00000,0.03245,0.97673,-0.18861,0.0,2023,6,7,17,21,57,790
49.39350,0.09450,-0.08995,0.00000,0.02989,0.97917,-0.18764,0.0,2023,6,7,17,21,57,801
49.39360,-0.15050,-0.10745,0.00000,0.03184,0.97600,-0.18898,0.0,2023,6,7,17,21,57,812
49.39370,0.00700,0.03255,0.00000,0.03123,0.97759,-0.18837,0.0,2023,6,7,17,21,57,823
49.39380,0.21700,0.01505,0.00000,0.02952,0.97563,-0.18690,0.0,2023,6,7,17,21,57,834
49.39390,-0.13300,0.12005,0.00000,0.03013,0.97539,-0.18922,0.0,2023,6,7,17,21,57,845
49.39400,0.04200,0.03255,0.00000,0.03111,0.97868,-0.18471,0.0,2023,6,7,17,21,57,856
49.39410,-0.15050,-0.12495,0.00000,0.03148,0.97612,-0.18764,0.0,2023,6,7,17,21,57,867
49.39420,0.02450,0.10255,0.00000,0.03172,0.97746,-0.18861,0.0,2023,6,7,17,21,57,878
49.39430,0.07700,-0.07245,0.00000,0.03282,0.97624,-0.18776,0.0,2023,6,7,17,21,57,889
49.39440,0.02450,0.08505,0.00000,0.03062,0.97698,-0.18898,0.0,2023,6,7,17,21,57,900
49.39450,0.12950,0.13755,0.00000,0.03099,0.97612,-0.18812,0.0,2023,6,7,17,21,57,911
49.39460,0.09450,-0.07245,0.00000,0.03233,0.97661,-0.18751,0.0,2023,6,7,17,21,57,922
49.39470,-0.08050,-0.17745,0.00000,0.03221,0.97527,-0.18873,0.0,2023,6,7,17,21,57,933
49.39480,-0.04550,-0.07245,0.00000,0.03160,0.97856,-0.18776,0.0,2023,6,7,17,21,58,944
49.39490,-0.13300,0.13755,0.00000,0.03245,0.97539,-0.18666,0.0,2023,6,7,17,21,58,955
49.39500,-0.09800,-0.01995,0.00000,0.02965,0.97746,-0.19117,0.0,2023,6,7,17,21,58,966
49.39510,0.05950,0.15505,0.00000,0.03087,0.97673,-0.18934,0.0,2023,6,7,17,21,58,977
49.39520,0.04200,-0.01995,0.00000,0.03233,0.97954,-0.18715,0.0,2023,6,7,17,21,58,988
49.39530,-0.09800,0.03255,0.00000,0.02977,0.97954,-0.18751,0.0,2023,6,7,17,21,58,999
49.39540,-0.08050,-0.03745,0.00000,0.02904,0.97527,-0.18922,0.0,2023,6,7,17,21,58,10
49.39550,-0.01050,0.03255,0.00000,0.03160,0.97685,-0.18678,0.0,2023,6,7,17,21,58,21
49.39560,0.18200,0.03255,0.00000,0.03233,0.97698,-0.18507,0.0,2023,6,7,17,21,58,32
49.39570,0.04200,-0.10745,0.00000,0.03209,0.97685,-0.18800,0.0,2023,6,7,17,21,58,43
49.39580,0.12950,0.20755,0.00000,0.02940,0.97612,-0.18739,0.0,2023,6,7,17,21,58,54
49.39590,0.09450,-0.10745,0.00000,0.03184,0.97539,-0.18971,0.0,2023,6,7,17,21,58,65
49.39600,-0.02800,-0.14245,0.00000,0.03013,0.97771,-0.19081,0.0,2023,6,7,17,21,58,76
49.39610,0.12950,0.08505,0.00000,0.03343,0.97612,-0.18922,0.0,2023,6,7,17,21,58,87
49.39620,0.00700,-0.07245,0.00000,0.02989,0.97929,-0.18788,0.0,2023,6,7,17,21,58,98
49.39630,0.05950,0.10255,0.00000,0.03196,0.97929,-0.18898,0.0,2023,6,7,17,21,58,109
49.39640,-0.16800,0.01505,0.00000,0.03123,0.97624,-0.18666,0.0,2023,6,7,17,21,58,120
49.39650,0.09450,-0.03745,0.00000,0.03221,0.97771,-0.18873,0.0,2023,6,7,17,21,58,131
49.39660,-0.01050,0.06755,0.00000,0.03196,0.97710,-0.18849,0.0,2023,6,7,17,21,58,142
49.39670,0.05950,-0.05495,0.00000,0.03355,0.97454,-0.18764,0.0,2023,6,7,17,21,58,153
49.39680,0.19950,-0.22995,0.00000,0.03428,0.97820,-0.18873,0.0,2023,6,7,17,21,58,164
49.39690,0.00700,-0.05495,0.00000,0.03001,0.97551,-0.18715,0.0,2023,6,7,17,21,58,175
49.39700,-0.06300,0.01505,0.00000,0.03196,0.97649,-0.18812,0.0,2023,6,7,17,21,58,186
49.39710,0.30450,-0.01995,0.00000,0.02940,0.97783,-0.18825,0.0,2023,6,7,17,21,58,197
49.39720,-0.09800,0.08505,0.00000,0.03001,0.97515,-0.18995,0.0,2023,6,7,17,21,58,208
49.39730,-0.06300,-0.01995,0.00000,0.03050,0.97429,-0.18751,0.0,2023,6,7,17,21,58,219
49.39740,-0.02800,-0.07245,0.00000,0.03099,0.97661,-0.18703,0.0,2023,6,7,17,21,58,230
49.39750,0.04200,-0.01995,0.00000,0.03099,0.97527,-0.18898,0.0,2023,6,7,17,21,58,241
49.39760,0.07700,0.01505,0.00000,0.02830,0.97539,-0.18947,0.0,2023,6,7,17,21,58,252
49.39770,0.11200,-0.00245,0.00000,0.03196,0.97820,-0.18886,0.0,2023,6,7,17,21,58,263
49.39780,-0.06300,-0.03745,0.00000,0.03074,0.97515,-0.18825,0.0,2023,6,7,17,21,58,274
49.39790,-0.13300,-0.00245,0.00000,0.02965,0.97746,-0.18983,0.0,2023,6,7,17,21,58,285
49.39800,-0.04550,0.03255,0.00000,0.03050,0.97795,-0.18922,0.0,2023,6,7,17,21,58,296
49.39810,-0.18550,-0.01995,0.00000,0.03148,0.97661,-0.18971,0.0,2023,6,7,17,21,58,307
49.39820,-0.25550,0.06755,0.00000,0.03123,0.97637,-0.19093,0.0,2023,6,7,17,21,58,318
49.39830,0.14700,-0.07245,0.00000,0.03062,0.97490,-0.18703,0.0,2023,6,7,17,21,58,329
49.39840,0.14700,0.12005,0.00000,0.03074,0.97588,-0.18812,0.0,2023,6,7,17,21,58,340
49.39850,0.18200,-0.14245,0.00000,0.03074,0.97551,-0.18922,0.0,2023,6,7,17,21,58,351
49.39860,0.00700,-0.00245,0.00000,0.03318,0.97649,-0.18642,0.0,2023,6,7,17,21,58,362
49.39870,-0.11550,0.10255,0.00000,0.03245,0.97576,-0.18751,0.0,2023,6,7,17,21,58,373
49.39880,-0.04550,0.03255,0.00000,0.03111,0.97698,-0.18910,0.0,2023,6,7,17,21,58,384
49.39890,-0.16800,0.01505,0.00000,0.03245,0.97502,-0.18825,0.0,2023,6,7,17,21,58,395
49.39900,-0.04550,0.03255,0.00000,0.03331,0.97624,-0.18751,0.0,2023,6,7,17,21,58,406
49.39910,-0.02800,0.01505,0.00000,0.03160,0.97698,-0.18812,0.0,2023,6,7,17,21,58,417
49.39920,-0.01050,0.08505,0.00000,0.03172,0.97807,-0.18788,0.0,2023,6,7,17,21,58,428
49.39930,-0.08050,0.15505,0.00000,0.03099,0.97551,-0.18690,0.0,2023,6,7,17,21,58,439
49.39940,-0.09800,0.15505,0.00000,0.03123,0.97710,-0.18812,0.0,2023,6,7,17,21,58,450
49.39950,0.04200,-0.03745,0.00000,0.03135,0.97588,-0.18800,0.0,2023,6,7,17,21,58,461
49.39960,-0.15050,0.17255,0.00000,0.02928,0.97478,-0.18849,0.0,2023,6,7,17,21,58,472
49.39970,0.12950,-0.12495,0.00000,0.03013,0.97661,-0.18593,0.0,2023,6,7,17,21,58,483
49.39980,0.02450,0.03255,0.00000,0.03135,0.97746,-0.18825,0.0,2023,6,7,17,21,58,494
49.39990,-0.01050,-0.17745,0.00000,0.03148,0.97844,-0.18727,0.0,2023,6,7,17,21,58,505
49.40000,-0.09800,-0.05495,0.00000,0.03062,0.97515,-0.19056,0.0,2023,6,7,17,21,58,516
49.40010,0.07700,0.13755,0.00000,0.03038,0.97612,-0.19020,0.0,2023,6,7,17,21,58,527
49.40020,-0.04550,0.06755,0.00000,0.03270,0.97673,-0.18751,0.0,2023,6,7,17,21,58,538
49.40030,-0.06300,0.15505,0.00000,0.03184,0.97478,-0.19069,0.0,2023,6,7,17,21,58,549
49.40040,-0.25550,0.24255,0.00000,0.02879,0.97868,-0.18983,0.0,2023,6,7,17,21,58,560
49.40050,0.04200,0.03255,0.00000,0.03160,0.97685,-0.18934,0.0,2023,6,7,17,21,58,571
49.40060,-0.04550,0.24255,0.00000,0.03209,0.97649,-0.18776,0.0,2023,6,7,17,21,58,582
49.40070,0.09450,0.10255,0.00000,0.03282,0.97893,-0.18849,0.0,2023,6,7,17,21,58,593
49.40080,-0.09800,0.12005,0.00000,0.02989,0.97466,-0.18825,0.0,2023,6,7,17,21,58,604
49.40090,0.04200,-0.19495,0.00000,0.03148,0.97746,-0.18947,0.0,2023,6,7,17,21,58,615
49.40100,-0.16800,0.13755,0.00000,0.03026,0.97783,-0.18812,0.0,2023,6,7,17,21,58,626
49.40110,0.19950,-0.07245,0.00000,0.03184,0.97746,-0.18873,0.0,2023,6,7,17,21,58,637
49.40120,-0.18550,-0.03745,0.00000,0.03172,0.97588,-0.18825,0.0,2023,6,7,17,21,58,648
49.40130,-0.06300,-0.26495,0.00000,0.02952,0.97746,-0.18703,0.0,2023,6,7,17,21,58,659
49.40140,-0.04550,0.13755,0.00000,0.03196,0.97661,-0.18959,0.0,2023,6,7,17,21,58,670
49.40150,-0.13300,-0.15995,0.00000,0.03196,0.97502,-0.19008,0.0,2023,6,7,17,21,58,681
49.40160,0.05950,-0.12495,0.00000,0.03111,0.97502,-0.18690,0.0,2023,6,7,17,21,58,692
49.40170,0.02450,-0.00245,0.00000,0.03062,0.97881,-0.18971,0.0,2023,6,7,17,21,58,703
49.40180,-0.15050,0.22505,0.00000,0.03172,0.97515,-0.18995,0.0,2023,6,7,17,21,58,714
49.40190,-0.02800,0.01505,0.00000,0.03026,0.97783,-0.18703,0.0,2023,6,7,17,21,58,725
49.40200,0.14700,-0.21245,0.00000,0.03245,0.97942,-0.18788,0.0,2023,6,7,17,21,58,736
49.40210,0.23450,-0.00245,0.00000,0.03135,0.97600,-0.18837,0.0,2023,6,7,17,21,58,747
49.40220,-0.04550,0.06755,0.00000,0.03233,0.97490,-0.18922,0.0,2023,6,7,17,21,58,758
49.40230,0.02450,-0.03745,0.00000,0.03135,0.97612,-0.19142,0.0,2023,6,7,17,21,58,769
49.40240,0.05950,-0.03745,0.00000,0.03099,0.97734,-0.19056,0.0,2023,6,7,17,21,58,780
49.40250,0.12950,-0.00245,0.00000,0.03099,0.97624,-0.19056,0.0,2023,6,7,17,21,58,791
49.40260,-0.04550,0.13755,0.00000,0.03123,0.97759,-0.18898,0.0,2023,6,7,17,21,58,802
49.40270,-0.09800,-0.00245,0.00000,0.03355,0.97685,-0.18922,0.0,2023,6,7,17,21,58,813
49.40280,0.02450,-0.07245,0.00000,0.02928,0.97551,-0.18776,0.0,2023,6,7,17,21,58,824
49.40290,-0.02800,-0.12495,0.00000,0.03062,0.97673,-0.18825,0.0,2023,6,7,17,21,58,835
49.40300,-0.04550,0.31255,0.00000,0.03123,0.97734,-0.18910,0.0,2023,6,7,17,21,58,846
49.40310,0.25200,-0.01995,0.00000,0.03196,0.97551,-0.19020,0.0,2023,6,7,17,21,58,857
49.40320,-0.15050,-0.05495,0.00000,0.03074,0.97661,-0.18922,0.0,2023,6,7,17,21,58,868
49.40330,0.02450,0.06755,0.00000,0.03294,0.97844,-0.18910,0.0,2023,6,7,17,21,58,879
49.40340,-0.09800,-0.08995,0.00000,0.03062,0.97563,-0.19032,0.0,2023,6,7,17,21,58,890
49.40350,-0.13300,0.10255,0.00000,0.03257,0.97417,-0.18703,0.0,2023,6,7,17,21,58,901
49.40360,-0.04550,-0.05495,0.00000,0.03074,0.97759,-0.18703,0.0,2023,6,7,17,21,58,912
49.40370,0.00700,0.06755,0.00000,0.03392,0.97515,-0.19044,0.0,2023,6,7,17,21,58,923
49.40380,-0.01050,0.05005,0.00000,0.03257,0.97710,-0.18837,0.0,2023,6,7,17,21,59,934
49.40390,0.05950,-0.00245,0.00000,0.03062,0.97563,-0.18922,0.0,2023,6,7,17,21,59,945
49.40400,0.11200,-0.08995,0.00000,0.03013,0.97356,-0.18849,0.0,2023,6,7,17,21,59,956
49.40410,-0.15050,0.08505,0.00000,0.03270,0.97624,-0.18727,0.0,2023,6,7,17,21,59,967
49.40420,0.12950,0.12005,0.00000,0.03160,0.97746,-0.18861,0.0,2023,6,7,17,21,59,978
49.40430,-0.02800,-0.03745,0.00000,0.03123,0.97710,-0.18898,0.0,2023,6,7,17,21,59,989
49.40440,-0.27300,-0.00245,0.00000,0.03038,0.97490,-0.18947,0.0,2023,6,7,17,21,59,0
49.40450,0.05950,-0.08995,0.00000,0.03074,0.97649,-0.18764,0.0,2023,6,7,17,21,59,11
49.40460,0.00700,-0.03745,0.00000,0.03050,0.97722,-0.18934,0.0,2023,6,7,17,21,59,22
49.40470,-0.08050,0.01505,0.00000,0.02977,0.97734,-0.18873,0.0,2023,6,7,17,21,59,33
49.40480,0.04200,0.17255,0.00000,0.03111,0.97856,-0.18947,0.0,2023,6,7,17,21,59,44
49.40490,-0.04550,0.15505,0.00000,0.03306,0.97685,-0.18971,0.0,2023,6,7,17,21,59,55
49.40500,-0.15050,0.03255,0.00000,0.02977,0.97490,-0.19008,0.0,2023,6,7,17,21,59,66
49.40510,0.04200,0.01505,0.00000,0.03135,0.97917,-0.18922,0.0,2023,6,7,17,21,59,77
49.40520,0.14700,-0.03745,0.00000,0.03233,0.97685,-0.18873,0.0,2023,6,7,17,21,59,88
49.40530,0.09450,0.10255,0.00000,0.03294,0.97588,-0.19130,0.0,2023,6,7,17,21,59,99
49.40540,0.05950,0.06755,0.00000,0.03160,0.97649,-0.18800,0.0,2023,6,7,17,21,59,110
49.40550,0.02450,0.12005,0.00000,0.02952,0.97917,-0.18886,0.0,2023,6,7,17,21,59,121
49.40560,0.04200,0.10255,0.00000,0.03160,0.97551,-0.18739,0.0,2023,6,7,17,21,59,132
49.40570,-0.08050,-0.03745,0.00000,0.03148,0.97527,-0.18861,0.0,2023,6,7,17,21,59,143
49.40580,-0.06300,-0.00245,0.00000,0.03282,0.97807,-0.18898,0.0,2023,6,7,17,21,59,154
49.40590,0.07700,0.05005,0.00000,0.03099,0.97795,-0.19008,0.0,2023,6,7,17,21,59,165
49.40600,-0.32550,0.13755,0.00000,0.03099,0.97783,-0.18764,0.0,2023,6,7,17,21,59,176
49.40610,-0.08050,0.01505,0.00000,0.03270,0.97490,-0.18800,0.0,2023,6,7,17,21,59,187
49.40620,0.09450,-0.03745,0.00000,0.03050,0.97661,-0.18922,0.0,2023,6,7,17,21,59,198
49.40630,0.00700,-0.01995,0.00000,0.03184,0.97746,-0.18642,0.0,2023,6,7,17,21,59,209
49.40640,0.26950,-0.10745,0.00000,0.02952,0.97563,-0.18690,0.0,2023,6,7,17,21,59,220
49.40650,0.02450,-0.15995,0.00000,0.03111,0.97929,-0.19044,0.0,2023,6,7,17,21,59,231
49.40660,0.09450,-0.00245,0.00000,0.03282,0.97441,-0.18934,0.0,2023,6,7,17,21,59,242
49.40670,-0.09800,0.08505,0.00000,0.03135,0.97551,-0.18886,0.0,2023,6,7,17,21,59,253
49.40680,-0.04550,0.08505,0.00000,0.03123,0.97856,-0.19020,0.0,2023,6,7,17,21,59,264
49.40690,-0.02800,-0.10745,0.00000,0.03135,0.97441,-0.18861,0.0,2023,6,7,17,21,59,275
49.40700,0.07700,-0.03745,0.00000,0.03294,0.97759,-0.19093,0.0,2023,6,7,17,21,59,286
49.40710,0.18200,0.05005,0.00000,0.03209,0.97661,-0.18849,0.0,2023,6,7,17,21,59,297
49.40720,0.04200,-0.00245,0.00000,0.03257,0.97600,-0.18861,0.0,2023,6,7,17,21,59,308
49.40730,-0.04550,0.12005,0.00000,0.03026,0.97734,-0.19069,0.0,2023,6,7,17,21,59,319
49.40740,-0.01050,-0.15995,0.00000,0.02879,0.97649,-0.18812,0.0,2023,6,7,17,21,59,330
49.40750,-0.04550,0.08505,0.00000,0.02989,0.97637,-0.18812,0.0,2023,6,7,17,21,59,341
49.40760,0.09450,-0.15995,0.00000,0.03160,0.97551,-0.18886,0.0,2023,6,7,17,21,59,352
49.40770,0.05950,0.10255,0.00000,0.03172,0.97673,-0.19032,0.0,2023,6,7,17,21,59,363
49.40780,0.09450,-0.12495,0.00000,0.03087,0.97551,-0.19227,0.0,2023,6,7,17,21,59,374
49.40790,0.12950,0.06755,0.00000,0.03062,0.97795,-0.19044,0.0,2023,6,7,17,21,59,385
49.40800,-0.15050,-0.10745,0.00000,0.03209,0.97685,-0.19032,0.0,2023,6,7,17,21,59,396
49.40810,0.04200,0.03255,0.00000,0.03099,0.97624,-0.18959,0.0,2023,6,7,17,21,59,407
49.40820,-0.01050,-0.24745,0.00000,0.03209,0.97649,-0.19081,0.0,2023,6,7,17,21,59,418
49.40830,-0.06300,-0.01995,0.00000,0.03257,0.97734,-0.18788,0.0,2023,6,7,17,21,59,429
49.40840,-0.06300,0.01505,0.00000,0.03013,0.97588,-0.18934,0.0,2023,6,7,17,21,59,440
49.40850,-0.11550,0.01505,0.00000,0.03221,0.97624,-0.19142,0.0,2023,6,7,17,21,59,451
49.40860,0.12950,-0.08995,0.00000,0.03062,0.97710,-0.19056,0.0,2023,6,7,17,21,59,462
49.40870,0.00700,-0.12495,0.00000,0.03270,0.97527,-0.18910,0.0,2023,6,7,17,21,59,473
49.40880,-0.04550,-0.07245,0.00000,0.03184,0.97868,-0.19069,0.0,2023,6,7,17,21,59,484
49.40890,0.04200,-0.05495,0.00000,0.03184,0.97551,-0.18861,0.0,2023,6,7,17,21,59,495
49.40900,0.04200,-0.00245,0.00000,0.03257,0.97466,-0.18873,0.0,2023,6,7,17,21,59,506
49.40910,-0.04550,0.01505,0.00000,0.03148,0.97612,-0.18776,0.0,2023,6,7,17,21,59,517
49.40920,0.02450,0.22505,0.00000,0.03013,0.97746,-0.19093,0.0,2023,6,7,17,21,59,528
49.40930,0.05950,-0.24745,0.00000,0.03196,0.97612,-0.18886,0.0,2023,6,7,17,21,59,539
49.40940,0.18200,0.12005,0.00000,0.03294,0.97734,-0.18617,0.0,2023,6,7,17,21,59,550
49.40950,-0.06300,-0.12495,0.00000,0.03184,0.97832,-0.18886,0.0,2023,6,7,17,21,59,561
49.40960,-0.16800,0.10255,0.00000,0.03379,0.97868,-0.18776,0.0,2023,6,7,17,21,59,572
49.40970,0.35700,-0.33495,0.00000,0.03148,0.97612,-0.18910,0.0,2023,6,7,17,21,59,583
49.40980,-0.01050,-0.17745,0.00000,0.03050,0.97563,-0.18959,0.0,2023,6,7,17,21,59,594
49.40990,-0.04550,0.13755,0.00000,0.03160,0.97551,-0.19142,0.0,2023,6,7,17,21,59,605
49.41000,-0.18550,0.17255,0.00000,0.03160,0.97624,-0.18959,0.0,2023,6,7,17,21,59,616
49.41010,0.14700,0.06755,0.00000,0.03074,0.97856,-0.19020,0.0,2023,6,7,17,21,59,627
49.41020,0.00700,-0.05495,0.00000,0.03184,0.97515,-0.18983,0.0,2023,6,7,17,21,59,638
49.41030,-0.09800,0.03255,0.00000,0.03257,0.97441,-0.18910,0.0,2023,6,7,17,21,59,649
49.41040,-0.09800,-0.00245,0.00000,0.02952,0.97844,-0.19178,0.0,2023,6,7,17,21,59,660
49.41050,-0.09800,0.17255,0.00000,0.03148,0.97576,-0.18898,0.0,2023,6,7,17,21,59,671
49.41060,0.16450,0.10255,0.00000,0.03257,0.97637,-0.18947,0.0,2023,6,7,17,21,59,682
49.41070,-0.04550,-0.28245,0.00000,0.03196,0.97893,-0.19032,0.0,2023,6,7,17,21,59,693
49.41080,-0.06300,-0.10745,0.00000,0.03062,0.97661,-0.18995,0.0,2023,6,7,17,21,59,704
49.41090,-0.06300,-0.07245,0.00000,0.03013,0.97661,-0.18788,0.0,2023,6,7,17,21,59,715
49.41100,-0.25550,-0.01995,0.00000,0.03221,0.97868,-0.19105,0.0,2023,6,7,17,21,59,726
49.41110,0.07700,0.01505,0.00000,0.03050,0.97624,-0.19056,0.0,2023,6,7,17,21,59,737
49.41120,-0.09800,0.03255,0.00000,0.03221,0.97820,-0.18751,0.0,2023,6,7,17,21,59,748
49.41130,-0.06300,-0.01995,0.00000,0.03428,0.97502,-0.18812,0.0,2023,6,7,17,21,59,759
49.41140,0.04200,-0.12495,0.00000,0.02965,0.97576,-0.19105,0.0,2023,6,7,17,21,59,770
49.41150,0.09450,-0.01995,0.00000,0.03318,0.97746,-0.18886,0.0,2023,6,7,17,21,59,781
49.41160,-0.04550,0.06755,0.00000,0.03209,0.97515,-0.18556,0.0,2023,6,7,17,21,59,792
49.41170,-0.04550,0.03255,0.00000,0.03123,0.97698,-0.19093,0.0,2023,6,7,17,21,59,803
49.41180,0.00700,0.05005,0.00000,0.03148,0.97600,-0.18703,0.0,2023,6,7,17,21,59,814
49.41190,0.16450,-0.26495,0.00000,0.03087,0.97942,-0.19105,0.0,2023,6,7,17,21,59,825
49.41200,0.02450,0.13755,0.00000,0.03087,0.97624,-0.18751,0.0,2023,6,7,17,21,59,836
49.41210,-0.20300,0.15505,0.00000,0.03062,0.97405,-0.18812,0.0,2023,6,7,17,21,59,847
49.41220,-0.08050,0.03255,0.00000,0.03306,0.97637,-0.18861,0.0,2023,6,7,17,21,59,858
49.41230,-0.08050,0.20755,0.00000,0.03343,0.97612,-0.19008,0.0,2023,6,7,17,21,59,869
49.41240,-0.06300,0.12005,0.00000,0.02965,0.97454,-0.18886,0.0,2023,6,7,17,21,59,880
49.41250,-0.13300,0.03255,0.00000,0.03099,0.97820,-0.18654,0.0,2023,6,7,17,21,59,891
49.41260,-0.04550,0.26005,0.00000,0.03087,0.97490,-0.18715,0.0,2023,6,7,17,21,59,902
49.41270,-0.06300,-0.14245,0.00000,0.02965,0.97515,-0.18739,0.0,2023,6,7,17,21,59,913
49.41280,-0.04550,0.15505,0.00000,0.03355,0.97441,-0.18849,0.0,2023,6,7,17,21,59,924
49.41290,0.00700,0.15505,0.00000,0.03038,0.97832,-0.19081,0.0,2023,6,7,17,21,59,935
49.41300,0.05950,-0.05495,0.00000,0.03196,0.97673,-0.18849,0.0,2023,6,7,17,22,0,946
49.41310,-0.32550,0.12005,0.00000,0.03172,0.97624,-0.18825,0.0,2023,6,7,17,22,0,957
49.41320,-0.13300,-0.00245,0.00000,0.03099,0.97673,-0.19117,0.0,2023,6,7,17,22,0,968
49.41330,0.09450,-0.01995,0.00000,0.03245,0.97600,-0.18751,0.0,2023,6,7,17,22,0,979
49.41340,-0.01050,-0.01995,0.00000,0.03355,0.97490,-0.18727,0.0,2023,6,7,17,22,0,990
49.41350,-0.02800,0.13755,0.00000,0.03172,0.97624,-0.19020,0.0,2023,6,7,17,22,0,1
49.41360,-0.01050,-0.00245,0.00000,0.03233,0.97783,-0.18812,0.0,2023,6,7,17,22,0,12
49.41370,0.09450,0.05005,0.00000,0.03257,0.97624,-0.18703,0.0,2023,6,7,17,22,0,23
49.41380,0.19950,-0.00245,0.00000,0.03050,0.97551,-0.19093,0.0,2023,6,7,17,22,0,34
49.41390,-0.11550,0.08505,0.00000,0.03050,0.97771,-0.18995,0.0,2023,6,7,17,22,0,45
49.41400,-0.06300,0.05005,0.00000,0.03233,0.97588,-0.18507,0.0,2023,6,7,17,22,0,56
49.41410,-0.06300,0.05005,0.00000,0.03184,0.97771,-0.18776,0.0,2023,6,7,17,22,0,67
49.41420,0.09450,0.01505,0.00000,0.03221,0.97563,-0.19056,0.0,2023,6,7,17,22,0,78
49.41430,-0.13300,-0.21245,0.00000,0.03062,0.97515,-0.18690,0.0,2023,6,7,17,22,0,89
49.41440,0.02450,0.08505,0.00000,0.03123,0.97454,-0.18690,0.0,2023,6,7,17,22,0,100
49.41450,0.11200,-0.15995,0.00000,0.03074,0.97844,-0.18971,0.0,2023,6,7,17,22,0,111
49.41460,0.02450,-0.01995,0.00000,0.02891,0.97454,-0.18654,0.0,2023,6,7,17,22,0,122
49.41470,0.11200,-0.03745,0.00000,0.02940,0.97649,-0.18788,0.0,2023,6,7,17,22,0,133
49.41480,0.25200,0.05005,0.00000,0.03074,0.97783,-0.18886,0.0,2023,6,7,17,22,0,144
49.41490,-0.04550,-0.01995,0.00000,0.03026,0.97722,-0.18849,0.0,2023,6,7,17,22,0,155
49.41500,-0.09800,0.17255,0.00000,0.03184,0.97551,-0.18739,0.0,2023,6,7,17,22,0,166
49.41510,0.00700,-0.01995,0.00000,0.03062,0.97771,-0.18800,0.0,2023,6,7,17,22,0,177
49.41520,0.04200,-0.05495,0.00000,0.03062,0.97698,-0.18666,0.0,2023,6,7,17,22,0,188
49.41530,0.12950,-0.10745,0.00000,0.03062,0.97734,-0.18642,0.0,2023,6,7,17,22,0,199
49.41540,-0.08050,0.27755,0.00000,0.02989,0.97649,-0.18776,0.0,2023,6,7,17,22,0,210
49.41550,-0.20300,0.10255,0.00000,0.03038,0.97771,-0.19105,0.0,2023,6,7,17,22,0,221
49.41560,-0.06300,-0.00245,0.00000,0.03160,0.97698,-0.18568,0.0,2023,6,7,17,22,0,232
49.41570,0.16450,-0.08995,0.00000,0.03160,0.97441,-0.18617,0.0,2023,6,7,17,22,0,243
49.41580,0.09450,0.17255,0.00000,0.03099,0.97881,-0.18739,0.0,2023,6,7,17,22,0,254
49.41590,0.07700,0.10255,0.00000,0.02952,0.97771,-0.18849,0.0,2023,6,7,17,22,0,265
49.41600,-0.08050,0.06755,0.00000,0.03355,0.97685,-0.18666,0.0,2023,6,7,17,22,0,276
49.41610,0.07700,-0.21245,0.00000,0.03209,0.97698,-0.18837,0.0,2023,6,7,17,22,0,287
49.41620,0.26950,0.03255,0.00000,0.03038,0.97588,-0.19008,0.0,2023,6,7,17,22,0,298
49.41630,-0.04550,0.10255,0.00000,0.03196,0.97478,-0.18446,0.0,2023,6,7,17,22,0,309
49.41640,-0.09800,-0.08995,0.00000,0.03221,0.97698,-0.18971,0.0,2023,6,7,17,22,0,320
49.41650,0.09450,0.05005,0.00000,0.03111,0.97466,-0.18788,0.0,2023,6,7,17,22,0,331
49.41660,0.11200,-0.12495,0.00000,0.03099,0.97429,-0.18751,0.0,2023,6,7,17,22,0,342
49.41670,-0.09800,-0.03745,0.00000,0.03099,0.97844,-0.18776,0.0,2023,6,7,17,22,0,353
49.41680,-0.06300,0.10255,0.00000,0.03026,0.97515,-0.18934,0.0,2023,6,7,17,22,0,364
49.41690,-0.01050,-0.10745,0.00000,0.03172,0.97600,-0.18886,0.0,2023,6,7,17,22,0,375
49.41700,0.04200,0.12005,0.00000,0.03196,0.97893,-0.18886,0.0,2023,6,7,17,22,0,386
49.41710,0.05950,0.08505,0.00000,0.03050,0.97588,-0.18825,0.0,2023,6,7,17,22,0,397
49.41720,-0.13300,-0.03745,0.00000,0.03172,0.97685,-0.18629,0.0,2023,6,7,17,22,0,408
49.41730,-0.04550,-0.00245,0.00000,0.03270,0.97893,-0.18934,0.0,2023,6,7,17,22,0,419
49.41740,0.00700,0.13755,0.00000,0.03209,0.97917,-0.18678,0.0,2023,6,7,17,22,0,430
49.41750,0.18200,-0.05495,0.00000,0.03172,0.97759,-0.18800,0.0,2023,6,7,17,22,0,441
49.41760,0.09450,-0.07245,0.00000,0.03343,0.97698,-0.18666,0.0,2023,6,7,17,22,0,452
49.41770,-0.11550,-0.05495,0.00000,0.03184,0.97820,-0.18800,0.0,2023,6,7,17,22,0,463
49.41780,-0.22050,0.05005,0.00000,0.03099,0.97380,-0.18654,0.0,2023,6,7,17,22,0,474
49.41790,-0.02800,-0.14245,0.00000,0.03099,0.97576,-0.18678,0.0,2023,6,7,17,22,0,485
49.41800,-0.02800,0.05005,0.00000,0.03331,0.97868,-0.18739,0.0,2023,6,7,17,22,0,496
49.41810,-0.02800,-0.05495,0.00000,0.03233,0.97807,-0.18568,0.0,2023,6,7,17,22,0,507
49.41820,-0.15050,0.08505,0.00000,0.03318,0.97637,-0.18495,0.0,2023,6,7,17,22,0,518
49.41830,0.00700,-0.12495,0.00000,0.03257,0.97405,-0.18666,0.0,2023,6,7,17,22,0,529
49.41840,0.18200,0.06755,0.00000,0.02940,0.97527,-0.18764,0.0,2023,6,7,17,22,0,540
49.41850,0.00700,-0.12495,0.00000,0.03209,0.97710,-0.18861,0.0,2023,6,7,17,22,0,551
49.41860,0.00700,0.03255,0.00000,0.03245,0.97783,-0.18873,0.0,2023,6,7,17,22,0,562
49.41870,0.07700,-0.24745,0.00000,0.03148,0.97722,-0.18995,0.0,2023,6,7,17,22,0,573
49.41880,-0.13300,0.12005,0.00000,0.02977,0.97929,-0.18983,0.0,2023,6,7,17,22,0,584
49.41890,-0.15050,0.12005,0.00000,0.03233,0.97600,-0.18861,0.0,2023,6,7,17,22,0,595
49.41900,-0.08050,-0.07245,0.00000,0.03026,0.97746,-0.18934,0.0,2023,6,7,17,22,0,606
49.41910,-0.06300,0.10255,0.00000,0.03148,0.97612,-0.18800,0.0,2023,6,7,17,22,0,617
49.41920,0.09450,-0.31745,0.00000,0.03123,0.97502,-0.18995,0.0,2023,6,7,17,22,0,628
49.41930,-0.02800,-0.08995,0.00000,0.03001,0.97527,-0.18800,0.0,2023,6,7,17,22,0,639
49.41940,0.00700,0.01505,0.00000,0.03087,0.97771,-0.18837,0.0,2023,6,7,17,22,0,650
49.41950,0.21700,-0.07245,0.00000,0.03184,0.97637,-0.18886,0.0,2023,6,7,17,22,0,661
49.41960,-0.04550,-0.12495,0.00000,0.03270,0.97649,-0.18642,0.0,2023,6,7,17,22,0,672
49.41970,-0.13300,0.06755,0.00000,0.03135,0.97637,-0.18995,0.0,2023,6,7,17,22,0,683
49.41980,-0.22050,-0.15995,0.00000,0.03221,0.97917,-0.18739,0.0,2023,6,7,17,22,0,694
49.41990,-0.04550,0.05005,0.00000,0.03233,0.97624,-0.18812,0.0,2023,6,7,17,22,0,705
49.42000,-0.02800,-0.01995,0.00000,0.03294,0.97417,-0.18703,0.0,2023,6,7,17,22,0,716
49.42010,-0.16800,0.05005,0.00000,0.03172,0.97380,-0.18690,0.0,2023,6,7,17,22,0,727
49.42020,-0.16800,-0.21245,0.00000,0.03428,0.97454,-0.18642,0.0,2023,6,7,17,22,0,738
49.42030,-0.13300,-0.15995,0.00000,0.03184,0.97795,-0.18776,0.0,2023,6,7,17,22,0,749
49.42040,0.00700,0.05005,0.00000,0.02928,0.97527,-0.18861,0.0,2023,6,7,17,22,0,760
49.42050,-0.01050,-0.03745,0.00000,0.03245,0.97795,-0.18617,0.0,2023,6,7,17,22,0,771
49.42060,-0.13300,-0.07245,0.00000,0.03148,0.97637,-0.18849,0.0,2023,6,7,17,22,0,782
49.42070,0.07700,-0.15995,0.00000,0.03050,0.97795,-0.18739,0.0,2023,6,7,17,22,0,793
49.42080,-0.09800,-0.03745,0.00000,0.03294,0.97502,-0.18861,0.0,2023,6,7,17,22,0,804
49.42090,0.02450,-0.00245,0.00000,0.03379,0.97515,-0.18739,0.0,2023,6,7,17,22,0,815
49.42100,0.00700,0.05005,0.00000,0.03367,0.97612,-0.18934,0.0,2023,6,7,17,22,0,826
49.42110,-0.02800,0.10255,0.00000,0.03123,0.97771,-0.18715,0.0,2023,6,7,17,22,0,837
49.42120,-0.06300,0.27755,0.00000,0.03257,0.97807,-0.18666,0.0,2023,6,7,17,22,0,848
49.42130,-0.01050,0.06755,0.00000,0.03074,0.97759,-0.18886,0.0,2023,6,7,17,22,0,859
49.42140,-0.01050,0.10255,0.00000,0.03050,0.97515,-0.18739,0.0,2023,6,7,17,22,0,870
49.42150,-0.13300,0.12005,0.00000,0.03196,0.97698,-0.18703,0.0,2023,6,7,17,22,0,881
49.42160,0.07700,-0.10745,0.00000,0.03111,0.97746,-0.18605,0.0,2023,6,7,17,22,0,892
49.42170,0.07700,-0.03745,0.00000,0.03233,0.97856,-0.18947,0.0,2023,6,7,17,22,0,903
49.42180,-0.04550,0.15505,0.00000,0.02952,0.97759,-0.18898,0.0,2023,6,7,17,22,0,914
49.42190,-0.22050,0.12005,0.00000,0.03379,0.97820,-0.18776,0.0,2023,6,7,17,22,1,925
49.42200,-0.11550,-0.12495,0.00000,0.03282,0.97661,-0.18690,0.0,2023,6,7,17,22,1,936
49.42210,0.18200,-0.05495,0.00000,0.03172,0.97710,-0.19215,0.0,2023,6,7,17,22,1,947
49.42220,0.02450,-0.10745,0.00000,0.03209,0.97917,-0.18593,0.0,2023,6,7,17,22,1,958
49.42230,-0.09800,-0.03745,0.00000,0.03135,0.97795,-0.18837,0.0,2023,6,7,17,22,1,969
49.42240,-0.02800,-0.05495,0.00000,0.03160,0.97551,-0.18873,0.0,2023,6,7,17,22,1,980
49.42250,-0.02800,0.20755,0.00000,0.03074,0.97673,-0.18800,0.0,2023,6,7,17,22,1,991
49.42260,-0.06300,-0.05495,0.00000,0.03270,0.97990,-0.18825,0.0,2023,6,7,17,22,1,2
49.42270,0.16450,-0.19495,0.00000,0.03221,0.97600,-0.18715,0.0,2023,6,7,17,22,1,13
49.42280,-0.11550,0.08505,0.00000,0.03282,0.97429,-0.18544,0.0,2023,6,7,17,22,1,24
49.42290,0.05950,-0.14245,0.00000,0.03038,0.97600,-0.18788,0.0,2023,6,7,17,22,1,35
49.42300,-0.08050,-0.00245,0.00000,0.03282,0.97551,-0.18751,0.0,2023,6,7,17,22,1,46
49.42310,-0.11550,0.06755,0.00000,0.03160,0.97405,-0.19032,0.0,2023,6,7,17,22,1,57
49.42320,0.00700,0.06755,0.00000,0.03013,0.97783,-0.18776,0.0,2023,6,7,17,22,1,68
49.42330,0.04200,-0.17745,0.00000,0.03196,0.97820,-0.18764,0.0,2023,6,7,17,22,1,79
49.42340,0.19950,-0.08995,0.00000,0.03343,0.97576,-0.18812,0.0,2023,6,7,17,22,1,90
49.42350,0.12950,0.12005,0.00000,0.03099,0.97539,-0.18922,0.0,2023,6,7,17,22,1,101
49.42360,0.04200,0.19005,0.00000,0.03184,0.97685,-0.18886,0.0,2023,6,7,17,22,1,112
49.42370,0.05950,0.08505,0.00000,0.03038,0.97759,-0.18678,0.0,2023,6,7,17,22,1,123
49.42380,0.00700,-0.10745,0.00000,0.03184,0.97576,-0.18934,0.0,2023,6,7,17,22,1,134
49.42390,0.04200,0.06755,0.00000,0.02904,0.97673,-0.19081,0.0,2023,6,7,17,22,1,145
49.42400,0.00700,0.12005,0.00000,0.03135,0.97490,-0.18849,0.0,2023,6,7,17,22,1,156
49.42410,-0.08050,0.01505,0.00000,0.03123,0.97673,-0.18727,0.0,2023,6,7,17,22,1,167
49.42420,-0.15050,0.13755,0.00000,0.03148,0.97515,-0.18947,0.0,2023,6,7,17,22,1,178
49.42430,0.04200,-0.01995,0.00000,0.03111,0.97612,-0.19020,0.0,2023,6,7,17,22,1,189
49.42440,-0.06300,0.10255,0.00000,0.03172,0.97612,-0.19093,0.0,2023,6,7,17,22,1,200
49.42450,-0.01050,-0.03745,0.00000,0.03001,0.98015,-0.18837,0.0,2023,6,7,17,22,1,211
49.42460,0.02450,0.10255,0.00000,0.03135,0.97734,-0.18959,0.0,2023,6,7,17,22,1,222
49.42470,0.14700,-0.10745,0.00000,0.03050,0.98088,-0.18910,0.0,2023,6,7,17,22,1,233
49.42480,-0.11550,0.10255,0.00000,0.03160,0.97466,-0.18654,0.0,2023,6,7,17,22,1,244
49.42490,-0.08050,0.27755,0.00000,0.03026,0.97576,-0.18739,0.0,2023,6,7,17,22,1,255
49.42500,-0.08050,0.13755,0.00000,0.03062,0.97515,-0.19056,0.0,2023,6,7,17,22,1,266
49.42510,0.09450,0.10255,0.00000,0.03087,0.97759,-0.19069,0.0,2023,6,7,17,22,1,277
49.42520,-0.08050,-0.05495,0.00000,0.02928,0.97832,-0.19178,0.0,2023,6,7,17,22,1,288
49.42530,-0.15050,-0.07245,0.00000,0.03050,0.97673,-0.18825,0.0,2023,6,7,17,22,1,299
49.42540,0.09450,-0.05495,0.00000,0.03148,0.97576,-0.18959,0.0,2023,6,7,17,22,1,310
49.42550,-0.23800,0.19005,0.00000,0.03013,0.97710,-0.18971,0.0,2023,6,7,17,22,1,321
49.42560,0.12950,-0.17745,0.00000,0.03160,0.97515,-0.18861,0.0,2023,6,7,17,22,1,332
49.42570,-0.20300,-0.00245,0.00000,0.02989,0.97600,-0.18898,0.0,2023,6,7,17,22,1,343
49.42580,0.18200,0.01505,0.00000,0.03111,0.97600,-0.19032,0.0,2023,6,7,17,22,1,354
49.42590,0.09450,-0.08995,0.00000,0.03062,0.97551,-0.19081,0.0,2023,6,7,17,22,1,365
49.42600,-0.01050,-0.00245,0.00000,0.03099,0.97710,-0.18971,0.0,2023,6,7,17,22,1,376
49.42610,-0.02800,-0.01995,0.00000,0.03062,0.97563,-0.18886,0.0,2023,6,7,17,22,1,387
49.42620,0.07700,0.17255,0.00000,0.03013,0.97539,-0.19081,0.0,2023,6,7,17,22,1,398
49.42630,0.00700,-0.14245,0.00000,0.03233,0.97563,-0.18849,0.0,2023,6,7,17,22,1,409
49.42640,-0.22050,0.10255,0.00000,0.03196,0.97710,-0.18995,0.0,2023,6,7,17,22,1,420
49.42650,-0.01050,0.01505,0.00000,0.03331,0.97649,-0.18849,0.0,2023,6,7,17,22,1,431
49.42660,0.07700,0.12005,0.00000,0.03282,0.97576,-0.18764,0.0,2023,6,7,17,22,1,442
49.42670,-0.18550,-0.12495,0.00000,0.03135,0.97783,-0.18739,0.0,2023,6,7,17,22,1,453
49.42680,-0.16800,0.20755,0.00000,0.03270,0.97612,-0.18812,0.0,2023,6,7,17,22,1,464
49.42690,-0.09800,0.13755,0.00000,0.03099,0.97588,-0.18873,0.0,2023,6,7,17,22,1,475
49.42700,-0.09800,-0.05495,0.00000,0.03221,0.97820,-0.18703,0.0,2023,6,7,17,22,1,486
49.42710,0.02450,-0.03745,0.00000,0.03135,0.97551,-0.18959,0.0,2023,6,7,17,22,1,497
49.42720,-0.11550,-0.08995,0.00000,0.03135,0.97673,-0.18642,0.0,2023,6,7,17,22,1,508
49.42730,-0.01050,0.10255,0.00000,0.03282,0.97637,-0.18788,0.0,2023,6,7,17,22,1,519
49.42740,-0.08050,-0.07245,0.00000,0.03038,0.97759,-0.18934,0.0,2023,6,7,17,22,1,530
49.42750,-0.04550,0.06755,0.00000,0.03013,0.97539,-0.18788,0.0,2023,6,7,17,22,1,541
49.42760,0.09450,-0.07245,0.00000,0.03294,0.97832,-0.18825,0.0,2023,6,7,17,22,1,552
49.42770,0.11200,-0.19495,0.00000,0.03038,0.97441,-0.19105,0.0,2023,6,7,17,22,1,563
49.42780,0.04200,0.01505,0.00000,0.03087,0.97637,-0.19044,0.0,2023,6,7,17,22,1,574
49.42790,0.05950,0.01505,0.00000,0.03209,0.97502,-0.19008,0.0,2023,6,7,17,22,1,585
49.42800,0.09450,-0.12495,0.00000,0.02916,0.97710,-0.19032,0.0,2023,6,7,17,22,1,596
49.42810,0.18200,0.10255,0.00000,0.03245,0.97637,-0.18800,0.0,2023,6,7,17,22,1,607
49.42820,-0.02800,0.20755,0.00000,0.03013,0.97527,-0.19154,0.0,2023,6,7,17,22,1,618
49.42830,-0.04550,0.06755,0.00000,0.03050,0.97624,-0.18934,0.0,2023,6,7,17,22,1,629
49.42840,-0.02800,-0.12495,0.00000,0.03282,0.97722,-0.18922,0.0,2023,6,7,17,22,1,640
49.42850,0.14700,0.03255,0.00000,0.03172,0.97746,-0.18922,0.0,2023,6,7,17,22,1,651
49.42860,0.12950,-0.24745,0.00000,0.03099,0.97673,-0.18739,0.0,2023,6,7,17,22,1,662
49.42870,-0.09800,0.22505,0.00000,0.03050,0.97576,-0.18898,0.0,2023,6,7,17,22,1,673
49.42880,-0.15050,0.08505,0.00000,0.03282,0.97698,-0.18898,0.0,2023,6,7,17,22,1,684
49.42890,-0.02800,-0.07245,0.00000,0.03294,0.97515,-0.18568,0.0,2023,6,7,17,22,1,695
49.42900,-0.09800,-0.03745,0.00000,0.02806,0.97600,-0.19142,0.0,2023,6,7,17,22,1,706
49.42910,-0.08050,0.12005,0.00000,0.03221,0.97588,-0.18971,0.0,2023,6,7,17,22,1,717
49.42920,-0.08050,-0.03745,0.00000,0.03074,0.97637,-0.19020,0.0,2023,6,7,17,22,1,728
49.42930,-0.11550,0.20755,0.00000,0.03148,0.97673,-0.18922,0.0,2023,6,7,17,22,1,739
49.42940,0.14700,0.03255,0.00000,0.03196,0.97576,-0.18983,0.0,2023,6,7,17,22,1,750
49.42950,0.04200,0.20755,0.00000,0.03135,0.97698,-0.19130,0.0,2023,6,7,17,22,1,761
49.42960,0.09450,-0.00245,0.00000,0.03233,0.97612,-0.18922,0.0,2023,6,7,17,22,1,772
49.42970,-0.01050,-0.10745,0.00000,0.03099,0.97661,-0.18800,0.0,2023,6,7,17,22,1,783
49.42980,-0.08050,-0.12495,0.00000,0.03050,0.97844,-0.18703,0.0,2023,6,7,17,22,1,794
49.42990,-0.02800,0.03255,0.00000,0.03245,0.97637,-0.18861,0.0,2023,6,7,17,22,1,805
49.43000,0.05950,0.12005,0.00000,0.03074,0.97795,-0.18947,0.0,2023,6,7,17,22,1,816
49.43010,0.07700,0.12005,0.00000,0.03062,0.97685,-0.18739,0.0,2023,6,7,17,22,1,827
49.43020,0.16450,-0.01995,0.00000,0.03306,0.97515,-0.18617,0.0,2023,6,7,17,22,1,838
49.43030,0.04200,-0.01995,0.00000,0.03013,0.97820,-0.18849,0.0,2023,6,7,17,22,1,849
49.43040,0.18200,0.17255,0.00000,0.03282,0.97673,-0.18995,0.0,2023,6,7,17,22,1,860
49.43050,-0.25550,0.10255,0.00000,0.03087,0.97649,-0.19154,0.0,2023,6,7,17,22,1,871
49.43060,-0.01050,0.19005,0.00000,0.03038,0.97429,-0.19032,0.0,2023,6,7,17,22,1,882
49.43070,0.07700,0.01505,0.00000,0.03270,0.97673,-0.18837,0.0,2023,6,7,17,22,1,893
49.43080,-0.01050,-0.03745,0.00000,0.03123,0.97746,-0.18873,0.0,2023,6,7,17,22,1,904
49.43090,0.07700,0.03255,0.00000,0.03062,0.97807,-0.18886,0.0,2023,6,7,17,22,2,915
49.43100,0.16450,-0.08995,0.00000,0.03148,0.97698,-0.18983,0.0,2023,6,7,17,22,2,926
49.43110,-0.11550,0.10255,0.00000,0.03087,0.97612,-0.18886,0.0,2023,6,7,17,22,2,937
49.43120,-0.06300,0.01505,0.00000,0.03148,0.97649,-0.18837,0.0,2023,6,7,17,22,2,948
49.43130,-0.01050,0.12005,0.00000,0.03306,0.97771,-0.18886,0.0,2023,6,7,17,22,2,959
49.43140,0.00700,-0.07245,0.00000,0.03172,0.97539,-0.19117,0.0,2023,6,7,17,22,2,970
49.43150,-0.13300,0.20755,0.00000,0.03282,0.97868,-0.18910,0.0,2023,6,7,17,22,2,981
49.43160,-0.11550,0.05005,0.00000,0.03379,0.97832,-0.18690,0.0,2023,6,7,17,22,2,992
49.43170,-0.11550,-0.00245,0.00000,0.02977,0.97710,-0.18971,0.0,2023,6,7,17,22,2,3
49.43180,-0.09800,0.03255,0.00000,0.03087,0.97588,-0.18995,0.0,2023,6,7,17,22,2,14
49.43190,-0.04550,-0.01995,0.00000,0.03184,0.97612,-0.18764,0.0,2023,6,7,17,22,2,25
49.43200,0.02450,0.06755,0.00000,0.03196,0.97734,-0.18861,0.0,2023,6,7,17,22,2,36
49.43210,-0.02800,0.08505,0.00000,0.03184,0.97539,-0.18922,0.0,2023,6,7,17,22,2,47
49.43220,0.00700,-0.08995,0.00000,0.03184,0.97588,-0.19020,0.0,2023,6,7,17,22,2,58
49.43230,-0.04550,-0.12495,0.00000,0.03111,0.97563,-0.19020,0.0,2023,6,7,17,22,2,69
49.43240,-0.20300,-0.07245,0.00000,0.03270,0.97576,-0.18861,0.0,2023,6,7,17,22,2,80
49.43250,0.12950,-0.19495,0.00000,0.03318,0.97649,-0.19069,0.0,2023,6,7,17,22,2,91
49.43260,0.12950,-0.01995,0.00000,0.03196,0.97685,-0.18849,0.0,2023,6,7,17,22,2,102
49.43270,0.18200,-0.05495,0.00000,0.03135,0.97746,-0.19056,0.0,2023,6,7,17,22,2,113
49.43280,0.12950,0.06755,0.00000,0.03257,0.97661,-0.18690,0.0,2023,6,7,17,22,2,124
49.43290,-0.22050,-0.12495,0.00000,0.03209,0.97637,-0.18776,0.0,2023,6,7,17,22,2,135
49.43300,-0.09800,-0.01995,0.00000,0.03111,0.97624,-0.19020,0.0,2023,6,7,17,22,2,146
49.43310,-0.08050,0.01505,0.00000,0.03245,0.97710,-0.18666,0.0,2023,6,7,17,22,2,157
49.43320,0.04200,-0.03745,0.00000,0.03233,0.97759,-0.18873,0.0,2023,6,7,17,22,2,168
49.43330,-0.13300,-0.24745,0.00000,0.03160,0.97576,-0.18776,0.0,2023,6,7,17,22,2,179
49.43340,0.00700,-0.07245,0.00000,0.03026,0.97624,-0.19020,0.0,2023,6,7,17,22,2,190
49.43350,0.00700,-0.12495,0.00000,0.02916,0.97612,-0.19081,0.0,2023,6,7,17,22,2,201
49.43360,0.02450,-0.07245,0.00000,0.02952,0.97649,-0.19008,0.0,2023,6,7,17,22,2,212
49.43370,-0.01050,0.01505,0.00000,0.03148,0.97685,-0.18971,0.0,2023,6,7,17,22,2,223
49.43380,-0.15050,0.19005,0.00000,0.03123,0.97685,-0.18739,0.0,2023,6,7,17,22,2,234
49.43390,-0.02800,0.10255,0.00000,0.03135,0.97807,-0.18934,0.0,2023,6,7,17,22,2,245
49.43400,-0.09800,-0.01995,0.00000,0.03038,0.97722,-0.18642,0.0,2023,6,7,17,22,2,256
49.43410,-0.06300,0.05005,0.00000,0.03087,0.97490,-0.19081,0.0,2023,6,7,17,22,2,267
49.43420,0.07700,-0.14245,0.00000,0.03221,0.97515,-0.18837,0.0,2023,6,7,17,22,2,278
49.43430,-0.18550,0.10255,0.00000,0.03343,0.97649,-0.18837,0.0,2023,6,7,17,22,2,289
49.43440,-0.08050,0.03255,0.00000,0.03013,0.97698,-0.18800,0.0,2023,6,7,17,22,2,300
49.43450,0.11200,0.06755,0.00000,0.02989,0.97685,-0.18764,0.0,2023,6,7,17,22,2,311
49.43460,0.02450,0.05005,0.00000,0.03221,0.97710,-0.19081,0.0,2023,6,7,17,22,2,322
49.43470,0.09450,-0.00245,0.00000,0.03001,0.97563,-0.18947,0.0,2023,6,7,17,22,2,333
49.43480,0.07700,-0.05495,0.00000,0.03245,0.97771,-0.18703,0.0,2023,6,7,17,22,2,344
49.43490,0.12950,0.05005,0.00000,0.03294,0.97929,-0.18690,0.0,2023,6,7,17,22,2,355
49.43500,-0.04550,0.08505,0.00000,0.03270,0.97624,-0.18764,0.0,2023,6,7,17,22,2,366
49.43510,-0.04550,-0.05495,0.00000,0.03111,0.97527,-0.18751,0.0,2023,6,7,17,22,2,377
49.43520,-0.02800,0.24255,0.00000,0.03148,0.97661,-0.18825,0.0,2023,6,7,17,22,2,388
49.43530,-0.01050,0.01505,0.00000,0.03135,0.97771,-0.18898,0.0,2023,6,7,17,22,2,399
49.43540,-0.13300,-0.10745,0.00000,0.03160,0.97771,-0.18507,0.0,2023,6,7,17,22,2,410
49.43550,0.07700,-0.01995,0.00000,0.03087,0.97649,-0.18764,0.0,2023,6,7,17,22,2,421
49.43560,0.02450,-0.21245,0.00000,0.03062,0.97551,-0.18825,0.0,2023,6,7,17,22,2,432
49.43570,0.02450,-0.08995,0.00000,0.03196,0.97563,-0.18947,0.0,2023,6,7,17,22,2,443
49.43580,-0.08050,-0.07245,0.00000,0.03270,0.97502,-0.18715,0.0,2023,6,7,17,22,2,454
49.43590,0.00700,-0.08995,0.00000,0.03282,0.97795,-0.18666,0.0,2023,6,7,17,22,2,465
49.43600,-0.02800,0.08505,0.00000,0.03196,0.97783,-0.18898,0.0,2023,6,7,17,22,2,476
49.43610,-0.02800,0.01505,0.00000,0.03013,0.97759,-0.18825,0.0,2023,6,7,17,22,2,487
49.43620,-0.20300,0.27755,0.00000,0.02977,0.97661,-0.18715,0.0,2023,6,7,17,22,2,498
49.43630,-0.06300,-0.03745,0.00000,0.03367,0.97820,-0.18861,0.0,2023,6,7,17,22,2,509
49.43640,0.11200,-0.03745,0.00000,0.03416,0.97551,-0.18788,0.0,2023,6,7,17,22,2,520
49.43650,-0.06300,0.01505,0.00000,0.03087,0.97661,-0.18520,0.0,2023,6,7,17,22,2,531
49.43660,0.04200,-0.03745,0.00000,0.02965,0.97551,-0.19081,0.0,2023,6,7,17,22,2,542
49.43670,0.05950,-0.08995,0.00000,0.02952,0.97612,-0.18947,0.0,2023,6,7,17,22,2,553
49.43680,0.00700,0.12005,0.00000,0.03257,0.97624,-0.18776,0.0,2023,6,7,17,22,2,564
49.43690,-0.06300,-0.03745,0.00000,0.03111,0.97771,-0.18800,0.0,2023,6,7,17,22,2,575
49.43700,-0.08050,0.01505,0.00000,0.03184,0.97588,-0.18947,0.0,2023,6,7,17,22,2,586
49.43710,-0.01050,-0.22995,0.00000,0.03111,0.97795,-0.18898,0.0,2023,6,7,17,22,2,597
49.43720,0.05950,-0.10745,0.00000,0.02989,0.97502,-0.18715,0.0,2023,6,7,17,22,2,608
49.43730,0.07700,-0.03745,0.00000,0.03087,0.97771,-0.18690,0.0,2023,6,7,17,22,2,619
49.43740,0.12950,0.01505,0.00000,0.03184,0.97637,-0.18739,0.0,2023,6,7,17,22,2,630
49.43750,0.02450,-0.05495,0.00000,0.03245,0.97454,-0.18934,0.0,2023,6,7,17,22,2,641
49.43760,-0.09800,0.03255,0.00000,0.02928,0.97698,-0.18861,0.0,2023,6,7,17,22,2,652
49.43770,-0.09800,-0.14245,0.00000,0.03123,0.97759,-0.18861,0.0,2023,6,7,17,22,2,663
49.43780,-0.02800,0.12005,0.00000,0.03270,0.97771,-0.18959,0.0,2023,6,7,17,22,2,674
49.43790,-0.18550,0.15505,0.00000,0.03111,0.97624,-0.18898,0.0,2023,6,7,17,22,2,685
49.43800,-0.02800,0.15505,0.00000,0.03257,0.97637,-0.18873,0.0,2023,6,7,17,22,2,696
49.43810,-0.13300,0.06755,0.00000,0.03038,0.97624,-0.18934,0.0,2023,6,7,17,22,2,707
49.43820,0.16450,0.15505,0.00000,0.03123,0.97637,-0.19130,0.0,2023,6,7,17,22,2,718
49.43830,-0.04550,0.08505,0.00000,0.02965,0.97820,-0.18934,0.0,2023,6,7,17,22,2,729
49.43840,0.05950,0.06755,0.00000,0.03099,0.97698,-0.19044,0.0,2023,6,7,17,22,2,740
49.43850,-0.11550,0.08505,0.00000,0.03184,0.97490,-0.18861,0.0,2023,6,7,17,22,2,751
49.43860,-0.01050,-0.00245,0.00000,0.03379,0.97942,-0.18678,0.0,2023,6,7,17,22,2,762
49.43870,0.09450,-0.01995,0.00000,0.03001,0.97661,-0.18910,0.0,2023,6,7,17,22,2,773
49.43880,0.19950,-0.14245,0.00000,0.03062,0.97771,-0.18849,0.0,2023,6,7,17,22,2,784
49.43890,0.09450,0.08505,0.00000,0.03379,0.97649,-0.18800,0.0,2023,6,7,17,22,2,795
49.43900,-0.08050,0.03255,0.00000,0.02965,0.97698,-0.19154,0.0,2023,6,7,17,22,2,806
49.43910,-0.01050,-0.08995,0.00000,0.03331,0.97685,-0.18751,0.0,2023,6,7,17,22,2,817
49.43920,0.16450,0.06755,0.00000,0.03099,0.97746,-0.18812,0.0,2023,6,7,17,22,2,828
49.43930,-0.08050,0.03255,0.00000,0.03355,0.97673,-0.18886,0.0,2023,6,7,17,22,2,839
49.43940,0.12950,-0.10745,0.00000,0.03196,0.97783,-0.18812,0.0,2023,6,7,17,22,2,850
49.43950,-0.06300,0.24255,0.00000,0.03013,0.98039,-0.18837,0.0,2023,6,7,17,22,2,861
49.43960,-0.08050,0.29505,0.00000,0.03172,0.97698,-0.18922,0.0,2023,6,7,17,22,2,872
49.43970,-0.09800,0.01505,0.00000,0.03050,0.97539,-0.18812,0.0,2023,6,7,17,22,2,883
49.43980,-0.13300,-0.00245,0.00000,0.02952,0.97563,-0.18861,0.0,2023,6,7,17,22,2,894
49.43990,-0.11550,0.17255,0.00000,0.03050,0.97539,-0.19032,0.0,2023,6,7,17,22,3,905
49.44000,-0.11550,0.12005,0.00000,0.03050,0.97478,-0.19117,0.0,2023,6,7,17,22,3,916
49.44010,0.00700,-0.17745,0.00000,0.03379,0.97759,-0.18812,0.0,2023,6,7,17,22,3,927
49.44020,-0.16800,-0.03745,0.00000,0.03221,0.97759,-0.18678,0.0,2023,6,7,17,22,3,938
49.44030,0.02450,-0.03745,0.00000,0.02965,0.97710,-0.18861,0.0,2023,6,7,17,22,3,949
49.44040,0.02450,0.13755,0.00000,0.03221,0.97722,-0.19008,0.0,2023,6,7,17,22,3,960
49.44050,-0.04550,-0.05495,0.00000,0.03099,0.97637,-0.18947,0.0,2023,6,7,17,22,3,971
49.44060,-0.15050,0.06755,0.00000,0.03245,0.97710,-0.18739,0.0,2023,6,7,17,22,3,982
49.44070,-0.01050,0.08505,0.00000,0.02989,0.97820,-0.18898,0.0,2023,6,7,17,22,3,993
49.44080,0.05950,0.05005,0.00000,0.03331,0.97502,-0.18898,0.0,2023,6,7,17,22,3,4
49.44090,0.00700,-0.10745,0.00000,0.02867,0.97881,-0.18825,0.0,2023,6,7,17,22,3,15
49.44100,-0.15050,0.08505,0.00000,0.03148,0.97661,-0.18678,0.0,2023,6,7,17,22,3,26
49.44110,-0.11550,-0.08995,0.00000,0.03428,0.97673,-0.18873,0.0,2023,6,7,17,22,3,37
49.44120,0.12950,0.03255,0.00000,0.03367,0.97795,-0.19130,0.0,2023,6,7,17,22,3,48
49.44130,-0.02800,-0.14245,0.00000,0.03209,0.97771,-0.18873,0.0,2023,6,7,17,22,3,59
49.44140,-0.23800,-0.07245,0.00000,0.02977,0.97807,-0.18922,0.0,2023,6,7,17,22,3,70
49.44150,-0.06300,-0.01995,0.00000,0.03172,0.97551,-0.18788,0.0,2023,6,7,17,22,3,81
49.44160,-0.11550,0.12005,0.00000,0.03074,0.97771,-0.18690,0.0,2023,6,7,17,22,3,92
49.44170,-0.01050,-0.22995,0.00000,0.03209,0.97527,-0.18825,0.0,2023,6,7,17,22,3,103
49.44180,-0.04550,0.24255,0.00000,0.02989,0.97380,-0.18825,0.0,2023,6,7,17,22,3,114
49.44190,-0.15050,-0.03745,0.00000,0.03001,0.97576,-0.18776,0.0,2023,6,7,17,22,3,125
49.44200,0.02450,0.10255,0.00000,0.03135,0.97710,-0.18812,0.0,2023,6,7,17,22,3,136
49.44210,0.25200,-0.03745,0.00000,0.03355,0.97380,-0.18593,0.0,2023,6,7,17,22,3,147
49.44220,-0.13300,-0.05495,0.00000,0.03233,0.97893,-0.19069,0.0,2023,6,7,17,22,3,158
49.44230,0.02450,0.05005,0.00000,0.03404,0.97893,-0.18922,0.0,2023,6,7,17,22,3,169
49.44240,0.07700,0.10255,0.00000,0.03111,0.97539,-0.18886,0.0,2023,6,7,17,22,3,180
49.44250,-0.20300,0.03255,0.00000,0.03184,0.97563,-0.18617,0.0,2023,6,7,17,22,3,191
49.44260,-0.09800,-0.14245,0.00000,0.03184,0.97502,-0.18800,0.0,2023,6,7,17,22,3,202
49.44270,0.04200,0.05005,0.00000,0.02989,0.97600,-0.18947,0.0,2023,6,7,17,22,3,213
49.44280,0.07700,0.13755,0.00000,0.03111,0.97759,-0.18849,0.0,2023,6,7,17,22,3,224
49.44290,-0.08050,0.01505,0.00000,0.03074,0.97612,-0.18654,0.0,2023,6,7,17,22,3,235
49.44300,0.00700,-0.08995,0.00000,0.03062,0.97746,-0.18812,0.0,2023,6,7,17,22,3,246
49.44310,0.11200,-0.03745,0.00000,0.03270,0.97844,-0.18922,0.0,2023,6,7,17,22,3,257
49.44320,0.00700,0.03255,0.00000,0.03087,0.97490,-0.18934,0.0,2023,6,7,17,22,3,268
49.44330,0.16450,-0.07245,0.00000,0.03233,0.97783,-0.18971,0.0,2023,6,7,17,22,3,279
49.44340,0.07700,-0.12495,0.00000,0.03160,0.97490,-0.18800,0.0,2023,6,7,17,22,3,290
49.44350,-0.04550,0.10255,0.00000,0.03233,0.97588,-0.18788,0.0,2023,6,7,17,22,3,301
49.44360,-0.04550,0.05005,0.00000,0.03160,0.97612,-0.18873,0.0,2023,6,7,17,22,3,312
49.44370,0.05950,0.19005,0.00000,0.02916,0.97710,-0.18788,0.0,2023,6,7,17,22,3,323
49.44380,-0.11550,0.19005,0.00000,0.03111,0.97832,-0.18886,0.0,2023,6,7,17,22,3,334
49.44390,0.25200,0.03255,0.00000,0.03245,0.97771,-0.18776,0.0,2023,6,7,17,22,3,345
49.44400,0.00700,0.05005,0.00000,0.03184,0.97844,-0.18849,0.0,2023,6,7,17,22,3,356
49.44410,-0.02800,-0.00245,0.00000,0.03148,0.97563,-0.19032,0.0,2023,6,7,17,22,3,367
49.44420,0.05950,0.20755,0.00000,0.03209,0.97600,-0.18849,0.0,2023,6,7,17,22,3,378
49.44430,0.11200,-0.15995,0.00000,0.03209,0.97576,-0.18983,0.0,2023,6,7,17,22,3,389
49.44440,0.00700,-0.15995,0.00000,0.02977,0.97710,-0.18666,0.0,2023,6,7,17,22,3,400
49.44450,-0.01050,-0.01995,0.00000,0.03196,0.97710,-0.18776,0.0,2023,6,7,17,22,3,411
49.44460,0.05950,-0.10745,0.00000,0.03135,0.97588,-0.18959,0.0,2023,6,7,17,22,3,422
49.44470,-0.02800,0.10255,0.00000,0.03135,0.97551,-0.18544,0.0,2023,6,7,17,22,3,433
49.44480,0.05950,-0.00245,0.00000,0.03245,0.97637,-0.18507,0.0,2023,6,7,17,22,3,444
49.44490,-0.01050,0.12005,0.00000,0.03160,0.97624,-0.18703,0.0,2023,6,7,17,22,3,455
49.44500,-0.02800,-0.05495,0.00000,0.03196,0.97844,-0.19130,0.0,2023,6,7,17,22,3,466
49.44510,0.00700,0.10255,0.00000,0.03123,0.97771,-0.18739,0.0,2023,6,7,17,22,3,477
49.44520,0.00700,-0.21245,0.00000,0.03074,0.97539,-0.18751,0.0,2023,6,7,17,22,3,488
49.44530,0.07700,0.06755,0.00000,0.02977,0.97942,-0.18788,0.0,2023,6,7,17,22,3,499
49.44540,0.23450,-0.00245,0.00000,0.03160,0.97624,-0.18910,0.0,2023,6,7,17,22,3,510
49.44550,0.02450,0.12005,0.00000,0.03062,0.97710,-0.18837,0.0,2023,6,7,17,22,3,521
49.44560,-0.02800,0.12005,0.00000,0.02916,0.97710,-0.18788,0.0,2023,6,7,17,22,3,532
49.44570,-0.02800,0.01505,0.00000,0.03074,0.97734,-0.18703,0.0,2023,6,7,17,22,3,543
49.44580,0.02450,0.10255,0.00000,0.03184,0.97710,-0.18666,0.0,2023,6,7,17,22,3,554
49.44590,0.25200,0.10255,0.00000,0.03074,0.97539,-0.18971,0.0,2023,6,7,17,22,3,565
49.44600,-0.01050,-0.12495,0.00000,0.03111,0.97588,-0.18898,0.0,2023,6,7,17,22,3,576
49.44610,-0.06300,0.03255,0.00000,0.03233,0.97466,-0.18593,0.0,2023,6,7,17,22,3,587
49.44620,-0.15050,0.12005,0.00000,0.03428,0.97698,-0.18800,0.0,2023,6,7,17,22,3,598
49.44630,0.02450,0.05005,0.00000,0.03026,0.97771,-0.18898,0.0,2023,6,7,17,22,3,609
49.44640,0.00700,0.06755,0.00000,0.03074,0.97600,-0.18983,0.0,2023,6,7,17,22,3,620
49.44650,-0.02800,0.08505,0.00000,0.03428,0.97588,-0.18873,0.0,2023,6,7,17,22,3,631
49.44660,-0.02800,-0.07245,0.00000,0.03257,0.97600,-0.18898,0.0,2023,6,7,17,22,3,642
49.44670,0.04200,-0.28245,0.00000,0.03074,0.97783,-0.18617,0.0,2023,6,7,17,22,3,653
49.44680,0.00700,0.13755,0.00000,0.03379,0.97795,-0.18983,0.0,2023,6,7,17,22,3,664
49.44690,0.11200,0.08505,0.00000,0.03160,0.97746,-0.18959,0.0,2023,6,7,17,22,3,675
49.44700,-0.08050,0.20755,0.00000,0.03099,0.97576,-0.18788,0.0,2023,6,7,17,22,3,686
49.44710,0.04200,0.13755,0.00000,0.03306,0.97649,-0.18776,0.0,2023,6,7,17,22,3,697
49.44720,0.04200,-0.07245,0.00000,0.03318,0.97673,-0.19056,0.0,2023,6,7,17,22,3,708
49.44730,-0.06300,0.12005,0.00000,0.03172,0.97722,-0.18788,0.0,2023,6,7,17,22,3,719
49.44740,0.11200,-0.05495,0.00000,0.03013,0.97698,-0.18800,0.0,2023,6,7,17,22,3,730
49.44750,0.04200,-0.00245,0.00000,0.03282,0.97576,-0.18995,0.0,2023,6,7,17,22,3,741
49.44760,0.16450,0.10255,0.00000,0.03440,0.97685,-0.18934,0.0,2023,6,7,17,22,3,752
49.44770,0.02450,0.03255,0.00000,0.03050,0.97673,-0.18983,0.0,2023,6,7,17,22,3,763
49.44780,0.07700,0.12005,0.00000,0.03196,0.97795,-0.18873,0.0,2023,6,7,17,22,3,774
49.44790,0.07700,-0.01995,0.00000,0.03062,0.97576,-0.18983,0.0,2023,6,7,17,22,3,785
49.44800,0.07700,-0.07245,0.00000,0.03221,0.97795,-0.18898,0.0,2023,6,7,17,22,3,796
49.44810,-0.01050,0.06755,0.00000,0.03221,0.97759,-0.18947,0.0,2023,6,7,17,22,3,807
49.44820,0.12950,0.03255,0.00000,0.03355,0.97698,-0.18947,0.0,2023,6,7,17,22,3,818
49.44830,-0.08050,-0.21245,0.00000,0.03172,0.97734,-0.19069,0.0,2023,6,7,17,22,3,829
49.44840,0.00700,-0.01995,0.00000,0.03257,0.97722,-0.18751,0.0,2023,6,7,17,22,3,840
49.44850,0.12950,-0.03745,0.00000,0.03087,0.97563,-0.18715,0.0,2023,6,7,17,22,3,851
49.44860,-0.15050,-0.08995,0.00000,0.03111,0.97917,-0.18947,0.0,2023,6,7,17,22,3,862
49.44870,0.05950,0.03255,0.00000,0.03221,0.97771,-0.19117,0.0,2023,6,7,17,22,3,873
49.44880,0.02450,0.06755,0.00000,0.03196,0.97966,-0.19093,0.0,2023,6,7,17,22,3,884
49.44890,0.18200,-0.21245,0.00000,0.03013,0.97698,-0.18959,0.0,2023,6,7,17,22,4,895
49.44900,-0.01050,-0.00245,0.00000,0.03416,0.97881,-0.18788,0.0,2023,6,7,17,22,4,906
49.44910,0.14700,-0.07245,0.00000,0.03270,0.97490,-0.18690,0.0,2023,6,7,17,22,4,917
49.44920,-0.22050,0.26005,0.00000,0.03209,0.97588,-0.18751,0.0,2023,6,7,17,22,4,928
49.44930,0.14700,-0.01995,0.00000,0.03038,0.97759,-0.18898,0.0,2023,6,7,17,22,4,939
49.44940,0.04200,-0.26495,0.00000,0.03331,0.97502,-0.18983,0.0,2023,6,7,17,22,4,950
49.44950,0.00700,0.10255,0.00000,0.03184,0.97515,-0.18727,0.0,2023,6,7,17,22,4,961
49.44960,-0.09800,0.05005,0.00000,0.03184,0.97612,-0.18812,0.0,2023,6,7,17,22,4,972
49.44970,0.12950,0.08505,0.00000,0.03135,0.97807,-0.18873,0.0,2023,6,7,17,22,4,983
49.44980,0.21700,-0.14245,0.00000,0.03074,0.97588,-0.18910,0.0,2023,6,7,17,22,4,994
49.44990,0.04200,-0.01995,0.00000,0.03233,0.97649,-0.18825,0.0,2023,6,7,17,22,4,5
49.45000,-0.06300,-0.00245,0.00000,0.03245,0.97722,-0.18837,0.0,2023,6,7,17,22,4,16
49.45010,-0.06300,-0.24745,0.00000,0.03306,0.97710,-0.19032,0.0,2023,6,7,17,22,4,27
49.45020,0.16450,0.01505,0.00000,0.03099,0.97820,-0.19056,0.0,2023,6,7,17,22,4,38
49.45030,-0.22050,-0.07245,0.00000,0.03331,0.97966,-0.19069,0.0,2023,6,7,17,22,4,49
49.45040,-0.16800,0.22505,0.00000,0.03050,0.97258,-0.19130,0.0,2023,6,7,17,22,4,60
49.45050,0.11200,-0.03745,0.00000,0.03123,0.97685,-0.18886,0.0,2023,6,7,17,22,4,71
49.45060,0.00700,-0.17745,0.00000,0.03184,0.97624,-0.18666,0.0,2023,6,7,17,22,4,82
49.45070,-0.18550,0.10255,0.00000,0.03148,0.97771,-0.19056,0.0,2023,6,7,17,22,4,93
49.45080,0.18200,0.05005,0.00000,0.03062,0.97612,-0.18764,0.0,2023,6,7,17,22,4,104
49.45090,0.05950,-0.05495,0.00000,0.03099,0.97722,-0.18617,0.0,2023,6,7,17,22,4,115
49.45100,-0.01050,0.10255,0.00000,0.03001,0.97795,-0.18776,0.0,2023,6,7,17,22,4,126
49.45110,0.00700,0.08505,0.00000,0.03245,0.97527,-0.18910,0.0,2023,6,7,17,22,4,137
49.45120,0.04200,0.03255,0.00000,0.02977,0.97722,-0.18837,0.0,2023,6,7,17,22,4,148
49.45130,0.09450,0.06755,0.00000,0.03038,0.97722,-0.18934,0.0,2023,6,7,17,22,4,159
49.45140,-0.13300,-0.08995,0.00000,0.03172,0.97612,-0.18886,0.0,2023,6,7,17,22,4,170
49.45150,0.09450,0.01505,0.00000,0.03050,0.97576,-0.19056,0.0,2023,6,7,17,22,4,181
49.45160,-0.08050,0.08505,0.00000,0.03123,0.97563,-0.19008,0.0,2023,6,7,17,22,4,192
49.45170,-0.02800,0.03255,0.00000,0.03160,0.97722,-0.18678,0.0,2023,6,7,17,22,4,203
49.45180,-0.09800,0.01505,0.00000,0.03257,0.97576,-0.18849,0.0,2023,6,7,17,22,4,214
49.45190,0.00700,0.06755,0.00000,0.03257,0.97746,-0.18812,0.0,2023,6,7,17,22,4,225
49.45200,-0.02800,0.15505,0.00000,0.03221,0.97759,-0.19032,0.0,2023,6,7,17,22,4,236
49.45210,0.02450,0.03255,0.00000,0.03026,0.97698,-0.18861,0.0,2023,6,7,17,22,4,247
49.45220,0.04200,-0.07245,0.00000,0.03087,0.97661,-0.19008,0.0,2023,6,7,17,22,4,258
49.45230,0.09450,0.03255,0.00000,0.03148,0.97673,-0.18605,0.0,2023,6,7,17,22,4,269
49.45240,0.09450,0.08505,0.00000,0.03331,0.97612,-0.18532,0.0,2023,6,7,17,22,4,280
49.45250,-0.13300,-0.01995,0.00000,0.02989,0.97746,-0.18947,0.0,2023,6,7,17,22,4,291
49.45260,0.02450,-0.00245,0.00000,0.03111,0.97624,-0.18849,0.0,2023,6,7,17,22,4,302
49.45270,-0.06300,0.10255,0.00000,0.03221,0.97588,-0.18483,0.0,2023,6,7,17,22,4,313
49.45280,0.04200,-0.14245,0.00000,0.03135,0.97673,-0.18727,0.0,2023,6,7,17,22,4,324
49.45290,0.09450,-0.08995,0.00000,0.02977,0.97807,-0.18703,0.0,2023,6,7,17,22,4,335
49.45300,0.05950,-0.00245,0.00000,0.03050,0.97551,-0.19056,0.0,2023,6,7,17,22,4,346
49.45310,-0.02800,-0.08995,0.00000,0.03099,0.97734,-0.19044,0.0,2023,6,7,17,22,4,357
49.45320,0.11200,-0.05495,0.00000,0.03221,0.97600,-0.18873,0.0,2023,6,7,17,22,4,368
49.45330,-0.09800,0.15505,0.00000,0.03196,0.97661,-0.18617,0.0,2023,6,7,17,22,4,379
49.45340,-0.01050,-0.00245,0.00000,0.03099,0.97795,-0.18727,0.0,2023,6,7,17,22,4,390
49.45350,0.00700,-0.08995,0.00000,0.03184,0.97637,-0.18947,0.0,2023,6,7,17,22,4,401
49.45360,-0.16800,0.29505,0.00000,0.03099,0.97710,-0.18947,0.0,2023,6,7,17,22,4,412
49.45370,-0.13300,0.17255,0.00000,0.03282,0.97551,-0.18800,0.0,2023,6,7,17,22,4,423
49.45380,0.02450,-0.01995,0.00000,0.03245,0.97844,-0.18764,0.0,2023,6,7,17,22,4,434
49.45390,0.00700,0.20755,0.00000,0.03245,0.97795,-0.18629,0.0,2023,6,7,17,22,4,445
49.45400,0.04200,-0.15995,0.00000,0.03099,0.97844,-0.19081,0.0,2023,6,7,17,22,4,456
49.45410,-0.02800,-0.00245,0.00000,0.02989,0.97466,-0.18739,0.0,2023,6,7,17,22,4,467
49.45420,-0.04550,0.06755,0.00000,0.03294,0.97868,-0.18715,0.0,2023,6,7,17,22,4,478
49.45430,0.00700,-0.14245,0.00000,0.03172,0.97795,-0.18800,0.0,2023,6,7,17,22,4,489
49.45440,-0.04550,0.26005,0.00000,0.03099,0.97563,-0.18849,0.0,2023,6,7,17,22,4,500
49.45450,0.00700,0.13755,0.00000,0.03135,0.97563,-0.18934,0.0,2023,6,7,17,22,4,511
49.45460,0.16450,-0.15995,0.00000,0.03282,0.97600,-0.18727,0.0,2023,6,7,17,22,4,522
49.45470,-0.04550,0.08505,0.00000,0.03062,0.97783,-0.18520,0.0,2023,6,7,17,22,4,533
49.45480,-0.02800,-0.00245,0.00000,0.03160,0.97502,-0.18764,0.0,2023,6,7,17,22,4,544
49.45490,0.16450,0.01505,0.00000,0.03087,0.97868,-0.18959,0.0,2023,6,7,17,22,4,555
49.45500,-0.02800,0.17255,0.00000,0.03111,0.97734,-0.18861,0.0,2023,6,7,17,22,4,566
49.45510,0.23450,-0.14245,0.00000,0.03160,0.97380,-0.18910,0.0,2023,6,7,17,22,4,577
49.45520,-0.20300,-0.01995,0.00000,0.03294,0.97551,-0.18873,0.0,2023,6,7,17,22,4,588
49.45530,0.05950,0.10255,0.00000,0.03270,0.97576,-0.19008,0.0,2023,6,7,17,22,4,599
49.45540,0.09450,0.05005,0.00000,0.03233,0.97698,-0.19056,0.0,2023,6,7,17,22,4,610
49.45550,-0.18550,0.20755,0.00000,0.03135,0.97637,-0.18873,0.0,2023,6,7,17,22,4,621
49.45560,-0.04550,0.15505,0.00000,0.03050,0.97783,-0.18861,0.0,2023,6,7,17,22,4,632
49.45570,-0.01050,0.03255,0.00000,0.02940,0.97612,-0.18861,0.0,2023,6,7,17,22,4,643
49.45580,-0.04550,0.03255,0.00000,0.03111,0.97710,-0.18849,0.0,2023,6,7,17,22,4,654
49.45590,0.16450,-0.03745,0.00000,0.03026,0.97661,-0.18788,0.0,2023,6,7,17,22,4,665
49.45600,0.00700,-0.05495,0.00000,0.03343,0.97478,-0.18751,0.0,2023,6,7,17,22,4,676
49.45610,0.00700,0.03255,0.00000,0.03282,0.97612,-0.18520,0.0,2023,6,7,17,22,4,687
49.45620,-0.16800,0.05005,0.00000,0.03172,0.97478,-0.18861,0.0,2023,6,7,17,22,4,698
49.45630,-0.06300,0.15505,0.00000,0.03440,0.97563,-0.18727,0.0,2023,6,7,17,22,4,709
49.45640,0.00700,0.29505,0.00000,0.03233,0.97405,-0.19020,0.0,2023,6,7,17,22,4,720
49.45650,-0.16800,0.19005,0.00000,0.03123,0.97539,-0.18995,0.0,2023,6,7,17,22,4,731
49.45660,0.21700,-0.14245,0.00000,0.03318,0.97807,-0.19069,0.0,2023,6,7,17,22,4,742
49.45670,0.09450,0.01505,0.00000,0.03050,0.97807,-0.18849,0.0,2023,6,7,17,22,4,753
49.45680,0.04200,0.17255,0.00000,0.03148,0.97637,-0.19093,0.0,2023,6,7,17,22,4,764
49.45690,0.07700,0.08505,0.00000,0.03135,0.97746,-0.19154,0.0,2023,6,7,17,22,4,775
49.45700,-0.11550,0.03255,0.00000,0.03233,0.97856,-0.18800,0.0,2023,6,7,17,22,4,786
49.45710,0.09450,0.01505,0.00000,0.03294,0.97527,-0.18703,0.0,2023,6,7,17,22,4,797
49.45720,-0.01050,-0.01995,0.00000,0.03148,0.97734,-0.18825,0.0,2023,6,7,17,22,4,808
49.45730,0.02450,0.10255,0.00000,0.03001,0.97844,-0.19056,0.0,2023,6,7,17,22,4,819
49.45740,-0.11550,0.26005,0.00000,0.03172,0.97624,-0.18898,0.0,2023,6,7,17,22,4,830
49.45750,-0.13300,0.20755,0.00000,0.03074,0.97832,-0.18568,0.0,2023,6,7,17,22,4,841
49.45760,-0.06300,-0.05495,0.00000,0.03087,0.98003,-0.18849,0.0,2023,6,7,17,22,4,852
49.45770,0.07700,0.20755,0.00000,0.03111,0.97685,-0.19239,0.0,2023,6,7,17,22,4,863
49.45780,-0.06300,-0.17745,0.00000,0.03148,0.97551,-0.18690,0.0,2023,6,7,17,22,5,874
49.45790,-0.01050,-0.08995,0.00000,0.03160,0.97551,-0.19154,0.0,2023,6,7,17,22,5,885
49.45800,-0.02800,-0.12495,0.00000,0.03123,0.97954,-0.18959,0.0,2023,6,7,17,22,5,896
49.45810,-0.16800,-0.14245,0.00000,0.03074,0.97673,-0.18739,0.0,2023,6,7,17,22,5,907
49.45820,-0.06300,0.12005,0.00000,0.03087,0.97734,-0.18947,0.0,2023,6,7,17,22,5,918
49.45830,0.11200,-0.05495,0.00000,0.03221,0.97820,-0.18617,0.0,2023,6,7,17,22,5,929
49.45840,-0.15050,-0.08995,0.00000,0.03074,0.97551,-0.18532,0.0,2023,6,7,17,22,5,940
49.45850,-0.11550,0.03255,0.00000,0.03245,0.97722,-0.18800,0.0,2023,6,7,17,22,5,951
49.45860,0.04200,0.19005,0.00000,0.03123,0.97661,-0.18703,0.0,2023,6,7,17,22,5,962
49.45870,0.07700,-0.03745,0.00000,0.03160,0.97563,-0.18837,0.0,2023,6,7,17,22,5,973
49.45880,0.12950,0.01505,0.00000,0.03135,0.97588,-0.19020,0.0,2023,6,7,17,22,5,984
49.45890,0.05950,-0.08995,0.00000,0.03233,0.97551,-0.18825,0.0,2023,6,7,17,22,5,995
49.45900,-0.06300,-0.19495,0.00000,0.03038,0.97771,-0.19032,0.0,2023,6,7,17,22,5,6
49.45910,0.11200,0.27755,0.00000,0.03123,0.97527,-0.19093,0.0,2023,6,7,17,22,5,17
49.45920,-0.06300,0.13755,0.00000,0.03245,0.97624,-0.18837,0.0,2023,6,7,17,22,5,28
49.45930,0.04200,-0.12495,0.00000,0.03245,0.97710,-0.18520,0.0,2023,6,7,17,22,5,39
49.45940,-0.01050,0.05005,0.00000,0.03111,0.97722,-0.19142,0.0,2023,6,7,17,22,5,50
49.45950,0.26950,-0.10745,0.00000,0.03184,0.97710,-0.19056,0.0,2023,6,7,17,22,5,61
49.45960,-0.09800,-0.10745,0.00000,0.03038,0.97490,-0.18971,0.0,2023,6,7,17,22,5,72
49.45970,-0.08050,0.03255,0.00000,0.03331,0.97942,-0.18898,0.0,2023,6,7,17,22,5,83
49.45980,0.07700,-0.05495,0.00000,0.03184,0.97746,-0.18739,0.0,2023,6,7,17,22,5,94
49.45990,0.09450,0.29505,0.00000,0.02904,0.97393,-0.18751,0.0,2023,6,7,17,22,5,105
49.46000,-0.01050,0.08505,0.00000,0.03331,0.97588,-0.18861,0.0,2023,6,7,17,22,5,116
49.46010,-0.01050,0.05005,0.00000,0.03184,0.97588,-0.19008,0.0,2023,6,7,17,22,5,127
49.46020,-0.13300,-0.12495,0.00000,0.03318,0.97722,-0.19008,0.0,2023,6,7,17,22,5,138
49.46030,-0.01050,0.17255,0.00000,0.03501,0.97868,-0.18898,0.0,2023,6,7,17,22,5,149
49.46040,0.25200,-0.28245,0.00000,0.03196,0.97661,-0.18873,0.0,2023,6,7,17,22,5,160
49.46050,0.04200,0.06755,0.00000,0.03123,0.97612,-0.18825,0.0,2023,6,7,17,22,5,171
49.46060,-0.08050,0.03255,0.00000,0.03087,0.97673,-0.18861,0.0,2023,6,7,17,22,5,182
49.46070,-0.15050,-0.05495,0.00000,0.02965,0.97563,-0.18678,0.0,2023,6,7,17,22,5,193
49.46080,0.07700,-0.03745,0.00000,0.03343,0.97881,-0.19020,0.0,2023,6,7,17,22,5,204
49.46090,0.02450,0.03255,0.00000,0.03062,0.97527,-0.18934,0.0,2023,6,7,17,22,5,215
49.46100,-0.16800,0.01505,0.00000,0.03331,0.97588,-0.18812,0.0,2023,6,7,17,22,5,226
49.46110,0.25200,-0.08995,0.00000,0.03257,0.97661,-0.18873,0.0,2023,6,7,17,22,5,237
49.46120,-0.01050,0.08505,0.00000,0.03245,0.97685,-0.18788,0.0,2023,6,7,17,22,5,248
49.46130,-0.02800,-0.19495,0.00000,0.03428,0.97515,-0.18922,0.0,2023,6,7,17,22,5,259
49.46140,0.14700,0.03255,0.00000,0.03135,0.97405,-0.18776,0.0,2023,6,7,17,22,5,270
49.46150,0.16450,-0.17745,0.00000,0.03343,0.97490,-0.18922,0.0,2023,6,7,17,22,5,281
49.46160,-0.06300,0.06755,0.00000,0.03111,0.97710,-0.18520,0.0,2023,6,7,17,22,5,292
49.46170,0.18200,-0.12495,0.00000,0.02879,0.97954,-0.19130,0.0,2023,6,7,17,22,5,303
49.46180,0.19950,-0.05495,0.00000,0.03184,0.97466,-0.18873,0.0,2023,6,7,17,22,5,314
49.46190,-0.20300,0.05005,0.00000,0.03001,0.97698,-0.18764,0.0,2023,6,7,17,22,5,325
49.46200,0.09450,-0.00245,0.00000,0.03026,0.97576,-0.19008,0.0,2023,6,7,17,22,5,336
49.46210,-0.01050,-0.00245,0.00000,0.03062,0.97527,-0.18849,0.0,2023,6,7,17,22,5,347
49.46220,-0.29050,0.12005,0.00000,0.03221,0.97637,-0.18922,0.0,2023,6,7,17,22,5,358
49.46230,0.11200,0.05005,0.00000,0.02916,0.97527,-0.19081,0.0,2023,6,7,17,22,5,369
49.46240,0.00700,-0.07245,0.00000,0.03318,0.97844,-0.18788,0.0,2023,6,7,17,22,5,380
49.46250,0.09450,-0.05495,0.00000,0.03245,0.97600,-0.18800,0.0,2023,6,7,17,22,5,391
49.46260,0.11200,0.15505,0.00000,0.03379,0.97698,-0.18898,0.0,2023,6,7,17,22,5,402
49.46270,0.04200,-0.22995,0.00000,0.03233,0.97771,-0.18971,0.0,2023,6,7,17,22,5,413
49.46280,-0.11550,0.10255,0.00000,0.03196,0.97490,-0.18898,0.0,2023,6,7,17,22,5,424
49.46290,0.02450,0.06755,0.00000,0.03270,0.97868,-0.18739,0.0,2023,6,7,17,22,5,435
49.46300,-0.25550,0.15505,0.00000,0.03074,0.97612,-0.18800,0.0,2023,6,7,17,22,5,446
49.46310,-0.11550,0.06755,0.00000,0.03013,0.97929,-0.18776,0.0,2023,6,7,17,22,5,457
49.46320,0.32200,-0.08995,0.00000,0.03233,0.97698,-0.18983,0.0,2023,6,7,17,22,5,468
49.46330,-0.08050,0.17255,0.00000,0.03062,0.97429,-0.18947,0.0,2023,6,7,17,22,5,479
49.46340,-0.22050,-0.05495,0.00000,0.03074,0.97844,-0.18849,0.0,2023,6,7,17,22,5,490
49.46350,0.12950,-0.00245,0.00000,0.03306,0.97710,-0.18788,0.0,2023,6,7,17,22,5,501
49.46360,0.00700,-0.01995,0.00000,0.03318,0.97771,-0.18849,0.0,2023,6,7,17,22,5,512
49.46370,0.14700,-0.08995,0.00000,0.03209,0.97807,-0.18910,0.0,2023,6,7,17,22,5,523
49.46380,0.05950,0.15505,0.00000,0.03270,0.97527,-0.18861,0.0,2023,6,7,17,22,5,534
49.46390,0.02450,-0.26495,0.00000,0.03367,0.97734,-0.19020,0.0,2023,6,7,17,22,5,545
49.46400,0.05950,-0.19495,0.00000,0.03074,0.97515,-0.18934,0.0,2023,6,7,17,22,5,556
49.46410,0.05950,0.12005,0.00000,0.03111,0.97551,-0.18861,0.0,2023,6,7,17,22,5,567
49.46420,-0.13300,0.03255,0.00000,0.03111,0.97868,-0.19178,0.0,2023,6,7,17,22,5,578
49.46430,0.04200,0.01505,0.00000,0.03196,0.97624,-0.18873,0.0,2023,6,7,17,22,5,589
49.46440,-0.08050,-0.08995,0.00000,0.03135,0.97966,-0.18764,0.0,2023,6,7,17,22,5,600
49.46450,0.02450,-0.22995,0.00000,0.03099,0.97661,-0.18849,0.0,2023,6,7,17,22,5,611
49.46460,-0.06300,-0.05495,0.00000,0.03318,0.97734,-0.18947,0.0,2023,6,7,17,22,5,622
49.46470,-0.01050,0.06755,0.00000,0.02855,0.97673,-0.18788,0.0,2023,6,7,17,22,5,633
49.46480,-0.09800,-0.03745,0.00000,0.03294,0.97673,-0.18934,0.0,2023,6,7,17,22,5,644
49.46490,-0.08050,0.06755,0.00000,0.03245,0.97539,-0.18825,0.0,2023,6,7,17,22,5,655
49.46500,-0.22050,-0.01995,0.00000,0.03148,0.97771,-0.18751,0.0,2023,6,7,17,22,5,666
49.46510,-0.11550,0.15505,0.00000,0.03294,0.97600,-0.18776,0.0,2023,6,7,17,22,5,677
49.46520,0.07700,0.06755,0.00000,0.03026,0.97466,-0.18910,0.0,2023,6,7,17,22,5,688
49.46530,0.05950,-0.29995,0.00000,0.03184,0.97710,-0.18617,0.0,2023,6,7,17,22,5,699
49.46540,-0.23800,0.03255,0.00000,0.03074,0.97795,-0.18605,0.0,2023,6,7,17,22,5,710
49.46550,-0.01050,0.10255,0.00000,0.03392,0.97661,-0.18934,0.0,2023,6,7,17,22,5,721
49.46560,-0.06300,0.17255,0.00000,0.03270,0.97710,-0.19044,0.0,2023,6,7,17,22,5,732
49.46570,0.12950,-0.05495,0.00000,0.02928,0.97746,-0.18995,0.0,2023,6,7,17,22,5,743
49.46580,-0.15050,0.13755,0.00000,0.03135,0.97637,-0.18739,0.0,2023,6,7,17,22,5,754
49.46590,0.04200,-0.12495,0.00000,0.03196,0.97441,-0.18764,0.0,2023,6,7,17,22,5,765
49.46600,0.14700,0.12005,0.00000,0.03294,0.97698,-0.18861,0.0,2023,6,7,17,22,5,776
49.46610,-0.13300,-0.00245,0.00000,0.03123,0.97844,-0.18727,0.0,2023,6,7,17,22,5,787
49.46620,0.14700,-0.03745,0.00000,0.03172,0.97344,-0.18983,0.0,2023,6,7,17,22,5,798
49.46630,0.09450,0.12005,0.00000,0.03245,0.97588,-0.18873,0.0,2023,6,7,17,22,5,809
49.46640,-0.18550,0.20755,0.00000,0.03148,0.97673,-0.18910,0.0,2023,6,7,17,22,5,820
49.46650,-0.04550,0.03255,0.00000,0.03172,0.97502,-0.19020,0.0,2023,6,7,17,22,5,831
49.46660,-0.01050,-0.00245,0.00000,0.03294,0.97624,-0.19093,0.0,2023,6,7,17,22,5,842
49.46670,-0.22050,0.13755,0.00000,0.03221,0.97563,-0.18617,0.0,2023,6,7,17,22,6,853
49.46680,-0.04550,-0.17745,0.00000,0.03184,0.97600,-0.18947,0.0,2023,6,7,17,22,6,864
49.46690,0.00700,-0.01995,0.00000,0.03160,0.97490,-0.18898,0.0,2023,6,7,17,22,6,875
49.46700,-0.15050,0.05005,0.00000,0.03074,0.97710,-0.18825,0.0,2023,6,7,17,22,6,886
49.46710,-0.09800,0.06755,0.00000,0.03087,0.97637,-0.18837,0.0,2023,6,7,17,22,6,897
49.46720,0.09450,-0.01995,0.00000,0.02977,0.97612,-0.18947,0.0,2023,6,7,17,22,6,908
49.46730,-0.08050,0.05005,0.00000,0.03013,0.97685,-0.18837,0.0,2023,6,7,17,22,6,919
49.46740,-0.08050,0.38255,0.00000,0.03099,0.97478,-0.18995,0.0,2023,6,7,17,22,6,930
49.46750,0.02450,-0.00245,0.00000,0.03099,0.97563,-0.18837,0.0,2023,6,7,17,22,6,941
49.46760,0.04200,0.05005,0.00000,0.03245,0.97588,-0.18666,0.0,2023,6,7,17,22,6,952
49.46770,0.07700,-0.08995,0.00000,0.03172,0.97576,-0.18727,0.0,2023,6,7,17,22,6,963
49.46780,-0.04550,0.10255,0.00000,0.03038,0.97649,-0.18910,0.0,2023,6,7,17,22,6,974
49.46790,0.14700,0.06755,0.00000,0.03257,0.97588,-0.19020,0.0,2023,6,7,17,22,6,985
49.46800,0.07700,-0.07245,0.00000,0.03172,0.97612,-0.18788,0.0,2023,6,7,17,22,6,996
49.46810,-0.02800,0.01505,0.00000,0.03148,0.97881,-0.19069,0.0,2023,6,7,17,22,6,7
49.46820,0.02450,-0.00245,0.00000,0.02782,0.97600,-0.18812,0.0,2023,6,7,17,22,6,18
49.46830,0.09450,0.17255,0.00000,0.03318,0.97661,-0.19069,0.0,2023,6,7,17,22,6,29
49.46840,-0.23800,0.03255,0.00000,0.03050,0.97673,-0.18629,0.0,2023,6,7,17,22,6,40
49.46850,0.05950,-0.12495,0.00000,0.03184,0.97783,-0.18934,0.0,2023,6,7,17,22,6,51
49.46860,0.25200,-0.21245,0.00000,0.03062,0.97905,-0.18959,0.0,2023,6,7,17,22,6,62
49.46870,-0.25550,0.13755,0.00000,0.02977,0.97319,-0.18800,0.0,2023,6,7,17,22,6,73
49.46880,0.09450,-0.08995,0.00000,0.02965,0.97637,-0.19044,0.0,2023,6,7,17,22,6,84
49.46890,0.11200,-0.14245,0.00000,0.03270,0.97771,-0.18654,0.0,2023,6,7,17,22,6,95
49.46900,-0.09800,-0.17745,0.00000,0.03172,0.97637,-0.18910,0.0,2023,6,7,17,22,6,106
49.46910,0.28700,-0.03745,0.00000,0.03099,0.97551,-0.19154,0.0,2023,6,7,17,22,6,117
49.46920,0.05950,0.05005,0.00000,0.03270,0.97783,-0.18751,0.0,2023,6,7,17,22,6,128
49.46930,0.02450,-0.05495,0.00000,0.03087,0.97771,-0.18727,0.0,2023,6,7,17,22,6,139
49.46940,0.09450,0.19005,0.00000,0.03099,0.97515,-0.18617,0.0,2023,6,7,17,22,6,150
49.46950,-0.06300,0.05005,0.00000,0.03038,0.97673,-0.18776,0.0,2023,6,7,17,22,6,161
49.46960,-0.01050,0.12005,0.00000,0.02879,0.97429,-0.19069,0.0,2023,6,7,17,22,6,172
49.46970,0.02450,0.03255,0.00000,0.03221,0.97868,-0.18690,0.0,2023,6,7,17,22,6,183
49.46980,0.04200,0.10255,0.00000,0.03111,0.97795,-0.18764,0.0,2023,6,7,17,22,6,194
49.46990,0.11200,0.06755,0.00000,0.03184,0.97527,-0.19117,0.0,2023,6,7,17,22,6,205
49.47000,-0.15050,-0.08995,0.00000,0.02904,0.97685,-0.18922,0.0,2023,6,7,17,22,6,216
49.47010,-0.09800,0.08505,0.00000,0.03087,0.97722,-0.18776,0.0,2023,6,7,17,22,6,227
49.47020,-0.09800,0.03255,0.00000,0.03148,0.97661,-0.18715,0.0,2023,6,7,17,22,6,238
49.47030,-0.01050,-0.01995,0.00000,0.03367,0.97734,-0.18678,0.0,2023,6,7,17,22,6,249
49.47040,0.02450,0.13755,0.00000,0.03001,0.97502,-0.19093,0.0,2023,6,7,17,22,6,260
49.47050,-0.06300,0.22505,0.00000,0.03123,0.97759,-0.18886,0.0,2023,6,7,17,22,6,271
49.47060,-0.11550,-0.10745,0.00000,0.03233,0.97746,-0.18678,0.0,2023,6,7,17,22,6,282
49.47070,-0.01050,-0.05495,0.00000,0.03282,0.97515,-0.18898,0.0,2023,6,7,17,22,6,293
49.47080,0.19950,-0.29995,0.00000,0.03294,0.97624,-0.19191,0.0,2023,6,7,17,22,6,304
49.47090,0.14700,-0.03745,0.00000,0.03111,0.97771,-0.18825,0.0,2023,6,7,17,22,6,315
49.47100,-0.06300,0.05005,0.00000,0.03477,0.97502,-0.18922,0.0,2023,6,7,17,22,6,326
49.47110,0.11200,-0.08995,0.00000,0.03026,0.97551,-0.19142,0.0,2023,6,7,17,22,6,337
49.47120,-0.16800,-0.10745,0.00000,0.03257,0.97417,-0.19008,0.0,2023,6,7,17,22,6,348
49.47130,0.00700,0.08505,0.00000,0.03270,0.97466,-0.18690,0.0,2023,6,7,17,22,6,359
49.47140,-0.20300,0.10255,0.00000,0.03074,0.97710,-0.18605,0.0,2023,6,7,17,22,6,370
49.47150,-0.01050,-0.03745,0.00000,0.03074,0.97612,-0.18788,0.0,2023,6,7,17,22,6,381
49.47160,0.02450,-0.10745,0.00000,0.03135,0.97661,-0.18995,0.0,2023,6,7,17,22,6,392
49.47170,-0.11550,-0.03745,0.00000,0.03221,0.97954,-0.18788,0.0,2023,6,7,17,22,6,403
49.47180,-0.09800,-0.00245,0.00000,0.03111,0.97698,-0.18873,0.0,2023,6,7,17,22,6,414
49.47190,0.02450,0.05005,0.00000,0.03282,0.97661,-0.18812,0.0,2023,6,7,17,22,6,425
49.47200,0.04200,-0.05495,0.00000,0.03111,0.97722,-0.18947,0.0,2023,6,7,17,22,6,436
49.47210,0.00700,0.06755,0.00000,0.02879,0.97673,-0.18959,0.0,2023,6,7,17,22,6,447
49.47220,0.28700,0.01505,0.00000,0.03148,0.97454,-0.18788,0.0,2023,6,7,17,22,6,458
49.47230,0.00700,-0.14245,0.00000,0.03099,0.97685,-0.18886,0.0,2023,6,7,17,22,6,469
49.47240,0.05950,-0.12495,0.00000,0.02806,0.97454,-0.18739,0.0,2023,6,7,17,22,6,480
49.47250,0.04200,-0.08995,0.00000,0.03257,0.97441,-0.18678,0.0,2023,6,7,17,22,6,491
49.47260,-0.02800,-0.17745,0.00000,0.03257,0.97624,-0.18825,0.0,2023,6,7,17,22,6,502
49.47270,-0.15050,-0.00245,0.00000,0.03172,0.97685,-0.18849,0.0,2023,6,7,17,22,6,513
49.47280,-0.15050,-0.01995,0.00000,0.02940,0.97771,-0.19044,0.0,2023,6,7,17,22,6,524
49.47290,0.14700,-0.21245,0.00000,0.03123,0.97612,-0.19056,0.0,2023,6,7,17,22,6,535
49.47300,-0.02800,0.24255,0.00000,0.03160,0.97490,-0.18837,0.0,2023,6,7,17,22,6,546
49.47310,-0.09800,0.08505,0.00000,0.03172,0.97490,-0.18629,0.0,2023,6,7,17,22,6,557
49.47320,0.04200,0.10255,0.00000,0.03196,0.97429,-0.18947,0.0,2023,6,7,17,22,6,568
49.47330,0.11200,-0.10745,0.00000,0.03062,0.97612,-0.18922,0.0,2023,6,7,17,22,6,579
49.47340,0.04200,0.08505,0.00000,0.03148,0.97551,-0.18605,0.0,2023,6,7,17,22,6,590
49.47350,-0.11550,0.15505,0.00000,0.03062,0.97759,-0.19093,0.0,2023,6,7,17,22,6,601
49.47360,0.16450,-0.14245,0.00000,0.03392,0.97576,-0.19044,0.0,2023,6,7,17,22,6,612
49.47370,0.00700,0.06755,0.00000,0.03306,0.97698,-0.18825,0.0,2023,6,7,17,22,6,623
49.47380,0.05950,0.13755,0.00000,0.03123,0.97600,-0.18910,0.0,2023,6,7,17,22,6,634
49.47390,-0.09800,0.15505,0.00000,0.03221,0.97661,-0.18727,0.0,2023,6,7,17,22,6,645
49.47400,0.04200,-0.22995,0.00000,0.03038,0.97551,-0.18922,0.0,2023,6,7,17,22,6,656
49.47410,0.07700,-0.08995,0.00000,0.03123,0.97576,-0.18764,0.0,2023,6,7,17,22,6,667
49.47420,-0.06300,0.05005,0.00000,0.03062,0.97722,-0.18983,0.0,2023,6,7,17,22,6,678
49.47430,-0.02800,-0.00245,0.00000,0.03184,0.97673,-0.18776,0.0,2023,6,7,17,22,6,689
49.47440,0.00700,0.03255,0.00000,0.03062,0.97649,-0.18873,0.0,2023,6,7,17,22,6,700
49.47450,-0.06300,-0.00245,0.00000,0.03160,0.97795,-0.19117,0.0,2023,6,7,17,22,6,711
49.47460,-0.08050,0.10255,0.00000,0.03331,0.97783,-0.18605,0.0,2023,6,7,17,22,6,722
49.47470,0.02450,-0.17745,0.00000,0.03026,0.97661,-0.18788,0.0,2023,6,7,17,22,6,733
49.47480,-0.15050,0.08505,0.00000,0.03111,0.97771,-0.18959,0.0,2023,6,7,17,22,6,744
49.47490,0.04200,-0.24745,0.00000,0.03270,0.97563,-0.18690,0.0,2023,6,7,17,22,6,755
49.47500,0.05950,0.12005,0.00000,0.02965,0.97942,-0.18873,0.0,2023,6,7,17,22,6,766
49.47510,-0.01050,-0.19495,0.00000,0.03306,0.97734,-0.18715,0.0,2023,6,7,17,22,6,777
49.47520,0.14700,0.01505,0.00000,0.03050,0.97637,-0.18934,0.0,2023,6,7,17,22,6,788
49.47530,0.02450,-0.12495,0.00000,0.03050,0.97478,-0.18983,0.0,2023,6,7,17,22,6,799
49.47540,-0.13300,-0.00245,0.00000,0.03111,0.97637,-0.18910,0.0,2023,6,7,17,22,6,810
49.47550,0.18200,0.01505,0.00000,0.02928,0.97710,-0.18849,0.0,2023,6,7,17,22,6,821
49.47560,0.07700,0.08505,0.00000,0.03001,0.97698,-0.18788,0.0,2023,6,7,17,22,6,832
49.47570,0.05950,-0.05495,0.00000,0.03111,0.97356,-0.18886,0.0,2023,6,7,17,22,6,843
49.47580,0.02450,-0.08995,0.00000,0.03355,0.97795,-0.18910,0.0,2023,6,7,17,22,6,854
49.47590,-0.04550,-0.01995,0.00000,0.02989,0.97637,-0.18654,0.0,2023,6,7,17,22,7,865
49.47600,0.25200,-0.05495,0.00000,0.03026,0.97649,-0.18947,0.0,2023,6,7,17,22,7,876
49.47610,0.00700,-0.05495,0.00000,0.03221,0.97698,-0.19191,0.0,2023,6,7,17,22,7,887
49.47620,0.00700,-0.14245,0.00000,0.03135,0.97527,-0.18764,0.0,2023,6,7,17,22,7,898
49.47630,-0.11550,0.05005,0.00000,0.02940,0.97868,-0.18983,0.0,2023,6,7,17,22,7,909
49.47640,-0.04550,0.27755,0.00000,0.03135,0.97722,-0.18922,0.0,2023,6,7,17,22,7,920
49.47650,0.23450,-0.15995,0.00000,0.03282,0.97710,-0.18861,0.0,2023,6,7,17,22,7,931
49.47660,-0.13300,-0.03745,0.00000,0.03245,0.97563,-0.18739,0.0,2023,6,7,17,22,7,942
49.47670,-0.09800,0.10255,0.00000,0.03489,0.97563,-0.18678,0.0,2023,6,7,17,22,7,953
49.47680,0.04200,0.10255,0.00000,0.03184,0.97563,-0.18947,0.0,2023,6,7,17,22,7,964
49.47690,0.11200,-0.03745,0.00000,0.03196,0.97466,-0.19032,0.0,2023,6,7,17,22,7,975
49.47700,0.09450,0.06755,0.00000,0.03148,0.97551,-0.18886,0.0,2023,6,7,17,22,7,986
49.47710,0.04200,-0.17745,0.00000,0.03270,0.97356,-0.18629,0.0,2023,6,7,17,22,7,997
49.47720,-0.27300,0.13755,0.00000,0.03196,0.97466,-0.18764,0.0,2023,6,7,17,22,7,8
49.47730,-0.16800,-0.19495,0.00000,0.03062,0.97868,-0.18849,0.0,2023,6,7,17,22,7,19
49.47740,0.04200,-0.15995,0.00000,0.03221,0.97710,-0.18812,0.0,2023,6,7,17,22,7,30
49.47750,0.00700,-0.01995,0.00000,0.03477,0.97673,-0.18556,0.0,2023,6,7,17,22,7,41
49.47760,-0.02800,-0.12495,0.00000,0.03209,0.97820,-0.18849,0.0,2023,6,7,17,22,7,52
49.47770,-0.02800,0.05005,0.00000,0.03087,0.97649,-0.19020,0.0,2023,6,7,17,22,7,63
49.47780,-0.11550,-0.12495,0.00000,0.03196,0.97624,-0.18776,0.0,2023,6,7,17,22,7,74
49.47790,-0.06300,-0.07245,0.00000,0.03294,0.97527,-0.19105,0.0,2023,6,7,17,22,7,85
49.47800,-0.09800,0.10255,0.00000,0.03135,0.97661,-0.18959,0.0,2023,6,7,17,22,7,96
49.47810,-0.02800,0.17255,0.00000,0.02904,0.97746,-0.18764,0.0,2023,6,7,17,22,7,107
49.47820,0.12950,-0.19495,0.00000,0.03062,0.97563,-0.18800,0.0,2023,6,7,17,22,7,118
49.47830,-0.06300,-0.10745,0.00000,0.03331,0.97966,-0.18629,0.0,2023,6,7,17,22,7,129
49.47840,-0.16800,0.05005,0.00000,0.03013,0.97637,-0.18849,0.0,2023,6,7,17,22,7,140
49.47850,0.07700,0.12005,0.00000,0.03099,0.97893,-0.18995,0.0,2023,6,7,17,22,7,151
49.47860,-0.02800,0.19005,0.00000,0.03294,0.97746,-0.18825,0.0,2023,6,7,17,22,7,162
49.47870,-0.13300,-0.05495,0.00000,0.03343,0.97722,-0.18605,0.0,2023,6,7,17,22,7,173
49.47880,0.11200,0.10255,0.00000,0.03196,0.97661,-0.18861,0.0,2023,6,7,17,22,7,184
49.47890,-0.02800,0.01505,0.00000,0.03221,0.97563,-0.18788,0.0,2023,6,7,17,22,7,195
49.47900,0.23450,-0.12495,0.00000,0.02989,0.97563,-0.18995,0.0,2023,6,7,17,22,7,206
49.47910,-0.02800,0.15505,0.00000,0.03257,0.97722,-0.18642,0.0,2023,6,7,17,22,7,217
49.47920,-0.06300,-0.10745,0.00000,0.03038,0.97356,-0.18629,0.0,2023,6,7,17,22,7,228
49.47930,0.09450,0.08505,0.00000,0.03087,0.97698,-0.18666,0.0,2023,6,7,17,22,7,239
49.47940,0.07700,-0.03745,0.00000,0.03062,0.97685,-0.18825,0.0,2023,6,7,17,22,7,250
49.47950,0.04200,0.12005,0.00000,0.03001,0.97466,-0.18971,0.0,2023,6,7,17,22,7,261
49.47960,0.02450,0.06755,0.00000,0.03221,0.97783,-0.18825,0.0,2023,6,7,17,22,7,272
49.47970,-0.13300,-0.05495,0.00000,0.03111,0.97490,-0.18556,0.0,2023,6,7,17,22,7,283
49.47980,-0.01050,-0.01995,0.00000,0.03209,0.97466,-0.18788,0.0,2023,6,7,17,22,7,294
49.47990,0.07700,-0.03745,0.00000,0.03209,0.97576,-0.19142,0.0,2023,6,7,17,22,7,305
49.48000,0.00700,0.08505,0.00000,0.03196,0.97698,-0.18715,0.0,2023,6,7,17,22,7,316
49.48010,-0.02800,-0.10745,0.00000,0.03160,0.97893,-0.18703,0.0,2023,6,7,17,22,7,327
49.48020,0.09450,0.10255,0.00000,0.03184,0.97551,-0.18520,0.0,2023,6,7,17,22,7,338
49.48030,-0.08050,0.01505,0.00000,0.03135,0.97576,-0.18800,0.0,2023,6,7,17,22,7,349
49.48040,0.19950,0.17255,0.00000,0.03111,0.97624,-0.18861,0.0,2023,6,7,17,22,7,360
49.48050,-0.04550,0.05005,0.00000,0.03123,0.97405,-0.18727,0.0,2023,6,7,17,22,7,371
49.48060,-0.13300,0.10255,0.00000,0.02830,0.97661,-0.18788,0.0,2023,6,7,17,22,7,382
49.48070,-0.08050,0.06755,0.00000,0.03111,0.97832,-0.18568,0.0,2023,6,7,17,22,7,393
49.48080,0.00700,0.10255,0.00000,0.03111,0.97563,-0.18849,0.0,2023,6,7,17,22,7,404
49.48090,-0.06300,0.13755,0.00000,0.03306,0.97637,-0.18776,0.0,2023,6,7,17,22,7,415
49.48100,-0.01050,-0.00245,0.00000,0.03221,0.97515,-0.18654,0.0,2023,6,7,17,22,7,426
49.48110,-0.16800,0.06755,0.00000,0.03184,0.97710,-0.18556,0.0,2023,6,7,17,22,7,437
49.48120,-0.04550,-0.00245,0.00000,0.02989,0.97637,-0.19020,0.0,2023,6,7,17,22,7,448
49.48130,-0.15050,0.08505,0.00000,0.03148,0.97527,-0.18849,0.0,2023,6,7,17,22,7,459
49.48140,0.00700,0.01505,0.00000,0.03184,0.97612,-0.18751,0.0,2023,6,7,17,22,7,470
49.48150,0.12950,-0.00245,0.00000,0.03099,0.97612,-0.18788,0.0,2023,6,7,17,22,7,481
49.48160,0.12950,0.08505,0.00000,0.03026,0.97551,-0.18605,0.0,2023,6,7,17,22,7,492
49.48170,-0.01050,0.03255,0.00000,0.02891,0.97734,-0.19105,0.0,2023,6,7,17,22,7,503
49.48180,0.05950,0.06755,0.00000,0.03074,0.97661,-0.18898,0.0,2023,6,7,17,22,7,514
49.48190,0.00700,-0.08995,0.00000,0.03074,0.97490,-0.18727,0.0,2023,6,7,17,22,7,525
49.48200,0.04200,0.15505,0.00000,0.03233,0.97466,-0.18947,0.0,2023,6,7,17,22,7,536
49.48210,-0.06300,-0.05495,0.00000,0.03074,0.97698,-0.18776,0.0,2023,6,7,17,22,7,547
49.48220,0.00700,-0.03745,0.00000,0.03148,0.97563,-0.18934,0.0,2023,6,7,17,22,7,558
49.48230,0.11200,-0.19495,0.00000,0.03026,0.97807,-0.18898,0.0,2023,6,7,17,22,7,569
49.48240,0.00700,-0.12495,0.00000,0.03294,0.97722,-0.18642,0.0,2023,6,7,17,22,7,580
49.48250,-0.02800,-0.01995,0.00000,0.03148,0.97746,-0.18800,0.0,2023,6,7,17,22,7,591
49.48260,0.16450,-0.03745,0.00000,0.02879,0.97820,-0.18849,0.0,2023,6,7,17,22,7,602
49.48270,-0.02800,-0.22995,0.00000,0.02855,0.97588,-0.18690,0.0,2023,6,7,17,22,7,613
49.48280,0.07700,-0.35245,0.00000,0.03270,0.97661,-0.18666,0.0,2023,6,7,17,22,7,624
49.48290,0.00700,-0.00245,0.00000,0.02977,0.97685,-0.18678,0.0,2023,6,7,17,22,7,635
49.48300,-0.08050,0.01505,0.00000,0.03111,0.97429,-0.18849,0.0,2023,6,7,17,22,7,646
49.48310,0.11200,-0.03745,0.00000,0.03233,0.97600,-0.18959,0.0,2023,6,7,17,22,7,657
49.48320,0.28700,-0.08995,0.00000,0.03270,0.97527,-0.18471,0.0,2023,6,7,17,22,7,668
49.48330,0.12950,-0.10745,0.00000,0.03172,0.97673,-0.18727,0.0,2023,6,7,17,22,7,679
49.48340,-0.01050,0.06755,0.00000,0.03245,0.97576,-0.19032,0.0,2023,6,7,17,22,7,690
49.48350,0.00700,-0.19495,0.00000,0.03196,0.97673,-0.18788,0.0,2023,6,7,17,22,7,701
49.48360,0.25200,-0.15995,0.00000,0.03062,0.97551,-0.18812,0.0,2023,6,7,17,22,7,712
49.48370,-0.20300,-0.08995,0.00000,0.03306,0.97771,-0.18617,0.0,2023,6,7,17,22,7,723
49.48380,-0.04550,-0.05495,0.00000,0.03282,0.97527,-0.18837,0.0,2023,6,7,17,22,7,734
49.48390,0.19950,-0.21245,0.00000,0.03148,0.97466,-0.18959,0.0,2023,6,7,17,22,7,745
49.48400,-0.01050,-0.19495,0.00000,0.03331,0.97685,-0.18556,0.0,2023,6,7,17,22,7,756
49.48410,-0.11550,-0.03745,0.00000,0.03270,0.97759,-0.18642,0.0,2023,6,7,17,22,7,767
49.48420,-0.06300,0.01505,0.00000,0.03184,0.97673,-0.18812,0.0,2023,6,7,17,22,7,778
49.48430,0.05950,0.10255,0.00000,0.02989,0.97539,-0.18873,0.0,2023,6,7,17,22,7,789
49.48440,-0.01050,-0.03745,0.00000,0.03282,0.97490,-0.18873,0.0,2023,6,7,17,22,7,800
49.48450,-0.13300,0.05005,0.00000,0.03074,0.97783,-0.18812,0.0,2023,6,7,17,22,7,811
49.48460,0.00700,-0.01995,0.00000,0.03172,0.97685,-0.18568,0.0,2023,6,7,17,22,7,822
49.48470,0.02450,0.15505,0.00000,0.03026,0.97661,-0.18776,0.0,2023,6,7,17,22,7,833
49.48480,0.12950,-0.00245,0.00000,0.03221,0.97685,-0.18861,0.0,2023,6,7,17,22,7,844
49.48490,-0.15050,0.08505,0.00000,0.03428,0.97624,-0.18703,0.0,2023,6,7,17,22,8,855
49.48500,-0.06300,0.06755,0.00000,0.03526,0.97929,-0.18678,0.0,2023,6,7,17,22,8,866
49.48510,0.04200,-0.05495,0.00000,0.03172,0.97844,-0.18825,0.0,2023,6,7,17,22,8,877
49.48520,0.11200,-0.17745,0.00000,0.03074,0.97734,-0.18849,0.0,2023,6,7,17,22,8,888
49.48530,-0.04550,-0.08995,0.00000,0.03074,0.97771,-0.18886,0.0,2023,6,7,17,22,8,899
49.48540,0.11200,-0.21245,0.00000,0.03074,0.97698,-0.18703,0.0,2023,6,7,17,22,8,910
49.48550,-0.16800,-0.00245,0.00000,0.02952,0.97478,-0.18983,0.0,2023,6,7,17,22,8,921
49.48560,0.00700,-0.07245,0.00000,0.02733,0.97551,-0.19032,0.0,2023,6,7,17,22,8,932
49.48570,-0.04550,0.06755,0.00000,0.03172,0.97698,-0.18751,0.0,2023,6,7,17,22,8,943
49.48580,0.21700,-0.08995,0.00000,0.03221,0.97783,-0.18678,0.0,2023,6,7,17,22,8,954
49.48590,0.12950,-0.15995,0.00000,0.03172,0.97722,-0.18959,0.0,2023,6,7,17,22,8,965
49.48600,-0.01050,0.17255,0.00000,0.03148,0.97551,-0.18861,0.0,2023,6,7,17,22,8,976
49.48610,0.12950,-0.05495,0.00000,0.02952,0.97637,-0.18739,0.0,2023,6,7,17,22,8,987
49.48620,-0.13300,-0.03745,0.00000,0.02977,0.97759,-0.18739,0.0,2023,6,7,17,22,8,998
49.48630,0.04200,-0.14245,0.00000,0.03050,0.97600,-0.18910,0.0,2023,6,7,17,22,8,9
49.48640,-0.01050,0.05005,0.00000,0.03294,0.97502,-0.18825,0.0,2023,6,7,17,22,8,20
49.48650,-0.18550,-0.00245,0.00000,0.02977,0.97612,-0.19044,0.0,2023,6,7,17,22,8,31
49.48660,0.02450,0.10255,0.00000,0.03135,0.97673,-0.18556,0.0,2023,6,7,17,22,8,42
49.48670,0.19950,-0.03745,0.00000,0.02940,0.97905,-0.19081,0.0,2023,6,7,17,22,8,53
49.48680,0.05950,-0.03745,0.00000,0.03343,0.97783,-0.18800,0.0,2023,6,7,17,22,8,64
49.48690,-0.06300,0.03255,0.00000,0.03245,0.97502,-0.18422,0.0,2023,6,7,17,22,8,75
49.48700,0.05950,-0.19495,0.00000,0.03172,0.97673,-0.18532,0.0,2023,6,7,17,22,8,86
49.48710,-0.09800,-0.10745,0.00000,0.03160,0.97844,-0.18617,0.0,2023,6,7,17,22,8,97
49.48720,-0.09800,-0.01995,0.00000,0.03343,0.97661,-0.18849,0.0,2023,6,7,17,22,8,108
49.48730,0.04200,0.03255,0.00000,0.03245,0.97844,-0.18642,0.0,2023,6,7,17,22,8,119
49.48740,0.04200,-0.17745,0.00000,0.03172,0.97527,-0.18654,0.0,2023,6,7,17,22,8,130
49.48750,0.02450,-0.19495,0.00000,0.03392,0.97698,-0.19276,0.0,2023,6,7,17,22,8,141
49.48760,0.28700,-0.03745,0.00000,0.03135,0.97783,-0.19056,0.0,2023,6,7,17,22,8,152
49.48770,-0.02800,-0.17745,0.00000,0.03294,0.97454,-0.19130,0.0,2023,6,7,17,22,8,163
49.48780,0.18200,0.01505,0.00000,0.03148,0.97502,-0.18629,0.0,2023,6,7,17,22,8,174
49.48790,-0.08050,0.01505,0.00000,0.02952,0.97698,-0.18873,0.0,2023,6,7,17,22,8,185
49.48800,-0.09800,0.10255,0.00000,0.03074,0.97490,-0.18825,0.0,2023,6,7,17,22,8,196
49.48810,-0.01050,0.03255,0.00000,0.03196,0.97710,-0.18788,0.0,2023,6,7,17,22,8,207
49.48820,-0.04550,-0.01995,0.00000,0.03184,0.97759,-0.18703,0.0,2023,6,7,17,22,8,218
49.48830,-0.01050,0.13755,0.00000,0.03172,0.97917,-0.18971,0.0,2023,6,7,17,22,8,229
49.48840,0.09450,-0.07245,0.00000,0.03318,0.97734,-0.18922,0.0,2023,6,7,17,22,8,240
49.48850,-0.04550,-0.12495,0.00000,0.03160,0.97698,-0.18800,0.0,2023,6,7,17,22,8,251
49.48860,0.02450,0.01505,0.00000,0.03209,0.97661,-0.18715,0.0,2023,6,7,17,22,8,262
49.48870,0.04200,-0.00245,0.00000,0.02989,0.97820,-0.18849,0.0,2023,6,7,17,22,8,273
49.48880,-0.02800,0.08505,0.00000,0.03257,0.97612,-0.18825,0.0,2023,6,7,17,22,8,284
49.48890,0.00700,-0.05495,0.00000,0.03160,0.97673,-0.18678,0.0,2023,6,7,17,22,8,295
49.48900,-0.04550,0.13755,0.00000,0.03379,0.97698,-0.18922,0.0,2023,6,7,17,22,8,306
49.48910,-0.18550,0.01505,0.00000,0.03270,0.97624,-0.19056,0.0,2023,6,7,17,22,8,317
49.48920,0.14700,0.12005,0.00000,0.03209,0.97844,-0.18861,0.0,2023,6,7,17,22,8,328
49.48930,0.00700,0.03255,0.00000,0.03233,0.97673,-0.18678,0.0,2023,6,7,17,22,8,339
49.48940,0.07700,-0.03745,0.00000,0.03099,0.97710,-0.18703,0.0,2023,6,7,17,22,8,350
49.48950,-0.15050,0.13755,0.00000,0.03135,0.97734,-0.18495,0.0,2023,6,7,17,22,8,361
49.48960,-0.13300,0.24255,0.00000,0.03099,0.97551,-0.18922,0.0,2023,6,7,17,22,8,372
49.48970,-0.16800,0.03255,0.00000,0.03233,0.97600,-0.18751,0.0,2023,6,7,17,22,8,383
49.48980,-0.18550,-0.05495,0.00000,0.03050,0.97844,-0.18776,0.0,2023,6,7,17,22,8,394
49.48990,-0.22050,0.03255,0.00000,0.03453,0.97515,-0.18886,0.0,2023,6,7,17,22,8,405
49.49000,-0.13300,0.12005,0.00000,0.03306,0.97563,-0.18861,0.0,2023,6,7,17,22,8,416
49.49010,0.07700,-0.14245,0.00000,0.03367,0.97612,-0.18629,0.0,2023,6,7,17,22,8,427
49.49020,-0.02800,-0.10745,0.00000,0.03209,0.97563,-0.18898,0.0,2023,6,7,17,22,8,438
49.49030,-0.01050,0.15505,0.00000,0.03050,0.97661,-0.18849,0.0,2023,6,7,17,22,8,449
49.49040,-0.01050,0.17255,0.00000,0.02989,0.97820,-0.18837,0.0,2023,6,7,17,22,8,460
49.49050,0.00700,-0.08995,0.00000,0.03074,0.97539,-0.18788,0.0,2023,6,7,17,22,8,471
49.49060,0.16450,-0.03745,0.00000,0.03087,0.97417,-0.18715,0.0,2023,6,7,17,22,8,482
49.49070,-0.11550,-0.05495,0.00000,0.03404,0.97734,-0.18764,0.0,2023,6,7,17,22,8,493
49.49080,-0.11550,0.05005,0.00000,0.03074,0.97576,-0.18849,0.0,2023,6,7,17,22,8,504
49.49090,0.23450,-0.01995,0.00000,0.03026,0.97527,-0.18837,0.0,2023,6,7,17,22,8,515
49.49100,-0.02800,-0.00245,0.00000,0.03026,0.97588,-0.18800,0.0,2023,6,7,17,22,8,526
49.49110,-0.15050,0.03255,0.00000,0.02989,0.97600,-0.18800,0.0,2023,6,7,17,22,8,537
49.49120,-0.06300,0.10255,0.00000,0.02879,0.97661,-0.18934,0.0,2023,6,7,17,22,8,548
49.49130,-0.01050,-0.08995,0.00000,0.03221,0.97612,-0.18825,0.0,2023,6,7,17,22,8,559
49.49140,-0.04550,0.17255,0.00000,0.03209,0.97661,-0.18666,0.0,2023,6,7,17,22,8,570
49.49150,-0.08050,-0.17745,0.00000,0.03172,0.97856,-0.18788,0.0,2023,6,7,17,22,8,581
49.49160,0.12950,-0.05495,0.00000,0.02916,0.97783,-0.18861,0.0,2023,6,7,17,22,8,592
49.49170,0.04200,0.36505,0.00000,0.02916,0.97698,-0.18837,0.0,2023,6,7,17,22,8,603
49.49180,-0.01050,0.29505,0.00000,0.03233,0.97868,-0.18971,0.0,2023,6,7,17,22,8,614
49.49190,-0.06300,0.15505,0.00000,0.03062,0.97624,-0.18873,0.0,2023,6,7,17,22,8,625
49.49200,0.07700,-0.26495,0.00000,0.03221,0.97685,-0.18959,0.0,2023,6,7,17,22,8,636
49.49210,0.19950,-0.07245,0.00000,0.03111,0.97588,-0.19020,0.0,2023,6,7,17,22,8,647
49.49220,0.04200,-0.14245,0.00000,0.02989,0.97551,-0.18690,0.0,2023,6,7,17,22,8,658
49.49230,0.02450,-0.05495,0.00000,0.03160,0.97710,-0.18800,0.0,2023,6,7,17,22,8,669
49.49240,-0.02800,0.05005,0.00000,0.02965,0.97551,-0.18971,0.0,2023,6,7,17,22,8,680
49.49250,-0.23800,0.13755,0.00000,0.03038,0.97734,-0.18922,0.0,2023,6,7,17,22,8,691
49.49260,0.16450,-0.10745,0.00000,0.03123,0.97698,-0.18971,0.0,2023,6,7,17,22,8,702
49.49270,-0.16800,0.06755,0.00000,0.03257,0.97637,-0.18666,0.0,2023,6,7,17,22,8,713
49.49280,-0.04550,0.26005,0.00000,0.03428,0.97868,-0.18800,0.0,2023,6,7,17,22,8,724
49.49290,0.37450,-0.03745,0.00000,0.03013,0.97820,-0.18800,0.0,2023,6,7,17,22,8,735
49.49300,0.16450,0.06755,0.00000,0.03074,0.97490,-0.18629,0.0,2023,6,7,17,22,8,746
49.49310,-0.01050,0.08505,0.00000,0.03099,0.97624,-0.18934,0.0,2023,6,7,17,22,8,757
49.49320,0.21700,-0.08995,0.00000,0.03257,0.97685,-0.18886,0.0,2023,6,7,17,22,8,768
49.49330,-0.15050,-0.08995,0.00000,0.02940,0.97771,-0.18861,0.0,2023,6,7,17,22,8,779
49.49340,-0.09800,0.01505,0.00000,0.03148,0.97698,-0.19093,0.0,2023,6,7,17,22,8,790
49.49350,0.12950,0.12005,0.00000,0.03148,0.97393,-0.18678,0.0,2023,6,7,17,22,8,801
49.49360,0.02450,-0.00245,0.00000,0.03196,0.97698,-0.18837,0.0,2023,6,7,17,22,8,812
49.49370,0.14700,-0.08995,0.00000,0.03221,0.97734,-0.18678,0.0,2023,6,7,17,22,8,823
49.49380,-0.11550,-0.10745,0.00000,0.03001,0.97698,-0.18605,0.0,2023,6,7,17,22,8,834
49.49390,0.05950,-0.08995,0.00000,0.03135,0.97722,-0.18727,0.0,2023,6,7,17,22,8,845
49.49400,0.14700,0.12005,0.00000,0.03148,0.97649,-0.18934,0.0,2023,6,7,17,22,9,856
49.49410,-0.16800,0.03255,0.00000,0.03306,0.97722,-0.18739,0.0,2023,6,7,17,22,9,867
49.49420,0.16450,0.03255,0.00000,0.03123,0.97844,-0.19154,0.0,2023,6,7,17,22,9,878
49.49430,-0.01050,0.19005,0.00000,0.03123,0.97698,-0.18825,0.0,2023,6,7,17,22,9,889
49.49440,0.00700,-0.05495,0.00000,0.03282,0.97600,-0.18605,0.0,2023,6,7,17,22,9,900
49.49450,-0.08050,-0.08995,0.00000,0.03013,0.97405,-0.18849,0.0,2023,6,7,17,22,9,911
49.49460,0.00700,-0.15995,0.00000,0.03062,0.97502,-0.18971,0.0,2023,6,7,17,22,9,922
