#2023/06/07 16:35:41
time,wx,wy,wz,ax,ay,az,yy,MM,dd,hh,mm,ss,ms
46.27610,-0.21700,0.10027,0.00000,0.03257,0.97624,-0.19374,0.0,2023,6,7,16,35,42,175
46.27620,-0.26950,-0.17972,0.00000,0.02965,0.97612,-0.19178,0.0,2023,6,7,16,35,42,187
46.27630,-0.12950,-0.00472,0.00000,0.02818,0.97405,-0.19056,0.0,2023,6,7,16,35,42,198
46.27640,0.06300,-0.10973,0.00000,0.03111,0.97771,-0.19239,0.0,2023,6,7,16,35,42,209
46.27650,-0.07700,0.01278,0.00000,0.03221,0.97576,-0.18934,0.0,2023,6,7,16,35,42,221
46.27660,-0.09450,0.17028,0.00000,0.02989,0.97600,-0.19154,0.0,2023,6,7,16,35,42,232
46.27670,0.18550,-0.02222,0.00000,0.03062,0.97588,-0.19361,0.0,2023,6,7,16,35,42,243
46.27680,0.06300,-0.07472,0.00000,0.03026,0.97624,-0.19264,0.0,2023,6,7,16,35,42,255
46.27690,-0.00700,0.08277,0.00000,0.03160,0.97637,-0.19337,0.0,2023,6,7,16,35,42,266
46.27700,-0.02450,0.03028,0.00000,0.03172,0.97917,-0.19154,0.0,2023,6,7,16,35,42,277
46.27710,0.01050,-0.05722,0.00000,0.03196,0.97478,-0.18947,0.0,2023,6,7,16,35,42,288
46.27720,0.01050,0.10027,0.00000,0.03087,0.97551,-0.18983,0.0,2023,6,7,16,35,42,300
46.27730,0.08050,-0.09223,0.00000,0.02965,0.97563,-0.19191,0.0,2023,6,7,16,35,42,311
46.27740,-0.02450,0.20528,0.00000,0.03245,0.97661,-0.19215,0.0,2023,6,7,16,35,42,322
46.27750,-0.05950,0.10027,0.00000,0.03184,0.97539,-0.19239,0.0,2023,6,7,16,35,42,334
46.27760,-0.18200,0.06527,0.00000,0.03233,0.97734,-0.19105,0.0,2023,6,7,16,35,42,345
46.27770,0.02800,0.01278,0.00000,0.03148,0.97710,-0.19398,0.0,2023,6,7,16,35,42,356
46.27780,0.01050,0.04778,0.00000,0.03209,0.97759,-0.19044,0.0,2023,6,7,16,35,42,368
46.27790,-0.04200,0.15278,0.00000,0.02977,0.97698,-0.19142,0.0,2023,6,7,16,35,42,379
46.27800,-0.12950,-0.00472,0.00000,0.03184,0.97429,-0.18849,0.0,2023,6,7,16,35,42,390
46.27810,0.13300,0.01278,0.00000,0.03123,0.97502,-0.19044,0.0,2023,6,7,16,35,42,401
46.27820,0.02800,0.18778,0.00000,0.02867,0.97722,-0.19154,0.0,2023,6,7,16,35,42,413
46.27830,0.08050,-0.03972,0.00000,0.03062,0.97612,-0.19313,0.0,2023,6,7,16,35,42,424
46.27840,-0.12950,0.11777,0.00000,0.03184,0.97685,-0.18983,0.0,2023,6,7,16,35,42,435
46.27850,0.06300,0.06527,0.00000,0.03245,0.97649,-0.19239,0.0,2023,6,7,16,35,42,447
46.27860,0.01050,-0.09223,0.00000,0.02952,0.97710,-0.19117,0.0,2023,6,7,16,35,42,458
46.27870,-0.07700,-0.24972,0.00000,0.03148,0.97673,-0.19130,0.0,2023,6,7,16,35,42,469
46.27880,-0.09450,-0.23222,0.00000,0.03172,0.97795,-0.19081,0.0,2023,6,7,16,35,42,481
46.27890,-0.09450,0.18778,0.00000,0.03184,0.97759,-0.19105,0.0,2023,6,7,16,35,42,492
46.27900,0.01050,-0.02222,0.00000,0.02794,0.97612,-0.19105,0.0,2023,6,7,16,35,42,503
46.27910,-0.07700,0.08277,0.00000,0.03196,0.97551,-0.19361,0.0,2023,6,7,16,35,42,514
46.27920,-0.12950,0.04778,0.00000,0.03050,0.97539,-0.19191,0.0,2023,6,7,16,35,42,526
46.27930,-0.23450,-0.05722,0.00000,0.03233,0.97637,-0.18995,0.0,2023,6,7,16,35,42,537
46.27940,0.13300,-0.19722,0.00000,0.03099,0.97734,-0.19178,0.0,2023,6,7,16,35,42,548
46.27950,0.08050,-0.03972,0.00000,0.02855,0.97600,-0.19130,0.0,2023,6,7,16,35,42,560
46.27960,0.04550,0.10027,0.00000,0.03184,0.97441,-0.18971,0.0,2023,6,7,16,35,42,571
46.27970,0.08050,0.08277,0.00000,0.03209,0.97515,-0.18995,0.0,2023,6,7,16,35,42,582
46.27980,-0.07700,-0.02222,0.00000,0.03148,0.97624,-0.18837,0.0,2023,6,7,16,35,42,594
46.27990,-0.02450,-0.07472,0.00000,0.03306,0.97637,-0.18971,0.0,2023,6,7,16,35,42,605
46.28000,0.08050,0.18778,0.00000,0.03099,0.97576,-0.18959,0.0,2023,6,7,16,35,42,616
46.28010,-0.07700,-0.03972,0.00000,0.03074,0.97588,-0.19264,0.0,2023,6,7,16,35,42,627
46.28020,-0.00700,0.01278,0.00000,0.03270,0.97563,-0.18971,0.0,2023,6,7,16,35,42,639
46.28030,-0.04200,-0.16223,0.00000,0.03050,0.97588,-0.19239,0.0,2023,6,7,16,35,42,650
46.28040,0.08050,0.03028,0.00000,0.03074,0.97563,-0.19166,0.0,2023,6,7,16,35,42,661
46.28050,-0.00700,-0.02222,0.00000,0.03099,0.97576,-0.19142,0.0,2023,6,7,16,35,42,673
46.28060,0.04550,-0.12723,0.00000,0.03233,0.97661,-0.19081,0.0,2023,6,7,16,35,42,684
46.28070,0.15050,0.04778,0.00000,0.03013,0.97759,-0.19264,0.0,2023,6,7,16,35,42,695
46.28080,0.06300,-0.07472,0.00000,0.03245,0.97698,-0.19130,0.0,2023,6,7,16,35,42,707
46.28090,0.13300,-0.05722,0.00000,0.03135,0.97637,-0.18947,0.0,2023,6,7,16,35,42,718
46.28100,-0.19950,-0.03972,0.00000,0.03123,0.97771,-0.18971,0.0,2023,6,7,16,35,42,729
46.28110,0.08050,0.11777,0.00000,0.02928,0.97551,-0.19056,0.0,2023,6,7,16,35,42,740
46.28120,0.16800,-0.09223,0.00000,0.02904,0.97685,-0.19276,0.0,2023,6,7,16,35,42,752
46.28130,0.04550,-0.00472,0.00000,0.02952,0.97746,-0.19093,0.0,2023,6,7,16,35,42,763
46.28140,0.04550,0.03028,0.00000,0.03196,0.97820,-0.19252,0.0,2023,6,7,16,35,42,774
46.28150,-0.07700,0.08277,0.00000,0.03172,0.97539,-0.18959,0.0,2023,6,7,16,35,42,786
46.28160,0.13300,-0.02222,0.00000,0.03160,0.97441,-0.18886,0.0,2023,6,7,16,35,42,797
46.28170,0.25550,0.03028,0.00000,0.03038,0.97441,-0.19117,0.0,2023,6,7,16,35,42,808
46.28180,-0.12950,-0.07472,0.00000,0.03074,0.97844,-0.19191,0.0,2023,6,7,16,35,42,820
46.28190,-0.02450,0.01278,0.00000,0.03184,0.97771,-0.19020,0.0,2023,6,7,16,35,42,831
46.28200,-0.02450,0.04778,0.00000,0.03111,0.97624,-0.19032,0.0,2023,6,7,16,35,42,842
46.28210,-0.04200,-0.07472,0.00000,0.03062,0.97673,-0.18995,0.0,2023,6,7,16,35,42,853
46.28220,-0.14700,-0.14473,0.00000,0.03184,0.97673,-0.19166,0.0,2023,6,7,16,35,42,865
46.28230,-0.02450,0.11777,0.00000,0.03209,0.97710,-0.19008,0.0,2023,6,7,16,35,42,876
46.28240,-0.09450,0.13528,0.00000,0.03123,0.97624,-0.18764,0.0,2023,6,7,16,35,42,887
46.28250,0.01050,0.11777,0.00000,0.03074,0.97746,-0.18873,0.0,2023,6,7,16,35,42,899
46.28260,-0.05950,-0.19722,0.00000,0.02952,0.97527,-0.18873,0.0,2023,6,7,16,35,42,910
46.28270,0.27300,0.04778,0.00000,0.03135,0.97624,-0.19105,0.0,2023,6,7,16,35,42,921
46.28280,-0.07700,0.15278,0.00000,0.03184,0.97490,-0.19313,0.0,2023,6,7,16,35,42,933
46.28290,-0.16450,-0.02222,0.00000,0.02891,0.97478,-0.18886,0.0,2023,6,7,16,35,42,944
46.28300,0.20300,-0.07472,0.00000,0.03038,0.97405,-0.19191,0.0,2023,6,7,16,35,42,955
46.28310,0.04550,0.11777,0.00000,0.03074,0.97600,-0.18873,0.0,2023,6,7,16,35,42,966
46.28320,-0.04200,0.01278,0.00000,0.03196,0.97515,-0.19191,0.0,2023,6,7,16,35,42,978
46.28330,0.01050,-0.00472,0.00000,0.02940,0.97600,-0.19081,0.0,2023,6,7,16,35,42,989
46.28340,0.01050,-0.02222,0.00000,0.03196,0.97600,-0.19093,0.0,2023,6,7,16,35,43,0
46.28350,0.18550,-0.24972,0.00000,0.03172,0.97502,-0.18947,0.0,2023,6,7,16,35,43,12
46.28360,-0.09450,0.11777,0.00000,0.03050,0.97612,-0.19215,0.0,2023,6,7,16,35,43,23
46.28370,0.13300,0.25778,0.00000,0.02891,0.97588,-0.19191,0.0,2023,6,7,16,35,43,34
46.28380,0.06300,0.03028,0.00000,0.03074,0.97551,-0.19166,0.0,2023,6,7,16,35,43,46
46.28390,0.04550,0.15278,0.00000,0.03196,0.97685,-0.18959,0.0,2023,6,7,16,35,43,57
46.28400,-0.02450,0.11777,0.00000,0.02940,0.97661,-0.19069,0.0,2023,6,7,16,35,43,68
46.28410,-0.04200,0.10027,0.00000,0.03062,0.97734,-0.19203,0.0,2023,6,7,16,35,43,79
46.28420,-0.07700,-0.14473,0.00000,0.03184,0.97344,-0.19264,0.0,2023,6,7,16,35,43,91
46.28430,-0.02450,-0.14473,0.00000,0.03026,0.97637,-0.19203,0.0,2023,6,7,16,35,43,102
46.28440,0.06300,-0.09223,0.00000,0.03001,0.97624,-0.19178,0.0,2023,6,7,16,35,43,113
46.28450,0.22050,-0.09223,0.00000,0.03099,0.97624,-0.18898,0.0,2023,6,7,16,35,43,125
46.28460,0.09800,0.01278,0.00000,0.02891,0.97637,-0.19178,0.0,2023,6,7,16,35,43,136
46.28470,-0.00700,-0.02222,0.00000,0.03026,0.97771,-0.19032,0.0,2023,6,7,16,35,43,147
46.28480,-0.18200,0.18778,0.00000,0.03074,0.97600,-0.19044,0.0,2023,6,7,16,35,43,159
46.28490,-0.09450,0.08277,0.00000,0.03001,0.97661,-0.18849,0.0,2023,6,7,16,35,43,170
46.28500,-0.04200,0.06527,0.00000,0.02916,0.97661,-0.19117,0.0,2023,6,7,16,35,43,181
46.28510,0.29050,-0.00472,0.00000,0.03111,0.97563,-0.19252,0.0,2023,6,7,16,35,43,192
46.28520,0.08050,-0.03972,0.00000,0.03184,0.97734,-0.19191,0.0,2023,6,7,16,35,43,204
46.28530,0.34300,-0.31973,0.00000,0.03135,0.97380,-0.19081,0.0,2023,6,7,16,35,43,215
46.28540,-0.02450,-0.05722,0.00000,0.03123,0.97441,-0.19227,0.0,2023,6,7,16,35,43,226
46.28550,0.06300,0.01278,0.00000,0.03209,0.97685,-0.19032,0.0,2023,6,7,16,35,43,238
46.28560,-0.07700,0.03028,0.00000,0.02977,0.97710,-0.19105,0.0,2023,6,7,16,35,43,249
46.28570,-0.02450,-0.00472,0.00000,0.03148,0.97759,-0.19105,0.0,2023,6,7,16,35,43,260
46.28580,-0.04200,0.03028,0.00000,0.02989,0.97637,-0.19093,0.0,2023,6,7,16,35,43,272
46.28590,-0.09450,-0.07472,0.00000,0.03013,0.97612,-0.19130,0.0,2023,6,7,16,35,43,283
46.28600,-0.00700,-0.07472,0.00000,0.03331,0.97576,-0.19069,0.0,2023,6,7,16,35,43,294
46.28610,0.02800,-0.03972,0.00000,0.02928,0.97454,-0.19264,0.0,2023,6,7,16,35,43,305
46.28620,0.04550,-0.10973,0.00000,0.03001,0.97698,-0.18983,0.0,2023,6,7,16,35,43,317
46.28630,0.04550,-0.14473,0.00000,0.03038,0.97612,-0.19008,0.0,2023,6,7,16,35,43,328
46.28640,-0.19950,0.32777,0.00000,0.03062,0.97551,-0.18910,0.0,2023,6,7,16,35,43,339
46.28650,0.25550,-0.23222,0.00000,0.03148,0.97661,-0.18849,0.0,2023,6,7,16,35,43,351
46.28660,0.09800,-0.03972,0.00000,0.03111,0.97661,-0.19215,0.0,2023,6,7,16,35,43,362
46.28670,-0.12950,-0.03972,0.00000,0.02904,0.97563,-0.19361,0.0,2023,6,7,16,35,43,373
46.28680,-0.11200,-0.02222,0.00000,0.03074,0.97698,-0.19020,0.0,2023,6,7,16,35,43,385
46.28690,-0.04200,0.13528,0.00000,0.03074,0.97722,-0.18959,0.0,2023,6,7,16,35,43,396
46.28700,-0.00700,0.01278,0.00000,0.03062,0.97563,-0.18922,0.0,2023,6,7,16,35,43,407
46.28710,0.04550,0.04778,0.00000,0.03233,0.97417,-0.19288,0.0,2023,6,7,16,35,43,418
46.28720,0.01050,0.11777,0.00000,0.02855,0.97649,-0.19130,0.0,2023,6,7,16,35,43,430
46.28730,-0.18200,0.18778,0.00000,0.03026,0.97490,-0.19252,0.0,2023,6,7,16,35,43,441
46.28740,-0.12950,0.25778,0.00000,0.03587,0.98735,-0.19727,0.0,2023,6,7,16,35,43,452
46.28750,0.01050,0.11777,0.00000,0.03428,0.97868,-0.19337,0.0,2023,6,7,16,35,43,464
46.28760,0.02800,-0.12723,0.00000,0.02794,0.98039,-0.18873,0.0,2023,6,7,16,35,43,475
46.28770,-0.11200,0.01278,0.00000,0.03074,0.97917,-0.19166,0.0,2023,6,7,16,35,43,486
46.28780,0.06300,-0.02222,0.00000,0.03013,0.97356,-0.19398,0.0,2023,6,7,16,35,43,498
46.28790,-0.16450,-0.07472,0.00000,0.03221,0.97429,-0.19154,0.0,2023,6,7,16,35,43,509
46.28800,0.16800,0.04778,0.00000,0.03123,0.97380,-0.19203,0.0,2023,6,7,16,35,43,520
46.28810,0.13300,0.04778,0.00000,0.03087,0.97454,-0.19422,0.0,2023,6,7,16,35,43,531
46.28820,-0.16450,-0.02222,0.00000,0.03123,0.97539,-0.19252,0.0,2023,6,7,16,35,43,543
46.28830,-0.05950,0.04778,0.00000,0.02965,0.97466,-0.19252,0.0,2023,6,7,16,35,43,554
46.28840,-0.00700,0.29277,0.00000,0.02818,0.97515,-0.19032,0.0,2023,6,7,16,35,43,565
46.28850,-0.12950,0.10027,0.00000,0.02818,0.97771,-0.19142,0.0,2023,6,7,16,35,43,577
46.28860,0.11550,0.01278,0.00000,0.03209,0.97710,-0.19215,0.0,2023,6,7,16,35,43,588
46.28870,-0.00700,-0.09223,0.00000,0.02916,0.97746,-0.18922,0.0,2023,6,7,16,35,43,599
46.28880,0.06300,0.10027,0.00000,0.03062,0.97515,-0.19191,0.0,2023,6,7,16,35,43,611
46.28890,0.15050,0.11777,0.00000,0.03355,0.97539,-0.19264,0.0,2023,6,7,16,35,43,622
46.28900,0.04550,0.15278,0.00000,0.02879,0.97441,-0.19300,0.0,2023,6,7,16,35,43,633
46.28910,0.23800,-0.19722,0.00000,0.03087,0.97722,-0.19044,0.0,2023,6,7,16,35,43,644
46.28920,-0.11200,0.03028,0.00000,0.03074,0.97478,-0.19239,0.0,2023,6,7,16,35,43,656
46.28930,-0.04200,0.03028,0.00000,0.03257,0.97588,-0.19044,0.0,2023,6,7,16,35,43,667
46.28940,0.09800,-0.05722,0.00000,0.03331,0.97759,-0.19093,0.0,2023,6,7,16,35,43,678
46.28950,-0.19950,-0.00472,0.00000,0.03038,0.97685,-0.19374,0.0,2023,6,7,16,35,43,690
46.28960,0.02800,-0.02222,0.00000,0.02965,0.97368,-0.19032,0.0,2023,6,7,16,35,43,701
46.28970,0.02800,0.04778,0.00000,0.03026,0.97576,-0.19227,0.0,2023,6,7,16,35,43,712
46.28980,-0.00700,-0.14473,0.00000,0.02952,0.97576,-0.19264,0.0,2023,6,7,16,35,43,724
46.28990,0.08050,-0.07472,0.00000,0.03172,0.97832,-0.19166,0.0,2023,6,7,16,35,43,735
46.29000,-0.25200,0.11777,0.00000,0.03148,0.97661,-0.18934,0.0,2023,6,7,16,35,43,746
46.29010,0.04550,-0.16223,0.00000,0.03087,0.97673,-0.18922,0.0,2023,6,7,16,35,43,757
46.29020,0.01050,-0.09223,0.00000,0.03050,0.97454,-0.19093,0.0,2023,6,7,16,35,43,769
46.29030,0.02800,0.03028,0.00000,0.03123,0.97576,-0.19349,0.0,2023,6,7,16,35,43,780
46.29040,-0.11200,0.10027,0.00000,0.02940,0.97771,-0.19178,0.0,2023,6,7,16,35,43,791
46.29050,-0.12950,0.24028,0.00000,0.03306,0.97405,-0.19008,0.0,2023,6,7,16,35,43,803
46.29060,-0.02450,0.18778,0.00000,0.03001,0.97685,-0.19130,0.0,2023,6,7,16,35,43,814
46.29070,-0.02450,0.24028,0.00000,0.03111,0.97771,-0.19191,0.0,2023,6,7,16,35,43,825
46.29080,-0.02450,0.01278,0.00000,0.03306,0.97478,-0.19081,0.0,2023,6,7,16,35,43,837
46.29090,-0.12950,-0.02222,0.00000,0.03099,0.97576,-0.19093,0.0,2023,6,7,16,35,43,848
46.29100,0.15050,0.18778,0.00000,0.02965,0.97588,-0.19252,0.0,2023,6,7,16,35,43,859
46.29110,-0.05950,0.04778,0.00000,0.03196,0.97685,-0.19130,0.0,2023,6,7,16,35,43,870
46.29120,0.01050,-0.07472,0.00000,0.02965,0.97722,-0.19288,0.0,2023,6,7,16,35,43,882
46.29130,-0.04200,0.10027,0.00000,0.03294,0.97466,-0.19166,0.0,2023,6,7,16,35,43,893
46.29140,-0.09450,-0.19722,0.00000,0.03062,0.97673,-0.19130,0.0,2023,6,7,16,35,43,904
46.29150,0.06300,0.06527,0.00000,0.03160,0.97673,-0.19239,0.0,2023,6,7,16,35,43,916
46.29160,-0.12950,-0.00472,0.00000,0.03148,0.97673,-0.19117,0.0,2023,6,7,16,35,43,927
46.29170,-0.18200,-0.03972,0.00000,0.02867,0.97637,-0.19069,0.0,2023,6,7,16,35,43,938
46.29180,-0.02450,-0.05722,0.00000,0.03062,0.97905,-0.19252,0.0,2023,6,7,16,35,43,950
46.29190,0.06300,0.15278,0.00000,0.03099,0.97539,-0.18971,0.0,2023,6,7,16,35,43,961
46.29200,0.06300,0.10027,0.00000,0.02891,0.97393,-0.19154,0.0,2023,6,7,16,35,43,972
46.29210,0.09800,-0.00472,0.00000,0.03123,0.97966,-0.19191,0.0,2023,6,7,16,35,43,983
46.29220,0.06300,-0.05722,0.00000,0.03050,0.97588,-0.19337,0.0,2023,6,7,16,35,43,995
46.29230,0.04550,-0.17972,0.00000,0.02891,0.97734,-0.19093,0.0,2023,6,7,16,35,43,6
46.29240,0.06300,-0.07472,0.00000,0.02989,0.97551,-0.19264,0.0,2023,6,7,16,35,44,7
46.29250,0.09800,0.04778,0.00000,0.03013,0.97698,-0.18934,0.0,2023,6,7,16,35,44,19
46.29260,0.01050,-0.28472,0.00000,0.03074,0.97746,-0.19239,0.0,2023,6,7,16,35,44,30
46.29270,0.09800,-0.05722,0.00000,0.03209,0.97405,-0.18910,0.0,2023,6,7,16,35,44,41
46.29280,0.11550,-0.07472,0.00000,0.03148,0.97673,-0.19020,0.0,2023,6,7,16,35,44,53
46.29290,0.01050,0.11777,0.00000,0.02965,0.97600,-0.18995,0.0,2023,6,7,16,35,44,64
46.29300,0.01050,-0.07472,0.00000,0.02952,0.97576,-0.19300,0.0,2023,6,7,16,35,44,75
46.29310,-0.05950,-0.00472,0.00000,0.03111,0.97661,-0.19032,0.0,2023,6,7,16,35,44,86
46.29320,-0.21700,0.03028,0.00000,0.03184,0.97502,-0.18934,0.0,2023,6,7,16,35,44,98
46.29330,-0.09450,-0.00472,0.00000,0.03257,0.97600,-0.19191,0.0,2023,6,7,16,35,44,109
46.29340,0.02800,-0.05722,0.00000,0.03184,0.97710,-0.19215,0.0,2023,6,7,16,35,44,120
46.29350,-0.04200,0.04778,0.00000,0.03318,0.97624,-0.19288,0.0,2023,6,7,16,35,44,132
46.29360,0.06300,0.25778,0.00000,0.03050,0.97771,-0.19276,0.0,2023,6,7,16,35,44,143
46.29370,-0.14700,0.11777,0.00000,0.03196,0.97466,-0.19056,0.0,2023,6,7,16,35,44,154
46.29380,0.06300,-0.10973,0.00000,0.02904,0.97466,-0.19239,0.0,2023,6,7,16,35,44,166
46.29390,0.02800,-0.02222,0.00000,0.02952,0.97600,-0.19117,0.0,2023,6,7,16,35,44,177
46.29400,0.09800,-0.05722,0.00000,0.03062,0.97746,-0.19130,0.0,2023,6,7,16,35,44,188
46.29410,0.08050,-0.02222,0.00000,0.03135,0.97502,-0.19361,0.0,2023,6,7,16,35,44,199
46.29420,-0.05950,0.15278,0.00000,0.03074,0.97563,-0.19191,0.0,2023,6,7,16,35,44,211
46.29430,-0.07700,0.10027,0.00000,0.03026,0.97661,-0.19215,0.0,2023,6,7,16,35,44,222
46.29440,-0.05950,0.15278,0.00000,0.03111,0.97722,-0.19105,0.0,2023,6,7,16,35,44,233
46.29450,0.01050,0.10027,0.00000,0.03099,0.97466,-0.19337,0.0,2023,6,7,16,35,44,245
46.29460,-0.04200,0.17028,0.00000,0.03050,0.97698,-0.19288,0.0,2023,6,7,16,35,44,256
46.29470,0.02800,0.13528,0.00000,0.03099,0.97673,-0.19203,0.0,2023,6,7,16,35,44,267
46.29480,0.02800,-0.16223,0.00000,0.03038,0.97673,-0.19130,0.0,2023,6,7,16,35,44,279
46.29490,-0.00700,-0.17972,0.00000,0.03099,0.97759,-0.19288,0.0,2023,6,7,16,35,44,290
46.29500,0.08050,-0.00472,0.00000,0.03148,0.97527,-0.19276,0.0,2023,6,7,16,35,44,301
46.29510,0.06300,0.10027,0.00000,0.03099,0.97454,-0.19361,0.0,2023,6,7,16,35,44,312
46.29520,0.11550,0.11777,0.00000,0.03087,0.97649,-0.19276,0.0,2023,6,7,16,35,44,324
46.29530,-0.05950,-0.03972,0.00000,0.03172,0.97698,-0.19288,0.0,2023,6,7,16,35,44,335
46.29540,0.04550,-0.24972,0.00000,0.03245,0.97685,-0.19117,0.0,2023,6,7,16,35,44,346
46.29550,-0.04200,0.18778,0.00000,0.03196,0.97673,-0.19093,0.0,2023,6,7,16,35,44,358
46.29560,-0.02450,-0.07472,0.00000,0.03074,0.97576,-0.19117,0.0,2023,6,7,16,35,44,369
46.29570,0.16800,-0.05722,0.00000,0.02977,0.97600,-0.19410,0.0,2023,6,7,16,35,44,380
46.29580,0.04550,-0.09223,0.00000,0.03172,0.97795,-0.19337,0.0,2023,6,7,16,35,44,392
46.29590,-0.07700,0.13528,0.00000,0.02977,0.97673,-0.19044,0.0,2023,6,7,16,35,44,403
46.29600,0.02800,0.24028,0.00000,0.02916,0.97649,-0.18971,0.0,2023,6,7,16,35,44,414
46.29610,-0.02450,0.13528,0.00000,0.03038,0.97478,-0.19117,0.0,2023,6,7,16,35,44,425
46.29620,0.20300,-0.16223,0.00000,0.02989,0.97624,-0.19044,0.0,2023,6,7,16,35,44,437
46.29630,0.08050,0.01278,0.00000,0.03099,0.97795,-0.19081,0.0,2023,6,7,16,35,44,448
46.29640,0.09800,-0.09223,0.00000,0.03001,0.97783,-0.19215,0.0,2023,6,7,16,35,44,459
46.29650,-0.12950,0.08277,0.00000,0.03026,0.97576,-0.19044,0.0,2023,6,7,16,35,44,471
46.29660,0.01050,-0.00472,0.00000,0.02989,0.97673,-0.19056,0.0,2023,6,7,16,35,44,482
46.29670,-0.00700,0.01278,0.00000,0.03123,0.97405,-0.19105,0.0,2023,6,7,16,35,44,493
46.29680,-0.00700,-0.02222,0.00000,0.03221,0.97527,-0.19361,0.0,2023,6,7,16,35,44,505
46.29690,0.16800,-0.02222,0.00000,0.03160,0.97868,-0.19203,0.0,2023,6,7,16,35,44,516
46.29700,-0.04200,0.13528,0.00000,0.03038,0.97515,-0.19325,0.0,2023,6,7,16,35,44,527
46.29710,-0.09450,-0.09223,0.00000,0.02794,0.97368,-0.19130,0.0,2023,6,7,16,35,44,538
46.29720,-0.07700,0.15278,0.00000,0.02977,0.97734,-0.19520,0.0,2023,6,7,16,35,44,550
46.29730,-0.14700,0.08277,0.00000,0.03087,0.97637,-0.19044,0.0,2023,6,7,16,35,44,561
46.29740,-0.26950,0.04778,0.00000,0.02830,0.97746,-0.19215,0.0,2023,6,7,16,35,44,572
46.29750,-0.11200,0.06527,0.00000,0.03172,0.97441,-0.19020,0.0,2023,6,7,16,35,44,584
46.29760,-0.12950,-0.07472,0.00000,0.03233,0.97502,-0.18788,0.0,2023,6,7,16,35,44,595
46.29770,0.02800,0.04778,0.00000,0.03209,0.97332,-0.18947,0.0,2023,6,7,16,35,44,606
46.29780,0.13300,-0.05722,0.00000,0.03306,0.97600,-0.19105,0.0,2023,6,7,16,35,44,618
46.29790,-0.26950,-0.02222,0.00000,0.03196,0.97722,-0.19276,0.0,2023,6,7,16,35,44,629
46.29800,0.06300,0.04778,0.00000,0.02794,0.97502,-0.19142,0.0,2023,6,7,16,35,44,640
46.29810,0.15050,-0.02222,0.00000,0.02904,0.97795,-0.19191,0.0,2023,6,7,16,35,44,651
46.29820,-0.04200,0.11777,0.00000,0.03123,0.97746,-0.19203,0.0,2023,6,7,16,35,44,663
46.29830,-0.00700,-0.03972,0.00000,0.03013,0.97515,-0.19105,0.0,2023,6,7,16,35,44,674
46.29840,0.01050,0.06527,0.00000,0.02891,0.97612,-0.19215,0.0,2023,6,7,16,35,44,685
46.29850,-0.09450,0.17028,0.00000,0.03001,0.97661,-0.19154,0.0,2023,6,7,16,35,44,697
46.29860,-0.00700,0.01278,0.00000,0.03148,0.97612,-0.19056,0.0,2023,6,7,16,35,44,708
46.29870,-0.07700,0.04778,0.00000,0.02745,0.97429,-0.19227,0.0,2023,6,7,16,35,44,719
46.29880,-0.30450,0.18778,0.00000,0.02989,0.97539,-0.19081,0.0,2023,6,7,16,35,44,731
46.29890,-0.05950,-0.10973,0.00000,0.03184,0.97649,-0.19166,0.0,2023,6,7,16,35,44,742
46.29900,-0.00700,-0.05722,0.00000,0.03306,0.97612,-0.19300,0.0,2023,6,7,16,35,44,753
46.29910,0.04550,0.04778,0.00000,0.03111,0.97441,-0.19239,0.0,2023,6,7,16,35,44,764
46.29920,-0.11200,0.04778,0.00000,0.03062,0.97490,-0.19166,0.0,2023,6,7,16,35,44,776
46.29930,0.20300,0.06527,0.00000,0.03148,0.97441,-0.19337,0.0,2023,6,7,16,35,44,787
46.29940,-0.05950,0.04778,0.00000,0.03050,0.97698,-0.19105,0.0,2023,6,7,16,35,44,798
46.29950,0.09800,0.04778,0.00000,0.02904,0.97856,-0.19264,0.0,2023,6,7,16,35,44,810
46.29960,0.18550,-0.10973,0.00000,0.03257,0.97649,-0.19032,0.0,2023,6,7,16,35,44,821
46.29970,-0.02450,0.18778,0.00000,0.03026,0.97722,-0.19203,0.0,2023,6,7,16,35,44,832
46.29980,-0.04200,0.04778,0.00000,0.03233,0.97222,-0.18727,0.0,2023,6,7,16,35,44,844
46.29990,0.01050,0.04778,0.00000,0.03087,0.97722,-0.19276,0.0,2023,6,7,16,35,44,855
46.30000,-0.16450,0.08277,0.00000,0.03074,0.97332,-0.19105,0.0,2023,6,7,16,35,44,866
46.30010,-0.04200,0.01278,0.00000,0.03221,0.97588,-0.18886,0.0,2023,6,7,16,35,44,877
46.30020,-0.04200,0.20528,0.00000,0.03148,0.97637,-0.19130,0.0,2023,6,7,16,35,44,889
46.30030,-0.05950,0.17028,0.00000,0.03050,0.97600,-0.18910,0.0,2023,6,7,16,35,44,900
46.30040,0.02800,0.15278,0.00000,0.03123,0.97417,-0.19142,0.0,2023,6,7,16,35,44,911
46.30050,-0.11200,-0.00472,0.00000,0.03074,0.97393,-0.19166,0.0,2023,6,7,16,35,44,923
46.30060,0.06300,-0.12723,0.00000,0.03148,0.97551,-0.19227,0.0,2023,6,7,16,35,44,934
46.30070,-0.00700,-0.05722,0.00000,0.03074,0.97832,-0.19166,0.0,2023,6,7,16,35,44,945
46.30080,0.01050,0.15278,0.00000,0.02977,0.97539,-0.19130,0.0,2023,6,7,16,35,44,957
46.30090,-0.26950,0.32777,0.00000,0.03050,0.97368,-0.18886,0.0,2023,6,7,16,35,44,968
46.30100,-0.04200,-0.10973,0.00000,0.03087,0.97734,-0.18971,0.0,2023,6,7,16,35,44,979
46.30110,0.11550,-0.00472,0.00000,0.03196,0.97746,-0.19239,0.0,2023,6,7,16,35,44,990
46.30120,-0.07700,0.04778,0.00000,0.02952,0.97771,-0.19166,0.0,2023,6,7,16,35,44,2
46.30130,0.08050,0.15278,0.00000,0.03209,0.97673,-0.19044,0.0,2023,6,7,16,35,44,13
46.30140,-0.18200,0.11777,0.00000,0.03026,0.97905,-0.18922,0.0,2023,6,7,16,35,45,4
46.30150,0.11550,0.08277,0.00000,0.03160,0.97551,-0.19154,0.0,2023,6,7,16,35,45,16
46.30160,0.11550,0.08277,0.00000,0.02977,0.97746,-0.19130,0.0,2023,6,7,16,35,45,27
46.30170,0.15050,-0.00472,0.00000,0.03209,0.97698,-0.18983,0.0,2023,6,7,16,35,45,38
46.30180,-0.19950,-0.05722,0.00000,0.03196,0.97368,-0.19337,0.0,2023,6,7,16,35,45,50
46.30190,0.01050,-0.03972,0.00000,0.03038,0.97600,-0.19008,0.0,2023,6,7,16,35,45,61
46.30200,0.16800,0.15278,0.00000,0.02867,0.97588,-0.19227,0.0,2023,6,7,16,35,45,72
46.30210,-0.16450,-0.00472,0.00000,0.03001,0.97624,-0.19178,0.0,2023,6,7,16,35,45,83
46.30220,0.02800,0.04778,0.00000,0.03111,0.97429,-0.19239,0.0,2023,6,7,16,35,45,95
46.30230,-0.00700,0.03028,0.00000,0.03111,0.97502,-0.19215,0.0,2023,6,7,16,35,45,106
46.30240,0.13300,-0.28472,0.00000,0.02977,0.97649,-0.19252,0.0,2023,6,7,16,35,45,117
46.30250,-0.00700,-0.16223,0.00000,0.03038,0.97563,-0.19020,0.0,2023,6,7,16,35,45,129
46.30260,-0.07700,0.06527,0.00000,0.03148,0.97576,-0.19264,0.0,2023,6,7,16,35,45,140
46.30270,-0.02450,0.13528,0.00000,0.03111,0.97637,-0.19093,0.0,2023,6,7,16,35,45,151
46.30280,0.08050,0.10027,0.00000,0.03026,0.97722,-0.19032,0.0,2023,6,7,16,35,45,163
46.30290,-0.05950,0.20528,0.00000,0.02952,0.97637,-0.19349,0.0,2023,6,7,16,35,45,174
46.30300,-0.09450,0.13528,0.00000,0.03196,0.97746,-0.19239,0.0,2023,6,7,16,35,45,185
46.30310,0.01050,0.03028,0.00000,0.03062,0.97539,-0.19130,0.0,2023,6,7,16,35,45,196
46.30320,0.08050,0.17028,0.00000,0.03074,0.97527,-0.19142,0.0,2023,6,7,16,35,45,208
46.30330,0.09800,0.04778,0.00000,0.02891,0.97771,-0.19191,0.0,2023,6,7,16,35,45,219
46.30340,0.02800,-0.07472,0.00000,0.03038,0.97771,-0.19093,0.0,2023,6,7,16,35,45,230
46.30350,0.08050,0.04778,0.00000,0.02940,0.97673,-0.19386,0.0,2023,6,7,16,35,45,242
46.30360,0.01050,-0.07472,0.00000,0.03221,0.97649,-0.19142,0.0,2023,6,7,16,35,45,253
46.30370,-0.09450,0.10027,0.00000,0.03294,0.97649,-0.18971,0.0,2023,6,7,16,35,45,264
46.30380,-0.09450,-0.07472,0.00000,0.03367,0.97661,-0.19264,0.0,2023,6,7,16,35,45,276
46.30390,-0.05950,-0.07472,0.00000,0.02977,0.97624,-0.19288,0.0,2023,6,7,16,35,45,287
46.30400,0.01050,0.06527,0.00000,0.03062,0.97490,-0.19215,0.0,2023,6,7,16,35,45,298
46.30410,0.06300,0.08277,0.00000,0.03233,0.97685,-0.19191,0.0,2023,6,7,16,35,45,309
46.30420,-0.09450,-0.19722,0.00000,0.02989,0.97502,-0.19252,0.0,2023,6,7,16,35,45,321
46.30430,-0.12950,0.18778,0.00000,0.02830,0.97380,-0.19264,0.0,2023,6,7,16,35,45,332
46.30440,-0.12950,-0.03972,0.00000,0.03013,0.97563,-0.19227,0.0,2023,6,7,16,35,45,343
46.30450,0.11550,-0.23222,0.00000,0.02782,0.97673,-0.19239,0.0,2023,6,7,16,35,45,355
46.30460,-0.00700,0.27527,0.00000,0.03148,0.97600,-0.19215,0.0,2023,6,7,16,35,45,366
46.30470,-0.09450,0.11777,0.00000,0.03123,0.97637,-0.19069,0.0,2023,6,7,16,35,45,377
46.30480,0.09800,-0.05722,0.00000,0.02867,0.97551,-0.19276,0.0,2023,6,7,16,35,45,389
46.30490,-0.00700,0.11777,0.00000,0.03111,0.97624,-0.19081,0.0,2023,6,7,16,35,45,400
46.30500,0.04550,-0.10973,0.00000,0.02904,0.97612,-0.19166,0.0,2023,6,7,16,35,45,411
46.30510,0.15050,-0.21472,0.00000,0.03123,0.97734,-0.18922,0.0,2023,6,7,16,35,45,422
46.30520,-0.12950,-0.10973,0.00000,0.02977,0.98186,-0.19215,0.0,2023,6,7,16,35,45,434
46.30530,0.16800,0.03028,0.00000,0.03196,0.97698,-0.19398,0.0,2023,6,7,16,35,45,445
46.30540,0.06300,-0.09223,0.00000,0.03062,0.97588,-0.19276,0.0,2023,6,7,16,35,45,456
46.30550,0.11550,-0.00472,0.00000,0.03184,0.97771,-0.18983,0.0,2023,6,7,16,35,45,468
46.30560,-0.12950,-0.02222,0.00000,0.03233,0.97734,-0.19215,0.0,2023,6,7,16,35,45,479
46.30570,0.02800,0.10027,0.00000,0.03172,0.97612,-0.19117,0.0,2023,6,7,16,35,45,490
46.30580,-0.11200,0.11777,0.00000,0.03038,0.97576,-0.19154,0.0,2023,6,7,16,35,45,502
46.30590,-0.00700,0.13528,0.00000,0.03209,0.97454,-0.18959,0.0,2023,6,7,16,35,45,513
46.30600,0.06300,-0.14473,0.00000,0.03099,0.97685,-0.19337,0.0,2023,6,7,16,35,45,524
46.30610,-0.14700,0.11777,0.00000,0.02989,0.97649,-0.19313,0.0,2023,6,7,16,35,45,535
46.30620,-0.04200,0.01278,0.00000,0.03038,0.97698,-0.19215,0.0,2023,6,7,16,35,45,547
46.30630,-0.02450,0.20528,0.00000,0.03038,0.97466,-0.18947,0.0,2023,6,7,16,35,45,558
46.30640,-0.16450,0.11777,0.00000,0.03099,0.97710,-0.19032,0.0,2023,6,7,16,35,45,569
46.30650,0.02800,0.03028,0.00000,0.02940,0.97466,-0.19264,0.0,2023,6,7,16,35,45,581
46.30660,-0.05950,0.15278,0.00000,0.03184,0.97551,-0.19227,0.0,2023,6,7,16,35,45,592
46.30670,-0.19950,0.20528,0.00000,0.03111,0.97356,-0.19044,0.0,2023,6,7,16,35,45,603
46.30680,-0.12950,0.08277,0.00000,0.03123,0.97356,-0.19288,0.0,2023,6,7,16,35,45,615
46.30690,0.15050,-0.14473,0.00000,0.02952,0.97502,-0.19178,0.0,2023,6,7,16,35,45,626
46.30700,-0.02450,0.17028,0.00000,0.03257,0.97783,-0.19276,0.0,2023,6,7,16,35,45,637
46.30710,0.01050,-0.00472,0.00000,0.02757,0.97637,-0.18849,0.0,2023,6,7,16,35,45,648
46.30720,0.11550,0.27527,0.00000,0.03233,0.97661,-0.19117,0.0,2023,6,7,16,35,45,660
46.30730,0.04550,-0.09223,0.00000,0.03074,0.97478,-0.19117,0.0,2023,6,7,16,35,45,671
46.30740,0.02800,-0.00472,0.00000,0.02928,0.97649,-0.19020,0.0,2023,6,7,16,35,45,682
46.30750,0.08050,-0.12723,0.00000,0.03135,0.97832,-0.19117,0.0,2023,6,7,16,35,45,694
46.30760,-0.02450,0.01278,0.00000,0.03038,0.97771,-0.19215,0.0,2023,6,7,16,35,45,705
46.30770,0.02800,0.15278,0.00000,0.03282,0.97429,-0.18971,0.0,2023,6,7,16,35,45,716
46.30780,0.01050,0.11777,0.00000,0.03111,0.97429,-0.19203,0.0,2023,6,7,16,35,45,728
46.30790,-0.07700,0.04778,0.00000,0.03050,0.97466,-0.19093,0.0,2023,6,7,16,35,45,739
46.30800,-0.00700,0.08277,0.00000,0.03196,0.97222,-0.18995,0.0,2023,6,7,16,35,45,750
46.30810,0.13300,-0.02222,0.00000,0.03172,0.97710,-0.18971,0.0,2023,6,7,16,35,45,761
46.30820,-0.02450,-0.05722,0.00000,0.03245,0.97551,-0.19008,0.0,2023,6,7,16,35,45,773
46.30830,-0.18200,0.04778,0.00000,0.02977,0.97588,-0.19008,0.0,2023,6,7,16,35,45,784
46.30840,0.04550,-0.02222,0.00000,0.02952,0.97698,-0.18995,0.0,2023,6,7,16,35,45,795
46.30850,0.18550,0.06527,0.00000,0.03135,0.97698,-0.19215,0.0,2023,6,7,16,35,45,807
46.30860,0.11550,0.08277,0.00000,0.02928,0.97551,-0.19203,0.0,2023,6,7,16,35,45,818
46.30870,0.08050,0.13528,0.00000,0.03135,0.97795,-0.19435,0.0,2023,6,7,16,35,45,829
46.30880,-0.02450,0.11777,0.00000,0.03074,0.97637,-0.19361,0.0,2023,6,7,16,35,45,841
46.30890,0.22050,0.10027,0.00000,0.03099,0.97942,-0.19361,0.0,2023,6,7,16,35,45,852
46.30900,-0.23450,0.03028,0.00000,0.03209,0.97563,-0.19361,0.0,2023,6,7,16,35,45,863
46.30910,0.04550,-0.03972,0.00000,0.03087,0.97527,-0.19264,0.0,2023,6,7,16,35,45,874
46.30920,-0.16450,0.17028,0.00000,0.03111,0.97588,-0.19239,0.0,2023,6,7,16,35,45,886
46.30930,0.04550,0.08277,0.00000,0.02989,0.97380,-0.19117,0.0,2023,6,7,16,35,45,897
46.30940,0.13300,-0.10973,0.00000,0.02977,0.97612,-0.19288,0.0,2023,6,7,16,35,45,908
46.30950,0.01050,-0.02222,0.00000,0.03270,0.97722,-0.19300,0.0,2023,6,7,16,35,45,920
46.30960,0.06300,-0.02222,0.00000,0.03184,0.97441,-0.19117,0.0,2023,6,7,16,35,45,931
46.30970,0.04550,-0.12723,0.00000,0.03172,0.97502,-0.19142,0.0,2023,6,7,16,35,45,942
46.30980,0.01050,-0.03972,0.00000,0.03196,0.97405,-0.19227,0.0,2023,6,7,16,35,45,954
46.30990,-0.00700,0.08277,0.00000,0.02989,0.97576,-0.19276,0.0,2023,6,7,16,35,45,965
46.31000,0.09800,0.10027,0.00000,0.02794,0.97490,-0.18873,0.0,2023,6,7,16,35,45,976
46.31010,-0.12950,-0.05722,0.00000,0.03026,0.97380,-0.19264,0.0,2023,6,7,16,35,45,987
46.31020,-0.14700,0.18778,0.00000,0.03062,0.97332,-0.18934,0.0,2023,6,7,16,35,45,999
46.31030,0.29050,-0.16223,0.00000,0.03111,0.97502,-0.18995,0.0,2023,6,7,16,35,45,10
46.31040,0.02800,-0.17972,0.00000,0.02843,0.97698,-0.19313,0.0,2023,6,7,16,35,45,21
46.31050,0.23800,-0.33723,0.00000,0.03282,0.97563,-0.18971,0.0,2023,6,7,16,35,46,3
46.31060,0.04550,0.08277,0.00000,0.03074,0.97600,-0.19117,0.0,2023,6,7,16,35,46,14
46.31070,-0.07700,-0.14473,0.00000,0.02952,0.97600,-0.19032,0.0,2023,6,7,16,35,46,25
46.31080,0.20300,-0.03972,0.00000,0.02989,0.97734,-0.19300,0.0,2023,6,7,16,35,46,37
46.31090,-0.04200,0.01278,0.00000,0.02952,0.97637,-0.19069,0.0,2023,6,7,16,35,46,48
46.31100,-0.02450,0.10027,0.00000,0.03062,0.97759,-0.19142,0.0,2023,6,7,16,35,46,59
46.31110,0.13300,0.08277,0.00000,0.02940,0.97624,-0.19069,0.0,2023,6,7,16,35,46,70
46.31120,-0.05950,0.03028,0.00000,0.02904,0.97832,-0.19178,0.0,2023,6,7,16,35,46,82
46.31130,-0.04200,0.31027,0.00000,0.02891,0.97637,-0.19227,0.0,2023,6,7,16,35,46,93
46.31140,-0.02450,0.06527,0.00000,0.03135,0.97527,-0.19252,0.0,2023,6,7,16,35,46,104
46.31150,-0.14700,0.20528,0.00000,0.03343,0.97771,-0.19044,0.0,2023,6,7,16,35,46,116
46.31160,0.04550,0.03028,0.00000,0.02965,0.97685,-0.19032,0.0,2023,6,7,16,35,46,127
46.31170,-0.02450,0.18778,0.00000,0.03099,0.97661,-0.19044,0.0,2023,6,7,16,35,46,138
46.31180,-0.00700,0.06527,0.00000,0.02977,0.97624,-0.19252,0.0,2023,6,7,16,35,46,150
46.31190,0.11550,0.11777,0.00000,0.02916,0.97771,-0.19191,0.0,2023,6,7,16,35,46,161
46.31200,0.06300,0.04778,0.00000,0.03062,0.97673,-0.18947,0.0,2023,6,7,16,35,46,172
46.31210,0.08050,0.06527,0.00000,0.03148,0.97734,-0.19032,0.0,2023,6,7,16,35,46,183
46.31220,0.01050,-0.00472,0.00000,0.03111,0.97685,-0.19093,0.0,2023,6,7,16,35,46,195
46.31230,0.13300,-0.10973,0.00000,0.03001,0.97722,-0.19178,0.0,2023,6,7,16,35,46,206
46.31240,-0.04200,0.10027,0.00000,0.03026,0.97502,-0.19276,0.0,2023,6,7,16,35,46,217
46.31250,0.08050,0.04778,0.00000,0.03026,0.97417,-0.18898,0.0,2023,6,7,16,35,46,229
46.31260,-0.09450,0.06527,0.00000,0.03172,0.97490,-0.19288,0.0,2023,6,7,16,35,46,240
46.31270,-0.18200,-0.00472,0.00000,0.03013,0.97588,-0.19203,0.0,2023,6,7,16,35,46,251
46.31280,-0.14700,0.24028,0.00000,0.02904,0.97734,-0.19142,0.0,2023,6,7,16,35,46,263
46.31290,0.13300,0.20528,0.00000,0.02891,0.97478,-0.19154,0.0,2023,6,7,16,35,46,274
46.31300,-0.12950,0.15278,0.00000,0.03013,0.97478,-0.19252,0.0,2023,6,7,16,35,46,285
46.31310,-0.07700,-0.02222,0.00000,0.03026,0.97661,-0.19191,0.0,2023,6,7,16,35,46,296
46.31320,0.01050,-0.00472,0.00000,0.03013,0.97771,-0.19154,0.0,2023,6,7,16,35,46,308
46.31330,0.04550,0.17028,0.00000,0.02965,0.97746,-0.19044,0.0,2023,6,7,16,35,46,319
46.31340,-0.02450,-0.03972,0.00000,0.02867,0.97624,-0.19166,0.0,2023,6,7,16,35,46,330
46.31350,0.13300,-0.00472,0.00000,0.03038,0.97563,-0.19105,0.0,2023,6,7,16,35,46,342
46.31360,0.02800,0.15278,0.00000,0.03074,0.97490,-0.19203,0.0,2023,6,7,16,35,46,353
46.31370,0.15050,-0.12723,0.00000,0.03038,0.97600,-0.19276,0.0,2023,6,7,16,35,46,364
46.31380,-0.16450,-0.03972,0.00000,0.02977,0.97576,-0.18947,0.0,2023,6,7,16,35,46,376
46.31390,-0.02450,-0.07472,0.00000,0.03087,0.97710,-0.19020,0.0,2023,6,7,16,35,46,387
46.31400,-0.02450,0.17028,0.00000,0.03404,0.97624,-0.19239,0.0,2023,6,7,16,35,46,398
46.31410,-0.16450,0.08277,0.00000,0.02989,0.97551,-0.19166,0.0,2023,6,7,16,35,46,409
46.31420,-0.05950,0.01278,0.00000,0.03123,0.97490,-0.19227,0.0,2023,6,7,16,35,46,421
46.31430,0.01050,0.01278,0.00000,0.02989,0.97722,-0.19008,0.0,2023,6,7,16,35,46,432
46.31440,-0.05950,0.06527,0.00000,0.03123,0.97478,-0.19008,0.0,2023,6,7,16,35,46,443
46.31450,0.16800,0.01278,0.00000,0.03172,0.98015,-0.19142,0.0,2023,6,7,16,35,46,455
46.31460,-0.09450,0.13528,0.00000,0.03209,0.97515,-0.19056,0.0,2023,6,7,16,35,46,466
46.31470,-0.07700,0.11777,0.00000,0.03050,0.97588,-0.19288,0.0,2023,6,7,16,35,46,477
46.31480,0.15050,-0.03972,0.00000,0.03135,0.97551,-0.19349,0.0,2023,6,7,16,35,46,489
46.31490,0.04550,0.15278,0.00000,0.03013,0.97698,-0.19044,0.0,2023,6,7,16,35,46,500
46.31500,-0.00700,-0.16223,0.00000,0.03148,0.97527,-0.18800,0.0,2023,6,7,16,35,46,511
46.31510,0.02800,-0.12723,0.00000,0.02989,0.97685,-0.19215,0.0,2023,6,7,16,35,46,522
46.31520,0.04550,0.04778,0.00000,0.03038,0.97502,-0.19069,0.0,2023,6,7,16,35,46,534
46.31530,-0.00700,0.08277,0.00000,0.03026,0.97515,-0.19056,0.0,2023,6,7,16,35,46,545
46.31540,-0.07700,-0.02222,0.00000,0.03087,0.97563,-0.19166,0.0,2023,6,7,16,35,46,556
46.31550,-0.05950,-0.14473,0.00000,0.03038,0.97600,-0.19239,0.0,2023,6,7,16,35,46,568
46.31560,-0.11200,0.10027,0.00000,0.03013,0.97746,-0.19154,0.0,2023,6,7,16,35,46,579
46.31570,0.13300,-0.05722,0.00000,0.03245,0.97746,-0.19361,0.0,2023,6,7,16,35,46,590
46.31580,0.02800,0.03028,0.00000,0.03087,0.97515,-0.19130,0.0,2023,6,7,16,35,46,602
46.31590,0.04550,-0.02222,0.00000,0.02916,0.97515,-0.19117,0.0,2023,6,7,16,35,46,613
46.31600,0.08050,-0.02222,0.00000,0.03001,0.97746,-0.18934,0.0,2023,6,7,16,35,46,624
46.31610,-0.00700,0.08277,0.00000,0.03209,0.97844,-0.19130,0.0,2023,6,7,16,35,46,635
46.31620,-0.02450,-0.17972,0.00000,0.03245,0.97649,-0.19044,0.0,2023,6,7,16,35,46,647
46.31630,-0.05950,0.10027,0.00000,0.03184,0.97612,-0.18983,0.0,2023,6,7,16,35,46,658
46.31640,0.16800,-0.12723,0.00000,0.03026,0.97637,-0.19313,0.0,2023,6,7,16,35,46,669
46.31650,0.06300,-0.23222,0.00000,0.03135,0.97612,-0.19117,0.0,2023,6,7,16,35,46,681
46.31660,-0.09450,-0.00472,0.00000,0.02904,0.97795,-0.19008,0.0,2023,6,7,16,35,46,692
46.31670,0.01050,-0.05722,0.00000,0.03172,0.97612,-0.19032,0.0,2023,6,7,16,35,46,703
46.31680,-0.04200,0.06527,0.00000,0.03221,0.97637,-0.19105,0.0,2023,6,7,16,35,46,715
46.31690,-0.19950,-0.00472,0.00000,0.03123,0.97600,-0.19191,0.0,2023,6,7,16,35,46,726
46.31700,0.06300,-0.00472,0.00000,0.03074,0.97698,-0.19313,0.0,2023,6,7,16,35,46,737
46.31710,-0.11200,0.01278,0.00000,0.03099,0.97746,-0.19227,0.0,2023,6,7,16,35,46,748
46.31720,0.23800,-0.02222,0.00000,0.03062,0.97685,-0.19227,0.0,2023,6,7,16,35,46,760
46.31730,0.02800,0.08277,0.00000,0.02855,0.97551,-0.19288,0.0,2023,6,7,16,35,46,771
46.31740,0.04550,-0.05722,0.00000,0.03221,0.97600,-0.19435,0.0,2023,6,7,16,35,46,782
46.31750,-0.05950,0.17028,0.00000,0.03196,0.97588,-0.18971,0.0,2023,6,7,16,35,46,794
46.31760,0.09800,0.22278,0.00000,0.03209,0.97478,-0.19154,0.0,2023,6,7,16,35,46,805
46.31770,-0.19950,0.20528,0.00000,0.03062,0.97478,-0.19337,0.0,2023,6,7,16,35,46,816
46.31780,-0.16450,-0.05722,0.00000,0.02965,0.97393,-0.19166,0.0,2023,6,7,16,35,46,828
46.31790,0.15050,-0.03972,0.00000,0.03294,0.97722,-0.18971,0.0,2023,6,7,16,35,46,839
46.31800,-0.11200,0.27527,0.00000,0.03099,0.97685,-0.19032,0.0,2023,6,7,16,35,46,850
46.31810,-0.04200,0.06527,0.00000,0.03196,0.97466,-0.19032,0.0,2023,6,7,16,35,46,861
46.31820,-0.09450,-0.00472,0.00000,0.03343,0.97746,-0.19044,0.0,2023,6,7,16,35,46,873
46.31830,-0.05950,-0.10973,0.00000,0.03184,0.97612,-0.19361,0.0,2023,6,7,16,35,46,884
46.31840,-0.07700,0.15278,0.00000,0.02855,0.97673,-0.19020,0.0,2023,6,7,16,35,46,895
46.31850,-0.00700,0.17028,0.00000,0.03099,0.97502,-0.19020,0.0,2023,6,7,16,35,46,907
46.31860,0.09800,0.03028,0.00000,0.02977,0.97576,-0.19422,0.0,2023,6,7,16,35,46,918
46.31870,0.01050,-0.07472,0.00000,0.03160,0.97734,-0.19069,0.0,2023,6,7,16,35,46,929
46.31880,0.11550,0.08277,0.00000,0.03172,0.97454,-0.19337,0.0,2023,6,7,16,35,46,941
46.31890,-0.07700,0.08277,0.00000,0.03172,0.97563,-0.19020,0.0,2023,6,7,16,35,46,952
46.31900,-0.09450,0.10027,0.00000,0.03148,0.97466,-0.19191,0.0,2023,6,7,16,35,46,963
46.31910,-0.18200,0.01278,0.00000,0.03038,0.97539,-0.19154,0.0,2023,6,7,16,35,46,974
46.31920,0.08050,-0.02222,0.00000,0.03038,0.97710,-0.19239,0.0,2023,6,7,16,35,46,986
46.31930,0.04550,-0.09223,0.00000,0.02940,0.97551,-0.19178,0.0,2023,6,7,16,35,46,997
46.31940,0.06300,0.08277,0.00000,0.02952,0.97746,-0.19020,0.0,2023,6,7,16,35,47,8
46.31950,0.04550,-0.00472,0.00000,0.03111,0.97527,-0.19191,0.0,2023,6,7,16,35,47,20
46.31960,-0.05950,0.03028,0.00000,0.03038,0.97759,-0.19300,0.0,2023,6,7,16,35,47,31
46.31970,-0.07700,-0.02222,0.00000,0.03111,0.97710,-0.19386,0.0,2023,6,7,16,35,47,42
46.31980,0.04550,0.06527,0.00000,0.03160,0.97515,-0.19252,0.0,2023,6,7,16,35,47,54
46.31990,0.20300,-0.14473,0.00000,0.02916,0.97490,-0.19349,0.0,2023,6,7,16,35,47,65
46.32000,-0.11200,-0.02222,0.00000,0.02940,0.97539,-0.19264,0.0,2023,6,7,16,35,47,76
46.32010,0.02800,0.20528,0.00000,0.02977,0.97539,-0.19142,0.0,2023,6,7,16,35,47,87
46.32020,-0.04200,-0.10973,0.00000,0.03160,0.97576,-0.19008,0.0,2023,6,7,16,35,47,99
46.32030,-0.00700,-0.19722,0.00000,0.03038,0.97490,-0.19239,0.0,2023,6,7,16,35,47,110
46.32040,0.11550,0.06527,0.00000,0.02916,0.97868,-0.19337,0.0,2023,6,7,16,35,47,121
46.32050,-0.04200,0.06527,0.00000,0.03099,0.97698,-0.19252,0.0,2023,6,7,16,35,47,133
46.32060,0.02800,0.08277,0.00000,0.03270,0.97161,-0.19117,0.0,2023,6,7,16,35,47,144
46.32070,-0.18200,0.13528,0.00000,0.02928,0.97844,-0.19178,0.0,2023,6,7,16,35,47,155
46.32080,-0.09450,0.15278,0.00000,0.03135,0.97551,-0.19300,0.0,2023,6,7,16,35,47,167
46.32090,-0.04200,-0.00472,0.00000,0.03172,0.97795,-0.19203,0.0,2023,6,7,16,35,47,178
46.32100,0.04550,0.04778,0.00000,0.03135,0.97649,-0.18971,0.0,2023,6,7,16,35,47,189
46.32110,-0.02450,0.01278,0.00000,0.02977,0.97441,-0.19069,0.0,2023,6,7,16,35,47,200
46.32120,-0.11200,0.13528,0.00000,0.03172,0.97649,-0.19081,0.0,2023,6,7,16,35,47,212
46.32130,-0.14700,0.03028,0.00000,0.03184,0.97698,-0.19215,0.0,2023,6,7,16,35,47,223
46.32140,0.02800,0.18778,0.00000,0.03404,0.97441,-0.19203,0.0,2023,6,7,16,35,47,234
46.32150,0.11550,-0.05722,0.00000,0.03062,0.97856,-0.19056,0.0,2023,6,7,16,35,47,246
46.32160,-0.11200,0.03028,0.00000,0.03013,0.97649,-0.18910,0.0,2023,6,7,16,35,47,257
46.32170,0.11550,0.06527,0.00000,0.02977,0.97771,-0.19130,0.0,2023,6,7,16,35,47,268
46.32180,-0.02450,0.11777,0.00000,0.03013,0.97649,-0.19154,0.0,2023,6,7,16,35,47,280
46.32190,-0.00700,0.10027,0.00000,0.03160,0.97649,-0.19069,0.0,2023,6,7,16,35,47,291
46.32200,-0.09450,-0.00472,0.00000,0.03196,0.97576,-0.19276,0.0,2023,6,7,16,35,47,302
46.32210,0.01050,0.06527,0.00000,0.03111,0.97405,-0.19081,0.0,2023,6,7,16,35,47,313
46.32220,-0.02450,-0.17972,0.00000,0.03172,0.97685,-0.18947,0.0,2023,6,7,16,35,47,325
46.32230,-0.09450,0.10027,0.00000,0.03099,0.97478,-0.19239,0.0,2023,6,7,16,35,47,336
46.32240,0.01050,-0.02222,0.00000,0.02965,0.97539,-0.19276,0.0,2023,6,7,16,35,47,347
46.32250,-0.32200,0.10027,0.00000,0.02891,0.97563,-0.19264,0.0,2023,6,7,16,35,47,359
46.32260,-0.09450,0.03028,0.00000,0.03099,0.97576,-0.19227,0.0,2023,6,7,16,35,47,370
46.32270,-0.09450,0.15278,0.00000,0.03099,0.97502,-0.19020,0.0,2023,6,7,16,35,47,381
46.32280,-0.02450,0.11777,0.00000,0.03135,0.97661,-0.19093,0.0,2023,6,7,16,35,47,393
46.32290,-0.07700,-0.09223,0.00000,0.03160,0.97588,-0.19398,0.0,2023,6,7,16,35,47,404
46.32300,-0.05950,0.04778,0.00000,0.02818,0.97405,-0.19422,0.0,2023,6,7,16,35,47,415
46.32310,-0.00700,0.11777,0.00000,0.02977,0.97527,-0.18995,0.0,2023,6,7,16,35,47,426
46.32320,0.09800,0.06527,0.00000,0.03209,0.97673,-0.19142,0.0,2023,6,7,16,35,47,438
46.32330,-0.11200,-0.03972,0.00000,0.02989,0.97515,-0.18788,0.0,2023,6,7,16,35,47,449
46.32340,0.08050,-0.00472,0.00000,0.03050,0.97588,-0.19142,0.0,2023,6,7,16,35,47,460
46.32350,0.06300,-0.07472,0.00000,0.03135,0.97490,-0.19117,0.0,2023,6,7,16,35,47,472
46.32360,0.02800,0.04778,0.00000,0.03245,0.97807,-0.19239,0.0,2023,6,7,16,35,47,483
46.32370,-0.21700,0.10027,0.00000,0.03001,0.97698,-0.18959,0.0,2023,6,7,16,35,47,494
46.32380,-0.26950,0.17028,0.00000,0.03123,0.97868,-0.18812,0.0,2023,6,7,16,35,47,506
46.32390,-0.02450,-0.10973,0.00000,0.03209,0.97771,-0.19178,0.0,2023,6,7,16,35,47,517
46.32400,-0.16450,0.17028,0.00000,0.03013,0.97588,-0.19300,0.0,2023,6,7,16,35,47,528
46.32410,-0.18200,0.04778,0.00000,0.03050,0.97722,-0.19178,0.0,2023,6,7,16,35,47,539
46.32420,-0.11200,0.03028,0.00000,0.03172,0.97551,-0.19044,0.0,2023,6,7,16,35,47,551
46.32430,-0.04200,0.04778,0.00000,0.03111,0.97539,-0.19239,0.0,2023,6,7,16,35,47,562
46.32440,0.04550,0.04778,0.00000,0.03270,0.97563,-0.19203,0.0,2023,6,7,16,35,47,573
46.32450,0.18550,-0.14473,0.00000,0.03245,0.97490,-0.19130,0.0,2023,6,7,16,35,47,585
46.32460,-0.02450,0.13528,0.00000,0.03050,0.97710,-0.19252,0.0,2023,6,7,16,35,47,596
46.32470,-0.11200,0.06527,0.00000,0.03062,0.97783,-0.19117,0.0,2023,6,7,16,35,47,607
46.32480,-0.05950,0.10027,0.00000,0.03111,0.97441,-0.19276,0.0,2023,6,7,16,35,47,619
46.32490,0.13300,0.10027,0.00000,0.03196,0.97624,-0.19374,0.0,2023,6,7,16,35,47,630
46.32500,-0.05950,0.20528,0.00000,0.03062,0.97673,-0.19422,0.0,2023,6,7,16,35,47,641
46.32510,0.06300,-0.00472,0.00000,0.02965,0.97698,-0.19154,0.0,2023,6,7,16,35,47,652
46.32520,-0.00700,0.17028,0.00000,0.03135,0.97405,-0.19117,0.0,2023,6,7,16,35,47,664
46.32530,-0.00700,-0.09223,0.00000,0.02952,0.97673,-0.18886,0.0,2023,6,7,16,35,47,675
46.32540,-0.07700,0.15278,0.00000,0.03294,0.97637,-0.19093,0.0,2023,6,7,16,35,47,686
46.32550,-0.07700,0.17028,0.00000,0.03245,0.97356,-0.18922,0.0,2023,6,7,16,35,47,698
46.32560,-0.02450,0.03028,0.00000,0.02904,0.97612,-0.19008,0.0,2023,6,7,16,35,47,709
46.32570,-0.16450,0.03028,0.00000,0.03111,0.97759,-0.18922,0.0,2023,6,7,16,35,47,720
46.32580,0.13300,-0.09223,0.00000,0.03013,0.97685,-0.19105,0.0,2023,6,7,16,35,47,732
46.32590,0.04550,-0.09223,0.00000,0.03135,0.97771,-0.19130,0.0,2023,6,7,16,35,47,743
46.32600,-0.02450,0.04778,0.00000,0.03038,0.97624,-0.19081,0.0,2023,6,7,16,35,47,754
46.32610,-0.05950,0.13528,0.00000,0.02989,0.97661,-0.19069,0.0,2023,6,7,16,35,47,765
46.32620,0.01050,-0.00472,0.00000,0.03038,0.97661,-0.19288,0.0,2023,6,7,16,35,47,777
46.32630,-0.07700,0.11777,0.00000,0.02843,0.97734,-0.18764,0.0,2023,6,7,16,35,47,788
46.32640,-0.05950,-0.09223,0.00000,0.03038,0.97515,-0.19056,0.0,2023,6,7,16,35,47,799
46.32650,0.06300,-0.02222,0.00000,0.03087,0.97746,-0.19008,0.0,2023,6,7,16,35,47,811
46.32660,0.04550,-0.00472,0.00000,0.03148,0.97600,-0.19215,0.0,2023,6,7,16,35,47,822
46.32670,-0.16450,0.01278,0.00000,0.03038,0.97771,-0.19093,0.0,2023,6,7,16,35,47,833
46.32680,0.02800,-0.03972,0.00000,0.02916,0.97612,-0.19117,0.0,2023,6,7,16,35,47,845
46.32690,-0.19950,0.18778,0.00000,0.02867,0.97612,-0.18898,0.0,2023,6,7,16,35,47,856
46.32700,-0.14700,0.03028,0.00000,0.02989,0.97820,-0.19252,0.0,2023,6,7,16,35,47,867
46.32710,-0.16450,0.24028,0.00000,0.03221,0.97551,-0.19105,0.0,2023,6,7,16,35,47,878
46.32720,-0.04200,0.10027,0.00000,0.03221,0.97551,-0.19044,0.0,2023,6,7,16,35,47,890
46.32730,0.06300,0.25778,0.00000,0.03318,0.97685,-0.18983,0.0,2023,6,7,16,35,47,901
46.32740,0.06300,-0.03972,0.00000,0.03282,0.97576,-0.19239,0.0,2023,6,7,16,35,47,912
46.32750,-0.07700,-0.14473,0.00000,0.03050,0.97466,-0.19276,0.0,2023,6,7,16,35,47,924
46.32760,-0.18200,-0.17972,0.00000,0.02928,0.97429,-0.19154,0.0,2023,6,7,16,35,47,935
46.32770,0.04550,-0.05722,0.00000,0.03087,0.97649,-0.18995,0.0,2023,6,7,16,35,47,946
46.32780,0.06300,-0.07472,0.00000,0.02916,0.97746,-0.19105,0.0,2023,6,7,16,35,47,958
46.32790,0.01050,0.04778,0.00000,0.03001,0.97722,-0.19191,0.0,2023,6,7,16,35,47,969
46.32800,-0.00700,0.01278,0.00000,0.02879,0.97673,-0.19276,0.0,2023,6,7,16,35,47,980
46.32810,-0.23450,0.08277,0.00000,0.03087,0.97551,-0.19130,0.0,2023,6,7,16,35,47,991
46.32820,-0.05950,0.06527,0.00000,0.03306,0.97600,-0.19166,0.0,2023,6,7,16,35,47,3
46.32830,-0.11200,0.17028,0.00000,0.03050,0.97637,-0.19252,0.0,2023,6,7,16,35,47,14
46.32840,-0.26950,-0.10973,0.00000,0.03087,0.97710,-0.19056,0.0,2023,6,7,16,35,47,25
46.32850,-0.23450,0.11777,0.00000,0.03074,0.97612,-0.19374,0.0,2023,6,7,16,35,48,7
46.32860,-0.00700,0.11777,0.00000,0.03001,0.97588,-0.19044,0.0,2023,6,7,16,35,48,18
46.32870,-0.05950,0.03028,0.00000,0.03245,0.97637,-0.19130,0.0,2023,6,7,16,35,48,29
46.32880,-0.02450,-0.07472,0.00000,0.03026,0.97405,-0.19117,0.0,2023,6,7,16,35,48,41
46.32890,-0.02450,0.04778,0.00000,0.02940,0.97637,-0.18898,0.0,2023,6,7,16,35,48,52
46.32900,0.13300,-0.10973,0.00000,0.02977,0.97673,-0.19203,0.0,2023,6,7,16,35,48,63
46.32910,-0.00700,0.11777,0.00000,0.03160,0.97576,-0.19142,0.0,2023,6,7,16,35,48,74
46.32920,0.06300,0.01278,0.00000,0.03123,0.97783,-0.19081,0.0,2023,6,7,16,35,48,86
46.32930,-0.02450,0.17028,0.00000,0.03038,0.97600,-0.19154,0.0,2023,6,7,16,35,48,97
46.32940,0.06300,-0.14473,0.00000,0.03013,0.97661,-0.19215,0.0,2023,6,7,16,35,48,108
46.32950,0.01050,0.22278,0.00000,0.03013,0.97588,-0.18959,0.0,2023,6,7,16,35,48,120
46.32960,-0.00700,-0.02222,0.00000,0.03135,0.97563,-0.18934,0.0,2023,6,7,16,35,48,131
46.32970,0.16800,-0.19722,0.00000,0.03026,0.97478,-0.19349,0.0,2023,6,7,16,35,48,142
46.32980,0.02800,0.15278,0.00000,0.03135,0.97588,-0.19117,0.0,2023,6,7,16,35,48,154
46.32990,-0.09450,0.18778,0.00000,0.03026,0.97271,-0.19044,0.0,2023,6,7,16,35,48,165
46.33000,-0.33950,0.24028,0.00000,0.02952,0.97698,-0.19069,0.0,2023,6,7,16,35,48,176
46.33010,-0.00700,-0.07472,0.00000,0.03160,0.97685,-0.19105,0.0,2023,6,7,16,35,48,187
46.33020,-0.02450,-0.02222,0.00000,0.03074,0.97771,-0.19081,0.0,2023,6,7,16,35,48,199
46.33030,-0.19950,0.20528,0.00000,0.02952,0.97600,-0.19105,0.0,2023,6,7,16,35,48,210
46.33040,-0.04200,0.03028,0.00000,0.02940,0.97612,-0.18947,0.0,2023,6,7,16,35,48,221
46.33050,0.06300,-0.05722,0.00000,0.02916,0.97527,-0.19081,0.0,2023,6,7,16,35,48,233
46.33060,0.20300,0.01278,0.00000,0.03135,0.97454,-0.19081,0.0,2023,6,7,16,35,48,244
46.33070,0.20300,-0.07472,0.00000,0.03026,0.97563,-0.19166,0.0,2023,6,7,16,35,48,255
46.33080,0.04550,-0.12723,0.00000,0.03148,0.97515,-0.19117,0.0,2023,6,7,16,35,48,267
46.33090,0.11550,0.24028,0.00000,0.02965,0.97649,-0.18983,0.0,2023,6,7,16,35,48,278
46.33100,0.16800,-0.14473,0.00000,0.03148,0.97661,-0.19105,0.0,2023,6,7,16,35,48,289
46.33110,0.06300,-0.12723,0.00000,0.03013,0.97722,-0.18947,0.0,2023,6,7,16,35,48,300
46.33120,0.06300,0.18778,0.00000,0.02952,0.97722,-0.18812,0.0,2023,6,7,16,35,48,312
46.33130,-0.23450,-0.02222,0.00000,0.03306,0.97588,-0.19008,0.0,2023,6,7,16,35,48,323
46.33140,-0.09450,0.11777,0.00000,0.03184,0.97527,-0.19178,0.0,2023,6,7,16,35,48,334
46.33150,0.06300,0.41528,0.00000,0.03111,0.97722,-0.18947,0.0,2023,6,7,16,35,48,346
46.33160,-0.09450,0.15278,0.00000,0.03123,0.97576,-0.18849,0.0,2023,6,7,16,35,48,357
46.33170,-0.04200,-0.17972,0.00000,0.03038,0.97551,-0.19288,0.0,2023,6,7,16,35,48,368
46.33180,-0.04200,-0.14473,0.00000,0.02977,0.97698,-0.19093,0.0,2023,6,7,16,35,48,380
46.33190,-0.09450,-0.17972,0.00000,0.02818,0.97673,-0.18995,0.0,2023,6,7,16,35,48,391
46.33200,0.09800,-0.03972,0.00000,0.03050,0.97661,-0.19056,0.0,2023,6,7,16,35,48,402
46.33210,0.20300,-0.12723,0.00000,0.03294,0.97710,-0.18727,0.0,2023,6,7,16,35,48,413
46.33220,0.06300,0.11777,0.00000,0.03172,0.97563,-0.18898,0.0,2023,6,7,16,35,48,425
46.33230,-0.02450,0.04778,0.00000,0.03050,0.97710,-0.19483,0.0,2023,6,7,16,35,48,436
46.33240,-0.04200,-0.03972,0.00000,0.03294,0.97771,-0.19239,0.0,2023,6,7,16,35,48,447
46.33250,-0.02450,0.18778,0.00000,0.03318,0.97502,-0.18898,0.0,2023,6,7,16,35,48,459
46.33260,-0.05950,0.10027,0.00000,0.03367,0.97832,-0.18922,0.0,2023,6,7,16,35,48,470
46.33270,0.11550,0.01278,0.00000,0.03257,0.97673,-0.19105,0.0,2023,6,7,16,35,48,481
46.33280,0.02800,0.04778,0.00000,0.03001,0.97661,-0.19093,0.0,2023,6,7,16,35,48,493
46.33290,0.01050,0.13528,0.00000,0.03074,0.97637,-0.19374,0.0,2023,6,7,16,35,48,504
46.33300,-0.07700,-0.05722,0.00000,0.03184,0.97807,-0.19130,0.0,2023,6,7,16,35,48,515
46.33310,0.11550,-0.10973,0.00000,0.03111,0.97576,-0.19093,0.0,2023,6,7,16,35,48,526
46.33320,0.11550,-0.00472,0.00000,0.03013,0.97649,-0.19130,0.0,2023,6,7,16,35,48,538
46.33330,-0.05950,-0.00472,0.00000,0.03026,0.97515,-0.19191,0.0,2023,6,7,16,35,48,549
46.33340,-0.07700,0.08277,0.00000,0.03160,0.97637,-0.19239,0.0,2023,6,7,16,35,48,560
46.33350,-0.02450,-0.02222,0.00000,0.03074,0.97685,-0.19020,0.0,2023,6,7,16,35,48,572
46.33360,-0.09450,0.10027,0.00000,0.03062,0.97673,-0.18995,0.0,2023,6,7,16,35,48,583
46.33370,-0.09450,0.18778,0.00000,0.03026,0.97429,-0.19264,0.0,2023,6,7,16,35,48,594
46.33380,-0.11200,0.10027,0.00000,0.02940,0.97612,-0.18995,0.0,2023,6,7,16,35,48,606
46.33390,0.08050,-0.02222,0.00000,0.03135,0.97490,-0.19130,0.0,2023,6,7,16,35,48,617
46.33400,0.11550,0.13528,0.00000,0.03111,0.97563,-0.19154,0.0,2023,6,7,16,35,48,628
46.33410,0.06300,-0.03972,0.00000,0.03294,0.97734,-0.19166,0.0,2023,6,7,16,35,48,639
46.33420,0.13300,-0.12723,0.00000,0.02989,0.97356,-0.19008,0.0,2023,6,7,16,35,48,651
46.33430,-0.05950,0.17028,0.00000,0.03355,0.97710,-0.18800,0.0,2023,6,7,16,35,48,662
46.33440,0.04550,0.08277,0.00000,0.03111,0.97380,-0.18971,0.0,2023,6,7,16,35,48,673
46.33450,0.01050,-0.17972,0.00000,0.02904,0.97698,-0.19154,0.0,2023,6,7,16,35,48,685
46.33460,-0.07700,0.20528,0.00000,0.03074,0.97844,-0.18995,0.0,2023,6,7,16,35,48,696
46.33470,-0.09450,0.20528,0.00000,0.03282,0.97685,-0.18922,0.0,2023,6,7,16,35,48,707
46.33480,-0.00700,0.13528,0.00000,0.03257,0.97551,-0.19056,0.0,2023,6,7,16,35,48,719
46.33490,-0.05950,-0.00472,0.00000,0.03148,0.97551,-0.18922,0.0,2023,6,7,16,35,48,730
46.33500,-0.21700,-0.09223,0.00000,0.02977,0.97551,-0.19056,0.0,2023,6,7,16,35,48,741
46.33510,0.01050,0.10027,0.00000,0.03160,0.97881,-0.18995,0.0,2023,6,7,16,35,48,752
46.33520,-0.04200,-0.00472,0.00000,0.02965,0.97661,-0.18971,0.0,2023,6,7,16,35,48,764
46.33530,-0.19950,0.06527,0.00000,0.03062,0.97698,-0.18922,0.0,2023,6,7,16,35,48,775
46.33540,-0.04200,0.11777,0.00000,0.03148,0.97771,-0.19032,0.0,2023,6,7,16,35,48,786
46.33550,-0.16450,0.17028,0.00000,0.02928,0.97600,-0.19130,0.0,2023,6,7,16,35,48,798
46.33560,-0.18200,-0.12723,0.00000,0.03245,0.97685,-0.18995,0.0,2023,6,7,16,35,48,809
46.33570,-0.09450,0.10027,0.00000,0.02952,0.97283,-0.19044,0.0,2023,6,7,16,35,48,820
46.33580,0.09800,0.08277,0.00000,0.03013,0.97612,-0.18934,0.0,2023,6,7,16,35,48,832
46.33590,0.25550,-0.00472,0.00000,0.03001,0.97795,-0.19069,0.0,2023,6,7,16,35,48,843
46.33600,-0.14700,0.15278,0.00000,0.03013,0.97734,-0.18959,0.0,2023,6,7,16,35,48,854
46.33610,0.15050,-0.02222,0.00000,0.03074,0.97698,-0.19130,0.0,2023,6,7,16,35,48,865
46.33620,-0.30450,0.10027,0.00000,0.03099,0.97649,-0.18849,0.0,2023,6,7,16,35,48,877
46.33630,0.01050,0.11777,0.00000,0.03135,0.97429,-0.18971,0.0,2023,6,7,16,35,48,888
46.33640,-0.07700,0.03028,0.00000,0.03013,0.97466,-0.19081,0.0,2023,6,7,16,35,48,899
46.33650,0.04550,-0.02222,0.00000,0.03148,0.97746,-0.19191,0.0,2023,6,7,16,35,48,911
46.33660,-0.14700,0.08277,0.00000,0.03160,0.97588,-0.19313,0.0,2023,6,7,16,35,48,922
46.33670,-0.14700,0.03028,0.00000,0.02952,0.97722,-0.18995,0.0,2023,6,7,16,35,48,933
46.33680,-0.00700,-0.09223,0.00000,0.03013,0.97649,-0.19056,0.0,2023,6,7,16,35,48,945
46.33690,-0.00700,-0.00472,0.00000,0.03172,0.97759,-0.19203,0.0,2023,6,7,16,35,48,956
46.33700,0.04550,-0.05722,0.00000,0.03001,0.97612,-0.19130,0.0,2023,6,7,16,35,48,967
46.33710,0.09800,-0.00472,0.00000,0.03184,0.97515,-0.18983,0.0,2023,6,7,16,35,48,978
46.33720,-0.07700,-0.10973,0.00000,0.03257,0.97685,-0.19069,0.0,2023,6,7,16,35,48,990
46.33730,0.02800,0.25778,0.00000,0.03087,0.97722,-0.18934,0.0,2023,6,7,16,35,48,1
46.33740,-0.07700,0.01278,0.00000,0.03123,0.97759,-0.18983,0.0,2023,6,7,16,35,48,12
46.33750,-0.09450,0.24028,0.00000,0.03026,0.97759,-0.19154,0.0,2023,6,7,16,35,48,24
46.33760,-0.09450,0.03028,0.00000,0.03196,0.97319,-0.19020,0.0,2023,6,7,16,35,49,5
46.33770,0.16800,-0.09223,0.00000,0.03074,0.97734,-0.18934,0.0,2023,6,7,16,35,49,16
46.33780,-0.09450,0.01278,0.00000,0.03038,0.97332,-0.18886,0.0,2023,6,7,16,35,49,28
46.33790,0.18550,0.01278,0.00000,0.03099,0.97637,-0.18922,0.0,2023,6,7,16,35,49,39
46.33800,-0.11200,0.03028,0.00000,0.03038,0.97624,-0.19252,0.0,2023,6,7,16,35,49,50
46.33810,0.13300,-0.03972,0.00000,0.02855,0.97844,-0.19154,0.0,2023,6,7,16,35,49,61
46.33820,0.06300,-0.12723,0.00000,0.03099,0.97624,-0.18983,0.0,2023,6,7,16,35,49,73
46.33830,0.02800,-0.00472,0.00000,0.02940,0.97649,-0.18934,0.0,2023,6,7,16,35,49,84
46.33840,0.08050,-0.09223,0.00000,0.03050,0.97673,-0.18959,0.0,2023,6,7,16,35,49,95
46.33850,-0.05950,0.04778,0.00000,0.03001,0.97490,-0.19239,0.0,2023,6,7,16,35,49,107
46.33860,0.02800,-0.09223,0.00000,0.03099,0.97502,-0.19056,0.0,2023,6,7,16,35,49,118
46.33870,0.04550,-0.00472,0.00000,0.02940,0.97624,-0.19032,0.0,2023,6,7,16,35,49,129
46.33880,-0.05950,-0.03972,0.00000,0.03050,0.97612,-0.19117,0.0,2023,6,7,16,35,49,141
46.33890,0.13300,0.10027,0.00000,0.03001,0.97698,-0.19178,0.0,2023,6,7,16,35,49,152
46.33900,-0.04200,0.01278,0.00000,0.03111,0.97527,-0.19191,0.0,2023,6,7,16,35,49,163
46.33910,-0.00700,-0.00472,0.00000,0.03148,0.97539,-0.19239,0.0,2023,6,7,16,35,49,174
46.33920,-0.07700,0.20528,0.00000,0.02928,0.97722,-0.19069,0.0,2023,6,7,16,35,49,186
46.33930,0.08050,-0.02222,0.00000,0.02977,0.97563,-0.19227,0.0,2023,6,7,16,35,49,197
46.33940,0.08050,0.04778,0.00000,0.02952,0.97417,-0.19166,0.0,2023,6,7,16,35,49,208
46.33950,0.06300,0.25778,0.00000,0.03160,0.97527,-0.19288,0.0,2023,6,7,16,35,49,220
46.33960,0.04550,-0.02222,0.00000,0.02965,0.97563,-0.19166,0.0,2023,6,7,16,35,49,231
46.33970,-0.00700,-0.02222,0.00000,0.02757,0.97893,-0.18983,0.0,2023,6,7,16,35,49,242
46.33980,-0.05950,0.04778,0.00000,0.02843,0.97600,-0.19044,0.0,2023,6,7,16,35,49,254
46.33990,-0.00700,0.15278,0.00000,0.03001,0.97698,-0.18898,0.0,2023,6,7,16,35,49,265
46.34000,0.01050,0.06527,0.00000,0.02794,0.97515,-0.19215,0.0,2023,6,7,16,35,49,276
46.34010,0.15050,0.04778,0.00000,0.03135,0.97600,-0.19252,0.0,2023,6,7,16,35,49,287
46.34020,-0.09450,-0.14473,0.00000,0.03196,0.97844,-0.19178,0.0,2023,6,7,16,35,49,299
46.34030,-0.04200,-0.00472,0.00000,0.03245,0.97746,-0.19105,0.0,2023,6,7,16,35,49,310
46.34040,-0.07700,0.10027,0.00000,0.03233,0.97478,-0.18910,0.0,2023,6,7,16,35,49,321
46.34050,-0.07700,-0.05722,0.00000,0.02977,0.97759,-0.19044,0.0,2023,6,7,16,35,49,333
46.34060,-0.04200,0.04778,0.00000,0.03062,0.97405,-0.18934,0.0,2023,6,7,16,35,49,344
46.34070,0.02800,-0.12723,0.00000,0.03074,0.97783,-0.18971,0.0,2023,6,7,16,35,49,355
46.34080,-0.00700,0.03028,0.00000,0.03294,0.97332,-0.19081,0.0,2023,6,7,16,35,49,367
46.34090,0.06300,0.01278,0.00000,0.03087,0.97466,-0.19239,0.0,2023,6,7,16,35,49,378
46.34100,-0.11200,0.29277,0.00000,0.03038,0.97783,-0.19093,0.0,2023,6,7,16,35,49,389
46.34110,-0.00700,0.01278,0.00000,0.03050,0.97807,-0.18934,0.0,2023,6,7,16,35,49,400
46.34120,-0.00700,0.01278,0.00000,0.03062,0.97527,-0.19020,0.0,2023,6,7,16,35,49,412
46.34130,0.08050,0.15278,0.00000,0.03135,0.97612,-0.19325,0.0,2023,6,7,16,35,49,423
46.34140,0.11550,0.08277,0.00000,0.03306,0.97588,-0.19239,0.0,2023,6,7,16,35,49,434
46.34150,-0.14700,0.24028,0.00000,0.03074,0.97417,-0.18971,0.0,2023,6,7,16,35,49,446
46.34160,-0.05950,-0.00472,0.00000,0.03038,0.97563,-0.19093,0.0,2023,6,7,16,35,49,457
46.34170,-0.07700,0.24028,0.00000,0.02977,0.97612,-0.19032,0.0,2023,6,7,16,35,49,468
46.34180,-0.19950,-0.03972,0.00000,0.03123,0.97722,-0.19117,0.0,2023,6,7,16,35,49,480
46.34190,0.01050,-0.00472,0.00000,0.03074,0.97588,-0.19276,0.0,2023,6,7,16,35,49,491
46.34200,-0.09450,0.18778,0.00000,0.03282,0.97771,-0.19178,0.0,2023,6,7,16,35,49,502
46.34210,-0.04200,0.01278,0.00000,0.03038,0.97710,-0.19276,0.0,2023,6,7,16,35,49,513
46.34220,0.09800,-0.02222,0.00000,0.03001,0.97563,-0.19264,0.0,2023,6,7,16,35,49,525
46.34230,-0.04200,-0.10973,0.00000,0.02879,0.97698,-0.19166,0.0,2023,6,7,16,35,49,536
46.34240,0.02800,0.20528,0.00000,0.03001,0.97649,-0.19178,0.0,2023,6,7,16,35,49,547
46.34250,-0.05950,-0.16223,0.00000,0.03087,0.97429,-0.19130,0.0,2023,6,7,16,35,49,559
46.34260,0.01050,-0.12723,0.00000,0.03135,0.97417,-0.19032,0.0,2023,6,7,16,35,49,570
46.34270,-0.02450,-0.10973,0.00000,0.03050,0.97600,-0.19130,0.0,2023,6,7,16,35,49,581
46.34280,-0.02450,0.15278,0.00000,0.03196,0.97759,-0.19069,0.0,2023,6,7,16,35,49,593
46.34290,-0.00700,0.06527,0.00000,0.03062,0.97722,-0.19020,0.0,2023,6,7,16,35,49,604
46.34300,-0.16450,0.08277,0.00000,0.03087,0.97478,-0.19130,0.0,2023,6,7,16,35,49,615
46.34310,0.06300,0.29277,0.00000,0.03123,0.97515,-0.19386,0.0,2023,6,7,16,35,49,626
46.34320,-0.04200,0.03028,0.00000,0.03062,0.97527,-0.19300,0.0,2023,6,7,16,35,49,638
46.34330,-0.02450,-0.05722,0.00000,0.03123,0.97588,-0.18825,0.0,2023,6,7,16,35,49,649
46.34340,0.01050,0.08277,0.00000,0.03001,0.97759,-0.19178,0.0,2023,6,7,16,35,49,660
46.34350,0.09800,0.11777,0.00000,0.03026,0.97685,-0.19130,0.0,2023,6,7,16,35,49,672
46.34360,-0.07700,0.13528,0.00000,0.03074,0.97649,-0.19130,0.0,2023,6,7,16,35,49,683
46.34370,0.06300,0.06527,0.00000,0.02818,0.97734,-0.19288,0.0,2023,6,7,16,35,49,694
46.34380,-0.00700,0.13528,0.00000,0.03062,0.97454,-0.18922,0.0,2023,6,7,16,35,49,706
46.34390,0.11550,0.01278,0.00000,0.03172,0.97685,-0.19093,0.0,2023,6,7,16,35,49,717
46.34400,-0.18200,0.08277,0.00000,0.03184,0.97600,-0.19032,0.0,2023,6,7,16,35,49,728
46.34410,0.16800,-0.02222,0.00000,0.03087,0.97685,-0.18971,0.0,2023,6,7,16,35,49,739
46.34420,0.01050,-0.05722,0.00000,0.03172,0.97515,-0.19081,0.0,2023,6,7,16,35,49,751
46.34430,-0.05950,-0.00472,0.00000,0.03050,0.97502,-0.19410,0.0,2023,6,7,16,35,49,762
46.34440,0.11550,0.10027,0.00000,0.02867,0.97746,-0.19496,0.0,2023,6,7,16,35,49,773
46.34450,-0.14700,0.15278,0.00000,0.02891,0.97466,-0.19203,0.0,2023,6,7,16,35,49,785
46.34460,-0.05950,0.01278,0.00000,0.03050,0.97502,-0.19032,0.0,2023,6,7,16,35,49,796
46.34470,0.01050,0.08277,0.00000,0.03209,0.97271,-0.18983,0.0,2023,6,7,16,35,49,807
46.34480,-0.00700,0.01278,0.00000,0.03026,0.97649,-0.19239,0.0,2023,6,7,16,35,49,819
46.34490,-0.00700,-0.14473,0.00000,0.02818,0.97576,-0.19105,0.0,2023,6,7,16,35,49,830
46.34500,-0.11200,0.11777,0.00000,0.02952,0.97649,-0.18837,0.0,2023,6,7,16,35,49,841
46.34510,0.06300,-0.10973,0.00000,0.03026,0.97576,-0.19069,0.0,2023,6,7,16,35,49,852
46.34520,-0.00700,-0.24972,0.00000,0.02952,0.97722,-0.19203,0.0,2023,6,7,16,35,49,864
46.34530,0.08050,0.06527,0.00000,0.02989,0.97856,-0.19117,0.0,2023,6,7,16,35,49,875
46.34540,-0.18200,0.06527,0.00000,0.03123,0.97795,-0.19008,0.0,2023,6,7,16,35,49,886
46.34550,-0.18200,-0.07472,0.00000,0.02904,0.97612,-0.18983,0.0,2023,6,7,16,35,49,898
46.34560,-0.19950,0.24028,0.00000,0.03135,0.97612,-0.19069,0.0,2023,6,7,16,35,49,909
46.34570,0.08050,-0.02222,0.00000,0.02806,0.97722,-0.19105,0.0,2023,6,7,16,35,49,920
46.34580,0.02800,0.34527,0.00000,0.03038,0.97515,-0.19227,0.0,2023,6,7,16,35,49,932
46.34590,0.13300,0.08277,0.00000,0.03050,0.97807,-0.19166,0.0,2023,6,7,16,35,49,943
46.34600,0.22050,-0.05722,0.00000,0.03282,0.97405,-0.18861,0.0,2023,6,7,16,35,49,954
46.34610,-0.05950,0.25778,0.00000,0.03148,0.97588,-0.18886,0.0,2023,6,7,16,35,49,965
46.34620,0.06300,-0.12723,0.00000,0.03184,0.97832,-0.19264,0.0,2023,6,7,16,35,49,977
46.34630,0.20300,0.04778,0.00000,0.02916,0.97649,-0.19105,0.0,2023,6,7,16,35,49,988
46.34640,-0.04200,0.15278,0.00000,0.03087,0.97649,-0.19105,0.0,2023,6,7,16,35,50,9
46.34650,-0.05950,0.03028,0.00000,0.02928,0.97588,-0.19056,0.0,2023,6,7,16,35,50,21
46.34660,-0.14700,-0.07472,0.00000,0.02965,0.97588,-0.19044,0.0,2023,6,7,16,35,50,32
46.34670,0.16800,-0.03972,0.00000,0.03135,0.97612,-0.19227,0.0,2023,6,7,16,35,50,43
46.34680,0.04550,-0.05722,0.00000,0.03367,0.97441,-0.19276,0.0,2023,6,7,16,35,50,55
46.34690,0.13300,0.13528,0.00000,0.03062,0.97722,-0.18995,0.0,2023,6,7,16,35,50,66
46.34700,-0.16450,-0.23222,0.00000,0.03184,0.97588,-0.19044,0.0,2023,6,7,16,35,50,77
46.34710,0.02800,-0.00472,0.00000,0.03026,0.97783,-0.18995,0.0,2023,6,7,16,35,50,88
46.34720,0.18550,0.03028,0.00000,0.03160,0.97637,-0.19483,0.0,2023,6,7,16,35,50,100
46.34730,-0.05950,0.01278,0.00000,0.03111,0.97539,-0.19105,0.0,2023,6,7,16,35,50,111
46.34740,-0.19950,0.15278,0.00000,0.02977,0.97576,-0.19398,0.0,2023,6,7,16,35,50,122
46.34750,-0.09450,0.04778,0.00000,0.03001,0.97539,-0.19069,0.0,2023,6,7,16,35,50,134
46.34760,0.01050,0.17028,0.00000,0.02904,0.97563,-0.19020,0.0,2023,6,7,16,35,50,145
46.34770,0.13300,-0.17972,0.00000,0.02940,0.97490,-0.18825,0.0,2023,6,7,16,35,50,156
46.34780,-0.05950,-0.09223,0.00000,0.03221,0.97490,-0.18995,0.0,2023,6,7,16,35,50,168
46.34790,0.06300,0.01278,0.00000,0.02928,0.97698,-0.19130,0.0,2023,6,7,16,35,50,179
46.34800,-0.12950,0.08277,0.00000,0.03221,0.97527,-0.19069,0.0,2023,6,7,16,35,50,190
46.34810,-0.14700,0.22278,0.00000,0.03062,0.97685,-0.18934,0.0,2023,6,7,16,35,50,201
46.34820,-0.04200,-0.14473,0.00000,0.03245,0.97661,-0.19056,0.0,2023,6,7,16,35,50,213
46.34830,-0.04200,0.01278,0.00000,0.03111,0.97624,-0.19032,0.0,2023,6,7,16,35,50,224
46.34840,-0.05950,0.13528,0.00000,0.03306,0.97759,-0.19154,0.0,2023,6,7,16,35,50,235
46.34850,0.06300,0.04778,0.00000,0.03074,0.97563,-0.19020,0.0,2023,6,7,16,35,50,247
46.34860,0.06300,0.15278,0.00000,0.03038,0.97746,-0.19069,0.0,2023,6,7,16,35,50,258
46.34870,0.09800,-0.19722,0.00000,0.03294,0.97637,-0.19130,0.0,2023,6,7,16,35,50,269
46.34880,-0.02450,0.11777,0.00000,0.03123,0.97502,-0.19142,0.0,2023,6,7,16,35,50,281
46.34890,0.01050,-0.21472,0.00000,0.03318,0.97515,-0.18995,0.0,2023,6,7,16,35,50,292
46.34900,0.09800,-0.07472,0.00000,0.02989,0.97637,-0.19130,0.0,2023,6,7,16,35,50,303
46.34910,0.06300,-0.00472,0.00000,0.02977,0.97454,-0.19130,0.0,2023,6,7,16,35,50,314
46.34920,-0.00700,-0.00472,0.00000,0.03160,0.97515,-0.19032,0.0,2023,6,7,16,35,50,326
46.34930,0.20300,-0.02222,0.00000,0.02904,0.97746,-0.19130,0.0,2023,6,7,16,35,50,337
46.34940,0.11550,-0.07472,0.00000,0.03318,0.97783,-0.19325,0.0,2023,6,7,16,35,50,348
46.34950,-0.14700,-0.00472,0.00000,0.03026,0.97588,-0.19313,0.0,2023,6,7,16,35,50,360
46.34960,-0.00700,-0.05722,0.00000,0.03013,0.97637,-0.19008,0.0,2023,6,7,16,35,50,371
46.34970,0.01050,-0.03972,0.00000,0.03087,0.97771,-0.19117,0.0,2023,6,7,16,35,50,382
46.34980,0.01050,0.04778,0.00000,0.03038,0.97563,-0.18886,0.0,2023,6,7,16,35,50,394
46.34990,0.02800,-0.00472,0.00000,0.03013,0.97966,-0.19264,0.0,2023,6,7,16,35,50,405
46.35000,0.02800,0.04778,0.00000,0.03160,0.97746,-0.18886,0.0,2023,6,7,16,35,50,416
46.35010,0.01050,-0.03972,0.00000,0.02916,0.97539,-0.19154,0.0,2023,6,7,16,35,50,427
46.35020,-0.19950,0.29277,0.00000,0.03099,0.97600,-0.19130,0.0,2023,6,7,16,35,50,439
46.35030,0.18550,-0.05722,0.00000,0.03294,0.97539,-0.19081,0.0,2023,6,7,16,35,50,450
46.35040,0.08050,-0.03972,0.00000,0.03062,0.97722,-0.19032,0.0,2023,6,7,16,35,50,461
46.35050,-0.12950,0.06527,0.00000,0.02830,0.97856,-0.19117,0.0,2023,6,7,16,35,50,473
46.35060,0.01050,0.27527,0.00000,0.02891,0.97454,-0.19300,0.0,2023,6,7,16,35,50,484
46.35070,0.06300,-0.09223,0.00000,0.03087,0.97649,-0.19422,0.0,2023,6,7,16,35,50,495
46.35080,0.08050,-0.17972,0.00000,0.03062,0.97685,-0.19203,0.0,2023,6,7,16,35,50,507
46.35090,-0.02450,0.10027,0.00000,0.03038,0.97332,-0.19093,0.0,2023,6,7,16,35,50,518
46.35100,-0.14700,-0.02222,0.00000,0.02916,0.97502,-0.19288,0.0,2023,6,7,16,35,50,529
46.35110,0.13300,-0.07472,0.00000,0.03196,0.97661,-0.19300,0.0,2023,6,7,16,35,50,540
46.35120,-0.04200,-0.03972,0.00000,0.02977,0.97624,-0.19178,0.0,2023,6,7,16,35,50,552
46.35130,-0.16450,0.17028,0.00000,0.03001,0.97649,-0.19227,0.0,2023,6,7,16,35,50,563
46.35140,0.11550,-0.03972,0.00000,0.02867,0.97612,-0.18947,0.0,2023,6,7,16,35,50,574
46.35150,-0.02450,0.08277,0.00000,0.03111,0.97905,-0.19166,0.0,2023,6,7,16,35,50,586
46.35160,-0.09450,0.13528,0.00000,0.03001,0.97722,-0.19191,0.0,2023,6,7,16,35,50,597
46.35170,0.20300,-0.12723,0.00000,0.03026,0.97405,-0.19056,0.0,2023,6,7,16,35,50,608
46.35180,-0.00700,-0.02222,0.00000,0.03062,0.97417,-0.19032,0.0,2023,6,7,16,35,50,620
46.35190,0.08050,-0.05722,0.00000,0.03257,0.97551,-0.19142,0.0,2023,6,7,16,35,50,631
46.35200,0.09800,0.11777,0.00000,0.03233,0.97380,-0.19117,0.0,2023,6,7,16,35,50,642
46.35210,-0.04200,0.06527,0.00000,0.02989,0.97978,-0.18959,0.0,2023,6,7,16,35,50,653
46.35220,-0.09450,0.04778,0.00000,0.03050,0.97502,-0.19203,0.0,2023,6,7,16,35,50,665
46.35230,0.15050,-0.05722,0.00000,0.03282,0.97307,-0.19105,0.0,2023,6,7,16,35,50,676
46.35240,0.04550,-0.00472,0.00000,0.03428,0.97576,-0.19130,0.0,2023,6,7,16,35,50,687
46.35250,0.02800,0.04778,0.00000,0.03135,0.97734,-0.19374,0.0,2023,6,7,16,35,50,699
46.35260,0.16800,0.01278,0.00000,0.03099,0.97515,-0.19374,0.0,2023,6,7,16,35,50,710
46.35270,-0.09450,0.10027,0.00000,0.03257,0.97576,-0.18873,0.0,2023,6,7,16,35,50,721
46.35280,0.02800,0.08277,0.00000,0.03062,0.97612,-0.19105,0.0,2023,6,7,16,35,50,733
46.35290,0.15050,-0.14473,0.00000,0.03111,0.97661,-0.19142,0.0,2023,6,7,16,35,50,744
46.35300,-0.14700,0.13528,0.00000,0.03355,0.97746,-0.19264,0.0,2023,6,7,16,35,50,755
46.35310,-0.07700,0.11777,0.00000,0.03013,0.97417,-0.19325,0.0,2023,6,7,16,35,50,766
46.35320,-0.05950,-0.03972,0.00000,0.02782,0.97490,-0.19093,0.0,2023,6,7,16,35,50,778
46.35330,0.04550,0.01278,0.00000,0.03001,0.97685,-0.19069,0.0,2023,6,7,16,35,50,789
46.35340,-0.16450,-0.00472,0.00000,0.02965,0.97576,-0.19069,0.0,2023,6,7,16,35,50,800
46.35350,0.02800,-0.05722,0.00000,0.03013,0.97685,-0.19374,0.0,2023,6,7,16,35,50,812
46.35360,0.04550,0.13528,0.00000,0.03074,0.97820,-0.19105,0.0,2023,6,7,16,35,50,823
46.35370,0.11550,-0.05722,0.00000,0.02879,0.97515,-0.19191,0.0,2023,6,7,16,35,50,834
46.35380,-0.19950,-0.02222,0.00000,0.03172,0.97771,-0.18959,0.0,2023,6,7,16,35,50,846
46.35390,0.13300,-0.09223,0.00000,0.03196,0.97661,-0.18934,0.0,2023,6,7,16,35,50,857
46.35400,-0.00700,0.04778,0.00000,0.03050,0.97734,-0.19142,0.0,2023,6,7,16,35,50,868
46.35410,0.04550,-0.00472,0.00000,0.02916,0.97734,-0.19044,0.0,2023,6,7,16,35,50,879
46.35420,-0.16450,0.31027,0.00000,0.03148,0.97856,-0.19203,0.0,2023,6,7,16,35,50,891
46.35430,-0.07700,0.01278,0.00000,0.03001,0.97649,-0.18971,0.0,2023,6,7,16,35,50,902
46.35440,0.02800,-0.16223,0.00000,0.03062,0.97734,-0.18995,0.0,2023,6,7,16,35,50,913
46.35450,-0.05950,0.06527,0.00000,0.03013,0.97539,-0.18995,0.0,2023,6,7,16,35,50,925
46.35460,0.04550,0.18778,0.00000,0.03026,0.97637,-0.18922,0.0,2023,6,7,16,35,50,936
46.35470,-0.07700,0.01278,0.00000,0.03294,0.97527,-0.19215,0.0,2023,6,7,16,35,50,947
46.35480,-0.07700,0.01278,0.00000,0.03135,0.97698,-0.19154,0.0,2023,6,7,16,35,50,959
46.35490,-0.07700,-0.00472,0.00000,0.03184,0.97698,-0.18922,0.0,2023,6,7,16,35,50,970
46.35500,-0.02450,0.11777,0.00000,0.03026,0.97539,-0.18983,0.0,2023,6,7,16,35,50,981
46.35510,-0.12950,0.22278,0.00000,0.02867,0.97820,-0.19166,0.0,2023,6,7,16,35,50,992
46.35520,-0.05950,-0.17972,0.00000,0.03123,0.97502,-0.19361,0.0,2023,6,7,16,35,50,4
46.35530,0.16800,-0.03972,0.00000,0.02916,0.97771,-0.18959,0.0,2023,6,7,16,35,50,15
46.35540,-0.09450,0.13528,0.00000,0.03282,0.97844,-0.18983,0.0,2023,6,7,16,35,50,26
46.35550,-0.09450,-0.02222,0.00000,0.03013,0.97661,-0.18886,0.0,2023,6,7,16,35,51,8
46.35560,-0.05950,0.06527,0.00000,0.03001,0.97600,-0.19008,0.0,2023,6,7,16,35,51,19
46.35570,-0.12950,0.32777,0.00000,0.03001,0.97563,-0.18983,0.0,2023,6,7,16,35,51,30
46.35580,-0.05950,-0.09223,0.00000,0.02928,0.97612,-0.19056,0.0,2023,6,7,16,35,51,42
46.35590,0.13300,0.08277,0.00000,0.03099,0.97466,-0.19203,0.0,2023,6,7,16,35,51,53
46.35600,0.09800,-0.02222,0.00000,0.03111,0.97698,-0.19008,0.0,2023,6,7,16,35,51,64
46.35610,-0.16450,-0.14473,0.00000,0.03026,0.97502,-0.19130,0.0,2023,6,7,16,35,51,75
46.35620,-0.02450,-0.10973,0.00000,0.02965,0.97600,-0.19227,0.0,2023,6,7,16,35,51,87
46.35630,-0.04200,0.15278,0.00000,0.03026,0.97539,-0.19154,0.0,2023,6,7,16,35,51,98
46.35640,0.04550,-0.05722,0.00000,0.03123,0.97612,-0.19239,0.0,2023,6,7,16,35,51,109
46.35650,0.06300,-0.09223,0.00000,0.03123,0.97795,-0.18947,0.0,2023,6,7,16,35,51,121
46.35660,-0.00700,-0.17972,0.00000,0.03062,0.97624,-0.19130,0.0,2023,6,7,16,35,51,132
46.35670,-0.16450,-0.14473,0.00000,0.02794,0.97600,-0.19361,0.0,2023,6,7,16,35,51,143
46.35680,0.04550,-0.19722,0.00000,0.03050,0.97527,-0.19105,0.0,2023,6,7,16,35,51,155
46.35690,-0.12950,-0.16223,0.00000,0.03282,0.97942,-0.19154,0.0,2023,6,7,16,35,51,166
46.35700,0.02800,-0.02222,0.00000,0.03001,0.97319,-0.18934,0.0,2023,6,7,16,35,51,177
46.35710,0.02800,0.04778,0.00000,0.03099,0.97783,-0.19239,0.0,2023,6,7,16,35,51,188
46.35720,-0.05950,0.15278,0.00000,0.03148,0.97698,-0.19288,0.0,2023,6,7,16,35,51,200
46.35730,-0.12950,0.11777,0.00000,0.03087,0.97478,-0.19130,0.0,2023,6,7,16,35,51,211
46.35740,0.01050,0.06527,0.00000,0.03196,0.97771,-0.19178,0.0,2023,6,7,16,35,51,222
46.35750,-0.14700,0.11777,0.00000,0.03026,0.97734,-0.19117,0.0,2023,6,7,16,35,51,234
46.35760,-0.18200,-0.00472,0.00000,0.03160,0.97417,-0.19130,0.0,2023,6,7,16,35,51,245
46.35770,0.15050,0.01278,0.00000,0.03318,0.97637,-0.19178,0.0,2023,6,7,16,35,51,256
46.35780,-0.07700,-0.05722,0.00000,0.03270,0.97515,-0.19252,0.0,2023,6,7,16,35,51,268
46.35790,-0.11200,0.08277,0.00000,0.03111,0.97588,-0.19227,0.0,2023,6,7,16,35,51,279
46.35800,-0.12950,-0.05722,0.00000,0.03001,0.97734,-0.19239,0.0,2023,6,7,16,35,51,290
46.35810,0.04550,0.13528,0.00000,0.03062,0.97600,-0.19191,0.0,2023,6,7,16,35,51,301
46.35820,-0.02450,-0.05722,0.00000,0.03062,0.97368,-0.18971,0.0,2023,6,7,16,35,51,313
46.35830,-0.05950,-0.02222,0.00000,0.03148,0.97515,-0.19191,0.0,2023,6,7,16,35,51,324
46.35840,-0.21700,0.15278,0.00000,0.03148,0.97222,-0.18873,0.0,2023,6,7,16,35,51,335
46.35850,-0.30450,0.17028,0.00000,0.03233,0.97746,-0.18910,0.0,2023,6,7,16,35,51,347
46.35860,0.23800,0.06527,0.00000,0.03123,0.97551,-0.19154,0.0,2023,6,7,16,35,51,358
46.35870,-0.00700,0.04778,0.00000,0.03172,0.97637,-0.19142,0.0,2023,6,7,16,35,51,369
46.35880,-0.02450,0.13528,0.00000,0.03001,0.97698,-0.19215,0.0,2023,6,7,16,35,51,381
46.35890,-0.21700,0.15278,0.00000,0.03135,0.97685,-0.19105,0.0,2023,6,7,16,35,51,392
46.35900,-0.00700,-0.14473,0.00000,0.02916,0.97527,-0.19056,0.0,2023,6,7,16,35,51,403
46.35910,-0.25200,0.01278,0.00000,0.03013,0.97551,-0.19349,0.0,2023,6,7,16,35,51,414
46.35920,-0.02450,-0.09223,0.00000,0.03111,0.97649,-0.19166,0.0,2023,6,7,16,35,51,426
46.35930,0.08050,-0.03972,0.00000,0.03184,0.97661,-0.19178,0.0,2023,6,7,16,35,51,437
46.35940,-0.09450,0.04778,0.00000,0.03355,0.97405,-0.19215,0.0,2023,6,7,16,35,51,448
46.35950,-0.14700,-0.02222,0.00000,0.03026,0.97673,-0.19142,0.0,2023,6,7,16,35,51,460
46.35960,0.09800,0.06527,0.00000,0.03087,0.97710,-0.18971,0.0,2023,6,7,16,35,51,471
46.35970,-0.05950,0.31027,0.00000,0.03306,0.97502,-0.19239,0.0,2023,6,7,16,35,51,482
46.35980,0.09800,-0.23222,0.00000,0.03160,0.97661,-0.19459,0.0,2023,6,7,16,35,51,494
46.35990,0.18550,0.22278,0.00000,0.02965,0.97661,-0.19166,0.0,2023,6,7,16,35,51,505
46.36000,-0.00700,0.13528,0.00000,0.03221,0.97905,-0.19203,0.0,2023,6,7,16,35,51,516
46.36010,-0.00700,0.18778,0.00000,0.03026,0.97527,-0.19215,0.0,2023,6,7,16,35,51,527
46.36020,-0.12950,0.17028,0.00000,0.03221,0.97502,-0.18959,0.0,2023,6,7,16,35,51,539
46.36030,0.16800,0.18778,0.00000,0.03087,0.97685,-0.19081,0.0,2023,6,7,16,35,51,550
46.36040,-0.11200,0.17028,0.00000,0.03233,0.97405,-0.19130,0.0,2023,6,7,16,35,51,561
46.36050,-0.23450,0.31027,0.00000,0.03355,0.97832,-0.18788,0.0,2023,6,7,16,35,51,573
46.36060,0.04550,0.03028,0.00000,0.03050,0.97722,-0.18910,0.0,2023,6,7,16,35,51,584
46.36070,0.18550,-0.10973,0.00000,0.03148,0.97527,-0.19178,0.0,2023,6,7,16,35,51,595
46.36080,-0.07700,0.08277,0.00000,0.03062,0.97673,-0.19130,0.0,2023,6,7,16,35,51,607
46.36090,-0.05950,0.27527,0.00000,0.03087,0.97441,-0.19239,0.0,2023,6,7,16,35,51,618
46.36100,0.08050,0.01278,0.00000,0.03038,0.97771,-0.19093,0.0,2023,6,7,16,35,51,629
46.36110,0.09800,-0.03972,0.00000,0.03196,0.97661,-0.19130,0.0,2023,6,7,16,35,51,640
46.36120,-0.11200,0.04778,0.00000,0.02891,0.97600,-0.19215,0.0,2023,6,7,16,35,51,652
46.36130,-0.02450,-0.16223,0.00000,0.03148,0.97734,-0.19093,0.0,2023,6,7,16,35,51,663
46.36140,0.09800,0.01278,0.00000,0.03196,0.97722,-0.19020,0.0,2023,6,7,16,35,51,674
46.36150,-0.02450,-0.09223,0.00000,0.02977,0.97637,-0.18934,0.0,2023,6,7,16,35,51,686
46.36160,-0.05950,0.11777,0.00000,0.03074,0.97759,-0.19008,0.0,2023,6,7,16,35,51,697
46.36170,0.13300,-0.05722,0.00000,0.03087,0.97576,-0.19020,0.0,2023,6,7,16,35,51,708
46.36180,0.06300,0.08277,0.00000,0.02904,0.97515,-0.18861,0.0,2023,6,7,16,35,51,720
46.36190,-0.02450,-0.05722,0.00000,0.02989,0.97734,-0.19117,0.0,2023,6,7,16,35,51,731
46.36200,-0.05950,0.20528,0.00000,0.02965,0.97807,-0.18947,0.0,2023,6,7,16,35,51,742
46.36210,-0.02450,0.04778,0.00000,0.03038,0.97783,-0.19008,0.0,2023,6,7,16,35,51,753
46.36220,-0.16450,0.03028,0.00000,0.03111,0.97527,-0.19239,0.0,2023,6,7,16,35,51,765
46.36230,-0.11200,0.03028,0.00000,0.03367,0.97588,-0.18983,0.0,2023,6,7,16,35,51,776
46.36240,-0.09450,0.06527,0.00000,0.03111,0.97612,-0.19093,0.0,2023,6,7,16,35,51,787
46.36250,0.01050,0.17028,0.00000,0.03013,0.97759,-0.18983,0.0,2023,6,7,16,35,51,799
46.36260,-0.00700,-0.03972,0.00000,0.03257,0.97478,-0.18910,0.0,2023,6,7,16,35,51,810
46.36270,-0.02450,0.27527,0.00000,0.03172,0.97600,-0.19154,0.0,2023,6,7,16,35,51,821
46.36280,-0.04200,0.03028,0.00000,0.03074,0.97490,-0.19056,0.0,2023,6,7,16,35,51,833
46.36290,0.06300,-0.03972,0.00000,0.03294,0.97624,-0.19044,0.0,2023,6,7,16,35,51,844
46.36300,-0.16450,-0.02222,0.00000,0.02916,0.97405,-0.19239,0.0,2023,6,7,16,35,51,855
46.36310,0.15050,-0.14473,0.00000,0.03172,0.97820,-0.18971,0.0,2023,6,7,16,35,51,866
46.36320,0.08050,-0.02222,0.00000,0.03050,0.97490,-0.19154,0.0,2023,6,7,16,35,51,878
46.36330,0.11550,0.18778,0.00000,0.02745,0.97844,-0.18849,0.0,2023,6,7,16,35,51,889
46.36340,-0.04200,-0.03972,0.00000,0.03001,0.97539,-0.19069,0.0,2023,6,7,16,35,51,900
46.36350,0.01050,-0.17972,0.00000,0.02855,0.97380,-0.19056,0.0,2023,6,7,16,35,51,912
46.36360,-0.02450,0.01278,0.00000,0.03074,0.97576,-0.19130,0.0,2023,6,7,16,35,51,923
46.36370,-0.12950,0.01278,0.00000,0.02940,0.97515,-0.19130,0.0,2023,6,7,16,35,51,934
46.36380,-0.04200,-0.03972,0.00000,0.03001,0.97795,-0.18971,0.0,2023,6,7,16,35,51,946
46.36390,0.11550,-0.05722,0.00000,0.03196,0.97637,-0.19081,0.0,2023,6,7,16,35,51,957
46.36400,0.08050,0.03028,0.00000,0.03135,0.97795,-0.19093,0.0,2023,6,7,16,35,51,968
46.36410,0.22050,-0.16223,0.00000,0.03196,0.97661,-0.19142,0.0,2023,6,7,16,35,51,979
46.36420,-0.07700,-0.17972,0.00000,0.03135,0.97380,-0.19361,0.0,2023,6,7,16,35,51,991
46.36430,0.04550,0.13528,0.00000,0.03038,0.97710,-0.19215,0.0,2023,6,7,16,35,52,2
46.36440,-0.12950,-0.00472,0.00000,0.03038,0.97722,-0.19032,0.0,2023,6,7,16,35,52,13
46.36450,-0.23450,0.04778,0.00000,0.03209,0.97466,-0.19227,0.0,2023,6,7,16,35,52,25
46.36460,-0.42700,0.11777,0.00000,0.03038,0.97478,-0.19227,0.0,2023,6,7,16,35,52,36
46.36470,-0.07700,0.25778,0.00000,0.03172,0.97600,-0.19422,0.0,2023,6,7,16,35,52,47
46.36480,-0.00700,0.06527,0.00000,0.03038,0.97710,-0.19276,0.0,2023,6,7,16,35,52,59
46.36490,0.06300,0.15278,0.00000,0.03013,0.97612,-0.19227,0.0,2023,6,7,16,35,52,70
46.36500,-0.04200,0.06527,0.00000,0.03001,0.97380,-0.19203,0.0,2023,6,7,16,35,52,81
46.36510,-0.11200,0.06527,0.00000,0.03001,0.97868,-0.19252,0.0,2023,6,7,16,35,52,92
46.36520,0.06300,-0.05722,0.00000,0.03062,0.97417,-0.19313,0.0,2023,6,7,16,35,52,104
46.36530,-0.04200,0.15278,0.00000,0.03135,0.97539,-0.19374,0.0,2023,6,7,16,35,52,115
46.36540,-0.07700,0.15278,0.00000,0.03282,0.97527,-0.19130,0.0,2023,6,7,16,35,52,126
46.36550,0.06300,-0.07472,0.00000,0.03123,0.97759,-0.19459,0.0,2023,6,7,16,35,52,138
46.36560,-0.11200,-0.14473,0.00000,0.02965,0.97576,-0.19349,0.0,2023,6,7,16,35,52,149
46.36570,0.09800,0.03028,0.00000,0.02989,0.97820,-0.19361,0.0,2023,6,7,16,35,52,160
46.36580,-0.07700,-0.14473,0.00000,0.03050,0.97685,-0.19300,0.0,2023,6,7,16,35,52,172
46.36590,0.02800,0.06527,0.00000,0.02989,0.97576,-0.19386,0.0,2023,6,7,16,35,52,183
46.36600,0.18550,-0.05722,0.00000,0.02916,0.97515,-0.19276,0.0,2023,6,7,16,35,52,194
46.36610,0.01050,-0.28472,0.00000,0.03257,0.97600,-0.19069,0.0,2023,6,7,16,35,52,205
46.36620,-0.14700,0.11777,0.00000,0.03087,0.97612,-0.19032,0.0,2023,6,7,16,35,52,217
46.36630,-0.00700,0.08277,0.00000,0.03318,0.97795,-0.19032,0.0,2023,6,7,16,35,52,228
46.36640,-0.12950,0.13528,0.00000,0.02940,0.97649,-0.19008,0.0,2023,6,7,16,35,52,239
46.36650,0.04550,0.27527,0.00000,0.03160,0.97515,-0.19288,0.0,2023,6,7,16,35,52,251
46.36660,0.13300,-0.02222,0.00000,0.02928,0.97588,-0.19166,0.0,2023,6,7,16,35,52,262
46.36670,0.13300,-0.05722,0.00000,0.03245,0.97685,-0.19044,0.0,2023,6,7,16,35,52,273
46.36680,0.04550,-0.02222,0.00000,0.03209,0.97441,-0.19252,0.0,2023,6,7,16,35,52,285
46.36690,0.15050,-0.09223,0.00000,0.02989,0.97637,-0.19288,0.0,2023,6,7,16,35,52,296
46.36700,0.08050,0.15278,0.00000,0.03099,0.97673,-0.19069,0.0,2023,6,7,16,35,52,307
46.36710,0.08050,0.13528,0.00000,0.03123,0.97600,-0.19337,0.0,2023,6,7,16,35,52,318
46.36720,-0.05950,0.10027,0.00000,0.03160,0.97698,-0.19081,0.0,2023,6,7,16,35,52,330
46.36730,-0.07700,-0.05722,0.00000,0.03062,0.97588,-0.19142,0.0,2023,6,7,16,35,52,341
46.36740,0.09800,-0.09223,0.00000,0.03135,0.97624,-0.18959,0.0,2023,6,7,16,35,52,352
46.36750,0.06300,-0.21472,0.00000,0.02989,0.97832,-0.18983,0.0,2023,6,7,16,35,52,364
46.36760,-0.07700,-0.00472,0.00000,0.03148,0.97515,-0.19276,0.0,2023,6,7,16,35,52,375
46.36770,0.01050,-0.02222,0.00000,0.03257,0.97539,-0.19264,0.0,2023,6,7,16,35,52,386
46.36780,0.16800,0.31027,0.00000,0.02928,0.97746,-0.19337,0.0,2023,6,7,16,35,52,398
46.36790,-0.05950,0.06527,0.00000,0.03233,0.97759,-0.19203,0.0,2023,6,7,16,35,52,409
46.36800,0.22050,-0.24972,0.00000,0.03087,0.97429,-0.19337,0.0,2023,6,7,16,35,52,420
46.36810,-0.02450,-0.12723,0.00000,0.02916,0.97649,-0.19008,0.0,2023,6,7,16,35,52,431
46.36820,-0.04200,-0.00472,0.00000,0.03026,0.97722,-0.19337,0.0,2023,6,7,16,35,52,443
46.36830,0.04550,-0.05722,0.00000,0.03172,0.97624,-0.19361,0.0,2023,6,7,16,35,52,454
46.36840,-0.12950,0.04778,0.00000,0.03184,0.97539,-0.19044,0.0,2023,6,7,16,35,52,465
46.36850,-0.02450,0.04778,0.00000,0.03148,0.97722,-0.19117,0.0,2023,6,7,16,35,52,477
46.36860,0.04550,0.13528,0.00000,0.02928,0.97478,-0.19081,0.0,2023,6,7,16,35,52,488
46.36870,-0.12950,0.01278,0.00000,0.03087,0.97551,-0.19435,0.0,2023,6,7,16,35,52,499
46.36880,0.04550,-0.09223,0.00000,0.02904,0.97515,-0.19215,0.0,2023,6,7,16,35,52,511
46.36890,0.02800,-0.07472,0.00000,0.02904,0.97807,-0.19130,0.0,2023,6,7,16,35,52,522
46.36900,-0.00700,-0.19722,0.00000,0.03233,0.97759,-0.19313,0.0,2023,6,7,16,35,52,533
46.36910,-0.07700,0.25778,0.00000,0.03135,0.97563,-0.19044,0.0,2023,6,7,16,35,52,544
46.36920,0.06300,-0.07472,0.00000,0.03209,0.97722,-0.19276,0.0,2023,6,7,16,35,52,556
46.36930,0.06300,-0.03972,0.00000,0.03050,0.97478,-0.19374,0.0,2023,6,7,16,35,52,567
46.36940,-0.11200,0.04778,0.00000,0.03111,0.97515,-0.19142,0.0,2023,6,7,16,35,52,578
46.36950,0.04550,0.18778,0.00000,0.03074,0.97454,-0.19178,0.0,2023,6,7,16,35,52,590
46.36960,-0.11200,0.08277,0.00000,0.02867,0.97466,-0.19130,0.0,2023,6,7,16,35,52,601
46.36970,-0.02450,0.04778,0.00000,0.02977,0.97661,-0.19008,0.0,2023,6,7,16,35,52,612
46.36980,0.02800,-0.14473,0.00000,0.03379,0.97539,-0.19288,0.0,2023,6,7,16,35,52,624
46.36990,-0.21700,0.01278,0.00000,0.03050,0.97527,-0.19032,0.0,2023,6,7,16,35,52,635
46.37000,0.02800,0.03028,0.00000,0.03270,0.97563,-0.19386,0.0,2023,6,7,16,35,52,646
46.37010,-0.12950,0.08277,0.00000,0.03050,0.97515,-0.19227,0.0,2023,6,7,16,35,52,657
46.37020,-0.07700,0.03028,0.00000,0.03135,0.97576,-0.19215,0.0,2023,6,7,16,35,52,669
46.37030,-0.16450,-0.07472,0.00000,0.03087,0.97685,-0.19276,0.0,2023,6,7,16,35,52,680
46.37040,-0.16450,0.06527,0.00000,0.03123,0.97783,-0.19105,0.0,2023,6,7,16,35,52,691
46.37050,0.16800,-0.21472,0.00000,0.03087,0.97710,-0.19544,0.0,2023,6,7,16,35,52,703
46.37060,0.25550,0.03028,0.00000,0.02916,0.97429,-0.19117,0.0,2023,6,7,16,35,52,714
46.37070,0.04550,0.25778,0.00000,0.03001,0.97454,-0.19361,0.0,2023,6,7,16,35,52,725
46.37080,-0.09450,-0.02222,0.00000,0.03355,0.97746,-0.19276,0.0,2023,6,7,16,35,52,737
46.37090,-0.05950,-0.10973,0.00000,0.03026,0.97673,-0.19300,0.0,2023,6,7,16,35,52,748
46.37100,-0.23450,-0.21472,0.00000,0.03062,0.97722,-0.19166,0.0,2023,6,7,16,35,52,759
46.37110,-0.11200,-0.12723,0.00000,0.03196,0.97539,-0.19020,0.0,2023,6,7,16,35,52,770
46.37120,0.06300,-0.02222,0.00000,0.02965,0.97515,-0.18922,0.0,2023,6,7,16,35,52,782
46.37130,-0.09450,0.06527,0.00000,0.03148,0.97673,-0.19410,0.0,2023,6,7,16,35,52,793
46.37140,-0.00700,0.13528,0.00000,0.03001,0.97746,-0.19264,0.0,2023,6,7,16,35,52,804
46.37150,-0.14700,0.04778,0.00000,0.02806,0.97685,-0.19069,0.0,2023,6,7,16,35,52,816
46.37160,-0.05950,0.06527,0.00000,0.03074,0.97478,-0.18959,0.0,2023,6,7,16,35,52,827
46.37170,-0.05950,-0.02222,0.00000,0.03050,0.97685,-0.19056,0.0,2023,6,7,16,35,52,838
46.37180,-0.07700,0.10027,0.00000,0.03013,0.97698,-0.19203,0.0,2023,6,7,16,35,52,850
46.37190,-0.05950,0.10027,0.00000,0.03209,0.97661,-0.18947,0.0,2023,6,7,16,35,52,861
46.37200,-0.09450,0.06527,0.00000,0.02940,0.97661,-0.19081,0.0,2023,6,7,16,35,52,872
46.37210,-0.02450,-0.00472,0.00000,0.03050,0.97783,-0.19020,0.0,2023,6,7,16,35,52,883
46.37220,-0.05950,-0.03972,0.00000,0.03001,0.97795,-0.19056,0.0,2023,6,7,16,35,52,895
46.37230,-0.04200,0.06527,0.00000,0.02940,0.97563,-0.19044,0.0,2023,6,7,16,35,52,906
46.37240,0.16800,-0.03972,0.00000,0.02928,0.97539,-0.19203,0.0,2023,6,7,16,35,52,917
46.37250,-0.04200,0.06527,0.00000,0.03196,0.97661,-0.19044,0.0,2023,6,7,16,35,52,929
46.37260,-0.12950,-0.03972,0.00000,0.03257,0.97734,-0.18934,0.0,2023,6,7,16,35,52,940
46.37270,0.02800,0.04778,0.00000,0.03111,0.97502,-0.18861,0.0,2023,6,7,16,35,52,951
46.37280,0.02800,-0.05722,0.00000,0.03233,0.97649,-0.19154,0.0,2023,6,7,16,35,52,963
46.37290,0.09800,-0.05722,0.00000,0.03148,0.97527,-0.19105,0.0,2023,6,7,16,35,52,974
46.37300,-0.07700,0.15278,0.00000,0.03111,0.97685,-0.19313,0.0,2023,6,7,16,35,52,985
46.37310,-0.12950,0.17028,0.00000,0.03196,0.97710,-0.19032,0.0,2023,6,7,16,35,52,996
46.37320,0.01050,0.17028,0.00000,0.03209,0.97539,-0.19044,0.0,2023,6,7,16,35,52,8
46.37330,0.08050,-0.14473,0.00000,0.02989,0.97698,-0.19191,0.0,2023,6,7,16,35,52,19
46.37340,0.13300,-0.05722,0.00000,0.03099,0.97661,-0.19069,0.0,2023,6,7,16,35,53,0
46.37350,0.01050,0.06527,0.00000,0.03111,0.97649,-0.19191,0.0,2023,6,7,16,35,53,12
46.37360,0.09800,-0.02222,0.00000,0.02904,0.97588,-0.19422,0.0,2023,6,7,16,35,53,23
46.37370,0.04550,0.01278,0.00000,0.03221,0.97344,-0.19008,0.0,2023,6,7,16,35,53,34
46.37380,0.09800,0.15278,0.00000,0.03294,0.97478,-0.19008,0.0,2023,6,7,16,35,53,46
46.37390,-0.09450,0.03028,0.00000,0.02965,0.97478,-0.19154,0.0,2023,6,7,16,35,53,57
46.37400,0.11550,0.04778,0.00000,0.03196,0.97417,-0.18995,0.0,2023,6,7,16,35,53,68
46.37410,-0.14700,-0.07472,0.00000,0.02965,0.97527,-0.19191,0.0,2023,6,7,16,35,53,79
46.37420,0.04550,0.10027,0.00000,0.03184,0.97685,-0.18971,0.0,2023,6,7,16,35,53,91
46.37430,-0.18200,0.06527,0.00000,0.03404,0.97612,-0.19032,0.0,2023,6,7,16,35,53,102
46.37440,0.16800,-0.00472,0.00000,0.03148,0.97759,-0.18983,0.0,2023,6,7,16,35,53,113
46.37450,-0.00700,0.24028,0.00000,0.03099,0.97698,-0.19105,0.0,2023,6,7,16,35,53,125
46.37460,-0.04200,-0.07472,0.00000,0.03123,0.97563,-0.19227,0.0,2023,6,7,16,35,53,136
46.37470,0.13300,0.04778,0.00000,0.02904,0.97344,-0.18995,0.0,2023,6,7,16,35,53,147
46.37480,0.02800,0.20528,0.00000,0.03013,0.97624,-0.18971,0.0,2023,6,7,16,35,53,159
46.37490,0.11550,-0.00472,0.00000,0.03257,0.97368,-0.18922,0.0,2023,6,7,16,35,53,170
46.37500,-0.00700,0.10027,0.00000,0.03135,0.97307,-0.19154,0.0,2023,6,7,16,35,53,181
46.37510,-0.04200,0.01278,0.00000,0.03209,0.97637,-0.18995,0.0,2023,6,7,16,35,53,192
46.37520,-0.09450,-0.17972,0.00000,0.03026,0.97698,-0.19093,0.0,2023,6,7,16,35,53,204
46.37530,0.18550,-0.10973,0.00000,0.03270,0.97722,-0.19130,0.0,2023,6,7,16,35,53,215
46.37540,-0.00700,-0.07472,0.00000,0.02891,0.97417,-0.19191,0.0,2023,6,7,16,35,53,226
46.37550,-0.05950,0.06527,0.00000,0.02891,0.97881,-0.19081,0.0,2023,6,7,16,35,53,238
46.37560,0.01050,0.08277,0.00000,0.02952,0.97600,-0.19081,0.0,2023,6,7,16,35,53,249
46.37570,-0.11200,0.18778,0.00000,0.03062,0.97612,-0.19020,0.0,2023,6,7,16,35,53,260
46.37580,-0.04200,0.08277,0.00000,0.03074,0.97576,-0.18861,0.0,2023,6,7,16,35,53,272
46.37590,0.18550,-0.17972,0.00000,0.02891,0.97527,-0.19178,0.0,2023,6,7,16,35,53,283
46.37600,0.08050,-0.03972,0.00000,0.03038,0.97539,-0.19166,0.0,2023,6,7,16,35,53,294
46.37610,0.11550,-0.10973,0.00000,0.02891,0.97527,-0.19081,0.0,2023,6,7,16,35,53,305
46.37620,-0.00700,0.11777,0.00000,0.02977,0.97722,-0.18947,0.0,2023,6,7,16,35,53,317
46.37630,0.09800,0.10027,0.00000,0.03062,0.97746,-0.19093,0.0,2023,6,7,16,35,53,328
46.37640,-0.05950,0.10027,0.00000,0.02928,0.97649,-0.19008,0.0,2023,6,7,16,35,53,339
46.37650,0.04550,-0.02222,0.00000,0.03099,0.97588,-0.19154,0.0,2023,6,7,16,35,53,351
46.37660,-0.23450,0.06527,0.00000,0.03123,0.97454,-0.19178,0.0,2023,6,7,16,35,53,362
46.37670,0.09800,0.10027,0.00000,0.03087,0.97600,-0.19203,0.0,2023,6,7,16,35,53,373
46.37680,0.02800,0.04778,0.00000,0.03013,0.97795,-0.19166,0.0,2023,6,7,16,35,53,385
46.37690,0.01050,0.13528,0.00000,0.03087,0.97795,-0.19081,0.0,2023,6,7,16,35,53,396
46.37700,0.04550,-0.02222,0.00000,0.03282,0.97588,-0.19032,0.0,2023,6,7,16,35,53,407
46.37710,-0.05950,0.11777,0.00000,0.03123,0.97771,-0.19032,0.0,2023,6,7,16,35,53,418
46.37720,0.01050,-0.07472,0.00000,0.03074,0.97624,-0.19276,0.0,2023,6,7,16,35,53,430
46.37730,-0.09450,-0.03972,0.00000,0.03087,0.97673,-0.18959,0.0,2023,6,7,16,35,53,441
46.37740,-0.04200,-0.14473,0.00000,0.02989,0.97466,-0.18873,0.0,2023,6,7,16,35,53,452
46.37750,-0.02450,-0.16223,0.00000,0.03148,0.97710,-0.18995,0.0,2023,6,7,16,35,53,464
46.37760,-0.04200,-0.24972,0.00000,0.02916,0.97649,-0.18922,0.0,2023,6,7,16,35,53,475
46.37770,0.01050,0.11777,0.00000,0.03001,0.97746,-0.18922,0.0,2023,6,7,16,35,53,486
46.37780,0.11550,0.11777,0.00000,0.03038,0.97759,-0.18947,0.0,2023,6,7,16,35,53,498
46.37790,0.04550,0.06527,0.00000,0.03123,0.97624,-0.19191,0.0,2023,6,7,16,35,53,509
46.37800,0.02800,-0.28472,0.00000,0.03038,0.97795,-0.19227,0.0,2023,6,7,16,35,53,520
46.37810,0.08050,0.24028,0.00000,0.02891,0.97746,-0.19008,0.0,2023,6,7,16,35,53,531
46.37820,0.04550,0.04778,0.00000,0.02904,0.97685,-0.18959,0.0,2023,6,7,16,35,53,543
46.37830,-0.21700,0.03028,0.00000,0.03013,0.97637,-0.18837,0.0,2023,6,7,16,35,53,554
46.37840,0.01050,0.17028,0.00000,0.03123,0.97429,-0.19032,0.0,2023,6,7,16,35,53,565
46.37850,-0.04200,-0.09223,0.00000,0.03123,0.97783,-0.18971,0.0,2023,6,7,16,35,53,577
46.37860,-0.11200,-0.24972,0.00000,0.03050,0.97649,-0.19264,0.0,2023,6,7,16,35,53,588
46.37870,-0.23450,0.13528,0.00000,0.03099,0.97649,-0.19105,0.0,2023,6,7,16,35,53,599
46.37880,0.11550,-0.00472,0.00000,0.02867,0.97661,-0.19105,0.0,2023,6,7,16,35,53,611
46.37890,-0.07700,0.22278,0.00000,0.02952,0.97624,-0.19117,0.0,2023,6,7,16,35,53,622
46.37900,-0.12950,-0.00472,0.00000,0.03233,0.97710,-0.19264,0.0,2023,6,7,16,35,53,633
46.37910,-0.18200,0.04778,0.00000,0.03111,0.97905,-0.18873,0.0,2023,6,7,16,35,53,644
46.37920,-0.11200,0.06527,0.00000,0.03001,0.97588,-0.19130,0.0,2023,6,7,16,35,53,656
46.37930,-0.07700,0.17028,0.00000,0.03062,0.97441,-0.19130,0.0,2023,6,7,16,35,53,667
46.37940,-0.09450,0.03028,0.00000,0.03331,0.97502,-0.18873,0.0,2023,6,7,16,35,53,678
46.37950,0.04550,0.15278,0.00000,0.03111,0.97600,-0.19008,0.0,2023,6,7,16,35,53,690
46.37960,-0.04200,-0.21472,0.00000,0.03074,0.97624,-0.19008,0.0,2023,6,7,16,35,53,701
46.37970,-0.09450,-0.10973,0.00000,0.03135,0.97673,-0.18971,0.0,2023,6,7,16,35,53,712
46.37980,-0.05950,0.25778,0.00000,0.03087,0.97563,-0.19044,0.0,2023,6,7,16,35,53,724
46.37990,-0.05950,0.04778,0.00000,0.03233,0.97417,-0.18947,0.0,2023,6,7,16,35,53,735
46.38000,-0.09450,-0.12723,0.00000,0.02952,0.97832,-0.19130,0.0,2023,6,7,16,35,53,746
46.38010,-0.02450,-0.02222,0.00000,0.03343,0.97649,-0.18873,0.0,2023,6,7,16,35,53,757
46.38020,0.01050,0.13528,0.00000,0.03135,0.97734,-0.19081,0.0,2023,6,7,16,35,53,769
46.38030,0.04550,-0.00472,0.00000,0.03001,0.97466,-0.18983,0.0,2023,6,7,16,35,53,780
46.38040,0.18550,-0.12723,0.00000,0.03270,0.97661,-0.19130,0.0,2023,6,7,16,35,53,791
46.38050,-0.21700,0.08277,0.00000,0.03148,0.97746,-0.19142,0.0,2023,6,7,16,35,53,803
46.38060,0.18550,0.18778,0.00000,0.03099,0.97698,-0.18971,0.0,2023,6,7,16,35,53,814
46.38070,-0.21700,-0.00472,0.00000,0.03160,0.97563,-0.18995,0.0,2023,6,7,16,35,53,825
46.38080,0.02800,-0.10973,0.00000,0.03026,0.97563,-0.18934,0.0,2023,6,7,16,35,53,837
46.38090,-0.02450,0.06527,0.00000,0.03087,0.97783,-0.19020,0.0,2023,6,7,16,35,53,848
46.38100,0.01050,-0.00472,0.00000,0.03099,0.97673,-0.19044,0.0,2023,6,7,16,35,53,859
46.38110,0.20300,-0.10973,0.00000,0.03013,0.97588,-0.18947,0.0,2023,6,7,16,35,53,870
46.38120,0.04550,0.04778,0.00000,0.03294,0.97698,-0.18800,0.0,2023,6,7,16,35,53,882
46.38130,0.23800,-0.03972,0.00000,0.03062,0.97576,-0.18739,0.0,2023,6,7,16,35,53,893
46.38140,0.02800,-0.10973,0.00000,0.03172,0.97539,-0.19300,0.0,2023,6,7,16,35,53,904
46.38150,-0.00700,-0.05722,0.00000,0.03135,0.97539,-0.19044,0.0,2023,6,7,16,35,53,916
46.38160,0.08050,-0.14473,0.00000,0.02989,0.97771,-0.18849,0.0,2023,6,7,16,35,53,927
46.38170,-0.14700,0.13528,0.00000,0.02965,0.97527,-0.18751,0.0,2023,6,7,16,35,53,938
46.38180,-0.09450,-0.05722,0.00000,0.03087,0.97600,-0.19056,0.0,2023,6,7,16,35,53,950
46.38190,0.11550,0.06527,0.00000,0.02977,0.97649,-0.18971,0.0,2023,6,7,16,35,53,961
46.38200,-0.00700,-0.09223,0.00000,0.03148,0.97624,-0.18764,0.0,2023,6,7,16,35,53,972
46.38210,0.15050,0.11777,0.00000,0.03050,0.97807,-0.18934,0.0,2023,6,7,16,35,53,983
46.38220,-0.16450,0.20528,0.00000,0.03013,0.97515,-0.19044,0.0,2023,6,7,16,35,53,995
46.38230,0.06300,0.04778,0.00000,0.02916,0.97673,-0.19069,0.0,2023,6,7,16,35,54,6
46.38240,-0.05950,0.06527,0.00000,0.03172,0.97661,-0.18934,0.0,2023,6,7,16,35,54,17
46.38250,-0.05950,0.15278,0.00000,0.02879,0.97722,-0.19032,0.0,2023,6,7,16,35,54,29
46.38260,0.16800,0.11777,0.00000,0.03050,0.97698,-0.19020,0.0,2023,6,7,16,35,54,40
46.38270,-0.11200,-0.03972,0.00000,0.03050,0.97502,-0.19032,0.0,2023,6,7,16,35,54,51
46.38280,-0.02450,-0.05722,0.00000,0.03123,0.97722,-0.19081,0.0,2023,6,7,16,35,54,63
46.38290,-0.12950,0.15278,0.00000,0.03038,0.97576,-0.19361,0.0,2023,6,7,16,35,54,74
46.38300,-0.16450,0.10027,0.00000,0.03001,0.97661,-0.19166,0.0,2023,6,7,16,35,54,85
46.38310,-0.11200,-0.07472,0.00000,0.03074,0.97502,-0.19056,0.0,2023,6,7,16,35,54,96
46.38320,-0.05950,0.04778,0.00000,0.02928,0.97612,-0.18959,0.0,2023,6,7,16,35,54,108
46.38330,-0.00700,0.06527,0.00000,0.03135,0.97710,-0.19154,0.0,2023,6,7,16,35,54,119
46.38340,-0.05950,0.11777,0.00000,0.02940,0.97539,-0.18934,0.0,2023,6,7,16,35,54,130
46.38350,0.04550,-0.09223,0.00000,0.03074,0.97710,-0.18959,0.0,2023,6,7,16,35,54,142
46.38360,-0.05950,0.11777,0.00000,0.03099,0.97417,-0.18678,0.0,2023,6,7,16,35,54,153
46.38370,-0.04200,0.08277,0.00000,0.03123,0.97649,-0.19178,0.0,2023,6,7,16,35,54,164
46.38380,-0.16450,-0.19722,0.00000,0.03196,0.97551,-0.19300,0.0,2023,6,7,16,35,54,176
46.38390,0.04550,0.18778,0.00000,0.03123,0.97624,-0.19252,0.0,2023,6,7,16,35,54,187
46.38400,-0.11200,0.04778,0.00000,0.03111,0.97563,-0.18837,0.0,2023,6,7,16,35,54,198
46.38410,-0.05950,0.01278,0.00000,0.02965,0.97624,-0.18922,0.0,2023,6,7,16,35,54,209
46.38420,-0.11200,0.04778,0.00000,0.03087,0.97820,-0.19142,0.0,2023,6,7,16,35,54,221
46.38430,-0.05950,-0.05722,0.00000,0.03074,0.97515,-0.19081,0.0,2023,6,7,16,35,54,232
46.38440,-0.02450,0.17028,0.00000,0.03013,0.97746,-0.19008,0.0,2023,6,7,16,35,54,243
46.38450,-0.05950,0.10027,0.00000,0.03099,0.97515,-0.19105,0.0,2023,6,7,16,35,54,255
46.38460,-0.05950,-0.10973,0.00000,0.03123,0.97368,-0.18861,0.0,2023,6,7,16,35,54,266
46.38470,0.09800,0.04778,0.00000,0.02952,0.97539,-0.19032,0.0,2023,6,7,16,35,54,277
46.38480,0.20300,-0.00472,0.00000,0.03038,0.97502,-0.19276,0.0,2023,6,7,16,35,54,289
46.38490,-0.07700,0.01278,0.00000,0.03196,0.97600,-0.18873,0.0,2023,6,7,16,35,54,300
46.38500,-0.05950,0.13528,0.00000,0.02977,0.97344,-0.19069,0.0,2023,6,7,16,35,54,311
46.38510,0.16800,-0.02222,0.00000,0.03062,0.97551,-0.18910,0.0,2023,6,7,16,35,54,322
46.38520,-0.04200,0.03028,0.00000,0.02977,0.97612,-0.18910,0.0,2023,6,7,16,35,54,334
46.38530,-0.12950,0.06527,0.00000,0.03343,0.97722,-0.19032,0.0,2023,6,7,16,35,54,345
46.38540,-0.00700,0.17028,0.00000,0.02952,0.97661,-0.19166,0.0,2023,6,7,16,35,54,356
46.38550,0.18550,-0.02222,0.00000,0.03038,0.97698,-0.18959,0.0,2023,6,7,16,35,54,368
46.38560,0.13300,-0.02222,0.00000,0.03026,0.97600,-0.19203,0.0,2023,6,7,16,35,54,379
46.38570,0.02800,-0.09223,0.00000,0.03123,0.97685,-0.19032,0.0,2023,6,7,16,35,54,390
46.38580,0.02800,0.11777,0.00000,0.02794,0.97527,-0.19154,0.0,2023,6,7,16,35,54,402
46.38590,-0.04200,0.17028,0.00000,0.03026,0.97661,-0.19130,0.0,2023,6,7,16,35,54,413
46.38600,0.04550,-0.10973,0.00000,0.03160,0.97466,-0.19300,0.0,2023,6,7,16,35,54,424
46.38610,-0.14700,0.18778,0.00000,0.03111,0.97698,-0.19215,0.0,2023,6,7,16,35,54,435
46.38620,-0.09450,-0.03972,0.00000,0.03026,0.97332,-0.19166,0.0,2023,6,7,16,35,54,447
46.38630,-0.04200,0.18778,0.00000,0.03294,0.97795,-0.19056,0.0,2023,6,7,16,35,54,458
46.38640,-0.09450,0.06527,0.00000,0.02940,0.97515,-0.19313,0.0,2023,6,7,16,35,54,469
46.38650,-0.09450,0.08277,0.00000,0.03209,0.97612,-0.18995,0.0,2023,6,7,16,35,54,481
46.38660,-0.12950,0.32777,0.00000,0.02965,0.97685,-0.19215,0.0,2023,6,7,16,35,54,492
46.38670,0.02800,-0.10973,0.00000,0.03148,0.97637,-0.18971,0.0,2023,6,7,16,35,54,503
46.38680,-0.02450,0.11777,0.00000,0.03001,0.97576,-0.19325,0.0,2023,6,7,16,35,54,515
46.38690,0.02800,0.01278,0.00000,0.03184,0.97637,-0.19008,0.0,2023,6,7,16,35,54,526
46.38700,-0.14700,0.15278,0.00000,0.03074,0.97588,-0.19032,0.0,2023,6,7,16,35,54,537
46.38710,-0.14700,0.18778,0.00000,0.03209,0.98015,-0.19191,0.0,2023,6,7,16,35,54,548
46.38720,-0.04200,0.15278,0.00000,0.02891,0.97454,-0.18861,0.0,2023,6,7,16,35,54,560
46.38730,0.04550,-0.03972,0.00000,0.03135,0.97612,-0.19313,0.0,2023,6,7,16,35,54,571
46.38740,0.11550,-0.07472,0.00000,0.03294,0.97734,-0.19288,0.0,2023,6,7,16,35,54,582
46.38750,-0.00700,0.25778,0.00000,0.03172,0.97600,-0.19093,0.0,2023,6,7,16,35,54,594
46.38760,-0.04200,-0.00472,0.00000,0.03074,0.97527,-0.19020,0.0,2023,6,7,16,35,54,605
46.38770,-0.05950,0.18778,0.00000,0.03062,0.97942,-0.19239,0.0,2023,6,7,16,35,54,616
46.38780,-0.09450,0.10027,0.00000,0.02928,0.97649,-0.19264,0.0,2023,6,7,16,35,54,628
46.38790,0.18550,-0.21472,0.00000,0.02989,0.97649,-0.19325,0.0,2023,6,7,16,35,54,639
46.38800,-0.09450,0.08277,0.00000,0.03038,0.97637,-0.19008,0.0,2023,6,7,16,35,54,650
46.38810,-0.09450,-0.02222,0.00000,0.03050,0.97563,-0.19166,0.0,2023,6,7,16,35,54,661
46.38820,-0.02450,0.04778,0.00000,0.03099,0.97539,-0.19276,0.0,2023,6,7,16,35,54,673
46.38830,-0.04200,0.18778,0.00000,0.03026,0.97685,-0.19117,0.0,2023,6,7,16,35,54,684
46.38840,-0.04200,0.13528,0.00000,0.03111,0.97746,-0.19227,0.0,2023,6,7,16,35,54,695
46.38850,0.01050,0.03028,0.00000,0.03331,0.97746,-0.18995,0.0,2023,6,7,16,35,54,707
46.38860,0.09800,0.01278,0.00000,0.03087,0.97649,-0.18995,0.0,2023,6,7,16,35,54,718
46.38870,0.18550,0.01278,0.00000,0.02965,0.97929,-0.19276,0.0,2023,6,7,16,35,54,729
46.38880,-0.05950,0.04778,0.00000,0.03172,0.97710,-0.18959,0.0,2023,6,7,16,35,54,741
46.38890,-0.05950,0.06527,0.00000,0.03062,0.97746,-0.19069,0.0,2023,6,7,16,35,54,752
46.38900,0.09800,-0.24972,0.00000,0.03196,0.97649,-0.19020,0.0,2023,6,7,16,35,54,763
46.38910,-0.09450,0.03028,0.00000,0.03001,0.97356,-0.18971,0.0,2023,6,7,16,35,54,774
46.38920,-0.04200,-0.00472,0.00000,0.03099,0.97417,-0.19093,0.0,2023,6,7,16,35,54,786
46.38930,0.04550,-0.00472,0.00000,0.03172,0.97710,-0.19300,0.0,2023,6,7,16,35,54,797
46.38940,-0.11200,0.01278,0.00000,0.02891,0.97612,-0.19093,0.0,2023,6,7,16,35,54,808
46.38950,-0.09450,0.31027,0.00000,0.02989,0.97832,-0.19081,0.0,2023,6,7,16,35,54,820
46.38960,0.02800,0.06527,0.00000,0.03001,0.97710,-0.18995,0.0,2023,6,7,16,35,54,831
46.38970,-0.02450,-0.00472,0.00000,0.03111,0.97576,-0.19032,0.0,2023,6,7,16,35,54,842
46.38980,-0.05950,0.03028,0.00000,0.03074,0.97466,-0.19178,0.0,2023,6,7,16,35,54,854
46.38990,0.22050,-0.10973,0.00000,0.03221,0.97490,-0.19166,0.0,2023,6,7,16,35,54,865
46.39000,-0.00700,0.20528,0.00000,0.03172,0.97722,-0.19191,0.0,2023,6,7,16,35,54,876
46.39010,-0.11200,0.18778,0.00000,0.02916,0.97649,-0.19130,0.0,2023,6,7,16,35,54,887
46.39020,0.04550,-0.05722,0.00000,0.03196,0.97332,-0.18849,0.0,2023,6,7,16,35,54,899
46.39030,-0.14700,0.08277,0.00000,0.02977,0.97746,-0.18886,0.0,2023,6,7,16,35,54,910
46.39040,-0.00700,0.03028,0.00000,0.03062,0.97637,-0.18959,0.0,2023,6,7,16,35,54,921
46.39050,0.11550,-0.12723,0.00000,0.03074,0.97527,-0.18910,0.0,2023,6,7,16,35,54,933
46.39060,0.16800,-0.03972,0.00000,0.03087,0.97868,-0.19008,0.0,2023,6,7,16,35,54,944
46.39070,0.16800,0.03028,0.00000,0.03148,0.97832,-0.18849,0.0,2023,6,7,16,35,54,955
46.39080,-0.12950,0.22278,0.00000,0.03135,0.97527,-0.18971,0.0,2023,6,7,16,35,54,967
46.39090,0.22050,0.08277,0.00000,0.02989,0.97746,-0.19203,0.0,2023,6,7,16,35,54,978
46.39100,0.06300,0.04778,0.00000,0.02977,0.97502,-0.19093,0.0,2023,6,7,16,35,54,989
46.39110,0.16800,-0.05722,0.00000,0.03038,0.97454,-0.19117,0.0,2023,6,7,16,35,54,0
46.39120,-0.02450,-0.02222,0.00000,0.03123,0.97685,-0.19069,0.0,2023,6,7,16,35,55,2
46.39130,0.13300,-0.07472,0.00000,0.03038,0.97637,-0.19142,0.0,2023,6,7,16,35,55,13
46.39140,0.06300,0.08277,0.00000,0.03111,0.97844,-0.18837,0.0,2023,6,7,16,35,55,24
46.39150,-0.11200,0.03028,0.00000,0.03001,0.97539,-0.18812,0.0,2023,6,7,16,35,55,36
46.39160,0.01050,-0.00472,0.00000,0.03038,0.97441,-0.19191,0.0,2023,6,7,16,35,55,47
46.39170,-0.09450,-0.00472,0.00000,0.03074,0.97563,-0.19154,0.0,2023,6,7,16,35,55,58
46.39180,-0.04200,-0.09223,0.00000,0.03111,0.97539,-0.19215,0.0,2023,6,7,16,35,55,70
46.39190,-0.05950,-0.07472,0.00000,0.03111,0.97685,-0.19008,0.0,2023,6,7,16,35,55,81
46.39200,0.01050,0.03028,0.00000,0.03123,0.97466,-0.18947,0.0,2023,6,7,16,35,55,92
46.39210,-0.21700,0.38028,0.00000,0.03111,0.97588,-0.19069,0.0,2023,6,7,16,35,55,103
46.39220,0.08050,-0.14473,0.00000,0.03038,0.97868,-0.19105,0.0,2023,6,7,16,35,55,115
46.39230,-0.00700,-0.09223,0.00000,0.03099,0.97563,-0.19142,0.0,2023,6,7,16,35,55,126
46.39240,-0.09450,0.01278,0.00000,0.03160,0.97612,-0.18971,0.0,2023,6,7,16,35,55,137
46.39250,-0.12950,0.08277,0.00000,0.03306,0.97698,-0.19252,0.0,2023,6,7,16,35,55,149
46.39260,0.06300,0.04778,0.00000,0.02977,0.97405,-0.19166,0.0,2023,6,7,16,35,55,160
46.39270,-0.21700,-0.05722,0.00000,0.03001,0.97490,-0.19191,0.0,2023,6,7,16,35,55,171
46.39280,-0.09450,0.08277,0.00000,0.02952,0.97551,-0.19105,0.0,2023,6,7,16,35,55,183
46.39290,0.06300,-0.17972,0.00000,0.03184,0.97515,-0.19093,0.0,2023,6,7,16,35,55,194
46.39300,0.11550,0.41528,0.00000,0.03245,0.97588,-0.19093,0.0,2023,6,7,16,35,55,205
46.39310,0.13300,0.11777,0.00000,0.03355,0.97783,-0.19252,0.0,2023,6,7,16,35,55,216
46.39320,0.04550,0.13528,0.00000,0.02782,0.97759,-0.19069,0.0,2023,6,7,16,35,55,228
46.39330,-0.04200,0.06527,0.00000,0.03050,0.97380,-0.18764,0.0,2023,6,7,16,35,55,239
46.39340,0.06300,-0.03972,0.00000,0.03099,0.97490,-0.18947,0.0,2023,6,7,16,35,55,250
46.39350,-0.02450,0.03028,0.00000,0.03087,0.97698,-0.18849,0.0,2023,6,7,16,35,55,262
46.39360,0.20300,-0.10973,0.00000,0.03074,0.97673,-0.18959,0.0,2023,6,7,16,35,55,273
46.39370,0.08050,-0.24972,0.00000,0.03184,0.97466,-0.18983,0.0,2023,6,7,16,35,55,284
46.39380,0.04550,-0.14473,0.00000,0.03074,0.97771,-0.19166,0.0,2023,6,7,16,35,55,296
46.39390,0.01050,-0.09223,0.00000,0.03160,0.97344,-0.19093,0.0,2023,6,7,16,35,55,307
46.39400,0.06300,0.10027,0.00000,0.03050,0.97588,-0.19032,0.0,2023,6,7,16,35,55,318
46.39410,-0.04200,-0.14473,0.00000,0.03087,0.97478,-0.19105,0.0,2023,6,7,16,35,55,329
46.39420,0.08050,0.03028,0.00000,0.02989,0.97637,-0.19142,0.0,2023,6,7,16,35,55,341
46.39430,-0.00700,0.24028,0.00000,0.03099,0.97478,-0.19081,0.0,2023,6,7,16,35,55,352
46.39440,-0.19950,-0.00472,0.00000,0.03087,0.97551,-0.18898,0.0,2023,6,7,16,35,55,363
46.39450,0.01050,-0.00472,0.00000,0.03135,0.97746,-0.19008,0.0,2023,6,7,16,35,55,375
46.39460,0.06300,-0.07472,0.00000,0.03196,0.97649,-0.19191,0.0,2023,6,7,16,35,55,386
46.39470,-0.02450,-0.00472,0.00000,0.03221,0.97490,-0.19471,0.0,2023,6,7,16,35,55,397
46.39480,0.22050,-0.23222,0.00000,0.03270,0.97576,-0.19020,0.0,2023,6,7,16,35,55,409
46.39490,-0.05950,-0.03972,0.00000,0.03123,0.97746,-0.19264,0.0,2023,6,7,16,35,55,420
46.39500,0.16800,0.11777,0.00000,0.02965,0.97502,-0.19203,0.0,2023,6,7,16,35,55,431
46.39510,-0.19950,-0.00472,0.00000,0.03062,0.97649,-0.18898,0.0,2023,6,7,16,35,55,442
46.39520,0.13300,0.01278,0.00000,0.03087,0.97539,-0.19020,0.0,2023,6,7,16,35,55,454
46.39530,0.09800,0.06527,0.00000,0.03172,0.97624,-0.19166,0.0,2023,6,7,16,35,55,465
46.39540,0.16800,-0.05722,0.00000,0.02843,0.97759,-0.19105,0.0,2023,6,7,16,35,55,476
46.39550,-0.00700,0.06527,0.00000,0.03209,0.97551,-0.19020,0.0,2023,6,7,16,35,55,488
46.39560,0.04550,0.01278,0.00000,0.02855,0.97771,-0.18995,0.0,2023,6,7,16,35,55,499
46.39570,0.04550,-0.12723,0.00000,0.03233,0.97588,-0.19154,0.0,2023,6,7,16,35,55,510
46.39580,0.11550,-0.02222,0.00000,0.03026,0.97588,-0.19130,0.0,2023,6,7,16,35,55,522
46.39590,-0.00700,0.13528,0.00000,0.03038,0.97563,-0.19008,0.0,2023,6,7,16,35,55,533
46.39600,0.11550,-0.10973,0.00000,0.03050,0.97820,-0.19093,0.0,2023,6,7,16,35,55,544
46.39610,0.06300,0.04778,0.00000,0.02965,0.97637,-0.19093,0.0,2023,6,7,16,35,55,555
46.39620,0.02800,-0.16223,0.00000,0.03050,0.97563,-0.19178,0.0,2023,6,7,16,35,55,567
46.39630,-0.18200,0.03028,0.00000,0.03001,0.97515,-0.19081,0.0,2023,6,7,16,35,55,578
46.39640,0.06300,0.04778,0.00000,0.03355,0.97563,-0.19252,0.0,2023,6,7,16,35,55,589
46.39650,-0.11200,-0.14473,0.00000,0.03148,0.97502,-0.19069,0.0,2023,6,7,16,35,55,601
46.39660,0.04550,0.17028,0.00000,0.03087,0.97710,-0.19069,0.0,2023,6,7,16,35,55,612
46.39670,0.06300,-0.14473,0.00000,0.03318,0.97563,-0.19191,0.0,2023,6,7,16,35,55,623
46.39680,-0.00700,-0.03972,0.00000,0.03392,0.97551,-0.18837,0.0,2023,6,7,16,35,55,635
46.39690,-0.02450,-0.02222,0.00000,0.03062,0.97576,-0.18898,0.0,2023,6,7,16,35,55,646
46.39700,-0.30450,0.13528,0.00000,0.03233,0.97624,-0.18995,0.0,2023,6,7,16,35,55,657
46.39710,-0.02450,-0.03972,0.00000,0.03184,0.97539,-0.18934,0.0,2023,6,7,16,35,55,668
46.39720,0.16800,0.10027,0.00000,0.03001,0.97698,-0.18959,0.0,2023,6,7,16,35,55,680
46.39730,0.04550,0.03028,0.00000,0.02977,0.97502,-0.18947,0.0,2023,6,7,16,35,55,691
46.39740,-0.00700,0.10027,0.00000,0.03038,0.97490,-0.19239,0.0,2023,6,7,16,35,55,702
46.39750,-0.09450,-0.14473,0.00000,0.03111,0.97539,-0.18825,0.0,2023,6,7,16,35,55,714
46.39760,-0.00700,-0.30222,0.00000,0.02879,0.97502,-0.19056,0.0,2023,6,7,16,35,55,725
46.39770,-0.04200,-0.10973,0.00000,0.03184,0.97685,-0.19020,0.0,2023,6,7,16,35,55,736
46.39780,0.06300,0.08277,0.00000,0.03038,0.97576,-0.18971,0.0,2023,6,7,16,35,55,748
46.39790,0.04550,-0.12723,0.00000,0.02965,0.97746,-0.19227,0.0,2023,6,7,16,35,55,759
46.39800,0.20300,0.04778,0.00000,0.03038,0.97490,-0.18825,0.0,2023,6,7,16,35,55,770
46.39810,-0.00700,-0.12723,0.00000,0.03196,0.97551,-0.18800,0.0,2023,6,7,16,35,55,781
46.39820,-0.04200,0.04778,0.00000,0.03062,0.97746,-0.19044,0.0,2023,6,7,16,35,55,793
46.39830,-0.00700,0.11777,0.00000,0.03087,0.97600,-0.18971,0.0,2023,6,7,16,35,55,804
46.39840,-0.21700,0.04778,0.00000,0.03111,0.97405,-0.19093,0.0,2023,6,7,16,35,55,815
46.39850,0.09800,0.04778,0.00000,0.03233,0.97478,-0.18947,0.0,2023,6,7,16,35,55,827
46.39860,-0.12950,0.01278,0.00000,0.02977,0.97624,-0.18983,0.0,2023,6,7,16,35,55,838
46.39870,0.02800,-0.03972,0.00000,0.02965,0.97698,-0.18788,0.0,2023,6,7,16,35,55,849
46.39880,0.18550,0.11777,0.00000,0.03026,0.97502,-0.19142,0.0,2023,6,7,16,35,55,861
46.39890,-0.05950,-0.07472,0.00000,0.03111,0.97710,-0.19105,0.0,2023,6,7,16,35,55,872
46.39900,-0.18200,0.15278,0.00000,0.03001,0.97576,-0.18959,0.0,2023,6,7,16,35,55,883
46.39910,-0.19950,0.24028,0.00000,0.03074,0.97698,-0.19044,0.0,2023,6,7,16,35,55,894
46.39920,-0.16450,-0.02222,0.00000,0.03062,0.97783,-0.19093,0.0,2023,6,7,16,35,55,906
46.39930,-0.14700,0.04778,0.00000,0.03416,0.97722,-0.18922,0.0,2023,6,7,16,35,55,917
46.39940,-0.00700,0.22278,0.00000,0.03074,0.97759,-0.19032,0.0,2023,6,7,16,35,55,928
46.39950,0.09800,0.20528,0.00000,0.03233,0.97466,-0.18947,0.0,2023,6,7,16,35,55,940
46.39960,-0.04200,-0.03972,0.00000,0.03123,0.97759,-0.18947,0.0,2023,6,7,16,35,55,951
46.39970,0.11550,-0.09223,0.00000,0.03233,0.97417,-0.19044,0.0,2023,6,7,16,35,55,962
46.39980,-0.02450,0.04778,0.00000,0.03245,0.97612,-0.19020,0.0,2023,6,7,16,35,55,974
46.39990,0.02800,-0.17972,0.00000,0.03416,0.97759,-0.19069,0.0,2023,6,7,16,35,55,985
46.40000,0.01050,0.03028,0.00000,0.03172,0.97649,-0.18947,0.0,2023,6,7,16,35,55,996
46.40010,-0.09450,-0.05722,0.00000,0.03050,0.97698,-0.19130,0.0,2023,6,7,16,35,55,7
46.40020,0.22050,-0.19722,0.00000,0.03160,0.97527,-0.18727,0.0,2023,6,7,16,35,55,19
46.40030,-0.16450,0.31027,0.00000,0.03160,0.97759,-0.18934,0.0,2023,6,7,16,35,55,30
46.40040,0.09800,-0.09223,0.00000,0.03343,0.97588,-0.18776,0.0,2023,6,7,16,35,56,1
46.40050,0.02800,0.04778,0.00000,0.02904,0.97551,-0.19239,0.0,2023,6,7,16,35,56,13
46.40060,-0.05950,-0.00472,0.00000,0.03038,0.97576,-0.18947,0.0,2023,6,7,16,35,56,24
46.40070,0.06300,-0.31973,0.00000,0.02965,0.97698,-0.18849,0.0,2023,6,7,16,35,56,35
46.40080,0.02800,-0.09223,0.00000,0.03135,0.97563,-0.19081,0.0,2023,6,7,16,35,56,47
46.40090,0.22050,0.17028,0.00000,0.03172,0.97600,-0.18898,0.0,2023,6,7,16,35,56,58
46.40100,-0.14700,0.15278,0.00000,0.02989,0.97576,-0.19069,0.0,2023,6,7,16,35,56,69
46.40110,0.08050,-0.09223,0.00000,0.03038,0.97710,-0.19093,0.0,2023,6,7,16,35,56,80
46.40120,0.02800,0.06527,0.00000,0.03123,0.97710,-0.18788,0.0,2023,6,7,16,35,56,92
46.40130,-0.11200,0.15278,0.00000,0.03013,0.97600,-0.18739,0.0,2023,6,7,16,35,56,103
46.40140,0.16800,0.06527,0.00000,0.03135,0.97868,-0.19130,0.0,2023,6,7,16,35,56,114
46.40150,0.02800,-0.00472,0.00000,0.03026,0.97624,-0.19105,0.0,2023,6,7,16,35,56,126
46.40160,0.06300,0.20528,0.00000,0.03099,0.97795,-0.19032,0.0,2023,6,7,16,35,56,137
46.40170,-0.04200,0.04778,0.00000,0.03038,0.97271,-0.18922,0.0,2023,6,7,16,35,56,148
46.40180,-0.02450,0.03028,0.00000,0.03331,0.97649,-0.18971,0.0,2023,6,7,16,35,56,160
46.40190,0.06300,0.13528,0.00000,0.03135,0.97490,-0.19020,0.0,2023,6,7,16,35,56,171
46.40200,-0.00700,-0.12723,0.00000,0.03074,0.97673,-0.18898,0.0,2023,6,7,16,35,56,182
46.40210,-0.16450,-0.00472,0.00000,0.03318,0.97759,-0.18971,0.0,2023,6,7,16,35,56,193
46.40220,0.09800,-0.09223,0.00000,0.03123,0.97771,-0.18837,0.0,2023,6,7,16,35,56,205
46.40230,-0.00700,-0.14473,0.00000,0.03038,0.97502,-0.18898,0.0,2023,6,7,16,35,56,216
46.40240,-0.05950,0.25778,0.00000,0.02940,0.97502,-0.19093,0.0,2023,6,7,16,35,56,227
46.40250,-0.14700,-0.02222,0.00000,0.03123,0.97685,-0.19008,0.0,2023,6,7,16,35,56,239
46.40260,-0.05950,0.11777,0.00000,0.03318,0.97649,-0.18873,0.0,2023,6,7,16,35,56,250
46.40270,0.09800,0.01278,0.00000,0.03038,0.97820,-0.19154,0.0,2023,6,7,16,35,56,261
46.40280,-0.18200,0.01278,0.00000,0.02977,0.97771,-0.19227,0.0,2023,6,7,16,35,56,273
46.40290,-0.12950,-0.30222,0.00000,0.02916,0.97588,-0.19130,0.0,2023,6,7,16,35,56,284
46.40300,0.04550,0.13528,0.00000,0.03148,0.97673,-0.19313,0.0,2023,6,7,16,35,56,295
46.40310,0.06300,0.17028,0.00000,0.03148,0.97710,-0.18886,0.0,2023,6,7,16,35,56,306
46.40320,-0.00700,-0.14473,0.00000,0.03172,0.97673,-0.19069,0.0,2023,6,7,16,35,56,318
46.40330,0.04550,-0.00472,0.00000,0.03257,0.97771,-0.19117,0.0,2023,6,7,16,35,56,329
46.40340,-0.07700,-0.10973,0.00000,0.03196,0.97722,-0.19105,0.0,2023,6,7,16,35,56,340
46.40350,0.09800,0.03028,0.00000,0.02794,0.97905,-0.18983,0.0,2023,6,7,16,35,56,352
46.40360,-0.09450,0.08277,0.00000,0.03038,0.97661,-0.19044,0.0,2023,6,7,16,35,56,363
46.40370,-0.11200,0.04778,0.00000,0.02855,0.97710,-0.19069,0.0,2023,6,7,16,35,56,374
46.40380,-0.07700,0.01278,0.00000,0.03111,0.97600,-0.19117,0.0,2023,6,7,16,35,56,386
46.40390,-0.09450,0.04778,0.00000,0.03160,0.97783,-0.19020,0.0,2023,6,7,16,35,56,397
46.40400,-0.14700,0.50277,0.00000,0.03221,0.97441,-0.18873,0.0,2023,6,7,16,35,56,408
46.40410,-0.18200,-0.02222,0.00000,0.03221,0.97795,-0.18983,0.0,2023,6,7,16,35,56,419
46.40420,-0.00700,0.20528,0.00000,0.03099,0.97698,-0.18910,0.0,2023,6,7,16,35,56,431
46.40430,-0.11200,-0.00472,0.00000,0.03111,0.97698,-0.19044,0.0,2023,6,7,16,35,56,442
46.40440,-0.16450,0.20528,0.00000,0.02952,0.97746,-0.19069,0.0,2023,6,7,16,35,56,453
46.40450,-0.07700,0.15278,0.00000,0.03111,0.97502,-0.19203,0.0,2023,6,7,16,35,56,465
46.40460,0.01050,-0.00472,0.00000,0.03111,0.97563,-0.18959,0.0,2023,6,7,16,35,56,476
46.40470,-0.19950,0.06527,0.00000,0.03123,0.97661,-0.19215,0.0,2023,6,7,16,35,56,487
46.40480,0.22050,-0.10973,0.00000,0.03001,0.97637,-0.18934,0.0,2023,6,7,16,35,56,499
46.40490,-0.04200,0.03028,0.00000,0.03233,0.97649,-0.19313,0.0,2023,6,7,16,35,56,510
46.40500,0.11550,0.01278,0.00000,0.03233,0.97222,-0.19142,0.0,2023,6,7,16,35,56,521
46.40510,0.09800,-0.10973,0.00000,0.02904,0.97649,-0.18886,0.0,2023,6,7,16,35,56,532
46.40520,-0.14700,0.06527,0.00000,0.03123,0.97466,-0.18861,0.0,2023,6,7,16,35,56,544
46.40530,-0.14700,0.10027,0.00000,0.03233,0.97771,-0.18764,0.0,2023,6,7,16,35,56,555
46.40540,-0.00700,-0.17972,0.00000,0.02916,0.97624,-0.19239,0.0,2023,6,7,16,35,56,566
46.40550,-0.04200,-0.05722,0.00000,0.03050,0.97356,-0.18995,0.0,2023,6,7,16,35,56,578
46.40560,-0.14700,0.38028,0.00000,0.03343,0.97624,-0.19081,0.0,2023,6,7,16,35,56,589
46.40570,-0.14700,0.15278,0.00000,0.03062,0.97893,-0.19032,0.0,2023,6,7,16,35,56,600
46.40580,0.02800,0.01278,0.00000,0.03257,0.97466,-0.18471,0.0,2023,6,7,16,35,56,612
46.40590,0.01050,-0.09223,0.00000,0.02965,0.97539,-0.19252,0.0,2023,6,7,16,35,56,623
46.40600,0.16800,-0.02222,0.00000,0.03160,0.97637,-0.18971,0.0,2023,6,7,16,35,56,634
46.40610,0.18550,-0.12723,0.00000,0.03099,0.97649,-0.18947,0.0,2023,6,7,16,35,56,645
46.40620,-0.09450,-0.03972,0.00000,0.03074,0.97515,-0.19056,0.0,2023,6,7,16,35,56,657
46.40630,-0.00700,0.04778,0.00000,0.02721,0.97771,-0.19227,0.0,2023,6,7,16,35,56,668
46.40640,0.11550,-0.26722,0.00000,0.03160,0.97868,-0.18983,0.0,2023,6,7,16,35,56,679
46.40650,0.22050,0.06527,0.00000,0.03062,0.97783,-0.19227,0.0,2023,6,7,16,35,56,691
46.40660,0.11550,-0.17972,0.00000,0.03257,0.97600,-0.19032,0.0,2023,6,7,16,35,56,702
46.40670,-0.07700,0.08277,0.00000,0.03050,0.97478,-0.19276,0.0,2023,6,7,16,35,56,713
46.40680,0.02800,0.15278,0.00000,0.02952,0.97832,-0.19008,0.0,2023,6,7,16,35,56,725
46.40690,-0.00700,0.11777,0.00000,0.03160,0.97673,-0.18910,0.0,2023,6,7,16,35,56,736
46.40700,-0.07700,0.01278,0.00000,0.03184,0.97685,-0.18922,0.0,2023,6,7,16,35,56,747
46.40710,0.13300,0.25778,0.00000,0.03074,0.97429,-0.19069,0.0,2023,6,7,16,35,56,758
46.40720,0.08050,-0.09223,0.00000,0.03184,0.97746,-0.18959,0.0,2023,6,7,16,35,56,770
46.40730,0.06300,0.08277,0.00000,0.03160,0.97502,-0.19056,0.0,2023,6,7,16,35,56,781
46.40740,-0.12950,-0.07472,0.00000,0.03160,0.97588,-0.18642,0.0,2023,6,7,16,35,56,792
46.40750,0.11550,0.10027,0.00000,0.03172,0.97527,-0.18983,0.0,2023,6,7,16,35,56,804
46.40760,-0.28700,0.08277,0.00000,0.03111,0.97783,-0.18898,0.0,2023,6,7,16,35,56,815
46.40770,-0.02450,0.11777,0.00000,0.03209,0.97637,-0.18800,0.0,2023,6,7,16,35,56,826
46.40780,-0.00700,-0.02222,0.00000,0.02867,0.97710,-0.19081,0.0,2023,6,7,16,35,56,838
46.40790,-0.07700,-0.07472,0.00000,0.03050,0.97576,-0.18947,0.0,2023,6,7,16,35,56,849
46.40800,0.01050,0.08277,0.00000,0.03087,0.97551,-0.18959,0.0,2023,6,7,16,35,56,860
46.40810,-0.00700,-0.03972,0.00000,0.03306,0.97917,-0.19142,0.0,2023,6,7,16,35,56,871
46.40820,-0.09450,-0.00472,0.00000,0.03148,0.97734,-0.18861,0.0,2023,6,7,16,35,56,883
46.40830,-0.14700,0.10027,0.00000,0.03111,0.97649,-0.18995,0.0,2023,6,7,16,35,56,894
46.40840,0.29050,0.04778,0.00000,0.03111,0.97637,-0.18995,0.0,2023,6,7,16,35,56,905
46.40850,-0.19950,0.10027,0.00000,0.02965,0.97710,-0.18873,0.0,2023,6,7,16,35,56,917
46.40860,-0.00700,0.17028,0.00000,0.03123,0.97661,-0.18873,0.0,2023,6,7,16,35,56,928
46.40870,-0.19950,0.03028,0.00000,0.03013,0.97722,-0.18959,0.0,2023,6,7,16,35,56,939
46.40880,0.01050,-0.09223,0.00000,0.03221,0.97612,-0.18849,0.0,2023,6,7,16,35,56,951
46.40890,0.02800,0.06527,0.00000,0.02940,0.97429,-0.19276,0.0,2023,6,7,16,35,56,962
46.40900,-0.07700,-0.19722,0.00000,0.03306,0.97539,-0.18971,0.0,2023,6,7,16,35,56,973
46.40910,-0.07700,-0.02222,0.00000,0.03087,0.97539,-0.18898,0.0,2023,6,7,16,35,56,984
46.40920,-0.09450,0.22278,0.00000,0.03087,0.97551,-0.19178,0.0,2023,6,7,16,35,56,996
46.40930,0.09800,0.04778,0.00000,0.03221,0.97746,-0.19325,0.0,2023,6,7,16,35,56,7
46.40940,-0.11200,-0.02222,0.00000,0.02904,0.97795,-0.18898,0.0,2023,6,7,16,35,56,18
46.40950,-0.05950,-0.09223,0.00000,0.02965,0.97271,-0.18995,0.0,2023,6,7,16,35,57,0
46.40960,-0.14700,0.10027,0.00000,0.03062,0.97637,-0.19020,0.0,2023,6,7,16,35,57,11
46.40970,-0.00700,0.15278,0.00000,0.02782,0.97637,-0.19203,0.0,2023,6,7,16,35,57,22
46.40980,0.04550,-0.23222,0.00000,0.03160,0.97515,-0.19166,0.0,2023,6,7,16,35,57,34
46.40990,-0.00700,0.17028,0.00000,0.02952,0.97624,-0.18959,0.0,2023,6,7,16,35,57,45
46.41000,0.01050,0.03028,0.00000,0.03099,0.97917,-0.19032,0.0,2023,6,7,16,35,57,56
46.41010,-0.07700,-0.19722,0.00000,0.03331,0.97649,-0.19044,0.0,2023,6,7,16,35,57,67
46.41020,-0.04200,-0.03972,0.00000,0.02952,0.97734,-0.18983,0.0,2023,6,7,16,35,57,79
46.41030,-0.05950,-0.02222,0.00000,0.03062,0.97380,-0.18751,0.0,2023,6,7,16,35,57,90
46.41040,-0.07700,0.04778,0.00000,0.03196,0.97307,-0.18922,0.0,2023,6,7,16,35,57,101
46.41050,-0.07700,0.03028,0.00000,0.03392,0.97685,-0.19044,0.0,2023,6,7,16,35,57,113
46.41060,0.15050,0.01278,0.00000,0.03074,0.97624,-0.18788,0.0,2023,6,7,16,35,57,124
46.41070,0.08050,-0.03972,0.00000,0.02928,0.97502,-0.18995,0.0,2023,6,7,16,35,57,135
46.41080,0.25550,-0.03972,0.00000,0.03184,0.97563,-0.19032,0.0,2023,6,7,16,35,57,147
46.41090,0.15050,-0.03972,0.00000,0.03270,0.97624,-0.18934,0.0,2023,6,7,16,35,57,158
46.41100,-0.11200,0.24028,0.00000,0.03013,0.97771,-0.18947,0.0,2023,6,7,16,35,57,169
46.41110,-0.05950,0.10027,0.00000,0.03026,0.97661,-0.18886,0.0,2023,6,7,16,35,57,180
46.41120,0.06300,0.01278,0.00000,0.03111,0.97637,-0.19154,0.0,2023,6,7,16,35,57,192
46.41130,-0.04200,0.03028,0.00000,0.03050,0.97807,-0.19154,0.0,2023,6,7,16,35,57,203
46.41140,0.04550,0.01278,0.00000,0.03062,0.97356,-0.18959,0.0,2023,6,7,16,35,57,214
46.41150,0.15050,-0.10973,0.00000,0.03172,0.97905,-0.19264,0.0,2023,6,7,16,35,57,226
46.41160,-0.07700,0.03028,0.00000,0.03123,0.97539,-0.18947,0.0,2023,6,7,16,35,57,237
46.41170,0.01050,-0.05722,0.00000,0.03135,0.97441,-0.19215,0.0,2023,6,7,16,35,57,248
46.41180,-0.14700,0.13528,0.00000,0.03111,0.97490,-0.19203,0.0,2023,6,7,16,35,57,260
46.41190,-0.16450,0.03028,0.00000,0.03221,0.97551,-0.18995,0.0,2023,6,7,16,35,57,271
46.41200,-0.05950,0.04778,0.00000,0.02867,0.97490,-0.18873,0.0,2023,6,7,16,35,57,282
46.41210,-0.04200,0.17028,0.00000,0.03209,0.97551,-0.18934,0.0,2023,6,7,16,35,57,293
46.41220,-0.00700,0.10027,0.00000,0.03172,0.97478,-0.18886,0.0,2023,6,7,16,35,57,305
46.41230,0.01050,-0.16223,0.00000,0.03062,0.97942,-0.18995,0.0,2023,6,7,16,35,57,316
46.41240,-0.00700,0.11777,0.00000,0.03099,0.97832,-0.19276,0.0,2023,6,7,16,35,57,327
46.41250,-0.04200,-0.03972,0.00000,0.03099,0.97417,-0.19056,0.0,2023,6,7,16,35,57,339
46.41260,0.11550,-0.19722,0.00000,0.03221,0.97795,-0.18971,0.0,2023,6,7,16,35,57,350
46.41270,0.18550,-0.23222,0.00000,0.02965,0.97783,-0.18886,0.0,2023,6,7,16,35,57,361
46.41280,-0.04200,0.11777,0.00000,0.03148,0.97551,-0.18861,0.0,2023,6,7,16,35,57,373
46.41290,-0.09450,-0.09223,0.00000,0.03123,0.97710,-0.19093,0.0,2023,6,7,16,35,57,384
46.41300,0.11550,0.04778,0.00000,0.03013,0.97722,-0.18922,0.0,2023,6,7,16,35,57,395
46.41310,0.04550,-0.05722,0.00000,0.03026,0.97502,-0.19142,0.0,2023,6,7,16,35,57,406
46.41320,0.16800,-0.14473,0.00000,0.03160,0.97600,-0.19117,0.0,2023,6,7,16,35,57,418
46.41330,0.02800,-0.02222,0.00000,0.03221,0.97795,-0.19081,0.0,2023,6,7,16,35,57,429
46.41340,0.02800,-0.03972,0.00000,0.03184,0.97746,-0.18959,0.0,2023,6,7,16,35,57,440
46.41350,0.02800,0.10027,0.00000,0.03087,0.97966,-0.19020,0.0,2023,6,7,16,35,57,452
46.41360,0.06300,0.06527,0.00000,0.02928,0.97698,-0.19069,0.0,2023,6,7,16,35,57,463
46.41370,-0.05950,-0.02222,0.00000,0.03026,0.97551,-0.18934,0.0,2023,6,7,16,35,57,474
46.41380,-0.05950,0.25778,0.00000,0.03184,0.97588,-0.19008,0.0,2023,6,7,16,35,57,486
46.41390,0.06300,-0.00472,0.00000,0.03160,0.97710,-0.19117,0.0,2023,6,7,16,35,57,497
46.41400,-0.11200,0.01278,0.00000,0.03294,0.97527,-0.19105,0.0,2023,6,7,16,35,57,508
46.41410,0.01050,0.13528,0.00000,0.03099,0.97344,-0.18910,0.0,2023,6,7,16,35,57,519
46.41420,-0.05950,-0.02222,0.00000,0.03087,0.97429,-0.18959,0.0,2023,6,7,16,35,57,531
46.41430,-0.02450,0.15278,0.00000,0.03245,0.97771,-0.19056,0.0,2023,6,7,16,35,57,542
46.41440,-0.02450,-0.16223,0.00000,0.03294,0.97771,-0.19215,0.0,2023,6,7,16,35,57,553
46.41450,0.11550,-0.09223,0.00000,0.02940,0.97820,-0.19044,0.0,2023,6,7,16,35,57,565
46.41460,-0.11200,0.22278,0.00000,0.03001,0.97759,-0.18898,0.0,2023,6,7,16,35,57,576
46.41470,0.04550,0.08277,0.00000,0.02904,0.97478,-0.19142,0.0,2023,6,7,16,35,57,587
46.41480,-0.05950,0.18778,0.00000,0.02904,0.97490,-0.19142,0.0,2023,6,7,16,35,57,599
46.41490,0.02800,0.04778,0.00000,0.02879,0.97673,-0.19130,0.0,2023,6,7,16,35,57,610
46.41500,-0.16450,-0.07472,0.00000,0.03355,0.97746,-0.18995,0.0,2023,6,7,16,35,57,621
46.41510,-0.05950,0.31027,0.00000,0.03343,0.97576,-0.19093,0.0,2023,6,7,16,35,57,632
46.41520,-0.05950,0.29277,0.00000,0.03087,0.97405,-0.19008,0.0,2023,6,7,16,35,57,644
46.41530,0.09800,0.08277,0.00000,0.03087,0.97405,-0.19154,0.0,2023,6,7,16,35,57,655
46.41540,0.01050,0.17028,0.00000,0.03148,0.97576,-0.19020,0.0,2023,6,7,16,35,57,666
46.41550,0.09800,-0.19722,0.00000,0.03123,0.97637,-0.18971,0.0,2023,6,7,16,35,57,678
46.41560,-0.26950,0.01278,0.00000,0.02928,0.97637,-0.18971,0.0,2023,6,7,16,35,57,689
46.41570,-0.09450,0.15278,0.00000,0.03160,0.97441,-0.19044,0.0,2023,6,7,16,35,57,700
46.41580,0.08050,-0.02222,0.00000,0.03062,0.97661,-0.19288,0.0,2023,6,7,16,35,57,712
46.41590,-0.00700,0.13528,0.00000,0.03233,0.97807,-0.18995,0.0,2023,6,7,16,35,57,723
46.41600,0.11550,-0.14473,0.00000,0.02879,0.97490,-0.19056,0.0,2023,6,7,16,35,57,734
46.41610,0.18550,-0.23222,0.00000,0.03001,0.97478,-0.19142,0.0,2023,6,7,16,35,57,745
46.41620,-0.02450,-0.21472,0.00000,0.03270,0.97527,-0.19081,0.0,2023,6,7,16,35,57,757
46.41630,-0.04200,0.15278,0.00000,0.03233,0.97600,-0.19081,0.0,2023,6,7,16,35,57,768
46.41640,-0.04200,0.11777,0.00000,0.03172,0.97502,-0.18959,0.0,2023,6,7,16,35,57,779
46.41650,-0.04200,-0.00472,0.00000,0.03135,0.97759,-0.18886,0.0,2023,6,7,16,35,57,791
46.41660,0.01050,-0.03972,0.00000,0.03026,0.97600,-0.19178,0.0,2023,6,7,16,35,57,802
46.41670,-0.05950,-0.17972,0.00000,0.03172,0.97783,-0.19020,0.0,2023,6,7,16,35,57,813
46.41680,-0.00700,0.10027,0.00000,0.03087,0.97698,-0.18971,0.0,2023,6,7,16,35,57,825
46.41690,-0.02450,-0.02222,0.00000,0.03135,0.97771,-0.19105,0.0,2023,6,7,16,35,57,836
46.41700,-0.09450,0.20528,0.00000,0.03062,0.97734,-0.18776,0.0,2023,6,7,16,35,57,847
46.41710,-0.05950,-0.17972,0.00000,0.03135,0.97661,-0.19069,0.0,2023,6,7,16,35,57,858
46.41720,0.11550,-0.00472,0.00000,0.03111,0.97698,-0.18861,0.0,2023,6,7,16,35,57,870
46.41730,0.02800,-0.00472,0.00000,0.03160,0.97393,-0.19020,0.0,2023,6,7,16,35,57,881
