#2023/06/07 17:50:39
time,wx,wy,wz,ax,ay,az,yy,MM,dd,hh,mm,ss,ms
50.66660,0.10868,-0.20107,0.00000,0.03038,0.97454,-0.19093,0.0,2023,6,7,17,50,40,62
50.66670,-0.04882,0.18393,0.00000,0.03233,0.97527,-0.18971,0.0,2023,6,7,17,50,40,72
50.66680,0.03868,-0.13108,0.00000,0.03184,0.97710,-0.19093,0.0,2023,6,7,17,50,40,82
50.66690,0.07368,0.06142,0.00000,0.03270,0.97759,-0.18971,0.0,2023,6,7,17,50,40,92
50.66700,0.09118,0.02643,0.00000,0.02928,0.97673,-0.19093,0.0,2023,6,7,17,50,40,102
50.66710,-0.15382,0.04392,0.00000,0.03343,0.97588,-0.18910,0.0,2023,6,7,17,50,40,112
50.66720,-0.31132,0.11393,0.00000,0.03514,0.97649,-0.19105,0.0,2023,6,7,17,50,40,122
50.66730,-0.01382,-0.11357,0.00000,0.03074,0.97649,-0.19008,0.0,2023,6,7,17,50,40,132
50.66740,-0.03132,0.11393,0.00000,0.02904,0.97466,-0.19166,0.0,2023,6,7,17,50,40,142
50.66750,-0.08382,-0.16608,0.00000,0.02977,0.97868,-0.19154,0.0,2023,6,7,17,50,40,152
50.66760,-0.04882,-0.02607,0.00000,0.03172,0.97844,-0.18934,0.0,2023,6,7,17,50,40,162
50.66770,-0.08382,0.32393,0.00000,0.03184,0.97698,-0.19020,0.0,2023,6,7,17,50,40,172
50.66780,-0.10132,-0.14858,0.00000,0.03221,0.97332,-0.18873,0.0,2023,6,7,17,50,40,182
50.66790,0.07368,0.21893,0.00000,0.03306,0.97563,-0.18812,0.0,2023,6,7,17,50,40,192
50.66800,-0.04882,0.13143,0.00000,0.03233,0.97588,-0.18703,0.0,2023,6,7,17,50,40,202
50.66810,0.05618,-0.04357,0.00000,0.03233,0.97405,-0.18849,0.0,2023,6,7,17,50,40,212
50.66820,-0.06632,0.11393,0.00000,0.03062,0.97515,-0.19337,0.0,2023,6,7,17,50,40,222
50.66830,0.10868,0.07892,0.00000,0.03123,0.97624,-0.18995,0.0,2023,6,7,17,50,40,232
50.66840,-0.15382,0.06142,0.00000,0.03026,0.97612,-0.19105,0.0,2023,6,7,17,50,40,242
50.66850,-0.01382,0.04392,0.00000,0.03148,0.97795,-0.18886,0.0,2023,6,7,17,50,40,252
50.66860,-0.06632,0.00893,0.00000,0.03135,0.97807,-0.19130,0.0,2023,6,7,17,50,40,262
50.66870,0.10868,0.00893,0.00000,0.03050,0.97624,-0.19252,0.0,2023,6,7,17,50,40,272
50.66880,0.02118,0.18393,0.00000,0.03196,0.97576,-0.18800,0.0,2023,6,7,17,50,40,282
50.66890,-0.03132,0.06142,0.00000,0.03148,0.97734,-0.18776,0.0,2023,6,7,17,50,40,292
50.66900,-0.15382,-0.04357,0.00000,0.03221,0.97454,-0.19044,0.0,2023,6,7,17,50,40,302
50.66910,-0.11882,0.27142,0.00000,0.03111,0.97820,-0.19020,0.0,2023,6,7,17,50,40,312
50.66920,-0.13632,0.13143,0.00000,0.02965,0.97478,-0.19081,0.0,2023,6,7,17,50,40,322
50.66930,0.00368,0.13143,0.00000,0.03135,0.97710,-0.19008,0.0,2023,6,7,17,50,40,332
50.66940,0.03868,-0.00857,0.00000,0.03245,0.97746,-0.18995,0.0,2023,6,7,17,50,40,342
50.66950,0.07368,0.06142,0.00000,0.03074,0.97722,-0.19008,0.0,2023,6,7,17,50,40,352
50.66960,0.09118,0.04392,0.00000,0.03184,0.97624,-0.19081,0.0,2023,6,7,17,50,40,362
50.66970,0.14368,0.14893,0.00000,0.03099,0.97759,-0.18959,0.0,2023,6,7,17,50,40,372
50.66980,-0.15382,0.09642,0.00000,0.03294,0.97319,-0.18776,0.0,2023,6,7,17,50,40,382
50.66990,0.12618,0.06142,0.00000,0.03111,0.97624,-0.18947,0.0,2023,6,7,17,50,40,392
50.67000,-0.17132,0.18393,0.00000,0.03209,0.97673,-0.19056,0.0,2023,6,7,17,50,40,402
50.67010,-0.18882,0.13143,0.00000,0.03013,0.97624,-0.18886,0.0,2023,6,7,17,50,40,412
50.67020,0.07368,-0.02607,0.00000,0.03160,0.97527,-0.18934,0.0,2023,6,7,17,50,40,422
50.67030,0.00368,-0.04357,0.00000,0.03026,0.97698,-0.18898,0.0,2023,6,7,17,50,40,432
50.67040,-0.10132,-0.02607,0.00000,0.02965,0.97624,-0.18825,0.0,2023,6,7,17,50,40,442
50.67050,-0.11882,0.21893,0.00000,0.03050,0.97942,-0.18922,0.0,2023,6,7,17,50,40,452
50.67060,0.10868,0.02643,0.00000,0.03148,0.97588,-0.18873,0.0,2023,6,7,17,50,40,462
50.67070,-0.01382,-0.06107,0.00000,0.03440,0.97710,-0.19008,0.0,2023,6,7,17,50,40,472
50.67080,0.07368,-0.04357,0.00000,0.03148,0.97612,-0.18971,0.0,2023,6,7,17,50,40,482
50.67090,0.07368,0.14893,0.00000,0.03416,0.97661,-0.18873,0.0,2023,6,7,17,50,40,492
50.67100,-0.01382,-0.06107,0.00000,0.03099,0.97661,-0.19142,0.0,2023,6,7,17,50,40,502
50.67110,0.10868,0.04392,0.00000,0.03270,0.97502,-0.19020,0.0,2023,6,7,17,50,40,512
50.67120,0.02118,0.06142,0.00000,0.02965,0.97661,-0.19008,0.0,2023,6,7,17,50,40,522
50.67130,-0.01382,0.16643,0.00000,0.03135,0.97637,-0.19117,0.0,2023,6,7,17,50,40,532
50.67140,-0.10132,0.02643,0.00000,0.03123,0.97771,-0.18959,0.0,2023,6,7,17,50,40,542
50.67150,0.05618,-0.18358,0.00000,0.03148,0.97624,-0.18776,0.0,2023,6,7,17,50,40,552
50.67160,0.02118,-0.14858,0.00000,0.03172,0.97612,-0.19093,0.0,2023,6,7,17,50,40,562
50.67170,0.09118,0.02643,0.00000,0.03148,0.97722,-0.19081,0.0,2023,6,7,17,50,40,572
50.67180,-0.01382,0.04392,0.00000,0.03221,0.97673,-0.19130,0.0,2023,6,7,17,50,40,582
50.67190,-0.10132,0.00893,0.00000,0.03221,0.97600,-0.19008,0.0,2023,6,7,17,50,40,592
50.67200,0.09118,0.11393,0.00000,0.03160,0.97734,-0.18995,0.0,2023,6,7,17,50,40,602
50.67210,-0.01382,-0.14858,0.00000,0.03050,0.97490,-0.19410,0.0,2023,6,7,17,50,40,612
50.67220,-0.06632,-0.02607,0.00000,0.02769,0.97649,-0.19203,0.0,2023,6,7,17,50,40,622
50.67230,0.09118,0.09642,0.00000,0.03257,0.97734,-0.19044,0.0,2023,6,7,17,50,40,632
50.67240,0.12618,0.00893,0.00000,0.02977,0.97734,-0.18934,0.0,2023,6,7,17,50,40,642
50.67250,0.05618,-0.13108,0.00000,0.03074,0.97515,-0.19130,0.0,2023,6,7,17,50,40,652
50.67260,0.19618,-0.13108,0.00000,0.03050,0.97783,-0.19044,0.0,2023,6,7,17,50,40,662
50.67270,-0.01382,-0.16608,0.00000,0.03050,0.97466,-0.19166,0.0,2023,6,7,17,50,40,672
50.67280,0.19618,0.02643,0.00000,0.03306,0.97624,-0.18959,0.0,2023,6,7,17,50,40,682
50.67290,0.07368,-0.00857,0.00000,0.03013,0.97832,-0.18654,0.0,2023,6,7,17,50,40,692
50.67300,-0.06632,0.06142,0.00000,0.03050,0.97746,-0.19178,0.0,2023,6,7,17,50,40,702
50.67310,-0.08382,0.07892,0.00000,0.03221,0.97624,-0.19166,0.0,2023,6,7,17,50,40,712
50.67320,-0.01382,-0.07857,0.00000,0.03074,0.97588,-0.19093,0.0,2023,6,7,17,50,40,722
50.67330,0.05618,-0.00857,0.00000,0.03074,0.97441,-0.18934,0.0,2023,6,7,17,50,40,732
50.67340,-0.15382,0.06142,0.00000,0.03074,0.97661,-0.18959,0.0,2023,6,7,17,50,40,742
50.67350,0.07368,0.04392,0.00000,0.03306,0.97746,-0.19154,0.0,2023,6,7,17,50,40,752
50.67360,-0.03132,-0.06107,0.00000,0.03379,0.97637,-0.19093,0.0,2023,6,7,17,50,40,762
50.67370,-0.13632,0.07892,0.00000,0.03135,0.97637,-0.18666,0.0,2023,6,7,17,50,40,772
50.67380,0.07368,-0.11357,0.00000,0.03196,0.97588,-0.18678,0.0,2023,6,7,17,50,40,782
50.67390,0.12618,0.11393,0.00000,0.03355,0.97685,-0.19032,0.0,2023,6,7,17,50,40,792
50.67400,0.12618,-0.00857,0.00000,0.03135,0.97698,-0.19191,0.0,2023,6,7,17,50,40,802
50.67410,-0.01382,0.14893,0.00000,0.03062,0.97734,-0.19105,0.0,2023,6,7,17,50,40,812
50.67420,0.03868,0.00893,0.00000,0.03221,0.97551,-0.19032,0.0,2023,6,7,17,50,40,822
50.67430,0.00368,-0.11357,0.00000,0.03209,0.97600,-0.19008,0.0,2023,6,7,17,50,40,832
50.67440,-0.01382,-0.07857,0.00000,0.03184,0.97539,-0.19069,0.0,2023,6,7,17,50,40,842
50.67450,0.00368,0.00893,0.00000,0.03233,0.97563,-0.19008,0.0,2023,6,7,17,50,40,852
50.67460,0.05618,0.02643,0.00000,0.02952,0.97527,-0.19008,0.0,2023,6,7,17,50,40,862
50.67470,0.12618,-0.16608,0.00000,0.03013,0.97563,-0.18861,0.0,2023,6,7,17,50,40,872
50.67480,0.16118,-0.16608,0.00000,0.03148,0.97515,-0.19105,0.0,2023,6,7,17,50,40,882
50.67490,-0.03132,0.09642,0.00000,0.02989,0.97624,-0.18837,0.0,2023,6,7,17,50,41,2
50.67500,0.03868,0.02643,0.00000,0.03026,0.97539,-0.19227,0.0,2023,6,7,17,50,41,12
50.67510,0.02118,-0.02607,0.00000,0.02952,0.97551,-0.19191,0.0,2023,6,7,17,50,41,22
50.67520,-0.15382,-0.00857,0.00000,0.03038,0.97673,-0.19300,0.0,2023,6,7,17,50,41,32
50.67530,0.03868,-0.00857,0.00000,0.03026,0.97624,-0.19422,0.0,2023,6,7,17,50,41,42
50.67540,0.03868,-0.13108,0.00000,0.03233,0.97563,-0.18886,0.0,2023,6,7,17,50,41,52
50.67550,-0.01382,-0.14858,0.00000,0.03160,0.97698,-0.18947,0.0,2023,6,7,17,50,41,62
50.67560,0.19618,-0.13108,0.00000,0.03074,0.97624,-0.18873,0.0,2023,6,7,17,50,41,72
50.67570,0.07368,0.07892,0.00000,0.03038,0.97380,-0.18983,0.0,2023,6,7,17,50,41,82
50.67580,-0.13632,0.16643,0.00000,0.03062,0.97624,-0.19178,0.0,2023,6,7,17,50,41,92
50.67590,-0.03132,-0.04357,0.00000,0.03160,0.97490,-0.19020,0.0,2023,6,7,17,50,41,102
50.67600,0.02118,0.04392,0.00000,0.03318,0.97612,-0.18873,0.0,2023,6,7,17,50,41,112
50.67610,0.00368,-0.00857,0.00000,0.03013,0.97649,-0.19252,0.0,2023,6,7,17,50,41,122
50.67620,-0.03132,-0.32357,0.00000,0.03123,0.97942,-0.19227,0.0,2023,6,7,17,50,41,132
50.67630,0.00368,-0.07857,0.00000,0.03001,0.97405,-0.19178,0.0,2023,6,7,17,50,41,142
50.67640,-0.10132,0.09642,0.00000,0.02965,0.97734,-0.19056,0.0,2023,6,7,17,50,41,152
50.67650,-0.04882,0.04392,0.00000,0.03001,0.97637,-0.19044,0.0,2023,6,7,17,50,41,162
50.67660,0.00368,0.06142,0.00000,0.03184,0.97661,-0.19020,0.0,2023,6,7,17,50,41,172
50.67670,0.07368,0.13143,0.00000,0.03526,0.97673,-0.18788,0.0,2023,6,7,17,50,41,182
50.67680,-0.03132,-0.13108,0.00000,0.03306,0.97515,-0.18959,0.0,2023,6,7,17,50,41,192
50.67690,-0.03132,-0.09607,0.00000,0.03074,0.97673,-0.18910,0.0,2023,6,7,17,50,41,202
50.67700,-0.08382,0.06142,0.00000,0.03221,0.97527,-0.19069,0.0,2023,6,7,17,50,41,212
50.67710,-0.36382,0.20143,0.00000,0.02989,0.98039,-0.19020,0.0,2023,6,7,17,50,41,222
50.67720,-0.18882,-0.11357,0.00000,0.03135,0.97380,-0.19215,0.0,2023,6,7,17,50,41,232
50.67730,-0.06632,0.00893,0.00000,0.03038,0.97698,-0.19020,0.0,2023,6,7,17,50,41,242
50.67740,0.00368,-0.07857,0.00000,0.03062,0.97515,-0.18922,0.0,2023,6,7,17,50,41,252
50.67750,0.10868,0.04392,0.00000,0.03074,0.97771,-0.19337,0.0,2023,6,7,17,50,41,262
50.67760,0.07368,-0.07857,0.00000,0.02989,0.97759,-0.19325,0.0,2023,6,7,17,50,41,272
50.67770,0.05618,0.11393,0.00000,0.02879,0.97624,-0.19349,0.0,2023,6,7,17,50,41,282
50.67780,0.07368,-0.00857,0.00000,0.03343,0.97881,-0.18922,0.0,2023,6,7,17,50,41,292
50.67790,0.09118,0.18393,0.00000,0.03282,0.97588,-0.19093,0.0,2023,6,7,17,50,41,302
50.67800,0.17868,-0.02607,0.00000,0.03209,0.97710,-0.18825,0.0,2023,6,7,17,50,41,312
50.67810,-0.18882,0.04392,0.00000,0.03196,0.97710,-0.18849,0.0,2023,6,7,17,50,41,322
50.67820,0.10868,-0.18358,0.00000,0.02977,0.97746,-0.19117,0.0,2023,6,7,17,50,41,332
50.67830,0.12618,-0.07857,0.00000,0.03099,0.97698,-0.18739,0.0,2023,6,7,17,50,41,342
50.67840,0.10868,-0.06107,0.00000,0.03270,0.97563,-0.19020,0.0,2023,6,7,17,50,41,352
50.67850,-0.01382,0.00893,0.00000,0.03294,0.97624,-0.18995,0.0,2023,6,7,17,50,41,362
50.67860,-0.10132,0.13143,0.00000,0.03135,0.97698,-0.19044,0.0,2023,6,7,17,50,41,372
50.67870,-0.11882,0.25392,0.00000,0.03123,0.97685,-0.18934,0.0,2023,6,7,17,50,41,382
50.67880,0.07368,-0.02607,0.00000,0.03282,0.97759,-0.19154,0.0,2023,6,7,17,50,41,392
50.67890,-0.08382,-0.13108,0.00000,0.03233,0.97649,-0.19227,0.0,2023,6,7,17,50,41,402
50.67900,-0.08382,0.13143,0.00000,0.03282,0.97893,-0.19069,0.0,2023,6,7,17,50,41,412
50.67910,0.09118,0.09642,0.00000,0.02940,0.97710,-0.18983,0.0,2023,6,7,17,50,41,422
50.67920,0.10868,-0.13108,0.00000,0.02782,0.97734,-0.19008,0.0,2023,6,7,17,50,41,432
50.67930,0.17868,-0.06107,0.00000,0.02952,0.97661,-0.19093,0.0,2023,6,7,17,50,41,442
50.67940,0.07368,0.04392,0.00000,0.02928,0.97539,-0.19154,0.0,2023,6,7,17,50,41,452
50.67950,0.00368,-0.00857,0.00000,0.03148,0.97551,-0.18812,0.0,2023,6,7,17,50,41,462
50.67960,0.00368,0.00893,0.00000,0.03172,0.97771,-0.19081,0.0,2023,6,7,17,50,41,472
50.67970,0.02118,-0.13108,0.00000,0.03245,0.97734,-0.18922,0.0,2023,6,7,17,50,41,482
50.67980,0.09118,0.09642,0.00000,0.03111,0.97539,-0.18629,0.0,2023,6,7,17,50,41,492
50.67990,-0.01382,0.09642,0.00000,0.03111,0.97515,-0.19117,0.0,2023,6,7,17,50,41,502
50.68000,-0.06632,0.16643,0.00000,0.02989,0.97844,-0.18947,0.0,2023,6,7,17,50,41,512
50.68010,0.00368,0.13143,0.00000,0.02904,0.97832,-0.19178,0.0,2023,6,7,17,50,41,522
50.68020,0.07368,-0.00857,0.00000,0.03062,0.97490,-0.19264,0.0,2023,6,7,17,50,41,532
50.68030,-0.03132,0.02643,0.00000,0.03123,0.97673,-0.19008,0.0,2023,6,7,17,50,41,542
50.68040,-0.10132,-0.20107,0.00000,0.03221,0.97746,-0.18837,0.0,2023,6,7,17,50,41,552
50.68050,-0.10132,0.14893,0.00000,0.03111,0.97698,-0.18837,0.0,2023,6,7,17,50,41,562
50.68060,-0.22382,0.18393,0.00000,0.03026,0.97685,-0.18751,0.0,2023,6,7,17,50,41,572
50.68070,0.09118,-0.32357,0.00000,0.03038,0.97612,-0.19130,0.0,2023,6,7,17,50,41,582
50.68080,0.16118,-0.06107,0.00000,0.03001,0.97490,-0.19166,0.0,2023,6,7,17,50,41,592
50.68090,0.10868,-0.07857,0.00000,0.03257,0.97466,-0.19093,0.0,2023,6,7,17,50,41,602
50.68100,-0.17132,0.11393,0.00000,0.03367,0.97576,-0.18886,0.0,2023,6,7,17,50,41,612
50.68110,-0.03132,0.14893,0.00000,0.03013,0.97673,-0.18837,0.0,2023,6,7,17,50,41,622
50.68120,-0.01382,0.14893,0.00000,0.03331,0.97637,-0.18873,0.0,2023,6,7,17,50,41,632
50.68130,0.14368,0.07892,0.00000,0.03184,0.97393,-0.19361,0.0,2023,6,7,17,50,41,642
50.68140,-0.04882,-0.18358,0.00000,0.03184,0.97417,-0.18886,0.0,2023,6,7,17,50,41,652
50.68150,-0.06632,0.11393,0.00000,0.03331,0.97600,-0.19105,0.0,2023,6,7,17,50,41,662
50.68160,0.19618,-0.06107,0.00000,0.03221,0.97734,-0.19093,0.0,2023,6,7,17,50,41,672
50.68170,0.05618,0.09642,0.00000,0.03087,0.97649,-0.19142,0.0,2023,6,7,17,50,41,682
50.68180,-0.01382,0.07892,0.00000,0.03209,0.97673,-0.18776,0.0,2023,6,7,17,50,41,692
50.68190,-0.13632,0.00893,0.00000,0.03111,0.97832,-0.18873,0.0,2023,6,7,17,50,41,702
50.68200,0.09118,0.09642,0.00000,0.03001,0.97710,-0.18934,0.0,2023,6,7,17,50,41,712
50.68210,-0.03132,-0.00857,0.00000,0.03306,0.97429,-0.19044,0.0,2023,6,7,17,50,41,722
50.68220,0.05618,0.13143,0.00000,0.03087,0.97844,-0.18886,0.0,2023,6,7,17,50,41,732
50.68230,-0.10132,0.14893,0.00000,0.03135,0.97539,-0.18934,0.0,2023,6,7,17,50,41,742
50.68240,-0.03132,-0.00857,0.00000,0.03135,0.97612,-0.19032,0.0,2023,6,7,17,50,41,752
50.68250,-0.11882,0.09642,0.00000,0.03099,0.97612,-0.18849,0.0,2023,6,7,17,50,41,762
50.68260,0.07368,-0.11357,0.00000,0.03221,0.97771,-0.18825,0.0,2023,6,7,17,50,41,772
50.68270,-0.01382,0.04392,0.00000,0.03160,0.97612,-0.18861,0.0,2023,6,7,17,50,41,782
50.68280,0.09118,-0.02607,0.00000,0.02867,0.97661,-0.19117,0.0,2023,6,7,17,50,41,792
50.68290,0.14368,-0.11357,0.00000,0.02940,0.97795,-0.18898,0.0,2023,6,7,17,50,41,802
50.68300,0.17868,0.11393,0.00000,0.03148,0.97441,-0.18812,0.0,2023,6,7,17,50,41,812
50.68310,0.28368,-0.04357,0.00000,0.03245,0.97612,-0.18983,0.0,2023,6,7,17,50,41,822
50.68320,0.09118,-0.00857,0.00000,0.03172,0.97698,-0.18581,0.0,2023,6,7,17,50,41,832
50.68330,-0.03132,-0.04357,0.00000,0.03257,0.97661,-0.18873,0.0,2023,6,7,17,50,41,842
50.68340,0.00368,-0.09607,0.00000,0.03172,0.97576,-0.18690,0.0,2023,6,7,17,50,41,852
50.68350,0.10868,0.09642,0.00000,0.03282,0.97624,-0.18703,0.0,2023,6,7,17,50,41,862
50.68360,-0.04882,-0.09607,0.00000,0.03026,0.97624,-0.19081,0.0,2023,6,7,17,50,41,872
50.68370,0.00368,0.14893,0.00000,0.02721,0.97539,-0.19142,0.0,2023,6,7,17,50,41,882
50.68380,-0.03132,0.02643,0.00000,0.03087,0.97783,-0.19069,0.0,2023,6,7,17,50,41,892
50.68390,-0.04882,0.00893,0.00000,0.03257,0.97673,-0.18690,0.0,2023,6,7,17,50,42,2
50.68400,-0.15382,-0.16608,0.00000,0.03160,0.97746,-0.18751,0.0,2023,6,7,17,50,42,12
50.68410,0.10868,-0.14858,0.00000,0.03099,0.97551,-0.18703,0.0,2023,6,7,17,50,42,22
50.68420,0.19618,0.21893,0.00000,0.03379,0.97551,-0.19020,0.0,2023,6,7,17,50,42,32
50.68430,0.02118,0.18393,0.00000,0.02867,0.97966,-0.18922,0.0,2023,6,7,17,50,42,42
50.68440,0.19618,0.06142,0.00000,0.03026,0.97698,-0.18947,0.0,2023,6,7,17,50,42,52
50.68450,0.16118,-0.04357,0.00000,0.03196,0.97698,-0.18861,0.0,2023,6,7,17,50,42,62
50.68460,-0.08382,0.32393,0.00000,0.03233,0.97698,-0.19020,0.0,2023,6,7,17,50,42,72
50.68470,0.02118,0.07892,0.00000,0.03184,0.97746,-0.18837,0.0,2023,6,7,17,50,42,82
50.68480,-0.03132,0.07892,0.00000,0.02989,0.97624,-0.18642,0.0,2023,6,7,17,50,42,92
50.68490,0.16118,-0.02607,0.00000,0.03196,0.97661,-0.18825,0.0,2023,6,7,17,50,42,102
50.68500,0.19618,-0.00857,0.00000,0.03111,0.97502,-0.18898,0.0,2023,6,7,17,50,42,112
50.68510,0.05618,0.09642,0.00000,0.03148,0.97478,-0.18959,0.0,2023,6,7,17,50,42,122
50.68520,-0.04882,-0.00857,0.00000,0.03270,0.97661,-0.19142,0.0,2023,6,7,17,50,42,132
50.68530,-0.17132,0.04392,0.00000,0.03099,0.97722,-0.18629,0.0,2023,6,7,17,50,42,142
50.68540,0.00368,0.06142,0.00000,0.03160,0.97600,-0.18434,0.0,2023,6,7,17,50,42,152
50.68550,0.02118,-0.14858,0.00000,0.03184,0.97759,-0.18690,0.0,2023,6,7,17,50,42,162
50.68560,0.09118,-0.06107,0.00000,0.02928,0.97600,-0.18617,0.0,2023,6,7,17,50,42,172
50.68570,0.09118,-0.25357,0.00000,0.03038,0.97612,-0.19008,0.0,2023,6,7,17,50,42,182
50.68580,0.14368,0.00893,0.00000,0.03172,0.97637,-0.19020,0.0,2023,6,7,17,50,42,192
50.68590,-0.04882,-0.02607,0.00000,0.03013,0.97844,-0.18873,0.0,2023,6,7,17,50,42,202
50.68600,0.09118,-0.16608,0.00000,0.03148,0.97746,-0.18934,0.0,2023,6,7,17,50,42,212
50.68610,0.07368,-0.18358,0.00000,0.03135,0.97612,-0.18983,0.0,2023,6,7,17,50,42,222
50.68620,0.03868,0.07892,0.00000,0.03087,0.97515,-0.18934,0.0,2023,6,7,17,50,42,232
50.68630,-0.13632,0.25392,0.00000,0.03099,0.97771,-0.18434,0.0,2023,6,7,17,50,42,242
50.68640,0.12618,-0.11357,0.00000,0.03074,0.97563,-0.18898,0.0,2023,6,7,17,50,42,252
50.68650,0.10868,-0.20107,0.00000,0.03001,0.97685,-0.18947,0.0,2023,6,7,17,50,42,262
50.68660,0.09118,0.06142,0.00000,0.03172,0.97673,-0.18886,0.0,2023,6,7,17,50,42,272
50.68670,0.05618,-0.18358,0.00000,0.02977,0.97893,-0.18934,0.0,2023,6,7,17,50,42,282
50.68680,-0.03132,0.11393,0.00000,0.03013,0.97429,-0.19008,0.0,2023,6,7,17,50,42,292
50.68690,0.00368,0.00893,0.00000,0.02977,0.97771,-0.18739,0.0,2023,6,7,17,50,42,302
50.68700,0.09118,-0.16608,0.00000,0.03306,0.97515,-0.19020,0.0,2023,6,7,17,50,42,312
50.68710,0.10868,-0.16608,0.00000,0.03099,0.97551,-0.18654,0.0,2023,6,7,17,50,42,322
50.68720,-0.03132,0.00893,0.00000,0.03013,0.97637,-0.19056,0.0,2023,6,7,17,50,42,332
50.68730,0.12618,0.23643,0.00000,0.03099,0.97746,-0.18898,0.0,2023,6,7,17,50,42,342
50.68740,0.10868,0.20143,0.00000,0.02940,0.97661,-0.18861,0.0,2023,6,7,17,50,42,352
50.68750,-0.04882,0.00893,0.00000,0.03148,0.97661,-0.19069,0.0,2023,6,7,17,50,42,362
50.68760,0.09118,-0.09607,0.00000,0.03196,0.97417,-0.18849,0.0,2023,6,7,17,50,42,372
50.68770,-0.11882,0.09642,0.00000,0.03294,0.97576,-0.18739,0.0,2023,6,7,17,50,42,382
50.68780,0.02118,-0.07857,0.00000,0.03270,0.97698,-0.19020,0.0,2023,6,7,17,50,42,392
50.68790,0.10868,0.07892,0.00000,0.03087,0.97539,-0.18825,0.0,2023,6,7,17,50,42,402
50.68800,0.12618,-0.25357,0.00000,0.03123,0.97795,-0.19105,0.0,2023,6,7,17,50,42,412
50.68810,-0.03132,0.28892,0.00000,0.02977,0.97746,-0.18995,0.0,2023,6,7,17,50,42,422
50.68820,-0.03132,-0.02607,0.00000,0.03160,0.97600,-0.18959,0.0,2023,6,7,17,50,42,432
50.68830,-0.03132,-0.04357,0.00000,0.03148,0.97588,-0.18800,0.0,2023,6,7,17,50,42,442
50.68840,0.00368,0.13143,0.00000,0.02940,0.97746,-0.18776,0.0,2023,6,7,17,50,42,452
50.68850,-0.20632,-0.02607,0.00000,0.03099,0.97783,-0.19056,0.0,2023,6,7,17,50,42,462
50.68860,0.07368,-0.20107,0.00000,0.02965,0.97600,-0.18983,0.0,2023,6,7,17,50,42,472
50.68870,0.14368,-0.07857,0.00000,0.02989,0.97771,-0.19081,0.0,2023,6,7,17,50,42,482
50.68880,-0.04882,0.06142,0.00000,0.03233,0.97637,-0.18983,0.0,2023,6,7,17,50,42,492
50.68890,-0.06632,0.09642,0.00000,0.03209,0.97759,-0.19191,0.0,2023,6,7,17,50,42,502
50.68900,0.17868,-0.02607,0.00000,0.03221,0.97685,-0.18922,0.0,2023,6,7,17,50,42,512
50.68910,0.03868,-0.18358,0.00000,0.03099,0.97722,-0.18971,0.0,2023,6,7,17,50,42,522
50.68920,-0.13632,0.27142,0.00000,0.03184,0.97661,-0.19032,0.0,2023,6,7,17,50,42,532
50.68930,-0.01382,0.09642,0.00000,0.03221,0.97563,-0.18898,0.0,2023,6,7,17,50,42,542
50.68940,0.07368,-0.07857,0.00000,0.02867,0.97515,-0.19020,0.0,2023,6,7,17,50,42,552
50.68950,-0.10132,0.21893,0.00000,0.03318,0.97685,-0.19093,0.0,2023,6,7,17,50,42,562
50.68960,0.14368,0.13143,0.00000,0.02952,0.97588,-0.18983,0.0,2023,6,7,17,50,42,572
50.68970,0.05618,-0.06107,0.00000,0.03026,0.97685,-0.19044,0.0,2023,6,7,17,50,42,582
50.68980,0.07368,0.02643,0.00000,0.03050,0.97734,-0.19020,0.0,2023,6,7,17,50,42,592
50.68990,-0.10132,-0.14858,0.00000,0.03087,0.97588,-0.18800,0.0,2023,6,7,17,50,42,602
50.69000,0.03868,0.04392,0.00000,0.03209,0.97673,-0.18800,0.0,2023,6,7,17,50,42,612
50.69010,-0.01382,0.13143,0.00000,0.03074,0.97673,-0.19020,0.0,2023,6,7,17,50,42,622
50.69020,0.19618,-0.20107,0.00000,0.03172,0.97759,-0.18873,0.0,2023,6,7,17,50,42,632
50.69030,0.02118,0.06142,0.00000,0.03318,0.97576,-0.18922,0.0,2023,6,7,17,50,42,642
50.69040,-0.20632,0.14893,0.00000,0.03062,0.97722,-0.18947,0.0,2023,6,7,17,50,42,652
50.69050,-0.18882,0.04392,0.00000,0.02977,0.97698,-0.18922,0.0,2023,6,7,17,50,42,662
50.69060,-0.18882,0.00893,0.00000,0.02928,0.97600,-0.18654,0.0,2023,6,7,17,50,42,672
50.69070,0.19618,-0.13108,0.00000,0.02782,0.97807,-0.19008,0.0,2023,6,7,17,50,42,682
50.69080,0.14368,-0.11357,0.00000,0.03196,0.97685,-0.18812,0.0,2023,6,7,17,50,42,692
50.69090,-0.01382,0.04392,0.00000,0.03087,0.97685,-0.19008,0.0,2023,6,7,17,50,42,702
50.69100,0.03868,0.14893,0.00000,0.03123,0.97649,-0.18898,0.0,2023,6,7,17,50,42,712
50.69110,-0.01382,-0.06107,0.00000,0.03270,0.97722,-0.18788,0.0,2023,6,7,17,50,42,722
50.69120,-0.04882,0.14893,0.00000,0.03001,0.97307,-0.18642,0.0,2023,6,7,17,50,42,732
50.69130,-0.03132,-0.20107,0.00000,0.03282,0.97722,-0.18703,0.0,2023,6,7,17,50,42,742
50.69140,0.00368,0.09642,0.00000,0.03221,0.97466,-0.18971,0.0,2023,6,7,17,50,42,752
50.69150,0.03868,0.07892,0.00000,0.03062,0.97649,-0.18910,0.0,2023,6,7,17,50,42,762
50.69160,0.14368,0.18393,0.00000,0.03282,0.97917,-0.19178,0.0,2023,6,7,17,50,42,772
50.69170,0.03868,0.06142,0.00000,0.03038,0.97661,-0.19032,0.0,2023,6,7,17,50,42,782
50.69180,0.00368,-0.11357,0.00000,0.02965,0.97649,-0.18751,0.0,2023,6,7,17,50,42,792
50.69190,-0.13632,-0.14858,0.00000,0.02891,0.97563,-0.18727,0.0,2023,6,7,17,50,42,802
50.69200,0.17868,-0.07857,0.00000,0.02940,0.97515,-0.18837,0.0,2023,6,7,17,50,42,812
50.69210,0.00368,0.13143,0.00000,0.03209,0.97771,-0.19227,0.0,2023,6,7,17,50,42,822
50.69220,0.00368,-0.07857,0.00000,0.03111,0.97771,-0.18861,0.0,2023,6,7,17,50,42,832
50.69230,0.00368,0.09642,0.00000,0.03160,0.97698,-0.18947,0.0,2023,6,7,17,50,42,842
50.69240,-0.01382,0.23643,0.00000,0.03245,0.97405,-0.19081,0.0,2023,6,7,17,50,42,852
50.69250,-0.10132,-0.06107,0.00000,0.03318,0.97588,-0.18934,0.0,2023,6,7,17,50,42,862
50.69260,-0.10132,0.06142,0.00000,0.03087,0.97685,-0.19032,0.0,2023,6,7,17,50,42,872
50.69270,0.14368,0.09642,0.00000,0.03172,0.97685,-0.18812,0.0,2023,6,7,17,50,42,882
50.69280,0.12618,0.16643,0.00000,0.02952,0.97710,-0.18861,0.0,2023,6,7,17,50,43,2
50.69290,-0.13632,0.00893,0.00000,0.03209,0.97490,-0.18910,0.0,2023,6,7,17,50,43,12
50.69300,-0.04882,0.09642,0.00000,0.03184,0.97637,-0.19069,0.0,2023,6,7,17,50,43,22
50.69310,-0.11882,0.13143,0.00000,0.03160,0.97710,-0.19032,0.0,2023,6,7,17,50,43,32
50.69320,0.09118,0.02643,0.00000,0.02891,0.97502,-0.19020,0.0,2023,6,7,17,50,43,42
50.69330,0.03868,0.04392,0.00000,0.03026,0.97588,-0.19093,0.0,2023,6,7,17,50,43,52
50.69340,0.09118,0.02643,0.00000,0.03111,0.97612,-0.19044,0.0,2023,6,7,17,50,43,62
50.69350,-0.13632,0.04392,0.00000,0.02916,0.97807,-0.19069,0.0,2023,6,7,17,50,43,72
50.69360,0.00368,0.02643,0.00000,0.03001,0.97637,-0.19191,0.0,2023,6,7,17,50,43,82
50.69370,-0.13632,-0.07857,0.00000,0.03172,0.97563,-0.18812,0.0,2023,6,7,17,50,43,92
50.69380,-0.03132,0.04392,0.00000,0.03013,0.97795,-0.18861,0.0,2023,6,7,17,50,43,102
50.69390,-0.11882,0.00893,0.00000,0.03062,0.97771,-0.18751,0.0,2023,6,7,17,50,43,112
50.69400,-0.04882,-0.20107,0.00000,0.03209,0.97576,-0.19325,0.0,2023,6,7,17,50,43,122
50.69410,0.10868,-0.06107,0.00000,0.03099,0.97563,-0.19069,0.0,2023,6,7,17,50,43,132
50.69420,-0.01382,0.09642,0.00000,0.03160,0.97576,-0.19044,0.0,2023,6,7,17,50,43,142
50.69430,0.07368,-0.11357,0.00000,0.03209,0.97673,-0.18776,0.0,2023,6,7,17,50,43,152
50.69440,-0.11882,0.09642,0.00000,0.03196,0.97698,-0.18642,0.0,2023,6,7,17,50,43,162
50.69450,-0.01382,0.04392,0.00000,0.03148,0.97856,-0.18739,0.0,2023,6,7,17,50,43,172
50.69460,0.05618,-0.14858,0.00000,0.03367,0.97563,-0.18922,0.0,2023,6,7,17,50,43,182
50.69470,0.05618,-0.32357,0.00000,0.03123,0.97710,-0.18873,0.0,2023,6,7,17,50,43,192
50.69480,-0.06632,0.11393,0.00000,0.03196,0.97576,-0.19008,0.0,2023,6,7,17,50,43,202
50.69490,0.12618,-0.13108,0.00000,0.03270,0.97673,-0.18764,0.0,2023,6,7,17,50,43,212
50.69500,0.02118,0.00893,0.00000,0.03196,0.97466,-0.18971,0.0,2023,6,7,17,50,43,222
50.69510,-0.20632,0.02643,0.00000,0.03160,0.97478,-0.18910,0.0,2023,6,7,17,50,43,232
50.69520,0.12618,0.06142,0.00000,0.03087,0.97539,-0.19044,0.0,2023,6,7,17,50,43,242
50.69530,0.03868,0.07892,0.00000,0.03050,0.97783,-0.18995,0.0,2023,6,7,17,50,43,252
50.69540,0.00368,-0.02607,0.00000,0.03099,0.97295,-0.18849,0.0,2023,6,7,17,50,43,262
50.69550,-0.15382,0.11393,0.00000,0.03013,0.97722,-0.18739,0.0,2023,6,7,17,50,43,272
50.69560,0.00368,-0.13108,0.00000,0.03196,0.97734,-0.18959,0.0,2023,6,7,17,50,43,282
50.69570,0.19618,0.02643,0.00000,0.03026,0.97637,-0.18751,0.0,2023,6,7,17,50,43,292
50.69580,0.12618,-0.23607,0.00000,0.03233,0.97490,-0.18837,0.0,2023,6,7,17,50,43,302
50.69590,0.10868,-0.00857,0.00000,0.02818,0.97405,-0.19069,0.0,2023,6,7,17,50,43,312
50.69600,-0.08382,0.16643,0.00000,0.03087,0.97551,-0.18764,0.0,2023,6,7,17,50,43,322
50.69610,0.19618,0.02643,0.00000,0.03270,0.97783,-0.19020,0.0,2023,6,7,17,50,43,332
50.69620,0.00368,0.04392,0.00000,0.02965,0.97759,-0.19020,0.0,2023,6,7,17,50,43,342
50.69630,0.09118,0.16643,0.00000,0.03050,0.97746,-0.18886,0.0,2023,6,7,17,50,43,352
50.69640,-0.08382,0.13143,0.00000,0.03013,0.97759,-0.18873,0.0,2023,6,7,17,50,43,362
50.69650,-0.15382,0.20143,0.00000,0.03074,0.97698,-0.18849,0.0,2023,6,7,17,50,43,372
50.69660,-0.10132,0.09642,0.00000,0.03404,0.97466,-0.18922,0.0,2023,6,7,17,50,43,382
50.69670,-0.17132,-0.07857,0.00000,0.03160,0.97722,-0.18947,0.0,2023,6,7,17,50,43,392
50.69680,-0.04882,-0.07857,0.00000,0.03172,0.97527,-0.18983,0.0,2023,6,7,17,50,43,402
50.69690,-0.04882,0.23643,0.00000,0.03270,0.97661,-0.19020,0.0,2023,6,7,17,50,43,412
50.69700,0.12618,0.00893,0.00000,0.03074,0.97515,-0.18959,0.0,2023,6,7,17,50,43,422
50.69710,0.05618,-0.06107,0.00000,0.03233,0.97820,-0.18995,0.0,2023,6,7,17,50,43,432
50.69720,-0.13632,0.11393,0.00000,0.03221,0.97576,-0.18800,0.0,2023,6,7,17,50,43,442
50.69730,0.16118,-0.07857,0.00000,0.02989,0.97698,-0.19191,0.0,2023,6,7,17,50,43,452
50.69740,-0.01382,0.07892,0.00000,0.03257,0.97637,-0.19130,0.0,2023,6,7,17,50,43,462
50.69750,0.03868,0.02643,0.00000,0.03221,0.97637,-0.18922,0.0,2023,6,7,17,50,43,472
50.69760,0.12618,-0.04357,0.00000,0.02904,0.97527,-0.19044,0.0,2023,6,7,17,50,43,482
50.69770,-0.04882,0.04392,0.00000,0.03196,0.97539,-0.18959,0.0,2023,6,7,17,50,43,492
50.69780,-0.08382,0.00893,0.00000,0.03379,0.97637,-0.18764,0.0,2023,6,7,17,50,43,502
50.69790,0.07368,-0.11357,0.00000,0.03148,0.97527,-0.19154,0.0,2023,6,7,17,50,43,512
50.69800,-0.01382,0.13143,0.00000,0.03111,0.97576,-0.18825,0.0,2023,6,7,17,50,43,522
50.69810,0.12618,-0.25357,0.00000,0.03257,0.97588,-0.18922,0.0,2023,6,7,17,50,43,532
50.69820,-0.03132,0.04392,0.00000,0.03221,0.97600,-0.18959,0.0,2023,6,7,17,50,43,542
50.69830,0.02118,-0.13108,0.00000,0.03001,0.97527,-0.18934,0.0,2023,6,7,17,50,43,552
50.69840,-0.36382,-0.06107,0.00000,0.03099,0.97588,-0.18764,0.0,2023,6,7,17,50,43,562
50.69850,-0.03132,0.18393,0.00000,0.03099,0.97393,-0.18898,0.0,2023,6,7,17,50,43,572
50.69860,-0.11882,0.07892,0.00000,0.03221,0.97563,-0.18849,0.0,2023,6,7,17,50,43,582
50.69870,0.02118,0.11393,0.00000,0.03270,0.97490,-0.18861,0.0,2023,6,7,17,50,43,592
50.69880,-0.03132,-0.09607,0.00000,0.03123,0.97673,-0.19032,0.0,2023,6,7,17,50,43,602
50.69890,-0.10132,-0.09607,0.00000,0.03062,0.97454,-0.18861,0.0,2023,6,7,17,50,43,612
50.69900,0.09118,-0.18358,0.00000,0.03111,0.97649,-0.19056,0.0,2023,6,7,17,50,43,622
50.69910,0.05618,-0.00857,0.00000,0.03196,0.97502,-0.19044,0.0,2023,6,7,17,50,43,632
50.69920,0.14368,-0.18358,0.00000,0.03184,0.97502,-0.18690,0.0,2023,6,7,17,50,43,642
50.69930,0.14368,0.09642,0.00000,0.03135,0.97637,-0.19093,0.0,2023,6,7,17,50,43,652
50.69940,0.14368,0.02643,0.00000,0.03343,0.97539,-0.19374,0.0,2023,6,7,17,50,43,662
50.69950,0.07368,-0.09607,0.00000,0.03087,0.97624,-0.19203,0.0,2023,6,7,17,50,43,672
50.69960,-0.01382,0.06142,0.00000,0.03184,0.97783,-0.19008,0.0,2023,6,7,17,50,43,682
50.69970,-0.06632,-0.06107,0.00000,0.03087,0.97710,-0.19032,0.0,2023,6,7,17,50,43,692
50.69980,0.00368,0.14893,0.00000,0.03001,0.97624,-0.18886,0.0,2023,6,7,17,50,43,702
50.69990,0.00368,0.07892,0.00000,0.03062,0.97624,-0.18898,0.0,2023,6,7,17,50,43,712
50.70000,0.02118,-0.09607,0.00000,0.02904,0.97527,-0.19105,0.0,2023,6,7,17,50,43,722
50.70010,0.03868,-0.06107,0.00000,0.03135,0.97807,-0.19081,0.0,2023,6,7,17,50,43,732
50.70020,0.10868,-0.02607,0.00000,0.03148,0.97539,-0.19008,0.0,2023,6,7,17,50,43,742
50.70030,-0.15382,-0.09607,0.00000,0.03148,0.97746,-0.18873,0.0,2023,6,7,17,50,43,752
50.70040,0.12618,-0.11357,0.00000,0.03050,0.97685,-0.19337,0.0,2023,6,7,17,50,43,762
50.70050,0.14368,-0.11357,0.00000,0.03001,0.97722,-0.19032,0.0,2023,6,7,17,50,43,772
50.70060,0.35368,-0.04357,0.00000,0.03013,0.97771,-0.19227,0.0,2023,6,7,17,50,43,782
50.70070,-0.04882,0.16643,0.00000,0.03013,0.97637,-0.18800,0.0,2023,6,7,17,50,43,792
50.70080,0.05618,0.16643,0.00000,0.03013,0.97624,-0.18959,0.0,2023,6,7,17,50,43,802
50.70090,-0.03132,-0.06107,0.00000,0.03257,0.97698,-0.18983,0.0,2023,6,7,17,50,43,812
50.70100,0.00368,0.20143,0.00000,0.03062,0.97612,-0.18849,0.0,2023,6,7,17,50,43,822
50.70110,-0.03132,0.06142,0.00000,0.03123,0.97746,-0.18788,0.0,2023,6,7,17,50,43,832
50.70120,-0.06632,0.02643,0.00000,0.03282,0.97710,-0.18873,0.0,2023,6,7,17,50,43,842
50.70130,-0.03132,-0.14858,0.00000,0.03196,0.97722,-0.18873,0.0,2023,6,7,17,50,43,852
50.70140,-0.06632,0.02643,0.00000,0.02867,0.97710,-0.19276,0.0,2023,6,7,17,50,43,862
50.70150,0.12618,-0.11357,0.00000,0.02928,0.97673,-0.19081,0.0,2023,6,7,17,50,43,872
50.70160,0.03868,-0.02607,0.00000,0.03074,0.97905,-0.18861,0.0,2023,6,7,17,50,44,2
50.70170,0.10868,-0.00857,0.00000,0.02965,0.97563,-0.18776,0.0,2023,6,7,17,50,44,12
50.70180,-0.06632,-0.06107,0.00000,0.03270,0.97868,-0.19117,0.0,2023,6,7,17,50,44,22
50.70190,0.00368,0.06142,0.00000,0.03111,0.97576,-0.19239,0.0,2023,6,7,17,50,44,32
50.70200,0.14368,-0.06107,0.00000,0.03050,0.97576,-0.18666,0.0,2023,6,7,17,50,44,42
50.70210,0.05618,-0.09607,0.00000,0.03221,0.97698,-0.18861,0.0,2023,6,7,17,50,44,52
50.70220,-0.01382,-0.23607,0.00000,0.03038,0.97673,-0.18776,0.0,2023,6,7,17,50,44,62
50.70230,0.03868,0.02643,0.00000,0.03001,0.97600,-0.18788,0.0,2023,6,7,17,50,44,72
50.70240,0.10868,-0.25357,0.00000,0.02952,0.97441,-0.18995,0.0,2023,6,7,17,50,44,82
50.70250,-0.15382,-0.23607,0.00000,0.03294,0.97637,-0.19020,0.0,2023,6,7,17,50,44,92
50.70260,-0.13632,-0.09607,0.00000,0.03294,0.97929,-0.18910,0.0,2023,6,7,17,50,44,102
50.70270,-0.03132,0.06142,0.00000,0.03245,0.97734,-0.19117,0.0,2023,6,7,17,50,44,112
50.70280,-0.17132,0.18393,0.00000,0.03172,0.97429,-0.18873,0.0,2023,6,7,17,50,44,122
50.70290,-0.11882,0.11393,0.00000,0.03355,0.97966,-0.18495,0.0,2023,6,7,17,50,44,132
50.70300,-0.24132,0.21893,0.00000,0.03123,0.97807,-0.18971,0.0,2023,6,7,17,50,44,142
50.70310,-0.06632,0.16643,0.00000,0.03270,0.97551,-0.19166,0.0,2023,6,7,17,50,44,152
50.70320,0.30118,-0.13108,0.00000,0.03428,0.97380,-0.18385,0.0,2023,6,7,17,50,44,162
50.70330,0.00368,-0.00857,0.00000,0.02830,0.97832,-0.18800,0.0,2023,6,7,17,50,44,172
50.70340,-0.06632,0.09642,0.00000,0.03148,0.97698,-0.18800,0.0,2023,6,7,17,50,44,182
50.70350,0.12618,0.04392,0.00000,0.03172,0.97490,-0.18983,0.0,2023,6,7,17,50,44,192
50.70360,0.02118,-0.16608,0.00000,0.03184,0.97466,-0.18849,0.0,2023,6,7,17,50,44,202
50.70370,0.07368,-0.11357,0.00000,0.03013,0.97661,-0.18788,0.0,2023,6,7,17,50,44,212
50.70380,-0.15382,0.02643,0.00000,0.02879,0.97551,-0.18739,0.0,2023,6,7,17,50,44,222
50.70390,-0.08382,0.00893,0.00000,0.03001,0.97380,-0.18812,0.0,2023,6,7,17,50,44,232
50.70400,-0.11882,0.02643,0.00000,0.03233,0.97685,-0.18751,0.0,2023,6,7,17,50,44,242
50.70410,0.05618,-0.34108,0.00000,0.03355,0.97600,-0.18751,0.0,2023,6,7,17,50,44,252
50.70420,-0.06632,0.16643,0.00000,0.03318,0.97454,-0.19008,0.0,2023,6,7,17,50,44,262
50.70430,0.14368,-0.06107,0.00000,0.02830,0.97563,-0.19069,0.0,2023,6,7,17,50,44,272
50.70440,-0.08382,-0.14858,0.00000,0.03245,0.97771,-0.18910,0.0,2023,6,7,17,50,44,282
50.70450,0.14368,0.09642,0.00000,0.03294,0.97490,-0.18898,0.0,2023,6,7,17,50,44,292
50.70460,-0.01382,0.07892,0.00000,0.03282,0.97856,-0.18886,0.0,2023,6,7,17,50,44,302
50.70470,-0.11882,0.06142,0.00000,0.03233,0.97954,-0.18898,0.0,2023,6,7,17,50,44,312
50.70480,-0.11882,0.04392,0.00000,0.03038,0.97576,-0.18739,0.0,2023,6,7,17,50,44,322
50.70490,-0.01382,0.13143,0.00000,0.03160,0.97661,-0.18812,0.0,2023,6,7,17,50,44,332
50.70500,-0.11882,0.14893,0.00000,0.03026,0.97710,-0.19056,0.0,2023,6,7,17,50,44,342
50.70510,0.14368,-0.07857,0.00000,0.03148,0.97673,-0.19020,0.0,2023,6,7,17,50,44,352
50.70520,0.02118,-0.06107,0.00000,0.03257,0.97746,-0.18934,0.0,2023,6,7,17,50,44,362
50.70530,0.00368,0.00893,0.00000,0.03331,0.97917,-0.19044,0.0,2023,6,7,17,50,44,372
50.70540,0.00368,-0.00857,0.00000,0.02916,0.97527,-0.18666,0.0,2023,6,7,17,50,44,382
50.70550,-0.04882,0.09642,0.00000,0.03099,0.97600,-0.18837,0.0,2023,6,7,17,50,44,392
50.70560,-0.04882,0.07892,0.00000,0.03062,0.97881,-0.19215,0.0,2023,6,7,17,50,44,402
50.70570,0.02118,0.02643,0.00000,0.03099,0.97551,-0.18995,0.0,2023,6,7,17,50,44,412
50.70580,-0.03132,0.16643,0.00000,0.02977,0.97551,-0.19008,0.0,2023,6,7,17,50,44,422
50.70590,0.03868,-0.09607,0.00000,0.03184,0.97612,-0.18898,0.0,2023,6,7,17,50,44,432
50.70600,0.09118,-0.00857,0.00000,0.03270,0.97502,-0.18837,0.0,2023,6,7,17,50,44,442
50.70610,0.10868,-0.04357,0.00000,0.02989,0.97759,-0.18800,0.0,2023,6,7,17,50,44,452
50.70620,-0.06632,-0.02607,0.00000,0.03038,0.97478,-0.18898,0.0,2023,6,7,17,50,44,462
50.70630,-0.08382,0.06142,0.00000,0.03087,0.97698,-0.18898,0.0,2023,6,7,17,50,44,472
50.70640,-0.13632,-0.14858,0.00000,0.03428,0.97649,-0.18971,0.0,2023,6,7,17,50,44,482
50.70650,0.03868,-0.04357,0.00000,0.03209,0.97734,-0.18703,0.0,2023,6,7,17,50,44,492
50.70660,-0.08382,-0.09607,0.00000,0.02952,0.97710,-0.19130,0.0,2023,6,7,17,50,44,502
50.70670,-0.01382,0.11393,0.00000,0.02891,0.97698,-0.19056,0.0,2023,6,7,17,50,44,512
50.70680,0.07368,0.07892,0.00000,0.03074,0.97576,-0.18873,0.0,2023,6,7,17,50,44,522
50.70690,-0.13632,0.02643,0.00000,0.03282,0.97661,-0.18971,0.0,2023,6,7,17,50,44,532
50.70700,-0.04882,-0.00857,0.00000,0.03111,0.97588,-0.18861,0.0,2023,6,7,17,50,44,542
50.70710,-0.01382,0.04392,0.00000,0.03270,0.97673,-0.18971,0.0,2023,6,7,17,50,44,552
50.70720,0.16118,-0.11357,0.00000,0.03038,0.97515,-0.19069,0.0,2023,6,7,17,50,44,562
50.70730,-0.08382,-0.14858,0.00000,0.03135,0.97710,-0.19166,0.0,2023,6,7,17,50,44,572
50.70740,-0.03132,0.02643,0.00000,0.03074,0.97734,-0.18983,0.0,2023,6,7,17,50,44,582
50.70750,-0.01382,0.04392,0.00000,0.03111,0.97673,-0.19105,0.0,2023,6,7,17,50,44,592
50.70760,-0.03132,0.11393,0.00000,0.03123,0.97515,-0.19191,0.0,2023,6,7,17,50,44,602
50.70770,0.00368,-0.07857,0.00000,0.03184,0.97576,-0.18849,0.0,2023,6,7,17,50,44,612
50.70780,-0.01382,0.04392,0.00000,0.03135,0.97417,-0.18934,0.0,2023,6,7,17,50,44,622
50.70790,-0.03132,-0.18358,0.00000,0.03379,0.97478,-0.18715,0.0,2023,6,7,17,50,44,632
50.70800,-0.06632,-0.04357,0.00000,0.03209,0.97661,-0.19069,0.0,2023,6,7,17,50,44,642
50.70810,0.09118,-0.18358,0.00000,0.03013,0.97612,-0.19069,0.0,2023,6,7,17,50,44,652
50.70820,-0.04882,0.11393,0.00000,0.03087,0.97417,-0.19056,0.0,2023,6,7,17,50,44,662
50.70830,-0.06632,0.14893,0.00000,0.03013,0.97454,-0.19105,0.0,2023,6,7,17,50,44,672
50.70840,0.24868,-0.02607,0.00000,0.03306,0.97612,-0.18910,0.0,2023,6,7,17,50,44,682
50.70850,-0.06632,-0.09607,0.00000,0.03099,0.97783,-0.18995,0.0,2023,6,7,17,50,44,692
50.70860,0.12618,-0.00857,0.00000,0.02916,0.97722,-0.18910,0.0,2023,6,7,17,50,44,702
50.70870,0.16118,0.06142,0.00000,0.02989,0.97612,-0.19093,0.0,2023,6,7,17,50,44,712
50.70880,-0.03132,0.00893,0.00000,0.03148,0.97722,-0.18910,0.0,2023,6,7,17,50,44,722
50.70890,-0.29382,0.09642,0.00000,0.03087,0.97588,-0.18995,0.0,2023,6,7,17,50,44,732
50.70900,-0.04882,0.06142,0.00000,0.03026,0.97698,-0.18666,0.0,2023,6,7,17,50,44,742
50.70910,-0.06632,-0.06107,0.00000,0.03196,0.97393,-0.19008,0.0,2023,6,7,17,50,44,752
50.70920,0.09118,-0.21857,0.00000,0.03404,0.97722,-0.18886,0.0,2023,6,7,17,50,44,762
50.70930,-0.03132,0.00893,0.00000,0.02977,0.97734,-0.18812,0.0,2023,6,7,17,50,44,772
50.70940,0.00368,0.07892,0.00000,0.03062,0.97502,-0.19154,0.0,2023,6,7,17,50,44,782
50.70950,-0.10132,-0.14858,0.00000,0.03270,0.97563,-0.18971,0.0,2023,6,7,17,50,44,792
50.70960,0.12618,-0.13108,0.00000,0.03148,0.97466,-0.19117,0.0,2023,6,7,17,50,44,802
50.70970,-0.20632,0.25392,0.00000,0.03196,0.97405,-0.19020,0.0,2023,6,7,17,50,44,812
50.70980,0.05618,0.14893,0.00000,0.03245,0.97454,-0.18922,0.0,2023,6,7,17,50,44,822
50.70990,0.07368,-0.00857,0.00000,0.03123,0.97649,-0.19020,0.0,2023,6,7,17,50,44,832
50.71000,0.05618,0.07892,0.00000,0.03148,0.97722,-0.19117,0.0,2023,6,7,17,50,44,842
50.71010,0.09118,0.16643,0.00000,0.03184,0.97685,-0.18873,0.0,2023,6,7,17,50,44,852
50.71020,-0.15382,0.21893,0.00000,0.03343,0.97576,-0.19032,0.0,2023,6,7,17,50,44,862
50.71030,-0.11882,0.02643,0.00000,0.03111,0.97454,-0.18800,0.0,2023,6,7,17,50,44,872
50.71040,-0.04882,0.13143,0.00000,0.03196,0.97673,-0.18983,0.0,2023,6,7,17,50,44,882
50.71050,0.07368,-0.09607,0.00000,0.02952,0.97673,-0.19093,0.0,2023,6,7,17,50,44,892
50.71060,0.05618,0.13143,0.00000,0.02952,0.97441,-0.18947,0.0,2023,6,7,17,50,44,902
50.71070,0.00368,0.14893,0.00000,0.03599,0.97734,-0.18861,0.0,2023,6,7,17,50,45,2
50.71080,-0.04882,-0.07857,0.00000,0.03196,0.97380,-0.18812,0.0,2023,6,7,17,50,45,12
50.71090,0.17868,0.06142,0.00000,0.03013,0.97771,-0.19093,0.0,2023,6,7,17,50,45,22
50.71100,0.10868,0.13143,0.00000,0.03050,0.97746,-0.18934,0.0,2023,6,7,17,50,45,32
50.71110,-0.13632,0.16643,0.00000,0.02952,0.97734,-0.18666,0.0,2023,6,7,17,50,45,42
50.71120,-0.08382,-0.13108,0.00000,0.03184,0.97563,-0.18947,0.0,2023,6,7,17,50,45,52
50.71130,0.02118,0.02643,0.00000,0.03318,0.97490,-0.18898,0.0,2023,6,7,17,50,45,62
50.71140,-0.15382,0.14893,0.00000,0.03135,0.97673,-0.19093,0.0,2023,6,7,17,50,45,72
50.71150,0.14368,-0.02607,0.00000,0.03160,0.97539,-0.18995,0.0,2023,6,7,17,50,45,82
50.71160,0.10868,0.20143,0.00000,0.03111,0.97454,-0.18922,0.0,2023,6,7,17,50,45,92
50.71170,0.21368,-0.04357,0.00000,0.03331,0.97515,-0.19361,0.0,2023,6,7,17,50,45,102
50.71180,-0.06632,-0.20107,0.00000,0.03160,0.97551,-0.18898,0.0,2023,6,7,17,50,45,112
50.71190,-0.18882,-0.02607,0.00000,0.03050,0.97661,-0.18605,0.0,2023,6,7,17,50,45,122
50.71200,0.16118,0.06142,0.00000,0.02782,0.97563,-0.19105,0.0,2023,6,7,17,50,45,132
50.71210,-0.04882,0.06142,0.00000,0.03074,0.97527,-0.18873,0.0,2023,6,7,17,50,45,142
50.71220,-0.20632,-0.07857,0.00000,0.03172,0.97820,-0.18849,0.0,2023,6,7,17,50,45,152
50.71230,-0.08382,-0.06107,0.00000,0.03221,0.97673,-0.18983,0.0,2023,6,7,17,50,45,162
50.71240,-0.04882,0.02643,0.00000,0.03087,0.97759,-0.18837,0.0,2023,6,7,17,50,45,172
50.71250,-0.06632,0.18393,0.00000,0.03148,0.97661,-0.19020,0.0,2023,6,7,17,50,45,182
50.71260,0.03868,-0.14858,0.00000,0.03135,0.97661,-0.19117,0.0,2023,6,7,17,50,45,192
50.71270,0.24868,-0.13108,0.00000,0.02855,0.97551,-0.19056,0.0,2023,6,7,17,50,45,202
50.71280,-0.13632,0.09642,0.00000,0.02843,0.97637,-0.19008,0.0,2023,6,7,17,50,45,212
50.71290,-0.08382,0.06142,0.00000,0.02965,0.97661,-0.18983,0.0,2023,6,7,17,50,45,222
50.71300,0.21368,-0.00857,0.00000,0.03282,0.97393,-0.18812,0.0,2023,6,7,17,50,45,232
50.71310,0.17868,-0.11357,0.00000,0.03270,0.97734,-0.19239,0.0,2023,6,7,17,50,45,242
50.71320,-0.10132,0.14893,0.00000,0.03318,0.97759,-0.18995,0.0,2023,6,7,17,50,45,252
50.71330,-0.11882,0.13143,0.00000,0.03282,0.97661,-0.19008,0.0,2023,6,7,17,50,45,262
50.71340,0.00368,-0.07857,0.00000,0.03184,0.97527,-0.19044,0.0,2023,6,7,17,50,45,272
50.71350,0.16118,0.07892,0.00000,0.03184,0.97966,-0.18800,0.0,2023,6,7,17,50,45,282
50.71360,-0.01382,0.13143,0.00000,0.03013,0.97637,-0.19032,0.0,2023,6,7,17,50,45,292
50.71370,-0.06632,0.11393,0.00000,0.02977,0.97588,-0.18812,0.0,2023,6,7,17,50,45,302
50.71380,0.03868,0.20143,0.00000,0.03087,0.97759,-0.18703,0.0,2023,6,7,17,50,45,312
50.71390,-0.01382,-0.02607,0.00000,0.03111,0.97576,-0.18751,0.0,2023,6,7,17,50,45,322
50.71400,-0.06632,0.02643,0.00000,0.03111,0.97539,-0.18910,0.0,2023,6,7,17,50,45,332
50.71410,0.09118,-0.04357,0.00000,0.03001,0.97661,-0.19337,0.0,2023,6,7,17,50,45,342
50.71420,-0.11882,-0.00857,0.00000,0.02928,0.97734,-0.18788,0.0,2023,6,7,17,50,45,352
50.71430,-0.03132,0.27142,0.00000,0.03050,0.97673,-0.19264,0.0,2023,6,7,17,50,45,362
50.71440,-0.04882,0.07892,0.00000,0.02952,0.97795,-0.19154,0.0,2023,6,7,17,50,45,372
50.71450,0.09118,-0.14858,0.00000,0.02855,0.97515,-0.19093,0.0,2023,6,7,17,50,45,382
50.71460,0.09118,0.02643,0.00000,0.02891,0.97429,-0.19008,0.0,2023,6,7,17,50,45,392
50.71470,-0.11882,-0.04357,0.00000,0.03001,0.97405,-0.18971,0.0,2023,6,7,17,50,45,402
50.71480,0.05618,-0.11357,0.00000,0.03111,0.97393,-0.19166,0.0,2023,6,7,17,50,45,412
50.71490,-0.24132,0.09642,0.00000,0.03221,0.97661,-0.18934,0.0,2023,6,7,17,50,45,422
50.71500,-0.01382,0.06142,0.00000,0.02928,0.97649,-0.18898,0.0,2023,6,7,17,50,45,432
50.71510,0.09118,-0.30607,0.00000,0.03221,0.97490,-0.18690,0.0,2023,6,7,17,50,45,442
50.71520,-0.20632,0.04392,0.00000,0.03026,0.97710,-0.18873,0.0,2023,6,7,17,50,45,452
50.71530,-0.10132,0.04392,0.00000,0.03184,0.97771,-0.19130,0.0,2023,6,7,17,50,45,462
50.71540,0.17868,0.02643,0.00000,0.03245,0.97698,-0.19227,0.0,2023,6,7,17,50,45,472
50.71550,-0.08382,0.02643,0.00000,0.03160,0.97600,-0.18873,0.0,2023,6,7,17,50,45,482
50.71560,-0.08382,-0.14858,0.00000,0.03196,0.97649,-0.18886,0.0,2023,6,7,17,50,45,492
50.71570,0.00368,0.06142,0.00000,0.02965,0.97710,-0.18947,0.0,2023,6,7,17,50,45,502
50.71580,-0.03132,-0.00857,0.00000,0.03245,0.97539,-0.19044,0.0,2023,6,7,17,50,45,512
50.71590,-0.20632,-0.04357,0.00000,0.03148,0.97929,-0.18959,0.0,2023,6,7,17,50,45,522
50.71600,-0.01382,0.11393,0.00000,0.02977,0.97673,-0.18983,0.0,2023,6,7,17,50,45,532
50.71610,0.09118,-0.09607,0.00000,0.03148,0.97527,-0.18983,0.0,2023,6,7,17,50,45,542
50.71620,-0.01382,-0.09607,0.00000,0.03087,0.97502,-0.18837,0.0,2023,6,7,17,50,45,552
50.71630,0.07368,-0.06107,0.00000,0.03148,0.97649,-0.18825,0.0,2023,6,7,17,50,45,562
50.71640,-0.08382,0.07892,0.00000,0.03184,0.97649,-0.18886,0.0,2023,6,7,17,50,45,572
50.71650,-0.24132,0.11393,0.00000,0.03087,0.97783,-0.18934,0.0,2023,6,7,17,50,45,582
50.71660,0.02118,-0.11357,0.00000,0.02952,0.97795,-0.18751,0.0,2023,6,7,17,50,45,592
50.71670,-0.04882,-0.00857,0.00000,0.03172,0.97624,-0.18886,0.0,2023,6,7,17,50,45,602
50.71680,-0.06632,-0.14858,0.00000,0.03160,0.97612,-0.18995,0.0,2023,6,7,17,50,45,612
50.71690,-0.11882,-0.00857,0.00000,0.03135,0.97600,-0.18959,0.0,2023,6,7,17,50,45,622
50.71700,0.02118,-0.07857,0.00000,0.02733,0.97685,-0.19020,0.0,2023,6,7,17,50,45,632
50.71710,0.05618,-0.04357,0.00000,0.03172,0.97612,-0.18873,0.0,2023,6,7,17,50,45,642
50.71720,-0.04882,0.06142,0.00000,0.03209,0.97649,-0.18727,0.0,2023,6,7,17,50,45,652
50.71730,-0.11882,-0.09607,0.00000,0.03038,0.97502,-0.19032,0.0,2023,6,7,17,50,45,662
50.71740,0.21368,-0.11357,0.00000,0.03148,0.97539,-0.19069,0.0,2023,6,7,17,50,45,672
50.71750,-0.01382,-0.02607,0.00000,0.02977,0.97405,-0.19044,0.0,2023,6,7,17,50,45,682
50.71760,-0.13632,0.16643,0.00000,0.03318,0.97966,-0.18983,0.0,2023,6,7,17,50,45,692
50.71770,-0.04882,0.20143,0.00000,0.03099,0.97515,-0.19069,0.0,2023,6,7,17,50,45,702
50.71780,0.05618,0.07892,0.00000,0.03123,0.97624,-0.19093,0.0,2023,6,7,17,50,45,712
50.71790,-0.15382,-0.09607,0.00000,0.03148,0.97527,-0.18995,0.0,2023,6,7,17,50,45,722
50.71800,-0.10132,0.00893,0.00000,0.03282,0.97502,-0.19093,0.0,2023,6,7,17,50,45,732
50.71810,0.05618,-0.02607,0.00000,0.03343,0.97624,-0.19093,0.0,2023,6,7,17,50,45,742
50.71820,0.17868,0.04392,0.00000,0.03160,0.97698,-0.18995,0.0,2023,6,7,17,50,45,752
50.71830,-0.15382,-0.02607,0.00000,0.03135,0.97710,-0.18825,0.0,2023,6,7,17,50,45,762
50.71840,-0.08382,0.13143,0.00000,0.03123,0.97527,-0.18886,0.0,2023,6,7,17,50,45,772
50.71850,0.09118,-0.13108,0.00000,0.02721,0.97624,-0.18947,0.0,2023,6,7,17,50,45,782
50.71860,-0.06632,-0.02607,0.00000,0.03148,0.97661,-0.19130,0.0,2023,6,7,17,50,45,792
50.71870,0.09118,-0.06107,0.00000,0.02940,0.97551,-0.18947,0.0,2023,6,7,17,50,45,802
50.71880,0.03868,-0.27107,0.00000,0.03379,0.97832,-0.19069,0.0,2023,6,7,17,50,45,812
50.71890,0.12618,0.06142,0.00000,0.02855,0.97563,-0.19008,0.0,2023,6,7,17,50,45,822
50.71900,0.03868,-0.13108,0.00000,0.03087,0.97710,-0.19154,0.0,2023,6,7,17,50,45,832
50.71910,-0.08382,0.04392,0.00000,0.03392,0.97624,-0.19020,0.0,2023,6,7,17,50,45,842
50.71920,-0.08382,-0.04357,0.00000,0.03111,0.97746,-0.18983,0.0,2023,6,7,17,50,45,852
50.71930,-0.08382,0.18393,0.00000,0.03294,0.97466,-0.19178,0.0,2023,6,7,17,50,45,862
50.71940,0.12618,-0.14858,0.00000,0.03172,0.97661,-0.18800,0.0,2023,6,7,17,50,45,872
50.71950,0.14368,0.02643,0.00000,0.03172,0.97746,-0.19069,0.0,2023,6,7,17,50,45,882
50.71960,0.07368,0.02643,0.00000,0.03148,0.97576,-0.18983,0.0,2023,6,7,17,50,45,892
50.71970,-0.15382,0.00893,0.00000,0.02940,0.97868,-0.18947,0.0,2023,6,7,17,50,46,2
50.71980,-0.06632,-0.02607,0.00000,0.03013,0.97551,-0.18873,0.0,2023,6,7,17,50,46,12
50.71990,0.05618,-0.11357,0.00000,0.03209,0.97478,-0.19008,0.0,2023,6,7,17,50,46,22
50.72000,0.05618,-0.13108,0.00000,0.02952,0.97661,-0.18898,0.0,2023,6,7,17,50,46,32
50.72010,0.02118,0.09642,0.00000,0.03196,0.97661,-0.18934,0.0,2023,6,7,17,50,46,42
50.72020,0.02118,0.02643,0.00000,0.03135,0.97466,-0.19093,0.0,2023,6,7,17,50,46,52
50.72030,0.02118,0.20143,0.00000,0.03087,0.97942,-0.18873,0.0,2023,6,7,17,50,46,62
50.72040,0.21368,-0.16608,0.00000,0.03013,0.97807,-0.18983,0.0,2023,6,7,17,50,46,72
50.72050,0.02118,0.00893,0.00000,0.02977,0.97698,-0.19008,0.0,2023,6,7,17,50,46,82
50.72060,0.03868,-0.13108,0.00000,0.03087,0.97502,-0.18849,0.0,2023,6,7,17,50,46,92
50.72070,0.12618,-0.18358,0.00000,0.03050,0.97515,-0.18959,0.0,2023,6,7,17,50,46,102
50.72080,0.02118,0.09642,0.00000,0.03282,0.97612,-0.18727,0.0,2023,6,7,17,50,46,112
50.72090,-0.13632,0.00893,0.00000,0.03306,0.97417,-0.18825,0.0,2023,6,7,17,50,46,122
50.72100,-0.08382,-0.14858,0.00000,0.03026,0.97698,-0.18861,0.0,2023,6,7,17,50,46,132
50.72110,0.19618,-0.20107,0.00000,0.03001,0.97710,-0.18971,0.0,2023,6,7,17,50,46,142
50.72120,-0.03132,-0.11357,0.00000,0.03087,0.97673,-0.18751,0.0,2023,6,7,17,50,46,152
50.72130,-0.01382,0.09642,0.00000,0.02965,0.97893,-0.18873,0.0,2023,6,7,17,50,46,162
50.72140,0.16118,-0.14858,0.00000,0.03172,0.97637,-0.18776,0.0,2023,6,7,17,50,46,172
50.72150,0.12618,0.13143,0.00000,0.03001,0.97807,-0.19032,0.0,2023,6,7,17,50,46,182
50.72160,0.07368,-0.00857,0.00000,0.03172,0.97612,-0.18825,0.0,2023,6,7,17,50,46,192
50.72170,-0.01382,0.00893,0.00000,0.03099,0.97624,-0.18568,0.0,2023,6,7,17,50,46,202
50.72180,0.00368,0.13143,0.00000,0.03331,0.97661,-0.18788,0.0,2023,6,7,17,50,46,212
50.72190,0.10868,-0.04357,0.00000,0.02952,0.97673,-0.19300,0.0,2023,6,7,17,50,46,222
50.72200,-0.06632,-0.00857,0.00000,0.02965,0.97441,-0.18776,0.0,2023,6,7,17,50,46,232
50.72210,-0.01382,-0.09607,0.00000,0.03172,0.97624,-0.18922,0.0,2023,6,7,17,50,46,242
50.72220,0.03868,-0.20107,0.00000,0.03026,0.97832,-0.18910,0.0,2023,6,7,17,50,46,252
50.72230,-0.06632,-0.02607,0.00000,0.03013,0.97795,-0.18934,0.0,2023,6,7,17,50,46,262
50.72240,0.19618,0.11393,0.00000,0.03196,0.97588,-0.18922,0.0,2023,6,7,17,50,46,272
50.72250,-0.08382,-0.00857,0.00000,0.03428,0.97624,-0.18727,0.0,2023,6,7,17,50,46,282
50.72260,0.03868,-0.06107,0.00000,0.03123,0.97563,-0.18678,0.0,2023,6,7,17,50,46,292
50.72270,0.24868,0.02643,0.00000,0.03111,0.97685,-0.18812,0.0,2023,6,7,17,50,46,302
50.72280,0.02118,-0.09607,0.00000,0.03026,0.97698,-0.18849,0.0,2023,6,7,17,50,46,312
50.72290,-0.18882,0.00893,0.00000,0.03148,0.97576,-0.18959,0.0,2023,6,7,17,50,46,322
50.72300,0.09118,-0.20107,0.00000,0.03184,0.97515,-0.18947,0.0,2023,6,7,17,50,46,332
50.72310,-0.04882,0.00893,0.00000,0.03245,0.97393,-0.18983,0.0,2023,6,7,17,50,46,342
50.72320,-0.24132,0.20143,0.00000,0.03026,0.97624,-0.18568,0.0,2023,6,7,17,50,46,352
50.72330,0.03868,0.16643,0.00000,0.03172,0.97881,-0.19105,0.0,2023,6,7,17,50,46,362
50.72340,-0.01382,-0.04357,0.00000,0.03038,0.97698,-0.19008,0.0,2023,6,7,17,50,46,372
50.72350,-0.11882,0.02643,0.00000,0.03038,0.97637,-0.18861,0.0,2023,6,7,17,50,46,382
50.72360,0.05618,0.07892,0.00000,0.03062,0.97673,-0.18715,0.0,2023,6,7,17,50,46,392
50.72370,0.00368,-0.09607,0.00000,0.03270,0.97905,-0.18947,0.0,2023,6,7,17,50,46,402
50.72380,-0.03132,0.06142,0.00000,0.03050,0.97820,-0.18690,0.0,2023,6,7,17,50,46,412
50.72390,0.17868,-0.23607,0.00000,0.03123,0.97624,-0.18654,0.0,2023,6,7,17,50,46,422
50.72400,0.16118,0.16643,0.00000,0.03209,0.97588,-0.18898,0.0,2023,6,7,17,50,46,432
50.72410,0.03868,-0.07857,0.00000,0.03257,0.97624,-0.18886,0.0,2023,6,7,17,50,46,442
50.72420,-0.03132,0.04392,0.00000,0.03038,0.97795,-0.18995,0.0,2023,6,7,17,50,46,452
50.72430,-0.15382,0.04392,0.00000,0.03123,0.97722,-0.18605,0.0,2023,6,7,17,50,46,462
50.72440,0.12618,0.06142,0.00000,0.03111,0.97771,-0.18556,0.0,2023,6,7,17,50,46,472
50.72450,0.02118,0.13143,0.00000,0.03111,0.97820,-0.18934,0.0,2023,6,7,17,50,46,482
50.72460,-0.03132,0.14893,0.00000,0.03184,0.97563,-0.19044,0.0,2023,6,7,17,50,46,492
50.72470,0.09118,0.11393,0.00000,0.03038,0.97746,-0.18751,0.0,2023,6,7,17,50,46,502
50.72480,-0.06632,-0.02607,0.00000,0.03148,0.97344,-0.18886,0.0,2023,6,7,17,50,46,512
50.72490,0.16118,-0.09607,0.00000,0.03001,0.97746,-0.18703,0.0,2023,6,7,17,50,46,522
50.72500,0.00368,-0.20107,0.00000,0.02928,0.97502,-0.18861,0.0,2023,6,7,17,50,46,532
50.72510,0.05618,-0.06107,0.00000,0.03074,0.97600,-0.19117,0.0,2023,6,7,17,50,46,542
50.72520,-0.01382,0.11393,0.00000,0.03172,0.97661,-0.18825,0.0,2023,6,7,17,50,46,552
50.72530,0.21368,0.07892,0.00000,0.03074,0.97673,-0.19056,0.0,2023,6,7,17,50,46,562
50.72540,0.07368,0.07892,0.00000,0.03074,0.97563,-0.19032,0.0,2023,6,7,17,50,46,572
50.72550,0.07368,0.07892,0.00000,0.03123,0.97600,-0.19056,0.0,2023,6,7,17,50,46,582
50.72560,-0.11882,-0.20107,0.00000,0.02928,0.97820,-0.19032,0.0,2023,6,7,17,50,46,592
50.72570,0.05618,-0.16608,0.00000,0.03074,0.97576,-0.19032,0.0,2023,6,7,17,50,46,602
50.72580,-0.13632,-0.06107,0.00000,0.03160,0.97783,-0.18910,0.0,2023,6,7,17,50,46,612
50.72590,-0.03132,0.14893,0.00000,0.03074,0.97759,-0.19020,0.0,2023,6,7,17,50,46,622
50.72600,0.17868,-0.02607,0.00000,0.03099,0.97661,-0.18800,0.0,2023,6,7,17,50,46,632
50.72610,-0.27632,0.07892,0.00000,0.02940,0.97649,-0.19166,0.0,2023,6,7,17,50,46,642
50.72620,0.00368,-0.18358,0.00000,0.03050,0.97563,-0.19166,0.0,2023,6,7,17,50,46,652
50.72630,0.12618,0.11393,0.00000,0.03135,0.97783,-0.18947,0.0,2023,6,7,17,50,46,662
50.72640,-0.04882,-0.04357,0.00000,0.03050,0.97673,-0.19008,0.0,2023,6,7,17,50,46,672
50.72650,-0.03132,0.06142,0.00000,0.03282,0.97502,-0.19008,0.0,2023,6,7,17,50,46,682
50.72660,0.05618,0.14893,0.00000,0.03111,0.97868,-0.18934,0.0,2023,6,7,17,50,46,692
50.72670,0.02118,-0.06107,0.00000,0.02916,0.97661,-0.19093,0.0,2023,6,7,17,50,46,702
50.72680,0.02118,0.13143,0.00000,0.03318,0.97490,-0.18727,0.0,2023,6,7,17,50,46,712
50.72690,-0.11882,-0.14858,0.00000,0.03196,0.97844,-0.19020,0.0,2023,6,7,17,50,46,722
50.72700,0.02118,-0.00857,0.00000,0.03135,0.97734,-0.19313,0.0,2023,6,7,17,50,46,732
50.72710,0.03868,-0.09607,0.00000,0.03087,0.97966,-0.18995,0.0,2023,6,7,17,50,46,742
50.72720,-0.08382,-0.13108,0.00000,0.03074,0.97746,-0.18922,0.0,2023,6,7,17,50,46,752
50.72730,-0.01382,-0.00857,0.00000,0.03160,0.97563,-0.18995,0.0,2023,6,7,17,50,46,762
50.72740,0.00368,0.06142,0.00000,0.02843,0.97771,-0.18825,0.0,2023,6,7,17,50,46,772
50.72750,0.07368,-0.07857,0.00000,0.03172,0.97685,-0.19044,0.0,2023,6,7,17,50,46,782
50.72760,-0.10132,0.02643,0.00000,0.03172,0.97771,-0.19069,0.0,2023,6,7,17,50,46,792
50.72770,-0.11882,0.02643,0.00000,0.02952,0.97539,-0.19081,0.0,2023,6,7,17,50,46,802
50.72780,-0.01382,0.07892,0.00000,0.03074,0.97759,-0.19264,0.0,2023,6,7,17,50,46,812
50.72790,0.03868,-0.11357,0.00000,0.03099,0.97807,-0.19178,0.0,2023,6,7,17,50,46,822
50.72800,-0.01382,-0.09607,0.00000,0.03184,0.97551,-0.18934,0.0,2023,6,7,17,50,46,832
50.72810,-0.04882,0.04392,0.00000,0.03184,0.97698,-0.18947,0.0,2023,6,7,17,50,46,842
50.72820,-0.04882,-0.06107,0.00000,0.03184,0.97771,-0.18971,0.0,2023,6,7,17,50,46,852
50.72830,0.02118,-0.11357,0.00000,0.03245,0.97807,-0.18861,0.0,2023,6,7,17,50,46,862
50.72840,-0.06632,-0.09607,0.00000,0.02855,0.97576,-0.18788,0.0,2023,6,7,17,50,46,872
50.72850,-0.10132,-0.09607,0.00000,0.03099,0.97820,-0.18715,0.0,2023,6,7,17,50,46,882
50.72860,0.10868,0.06142,0.00000,0.03160,0.97600,-0.18886,0.0,2023,6,7,17,50,46,892
50.72870,0.05618,0.02643,0.00000,0.03282,0.97600,-0.19008,0.0,2023,6,7,17,50,46,902
50.72880,0.07368,0.07892,0.00000,0.03196,0.97539,-0.18812,0.0,2023,6,7,17,50,47,2
50.72890,0.10868,0.13143,0.00000,0.03209,0.97746,-0.18776,0.0,2023,6,7,17,50,47,12
50.72900,-0.06632,-0.16608,0.00000,0.02952,0.97515,-0.18849,0.0,2023,6,7,17,50,47,22
50.72910,-0.03132,0.11393,0.00000,0.03099,0.97624,-0.18934,0.0,2023,6,7,17,50,47,32
50.72920,-0.10132,0.02643,0.00000,0.03184,0.97380,-0.18666,0.0,2023,6,7,17,50,47,42
50.72930,-0.13632,-0.11357,0.00000,0.03099,0.97441,-0.18886,0.0,2023,6,7,17,50,47,52
50.72940,-0.06632,0.14893,0.00000,0.03050,0.97539,-0.18947,0.0,2023,6,7,17,50,47,62
50.72950,0.05618,-0.07857,0.00000,0.03184,0.97710,-0.18825,0.0,2023,6,7,17,50,47,72
50.72960,-0.18882,-0.00857,0.00000,0.03160,0.97734,-0.18910,0.0,2023,6,7,17,50,47,82
50.72970,-0.03132,-0.13108,0.00000,0.03172,0.97502,-0.18703,0.0,2023,6,7,17,50,47,92
50.72980,-0.06632,0.02643,0.00000,0.03013,0.97649,-0.18861,0.0,2023,6,7,17,50,47,102
50.72990,-0.03132,0.09642,0.00000,0.03270,0.97490,-0.18959,0.0,2023,6,7,17,50,47,112
50.73000,-0.03132,-0.04357,0.00000,0.03172,0.97612,-0.18849,0.0,2023,6,7,17,50,47,122
50.73010,-0.04882,0.14893,0.00000,0.03111,0.97576,-0.18776,0.0,2023,6,7,17,50,47,132
50.73020,0.07368,-0.02607,0.00000,0.03233,0.97673,-0.18861,0.0,2023,6,7,17,50,47,142
50.73030,0.16118,0.04392,0.00000,0.02977,0.97771,-0.19142,0.0,2023,6,7,17,50,47,152
50.73040,0.12618,0.30642,0.00000,0.03123,0.97624,-0.18764,0.0,2023,6,7,17,50,47,162
50.73050,0.09118,-0.21857,0.00000,0.03087,0.97673,-0.18825,0.0,2023,6,7,17,50,47,172
50.73060,-0.10132,0.11393,0.00000,0.03123,0.97502,-0.18654,0.0,2023,6,7,17,50,47,182
50.73070,0.14368,-0.16608,0.00000,0.03245,0.97783,-0.19105,0.0,2023,6,7,17,50,47,192
50.73080,-0.06632,-0.00857,0.00000,0.03294,0.97490,-0.19154,0.0,2023,6,7,17,50,47,202
50.73090,-0.01382,-0.00857,0.00000,0.03123,0.97673,-0.18678,0.0,2023,6,7,17,50,47,212
50.73100,-0.10132,-0.14858,0.00000,0.02940,0.97649,-0.18837,0.0,2023,6,7,17,50,47,222
50.73110,-0.22382,0.23643,0.00000,0.03026,0.97734,-0.18995,0.0,2023,6,7,17,50,47,232
50.73120,0.07368,-0.11357,0.00000,0.03038,0.97661,-0.18678,0.0,2023,6,7,17,50,47,242
50.73130,-0.04882,-0.06107,0.00000,0.03196,0.97673,-0.18678,0.0,2023,6,7,17,50,47,252
50.73140,-0.11882,0.11393,0.00000,0.03123,0.97429,-0.18812,0.0,2023,6,7,17,50,47,262
50.73150,-0.08382,-0.11357,0.00000,0.03099,0.97746,-0.18617,0.0,2023,6,7,17,50,47,272
50.73160,-0.04882,-0.02607,0.00000,0.03282,0.97576,-0.18922,0.0,2023,6,7,17,50,47,282
50.73170,0.21368,-0.07857,0.00000,0.03050,0.97490,-0.18849,0.0,2023,6,7,17,50,47,292
50.73180,-0.04882,0.14893,0.00000,0.03306,0.97673,-0.18800,0.0,2023,6,7,17,50,47,302
50.73190,0.09118,-0.06107,0.00000,0.03160,0.97478,-0.18764,0.0,2023,6,7,17,50,47,312
50.73200,-0.01382,-0.00857,0.00000,0.02977,0.97771,-0.18971,0.0,2023,6,7,17,50,47,322
50.73210,-0.11882,0.07892,0.00000,0.02989,0.97502,-0.18873,0.0,2023,6,7,17,50,47,332
50.73220,0.10868,-0.02607,0.00000,0.03209,0.97600,-0.18898,0.0,2023,6,7,17,50,47,342
50.73230,-0.06632,0.18393,0.00000,0.03050,0.97698,-0.18654,0.0,2023,6,7,17,50,47,352
50.73240,-0.10132,0.06142,0.00000,0.03221,0.97600,-0.18751,0.0,2023,6,7,17,50,47,362
50.73250,0.07368,-0.02607,0.00000,0.03050,0.97722,-0.18922,0.0,2023,6,7,17,50,47,372
50.73260,0.12618,-0.00857,0.00000,0.03209,0.97746,-0.18764,0.0,2023,6,7,17,50,47,382
50.73270,-0.01382,0.07892,0.00000,0.03209,0.97502,-0.18910,0.0,2023,6,7,17,50,47,392
50.73280,0.00368,0.07892,0.00000,0.03184,0.97942,-0.18837,0.0,2023,6,7,17,50,47,402
50.73290,-0.06632,0.18393,0.00000,0.03209,0.97783,-0.18678,0.0,2023,6,7,17,50,47,412
50.73300,0.07368,-0.09607,0.00000,0.03062,0.97624,-0.19020,0.0,2023,6,7,17,50,47,422
50.73310,-0.01382,-0.02607,0.00000,0.03367,0.97515,-0.18861,0.0,2023,6,7,17,50,47,432
50.73320,-0.06632,0.02643,0.00000,0.03099,0.97478,-0.18910,0.0,2023,6,7,17,50,47,442
50.73330,0.16118,0.09642,0.00000,0.03221,0.97502,-0.18788,0.0,2023,6,7,17,50,47,452
50.73340,0.17868,-0.07857,0.00000,0.03087,0.97612,-0.18849,0.0,2023,6,7,17,50,47,462
50.73350,-0.11882,0.16643,0.00000,0.03123,0.97527,-0.19069,0.0,2023,6,7,17,50,47,472
50.73360,-0.06632,-0.06107,0.00000,0.03160,0.97441,-0.18544,0.0,2023,6,7,17,50,47,482
50.73370,0.16118,0.00893,0.00000,0.03306,0.97685,-0.18556,0.0,2023,6,7,17,50,47,492
50.73380,-0.11882,0.14893,0.00000,0.02989,0.97759,-0.18825,0.0,2023,6,7,17,50,47,502
50.73390,-0.08382,-0.11357,0.00000,0.03367,0.97612,-0.18751,0.0,2023,6,7,17,50,47,512
50.73400,-0.01382,0.02643,0.00000,0.02965,0.97478,-0.18788,0.0,2023,6,7,17,50,47,522
50.73410,-0.11882,0.16643,0.00000,0.03050,0.97515,-0.18715,0.0,2023,6,7,17,50,47,532
50.73420,0.14368,-0.09607,0.00000,0.03318,0.97673,-0.18666,0.0,2023,6,7,17,50,47,542
50.73430,0.02118,-0.09607,0.00000,0.03233,0.97795,-0.18739,0.0,2023,6,7,17,50,47,552
50.73440,-0.10132,0.06142,0.00000,0.03099,0.97746,-0.19056,0.0,2023,6,7,17,50,47,562
50.73450,-0.08382,0.16643,0.00000,0.02891,0.97393,-0.18898,0.0,2023,6,7,17,50,47,572
50.73460,-0.13632,0.13143,0.00000,0.02940,0.97649,-0.18825,0.0,2023,6,7,17,50,47,582
50.73470,0.31868,-0.21857,0.00000,0.03087,0.97746,-0.18825,0.0,2023,6,7,17,50,47,592
50.73480,0.10868,0.04392,0.00000,0.03099,0.97661,-0.18995,0.0,2023,6,7,17,50,47,602
50.73490,-0.01382,0.11393,0.00000,0.02965,0.97551,-0.18776,0.0,2023,6,7,17,50,47,612
50.73500,-0.15382,-0.13108,0.00000,0.03318,0.97576,-0.18886,0.0,2023,6,7,17,50,47,622
50.73510,0.03868,-0.00857,0.00000,0.03111,0.97612,-0.19130,0.0,2023,6,7,17,50,47,632
50.73520,-0.08382,0.14893,0.00000,0.03013,0.97807,-0.18764,0.0,2023,6,7,17,50,47,642
50.73530,0.31868,0.00893,0.00000,0.03062,0.97576,-0.18971,0.0,2023,6,7,17,50,47,652
50.73540,0.19618,-0.14858,0.00000,0.02928,0.97783,-0.18849,0.0,2023,6,7,17,50,47,662
50.73550,0.03868,0.02643,0.00000,0.03209,0.97649,-0.18898,0.0,2023,6,7,17,50,47,672
50.73560,-0.13632,-0.20107,0.00000,0.03270,0.97685,-0.19215,0.0,2023,6,7,17,50,47,682
50.73570,-0.15382,0.11393,0.00000,0.02977,0.97612,-0.19008,0.0,2023,6,7,17,50,47,692
50.73580,0.10868,0.04392,0.00000,0.03026,0.97551,-0.18934,0.0,2023,6,7,17,50,47,702
50.73590,-0.15382,0.06142,0.00000,0.03160,0.97441,-0.18947,0.0,2023,6,7,17,50,47,712
50.73600,-0.20632,0.30642,0.00000,0.03172,0.97332,-0.18995,0.0,2023,6,7,17,50,47,722
50.73610,0.19618,-0.09607,0.00000,0.03123,0.97685,-0.19056,0.0,2023,6,7,17,50,47,732
50.73620,0.02118,0.16643,0.00000,0.03477,0.97637,-0.18861,0.0,2023,6,7,17,50,47,742
50.73630,0.03868,0.11393,0.00000,0.03001,0.97710,-0.18849,0.0,2023,6,7,17,50,47,752
50.73640,-0.11882,0.00893,0.00000,0.03026,0.97624,-0.18483,0.0,2023,6,7,17,50,47,762
50.73650,-0.10132,0.14893,0.00000,0.03306,0.97710,-0.18678,0.0,2023,6,7,17,50,47,772
50.73660,0.05618,0.00893,0.00000,0.03209,0.97783,-0.18922,0.0,2023,6,7,17,50,47,782
50.73670,0.10868,-0.18358,0.00000,0.02977,0.97661,-0.19081,0.0,2023,6,7,17,50,47,792
50.73680,-0.06632,0.14893,0.00000,0.03135,0.97771,-0.18690,0.0,2023,6,7,17,50,47,802
50.73690,0.09118,0.02643,0.00000,0.02940,0.97734,-0.18873,0.0,2023,6,7,17,50,47,812
50.73700,0.07368,0.02643,0.00000,0.03270,0.97637,-0.18678,0.0,2023,6,7,17,50,47,822
50.73710,0.10868,-0.18358,0.00000,0.03184,0.97600,-0.18703,0.0,2023,6,7,17,50,47,832
50.73720,0.09118,0.04392,0.00000,0.03099,0.97588,-0.19130,0.0,2023,6,7,17,50,47,842
50.73730,-0.01382,0.20143,0.00000,0.03221,0.97417,-0.18934,0.0,2023,6,7,17,50,47,852
50.73740,-0.06632,-0.00857,0.00000,0.03001,0.97600,-0.18959,0.0,2023,6,7,17,50,47,862
50.73750,0.16118,-0.11357,0.00000,0.02965,0.97771,-0.19056,0.0,2023,6,7,17,50,47,872
50.73760,-0.01382,0.02643,0.00000,0.03282,0.97454,-0.18800,0.0,2023,6,7,17,50,47,882
50.73770,-0.17132,0.07892,0.00000,0.03392,0.97417,-0.18873,0.0,2023,6,7,17,50,47,892
50.73780,-0.08382,-0.04357,0.00000,0.03355,0.97576,-0.18898,0.0,2023,6,7,17,50,47,902
50.73790,0.17868,0.06142,0.00000,0.03087,0.97771,-0.18995,0.0,2023,6,7,17,50,48,2
50.73800,0.14368,0.02643,0.00000,0.02977,0.97637,-0.18995,0.0,2023,6,7,17,50,48,12
50.73810,0.00368,0.11393,0.00000,0.03099,0.97698,-0.18934,0.0,2023,6,7,17,50,48,22
50.73820,0.09118,-0.04357,0.00000,0.02989,0.97685,-0.18812,0.0,2023,6,7,17,50,48,32
50.73830,0.14368,0.04392,0.00000,0.03172,0.97820,-0.19081,0.0,2023,6,7,17,50,48,42
50.73840,0.12618,0.09642,0.00000,0.03074,0.97490,-0.18898,0.0,2023,6,7,17,50,48,52
50.73850,-0.06632,0.07892,0.00000,0.02879,0.97502,-0.18678,0.0,2023,6,7,17,50,48,62
50.73860,0.02118,-0.11357,0.00000,0.03221,0.97478,-0.18873,0.0,2023,6,7,17,50,48,72
50.73870,0.02118,-0.00857,0.00000,0.03062,0.97344,-0.19056,0.0,2023,6,7,17,50,48,82
50.73880,-0.13632,0.00893,0.00000,0.03050,0.97637,-0.19020,0.0,2023,6,7,17,50,48,92
50.73890,0.05618,0.21893,0.00000,0.02843,0.97405,-0.19008,0.0,2023,6,7,17,50,48,102
50.73900,-0.03132,0.18393,0.00000,0.03318,0.97844,-0.18886,0.0,2023,6,7,17,50,48,112
50.73910,-0.10132,0.21893,0.00000,0.03062,0.97722,-0.18727,0.0,2023,6,7,17,50,48,122
50.73920,0.07368,0.00893,0.00000,0.03062,0.97576,-0.18873,0.0,2023,6,7,17,50,48,132
50.73930,-0.31132,0.18393,0.00000,0.03257,0.97832,-0.18654,0.0,2023,6,7,17,50,48,142
50.73940,0.14368,-0.30607,0.00000,0.03160,0.97759,-0.18825,0.0,2023,6,7,17,50,48,152
50.73950,0.26618,-0.00857,0.00000,0.02818,0.97685,-0.19008,0.0,2023,6,7,17,50,48,162
50.73960,-0.06632,-0.04357,0.00000,0.02952,0.97624,-0.18812,0.0,2023,6,7,17,50,48,172
50.73970,0.09118,0.11393,0.00000,0.03087,0.97356,-0.18861,0.0,2023,6,7,17,50,48,182
50.73980,-0.06632,0.06142,0.00000,0.03392,0.97649,-0.18690,0.0,2023,6,7,17,50,48,192
50.73990,-0.04882,-0.23607,0.00000,0.03050,0.97844,-0.18861,0.0,2023,6,7,17,50,48,202
50.74000,0.05618,0.06142,0.00000,0.03087,0.97673,-0.18727,0.0,2023,6,7,17,50,48,212
50.74010,-0.13632,-0.07857,0.00000,0.03038,0.97551,-0.18812,0.0,2023,6,7,17,50,48,222
50.74020,0.00368,-0.04357,0.00000,0.03184,0.97734,-0.18788,0.0,2023,6,7,17,50,48,232
50.74030,-0.01382,-0.07857,0.00000,0.03148,0.97637,-0.18849,0.0,2023,6,7,17,50,48,242
50.74040,0.00368,0.14893,0.00000,0.03160,0.97661,-0.18886,0.0,2023,6,7,17,50,48,252
50.74050,0.03868,-0.00857,0.00000,0.03062,0.97563,-0.18971,0.0,2023,6,7,17,50,48,262
50.74060,0.07368,0.04392,0.00000,0.03099,0.97881,-0.18995,0.0,2023,6,7,17,50,48,272
50.74070,0.05618,0.04392,0.00000,0.02977,0.97563,-0.18825,0.0,2023,6,7,17,50,48,282
50.74080,-0.22382,0.23643,0.00000,0.02928,0.97856,-0.18947,0.0,2023,6,7,17,50,48,292
50.74090,0.10868,-0.11357,0.00000,0.03209,0.97551,-0.18995,0.0,2023,6,7,17,50,48,302
50.74100,-0.03132,-0.00857,0.00000,0.03001,0.97624,-0.18727,0.0,2023,6,7,17,50,48,312
50.74110,0.14368,-0.07857,0.00000,0.03038,0.97942,-0.18934,0.0,2023,6,7,17,50,48,322
50.74120,0.05618,-0.06107,0.00000,0.03233,0.97563,-0.18715,0.0,2023,6,7,17,50,48,332
50.74130,-0.06632,-0.00857,0.00000,0.03245,0.97722,-0.18703,0.0,2023,6,7,17,50,48,342
50.74140,-0.18882,0.04392,0.00000,0.03233,0.97527,-0.18849,0.0,2023,6,7,17,50,48,352
50.74150,0.02118,0.11393,0.00000,0.03099,0.97698,-0.18837,0.0,2023,6,7,17,50,48,362
50.74160,-0.11882,0.06142,0.00000,0.03013,0.97685,-0.18825,0.0,2023,6,7,17,50,48,372
50.74170,-0.18882,0.04392,0.00000,0.03221,0.97795,-0.18873,0.0,2023,6,7,17,50,48,382
50.74180,0.07368,0.02643,0.00000,0.03099,0.97893,-0.19044,0.0,2023,6,7,17,50,48,392
50.74190,0.02118,0.02643,0.00000,0.03038,0.97527,-0.18825,0.0,2023,6,7,17,50,48,402
50.74200,-0.06632,0.25392,0.00000,0.02952,0.97649,-0.18690,0.0,2023,6,7,17,50,48,412
50.74210,-0.06632,-0.02607,0.00000,0.02977,0.97685,-0.18666,0.0,2023,6,7,17,50,48,422
50.74220,0.07368,-0.11357,0.00000,0.03221,0.97661,-0.18959,0.0,2023,6,7,17,50,48,432
50.74230,-0.06632,0.07892,0.00000,0.03074,0.97441,-0.18959,0.0,2023,6,7,17,50,48,442
50.74240,-0.03132,0.07892,0.00000,0.03257,0.97771,-0.18861,0.0,2023,6,7,17,50,48,452
50.74250,0.02118,-0.09607,0.00000,0.03172,0.97612,-0.18739,0.0,2023,6,7,17,50,48,462
50.74260,-0.11882,-0.07857,0.00000,0.03062,0.97637,-0.18617,0.0,2023,6,7,17,50,48,472
50.74270,-0.06632,0.07892,0.00000,0.02989,0.97637,-0.18959,0.0,2023,6,7,17,50,48,482
50.74280,-0.06632,0.04392,0.00000,0.03184,0.97527,-0.18715,0.0,2023,6,7,17,50,48,492
50.74290,0.03868,-0.06107,0.00000,0.03148,0.97771,-0.18837,0.0,2023,6,7,17,50,48,502
50.74300,0.05618,-0.02607,0.00000,0.03257,0.97490,-0.18581,0.0,2023,6,7,17,50,48,512
50.74310,-0.08382,-0.00857,0.00000,0.03282,0.97454,-0.18507,0.0,2023,6,7,17,50,48,522
50.74320,0.00368,0.13143,0.00000,0.03099,0.97478,-0.18812,0.0,2023,6,7,17,50,48,532
50.74330,0.03868,-0.02607,0.00000,0.03087,0.97856,-0.18873,0.0,2023,6,7,17,50,48,542
50.74340,-0.03132,0.00893,0.00000,0.03013,0.97380,-0.18934,0.0,2023,6,7,17,50,48,552
50.74350,0.00368,0.13143,0.00000,0.03172,0.97454,-0.18727,0.0,2023,6,7,17,50,48,562
50.74360,-0.04882,0.14893,0.00000,0.03135,0.97698,-0.18715,0.0,2023,6,7,17,50,48,572
50.74370,-0.20632,0.13143,0.00000,0.03245,0.97734,-0.18898,0.0,2023,6,7,17,50,48,582
50.74380,-0.01382,-0.18358,0.00000,0.03148,0.97881,-0.19020,0.0,2023,6,7,17,50,48,592
50.74390,0.05618,-0.04357,0.00000,0.03087,0.97746,-0.18764,0.0,2023,6,7,17,50,48,602
50.74400,-0.15382,0.16643,0.00000,0.03099,0.97588,-0.18666,0.0,2023,6,7,17,50,48,612
50.74410,-0.01382,0.13143,0.00000,0.03282,0.97624,-0.18532,0.0,2023,6,7,17,50,48,622
50.74420,0.09118,0.07892,0.00000,0.03050,0.97551,-0.18825,0.0,2023,6,7,17,50,48,632
50.74430,0.26618,0.11393,0.00000,0.03099,0.97649,-0.19117,0.0,2023,6,7,17,50,48,642
50.74440,-0.01382,-0.09607,0.00000,0.03111,0.97612,-0.18825,0.0,2023,6,7,17,50,48,652
50.74450,-0.13632,-0.11357,0.00000,0.03062,0.97698,-0.18666,0.0,2023,6,7,17,50,48,662
50.74460,0.03868,-0.14858,0.00000,0.03123,0.97588,-0.18800,0.0,2023,6,7,17,50,48,672
50.74470,-0.08382,0.07892,0.00000,0.03074,0.97478,-0.18715,0.0,2023,6,7,17,50,48,682
50.74480,-0.22382,-0.00857,0.00000,0.03087,0.97588,-0.18886,0.0,2023,6,7,17,50,48,692
50.74490,0.02118,-0.16608,0.00000,0.03306,0.97380,-0.19069,0.0,2023,6,7,17,50,48,702
50.74500,-0.01382,-0.04357,0.00000,0.03318,0.97515,-0.18727,0.0,2023,6,7,17,50,48,712
50.74510,0.00368,-0.02607,0.00000,0.03050,0.97685,-0.18727,0.0,2023,6,7,17,50,48,722
50.74520,0.02118,-0.04357,0.00000,0.03172,0.97502,-0.18995,0.0,2023,6,7,17,50,48,732
50.74530,-0.04882,0.18393,0.00000,0.02952,0.97454,-0.18971,0.0,2023,6,7,17,50,48,742
50.74540,0.02118,0.07892,0.00000,0.03062,0.97478,-0.19069,0.0,2023,6,7,17,50,48,752
50.74550,-0.15382,0.07892,0.00000,0.03184,0.97710,-0.18837,0.0,2023,6,7,17,50,48,762
50.74560,-0.08382,-0.04357,0.00000,0.03013,0.97820,-0.18581,0.0,2023,6,7,17,50,48,772
50.74570,-0.10132,0.09642,0.00000,0.03306,0.97820,-0.18556,0.0,2023,6,7,17,50,48,782
50.74580,0.10868,0.04392,0.00000,0.02904,0.97722,-0.18800,0.0,2023,6,7,17,50,48,792
50.74590,-0.03132,-0.07857,0.00000,0.03196,0.97685,-0.18812,0.0,2023,6,7,17,50,48,802
50.74600,0.07368,0.04392,0.00000,0.03111,0.97771,-0.18751,0.0,2023,6,7,17,50,48,812
50.74610,0.03868,0.09642,0.00000,0.03306,0.97820,-0.18873,0.0,2023,6,7,17,50,48,822
50.74620,0.00368,0.02643,0.00000,0.03074,0.97698,-0.18642,0.0,2023,6,7,17,50,48,832
50.74630,-0.01382,-0.00857,0.00000,0.02977,0.97661,-0.19227,0.0,2023,6,7,17,50,48,842
50.74640,-0.04882,0.11393,0.00000,0.02989,0.97454,-0.18886,0.0,2023,6,7,17,50,48,852
50.74650,-0.18882,0.09642,0.00000,0.03026,0.97917,-0.18776,0.0,2023,6,7,17,50,48,862
50.74660,-0.10132,0.00893,0.00000,0.03331,0.97710,-0.18727,0.0,2023,6,7,17,50,48,872
50.74670,-0.11882,0.02643,0.00000,0.03257,0.97466,-0.18532,0.0,2023,6,7,17,50,48,882
50.74680,0.02118,0.06142,0.00000,0.03062,0.97734,-0.18861,0.0,2023,6,7,17,50,49,2
50.74690,-0.06632,0.13143,0.00000,0.03074,0.97588,-0.18654,0.0,2023,6,7,17,50,49,12
50.74700,0.07368,0.13143,0.00000,0.03257,0.97393,-0.18605,0.0,2023,6,7,17,50,49,22
50.74710,0.07368,0.20143,0.00000,0.03172,0.97563,-0.18751,0.0,2023,6,7,17,50,49,32
50.74720,0.07368,0.02643,0.00000,0.03245,0.97490,-0.18654,0.0,2023,6,7,17,50,49,42
50.74730,0.17868,-0.00857,0.00000,0.03123,0.97771,-0.18861,0.0,2023,6,7,17,50,49,52
50.74740,-0.03132,0.04392,0.00000,0.02965,0.97710,-0.19008,0.0,2023,6,7,17,50,49,62
50.74750,-0.15382,0.04392,0.00000,0.03038,0.97698,-0.18983,0.0,2023,6,7,17,50,49,72
50.74760,-0.06632,-0.18358,0.00000,0.03123,0.97515,-0.18947,0.0,2023,6,7,17,50,49,82
50.74770,-0.17132,0.13143,0.00000,0.03245,0.97759,-0.18825,0.0,2023,6,7,17,50,49,92
50.74780,-0.08382,-0.07857,0.00000,0.03074,0.97612,-0.18873,0.0,2023,6,7,17,50,49,102
50.74790,0.02118,-0.02607,0.00000,0.03184,0.97685,-0.18837,0.0,2023,6,7,17,50,49,112
50.74800,-0.25882,-0.11357,0.00000,0.03184,0.97502,-0.18654,0.0,2023,6,7,17,50,49,122
50.74810,-0.24132,0.11393,0.00000,0.03135,0.97490,-0.18605,0.0,2023,6,7,17,50,49,132
50.74820,-0.08382,-0.02607,0.00000,0.03270,0.97832,-0.18764,0.0,2023,6,7,17,50,49,142
50.74830,-0.13632,0.02643,0.00000,0.03062,0.97771,-0.18629,0.0,2023,6,7,17,50,49,152
50.74840,-0.01382,0.23643,0.00000,0.03062,0.97637,-0.19117,0.0,2023,6,7,17,50,49,162
50.74850,0.03868,0.04392,0.00000,0.03172,0.97539,-0.18947,0.0,2023,6,7,17,50,49,172
50.74860,0.00368,0.14893,0.00000,0.03233,0.97624,-0.18678,0.0,2023,6,7,17,50,49,182
50.74870,-0.01382,0.11393,0.00000,0.03013,0.97527,-0.18971,0.0,2023,6,7,17,50,49,192
50.74880,0.28368,0.09642,0.00000,0.02989,0.97795,-0.18910,0.0,2023,6,7,17,50,49,202
50.74890,-0.13632,0.06142,0.00000,0.03160,0.97771,-0.18629,0.0,2023,6,7,17,50,49,212
50.74900,-0.04882,-0.00857,0.00000,0.03111,0.97600,-0.18861,0.0,2023,6,7,17,50,49,222
50.74910,0.00368,0.02643,0.00000,0.03160,0.97637,-0.18751,0.0,2023,6,7,17,50,49,232
50.74920,-0.01382,-0.07857,0.00000,0.03184,0.97661,-0.18642,0.0,2023,6,7,17,50,49,242
50.74930,-0.04882,-0.00857,0.00000,0.03038,0.97576,-0.18788,0.0,2023,6,7,17,50,49,252
50.74940,0.14368,0.00893,0.00000,0.03099,0.97600,-0.19081,0.0,2023,6,7,17,50,49,262
50.74950,0.03868,0.04392,0.00000,0.03318,0.97710,-0.18751,0.0,2023,6,7,17,50,49,272
50.74960,-0.03132,-0.14858,0.00000,0.02989,0.97624,-0.18727,0.0,2023,6,7,17,50,49,282
50.74970,0.10868,0.00893,0.00000,0.03111,0.97698,-0.18861,0.0,2023,6,7,17,50,49,292
50.74980,-0.01382,-0.07857,0.00000,0.02977,0.97698,-0.18605,0.0,2023,6,7,17,50,49,302
50.74990,-0.11882,0.02643,0.00000,0.02977,0.97502,-0.18751,0.0,2023,6,7,17,50,49,312
50.75000,-0.04882,-0.00857,0.00000,0.03233,0.97490,-0.18983,0.0,2023,6,7,17,50,49,322
50.75010,-0.15382,0.06142,0.00000,0.02891,0.97551,-0.18910,0.0,2023,6,7,17,50,49,332
50.75020,-0.03132,0.13143,0.00000,0.03148,0.97734,-0.19032,0.0,2023,6,7,17,50,49,342
50.75030,0.02118,0.16643,0.00000,0.03257,0.97783,-0.18910,0.0,2023,6,7,17,50,49,352
50.75040,0.09118,-0.02607,0.00000,0.03209,0.97759,-0.18873,0.0,2023,6,7,17,50,49,362
50.75050,-0.04882,-0.27107,0.00000,0.03087,0.97600,-0.19020,0.0,2023,6,7,17,50,49,372
50.75060,0.14368,-0.07857,0.00000,0.03062,0.97441,-0.18825,0.0,2023,6,7,17,50,49,382
50.75070,-0.06632,0.00893,0.00000,0.03099,0.97368,-0.18825,0.0,2023,6,7,17,50,49,392
50.75080,0.09118,-0.07857,0.00000,0.03026,0.97759,-0.18617,0.0,2023,6,7,17,50,49,402
50.75090,-0.18882,0.00893,0.00000,0.03184,0.97795,-0.18812,0.0,2023,6,7,17,50,49,412
50.75100,0.05618,-0.18358,0.00000,0.03087,0.97710,-0.18861,0.0,2023,6,7,17,50,49,422
50.75110,0.05618,0.02643,0.00000,0.03062,0.97746,-0.18739,0.0,2023,6,7,17,50,49,432
50.75120,0.09118,-0.11357,0.00000,0.03270,0.97527,-0.18812,0.0,2023,6,7,17,50,49,442
50.75130,-0.15382,-0.00857,0.00000,0.03123,0.97527,-0.19008,0.0,2023,6,7,17,50,49,452
50.75140,-0.11882,-0.02607,0.00000,0.03111,0.97917,-0.18825,0.0,2023,6,7,17,50,49,462
50.75150,-0.08382,0.06142,0.00000,0.03001,0.97820,-0.18873,0.0,2023,6,7,17,50,49,472
50.75160,0.10868,-0.18358,0.00000,0.02904,0.97942,-0.19008,0.0,2023,6,7,17,50,49,482
50.75170,0.23118,0.04392,0.00000,0.02757,0.97746,-0.19215,0.0,2023,6,7,17,50,49,492
50.75180,-0.04882,0.09642,0.00000,0.03221,0.97844,-0.18959,0.0,2023,6,7,17,50,49,502
50.75190,-0.04882,0.09642,0.00000,0.03221,0.97734,-0.18983,0.0,2023,6,7,17,50,49,512
50.75200,0.00368,0.00893,0.00000,0.03172,0.97746,-0.18910,0.0,2023,6,7,17,50,49,522
50.75210,-0.01382,-0.04357,0.00000,0.02977,0.97832,-0.19105,0.0,2023,6,7,17,50,49,532
50.75220,0.05618,-0.09607,0.00000,0.03013,0.97685,-0.18971,0.0,2023,6,7,17,50,49,542
50.75230,-0.03132,-0.11357,0.00000,0.03184,0.97563,-0.18898,0.0,2023,6,7,17,50,49,552
50.75240,0.03868,0.13143,0.00000,0.03013,0.97734,-0.18873,0.0,2023,6,7,17,50,49,562
50.75250,-0.13632,0.20143,0.00000,0.03087,0.97795,-0.19008,0.0,2023,6,7,17,50,49,572
50.75260,0.07368,0.02643,0.00000,0.03331,0.97893,-0.18995,0.0,2023,6,7,17,50,49,582
50.75270,0.02118,-0.00857,0.00000,0.03245,0.97673,-0.18947,0.0,2023,6,7,17,50,49,592
50.75280,0.05618,0.18393,0.00000,0.03209,0.97710,-0.19020,0.0,2023,6,7,17,50,49,602
50.75290,0.00368,0.20143,0.00000,0.02891,0.97673,-0.18776,0.0,2023,6,7,17,50,49,612
50.75300,-0.03132,0.13143,0.00000,0.02977,0.97624,-0.19032,0.0,2023,6,7,17,50,49,622
50.75310,-0.04882,-0.00857,0.00000,0.03257,0.97832,-0.19447,0.0,2023,6,7,17,50,49,632
50.75320,0.00368,0.07892,0.00000,0.03123,0.97551,-0.18727,0.0,2023,6,7,17,50,49,642
50.75330,-0.20632,0.09642,0.00000,0.03160,0.97722,-0.18910,0.0,2023,6,7,17,50,49,652
50.75340,0.09118,0.04392,0.00000,0.03221,0.97576,-0.18934,0.0,2023,6,7,17,50,49,662
50.75350,0.03868,-0.00857,0.00000,0.03135,0.97673,-0.19093,0.0,2023,6,7,17,50,49,672
50.75360,0.00368,0.00893,0.00000,0.03050,0.97722,-0.18971,0.0,2023,6,7,17,50,49,682
50.75370,-0.03132,0.14893,0.00000,0.03111,0.97612,-0.18776,0.0,2023,6,7,17,50,49,692
50.75380,-0.11882,-0.23607,0.00000,0.03148,0.97746,-0.18983,0.0,2023,6,7,17,50,49,702
50.75390,0.09118,-0.00857,0.00000,0.03221,0.97685,-0.19044,0.0,2023,6,7,17,50,49,712
50.75400,0.00368,-0.04357,0.00000,0.03123,0.97722,-0.19008,0.0,2023,6,7,17,50,49,722
50.75410,-0.13632,-0.02607,0.00000,0.03026,0.97539,-0.18922,0.0,2023,6,7,17,50,49,732
50.75420,-0.13632,0.06142,0.00000,0.03209,0.97502,-0.18873,0.0,2023,6,7,17,50,49,742
50.75430,-0.01382,0.09642,0.00000,0.03184,0.97759,-0.18849,0.0,2023,6,7,17,50,49,752
50.75440,-0.08382,0.06142,0.00000,0.03221,0.97466,-0.18971,0.0,2023,6,7,17,50,49,762
50.75450,-0.01382,0.13143,0.00000,0.03184,0.97734,-0.18751,0.0,2023,6,7,17,50,49,772
50.75460,-0.01382,-0.16608,0.00000,0.03001,0.97502,-0.18812,0.0,2023,6,7,17,50,49,782
50.75470,0.03868,0.14893,0.00000,0.03148,0.97405,-0.18861,0.0,2023,6,7,17,50,49,792
50.75480,0.00368,0.04392,0.00000,0.02989,0.97576,-0.18886,0.0,2023,6,7,17,50,49,802
50.75490,-0.20632,0.23643,0.00000,0.03160,0.97734,-0.18715,0.0,2023,6,7,17,50,49,812
50.75500,0.03868,0.07892,0.00000,0.03050,0.97576,-0.18959,0.0,2023,6,7,17,50,49,822
50.75510,0.23118,0.23643,0.00000,0.02940,0.97893,-0.18837,0.0,2023,6,7,17,50,49,832
50.75520,-0.03132,0.00893,0.00000,0.03209,0.97868,-0.18922,0.0,2023,6,7,17,50,49,842
50.75530,-0.06632,0.11393,0.00000,0.03013,0.97710,-0.18922,0.0,2023,6,7,17,50,49,852
50.75540,0.16118,0.02643,0.00000,0.02989,0.97539,-0.19142,0.0,2023,6,7,17,50,49,862
50.75550,0.02118,0.07892,0.00000,0.03038,0.97454,-0.18873,0.0,2023,6,7,17,50,49,872
50.75560,-0.10132,0.06142,0.00000,0.02965,0.97820,-0.18812,0.0,2023,6,7,17,50,49,882
50.75570,0.16118,0.07892,0.00000,0.03123,0.97624,-0.18715,0.0,2023,6,7,17,50,50,2
50.75580,0.09118,-0.21857,0.00000,0.03184,0.97624,-0.18959,0.0,2023,6,7,17,50,50,12
50.75590,0.00368,-0.06107,0.00000,0.03306,0.97673,-0.19020,0.0,2023,6,7,17,50,50,22
50.75600,-0.01382,0.07892,0.00000,0.03038,0.97673,-0.18654,0.0,2023,6,7,17,50,50,32
50.75610,-0.06632,0.09642,0.00000,0.03331,0.97710,-0.18959,0.0,2023,6,7,17,50,50,42
50.75620,-0.03132,0.14893,0.00000,0.02940,0.97490,-0.19142,0.0,2023,6,7,17,50,50,52
50.75630,0.07368,0.11393,0.00000,0.03209,0.97393,-0.18825,0.0,2023,6,7,17,50,50,62
50.75640,-0.01382,0.02643,0.00000,0.03184,0.97661,-0.18886,0.0,2023,6,7,17,50,50,72
50.75650,-0.04882,0.16643,0.00000,0.03294,0.97856,-0.18898,0.0,2023,6,7,17,50,50,82
50.75660,0.12618,0.07892,0.00000,0.03087,0.97685,-0.19349,0.0,2023,6,7,17,50,50,92
50.75670,0.17868,-0.07857,0.00000,0.03038,0.97527,-0.19349,0.0,2023,6,7,17,50,50,102
50.75680,-0.06632,0.04392,0.00000,0.03062,0.97624,-0.18995,0.0,2023,6,7,17,50,50,112
50.75690,0.07368,-0.02607,0.00000,0.03221,0.97685,-0.18934,0.0,2023,6,7,17,50,50,122
50.75700,0.07368,-0.09607,0.00000,0.02879,0.97588,-0.19105,0.0,2023,6,7,17,50,50,132
50.75710,0.14368,-0.06107,0.00000,0.03148,0.97722,-0.18995,0.0,2023,6,7,17,50,50,142
50.75720,-0.20632,0.21893,0.00000,0.03062,0.97612,-0.18959,0.0,2023,6,7,17,50,50,152
50.75730,0.03868,0.06142,0.00000,0.03160,0.97722,-0.18873,0.0,2023,6,7,17,50,50,162
50.75740,-0.06632,0.16643,0.00000,0.03282,0.97393,-0.18654,0.0,2023,6,7,17,50,50,172
50.75750,-0.08382,0.04392,0.00000,0.03196,0.97661,-0.19032,0.0,2023,6,7,17,50,50,182
50.75760,0.16118,-0.11357,0.00000,0.03148,0.97515,-0.19105,0.0,2023,6,7,17,50,50,192
50.75770,0.02118,0.04392,0.00000,0.03001,0.97344,-0.19056,0.0,2023,6,7,17,50,50,202
50.75780,-0.04882,0.00893,0.00000,0.03148,0.97576,-0.18837,0.0,2023,6,7,17,50,50,212
50.75790,-0.20632,0.32393,0.00000,0.03209,0.97478,-0.18751,0.0,2023,6,7,17,50,50,222
50.75800,0.00368,0.07892,0.00000,0.03172,0.97393,-0.18959,0.0,2023,6,7,17,50,50,232
50.75810,-0.03132,0.06142,0.00000,0.03123,0.97588,-0.19069,0.0,2023,6,7,17,50,50,242
50.75820,0.02118,-0.04357,0.00000,0.03318,0.97563,-0.19166,0.0,2023,6,7,17,50,50,252
50.75830,0.02118,0.07892,0.00000,0.03294,0.97685,-0.19020,0.0,2023,6,7,17,50,50,262
50.75840,-0.08382,-0.02607,0.00000,0.03172,0.97539,-0.18837,0.0,2023,6,7,17,50,50,272
50.75850,0.10868,-0.04357,0.00000,0.03221,0.97612,-0.18934,0.0,2023,6,7,17,50,50,282
50.75860,0.03868,-0.00857,0.00000,0.03050,0.97563,-0.19020,0.0,2023,6,7,17,50,50,292
50.75870,0.14368,-0.07857,0.00000,0.03050,0.97637,-0.19154,0.0,2023,6,7,17,50,50,302
50.75880,0.17868,0.23643,0.00000,0.03135,0.97795,-0.18727,0.0,2023,6,7,17,50,50,312
50.75890,-0.11882,0.18393,0.00000,0.03257,0.97563,-0.18642,0.0,2023,6,7,17,50,50,322
50.75900,0.02118,-0.04357,0.00000,0.03477,0.97490,-0.18934,0.0,2023,6,7,17,50,50,332
50.75910,-0.01382,0.00893,0.00000,0.03087,0.97563,-0.18934,0.0,2023,6,7,17,50,50,342
50.75920,0.07368,0.07892,0.00000,0.03074,0.97722,-0.18983,0.0,2023,6,7,17,50,50,352
50.75930,-0.01382,-0.06107,0.00000,0.02965,0.97649,-0.18825,0.0,2023,6,7,17,50,50,362
50.75940,0.07368,-0.11357,0.00000,0.03038,0.97685,-0.18825,0.0,2023,6,7,17,50,50,372
50.75950,-0.08382,0.16643,0.00000,0.03062,0.97539,-0.18873,0.0,2023,6,7,17,50,50,382
50.75960,0.07368,0.00893,0.00000,0.03355,0.97563,-0.19093,0.0,2023,6,7,17,50,50,392
50.75970,0.03868,-0.07857,0.00000,0.02965,0.97563,-0.18886,0.0,2023,6,7,17,50,50,402
50.75980,0.00368,-0.02607,0.00000,0.03026,0.97685,-0.18886,0.0,2023,6,7,17,50,50,412
50.75990,0.16118,-0.14858,0.00000,0.03160,0.97795,-0.18703,0.0,2023,6,7,17,50,50,422
50.76000,0.03868,0.02643,0.00000,0.03404,0.97539,-0.18995,0.0,2023,6,7,17,50,50,432
50.76010,-0.08382,0.16643,0.00000,0.03282,0.97832,-0.18873,0.0,2023,6,7,17,50,50,442
50.76020,0.17868,-0.25357,0.00000,0.03123,0.97649,-0.18776,0.0,2023,6,7,17,50,50,452
50.76030,-0.04882,0.09642,0.00000,0.03038,0.97551,-0.18995,0.0,2023,6,7,17,50,50,462
50.76040,-0.10132,0.14893,0.00000,0.03160,0.97576,-0.18751,0.0,2023,6,7,17,50,50,472
50.76050,0.07368,0.16643,0.00000,0.03074,0.97600,-0.18971,0.0,2023,6,7,17,50,50,482
50.76060,-0.04882,-0.07857,0.00000,0.03001,0.97893,-0.19020,0.0,2023,6,7,17,50,50,492
50.76070,-0.13632,-0.00857,0.00000,0.03184,0.97771,-0.19081,0.0,2023,6,7,17,50,50,502
50.76080,-0.10132,0.20143,0.00000,0.03087,0.97722,-0.18849,0.0,2023,6,7,17,50,50,512
50.76090,0.09118,-0.04357,0.00000,0.03184,0.97661,-0.18800,0.0,2023,6,7,17,50,50,522
50.76100,0.09118,0.04392,0.00000,0.03367,0.97698,-0.19020,0.0,2023,6,7,17,50,50,532
50.76110,0.12618,-0.14858,0.00000,0.03392,0.97673,-0.18825,0.0,2023,6,7,17,50,50,542
50.76120,0.02118,-0.16608,0.00000,0.03026,0.97685,-0.18873,0.0,2023,6,7,17,50,50,552
50.76130,0.02118,-0.02607,0.00000,0.03111,0.97466,-0.19008,0.0,2023,6,7,17,50,50,562
50.76140,0.00368,0.14893,0.00000,0.03087,0.97649,-0.18666,0.0,2023,6,7,17,50,50,572
50.76150,0.09118,0.13143,0.00000,0.03209,0.97807,-0.18788,0.0,2023,6,7,17,50,50,582
50.76160,-0.01382,0.07892,0.00000,0.03306,0.97600,-0.19203,0.0,2023,6,7,17,50,50,592
50.76170,-0.04882,0.18393,0.00000,0.03038,0.97649,-0.19081,0.0,2023,6,7,17,50,50,602
50.76180,-0.03132,0.11393,0.00000,0.03148,0.97795,-0.19142,0.0,2023,6,7,17,50,50,612
50.76190,0.30118,-0.16608,0.00000,0.03050,0.97649,-0.18983,0.0,2023,6,7,17,50,50,622
50.76200,-0.03132,0.06142,0.00000,0.03013,0.97576,-0.18910,0.0,2023,6,7,17,50,50,632
50.76210,0.09118,-0.07857,0.00000,0.03099,0.97490,-0.18837,0.0,2023,6,7,17,50,50,642
50.76220,0.02118,0.00893,0.00000,0.03160,0.97795,-0.18971,0.0,2023,6,7,17,50,50,652
50.76230,-0.11882,-0.00857,0.00000,0.03087,0.97612,-0.19008,0.0,2023,6,7,17,50,50,662
50.76240,-0.01382,0.09642,0.00000,0.03221,0.97661,-0.18825,0.0,2023,6,7,17,50,50,672
50.76250,-0.04882,-0.00857,0.00000,0.03172,0.97490,-0.18690,0.0,2023,6,7,17,50,50,682
50.76260,0.07368,-0.00857,0.00000,0.03111,0.97673,-0.18629,0.0,2023,6,7,17,50,50,692
50.76270,-0.10132,0.00893,0.00000,0.03050,0.97734,-0.18971,0.0,2023,6,7,17,50,50,702
50.76280,0.12618,-0.00857,0.00000,0.03148,0.97722,-0.18983,0.0,2023,6,7,17,50,50,712
50.76290,0.03868,-0.07857,0.00000,0.03196,0.97490,-0.18971,0.0,2023,6,7,17,50,50,722
50.76300,-0.08382,-0.16608,0.00000,0.03087,0.97673,-0.18898,0.0,2023,6,7,17,50,50,732
50.76310,0.09118,0.02643,0.00000,0.03245,0.97612,-0.18886,0.0,2023,6,7,17,50,50,742
50.76320,-0.11882,0.00893,0.00000,0.03062,0.97612,-0.18947,0.0,2023,6,7,17,50,50,752
50.76330,0.07368,-0.04357,0.00000,0.03087,0.97710,-0.18971,0.0,2023,6,7,17,50,50,762
50.76340,-0.08382,0.02643,0.00000,0.02965,0.97698,-0.18812,0.0,2023,6,7,17,50,50,772
50.76350,-0.06632,-0.07857,0.00000,0.03233,0.97417,-0.18812,0.0,2023,6,7,17,50,50,782
50.76360,0.00368,0.09642,0.00000,0.03331,0.97710,-0.18715,0.0,2023,6,7,17,50,50,792
50.76370,-0.03132,0.02643,0.00000,0.03013,0.97588,-0.18983,0.0,2023,6,7,17,50,50,802
50.76380,0.00368,-0.23607,0.00000,0.03221,0.97612,-0.18934,0.0,2023,6,7,17,50,50,812
50.76390,0.05618,-0.06107,0.00000,0.02965,0.97661,-0.19032,0.0,2023,6,7,17,50,50,822
50.76400,-0.03132,0.00893,0.00000,0.02843,0.97576,-0.18861,0.0,2023,6,7,17,50,50,832
50.76410,0.00368,-0.14858,0.00000,0.03209,0.97502,-0.18776,0.0,2023,6,7,17,50,50,842
50.76420,-0.20632,0.13143,0.00000,0.03270,0.97576,-0.19117,0.0,2023,6,7,17,50,50,852
50.76430,0.23118,0.27142,0.00000,0.03123,0.97942,-0.18800,0.0,2023,6,7,17,50,50,862
50.76440,0.14368,0.11393,0.00000,0.03270,0.97539,-0.18825,0.0,2023,6,7,17,50,50,872
50.76450,0.09118,-0.04357,0.00000,0.03135,0.97820,-0.18800,0.0,2023,6,7,17,50,50,882
50.76460,-0.04882,0.04392,0.00000,0.02928,0.97661,-0.18837,0.0,2023,6,7,17,50,50,892
50.76470,0.05618,0.20143,0.00000,0.03111,0.97698,-0.18886,0.0,2023,6,7,17,50,51,2
50.76480,-0.03132,0.14893,0.00000,0.03148,0.97551,-0.18886,0.0,2023,6,7,17,50,51,12
50.76490,-0.03132,-0.04357,0.00000,0.03062,0.97576,-0.18800,0.0,2023,6,7,17,50,51,22
50.76500,0.02118,0.00893,0.00000,0.03404,0.97600,-0.18886,0.0,2023,6,7,17,50,51,32
50.76510,-0.06632,-0.06107,0.00000,0.03160,0.97563,-0.18886,0.0,2023,6,7,17,50,51,42
50.76520,-0.13632,0.04392,0.00000,0.03160,0.97612,-0.18898,0.0,2023,6,7,17,50,51,52
50.76530,0.07368,-0.02607,0.00000,0.02989,0.97795,-0.19142,0.0,2023,6,7,17,50,51,62
50.76540,-0.01382,0.02643,0.00000,0.03148,0.97551,-0.18861,0.0,2023,6,7,17,50,51,72
50.76550,0.02118,0.04392,0.00000,0.03001,0.97844,-0.18910,0.0,2023,6,7,17,50,51,82
50.76560,0.00368,0.09642,0.00000,0.03306,0.97478,-0.19081,0.0,2023,6,7,17,50,51,92
50.76570,-0.03132,-0.07857,0.00000,0.03184,0.97466,-0.19044,0.0,2023,6,7,17,50,51,102
50.76580,0.05618,0.11393,0.00000,0.03087,0.97624,-0.19142,0.0,2023,6,7,17,50,51,112
50.76590,-0.03132,0.13143,0.00000,0.03160,0.97417,-0.18947,0.0,2023,6,7,17,50,51,122
50.76600,-0.20632,0.07892,0.00000,0.03160,0.97795,-0.18898,0.0,2023,6,7,17,50,51,132
50.76610,0.02118,0.09642,0.00000,0.03050,0.97637,-0.18861,0.0,2023,6,7,17,50,51,142
50.76620,-0.03132,-0.11357,0.00000,0.03074,0.97673,-0.18959,0.0,2023,6,7,17,50,51,152
50.76630,0.03868,-0.04357,0.00000,0.03062,0.97539,-0.18971,0.0,2023,6,7,17,50,51,162
50.76640,0.17868,-0.00857,0.00000,0.03282,0.97624,-0.18764,0.0,2023,6,7,17,50,51,172
50.76650,-0.04882,-0.00857,0.00000,0.03050,0.97844,-0.18910,0.0,2023,6,7,17,50,51,182
50.76660,-0.10132,-0.13108,0.00000,0.03270,0.97588,-0.18898,0.0,2023,6,7,17,50,51,192
50.76670,-0.06632,-0.16608,0.00000,0.03209,0.97722,-0.18886,0.0,2023,6,7,17,50,51,202
50.76680,-0.04882,-0.11357,0.00000,0.03148,0.97454,-0.18739,0.0,2023,6,7,17,50,51,212
50.76690,-0.01382,0.11393,0.00000,0.03074,0.97515,-0.18922,0.0,2023,6,7,17,50,51,222
50.76700,-0.01382,0.02643,0.00000,0.03233,0.97588,-0.18898,0.0,2023,6,7,17,50,51,232
50.76710,0.10868,0.02643,0.00000,0.03148,0.97746,-0.19093,0.0,2023,6,7,17,50,51,242
50.76720,0.00368,-0.06107,0.00000,0.03087,0.97929,-0.18959,0.0,2023,6,7,17,50,51,252
50.76730,0.14368,-0.18358,0.00000,0.03245,0.97673,-0.19008,0.0,2023,6,7,17,50,51,262
50.76740,0.19618,-0.04357,0.00000,0.03233,0.97539,-0.18971,0.0,2023,6,7,17,50,51,272
50.76750,-0.01382,0.02643,0.00000,0.03135,0.97539,-0.18629,0.0,2023,6,7,17,50,51,282
50.76760,0.02118,0.07892,0.00000,0.03013,0.97685,-0.18886,0.0,2023,6,7,17,50,51,292
50.76770,-0.01382,0.06142,0.00000,0.03062,0.97844,-0.18947,0.0,2023,6,7,17,50,51,302
50.76780,-0.01382,0.11393,0.00000,0.03087,0.97624,-0.19044,0.0,2023,6,7,17,50,51,312
50.76790,-0.03132,-0.07857,0.00000,0.03123,0.97710,-0.18898,0.0,2023,6,7,17,50,51,322
50.76800,-0.10132,-0.16608,0.00000,0.03196,0.97844,-0.18715,0.0,2023,6,7,17,50,51,332
50.76810,0.03868,0.13143,0.00000,0.03148,0.97637,-0.18959,0.0,2023,6,7,17,50,51,342
50.76820,-0.01382,-0.20107,0.00000,0.03270,0.97771,-0.18947,0.0,2023,6,7,17,50,51,352
50.76830,-0.04882,0.09642,0.00000,0.02879,0.97576,-0.18934,0.0,2023,6,7,17,50,51,362
50.76840,-0.03132,0.06142,0.00000,0.03123,0.97795,-0.18849,0.0,2023,6,7,17,50,51,372
50.76850,0.02118,-0.02607,0.00000,0.03087,0.97637,-0.18556,0.0,2023,6,7,17,50,51,382
50.76860,-0.18882,0.06142,0.00000,0.02989,0.97612,-0.18886,0.0,2023,6,7,17,50,51,392
50.76870,-0.06632,-0.21857,0.00000,0.03160,0.97820,-0.18971,0.0,2023,6,7,17,50,51,402
50.76880,-0.11882,0.00893,0.00000,0.03038,0.97600,-0.18886,0.0,2023,6,7,17,50,51,412
50.76890,0.07368,-0.02607,0.00000,0.03196,0.97563,-0.18947,0.0,2023,6,7,17,50,51,422
50.76900,-0.04882,-0.39358,0.00000,0.02928,0.97795,-0.18800,0.0,2023,6,7,17,50,51,432
50.76910,-0.04882,0.25392,0.00000,0.03026,0.97881,-0.19032,0.0,2023,6,7,17,50,51,442
50.76920,-0.20632,0.18393,0.00000,0.03099,0.97710,-0.18947,0.0,2023,6,7,17,50,51,452
50.76930,0.10868,-0.16608,0.00000,0.03306,0.97539,-0.19069,0.0,2023,6,7,17,50,51,462
50.76940,0.10868,-0.16608,0.00000,0.03184,0.97685,-0.18983,0.0,2023,6,7,17,50,51,472
50.76950,0.03868,-0.13108,0.00000,0.03111,0.97917,-0.18934,0.0,2023,6,7,17,50,51,482
50.76960,-0.03132,0.04392,0.00000,0.02916,0.97551,-0.18812,0.0,2023,6,7,17,50,51,492
50.76970,0.16118,-0.04357,0.00000,0.03038,0.97673,-0.18995,0.0,2023,6,7,17,50,51,502
50.76980,0.09118,0.06142,0.00000,0.03245,0.97637,-0.18715,0.0,2023,6,7,17,50,51,512
50.76990,0.09118,-0.11357,0.00000,0.02843,0.97661,-0.18861,0.0,2023,6,7,17,50,51,522
50.77000,-0.17132,-0.00857,0.00000,0.03074,0.97563,-0.18800,0.0,2023,6,7,17,50,51,532
50.77010,0.02118,0.13143,0.00000,0.03306,0.97661,-0.18861,0.0,2023,6,7,17,50,51,542
50.77020,-0.18882,-0.02607,0.00000,0.03331,0.97661,-0.19081,0.0,2023,6,7,17,50,51,552
50.77030,0.02118,-0.11357,0.00000,0.03001,0.97710,-0.18703,0.0,2023,6,7,17,50,51,562
50.77040,0.23118,-0.07857,0.00000,0.03099,0.97685,-0.18898,0.0,2023,6,7,17,50,51,572
50.77050,0.09118,0.23643,0.00000,0.02928,0.97771,-0.18825,0.0,2023,6,7,17,50,51,582
50.77060,0.09118,-0.06107,0.00000,0.03013,0.97710,-0.18971,0.0,2023,6,7,17,50,51,592
50.77070,0.00368,-0.23607,0.00000,0.02940,0.97563,-0.18800,0.0,2023,6,7,17,50,51,602
50.77080,-0.06632,0.11393,0.00000,0.02965,0.97588,-0.18910,0.0,2023,6,7,17,50,51,612
50.77090,-0.08382,-0.02607,0.00000,0.03074,0.97820,-0.19020,0.0,2023,6,7,17,50,51,622
50.77100,-0.10132,0.07892,0.00000,0.03404,0.97868,-0.19032,0.0,2023,6,7,17,50,51,632
50.77110,-0.18882,-0.00857,0.00000,0.03209,0.97795,-0.19069,0.0,2023,6,7,17,50,51,642
50.77120,0.00368,-0.00857,0.00000,0.03160,0.97478,-0.18861,0.0,2023,6,7,17,50,51,652
50.77130,0.02118,-0.02607,0.00000,0.03099,0.97588,-0.18764,0.0,2023,6,7,17,50,51,662
50.77140,0.12618,-0.04357,0.00000,0.03221,0.97649,-0.18739,0.0,2023,6,7,17,50,51,672
50.77150,-0.15382,0.11393,0.00000,0.03306,0.97673,-0.18922,0.0,2023,6,7,17,50,51,682
50.77160,0.05618,-0.11357,0.00000,0.03123,0.97722,-0.18764,0.0,2023,6,7,17,50,51,692
50.77170,0.02118,-0.13108,0.00000,0.03087,0.97820,-0.18922,0.0,2023,6,7,17,50,51,702
50.77180,0.05618,-0.18358,0.00000,0.03172,0.97844,-0.18715,0.0,2023,6,7,17,50,51,712
50.77190,0.02118,0.02643,0.00000,0.03282,0.97612,-0.18666,0.0,2023,6,7,17,50,51,722
50.77200,-0.13632,0.02643,0.00000,0.03184,0.97588,-0.18947,0.0,2023,6,7,17,50,51,732
50.77210,-0.04882,-0.09607,0.00000,0.03355,0.97759,-0.18873,0.0,2023,6,7,17,50,51,742
50.77220,0.12618,0.18393,0.00000,0.03026,0.97551,-0.18873,0.0,2023,6,7,17,50,51,752
50.77230,-0.04882,0.23643,0.00000,0.03209,0.97588,-0.18654,0.0,2023,6,7,17,50,51,762
50.77240,0.03868,0.00893,0.00000,0.03062,0.97612,-0.18703,0.0,2023,6,7,17,50,51,772
50.77250,0.05618,0.06142,0.00000,0.02904,0.97698,-0.18922,0.0,2023,6,7,17,50,51,782
50.77260,-0.10132,-0.09607,0.00000,0.03038,0.97820,-0.18995,0.0,2023,6,7,17,50,51,792
50.77270,0.19618,-0.13108,0.00000,0.03087,0.97649,-0.18605,0.0,2023,6,7,17,50,51,802
50.77280,-0.04882,0.11393,0.00000,0.03123,0.97734,-0.18727,0.0,2023,6,7,17,50,51,812
50.77290,0.02118,0.02643,0.00000,0.03160,0.97454,-0.18910,0.0,2023,6,7,17,50,51,822
50.77300,0.05618,0.04392,0.00000,0.03001,0.97429,-0.18703,0.0,2023,6,7,17,50,51,832
50.77310,-0.11882,0.11393,0.00000,0.03209,0.97393,-0.18910,0.0,2023,6,7,17,50,51,842
50.77320,-0.08382,0.20143,0.00000,0.03184,0.97441,-0.19032,0.0,2023,6,7,17,50,51,852
50.77330,-0.18882,0.07892,0.00000,0.03184,0.97710,-0.18983,0.0,2023,6,7,17,50,51,862
50.77340,-0.04882,0.07892,0.00000,0.03172,0.97539,-0.19105,0.0,2023,6,7,17,50,51,872
50.77350,0.10868,-0.09607,0.00000,0.03355,0.97661,-0.19227,0.0,2023,6,7,17,50,51,882
50.77360,-0.13632,0.02643,0.00000,0.02867,0.97661,-0.19032,0.0,2023,6,7,17,50,52,2
50.77370,-0.10132,-0.35858,0.00000,0.03026,0.97624,-0.18837,0.0,2023,6,7,17,50,52,12
50.77380,-0.03132,0.07892,0.00000,0.03074,0.97673,-0.18959,0.0,2023,6,7,17,50,52,22
50.77390,-0.10132,-0.04357,0.00000,0.02940,0.97807,-0.18739,0.0,2023,6,7,17,50,52,32
50.77400,0.03868,0.00893,0.00000,0.03062,0.97588,-0.18922,0.0,2023,6,7,17,50,52,42
50.77410,-0.01382,0.06142,0.00000,0.03318,0.97612,-0.18800,0.0,2023,6,7,17,50,52,52
50.77420,-0.24132,0.02643,0.00000,0.03135,0.97637,-0.18715,0.0,2023,6,7,17,50,52,62
50.77430,-0.15382,0.09642,0.00000,0.03074,0.97722,-0.18751,0.0,2023,6,7,17,50,52,72
50.77440,0.09118,-0.16608,0.00000,0.03038,0.97783,-0.18812,0.0,2023,6,7,17,50,52,82
50.77450,-0.04882,0.06142,0.00000,0.03026,0.97612,-0.18959,0.0,2023,6,7,17,50,52,92
50.77460,0.02118,-0.00857,0.00000,0.03123,0.97637,-0.18947,0.0,2023,6,7,17,50,52,102
50.77470,-0.04882,0.18393,0.00000,0.03148,0.97429,-0.18605,0.0,2023,6,7,17,50,52,112
50.77480,0.05618,-0.13108,0.00000,0.03135,0.97624,-0.19032,0.0,2023,6,7,17,50,52,122
50.77490,0.03868,-0.11357,0.00000,0.03196,0.97759,-0.19008,0.0,2023,6,7,17,50,52,132
50.77500,0.14368,-0.25357,0.00000,0.03209,0.97710,-0.19008,0.0,2023,6,7,17,50,52,142
50.77510,0.09118,0.04392,0.00000,0.03026,0.97746,-0.19081,0.0,2023,6,7,17,50,52,152
50.77520,0.12618,-0.18358,0.00000,0.03196,0.97563,-0.18581,0.0,2023,6,7,17,50,52,162
50.77530,-0.22382,0.02643,0.00000,0.03074,0.97563,-0.18739,0.0,2023,6,7,17,50,52,172
50.77540,-0.08382,-0.14858,0.00000,0.03050,0.97527,-0.18995,0.0,2023,6,7,17,50,52,182
50.77550,-0.01382,0.18393,0.00000,0.03111,0.97771,-0.18751,0.0,2023,6,7,17,50,52,192
50.77560,-0.15382,-0.06107,0.00000,0.03184,0.97515,-0.18886,0.0,2023,6,7,17,50,52,202
50.77570,0.07368,0.18393,0.00000,0.02867,0.97673,-0.18678,0.0,2023,6,7,17,50,52,212
50.77580,-0.03132,0.06142,0.00000,0.02965,0.97649,-0.18873,0.0,2023,6,7,17,50,52,222
50.77590,0.09118,-0.13108,0.00000,0.02952,0.97588,-0.18959,0.0,2023,6,7,17,50,52,232
50.77600,0.10868,0.25392,0.00000,0.03184,0.97649,-0.19117,0.0,2023,6,7,17,50,52,242
50.77610,0.14368,0.02643,0.00000,0.03111,0.97771,-0.18971,0.0,2023,6,7,17,50,52,252
50.77620,-0.03132,0.06142,0.00000,0.03026,0.97649,-0.18861,0.0,2023,6,7,17,50,52,262
50.77630,0.09118,-0.11357,0.00000,0.03404,0.98039,-0.18764,0.0,2023,6,7,17,50,52,272
50.77640,0.05618,0.13143,0.00000,0.03148,0.97673,-0.18788,0.0,2023,6,7,17,50,52,282
50.77650,0.12618,-0.04357,0.00000,0.02965,0.97710,-0.18837,0.0,2023,6,7,17,50,52,292
50.77660,0.07368,0.09642,0.00000,0.03111,0.97856,-0.18910,0.0,2023,6,7,17,50,52,302
50.77670,-0.10132,0.13143,0.00000,0.03062,0.97539,-0.18922,0.0,2023,6,7,17,50,52,312
50.77680,-0.03132,-0.06107,0.00000,0.03306,0.97393,-0.18739,0.0,2023,6,7,17,50,52,322
50.77690,-0.11882,-0.21857,0.00000,0.03148,0.97844,-0.18642,0.0,2023,6,7,17,50,52,332
50.77700,-0.10132,0.21893,0.00000,0.03099,0.97454,-0.18764,0.0,2023,6,7,17,50,52,342
50.77710,0.03868,0.13143,0.00000,0.03099,0.97734,-0.18959,0.0,2023,6,7,17,50,52,352
50.77720,0.17868,-0.13108,0.00000,0.02928,0.97710,-0.18947,0.0,2023,6,7,17,50,52,362
50.77730,0.05618,-0.04357,0.00000,0.02977,0.97637,-0.18715,0.0,2023,6,7,17,50,52,372
50.77740,-0.03132,0.14893,0.00000,0.03367,0.97722,-0.18995,0.0,2023,6,7,17,50,52,382
50.77750,0.24868,-0.18358,0.00000,0.03111,0.97698,-0.18703,0.0,2023,6,7,17,50,52,392
50.77760,0.00368,0.00893,0.00000,0.03196,0.97734,-0.18873,0.0,2023,6,7,17,50,52,402
50.77770,0.03868,-0.06107,0.00000,0.02879,0.97624,-0.18642,0.0,2023,6,7,17,50,52,412
50.77780,-0.08382,0.06142,0.00000,0.03282,0.97393,-0.18812,0.0,2023,6,7,17,50,52,422
50.77790,-0.20632,0.20143,0.00000,0.03135,0.97661,-0.18483,0.0,2023,6,7,17,50,52,432
50.77800,-0.04882,-0.04357,0.00000,0.03331,0.97710,-0.18642,0.0,2023,6,7,17,50,52,442
50.77810,-0.01382,-0.07857,0.00000,0.03062,0.97673,-0.18886,0.0,2023,6,7,17,50,52,452
50.77820,0.05618,0.04392,0.00000,0.03294,0.97600,-0.19056,0.0,2023,6,7,17,50,52,462
50.77830,-0.01382,-0.16608,0.00000,0.03123,0.97441,-0.18934,0.0,2023,6,7,17,50,52,472
50.77840,-0.10132,0.02643,0.00000,0.02977,0.97661,-0.18812,0.0,2023,6,7,17,50,52,482
50.77850,0.10868,-0.07857,0.00000,0.03111,0.97539,-0.18861,0.0,2023,6,7,17,50,52,492
50.77860,0.23118,-0.14858,0.00000,0.02952,0.97478,-0.18812,0.0,2023,6,7,17,50,52,502
50.77870,-0.10132,0.16643,0.00000,0.03294,0.97563,-0.19069,0.0,2023,6,7,17,50,52,512
50.77880,-0.01382,-0.16608,0.00000,0.03062,0.97490,-0.19020,0.0,2023,6,7,17,50,52,522
50.77890,-0.04882,-0.04357,0.00000,0.03038,0.97710,-0.19044,0.0,2023,6,7,17,50,52,532
50.77900,0.07368,-0.02607,0.00000,0.03099,0.97576,-0.18715,0.0,2023,6,7,17,50,52,542
50.77910,-0.24132,-0.00857,0.00000,0.03099,0.97624,-0.18666,0.0,2023,6,7,17,50,52,552
50.77920,-0.04882,-0.13108,0.00000,0.02977,0.97685,-0.18739,0.0,2023,6,7,17,50,52,562
50.77930,0.00368,-0.18358,0.00000,0.03160,0.97600,-0.18800,0.0,2023,6,7,17,50,52,572
50.77940,-0.08382,-0.16608,0.00000,0.03184,0.97502,-0.18776,0.0,2023,6,7,17,50,52,582
50.77950,0.12618,-0.13108,0.00000,0.03160,0.97612,-0.18715,0.0,2023,6,7,17,50,52,592
50.77960,-0.10132,0.07892,0.00000,0.03196,0.97734,-0.18861,0.0,2023,6,7,17,50,52,602
50.77970,-0.06632,0.00893,0.00000,0.02867,0.97515,-0.18861,0.0,2023,6,7,17,50,52,612
50.77980,-0.10132,-0.04357,0.00000,0.03209,0.97746,-0.18983,0.0,2023,6,7,17,50,52,622
50.77990,0.05618,0.00893,0.00000,0.03001,0.97795,-0.18788,0.0,2023,6,7,17,50,52,632
50.78000,-0.08382,0.07892,0.00000,0.03148,0.97759,-0.18886,0.0,2023,6,7,17,50,52,642
50.78010,-0.10132,-0.00857,0.00000,0.03184,0.97588,-0.18922,0.0,2023,6,7,17,50,52,652
50.78020,-0.06632,-0.25357,0.00000,0.03135,0.97673,-0.18703,0.0,2023,6,7,17,50,52,662
50.78030,-0.08382,0.28892,0.00000,0.03343,0.97807,-0.18825,0.0,2023,6,7,17,50,52,672
50.78040,0.30118,-0.04357,0.00000,0.02989,0.97637,-0.18873,0.0,2023,6,7,17,50,52,682
50.78050,0.02118,-0.04357,0.00000,0.03160,0.97673,-0.18812,0.0,2023,6,7,17,50,52,692
50.78060,-0.03132,0.09642,0.00000,0.03099,0.97685,-0.18764,0.0,2023,6,7,17,50,52,702
50.78070,-0.06632,0.11393,0.00000,0.03026,0.97551,-0.18690,0.0,2023,6,7,17,50,52,712
50.78080,-0.08382,0.13143,0.00000,0.02952,0.97783,-0.18922,0.0,2023,6,7,17,50,52,722
50.78090,-0.01382,0.20143,0.00000,0.03062,0.97722,-0.19142,0.0,2023,6,7,17,50,52,732
50.78100,-0.04882,-0.18358,0.00000,0.03221,0.97978,-0.18959,0.0,2023,6,7,17,50,52,742
50.78110,-0.04882,-0.18358,0.00000,0.03196,0.97515,-0.18934,0.0,2023,6,7,17,50,52,752
50.78120,-0.01382,-0.16608,0.00000,0.03135,0.97661,-0.19154,0.0,2023,6,7,17,50,52,762
50.78130,0.14368,0.06142,0.00000,0.03062,0.97734,-0.18751,0.0,2023,6,7,17,50,52,772
50.78140,-0.22382,0.11393,0.00000,0.03074,0.97710,-0.18715,0.0,2023,6,7,17,50,52,782
50.78150,0.03868,-0.28857,0.00000,0.03453,0.97637,-0.18959,0.0,2023,6,7,17,50,52,792
50.78160,0.19618,-0.11357,0.00000,0.03087,0.97539,-0.18849,0.0,2023,6,7,17,50,52,802
50.78170,-0.03132,0.11393,0.00000,0.03062,0.97844,-0.19044,0.0,2023,6,7,17,50,52,812
50.78180,0.17868,-0.07857,0.00000,0.03050,0.97771,-0.18825,0.0,2023,6,7,17,50,52,822
50.78190,-0.13632,-0.04357,0.00000,0.03099,0.97759,-0.18751,0.0,2023,6,7,17,50,52,832
50.78200,-0.06632,0.16643,0.00000,0.03026,0.97820,-0.18910,0.0,2023,6,7,17,50,52,842
50.78210,0.03868,-0.00857,0.00000,0.03135,0.97710,-0.19032,0.0,2023,6,7,17,50,52,852
50.78220,-0.06632,-0.00857,0.00000,0.03026,0.97380,-0.18873,0.0,2023,6,7,17,50,52,862
50.78230,-0.06632,0.00893,0.00000,0.03038,0.97429,-0.18800,0.0,2023,6,7,17,50,52,872
50.78240,-0.24132,0.06142,0.00000,0.03294,0.97551,-0.18788,0.0,2023,6,7,17,50,52,882
50.78250,-0.10132,0.25392,0.00000,0.03099,0.97661,-0.18910,0.0,2023,6,7,17,50,52,892
50.78260,-0.08382,0.11393,0.00000,0.03111,0.97905,-0.18910,0.0,2023,6,7,17,50,53,2
50.78270,0.05618,0.04392,0.00000,0.03245,0.97832,-0.18886,0.0,2023,6,7,17,50,53,12
50.78280,-0.34632,-0.00857,0.00000,0.03270,0.97600,-0.18873,0.0,2023,6,7,17,50,53,22
50.78290,-0.18882,0.04392,0.00000,0.03257,0.97734,-0.18995,0.0,2023,6,7,17,50,53,32
50.78300,-0.13632,0.02643,0.00000,0.03209,0.97612,-0.19069,0.0,2023,6,7,17,50,53,42
50.78310,-0.06632,0.00893,0.00000,0.03013,0.97783,-0.18776,0.0,2023,6,7,17,50,53,52
50.78320,0.05618,0.11393,0.00000,0.03196,0.97722,-0.18898,0.0,2023,6,7,17,50,53,62
50.78330,-0.01382,0.16643,0.00000,0.03135,0.97783,-0.19008,0.0,2023,6,7,17,50,53,72
50.78340,-0.01382,0.07892,0.00000,0.03209,0.97844,-0.19117,0.0,2023,6,7,17,50,53,82
50.78350,0.02118,-0.21857,0.00000,0.03245,0.97600,-0.18861,0.0,2023,6,7,17,50,53,92
50.78360,-0.11882,0.27142,0.00000,0.02965,0.97502,-0.18934,0.0,2023,6,7,17,50,53,102
50.78370,-0.13632,0.02643,0.00000,0.02928,0.97624,-0.18764,0.0,2023,6,7,17,50,53,112
50.78380,0.02118,0.04392,0.00000,0.03148,0.97246,-0.19008,0.0,2023,6,7,17,50,53,122
50.78390,-0.22382,0.07892,0.00000,0.02989,0.97612,-0.18861,0.0,2023,6,7,17,50,53,132
50.78400,-0.13632,0.23643,0.00000,0.03392,0.97722,-0.18861,0.0,2023,6,7,17,50,53,142
50.78410,0.07368,0.06142,0.00000,0.03135,0.97527,-0.19154,0.0,2023,6,7,17,50,53,152
50.78420,-0.04882,-0.18358,0.00000,0.02952,0.97685,-0.19154,0.0,2023,6,7,17,50,53,162
50.78430,-0.17132,0.04392,0.00000,0.03062,0.97649,-0.18971,0.0,2023,6,7,17,50,53,172
50.78440,-0.17132,0.09642,0.00000,0.03318,0.97673,-0.18849,0.0,2023,6,7,17,50,53,182
50.78450,-0.10132,0.06142,0.00000,0.03013,0.97722,-0.18898,0.0,2023,6,7,17,50,53,192
50.78460,0.07368,-0.07857,0.00000,0.03050,0.97612,-0.19008,0.0,2023,6,7,17,50,53,202
50.78470,-0.11882,0.14893,0.00000,0.03135,0.97466,-0.18690,0.0,2023,6,7,17,50,53,212
50.78480,-0.10132,0.06142,0.00000,0.03123,0.97466,-0.18678,0.0,2023,6,7,17,50,53,222
50.78490,-0.01382,0.04392,0.00000,0.03221,0.97649,-0.18507,0.0,2023,6,7,17,50,53,232
50.78500,0.05618,0.18393,0.00000,0.03026,0.97771,-0.18861,0.0,2023,6,7,17,50,53,242
50.78510,0.24868,-0.37608,0.00000,0.03148,0.97405,-0.19069,0.0,2023,6,7,17,50,53,252
50.78520,-0.03132,-0.21857,0.00000,0.02916,0.97685,-0.18995,0.0,2023,6,7,17,50,53,262
50.78530,-0.03132,0.06142,0.00000,0.03172,0.97673,-0.18959,0.0,2023,6,7,17,50,53,272
50.78540,0.26618,-0.00857,0.00000,0.03050,0.97673,-0.19008,0.0,2023,6,7,17,50,53,282
50.78550,-0.03132,0.11393,0.00000,0.03209,0.97624,-0.18934,0.0,2023,6,7,17,50,53,292
50.78560,-0.01382,0.00893,0.00000,0.03099,0.97759,-0.19008,0.0,2023,6,7,17,50,53,302
50.78570,-0.17132,0.14893,0.00000,0.03282,0.97746,-0.18642,0.0,2023,6,7,17,50,53,312
50.78580,0.12618,0.11393,0.00000,0.03318,0.97685,-0.19154,0.0,2023,6,7,17,50,53,322
50.78590,0.05618,-0.07857,0.00000,0.03282,0.97673,-0.18800,0.0,2023,6,7,17,50,53,332
50.78600,0.21368,0.07892,0.00000,0.03160,0.97722,-0.18690,0.0,2023,6,7,17,50,53,342
50.78610,0.12618,-0.28857,0.00000,0.03160,0.97673,-0.18922,0.0,2023,6,7,17,50,53,352
50.78620,0.12618,-0.00857,0.00000,0.03013,0.97417,-0.19166,0.0,2023,6,7,17,50,53,362
50.78630,-0.11882,-0.09607,0.00000,0.03135,0.97441,-0.18886,0.0,2023,6,7,17,50,53,372
50.78640,0.00368,0.04392,0.00000,0.02977,0.97637,-0.18812,0.0,2023,6,7,17,50,53,382
50.78650,0.02118,-0.11357,0.00000,0.03026,0.97685,-0.18776,0.0,2023,6,7,17,50,53,392
50.78660,-0.15382,-0.00857,0.00000,0.03074,0.97441,-0.19056,0.0,2023,6,7,17,50,53,402
50.78670,-0.20632,0.32393,0.00000,0.03111,0.97588,-0.19142,0.0,2023,6,7,17,50,53,412
50.78680,-0.22382,0.02643,0.00000,0.03062,0.97624,-0.18849,0.0,2023,6,7,17,50,53,422
50.78690,-0.01382,-0.00857,0.00000,0.03062,0.97600,-0.18910,0.0,2023,6,7,17,50,53,432
50.78700,0.03868,-0.04357,0.00000,0.02940,0.97710,-0.19215,0.0,2023,6,7,17,50,53,442
50.78710,0.10868,-0.04357,0.00000,0.03050,0.97576,-0.18788,0.0,2023,6,7,17,50,53,452
50.78720,0.02118,-0.06107,0.00000,0.03196,0.97759,-0.18873,0.0,2023,6,7,17,50,53,462
50.78730,-0.03132,0.04392,0.00000,0.03270,0.97661,-0.18898,0.0,2023,6,7,17,50,53,472
50.78740,-0.03132,-0.06107,0.00000,0.03172,0.97441,-0.18934,0.0,2023,6,7,17,50,53,482
50.78750,0.09118,-0.18358,0.00000,0.02977,0.97624,-0.18825,0.0,2023,6,7,17,50,53,492
50.78760,-0.15382,0.04392,0.00000,0.03026,0.97783,-0.19020,0.0,2023,6,7,17,50,53,502
50.78770,0.03868,-0.04357,0.00000,0.03087,0.97478,-0.18825,0.0,2023,6,7,17,50,53,512
50.78780,0.07368,0.18393,0.00000,0.02830,0.97661,-0.18849,0.0,2023,6,7,17,50,53,522
50.78790,-0.06632,-0.04357,0.00000,0.03196,0.97685,-0.18934,0.0,2023,6,7,17,50,53,532
50.78800,-0.06632,-0.06107,0.00000,0.03148,0.97502,-0.18886,0.0,2023,6,7,17,50,53,542
50.78810,0.07368,0.16643,0.00000,0.03099,0.97576,-0.18617,0.0,2023,6,7,17,50,53,552
50.78820,0.00368,0.02643,0.00000,0.03257,0.97746,-0.18983,0.0,2023,6,7,17,50,53,562
50.78830,0.07368,-0.06107,0.00000,0.03209,0.97527,-0.18849,0.0,2023,6,7,17,50,53,572
50.78840,-0.20632,-0.00857,0.00000,0.03135,0.97661,-0.18849,0.0,2023,6,7,17,50,53,582
50.78850,-0.17132,-0.11357,0.00000,0.03306,0.97539,-0.18995,0.0,2023,6,7,17,50,53,592
50.78860,-0.11882,0.16643,0.00000,0.03038,0.97966,-0.19008,0.0,2023,6,7,17,50,53,602
50.78870,0.02118,0.09642,0.00000,0.03148,0.97893,-0.19105,0.0,2023,6,7,17,50,53,612
50.78880,0.09118,-0.09607,0.00000,0.03001,0.97673,-0.18812,0.0,2023,6,7,17,50,53,622
50.78890,0.07368,-0.14858,0.00000,0.03050,0.97393,-0.18776,0.0,2023,6,7,17,50,53,632
50.78900,-0.03132,0.06142,0.00000,0.03062,0.97502,-0.18788,0.0,2023,6,7,17,50,53,642
50.78910,0.05618,0.18393,0.00000,0.03221,0.97710,-0.18898,0.0,2023,6,7,17,50,53,652
50.78920,0.10868,0.07892,0.00000,0.02916,0.97624,-0.18849,0.0,2023,6,7,17,50,53,662
50.78930,-0.01382,-0.11357,0.00000,0.03245,0.97527,-0.18776,0.0,2023,6,7,17,50,53,672
50.78940,0.00368,-0.09607,0.00000,0.03331,0.97734,-0.18837,0.0,2023,6,7,17,50,53,682
50.78950,-0.13632,-0.00857,0.00000,0.03379,0.97563,-0.18837,0.0,2023,6,7,17,50,53,692
50.78960,-0.03132,-0.07857,0.00000,0.02843,0.97771,-0.19020,0.0,2023,6,7,17,50,53,702
50.78970,-0.06632,0.04392,0.00000,0.03111,0.97490,-0.18922,0.0,2023,6,7,17,50,53,712
50.78980,-0.01382,-0.11357,0.00000,0.03184,0.97490,-0.18764,0.0,2023,6,7,17,50,53,722
50.78990,0.09118,-0.07857,0.00000,0.03013,0.97710,-0.18849,0.0,2023,6,7,17,50,53,732
50.79000,0.02118,-0.09607,0.00000,0.03050,0.97856,-0.19056,0.0,2023,6,7,17,50,53,742
50.79010,0.00368,-0.00857,0.00000,0.03245,0.97612,-0.18800,0.0,2023,6,7,17,50,53,752
50.79020,-0.18882,-0.06107,0.00000,0.03172,0.97685,-0.18739,0.0,2023,6,7,17,50,53,762
50.79030,0.10868,0.07892,0.00000,0.03111,0.97637,-0.18837,0.0,2023,6,7,17,50,53,772
50.79040,-0.06632,0.16643,0.00000,0.02977,0.97734,-0.18910,0.0,2023,6,7,17,50,53,782
50.79050,-0.01382,0.00893,0.00000,0.02769,0.97612,-0.18873,0.0,2023,6,7,17,50,53,792
50.79060,-0.03132,-0.21857,0.00000,0.03135,0.97576,-0.18995,0.0,2023,6,7,17,50,53,802
50.79070,-0.11882,0.13143,0.00000,0.03135,0.97722,-0.18703,0.0,2023,6,7,17,50,53,812
50.79080,0.16118,-0.20107,0.00000,0.03184,0.97734,-0.18751,0.0,2023,6,7,17,50,53,822
50.79090,-0.17132,0.00893,0.00000,0.03050,0.97624,-0.18800,0.0,2023,6,7,17,50,53,832
50.79100,0.02118,0.30642,0.00000,0.02989,0.97502,-0.19020,0.0,2023,6,7,17,50,53,842
50.79110,-0.17132,0.07892,0.00000,0.03282,0.97624,-0.18995,0.0,2023,6,7,17,50,53,852
50.79120,0.14368,-0.04357,0.00000,0.03270,0.97746,-0.19008,0.0,2023,6,7,17,50,53,862
50.79130,0.09118,-0.04357,0.00000,0.03087,0.97771,-0.18861,0.0,2023,6,7,17,50,53,872
50.79140,0.23118,-0.04357,0.00000,0.02977,0.97734,-0.19203,0.0,2023,6,7,17,50,53,882
50.79150,0.07368,0.06142,0.00000,0.03038,0.97661,-0.18995,0.0,2023,6,7,17,50,53,892
50.79160,-0.20632,0.13143,0.00000,0.03196,0.97441,-0.19008,0.0,2023,6,7,17,50,54,2
50.79170,0.10868,-0.11357,0.00000,0.03062,0.97563,-0.19093,0.0,2023,6,7,17,50,54,12
50.79180,0.03868,-0.07857,0.00000,0.03135,0.97746,-0.18715,0.0,2023,6,7,17,50,54,22
50.79190,0.00368,0.14893,0.00000,0.03087,0.97746,-0.18666,0.0,2023,6,7,17,50,54,32
50.79200,-0.04882,-0.06107,0.00000,0.03148,0.97527,-0.19069,0.0,2023,6,7,17,50,54,42
50.79210,-0.17132,0.23643,0.00000,0.03111,0.97832,-0.18934,0.0,2023,6,7,17,50,54,52
50.79220,-0.03132,0.14893,0.00000,0.03013,0.97759,-0.18727,0.0,2023,6,7,17,50,54,62
50.79230,-0.01382,0.07892,0.00000,0.03172,0.97588,-0.18910,0.0,2023,6,7,17,50,54,72
50.79240,0.10868,-0.02607,0.00000,0.03355,0.97600,-0.18849,0.0,2023,6,7,17,50,54,82
50.79250,0.05618,-0.16608,0.00000,0.03050,0.97795,-0.18971,0.0,2023,6,7,17,50,54,92
50.79260,-0.22382,-0.11357,0.00000,0.03209,0.97454,-0.18764,0.0,2023,6,7,17,50,54,102
50.79270,0.05618,-0.06107,0.00000,0.03184,0.97612,-0.18629,0.0,2023,6,7,17,50,54,112
50.79280,-0.06632,0.09642,0.00000,0.03257,0.97624,-0.18654,0.0,2023,6,7,17,50,54,122
50.79290,0.14368,-0.14858,0.00000,0.03001,0.97612,-0.18739,0.0,2023,6,7,17,50,54,132
50.79300,0.19618,0.06142,0.00000,0.02977,0.97673,-0.18922,0.0,2023,6,7,17,50,54,142
50.79310,-0.10132,-0.02607,0.00000,0.03245,0.97502,-0.18849,0.0,2023,6,7,17,50,54,152
50.79320,0.07368,-0.04357,0.00000,0.03209,0.97759,-0.18593,0.0,2023,6,7,17,50,54,162
50.79330,-0.08382,-0.04357,0.00000,0.03099,0.97710,-0.18800,0.0,2023,6,7,17,50,54,172
50.79340,-0.13632,-0.02607,0.00000,0.03209,0.97612,-0.18947,0.0,2023,6,7,17,50,54,182
50.79350,-0.10132,-0.00857,0.00000,0.03123,0.97612,-0.18886,0.0,2023,6,7,17,50,54,192
50.79360,0.00368,-0.11357,0.00000,0.03160,0.97466,-0.18654,0.0,2023,6,7,17,50,54,202
50.79370,0.07368,0.02643,0.00000,0.03087,0.97722,-0.18861,0.0,2023,6,7,17,50,54,212
50.79380,0.10868,-0.14858,0.00000,0.03270,0.97734,-0.18934,0.0,2023,6,7,17,50,54,222
50.79390,0.16118,-0.00857,0.00000,0.03148,0.97698,-0.19020,0.0,2023,6,7,17,50,54,232
50.79400,0.00368,0.21893,0.00000,0.03306,0.97710,-0.18715,0.0,2023,6,7,17,50,54,242
50.79410,-0.03132,-0.04357,0.00000,0.03172,0.97588,-0.18861,0.0,2023,6,7,17,50,54,252
50.79420,0.09118,0.14893,0.00000,0.03050,0.97820,-0.18934,0.0,2023,6,7,17,50,54,262
50.79430,0.03868,0.09642,0.00000,0.03148,0.97417,-0.18788,0.0,2023,6,7,17,50,54,272
50.79440,0.07368,-0.00857,0.00000,0.02989,0.97685,-0.18971,0.0,2023,6,7,17,50,54,282
50.79450,0.03868,0.11393,0.00000,0.03123,0.97429,-0.18788,0.0,2023,6,7,17,50,54,292
50.79460,0.02118,-0.06107,0.00000,0.03062,0.97563,-0.18873,0.0,2023,6,7,17,50,54,302
50.79470,0.03868,-0.00857,0.00000,0.03038,0.97637,-0.18947,0.0,2023,6,7,17,50,54,312
50.79480,-0.03132,-0.02607,0.00000,0.03221,0.97539,-0.18825,0.0,2023,6,7,17,50,54,322
50.79490,-0.13632,0.09642,0.00000,0.03196,0.97637,-0.18410,0.0,2023,6,7,17,50,54,332
50.79500,0.12618,0.00893,0.00000,0.03196,0.97612,-0.18922,0.0,2023,6,7,17,50,54,342
50.79510,0.05618,-0.14858,0.00000,0.03123,0.97844,-0.18873,0.0,2023,6,7,17,50,54,352
50.79520,0.10868,-0.07857,0.00000,0.03099,0.97783,-0.19032,0.0,2023,6,7,17,50,54,362
50.79530,0.12618,0.02643,0.00000,0.03050,0.97624,-0.18910,0.0,2023,6,7,17,50,54,372
50.79540,-0.04882,-0.07857,0.00000,0.03099,0.97771,-0.18849,0.0,2023,6,7,17,50,54,382
50.79550,-0.01382,0.00893,0.00000,0.02952,0.97807,-0.19044,0.0,2023,6,7,17,50,54,392
50.79560,-0.04882,0.09642,0.00000,0.02940,0.97673,-0.18898,0.0,2023,6,7,17,50,54,402
50.79570,0.07368,-0.04357,0.00000,0.03270,0.97563,-0.18971,0.0,2023,6,7,17,50,54,412
50.79580,-0.10132,0.02643,0.00000,0.03074,0.97722,-0.18678,0.0,2023,6,7,17,50,54,422
50.79590,0.07368,-0.09607,0.00000,0.03062,0.97624,-0.18983,0.0,2023,6,7,17,50,54,432
50.79600,-0.10132,0.16643,0.00000,0.03050,0.97563,-0.19166,0.0,2023,6,7,17,50,54,442
50.79610,0.02118,0.18393,0.00000,0.03038,0.97710,-0.18861,0.0,2023,6,7,17,50,54,452
50.79620,0.09118,-0.20107,0.00000,0.03160,0.97588,-0.18922,0.0,2023,6,7,17,50,54,462
50.79630,0.03868,0.21893,0.00000,0.03172,0.97832,-0.18849,0.0,2023,6,7,17,50,54,472
50.79640,-0.04882,-0.02607,0.00000,0.03196,0.97600,-0.18861,0.0,2023,6,7,17,50,54,482
50.79650,-0.01382,0.09642,0.00000,0.03184,0.97539,-0.18812,0.0,2023,6,7,17,50,54,492
#2023/06/07 17:50:54
