#2023/06/07 09:34:00
time,wx,wy,wz,ax,ay,az,yy,MM,dd,hh,mm,ss,ms
10.54510,0.08750,0.00910,0.00000,0.02989,0.97637,-0.19471,0.0,0,0,0,0,0,0,156
10.54520,-0.03500,0.11410,0.00000,0.02928,0.97588,-0.19130,0.0,0,0,0,0,0,0,156
10.54530,-0.08750,-0.21840,0.00000,0.02830,0.97539,-0.19264,0.0,0,0,0,0,0,0,156
10.54540,0.07000,0.02660,0.00000,0.02904,0.97600,-0.19081,0.0,0,0,0,0,0,0,171
10.54550,-0.08750,0.16660,0.00000,0.02904,0.97527,-0.19374,0.0,0,0,0,0,0,0,171
10.54560,0.07000,0.06160,0.00000,0.02916,0.97649,-0.19020,0.0,0,0,0,0,0,0,171
10.54570,-0.15750,0.32410,0.00000,0.02904,0.97722,-0.19264,0.0,0,0,0,0,0,0,171
10.54580,0.15750,-0.25340,0.00000,0.02879,0.97393,-0.19191,0.0,0,0,0,0,0,0,171
10.54590,-0.01750,0.09660,0.00000,0.02879,0.97698,-0.19081,0.0,0,0,0,0,0,0,171
10.54600,0.07000,-0.06090,0.00000,0.02721,0.97661,-0.19044,0.0,0,0,0,0,0,0,171
10.54610,-0.08750,0.20160,0.00000,0.02989,0.97527,-0.19227,0.0,0,0,0,0,0,0,171
10.54620,-0.08750,-0.07840,0.00000,0.02769,0.97637,-0.19191,0.0,0,0,0,0,0,0,171
10.54630,-0.08750,-0.06090,0.00000,0.02830,0.97393,-0.19154,0.0,0,0,0,0,0,0,171
10.54640,-0.17500,0.18410,0.00000,0.02782,0.97795,-0.19105,0.0,0,0,0,0,0,0,171
10.54650,0.03500,-0.07840,0.00000,0.02794,0.97405,-0.19069,0.0,0,0,0,0,0,0,171
10.54660,0.00000,-0.02590,0.00000,0.02782,0.97356,-0.19215,0.0,0,0,0,0,0,0,171
10.54670,0.10500,0.16660,0.00000,0.02940,0.97502,-0.19130,0.0,0,0,0,0,0,0,171
10.54680,0.03500,-0.04340,0.00000,0.02940,0.97393,-0.19069,0.0,0,0,0,0,0,0,171
10.54690,-0.01750,-0.06090,0.00000,0.03074,0.97612,-0.19422,0.0,0,0,0,0,0,0,171
10.54700,-0.01750,-0.13090,0.00000,0.02708,0.97746,-0.19313,0.0,0,0,0,0,0,0,171
10.54710,-0.01750,-0.07840,0.00000,0.02879,0.97441,-0.19032,0.0,0,0,0,0,0,0,187
10.54720,-0.12250,-0.13090,0.00000,0.02952,0.97429,-0.19386,0.0,0,0,0,0,0,0,203
10.54730,0.14000,-0.16590,0.00000,0.02721,0.97637,-0.19056,0.0,0,0,0,0,0,0,203
10.54740,-0.22750,0.11410,0.00000,0.02843,0.97710,-0.19264,0.0,0,0,0,0,0,0,203
10.54750,0.00000,0.20160,0.00000,0.02965,0.97429,-0.19215,0.0,0,0,0,0,0,0,203
10.54760,-0.08750,0.04410,0.00000,0.02647,0.97502,-0.19154,0.0,0,0,0,0,0,0,203
10.54770,-0.10500,0.14910,0.00000,0.03013,0.97576,-0.19056,0.0,0,0,0,0,0,0,203
10.54780,0.05250,0.09660,0.00000,0.02916,0.97502,-0.19227,0.0,0,0,0,0,0,1,-781
10.54790,0.00000,-0.14840,0.00000,0.02952,0.97454,-0.19117,0.0,0,0,0,0,0,1,-781
10.54800,0.05250,-0.16590,0.00000,0.02818,0.97673,-0.19166,0.0,0,0,0,0,0,1,-781
10.54810,0.07000,-0.02590,0.00000,0.02855,0.97527,-0.19178,0.0,0,0,0,0,0,1,-781
10.54820,0.08750,0.02660,0.00000,0.02733,0.97454,-0.19239,0.0,0,0,0,0,0,1,-765
10.54830,-0.08750,-0.04340,0.00000,0.02733,0.97478,-0.19325,0.0,0,0,0,0,0,1,-763
10.54840,0.10500,0.11410,0.00000,0.03111,0.97429,-0.19313,0.0,0,0,0,0,0,1,-763
10.54850,0.05250,0.07910,0.00000,0.02782,0.97759,-0.19544,0.0,0,0,0,0,0,1,-763
10.54860,0.00000,0.18410,0.00000,0.02818,0.97698,-0.19020,0.0,0,0,0,0,0,1,-763
10.54870,0.17500,0.02660,0.00000,0.02916,0.97515,-0.19374,0.0,0,0,0,0,0,1,-763
10.54880,0.10500,0.04410,0.00000,0.03062,0.97649,-0.19276,0.0,0,0,0,0,0,1,-763
10.54890,0.00000,0.14910,0.00000,0.02940,0.97588,-0.19447,0.0,0,0,0,0,0,1,-763
10.54900,0.15750,-0.02590,0.00000,0.02769,0.97637,-0.19056,0.0,0,0,0,0,0,1,-763
10.54910,0.01750,-0.25340,0.00000,0.02940,0.97478,-0.19166,0.0,0,0,0,0,0,1,-749
10.54920,-0.07000,0.30660,0.00000,0.02867,0.97868,-0.19117,0.0,0,0,0,0,0,1,-749
10.54930,0.00000,-0.02590,0.00000,0.03050,0.97698,-0.19264,0.0,0,0,0,0,0,1,-749
10.54940,0.10500,-0.11340,0.00000,0.02672,0.97393,-0.19093,0.0,0,0,0,0,0,1,-749
10.54950,0.00000,0.02660,0.00000,0.02952,0.97734,-0.19398,0.0,0,0,0,0,0,1,-749
10.54960,0.19250,-0.07840,0.00000,0.02977,0.97527,-0.19227,0.0,0,0,0,0,0,1,-749
10.54970,0.00000,0.06160,0.00000,0.02696,0.97612,-0.19276,0.0,0,0,0,0,0,1,-749
10.54980,0.01750,-0.02590,0.00000,0.03062,0.97380,-0.19215,0.0,0,0,0,0,0,1,-749
10.54990,0.03500,0.00910,0.00000,0.02989,0.97624,-0.19191,0.0,0,0,0,0,0,1,-749
10.55000,-0.17500,0.04410,0.00000,0.02818,0.97502,-0.19239,0.0,0,0,0,0,0,1,-749
10.55010,0.00000,0.02660,0.00000,0.02891,0.97612,-0.19398,0.0,0,0,0,0,0,1,-734
10.55020,-0.07000,-0.02590,0.00000,0.02965,0.97710,-0.19227,0.0,0,0,0,0,0,1,-734
10.55030,0.21000,-0.23590,0.00000,0.02733,0.97576,-0.19313,0.0,0,0,0,0,0,1,-734
10.55040,0.01750,-0.02590,0.00000,0.02952,0.97710,-0.19337,0.0,0,0,0,0,0,1,-734
10.55050,-0.10500,0.11410,0.00000,0.03099,0.97783,-0.19386,0.0,0,0,0,0,0,1,-734
10.55060,-0.26250,0.11410,0.00000,0.03062,0.97551,-0.19386,0.0,0,0,0,0,0,1,-734
10.55070,0.21000,0.02660,0.00000,0.02891,0.97515,-0.19239,0.0,0,0,0,0,0,1,-734
10.55080,-0.03500,0.04410,0.00000,0.03013,0.97661,-0.19410,0.0,0,0,0,0,0,1,-718
10.55090,-0.05250,-0.11340,0.00000,0.02916,0.97527,-0.19276,0.0,0,0,0,0,0,1,-718
10.55100,-0.14000,0.02660,0.00000,0.02916,0.97820,-0.19325,0.0,0,0,0,0,0,1,-718
10.55110,-0.08750,0.07910,0.00000,0.02745,0.97759,-0.19264,0.0,0,0,0,0,0,1,-718
10.55120,0.00000,0.00910,0.00000,0.03062,0.97685,-0.19532,0.0,0,0,0,0,0,1,-718
10.55130,0.17500,-0.04340,0.00000,0.03013,0.97661,-0.19349,0.0,0,0,0,0,0,1,-702
10.55140,0.05250,-0.02590,0.00000,0.02794,0.97551,-0.19191,0.0,0,0,0,0,0,1,-702
10.55150,-0.01750,-0.11340,0.00000,0.02696,0.97783,-0.19349,0.0,0,0,0,0,0,1,-702
10.55160,0.01750,0.09660,0.00000,0.02904,0.97502,-0.19483,0.0,0,0,0,0,0,1,-702
10.55170,-0.01750,0.04410,0.00000,0.02855,0.97612,-0.19349,0.0,0,0,0,0,0,1,-702
10.55180,0.03500,0.06160,0.00000,0.02721,0.97417,-0.19386,0.0,0,0,0,0,0,1,-702
10.55190,0.08750,0.13160,0.00000,0.02782,0.97539,-0.19544,0.0,0,0,0,0,0,1,-702
10.55200,-0.07000,0.27160,0.00000,0.02891,0.97600,-0.19264,0.0,0,0,0,0,0,1,-702
10.55210,0.05250,-0.14840,0.00000,0.02806,0.97746,-0.19069,0.0,0,0,0,0,0,1,-687
10.55220,0.00000,-0.20090,0.00000,0.02928,0.97649,-0.19191,0.0,0,0,0,0,0,1,-687
10.55230,-0.01750,0.00910,0.00000,0.03013,0.97563,-0.19337,0.0,0,0,0,0,0,1,-687
10.55240,-0.08750,-0.11340,0.00000,0.02855,0.97624,-0.19361,0.0,0,0,0,0,0,1,-687
10.55250,-0.01750,0.14910,0.00000,0.02867,0.97673,-0.19166,0.0,0,0,0,0,0,1,-687
10.55260,-0.24500,0.18410,0.00000,0.02891,0.97685,-0.19166,0.0,0,0,0,0,0,1,-687
10.55270,0.07000,-0.02590,0.00000,0.02891,0.97429,-0.19203,0.0,0,0,0,0,0,1,-687
10.55280,-0.14000,-0.06090,0.00000,0.02818,0.97515,-0.19227,0.0,0,0,0,0,0,1,-671
10.55290,0.05250,0.04410,0.00000,0.02928,0.97649,-0.19203,0.0,0,0,0,0,0,1,-671
10.55300,0.15750,-0.07840,0.00000,0.02745,0.97588,-0.19081,0.0,0,0,0,0,0,1,-671
10.55310,-0.21000,0.07910,0.00000,0.02782,0.97502,-0.19227,0.0,0,0,0,0,0,1,-655
10.55320,-0.03500,-0.09590,0.00000,0.02855,0.97868,-0.19069,0.0,0,0,0,0,0,1,-655
10.55330,0.01750,0.13160,0.00000,0.02952,0.97624,-0.19361,0.0,0,0,0,0,0,1,-655
10.55340,0.05250,0.23660,0.00000,0.03050,0.97527,-0.19264,0.0,0,0,0,0,0,1,-655
10.55350,-0.21000,0.25410,0.00000,0.03013,0.97551,-0.19142,0.0,0,0,0,0,0,1,-655
10.55360,0.15750,0.00910,0.00000,0.03026,0.97502,-0.18947,0.0,0,0,0,0,0,1,-655
10.55370,0.05250,0.18410,0.00000,0.02879,0.97698,-0.18959,0.0,0,0,0,0,0,1,-655
10.55380,-0.08750,0.21910,0.00000,0.02794,0.97576,-0.19252,0.0,0,0,0,0,0,1,-655
10.55390,0.14000,0.00910,0.00000,0.02965,0.97661,-0.18983,0.0,0,0,0,0,0,1,-655
10.55400,0.01750,0.06160,0.00000,0.03087,0.97527,-0.19166,0.0,0,0,0,0,0,1,-655
10.55410,0.00000,0.02660,0.00000,0.02977,0.97771,-0.19093,0.0,0,0,0,0,0,1,-640
10.55420,0.10500,-0.16590,0.00000,0.03050,0.97539,-0.19215,0.0,0,0,0,0,0,1,-640
10.55430,-0.17500,0.23660,0.00000,0.03050,0.97612,-0.19044,0.0,0,0,0,0,0,1,-640
10.55440,0.12250,-0.13090,0.00000,0.02843,0.97466,-0.19361,0.0,0,0,0,0,0,1,-640
10.55450,0.01750,-0.18340,0.00000,0.03050,0.97637,-0.19093,0.0,0,0,0,0,0,1,-640
10.55460,-0.24500,0.11410,0.00000,0.03013,0.97441,-0.19300,0.0,0,0,0,0,0,1,-640
10.55470,-0.05250,0.13160,0.00000,0.02684,0.97380,-0.19239,0.0,0,0,0,0,0,1,-640
10.55480,-0.05250,-0.06090,0.00000,0.03013,0.97515,-0.19203,0.0,0,0,0,0,0,1,-640
10.55490,0.00000,-0.04340,0.00000,0.02977,0.97600,-0.19435,0.0,0,0,0,0,0,1,-623
10.55500,0.03500,-0.14840,0.00000,0.02928,0.97563,-0.19105,0.0,0,0,0,0,0,1,-623
10.55510,0.00000,0.13160,0.00000,0.02769,0.97454,-0.19191,0.0,0,0,0,0,0,1,-623
10.55520,0.10500,-0.18340,0.00000,0.02708,0.97661,-0.19105,0.0,0,0,0,0,0,1,-623
10.55530,0.00000,0.04410,0.00000,0.03026,0.97527,-0.19093,0.0,0,0,0,0,0,1,-623
10.55540,-0.05250,0.06160,0.00000,0.02769,0.97515,-0.19130,0.0,0,0,0,0,0,1,-607
10.55550,0.14000,0.02660,0.00000,0.03050,0.97624,-0.19337,0.0,0,0,0,0,0,1,-607
10.55560,-0.08750,-0.04340,0.00000,0.02721,0.97698,-0.19130,0.0,0,0,0,0,0,1,-607
10.55570,-0.12250,0.16660,0.00000,0.02867,0.97624,-0.19117,0.0,0,0,0,0,0,1,-607
10.55580,0.08750,0.06160,0.00000,0.02904,0.97734,-0.19130,0.0,0,0,0,0,0,1,-607
10.55590,-0.10500,0.18410,0.00000,0.02708,0.97661,-0.19227,0.0,0,0,0,0,0,1,-607
10.55600,0.08750,-0.09590,0.00000,0.02904,0.97722,-0.19227,0.0,0,0,0,0,0,1,-607
10.55610,0.01750,0.00910,0.00000,0.03038,0.97624,-0.19276,0.0,0,0,0,0,0,1,-607
10.55620,0.14000,-0.13090,0.00000,0.02830,0.97759,-0.19398,0.0,0,0,0,0,0,1,-607
10.55630,0.07000,-0.00840,0.00000,0.02891,0.97393,-0.19081,0.0,0,0,0,0,0,1,-607
10.55640,0.10500,-0.06090,0.00000,0.02843,0.97588,-0.19044,0.0,0,0,0,0,0,1,-592
10.55650,0.01750,-0.20090,0.00000,0.03026,0.97600,-0.19325,0.0,0,0,0,0,0,1,-592
10.55660,0.08750,0.07910,0.00000,0.02891,0.97612,-0.18983,0.0,0,0,0,0,0,1,-592
10.55670,0.12250,-0.02590,0.00000,0.02794,0.97502,-0.19227,0.0,0,0,0,0,0,1,-592
10.55680,0.08750,-0.02590,0.00000,0.02721,0.97502,-0.19020,0.0,0,0,0,0,0,1,-592
10.55690,0.08750,-0.00840,0.00000,0.02879,0.97539,-0.19300,0.0,0,0,0,0,0,1,-592
10.55700,0.08750,-0.06090,0.00000,0.02928,0.97698,-0.19239,0.0,0,0,0,0,0,1,-592
10.55710,0.19250,0.07910,0.00000,0.03135,0.97478,-0.19276,0.0,0,0,0,0,0,1,-576
10.55720,-0.01750,0.06160,0.00000,0.02843,0.97588,-0.19203,0.0,0,0,0,0,0,1,-576
10.55730,0.01750,0.16660,0.00000,0.02794,0.97405,-0.19288,0.0,0,0,0,0,0,1,-576
10.55740,-0.10500,0.00910,0.00000,0.03062,0.97722,-0.19215,0.0,0,0,0,0,0,1,-576
10.55750,0.19250,-0.00840,0.00000,0.03111,0.97685,-0.19361,0.0,0,0,0,0,0,1,-576
10.55760,0.07000,0.11410,0.00000,0.02928,0.97563,-0.19374,0.0,0,0,0,0,0,1,-576
10.55770,0.10500,-0.13090,0.00000,0.02855,0.97563,-0.19166,0.0,0,0,0,0,0,1,-576
10.55780,-0.03500,-0.09590,0.00000,0.02794,0.97576,-0.19374,0.0,0,0,0,0,0,1,-576
10.55790,0.14000,0.13160,0.00000,0.03209,0.97576,-0.19337,0.0,0,0,0,0,0,1,-576
10.55800,-0.08750,0.02660,0.00000,0.02940,0.97515,-0.19410,0.0,0,0,0,0,0,1,-576
10.55810,0.05250,0.00910,0.00000,0.02855,0.97698,-0.19557,0.0,0,0,0,0,0,1,-560
10.55820,0.00000,-0.09590,0.00000,0.02965,0.97612,-0.19300,0.0,0,0,0,0,0,1,-560
10.55830,-0.05250,-0.00840,0.00000,0.02965,0.97417,-0.19252,0.0,0,0,0,0,0,1,-560
10.55840,0.03500,0.18410,0.00000,0.03026,0.97661,-0.19130,0.0,0,0,0,0,0,1,-545
10.55850,0.00000,0.34160,0.00000,0.02855,0.97685,-0.19117,0.0,0,0,0,0,0,1,-545
10.55860,0.00000,0.06160,0.00000,0.03001,0.97710,-0.19325,0.0,0,0,0,0,0,1,-545
10.55870,-0.15750,0.20160,0.00000,0.02782,0.97637,-0.19300,0.0,0,0,0,0,0,1,-545
10.55880,-0.07000,-0.06090,0.00000,0.02818,0.97466,-0.19520,0.0,0,0,0,0,0,1,-545
10.55890,0.07000,0.14910,0.00000,0.02940,0.97612,-0.19252,0.0,0,0,0,0,0,1,-545
10.55900,-0.17500,-0.13090,0.00000,0.02867,0.97283,-0.19300,0.0,0,0,0,0,0,1,-545
10.55910,-0.22750,0.00910,0.00000,0.02989,0.97868,-0.19276,0.0,0,0,0,0,0,1,-533
10.55920,0.14000,0.06160,0.00000,0.02977,0.97832,-0.19374,0.0,0,0,0,0,0,1,-533
10.55930,0.08750,-0.09590,0.00000,0.03184,0.97588,-0.19288,0.0,0,0,0,0,0,1,-533
10.55940,-0.05250,-0.18340,0.00000,0.03099,0.97637,-0.19288,0.0,0,0,0,0,0,1,-529
10.55950,-0.03500,0.07910,0.00000,0.02843,0.97844,-0.19227,0.0,0,0,0,0,0,1,-529
10.55960,0.05250,0.09660,0.00000,0.02916,0.97515,-0.19288,0.0,0,0,0,0,0,1,-529
10.55970,-0.03500,0.11410,0.00000,0.03062,0.97612,-0.19459,0.0,0,0,0,0,0,1,-529
10.55980,-0.19250,-0.00840,0.00000,0.02818,0.97637,-0.19447,0.0,0,0,0,0,0,1,-529
10.55990,-0.01750,0.02660,0.00000,0.02989,0.97746,-0.19142,0.0,0,0,0,0,0,1,-529
10.56000,-0.07000,-0.07840,0.00000,0.02989,0.97527,-0.19374,0.0,0,0,0,0,0,1,-529
10.56010,0.01750,0.20160,0.00000,0.03026,0.97551,-0.19264,0.0,0,0,0,0,0,1,-513
10.56020,-0.07000,-0.14840,0.00000,0.03001,0.97563,-0.19374,0.0,0,0,0,0,0,1,-513
10.56030,-0.10500,0.21910,0.00000,0.02965,0.97600,-0.19386,0.0,0,0,0,0,0,1,-513
10.56040,0.03500,-0.07840,0.00000,0.02843,0.97771,-0.19349,0.0,0,0,0,0,0,1,-513
10.56050,0.01750,0.00910,0.00000,0.03062,0.97502,-0.19422,0.0,0,0,0,0,0,1,-513
10.56060,0.03500,-0.18340,0.00000,0.03026,0.97832,-0.19337,0.0,0,0,0,0,0,1,-513
10.56070,-0.08750,-0.04340,0.00000,0.02647,0.97502,-0.19386,0.0,0,0,0,0,0,1,-513
10.56080,0.17500,-0.06090,0.00000,0.02879,0.97563,-0.19337,0.0,0,0,0,0,0,1,-497
10.56090,-0.10500,0.07910,0.00000,0.03013,0.97734,-0.19410,0.0,0,0,0,0,0,1,-497
10.56100,-0.08750,0.21910,0.00000,0.02843,0.97551,-0.19313,0.0,0,0,0,0,0,1,-497
10.56110,0.12250,0.09660,0.00000,0.03099,0.97563,-0.19386,0.0,0,0,0,0,0,1,-482
10.56120,-0.15750,-0.06090,0.00000,0.02855,0.97673,-0.19447,0.0,0,0,0,0,0,1,-482
10.56130,0.05250,0.09660,0.00000,0.02891,0.97844,-0.19410,0.0,0,0,0,0,0,1,-482
10.56140,-0.08750,0.02660,0.00000,0.03087,0.97576,-0.19349,0.0,0,0,0,0,0,1,-482
10.56150,-0.01750,-0.04340,0.00000,0.02891,0.97441,-0.19435,0.0,0,0,0,0,0,1,-482
10.56160,-0.22750,0.09660,0.00000,0.03184,0.97685,-0.19142,0.0,0,0,0,0,0,1,-482
10.56170,-0.17500,0.23660,0.00000,0.02989,0.97734,-0.19203,0.0,0,0,0,0,0,1,-482
10.56180,-0.12250,0.00910,0.00000,0.02782,0.97454,-0.19435,0.0,0,0,0,0,0,1,-482
10.56190,-0.12250,0.04410,0.00000,0.02977,0.97466,-0.19130,0.0,0,0,0,0,0,1,-466
10.56200,0.01750,0.00910,0.00000,0.02965,0.97441,-0.19386,0.0,0,0,0,0,0,1,-466
10.56210,0.07000,-0.16590,0.00000,0.02928,0.97563,-0.19337,0.0,0,0,0,0,0,1,-465
10.56220,-0.10500,-0.00840,0.00000,0.02879,0.97393,-0.19264,0.0,0,0,0,0,0,1,-465
10.56230,0.15750,0.00910,0.00000,0.02904,0.97893,-0.19325,0.0,0,0,0,0,0,1,-465
10.56240,0.07000,-0.13090,0.00000,0.02891,0.97624,-0.19313,0.0,0,0,0,0,0,1,-450
10.56250,0.07000,0.20160,0.00000,0.02794,0.97795,-0.19471,0.0,0,0,0,0,0,1,-450
10.56260,0.01750,-0.00840,0.00000,0.02867,0.97539,-0.19142,0.0,0,0,0,0,0,1,-450
10.56270,0.08750,0.00910,0.00000,0.02940,0.97478,-0.19020,0.0,0,0,0,0,0,1,-450
10.56280,-0.07000,0.00910,0.00000,0.03062,0.97807,-0.19398,0.0,0,0,0,0,0,1,-450
10.56290,-0.17500,-0.02590,0.00000,0.03026,0.97527,-0.19459,0.0,0,0,0,0,0,1,-450
10.56300,0.01750,-0.14840,0.00000,0.02855,0.97783,-0.19374,0.0,0,0,0,0,0,1,-450
10.56310,0.12250,-0.04340,0.00000,0.03050,0.97637,-0.19056,0.0,0,0,0,0,0,1,-435
10.56320,-0.19250,0.11410,0.00000,0.02867,0.97612,-0.19252,0.0,0,0,0,0,0,1,-435
10.56330,-0.21000,0.06160,0.00000,0.02855,0.97454,-0.19325,0.0,0,0,0,0,0,1,-435
10.56340,-0.05250,-0.02590,0.00000,0.02830,0.97478,-0.19422,0.0,0,0,0,0,0,1,-435
10.56350,0.01750,-0.06090,0.00000,0.03074,0.97673,-0.19178,0.0,0,0,0,0,0,1,-435
10.56360,-0.21000,-0.00840,0.00000,0.02843,0.97698,-0.19264,0.0,0,0,0,0,0,1,-435
10.56370,0.07000,-0.07840,0.00000,0.02940,0.97722,-0.19410,0.0,0,0,0,0,0,1,-435
10.56380,0.01750,-0.04340,0.00000,0.02928,0.97673,-0.19300,0.0,0,0,0,0,0,1,-435
10.56390,-0.14000,0.14910,0.00000,0.02782,0.97576,-0.19349,0.0,0,0,0,0,0,1,-435
10.56400,0.07000,-0.02590,0.00000,0.02904,0.97551,-0.19239,0.0,0,0,0,0,0,1,-419
10.56410,0.01750,0.06160,0.00000,0.03001,0.97844,-0.19105,0.0,0,0,0,0,0,1,-419
10.56420,0.03500,0.14910,0.00000,0.02843,0.97563,-0.19239,0.0,0,0,0,0,0,1,-419
10.56430,-0.17500,0.16660,0.00000,0.02635,0.97380,-0.19410,0.0,0,0,0,0,0,1,-419
10.56440,0.19250,-0.07840,0.00000,0.02891,0.97661,-0.19508,0.0,0,0,0,0,0,1,-419
10.56450,0.21000,-0.09590,0.00000,0.02818,0.97649,-0.19618,0.0,0,0,0,0,0,1,-406
10.56460,-0.15750,0.09660,0.00000,0.02867,0.97722,-0.19557,0.0,0,0,0,0,0,1,-403
10.56470,0.03500,0.07910,0.00000,0.03099,0.97795,-0.19300,0.0,0,0,0,0,0,1,-403
10.56480,-0.05250,0.04410,0.00000,0.02891,0.97515,-0.19398,0.0,0,0,0,0,0,1,-403
10.56490,0.01750,0.18410,0.00000,0.02879,0.97429,-0.19349,0.0,0,0,0,0,0,1,-393
10.56500,-0.19250,0.13160,0.00000,0.03160,0.97612,-0.19264,0.0,0,0,0,0,0,1,-393
10.56510,0.21000,-0.21840,0.00000,0.02989,0.97698,-0.19422,0.0,0,0,0,0,0,1,-387
10.56520,-0.15750,-0.04340,0.00000,0.02867,0.97771,-0.19252,0.0,0,0,0,0,0,1,-387
10.56530,0.01750,0.06160,0.00000,0.02977,0.97832,-0.19398,0.0,0,0,0,0,0,1,-387
10.56540,-0.01750,0.06160,0.00000,0.02916,0.97820,-0.19130,0.0,0,0,0,0,0,1,-387
10.56550,-0.01750,0.02660,0.00000,0.02757,0.97417,-0.19410,0.0,0,0,0,0,0,1,-387
10.56560,0.10500,-0.02590,0.00000,0.03074,0.97771,-0.19398,0.0,0,0,0,0,0,1,-387
10.56570,-0.05250,0.06160,0.00000,0.03074,0.97868,-0.19081,0.0,0,0,0,0,0,1,-371
10.56580,0.07000,-0.00840,0.00000,0.02977,0.97893,-0.19398,0.0,0,0,0,0,0,1,-371
10.56590,0.03500,-0.09590,0.00000,0.02818,0.97588,-0.19252,0.0,0,0,0,0,0,1,-371
10.56600,0.01750,-0.28840,0.00000,0.02830,0.97478,-0.19422,0.0,0,0,0,0,0,1,-371
10.56610,-0.05250,0.07910,0.00000,0.02794,0.97563,-0.19386,0.0,0,0,0,0,0,1,-371
10.56620,0.01750,0.11410,0.00000,0.03038,0.97661,-0.19288,0.0,0,0,0,0,0,1,-356
10.56630,0.03500,-0.02590,0.00000,0.02745,0.97405,-0.19410,0.0,0,0,0,0,0,1,-356
10.56640,-0.17500,0.21910,0.00000,0.02891,0.97612,-0.19325,0.0,0,0,0,0,0,1,-356
10.56650,0.10500,-0.00840,0.00000,0.02916,0.97759,-0.19386,0.0,0,0,0,0,0,1,-356
10.56660,-0.08750,0.04410,0.00000,0.02916,0.97344,-0.19361,0.0,0,0,0,0,0,1,-356
10.56670,0.05250,0.02660,0.00000,0.02965,0.97734,-0.19008,0.0,0,0,0,0,0,1,-356
10.56680,-0.17500,0.02660,0.00000,0.03087,0.97588,-0.19300,0.0,0,0,0,0,0,1,-356
10.56690,0.14000,-0.18340,0.00000,0.02733,0.97661,-0.19288,0.0,0,0,0,0,0,1,-356
10.56700,-0.17500,-0.00840,0.00000,0.02782,0.97539,-0.19252,0.0,0,0,0,0,0,1,-356
10.56710,0.15750,0.04410,0.00000,0.02916,0.97685,-0.19215,0.0,0,0,0,0,0,1,-340
10.56720,-0.26250,0.11410,0.00000,0.03001,0.97649,-0.19166,0.0,0,0,0,0,0,1,-340
10.56730,0.21000,-0.18340,0.00000,0.02916,0.97685,-0.19154,0.0,0,0,0,0,0,1,-340
10.56740,-0.03500,-0.02590,0.00000,0.03038,0.97576,-0.19178,0.0,0,0,0,0,0,1,-340
10.56750,-0.01750,-0.04340,0.00000,0.03074,0.97441,-0.19239,0.0,0,0,0,0,0,1,-340
10.56760,-0.07000,0.16660,0.00000,0.02891,0.97576,-0.19069,0.0,0,0,0,0,0,1,-340
10.56770,0.08750,0.14910,0.00000,0.02818,0.97649,-0.19313,0.0,0,0,0,0,0,1,-324
10.56780,0.00000,0.14910,0.00000,0.02928,0.97856,-0.19264,0.0,0,0,0,0,0,1,-324
10.56790,0.00000,0.09660,0.00000,0.03050,0.97466,-0.19178,0.0,0,0,0,0,0,1,-324
10.56800,-0.01750,0.04410,0.00000,0.02684,0.97649,-0.19105,0.0,0,0,0,0,0,1,-324
10.56810,-0.07000,-0.02590,0.00000,0.02928,0.97624,-0.19093,0.0,0,0,0,0,0,1,-308
10.56820,0.00000,0.13160,0.00000,0.02928,0.97905,-0.19276,0.0,0,0,0,0,0,1,-308
10.56830,0.00000,-0.02590,0.00000,0.02965,0.97563,-0.19203,0.0,0,0,0,0,0,1,-308
10.56840,-0.01750,0.02660,0.00000,0.02904,0.97710,-0.19239,0.0,0,0,0,0,0,1,-308
10.56850,-0.03500,-0.06090,0.00000,0.02782,0.97624,-0.19203,0.0,0,0,0,0,0,1,-308
10.56860,-0.05250,0.11410,0.00000,0.02965,0.97710,-0.19105,0.0,0,0,0,0,0,1,-308
10.56870,-0.08750,0.11410,0.00000,0.03135,0.97588,-0.19264,0.0,0,0,0,0,0,1,-308
10.56880,-0.12250,-0.00840,0.00000,0.02891,0.97661,-0.19374,0.0,0,0,0,0,0,1,-308
10.56890,-0.14000,-0.00840,0.00000,0.02867,0.97661,-0.19276,0.0,0,0,0,0,0,1,-308
10.56900,-0.12250,-0.11340,0.00000,0.02867,0.97307,-0.19142,0.0,0,0,0,0,0,1,-308
10.56910,-0.12250,0.11410,0.00000,0.02952,0.97637,-0.19361,0.0,0,0,0,0,0,1,-293
10.56920,0.03500,-0.14840,0.00000,0.03001,0.97563,-0.19313,0.0,0,0,0,0,0,1,-293
10.56930,-0.03500,-0.02590,0.00000,0.02904,0.97612,-0.19349,0.0,0,0,0,0,0,1,-293
10.56940,-0.17500,0.28910,0.00000,0.02916,0.97722,-0.19300,0.0,0,0,0,0,0,1,-277
10.56950,0.21000,-0.11340,0.00000,0.02806,0.97563,-0.19398,0.0,0,0,0,0,0,1,-277
10.56960,0.10500,-0.06090,0.00000,0.02782,0.97588,-0.19288,0.0,0,0,0,0,0,1,-277
10.56970,0.15750,-0.02590,0.00000,0.02928,0.97637,-0.19398,0.0,0,0,0,0,0,1,-277
10.56980,-0.08750,0.16660,0.00000,0.02928,0.97685,-0.19300,0.0,0,0,0,0,0,1,-277
10.56990,0.03500,0.00910,0.00000,0.02733,0.97759,-0.19178,0.0,0,0,0,0,0,1,-277
10.57000,-0.12250,-0.06090,0.00000,0.02989,0.97649,-0.19276,0.0,0,0,0,0,0,1,-277
10.57010,-0.03500,0.07910,0.00000,0.03001,0.97734,-0.19081,0.0,0,0,0,0,0,1,-261
10.57020,0.01750,-0.14840,0.00000,0.02916,0.97429,-0.19227,0.0,0,0,0,0,0,1,-261
10.57030,0.12250,0.09660,0.00000,0.03001,0.97563,-0.19142,0.0,0,0,0,0,0,1,-261
10.57040,-0.05250,0.23660,0.00000,0.03074,0.97649,-0.19178,0.0,0,0,0,0,0,1,-261
10.57050,0.07000,0.06160,0.00000,0.02928,0.97734,-0.19215,0.0,0,0,0,0,0,1,-261
10.57060,0.01750,-0.00840,0.00000,0.03001,0.97759,-0.19166,0.0,0,0,0,0,0,1,-261
10.57070,0.10500,0.02660,0.00000,0.02843,0.97551,-0.19288,0.0,0,0,0,0,0,1,-261
10.57080,0.00000,0.21910,0.00000,0.02745,0.97515,-0.19142,0.0,0,0,0,0,0,1,-261
10.57090,-0.10500,-0.27090,0.00000,0.02794,0.97332,-0.19300,0.0,0,0,0,0,0,1,-261
10.57100,-0.12250,-0.09590,0.00000,0.02611,0.97746,-0.19361,0.0,0,0,0,0,0,1,-261
10.57110,0.10500,-0.09590,0.00000,0.02891,0.97515,-0.19227,0.0,0,0,0,0,0,1,-246
10.57120,0.05250,-0.07840,0.00000,0.02916,0.97722,-0.19178,0.0,0,0,0,0,0,1,-246
10.57130,0.08750,0.11410,0.00000,0.02965,0.97576,-0.19264,0.0,0,0,0,0,0,1,-246
10.57140,-0.07000,0.20160,0.00000,0.02940,0.97502,-0.19410,0.0,0,0,0,0,0,1,-246
10.57150,0.08750,-0.02590,0.00000,0.02940,0.97637,-0.19264,0.0,0,0,0,0,0,1,-246
10.57160,-0.21000,0.14910,0.00000,0.02891,0.97527,-0.19264,0.0,0,0,0,0,0,1,-246
10.57170,0.00000,0.02660,0.00000,0.02977,0.97612,-0.19117,0.0,0,0,0,0,0,1,-246
10.57180,-0.08750,0.11410,0.00000,0.02879,0.97673,-0.19105,0.0,0,0,0,0,0,1,-246
10.57190,-0.03500,-0.06090,0.00000,0.02916,0.97600,-0.19410,0.0,0,0,0,0,0,1,-246
10.57200,-0.14000,0.20160,0.00000,0.02843,0.97661,-0.18983,0.0,0,0,0,0,0,1,-246
10.57210,-0.07000,-0.18340,0.00000,0.02965,0.97539,-0.19252,0.0,0,0,0,0,0,1,-230
10.57220,0.03500,0.00910,0.00000,0.02879,0.97600,-0.19032,0.0,0,0,0,0,0,1,-230
10.57230,0.14000,0.04410,0.00000,0.02745,0.97746,-0.19215,0.0,0,0,0,0,0,1,-230
10.57240,-0.19250,-0.04340,0.00000,0.02757,0.97405,-0.19215,0.0,0,0,0,0,0,1,-230
10.57250,0.12250,0.06160,0.00000,0.02867,0.97771,-0.19386,0.0,0,0,0,0,0,1,-214
10.57260,0.03500,-0.02590,0.00000,0.03013,0.97649,-0.19410,0.0,0,0,0,0,0,1,-214
10.57270,-0.05250,0.09660,0.00000,0.02855,0.97295,-0.19276,0.0,0,0,0,0,0,1,-214
10.57280,-0.01750,0.07910,0.00000,0.02904,0.97380,-0.19252,0.0,0,0,0,0,0,1,-214
10.57290,-0.12250,0.07910,0.00000,0.02879,0.97563,-0.19386,0.0,0,0,0,0,0,1,-214
10.57300,0.08750,-0.00840,0.00000,0.02879,0.97612,-0.19130,0.0,0,0,0,0,0,1,-214
10.57310,0.01750,0.18410,0.00000,0.02879,0.97710,-0.19398,0.0,0,0,0,0,0,1,-198
10.57320,0.03500,-0.09590,0.00000,0.02684,0.97600,-0.19496,0.0,0,0,0,0,0,1,-198
10.57330,0.22750,-0.09590,0.00000,0.02879,0.97576,-0.19154,0.0,0,0,0,0,0,1,-198
10.57340,0.08750,0.00910,0.00000,0.02745,0.97551,-0.19166,0.0,0,0,0,0,0,1,-198
10.57350,-0.01750,-0.16590,0.00000,0.02782,0.97563,-0.19471,0.0,0,0,0,0,0,1,-198
10.57360,-0.03500,0.06160,0.00000,0.02708,0.97637,-0.19398,0.0,0,0,0,0,0,1,-198
10.57370,0.03500,-0.23590,0.00000,0.02928,0.97856,-0.19142,0.0,0,0,0,0,0,1,-198
10.57380,-0.07000,-0.13090,0.00000,0.02952,0.97673,-0.19520,0.0,0,0,0,0,0,1,-198
10.57390,-0.05250,0.13160,0.00000,0.02916,0.97441,-0.19239,0.0,0,0,0,0,0,1,-198
10.57400,-0.10500,-0.06090,0.00000,0.02672,0.97649,-0.19264,0.0,0,0,0,0,0,1,-198
10.57410,-0.14000,-0.18340,0.00000,0.02879,0.97344,-0.19349,0.0,0,0,0,0,0,1,-183
10.57420,-0.12250,-0.18340,0.00000,0.02965,0.97405,-0.19374,0.0,0,0,0,0,0,1,-183
10.57430,0.07000,0.00910,0.00000,0.02989,0.97722,-0.19349,0.0,0,0,0,0,0,1,-183
10.57440,-0.01750,0.04410,0.00000,0.02879,0.97746,-0.19374,0.0,0,0,0,0,0,1,-183
10.57450,0.07000,0.06160,0.00000,0.02940,0.97746,-0.19422,0.0,0,0,0,0,0,1,-183
10.57460,-0.05250,-0.14840,0.00000,0.03111,0.97563,-0.19349,0.0,0,0,0,0,0,1,-183
10.57470,0.07000,0.07910,0.00000,0.03074,0.97734,-0.19300,0.0,0,0,0,0,0,1,-183
10.57480,0.03500,0.04410,0.00000,0.03087,0.97515,-0.19276,0.0,0,0,0,0,0,1,-183
10.57490,0.00000,-0.13090,0.00000,0.02952,0.97576,-0.19264,0.0,0,0,0,0,0,1,-183
10.57500,-0.21000,0.02660,0.00000,0.02977,0.97563,-0.19239,0.0,0,0,0,0,0,1,-183
10.57510,-0.07000,0.00910,0.00000,0.02684,0.97649,-0.19386,0.0,0,0,0,0,0,1,-167
10.57520,0.00000,0.00910,0.00000,0.02940,0.97612,-0.19252,0.0,0,0,0,0,0,1,-167
10.57530,-0.01750,-0.02590,0.00000,0.02965,0.97527,-0.19471,0.0,0,0,0,0,0,1,-167
10.57540,-0.08750,0.20160,0.00000,0.03062,0.97563,-0.19300,0.0,0,0,0,0,0,1,-167
10.57550,0.01750,0.02660,0.00000,0.03270,0.97441,-0.19435,0.0,0,0,0,0,0,1,-167
10.57560,-0.08750,0.11410,0.00000,0.02989,0.97600,-0.19361,0.0,0,0,0,0,0,1,-151
10.57570,-0.21000,0.11410,0.00000,0.03062,0.97637,-0.19569,0.0,0,0,0,0,0,1,-151
10.57580,-0.17500,0.04410,0.00000,0.02940,0.97649,-0.19361,0.0,0,0,0,0,0,1,-136
10.57590,0.05250,-0.02590,0.00000,0.02867,0.97588,-0.19142,0.0,0,0,0,0,0,1,-136
10.57600,0.14000,0.14910,0.00000,0.02940,0.97429,-0.19252,0.0,0,0,0,0,0,1,-120
10.57610,-0.10500,-0.09590,0.00000,0.02965,0.97807,-0.19410,0.0,0,0,0,0,0,1,-104
10.57620,-0.19250,0.06160,0.00000,0.03209,0.97588,-0.19215,0.0,0,0,0,0,0,1,-104
10.57630,0.00000,-0.04340,0.00000,0.02916,0.97527,-0.19398,0.0,0,0,0,0,0,1,-89
10.57640,0.00000,0.06160,0.00000,0.02879,0.97234,-0.19544,0.0,0,0,0,0,0,1,-73
10.57650,0.07000,-0.00840,0.00000,0.03062,0.97624,-0.19252,0.0,0,0,0,0,0,1,-67
10.57660,-0.10500,-0.04340,0.00000,0.03001,0.97734,-0.19532,0.0,0,0,0,0,0,1,-57
10.57670,0.00000,-0.04340,0.00000,0.02855,0.97478,-0.19496,0.0,0,0,0,0,0,1,-42
10.57680,-0.07000,-0.00840,0.00000,0.02965,0.97710,-0.19520,0.0,0,0,0,0,0,1,-26
10.57690,-0.08750,0.13160,0.00000,0.02696,0.97612,-0.19471,0.0,0,0,0,0,0,1,-26
10.57700,-0.10500,-0.06090,0.00000,0.03001,0.97612,-0.19410,0.0,0,0,0,0,0,1,-10
10.57710,-0.21000,-0.02590,0.00000,0.02952,0.97563,-0.19374,0.0,0,0,0,0,0,1,4
10.57720,0.05250,0.00910,0.00000,0.02879,0.97539,-0.19520,0.0,0,0,0,0,0,1,4
10.57730,0.21000,-0.07840,0.00000,0.02855,0.97551,-0.19508,0.0,0,0,0,0,0,1,20
10.57740,0.10500,-0.14840,0.00000,0.02940,0.97551,-0.19276,0.0,0,0,0,0,0,1,36
10.57750,-0.22750,0.14910,0.00000,0.03001,0.97624,-0.19508,0.0,0,0,0,0,0,1,52
10.57760,0.29750,-0.06090,0.00000,0.02818,0.97576,-0.19496,0.0,0,0,0,0,0,1,52
10.57770,-0.08750,0.13160,0.00000,0.02928,0.97466,-0.19410,0.0,0,0,0,0,0,1,67
10.57780,0.01750,0.25410,0.00000,0.02611,0.97624,-0.19142,0.0,0,0,0,0,0,1,83
10.57790,-0.07000,0.18410,0.00000,0.02843,0.97539,-0.19398,0.0,0,0,0,0,0,1,83
10.57800,-0.08750,0.13160,0.00000,0.02818,0.97356,-0.19361,0.0,0,0,0,0,0,1,99
10.57810,-0.14000,-0.18340,0.00000,0.03013,0.97734,-0.19361,0.0,0,0,0,0,0,1,114
10.57820,0.05250,0.11410,0.00000,0.02928,0.97551,-0.19398,0.0,0,0,0,0,0,1,130
10.57830,0.05250,-0.00840,0.00000,0.02977,0.97722,-0.19264,0.0,0,0,0,0,0,1,130
10.57840,0.08750,0.04410,0.00000,0.02733,0.97441,-0.19374,0.0,0,0,0,0,0,1,145
10.57850,-0.03500,0.02660,0.00000,0.02806,0.97490,-0.19288,0.0,0,0,0,0,0,1,163
10.57860,-0.17500,0.06160,0.00000,0.02818,0.97515,-0.19264,0.0,0,0,0,0,0,1,163
10.57870,-0.07000,0.02660,0.00000,0.02745,0.97624,-0.19410,0.0,0,0,0,0,0,1,177
10.57880,0.19250,-0.06090,0.00000,0.02782,0.97807,-0.19215,0.0,0,0,0,0,0,1,193
10.57890,0.01750,-0.16590,0.00000,0.02904,0.97502,-0.19483,0.0,0,0,0,0,0,1,208
10.57900,0.05250,-0.11340,0.00000,0.02977,0.97405,-0.19471,0.0,0,0,0,0,0,1,208
10.57910,0.10500,0.16660,0.00000,0.02952,0.97563,-0.19386,0.0,0,0,0,0,0,2,-775
10.57920,-0.14000,0.09660,0.00000,0.02867,0.97624,-0.19471,0.0,0,0,0,0,0,2,-760
10.57930,-0.07000,0.16660,0.00000,0.02708,0.97624,-0.19422,0.0,0,0,0,0,0,2,-750
10.57940,0.07000,-0.18340,0.00000,0.02867,0.97673,-0.19459,0.0,0,0,0,0,0,2,-744
10.57950,0.33250,-0.21840,0.00000,0.03026,0.97612,-0.19471,0.0,0,0,0,0,0,2,-728
10.57960,0.03500,0.00910,0.00000,0.03196,0.97734,-0.19337,0.0,0,0,0,0,0,2,-712
10.57970,-0.12250,0.02660,0.00000,0.03148,0.97478,-0.19325,0.0,0,0,0,0,0,2,-712
10.57980,-0.19250,0.07910,0.00000,0.02989,0.97807,-0.19410,0.0,0,0,0,0,0,2,-697
10.57990,0.05250,0.07910,0.00000,0.03087,0.97551,-0.19654,0.0,0,0,0,0,0,2,-681
10.58000,0.05250,0.02660,0.00000,0.02879,0.97234,-0.19203,0.0,0,0,0,0,0,2,-681
10.58010,-0.29750,-0.09590,0.00000,0.02696,0.97417,-0.19313,0.0,0,0,0,0,0,2,-666
10.58020,0.00000,-0.23590,0.00000,0.02721,0.97466,-0.19349,0.0,0,0,0,0,0,2,-650
10.58030,-0.07000,0.13160,0.00000,0.02830,0.97856,-0.19483,0.0,0,0,0,0,0,2,-650
10.58040,-0.07000,-0.07840,0.00000,0.02916,0.97319,-0.19276,0.0,0,0,0,0,0,2,-634
10.58050,0.00000,0.20160,0.00000,0.02867,0.97673,-0.19203,0.0,0,0,0,0,0,2,-612
10.58060,-0.05250,0.04410,0.00000,0.03184,0.97649,-0.19496,0.0,0,0,0,0,0,2,-601
10.58070,-0.01750,-0.20090,0.00000,0.02806,0.97624,-0.19532,0.0,0,0,0,0,0,2,-590
10.58080,-0.12250,0.21910,0.00000,0.02757,0.97698,-0.19447,0.0,0,0,0,0,0,2,-579
10.58090,-0.03500,-0.02590,0.00000,0.02586,0.97649,-0.19459,0.0,0,0,0,0,0,2,-567
10.58100,0.08750,-0.06090,0.00000,0.03062,0.97612,-0.19154,0.0,0,0,0,0,0,2,-556
10.58110,0.10500,0.04410,0.00000,0.02818,0.97539,-0.19557,0.0,0,0,0,0,0,2,-545
10.58120,0.05250,0.04410,0.00000,0.02989,0.97527,-0.19422,0.0,0,0,0,0,0,2,-530
10.58130,-0.12250,0.21910,0.00000,0.02952,0.97527,-0.19447,0.0,0,0,0,0,0,2,-523
10.58140,-0.17500,0.09660,0.00000,0.02965,0.97490,-0.19276,0.0,0,0,0,0,0,2,-512
10.58150,-0.08750,0.07910,0.00000,0.02989,0.97698,-0.19410,0.0,0,0,0,0,0,2,-502
10.58160,-0.08750,0.02660,0.00000,0.02977,0.97563,-0.19215,0.0,0,0,0,0,0,2,-490
10.58170,-0.01750,0.11410,0.00000,0.02684,0.97649,-0.19386,0.0,0,0,0,0,0,2,-479
10.58180,0.07000,0.09660,0.00000,0.02965,0.97441,-0.19410,0.0,0,0,0,0,0,2,-468
10.58190,0.01750,-0.11340,0.00000,0.02830,0.97576,-0.19605,0.0,0,0,0,0,0,2,-457
10.58200,0.07000,0.00910,0.00000,0.02769,0.97600,-0.19313,0.0,0,0,0,0,0,2,-446
10.58210,0.03500,-0.02590,0.00000,0.02806,0.97612,-0.19581,0.0,0,0,0,0,0,2,-435
10.58220,-0.19250,0.06160,0.00000,0.03013,0.97588,-0.19300,0.0,0,0,0,0,0,2,-424
10.58230,0.03500,0.09660,0.00000,0.02916,0.97454,-0.19496,0.0,0,0,0,0,0,2,-413
10.58240,0.08750,0.14910,0.00000,0.02940,0.97600,-0.19300,0.0,0,0,0,0,0,2,-402
10.58250,0.01750,0.09660,0.00000,0.02696,0.97698,-0.19569,0.0,0,0,0,0,0,2,-394
10.58260,-0.03500,-0.07840,0.00000,0.03135,0.97576,-0.19410,0.0,0,0,0,0,0,2,-394
10.58270,0.14000,0.13160,0.00000,0.02879,0.97685,-0.19398,0.0,0,0,0,0,0,2,-378
10.58280,-0.03500,0.06160,0.00000,0.02965,0.97698,-0.19386,0.0,0,0,0,0,0,2,-363
10.58290,0.07000,-0.07840,0.00000,0.02867,0.97746,-0.19227,0.0,0,0,0,0,0,2,-347
10.58300,0.05250,-0.21840,0.00000,0.03099,0.97502,-0.19520,0.0,0,0,0,0,0,2,-347
10.58310,0.01750,-0.04340,0.00000,0.02879,0.97661,-0.19349,0.0,0,0,0,0,0,2,-332
10.58320,0.00000,-0.02590,0.00000,0.03062,0.97661,-0.19361,0.0,0,0,0,0,0,2,-316
10.58330,0.21000,-0.07840,0.00000,0.03099,0.97502,-0.19422,0.0,0,0,0,0,0,2,-316
10.58340,0.08750,0.02660,0.00000,0.03074,0.97685,-0.19361,0.0,0,0,0,0,0,2,-300
10.58350,0.00000,0.00910,0.00000,0.03038,0.97588,-0.19483,0.0,0,0,0,0,0,2,-285
10.58360,0.03500,-0.02590,0.00000,0.02989,0.97649,-0.19471,0.0,0,0,0,0,0,2,-285
10.58370,0.07000,0.13160,0.00000,0.02977,0.97466,-0.19496,0.0,0,0,0,0,0,2,-269
10.58380,-0.07000,0.11410,0.00000,0.02855,0.97307,-0.19264,0.0,0,0,0,0,0,2,-253
10.58390,-0.10500,0.02660,0.00000,0.02830,0.97698,-0.19496,0.0,0,0,0,0,0,2,-238
10.58400,-0.05250,0.23660,0.00000,0.02891,0.97502,-0.19288,0.0,0,0,0,0,0,2,-238
10.58410,-0.07000,-0.00840,0.00000,0.02989,0.97661,-0.19337,0.0,0,0,0,0,0,2,-222
10.58420,0.01750,0.23660,0.00000,0.02879,0.97698,-0.19459,0.0,0,0,0,0,0,2,-207
10.58430,0.10500,-0.13090,0.00000,0.02806,0.97405,-0.19471,0.0,0,0,0,0,0,2,-207
10.58440,0.05250,-0.02590,0.00000,0.02989,0.97539,-0.19203,0.0,0,0,0,0,0,2,-190
10.58450,-0.14000,-0.18340,0.00000,0.02855,0.97539,-0.19203,0.0,0,0,0,0,0,2,-175
10.58460,0.05250,-0.06090,0.00000,0.02916,0.97673,-0.19520,0.0,0,0,0,0,0,2,-159
10.58470,0.07000,0.13160,0.00000,0.03013,0.97771,-0.19532,0.0,0,0,0,0,0,2,-159
10.58480,0.10500,0.27160,0.00000,0.02928,0.97576,-0.19142,0.0,0,0,0,0,0,2,-143
10.58490,0.05250,0.04410,0.00000,0.02806,0.97698,-0.19459,0.0,0,0,0,0,0,2,-128
10.58500,-0.14000,-0.02590,0.00000,0.03087,0.97661,-0.19410,0.0,0,0,0,0,0,2,-128
10.58510,0.10500,-0.09590,0.00000,0.03026,0.97698,-0.19520,0.0,0,0,0,0,0,2,-112
10.58520,0.00000,0.09660,0.00000,0.03026,0.97478,-0.19569,0.0,0,0,0,0,0,2,-96
10.58530,0.08750,0.09660,0.00000,0.02940,0.97539,-0.19203,0.0,0,0,0,0,0,2,-81
10.58540,0.07000,-0.21840,0.00000,0.02843,0.97759,-0.19374,0.0,0,0,0,0,0,2,-81
10.58550,0.12250,-0.16590,0.00000,0.02867,0.97673,-0.19520,0.0,0,0,0,0,0,2,-64
10.58560,0.12250,-0.07840,0.00000,0.03026,0.97417,-0.19191,0.0,0,0,0,0,0,2,-49
10.58570,-0.14000,0.02660,0.00000,0.02952,0.97637,-0.19410,0.0,0,0,0,0,0,2,-46
10.58580,-0.14000,0.09660,0.00000,0.02891,0.97649,-0.19300,0.0,0,0,0,0,0,2,-33
10.58590,0.05250,-0.20090,0.00000,0.03062,0.97502,-0.19300,0.0,0,0,0,0,0,2,-18
10.58600,0.00000,0.00910,0.00000,0.02733,0.97478,-0.19337,0.0,0,0,0,0,0,2,-2
10.58610,-0.10500,0.02660,0.00000,0.02843,0.97563,-0.19459,0.0,0,0,0,0,0,2,-2
10.58620,0.07000,0.04410,0.00000,0.03001,0.97539,-0.19044,0.0,0,0,0,0,0,2,13
10.58630,0.01750,0.04410,0.00000,0.02843,0.97685,-0.19239,0.0,0,0,0,0,0,2,28
10.58640,-0.07000,0.00910,0.00000,0.02757,0.97576,-0.19398,0.0,0,0,0,0,0,2,31
10.58650,-0.07000,-0.02590,0.00000,0.02965,0.97539,-0.19374,0.0,0,0,0,0,0,2,44
10.58660,-0.08750,0.16660,0.00000,0.02855,0.97612,-0.19337,0.0,0,0,0,0,0,2,60
10.58670,-0.05250,0.25410,0.00000,0.02660,0.97454,-0.19349,0.0,0,0,0,0,0,2,60
10.58680,-0.03500,-0.07840,0.00000,0.02952,0.97454,-0.19300,0.0,0,0,0,0,0,2,75
10.58690,0.00000,-0.02590,0.00000,0.02782,0.97563,-0.19337,0.0,0,0,0,0,0,2,91
10.58700,-0.03500,0.00910,0.00000,0.02818,0.97490,-0.19252,0.0,0,0,0,0,0,2,107
10.58710,-0.17500,0.18410,0.00000,0.03062,0.97759,-0.19130,0.0,0,0,0,0,0,2,107
10.58720,-0.05250,0.06160,0.00000,0.02904,0.97612,-0.19300,0.0,0,0,0,0,0,2,123
10.58730,0.00000,-0.07840,0.00000,0.03038,0.97685,-0.19520,0.0,0,0,0,0,0,2,138
10.58740,0.01750,-0.00840,0.00000,0.03111,0.97368,-0.19398,0.0,0,0,0,0,0,2,138
10.58750,0.14000,-0.11340,0.00000,0.03074,0.97637,-0.19313,0.0,0,0,0,0,0,2,154
10.58760,-0.14000,0.30660,0.00000,0.02916,0.97551,-0.19374,0.0,0,0,0,0,0,2,169
10.58770,-0.03500,0.02660,0.00000,0.02904,0.97637,-0.19532,0.0,0,0,0,0,0,2,185
10.58780,0.00000,-0.04340,0.00000,0.02952,0.97612,-0.19227,0.0,0,0,0,0,0,2,185
10.58790,-0.12250,-0.00840,0.00000,0.02916,0.97527,-0.19349,0.0,0,0,0,0,0,2,201
10.58800,-0.03500,0.02660,0.00000,0.02879,0.97466,-0.19544,0.0,0,0,0,0,0,3,-783
10.58810,-0.14000,0.02660,0.00000,0.02891,0.97759,-0.19264,0.0,0,0,0,0,0,3,-767
10.58820,0.14000,-0.21840,0.00000,0.02867,0.97454,-0.19154,0.0,0,0,0,0,0,3,-767
10.58830,-0.03500,0.02660,0.00000,0.02952,0.97673,-0.19300,0.0,0,0,0,0,0,3,-751
10.58840,-0.21000,-0.02590,0.00000,0.02891,0.97771,-0.19410,0.0,0,0,0,0,0,3,-734
10.58850,0.05250,0.06160,0.00000,0.02928,0.97551,-0.19532,0.0,0,0,0,0,0,3,-734
10.58860,0.00000,-0.13090,0.00000,0.02830,0.97441,-0.19361,0.0,0,0,0,0,0,3,-720
10.58870,-0.03500,-0.06090,0.00000,0.02647,0.97490,-0.19569,0.0,0,0,0,0,0,3,-704
10.58880,0.01750,-0.02590,0.00000,0.02916,0.97746,-0.19227,0.0,0,0,0,0,0,3,-689
10.58890,-0.05250,0.23660,0.00000,0.03099,0.97771,-0.19386,0.0,0,0,0,0,0,3,-688
10.58900,0.17500,0.13160,0.00000,0.02794,0.97685,-0.19605,0.0,0,0,0,0,0,3,-673
10.58910,-0.07000,-0.25340,0.00000,0.02989,0.97588,-0.19752,0.0,0,0,0,0,0,3,-657
10.58920,-0.10500,0.09660,0.00000,0.02928,0.97502,-0.19386,0.0,0,0,0,0,0,3,-657
10.58930,0.22750,-0.02590,0.00000,0.02952,0.97368,-0.19130,0.0,0,0,0,0,0,3,-642
10.58940,0.10500,-0.00840,0.00000,0.03062,0.97588,-0.19349,0.0,0,0,0,0,0,3,-626
10.58950,-0.01750,-0.02590,0.00000,0.02879,0.97832,-0.19264,0.0,0,0,0,0,0,3,-626
10.58960,0.15750,0.14910,0.00000,0.03099,0.97441,-0.19398,0.0,0,0,0,0,0,3,-610
10.58970,0.07000,-0.18340,0.00000,0.02806,0.97624,-0.19508,0.0,0,0,0,0,0,3,-595
10.58980,-0.07000,0.18410,0.00000,0.03038,0.97600,-0.19496,0.0,0,0,0,0,0,3,-579
10.58990,-0.01750,0.18410,0.00000,0.03013,0.97502,-0.19422,0.0,0,0,0,0,0,3,-579
10.59000,0.07000,0.02660,0.00000,0.02965,0.97368,-0.19252,0.0,0,0,0,0,0,3,-563
10.59010,0.08750,0.06160,0.00000,0.02965,0.97527,-0.19337,0.0,0,0,0,0,0,3,-548
10.59020,0.01750,-0.14840,0.00000,0.03221,0.97624,-0.19093,0.0,0,0,0,0,0,3,-532
10.59030,-0.12250,-0.00840,0.00000,0.03026,0.97624,-0.19337,0.0,0,0,0,0,0,3,-532
10.59040,0.00000,-0.00840,0.00000,0.02952,0.97612,-0.19203,0.0,0,0,0,0,0,3,-517
10.59050,-0.35000,0.16660,0.00000,0.03087,0.97746,-0.19300,0.0,0,0,0,0,0,3,-501
10.59060,0.00000,0.16660,0.00000,0.02904,0.97551,-0.19337,0.0,0,0,0,0,0,3,-501
10.59070,-0.07000,-0.02590,0.00000,0.02806,0.97649,-0.19410,0.0,0,0,0,0,0,3,-485
10.59080,0.07000,0.07910,0.00000,0.02904,0.97746,-0.19130,0.0,0,0,0,0,0,3,-470
10.59090,-0.07000,0.16660,0.00000,0.02830,0.97563,-0.19471,0.0,0,0,0,0,0,3,-470
10.59100,0.03500,0.00910,0.00000,0.02794,0.97405,-0.19252,0.0,0,0,0,0,0,3,-454
10.59110,-0.10500,-0.00840,0.00000,0.02782,0.97600,-0.19117,0.0,0,0,0,0,0,3,-438
10.59120,0.00000,-0.09590,0.00000,0.02989,0.97612,-0.19154,0.0,0,0,0,0,0,3,-423
10.59130,0.08750,0.09660,0.00000,0.02757,0.97454,-0.19276,0.0,0,0,0,0,0,3,-423
10.59140,-0.01750,0.06160,0.00000,0.02977,0.97624,-0.19361,0.0,0,0,0,0,0,3,-407
10.59150,0.03500,-0.18340,0.00000,0.02952,0.97454,-0.19239,0.0,0,0,0,0,0,3,-391
10.59160,0.10500,0.02660,0.00000,0.02745,0.97612,-0.19361,0.0,0,0,0,0,0,3,-391
10.59170,-0.21000,0.09660,0.00000,0.02989,0.97588,-0.19386,0.0,0,0,0,0,0,3,-376
10.59180,0.00000,-0.04340,0.00000,0.02891,0.97576,-0.19227,0.0,0,0,0,0,0,3,-359
10.59190,-0.08750,0.16660,0.00000,0.02989,0.97600,-0.19422,0.0,0,0,0,0,0,3,-344
10.59200,-0.17500,0.13160,0.00000,0.02904,0.97576,-0.19300,0.0,0,0,0,0,0,3,-344
10.59210,-0.12250,0.00910,0.00000,0.02904,0.97417,-0.19264,0.0,0,0,0,0,0,3,-328
10.59220,-0.07000,0.04410,0.00000,0.02843,0.97515,-0.19386,0.0,0,0,0,0,0,3,-313
10.59230,-0.19250,-0.07840,0.00000,0.03148,0.97539,-0.19191,0.0,0,0,0,0,0,3,-313
10.59240,0.10500,0.06160,0.00000,0.02757,0.97576,-0.19203,0.0,0,0,0,0,0,3,-297
10.59250,-0.01750,0.04410,0.00000,0.02782,0.97600,-0.19386,0.0,0,0,0,0,0,3,-281
10.59260,0.10500,0.07910,0.00000,0.03074,0.97637,-0.19117,0.0,0,0,0,0,0,3,-281
10.59270,0.08750,0.16660,0.00000,0.02867,0.97771,-0.19020,0.0,0,0,0,0,0,3,-266
10.59280,0.14000,0.02660,0.00000,0.02782,0.97612,-0.19422,0.0,0,0,0,0,0,3,-250
10.59290,-0.05250,-0.02590,0.00000,0.02952,0.97588,-0.19288,0.0,0,0,0,0,0,3,-234
10.59300,0.19250,0.11410,0.00000,0.02940,0.97490,-0.19422,0.0,0,0,0,0,0,3,-234
10.59310,0.07000,-0.14840,0.00000,0.02928,0.97612,-0.19349,0.0,0,0,0,0,0,3,-219
10.59320,0.01750,0.04410,0.00000,0.02806,0.97576,-0.19166,0.0,0,0,0,0,0,3,-204
10.59330,0.01750,0.09660,0.00000,0.02721,0.97539,-0.19191,0.0,0,0,0,0,0,3,-188
10.59340,-0.03500,0.32410,0.00000,0.02672,0.97759,-0.19239,0.0,0,0,0,0,0,3,-188
10.59350,0.10500,0.18410,0.00000,0.03026,0.97795,-0.19471,0.0,0,0,0,0,0,3,-172
10.59360,-0.03500,0.14910,0.00000,0.02928,0.97905,-0.19178,0.0,0,0,0,0,0,3,-156
10.59370,-0.10500,0.04410,0.00000,0.02879,0.97673,-0.19398,0.0,0,0,0,0,0,3,-156
10.59380,0.01750,-0.11340,0.00000,0.02721,0.97637,-0.19374,0.0,0,0,0,0,0,3,-140
10.59390,0.14000,0.02660,0.00000,0.02635,0.97771,-0.19239,0.0,0,0,0,0,0,3,-124
10.59400,0.05250,0.07910,0.00000,0.02965,0.97612,-0.19227,0.0,0,0,0,0,0,3,-124
10.59410,-0.05250,-0.00840,0.00000,0.02757,0.97746,-0.19227,0.0,0,0,0,0,0,3,-109
10.59420,0.03500,-0.21840,0.00000,0.02830,0.97380,-0.19276,0.0,0,0,0,0,0,3,-93
10.59430,0.01750,0.16660,0.00000,0.03074,0.97576,-0.19105,0.0,0,0,0,0,0,3,-78
10.59440,0.03500,0.07910,0.00000,0.02867,0.97551,-0.19276,0.0,0,0,0,0,0,3,-78
10.59450,-0.15750,0.27160,0.00000,0.02940,0.97588,-0.19361,0.0,0,0,0,0,0,3,-62
10.59460,-0.03500,0.07910,0.00000,0.03013,0.97429,-0.19386,0.0,0,0,0,0,0,3,-44
10.59470,-0.12250,-0.14840,0.00000,0.02879,0.97600,-0.19154,0.0,0,0,0,0,0,3,-44
10.59480,0.12250,-0.02590,0.00000,0.03013,0.97673,-0.19337,0.0,0,0,0,0,0,3,-31
10.59490,-0.03500,-0.02590,0.00000,0.03038,0.97563,-0.19313,0.0,0,0,0,0,0,3,-15
10.59500,0.08750,-0.06090,0.00000,0.02855,0.97722,-0.19154,0.0,0,0,0,0,0,3,0
10.59510,0.05250,0.04410,0.00000,0.02928,0.97551,-0.19313,0.0,0,0,0,0,0,3,0
10.59520,-0.03500,0.13160,0.00000,0.02708,0.97527,-0.19069,0.0,0,0,0,0,0,3,15
10.59530,-0.21000,-0.00840,0.00000,0.02879,0.97515,-0.19459,0.0,0,0,0,0,0,3,31
10.59540,0.19250,-0.02590,0.00000,0.02769,0.97478,-0.19191,0.0,0,0,0,0,0,3,31
10.59550,-0.07000,-0.07840,0.00000,0.02965,0.97673,-0.19325,0.0,0,0,0,0,0,3,47
10.59560,0.14000,0.04410,0.00000,0.02891,0.97551,-0.19288,0.0,0,0,0,0,0,3,62
10.59570,-0.28000,0.09660,0.00000,0.02843,0.97624,-0.19337,0.0,0,0,0,0,0,3,78
10.59580,0.08750,0.00910,0.00000,0.02977,0.97551,-0.19105,0.0,0,0,0,0,0,3,78
10.59590,0.05250,0.07910,0.00000,0.02928,0.97661,-0.19459,0.0,0,0,0,0,0,3,93
10.59600,0.01750,0.18410,0.00000,0.02782,0.97563,-0.19398,0.0,0,0,0,0,0,3,109
10.59610,-0.01750,0.13160,0.00000,0.03013,0.97393,-0.19252,0.0,0,0,0,0,0,3,109
10.59620,-0.01750,0.13160,0.00000,0.02769,0.97807,-0.19239,0.0,0,0,0,0,0,3,134
10.59630,-0.19250,-0.06090,0.00000,0.02891,0.97649,-0.19227,0.0,0,0,0,0,0,3,140
10.59640,0.00000,0.16660,0.00000,0.02940,0.97551,-0.19435,0.0,0,0,0,0,0,3,156
10.59650,0.03500,0.21910,0.00000,0.02708,0.97417,-0.19447,0.0,0,0,0,0,0,3,156
10.59660,0.08750,-0.06090,0.00000,0.02806,0.97600,-0.19325,0.0,0,0,0,0,0,3,172
10.59670,-0.07000,0.04410,0.00000,0.03148,0.97637,-0.19374,0.0,0,0,0,0,0,3,187
10.59680,0.00000,0.14910,0.00000,0.02806,0.97746,-0.19435,0.0,0,0,0,0,0,3,187
10.59690,-0.15750,0.06160,0.00000,0.02891,0.97612,-0.19264,0.0,0,0,0,0,0,3,203
10.59700,0.22750,0.00910,0.00000,0.03074,0.97649,-0.19386,0.0,0,0,0,0,0,4,-780
10.59710,0.08750,-0.09590,0.00000,0.02806,0.97783,-0.19398,0.0,0,0,0,0,0,4,-765
10.59720,0.01750,0.09660,0.00000,0.02757,0.97637,-0.19544,0.0,0,0,0,0,0,4,-765
10.59730,0.10500,0.02660,0.00000,0.02599,0.97685,-0.19471,0.0,0,0,0,0,0,4,-749
10.59740,0.24500,-0.07840,0.00000,0.03026,0.97539,-0.19422,0.0,0,0,0,0,0,4,-733
10.59750,-0.17500,-0.18340,0.00000,0.02830,0.97393,-0.19618,0.0,0,0,0,0,0,4,-733
10.59760,0.00000,0.20160,0.00000,0.02843,0.97637,-0.19520,0.0,0,0,0,0,0,4,-717
10.59770,0.05250,0.21910,0.00000,0.03001,0.97563,-0.19349,0.0,0,0,0,0,0,4,-702
10.59780,-0.01750,0.09660,0.00000,0.02843,0.97600,-0.19557,0.0,0,0,0,0,0,4,-702
10.59790,-0.24500,-0.04340,0.00000,0.02855,0.97771,-0.19374,0.0,0,0,0,0,0,4,-686
10.59800,0.07000,0.23660,0.00000,0.03026,0.97454,-0.19496,0.0,0,0,0,0,0,4,-670
10.59810,-0.12250,-0.04340,0.00000,0.02757,0.97710,-0.19508,0.0,0,0,0,0,0,4,-655
10.59820,-0.14000,0.02660,0.00000,0.02635,0.97649,-0.19581,0.0,0,0,0,0,0,4,-650
10.59830,-0.15750,-0.16590,0.00000,0.02733,0.97759,-0.19557,0.0,0,0,0,0,0,4,-639
10.59840,0.12250,0.09660,0.00000,0.02830,0.97844,-0.19459,0.0,0,0,0,0,0,4,-622
10.59850,-0.12250,0.11410,0.00000,0.02843,0.97600,-0.19581,0.0,0,0,0,0,0,4,-622
10.59860,0.10500,0.13160,0.00000,0.02769,0.97502,-0.19544,0.0,0,0,0,0,0,4,-607
10.59870,0.08750,0.07910,0.00000,0.02855,0.97490,-0.19581,0.0,0,0,0,0,0,4,-592
10.59880,-0.07000,0.00910,0.00000,0.02891,0.97734,-0.19532,0.0,0,0,0,0,0,4,-592
10.59890,-0.05250,0.13160,0.00000,0.03026,0.97661,-0.19654,0.0,0,0,0,0,0,4,-576
10.59900,0.07000,-0.00840,0.00000,0.02965,0.97759,-0.19508,0.0,0,0,0,0,0,4,-560
10.59910,0.08750,-0.07840,0.00000,0.02708,0.97454,-0.19410,0.0,0,0,0,0,0,4,-545
10.59920,-0.03500,-0.02590,0.00000,0.02916,0.97563,-0.19691,0.0,0,0,0,0,0,4,-545
10.59930,-0.01750,0.00910,0.00000,0.02879,0.97746,-0.19569,0.0,0,0,0,0,0,4,-529
10.59940,-0.08750,0.21910,0.00000,0.02916,0.97710,-0.19691,0.0,0,0,0,0,0,4,-513
10.59950,-0.19250,0.09660,0.00000,0.02843,0.97722,-0.19679,0.0,0,0,0,0,0,4,-513
10.59960,0.08750,-0.13090,0.00000,0.02891,0.97917,-0.19581,0.0,0,0,0,0,0,4,-498
10.59970,-0.05250,-0.00840,0.00000,0.02806,0.97405,-0.19557,0.0,0,0,0,0,0,4,-482
10.59980,-0.05250,-0.18340,0.00000,0.02977,0.97515,-0.19557,0.0,0,0,0,0,0,4,-467
10.59990,-0.01750,-0.00840,0.00000,0.02916,0.97673,-0.19215,0.0,0,0,0,0,0,4,-467
10.60000,-0.05250,-0.06090,0.00000,0.02696,0.97454,-0.19496,0.0,0,0,0,0,0,4,-451
10.60010,0.08750,-0.23590,0.00000,0.02940,0.97832,-0.19788,0.0,0,0,0,0,0,4,-432
10.60020,0.17500,0.00910,0.00000,0.02916,0.97466,-0.19764,0.0,0,0,0,0,0,4,-432
10.60030,0.08750,-0.06090,0.00000,0.02818,0.97710,-0.19557,0.0,0,0,0,0,0,4,-419
10.60040,0.01750,-0.07840,0.00000,0.02843,0.97441,-0.19752,0.0,0,0,0,0,0,4,-404
10.60050,-0.12250,-0.00840,0.00000,0.02904,0.97795,-0.19520,0.0,0,0,0,0,0,4,-388
10.60060,-0.07000,0.20160,0.00000,0.02757,0.97368,-0.19459,0.0,0,0,0,0,0,4,-388
10.60070,0.00000,0.04410,0.00000,0.03001,0.97637,-0.19679,0.0,0,0,0,0,0,4,-372
10.60080,0.15750,0.00910,0.00000,0.02733,0.97673,-0.19642,0.0,0,0,0,0,0,4,-356
10.60090,-0.10500,0.02660,0.00000,0.02806,0.97527,-0.19813,0.0,0,0,0,0,0,4,-356
10.60100,-0.03500,0.02660,0.00000,0.02891,0.97551,-0.19508,0.0,0,0,0,0,0,4,-341
10.60110,0.05250,0.07910,0.00000,0.02757,0.97527,-0.19752,0.0,0,0,0,0,0,4,-325
10.60120,-0.01750,0.00910,0.00000,0.03135,0.97551,-0.19581,0.0,0,0,0,0,0,4,-310
10.60130,-0.03500,0.04410,0.00000,0.03111,0.97966,-0.19752,0.0,0,0,0,0,0,4,-310
10.60140,0.15750,0.14910,0.00000,0.03087,0.97795,-0.19666,0.0,0,0,0,0,0,4,-294
10.60150,-0.07000,0.07910,0.00000,0.02806,0.97844,-0.19593,0.0,0,0,0,0,0,4,-278
10.60160,0.00000,0.11410,0.00000,0.03062,0.97417,-0.19691,0.0,0,0,0,0,0,4,-278
10.60170,0.01750,0.00910,0.00000,0.03099,0.97893,-0.19898,0.0,0,0,0,0,0,4,-262
10.60180,0.14000,0.00910,0.00000,0.02721,0.97576,-0.19581,0.0,0,0,0,0,0,4,-247
10.60190,-0.03500,0.02660,0.00000,0.03013,0.97722,-0.19618,0.0,0,0,0,0,0,4,-231
10.60200,-0.03500,0.06160,0.00000,0.02940,0.97490,-0.19483,0.0,0,0,0,0,0,4,-231
10.60210,-0.05250,-0.18340,0.00000,0.02977,0.97356,-0.19508,0.0,0,0,0,0,0,4,-215
10.60220,0.03500,0.16660,0.00000,0.03099,0.97490,-0.19605,0.0,0,0,0,0,0,4,-198
10.60230,-0.14000,0.13160,0.00000,0.02635,0.97637,-0.19288,0.0,0,0,0,0,0,4,-198
10.60240,0.15750,-0.27090,0.00000,0.02830,0.97698,-0.19459,0.0,0,0,0,0,0,4,-184
10.60250,-0.08750,-0.02590,0.00000,0.03135,0.97661,-0.19593,0.0,0,0,0,0,0,4,-168
10.60260,-0.01750,0.04410,0.00000,0.02965,0.97478,-0.19593,0.0,0,0,0,0,0,4,-168
10.60270,0.01750,-0.18340,0.00000,0.02830,0.97649,-0.19618,0.0,0,0,0,0,0,4,-152
10.60280,0.07000,0.18410,0.00000,0.02855,0.97490,-0.19447,0.0,0,0,0,0,0,4,-137
10.60290,0.08750,-0.02590,0.00000,0.02989,0.97820,-0.19532,0.0,0,0,0,0,0,4,-121
10.60300,0.10500,-0.02590,0.00000,0.02989,0.97820,-0.19471,0.0,0,0,0,0,0,4,-121
10.60310,0.05250,0.02660,0.00000,0.03038,0.97527,-0.19459,0.0,0,0,0,0,0,4,-99
10.60320,0.14000,-0.07840,0.00000,0.02965,0.97624,-0.19203,0.0,0,0,0,0,0,4,-90
10.60330,-0.03500,0.04410,0.00000,0.02855,0.97685,-0.19361,0.0,0,0,0,0,0,4,-90
10.60340,-0.08750,0.06160,0.00000,0.02867,0.97576,-0.19410,0.0,0,0,0,0,0,4,-74
10.60350,-0.19250,-0.06090,0.00000,0.03001,0.97698,-0.19630,0.0,0,0,0,0,0,4,-58
10.60360,-0.05250,0.09660,0.00000,0.02843,0.97393,-0.19666,0.0,0,0,0,0,0,4,-43
10.60370,0.08750,0.16660,0.00000,0.02928,0.97502,-0.19532,0.0,0,0,0,0,0,4,-43
10.60380,0.07000,-0.00840,0.00000,0.02891,0.97502,-0.19496,0.0,0,0,0,0,0,4,-27
10.60390,-0.05250,-0.09590,0.00000,0.02782,0.97393,-0.19532,0.0,0,0,0,0,0,4,-12
10.60400,-0.05250,0.28910,0.00000,0.02757,0.97234,-0.19532,0.0,0,0,0,0,0,4,-12
10.60410,-0.03500,0.06160,0.00000,0.03087,0.97685,-0.19618,0.0,0,0,0,0,0,4,4
10.60420,0.12250,0.04410,0.00000,0.02928,0.97685,-0.19593,0.0,0,0,0,0,0,4,19
10.60430,-0.07000,0.16660,0.00000,0.02952,0.97832,-0.19581,0.0,0,0,0,0,0,4,34
10.60440,0.24500,-0.06090,0.00000,0.03062,0.97771,-0.19435,0.0,0,0,0,0,0,4,34
10.60450,-0.10500,0.20160,0.00000,0.02769,0.97759,-0.19459,0.0,0,0,0,0,0,4,50
10.60460,0.22750,-0.13090,0.00000,0.02818,0.97515,-0.19630,0.0,0,0,0,0,0,4,66
10.60470,-0.07000,0.06160,0.00000,0.02965,0.97490,-0.19581,0.0,0,0,0,0,0,4,66
10.60480,0.08750,-0.00840,0.00000,0.02843,0.97441,-0.19447,0.0,0,0,0,0,0,4,81
10.60490,-0.01750,-0.23590,0.00000,0.02818,0.97527,-0.19447,0.0,0,0,0,0,0,4,97
10.60500,-0.01750,0.14910,0.00000,0.03013,0.97649,-0.19288,0.0,0,0,0,0,0,4,113
10.60510,-0.14000,0.02660,0.00000,0.02904,0.97685,-0.19337,0.0,0,0,0,0,0,4,113
10.60520,-0.01750,-0.02590,0.00000,0.02891,0.97441,-0.19483,0.0,0,0,0,0,0,4,128
10.60530,0.12250,-0.11340,0.00000,0.03026,0.97771,-0.19276,0.0,0,0,0,0,0,4,144
10.60540,0.14000,-0.02590,0.00000,0.02989,0.97502,-0.19544,0.0,0,0,0,0,0,4,144
10.60550,0.07000,-0.18340,0.00000,0.02952,0.97551,-0.19325,0.0,0,0,0,0,0,4,160
10.60560,0.01750,-0.02590,0.00000,0.02904,0.97685,-0.19605,0.0,0,0,0,0,0,4,176
10.60570,-0.15750,-0.02590,0.00000,0.02843,0.97844,-0.19557,0.0,0,0,0,0,0,4,191
10.60580,-0.03500,0.00910,0.00000,0.03050,0.97673,-0.19496,0.0,0,0,0,0,0,4,191
10.60590,0.01750,-0.11340,0.00000,0.02940,0.97527,-0.19300,0.0,0,0,0,0,0,4,207
10.60600,-0.01750,-0.02590,0.00000,0.02879,0.97722,-0.19581,0.0,0,0,0,0,0,5,-776
10.60610,0.03500,0.09660,0.00000,0.02940,0.97588,-0.19264,0.0,0,0,0,0,0,5,-760
10.60620,-0.03500,-0.02590,0.00000,0.02745,0.97661,-0.19483,0.0,0,0,0,0,0,5,-760
10.60630,-0.08750,-0.00840,0.00000,0.02891,0.97624,-0.19410,0.0,0,0,0,0,0,5,-745
10.60640,-0.03500,0.18410,0.00000,0.02989,0.97942,-0.19483,0.0,0,0,0,0,0,5,-745
10.60650,-0.05250,-0.04340,0.00000,0.02891,0.97588,-0.19325,0.0,0,0,0,0,0,5,-729
10.60660,-0.14000,0.06160,0.00000,0.02879,0.97368,-0.19361,0.0,0,0,0,0,0,5,-714
10.60670,-0.15750,0.13160,0.00000,0.02928,0.97588,-0.19361,0.0,0,0,0,0,0,5,-698
10.60680,-0.07000,-0.07840,0.00000,0.03026,0.97454,-0.19300,0.0,0,0,0,0,0,5,-698
10.60690,0.05250,-0.11340,0.00000,0.02989,0.97576,-0.19276,0.0,0,0,0,0,0,5,-682
10.60700,0.01750,0.11410,0.00000,0.02965,0.97661,-0.19130,0.0,0,0,0,0,0,5,-666
10.60710,-0.22750,0.13160,0.00000,0.02965,0.97832,-0.19276,0.0,0,0,0,0,0,5,-651
10.60720,0.08750,0.04410,0.00000,0.02855,0.97441,-0.19252,0.0,0,0,0,0,0,5,-651
10.60730,-0.07000,0.04410,0.00000,0.02891,0.97393,-0.19276,0.0,0,0,0,0,0,5,-635
10.60740,0.08750,-0.04340,0.00000,0.02879,0.97527,-0.19349,0.0,0,0,0,0,0,5,-619
10.60750,0.08750,0.16660,0.00000,0.02891,0.97344,-0.19435,0.0,0,0,0,0,0,5,-619
10.60760,0.08750,-0.11340,0.00000,0.03013,0.97795,-0.19398,0.0,0,0,0,0,0,5,-603
10.60770,-0.14000,0.09660,0.00000,0.02989,0.97490,-0.19337,0.0,0,0,0,0,0,5,-588
10.60780,-0.14000,0.04410,0.00000,0.03026,0.97600,-0.19288,0.0,0,0,0,0,0,5,-588
10.60790,0.01750,-0.02590,0.00000,0.03087,0.97600,-0.19349,0.0,0,0,0,0,0,5,-572
10.60800,-0.14000,0.13160,0.00000,0.02708,0.97783,-0.19337,0.0,0,0,0,0,0,5,-556
10.60810,0.08750,-0.13090,0.00000,0.02830,0.97490,-0.19239,0.0,0,0,0,0,0,5,-541
10.60820,0.07000,-0.21840,0.00000,0.02855,0.97576,-0.19300,0.0,0,0,0,0,0,5,-541
10.60830,-0.08750,0.27160,0.00000,0.02879,0.97734,-0.19349,0.0,0,0,0,0,0,5,-525
10.60840,-0.14000,0.20160,0.00000,0.03001,0.97710,-0.19288,0.0,0,0,0,0,0,5,-509
10.60850,0.14000,-0.13090,0.00000,0.02989,0.97441,-0.19435,0.0,0,0,0,0,0,5,-509
10.60860,0.00000,-0.20090,0.00000,0.02940,0.97429,-0.19264,0.0,0,0,0,0,0,5,-493
10.60870,-0.12250,-0.06090,0.00000,0.02977,0.97673,-0.19178,0.0,0,0,0,0,0,5,-478
10.60880,0.01750,0.11410,0.00000,0.02989,0.97563,-0.19337,0.0,0,0,0,0,0,5,-478
10.60890,0.15750,-0.28840,0.00000,0.02879,0.97417,-0.19410,0.0,0,0,0,0,0,5,-462
10.60900,0.00000,-0.13090,0.00000,0.02879,0.97600,-0.19239,0.0,0,0,0,0,0,5,-447
10.60910,0.21000,-0.04340,0.00000,0.02928,0.97600,-0.19410,0.0,0,0,0,0,0,5,-431
10.60920,0.12250,-0.02590,0.00000,0.02806,0.97319,-0.19105,0.0,0,0,0,0,0,5,-431
10.60930,-0.07000,-0.18340,0.00000,0.02879,0.97454,-0.19496,0.0,0,0,0,0,0,5,-415
10.60940,-0.17500,0.21910,0.00000,0.02928,0.97832,-0.19374,0.0,0,0,0,0,0,5,-400
10.60950,-0.07000,-0.02590,0.00000,0.02904,0.97563,-0.19191,0.0,0,0,0,0,0,5,-400
10.60960,-0.08750,-0.16590,0.00000,0.03087,0.97673,-0.19130,0.0,0,0,0,0,0,5,-384
10.60970,0.24500,0.04410,0.00000,0.02989,0.97539,-0.19435,0.0,0,0,0,0,0,5,-368
10.60980,-0.01750,0.11410,0.00000,0.02843,0.97612,-0.19288,0.0,0,0,0,0,0,5,-353
10.60990,0.10500,-0.02590,0.00000,0.02891,0.97771,-0.19422,0.0,0,0,0,0,0,5,-353
10.61000,-0.01750,-0.04340,0.00000,0.02757,0.97710,-0.19227,0.0,0,0,0,0,0,5,-337
10.61010,-0.03500,-0.00840,0.00000,0.02879,0.97490,-0.19374,0.0,0,0,0,0,0,5,-321
10.61020,-0.08750,0.21910,0.00000,0.02904,0.97527,-0.19252,0.0,0,0,0,0,0,5,-321
10.61030,0.14000,-0.13090,0.00000,0.02904,0.97783,-0.19154,0.0,0,0,0,0,0,5,-305
10.61040,0.00000,0.06160,0.00000,0.02855,0.97698,-0.19410,0.0,0,0,0,0,0,5,-290
10.61050,0.00000,0.00910,0.00000,0.02977,0.97356,-0.19508,0.0,0,0,0,0,0,5,-290
10.61060,0.01750,0.07910,0.00000,0.02977,0.97637,-0.19459,0.0,0,0,0,0,0,5,-274
10.61070,-0.07000,-0.00840,0.00000,0.02818,0.97478,-0.19471,0.0,0,0,0,0,0,5,-259
10.61080,0.00000,-0.00840,0.00000,0.02843,0.97490,-0.19288,0.0,0,0,0,0,0,5,-242
10.61090,-0.14000,0.06160,0.00000,0.03062,0.97868,-0.19252,0.0,0,0,0,0,0,5,-242
10.61100,-0.15750,0.00910,0.00000,0.02916,0.97624,-0.19398,0.0,0,0,0,0,0,5,-226
10.61110,0.03500,0.23660,0.00000,0.02940,0.97807,-0.19239,0.0,0,0,0,0,0,5,-210
10.61120,0.00000,0.02660,0.00000,0.02952,0.97685,-0.19191,0.0,0,0,0,0,0,5,-210
10.61130,-0.15750,-0.02590,0.00000,0.02696,0.97380,-0.19288,0.0,0,0,0,0,0,5,-190
10.61140,0.15750,0.09660,0.00000,0.03062,0.97576,-0.19349,0.0,0,0,0,0,0,5,-179
10.61150,-0.05250,0.06160,0.00000,0.03013,0.97429,-0.19398,0.0,0,0,0,0,0,5,-179
10.61160,0.21000,0.16660,0.00000,0.03026,0.97563,-0.19227,0.0,0,0,0,0,0,5,-163
10.61170,-0.10500,0.07910,0.00000,0.02965,0.97649,-0.19252,0.0,0,0,0,0,0,5,-147
10.61180,0.28000,-0.04340,0.00000,0.02794,0.97478,-0.19361,0.0,0,0,0,0,0,5,-147
10.61190,-0.08750,0.06160,0.00000,0.02952,0.97673,-0.19276,0.0,0,0,0,0,0,5,-131
10.61200,0.28000,-0.07840,0.00000,0.02904,0.97661,-0.19532,0.0,0,0,0,0,0,5,-116
10.61210,-0.10500,0.04410,0.00000,0.02916,0.97710,-0.19215,0.0,0,0,0,0,0,5,-100
10.61220,0.07000,0.13160,0.00000,0.02904,0.97600,-0.19264,0.0,0,0,0,0,0,5,-100
10.61230,-0.19250,0.04410,0.00000,0.03184,0.97710,-0.19337,0.0,0,0,0,0,0,5,-84
10.61240,-0.01750,0.07910,0.00000,0.02977,0.97563,-0.19288,0.0,0,0,0,0,0,5,-69
10.61250,0.05250,-0.00840,0.00000,0.02843,0.97527,-0.19410,0.0,0,0,0,0,0,5,-69
10.61260,0.19250,-0.00840,0.00000,0.02623,0.97588,-0.19203,0.0,0,0,0,0,0,5,-53
10.61270,-0.07000,0.11410,0.00000,0.02830,0.97588,-0.19252,0.0,0,0,0,0,0,5,-38
10.61280,-0.01750,-0.02590,0.00000,0.02977,0.97490,-0.19252,0.0,0,0,0,0,0,5,-38
10.61290,0.08750,-0.04340,0.00000,0.02940,0.97771,-0.19178,0.0,0,0,0,0,0,5,-20
10.61300,0.08750,0.11410,0.00000,0.02855,0.97576,-0.19410,0.0,0,0,0,0,0,5,-6
10.61310,-0.07000,-0.09590,0.00000,0.02989,0.97441,-0.19166,0.0,0,0,0,0,0,5,8
10.61320,-0.07000,0.11410,0.00000,0.02916,0.97685,-0.19398,0.0,0,0,0,0,0,5,8
10.61330,0.00000,-0.07840,0.00000,0.02818,0.97673,-0.19605,0.0,0,0,0,0,0,5,24
10.61340,-0.10500,0.16660,0.00000,0.02965,0.97539,-0.19130,0.0,0,0,0,0,0,5,40
10.61350,-0.07000,0.02660,0.00000,0.02794,0.97551,-0.19679,0.0,0,0,0,0,0,5,40
10.61360,-0.12250,0.28910,0.00000,0.02928,0.97649,-0.19422,0.0,0,0,0,0,0,5,55
10.61370,-0.22750,0.13160,0.00000,0.02757,0.97624,-0.19300,0.0,0,0,0,0,0,5,71
10.61380,-0.01750,-0.06090,0.00000,0.02745,0.97673,-0.19544,0.0,0,0,0,0,0,5,87
10.61390,-0.01750,-0.02590,0.00000,0.02647,0.97637,-0.19459,0.0,0,0,0,0,0,5,87
10.61400,-0.12250,0.16660,0.00000,0.02843,0.97490,-0.19557,0.0,0,0,0,0,0,5,102
10.61410,-0.19250,0.18410,0.00000,0.02916,0.97624,-0.19410,0.0,0,0,0,0,0,5,118
10.61420,-0.07000,0.00910,0.00000,0.02830,0.97527,-0.19447,0.0,0,0,0,0,0,5,118
10.61430,-0.01750,-0.11340,0.00000,0.02977,0.97551,-0.19203,0.0,0,0,0,0,0,5,134
10.61440,0.03500,-0.23590,0.00000,0.02855,0.97576,-0.19264,0.0,0,0,0,0,0,5,150
10.61450,0.05250,0.09660,0.00000,0.03123,0.97698,-0.19410,0.0,0,0,0,0,0,5,165
10.61460,-0.10500,0.06160,0.00000,0.02867,0.97527,-0.19203,0.0,0,0,0,0,0,5,165
10.61470,0.19250,-0.00840,0.00000,0.02757,0.97576,-0.19398,0.0,0,0,0,0,0,5,181
10.61480,0.03500,0.07910,0.00000,0.02769,0.97612,-0.19239,0.0,0,0,0,0,0,5,197
10.61490,-0.14000,0.02660,0.00000,0.03001,0.97685,-0.19313,0.0,0,0,0,0,0,5,197
10.61500,0.01750,-0.16590,0.00000,0.03062,0.97807,-0.19130,0.0,0,0,0,0,0,6,-787
10.61510,0.05250,-0.02590,0.00000,0.02977,0.97795,-0.19300,0.0,0,0,0,0,0,6,-771
10.61520,0.10500,0.21910,0.00000,0.02830,0.97698,-0.19471,0.0,0,0,0,0,0,6,-755
10.61530,0.15750,-0.00840,0.00000,0.02928,0.97600,-0.19496,0.0,0,0,0,0,0,6,-755
10.61540,-0.24500,0.09660,0.00000,0.02952,0.97515,-0.19349,0.0,0,0,0,0,0,6,-740
10.61550,0.05250,0.04410,0.00000,0.02806,0.97661,-0.19459,0.0,0,0,0,0,0,6,-724
10.61560,-0.19250,0.02660,0.00000,0.02855,0.97478,-0.19081,0.0,0,0,0,0,0,6,-724
10.61570,0.14000,-0.04340,0.00000,0.02928,0.97722,-0.19288,0.0,0,0,0,0,0,6,-708
10.61580,0.12250,0.02660,0.00000,0.02843,0.97734,-0.19300,0.0,0,0,0,0,0,6,-693
10.61590,0.21000,-0.09590,0.00000,0.02879,0.97624,-0.19154,0.0,0,0,0,0,0,6,-693
10.61600,-0.31500,0.14910,0.00000,0.02794,0.97685,-0.19166,0.0,0,0,0,0,0,6,-677
10.61610,0.29750,-0.00840,0.00000,0.03026,0.97551,-0.19252,0.0,0,0,0,0,0,6,-661
10.61620,-0.07000,0.00910,0.00000,0.03184,0.97624,-0.19239,0.0,0,0,0,0,0,6,-661
10.61630,0.00000,-0.09590,0.00000,0.02660,0.97734,-0.19203,0.0,0,0,0,0,0,6,-646
10.61640,-0.08750,0.14910,0.00000,0.02940,0.97637,-0.19191,0.0,0,0,0,0,0,6,-629
10.61650,0.07000,-0.04340,0.00000,0.02904,0.97722,-0.19313,0.0,0,0,0,0,0,6,-614
10.61660,-0.19250,0.14910,0.00000,0.02965,0.97539,-0.19313,0.0,0,0,0,0,0,6,-614
10.61670,0.03500,0.23660,0.00000,0.02879,0.97722,-0.19069,0.0,0,0,0,0,0,6,-599
10.61680,0.03500,0.13160,0.00000,0.03062,0.97624,-0.19435,0.0,0,0,0,0,0,6,-583
10.61690,-0.15750,-0.16590,0.00000,0.03099,0.97746,-0.19239,0.0,0,0,0,0,0,6,-583
10.61700,-0.12250,0.02660,0.00000,0.02696,0.97722,-0.19300,0.0,0,0,0,0,0,6,-567
10.61710,-0.10500,0.21910,0.00000,0.02721,0.97563,-0.19117,0.0,0,0,0,0,0,6,-552
10.61720,-0.01750,-0.20090,0.00000,0.03013,0.97624,-0.19191,0.0,0,0,0,0,0,6,-536
10.61730,-0.08750,0.13160,0.00000,0.02733,0.97417,-0.19154,0.0,0,0,0,0,0,6,-536
10.61740,0.05250,-0.04340,0.00000,0.02989,0.97441,-0.19191,0.0,0,0,0,0,0,6,-520
10.61750,-0.29750,-0.02590,0.00000,0.02794,0.97417,-0.19227,0.0,0,0,0,0,0,6,-504
10.61760,0.10500,-0.20090,0.00000,0.02818,0.97649,-0.19422,0.0,0,0,0,0,0,6,-504
10.61770,-0.24500,0.18410,0.00000,0.02989,0.97454,-0.19093,0.0,0,0,0,0,0,6,-489
10.61780,-0.05250,-0.13090,0.00000,0.02611,0.97734,-0.19130,0.0,0,0,0,0,0,6,-473
10.61790,0.10500,0.00910,0.00000,0.02891,0.97649,-0.19325,0.0,0,0,0,0,0,6,-473
10.61800,0.31500,-0.28840,0.00000,0.03062,0.97527,-0.19178,0.0,0,0,0,0,0,6,-458
10.61810,0.17500,-0.06090,0.00000,0.02916,0.97820,-0.19154,0.0,0,0,0,0,0,6,-442
10.61820,0.14000,-0.20090,0.00000,0.02965,0.97551,-0.19191,0.0,0,0,0,0,0,6,-426
10.61830,-0.21000,-0.00840,0.00000,0.02940,0.97563,-0.19142,0.0,0,0,0,0,0,6,-426
10.61840,0.07000,-0.00840,0.00000,0.02867,0.97551,-0.19044,0.0,0,0,0,0,0,6,-411
10.61850,-0.15750,-0.07840,0.00000,0.02794,0.97588,-0.19325,0.0,0,0,0,0,0,6,-395
10.61860,0.03500,0.23660,0.00000,0.02952,0.97429,-0.19276,0.0,0,0,0,0,0,6,-395
10.61870,-0.38500,0.27160,0.00000,0.03013,0.97722,-0.19215,0.0,0,0,0,0,0,6,-379
10.61880,-0.01750,-0.13090,0.00000,0.02818,0.97698,-0.19154,0.0,0,0,0,0,0,6,-363
10.61890,-0.12250,0.23660,0.00000,0.02733,0.97722,-0.19288,0.0,0,0,0,0,0,6,-363
10.61900,0.08750,0.13160,0.00000,0.03038,0.97771,-0.19361,0.0,0,0,0,0,0,6,-348
10.61910,0.01750,0.00910,0.00000,0.02940,0.97722,-0.19154,0.0,0,0,0,0,0,6,-332
10.61920,0.01750,-0.02590,0.00000,0.02977,0.97515,-0.19239,0.0,0,0,0,0,0,6,-316
10.61930,0.07000,-0.04340,0.00000,0.02940,0.97661,-0.19361,0.0,0,0,0,0,0,6,-316
10.61940,0.10500,-0.02590,0.00000,0.02696,0.97539,-0.19191,0.0,0,0,0,0,0,6,-301
10.61950,-0.28000,0.23660,0.00000,0.02891,0.97746,-0.19422,0.0,0,0,0,0,0,6,-285
10.61960,-0.17500,0.00910,0.00000,0.02940,0.97661,-0.19410,0.0,0,0,0,0,0,6,-285
10.61970,0.19250,0.16660,0.00000,0.02952,0.97698,-0.19483,0.0,0,0,0,0,0,6,-270
10.61980,0.01750,0.02660,0.00000,0.02940,0.97588,-0.19227,0.0,0,0,0,0,0,6,-254
10.61990,0.17500,0.06160,0.00000,0.02672,0.97685,-0.19398,0.0,0,0,0,0,0,6,-254
10.62000,0.14000,-0.00840,0.00000,0.02867,0.97344,-0.19166,0.0,0,0,0,0,0,6,-237
10.62010,-0.08750,-0.07840,0.00000,0.02843,0.97844,-0.19532,0.0,0,0,0,0,0,6,-222
10.62020,0.00000,0.04410,0.00000,0.02830,0.97441,-0.19288,0.0,0,0,0,0,0,6,-206
10.62030,0.07000,0.07910,0.00000,0.02782,0.97490,-0.19325,0.0,0,0,0,0,0,6,-206
10.62040,0.12250,0.23660,0.00000,0.03001,0.97783,-0.19264,0.0,0,0,0,0,0,6,-191
10.62050,0.29750,-0.07840,0.00000,0.03001,0.97405,-0.19471,0.0,0,0,0,0,0,6,-175
10.62060,-0.21000,-0.02590,0.00000,0.03013,0.97405,-0.19313,0.0,0,0,0,0,0,6,-175
10.62070,0.03500,0.11410,0.00000,0.02904,0.97466,-0.19325,0.0,0,0,0,0,0,6,-159
10.62080,-0.10500,-0.14840,0.00000,0.02794,0.97551,-0.19349,0.0,0,0,0,0,0,6,-144
10.62090,-0.03500,0.00910,0.00000,0.02843,0.97380,-0.19410,0.0,0,0,0,0,0,6,-144
10.62100,-0.40250,0.28910,0.00000,0.02867,0.97685,-0.19532,0.0,0,0,0,0,0,6,-128
10.62110,0.07000,-0.18340,0.00000,0.02977,0.97466,-0.19605,0.0,0,0,0,0,0,6,-112
10.62120,-0.15750,-0.06090,0.00000,0.02940,0.97417,-0.19300,0.0,0,0,0,0,0,6,-96
10.62130,0.07000,-0.07840,0.00000,0.02940,0.97734,-0.19349,0.0,0,0,0,0,0,6,-96
10.62140,0.01750,-0.00840,0.00000,0.02830,0.97417,-0.19496,0.0,0,0,0,0,0,6,-81
10.62150,0.00000,0.09660,0.00000,0.02843,0.97466,-0.19386,0.0,0,0,0,0,0,6,-65
10.62160,-0.01750,0.02660,0.00000,0.03001,0.97600,-0.19483,0.0,0,0,0,0,0,6,-65
10.62170,-0.05250,-0.04340,0.00000,0.02757,0.97600,-0.19178,0.0,0,0,0,0,0,6,-49
10.62180,0.10500,-0.11340,0.00000,0.02989,0.97722,-0.19483,0.0,0,0,0,0,0,6,-34
10.62190,-0.12250,-0.02590,0.00000,0.02855,0.97588,-0.19325,0.0,0,0,0,0,0,6,-34
10.62200,-0.12250,-0.07840,0.00000,0.02891,0.97551,-0.19215,0.0,0,0,0,0,0,6,-18
10.62210,-0.21000,0.28910,0.00000,0.02769,0.97661,-0.19166,0.0,0,0,0,0,0,6,-2
10.62220,0.10500,0.09660,0.00000,0.02916,0.97759,-0.19117,0.0,0,0,0,0,0,6,12
10.62230,-0.12250,0.00910,0.00000,0.02940,0.97612,-0.19203,0.0,0,0,0,0,0,6,12
10.62240,0.07000,-0.00840,0.00000,0.02830,0.97637,-0.19398,0.0,0,0,0,0,0,6,28
10.62250,-0.03500,0.11410,0.00000,0.02830,0.97637,-0.19361,0.0,0,0,0,0,0,6,44
10.62260,0.10500,-0.16590,0.00000,0.03087,0.97454,-0.19239,0.0,0,0,0,0,0,6,44
10.62270,-0.08750,-0.00840,0.00000,0.02904,0.97478,-0.19398,0.0,0,0,0,0,0,6,59
10.62280,-0.15750,0.06160,0.00000,0.02928,0.97673,-0.19288,0.0,0,0,0,0,0,6,75
10.62290,-0.08750,0.27160,0.00000,0.02965,0.97637,-0.19154,0.0,0,0,0,0,0,6,75
10.62300,-0.08750,0.20160,0.00000,0.03062,0.97710,-0.19386,0.0,0,0,0,0,0,6,91
10.62310,-0.24500,0.11410,0.00000,0.02818,0.97515,-0.19203,0.0,0,0,0,0,0,6,106
10.62320,0.10500,0.02660,0.00000,0.02940,0.97576,-0.19349,0.0,0,0,0,0,0,6,122
10.62330,-0.26250,0.13160,0.00000,0.03379,0.97783,-0.19300,0.0,0,0,0,0,0,6,122
10.62340,0.15750,0.07910,0.00000,0.03013,0.97454,-0.19349,0.0,0,0,0,0,0,6,138
10.62350,0.00000,0.34160,0.00000,0.02928,0.97563,-0.19191,0.0,0,0,0,0,0,6,154
10.62360,0.21000,-0.11340,0.00000,0.02879,0.97454,-0.19459,0.0,0,0,0,0,0,6,154
10.62370,-0.17500,0.07910,0.00000,0.02696,0.97771,-0.19447,0.0,0,0,0,0,0,6,170
10.62380,-0.08750,0.00910,0.00000,0.02830,0.97466,-0.19178,0.0,0,0,0,0,0,6,185
10.62390,-0.10500,0.14910,0.00000,0.02830,0.97624,-0.19459,0.0,0,0,0,0,0,6,185
10.62400,0.17500,0.07910,0.00000,0.03026,0.97588,-0.19154,0.0,0,0,0,0,0,6,201
10.62410,0.12250,0.07910,0.00000,0.02879,0.97905,-0.19471,0.0,0,0,0,0,0,7,-782
10.62420,0.00000,0.06160,0.00000,0.02843,0.97515,-0.19252,0.0,0,0,0,0,0,7,-767
10.62430,-0.03500,0.23660,0.00000,0.02879,0.97502,-0.19410,0.0,0,0,0,0,0,7,-767
10.62440,-0.05250,-0.13090,0.00000,0.02830,0.97563,-0.19227,0.0,0,0,0,0,0,7,-751
10.62450,-0.05250,-0.06090,0.00000,0.02818,0.97661,-0.19447,0.0,0,0,0,0,0,7,-736
10.62460,0.05250,-0.00840,0.00000,0.02855,0.97698,-0.19130,0.0,0,0,0,0,0,7,-736
10.62470,-0.12250,0.23660,0.00000,0.02855,0.97771,-0.19496,0.0,0,0,0,0,0,7,-720
10.62480,0.01750,-0.02590,0.00000,0.03062,0.97393,-0.19313,0.0,0,0,0,0,0,7,-704
10.62490,0.03500,-0.02590,0.00000,0.02940,0.97783,-0.19410,0.0,0,0,0,0,0,7,-704
10.62500,-0.12250,0.16660,0.00000,0.02940,0.97502,-0.19239,0.0,0,0,0,0,0,7,-689
10.62510,0.10500,0.04410,0.00000,0.02867,0.97551,-0.19288,0.0,0,0,0,0,0,7,-673
10.62520,0.03500,-0.02590,0.00000,0.03001,0.97478,-0.19264,0.0,0,0,0,0,0,7,-657
10.62530,0.01750,0.11410,0.00000,0.02879,0.97551,-0.19276,0.0,0,0,0,0,0,7,-657
10.62540,-0.14000,0.11410,0.00000,0.02757,0.97661,-0.19130,0.0,0,0,0,0,0,7,-641
10.62550,0.07000,-0.16590,0.00000,0.03026,0.97551,-0.19227,0.0,0,0,0,0,0,7,-626
10.62560,-0.08750,-0.14840,0.00000,0.02867,0.97429,-0.19313,0.0,0,0,0,0,0,7,-626
10.62570,-0.01750,0.02660,0.00000,0.02806,0.97441,-0.19203,0.0,0,0,0,0,0,7,-610
10.62580,0.15750,0.09660,0.00000,0.02977,0.97661,-0.19337,0.0,0,0,0,0,0,7,-594
10.62590,-0.01750,-0.00840,0.00000,0.02965,0.97380,-0.19288,0.0,0,0,0,0,0,7,-594
10.62600,-0.26250,0.13160,0.00000,0.03135,0.97539,-0.19337,0.0,0,0,0,0,0,7,-578
10.62610,0.05250,0.07910,0.00000,0.03087,0.97649,-0.19349,0.0,0,0,0,0,0,7,-563
10.62620,-0.12250,0.00910,0.00000,0.02928,0.97527,-0.19410,0.0,0,0,0,0,0,7,-547
10.62630,-0.07000,0.11410,0.00000,0.02855,0.97502,-0.19239,0.0,0,0,0,0,0,7,-547
10.62640,-0.07000,-0.13090,0.00000,0.02952,0.97466,-0.19459,0.0,0,0,0,0,0,7,-532
10.62650,0.10500,0.02660,0.00000,0.02733,0.97649,-0.19361,0.0,0,0,0,0,0,7,-516
10.62660,-0.08750,0.09660,0.00000,0.02818,0.97710,-0.19398,0.0,0,0,0,0,0,7,-516
10.62670,-0.01750,0.00910,0.00000,0.02879,0.97429,-0.19349,0.0,0,0,0,0,0,7,-500
10.62680,-0.14000,0.20160,0.00000,0.02855,0.97637,-0.19288,0.0,0,0,0,0,0,7,-484
10.62690,0.21000,0.02660,0.00000,0.02733,0.97466,-0.19544,0.0,0,0,0,0,0,7,-468
10.62700,-0.08750,-0.07840,0.00000,0.02891,0.97551,-0.19666,0.0,0,0,0,0,0,7,-468
10.62710,0.07000,0.09660,0.00000,0.02806,0.97698,-0.19191,0.0,0,0,0,0,0,7,-453
10.62720,-0.14000,0.02660,0.00000,0.03074,0.97795,-0.19398,0.0,0,0,0,0,0,7,-434
10.62730,0.01750,0.06160,0.00000,0.02965,0.97295,-0.19447,0.0,0,0,0,0,0,7,-434
10.62740,-0.08750,-0.07840,0.00000,0.02916,0.97539,-0.19471,0.0,0,0,0,0,0,7,-419
10.62750,0.08750,0.11410,0.00000,0.02928,0.97588,-0.19496,0.0,0,0,0,0,0,7,-405
10.62760,-0.05250,0.14910,0.00000,0.03026,0.97820,-0.19435,0.0,0,0,0,0,0,7,-405
10.62770,0.03500,-0.04340,0.00000,0.02830,0.97466,-0.19520,0.0,0,0,0,0,0,7,-389
10.62780,-0.17500,0.09660,0.00000,0.03026,0.97783,-0.19398,0.0,0,0,0,0,0,7,-373
10.62790,0.10500,0.00910,0.00000,0.02879,0.97624,-0.19252,0.0,0,0,0,0,0,7,-358
10.62800,0.08750,-0.09590,0.00000,0.03001,0.97710,-0.19105,0.0,0,0,0,0,0,7,-358
10.62810,-0.17500,0.06160,0.00000,0.02940,0.97588,-0.19288,0.0,0,0,0,0,0,7,-342
10.62820,-0.05250,0.09660,0.00000,0.02928,0.97746,-0.19313,0.0,0,0,0,0,0,7,-326
10.62830,0.01750,-0.14840,0.00000,0.03050,0.97551,-0.19300,0.0,0,0,0,0,0,7,-326
10.62840,0.00000,0.14910,0.00000,0.02745,0.97795,-0.19337,0.0,0,0,0,0,0,7,-311
10.62850,0.07000,-0.06090,0.00000,0.03013,0.97466,-0.19520,0.0,0,0,0,0,0,7,-295
10.62860,-0.08750,-0.11340,0.00000,0.02977,0.97698,-0.19471,0.0,0,0,0,0,0,7,-279
10.62870,0.01750,0.06160,0.00000,0.03013,0.97563,-0.19618,0.0,0,0,0,0,0,7,-279
10.62880,-0.08750,0.20160,0.00000,0.02843,0.97807,-0.19532,0.0,0,0,0,0,0,7,-264
10.62890,0.10500,-0.27090,0.00000,0.02733,0.97722,-0.19264,0.0,0,0,0,0,0,7,-248
10.62900,0.08750,-0.11340,0.00000,0.02904,0.97515,-0.19544,0.0,0,0,0,0,0,7,-248
10.62910,0.05250,-0.18340,0.00000,0.02916,0.97563,-0.19386,0.0,0,0,0,0,0,7,-232
10.62920,0.05250,0.07910,0.00000,0.02879,0.97673,-0.19300,0.0,0,0,0,0,0,7,-217
10.62930,-0.10500,0.06160,0.00000,0.02879,0.97515,-0.19325,0.0,0,0,0,0,0,7,-217
10.62940,0.01750,-0.04340,0.00000,0.03087,0.97393,-0.19374,0.0,0,0,0,0,0,7,-201
10.62950,0.05250,0.14910,0.00000,0.02891,0.97429,-0.19447,0.0,0,0,0,0,0,7,-185
10.62960,-0.01750,0.13160,0.00000,0.02867,0.97698,-0.19435,0.0,0,0,0,0,0,7,-170
10.62970,0.00000,0.07910,0.00000,0.02782,0.97515,-0.19227,0.0,0,0,0,0,0,7,-170
10.62980,-0.24500,0.18410,0.00000,0.02940,0.97588,-0.19349,0.0,0,0,0,0,0,7,-154
10.62990,0.08750,-0.06090,0.00000,0.03038,0.97673,-0.19496,0.0,0,0,0,0,0,7,-138
10.63000,-0.05250,0.00910,0.00000,0.02952,0.97661,-0.19264,0.0,0,0,0,0,0,7,-138
10.63010,-0.10500,-0.00840,0.00000,0.03001,0.97771,-0.19422,0.0,0,0,0,0,0,7,-122
10.63020,-0.01750,-0.11340,0.00000,0.02855,0.97502,-0.19483,0.0,0,0,0,0,0,7,-106
10.63030,0.07000,0.14910,0.00000,0.03013,0.97466,-0.19288,0.0,0,0,0,0,0,7,-106
10.63040,0.03500,-0.13090,0.00000,0.02879,0.97563,-0.19300,0.0,0,0,0,0,0,7,-91
10.63050,0.10500,0.13160,0.00000,0.02940,0.97795,-0.19142,0.0,0,0,0,0,0,7,-75
10.63060,0.03500,0.11410,0.00000,0.03050,0.97563,-0.19325,0.0,0,0,0,0,0,7,-59
10.63070,-0.22750,0.25410,0.00000,0.02721,0.97600,-0.19264,0.0,0,0,0,0,0,7,-59
10.63080,0.10500,-0.11340,0.00000,0.02684,0.97393,-0.19581,0.0,0,0,0,0,0,7,-44
10.63090,-0.10500,0.09660,0.00000,0.02904,0.97405,-0.19422,0.0,0,0,0,0,0,7,-28
10.63100,-0.17500,0.02660,0.00000,0.03074,0.97393,-0.19386,0.0,0,0,0,0,0,7,-28
10.63110,-0.08750,0.11410,0.00000,0.02891,0.97515,-0.19288,0.0,0,0,0,0,0,7,-13
10.63120,0.14000,-0.04340,0.00000,0.02916,0.97490,-0.19447,0.0,0,0,0,0,0,7,2
10.63130,-0.17500,0.09660,0.00000,0.03062,0.97649,-0.19288,0.0,0,0,0,0,0,7,2
10.63140,0.00000,-0.02590,0.00000,0.03050,0.97710,-0.19300,0.0,0,0,0,0,0,7,18
10.63150,-0.19250,-0.06090,0.00000,0.03135,0.97600,-0.19471,0.0,0,0,0,0,0,7,34
10.63160,-0.07000,-0.07840,0.00000,0.02928,0.97746,-0.19215,0.0,0,0,0,0,0,7,50
10.63170,0.08750,0.11410,0.00000,0.03123,0.97454,-0.19337,0.0,0,0,0,0,0,7,50
10.63180,0.00000,-0.16590,0.00000,0.03087,0.97588,-0.19483,0.0,0,0,0,0,0,7,65
10.63190,0.01750,0.30660,0.00000,0.02989,0.97673,-0.19325,0.0,0,0,0,0,0,7,81
10.63200,-0.21000,-0.09590,0.00000,0.02721,0.97783,-0.19410,0.0,0,0,0,0,0,7,81
10.63210,-0.24500,0.14910,0.00000,0.02952,0.97893,-0.19459,0.0,0,0,0,0,0,7,96
10.63220,0.14000,0.14910,0.00000,0.02855,0.97527,-0.19435,0.0,0,0,0,0,0,7,115
10.63230,0.05250,0.00910,0.00000,0.02782,0.97771,-0.19020,0.0,0,0,0,0,0,7,128
10.63240,0.01750,0.07910,0.00000,0.02867,0.97734,-0.19105,0.0,0,0,0,0,0,7,128
10.63250,-0.01750,-0.25340,0.00000,0.02916,0.97502,-0.19398,0.0,0,0,0,0,0,7,144
10.63260,-0.17500,-0.07840,0.00000,0.03074,0.97673,-0.19422,0.0,0,0,0,0,0,7,159
10.63270,0.01750,0.13160,0.00000,0.03026,0.97478,-0.19313,0.0,0,0,0,0,0,7,159
10.63280,0.01750,0.16660,0.00000,0.02818,0.97380,-0.19422,0.0,0,0,0,0,0,7,175
10.63290,-0.22750,-0.06090,0.00000,0.02696,0.97698,-0.19532,0.0,0,0,0,0,0,7,190
10.63300,-0.12250,0.02660,0.00000,0.03038,0.97527,-0.19361,0.0,0,0,0,0,0,7,190
10.63310,0.14000,0.09660,0.00000,0.03062,0.97576,-0.19459,0.0,0,0,0,0,0,7,206
10.63320,0.08750,-0.07840,0.00000,0.02965,0.97502,-0.19288,0.0,0,0,0,0,0,8,-777
10.63330,0.07000,-0.07840,0.00000,0.02879,0.97551,-0.19532,0.0,0,0,0,0,0,8,-761
10.63340,0.00000,-0.04340,0.00000,0.02952,0.97563,-0.19435,0.0,0,0,0,0,0,8,-761
10.63350,0.15750,0.00910,0.00000,0.02989,0.97698,-0.19386,0.0,0,0,0,0,0,8,-746
10.63360,-0.08750,-0.06090,0.00000,0.03038,0.97576,-0.19410,0.0,0,0,0,0,0,8,-730
10.63370,-0.07000,-0.06090,0.00000,0.02806,0.97515,-0.19191,0.0,0,0,0,0,0,8,-730
10.63380,0.10500,0.11410,0.00000,0.02879,0.97722,-0.19569,0.0,0,0,0,0,0,8,-714
10.63390,-0.12250,0.02660,0.00000,0.02879,0.97624,-0.19471,0.0,0,0,0,0,0,8,-699
10.63400,0.00000,-0.00840,0.00000,0.02806,0.97759,-0.19300,0.0,0,0,0,0,0,8,-699
10.63410,0.12250,0.02660,0.00000,0.02757,0.97612,-0.19349,0.0,0,0,0,0,0,8,-683
10.63420,-0.01750,0.09660,0.00000,0.02794,0.97637,-0.19544,0.0,0,0,0,0,0,8,-667
10.63430,-0.28000,0.06160,0.00000,0.02843,0.97661,-0.19264,0.0,0,0,0,0,0,8,-652
10.63440,0.08750,0.13160,0.00000,0.02879,0.97502,-0.19471,0.0,0,0,0,0,0,8,-652
10.63450,0.17500,-0.06090,0.00000,0.02782,0.97441,-0.19532,0.0,0,0,0,0,0,8,-635
10.63460,-0.14000,0.04410,0.00000,0.02721,0.97588,-0.19557,0.0,0,0,0,0,0,8,-620
10.63470,-0.19250,0.14910,0.00000,0.02843,0.97283,-0.19544,0.0,0,0,0,0,0,8,-620
10.63480,-0.01750,-0.20090,0.00000,0.02928,0.97661,-0.19618,0.0,0,0,0,0,0,8,-605
10.63490,-0.07000,0.04410,0.00000,0.02830,0.97441,-0.19374,0.0,0,0,0,0,0,8,-589
10.63500,-0.07000,0.06160,0.00000,0.02745,0.97563,-0.19740,0.0,0,0,0,0,0,8,-573
10.63510,-0.14000,0.11410,0.00000,0.03099,0.97612,-0.19496,0.0,0,0,0,0,0,8,-562
10.63520,0.00000,0.02660,0.00000,0.03001,0.97515,-0.19496,0.0,0,0,0,0,0,8,-558
10.63530,0.05250,-0.20090,0.00000,0.02904,0.97795,-0.19215,0.0,0,0,0,0,0,8,-540
10.63540,0.05250,-0.11340,0.00000,0.02867,0.97624,-0.19483,0.0,0,0,0,0,0,8,-540
10.63550,-0.07000,0.32410,0.00000,0.02684,0.97515,-0.19313,0.0,0,0,0,0,0,8,-526
10.63560,0.10500,0.00910,0.00000,0.02891,0.97771,-0.19361,0.0,0,0,0,0,0,8,-510
10.63570,0.00000,0.09660,0.00000,0.02940,0.97454,-0.19459,0.0,0,0,0,0,0,8,-510
10.63580,-0.01750,-0.00840,0.00000,0.02843,0.97673,-0.19374,0.0,0,0,0,0,0,8,-494
10.63590,-0.03500,0.28910,0.00000,0.02989,0.97441,-0.19325,0.0,0,0,0,0,0,8,-479
10.63600,-0.01750,0.11410,0.00000,0.03026,0.97746,-0.19447,0.0,0,0,0,0,0,8,-463
10.63610,0.01750,-0.06090,0.00000,0.02818,0.97429,-0.19276,0.0,0,0,0,0,0,8,-463
10.63620,0.05250,-0.11340,0.00000,0.02843,0.97771,-0.19386,0.0,0,0,0,0,0,8,-441
10.63630,0.14000,0.07910,0.00000,0.02708,0.97563,-0.19398,0.0,0,0,0,0,0,8,-432
10.63640,0.00000,0.11410,0.00000,0.02916,0.97759,-0.19166,0.0,0,0,0,0,0,8,-432
10.63650,-0.19250,0.06160,0.00000,0.02769,0.97490,-0.19239,0.0,0,0,0,0,0,8,-416
10.63660,-0.01750,-0.06090,0.00000,0.03062,0.97698,-0.19215,0.0,0,0,0,0,0,8,-400
10.63670,-0.14000,0.13160,0.00000,0.02818,0.97551,-0.19130,0.0,0,0,0,0,0,8,-400
10.63680,0.15750,-0.00840,0.00000,0.02830,0.97685,-0.19386,0.0,0,0,0,0,0,8,-384
10.63690,-0.14000,-0.14840,0.00000,0.02818,0.97466,-0.19227,0.0,0,0,0,0,0,8,-369
10.63700,0.01750,-0.07840,0.00000,0.02855,0.97612,-0.19313,0.0,0,0,0,0,0,8,-369
10.63710,0.12250,0.02660,0.00000,0.02782,0.97576,-0.19154,0.0,0,0,0,0,0,8,-353
10.63720,-0.03500,-0.09590,0.00000,0.02721,0.97783,-0.19313,0.0,0,0,0,0,0,8,-337
10.63730,-0.05250,-0.02590,0.00000,0.02757,0.97649,-0.19435,0.0,0,0,0,0,0,8,-321
10.63740,-0.12250,0.07910,0.00000,0.02843,0.97551,-0.19337,0.0,0,0,0,0,0,8,-321
10.63750,-0.07000,-0.13090,0.00000,0.02806,0.97661,-0.19337,0.0,0,0,0,0,0,8,-306
10.63760,-0.12250,0.23660,0.00000,0.03050,0.97515,-0.19239,0.0,0,0,0,0,0,8,-290
10.63770,0.00000,-0.07840,0.00000,0.03050,0.97380,-0.19227,0.0,0,0,0,0,0,8,-290
10.63780,-0.31500,0.48160,0.00000,0.02879,0.97722,-0.19166,0.0,0,0,0,0,0,8,-274
10.63790,0.00000,-0.16590,0.00000,0.02855,0.97661,-0.19288,0.0,0,0,0,0,0,8,-259
10.63800,0.07000,0.02660,0.00000,0.02916,0.97527,-0.19252,0.0,0,0,0,0,0,8,-243
10.63810,0.01750,-0.25340,0.00000,0.03123,0.97539,-0.19496,0.0,0,0,0,0,0,8,-243
10.63820,0.24500,-0.23590,0.00000,0.02769,0.97490,-0.19191,0.0,0,0,0,0,0,8,-227
10.63830,-0.07000,0.14910,0.00000,0.03013,0.97429,-0.19313,0.0,0,0,0,0,0,8,-210
10.63840,-0.17500,-0.02590,0.00000,0.03050,0.97746,-0.19203,0.0,0,0,0,0,0,8,-210
10.63850,-0.07000,-0.13090,0.00000,0.02940,0.97685,-0.19252,0.0,0,0,0,0,0,8,-195
10.63860,0.01750,-0.02590,0.00000,0.03062,0.97502,-0.19361,0.0,0,0,0,0,0,8,-179
10.63870,0.12250,-0.00840,0.00000,0.03172,0.97588,-0.19008,0.0,0,0,0,0,0,8,-179
10.63880,-0.07000,-0.06090,0.00000,0.02806,0.97624,-0.19325,0.0,0,0,0,0,0,8,-164
10.63890,0.19250,-0.16590,0.00000,0.02940,0.97612,-0.19422,0.0,0,0,0,0,0,8,-148
10.63900,-0.12250,0.16660,0.00000,0.02891,0.97759,-0.19459,0.0,0,0,0,0,0,8,-148
10.63910,0.22750,-0.09590,0.00000,0.02965,0.97380,-0.19191,0.0,0,0,0,0,0,8,-132
10.63920,-0.05250,-0.02590,0.00000,0.03001,0.97698,-0.19142,0.0,0,0,0,0,0,8,-116
10.63930,0.07000,0.00910,0.00000,0.02855,0.97807,-0.19325,0.0,0,0,0,0,0,8,-101
10.63940,-0.08750,0.18410,0.00000,0.02806,0.97368,-0.19276,0.0,0,0,0,0,0,8,-101
10.63950,0.17500,0.07910,0.00000,0.03099,0.97624,-0.19386,0.0,0,0,0,0,0,8,-85
10.63960,0.08750,-0.14840,0.00000,0.02867,0.97490,-0.19203,0.0,0,0,0,0,0,8,-69
10.63970,0.05250,-0.09590,0.00000,0.03135,0.97588,-0.19264,0.0,0,0,0,0,0,8,-69
10.63980,0.12250,0.13160,0.00000,0.02977,0.97710,-0.19471,0.0,0,0,0,0,0,8,-54
10.63990,-0.08750,0.06160,0.00000,0.02952,0.97746,-0.19239,0.0,0,0,0,0,0,8,-38
10.64000,0.03500,0.02660,0.00000,0.03087,0.97673,-0.19349,0.0,0,0,0,0,0,8,-38
10.64010,0.19250,0.11410,0.00000,0.03087,0.97576,-0.19398,0.0,0,0,0,0,0,8,-22
10.64020,0.03500,-0.21840,0.00000,0.02891,0.97673,-0.19374,0.0,0,0,0,0,0,8,-6
10.64030,-0.03500,0.18410,0.00000,0.02879,0.97844,-0.19215,0.0,0,0,0,0,0,8,8
10.64040,-0.14000,-0.07840,0.00000,0.03074,0.97612,-0.19337,0.0,0,0,0,0,0,8,8
10.64050,-0.05250,0.00910,0.00000,0.03087,0.97576,-0.19361,0.0,0,0,0,0,0,8,24
10.64060,-0.05250,0.28910,0.00000,0.02904,0.97698,-0.19349,0.0,0,0,0,0,0,8,40
10.64070,-0.01750,0.07910,0.00000,0.03099,0.97441,-0.19398,0.0,0,0,0,0,0,8,40
10.64080,0.07000,-0.06090,0.00000,0.03196,0.97637,-0.19447,0.0,0,0,0,0,0,8,55
10.64090,0.15750,0.02660,0.00000,0.03087,0.97539,-0.19410,0.0,0,0,0,0,0,8,71
10.64100,-0.03500,0.02660,0.00000,0.02867,0.97295,-0.19227,0.0,0,0,0,0,0,8,71
10.64110,-0.17500,0.23660,0.00000,0.02891,0.97502,-0.19264,0.0,0,0,0,0,0,8,97
10.64120,0.19250,0.13160,0.00000,0.02965,0.97405,-0.19361,0.0,0,0,0,0,0,8,103
10.64130,0.00000,0.11410,0.00000,0.02916,0.97527,-0.19398,0.0,0,0,0,0,0,8,118
10.64140,0.08750,0.09660,0.00000,0.02928,0.97490,-0.19496,0.0,0,0,0,0,0,8,118
10.64150,-0.01750,0.30660,0.00000,0.02916,0.97539,-0.19398,0.0,0,0,0,0,0,8,134
10.64160,0.01750,0.04410,0.00000,0.02660,0.97685,-0.19520,0.0,0,0,0,0,0,8,151
10.64170,0.05250,0.02660,0.00000,0.02769,0.97624,-0.19288,0.0,0,0,0,0,0,8,151
10.64180,-0.05250,-0.04340,0.00000,0.03013,0.97710,-0.19313,0.0,0,0,0,0,0,8,166
10.64190,0.17500,-0.23590,0.00000,0.03135,0.97893,-0.19337,0.0,0,0,0,0,0,8,181
10.64200,-0.17500,-0.13090,0.00000,0.02745,0.97624,-0.19508,0.0,0,0,0,0,0,8,181
10.64210,0.05250,0.00910,0.00000,0.02867,0.97478,-0.19264,0.0,0,0,0,0,0,8,197
10.64220,0.00000,-0.02590,0.00000,0.02965,0.97661,-0.19532,0.0,0,0,0,0,0,9,-787
10.64230,0.05250,0.07910,0.00000,0.02757,0.97698,-0.19386,0.0,0,0,0,0,0,9,-771
10.64240,0.08750,0.14910,0.00000,0.02672,0.97576,-0.19422,0.0,0,0,0,0,0,9,-771
10.64250,-0.10500,0.09660,0.00000,0.02708,0.97795,-0.19117,0.0,0,0,0,0,0,9,-755
10.64260,0.12250,-0.02590,0.00000,0.03087,0.97551,-0.19569,0.0,0,0,0,0,0,9,-740
10.64270,-0.05250,0.02660,0.00000,0.02965,0.97393,-0.19544,0.0,0,0,0,0,0,9,-740
10.64280,0.00000,-0.20090,0.00000,0.02782,0.97698,-0.19435,0.0,0,0,0,0,0,9,-723
10.64290,-0.21000,0.14910,0.00000,0.02879,0.97551,-0.19288,0.0,0,0,0,0,0,9,-707
10.64300,0.19250,0.18410,0.00000,0.02965,0.97539,-0.19178,0.0,0,0,0,0,0,9,-707
10.64310,-0.07000,0.07910,0.00000,0.02940,0.97368,-0.19361,0.0,0,0,0,0,0,9,-692
10.64320,0.03500,0.14910,0.00000,0.02916,0.97356,-0.19410,0.0,0,0,0,0,0,9,-676
10.64330,-0.01750,0.02660,0.00000,0.02794,0.97588,-0.19325,0.0,0,0,0,0,0,9,-660
10.64340,-0.03500,-0.06090,0.00000,0.03221,0.97673,-0.19569,0.0,0,0,0,0,0,9,-660
10.64350,-0.05250,0.07910,0.00000,0.02782,0.97624,-0.19300,0.0,0,0,0,0,0,9,-645
10.64360,0.07000,0.02660,0.00000,0.02904,0.97563,-0.19252,0.0,0,0,0,0,0,9,-629
10.64370,-0.15750,0.02660,0.00000,0.03135,0.97478,-0.19447,0.0,0,0,0,0,0,9,-629
10.64380,0.03500,0.02660,0.00000,0.02867,0.97698,-0.19203,0.0,0,0,0,0,0,9,-612
10.64390,0.07000,-0.11340,0.00000,0.02916,0.97624,-0.19496,0.0,0,0,0,0,0,9,-597
10.64400,0.21000,-0.07840,0.00000,0.02904,0.97624,-0.19252,0.0,0,0,0,0,0,9,-597
10.64410,-0.05250,-0.20090,0.00000,0.02782,0.97612,-0.19337,0.0,0,0,0,0,0,9,-582
10.64420,0.00000,0.00910,0.00000,0.02977,0.97417,-0.19300,0.0,0,0,0,0,0,9,-566
10.64430,0.05250,-0.04340,0.00000,0.02855,0.97637,-0.19361,0.0,0,0,0,0,0,9,-550
10.64440,-0.10500,0.23660,0.00000,0.02989,0.97441,-0.19276,0.0,0,0,0,0,0,9,-550
10.64450,0.05250,0.07910,0.00000,0.03087,0.97807,-0.19252,0.0,0,0,0,0,0,9,-535
10.64460,0.03500,0.07910,0.00000,0.03184,0.97454,-0.19313,0.0,0,0,0,0,0,9,-519
10.64470,-0.12250,-0.02590,0.00000,0.02843,0.97539,-0.19459,0.0,0,0,0,0,0,9,-519
10.64480,-0.03500,-0.02590,0.00000,0.02891,0.97429,-0.19422,0.0,0,0,0,0,0,9,-503
10.64490,-0.17500,0.16660,0.00000,0.03013,0.97612,-0.19398,0.0,0,0,0,0,0,9,-488
10.64500,-0.19250,0.09660,0.00000,0.02843,0.97502,-0.19325,0.0,0,0,0,0,0,9,-488
10.64510,0.05250,-0.07840,0.00000,0.02855,0.97624,-0.19215,0.0,0,0,0,0,0,9,-472
10.64520,0.22750,-0.13090,0.00000,0.02818,0.97539,-0.19276,0.0,0,0,0,0,0,9,-457
10.64530,-0.01750,0.11410,0.00000,0.03026,0.97661,-0.19117,0.0,0,0,0,0,0,9,-440
10.64540,0.01750,-0.09590,0.00000,0.02916,0.97490,-0.19288,0.0,0,0,0,0,0,9,-440
10.64550,-0.15750,0.11410,0.00000,0.02879,0.97710,-0.19605,0.0,0,0,0,0,0,9,-425
10.64560,0.00000,-0.09590,0.00000,0.02745,0.97356,-0.19337,0.0,0,0,0,0,0,9,-409
10.64570,0.03500,0.00910,0.00000,0.02952,0.97624,-0.19349,0.0,0,0,0,0,0,9,-409
10.64580,-0.10500,0.28910,0.00000,0.03026,0.97868,-0.19361,0.0,0,0,0,0,0,9,-394
10.64590,0.05250,-0.06090,0.00000,0.03074,0.97637,-0.19508,0.0,0,0,0,0,0,9,-378
10.64600,-0.01750,0.21910,0.00000,0.02769,0.97490,-0.19288,0.0,0,0,0,0,0,9,-378
10.64610,-0.08750,0.16660,0.00000,0.02940,0.97454,-0.19361,0.0,0,0,0,0,0,9,-363
10.64620,0.12250,0.07910,0.00000,0.03026,0.97661,-0.19191,0.0,0,0,0,0,0,9,-347
10.64630,0.00000,-0.25340,0.00000,0.03099,0.97844,-0.19300,0.0,0,0,0,0,0,9,-331
10.64640,0.21000,0.06160,0.00000,0.02891,0.97563,-0.19313,0.0,0,0,0,0,0,9,-331
10.64650,-0.15750,0.02660,0.00000,0.02818,0.97576,-0.19349,0.0,0,0,0,0,0,9,-316
10.64660,-0.05250,0.11410,0.00000,0.02855,0.97722,-0.19166,0.0,0,0,0,0,0,9,-298
10.64670,-0.05250,0.06160,0.00000,0.02708,0.97637,-0.19313,0.0,0,0,0,0,0,9,-298
10.64680,0.01750,0.11410,0.00000,0.02782,0.97515,-0.19459,0.0,0,0,0,0,0,9,-284
10.64690,-0.05250,0.11410,0.00000,0.02952,0.97527,-0.19337,0.0,0,0,0,0,0,9,-268
10.64700,-0.07000,0.14910,0.00000,0.02928,0.97405,-0.19532,0.0,0,0,0,0,0,9,-253
10.64710,0.07000,-0.04340,0.00000,0.02855,0.97624,-0.19496,0.0,0,0,0,0,0,9,-253
10.64720,0.00000,0.13160,0.00000,0.03001,0.97490,-0.19374,0.0,0,0,0,0,0,9,-237
10.64730,0.14000,-0.21840,0.00000,0.02806,0.97368,-0.19410,0.0,0,0,0,0,0,9,-222
10.64740,0.00000,-0.09590,0.00000,0.02867,0.97502,-0.19520,0.0,0,0,0,0,0,9,-206
10.64750,0.08750,-0.02590,0.00000,0.02965,0.97551,-0.19508,0.0,0,0,0,0,0,9,-206
10.64760,0.29750,-0.28840,0.00000,0.02769,0.97454,-0.19544,0.0,0,0,0,0,0,9,-190
10.64770,-0.15750,0.34160,0.00000,0.02891,0.97441,-0.19447,0.0,0,0,0,0,0,9,-175
10.64780,0.07000,0.16660,0.00000,0.02891,0.97527,-0.19483,0.0,0,0,0,0,0,9,-175
10.64790,-0.01750,-0.04340,0.00000,0.03074,0.97807,-0.19398,0.0,0,0,0,0,0,9,-159
10.64800,0.05250,0.09660,0.00000,0.02611,0.97759,-0.19435,0.0,0,0,0,0,0,9,-143
10.64810,-0.08750,0.09660,0.00000,0.02977,0.97685,-0.19471,0.0,0,0,0,0,0,9,-128
10.64820,-0.03500,-0.09590,0.00000,0.02867,0.97673,-0.19544,0.0,0,0,0,0,0,9,-128
10.64830,-0.07000,0.07910,0.00000,0.02989,0.97612,-0.19544,0.0,0,0,0,0,0,9,-112
10.64840,0.05250,0.11410,0.00000,0.02867,0.97624,-0.19422,0.0,0,0,0,0,0,9,-96
10.64850,-0.07000,0.02660,0.00000,0.02733,0.97722,-0.19618,0.0,0,0,0,0,0,9,-96
10.64860,0.03500,0.07910,0.00000,0.02940,0.97478,-0.19544,0.0,0,0,0,0,0,9,-81
10.64870,-0.14000,-0.09590,0.00000,0.02769,0.97515,-0.19422,0.0,0,0,0,0,0,9,-65
10.64880,0.03500,-0.23590,0.00000,0.03099,0.97710,-0.19544,0.0,0,0,0,0,0,9,-49
10.64890,0.10500,-0.13090,0.00000,0.02940,0.97612,-0.19471,0.0,0,0,0,0,0,9,-49
10.64900,0.19250,0.06160,0.00000,0.02843,0.97429,-0.19691,0.0,0,0,0,0,0,9,-34
10.64910,-0.03500,0.13160,0.00000,0.02794,0.97539,-0.19435,0.0,0,0,0,0,0,9,-18
10.64920,0.22750,-0.21840,0.00000,0.02672,0.97746,-0.19435,0.0,0,0,0,0,0,9,-18
10.64930,-0.14000,-0.06090,0.00000,0.02891,0.97685,-0.19337,0.0,0,0,0,0,0,9,-2
10.64940,0.10500,0.02660,0.00000,0.03062,0.97661,-0.19471,0.0,0,0,0,0,0,9,12
10.64950,-0.08750,0.00910,0.00000,0.02843,0.97551,-0.19557,0.0,0,0,0,0,0,9,28
10.64960,0.10500,-0.00840,0.00000,0.02879,0.97478,-0.19557,0.0,0,0,0,0,0,9,28
10.64970,0.05250,-0.00840,0.00000,0.02916,0.97612,-0.19569,0.0,0,0,0,0,0,9,43
10.64980,-0.07000,-0.02590,0.00000,0.02916,0.97600,-0.19471,0.0,0,0,0,0,0,9,59
10.64990,0.08750,-0.11340,0.00000,0.02782,0.97429,-0.19459,0.0,0,0,0,0,0,9,75
10.65000,-0.01750,-0.00840,0.00000,0.02916,0.97454,-0.19520,0.0,0,0,0,0,0,9,75
10.65010,-0.07000,-0.04340,0.00000,0.02843,0.97405,-0.19447,0.0,0,0,0,0,0,9,90
10.65020,-0.03500,-0.13090,0.00000,0.02989,0.97502,-0.19422,0.0,0,0,0,0,0,9,106
10.65030,0.07000,0.18410,0.00000,0.02867,0.97405,-0.19435,0.0,0,0,0,0,0,9,106
10.65040,0.12250,0.00910,0.00000,0.02916,0.97685,-0.19605,0.0,0,0,0,0,0,9,122
10.65050,-0.01750,0.09660,0.00000,0.02769,0.97600,-0.19496,0.0,0,0,0,0,0,9,137
10.65060,-0.01750,-0.04340,0.00000,0.02928,0.97478,-0.19508,0.0,0,0,0,0,0,9,137
10.65070,-0.17500,0.21910,0.00000,0.02660,0.97588,-0.19435,0.0,0,0,0,0,0,9,154
10.65080,-0.12250,0.21910,0.00000,0.02806,0.97527,-0.19642,0.0,0,0,0,0,0,9,169
10.65090,0.05250,-0.04340,0.00000,0.02855,0.97649,-0.19618,0.0,0,0,0,0,0,9,184
10.65100,0.05250,-0.09590,0.00000,0.02830,0.97502,-0.19544,0.0,0,0,0,0,0,9,184
10.65110,0.00000,-0.02590,0.00000,0.03087,0.97576,-0.19508,0.0,0,0,0,0,0,9,200
10.65120,0.05250,-0.02590,0.00000,0.02769,0.97722,-0.19630,0.0,0,0,0,0,0,10,-783
10.65130,0.19250,-0.11340,0.00000,0.02684,0.97588,-0.19581,0.0,0,0,0,0,0,10,-783
10.65140,-0.03500,-0.11340,0.00000,0.02977,0.97710,-0.19410,0.0,0,0,0,0,0,10,-768
10.65150,-0.15750,0.11410,0.00000,0.03184,0.97917,-0.19483,0.0,0,0,0,0,0,10,-751
10.65160,0.00000,0.02660,0.00000,0.02794,0.97490,-0.19520,0.0,0,0,0,0,0,10,-736
10.65170,-0.03500,0.04410,0.00000,0.03111,0.97563,-0.19215,0.0,0,0,0,0,0,10,-736
10.65180,0.12250,-0.02590,0.00000,0.03111,0.97612,-0.19435,0.0,0,0,0,0,0,10,-720
10.65190,-0.03500,-0.06090,0.00000,0.02794,0.97441,-0.19300,0.0,0,0,0,0,0,10,-705
10.65200,0.05250,0.11410,0.00000,0.03050,0.97551,-0.19422,0.0,0,0,0,0,0,10,-705
10.65210,-0.17500,0.06160,0.00000,0.02855,0.97612,-0.19496,0.0,0,0,0,0,0,10,-689
10.65220,-0.12250,-0.02590,0.00000,0.02904,0.97502,-0.19349,0.0,0,0,0,0,0,10,-673
10.65230,-0.12250,-0.09590,0.00000,0.03123,0.97502,-0.19374,0.0,0,0,0,0,0,10,-657
10.65240,-0.10500,0.18410,0.00000,0.02916,0.97771,-0.19288,0.0,0,0,0,0,0,10,-656
10.65250,0.15750,-0.13090,0.00000,0.02794,0.97490,-0.19483,0.0,0,0,0,0,0,10,-641
10.65260,-0.07000,0.18410,0.00000,0.03013,0.97661,-0.19520,0.0,0,0,0,0,0,10,-626
10.65270,0.01750,0.04410,0.00000,0.02940,0.97588,-0.19386,0.0,0,0,0,0,0,10,-626
10.65280,-0.01750,0.06160,0.00000,0.03209,0.97405,-0.19239,0.0,0,0,0,0,0,10,-610
10.65290,-0.14000,0.06160,0.00000,0.02806,0.97637,-0.19203,0.0,0,0,0,0,0,10,-594
10.65300,0.12250,-0.18340,0.00000,0.02977,0.97502,-0.19459,0.0,0,0,0,0,0,10,-578
10.65310,0.05250,-0.07840,0.00000,0.02794,0.97332,-0.19056,0.0,0,0,0,0,0,10,-571
10.65320,0.17500,-0.16590,0.00000,0.02867,0.97576,-0.19398,0.0,0,0,0,0,0,10,-562
10.65330,0.14000,-0.09590,0.00000,0.02830,0.97515,-0.19471,0.0,0,0,0,0,0,10,-546
10.65340,0.00000,0.27160,0.00000,0.02940,0.97515,-0.19288,0.0,0,0,0,0,0,10,-546
10.65350,-0.07000,0.02660,0.00000,0.03001,0.97612,-0.19215,0.0,0,0,0,0,0,10,-530
10.65360,0.05250,0.11410,0.00000,0.02952,0.97393,-0.19337,0.0,0,0,0,0,0,10,-515
10.65370,-0.05250,0.02660,0.00000,0.02806,0.97698,-0.19093,0.0,0,0,0,0,0,10,-515
10.65380,0.21000,-0.11340,0.00000,0.02989,0.97417,-0.19227,0.0,0,0,0,0,0,10,-499
10.65390,0.03500,0.02660,0.00000,0.02952,0.97478,-0.19191,0.0,0,0,0,0,0,10,-484
10.65400,0.03500,-0.02590,0.00000,0.02965,0.97429,-0.19276,0.0,0,0,0,0,0,10,-468
10.65410,-0.05250,-0.02590,0.00000,0.02940,0.97454,-0.19252,0.0,0,0,0,0,0,10,-468
10.65420,0.15750,-0.06090,0.00000,0.02733,0.97649,-0.19374,0.0,0,0,0,0,0,10,-452
10.65430,-0.05250,0.07910,0.00000,0.02867,0.97441,-0.19325,0.0,0,0,0,0,0,10,-437
10.65440,0.07000,-0.04340,0.00000,0.03038,0.97551,-0.19398,0.0,0,0,0,0,0,10,-437
10.65450,0.12250,0.07910,0.00000,0.03074,0.97624,-0.19374,0.0,0,0,0,0,0,10,-421
10.65460,0.21000,0.04410,0.00000,0.02879,0.97673,-0.19178,0.0,0,0,0,0,0,10,-405
10.65470,-0.17500,0.09660,0.00000,0.02904,0.97698,-0.19483,0.0,0,0,0,0,0,10,-390
10.65480,0.03500,-0.09590,0.00000,0.02891,0.97527,-0.19215,0.0,0,0,0,0,0,10,-390
10.65490,0.08750,-0.13090,0.00000,0.03062,0.97515,-0.19142,0.0,0,0,0,0,0,10,-374
10.65500,0.05250,0.02660,0.00000,0.02843,0.97612,-0.19239,0.0,0,0,0,0,0,10,-358
10.65510,0.03500,-0.02590,0.00000,0.03001,0.97539,-0.19215,0.0,0,0,0,0,0,10,-358
10.65520,-0.01750,0.00910,0.00000,0.02977,0.97527,-0.19288,0.0,0,0,0,0,0,10,-343
10.65530,-0.14000,0.25410,0.00000,0.02916,0.97588,-0.19178,0.0,0,0,0,0,0,10,-327
10.65540,-0.19250,0.06160,0.00000,0.02794,0.97588,-0.19154,0.0,0,0,0,0,0,10,-311
10.65550,-0.05250,0.18410,0.00000,0.02940,0.97673,-0.19227,0.0,0,0,0,0,0,10,-311
10.65560,-0.17500,0.00910,0.00000,0.02647,0.97612,-0.19483,0.0,0,0,0,0,0,10,-296
10.65570,-0.07000,0.14910,0.00000,0.02989,0.97746,-0.19264,0.0,0,0,0,0,0,10,-280
10.65580,-0.03500,-0.09590,0.00000,0.02818,0.97515,-0.19422,0.0,0,0,0,0,0,10,-265
10.65590,-0.22750,0.16660,0.00000,0.03013,0.97746,-0.19325,0.0,0,0,0,0,0,10,-265
10.65600,0.07000,-0.09590,0.00000,0.02904,0.97563,-0.19374,0.0,0,0,0,0,0,10,-249
10.65610,0.15750,-0.11340,0.00000,0.03026,0.97527,-0.19142,0.0,0,0,0,0,0,10,-233
10.65620,0.01750,0.02660,0.00000,0.02696,0.97624,-0.19252,0.0,0,0,0,0,0,10,-233
10.65630,-0.10500,0.09660,0.00000,0.02745,0.97698,-0.19471,0.0,0,0,0,0,0,10,-215
10.65640,-0.28000,0.00910,0.00000,0.02843,0.97612,-0.19252,0.0,0,0,0,0,0,10,-200
10.65650,0.10500,-0.06090,0.00000,0.02928,0.97551,-0.19288,0.0,0,0,0,0,0,10,-200
10.65660,-0.08750,0.11410,0.00000,0.03026,0.97527,-0.19239,0.0,0,0,0,0,0,10,-184
10.65670,0.22750,0.00910,0.00000,0.02989,0.97637,-0.19508,0.0,0,0,0,0,0,10,-168
10.65680,0.05250,0.13160,0.00000,0.02952,0.97283,-0.19410,0.0,0,0,0,0,0,10,-152
10.65690,-0.07000,0.20160,0.00000,0.02879,0.97624,-0.19300,0.0,0,0,0,0,0,10,-152
10.65700,0.00000,0.06160,0.00000,0.03026,0.97661,-0.19483,0.0,0,0,0,0,0,10,-137
10.65710,0.12250,-0.14840,0.00000,0.03001,0.97563,-0.19264,0.0,0,0,0,0,0,10,-121
10.65720,0.00000,0.02660,0.00000,0.03038,0.97734,-0.19532,0.0,0,0,0,0,0,10,-121
10.65730,-0.01750,0.00910,0.00000,0.02928,0.97563,-0.19117,0.0,0,0,0,0,0,10,-106
10.65740,0.10500,0.09660,0.00000,0.02672,0.97490,-0.19398,0.0,0,0,0,0,0,10,-89
10.65750,0.03500,0.00910,0.00000,0.02940,0.97624,-0.19386,0.0,0,0,0,0,0,10,-74
10.65760,0.00000,-0.09590,0.00000,0.02916,0.97881,-0.19264,0.0,0,0,0,0,0,10,-74
10.65770,0.14000,0.07910,0.00000,0.02843,0.97380,-0.19374,0.0,0,0,0,0,0,10,-58
10.65780,-0.08750,0.13160,0.00000,0.02733,0.97649,-0.19618,0.0,0,0,0,0,0,10,-43
10.65790,0.10500,-0.09590,0.00000,0.02965,0.97612,-0.19386,0.0,0,0,0,0,0,10,-43
10.65800,0.01750,-0.09590,0.00000,0.02830,0.97344,-0.19349,0.0,0,0,0,0,0,10,-27
10.65810,0.15750,0.02660,0.00000,0.02830,0.97722,-0.19483,0.0,0,0,0,0,0,10,-11
10.65820,-0.12250,0.06160,0.00000,0.02830,0.97539,-0.19520,0.0,0,0,0,0,0,10,-11
10.65830,-0.03500,-0.02590,0.00000,0.03038,0.97502,-0.19398,0.0,0,0,0,0,0,10,4
10.65840,0.01750,-0.11340,0.00000,0.02904,0.97649,-0.19410,0.0,0,0,0,0,0,10,19
10.65850,-0.01750,0.14910,0.00000,0.02904,0.97563,-0.19410,0.0,0,0,0,0,0,10,35
10.65860,0.15750,-0.06090,0.00000,0.02794,0.97771,-0.19435,0.0,0,0,0,0,0,10,35
10.65870,-0.28000,-0.04340,0.00000,0.02867,0.97490,-0.19386,0.0,0,0,0,0,0,10,51
10.65880,0.05250,0.20160,0.00000,0.02952,0.97551,-0.19227,0.0,0,0,0,0,0,10,66
10.65890,-0.03500,0.06160,0.00000,0.02782,0.97624,-0.19386,0.0,0,0,0,0,0,10,66
10.65900,-0.12250,-0.09590,0.00000,0.02940,0.97685,-0.19483,0.0,0,0,0,0,0,10,82
10.65910,0.17500,-0.11340,0.00000,0.02916,0.97576,-0.19471,0.0,0,0,0,0,0,10,98
10.65920,-0.07000,-0.00840,0.00000,0.02952,0.97624,-0.19300,0.0,0,0,0,0,0,10,113
10.65930,0.21000,-0.07840,0.00000,0.02891,0.97527,-0.19422,0.0,0,0,0,0,0,10,121
10.65940,-0.07000,0.07910,0.00000,0.02769,0.97673,-0.19337,0.0,0,0,0,0,0,10,129
10.65950,0.31500,0.06160,0.00000,0.03013,0.97612,-0.18995,0.0,0,0,0,0,0,10,145
10.65960,-0.10500,-0.13090,0.00000,0.02952,0.97807,-0.19471,0.0,0,0,0,0,0,10,145
10.65970,0.07000,-0.02590,0.00000,0.03013,0.97478,-0.19593,0.0,0,0,0,0,0,10,161
10.65980,-0.05250,0.07910,0.00000,0.02940,0.97673,-0.19483,0.0,0,0,0,0,0,10,176
10.65990,0.14000,-0.20090,0.00000,0.03050,0.97807,-0.19166,0.0,0,0,0,0,0,10,192
10.66000,0.00000,0.04410,0.00000,0.02977,0.97807,-0.19398,0.0,0,0,0,0,0,10,192
10.66010,0.10500,-0.02590,0.00000,0.02916,0.97685,-0.19264,0.0,0,0,0,0,0,10,208
10.66020,-0.14000,0.18410,0.00000,0.02891,0.97551,-0.19386,0.0,0,0,0,0,0,11,-776
10.66030,0.17500,-0.13090,0.00000,0.02672,0.97673,-0.19483,0.0,0,0,0,0,0,11,-776
10.66040,-0.15750,-0.00840,0.00000,0.02916,0.97551,-0.19410,0.0,0,0,0,0,0,11,-760
10.66050,0.03500,0.16660,0.00000,0.02733,0.97612,-0.19386,0.0,0,0,0,0,0,11,-744
10.66060,-0.03500,-0.02590,0.00000,0.02952,0.97734,-0.19239,0.0,0,0,0,0,0,11,-729
10.66070,-0.19250,0.14910,0.00000,0.02928,0.97734,-0.19154,0.0,0,0,0,0,0,11,-729
10.66080,-0.24500,0.06160,0.00000,0.02843,0.97246,-0.19288,0.0,0,0,0,0,0,11,-713
10.66090,0.03500,0.06160,0.00000,0.02916,0.97380,-0.19288,0.0,0,0,0,0,0,11,-697
10.66100,-0.07000,0.02660,0.00000,0.02806,0.97576,-0.19410,0.0,0,0,0,0,0,11,-697
10.66110,-0.03500,0.13160,0.00000,0.02855,0.97551,-0.19422,0.0,0,0,0,0,0,11,-682
10.66120,0.05250,-0.09590,0.00000,0.02965,0.97795,-0.19252,0.0,0,0,0,0,0,11,-666
10.66130,-0.14000,0.34160,0.00000,0.02830,0.97673,-0.19020,0.0,0,0,0,0,0,11,-650
10.66140,0.05250,-0.09590,0.00000,0.02916,0.97515,-0.19471,0.0,0,0,0,0,0,11,-650
10.66150,0.08750,-0.07840,0.00000,0.02940,0.97649,-0.19239,0.0,0,0,0,0,0,11,-635
10.66160,0.03500,0.02660,0.00000,0.02989,0.97515,-0.19300,0.0,0,0,0,0,0,11,-619
10.66170,0.21000,0.02660,0.00000,0.02574,0.97746,-0.19215,0.0,0,0,0,0,0,11,-619
10.66180,-0.01750,0.25410,0.00000,0.02952,0.97746,-0.19227,0.0,0,0,0,0,0,11,-604
10.66190,0.14000,-0.00840,0.00000,0.02904,0.97698,-0.19313,0.0,0,0,0,0,0,11,-588
10.66200,-0.08750,0.00910,0.00000,0.02879,0.97673,-0.19520,0.0,0,0,0,0,0,11,-572
10.66210,0.03500,0.06160,0.00000,0.02745,0.97515,-0.19471,0.0,0,0,0,0,0,11,-572
10.66220,-0.24500,-0.04340,0.00000,0.02855,0.97344,-0.19264,0.0,0,0,0,0,0,11,-557
10.66230,-0.07000,0.06160,0.00000,0.02940,0.97405,-0.19203,0.0,0,0,0,0,0,11,-541
10.66240,-0.01750,-0.00840,0.00000,0.02940,0.97710,-0.19630,0.0,0,0,0,0,0,11,-541
10.66250,0.01750,0.07910,0.00000,0.03111,0.97515,-0.19422,0.0,0,0,0,0,0,11,-525
10.66260,-0.12250,-0.16590,0.00000,0.02904,0.97624,-0.19142,0.0,0,0,0,0,0,11,-509
10.66270,-0.15750,-0.07840,0.00000,0.02757,0.97673,-0.19276,0.0,0,0,0,0,0,11,-494
10.66280,0.22750,-0.11340,0.00000,0.02843,0.97771,-0.19386,0.0,0,0,0,0,0,11,-494
10.66290,0.00000,-0.02590,0.00000,0.02855,0.97551,-0.19435,0.0,0,0,0,0,0,11,-470
10.66300,0.10500,-0.02590,0.00000,0.02952,0.97722,-0.19398,0.0,0,0,0,0,0,11,-462
10.66310,0.07000,-0.20090,0.00000,0.02843,0.97466,-0.19325,0.0,0,0,0,0,0,11,-462
10.66320,-0.08750,0.00910,0.00000,0.02952,0.97673,-0.19300,0.0,0,0,0,0,0,11,-447
10.66330,0.08750,-0.06090,0.00000,0.02952,0.97746,-0.19276,0.0,0,0,0,0,0,11,-431
10.66340,-0.08750,-0.02590,0.00000,0.03099,0.97588,-0.19447,0.0,0,0,0,0,0,11,-415
10.66350,0.01750,0.02660,0.00000,0.03026,0.97698,-0.19337,0.0,0,0,0,0,0,11,-415
10.66360,-0.01750,-0.02590,0.00000,0.02855,0.97624,-0.19130,0.0,0,0,0,0,0,11,-400
10.66370,-0.03500,0.20160,0.00000,0.02965,0.97551,-0.19483,0.0,0,0,0,0,0,11,-384
10.66380,0.01750,0.14910,0.00000,0.03099,0.97649,-0.19459,0.0,0,0,0,0,0,11,-384
10.66390,0.10500,-0.09590,0.00000,0.02794,0.97490,-0.19191,0.0,0,0,0,0,0,11,-368
10.66400,-0.12250,0.07910,0.00000,0.02733,0.97332,-0.19422,0.0,0,0,0,0,0,11,-353
10.66410,-0.08750,-0.04340,0.00000,0.02940,0.97563,-0.19349,0.0,0,0,0,0,0,11,-337
10.66420,0.00000,0.04410,0.00000,0.02989,0.97649,-0.19447,0.0,0,0,0,0,0,11,-337
10.66430,-0.03500,0.02660,0.00000,0.03026,0.97490,-0.19325,0.0,0,0,0,0,0,11,-321
10.66440,-0.05250,-0.04340,0.00000,0.02928,0.97710,-0.19252,0.0,0,0,0,0,0,11,-306
10.66450,0.05250,-0.30590,0.00000,0.02818,0.97441,-0.19483,0.0,0,0,0,0,0,11,-306
10.66460,-0.10500,0.13160,0.00000,0.02830,0.97746,-0.19105,0.0,0,0,0,0,0,11,-290
10.66470,0.08750,-0.09590,0.00000,0.03013,0.97478,-0.19508,0.0,0,0,0,0,0,11,-275
10.66480,-0.17500,-0.00840,0.00000,0.03026,0.97624,-0.19191,0.0,0,0,0,0,0,11,-259
10.66490,-0.21000,-0.00840,0.00000,0.02830,0.97734,-0.19020,0.0,0,0,0,0,0,11,-259
10.66500,-0.01750,-0.04340,0.00000,0.03038,0.97539,-0.19386,0.0,0,0,0,0,0,11,-243
10.66510,-0.15750,0.11410,0.00000,0.03026,0.97722,-0.19276,0.0,0,0,0,0,0,11,-228
10.66520,-0.07000,0.20160,0.00000,0.02867,0.97527,-0.19361,0.0,0,0,0,0,0,11,-212
10.66530,-0.01750,0.02660,0.00000,0.03013,0.97563,-0.18995,0.0,0,0,0,0,0,11,-212
10.66540,-0.01750,0.11410,0.00000,0.02855,0.97368,-0.19313,0.0,0,0,0,0,0,11,-196
10.66550,0.07000,-0.14840,0.00000,0.03123,0.97454,-0.19349,0.0,0,0,0,0,0,11,-180
10.66560,0.07000,0.09660,0.00000,0.02806,0.97466,-0.19252,0.0,0,0,0,0,0,11,-180
10.66570,-0.21000,0.02660,0.00000,0.02684,0.97588,-0.19215,0.0,0,0,0,0,0,11,-165
10.66580,0.24500,-0.11340,0.00000,0.02965,0.97502,-0.19142,0.0,0,0,0,0,0,11,-149
10.66590,0.05250,-0.06090,0.00000,0.03270,0.97661,-0.19459,0.0,0,0,0,0,0,11,-149
10.66600,-0.01750,0.13160,0.00000,0.03026,0.97576,-0.19239,0.0,0,0,0,0,0,11,-134
10.66610,-0.03500,0.11410,0.00000,0.03062,0.97637,-0.19325,0.0,0,0,0,0,0,11,-118
10.66620,-0.17500,-0.09590,0.00000,0.02696,0.97515,-0.19459,0.0,0,0,0,0,0,11,-102
10.66630,-0.14000,0.07910,0.00000,0.02782,0.97612,-0.19130,0.0,0,0,0,0,0,11,-102
10.66640,-0.05250,0.02660,0.00000,0.02757,0.97466,-0.19276,0.0,0,0,0,0,0,11,-87
10.66650,-0.12250,0.07910,0.00000,0.02952,0.97588,-0.19557,0.0,0,0,0,0,0,11,-70
10.66660,0.10500,-0.07840,0.00000,0.02660,0.97685,-0.19032,0.0,0,0,0,0,0,11,-70
10.66670,0.00000,0.02660,0.00000,0.02782,0.97685,-0.19349,0.0,0,0,0,0,0,11,-55
10.66680,0.00000,-0.06090,0.00000,0.02904,0.97698,-0.19325,0.0,0,0,0,0,0,11,-39
10.66690,0.05250,0.00910,0.00000,0.02721,0.97759,-0.19325,0.0,0,0,0,0,0,11,-23
10.66700,-0.05250,0.07910,0.00000,0.02647,0.97685,-0.19398,0.0,0,0,0,0,0,11,-23
10.66710,-0.03500,-0.14840,0.00000,0.02757,0.97698,-0.19496,0.0,0,0,0,0,0,11,-7
10.66720,0.03500,-0.04340,0.00000,0.02818,0.97466,-0.19178,0.0,0,0,0,0,0,11,7
10.66730,-0.12250,0.09660,0.00000,0.02684,0.97685,-0.19105,0.0,0,0,0,0,0,11,7
10.66740,-0.08750,0.18410,0.00000,0.02904,0.97527,-0.19252,0.0,0,0,0,0,0,11,23
10.66750,-0.03500,-0.00840,0.00000,0.03001,0.97588,-0.19191,0.0,0,0,0,0,0,11,38
10.66760,0.05250,0.06160,0.00000,0.02891,0.97417,-0.19398,0.0,0,0,0,0,0,11,54
10.66770,-0.01750,-0.28840,0.00000,0.02891,0.97527,-0.19239,0.0,0,0,0,0,0,11,54
10.66780,-0.03500,0.06160,0.00000,0.02952,0.97600,-0.19081,0.0,0,0,0,0,0,11,70
10.66790,-0.07000,-0.04340,0.00000,0.03026,0.97490,-0.19227,0.0,0,0,0,0,0,11,85
10.66800,-0.01750,0.04410,0.00000,0.02757,0.97600,-0.19288,0.0,0,0,0,0,0,11,85
10.66810,-0.03500,0.04410,0.00000,0.02977,0.97576,-0.19252,0.0,0,0,0,0,0,11,101
10.66820,0.00000,0.18410,0.00000,0.03148,0.97710,-0.19361,0.0,0,0,0,0,0,11,116
10.66830,0.12250,-0.13090,0.00000,0.03050,0.97539,-0.19374,0.0,0,0,0,0,0,11,132
10.66840,-0.05250,0.32410,0.00000,0.03074,0.97539,-0.19325,0.0,0,0,0,0,0,11,132
10.66850,-0.10500,0.21910,0.00000,0.02989,0.97649,-0.19264,0.0,0,0,0,0,0,11,148
10.66860,-0.05250,-0.02590,0.00000,0.02855,0.97515,-0.19203,0.0,0,0,0,0,0,11,163
10.66870,-0.35000,-0.04340,0.00000,0.02757,0.97454,-0.19349,0.0,0,0,0,0,0,11,163
10.66880,0.01750,0.06160,0.00000,0.02806,0.97478,-0.19337,0.0,0,0,0,0,0,11,179
10.66890,-0.17500,-0.14840,0.00000,0.03001,0.97612,-0.19337,0.0,0,0,0,0,0,11,195
10.66900,0.21000,-0.06090,0.00000,0.03233,0.97710,-0.19276,0.0,0,0,0,0,0,12,-789
10.66910,0.21000,-0.02590,0.00000,0.03050,0.97673,-0.19203,0.0,0,0,0,0,0,12,-789
10.66920,0.07000,0.06160,0.00000,0.02989,0.97429,-0.19544,0.0,0,0,0,0,0,12,-772
10.66930,-0.01750,0.07910,0.00000,0.03074,0.97698,-0.19471,0.0,0,0,0,0,0,12,-757
10.66940,0.10500,-0.16590,0.00000,0.02708,0.97661,-0.19288,0.0,0,0,0,0,0,12,-757
10.66950,-0.10500,0.02660,0.00000,0.02794,0.97539,-0.19191,0.0,0,0,0,0,0,12,-741
10.66960,0.00000,0.00910,0.00000,0.02940,0.97637,-0.19337,0.0,0,0,0,0,0,12,-725
10.66970,0.03500,0.00910,0.00000,0.02843,0.97637,-0.19361,0.0,0,0,0,0,0,12,-710
10.66980,0.08750,-0.00840,0.00000,0.02855,0.97429,-0.19288,0.0,0,0,0,0,0,12,-710
10.66990,-0.07000,0.02660,0.00000,0.02830,0.97734,-0.19166,0.0,0,0,0,0,0,12,-694
10.67000,0.05250,0.14910,0.00000,0.02879,0.97649,-0.19191,0.0,0,0,0,0,0,12,-679
10.67010,-0.24500,0.14910,0.00000,0.02843,0.97661,-0.19288,0.0,0,0,0,0,0,12,-679
10.67020,-0.10500,0.06160,0.00000,0.02867,0.97807,-0.19447,0.0,0,0,0,0,0,12,-663
10.67030,-0.05250,-0.11340,0.00000,0.02818,0.97698,-0.19142,0.0,0,0,0,0,0,12,-647
10.67040,-0.08750,0.07910,0.00000,0.02818,0.97649,-0.19361,0.0,0,0,0,0,0,12,-631
10.67050,0.03500,-0.07840,0.00000,0.02855,0.97454,-0.19264,0.0,0,0,0,0,0,12,-631
10.67060,0.03500,0.18410,0.00000,0.02855,0.97490,-0.19215,0.0,0,0,0,0,0,12,-615
10.67070,-0.15750,-0.09590,0.00000,0.02891,0.97649,-0.19227,0.0,0,0,0,0,0,12,-600
10.67080,0.00000,0.07910,0.00000,0.02782,0.97722,-0.19093,0.0,0,0,0,0,0,12,-600
10.67090,0.07000,-0.06090,0.00000,0.02965,0.97746,-0.19252,0.0,0,0,0,0,0,12,-584
10.67100,-0.07000,-0.00840,0.00000,0.02757,0.97502,-0.19117,0.0,0,0,0,0,0,12,-568
10.67110,0.05250,-0.06090,0.00000,0.02891,0.97649,-0.19313,0.0,0,0,0,0,0,12,-553
10.67120,-0.22750,0.20160,0.00000,0.02782,0.97795,-0.19215,0.0,0,0,0,0,0,12,-553
10.67130,0.05250,0.14910,0.00000,0.02940,0.97588,-0.18922,0.0,0,0,0,0,0,12,-537
10.67140,0.15750,0.13160,0.00000,0.02806,0.97698,-0.19130,0.0,0,0,0,0,0,12,-521
10.67150,-0.28000,0.13160,0.00000,0.03026,0.97624,-0.19056,0.0,0,0,0,0,0,12,-521
10.67160,0.03500,-0.04340,0.00000,0.02867,0.97588,-0.19093,0.0,0,0,0,0,0,12,-505
10.67170,0.08750,0.20160,0.00000,0.03026,0.97539,-0.19166,0.0,0,0,0,0,0,12,-490
10.67180,0.10500,-0.30590,0.00000,0.03050,0.97746,-0.19203,0.0,0,0,0,0,0,12,-490
10.67190,-0.10500,0.04410,0.00000,0.02769,0.97405,-0.19105,0.0,0,0,0,0,0,12,-474
10.67200,-0.12250,-0.04340,0.00000,0.02806,0.97771,-0.19008,0.0,0,0,0,0,0,12,-458
10.67210,0.10500,-0.14840,0.00000,0.03453,0.97612,-0.19093,0.0,0,0,0,0,0,12,-443
10.67220,0.03500,0.11410,0.00000,0.02867,0.97673,-0.19325,0.0,0,0,0,0,0,12,-443
10.67230,-0.15750,0.18410,0.00000,0.02586,0.97685,-0.19264,0.0,0,0,0,0,0,12,-427
10.67240,0.03500,0.09660,0.00000,0.02928,0.97624,-0.19191,0.0,0,0,0,0,0,12,-411
10.67250,0.03500,0.11410,0.00000,0.02891,0.97417,-0.19215,0.0,0,0,0,0,0,12,-396
10.67260,-0.01750,0.00910,0.00000,0.03099,0.97759,-0.19215,0.0,0,0,0,0,0,12,-396
10.67270,-0.01750,0.02660,0.00000,0.03050,0.97612,-0.19483,0.0,0,0,0,0,0,12,-380
10.67280,-0.10500,0.30660,0.00000,0.03062,0.97515,-0.19313,0.0,0,0,0,0,0,12,-364
10.67290,0.10500,0.04410,0.00000,0.02940,0.97637,-0.19166,0.0,0,0,0,0,0,12,-364
10.67300,-0.05250,-0.09590,0.00000,0.02830,0.97746,-0.19264,0.0,0,0,0,0,0,12,-349
10.67310,0.22750,-0.04340,0.00000,0.02830,0.97649,-0.19410,0.0,0,0,0,0,0,12,-333
10.67320,0.03500,0.11410,0.00000,0.03074,0.97515,-0.19422,0.0,0,0,0,0,0,12,-333
10.67330,0.00000,0.07910,0.00000,0.02977,0.97600,-0.19410,0.0,0,0,0,0,0,12,-317
10.67340,0.07000,-0.00840,0.00000,0.02782,0.97490,-0.19520,0.0,0,0,0,0,0,12,-300
10.67350,-0.21000,0.13160,0.00000,0.02940,0.97563,-0.19276,0.0,0,0,0,0,0,12,-286
10.67360,0.10500,0.04410,0.00000,0.02843,0.97539,-0.19508,0.0,0,0,0,0,0,12,-286
10.67370,-0.17500,-0.14840,0.00000,0.02879,0.97429,-0.19300,0.0,0,0,0,0,0,12,-270
10.67380,-0.07000,0.04410,0.00000,0.02782,0.97685,-0.19483,0.0,0,0,0,0,0,12,-254
10.67390,-0.08750,0.07910,0.00000,0.03001,0.97624,-0.19313,0.0,0,0,0,0,0,12,-254
10.67400,-0.12250,0.13160,0.00000,0.02843,0.97563,-0.19496,0.0,0,0,0,0,0,12,-238
10.67410,0.03500,-0.04340,0.00000,0.02940,0.97673,-0.19227,0.0,0,0,0,0,0,12,-223
10.67420,0.01750,0.09660,0.00000,0.02855,0.97612,-0.19422,0.0,0,0,0,0,0,12,-223
10.67430,-0.21000,-0.07840,0.00000,0.02952,0.97539,-0.19313,0.0,0,0,0,0,0,12,-207
10.67440,-0.07000,-0.14840,0.00000,0.03013,0.97478,-0.19447,0.0,0,0,0,0,0,12,-192
10.67450,0.05250,0.09660,0.00000,0.02867,0.97405,-0.19398,0.0,0,0,0,0,0,12,-176
10.67460,-0.05250,-0.02590,0.00000,0.02965,0.97563,-0.19337,0.0,0,0,0,0,0,12,-176
10.67470,-0.12250,0.02660,0.00000,0.02891,0.97771,-0.19325,0.0,0,0,0,0,0,12,-160
10.67480,0.07000,0.11410,0.00000,0.03013,0.97734,-0.19520,0.0,0,0,0,0,0,12,-144
10.67490,0.22750,-0.16590,0.00000,0.02916,0.97685,-0.19313,0.0,0,0,0,0,0,12,-144
10.67500,0.08750,0.13160,0.00000,0.03026,0.97515,-0.19496,0.0,0,0,0,0,0,12,-129
10.67510,0.15750,0.00910,0.00000,0.03038,0.97417,-0.19532,0.0,0,0,0,0,0,12,-113
10.67520,-0.08750,0.00910,0.00000,0.03026,0.97515,-0.19471,0.0,0,0,0,0,0,12,-97
10.67530,0.07000,-0.04340,0.00000,0.02904,0.97380,-0.19520,0.0,0,0,0,0,0,12,-97
10.67540,-0.07000,0.06160,0.00000,0.02867,0.97637,-0.19349,0.0,0,0,0,0,0,12,-82
10.67550,0.08750,-0.00840,0.00000,0.02891,0.97844,-0.19483,0.0,0,0,0,0,0,12,-66
10.67560,0.05250,0.13160,0.00000,0.02965,0.97612,-0.19337,0.0,0,0,0,0,0,12,-66
10.67570,-0.17500,0.21910,0.00000,0.02843,0.97271,-0.19264,0.0,0,0,0,0,0,12,-51
10.67580,0.14000,0.13160,0.00000,0.02928,0.97661,-0.19508,0.0,0,0,0,0,0,12,-34
10.67590,-0.08750,-0.07840,0.00000,0.02794,0.97795,-0.19483,0.0,0,0,0,0,0,12,-34
10.67600,0.05250,-0.00840,0.00000,0.02952,0.97612,-0.19471,0.0,0,0,0,0,0,12,-18
10.67610,-0.05250,-0.07840,0.00000,0.02928,0.97746,-0.19374,0.0,0,0,0,0,0,12,-2
10.67620,-0.07000,-0.09590,0.00000,0.03001,0.97942,-0.19239,0.0,0,0,0,0,0,12,-2
10.67630,0.00000,0.02660,0.00000,0.02928,0.97771,-0.19422,0.0,0,0,0,0,0,12,12
10.67640,0.03500,0.07910,0.00000,0.02818,0.97490,-0.19496,0.0,0,0,0,0,0,12,28
10.67650,-0.21000,0.07910,0.00000,0.02989,0.97722,-0.19361,0.0,0,0,0,0,0,12,44
10.67660,0.01750,-0.00840,0.00000,0.03111,0.97637,-0.19471,0.0,0,0,0,0,0,12,44
10.67670,0.19250,-0.13090,0.00000,0.02965,0.97661,-0.18983,0.0,0,0,0,0,0,12,59
10.67680,0.01750,-0.02590,0.00000,0.02782,0.97685,-0.19520,0.0,0,0,0,0,0,12,75
10.67690,0.12250,-0.13090,0.00000,0.03013,0.97478,-0.19215,0.0,0,0,0,0,0,12,90
10.67700,-0.01750,0.16660,0.00000,0.02733,0.97551,-0.19422,0.0,0,0,0,0,0,12,90
10.67710,-0.01750,-0.11340,0.00000,0.02830,0.97612,-0.19300,0.0,0,0,0,0,0,12,106
10.67720,-0.05250,0.11410,0.00000,0.02916,0.97502,-0.19178,0.0,0,0,0,0,0,12,122
10.67730,-0.07000,0.00910,0.00000,0.03074,0.97417,-0.19483,0.0,0,0,0,0,0,12,122
10.67740,0.15750,-0.11340,0.00000,0.02843,0.97722,-0.19056,0.0,0,0,0,0,0,12,138
10.67750,0.17500,-0.02590,0.00000,0.02867,0.97429,-0.19337,0.0,0,0,0,0,0,12,153
10.67760,0.01750,0.11410,0.00000,0.02952,0.97515,-0.19398,0.0,0,0,0,0,0,12,153
10.67770,-0.12250,0.00910,0.00000,0.02855,0.97563,-0.19313,0.0,0,0,0,0,0,12,169
10.67780,-0.03500,0.20160,0.00000,0.02867,0.97612,-0.19374,0.0,0,0,0,0,0,12,185
10.67790,0.00000,-0.14840,0.00000,0.02855,0.97380,-0.19191,0.0,0,0,0,0,0,12,200
10.67800,0.01750,0.02660,0.00000,0.02843,0.97820,-0.19264,0.0,0,0,0,0,0,12,200
10.67810,0.12250,-0.09590,0.00000,0.02904,0.97942,-0.19288,0.0,0,0,0,0,0,13,-783
10.67820,0.14000,0.02660,0.00000,0.02928,0.97344,-0.19264,0.0,0,0,0,0,0,13,-768
10.67830,0.05250,0.00910,0.00000,0.02757,0.97588,-0.19191,0.0,0,0,0,0,0,13,-768
10.67840,-0.03500,0.02660,0.00000,0.02989,0.97478,-0.19349,0.0,0,0,0,0,0,13,-752
10.67850,-0.01750,-0.00840,0.00000,0.02818,0.97502,-0.19252,0.0,0,0,0,0,0,13,-732
10.67860,0.10500,-0.07840,0.00000,0.03013,0.97661,-0.19081,0.0,0,0,0,0,0,13,-732
10.67870,-0.10500,-0.11340,0.00000,0.02843,0.97417,-0.19337,0.0,0,0,0,0,0,13,-721
10.67880,0.03500,0.00910,0.00000,0.02550,0.97588,-0.19239,0.0,0,0,0,0,0,13,-705
10.67890,0.07000,0.11410,0.00000,0.02977,0.97368,-0.19410,0.0,0,0,0,0,0,13,-689
10.67900,0.14000,-0.16590,0.00000,0.02843,0.97588,-0.19203,0.0,0,0,0,0,0,13,-689
10.67910,0.00000,0.07910,0.00000,0.02891,0.97515,-0.19056,0.0,0,0,0,0,0,13,-674
10.67920,-0.07000,0.04410,0.00000,0.02830,0.97746,-0.19288,0.0,0,0,0,0,0,13,-658
10.67930,-0.05250,-0.07840,0.00000,0.02879,0.97527,-0.19386,0.0,0,0,0,0,0,13,-658
10.67940,0.00000,0.13160,0.00000,0.02855,0.97624,-0.19093,0.0,0,0,0,0,0,13,-642
10.67950,-0.14000,-0.18340,0.00000,0.03087,0.97673,-0.19166,0.0,0,0,0,0,0,13,-626
10.67960,0.10500,0.11410,0.00000,0.02952,0.97673,-0.19276,0.0,0,0,0,0,0,13,-610
10.67970,0.07000,0.06160,0.00000,0.03001,0.97759,-0.19239,0.0,0,0,0,0,0,13,-610
10.67980,-0.01750,0.04410,0.00000,0.02891,0.97771,-0.19178,0.0,0,0,0,0,0,13,-595
10.67990,0.03500,0.00910,0.00000,0.02928,0.97405,-0.19386,0.0,0,0,0,0,0,13,-579
10.68000,0.01750,0.02660,0.00000,0.02879,0.97710,-0.19337,0.0,0,0,0,0,0,13,-579
10.68010,0.05250,0.02660,0.00000,0.03013,0.97551,-0.19203,0.0,0,0,0,0,0,13,-563
10.68020,0.01750,-0.11340,0.00000,0.02733,0.97393,-0.19178,0.0,0,0,0,0,0,13,-548
10.68030,0.17500,-0.02590,0.00000,0.03123,0.97649,-0.19227,0.0,0,0,0,0,0,13,-532
10.68040,-0.03500,0.02660,0.00000,0.02562,0.97515,-0.19227,0.0,0,0,0,0,0,13,-532
10.68050,0.05250,-0.06090,0.00000,0.03160,0.97563,-0.19227,0.0,0,0,0,0,0,13,-517
10.68060,-0.05250,0.13160,0.00000,0.02586,0.97698,-0.19276,0.0,0,0,0,0,0,13,-500
10.68070,-0.21000,0.16660,0.00000,0.02904,0.97722,-0.19422,0.0,0,0,0,0,0,13,-500
10.68080,-0.21000,0.04410,0.00000,0.03026,0.97563,-0.19130,0.0,0,0,0,0,0,13,-485
10.68090,-0.08750,0.02660,0.00000,0.02818,0.97807,-0.19166,0.0,0,0,0,0,0,13,-470
10.68100,-0.01750,0.27160,0.00000,0.02843,0.97637,-0.19300,0.0,0,0,0,0,0,13,-454
10.68110,-0.05250,0.09660,0.00000,0.03099,0.97527,-0.19325,0.0,0,0,0,0,0,13,-454
10.68120,0.01750,-0.20090,0.00000,0.02855,0.97490,-0.19374,0.0,0,0,0,0,0,13,-438
10.68130,0.19250,-0.06090,0.00000,0.02965,0.97515,-0.19374,0.0,0,0,0,0,0,13,-423
10.68140,-0.10500,-0.21840,0.00000,0.02769,0.97661,-0.19300,0.0,0,0,0,0,0,13,-423
10.68150,-0.14000,-0.06090,0.00000,0.03038,0.97600,-0.19056,0.0,0,0,0,0,0,13,-407
10.68160,0.24500,-0.25340,0.00000,0.02745,0.97478,-0.19325,0.0,0,0,0,0,0,13,-391
10.68170,-0.10500,0.27160,0.00000,0.02940,0.97734,-0.19178,0.0,0,0,0,0,0,13,-376
10.68180,0.03500,-0.00840,0.00000,0.02952,0.97746,-0.19349,0.0,0,0,0,0,0,13,-376
10.68190,0.01750,0.07910,0.00000,0.03123,0.97454,-0.19264,0.0,0,0,0,0,0,13,-360
10.68200,-0.15750,-0.00840,0.00000,0.02940,0.97478,-0.19081,0.0,0,0,0,0,0,13,-345
10.68210,0.07000,-0.07840,0.00000,0.02830,0.97551,-0.19264,0.0,0,0,0,0,0,13,-345
10.68220,0.01750,-0.13090,0.00000,0.02769,0.97441,-0.19532,0.0,0,0,0,0,0,13,-329
10.68230,-0.01750,0.21910,0.00000,0.02940,0.97515,-0.19081,0.0,0,0,0,0,0,13,-313
10.68240,0.01750,0.09660,0.00000,0.02977,0.97698,-0.19178,0.0,0,0,0,0,0,13,-298
10.68250,0.00000,0.00910,0.00000,0.03038,0.97734,-0.19203,0.0,0,0,0,0,0,13,-298
10.68260,0.10500,-0.06090,0.00000,0.02818,0.97637,-0.19093,0.0,0,0,0,0,0,13,-282
10.68270,0.10500,-0.00840,0.00000,0.02830,0.97478,-0.19483,0.0,0,0,0,0,0,13,-266
10.68280,0.15750,0.00910,0.00000,0.02989,0.97881,-0.19374,0.0,0,0,0,0,0,13,-266
10.68290,-0.03500,-0.13090,0.00000,0.02635,0.97661,-0.19093,0.0,0,0,0,0,0,13,-251
10.68300,0.17500,-0.18340,0.00000,0.02891,0.97624,-0.19203,0.0,0,0,0,0,0,13,-235
10.68310,-0.14000,0.04410,0.00000,0.02745,0.97576,-0.19191,0.0,0,0,0,0,0,13,-220
10.68320,0.00000,-0.13090,0.00000,0.02879,0.97612,-0.19191,0.0,0,0,0,0,0,13,-220
10.68330,0.07000,-0.04340,0.00000,0.02952,0.97722,-0.19252,0.0,0,0,0,0,0,13,-204
10.68340,-0.05250,-0.00840,0.00000,0.03087,0.97771,-0.19288,0.0,0,0,0,0,0,13,-188
10.68350,0.05250,0.11410,0.00000,0.02818,0.97698,-0.19422,0.0,0,0,0,0,0,13,-188
10.68360,0.01750,-0.02590,0.00000,0.02830,0.97929,-0.19386,0.0,0,0,0,0,0,13,-173
10.68370,-0.15750,0.14910,0.00000,0.02928,0.97551,-0.19422,0.0,0,0,0,0,0,13,-157
10.68380,-0.22750,-0.07840,0.00000,0.03026,0.97637,-0.19239,0.0,0,0,0,0,0,13,-141
10.68390,0.12250,-0.02590,0.00000,0.02843,0.97624,-0.19410,0.0,0,0,0,0,0,13,-141
10.68400,-0.01750,0.04410,0.00000,0.03026,0.97710,-0.19325,0.0,0,0,0,0,0,13,-126
10.68410,0.07000,0.13160,0.00000,0.03062,0.97307,-0.19069,0.0,0,0,0,0,0,13,-110
10.68420,0.03500,0.09660,0.00000,0.02806,0.97661,-0.19349,0.0,0,0,0,0,0,13,-98
10.68430,-0.07000,0.09660,0.00000,0.03026,0.97734,-0.19300,0.0,0,0,0,0,0,13,-94
10.68440,-0.07000,0.14910,0.00000,0.02891,0.97588,-0.19435,0.0,0,0,0,0,0,13,-75
10.68450,0.03500,0.04410,0.00000,0.03087,0.97539,-0.19313,0.0,0,0,0,0,0,13,-70
10.68460,0.01750,0.00910,0.00000,0.02977,0.97795,-0.19325,0.0,0,0,0,0,0,13,-54
10.68470,-0.08750,0.14910,0.00000,0.03099,0.97710,-0.19288,0.0,0,0,0,0,0,13,-54
10.68480,0.01750,-0.11340,0.00000,0.02940,0.97429,-0.19069,0.0,0,0,0,0,0,13,-39
10.68490,-0.03500,0.04410,0.00000,0.03050,0.97893,-0.19337,0.0,0,0,0,0,0,13,-23
10.68500,0.08750,-0.04340,0.00000,0.03026,0.97600,-0.19300,0.0,0,0,0,0,0,13,-23
10.68510,-0.05250,0.06160,0.00000,0.02952,0.97588,-0.19349,0.0,0,0,0,0,0,13,-7
10.68520,0.08750,0.07910,0.00000,0.02855,0.97429,-0.19288,0.0,0,0,0,0,0,13,7
10.68530,0.08750,-0.06090,0.00000,0.02867,0.97234,-0.19142,0.0,0,0,0,0,0,13,7
10.68540,0.29750,0.04410,0.00000,0.03026,0.97563,-0.19325,0.0,0,0,0,0,0,13,23
10.68550,0.00000,-0.07840,0.00000,0.02879,0.97832,-0.19544,0.0,0,0,0,0,0,13,39
10.68560,0.10500,-0.02590,0.00000,0.02769,0.97502,-0.19410,0.0,0,0,0,0,0,13,55
10.68570,0.12250,0.07910,0.00000,0.03123,0.97527,-0.19300,0.0,0,0,0,0,0,13,55
10.68580,-0.12250,0.27160,0.00000,0.03123,0.97539,-0.19483,0.0,0,0,0,0,0,13,70
10.68590,-0.19250,-0.14840,0.00000,0.03013,0.97722,-0.19313,0.0,0,0,0,0,0,13,86
10.68600,0.24500,-0.00840,0.00000,0.03087,0.97466,-0.19435,0.0,0,0,0,0,0,13,86
10.68610,0.07000,0.07910,0.00000,0.03038,0.97490,-0.19300,0.0,0,0,0,0,0,13,102
10.68620,-0.07000,-0.00840,0.00000,0.02769,0.97612,-0.19471,0.0,0,0,0,0,0,13,119
10.68630,0.03500,-0.14840,0.00000,0.02965,0.97441,-0.19374,0.0,0,0,0,0,0,13,119
10.68640,-0.19250,0.11410,0.00000,0.02684,0.97527,-0.19166,0.0,0,0,0,0,0,13,133
10.68650,0.00000,0.14910,0.00000,0.02952,0.97490,-0.19166,0.0,0,0,0,0,0,13,149
10.68660,-0.14000,0.07910,0.00000,0.02928,0.97673,-0.19178,0.0,0,0,0,0,0,13,164
10.68670,0.08750,0.06160,0.00000,0.02928,0.97563,-0.19276,0.0,0,0,0,0,0,13,167
10.68680,-0.17500,0.07910,0.00000,0.02904,0.97722,-0.19422,0.0,0,0,0,0,0,13,180
10.68690,-0.05250,0.11410,0.00000,0.02928,0.97685,-0.19239,0.0,0,0,0,0,0,13,196
10.68700,0.05250,-0.21840,0.00000,0.03062,0.97502,-0.19276,0.0,0,0,0,0,0,13,196
10.68710,-0.12250,0.07910,0.00000,0.02989,0.97746,-0.19154,0.0,0,0,0,0,0,14,-788
10.68720,-0.07000,-0.07840,0.00000,0.02745,0.97563,-0.19398,0.0,0,0,0,0,0,14,-772
10.68730,0.08750,0.06160,0.00000,0.03135,0.97637,-0.19496,0.0,0,0,0,0,0,14,-756
10.68740,-0.05250,0.09660,0.00000,0.03026,0.97515,-0.19191,0.0,0,0,0,0,0,14,-756
10.68750,0.15750,0.04410,0.00000,0.02965,0.97685,-0.19374,0.0,0,0,0,0,0,14,-741
10.68760,-0.07000,-0.06090,0.00000,0.03013,0.97441,-0.19447,0.0,0,0,0,0,0,14,-725
10.68770,0.10500,-0.04340,0.00000,0.03062,0.97588,-0.19069,0.0,0,0,0,0,0,14,-725
10.68780,0.12250,-0.13090,0.00000,0.02916,0.97393,-0.19374,0.0,0,0,0,0,0,14,-709
10.68790,0.00000,0.06160,0.00000,0.02928,0.97771,-0.19252,0.0,0,0,0,0,0,14,-693
10.68800,0.05250,0.07910,0.00000,0.02721,0.97820,-0.19398,0.0,0,0,0,0,0,14,-693
10.68810,0.22750,-0.11340,0.00000,0.02952,0.97612,-0.19288,0.0,0,0,0,0,0,14,-678
10.68820,-0.08750,0.04410,0.00000,0.02721,0.97698,-0.19166,0.0,0,0,0,0,0,14,-662
10.68830,-0.05250,0.02660,0.00000,0.02940,0.97649,-0.18959,0.0,0,0,0,0,0,14,-647
10.68840,-0.12250,0.30660,0.00000,0.02843,0.97661,-0.19142,0.0,0,0,0,0,0,14,-646
10.68850,-0.10500,0.09660,0.00000,0.02855,0.97783,-0.19264,0.0,0,0,0,0,0,14,-631
10.68860,-0.03500,-0.06090,0.00000,0.02843,0.97502,-0.19410,0.0,0,0,0,0,0,14,-615
10.68870,-0.14000,-0.00840,0.00000,0.02879,0.97710,-0.19154,0.0,0,0,0,0,0,14,-615
10.68880,0.05250,0.04410,0.00000,0.02965,0.97734,-0.19191,0.0,0,0,0,0,0,14,-600
10.68890,-0.19250,-0.06090,0.00000,0.02904,0.97661,-0.19264,0.0,0,0,0,0,0,14,-583
10.68900,0.05250,0.02660,0.00000,0.02867,0.97807,-0.19069,0.0,0,0,0,0,0,14,-583
10.68910,0.08750,0.07910,0.00000,0.02867,0.97795,-0.19093,0.0,0,0,0,0,0,14,-567
10.68920,-0.03500,-0.06090,0.00000,0.02769,0.97441,-0.19130,0.0,0,0,0,0,0,14,-552
10.68930,0.07000,0.09660,0.00000,0.02904,0.97539,-0.19215,0.0,0,0,0,0,0,14,-536
10.68940,0.14000,-0.21840,0.00000,0.03001,0.97600,-0.19496,0.0,0,0,0,0,0,14,-536
10.68950,0.07000,0.04410,0.00000,0.02745,0.97722,-0.19264,0.0,0,0,0,0,0,14,-521
10.68960,0.03500,-0.06090,0.00000,0.02830,0.97588,-0.19117,0.0,0,0,0,0,0,14,-505
10.68970,-0.08750,-0.04340,0.00000,0.02904,0.97612,-0.19313,0.0,0,0,0,0,0,14,-505
10.68980,0.03500,-0.11340,0.00000,0.03013,0.97576,-0.19215,0.0,0,0,0,0,0,14,-489
10.68990,-0.33250,0.21910,0.00000,0.03135,0.97393,-0.19386,0.0,0,0,0,0,0,14,-474
10.69000,0.07000,0.07910,0.00000,0.02782,0.97759,-0.19471,0.0,0,0,0,0,0,14,-474
10.69010,-0.10500,0.09660,0.00000,0.02904,0.97539,-0.19276,0.0,0,0,0,0,0,14,-457
10.69020,-0.08750,0.06160,0.00000,0.02965,0.97637,-0.19325,0.0,0,0,0,0,0,14,-442
10.69030,0.19250,-0.00840,0.00000,0.02952,0.97612,-0.19215,0.0,0,0,0,0,0,14,-426
10.69040,-0.15750,0.27160,0.00000,0.02916,0.97746,-0.19422,0.0,0,0,0,0,0,14,-426
10.69050,0.22750,-0.18340,0.00000,0.02989,0.97722,-0.19349,0.0,0,0,0,0,0,14,-411
10.69060,-0.01750,0.07910,0.00000,0.02916,0.97588,-0.19288,0.0,0,0,0,0,0,14,-395
10.69070,0.12250,-0.04340,0.00000,0.02769,0.97551,-0.19215,0.0,0,0,0,0,0,14,-395
10.69080,0.01750,-0.14840,0.00000,0.02562,0.97490,-0.19264,0.0,0,0,0,0,0,14,-379
10.69090,-0.14000,-0.02590,0.00000,0.02989,0.97307,-0.19483,0.0,0,0,0,0,0,14,-364
10.69100,0.15750,-0.23590,0.00000,0.02843,0.97551,-0.19459,0.0,0,0,0,0,0,14,-359
10.69110,0.03500,0.04410,0.00000,0.02855,0.97710,-0.19325,0.0,0,0,0,0,0,14,-348
10.69120,0.14000,-0.07840,0.00000,0.03062,0.97527,-0.19288,0.0,0,0,0,0,0,14,-333
10.69130,-0.03500,0.07910,0.00000,0.02867,0.97698,-0.19288,0.0,0,0,0,0,0,14,-316
10.69140,-0.07000,-0.06090,0.00000,0.02745,0.97429,-0.19581,0.0,0,0,0,0,0,14,-316
10.69150,0.05250,-0.00840,0.00000,0.02928,0.97710,-0.19252,0.0,0,0,0,0,0,14,-301
10.69160,-0.05250,0.00910,0.00000,0.02965,0.97832,-0.19178,0.0,0,0,0,0,0,14,-285
10.69170,-0.12250,-0.07840,0.00000,0.02696,0.97624,-0.19288,0.0,0,0,0,0,0,14,-285
10.69180,0.00000,0.11410,0.00000,0.02757,0.97612,-0.19459,0.0,0,0,0,0,0,14,-270
10.69190,0.19250,-0.14840,0.00000,0.02940,0.97588,-0.19386,0.0,0,0,0,0,0,14,-254
10.69200,-0.07000,0.06160,0.00000,0.02660,0.97515,-0.19361,0.0,0,0,0,0,0,14,-254
10.69210,-0.21000,-0.13090,0.00000,0.03074,0.97527,-0.19300,0.0,0,0,0,0,0,14,-238
10.69220,0.05250,-0.00840,0.00000,0.03074,0.97563,-0.19361,0.0,0,0,0,0,0,14,-223
10.69230,-0.17500,0.25410,0.00000,0.03026,0.97746,-0.19349,0.0,0,0,0,0,0,14,-207
10.69240,0.01750,0.00910,0.00000,0.02830,0.97454,-0.19630,0.0,0,0,0,0,0,14,-207
10.69250,0.01750,-0.14840,0.00000,0.02696,0.97673,-0.19300,0.0,0,0,0,0,0,14,-191
10.69260,0.01750,0.07910,0.00000,0.02733,0.97600,-0.19288,0.0,0,0,0,0,0,14,-175
10.69270,-0.08750,0.11410,0.00000,0.03099,0.97612,-0.19337,0.0,0,0,0,0,0,14,-175
10.69280,0.17500,0.09660,0.00000,0.02940,0.97527,-0.19300,0.0,0,0,0,0,0,14,-160
10.69290,0.03500,-0.13090,0.00000,0.02904,0.97612,-0.19264,0.0,0,0,0,0,0,14,-144
10.69300,0.07000,-0.11340,0.00000,0.03013,0.97649,-0.19471,0.0,0,0,0,0,0,14,-144
10.69310,-0.14000,0.04410,0.00000,0.03148,0.97527,-0.19471,0.0,0,0,0,0,0,14,-129
10.69320,0.05250,-0.09590,0.00000,0.02843,0.97710,-0.19447,0.0,0,0,0,0,0,14,-114
10.69330,-0.07000,0.16660,0.00000,0.02965,0.97588,-0.19191,0.0,0,0,0,0,0,14,-97
10.69340,0.14000,-0.34090,0.00000,0.02684,0.97612,-0.19386,0.0,0,0,0,0,0,14,-97
10.69350,-0.12250,0.04410,0.00000,0.03001,0.97624,-0.19227,0.0,0,0,0,0,0,14,-81
10.69360,-0.26250,-0.04340,0.00000,0.02721,0.97502,-0.19581,0.0,0,0,0,0,0,14,-66
10.69370,-0.05250,-0.02590,0.00000,0.02855,0.97600,-0.19264,0.0,0,0,0,0,0,14,-66
10.69380,0.05250,0.06160,0.00000,0.02782,0.97490,-0.19288,0.0,0,0,0,0,0,14,-50
10.69390,0.07000,-0.23590,0.00000,0.02891,0.97454,-0.19325,0.0,0,0,0,0,0,14,-34
10.69400,0.01750,-0.02590,0.00000,0.02940,0.97515,-0.19252,0.0,0,0,0,0,0,14,-34
10.69410,0.07000,0.14910,0.00000,0.02867,0.97783,-0.19361,0.0,0,0,0,0,0,14,-19
10.69420,-0.10500,-0.34090,0.00000,0.02708,0.97576,-0.19117,0.0,0,0,0,0,0,14,-3
10.69430,0.00000,0.18410,0.00000,0.03038,0.97478,-0.19288,0.0,0,0,0,0,0,14,12
10.69440,-0.07000,0.14910,0.00000,0.02940,0.97637,-0.19349,0.0,0,0,0,0,0,14,12
10.69450,-0.01750,-0.06090,0.00000,0.02989,0.97551,-0.19435,0.0,0,0,0,0,0,14,28
10.69460,0.03500,-0.06090,0.00000,0.03026,0.97539,-0.19374,0.0,0,0,0,0,0,14,43
10.69470,0.01750,0.09660,0.00000,0.03160,0.97746,-0.19239,0.0,0,0,0,0,0,14,43
10.69480,0.08750,-0.21840,0.00000,0.02757,0.97441,-0.19557,0.0,0,0,0,0,0,14,59
10.69490,-0.15750,0.21910,0.00000,0.02965,0.97673,-0.19361,0.0,0,0,0,0,0,14,75
10.69500,-0.05250,-0.04340,0.00000,0.02952,0.97563,-0.19288,0.0,0,0,0,0,0,14,90
10.69510,-0.15750,0.04410,0.00000,0.02782,0.97771,-0.19374,0.0,0,0,0,0,0,14,90
10.69520,0.21000,-0.11340,0.00000,0.03038,0.97405,-0.19203,0.0,0,0,0,0,0,14,106
