#2023/06/07 15:53:27
time,wx,wy,wz,ax,ay,az,yy,MM,dd,hh,mm,ss,ms
44.63190,-0.04112,0.06055,0.00000,0.03184,0.97600,-0.18605,0.0,2023,6,7,15,53,28,923
44.63200,0.11638,-0.13195,0.00000,0.03135,0.97649,-0.18666,0.0,2023,6,7,15,53,28,933
44.63210,0.01138,0.02555,0.00000,0.03196,0.97771,-0.18666,0.0,2023,6,7,15,53,28,943
44.63220,-0.18112,-0.09695,0.00000,0.03062,0.97612,-0.18678,0.0,2023,6,7,15,53,28,953
44.63230,-0.26862,0.21805,0.00000,0.03318,0.97771,-0.18788,0.0,2023,6,7,15,53,28,963
44.63240,-0.05862,0.00805,0.00000,0.03013,0.97563,-0.18873,0.0,2023,6,7,15,53,28,973
44.63250,0.06388,-0.02695,0.00000,0.03245,0.97673,-0.18605,0.0,2023,6,7,15,53,28,983
44.63260,0.08138,-0.11445,0.00000,0.03196,0.97637,-0.18751,0.0,2023,6,7,15,53,28,993
44.63270,0.09888,0.02555,0.00000,0.03196,0.97576,-0.18654,0.0,2023,6,7,15,53,28,3
44.63280,0.11638,-0.06195,0.00000,0.03050,0.97795,-0.18642,0.0,2023,6,7,15,53,28,13
44.63290,-0.07612,-0.20195,0.00000,0.03160,0.97783,-0.18678,0.0,2023,6,7,15,53,28,23
44.63300,-0.14612,0.32305,0.00000,0.03282,0.97698,-0.18812,0.0,2023,6,7,15,53,28,33
44.63310,0.09888,0.00805,0.00000,0.03148,0.97746,-0.18751,0.0,2023,6,7,15,53,28,43
44.63320,-0.07612,0.06055,0.00000,0.03123,0.97576,-0.18446,0.0,2023,6,7,15,53,28,53
44.63330,-0.00612,0.32305,0.00000,0.03318,0.97698,-0.18727,0.0,2023,6,7,15,53,28,63
44.63340,-0.05862,0.13055,0.00000,0.03148,0.97698,-0.18703,0.0,2023,6,7,15,53,28,73
44.63350,0.01138,0.07805,0.00000,0.03233,0.97624,-0.18471,0.0,2023,6,7,15,53,28,83
44.63360,-0.00612,-0.11445,0.00000,0.03257,0.97673,-0.18520,0.0,2023,6,7,15,53,28,93
44.63370,0.09888,0.00805,0.00000,0.03087,0.97698,-0.18690,0.0,2023,6,7,15,53,28,103
44.63380,-0.00612,0.18305,0.00000,0.03245,0.97734,-0.18727,0.0,2023,6,7,15,53,29,113
44.63390,0.13388,0.04305,0.00000,0.03172,0.97624,-0.18861,0.0,2023,6,7,15,53,29,123
44.63400,0.08138,-0.00945,0.00000,0.03221,0.97539,-0.18629,0.0,2023,6,7,15,53,29,133
44.63410,-0.02362,0.04305,0.00000,0.03123,0.97661,-0.18703,0.0,2023,6,7,15,53,29,143
44.63420,0.08138,-0.14945,0.00000,0.03331,0.97502,-0.18666,0.0,2023,6,7,15,53,29,153
44.63430,0.08138,-0.02695,0.00000,0.03257,0.97844,-0.18703,0.0,2023,6,7,15,53,29,163
44.63440,0.04638,-0.16695,0.00000,0.03013,0.97649,-0.18617,0.0,2023,6,7,15,53,29,173
44.63450,0.11638,-0.21945,0.00000,0.03062,0.97698,-0.18593,0.0,2023,6,7,15,53,29,183
44.63460,0.04638,-0.04445,0.00000,0.03123,0.97344,-0.18422,0.0,2023,6,7,15,53,29,193
44.63470,0.16888,-0.14945,0.00000,0.02977,0.97637,-0.18642,0.0,2023,6,7,15,53,29,203
44.63480,0.06388,-0.11445,0.00000,0.02977,0.97759,-0.18703,0.0,2023,6,7,15,53,29,213
44.63490,-0.12862,-0.04445,0.00000,0.02965,0.97490,-0.18642,0.0,2023,6,7,15,53,29,223
44.63500,0.13388,-0.00945,0.00000,0.03148,0.97710,-0.18666,0.0,2023,6,7,15,53,29,233
44.63510,0.08138,-0.18445,0.00000,0.03001,0.97783,-0.18825,0.0,2023,6,7,15,53,29,243
44.63520,0.11638,-0.16695,0.00000,0.03306,0.97600,-0.18605,0.0,2023,6,7,15,53,29,253
44.63530,-0.23362,-0.02695,0.00000,0.03282,0.97649,-0.18483,0.0,2023,6,7,15,53,29,263
44.63540,-0.07612,0.04305,0.00000,0.03135,0.97563,-0.18751,0.0,2023,6,7,15,53,29,273
44.63550,-0.09362,0.32305,0.00000,0.03184,0.97502,-0.18825,0.0,2023,6,7,15,53,29,283
44.63560,-0.18112,0.09555,0.00000,0.03184,0.97759,-0.18703,0.0,2023,6,7,15,53,29,293
44.63570,0.08138,-0.20195,0.00000,0.03074,0.97771,-0.18593,0.0,2023,6,7,15,53,29,303
44.63580,-0.00612,0.02555,0.00000,0.03026,0.97685,-0.18898,0.0,2023,6,7,15,53,29,313
44.63590,0.06388,-0.09695,0.00000,0.03233,0.97783,-0.18678,0.0,2023,6,7,15,53,29,323
44.63600,0.20388,-0.06195,0.00000,0.03050,0.97502,-0.18727,0.0,2023,6,7,15,53,29,333
44.63610,0.08138,-0.04445,0.00000,0.02977,0.97734,-0.18947,0.0,2023,6,7,15,53,29,343
44.63620,-0.21612,0.07805,0.00000,0.03135,0.97576,-0.18617,0.0,2023,6,7,15,53,29,353
44.63630,0.02888,-0.16695,0.00000,0.02940,0.97624,-0.18568,0.0,2023,6,7,15,53,29,363
44.63640,-0.11112,-0.02695,0.00000,0.02830,0.97990,-0.18764,0.0,2023,6,7,15,53,29,373
44.63650,0.01138,-0.00945,0.00000,0.03074,0.97612,-0.18568,0.0,2023,6,7,15,53,29,383
44.63660,-0.02362,-0.14945,0.00000,0.03087,0.97734,-0.18544,0.0,2023,6,7,15,53,29,393
44.63670,0.11638,0.06055,0.00000,0.03050,0.97771,-0.18727,0.0,2023,6,7,15,53,29,403
44.63680,-0.00612,-0.04445,0.00000,0.03111,0.97661,-0.18727,0.0,2023,6,7,15,53,29,413
44.63690,0.04638,-0.02695,0.00000,0.03013,0.97710,-0.18642,0.0,2023,6,7,15,53,29,423
44.63700,-0.00612,0.09555,0.00000,0.03038,0.97868,-0.18507,0.0,2023,6,7,15,53,29,433
44.63710,-0.02362,-0.11445,0.00000,0.03087,0.97673,-0.18788,0.0,2023,6,7,15,53,29,443
44.63720,-0.05862,0.06055,0.00000,0.03123,0.97502,-0.18544,0.0,2023,6,7,15,53,29,453
44.63730,-0.07612,-0.06195,0.00000,0.03172,0.98051,-0.18471,0.0,2023,6,7,15,53,29,463
44.63740,0.06388,-0.13195,0.00000,0.03074,0.97698,-0.18703,0.0,2023,6,7,15,53,29,473
44.63750,-0.07612,-0.04445,0.00000,0.03233,0.97637,-0.18788,0.0,2023,6,7,15,53,29,483
44.63760,0.13388,-0.23695,0.00000,0.03160,0.97441,-0.18739,0.0,2023,6,7,15,53,29,493
44.63770,0.08138,0.00805,0.00000,0.03331,0.97710,-0.18971,0.0,2023,6,7,15,53,29,503
44.63780,0.11638,-0.16695,0.00000,0.02989,0.97673,-0.18751,0.0,2023,6,7,15,53,29,513
44.63790,0.04638,-0.07945,0.00000,0.03416,0.97576,-0.18507,0.0,2023,6,7,15,53,29,523
44.63800,0.20388,-0.13195,0.00000,0.03026,0.97759,-0.18715,0.0,2023,6,7,15,53,29,533
44.63810,-0.02362,-0.21945,0.00000,0.03026,0.97527,-0.18776,0.0,2023,6,7,15,53,29,543
44.63820,0.01138,0.04305,0.00000,0.03184,0.97539,-0.18678,0.0,2023,6,7,15,53,29,553
44.63830,-0.00612,0.06055,0.00000,0.03001,0.97771,-0.18873,0.0,2023,6,7,15,53,29,563
44.63840,0.06388,0.02555,0.00000,0.03026,0.97698,-0.18593,0.0,2023,6,7,15,53,29,573
44.63850,0.02888,-0.04445,0.00000,0.03257,0.97429,-0.18642,0.0,2023,6,7,15,53,29,583
44.63860,-0.04112,-0.04445,0.00000,0.03331,0.97832,-0.18507,0.0,2023,6,7,15,53,29,593
44.63870,-0.02362,0.00805,0.00000,0.03038,0.97795,-0.18605,0.0,2023,6,7,15,53,29,603
44.63880,-0.14612,-0.00945,0.00000,0.03111,0.97612,-0.18495,0.0,2023,6,7,15,53,29,613
44.63890,-0.00612,0.00805,0.00000,0.03099,0.97685,-0.18593,0.0,2023,6,7,15,53,29,623
44.63900,-0.04112,0.25305,0.00000,0.03221,0.97539,-0.18776,0.0,2023,6,7,15,53,29,633
44.63910,-0.14612,0.06055,0.00000,0.03343,0.97600,-0.18544,0.0,2023,6,7,15,53,29,643
44.63920,0.04638,-0.06195,0.00000,0.03172,0.97441,-0.18764,0.0,2023,6,7,15,53,29,653
44.63930,0.18638,-0.13195,0.00000,0.03306,0.97673,-0.18800,0.0,2023,6,7,15,53,29,663
44.63940,-0.16362,0.23555,0.00000,0.03331,0.97624,-0.18886,0.0,2023,6,7,15,53,29,673
44.63950,0.01138,0.11305,0.00000,0.03331,0.97551,-0.18727,0.0,2023,6,7,15,53,29,683
44.63960,-0.07612,0.11305,0.00000,0.03428,0.97673,-0.18581,0.0,2023,6,7,15,53,29,693
44.63970,0.15138,0.02555,0.00000,0.03196,0.97588,-0.18825,0.0,2023,6,7,15,53,29,703
44.63980,0.11638,-0.23695,0.00000,0.03111,0.97515,-0.18532,0.0,2023,6,7,15,53,29,713
44.63990,0.15138,0.02555,0.00000,0.03099,0.97380,-0.18605,0.0,2023,6,7,15,53,29,723
44.64000,0.02888,-0.06195,0.00000,0.03184,0.97759,-0.18788,0.0,2023,6,7,15,53,29,733
44.64010,-0.04112,0.09555,0.00000,0.03026,0.97673,-0.18751,0.0,2023,6,7,15,53,29,743
44.64020,-0.18112,-0.07945,0.00000,0.02989,0.97612,-0.18800,0.0,2023,6,7,15,53,29,753
44.64030,-0.12862,0.16555,0.00000,0.03111,0.97844,-0.18678,0.0,2023,6,7,15,53,29,763
44.64040,-0.02362,0.04305,0.00000,0.03233,0.97478,-0.18727,0.0,2023,6,7,15,53,29,773
44.64050,-0.11112,0.14805,0.00000,0.03184,0.97661,-0.18886,0.0,2023,6,7,15,53,29,783
44.64060,0.09888,-0.04445,0.00000,0.03233,0.97685,-0.18239,0.0,2023,6,7,15,53,29,793
44.64070,0.06388,-0.13195,0.00000,0.03221,0.97771,-0.18886,0.0,2023,6,7,15,53,29,803
44.64080,0.02888,-0.16695,0.00000,0.02940,0.97844,-0.18654,0.0,2023,6,7,15,53,29,813
44.64090,-0.18112,-0.09695,0.00000,0.03233,0.97502,-0.18617,0.0,2023,6,7,15,53,29,823
44.64100,-0.04112,-0.09695,0.00000,0.03465,0.97807,-0.18886,0.0,2023,6,7,15,53,29,833
44.64110,-0.07612,-0.04445,0.00000,0.03148,0.97490,-0.18812,0.0,2023,6,7,15,53,29,843
44.64120,-0.00612,0.16555,0.00000,0.03087,0.97637,-0.18568,0.0,2023,6,7,15,53,29,853
44.64130,-0.00612,0.13055,0.00000,0.03123,0.97637,-0.18800,0.0,2023,6,7,15,53,29,863
44.64140,0.20388,0.20055,0.00000,0.03062,0.97466,-0.18922,0.0,2023,6,7,15,53,29,873
44.64150,0.06388,-0.06195,0.00000,0.03050,0.97661,-0.18532,0.0,2023,6,7,15,53,29,883
44.64160,0.06388,-0.13195,0.00000,0.03087,0.97624,-0.18337,0.0,2023,6,7,15,53,29,893
44.64170,0.09888,-0.07945,0.00000,0.03050,0.97685,-0.18788,0.0,2023,6,7,15,53,29,903
44.64180,0.08138,0.14805,0.00000,0.03038,0.97722,-0.18666,0.0,2023,6,7,15,53,29,913
44.64190,0.11638,-0.06195,0.00000,0.03196,0.97600,-0.18629,0.0,2023,6,7,15,53,29,923
44.64200,0.02888,0.16555,0.00000,0.03160,0.97807,-0.18605,0.0,2023,6,7,15,53,29,933
44.64210,-0.04112,-0.13195,0.00000,0.03050,0.97868,-0.18629,0.0,2023,6,7,15,53,29,943
44.64220,0.01138,0.00805,0.00000,0.03087,0.97576,-0.18715,0.0,2023,6,7,15,53,29,953
44.64230,0.08138,-0.21945,0.00000,0.03074,0.97673,-0.18776,0.0,2023,6,7,15,53,29,963
44.64240,-0.00612,0.02555,0.00000,0.02916,0.97515,-0.18556,0.0,2023,6,7,15,53,29,973
44.64250,-0.00612,-0.11445,0.00000,0.03062,0.97698,-0.18520,0.0,2023,6,7,15,53,29,983
44.64260,0.11638,-0.20195,0.00000,0.03221,0.97893,-0.18739,0.0,2023,6,7,15,53,29,993
44.64270,0.01138,0.04305,0.00000,0.03038,0.97844,-0.18715,0.0,2023,6,7,15,53,30,3
44.64280,-0.07612,0.00805,0.00000,0.03160,0.97624,-0.18617,0.0,2023,6,7,15,53,30,13
44.64290,-0.07612,-0.07945,0.00000,0.03111,0.97771,-0.18544,0.0,2023,6,7,15,53,30,23
44.64300,0.09888,0.00805,0.00000,0.03074,0.97771,-0.18532,0.0,2023,6,7,15,53,30,33
44.64310,0.06388,0.00805,0.00000,0.02977,0.97795,-0.18629,0.0,2023,6,7,15,53,30,43
44.64320,0.18638,-0.04445,0.00000,0.03245,0.97502,-0.18727,0.0,2023,6,7,15,53,30,53
44.64330,0.08138,-0.18445,0.00000,0.03184,0.97844,-0.18532,0.0,2023,6,7,15,53,30,63
44.64340,0.04638,-0.06195,0.00000,0.03123,0.97893,-0.18678,0.0,2023,6,7,15,53,30,73
44.64350,0.02888,0.00805,0.00000,0.03172,0.97722,-0.18995,0.0,2023,6,7,15,53,30,83
44.64360,0.08138,0.07805,0.00000,0.03196,0.97624,-0.18873,0.0,2023,6,7,15,53,30,93
44.64370,-0.05862,0.16555,0.00000,0.03062,0.97612,-0.18654,0.0,2023,6,7,15,53,30,103
44.64380,-0.11112,0.02555,0.00000,0.03196,0.97746,-0.18800,0.0,2023,6,7,15,53,30,113
44.64390,0.06388,-0.00945,0.00000,0.03270,0.97917,-0.18495,0.0,2023,6,7,15,53,30,123
44.64400,-0.00612,-0.11445,0.00000,0.02940,0.97685,-0.18690,0.0,2023,6,7,15,53,30,133
44.64410,-0.12862,0.11305,0.00000,0.03123,0.97624,-0.18459,0.0,2023,6,7,15,53,30,143
44.64420,-0.07612,0.14805,0.00000,0.03123,0.97661,-0.18751,0.0,2023,6,7,15,53,30,153
44.64430,0.06388,0.00805,0.00000,0.03233,0.97637,-0.18642,0.0,2023,6,7,15,53,30,163
44.64440,-0.02362,0.04305,0.00000,0.03209,0.97649,-0.19069,0.0,2023,6,7,15,53,30,173
44.64450,0.02888,-0.07945,0.00000,0.03233,0.97478,-0.18947,0.0,2023,6,7,15,53,30,183
44.64460,-0.02362,-0.13195,0.00000,0.03282,0.97539,-0.18605,0.0,2023,6,7,15,53,30,193
44.64470,-0.07612,0.07805,0.00000,0.03026,0.97820,-0.18715,0.0,2023,6,7,15,53,30,203
44.64480,-0.12862,0.14805,0.00000,0.03050,0.97649,-0.18666,0.0,2023,6,7,15,53,30,213
44.64490,0.04638,-0.14945,0.00000,0.03294,0.97844,-0.18544,0.0,2023,6,7,15,53,30,223
44.64500,0.09888,-0.06195,0.00000,0.03111,0.97685,-0.18861,0.0,2023,6,7,15,53,30,233
44.64510,-0.02362,-0.04445,0.00000,0.03196,0.97710,-0.18581,0.0,2023,6,7,15,53,30,243
44.64520,-0.11112,0.02555,0.00000,0.03270,0.97588,-0.18776,0.0,2023,6,7,15,53,30,253
44.64530,-0.18112,-0.11445,0.00000,0.03233,0.97795,-0.18483,0.0,2023,6,7,15,53,30,263
44.64540,-0.12862,0.02555,0.00000,0.03196,0.97637,-0.18690,0.0,2023,6,7,15,53,30,273
44.64550,-0.04112,0.07805,0.00000,0.03111,0.97417,-0.18471,0.0,2023,6,7,15,53,30,283
44.64560,0.04638,-0.14945,0.00000,0.03245,0.97734,-0.18776,0.0,2023,6,7,15,53,30,293
44.64570,0.06388,-0.13195,0.00000,0.03087,0.97759,-0.18593,0.0,2023,6,7,15,53,30,303
44.64580,-0.00612,0.13055,0.00000,0.02940,0.97502,-0.18715,0.0,2023,6,7,15,53,30,313
44.64590,-0.18112,0.21805,0.00000,0.03099,0.97661,-0.18337,0.0,2023,6,7,15,53,30,323
44.64600,0.08138,-0.02695,0.00000,0.03074,0.97673,-0.18678,0.0,2023,6,7,15,53,30,333
44.64610,0.04638,0.02555,0.00000,0.03148,0.97771,-0.18849,0.0,2023,6,7,15,53,30,343
44.64620,-0.25112,-0.00945,0.00000,0.03172,0.97710,-0.18483,0.0,2023,6,7,15,53,30,353
44.64630,-0.00612,0.14805,0.00000,0.03318,0.97624,-0.18703,0.0,2023,6,7,15,53,30,363
44.64640,0.29138,-0.25445,0.00000,0.03306,0.97576,-0.18544,0.0,2023,6,7,15,53,30,373
44.64650,-0.05862,0.16555,0.00000,0.03087,0.97588,-0.18556,0.0,2023,6,7,15,53,30,383
44.64660,0.08138,-0.06195,0.00000,0.03026,0.97612,-0.18459,0.0,2023,6,7,15,53,30,393
44.64670,-0.09362,-0.13195,0.00000,0.03087,0.97527,-0.18812,0.0,2023,6,7,15,53,30,403
44.64680,-0.11112,-0.06195,0.00000,0.03123,0.97807,-0.18642,0.0,2023,6,7,15,53,30,413
44.64690,-0.05862,-0.06195,0.00000,0.03294,0.97759,-0.18666,0.0,2023,6,7,15,53,30,423
44.64700,-0.18112,-0.06195,0.00000,0.03160,0.97551,-0.18605,0.0,2023,6,7,15,53,30,433
44.64710,0.06388,-0.04445,0.00000,0.03148,0.97624,-0.18678,0.0,2023,6,7,15,53,30,443
44.64720,-0.07612,-0.32445,0.00000,0.03172,0.97600,-0.18361,0.0,2023,6,7,15,53,30,453
44.64730,0.11638,-0.09695,0.00000,0.03013,0.97551,-0.18812,0.0,2023,6,7,15,53,30,463
44.64740,-0.02362,0.02555,0.00000,0.02989,0.97771,-0.18727,0.0,2023,6,7,15,53,30,473
44.64750,0.04638,0.07805,0.00000,0.03196,0.97661,-0.18886,0.0,2023,6,7,15,53,30,483
44.64760,0.16888,0.00805,0.00000,0.03062,0.97454,-0.18556,0.0,2023,6,7,15,53,30,493
44.64770,-0.11112,-0.14945,0.00000,0.03087,0.97710,-0.19081,0.0,2023,6,7,15,53,30,503
44.64780,0.04638,0.16555,0.00000,0.03257,0.97710,-0.18727,0.0,2023,6,7,15,53,30,513
44.64790,0.02888,-0.07945,0.00000,0.03355,0.97576,-0.18629,0.0,2023,6,7,15,53,30,523
44.64800,-0.07612,0.16555,0.00000,0.03074,0.97685,-0.18593,0.0,2023,6,7,15,53,30,533
44.64810,0.09888,0.04305,0.00000,0.03074,0.97710,-0.18715,0.0,2023,6,7,15,53,30,543
44.64820,-0.19862,0.06055,0.00000,0.03160,0.97405,-0.18568,0.0,2023,6,7,15,53,30,553
44.64830,-0.11112,0.18305,0.00000,0.02928,0.97722,-0.18642,0.0,2023,6,7,15,53,30,563
44.64840,-0.07612,0.09555,0.00000,0.02794,0.97978,-0.18532,0.0,2023,6,7,15,53,30,573
44.64850,-0.11112,-0.07945,0.00000,0.03087,0.97795,-0.18849,0.0,2023,6,7,15,53,30,583
44.64860,-0.00612,0.07805,0.00000,0.03477,0.97685,-0.18678,0.0,2023,6,7,15,53,30,593
44.64870,-0.05862,-0.00945,0.00000,0.03404,0.97551,-0.18629,0.0,2023,6,7,15,53,30,603
44.64880,-0.09362,0.07805,0.00000,0.03318,0.97868,-0.18629,0.0,2023,6,7,15,53,30,613
44.64890,0.04638,-0.11445,0.00000,0.03282,0.97490,-0.18520,0.0,2023,6,7,15,53,30,623
44.64900,-0.25112,0.02555,0.00000,0.03050,0.97685,-0.18629,0.0,2023,6,7,15,53,30,633
44.64910,0.08138,-0.18445,0.00000,0.03221,0.97807,-0.18739,0.0,2023,6,7,15,53,30,643
44.64920,0.11638,0.04305,0.00000,0.02916,0.97624,-0.18568,0.0,2023,6,7,15,53,30,653
44.64930,0.01138,0.23555,0.00000,0.03306,0.97368,-0.18483,0.0,2023,6,7,15,53,30,663
44.64940,-0.12862,0.07805,0.00000,0.03123,0.97771,-0.18617,0.0,2023,6,7,15,53,30,673
44.64950,-0.28612,-0.07945,0.00000,0.03148,0.97490,-0.18873,0.0,2023,6,7,15,53,30,683
44.64960,-0.05862,0.04305,0.00000,0.03367,0.97698,-0.18654,0.0,2023,6,7,15,53,30,693
44.64970,-0.11112,0.11305,0.00000,0.03172,0.97466,-0.18629,0.0,2023,6,7,15,53,30,703
44.64980,-0.05862,0.06055,0.00000,0.03123,0.97795,-0.18605,0.0,2023,6,7,15,53,30,713
44.64990,0.04638,-0.18445,0.00000,0.02965,0.97527,-0.18715,0.0,2023,6,7,15,53,30,723
44.65000,-0.16362,-0.11445,0.00000,0.03062,0.97698,-0.18422,0.0,2023,6,7,15,53,30,733
44.65010,-0.00612,0.13055,0.00000,0.03123,0.97539,-0.18605,0.0,2023,6,7,15,53,30,743
44.65020,-0.07612,0.04305,0.00000,0.03038,0.97515,-0.18617,0.0,2023,6,7,15,53,30,753
44.65030,-0.09362,-0.25445,0.00000,0.03087,0.97612,-0.18568,0.0,2023,6,7,15,53,30,763
44.65040,0.08138,0.09555,0.00000,0.03355,0.97746,-0.18361,0.0,2023,6,7,15,53,30,773
44.65050,-0.05862,-0.06195,0.00000,0.03221,0.97685,-0.18507,0.0,2023,6,7,15,53,30,783
44.65060,0.11638,0.06055,0.00000,0.03050,0.97673,-0.18690,0.0,2023,6,7,15,53,30,793
44.65070,0.08138,-0.06195,0.00000,0.03270,0.97685,-0.18581,0.0,2023,6,7,15,53,30,803
44.65080,0.15138,-0.09695,0.00000,0.03026,0.97441,-0.18666,0.0,2023,6,7,15,53,30,813
44.65090,0.01138,-0.04445,0.00000,0.03050,0.97624,-0.18629,0.0,2023,6,7,15,53,30,823
44.65100,0.11638,-0.11445,0.00000,0.03148,0.97624,-0.18483,0.0,2023,6,7,15,53,30,833
44.65110,-0.02362,-0.11445,0.00000,0.03160,0.97820,-0.18483,0.0,2023,6,7,15,53,30,843
44.65120,-0.04112,-0.07945,0.00000,0.03111,0.97807,-0.18617,0.0,2023,6,7,15,53,30,853
44.65130,-0.04112,-0.02695,0.00000,0.03270,0.97722,-0.18666,0.0,2023,6,7,15,53,30,863
44.65140,-0.07612,0.14805,0.00000,0.03245,0.97612,-0.18715,0.0,2023,6,7,15,53,30,873
44.65150,0.13388,-0.11445,0.00000,0.03062,0.97868,-0.18800,0.0,2023,6,7,15,53,30,883
44.65160,-0.02362,-0.13195,0.00000,0.02916,0.97698,-0.18873,0.0,2023,6,7,15,53,31,893
44.65170,-0.18112,0.14805,0.00000,0.03306,0.97637,-0.18849,0.0,2023,6,7,15,53,31,903
44.65180,-0.09362,0.09555,0.00000,0.03245,0.97661,-0.18593,0.0,2023,6,7,15,53,31,913
44.65190,-0.14612,-0.02695,0.00000,0.03123,0.97844,-0.18812,0.0,2023,6,7,15,53,31,923
44.65200,0.09888,0.06055,0.00000,0.03196,0.97466,-0.18581,0.0,2023,6,7,15,53,31,933
44.65210,-0.00612,-0.00945,0.00000,0.03184,0.97734,-0.18617,0.0,2023,6,7,15,53,31,943
44.65220,-0.05862,0.06055,0.00000,0.03209,0.97673,-0.18727,0.0,2023,6,7,15,53,31,953
44.65230,-0.09362,-0.07945,0.00000,0.03038,0.97649,-0.18422,0.0,2023,6,7,15,53,31,963
44.65240,-0.16362,-0.04445,0.00000,0.03111,0.97844,-0.18629,0.0,2023,6,7,15,53,31,973
44.65250,-0.09362,0.06055,0.00000,0.03282,0.97637,-0.18690,0.0,2023,6,7,15,53,31,983
44.65260,0.02888,0.04305,0.00000,0.02940,0.97771,-0.18666,0.0,2023,6,7,15,53,31,993
44.65270,0.01138,-0.02695,0.00000,0.03013,0.97881,-0.18471,0.0,2023,6,7,15,53,31,3
44.65280,0.02888,-0.11445,0.00000,0.03318,0.97637,-0.18776,0.0,2023,6,7,15,53,31,13
44.65290,0.15138,-0.13195,0.00000,0.03257,0.97551,-0.18605,0.0,2023,6,7,15,53,31,23
44.65300,0.09888,0.14805,0.00000,0.03343,0.97612,-0.18593,0.0,2023,6,7,15,53,31,33
44.65310,0.01138,0.20055,0.00000,0.03111,0.97661,-0.18568,0.0,2023,6,7,15,53,31,43
44.65320,0.23888,0.02555,0.00000,0.03123,0.97832,-0.18800,0.0,2023,6,7,15,53,31,53
44.65330,-0.14612,-0.11445,0.00000,0.03172,0.97600,-0.18422,0.0,2023,6,7,15,53,31,63
44.65340,-0.05862,0.00805,0.00000,0.03184,0.97502,-0.18581,0.0,2023,6,7,15,53,31,73
44.65350,-0.12862,-0.20195,0.00000,0.03099,0.97600,-0.18788,0.0,2023,6,7,15,53,31,83
44.65360,-0.09362,0.06055,0.00000,0.03172,0.97759,-0.18471,0.0,2023,6,7,15,53,31,93
44.65370,-0.11112,-0.00945,0.00000,0.02916,0.97490,-0.18715,0.0,2023,6,7,15,53,31,103
44.65380,0.08138,0.04305,0.00000,0.03074,0.97710,-0.18507,0.0,2023,6,7,15,53,31,113
44.65390,-0.00612,0.13055,0.00000,0.03172,0.97612,-0.18532,0.0,2023,6,7,15,53,31,123
44.65400,-0.00612,-0.09695,0.00000,0.03074,0.97441,-0.18764,0.0,2023,6,7,15,53,31,133
44.65410,0.15138,0.13055,0.00000,0.03392,0.97637,-0.18617,0.0,2023,6,7,15,53,31,143
44.65420,-0.02362,0.06055,0.00000,0.03184,0.97661,-0.18715,0.0,2023,6,7,15,53,31,153
44.65430,0.01138,0.11305,0.00000,0.03111,0.97454,-0.18642,0.0,2023,6,7,15,53,31,163
44.65440,-0.09362,0.13055,0.00000,0.02830,0.97637,-0.18434,0.0,2023,6,7,15,53,31,173
44.65450,-0.16362,-0.16695,0.00000,0.03233,0.97661,-0.18593,0.0,2023,6,7,15,53,31,183
44.65460,-0.18112,-0.02695,0.00000,0.03184,0.97612,-0.18483,0.0,2023,6,7,15,53,31,193
44.65470,0.08138,-0.00945,0.00000,0.03294,0.97698,-0.18373,0.0,2023,6,7,15,53,31,203
44.65480,0.06388,-0.00945,0.00000,0.03331,0.97637,-0.18629,0.0,2023,6,7,15,53,31,213
44.65490,0.13388,0.13055,0.00000,0.03123,0.97771,-0.18532,0.0,2023,6,7,15,53,31,223
44.65500,-0.11112,0.09555,0.00000,0.03209,0.97368,-0.18349,0.0,2023,6,7,15,53,31,233
44.65510,0.01138,-0.07945,0.00000,0.03379,0.97734,-0.18398,0.0,2023,6,7,15,53,31,243
44.65520,0.16888,-0.00945,0.00000,0.03294,0.97868,-0.18642,0.0,2023,6,7,15,53,31,253
44.65530,0.06388,-0.07945,0.00000,0.03196,0.97502,-0.18532,0.0,2023,6,7,15,53,31,263
44.65540,-0.04112,-0.18445,0.00000,0.03196,0.97759,-0.18507,0.0,2023,6,7,15,53,31,273
44.65550,-0.02362,-0.06195,0.00000,0.03294,0.97539,-0.18642,0.0,2023,6,7,15,53,31,283
44.65560,-0.14612,0.00805,0.00000,0.03087,0.97917,-0.18776,0.0,2023,6,7,15,53,31,293
44.65570,-0.28612,0.09555,0.00000,0.03257,0.97759,-0.18739,0.0,2023,6,7,15,53,31,303
44.65580,0.02888,0.07805,0.00000,0.03379,0.97576,-0.18483,0.0,2023,6,7,15,53,31,313
44.65590,0.02888,-0.02695,0.00000,0.03026,0.97722,-0.18520,0.0,2023,6,7,15,53,31,323
44.65600,0.15138,-0.13195,0.00000,0.03135,0.97588,-0.18873,0.0,2023,6,7,15,53,31,333
44.65610,0.04638,-0.04445,0.00000,0.03282,0.97685,-0.18471,0.0,2023,6,7,15,53,31,343
44.65620,0.04638,-0.06195,0.00000,0.03087,0.97576,-0.18459,0.0,2023,6,7,15,53,31,353
44.65630,0.30888,-0.13195,0.00000,0.03294,0.97673,-0.18532,0.0,2023,6,7,15,53,31,363
44.65640,0.08138,-0.11445,0.00000,0.03099,0.97539,-0.18642,0.0,2023,6,7,15,53,31,373
44.65650,0.04638,-0.04445,0.00000,0.03050,0.97734,-0.18568,0.0,2023,6,7,15,53,31,383
44.65660,0.01138,0.04305,0.00000,0.03013,0.97576,-0.18727,0.0,2023,6,7,15,53,31,393
44.65670,-0.16362,0.00805,0.00000,0.03343,0.97197,-0.18337,0.0,2023,6,7,15,53,31,403
44.65680,-0.00612,0.06055,0.00000,0.03111,0.97759,-0.18300,0.0,2023,6,7,15,53,31,413
44.65690,0.18638,0.00805,0.00000,0.03099,0.97551,-0.18690,0.0,2023,6,7,15,53,31,423
44.65700,-0.00612,0.14805,0.00000,0.03099,0.97527,-0.18751,0.0,2023,6,7,15,53,31,433
44.65710,-0.12862,-0.00945,0.00000,0.03209,0.97612,-0.18532,0.0,2023,6,7,15,53,31,443
44.65720,-0.02362,0.06055,0.00000,0.03099,0.97759,-0.18568,0.0,2023,6,7,15,53,31,453
44.65730,-0.02362,0.25305,0.00000,0.02879,0.97539,-0.18532,0.0,2023,6,7,15,53,31,463
44.65740,0.30888,-0.39445,0.00000,0.03392,0.97539,-0.18666,0.0,2023,6,7,15,53,31,473
44.65750,0.01138,0.02555,0.00000,0.03135,0.97673,-0.18751,0.0,2023,6,7,15,53,31,483
44.65760,0.11638,-0.14945,0.00000,0.03062,0.97759,-0.18776,0.0,2023,6,7,15,53,31,493
44.65770,0.11638,-0.11445,0.00000,0.03148,0.97771,-0.18642,0.0,2023,6,7,15,53,31,503
44.65780,0.09888,0.07805,0.00000,0.03416,0.97527,-0.18337,0.0,2023,6,7,15,53,31,513
44.65790,-0.05862,0.28805,0.00000,0.03001,0.97734,-0.18593,0.0,2023,6,7,15,53,31,523
44.65800,0.04638,-0.07945,0.00000,0.03184,0.97576,-0.18861,0.0,2023,6,7,15,53,31,533
44.65810,-0.09362,0.07805,0.00000,0.03099,0.97612,-0.18398,0.0,2023,6,7,15,53,31,543
44.65820,-0.16362,0.13055,0.00000,0.03123,0.97820,-0.18715,0.0,2023,6,7,15,53,31,553
44.65830,0.09888,0.14805,0.00000,0.03282,0.97649,-0.18898,0.0,2023,6,7,15,53,31,563
44.65840,0.01138,-0.11445,0.00000,0.03331,0.97576,-0.18373,0.0,2023,6,7,15,53,31,573
44.65850,-0.05862,0.09555,0.00000,0.03343,0.97539,-0.18520,0.0,2023,6,7,15,53,31,583
44.65860,0.09888,0.02555,0.00000,0.03062,0.97868,-0.18605,0.0,2023,6,7,15,53,31,593
44.65870,-0.16362,0.06055,0.00000,0.03074,0.97478,-0.18812,0.0,2023,6,7,15,53,31,603
44.65880,-0.09362,0.06055,0.00000,0.03038,0.97624,-0.18788,0.0,2023,6,7,15,53,31,613
44.65890,-0.05862,-0.07945,0.00000,0.03148,0.97722,-0.18703,0.0,2023,6,7,15,53,31,623
44.65900,-0.02362,-0.00945,0.00000,0.03148,0.97710,-0.18263,0.0,2023,6,7,15,53,31,633
44.65910,0.09888,0.02555,0.00000,0.03318,0.97307,-0.18678,0.0,2023,6,7,15,53,31,643
44.65920,0.16888,-0.11445,0.00000,0.03233,0.97612,-0.18483,0.0,2023,6,7,15,53,31,653
44.65930,-0.04112,0.07805,0.00000,0.03099,0.97746,-0.18751,0.0,2023,6,7,15,53,31,663
44.65940,0.15138,-0.06195,0.00000,0.03331,0.97502,-0.18654,0.0,2023,6,7,15,53,31,673
44.65950,-0.11112,0.11305,0.00000,0.03062,0.97685,-0.18556,0.0,2023,6,7,15,53,31,683
44.65960,-0.04112,-0.04445,0.00000,0.03074,0.97649,-0.18849,0.0,2023,6,7,15,53,31,693
44.65970,-0.02362,0.07805,0.00000,0.03111,0.97807,-0.18703,0.0,2023,6,7,15,53,31,703
44.65980,0.02888,0.07805,0.00000,0.03160,0.97417,-0.18507,0.0,2023,6,7,15,53,31,713
44.65990,-0.14612,0.07805,0.00000,0.03270,0.97539,-0.18800,0.0,2023,6,7,15,53,31,723
44.66000,0.02888,-0.16695,0.00000,0.03355,0.97319,-0.18593,0.0,2023,6,7,15,53,31,733
44.66010,-0.18112,-0.04445,0.00000,0.03221,0.97710,-0.18373,0.0,2023,6,7,15,53,31,743
44.66020,0.01138,0.02555,0.00000,0.03099,0.97649,-0.18959,0.0,2023,6,7,15,53,31,753
44.66030,0.15138,-0.13195,0.00000,0.03209,0.97344,-0.18837,0.0,2023,6,7,15,53,31,763
44.66040,-0.25112,-0.11445,0.00000,0.03099,0.97844,-0.18654,0.0,2023,6,7,15,53,31,773
44.66050,0.13388,-0.13195,0.00000,0.03050,0.97722,-0.18751,0.0,2023,6,7,15,53,31,783
44.66060,0.13388,-0.16695,0.00000,0.03331,0.97820,-0.18739,0.0,2023,6,7,15,53,31,793
44.66070,-0.02362,-0.04445,0.00000,0.02989,0.97649,-0.18459,0.0,2023,6,7,15,53,32,803
44.66080,-0.04112,0.14805,0.00000,0.03074,0.97539,-0.18837,0.0,2023,6,7,15,53,32,813
44.66090,-0.07612,-0.04445,0.00000,0.03209,0.97539,-0.18898,0.0,2023,6,7,15,53,32,823
44.66100,0.13388,-0.18445,0.00000,0.03135,0.97490,-0.18910,0.0,2023,6,7,15,53,32,833
44.66110,-0.02362,-0.06195,0.00000,0.03172,0.97771,-0.18605,0.0,2023,6,7,15,53,32,843
44.66120,0.15138,-0.14945,0.00000,0.03135,0.97783,-0.18654,0.0,2023,6,7,15,53,32,853
44.66130,-0.12862,0.16555,0.00000,0.03196,0.97588,-0.18385,0.0,2023,6,7,15,53,32,863
44.66140,0.02888,-0.04445,0.00000,0.03123,0.97673,-0.18837,0.0,2023,6,7,15,53,32,873
44.66150,0.09888,0.07805,0.00000,0.03038,0.97868,-0.18825,0.0,2023,6,7,15,53,32,883
44.66160,-0.18112,0.00805,0.00000,0.03209,0.97637,-0.18532,0.0,2023,6,7,15,53,32,893
44.66170,-0.12862,-0.06195,0.00000,0.03123,0.97490,-0.18947,0.0,2023,6,7,15,53,32,903
44.66180,-0.02362,-0.00945,0.00000,0.03074,0.97783,-0.18703,0.0,2023,6,7,15,53,32,913
44.66190,0.02888,0.07805,0.00000,0.03050,0.97515,-0.18837,0.0,2023,6,7,15,53,32,923
44.66200,-0.12862,-0.04445,0.00000,0.03135,0.97698,-0.18544,0.0,2023,6,7,15,53,32,933
44.66210,0.01138,0.06055,0.00000,0.03282,0.97685,-0.18703,0.0,2023,6,7,15,53,32,943
44.66220,0.09888,-0.06195,0.00000,0.02977,0.97612,-0.18337,0.0,2023,6,7,15,53,32,953
44.66230,-0.25112,-0.04445,0.00000,0.03038,0.97588,-0.18703,0.0,2023,6,7,15,53,32,963
44.66240,-0.00612,-0.04445,0.00000,0.03026,0.97966,-0.18739,0.0,2023,6,7,15,53,32,973
44.66250,0.08138,0.07805,0.00000,0.03209,0.97637,-0.18678,0.0,2023,6,7,15,53,32,983
44.66260,0.02888,-0.13195,0.00000,0.03050,0.97502,-0.18629,0.0,2023,6,7,15,53,32,993
44.66270,-0.04112,-0.04445,0.00000,0.03318,0.97722,-0.18739,0.0,2023,6,7,15,53,32,3
44.66280,-0.09362,-0.13195,0.00000,0.03001,0.97722,-0.18642,0.0,2023,6,7,15,53,32,13
44.66290,-0.02362,-0.07945,0.00000,0.02965,0.97746,-0.18642,0.0,2023,6,7,15,53,32,23
44.66300,0.02888,0.14805,0.00000,0.03209,0.97478,-0.18971,0.0,2023,6,7,15,53,32,33
44.66310,-0.05862,-0.11445,0.00000,0.03172,0.97527,-0.18837,0.0,2023,6,7,15,53,32,43
44.66320,-0.16362,-0.13195,0.00000,0.03148,0.97612,-0.18642,0.0,2023,6,7,15,53,32,53
44.66330,-0.05862,-0.06195,0.00000,0.02989,0.97710,-0.18617,0.0,2023,6,7,15,53,32,63
44.66340,0.04638,-0.13195,0.00000,0.03123,0.97478,-0.18617,0.0,2023,6,7,15,53,32,73
44.66350,-0.16362,0.06055,0.00000,0.02806,0.97527,-0.18495,0.0,2023,6,7,15,53,32,83
44.66360,0.01138,-0.13195,0.00000,0.03343,0.97661,-0.18520,0.0,2023,6,7,15,53,32,93
44.66370,0.02888,0.00805,0.00000,0.03099,0.97734,-0.18690,0.0,2023,6,7,15,53,32,103
44.66380,0.08138,0.00805,0.00000,0.03026,0.97673,-0.18776,0.0,2023,6,7,15,53,32,113
44.66390,-0.00612,0.02555,0.00000,0.03111,0.97771,-0.18666,0.0,2023,6,7,15,53,32,123
44.66400,0.09888,-0.11445,0.00000,0.03221,0.97588,-0.18873,0.0,2023,6,7,15,53,32,133
44.66410,-0.05862,0.07805,0.00000,0.02965,0.97576,-0.18788,0.0,2023,6,7,15,53,32,143
44.66420,-0.11112,-0.06195,0.00000,0.02977,0.97820,-0.18483,0.0,2023,6,7,15,53,32,153
44.66430,-0.04112,-0.21945,0.00000,0.03172,0.97612,-0.18532,0.0,2023,6,7,15,53,32,163
44.66440,-0.05862,-0.09695,0.00000,0.03270,0.97661,-0.18739,0.0,2023,6,7,15,53,32,173
44.66450,-0.02362,-0.16695,0.00000,0.03087,0.97576,-0.18715,0.0,2023,6,7,15,53,32,183
44.66460,-0.04112,0.06055,0.00000,0.02879,0.97905,-0.18507,0.0,2023,6,7,15,53,32,193
44.66470,-0.05862,-0.06195,0.00000,0.03221,0.97759,-0.18617,0.0,2023,6,7,15,53,32,203
44.66480,0.22138,0.16555,0.00000,0.03294,0.97881,-0.18544,0.0,2023,6,7,15,53,32,213
44.66490,-0.04112,0.11305,0.00000,0.03367,0.97734,-0.18239,0.0,2023,6,7,15,53,32,223
44.66500,-0.07612,0.07805,0.00000,0.03233,0.97966,-0.18776,0.0,2023,6,7,15,53,32,233
44.66510,0.02888,-0.00945,0.00000,0.03294,0.97722,-0.18788,0.0,2023,6,7,15,53,32,243
44.66520,-0.04112,0.04305,0.00000,0.03062,0.97527,-0.18812,0.0,2023,6,7,15,53,32,253
44.66530,0.09888,-0.02695,0.00000,0.03331,0.97551,-0.18642,0.0,2023,6,7,15,53,32,263
44.66540,-0.00612,0.04305,0.00000,0.03306,0.97807,-0.18764,0.0,2023,6,7,15,53,32,273
44.66550,-0.09362,0.23555,0.00000,0.03111,0.97600,-0.18422,0.0,2023,6,7,15,53,32,283
44.66560,0.01138,0.04305,0.00000,0.03135,0.97759,-0.18581,0.0,2023,6,7,15,53,32,293
44.66570,0.04638,-0.06195,0.00000,0.03148,0.97478,-0.18678,0.0,2023,6,7,15,53,32,303
44.66580,-0.25112,0.00805,0.00000,0.03196,0.97515,-0.18422,0.0,2023,6,7,15,53,32,313
44.66590,0.13388,-0.14945,0.00000,0.03038,0.97722,-0.18532,0.0,2023,6,7,15,53,32,323
44.66600,-0.04112,-0.18445,0.00000,0.03026,0.97685,-0.18337,0.0,2023,6,7,15,53,32,333
44.66610,0.01138,0.06055,0.00000,0.03221,0.97441,-0.18568,0.0,2023,6,7,15,53,32,343
44.66620,-0.02362,-0.18445,0.00000,0.03062,0.97539,-0.18398,0.0,2023,6,7,15,53,32,353
44.66630,-0.14612,-0.02695,0.00000,0.03221,0.97746,-0.18617,0.0,2023,6,7,15,53,32,363
44.66640,0.23888,-0.06195,0.00000,0.03196,0.97832,-0.18703,0.0,2023,6,7,15,53,32,373
44.66650,0.11638,-0.02695,0.00000,0.03148,0.97612,-0.18520,0.0,2023,6,7,15,53,32,383
44.66660,-0.09362,-0.06195,0.00000,0.03160,0.97637,-0.18532,0.0,2023,6,7,15,53,32,393
44.66670,0.29138,-0.18445,0.00000,0.02904,0.97734,-0.18825,0.0,2023,6,7,15,53,32,403
44.66680,0.06388,-0.23695,0.00000,0.03160,0.97466,-0.18764,0.0,2023,6,7,15,53,32,413
44.66690,0.01138,-0.25445,0.00000,0.03050,0.97673,-0.18581,0.0,2023,6,7,15,53,32,423
44.66700,-0.18112,-0.04445,0.00000,0.03245,0.97759,-0.18666,0.0,2023,6,7,15,53,32,433
44.66710,-0.05862,0.04305,0.00000,0.03257,0.97734,-0.18520,0.0,2023,6,7,15,53,32,443
44.66720,0.04638,0.07805,0.00000,0.03221,0.97466,-0.18666,0.0,2023,6,7,15,53,32,453
44.66730,0.06388,-0.11445,0.00000,0.03038,0.97734,-0.18666,0.0,2023,6,7,15,53,32,463
44.66740,-0.16362,0.00805,0.00000,0.03318,0.97783,-0.18861,0.0,2023,6,7,15,53,32,473
44.66750,0.04638,0.06055,0.00000,0.03087,0.97454,-0.18678,0.0,2023,6,7,15,53,32,483
44.66760,-0.00612,-0.04445,0.00000,0.02891,0.97844,-0.18605,0.0,2023,6,7,15,53,32,493
44.66770,-0.00612,0.02555,0.00000,0.03148,0.97771,-0.18886,0.0,2023,6,7,15,53,32,503
44.66780,0.18638,0.06055,0.00000,0.03062,0.97685,-0.18642,0.0,2023,6,7,15,53,32,513
44.66790,0.01138,-0.00945,0.00000,0.03416,0.97685,-0.18556,0.0,2023,6,7,15,53,32,523
44.66800,-0.04112,-0.06195,0.00000,0.03221,0.97771,-0.18690,0.0,2023,6,7,15,53,32,533
44.66810,-0.00612,-0.27195,0.00000,0.03184,0.97307,-0.18385,0.0,2023,6,7,15,53,32,543
44.66820,-0.02362,0.00805,0.00000,0.03245,0.97624,-0.18434,0.0,2023,6,7,15,53,32,553
44.66830,0.06388,-0.14945,0.00000,0.03111,0.97563,-0.18483,0.0,2023,6,7,15,53,32,563
44.66840,-0.12862,0.28805,0.00000,0.03087,0.97698,-0.18703,0.0,2023,6,7,15,53,32,573
44.66850,-0.16362,-0.09695,0.00000,0.03404,0.97759,-0.18398,0.0,2023,6,7,15,53,32,583
44.66860,-0.02362,-0.11445,0.00000,0.03233,0.97673,-0.18654,0.0,2023,6,7,15,53,32,593
44.66870,-0.00612,-0.00945,0.00000,0.03196,0.97563,-0.18446,0.0,2023,6,7,15,53,32,603
44.66880,0.02888,-0.11445,0.00000,0.02965,0.97393,-0.18459,0.0,2023,6,7,15,53,32,613
44.66890,0.04638,-0.04445,0.00000,0.03062,0.97490,-0.18934,0.0,2023,6,7,15,53,32,623
44.66900,0.02888,-0.30695,0.00000,0.03050,0.97515,-0.18837,0.0,2023,6,7,15,53,32,633
44.66910,0.13388,-0.11445,0.00000,0.03135,0.97710,-0.18471,0.0,2023,6,7,15,53,32,643
44.66920,0.15138,0.13055,0.00000,0.03111,0.97844,-0.18776,0.0,2023,6,7,15,53,32,653
44.66930,0.09888,0.06055,0.00000,0.03050,0.97612,-0.18593,0.0,2023,6,7,15,53,32,663
44.66940,-0.19862,0.07805,0.00000,0.03123,0.97551,-0.18666,0.0,2023,6,7,15,53,32,673
44.66950,-0.04112,0.25305,0.00000,0.03172,0.97771,-0.18776,0.0,2023,6,7,15,53,32,683
44.66960,0.06388,-0.16695,0.00000,0.02977,0.97746,-0.18520,0.0,2023,6,7,15,53,32,693
44.66970,-0.05862,-0.23695,0.00000,0.03318,0.97576,-0.18642,0.0,2023,6,7,15,53,33,703
44.66980,0.04638,-0.06195,0.00000,0.03184,0.97588,-0.18568,0.0,2023,6,7,15,53,33,713
44.66990,0.11638,-0.00945,0.00000,0.02904,0.97746,-0.18861,0.0,2023,6,7,15,53,33,723
44.67000,-0.11112,-0.16695,0.00000,0.03099,0.97807,-0.18459,0.0,2023,6,7,15,53,33,733
44.67010,-0.16362,0.04305,0.00000,0.03196,0.97624,-0.18886,0.0,2023,6,7,15,53,33,743
44.67020,0.02888,-0.04445,0.00000,0.02916,0.97612,-0.18764,0.0,2023,6,7,15,53,33,753
44.67030,-0.14612,-0.11445,0.00000,0.03172,0.97637,-0.18703,0.0,2023,6,7,15,53,33,763
44.67040,-0.04112,-0.04445,0.00000,0.03160,0.97673,-0.18544,0.0,2023,6,7,15,53,33,773
44.67050,0.25638,0.13055,0.00000,0.03160,0.97771,-0.18520,0.0,2023,6,7,15,53,33,783
44.67060,-0.00612,0.02555,0.00000,0.03233,0.97441,-0.18581,0.0,2023,6,7,15,53,33,793
44.67070,-0.00612,0.06055,0.00000,0.03135,0.97722,-0.18715,0.0,2023,6,7,15,53,33,803
44.67080,-0.12862,0.09555,0.00000,0.03001,0.97771,-0.18764,0.0,2023,6,7,15,53,33,813
44.67090,0.06388,-0.11445,0.00000,0.03245,0.97807,-0.18861,0.0,2023,6,7,15,53,33,823
44.67100,0.01138,-0.04445,0.00000,0.03160,0.97393,-0.18800,0.0,2023,6,7,15,53,33,833
44.67110,-0.04112,-0.06195,0.00000,0.02940,0.97710,-0.18690,0.0,2023,6,7,15,53,33,843
44.67120,-0.14612,0.23555,0.00000,0.03270,0.97746,-0.18983,0.0,2023,6,7,15,53,33,853
44.67130,-0.02362,0.02555,0.00000,0.03050,0.97393,-0.18446,0.0,2023,6,7,15,53,33,863
44.67140,-0.11112,-0.07945,0.00000,0.03001,0.97490,-0.18703,0.0,2023,6,7,15,53,33,873
44.67150,-0.00612,-0.04445,0.00000,0.03233,0.97771,-0.19142,0.0,2023,6,7,15,53,33,883
44.67160,0.06388,-0.04445,0.00000,0.03233,0.97685,-0.18715,0.0,2023,6,7,15,53,33,893
44.67170,-0.07612,0.07805,0.00000,0.03184,0.97649,-0.18861,0.0,2023,6,7,15,53,33,903
44.67180,0.20388,-0.06195,0.00000,0.03074,0.97539,-0.18703,0.0,2023,6,7,15,53,33,913
44.67190,0.09888,-0.04445,0.00000,0.02757,0.97332,-0.18605,0.0,2023,6,7,15,53,33,923
44.67200,-0.07612,0.00805,0.00000,0.02977,0.97746,-0.18422,0.0,2023,6,7,15,53,33,933
44.67210,-0.05862,-0.04445,0.00000,0.02952,0.97637,-0.18788,0.0,2023,6,7,15,53,33,943
44.67220,0.13388,-0.11445,0.00000,0.03416,0.97441,-0.18995,0.0,2023,6,7,15,53,33,953
44.67230,0.02888,-0.02695,0.00000,0.03135,0.97795,-0.18544,0.0,2023,6,7,15,53,33,963
44.67240,0.02888,-0.09695,0.00000,0.03172,0.97746,-0.18837,0.0,2023,6,7,15,53,33,973
44.67250,-0.04112,0.04305,0.00000,0.03282,0.97502,-0.18642,0.0,2023,6,7,15,53,33,983
44.67260,0.09888,-0.20195,0.00000,0.03501,0.97832,-0.18764,0.0,2023,6,7,15,53,33,993
44.67270,-0.04112,-0.07945,0.00000,0.03184,0.97771,-0.18800,0.0,2023,6,7,15,53,33,3
44.67280,0.23888,-0.13195,0.00000,0.03013,0.97710,-0.18947,0.0,2023,6,7,15,53,33,13
44.67290,-0.05862,-0.06195,0.00000,0.03160,0.97881,-0.18666,0.0,2023,6,7,15,53,33,23
44.67300,0.15138,-0.09695,0.00000,0.03245,0.97685,-0.18837,0.0,2023,6,7,15,53,33,33
44.67310,0.11638,0.06055,0.00000,0.03001,0.97844,-0.18898,0.0,2023,6,7,15,53,33,43
44.67320,0.08138,-0.02695,0.00000,0.03257,0.97637,-0.18727,0.0,2023,6,7,15,53,33,53
44.67330,-0.05862,-0.00945,0.00000,0.03087,0.97771,-0.18776,0.0,2023,6,7,15,53,33,63
44.67340,0.08138,0.14805,0.00000,0.02989,0.97600,-0.18995,0.0,2023,6,7,15,53,33,73
44.67350,-0.09362,-0.07945,0.00000,0.03331,0.97649,-0.18666,0.0,2023,6,7,15,53,33,83
44.67360,0.09888,0.04305,0.00000,0.03172,0.97856,-0.18886,0.0,2023,6,7,15,53,33,93
44.67370,-0.18112,0.00805,0.00000,0.03026,0.97795,-0.18678,0.0,2023,6,7,15,53,33,103
44.67380,0.02888,-0.14945,0.00000,0.03196,0.97624,-0.18727,0.0,2023,6,7,15,53,33,113
44.67390,0.08138,-0.13195,0.00000,0.03209,0.97685,-0.18776,0.0,2023,6,7,15,53,33,123
44.67400,0.01138,-0.00945,0.00000,0.03099,0.97685,-0.18812,0.0,2023,6,7,15,53,33,133
44.67410,-0.16362,0.00805,0.00000,0.03306,0.97527,-0.18654,0.0,2023,6,7,15,53,33,143
44.67420,0.06388,0.06055,0.00000,0.03148,0.97759,-0.18727,0.0,2023,6,7,15,53,33,153
44.67430,-0.19862,0.20055,0.00000,0.02879,0.97685,-0.18971,0.0,2023,6,7,15,53,33,163
44.67440,-0.09362,-0.06195,0.00000,0.03440,0.97698,-0.18556,0.0,2023,6,7,15,53,33,173
44.67450,-0.02362,-0.02695,0.00000,0.03135,0.97588,-0.18617,0.0,2023,6,7,15,53,33,183
44.67460,0.16888,-0.16695,0.00000,0.03099,0.97551,-0.18983,0.0,2023,6,7,15,53,33,193
44.67470,-0.19862,0.14805,0.00000,0.02977,0.97673,-0.18434,0.0,2023,6,7,15,53,33,203
44.67480,-0.14612,-0.02695,0.00000,0.03013,0.97563,-0.18873,0.0,2023,6,7,15,53,33,213
44.67490,-0.04112,0.20055,0.00000,0.03062,0.97539,-0.18483,0.0,2023,6,7,15,53,33,223
44.67500,0.09888,-0.02695,0.00000,0.03318,0.97307,-0.18666,0.0,2023,6,7,15,53,33,233
44.67510,-0.16362,0.13055,0.00000,0.03270,0.97759,-0.18703,0.0,2023,6,7,15,53,33,243
44.67520,-0.16362,-0.13195,0.00000,0.03160,0.97807,-0.18471,0.0,2023,6,7,15,53,33,253
44.67530,-0.00612,0.11305,0.00000,0.03331,0.97624,-0.18410,0.0,2023,6,7,15,53,33,263
44.67540,-0.05862,-0.00945,0.00000,0.03257,0.97551,-0.18605,0.0,2023,6,7,15,53,33,273
44.67550,0.08138,-0.06195,0.00000,0.03160,0.97734,-0.18751,0.0,2023,6,7,15,53,33,283
44.67560,-0.11112,-0.02695,0.00000,0.02965,0.97624,-0.18690,0.0,2023,6,7,15,53,33,293
44.67570,0.02888,0.14805,0.00000,0.03087,0.97722,-0.18678,0.0,2023,6,7,15,53,33,303
44.67580,0.06388,-0.09695,0.00000,0.03050,0.97710,-0.18751,0.0,2023,6,7,15,53,33,313
44.67590,0.15138,0.00805,0.00000,0.03184,0.97551,-0.18654,0.0,2023,6,7,15,53,33,323
44.67600,0.02888,-0.02695,0.00000,0.03099,0.97551,-0.18764,0.0,2023,6,7,15,53,33,333
44.67610,-0.12862,0.04305,0.00000,0.03172,0.97612,-0.18812,0.0,2023,6,7,15,53,33,343
44.67620,0.08138,-0.11445,0.00000,0.03087,0.97722,-0.18654,0.0,2023,6,7,15,53,33,353
44.67630,-0.02362,0.06055,0.00000,0.03050,0.97698,-0.18337,0.0,2023,6,7,15,53,33,363
44.67640,0.02888,-0.25445,0.00000,0.03111,0.97746,-0.18593,0.0,2023,6,7,15,53,33,373
44.67650,-0.00612,-0.02695,0.00000,0.03026,0.97759,-0.18593,0.0,2023,6,7,15,53,33,383
44.67660,0.06388,-0.00945,0.00000,0.03148,0.97551,-0.18544,0.0,2023,6,7,15,53,33,393
44.67670,0.04638,-0.13195,0.00000,0.03184,0.97661,-0.18434,0.0,2023,6,7,15,53,33,403
44.67680,-0.09362,0.14805,0.00000,0.02928,0.97637,-0.18617,0.0,2023,6,7,15,53,33,413
44.67690,0.06388,-0.02695,0.00000,0.03062,0.97661,-0.18654,0.0,2023,6,7,15,53,33,423
44.67700,-0.19862,0.21805,0.00000,0.03245,0.97515,-0.18410,0.0,2023,6,7,15,53,33,433
44.67710,-0.23362,0.11305,0.00000,0.03135,0.97710,-0.18788,0.0,2023,6,7,15,53,33,443
44.67720,0.06388,0.06055,0.00000,0.03038,0.97624,-0.18666,0.0,2023,6,7,15,53,33,453
44.67730,-0.14612,-0.02695,0.00000,0.03172,0.97600,-0.18642,0.0,2023,6,7,15,53,33,463
44.67740,-0.18112,-0.04445,0.00000,0.03245,0.97685,-0.18581,0.0,2023,6,7,15,53,33,473
44.67750,0.18638,0.09555,0.00000,0.02989,0.97588,-0.18715,0.0,2023,6,7,15,53,33,483
44.67760,-0.09362,-0.02695,0.00000,0.03306,0.97612,-0.18483,0.0,2023,6,7,15,53,33,493
44.67770,-0.12862,0.14805,0.00000,0.03196,0.97685,-0.18629,0.0,2023,6,7,15,53,33,503
44.67780,0.01138,-0.06195,0.00000,0.03111,0.97722,-0.18715,0.0,2023,6,7,15,53,33,513
44.67790,-0.05862,0.04305,0.00000,0.03282,0.97698,-0.18434,0.0,2023,6,7,15,53,33,523
44.67800,0.27388,-0.21945,0.00000,0.03160,0.97576,-0.18593,0.0,2023,6,7,15,53,33,533
44.67810,0.11638,-0.02695,0.00000,0.02965,0.97820,-0.18764,0.0,2023,6,7,15,53,33,543
44.67820,-0.00612,0.02555,0.00000,0.03184,0.97539,-0.18666,0.0,2023,6,7,15,53,33,553
44.67830,-0.19862,0.09555,0.00000,0.03221,0.97856,-0.18739,0.0,2023,6,7,15,53,33,563
44.67840,-0.02362,-0.02695,0.00000,0.03038,0.97868,-0.18678,0.0,2023,6,7,15,53,33,573
44.67850,-0.02362,0.00805,0.00000,0.03196,0.97746,-0.18690,0.0,2023,6,7,15,53,33,583
44.67860,-0.18112,0.11305,0.00000,0.03087,0.97710,-0.18654,0.0,2023,6,7,15,53,33,593
44.67870,0.02888,-0.00945,0.00000,0.03245,0.97698,-0.18654,0.0,2023,6,7,15,53,34,603
44.67880,-0.00612,-0.04445,0.00000,0.03001,0.97600,-0.18678,0.0,2023,6,7,15,53,34,613
44.67890,-0.23362,0.14805,0.00000,0.03135,0.97673,-0.18459,0.0,2023,6,7,15,53,34,623
44.67900,-0.02362,0.07805,0.00000,0.03209,0.97759,-0.18654,0.0,2023,6,7,15,53,34,633
44.67910,-0.16362,-0.07945,0.00000,0.03099,0.97856,-0.18446,0.0,2023,6,7,15,53,34,643
44.67920,0.13388,0.11305,0.00000,0.03306,0.97649,-0.18690,0.0,2023,6,7,15,53,34,653
44.67930,-0.12862,0.04305,0.00000,0.03465,0.97624,-0.18776,0.0,2023,6,7,15,53,34,663
44.67940,0.08138,-0.00945,0.00000,0.02843,0.97820,-0.18654,0.0,2023,6,7,15,53,34,673
44.67950,-0.05862,0.09555,0.00000,0.02916,0.97478,-0.18800,0.0,2023,6,7,15,53,34,683
44.67960,0.15138,-0.06195,0.00000,0.03062,0.97978,-0.18886,0.0,2023,6,7,15,53,34,693
44.67970,0.11638,0.07805,0.00000,0.03294,0.97612,-0.18690,0.0,2023,6,7,15,53,34,703
44.67980,0.04638,-0.04445,0.00000,0.03062,0.97759,-0.18910,0.0,2023,6,7,15,53,34,713
44.67990,0.06388,-0.07945,0.00000,0.03233,0.97576,-0.18837,0.0,2023,6,7,15,53,34,723
44.68000,0.04638,-0.06195,0.00000,0.03221,0.97771,-0.18739,0.0,2023,6,7,15,53,34,733
44.68010,0.23888,-0.11445,0.00000,0.03172,0.97746,-0.18337,0.0,2023,6,7,15,53,34,743
44.68020,-0.02362,-0.02695,0.00000,0.03270,0.97820,-0.18471,0.0,2023,6,7,15,53,34,753
44.68030,0.06388,0.02555,0.00000,0.03221,0.97661,-0.18605,0.0,2023,6,7,15,53,34,763
44.68040,-0.02362,-0.00945,0.00000,0.03209,0.97588,-0.18654,0.0,2023,6,7,15,53,34,773
44.68050,-0.11112,0.11305,0.00000,0.03123,0.97649,-0.18446,0.0,2023,6,7,15,53,34,783
44.68060,-0.16362,0.00805,0.00000,0.03245,0.97868,-0.18751,0.0,2023,6,7,15,53,34,793
44.68070,-0.00612,-0.06195,0.00000,0.03221,0.97637,-0.18532,0.0,2023,6,7,15,53,34,803
44.68080,0.04638,0.02555,0.00000,0.03160,0.97429,-0.18556,0.0,2023,6,7,15,53,34,813
44.68090,0.18638,-0.00945,0.00000,0.03221,0.97649,-0.18385,0.0,2023,6,7,15,53,34,823
44.68100,-0.00612,-0.14945,0.00000,0.03026,0.97478,-0.18690,0.0,2023,6,7,15,53,34,833
44.68110,0.01138,-0.06195,0.00000,0.02952,0.97637,-0.18678,0.0,2023,6,7,15,53,34,843
44.68120,-0.11112,0.09555,0.00000,0.03245,0.97624,-0.18666,0.0,2023,6,7,15,53,34,853
44.68130,0.08138,0.06055,0.00000,0.03282,0.97795,-0.18581,0.0,2023,6,7,15,53,34,863
44.68140,0.18638,-0.00945,0.00000,0.03318,0.97722,-0.18605,0.0,2023,6,7,15,53,34,873
44.68150,-0.14612,0.28805,0.00000,0.03306,0.97868,-0.18690,0.0,2023,6,7,15,53,34,883
44.68160,0.04638,-0.35945,0.00000,0.03160,0.97637,-0.18690,0.0,2023,6,7,15,53,34,893
44.68170,0.08138,0.04305,0.00000,0.02830,0.97576,-0.18983,0.0,2023,6,7,15,53,34,903
44.68180,0.01138,-0.14945,0.00000,0.03172,0.97710,-0.18568,0.0,2023,6,7,15,53,34,913
44.68190,-0.09362,0.06055,0.00000,0.02977,0.97563,-0.18690,0.0,2023,6,7,15,53,34,923
44.68200,-0.02362,0.02555,0.00000,0.02977,0.97710,-0.18934,0.0,2023,6,7,15,53,34,933
44.68210,-0.21612,0.02555,0.00000,0.03343,0.97771,-0.18507,0.0,2023,6,7,15,53,34,943
44.68220,-0.14612,0.09555,0.00000,0.03013,0.97917,-0.18971,0.0,2023,6,7,15,53,34,953
44.68230,0.09888,-0.11445,0.00000,0.03050,0.97393,-0.18690,0.0,2023,6,7,15,53,34,963
44.68240,-0.07612,0.00805,0.00000,0.03196,0.97332,-0.18605,0.0,2023,6,7,15,53,34,973
44.68250,-0.11112,-0.07945,0.00000,0.03026,0.97795,-0.18471,0.0,2023,6,7,15,53,34,983
44.68260,-0.07612,-0.02695,0.00000,0.02989,0.97820,-0.18690,0.0,2023,6,7,15,53,34,993
44.68270,0.06388,-0.14945,0.00000,0.02928,0.97844,-0.18654,0.0,2023,6,7,15,53,34,3
44.68280,0.13388,-0.13195,0.00000,0.03013,0.97576,-0.18703,0.0,2023,6,7,15,53,34,13
44.68290,0.22138,0.04305,0.00000,0.02940,0.97454,-0.18703,0.0,2023,6,7,15,53,34,23
44.68300,-0.00612,0.11305,0.00000,0.03026,0.97661,-0.18837,0.0,2023,6,7,15,53,34,33
44.68310,-0.14612,-0.25445,0.00000,0.03074,0.97746,-0.18642,0.0,2023,6,7,15,53,34,43
44.68320,-0.11112,0.14805,0.00000,0.03135,0.97759,-0.18751,0.0,2023,6,7,15,53,34,53
44.68330,-0.05862,0.16555,0.00000,0.03111,0.97929,-0.19032,0.0,2023,6,7,15,53,34,63
44.68340,0.11638,-0.07945,0.00000,0.03026,0.97905,-0.18471,0.0,2023,6,7,15,53,34,73
44.68350,0.01138,0.18305,0.00000,0.02867,0.97637,-0.18678,0.0,2023,6,7,15,53,34,83
44.68360,0.15138,-0.11445,0.00000,0.03172,0.97624,-0.18739,0.0,2023,6,7,15,53,34,93
44.68370,0.13388,-0.00945,0.00000,0.03111,0.97515,-0.18300,0.0,2023,6,7,15,53,34,103
44.68380,0.02888,-0.13195,0.00000,0.03111,0.97649,-0.18239,0.0,2023,6,7,15,53,34,113
44.68390,0.20388,-0.04445,0.00000,0.03123,0.97942,-0.18581,0.0,2023,6,7,15,53,34,123
44.68400,-0.11112,-0.06195,0.00000,0.03428,0.97478,-0.18520,0.0,2023,6,7,15,53,34,133
44.68410,-0.04112,0.20055,0.00000,0.03282,0.97539,-0.18507,0.0,2023,6,7,15,53,34,143
44.68420,0.22138,-0.07945,0.00000,0.03367,0.97820,-0.18849,0.0,2023,6,7,15,53,34,153
44.68430,-0.09362,-0.07945,0.00000,0.03184,0.97661,-0.18642,0.0,2023,6,7,15,53,34,163
44.68440,0.01138,-0.06195,0.00000,0.03026,0.97405,-0.18605,0.0,2023,6,7,15,53,34,173
44.68450,-0.00612,0.02555,0.00000,0.03111,0.97466,-0.18715,0.0,2023,6,7,15,53,34,183
44.68460,0.06388,0.14805,0.00000,0.03172,0.97563,-0.18532,0.0,2023,6,7,15,53,34,193
44.68470,0.08138,-0.11445,0.00000,0.03013,0.97624,-0.18739,0.0,2023,6,7,15,53,34,203
44.68480,-0.00612,0.07805,0.00000,0.03245,0.97563,-0.18568,0.0,2023,6,7,15,53,34,213
44.68490,-0.00612,0.16555,0.00000,0.03087,0.97673,-0.18666,0.0,2023,6,7,15,53,34,223
44.68500,0.02888,0.04305,0.00000,0.03270,0.97722,-0.18507,0.0,2023,6,7,15,53,34,233
44.68510,0.09888,0.02555,0.00000,0.03172,0.97746,-0.18459,0.0,2023,6,7,15,53,34,243
44.68520,0.02888,-0.16695,0.00000,0.03123,0.97734,-0.18764,0.0,2023,6,7,15,53,34,253
44.68530,0.08138,0.13055,0.00000,0.03209,0.97917,-0.18971,0.0,2023,6,7,15,53,34,263
44.68540,-0.04112,-0.04445,0.00000,0.03257,0.97637,-0.18581,0.0,2023,6,7,15,53,34,273
44.68550,0.15138,0.02555,0.00000,0.02855,0.97881,-0.18800,0.0,2023,6,7,15,53,34,283
44.68560,0.15138,-0.13195,0.00000,0.03318,0.97502,-0.18642,0.0,2023,6,7,15,53,34,293
44.68570,-0.04112,0.09555,0.00000,0.03233,0.97502,-0.18446,0.0,2023,6,7,15,53,34,303
44.68580,-0.02362,0.02555,0.00000,0.03209,0.97600,-0.18629,0.0,2023,6,7,15,53,34,313
44.68590,-0.14612,0.02555,0.00000,0.03392,0.97502,-0.18678,0.0,2023,6,7,15,53,34,323
44.68600,-0.18112,-0.02695,0.00000,0.03148,0.97612,-0.18593,0.0,2023,6,7,15,53,34,333
44.68610,0.13388,0.07805,0.00000,0.03135,0.97759,-0.18751,0.0,2023,6,7,15,53,34,343
44.68620,-0.05862,-0.13195,0.00000,0.03074,0.97624,-0.18703,0.0,2023,6,7,15,53,34,353
44.68630,0.02888,-0.07945,0.00000,0.02904,0.97551,-0.18544,0.0,2023,6,7,15,53,34,363
44.68640,0.09888,0.04305,0.00000,0.02818,0.97807,-0.18520,0.0,2023,6,7,15,53,34,373
44.68650,-0.11112,-0.06195,0.00000,0.03196,0.97576,-0.18593,0.0,2023,6,7,15,53,34,383
44.68660,-0.02362,0.34055,0.00000,0.03123,0.97588,-0.18849,0.0,2023,6,7,15,53,34,393
44.68670,0.11638,0.09555,0.00000,0.03270,0.97661,-0.18971,0.0,2023,6,7,15,53,34,403
44.68680,-0.04112,0.13055,0.00000,0.03074,0.97746,-0.18776,0.0,2023,6,7,15,53,34,413
44.68690,-0.04112,0.13055,0.00000,0.03270,0.97576,-0.18556,0.0,2023,6,7,15,53,34,423
44.68700,0.02888,0.13055,0.00000,0.03160,0.97649,-0.18812,0.0,2023,6,7,15,53,34,433
44.68710,0.06388,0.16555,0.00000,0.02977,0.97734,-0.18825,0.0,2023,6,7,15,53,34,443
44.68720,-0.11112,0.06055,0.00000,0.03306,0.97490,-0.18727,0.0,2023,6,7,15,53,34,453
44.68730,0.09888,-0.04445,0.00000,0.02855,0.97795,-0.18739,0.0,2023,6,7,15,53,34,463
44.68740,0.04638,-0.02695,0.00000,0.03123,0.98076,-0.18617,0.0,2023,6,7,15,53,34,473
44.68750,0.09888,-0.06195,0.00000,0.03184,0.97417,-0.18532,0.0,2023,6,7,15,53,34,483
44.68760,0.04638,-0.09695,0.00000,0.02940,0.97771,-0.18788,0.0,2023,6,7,15,53,34,493
44.68770,0.13388,0.00805,0.00000,0.02989,0.97722,-0.18922,0.0,2023,6,7,15,53,34,503
44.68780,-0.02362,-0.02695,0.00000,0.03148,0.97820,-0.18446,0.0,2023,6,7,15,53,34,513
44.68790,-0.12862,0.20055,0.00000,0.03135,0.97673,-0.18703,0.0,2023,6,7,15,53,35,523
44.68800,-0.00612,-0.14945,0.00000,0.02891,0.97917,-0.18837,0.0,2023,6,7,15,53,35,533
44.68810,-0.05862,-0.13195,0.00000,0.03123,0.97637,-0.18922,0.0,2023,6,7,15,53,35,543
44.68820,-0.04112,0.30555,0.00000,0.03099,0.97881,-0.18507,0.0,2023,6,7,15,53,35,553
44.68830,-0.00612,-0.11445,0.00000,0.03489,0.97698,-0.19008,0.0,2023,6,7,15,53,35,563
44.68840,-0.05862,-0.00945,0.00000,0.03257,0.97283,-0.18605,0.0,2023,6,7,15,53,35,573
44.68850,-0.00612,-0.27195,0.00000,0.03050,0.97746,-0.18605,0.0,2023,6,7,15,53,35,583
44.68860,-0.02362,-0.04445,0.00000,0.03111,0.97942,-0.18934,0.0,2023,6,7,15,53,35,593
44.68870,-0.05862,-0.02695,0.00000,0.03123,0.97576,-0.18861,0.0,2023,6,7,15,53,35,603
44.68880,-0.00612,-0.13195,0.00000,0.03196,0.97490,-0.18703,0.0,2023,6,7,15,53,35,613
44.68890,0.16888,-0.02695,0.00000,0.03013,0.97746,-0.18861,0.0,2023,6,7,15,53,35,623
44.68900,0.04638,0.04305,0.00000,0.03270,0.97612,-0.18678,0.0,2023,6,7,15,53,35,633
44.68910,-0.00612,0.04305,0.00000,0.03294,0.97685,-0.18520,0.0,2023,6,7,15,53,35,643
44.68920,-0.05862,-0.02695,0.00000,0.03257,0.97539,-0.18471,0.0,2023,6,7,15,53,35,653
44.68930,0.02888,-0.00945,0.00000,0.03087,0.97698,-0.18459,0.0,2023,6,7,15,53,35,663
44.68940,0.06388,-0.04445,0.00000,0.03245,0.97490,-0.18751,0.0,2023,6,7,15,53,35,673
44.68950,0.02888,-0.07945,0.00000,0.03184,0.97417,-0.18690,0.0,2023,6,7,15,53,35,683
44.68960,-0.05862,0.04305,0.00000,0.03257,0.97698,-0.18629,0.0,2023,6,7,15,53,35,693
44.68970,0.22138,-0.02695,0.00000,0.03135,0.97722,-0.18520,0.0,2023,6,7,15,53,35,703
44.68980,0.08138,0.28805,0.00000,0.03184,0.97576,-0.19142,0.0,2023,6,7,15,53,35,713
44.68990,-0.00612,0.02555,0.00000,0.03233,0.97393,-0.18703,0.0,2023,6,7,15,53,35,723
44.69000,-0.07612,-0.14945,0.00000,0.03245,0.97746,-0.18532,0.0,2023,6,7,15,53,35,733
44.69010,-0.02362,-0.04445,0.00000,0.03135,0.97856,-0.18776,0.0,2023,6,7,15,53,35,743
44.69020,-0.00612,0.07805,0.00000,0.02891,0.97807,-0.18581,0.0,2023,6,7,15,53,35,753
44.69030,0.06388,0.09555,0.00000,0.03318,0.97759,-0.18788,0.0,2023,6,7,15,53,35,763
44.69040,0.13388,-0.04445,0.00000,0.03379,0.97942,-0.18886,0.0,2023,6,7,15,53,35,773
44.69050,0.02888,-0.02695,0.00000,0.03001,0.97698,-0.18690,0.0,2023,6,7,15,53,35,783
44.69060,-0.05862,0.04305,0.00000,0.03123,0.97515,-0.18642,0.0,2023,6,7,15,53,35,793
44.69070,-0.00612,-0.13195,0.00000,0.03050,0.97685,-0.18581,0.0,2023,6,7,15,53,35,803
44.69080,0.01138,0.07805,0.00000,0.03196,0.97661,-0.18825,0.0,2023,6,7,15,53,35,813
44.69090,-0.04112,-0.09695,0.00000,0.03233,0.97649,-0.18666,0.0,2023,6,7,15,53,35,823
44.69100,0.22138,0.06055,0.00000,0.03209,0.97771,-0.18849,0.0,2023,6,7,15,53,35,833
44.69110,0.15138,-0.07945,0.00000,0.03160,0.97771,-0.18812,0.0,2023,6,7,15,53,35,843
44.69120,-0.16362,-0.11445,0.00000,0.03306,0.97685,-0.18593,0.0,2023,6,7,15,53,35,853
44.69130,-0.00612,0.09555,0.00000,0.03074,0.97600,-0.18617,0.0,2023,6,7,15,53,35,863
44.69140,-0.07612,-0.07945,0.00000,0.03209,0.97502,-0.18678,0.0,2023,6,7,15,53,35,873
44.69150,0.02888,0.14805,0.00000,0.03135,0.97466,-0.18629,0.0,2023,6,7,15,53,35,883
44.69160,-0.21612,0.07805,0.00000,0.03172,0.97673,-0.18605,0.0,2023,6,7,15,53,35,893
44.69170,-0.09362,0.16555,0.00000,0.03172,0.97539,-0.18459,0.0,2023,6,7,15,53,35,903
44.69180,-0.25112,0.13055,0.00000,0.03160,0.97393,-0.18556,0.0,2023,6,7,15,53,35,913
44.69190,0.16888,0.06055,0.00000,0.03050,0.98039,-0.18520,0.0,2023,6,7,15,53,35,923
44.69200,0.01138,0.09555,0.00000,0.03087,0.97563,-0.18690,0.0,2023,6,7,15,53,35,933
44.69210,0.06388,-0.13195,0.00000,0.03099,0.97551,-0.18568,0.0,2023,6,7,15,53,35,943
44.69220,-0.12862,0.09555,0.00000,0.03245,0.97820,-0.18837,0.0,2023,6,7,15,53,35,953
44.69230,-0.09362,0.23555,0.00000,0.03026,0.97563,-0.18910,0.0,2023,6,7,15,53,35,963
44.69240,0.01138,0.00805,0.00000,0.03099,0.97515,-0.18764,0.0,2023,6,7,15,53,35,973
44.69250,0.13388,-0.16695,0.00000,0.03050,0.97844,-0.18690,0.0,2023,6,7,15,53,35,983
44.69260,-0.00612,-0.06195,0.00000,0.03026,0.97515,-0.18886,0.0,2023,6,7,15,53,35,993
44.69270,-0.09362,0.23555,0.00000,0.03184,0.97551,-0.18788,0.0,2023,6,7,15,53,35,3
44.69280,-0.02362,0.11305,0.00000,0.03123,0.97551,-0.18629,0.0,2023,6,7,15,53,35,13
44.69290,0.04638,-0.00945,0.00000,0.03050,0.97637,-0.18593,0.0,2023,6,7,15,53,35,23
44.69300,0.04638,0.02555,0.00000,0.03184,0.97527,-0.18459,0.0,2023,6,7,15,53,35,33
44.69310,-0.14612,0.14805,0.00000,0.03026,0.97612,-0.18568,0.0,2023,6,7,15,53,35,43
44.69320,0.04638,-0.07945,0.00000,0.03184,0.97661,-0.18788,0.0,2023,6,7,15,53,35,53
44.69330,0.16888,0.21805,0.00000,0.03087,0.97539,-0.18690,0.0,2023,6,7,15,53,35,63
44.69340,-0.00612,0.09555,0.00000,0.03331,0.97807,-0.18629,0.0,2023,6,7,15,53,35,73
44.69350,-0.04112,0.14805,0.00000,0.03123,0.97563,-0.18751,0.0,2023,6,7,15,53,35,83
44.69360,-0.09362,-0.20195,0.00000,0.03245,0.97612,-0.18459,0.0,2023,6,7,15,53,35,93
44.69370,-0.16362,0.07805,0.00000,0.03221,0.97844,-0.18800,0.0,2023,6,7,15,53,35,103
44.69380,0.06388,-0.13195,0.00000,0.03038,0.97588,-0.18629,0.0,2023,6,7,15,53,35,113
44.69390,-0.09362,-0.11445,0.00000,0.02952,0.97783,-0.18629,0.0,2023,6,7,15,53,35,123
44.69400,0.09888,-0.09695,0.00000,0.03270,0.97783,-0.18800,0.0,2023,6,7,15,53,35,133
44.69410,0.01138,0.07805,0.00000,0.03099,0.97490,-0.18776,0.0,2023,6,7,15,53,35,143
44.69420,0.11638,-0.04445,0.00000,0.03111,0.97942,-0.18629,0.0,2023,6,7,15,53,35,153
44.69430,0.06388,-0.28945,0.00000,0.03050,0.97515,-0.18581,0.0,2023,6,7,15,53,35,163
44.69440,-0.05862,-0.02695,0.00000,0.03404,0.97990,-0.18568,0.0,2023,6,7,15,53,35,173
44.69450,-0.02362,-0.04445,0.00000,0.03184,0.97649,-0.18629,0.0,2023,6,7,15,53,35,183
44.69460,-0.14612,0.14805,0.00000,0.03355,0.97368,-0.18715,0.0,2023,6,7,15,53,35,193
44.69470,0.15138,-0.11445,0.00000,0.03587,0.97673,-0.19032,0.0,2023,6,7,15,53,35,203
44.69480,0.04638,-0.09695,0.00000,0.02769,0.97515,-0.18422,0.0,2023,6,7,15,53,35,213
44.69490,-0.09362,0.21805,0.00000,0.03001,0.97954,-0.18947,0.0,2023,6,7,15,53,35,223
44.69500,0.20388,0.09555,0.00000,0.03221,0.97527,-0.18678,0.0,2023,6,7,15,53,35,233
44.69510,0.02888,-0.06195,0.00000,0.02757,0.97673,-0.18654,0.0,2023,6,7,15,53,35,243
44.69520,0.01138,0.04305,0.00000,0.03355,0.97502,-0.18690,0.0,2023,6,7,15,53,35,253
44.69530,0.06388,-0.25445,0.00000,0.03184,0.97454,-0.18520,0.0,2023,6,7,15,53,35,263
44.69540,-0.11112,-0.20195,0.00000,0.03062,0.97637,-0.18995,0.0,2023,6,7,15,53,35,273
44.69550,0.22138,-0.13195,0.00000,0.03343,0.97563,-0.18861,0.0,2023,6,7,15,53,35,283
44.69560,-0.12862,-0.16695,0.00000,0.03001,0.97661,-0.18446,0.0,2023,6,7,15,53,35,293
44.69570,0.11638,-0.18445,0.00000,0.03099,0.97795,-0.19044,0.0,2023,6,7,15,53,35,303
44.69580,0.08138,-0.27195,0.00000,0.03111,0.97319,-0.18788,0.0,2023,6,7,15,53,35,313
44.69590,-0.02362,0.02555,0.00000,0.02782,0.97466,-0.18532,0.0,2023,6,7,15,53,35,323
44.69600,0.30888,-0.00945,0.00000,0.03026,0.98003,-0.19215,0.0,2023,6,7,15,53,35,333
44.69610,-0.05862,-0.06195,0.00000,0.03123,0.97539,-0.18617,0.0,2023,6,7,15,53,35,343
44.69620,-0.39112,0.04305,0.00000,0.03196,0.97624,-0.18593,0.0,2023,6,7,15,53,35,353
44.69630,0.13388,0.07805,0.00000,0.03282,0.97783,-0.18959,0.0,2023,6,7,15,53,35,363
44.69640,-0.23362,0.04305,0.00000,0.03270,0.97393,-0.18593,0.0,2023,6,7,15,53,35,373
44.69650,-0.19862,-0.16695,0.00000,0.02989,0.97734,-0.18520,0.0,2023,6,7,15,53,35,383
44.69660,0.11638,0.00805,0.00000,0.03099,0.97746,-0.18825,0.0,2023,6,7,15,53,35,393
44.69670,-0.07612,0.06055,0.00000,0.03099,0.97771,-0.18642,0.0,2023,6,7,15,53,35,403
44.69680,-0.04112,0.11305,0.00000,0.03062,0.97893,-0.19044,0.0,2023,6,7,15,53,35,413
44.69690,0.16888,-0.04445,0.00000,0.03123,0.97612,-0.19166,0.0,2023,6,7,15,53,36,423
44.69700,-0.09362,0.11305,0.00000,0.03087,0.97637,-0.18678,0.0,2023,6,7,15,53,36,433
44.69710,0.11638,0.02555,0.00000,0.03245,0.97649,-0.18971,0.0,2023,6,7,15,53,36,443
44.69720,0.13388,0.11305,0.00000,0.02879,0.97783,-0.18959,0.0,2023,6,7,15,53,36,453
44.69730,-0.04112,0.00805,0.00000,0.02977,0.97551,-0.18898,0.0,2023,6,7,15,53,36,463
44.69740,0.09888,0.18305,0.00000,0.03343,0.97551,-0.18703,0.0,2023,6,7,15,53,36,473
44.69750,0.13388,-0.11445,0.00000,0.03026,0.97624,-0.18727,0.0,2023,6,7,15,53,36,483
44.69760,0.08138,0.14805,0.00000,0.03196,0.97624,-0.18825,0.0,2023,6,7,15,53,36,493
44.69770,0.11638,0.04305,0.00000,0.03135,0.97649,-0.18910,0.0,2023,6,7,15,53,36,503
44.69780,-0.00612,0.00805,0.00000,0.03148,0.97600,-0.18776,0.0,2023,6,7,15,53,36,513
44.69790,0.15138,0.09555,0.00000,0.03013,0.97685,-0.18861,0.0,2023,6,7,15,53,36,523
44.69800,-0.14612,-0.06195,0.00000,0.03343,0.97502,-0.18715,0.0,2023,6,7,15,53,36,533
44.69810,0.02888,0.04305,0.00000,0.03074,0.97685,-0.18886,0.0,2023,6,7,15,53,36,543
44.69820,-0.00612,-0.00945,0.00000,0.03343,0.97624,-0.18837,0.0,2023,6,7,15,53,36,553
44.69830,0.02888,-0.02695,0.00000,0.03184,0.97661,-0.18910,0.0,2023,6,7,15,53,36,563
44.69840,-0.07612,-0.02695,0.00000,0.03367,0.97527,-0.18544,0.0,2023,6,7,15,53,36,573
44.69850,0.01138,0.16555,0.00000,0.03294,0.97588,-0.18959,0.0,2023,6,7,15,53,36,583
44.69860,0.09888,-0.13195,0.00000,0.03355,0.97637,-0.18678,0.0,2023,6,7,15,53,36,593
44.69870,-0.21612,0.11305,0.00000,0.03209,0.97685,-0.18788,0.0,2023,6,7,15,53,36,603
44.69880,-0.02362,-0.14945,0.00000,0.03257,0.97478,-0.18873,0.0,2023,6,7,15,53,36,613
44.69890,-0.14612,-0.06195,0.00000,0.02940,0.97588,-0.18812,0.0,2023,6,7,15,53,36,623
44.69900,0.02888,0.13055,0.00000,0.03172,0.97661,-0.19056,0.0,2023,6,7,15,53,36,633
44.69910,-0.07612,0.18305,0.00000,0.03111,0.97551,-0.19105,0.0,2023,6,7,15,53,36,643
44.69920,0.06388,0.02555,0.00000,0.03379,0.97612,-0.18751,0.0,2023,6,7,15,53,36,653
44.69930,-0.07612,-0.00945,0.00000,0.03233,0.97746,-0.18873,0.0,2023,6,7,15,53,36,663
44.69940,0.15138,-0.09695,0.00000,0.02928,0.97539,-0.19130,0.0,2023,6,7,15,53,36,673
44.69950,-0.16362,0.00805,0.00000,0.02965,0.97624,-0.18837,0.0,2023,6,7,15,53,36,683
44.69960,0.06388,0.04305,0.00000,0.03123,0.97588,-0.18861,0.0,2023,6,7,15,53,36,693
44.69970,-0.00612,-0.02695,0.00000,0.03209,0.97637,-0.18812,0.0,2023,6,7,15,53,36,703
44.69980,-0.02362,0.04305,0.00000,0.03026,0.97588,-0.18617,0.0,2023,6,7,15,53,36,713
44.69990,-0.09362,0.11305,0.00000,0.03257,0.97527,-0.18849,0.0,2023,6,7,15,53,36,723
44.70000,0.09888,-0.11445,0.00000,0.03074,0.97649,-0.18812,0.0,2023,6,7,15,53,36,733
44.70010,0.08138,-0.16695,0.00000,0.03001,0.97563,-0.18751,0.0,2023,6,7,15,53,36,743
44.70020,-0.04112,-0.00945,0.00000,0.03087,0.97563,-0.18703,0.0,2023,6,7,15,53,36,753
44.70030,-0.14612,0.16555,0.00000,0.02989,0.97515,-0.19093,0.0,2023,6,7,15,53,36,763
44.70040,0.04638,0.02555,0.00000,0.03038,0.97649,-0.18873,0.0,2023,6,7,15,53,36,773
44.70050,-0.18112,0.04305,0.00000,0.03123,0.97551,-0.18715,0.0,2023,6,7,15,53,36,783
44.70060,-0.18112,-0.06195,0.00000,0.03416,0.97649,-0.18776,0.0,2023,6,7,15,53,36,793
44.70070,-0.04112,-0.04445,0.00000,0.02989,0.97710,-0.18654,0.0,2023,6,7,15,53,36,803
44.70080,-0.07612,-0.16695,0.00000,0.03306,0.97612,-0.18690,0.0,2023,6,7,15,53,36,813
44.70090,0.04638,0.09555,0.00000,0.03087,0.97783,-0.18898,0.0,2023,6,7,15,53,36,823
44.70100,0.06388,-0.00945,0.00000,0.02891,0.97502,-0.19008,0.0,2023,6,7,15,53,36,833
44.70110,0.01138,-0.02695,0.00000,0.02977,0.97783,-0.18861,0.0,2023,6,7,15,53,36,843
44.70120,0.02888,-0.11445,0.00000,0.03172,0.97905,-0.18898,0.0,2023,6,7,15,53,36,853
44.70130,-0.09362,0.20055,0.00000,0.03001,0.97624,-0.18886,0.0,2023,6,7,15,53,36,863
44.70140,-0.00612,-0.16695,0.00000,0.03355,0.97710,-0.18922,0.0,2023,6,7,15,53,36,873
44.70150,-0.19862,0.00805,0.00000,0.03099,0.97502,-0.18556,0.0,2023,6,7,15,53,36,883
44.70160,0.06388,-0.04445,0.00000,0.03135,0.97734,-0.19020,0.0,2023,6,7,15,53,36,893
44.70170,-0.00612,-0.04445,0.00000,0.03209,0.97734,-0.18898,0.0,2023,6,7,15,53,36,903
44.70180,-0.07612,0.07805,0.00000,0.03038,0.97820,-0.18666,0.0,2023,6,7,15,53,36,913
44.70190,-0.07612,0.09555,0.00000,0.03160,0.97722,-0.18825,0.0,2023,6,7,15,53,36,923
44.70200,-0.07612,-0.09695,0.00000,0.03282,0.97649,-0.18788,0.0,2023,6,7,15,53,36,933
44.70210,0.06388,0.13055,0.00000,0.03233,0.97576,-0.18727,0.0,2023,6,7,15,53,36,943
44.70220,0.34388,0.07805,0.00000,0.03172,0.97673,-0.18666,0.0,2023,6,7,15,53,36,953
44.70230,0.13388,-0.04445,0.00000,0.03135,0.97563,-0.18629,0.0,2023,6,7,15,53,36,963
44.70240,0.16888,-0.11445,0.00000,0.03489,0.97844,-0.19069,0.0,2023,6,7,15,53,36,973
44.70250,-0.09362,0.13055,0.00000,0.03465,0.97563,-0.18471,0.0,2023,6,7,15,53,36,983
44.70260,-0.05862,-0.13195,0.00000,0.03221,0.97807,-0.18751,0.0,2023,6,7,15,53,36,993
44.70270,0.25638,-0.00945,0.00000,0.03160,0.97759,-0.18812,0.0,2023,6,7,15,53,36,3
44.70280,-0.02362,-0.28945,0.00000,0.02952,0.97612,-0.18446,0.0,2023,6,7,15,53,36,13
44.70290,-0.21612,0.02555,0.00000,0.03074,0.98039,-0.18751,0.0,2023,6,7,15,53,36,23
44.70300,0.16888,0.00805,0.00000,0.03013,0.97807,-0.18922,0.0,2023,6,7,15,53,36,33
44.70310,-0.26862,0.11305,0.00000,0.03001,0.97478,-0.18422,0.0,2023,6,7,15,53,36,43
44.70320,0.01138,-0.02695,0.00000,0.03087,0.97454,-0.18642,0.0,2023,6,7,15,53,36,53
44.70330,0.06388,-0.18445,0.00000,0.03221,0.97441,-0.18678,0.0,2023,6,7,15,53,36,63
44.70340,-0.11112,0.18305,0.00000,0.03087,0.97881,-0.18544,0.0,2023,6,7,15,53,36,73
44.70350,-0.00612,-0.00945,0.00000,0.03160,0.97502,-0.18873,0.0,2023,6,7,15,53,36,83
44.70360,-0.04112,0.11305,0.00000,0.03306,0.97600,-0.18739,0.0,2023,6,7,15,53,36,93
44.70370,0.04638,0.06055,0.00000,0.03233,0.97942,-0.18764,0.0,2023,6,7,15,53,36,103
44.70380,-0.05862,0.20055,0.00000,0.03087,0.97527,-0.18873,0.0,2023,6,7,15,53,36,113
44.70390,0.08138,0.06055,0.00000,0.03209,0.97429,-0.18873,0.0,2023,6,7,15,53,36,123
44.70400,-0.04112,-0.06195,0.00000,0.03074,0.97990,-0.18922,0.0,2023,6,7,15,53,36,133
44.70410,0.02888,-0.00945,0.00000,0.03416,0.97734,-0.18678,0.0,2023,6,7,15,53,36,143
44.70420,-0.04112,-0.04445,0.00000,0.03233,0.97624,-0.18605,0.0,2023,6,7,15,53,36,153
44.70430,-0.04112,-0.00945,0.00000,0.03233,0.97771,-0.18764,0.0,2023,6,7,15,53,36,163
44.70440,0.09888,-0.09695,0.00000,0.02940,0.97710,-0.18947,0.0,2023,6,7,15,53,36,173
44.70450,-0.11112,0.13055,0.00000,0.03099,0.97722,-0.18690,0.0,2023,6,7,15,53,36,183
44.70460,-0.04112,-0.09695,0.00000,0.03001,0.97624,-0.18642,0.0,2023,6,7,15,53,36,193
44.70470,-0.00612,0.07805,0.00000,0.02965,0.97588,-0.19056,0.0,2023,6,7,15,53,36,203
44.70480,-0.07612,0.07805,0.00000,0.03087,0.97527,-0.18812,0.0,2023,6,7,15,53,36,213
44.70490,-0.25112,-0.02695,0.00000,0.03111,0.97710,-0.18373,0.0,2023,6,7,15,53,36,223
44.70500,0.09888,0.13055,0.00000,0.03245,0.97673,-0.18995,0.0,2023,6,7,15,53,36,233
44.70510,-0.16362,0.02555,0.00000,0.03148,0.97502,-0.18959,0.0,2023,6,7,15,53,36,243
44.70520,0.09888,-0.04445,0.00000,0.03038,0.97502,-0.18715,0.0,2023,6,7,15,53,36,253
44.70530,0.04638,-0.11445,0.00000,0.03221,0.97856,-0.18751,0.0,2023,6,7,15,53,36,263
44.70540,-0.07612,-0.14945,0.00000,0.03196,0.97820,-0.18776,0.0,2023,6,7,15,53,36,273
44.70550,0.08138,-0.23695,0.00000,0.03135,0.97698,-0.18800,0.0,2023,6,7,15,53,36,283
44.70560,-0.18112,0.09555,0.00000,0.03318,0.97490,-0.18898,0.0,2023,6,7,15,53,36,293
44.70570,0.09888,0.06055,0.00000,0.03196,0.97661,-0.18593,0.0,2023,6,7,15,53,36,303
44.70580,-0.00612,-0.00945,0.00000,0.03257,0.97820,-0.18837,0.0,2023,6,7,15,53,36,313
44.70590,-0.16362,0.04305,0.00000,0.03306,0.97722,-0.18495,0.0,2023,6,7,15,53,36,323
44.70600,-0.25112,0.14805,0.00000,0.03196,0.97685,-0.18666,0.0,2023,6,7,15,53,37,333
44.70610,0.09888,0.06055,0.00000,0.03172,0.97551,-0.18910,0.0,2023,6,7,15,53,37,343
44.70620,-0.19862,0.07805,0.00000,0.03306,0.97502,-0.18434,0.0,2023,6,7,15,53,37,353
44.70630,0.01138,0.07805,0.00000,0.03160,0.97637,-0.18666,0.0,2023,6,7,15,53,37,363
44.70640,0.02888,0.11305,0.00000,0.03306,0.97673,-0.18605,0.0,2023,6,7,15,53,37,373
44.70650,0.02888,0.11305,0.00000,0.03172,0.97368,-0.18861,0.0,2023,6,7,15,53,37,383
44.70660,0.08138,0.04305,0.00000,0.03209,0.97417,-0.18581,0.0,2023,6,7,15,53,37,393
44.70670,-0.07612,-0.04445,0.00000,0.03087,0.97454,-0.18520,0.0,2023,6,7,15,53,37,403
44.70680,-0.11112,0.13055,0.00000,0.03111,0.97649,-0.18764,0.0,2023,6,7,15,53,37,413
44.70690,0.11638,-0.06195,0.00000,0.03135,0.97405,-0.18971,0.0,2023,6,7,15,53,37,423
44.70700,0.11638,-0.00945,0.00000,0.03270,0.97795,-0.18727,0.0,2023,6,7,15,53,37,433
44.70710,-0.02362,-0.21945,0.00000,0.03135,0.97771,-0.18727,0.0,2023,6,7,15,53,37,443
44.70720,0.02888,-0.00945,0.00000,0.03111,0.97990,-0.18544,0.0,2023,6,7,15,53,37,453
44.70730,-0.04112,0.06055,0.00000,0.03148,0.97551,-0.18605,0.0,2023,6,7,15,53,37,463
44.70740,-0.12862,0.02555,0.00000,0.03172,0.97649,-0.18495,0.0,2023,6,7,15,53,37,473
44.70750,-0.16362,-0.13195,0.00000,0.02989,0.97612,-0.18642,0.0,2023,6,7,15,53,37,483
44.70760,0.08138,0.14805,0.00000,0.03099,0.97905,-0.18654,0.0,2023,6,7,15,53,37,493
44.70770,-0.02362,0.11305,0.00000,0.03245,0.97515,-0.18837,0.0,2023,6,7,15,53,37,503
44.70780,-0.12862,0.14805,0.00000,0.03172,0.97527,-0.18434,0.0,2023,6,7,15,53,37,513
44.70790,-0.00612,-0.07945,0.00000,0.03245,0.97746,-0.18556,0.0,2023,6,7,15,53,37,523
44.70800,-0.16362,0.00805,0.00000,0.02952,0.97600,-0.18751,0.0,2023,6,7,15,53,37,533
44.70810,-0.02362,-0.06195,0.00000,0.03013,0.97905,-0.18544,0.0,2023,6,7,15,53,37,543
44.70820,0.09888,-0.06195,0.00000,0.02940,0.97624,-0.18483,0.0,2023,6,7,15,53,37,553
44.70830,0.01138,-0.00945,0.00000,0.03013,0.97685,-0.18483,0.0,2023,6,7,15,53,37,563
44.70840,0.13388,-0.18445,0.00000,0.03050,0.97771,-0.18617,0.0,2023,6,7,15,53,37,573
44.70850,-0.02362,-0.00945,0.00000,0.03074,0.97466,-0.18593,0.0,2023,6,7,15,53,37,583
44.70860,-0.12862,0.13055,0.00000,0.03050,0.97600,-0.18495,0.0,2023,6,7,15,53,37,593
44.70870,0.04638,-0.11445,0.00000,0.03221,0.97502,-0.18898,0.0,2023,6,7,15,53,37,603
44.70880,-0.07612,-0.00945,0.00000,0.03392,0.97539,-0.18837,0.0,2023,6,7,15,53,37,613
44.70890,0.01138,-0.07945,0.00000,0.03172,0.97673,-0.18727,0.0,2023,6,7,15,53,37,623
44.70900,-0.11112,-0.11445,0.00000,0.03026,0.97771,-0.18568,0.0,2023,6,7,15,53,37,633
44.70910,0.04638,-0.06195,0.00000,0.03026,0.97600,-0.18532,0.0,2023,6,7,15,53,37,643
44.70920,-0.11112,-0.00945,0.00000,0.03221,0.97844,-0.18727,0.0,2023,6,7,15,53,37,653
44.70930,-0.02362,-0.07945,0.00000,0.03135,0.97551,-0.18678,0.0,2023,6,7,15,53,37,663
44.70940,-0.18112,0.27055,0.00000,0.03209,0.97954,-0.18422,0.0,2023,6,7,15,53,37,673
44.70950,-0.09362,-0.11445,0.00000,0.03087,0.97820,-0.18654,0.0,2023,6,7,15,53,37,683
44.70960,0.16888,-0.32445,0.00000,0.03209,0.97746,-0.18642,0.0,2023,6,7,15,53,37,693
44.70970,0.06388,0.02555,0.00000,0.03050,0.97405,-0.18678,0.0,2023,6,7,15,53,37,703
44.70980,0.01138,-0.13195,0.00000,0.03123,0.97734,-0.18568,0.0,2023,6,7,15,53,37,713
44.70990,-0.21612,-0.11445,0.00000,0.03318,0.97820,-0.18483,0.0,2023,6,7,15,53,37,723
44.71000,-0.05862,-0.18445,0.00000,0.03135,0.97832,-0.19069,0.0,2023,6,7,15,53,37,733
44.71010,-0.05862,-0.06195,0.00000,0.03160,0.97600,-0.18617,0.0,2023,6,7,15,53,37,743
44.71020,-0.07612,0.14805,0.00000,0.03172,0.97673,-0.18727,0.0,2023,6,7,15,53,37,753
44.71030,0.09888,0.07805,0.00000,0.03245,0.97637,-0.18495,0.0,2023,6,7,15,53,37,763
44.71040,0.02888,-0.06195,0.00000,0.03074,0.97478,-0.18727,0.0,2023,6,7,15,53,37,773
44.71050,0.02888,-0.04445,0.00000,0.03038,0.97722,-0.18849,0.0,2023,6,7,15,53,37,783
44.71060,0.02888,-0.02695,0.00000,0.03318,0.97893,-0.18983,0.0,2023,6,7,15,53,37,793
44.71070,-0.02362,-0.09695,0.00000,0.03050,0.97600,-0.18593,0.0,2023,6,7,15,53,37,803
44.71080,-0.16362,0.00805,0.00000,0.03233,0.97563,-0.18642,0.0,2023,6,7,15,53,37,813
44.71090,0.02888,0.11305,0.00000,0.02977,0.97588,-0.18751,0.0,2023,6,7,15,53,37,823
44.71100,0.09888,-0.11445,0.00000,0.02989,0.97600,-0.18654,0.0,2023,6,7,15,53,37,833
44.71110,0.09888,0.13055,0.00000,0.03245,0.97612,-0.18532,0.0,2023,6,7,15,53,37,843
44.71120,0.01138,-0.13195,0.00000,0.02989,0.97783,-0.18410,0.0,2023,6,7,15,53,37,853
44.71130,0.04638,-0.09695,0.00000,0.03123,0.97502,-0.18715,0.0,2023,6,7,15,53,37,863
44.71140,-0.04112,0.14805,0.00000,0.03172,0.97759,-0.18654,0.0,2023,6,7,15,53,37,873
44.71150,0.01138,-0.07945,0.00000,0.03245,0.97710,-0.18568,0.0,2023,6,7,15,53,37,883
44.71160,0.06388,0.07805,0.00000,0.03233,0.97685,-0.18568,0.0,2023,6,7,15,53,37,893
44.71170,0.18638,0.11305,0.00000,0.03111,0.97881,-0.18764,0.0,2023,6,7,15,53,37,903
44.71180,-0.12862,-0.09695,0.00000,0.03038,0.97771,-0.18861,0.0,2023,6,7,15,53,37,913
44.71190,-0.07612,0.09555,0.00000,0.03184,0.97746,-0.18471,0.0,2023,6,7,15,53,37,923
44.71200,-0.00612,0.00805,0.00000,0.02989,0.97893,-0.18678,0.0,2023,6,7,15,53,37,933
44.71210,-0.04112,0.07805,0.00000,0.03148,0.97344,-0.18898,0.0,2023,6,7,15,53,37,943
44.71220,-0.09362,-0.00945,0.00000,0.03074,0.97515,-0.18886,0.0,2023,6,7,15,53,37,953
44.71230,-0.07612,0.23555,0.00000,0.03270,0.97588,-0.18690,0.0,2023,6,7,15,53,37,963
44.71240,-0.21612,-0.00945,0.00000,0.03196,0.97612,-0.18410,0.0,2023,6,7,15,53,37,973
44.71250,-0.02362,0.09555,0.00000,0.03148,0.97673,-0.18629,0.0,2023,6,7,15,53,37,983
44.71260,-0.11112,0.18305,0.00000,0.03062,0.97685,-0.18581,0.0,2023,6,7,15,53,37,993
44.71270,-0.02362,0.07805,0.00000,0.03184,0.97637,-0.18690,0.0,2023,6,7,15,53,37,3
44.71280,0.16888,0.04305,0.00000,0.03087,0.97698,-0.18312,0.0,2023,6,7,15,53,37,13
44.71290,-0.05862,0.00805,0.00000,0.03074,0.97820,-0.18581,0.0,2023,6,7,15,53,37,23
44.71300,0.25638,-0.11445,0.00000,0.03062,0.97807,-0.18654,0.0,2023,6,7,15,53,37,33
44.71310,0.11638,0.13055,0.00000,0.03245,0.97929,-0.18849,0.0,2023,6,7,15,53,37,43
44.71320,0.02888,-0.21945,0.00000,0.03184,0.97685,-0.18495,0.0,2023,6,7,15,53,37,53
44.71330,-0.05862,0.06055,0.00000,0.03026,0.97563,-0.18544,0.0,2023,6,7,15,53,37,63
44.71340,-0.19862,-0.02695,0.00000,0.03074,0.97576,-0.18788,0.0,2023,6,7,15,53,37,73
44.71350,-0.12862,0.00805,0.00000,0.03245,0.97515,-0.18654,0.0,2023,6,7,15,53,37,83
44.71360,0.06388,-0.00945,0.00000,0.03148,0.97795,-0.18666,0.0,2023,6,7,15,53,37,93
44.71370,-0.05862,-0.13195,0.00000,0.03196,0.97466,-0.18434,0.0,2023,6,7,15,53,37,103
44.71380,-0.00612,-0.07945,0.00000,0.03026,0.97624,-0.18312,0.0,2023,6,7,15,53,37,113
44.71390,0.09888,0.11305,0.00000,0.03184,0.97710,-0.18727,0.0,2023,6,7,15,53,37,123
44.71400,0.11638,-0.04445,0.00000,0.03013,0.97685,-0.18788,0.0,2023,6,7,15,53,37,133
44.71410,0.01138,-0.13195,0.00000,0.03038,0.97710,-0.18849,0.0,2023,6,7,15,53,37,143
44.71420,-0.09362,0.09555,0.00000,0.03050,0.97771,-0.18337,0.0,2023,6,7,15,53,37,153
44.71430,0.09888,0.20055,0.00000,0.03111,0.97856,-0.18715,0.0,2023,6,7,15,53,37,163
44.71440,0.06388,0.00805,0.00000,0.03209,0.97795,-0.18849,0.0,2023,6,7,15,53,37,173
44.71450,0.13388,-0.14945,0.00000,0.03209,0.97624,-0.18776,0.0,2023,6,7,15,53,37,183
44.71460,-0.09362,-0.02695,0.00000,0.03050,0.97551,-0.18471,0.0,2023,6,7,15,53,37,193
44.71470,0.08138,-0.07945,0.00000,0.03172,0.97649,-0.18544,0.0,2023,6,7,15,53,37,203
44.71480,0.18638,-0.13195,0.00000,0.03209,0.97685,-0.18678,0.0,2023,6,7,15,53,37,213
44.71490,-0.04112,-0.11445,0.00000,0.03196,0.97624,-0.18739,0.0,2023,6,7,15,53,38,223
44.71500,-0.04112,-0.00945,0.00000,0.03306,0.97929,-0.18690,0.0,2023,6,7,15,53,38,233
44.71510,0.06388,-0.06195,0.00000,0.03196,0.97807,-0.18581,0.0,2023,6,7,15,53,38,243
44.71520,-0.02362,-0.16695,0.00000,0.03196,0.97734,-0.18385,0.0,2023,6,7,15,53,38,253
44.71530,-0.07612,0.11305,0.00000,0.03196,0.97685,-0.18800,0.0,2023,6,7,15,53,38,263
44.71540,-0.07612,0.14805,0.00000,0.03184,0.97698,-0.18751,0.0,2023,6,7,15,53,38,273
44.71550,0.01138,-0.02695,0.00000,0.03087,0.97771,-0.18690,0.0,2023,6,7,15,53,38,283
44.71560,0.09888,0.07805,0.00000,0.02989,0.97807,-0.18471,0.0,2023,6,7,15,53,38,293
44.71570,-0.11112,0.07805,0.00000,0.03123,0.97563,-0.18629,0.0,2023,6,7,15,53,38,303
44.71580,-0.05862,0.07805,0.00000,0.03148,0.97649,-0.18483,0.0,2023,6,7,15,53,38,313
44.71590,-0.02362,0.07805,0.00000,0.03123,0.97588,-0.18910,0.0,2023,6,7,15,53,38,323
44.71600,-0.11112,-0.07945,0.00000,0.03111,0.97771,-0.18459,0.0,2023,6,7,15,53,38,333
44.71610,-0.02362,0.07805,0.00000,0.03282,0.97795,-0.18568,0.0,2023,6,7,15,53,38,343
44.71620,-0.00612,-0.11445,0.00000,0.03026,0.97722,-0.18483,0.0,2023,6,7,15,53,38,353
44.71630,-0.05862,0.06055,0.00000,0.03209,0.97698,-0.18764,0.0,2023,6,7,15,53,38,363
44.71640,0.20388,-0.13195,0.00000,0.03135,0.97490,-0.18800,0.0,2023,6,7,15,53,38,373
44.71650,0.13388,-0.09695,0.00000,0.03135,0.97637,-0.18727,0.0,2023,6,7,15,53,38,383
44.71660,0.04638,-0.02695,0.00000,0.03172,0.97856,-0.18581,0.0,2023,6,7,15,53,38,393
44.71670,-0.09362,0.27055,0.00000,0.03294,0.97820,-0.18666,0.0,2023,6,7,15,53,38,403
44.71680,0.08138,-0.06195,0.00000,0.03160,0.97746,-0.18971,0.0,2023,6,7,15,53,38,413
44.71690,-0.02362,-0.04445,0.00000,0.03233,0.97576,-0.18642,0.0,2023,6,7,15,53,38,423
44.71700,-0.04112,-0.02695,0.00000,0.03196,0.97661,-0.18825,0.0,2023,6,7,15,53,38,433
44.71710,-0.16362,0.14805,0.00000,0.03209,0.97515,-0.18495,0.0,2023,6,7,15,53,38,443
44.71720,-0.09362,-0.02695,0.00000,0.03221,0.97771,-0.18520,0.0,2023,6,7,15,53,38,453
44.71730,-0.04112,0.00805,0.00000,0.03221,0.97539,-0.18422,0.0,2023,6,7,15,53,38,463
44.71740,0.04638,-0.09695,0.00000,0.03123,0.97624,-0.18605,0.0,2023,6,7,15,53,38,473
44.71750,-0.02362,0.06055,0.00000,0.03087,0.97844,-0.18861,0.0,2023,6,7,15,53,38,483
44.71760,0.11638,0.18305,0.00000,0.03343,0.97905,-0.18629,0.0,2023,6,7,15,53,38,493
44.71770,0.08138,0.07805,0.00000,0.03026,0.97771,-0.18678,0.0,2023,6,7,15,53,38,503
44.71780,-0.09362,0.02555,0.00000,0.03245,0.97698,-0.18678,0.0,2023,6,7,15,53,38,513
44.71790,0.11638,-0.07945,0.00000,0.03172,0.98003,-0.18825,0.0,2023,6,7,15,53,38,523
44.71800,-0.04112,-0.04445,0.00000,0.03196,0.97661,-0.18922,0.0,2023,6,7,15,53,38,533
44.71810,-0.02362,0.00805,0.00000,0.02940,0.97551,-0.18812,0.0,2023,6,7,15,53,38,543
44.71820,0.08138,-0.00945,0.00000,0.03001,0.97990,-0.18556,0.0,2023,6,7,15,53,38,553
44.71830,-0.07612,-0.14945,0.00000,0.03160,0.97710,-0.18263,0.0,2023,6,7,15,53,38,563
44.71840,-0.00612,-0.07945,0.00000,0.03050,0.97563,-0.18446,0.0,2023,6,7,15,53,38,573
44.71850,-0.02362,-0.09695,0.00000,0.03123,0.97685,-0.18959,0.0,2023,6,7,15,53,38,583
44.71860,0.04638,-0.14945,0.00000,0.03001,0.97637,-0.18751,0.0,2023,6,7,15,53,38,593
44.71870,-0.04112,0.20055,0.00000,0.03209,0.97539,-0.18861,0.0,2023,6,7,15,53,38,603
44.71880,-0.00612,-0.21945,0.00000,0.03172,0.97844,-0.18495,0.0,2023,6,7,15,53,38,613
44.71890,-0.07612,0.14805,0.00000,0.03392,0.97868,-0.18593,0.0,2023,6,7,15,53,38,623
44.71900,0.13388,0.16555,0.00000,0.03209,0.97832,-0.18837,0.0,2023,6,7,15,53,38,633
44.71910,-0.14612,0.23555,0.00000,0.03001,0.97539,-0.18898,0.0,2023,6,7,15,53,38,643
44.71920,-0.09362,-0.09695,0.00000,0.03282,0.97856,-0.18495,0.0,2023,6,7,15,53,38,653
44.71930,-0.02362,0.07805,0.00000,0.03245,0.97783,-0.18556,0.0,2023,6,7,15,53,38,663
44.71940,-0.11112,-0.04445,0.00000,0.03343,0.97612,-0.18629,0.0,2023,6,7,15,53,38,673
44.71950,0.01138,0.00805,0.00000,0.03196,0.97795,-0.18507,0.0,2023,6,7,15,53,38,683
44.71960,0.09888,0.00805,0.00000,0.03135,0.97685,-0.18617,0.0,2023,6,7,15,53,38,693
44.71970,-0.04112,0.18305,0.00000,0.03062,0.97551,-0.18776,0.0,2023,6,7,15,53,38,703
44.71980,0.11638,0.16555,0.00000,0.03160,0.97637,-0.18666,0.0,2023,6,7,15,53,38,713
44.71990,-0.12862,-0.14945,0.00000,0.03367,0.97478,-0.18520,0.0,2023,6,7,15,53,38,723
44.72000,-0.00612,0.07805,0.00000,0.03184,0.97673,-0.18800,0.0,2023,6,7,15,53,38,733
44.72010,0.01138,-0.00945,0.00000,0.03013,0.97746,-0.18861,0.0,2023,6,7,15,53,38,743
44.72020,0.11638,0.09555,0.00000,0.03160,0.97551,-0.18776,0.0,2023,6,7,15,53,38,753
44.72030,0.04638,-0.06195,0.00000,0.03062,0.97698,-0.18751,0.0,2023,6,7,15,53,38,763
44.72040,-0.11112,0.06055,0.00000,0.03172,0.97612,-0.18715,0.0,2023,6,7,15,53,38,773
44.72050,-0.05862,-0.06195,0.00000,0.03257,0.97637,-0.18861,0.0,2023,6,7,15,53,38,783
44.72060,0.02888,0.20055,0.00000,0.03245,0.97307,-0.18715,0.0,2023,6,7,15,53,38,793
44.72070,0.09888,-0.09695,0.00000,0.03379,0.97759,-0.18629,0.0,2023,6,7,15,53,38,803
44.72080,-0.02362,0.16555,0.00000,0.03148,0.97673,-0.18715,0.0,2023,6,7,15,53,38,813
44.72090,-0.05862,0.09555,0.00000,0.03184,0.97588,-0.18544,0.0,2023,6,7,15,53,38,823
44.72100,0.11638,0.13055,0.00000,0.03160,0.97795,-0.18971,0.0,2023,6,7,15,53,38,833
44.72110,-0.02362,0.07805,0.00000,0.03196,0.97783,-0.18837,0.0,2023,6,7,15,53,38,843
44.72120,0.09888,-0.02695,0.00000,0.03087,0.97600,-0.18678,0.0,2023,6,7,15,53,38,853
44.72130,-0.12862,0.20055,0.00000,0.03123,0.97807,-0.18471,0.0,2023,6,7,15,53,38,863
44.72140,-0.11112,0.02555,0.00000,0.03184,0.97551,-0.18947,0.0,2023,6,7,15,53,38,873
44.72150,0.08138,-0.14945,0.00000,0.03257,0.97771,-0.18556,0.0,2023,6,7,15,53,38,883
44.72160,0.04638,-0.07945,0.00000,0.03318,0.97698,-0.18446,0.0,2023,6,7,15,53,38,893
44.72170,-0.14612,-0.09695,0.00000,0.03245,0.97612,-0.18507,0.0,2023,6,7,15,53,38,903
44.72180,-0.14612,0.06055,0.00000,0.03318,0.97868,-0.18568,0.0,2023,6,7,15,53,38,913
44.72190,0.13388,0.06055,0.00000,0.03050,0.97551,-0.18788,0.0,2023,6,7,15,53,38,923
44.72200,0.13388,-0.13195,0.00000,0.02977,0.97649,-0.18727,0.0,2023,6,7,15,53,38,933
44.72210,0.09888,0.18305,0.00000,0.02952,0.97624,-0.18629,0.0,2023,6,7,15,53,38,943
44.72220,0.02888,-0.04445,0.00000,0.03331,0.97710,-0.18629,0.0,2023,6,7,15,53,38,953
44.72230,-0.14612,0.06055,0.00000,0.03111,0.97929,-0.18825,0.0,2023,6,7,15,53,38,963
44.72240,0.16888,-0.16695,0.00000,0.03172,0.97771,-0.18825,0.0,2023,6,7,15,53,38,973
44.72250,0.02888,0.14805,0.00000,0.03172,0.97576,-0.18568,0.0,2023,6,7,15,53,38,983
44.72260,-0.12862,-0.07945,0.00000,0.03367,0.97661,-0.18459,0.0,2023,6,7,15,53,38,993
44.72270,-0.12862,-0.06195,0.00000,0.03123,0.97661,-0.18629,0.0,2023,6,7,15,53,38,3
44.72280,0.11638,-0.04445,0.00000,0.03209,0.97795,-0.18861,0.0,2023,6,7,15,53,38,13
44.72290,0.25638,0.04305,0.00000,0.03209,0.97746,-0.18861,0.0,2023,6,7,15,53,38,23
44.72300,0.06388,-0.14945,0.00000,0.03343,0.97771,-0.18873,0.0,2023,6,7,15,53,38,33
44.72310,-0.09362,0.16555,0.00000,0.03331,0.97539,-0.18690,0.0,2023,6,7,15,53,38,43
44.72320,0.13388,-0.11445,0.00000,0.03184,0.97698,-0.18922,0.0,2023,6,7,15,53,38,53
44.72330,0.02888,0.07805,0.00000,0.03013,0.97600,-0.18690,0.0,2023,6,7,15,53,38,63
44.72340,0.01138,0.06055,0.00000,0.03087,0.97807,-0.18593,0.0,2023,6,7,15,53,38,73
44.72350,-0.16362,-0.00945,0.00000,0.03111,0.97746,-0.18532,0.0,2023,6,7,15,53,38,83
44.72360,-0.19862,-0.02695,0.00000,0.03123,0.97527,-0.18715,0.0,2023,6,7,15,53,38,93
44.72370,-0.11112,-0.02695,0.00000,0.03135,0.97600,-0.18532,0.0,2023,6,7,15,53,38,103
44.72380,-0.02362,-0.04445,0.00000,0.03331,0.97563,-0.18593,0.0,2023,6,7,15,53,39,113
44.72390,-0.07612,0.20055,0.00000,0.03453,0.97722,-0.18629,0.0,2023,6,7,15,53,39,123
44.72400,0.16888,0.07805,0.00000,0.03367,0.97661,-0.18483,0.0,2023,6,7,15,53,39,133
44.72410,-0.11112,0.06055,0.00000,0.03148,0.97539,-0.19069,0.0,2023,6,7,15,53,39,143
44.72420,-0.00612,0.07805,0.00000,0.03172,0.97490,-0.18922,0.0,2023,6,7,15,53,39,153
44.72430,-0.02362,0.04305,0.00000,0.02977,0.97820,-0.18581,0.0,2023,6,7,15,53,39,163
44.72440,0.01138,0.13055,0.00000,0.03001,0.97771,-0.18666,0.0,2023,6,7,15,53,39,173
44.72450,0.06388,-0.20195,0.00000,0.03221,0.97624,-0.18556,0.0,2023,6,7,15,53,39,183
44.72460,0.02888,-0.25445,0.00000,0.03196,0.97710,-0.18776,0.0,2023,6,7,15,53,39,193
44.72470,0.02888,-0.00945,0.00000,0.03099,0.97612,-0.18873,0.0,2023,6,7,15,53,39,203
44.72480,0.02888,-0.04445,0.00000,0.03270,0.97405,-0.18715,0.0,2023,6,7,15,53,39,213
44.72490,-0.11112,0.04305,0.00000,0.03184,0.97539,-0.18825,0.0,2023,6,7,15,53,39,223
44.72500,-0.00612,0.09555,0.00000,0.03184,0.97722,-0.18739,0.0,2023,6,7,15,53,39,233
44.72510,0.02888,-0.07945,0.00000,0.02952,0.97454,-0.18312,0.0,2023,6,7,15,53,39,243
44.72520,0.23888,0.04305,0.00000,0.03343,0.97710,-0.18568,0.0,2023,6,7,15,53,39,253
44.72530,0.13388,-0.20195,0.00000,0.03087,0.97820,-0.18422,0.0,2023,6,7,15,53,39,263
44.72540,0.02888,0.11305,0.00000,0.03209,0.97710,-0.18666,0.0,2023,6,7,15,53,39,273
44.72550,0.15138,-0.11445,0.00000,0.03026,0.97759,-0.18581,0.0,2023,6,7,15,53,39,283
44.72560,0.04638,-0.25445,0.00000,0.03087,0.97441,-0.18690,0.0,2023,6,7,15,53,39,293
44.72570,-0.05862,-0.18445,0.00000,0.03489,0.97661,-0.18629,0.0,2023,6,7,15,53,39,303
44.72580,-0.14612,0.02555,0.00000,0.03367,0.97637,-0.18703,0.0,2023,6,7,15,53,39,313
44.72590,0.15138,-0.04445,0.00000,0.02965,0.97771,-0.18849,0.0,2023,6,7,15,53,39,323
44.72600,0.04638,0.14805,0.00000,0.03111,0.97649,-0.18947,0.0,2023,6,7,15,53,39,333
44.72610,0.06388,-0.09695,0.00000,0.03050,0.97734,-0.18629,0.0,2023,6,7,15,53,39,343
44.72620,-0.18112,-0.11445,0.00000,0.03355,0.97807,-0.18593,0.0,2023,6,7,15,53,39,353
44.72630,0.02888,0.04305,0.00000,0.03148,0.97759,-0.18507,0.0,2023,6,7,15,53,39,363
44.72640,0.01138,0.00805,0.00000,0.03209,0.97820,-0.18727,0.0,2023,6,7,15,53,39,373
44.72650,0.09888,0.02555,0.00000,0.03111,0.97661,-0.18739,0.0,2023,6,7,15,53,39,383
44.72660,0.01138,0.14805,0.00000,0.03221,0.97661,-0.18629,0.0,2023,6,7,15,53,39,393
44.72670,-0.02362,0.18305,0.00000,0.03123,0.97588,-0.18788,0.0,2023,6,7,15,53,39,403
44.72680,-0.18112,-0.02695,0.00000,0.03148,0.97649,-0.18703,0.0,2023,6,7,15,53,39,413
44.72690,-0.04112,0.28805,0.00000,0.03172,0.97807,-0.18459,0.0,2023,6,7,15,53,39,423
44.72700,-0.21612,0.07805,0.00000,0.02989,0.97710,-0.18520,0.0,2023,6,7,15,53,39,433
44.72710,-0.23362,0.16555,0.00000,0.03160,0.97502,-0.18410,0.0,2023,6,7,15,53,39,443
44.72720,0.02888,0.00805,0.00000,0.03160,0.97624,-0.18727,0.0,2023,6,7,15,53,39,453
44.72730,0.04638,-0.06195,0.00000,0.03196,0.97771,-0.18873,0.0,2023,6,7,15,53,39,463
44.72740,-0.14612,0.07805,0.00000,0.03062,0.97685,-0.18654,0.0,2023,6,7,15,53,39,473
44.72750,-0.00612,0.02555,0.00000,0.03404,0.97929,-0.18483,0.0,2023,6,7,15,53,39,483
44.72760,0.04638,-0.09695,0.00000,0.03135,0.97673,-0.18666,0.0,2023,6,7,15,53,39,493
44.72770,-0.07612,0.16555,0.00000,0.02867,0.97624,-0.18605,0.0,2023,6,7,15,53,39,503
44.72780,-0.07612,0.07805,0.00000,0.02977,0.97515,-0.18715,0.0,2023,6,7,15,53,39,513
44.72790,0.04638,-0.11445,0.00000,0.03196,0.97759,-0.18739,0.0,2023,6,7,15,53,39,523
44.72800,-0.37362,0.07805,0.00000,0.03306,0.97698,-0.18532,0.0,2023,6,7,15,53,39,533
44.72810,0.01138,-0.02695,0.00000,0.03099,0.97832,-0.18666,0.0,2023,6,7,15,53,39,543
44.72820,0.13388,0.06055,0.00000,0.03306,0.97722,-0.18617,0.0,2023,6,7,15,53,39,553
44.72830,-0.00612,0.04305,0.00000,0.03233,0.97649,-0.18837,0.0,2023,6,7,15,53,39,563
44.72840,-0.07612,0.06055,0.00000,0.03111,0.97698,-0.18581,0.0,2023,6,7,15,53,39,573
44.72850,0.02888,0.06055,0.00000,0.03245,0.97588,-0.18825,0.0,2023,6,7,15,53,39,583
44.72860,-0.07612,-0.00945,0.00000,0.03148,0.97612,-0.18898,0.0,2023,6,7,15,53,39,593
44.72870,-0.12862,0.02555,0.00000,0.02879,0.97490,-0.18751,0.0,2023,6,7,15,53,39,603
44.72880,0.11638,0.02555,0.00000,0.03196,0.97673,-0.18715,0.0,2023,6,7,15,53,39,613
44.72890,-0.14612,-0.09695,0.00000,0.03196,0.97661,-0.18873,0.0,2023,6,7,15,53,39,623
44.72900,0.06388,0.07805,0.00000,0.03135,0.97783,-0.18873,0.0,2023,6,7,15,53,39,633
44.72910,0.22138,0.06055,0.00000,0.03209,0.97490,-0.18751,0.0,2023,6,7,15,53,39,643
44.72920,0.02888,-0.00945,0.00000,0.03160,0.97649,-0.18617,0.0,2023,6,7,15,53,39,653
44.72930,-0.11112,-0.04445,0.00000,0.03087,0.97661,-0.18654,0.0,2023,6,7,15,53,39,663
44.72940,-0.19862,0.16555,0.00000,0.03209,0.97820,-0.18642,0.0,2023,6,7,15,53,39,673
44.72950,-0.05862,0.06055,0.00000,0.03257,0.97759,-0.18532,0.0,2023,6,7,15,53,39,683
44.72960,0.09888,-0.11445,0.00000,0.03099,0.97759,-0.18507,0.0,2023,6,7,15,53,39,693
44.72970,0.02888,0.02555,0.00000,0.02879,0.97588,-0.18593,0.0,2023,6,7,15,53,39,703
44.72980,-0.04112,-0.07945,0.00000,0.03001,0.97868,-0.18739,0.0,2023,6,7,15,53,39,713
44.72990,0.11638,-0.00945,0.00000,0.03245,0.97490,-0.18788,0.0,2023,6,7,15,53,39,723
44.73000,0.06388,0.09555,0.00000,0.03331,0.97698,-0.18483,0.0,2023,6,7,15,53,39,733
44.73010,-0.04112,-0.02695,0.00000,0.03172,0.97649,-0.18776,0.0,2023,6,7,15,53,39,743
44.73020,-0.00612,0.14805,0.00000,0.03099,0.97417,-0.18898,0.0,2023,6,7,15,53,39,753
44.73030,-0.12862,-0.02695,0.00000,0.03196,0.97576,-0.18727,0.0,2023,6,7,15,53,39,763
44.73040,0.04638,0.00805,0.00000,0.03209,0.97795,-0.18556,0.0,2023,6,7,15,53,39,773
44.73050,-0.07612,-0.00945,0.00000,0.03172,0.97527,-0.18605,0.0,2023,6,7,15,53,39,783
44.73060,0.11638,0.14805,0.00000,0.03038,0.97612,-0.18605,0.0,2023,6,7,15,53,39,793
44.73070,-0.05862,0.04305,0.00000,0.03160,0.97490,-0.18605,0.0,2023,6,7,15,53,39,803
44.73080,-0.00612,0.23555,0.00000,0.03209,0.97722,-0.18715,0.0,2023,6,7,15,53,39,813
44.73090,-0.05862,0.13055,0.00000,0.03087,0.97685,-0.18288,0.0,2023,6,7,15,53,39,823
44.73100,-0.04112,-0.11445,0.00000,0.03233,0.97795,-0.18556,0.0,2023,6,7,15,53,39,833
44.73110,-0.12862,-0.02695,0.00000,0.03099,0.97710,-0.18800,0.0,2023,6,7,15,53,39,843
44.73120,-0.05862,0.13055,0.00000,0.03233,0.97661,-0.18788,0.0,2023,6,7,15,53,39,853
44.73130,0.04638,0.06055,0.00000,0.03245,0.97710,-0.18776,0.0,2023,6,7,15,53,39,863
44.73140,-0.00612,-0.04445,0.00000,0.03111,0.97344,-0.18629,0.0,2023,6,7,15,53,39,873
44.73150,-0.14612,0.16555,0.00000,0.03270,0.97966,-0.18605,0.0,2023,6,7,15,53,39,883
44.73160,0.01138,0.11305,0.00000,0.03026,0.97710,-0.18727,0.0,2023,6,7,15,53,39,893
44.73170,-0.02362,-0.07945,0.00000,0.03062,0.97624,-0.18642,0.0,2023,6,7,15,53,39,903
44.73180,0.01138,0.04305,0.00000,0.03013,0.97649,-0.18629,0.0,2023,6,7,15,53,39,913
44.73190,0.13388,-0.09695,0.00000,0.03245,0.97734,-0.18764,0.0,2023,6,7,15,53,39,923
44.73200,-0.05862,0.07805,0.00000,0.03209,0.97746,-0.18239,0.0,2023,6,7,15,53,39,933
44.73210,-0.04112,0.13055,0.00000,0.03221,0.97502,-0.18666,0.0,2023,6,7,15,53,39,943
44.73220,0.06388,0.02555,0.00000,0.03038,0.97588,-0.18837,0.0,2023,6,7,15,53,39,953
44.73230,0.08138,-0.13195,0.00000,0.03026,0.97722,-0.18617,0.0,2023,6,7,15,53,39,963
44.73240,0.04638,0.13055,0.00000,0.02916,0.97563,-0.18715,0.0,2023,6,7,15,53,39,973
44.73250,0.06388,0.13055,0.00000,0.03306,0.97490,-0.18629,0.0,2023,6,7,15,53,39,983
44.73260,-0.11112,0.02555,0.00000,0.03172,0.97673,-0.18934,0.0,2023,6,7,15,53,39,993
44.73270,-0.00612,0.20055,0.00000,0.03355,0.97942,-0.18617,0.0,2023,6,7,15,53,39,3
44.73280,0.16888,-0.16695,0.00000,0.03270,0.97478,-0.18629,0.0,2023,6,7,15,53,39,13
44.73290,-0.14612,0.06055,0.00000,0.02952,0.97710,-0.18629,0.0,2023,6,7,15,53,40,23
44.73300,-0.04112,0.06055,0.00000,0.03257,0.97637,-0.18581,0.0,2023,6,7,15,53,40,33
44.73310,0.06388,-0.21945,0.00000,0.03062,0.97698,-0.18422,0.0,2023,6,7,15,53,40,43
44.73320,-0.11112,-0.09695,0.00000,0.02952,0.97771,-0.18605,0.0,2023,6,7,15,53,40,53
44.73330,0.15138,0.00805,0.00000,0.03135,0.97734,-0.19032,0.0,2023,6,7,15,53,40,63
44.73340,0.18638,-0.11445,0.00000,0.03050,0.97539,-0.18764,0.0,2023,6,7,15,53,40,73
44.73350,0.15138,-0.00945,0.00000,0.03050,0.97722,-0.18678,0.0,2023,6,7,15,53,40,83
44.73360,-0.14612,0.00805,0.00000,0.03245,0.97490,-0.18483,0.0,2023,6,7,15,53,40,93
44.73370,0.04638,-0.02695,0.00000,0.03257,0.97637,-0.18593,0.0,2023,6,7,15,53,40,103
44.73380,-0.05862,-0.07945,0.00000,0.03013,0.97734,-0.18849,0.0,2023,6,7,15,53,40,113
44.73390,-0.02362,-0.02695,0.00000,0.03294,0.97612,-0.18995,0.0,2023,6,7,15,53,40,123
44.73400,-0.23362,-0.02695,0.00000,0.03099,0.97673,-0.18532,0.0,2023,6,7,15,53,40,133
44.73410,0.02888,0.09555,0.00000,0.03196,0.97600,-0.18690,0.0,2023,6,7,15,53,40,143
44.73420,-0.00612,0.16555,0.00000,0.03184,0.97734,-0.18959,0.0,2023,6,7,15,53,40,153
44.73430,0.08138,0.02555,0.00000,0.03172,0.97490,-0.18849,0.0,2023,6,7,15,53,40,163
44.73440,-0.09362,0.07805,0.00000,0.03111,0.97649,-0.18898,0.0,2023,6,7,15,53,40,173
44.73450,0.02888,-0.09695,0.00000,0.02928,0.97771,-0.18629,0.0,2023,6,7,15,53,40,183
44.73460,-0.04112,0.06055,0.00000,0.02952,0.97551,-0.18898,0.0,2023,6,7,15,53,40,193
44.73470,-0.11112,-0.07945,0.00000,0.03184,0.97771,-0.18812,0.0,2023,6,7,15,53,40,203
44.73480,0.18638,0.06055,0.00000,0.03123,0.97722,-0.19093,0.0,2023,6,7,15,53,40,213
44.73490,0.11638,-0.06195,0.00000,0.03013,0.97698,-0.18703,0.0,2023,6,7,15,53,40,223
44.73500,0.02888,-0.11445,0.00000,0.02891,0.97576,-0.18532,0.0,2023,6,7,15,53,40,233
44.73510,0.13388,-0.04445,0.00000,0.03209,0.97771,-0.18873,0.0,2023,6,7,15,53,40,243
44.73520,-0.02362,-0.04445,0.00000,0.03026,0.97954,-0.18837,0.0,2023,6,7,15,53,40,253
44.73530,0.15138,-0.09695,0.00000,0.02940,0.97698,-0.18764,0.0,2023,6,7,15,53,40,263
44.73540,0.06388,0.13055,0.00000,0.03013,0.97563,-0.18507,0.0,2023,6,7,15,53,40,273
44.73550,-0.04112,-0.14945,0.00000,0.03257,0.97624,-0.18495,0.0,2023,6,7,15,53,40,283
44.73560,0.15138,-0.04445,0.00000,0.03221,0.97710,-0.18825,0.0,2023,6,7,15,53,40,293
44.73570,-0.09362,0.20055,0.00000,0.03233,0.97576,-0.19093,0.0,2023,6,7,15,53,40,303
44.73580,-0.12862,-0.13195,0.00000,0.03355,0.97417,-0.18959,0.0,2023,6,7,15,53,40,313
44.73590,-0.05862,0.09555,0.00000,0.02940,0.97576,-0.18825,0.0,2023,6,7,15,53,40,323
44.73600,0.08138,-0.00945,0.00000,0.03123,0.97637,-0.18715,0.0,2023,6,7,15,53,40,333
44.73610,0.11638,-0.13195,0.00000,0.03306,0.97698,-0.18825,0.0,2023,6,7,15,53,40,343
44.73620,0.02888,-0.13195,0.00000,0.03050,0.97649,-0.18715,0.0,2023,6,7,15,53,40,353
44.73630,-0.02362,-0.16695,0.00000,0.03123,0.97527,-0.18727,0.0,2023,6,7,15,53,40,363
44.73640,-0.02362,-0.16695,0.00000,0.02989,0.97576,-0.18764,0.0,2023,6,7,15,53,40,373
44.73650,-0.11112,-0.13195,0.00000,0.03148,0.97771,-0.18727,0.0,2023,6,7,15,53,40,383
44.73660,-0.02362,-0.02695,0.00000,0.03148,0.97539,-0.18568,0.0,2023,6,7,15,53,40,393
44.73670,-0.00612,0.11305,0.00000,0.03294,0.97795,-0.18727,0.0,2023,6,7,15,53,40,403
44.73680,-0.07612,0.13055,0.00000,0.03184,0.97698,-0.18727,0.0,2023,6,7,15,53,40,413
44.73690,-0.09362,0.07805,0.00000,0.03135,0.97783,-0.18544,0.0,2023,6,7,15,53,40,423
44.73700,-0.14612,-0.04445,0.00000,0.03087,0.97502,-0.18605,0.0,2023,6,7,15,53,40,433
44.73710,0.01138,0.06055,0.00000,0.03196,0.97624,-0.18678,0.0,2023,6,7,15,53,40,443
44.73720,-0.02362,0.13055,0.00000,0.02952,0.97722,-0.18922,0.0,2023,6,7,15,53,40,453
44.73730,0.04638,0.09555,0.00000,0.03148,0.97807,-0.18922,0.0,2023,6,7,15,53,40,463
44.73740,-0.00612,0.16555,0.00000,0.03221,0.97527,-0.18520,0.0,2023,6,7,15,53,40,473
44.73750,0.02888,-0.02695,0.00000,0.03148,0.97917,-0.18617,0.0,2023,6,7,15,53,40,483
44.73760,-0.00612,0.16555,0.00000,0.02940,0.97685,-0.18751,0.0,2023,6,7,15,53,40,493
44.73770,0.06388,-0.11445,0.00000,0.03001,0.97978,-0.18727,0.0,2023,6,7,15,53,40,503
44.73780,0.09888,-0.06195,0.00000,0.03099,0.97478,-0.18764,0.0,2023,6,7,15,53,40,513
44.73790,0.04638,-0.27195,0.00000,0.03233,0.97734,-0.18751,0.0,2023,6,7,15,53,40,523
44.73800,0.11638,-0.16695,0.00000,0.03245,0.97539,-0.18312,0.0,2023,6,7,15,53,40,533
44.73810,0.08138,-0.23695,0.00000,0.02977,0.97661,-0.18642,0.0,2023,6,7,15,53,40,543
44.73820,0.15138,-0.02695,0.00000,0.03245,0.97637,-0.18898,0.0,2023,6,7,15,53,40,553
44.73830,-0.02362,0.04305,0.00000,0.03160,0.97673,-0.18739,0.0,2023,6,7,15,53,40,563
44.73840,-0.12862,-0.11445,0.00000,0.03172,0.97490,-0.18910,0.0,2023,6,7,15,53,40,573
44.73850,-0.02362,0.02555,0.00000,0.03343,0.97698,-0.18690,0.0,2023,6,7,15,53,40,583
44.73860,-0.14612,0.16555,0.00000,0.03209,0.97649,-0.18568,0.0,2023,6,7,15,53,40,593
44.73870,0.23888,-0.06195,0.00000,0.03184,0.97673,-0.18654,0.0,2023,6,7,15,53,40,603
44.73880,0.09888,-0.04445,0.00000,0.03001,0.97734,-0.18715,0.0,2023,6,7,15,53,40,613
44.73890,0.08138,0.23555,0.00000,0.02940,0.97624,-0.18849,0.0,2023,6,7,15,53,40,623
44.73900,-0.09362,-0.00945,0.00000,0.03196,0.97576,-0.18581,0.0,2023,6,7,15,53,40,633
44.73910,-0.05862,0.06055,0.00000,0.03196,0.97673,-0.18410,0.0,2023,6,7,15,53,40,643
44.73920,-0.04112,0.11305,0.00000,0.03196,0.97783,-0.18715,0.0,2023,6,7,15,53,40,653
44.73930,0.08138,0.00805,0.00000,0.03111,0.97637,-0.18678,0.0,2023,6,7,15,53,40,663
44.73940,0.01138,-0.04445,0.00000,0.03257,0.97588,-0.18556,0.0,2023,6,7,15,53,40,673
44.73950,0.06388,0.16555,0.00000,0.03294,0.97502,-0.18861,0.0,2023,6,7,15,53,40,683
44.73960,-0.18112,-0.02695,0.00000,0.03148,0.97795,-0.18800,0.0,2023,6,7,15,53,40,693
44.73970,-0.12862,-0.09695,0.00000,0.03111,0.97637,-0.18959,0.0,2023,6,7,15,53,40,703
44.73980,0.11638,-0.13195,0.00000,0.03001,0.97576,-0.18739,0.0,2023,6,7,15,53,40,713
44.73990,0.16888,-0.06195,0.00000,0.03209,0.97612,-0.18825,0.0,2023,6,7,15,53,40,723
44.74000,0.09888,0.16555,0.00000,0.03233,0.97685,-0.18800,0.0,2023,6,7,15,53,40,733
44.74010,-0.07612,0.16555,0.00000,0.03245,0.97905,-0.18703,0.0,2023,6,7,15,53,40,743
44.74020,0.08138,0.04305,0.00000,0.03282,0.97490,-0.18605,0.0,2023,6,7,15,53,40,753
44.74030,-0.23362,0.04305,0.00000,0.03306,0.97502,-0.18654,0.0,2023,6,7,15,53,40,763
44.74040,0.08138,0.14805,0.00000,0.02830,0.97637,-0.18678,0.0,2023,6,7,15,53,40,773
44.74050,-0.16362,0.07805,0.00000,0.03099,0.97673,-0.18629,0.0,2023,6,7,15,53,40,783
44.74060,-0.02362,0.16555,0.00000,0.03074,0.97698,-0.18654,0.0,2023,6,7,15,53,40,793
44.74070,0.18638,-0.13195,0.00000,0.03270,0.97844,-0.18617,0.0,2023,6,7,15,53,40,803
44.74080,0.11638,-0.11445,0.00000,0.03221,0.97527,-0.18532,0.0,2023,6,7,15,53,40,813
44.74090,-0.12862,0.09555,0.00000,0.03318,0.97454,-0.18568,0.0,2023,6,7,15,53,40,823
44.74100,-0.21612,-0.02695,0.00000,0.02818,0.97746,-0.18898,0.0,2023,6,7,15,53,40,833
44.74110,-0.11112,0.23555,0.00000,0.03184,0.97807,-0.18556,0.0,2023,6,7,15,53,40,843
44.74120,0.08138,-0.04445,0.00000,0.03367,0.97783,-0.18385,0.0,2023,6,7,15,53,40,853
44.74130,0.02888,0.00805,0.00000,0.03074,0.97771,-0.18666,0.0,2023,6,7,15,53,40,863
44.74140,0.06388,-0.07945,0.00000,0.02977,0.97551,-0.18727,0.0,2023,6,7,15,53,40,873
44.74150,0.13388,0.25305,0.00000,0.03343,0.97710,-0.18703,0.0,2023,6,7,15,53,40,883
44.74160,-0.00612,0.02555,0.00000,0.02977,0.97527,-0.18556,0.0,2023,6,7,15,53,40,893
44.74170,-0.11112,0.04305,0.00000,0.03099,0.97795,-0.18703,0.0,2023,6,7,15,53,41,903
44.74180,0.04638,-0.07945,0.00000,0.03135,0.97551,-0.18593,0.0,2023,6,7,15,53,41,913
44.74190,0.11638,-0.09695,0.00000,0.03160,0.97844,-0.18898,0.0,2023,6,7,15,53,41,923
44.74200,-0.02362,0.04305,0.00000,0.03062,0.97795,-0.18825,0.0,2023,6,7,15,53,41,933
44.74210,0.04638,-0.06195,0.00000,0.03306,0.97661,-0.18471,0.0,2023,6,7,15,53,41,943
44.74220,-0.04112,-0.04445,0.00000,0.03074,0.97576,-0.18727,0.0,2023,6,7,15,53,41,953
44.74230,-0.19862,0.07805,0.00000,0.03087,0.97637,-0.18629,0.0,2023,6,7,15,53,41,963
44.74240,0.09888,0.04305,0.00000,0.03306,0.97844,-0.18666,0.0,2023,6,7,15,53,41,973
44.74250,-0.14612,-0.09695,0.00000,0.03123,0.97734,-0.18739,0.0,2023,6,7,15,53,41,983
44.74260,0.25638,-0.13195,0.00000,0.03221,0.97710,-0.18800,0.0,2023,6,7,15,53,41,993
44.74270,-0.07612,-0.04445,0.00000,0.03160,0.97722,-0.18666,0.0,2023,6,7,15,53,41,3
44.74280,0.06388,0.04305,0.00000,0.03221,0.97527,-0.18873,0.0,2023,6,7,15,53,41,13
44.74290,0.06388,-0.25445,0.00000,0.03196,0.97539,-0.19166,0.0,2023,6,7,15,53,41,23
44.74300,0.11638,0.00805,0.00000,0.03062,0.97734,-0.18495,0.0,2023,6,7,15,53,41,33
44.74310,0.09888,-0.09695,0.00000,0.03257,0.97576,-0.18556,0.0,2023,6,7,15,53,41,43
44.74320,0.02888,-0.04445,0.00000,0.03196,0.97698,-0.18678,0.0,2023,6,7,15,53,41,53
44.74330,-0.11112,0.09555,0.00000,0.03184,0.97588,-0.18959,0.0,2023,6,7,15,53,41,63
44.74340,-0.05862,0.07805,0.00000,0.03135,0.97490,-0.18788,0.0,2023,6,7,15,53,41,73
44.74350,0.02888,-0.02695,0.00000,0.03270,0.97612,-0.18739,0.0,2023,6,7,15,53,41,83
44.74360,-0.23362,0.28805,0.00000,0.03123,0.97624,-0.18678,0.0,2023,6,7,15,53,41,93
44.74370,0.11638,-0.06195,0.00000,0.03148,0.97807,-0.18727,0.0,2023,6,7,15,53,41,103
44.74380,0.29138,-0.09695,0.00000,0.03282,0.97661,-0.19032,0.0,2023,6,7,15,53,41,113
44.74390,0.06388,0.00805,0.00000,0.02952,0.97600,-0.18947,0.0,2023,6,7,15,53,41,123
44.74400,-0.14612,0.13055,0.00000,0.03038,0.97612,-0.18398,0.0,2023,6,7,15,53,41,133
44.74410,-0.02362,0.04305,0.00000,0.03001,0.97868,-0.18690,0.0,2023,6,7,15,53,41,143
44.74420,0.11638,-0.09695,0.00000,0.03062,0.97527,-0.18739,0.0,2023,6,7,15,53,41,153
44.74430,-0.07612,-0.09695,0.00000,0.03087,0.97746,-0.18751,0.0,2023,6,7,15,53,41,163
44.74440,-0.04112,0.11305,0.00000,0.03196,0.97624,-0.18678,0.0,2023,6,7,15,53,41,173
44.74450,0.11638,-0.07945,0.00000,0.03135,0.97539,-0.18666,0.0,2023,6,7,15,53,41,183
44.74460,-0.04112,0.09555,0.00000,0.03087,0.97661,-0.18922,0.0,2023,6,7,15,53,41,193
44.74470,-0.18112,0.04305,0.00000,0.03099,0.97746,-0.18703,0.0,2023,6,7,15,53,41,203
44.74480,-0.05862,0.11305,0.00000,0.03294,0.97942,-0.18556,0.0,2023,6,7,15,53,41,213
44.74490,-0.07612,-0.07945,0.00000,0.03074,0.97685,-0.18507,0.0,2023,6,7,15,53,41,223
44.74500,-0.11112,0.04305,0.00000,0.03172,0.97710,-0.18800,0.0,2023,6,7,15,53,41,233
44.74510,-0.00612,0.20055,0.00000,0.03306,0.97832,-0.18873,0.0,2023,6,7,15,53,41,243
44.74520,-0.14612,0.13055,0.00000,0.03245,0.97490,-0.18495,0.0,2023,6,7,15,53,41,253
44.74530,-0.02362,0.00805,0.00000,0.03245,0.97661,-0.18703,0.0,2023,6,7,15,53,41,263
44.74540,0.15138,-0.07945,0.00000,0.03221,0.97685,-0.18629,0.0,2023,6,7,15,53,41,273
44.74550,-0.02362,0.06055,0.00000,0.03050,0.97905,-0.18727,0.0,2023,6,7,15,53,41,283
44.74560,-0.02362,0.23555,0.00000,0.03160,0.98015,-0.18739,0.0,2023,6,7,15,53,41,293
44.74570,-0.02362,-0.11445,0.00000,0.03087,0.97771,-0.18581,0.0,2023,6,7,15,53,41,303
44.74580,-0.02362,-0.07945,0.00000,0.03306,0.97441,-0.18825,0.0,2023,6,7,15,53,41,313
44.74590,0.15138,-0.00945,0.00000,0.03148,0.97466,-0.18922,0.0,2023,6,7,15,53,41,323
44.74600,0.04638,-0.07945,0.00000,0.03062,0.97588,-0.18971,0.0,2023,6,7,15,53,41,333
44.74610,0.15138,0.21805,0.00000,0.03294,0.97722,-0.18776,0.0,2023,6,7,15,53,41,343
44.74620,-0.18112,0.07805,0.00000,0.03245,0.97649,-0.18568,0.0,2023,6,7,15,53,41,353
44.74630,-0.02362,0.13055,0.00000,0.03062,0.97673,-0.18886,0.0,2023,6,7,15,53,41,363
44.74640,0.15138,-0.09695,0.00000,0.03087,0.97807,-0.18873,0.0,2023,6,7,15,53,41,373
44.74650,-0.07612,0.13055,0.00000,0.03013,0.97527,-0.18690,0.0,2023,6,7,15,53,41,383
44.74660,-0.02362,0.14805,0.00000,0.03148,0.97710,-0.18776,0.0,2023,6,7,15,53,41,393
44.74670,0.06388,0.13055,0.00000,0.02940,0.97698,-0.18727,0.0,2023,6,7,15,53,41,403
44.74680,-0.04112,-0.06195,0.00000,0.03196,0.97551,-0.18715,0.0,2023,6,7,15,53,41,413
44.74690,0.04638,0.14805,0.00000,0.03331,0.97759,-0.18861,0.0,2023,6,7,15,53,41,423
44.74700,-0.00612,-0.04445,0.00000,0.03148,0.97820,-0.18556,0.0,2023,6,7,15,53,41,433
44.74710,0.04638,-0.00945,0.00000,0.03074,0.97637,-0.18593,0.0,2023,6,7,15,53,41,443
44.74720,0.11638,0.04305,0.00000,0.03355,0.97576,-0.18995,0.0,2023,6,7,15,53,41,453
44.74730,0.08138,0.27055,0.00000,0.03050,0.97685,-0.18800,0.0,2023,6,7,15,53,41,463
44.74740,-0.02362,-0.04445,0.00000,0.03038,0.97795,-0.18800,0.0,2023,6,7,15,53,41,473
44.74750,-0.02362,0.00805,0.00000,0.03111,0.97954,-0.18800,0.0,2023,6,7,15,53,41,483
44.74760,0.01138,-0.07945,0.00000,0.03111,0.97771,-0.18593,0.0,2023,6,7,15,53,41,493
44.74770,0.20388,-0.06195,0.00000,0.03062,0.97637,-0.18971,0.0,2023,6,7,15,53,41,503
44.74780,-0.19862,-0.02695,0.00000,0.03099,0.97307,-0.18556,0.0,2023,6,7,15,53,41,513
44.74790,-0.00612,0.21805,0.00000,0.03196,0.97807,-0.18678,0.0,2023,6,7,15,53,41,523
44.74800,0.15138,0.02555,0.00000,0.03111,0.97746,-0.18617,0.0,2023,6,7,15,53,41,533
44.74810,0.11638,-0.13195,0.00000,0.03087,0.97490,-0.18947,0.0,2023,6,7,15,53,41,543
44.74820,0.06388,-0.04445,0.00000,0.02940,0.97515,-0.18995,0.0,2023,6,7,15,53,41,553
44.74830,0.04638,0.11305,0.00000,0.03074,0.97563,-0.18654,0.0,2023,6,7,15,53,41,563
44.74840,-0.23362,0.02555,0.00000,0.03184,0.97393,-0.18532,0.0,2023,6,7,15,53,41,573
44.74850,-0.05862,0.02555,0.00000,0.03306,0.97551,-0.18690,0.0,2023,6,7,15,53,41,583
44.74860,-0.04112,-0.14945,0.00000,0.03026,0.97746,-0.18776,0.0,2023,6,7,15,53,41,593
44.74870,-0.09362,0.00805,0.00000,0.03257,0.97868,-0.18605,0.0,2023,6,7,15,53,41,603
44.74880,-0.11112,0.00805,0.00000,0.03111,0.97539,-0.18764,0.0,2023,6,7,15,53,41,613
44.74890,-0.11112,-0.06195,0.00000,0.03148,0.97917,-0.18690,0.0,2023,6,7,15,53,41,623
44.74900,0.29138,-0.11445,0.00000,0.02952,0.97710,-0.18678,0.0,2023,6,7,15,53,41,633
44.74910,-0.16362,0.21805,0.00000,0.03062,0.97637,-0.19020,0.0,2023,6,7,15,53,41,643
44.74920,0.18638,0.06055,0.00000,0.03172,0.97612,-0.18764,0.0,2023,6,7,15,53,41,653
44.74930,-0.11112,-0.06195,0.00000,0.03074,0.97685,-0.18605,0.0,2023,6,7,15,53,41,663
44.74940,-0.02362,0.02555,0.00000,0.03331,0.97429,-0.18446,0.0,2023,6,7,15,53,41,673
44.74950,0.06388,0.02555,0.00000,0.03087,0.97539,-0.18751,0.0,2023,6,7,15,53,41,683
44.74960,-0.23362,0.02555,0.00000,0.03111,0.97539,-0.18666,0.0,2023,6,7,15,53,41,693
44.74970,-0.07612,-0.04445,0.00000,0.03050,0.97283,-0.19105,0.0,2023,6,7,15,53,41,703
44.74980,0.18638,0.09555,0.00000,0.03026,0.97710,-0.18886,0.0,2023,6,7,15,53,41,713
44.74990,-0.05862,0.00805,0.00000,0.03087,0.97722,-0.18666,0.0,2023,6,7,15,53,41,723
44.75000,0.11638,0.06055,0.00000,0.03099,0.97624,-0.19069,0.0,2023,6,7,15,53,41,733
44.75010,-0.16362,-0.13195,0.00000,0.03196,0.97563,-0.18544,0.0,2023,6,7,15,53,41,743
44.75020,0.08138,0.02555,0.00000,0.03111,0.97515,-0.18593,0.0,2023,6,7,15,53,41,753
44.75030,0.15138,-0.00945,0.00000,0.03074,0.97978,-0.18788,0.0,2023,6,7,15,53,41,763
44.75040,-0.02362,-0.20195,0.00000,0.02989,0.97600,-0.18886,0.0,2023,6,7,15,53,41,773
44.75050,0.02888,0.00805,0.00000,0.03135,0.97673,-0.18654,0.0,2023,6,7,15,53,41,783
44.75060,0.08138,0.25305,0.00000,0.03074,0.97588,-0.18959,0.0,2023,6,7,15,53,41,793
44.75070,-0.09362,-0.02695,0.00000,0.03514,0.97685,-0.18678,0.0,2023,6,7,15,53,41,803
44.75080,-0.02362,-0.18445,0.00000,0.03062,0.97844,-0.18739,0.0,2023,6,7,15,53,42,813
44.75090,0.06388,-0.06195,0.00000,0.03001,0.97820,-0.18739,0.0,2023,6,7,15,53,42,823
44.75100,0.06388,-0.04445,0.00000,0.03367,0.97698,-0.18361,0.0,2023,6,7,15,53,42,833
44.75110,-0.00612,0.14805,0.00000,0.03087,0.97844,-0.18727,0.0,2023,6,7,15,53,42,843
44.75120,0.15138,0.06055,0.00000,0.03087,0.97783,-0.18642,0.0,2023,6,7,15,53,42,853
44.75130,-0.05862,0.06055,0.00000,0.03184,0.97624,-0.19020,0.0,2023,6,7,15,53,42,863
44.75140,-0.04112,0.13055,0.00000,0.03062,0.97698,-0.18812,0.0,2023,6,7,15,53,42,873
44.75150,0.20388,-0.25445,0.00000,0.03221,0.97661,-0.18678,0.0,2023,6,7,15,53,42,883
44.75160,-0.14612,0.07805,0.00000,0.03221,0.97624,-0.18629,0.0,2023,6,7,15,53,42,893
44.75170,-0.02362,-0.16695,0.00000,0.03111,0.97820,-0.18703,0.0,2023,6,7,15,53,42,903
44.75180,-0.11112,-0.07945,0.00000,0.03221,0.97527,-0.18581,0.0,2023,6,7,15,53,42,913
44.75190,0.18638,-0.02695,0.00000,0.03172,0.97649,-0.18532,0.0,2023,6,7,15,53,42,923
44.75200,-0.05862,0.00805,0.00000,0.03062,0.97612,-0.18532,0.0,2023,6,7,15,53,42,933
44.75210,-0.00612,-0.00945,0.00000,0.02916,0.97685,-0.18947,0.0,2023,6,7,15,53,42,943
44.75220,0.29138,0.13055,0.00000,0.02891,0.97746,-0.18788,0.0,2023,6,7,15,53,42,953
44.75230,-0.05862,-0.28945,0.00000,0.03196,0.97771,-0.18605,0.0,2023,6,7,15,53,42,963
44.75240,0.02888,-0.13195,0.00000,0.03196,0.97478,-0.18568,0.0,2023,6,7,15,53,42,973
44.75250,-0.11112,0.07805,0.00000,0.03135,0.97344,-0.18629,0.0,2023,6,7,15,53,42,983
44.75260,0.06388,0.06055,0.00000,0.03196,0.97612,-0.18678,0.0,2023,6,7,15,53,42,993
44.75270,-0.18112,0.13055,0.00000,0.03196,0.97624,-0.18654,0.0,2023,6,7,15,53,42,3
44.75280,0.04638,0.07805,0.00000,0.03306,0.97783,-0.18947,0.0,2023,6,7,15,53,42,13
44.75290,-0.00612,0.20055,0.00000,0.03050,0.97722,-0.18642,0.0,2023,6,7,15,53,42,23
44.75300,0.04638,0.06055,0.00000,0.02928,0.97588,-0.18776,0.0,2023,6,7,15,53,42,33
44.75310,0.04638,0.06055,0.00000,0.03148,0.97771,-0.18678,0.0,2023,6,7,15,53,42,43
44.75320,-0.00612,-0.16695,0.00000,0.03221,0.97734,-0.18556,0.0,2023,6,7,15,53,42,53
44.75330,0.02888,0.06055,0.00000,0.03196,0.97881,-0.18410,0.0,2023,6,7,15,53,42,63
44.75340,0.02888,-0.04445,0.00000,0.03160,0.97759,-0.18654,0.0,2023,6,7,15,53,42,73
44.75350,-0.07612,0.09555,0.00000,0.03099,0.97527,-0.18727,0.0,2023,6,7,15,53,42,83
44.75360,0.11638,0.30555,0.00000,0.03233,0.97515,-0.18947,0.0,2023,6,7,15,53,42,93
44.75370,-0.02362,0.16555,0.00000,0.03270,0.97710,-0.18581,0.0,2023,6,7,15,53,42,103
44.75380,-0.05862,0.04305,0.00000,0.03209,0.97868,-0.18739,0.0,2023,6,7,15,53,42,113
44.75390,0.20388,-0.07945,0.00000,0.02977,0.97722,-0.18751,0.0,2023,6,7,15,53,42,123
44.75400,0.15138,-0.20195,0.00000,0.03062,0.97563,-0.18776,0.0,2023,6,7,15,53,42,133
44.75410,0.09888,0.14805,0.00000,0.03184,0.97649,-0.18568,0.0,2023,6,7,15,53,42,143
44.75420,-0.09362,-0.11445,0.00000,0.03099,0.97673,-0.18776,0.0,2023,6,7,15,53,42,153
44.75430,0.18638,0.00805,0.00000,0.03148,0.97576,-0.18849,0.0,2023,6,7,15,53,42,163
44.75440,0.02888,-0.11445,0.00000,0.03087,0.97624,-0.18825,0.0,2023,6,7,15,53,42,173
44.75450,0.08138,-0.06195,0.00000,0.03160,0.97551,-0.18532,0.0,2023,6,7,15,53,42,183
44.75460,-0.19862,-0.07945,0.00000,0.03392,0.97661,-0.18324,0.0,2023,6,7,15,53,42,193
44.75470,-0.00612,-0.06195,0.00000,0.03343,0.97637,-0.18629,0.0,2023,6,7,15,53,42,203
44.75480,0.18638,-0.18445,0.00000,0.03148,0.97490,-0.18898,0.0,2023,6,7,15,53,42,213
44.75490,0.01138,0.04305,0.00000,0.02965,0.97588,-0.18642,0.0,2023,6,7,15,53,42,223
44.75500,0.01138,0.02555,0.00000,0.03257,0.97454,-0.18556,0.0,2023,6,7,15,53,42,233
44.75510,-0.09362,0.00805,0.00000,0.03087,0.97905,-0.18776,0.0,2023,6,7,15,53,42,243
44.75520,-0.02362,-0.06195,0.00000,0.03257,0.97807,-0.18471,0.0,2023,6,7,15,53,42,253
44.75530,-0.02362,-0.02695,0.00000,0.03209,0.97685,-0.19044,0.0,2023,6,7,15,53,42,263
44.75540,-0.04112,-0.00945,0.00000,0.03184,0.97551,-0.18629,0.0,2023,6,7,15,53,42,273
44.75550,-0.12862,0.02555,0.00000,0.03148,0.97624,-0.18495,0.0,2023,6,7,15,53,42,283
44.75560,-0.05862,0.02555,0.00000,0.03306,0.97820,-0.18471,0.0,2023,6,7,15,53,42,293
44.75570,-0.12862,-0.00945,0.00000,0.03209,0.97844,-0.18825,0.0,2023,6,7,15,53,42,303
44.75580,0.11638,-0.21945,0.00000,0.03099,0.97698,-0.18837,0.0,2023,6,7,15,53,42,313
44.75590,-0.05862,0.07805,0.00000,0.03282,0.97771,-0.18507,0.0,2023,6,7,15,53,42,323
44.75600,0.06388,-0.04445,0.00000,0.03160,0.97844,-0.18507,0.0,2023,6,7,15,53,42,333
44.75610,-0.09362,0.11305,0.00000,0.03294,0.97844,-0.18825,0.0,2023,6,7,15,53,42,343
44.75620,-0.11112,-0.06195,0.00000,0.03050,0.97551,-0.18690,0.0,2023,6,7,15,53,42,353
44.75630,-0.12862,0.25305,0.00000,0.03257,0.97563,-0.18629,0.0,2023,6,7,15,53,42,363
44.75640,0.16888,-0.07945,0.00000,0.03270,0.97551,-0.18654,0.0,2023,6,7,15,53,42,373
44.75650,-0.02362,-0.00945,0.00000,0.03148,0.97881,-0.18507,0.0,2023,6,7,15,53,42,383
44.75660,-0.21612,0.04305,0.00000,0.03270,0.97563,-0.18593,0.0,2023,6,7,15,53,42,393
44.75670,-0.09362,-0.06195,0.00000,0.03160,0.97539,-0.18690,0.0,2023,6,7,15,53,42,403
44.75680,-0.11112,0.20055,0.00000,0.03038,0.97502,-0.18654,0.0,2023,6,7,15,53,42,413
44.75690,0.01138,-0.20195,0.00000,0.03233,0.97868,-0.18520,0.0,2023,6,7,15,53,42,423
44.75700,0.01138,-0.23695,0.00000,0.03038,0.97795,-0.18788,0.0,2023,6,7,15,53,42,433
44.75710,-0.05862,0.02555,0.00000,0.03038,0.97771,-0.18910,0.0,2023,6,7,15,53,42,443
44.75720,0.09888,-0.11445,0.00000,0.03050,0.97600,-0.18703,0.0,2023,6,7,15,53,42,453
44.75730,0.02888,0.00805,0.00000,0.02965,0.97588,-0.18617,0.0,2023,6,7,15,53,42,463
44.75740,0.01138,-0.02695,0.00000,0.03160,0.97405,-0.18483,0.0,2023,6,7,15,53,42,473
44.75750,-0.14612,0.28805,0.00000,0.03001,0.97637,-0.18959,0.0,2023,6,7,15,53,42,483
44.75760,0.11638,-0.02695,0.00000,0.03306,0.97759,-0.18581,0.0,2023,6,7,15,53,42,493
44.75770,0.01138,0.07805,0.00000,0.03013,0.97905,-0.18581,0.0,2023,6,7,15,53,42,503
44.75780,-0.11112,0.09555,0.00000,0.03233,0.97515,-0.18678,0.0,2023,6,7,15,53,42,513
44.75790,-0.19862,0.20055,0.00000,0.02818,0.97624,-0.18690,0.0,2023,6,7,15,53,42,523
44.75800,-0.11112,0.14805,0.00000,0.03099,0.97673,-0.18605,0.0,2023,6,7,15,53,42,533
44.75810,-0.12862,0.02555,0.00000,0.03026,0.97478,-0.18617,0.0,2023,6,7,15,53,42,543
44.75820,-0.09362,0.18305,0.00000,0.03184,0.97685,-0.18629,0.0,2023,6,7,15,53,42,553
44.75830,-0.12862,0.13055,0.00000,0.03038,0.97612,-0.18556,0.0,2023,6,7,15,53,42,563
44.75840,-0.16362,0.06055,0.00000,0.03123,0.97649,-0.18544,0.0,2023,6,7,15,53,42,573
44.75850,0.11638,-0.25445,0.00000,0.03282,0.97820,-0.18654,0.0,2023,6,7,15,53,42,583
44.75860,-0.19862,0.18305,0.00000,0.03306,0.97429,-0.18666,0.0,2023,6,7,15,53,42,593
44.75870,-0.12862,0.11305,0.00000,0.03355,0.97820,-0.18812,0.0,2023,6,7,15,53,42,603
44.75880,0.15138,0.13055,0.00000,0.03074,0.97612,-0.18910,0.0,2023,6,7,15,53,42,613
44.75890,0.16888,0.02555,0.00000,0.02989,0.97771,-0.18666,0.0,2023,6,7,15,53,42,623
44.75900,-0.00612,0.14805,0.00000,0.03282,0.97673,-0.18605,0.0,2023,6,7,15,53,42,633
44.75910,-0.02362,0.07805,0.00000,0.03026,0.97612,-0.18776,0.0,2023,6,7,15,53,42,643
44.75920,0.11638,-0.09695,0.00000,0.03111,0.97563,-0.18690,0.0,2023,6,7,15,53,42,653
44.75930,-0.00612,-0.09695,0.00000,0.03379,0.97905,-0.18727,0.0,2023,6,7,15,53,42,663
44.75940,-0.00612,-0.00945,0.00000,0.03221,0.97490,-0.18544,0.0,2023,6,7,15,53,42,673
44.75950,-0.05862,0.04305,0.00000,0.03087,0.97673,-0.18812,0.0,2023,6,7,15,53,42,683
44.75960,0.09888,-0.04445,0.00000,0.02952,0.97466,-0.18886,0.0,2023,6,7,15,53,42,693
44.75970,0.15138,-0.16695,0.00000,0.02794,0.97624,-0.18861,0.0,2023,6,7,15,53,42,703
44.75980,0.09888,0.02555,0.00000,0.03111,0.97539,-0.18898,0.0,2023,6,7,15,53,42,713
44.75990,-0.07612,0.41055,0.00000,0.03099,0.97661,-0.18715,0.0,2023,6,7,15,53,43,723
44.76000,0.06388,0.07805,0.00000,0.03038,0.97771,-0.18544,0.0,2023,6,7,15,53,43,733
44.76010,-0.16362,-0.09695,0.00000,0.03294,0.97624,-0.18642,0.0,2023,6,7,15,53,43,743
44.76020,-0.14612,-0.14945,0.00000,0.03135,0.97746,-0.18690,0.0,2023,6,7,15,53,43,753
44.76030,-0.04112,0.04305,0.00000,0.03001,0.97673,-0.18715,0.0,2023,6,7,15,53,43,763
44.76040,0.04638,-0.06195,0.00000,0.03038,0.97551,-0.19008,0.0,2023,6,7,15,53,43,773
44.76050,0.04638,-0.00945,0.00000,0.03160,0.97942,-0.18654,0.0,2023,6,7,15,53,43,783
44.76060,-0.00612,-0.11445,0.00000,0.03270,0.97832,-0.18703,0.0,2023,6,7,15,53,43,793
44.76070,0.02888,-0.04445,0.00000,0.03196,0.97673,-0.18495,0.0,2023,6,7,15,53,43,803
44.76080,-0.05862,0.11305,0.00000,0.03257,0.97832,-0.18837,0.0,2023,6,7,15,53,43,813
44.76090,-0.09362,-0.09695,0.00000,0.03062,0.97612,-0.18459,0.0,2023,6,7,15,53,43,823
44.76100,-0.07612,-0.02695,0.00000,0.03172,0.97722,-0.18520,0.0,2023,6,7,15,53,43,833
44.76110,-0.12862,0.13055,0.00000,0.03013,0.97807,-0.18727,0.0,2023,6,7,15,53,43,843
44.76120,-0.07612,-0.00945,0.00000,0.02916,0.97698,-0.18605,0.0,2023,6,7,15,53,43,853
44.76130,-0.00612,0.11305,0.00000,0.03160,0.97588,-0.19008,0.0,2023,6,7,15,53,43,863
44.76140,-0.11112,0.14805,0.00000,0.03148,0.97319,-0.18654,0.0,2023,6,7,15,53,43,873
44.76150,-0.05862,0.14805,0.00000,0.02965,0.97734,-0.18690,0.0,2023,6,7,15,53,43,883
44.76160,0.04638,-0.06195,0.00000,0.03123,0.97685,-0.18739,0.0,2023,6,7,15,53,43,893
44.76170,0.08138,0.16555,0.00000,0.03099,0.97759,-0.18642,0.0,2023,6,7,15,53,43,903
44.76180,-0.00612,0.06055,0.00000,0.03306,0.97576,-0.18434,0.0,2023,6,7,15,53,43,913
44.76190,0.15138,-0.04445,0.00000,0.03282,0.97942,-0.18593,0.0,2023,6,7,15,53,43,923
44.76200,-0.02362,0.02555,0.00000,0.02977,0.97612,-0.18837,0.0,2023,6,7,15,53,43,933
44.76210,-0.18112,0.18305,0.00000,0.03355,0.97576,-0.18629,0.0,2023,6,7,15,53,43,943
44.76220,-0.21612,0.11305,0.00000,0.03123,0.97563,-0.18751,0.0,2023,6,7,15,53,43,953
44.76230,-0.04112,-0.02695,0.00000,0.02855,0.97893,-0.18788,0.0,2023,6,7,15,53,43,963
44.76240,0.04638,0.21805,0.00000,0.03245,0.97673,-0.18776,0.0,2023,6,7,15,53,43,973
44.76250,-0.00612,0.07805,0.00000,0.03135,0.97551,-0.18361,0.0,2023,6,7,15,53,43,983
44.76260,-0.02362,-0.00945,0.00000,0.03343,0.97893,-0.18617,0.0,2023,6,7,15,53,43,993
44.76270,0.01138,-0.23695,0.00000,0.03172,0.97746,-0.18788,0.0,2023,6,7,15,53,43,3
44.76280,0.08138,0.16555,0.00000,0.03050,0.97722,-0.18495,0.0,2023,6,7,15,53,43,13
44.76290,-0.07612,0.06055,0.00000,0.03087,0.97771,-0.18739,0.0,2023,6,7,15,53,43,23
44.76300,-0.19862,-0.07945,0.00000,0.03282,0.97478,-0.18617,0.0,2023,6,7,15,53,43,33
44.76310,0.34388,-0.16695,0.00000,0.03209,0.97844,-0.18934,0.0,2023,6,7,15,53,43,43
44.76320,-0.02362,-0.06195,0.00000,0.03001,0.97515,-0.18934,0.0,2023,6,7,15,53,43,53
44.76330,-0.02362,0.04305,0.00000,0.03184,0.97795,-0.18581,0.0,2023,6,7,15,53,43,63
44.76340,0.30888,-0.27195,0.00000,0.03111,0.97771,-0.18446,0.0,2023,6,7,15,53,43,73
44.76350,-0.11112,0.09555,0.00000,0.03099,0.97807,-0.18678,0.0,2023,6,7,15,53,43,83
44.76360,0.08138,0.20055,0.00000,0.03245,0.97624,-0.18483,0.0,2023,6,7,15,53,43,93
44.76370,-0.14612,0.02555,0.00000,0.03245,0.97612,-0.18532,0.0,2023,6,7,15,53,43,103
44.76380,-0.25112,0.02555,0.00000,0.03245,0.97698,-0.18800,0.0,2023,6,7,15,53,43,113
44.76390,-0.05862,-0.00945,0.00000,0.03062,0.97807,-0.18764,0.0,2023,6,7,15,53,43,123
44.76400,0.06388,0.06055,0.00000,0.03233,0.97734,-0.18873,0.0,2023,6,7,15,53,43,133
44.76410,-0.19862,0.06055,0.00000,0.03111,0.97637,-0.18971,0.0,2023,6,7,15,53,43,143
44.76420,-0.12862,0.00805,0.00000,0.03087,0.97722,-0.18520,0.0,2023,6,7,15,53,43,153
44.76430,0.08138,-0.13195,0.00000,0.03282,0.97649,-0.18495,0.0,2023,6,7,15,53,43,163
44.76440,-0.11112,-0.16695,0.00000,0.03148,0.97576,-0.18642,0.0,2023,6,7,15,53,43,173
44.76450,0.01138,-0.16695,0.00000,0.03196,0.97734,-0.18568,0.0,2023,6,7,15,53,43,183
44.76460,-0.07612,0.21805,0.00000,0.03013,0.97563,-0.18764,0.0,2023,6,7,15,53,43,193
44.76470,-0.05862,0.02555,0.00000,0.03062,0.97673,-0.19008,0.0,2023,6,7,15,53,43,203
44.76480,-0.12862,-0.09695,0.00000,0.03209,0.97527,-0.18703,0.0,2023,6,7,15,53,43,213
44.76490,0.06388,-0.09695,0.00000,0.03172,0.97441,-0.18812,0.0,2023,6,7,15,53,43,223
44.76500,0.22138,-0.18445,0.00000,0.03306,0.97710,-0.18568,0.0,2023,6,7,15,53,43,233
44.76510,-0.09362,0.09555,0.00000,0.03209,0.97344,-0.18520,0.0,2023,6,7,15,53,43,243
44.76520,-0.02362,-0.09695,0.00000,0.03099,0.97734,-0.18654,0.0,2023,6,7,15,53,43,253
44.76530,-0.02362,-0.06195,0.00000,0.02952,0.97722,-0.18727,0.0,2023,6,7,15,53,43,263
44.76540,-0.18112,0.23555,0.00000,0.03062,0.97698,-0.18617,0.0,2023,6,7,15,53,43,273
44.76550,0.08138,-0.02695,0.00000,0.03001,0.97722,-0.18678,0.0,2023,6,7,15,53,43,283
44.76560,-0.04112,-0.25445,0.00000,0.03306,0.98039,-0.18800,0.0,2023,6,7,15,53,43,293
44.76570,-0.00612,0.00805,0.00000,0.03196,0.97612,-0.18788,0.0,2023,6,7,15,53,43,303
44.76580,-0.23362,0.07805,0.00000,0.03282,0.97673,-0.18629,0.0,2023,6,7,15,53,43,313
44.76590,-0.09362,-0.00945,0.00000,0.03343,0.97332,-0.18849,0.0,2023,6,7,15,53,43,323
44.76600,-0.07612,0.04305,0.00000,0.03074,0.97551,-0.18471,0.0,2023,6,7,15,53,43,333
44.76610,-0.02362,0.09555,0.00000,0.03233,0.97698,-0.18886,0.0,2023,6,7,15,53,43,343
44.76620,-0.12862,0.00805,0.00000,0.02904,0.97661,-0.18605,0.0,2023,6,7,15,53,43,353
44.76630,-0.16362,0.00805,0.00000,0.03233,0.97539,-0.18495,0.0,2023,6,7,15,53,43,363
44.76640,0.13388,0.07805,0.00000,0.03038,0.97649,-0.18898,0.0,2023,6,7,15,53,43,373
44.76650,0.01138,-0.11445,0.00000,0.02989,0.97710,-0.18959,0.0,2023,6,7,15,53,43,383
44.76660,-0.11112,-0.00945,0.00000,0.03318,0.97820,-0.18410,0.0,2023,6,7,15,53,43,393
44.76670,-0.05862,-0.04445,0.00000,0.03440,0.97673,-0.18532,0.0,2023,6,7,15,53,43,403
44.76680,0.02888,0.02555,0.00000,0.03050,0.97673,-0.18739,0.0,2023,6,7,15,53,43,413
44.76690,0.04638,-0.20195,0.00000,0.02989,0.97563,-0.18983,0.0,2023,6,7,15,53,43,423
44.76700,-0.09362,0.04305,0.00000,0.03074,0.97637,-0.18800,0.0,2023,6,7,15,53,43,433
44.76710,-0.00612,-0.00945,0.00000,0.03099,0.97502,-0.18520,0.0,2023,6,7,15,53,43,443
44.76720,0.11638,-0.04445,0.00000,0.03160,0.97746,-0.18617,0.0,2023,6,7,15,53,43,453
44.76730,0.27388,-0.07945,0.00000,0.03245,0.97551,-0.18886,0.0,2023,6,7,15,53,43,463
44.76740,-0.04112,0.06055,0.00000,0.03282,0.97722,-0.18837,0.0,2023,6,7,15,53,43,473
44.76750,0.16888,-0.14945,0.00000,0.03318,0.97661,-0.18764,0.0,2023,6,7,15,53,43,483
44.76760,-0.04112,-0.00945,0.00000,0.03416,0.97588,-0.18398,0.0,2023,6,7,15,53,43,493
44.76770,0.20388,0.09555,0.00000,0.03099,0.97795,-0.18959,0.0,2023,6,7,15,53,43,503
44.76780,-0.02362,0.11305,0.00000,0.03184,0.97380,-0.18788,0.0,2023,6,7,15,53,43,513
44.76790,0.15138,-0.04445,0.00000,0.02940,0.97661,-0.18642,0.0,2023,6,7,15,53,43,523
44.76800,-0.04112,0.06055,0.00000,0.03074,0.97771,-0.18532,0.0,2023,6,7,15,53,43,533
44.76810,0.02888,-0.13195,0.00000,0.03050,0.97563,-0.18922,0.0,2023,6,7,15,53,43,543
44.76820,0.20388,0.04305,0.00000,0.03331,0.97624,-0.19044,0.0,2023,6,7,15,53,43,553
44.76830,0.13388,-0.02695,0.00000,0.03318,0.97685,-0.18788,0.0,2023,6,7,15,53,43,563
44.76840,-0.09362,0.04305,0.00000,0.03245,0.97661,-0.18544,0.0,2023,6,7,15,53,43,573
44.76850,0.09888,-0.14945,0.00000,0.03245,0.97673,-0.18642,0.0,2023,6,7,15,53,43,583
44.76860,0.16888,-0.04445,0.00000,0.03135,0.97527,-0.18776,0.0,2023,6,7,15,53,43,593
44.76870,0.11638,-0.00945,0.00000,0.03123,0.97673,-0.18751,0.0,2023,6,7,15,53,43,603
44.76880,0.02888,-0.09695,0.00000,0.03172,0.97576,-0.18617,0.0,2023,6,7,15,53,43,613
44.76890,-0.05862,-0.09695,0.00000,0.03233,0.97527,-0.18727,0.0,2023,6,7,15,53,43,623
44.76900,0.11638,-0.07945,0.00000,0.03135,0.97807,-0.18556,0.0,2023,6,7,15,53,44,633
44.76910,-0.04112,-0.06195,0.00000,0.02952,0.97759,-0.18751,0.0,2023,6,7,15,53,44,643
44.76920,-0.05862,0.07805,0.00000,0.03172,0.97515,-0.18678,0.0,2023,6,7,15,53,44,653
44.76930,-0.14612,0.27055,0.00000,0.03294,0.97649,-0.18642,0.0,2023,6,7,15,53,44,663
44.76940,-0.07612,0.00805,0.00000,0.03282,0.97612,-0.18727,0.0,2023,6,7,15,53,44,673
44.76950,0.09888,-0.09695,0.00000,0.03367,0.97820,-0.18800,0.0,2023,6,7,15,53,44,683
44.76960,-0.02362,0.04305,0.00000,0.02989,0.97734,-0.18959,0.0,2023,6,7,15,53,44,693
44.76970,0.13388,0.06055,0.00000,0.03367,0.97710,-0.18544,0.0,2023,6,7,15,53,44,703
44.76980,-0.00612,-0.16695,0.00000,0.03196,0.97771,-0.18678,0.0,2023,6,7,15,53,44,713
44.76990,0.13388,0.13055,0.00000,0.03026,0.97417,-0.18715,0.0,2023,6,7,15,53,44,723
44.77000,-0.07612,-0.20195,0.00000,0.03172,0.97746,-0.18556,0.0,2023,6,7,15,53,44,733
44.77010,0.09888,-0.00945,0.00000,0.03172,0.97612,-0.18849,0.0,2023,6,7,15,53,44,743
44.77020,-0.04112,0.21805,0.00000,0.03172,0.97466,-0.18605,0.0,2023,6,7,15,53,44,753
44.77030,-0.04112,0.07805,0.00000,0.03172,0.97576,-0.18764,0.0,2023,6,7,15,53,44,763
44.77040,-0.04112,-0.35945,0.00000,0.03038,0.97844,-0.18666,0.0,2023,6,7,15,53,44,773
44.77050,-0.23362,0.14805,0.00000,0.03184,0.97856,-0.18715,0.0,2023,6,7,15,53,44,783
44.77060,-0.18112,0.13055,0.00000,0.03074,0.97624,-0.18629,0.0,2023,6,7,15,53,44,793
44.77070,0.06388,0.13055,0.00000,0.03331,0.97539,-0.18581,0.0,2023,6,7,15,53,44,803
44.77080,0.02888,0.09555,0.00000,0.03257,0.97637,-0.18507,0.0,2023,6,7,15,53,44,813
44.77090,0.01138,0.14805,0.00000,0.03135,0.97612,-0.18971,0.0,2023,6,7,15,53,44,823
44.77100,-0.05862,-0.06195,0.00000,0.03245,0.97795,-0.18690,0.0,2023,6,7,15,53,44,833
44.77110,-0.23362,0.35805,0.00000,0.03233,0.97502,-0.18678,0.0,2023,6,7,15,53,44,843
44.77120,-0.02362,-0.04445,0.00000,0.03294,0.97539,-0.18495,0.0,2023,6,7,15,53,44,853
44.77130,-0.09362,0.00805,0.00000,0.03135,0.97612,-0.18971,0.0,2023,6,7,15,53,44,863
44.77140,-0.05862,-0.07945,0.00000,0.03123,0.97832,-0.18654,0.0,2023,6,7,15,53,44,873
44.77150,0.06388,-0.02695,0.00000,0.03062,0.97844,-0.18812,0.0,2023,6,7,15,53,44,883
44.77160,0.13388,0.02555,0.00000,0.03428,0.97844,-0.18800,0.0,2023,6,7,15,53,44,893
44.77170,0.06388,-0.09695,0.00000,0.03245,0.97612,-0.18544,0.0,2023,6,7,15,53,44,903
44.77180,-0.00612,-0.09695,0.00000,0.02904,0.97844,-0.18642,0.0,2023,6,7,15,53,44,913
44.77190,-0.00612,-0.11445,0.00000,0.03148,0.97527,-0.18654,0.0,2023,6,7,15,53,44,923
44.77200,-0.23362,0.00805,0.00000,0.03306,0.97783,-0.18678,0.0,2023,6,7,15,53,44,933
44.77210,0.04638,0.02555,0.00000,0.03318,0.97746,-0.18959,0.0,2023,6,7,15,53,44,943
44.77220,0.04638,-0.11445,0.00000,0.03050,0.97893,-0.18947,0.0,2023,6,7,15,53,44,953
44.77230,0.08138,-0.07945,0.00000,0.03221,0.97710,-0.18898,0.0,2023,6,7,15,53,44,963
44.77240,-0.00612,-0.16695,0.00000,0.03074,0.97588,-0.18629,0.0,2023,6,7,15,53,44,973
44.77250,0.08138,0.07805,0.00000,0.03172,0.97551,-0.18873,0.0,2023,6,7,15,53,44,983
44.77260,0.15138,-0.13195,0.00000,0.03099,0.97820,-0.18788,0.0,2023,6,7,15,53,44,993
44.77270,-0.04112,-0.00945,0.00000,0.03282,0.97637,-0.18642,0.0,2023,6,7,15,53,44,3
44.77280,-0.04112,-0.06195,0.00000,0.03233,0.97551,-0.18703,0.0,2023,6,7,15,53,44,13
44.77290,-0.07612,0.23555,0.00000,0.03270,0.97722,-0.18703,0.0,2023,6,7,15,53,44,23
44.77300,0.02888,0.18305,0.00000,0.02904,0.97527,-0.18873,0.0,2023,6,7,15,53,44,33
