#2023/06/07 16:55:45
time,wx,wy,wz,ax,ay,az,yy,MM,dd,hh,mm,ss,ms
47.48350,0.06038,0.08942,0.00000,0.03148,0.97649,-0.18617,0.0,2023,6,7,16,55,46,213
47.48360,-0.06212,0.00192,0.00000,0.03013,0.97661,-0.18959,0.0,2023,6,7,16,55,46,223
47.48370,0.11288,-0.20808,0.00000,0.03257,0.97441,-0.18788,0.0,2023,6,7,16,55,46,234
47.48380,-0.04462,0.17692,0.00000,0.03087,0.97710,-0.18971,0.0,2023,6,7,16,55,46,244
47.48390,-0.06212,0.08942,0.00000,0.02989,0.97734,-0.19044,0.0,2023,6,7,16,55,46,255
47.48400,0.09538,-0.05058,0.00000,0.02904,0.97759,-0.18788,0.0,2023,6,7,16,55,46,265
47.48410,-0.06212,0.14192,0.00000,0.03428,0.97698,-0.18910,0.0,2023,6,7,16,55,46,276
47.48420,-0.25462,0.00192,0.00000,0.03087,0.97393,-0.18764,0.0,2023,6,7,16,55,46,286
47.48430,-0.02712,0.00192,0.00000,0.03172,0.97820,-0.18800,0.0,2023,6,7,16,55,46,297
47.48440,0.02538,-0.19058,0.00000,0.03160,0.97576,-0.18886,0.0,2023,6,7,16,55,46,307
47.48450,0.14788,-0.33058,0.00000,0.03148,0.97673,-0.18764,0.0,2023,6,7,16,55,46,318
47.48460,0.09538,-0.20808,0.00000,0.03221,0.97612,-0.18629,0.0,2023,6,7,16,55,46,328
47.48470,0.00788,-0.22558,0.00000,0.02843,0.97539,-0.19069,0.0,2023,6,7,16,55,46,339
47.48480,0.00788,-0.05058,0.00000,0.03087,0.97490,-0.18995,0.0,2023,6,7,16,55,46,349
47.48490,-0.00962,-0.05058,0.00000,0.03209,0.97673,-0.18654,0.0,2023,6,7,16,55,46,360
47.48500,-0.04462,-0.17308,0.00000,0.03306,0.97502,-0.18886,0.0,2023,6,7,16,55,46,370
47.48510,0.02538,0.00192,0.00000,0.03440,0.97698,-0.19142,0.0,2023,6,7,16,55,46,381
47.48520,-0.07962,0.00192,0.00000,0.03160,0.97466,-0.18642,0.0,2023,6,7,16,55,46,391
47.48530,0.13038,0.01942,0.00000,0.03038,0.97454,-0.18873,0.0,2023,6,7,16,55,46,402
47.48540,-0.09712,0.00192,0.00000,0.03038,0.97612,-0.18849,0.0,2023,6,7,16,55,46,412
47.48550,-0.13212,-0.01558,0.00000,0.03318,0.97454,-0.18861,0.0,2023,6,7,16,55,46,423
47.48560,0.21788,-0.06808,0.00000,0.03087,0.97685,-0.18898,0.0,2023,6,7,16,55,46,433
47.48570,-0.07962,-0.01558,0.00000,0.03184,0.97795,-0.18947,0.0,2023,6,7,16,55,46,444
47.48580,0.07788,-0.29558,0.00000,0.03050,0.97502,-0.18959,0.0,2023,6,7,16,55,46,454
47.48590,0.11288,0.08942,0.00000,0.03160,0.97649,-0.19154,0.0,2023,6,7,16,55,46,465
47.48600,-0.13212,0.29942,0.00000,0.03245,0.97722,-0.18922,0.0,2023,6,7,16,55,46,475
47.48610,-0.04462,0.10692,0.00000,0.03123,0.97746,-0.18934,0.0,2023,6,7,16,55,46,486
47.48620,-0.07962,0.21192,0.00000,0.03209,0.97441,-0.18947,0.0,2023,6,7,16,55,46,496
47.48630,-0.13212,0.15942,0.00000,0.03184,0.97685,-0.19008,0.0,2023,6,7,16,55,46,507
47.48640,-0.11462,0.01942,0.00000,0.03367,0.97576,-0.19008,0.0,2023,6,7,16,55,46,517
47.48650,-0.18462,-0.03308,0.00000,0.03038,0.97661,-0.18934,0.0,2023,6,7,16,55,46,528
47.48660,0.13038,-0.15558,0.00000,0.02977,0.97661,-0.19081,0.0,2023,6,7,16,55,46,538
47.48670,-0.02712,0.00192,0.00000,0.03196,0.97600,-0.18678,0.0,2023,6,7,16,55,46,549
47.48680,-0.07962,0.01942,0.00000,0.03379,0.97454,-0.18861,0.0,2023,6,7,16,55,46,559
47.48690,0.02538,0.12442,0.00000,0.03050,0.97673,-0.19020,0.0,2023,6,7,16,55,46,570
47.48700,-0.04462,0.12442,0.00000,0.03160,0.97454,-0.18776,0.0,2023,6,7,16,55,46,580
47.48710,-0.09712,0.08942,0.00000,0.03038,0.97673,-0.19008,0.0,2023,6,7,16,55,46,591
47.48720,-0.04462,0.12442,0.00000,0.03294,0.97380,-0.18934,0.0,2023,6,7,16,55,46,601
47.48730,-0.14962,-0.12058,0.00000,0.03013,0.97783,-0.18837,0.0,2023,6,7,16,55,46,612
47.48740,-0.07962,-0.24308,0.00000,0.03013,0.97588,-0.18922,0.0,2023,6,7,16,55,46,622
47.48750,-0.14962,0.05442,0.00000,0.03087,0.97466,-0.18983,0.0,2023,6,7,16,55,46,633
47.48760,-0.04462,-0.24308,0.00000,0.03062,0.97576,-0.18898,0.0,2023,6,7,16,55,46,643
47.48770,0.02538,0.08942,0.00000,0.03148,0.97746,-0.18959,0.0,2023,6,7,16,55,46,654
47.48780,-0.02712,0.03692,0.00000,0.03111,0.97527,-0.18800,0.0,2023,6,7,16,55,46,664
47.48790,0.02538,-0.03308,0.00000,0.03087,0.97502,-0.18983,0.0,2023,6,7,16,55,46,675
47.48800,-0.00962,-0.08558,0.00000,0.02965,0.97661,-0.18861,0.0,2023,6,7,16,55,46,685
47.48810,-0.07962,0.01942,0.00000,0.02904,0.97832,-0.18934,0.0,2023,6,7,16,55,46,696
47.48820,0.13038,-0.08558,0.00000,0.03184,0.97527,-0.18910,0.0,2023,6,7,16,55,46,706
47.48830,-0.00962,0.10692,0.00000,0.03074,0.97441,-0.18873,0.0,2023,6,7,16,55,46,717
47.48840,-0.18462,-0.17308,0.00000,0.03257,0.97844,-0.18849,0.0,2023,6,7,16,55,46,727
47.48850,-0.02712,-0.01558,0.00000,0.03038,0.97734,-0.18751,0.0,2023,6,7,16,55,46,738
47.48860,-0.18462,0.03692,0.00000,0.03160,0.97624,-0.18849,0.0,2023,6,7,16,55,46,748
47.48870,0.07788,-0.10308,0.00000,0.03221,0.97612,-0.18764,0.0,2023,6,7,16,55,46,759
47.48880,0.23538,-0.27808,0.00000,0.03099,0.97722,-0.18971,0.0,2023,6,7,16,55,46,769
47.48890,-0.00962,0.03692,0.00000,0.03111,0.97893,-0.19056,0.0,2023,6,7,16,55,46,780
47.48900,0.11288,0.03692,0.00000,0.03172,0.97783,-0.18727,0.0,2023,6,7,16,55,46,790
47.48910,-0.11462,-0.05058,0.00000,0.03148,0.97490,-0.19044,0.0,2023,6,7,16,55,46,801
47.48920,-0.18462,0.03692,0.00000,0.03026,0.97429,-0.18666,0.0,2023,6,7,16,55,46,811
47.48930,-0.06212,-0.06808,0.00000,0.03233,0.97563,-0.18678,0.0,2023,6,7,16,55,46,822
47.48940,0.27038,0.07192,0.00000,0.03367,0.97661,-0.19093,0.0,2023,6,7,16,55,46,832
47.48950,0.13038,0.12442,0.00000,0.03221,0.97527,-0.19203,0.0,2023,6,7,16,55,46,843
47.48960,-0.11462,-0.05058,0.00000,0.03062,0.97771,-0.18764,0.0,2023,6,7,16,55,46,853
47.48970,-0.00962,-0.01558,0.00000,0.03270,0.97551,-0.18825,0.0,2023,6,7,16,55,46,864
47.48980,-0.00962,-0.10308,0.00000,0.03233,0.97746,-0.18776,0.0,2023,6,7,16,55,46,874
47.48990,-0.11462,0.12442,0.00000,0.03270,0.97881,-0.19008,0.0,2023,6,7,16,55,46,885
47.49000,0.00788,-0.19058,0.00000,0.03270,0.97710,-0.18849,0.0,2023,6,7,16,55,46,895
47.49010,-0.04462,0.15942,0.00000,0.03245,0.97515,-0.18922,0.0,2023,6,7,16,55,46,906
47.49020,-0.04462,0.08942,0.00000,0.03270,0.97698,-0.18788,0.0,2023,6,7,16,55,46,916
47.49030,-0.02712,0.12442,0.00000,0.02965,0.97771,-0.19081,0.0,2023,6,7,16,55,46,927
47.49040,0.04288,0.01942,0.00000,0.03111,0.97576,-0.18898,0.0,2023,6,7,16,55,46,937
47.49050,-0.18462,-0.05058,0.00000,0.03209,0.97600,-0.18776,0.0,2023,6,7,16,55,46,948
47.49060,-0.27212,-0.03308,0.00000,0.03099,0.97722,-0.19020,0.0,2023,6,7,16,55,47,8
47.49070,-0.00962,-0.10308,0.00000,0.03148,0.97551,-0.18959,0.0,2023,6,7,16,55,47,19
47.49080,-0.06212,0.03692,0.00000,0.03209,0.97795,-0.19020,0.0,2023,6,7,16,55,47,29
47.49090,-0.06212,0.03692,0.00000,0.03050,0.97454,-0.18873,0.0,2023,6,7,16,55,47,40
47.49100,0.23538,-0.26058,0.00000,0.03135,0.97551,-0.19105,0.0,2023,6,7,16,55,47,50
47.49110,-0.02712,-0.01558,0.00000,0.03111,0.97600,-0.18617,0.0,2023,6,7,16,55,47,61
47.49120,-0.07962,0.14192,0.00000,0.03050,0.97600,-0.18947,0.0,2023,6,7,16,55,47,71
47.49130,-0.02712,0.00192,0.00000,0.03221,0.97637,-0.18898,0.0,2023,6,7,16,55,47,82
47.49140,0.09538,0.10692,0.00000,0.03160,0.97820,-0.18837,0.0,2023,6,7,16,55,47,92
47.49150,-0.09712,-0.06808,0.00000,0.03196,0.97576,-0.19020,0.0,2023,6,7,16,55,47,103
47.49160,0.11288,-0.01558,0.00000,0.03392,0.97734,-0.18764,0.0,2023,6,7,16,55,47,113
47.49170,0.02538,-0.06808,0.00000,0.02855,0.97612,-0.19105,0.0,2023,6,7,16,55,47,124
47.49180,-0.00962,-0.13808,0.00000,0.03306,0.97490,-0.18983,0.0,2023,6,7,16,55,47,134
47.49190,-0.07962,0.07192,0.00000,0.03026,0.97600,-0.18703,0.0,2023,6,7,16,55,47,145
47.49200,0.06038,-0.08558,0.00000,0.03074,0.97551,-0.19130,0.0,2023,6,7,16,55,47,155
47.49210,0.06038,-0.08558,0.00000,0.03294,0.97746,-0.18898,0.0,2023,6,7,16,55,47,166
47.49220,-0.00962,0.10692,0.00000,0.02977,0.97429,-0.18837,0.0,2023,6,7,16,55,47,176
47.49230,0.09538,-0.03308,0.00000,0.03001,0.97759,-0.19117,0.0,2023,6,7,16,55,47,187
47.49240,-0.09712,0.10692,0.00000,0.03062,0.97710,-0.19032,0.0,2023,6,7,16,55,47,197
47.49250,0.00788,0.05442,0.00000,0.03038,0.97600,-0.18861,0.0,2023,6,7,16,55,47,208
47.49260,0.04288,0.03692,0.00000,0.03196,0.97771,-0.19069,0.0,2023,6,7,16,55,47,218
47.49270,-0.04462,-0.13808,0.00000,0.03074,0.97588,-0.18764,0.0,2023,6,7,16,55,47,229
47.49280,-0.02712,-0.22558,0.00000,0.03392,0.97685,-0.18934,0.0,2023,6,7,16,55,47,239
47.49290,-0.00962,-0.22558,0.00000,0.03160,0.97649,-0.18861,0.0,2023,6,7,16,55,47,250
47.49300,-0.02712,-0.10308,0.00000,0.03087,0.97673,-0.18715,0.0,2023,6,7,16,55,47,260
47.49310,0.13038,-0.03308,0.00000,0.03099,0.97588,-0.18873,0.0,2023,6,7,16,55,47,271
47.49320,0.06038,0.05442,0.00000,0.03184,0.97807,-0.19032,0.0,2023,6,7,16,55,47,281
47.49330,-0.04462,0.08942,0.00000,0.02989,0.97612,-0.19008,0.0,2023,6,7,16,55,47,292
47.49340,0.00788,0.03692,0.00000,0.03294,0.97624,-0.18910,0.0,2023,6,7,16,55,47,302
47.49350,-0.07962,-0.22558,0.00000,0.03233,0.97600,-0.19032,0.0,2023,6,7,16,55,47,313
47.49360,-0.11462,-0.03308,0.00000,0.03148,0.97759,-0.18947,0.0,2023,6,7,16,55,47,323
47.49370,0.00788,0.00192,0.00000,0.02989,0.97795,-0.18703,0.0,2023,6,7,16,55,47,334
47.49380,-0.07962,0.12442,0.00000,0.03245,0.97588,-0.18812,0.0,2023,6,7,16,55,47,344
47.49390,0.18288,-0.06808,0.00000,0.03196,0.97393,-0.18849,0.0,2023,6,7,16,55,47,355
47.49400,0.07788,-0.22558,0.00000,0.03209,0.97588,-0.19044,0.0,2023,6,7,16,55,47,365
47.49410,0.11288,-0.06808,0.00000,0.02940,0.97527,-0.19056,0.0,2023,6,7,16,55,47,376
47.49420,-0.07962,-0.03308,0.00000,0.03148,0.97649,-0.18959,0.0,2023,6,7,16,55,47,386
47.49430,0.09538,0.08942,0.00000,0.03026,0.97222,-0.18922,0.0,2023,6,7,16,55,47,397
47.49440,0.02538,-0.15558,0.00000,0.03416,0.98076,-0.18922,0.0,2023,6,7,16,55,47,407
47.49450,0.11288,-0.08558,0.00000,0.03355,0.97551,-0.18959,0.0,2023,6,7,16,55,47,418
47.49460,0.20038,-0.27808,0.00000,0.03221,0.97832,-0.19154,0.0,2023,6,7,16,55,47,428
47.49470,-0.20212,-0.03308,0.00000,0.03367,0.97685,-0.19044,0.0,2023,6,7,16,55,47,439
47.49480,-0.18462,-0.24308,0.00000,0.03501,0.97429,-0.18959,0.0,2023,6,7,16,55,47,449
47.49490,0.11288,-0.03308,0.00000,0.03135,0.97527,-0.18922,0.0,2023,6,7,16,55,47,460
47.49500,0.02538,-0.13808,0.00000,0.02879,0.97490,-0.18947,0.0,2023,6,7,16,55,47,470
47.49510,0.28788,-0.10308,0.00000,0.02952,0.97502,-0.19105,0.0,2023,6,7,16,55,47,481
47.49520,-0.28962,-0.06808,0.00000,0.02891,0.97637,-0.18568,0.0,2023,6,7,16,55,47,491
47.49530,-0.02712,0.03692,0.00000,0.03038,0.97478,-0.19105,0.0,2023,6,7,16,55,47,502
47.49540,0.18288,0.00192,0.00000,0.03184,0.97807,-0.18812,0.0,2023,6,7,16,55,47,512
47.49550,-0.21962,0.08942,0.00000,0.03123,0.97637,-0.18398,0.0,2023,6,7,16,55,47,523
47.49560,0.00788,-0.01558,0.00000,0.03172,0.97368,-0.19032,0.0,2023,6,7,16,55,47,533
47.49570,-0.02712,0.00192,0.00000,0.02940,0.97393,-0.19069,0.0,2023,6,7,16,55,47,544
47.49580,-0.11462,0.12442,0.00000,0.03196,0.97368,-0.18910,0.0,2023,6,7,16,55,47,554
47.49590,-0.02712,-0.05058,0.00000,0.03123,0.97722,-0.19069,0.0,2023,6,7,16,55,47,565
47.49600,0.06038,-0.17308,0.00000,0.03172,0.97502,-0.18898,0.0,2023,6,7,16,55,47,575
47.49610,-0.13212,0.01942,0.00000,0.03148,0.97820,-0.19105,0.0,2023,6,7,16,55,47,586
47.49620,0.25288,-0.08558,0.00000,0.03440,0.97673,-0.18947,0.0,2023,6,7,16,55,47,596
47.49630,-0.06212,0.12442,0.00000,0.03343,0.97612,-0.18605,0.0,2023,6,7,16,55,47,607
47.49640,0.02538,0.01942,0.00000,0.03099,0.97698,-0.18898,0.0,2023,6,7,16,55,47,617
47.49650,0.23538,-0.01558,0.00000,0.03087,0.97881,-0.18947,0.0,2023,6,7,16,55,47,628
47.49660,-0.28962,0.12442,0.00000,0.03172,0.97649,-0.18849,0.0,2023,6,7,16,55,47,638
47.49670,0.09538,-0.10308,0.00000,0.02940,0.97746,-0.19020,0.0,2023,6,7,16,55,47,649
47.49680,0.09538,0.08942,0.00000,0.03172,0.97380,-0.18825,0.0,2023,6,7,16,55,47,659
47.49690,0.00788,-0.08558,0.00000,0.03233,0.97527,-0.18605,0.0,2023,6,7,16,55,47,670
47.49700,-0.11462,0.07192,0.00000,0.03221,0.97637,-0.18849,0.0,2023,6,7,16,55,47,680
47.49710,-0.00962,0.00192,0.00000,0.02904,0.97441,-0.18703,0.0,2023,6,7,16,55,47,691
47.49720,0.06038,-0.13808,0.00000,0.03172,0.97454,-0.18812,0.0,2023,6,7,16,55,47,701
47.49730,-0.07962,0.03692,0.00000,0.03013,0.97539,-0.19056,0.0,2023,6,7,16,55,47,712
47.49740,-0.13212,-0.03308,0.00000,0.03245,0.97478,-0.18959,0.0,2023,6,7,16,55,47,722
47.49750,-0.20212,-0.03308,0.00000,0.03318,0.97856,-0.18898,0.0,2023,6,7,16,55,47,733
47.49760,-0.00962,0.05442,0.00000,0.03245,0.97637,-0.18776,0.0,2023,6,7,16,55,47,743
47.49770,0.25288,0.10692,0.00000,0.03221,0.97527,-0.18995,0.0,2023,6,7,16,55,47,754
47.49780,0.00788,-0.05058,0.00000,0.02965,0.97612,-0.18837,0.0,2023,6,7,16,55,47,764
47.49790,-0.04462,0.14192,0.00000,0.03062,0.97917,-0.18788,0.0,2023,6,7,16,55,47,775
47.49800,-0.04462,0.00192,0.00000,0.03306,0.97783,-0.18886,0.0,2023,6,7,16,55,47,785
47.49810,-0.04462,-0.13808,0.00000,0.03001,0.97417,-0.18849,0.0,2023,6,7,16,55,47,796
47.49820,0.11288,0.14192,0.00000,0.03343,0.97295,-0.18922,0.0,2023,6,7,16,55,47,806
47.49830,-0.02712,-0.01558,0.00000,0.03184,0.97746,-0.18947,0.0,2023,6,7,16,55,47,817
47.49840,0.02538,0.00192,0.00000,0.03343,0.97490,-0.18971,0.0,2023,6,7,16,55,47,827
47.49850,-0.00962,-0.17308,0.00000,0.03026,0.97795,-0.18898,0.0,2023,6,7,16,55,47,838
47.49860,-0.04462,0.01942,0.00000,0.03111,0.97551,-0.18715,0.0,2023,6,7,16,55,47,848
47.49870,-0.04462,-0.03308,0.00000,0.03148,0.97624,-0.18715,0.0,2023,6,7,16,55,47,859
47.49880,-0.00962,-0.13808,0.00000,0.03172,0.97466,-0.18873,0.0,2023,6,7,16,55,47,869
47.49890,-0.04462,0.03692,0.00000,0.03294,0.97734,-0.18800,0.0,2023,6,7,16,55,47,880
47.49900,-0.00962,-0.08558,0.00000,0.03026,0.97637,-0.18934,0.0,2023,6,7,16,55,47,890
47.49910,-0.02712,0.08942,0.00000,0.03233,0.97612,-0.18898,0.0,2023,6,7,16,55,47,901
47.49920,-0.07962,0.00192,0.00000,0.03294,0.97576,-0.18654,0.0,2023,6,7,16,55,47,911
47.49930,-0.02712,-0.10308,0.00000,0.03282,0.97576,-0.19032,0.0,2023,6,7,16,55,47,922
47.49940,0.07788,-0.08558,0.00000,0.03050,0.97527,-0.19142,0.0,2023,6,7,16,55,47,932
47.49950,-0.04462,0.10692,0.00000,0.03148,0.97539,-0.18568,0.0,2023,6,7,16,55,47,943
47.49960,-0.13212,0.07192,0.00000,0.03245,0.97600,-0.18971,0.0,2023,6,7,16,55,48,3
47.49970,0.20038,0.12442,0.00000,0.03062,0.97637,-0.18995,0.0,2023,6,7,16,55,48,14
47.49980,0.11288,-0.13808,0.00000,0.02977,0.97551,-0.18739,0.0,2023,6,7,16,55,48,24
47.49990,-0.06212,-0.05058,0.00000,0.03099,0.97929,-0.18995,0.0,2023,6,7,16,55,48,35
47.50000,-0.04462,-0.06808,0.00000,0.03306,0.97490,-0.18886,0.0,2023,6,7,16,55,48,45
47.50010,0.00788,-0.15558,0.00000,0.03392,0.97588,-0.18715,0.0,2023,6,7,16,55,48,56
47.50020,-0.21962,0.05442,0.00000,0.03111,0.97868,-0.18764,0.0,2023,6,7,16,55,48,66
47.50030,0.25288,-0.06808,0.00000,0.02940,0.97844,-0.18825,0.0,2023,6,7,16,55,48,77
47.50040,-0.00962,-0.01558,0.00000,0.03221,0.97563,-0.18776,0.0,2023,6,7,16,55,48,87
47.50050,-0.16712,0.05442,0.00000,0.03148,0.97527,-0.19056,0.0,2023,6,7,16,55,48,98
47.50060,0.00788,-0.06808,0.00000,0.03282,0.97881,-0.19044,0.0,2023,6,7,16,55,48,108
47.50070,-0.16712,0.05442,0.00000,0.03123,0.97759,-0.18995,0.0,2023,6,7,16,55,48,119
47.50080,0.07788,-0.13808,0.00000,0.03172,0.97783,-0.18849,0.0,2023,6,7,16,55,48,129
47.50090,-0.02712,0.10692,0.00000,0.03074,0.97454,-0.18825,0.0,2023,6,7,16,55,48,140
47.50100,-0.07962,0.26442,0.00000,0.03062,0.97734,-0.19130,0.0,2023,6,7,16,55,48,150
47.50110,-0.04462,-0.01558,0.00000,0.03160,0.97441,-0.18788,0.0,2023,6,7,16,55,48,161
47.50120,-0.06212,-0.12058,0.00000,0.03294,0.97722,-0.18800,0.0,2023,6,7,16,55,48,171
47.50130,-0.25462,0.19442,0.00000,0.03233,0.97783,-0.18947,0.0,2023,6,7,16,55,48,182
47.50140,0.07788,0.03692,0.00000,0.02940,0.97368,-0.18898,0.0,2023,6,7,16,55,48,192
47.50150,-0.14962,-0.03308,0.00000,0.03013,0.97673,-0.18898,0.0,2023,6,7,16,55,48,203
47.50160,0.00788,0.14192,0.00000,0.03172,0.97612,-0.18934,0.0,2023,6,7,16,55,48,213
47.50170,0.07788,0.01942,0.00000,0.03123,0.97783,-0.18983,0.0,2023,6,7,16,55,48,224
47.50180,0.00788,0.10692,0.00000,0.03062,0.97722,-0.18898,0.0,2023,6,7,16,55,48,234
47.50190,0.16538,-0.17308,0.00000,0.03294,0.97454,-0.18886,0.0,2023,6,7,16,55,48,245
47.50200,0.14788,0.03692,0.00000,0.03306,0.97710,-0.18910,0.0,2023,6,7,16,55,48,255
47.50210,0.16538,-0.15558,0.00000,0.03074,0.97466,-0.18898,0.0,2023,6,7,16,55,48,266
47.50220,-0.11462,0.08942,0.00000,0.03233,0.97685,-0.18910,0.0,2023,6,7,16,55,48,276
47.50230,0.11288,-0.17308,0.00000,0.03087,0.97649,-0.19069,0.0,2023,6,7,16,55,48,287
47.50240,0.00788,0.05442,0.00000,0.03270,0.97856,-0.18788,0.0,2023,6,7,16,55,48,297
47.50250,0.04288,-0.05058,0.00000,0.03196,0.97588,-0.18861,0.0,2023,6,7,16,55,48,308
47.50260,-0.00962,0.08942,0.00000,0.02989,0.97710,-0.18959,0.0,2023,6,7,16,55,48,318
47.50270,-0.13212,-0.03308,0.00000,0.03233,0.97685,-0.19044,0.0,2023,6,7,16,55,48,329
47.50280,-0.02712,0.01942,0.00000,0.03148,0.97685,-0.18788,0.0,2023,6,7,16,55,48,339
47.50290,-0.09712,0.03692,0.00000,0.03257,0.97600,-0.18776,0.0,2023,6,7,16,55,48,350
47.50300,-0.23712,-0.01558,0.00000,0.03074,0.97856,-0.19093,0.0,2023,6,7,16,55,48,360
47.50310,0.21788,0.05442,0.00000,0.03099,0.97600,-0.18873,0.0,2023,6,7,16,55,48,371
47.50320,-0.00962,0.01942,0.00000,0.03270,0.97441,-0.18959,0.0,2023,6,7,16,55,48,381
47.50330,-0.00962,0.12442,0.00000,0.03087,0.97698,-0.19093,0.0,2023,6,7,16,55,48,392
47.50340,0.14788,-0.13808,0.00000,0.03294,0.97441,-0.18995,0.0,2023,6,7,16,55,48,402
47.50350,0.23538,-0.26058,0.00000,0.03050,0.97551,-0.18764,0.0,2023,6,7,16,55,48,413
47.50360,0.00788,-0.20808,0.00000,0.03343,0.97734,-0.19008,0.0,2023,6,7,16,55,48,423
47.50370,0.13038,-0.03308,0.00000,0.03196,0.97759,-0.18934,0.0,2023,6,7,16,55,48,434
47.50380,0.14788,0.03692,0.00000,0.03123,0.97661,-0.18886,0.0,2023,6,7,16,55,48,444
47.50390,0.18288,-0.01558,0.00000,0.03148,0.97515,-0.18861,0.0,2023,6,7,16,55,48,455
47.50400,-0.00962,0.01942,0.00000,0.03196,0.97649,-0.18629,0.0,2023,6,7,16,55,48,465
47.50410,-0.09712,-0.08558,0.00000,0.03453,0.97527,-0.18837,0.0,2023,6,7,16,55,48,476
47.50420,0.13038,0.03692,0.00000,0.03184,0.97746,-0.19178,0.0,2023,6,7,16,55,48,486
47.50430,-0.06212,-0.01558,0.00000,0.03172,0.97551,-0.18934,0.0,2023,6,7,16,55,48,497
47.50440,-0.02712,0.05442,0.00000,0.03257,0.97685,-0.18922,0.0,2023,6,7,16,55,48,507
47.50450,0.09538,-0.06808,0.00000,0.03196,0.97868,-0.19008,0.0,2023,6,7,16,55,48,518
47.50460,-0.25462,0.07192,0.00000,0.03282,0.97490,-0.18788,0.0,2023,6,7,16,55,48,528
47.50470,-0.02712,-0.13808,0.00000,0.03331,0.97576,-0.18959,0.0,2023,6,7,16,55,48,539
47.50480,0.13038,0.05442,0.00000,0.03196,0.97807,-0.18971,0.0,2023,6,7,16,55,48,549
47.50490,0.20038,-0.06808,0.00000,0.03294,0.97588,-0.18983,0.0,2023,6,7,16,55,48,560
47.50500,-0.14962,-0.06808,0.00000,0.02989,0.97734,-0.18800,0.0,2023,6,7,16,55,48,570
47.50510,0.04288,-0.03308,0.00000,0.03135,0.97612,-0.18983,0.0,2023,6,7,16,55,48,581
47.50520,-0.02712,0.12442,0.00000,0.03087,0.97588,-0.19020,0.0,2023,6,7,16,55,48,591
47.50530,0.25288,0.03692,0.00000,0.02928,0.97380,-0.18849,0.0,2023,6,7,16,55,48,602
47.50540,-0.21962,0.00192,0.00000,0.03221,0.97637,-0.18727,0.0,2023,6,7,16,55,48,612
47.50550,-0.09712,0.00192,0.00000,0.02891,0.97563,-0.19215,0.0,2023,6,7,16,55,48,623
47.50560,0.13038,-0.03308,0.00000,0.03440,0.97356,-0.19032,0.0,2023,6,7,16,55,48,633
47.50570,-0.06212,-0.22558,0.00000,0.03440,0.97563,-0.18520,0.0,2023,6,7,16,55,48,644
47.50580,-0.13212,0.08942,0.00000,0.02989,0.97466,-0.19117,0.0,2023,6,7,16,55,48,654
47.50590,0.00788,0.08942,0.00000,0.03135,0.97685,-0.19130,0.0,2023,6,7,16,55,48,665
47.50600,0.00788,-0.08558,0.00000,0.02940,0.97624,-0.18837,0.0,2023,6,7,16,55,48,675
47.50610,-0.20212,0.01942,0.00000,0.03148,0.97661,-0.19056,0.0,2023,6,7,16,55,48,686
47.50620,0.20038,0.00192,0.00000,0.02965,0.97600,-0.18849,0.0,2023,6,7,16,55,48,696
47.50630,0.02538,0.15942,0.00000,0.03209,0.97954,-0.18690,0.0,2023,6,7,16,55,48,707
47.50640,-0.00962,-0.05058,0.00000,0.03135,0.97417,-0.18642,0.0,2023,6,7,16,55,48,717
47.50650,0.09538,0.10692,0.00000,0.03270,0.97673,-0.19044,0.0,2023,6,7,16,55,48,728
47.50660,-0.09712,0.07192,0.00000,0.03196,0.97588,-0.18947,0.0,2023,6,7,16,55,48,738
47.50670,-0.09712,0.05442,0.00000,0.03331,0.97551,-0.18947,0.0,2023,6,7,16,55,48,749
47.50680,0.11288,-0.27808,0.00000,0.03404,0.97820,-0.18898,0.0,2023,6,7,16,55,48,759
47.50690,0.02538,-0.13808,0.00000,0.03038,0.97393,-0.18849,0.0,2023,6,7,16,55,48,770
47.50700,0.06038,-0.03308,0.00000,0.03196,0.97759,-0.18959,0.0,2023,6,7,16,55,48,780
47.50710,0.13038,-0.24308,0.00000,0.03087,0.97417,-0.19105,0.0,2023,6,7,16,55,48,791
47.50720,-0.02712,0.10692,0.00000,0.03087,0.97551,-0.19142,0.0,2023,6,7,16,55,48,801
47.50730,0.13038,-0.06808,0.00000,0.03026,0.97661,-0.18971,0.0,2023,6,7,16,55,48,812
47.50740,0.00788,-0.13808,0.00000,0.03209,0.97649,-0.18800,0.0,2023,6,7,16,55,48,822
47.50750,-0.07962,-0.13808,0.00000,0.03111,0.97551,-0.19008,0.0,2023,6,7,16,55,48,833
47.50760,0.21788,0.01942,0.00000,0.03184,0.97393,-0.19105,0.0,2023,6,7,16,55,48,843
47.50770,0.09538,0.00192,0.00000,0.03038,0.97759,-0.18922,0.0,2023,6,7,16,55,48,854
47.50780,-0.20212,0.15942,0.00000,0.03245,0.97685,-0.18898,0.0,2023,6,7,16,55,48,864
47.50790,0.04288,-0.01558,0.00000,0.03062,0.97649,-0.19056,0.0,2023,6,7,16,55,48,875
47.50800,-0.04462,-0.03308,0.00000,0.03087,0.97722,-0.18873,0.0,2023,6,7,16,55,48,885
47.50810,-0.06212,-0.01558,0.00000,0.03099,0.97454,-0.18800,0.0,2023,6,7,16,55,48,896
47.50820,-0.11462,-0.08558,0.00000,0.03050,0.97576,-0.19069,0.0,2023,6,7,16,55,48,906
47.50830,-0.07962,0.07192,0.00000,0.03123,0.97710,-0.18910,0.0,2023,6,7,16,55,48,917
47.50840,0.18288,-0.15558,0.00000,0.03221,0.97771,-0.18849,0.0,2023,6,7,16,55,49,7
47.50850,-0.14962,0.05442,0.00000,0.03087,0.97685,-0.18886,0.0,2023,6,7,16,55,49,18
47.50860,-0.04462,0.15942,0.00000,0.03221,0.97649,-0.18934,0.0,2023,6,7,16,55,49,28
47.50870,-0.07962,-0.05058,0.00000,0.03343,0.97832,-0.18837,0.0,2023,6,7,16,55,49,39
47.50880,-0.04462,-0.15558,0.00000,0.03111,0.97807,-0.18898,0.0,2023,6,7,16,55,49,49
47.50890,0.14788,-0.10308,0.00000,0.03257,0.97746,-0.18849,0.0,2023,6,7,16,55,49,60
47.50900,-0.09712,-0.12058,0.00000,0.03245,0.97795,-0.18922,0.0,2023,6,7,16,55,49,70
47.50910,0.21788,-0.12058,0.00000,0.02855,0.97795,-0.19032,0.0,2023,6,7,16,55,49,81
47.50920,-0.06212,0.10692,0.00000,0.03428,0.97551,-0.18837,0.0,2023,6,7,16,55,49,91
47.50930,-0.02712,0.15942,0.00000,0.03135,0.97661,-0.18556,0.0,2023,6,7,16,55,49,102
47.50940,-0.07962,-0.05058,0.00000,0.03440,0.97515,-0.18788,0.0,2023,6,7,16,55,49,112
47.50950,0.00788,-0.03308,0.00000,0.02965,0.97600,-0.18751,0.0,2023,6,7,16,55,49,123
47.50960,0.18288,-0.06808,0.00000,0.03001,0.97624,-0.18837,0.0,2023,6,7,16,55,49,133
47.50970,-0.11462,-0.08558,0.00000,0.03379,0.97722,-0.18751,0.0,2023,6,7,16,55,49,144
47.50980,0.13038,0.07192,0.00000,0.03221,0.97429,-0.18910,0.0,2023,6,7,16,55,49,154
47.50990,-0.25462,0.22942,0.00000,0.03038,0.97502,-0.18934,0.0,2023,6,7,16,55,49,165
47.51000,-0.00962,0.10692,0.00000,0.03087,0.97661,-0.18715,0.0,2023,6,7,16,55,49,175
47.51010,0.06038,0.07192,0.00000,0.03282,0.97539,-0.18605,0.0,2023,6,7,16,55,49,186
47.51020,0.14788,-0.13808,0.00000,0.03111,0.97746,-0.18947,0.0,2023,6,7,16,55,49,196
47.51030,0.04288,-0.20808,0.00000,0.03148,0.97637,-0.18812,0.0,2023,6,7,16,55,49,207
47.51040,-0.07962,-0.05058,0.00000,0.02916,0.97612,-0.18764,0.0,2023,6,7,16,55,49,217
47.51050,0.11288,0.10692,0.00000,0.03123,0.97661,-0.19069,0.0,2023,6,7,16,55,49,228
47.51060,-0.00962,0.03692,0.00000,0.03123,0.97759,-0.18910,0.0,2023,6,7,16,55,49,238
47.51070,0.16538,-0.01558,0.00000,0.03160,0.97746,-0.19081,0.0,2023,6,7,16,55,49,249
47.51080,-0.07962,-0.08558,0.00000,0.03294,0.97783,-0.19105,0.0,2023,6,7,16,55,49,259
47.51090,-0.06212,-0.10308,0.00000,0.03099,0.97588,-0.18825,0.0,2023,6,7,16,55,49,270
47.51100,-0.23712,0.08942,0.00000,0.03233,0.97673,-0.18800,0.0,2023,6,7,16,55,49,280
47.51110,-0.07962,-0.10308,0.00000,0.03099,0.97624,-0.18922,0.0,2023,6,7,16,55,49,291
47.51120,0.06038,-0.08558,0.00000,0.03013,0.97637,-0.18983,0.0,2023,6,7,16,55,49,301
47.51130,-0.06212,-0.03308,0.00000,0.03209,0.97673,-0.18849,0.0,2023,6,7,16,55,49,312
47.51140,-0.11462,0.15942,0.00000,0.02965,0.97844,-0.18995,0.0,2023,6,7,16,55,49,322
47.51150,0.04288,0.08942,0.00000,0.03221,0.97563,-0.18971,0.0,2023,6,7,16,55,49,333
47.51160,-0.02712,0.14192,0.00000,0.03087,0.97624,-0.18739,0.0,2023,6,7,16,55,49,343
47.51170,-0.04462,-0.10308,0.00000,0.03172,0.97661,-0.18995,0.0,2023,6,7,16,55,49,354
47.51180,0.11288,0.03692,0.00000,0.03123,0.97624,-0.18934,0.0,2023,6,7,16,55,49,364
47.51190,0.18288,-0.17308,0.00000,0.03184,0.97429,-0.18886,0.0,2023,6,7,16,55,49,375
47.51200,-0.09712,-0.17308,0.00000,0.03160,0.97710,-0.18873,0.0,2023,6,7,16,55,49,385
47.51210,-0.00962,-0.05058,0.00000,0.03270,0.97685,-0.18751,0.0,2023,6,7,16,55,49,396
47.51220,-0.00962,-0.08558,0.00000,0.03294,0.97344,-0.19020,0.0,2023,6,7,16,55,49,406
47.51230,0.04288,-0.06808,0.00000,0.03062,0.97661,-0.18788,0.0,2023,6,7,16,55,49,417
47.51240,0.18288,-0.29558,0.00000,0.03172,0.97612,-0.18898,0.0,2023,6,7,16,55,49,427
47.51250,-0.16712,-0.05058,0.00000,0.03282,0.97576,-0.18825,0.0,2023,6,7,16,55,49,438
47.51260,-0.11462,0.14192,0.00000,0.02989,0.97637,-0.18971,0.0,2023,6,7,16,55,49,448
47.51270,-0.13212,0.21192,0.00000,0.03160,0.97771,-0.18690,0.0,2023,6,7,16,55,49,459
47.51280,-0.06212,-0.10308,0.00000,0.03233,0.97612,-0.19056,0.0,2023,6,7,16,55,49,469
47.51290,0.00788,0.00192,0.00000,0.03099,0.97624,-0.18983,0.0,2023,6,7,16,55,49,480
47.51300,-0.06212,0.01942,0.00000,0.03233,0.97722,-0.18776,0.0,2023,6,7,16,55,49,490
47.51310,-0.23712,0.01942,0.00000,0.03221,0.97783,-0.18715,0.0,2023,6,7,16,55,49,501
47.51320,0.11288,-0.27808,0.00000,0.03184,0.97515,-0.18837,0.0,2023,6,7,16,55,49,511
47.51330,0.02538,-0.08558,0.00000,0.03184,0.97710,-0.18568,0.0,2023,6,7,16,55,49,522
47.51340,-0.18462,0.22942,0.00000,0.03013,0.97807,-0.19117,0.0,2023,6,7,16,55,49,532
47.51350,-0.07962,0.12442,0.00000,0.03013,0.97746,-0.18971,0.0,2023,6,7,16,55,49,543
47.51360,0.06038,-0.10308,0.00000,0.02855,0.97759,-0.19008,0.0,2023,6,7,16,55,49,553
47.51370,-0.00962,0.17692,0.00000,0.03111,0.97563,-0.19142,0.0,2023,6,7,16,55,49,564
47.51380,0.02538,0.22942,0.00000,0.03184,0.97527,-0.18837,0.0,2023,6,7,16,55,49,574
47.51390,0.06038,0.10692,0.00000,0.03196,0.97600,-0.18837,0.0,2023,6,7,16,55,49,585
47.51400,-0.21962,-0.13808,0.00000,0.03160,0.97771,-0.18947,0.0,2023,6,7,16,55,49,595
47.51410,0.14788,-0.03308,0.00000,0.03233,0.97649,-0.18995,0.0,2023,6,7,16,55,49,606
47.51420,0.02538,-0.06808,0.00000,0.03172,0.97661,-0.18849,0.0,2023,6,7,16,55,49,616
47.51430,-0.07962,-0.01558,0.00000,0.03111,0.97698,-0.18764,0.0,2023,6,7,16,55,49,627
47.51440,0.04288,0.01942,0.00000,0.03172,0.97624,-0.18971,0.0,2023,6,7,16,55,49,637
47.51450,0.18288,0.05442,0.00000,0.03099,0.97661,-0.19093,0.0,2023,6,7,16,55,49,648
47.51460,-0.06212,-0.10308,0.00000,0.03257,0.97588,-0.18983,0.0,2023,6,7,16,55,49,658
47.51470,0.20038,0.15942,0.00000,0.03026,0.97746,-0.18898,0.0,2023,6,7,16,55,49,669
47.51480,0.20038,-0.12058,0.00000,0.03416,0.97283,-0.19032,0.0,2023,6,7,16,55,49,679
47.51490,-0.20212,0.00192,0.00000,0.03294,0.98003,-0.18959,0.0,2023,6,7,16,55,49,690
47.51500,-0.14962,-0.12058,0.00000,0.03074,0.97649,-0.18849,0.0,2023,6,7,16,55,49,700
47.51510,0.02538,-0.08558,0.00000,0.03257,0.97893,-0.18837,0.0,2023,6,7,16,55,49,711
47.51520,-0.20212,0.01942,0.00000,0.03196,0.97612,-0.18544,0.0,2023,6,7,16,55,49,721
47.51530,0.00788,-0.08558,0.00000,0.03294,0.97454,-0.18666,0.0,2023,6,7,16,55,49,732
47.51540,0.09538,0.05442,0.00000,0.03111,0.97368,-0.18886,0.0,2023,6,7,16,55,49,742
47.51550,-0.09712,0.12442,0.00000,0.03221,0.97417,-0.18910,0.0,2023,6,7,16,55,49,753
47.51560,0.14788,-0.08558,0.00000,0.03172,0.97698,-0.18617,0.0,2023,6,7,16,55,49,763
47.51570,-0.37712,0.07192,0.00000,0.03196,0.97454,-0.18825,0.0,2023,6,7,16,55,49,774
47.51580,0.06038,0.07192,0.00000,0.03148,0.97673,-0.18800,0.0,2023,6,7,16,55,49,784
47.51590,0.02538,-0.01558,0.00000,0.03160,0.97515,-0.18690,0.0,2023,6,7,16,55,49,795
47.51600,-0.23712,0.05442,0.00000,0.03111,0.97527,-0.18971,0.0,2023,6,7,16,55,49,805
47.51610,0.07788,0.07192,0.00000,0.03062,0.97832,-0.19276,0.0,2023,6,7,16,55,49,816
47.51620,0.04288,-0.13808,0.00000,0.03050,0.97673,-0.19032,0.0,2023,6,7,16,55,49,826
47.51630,-0.18462,-0.08558,0.00000,0.03123,0.97698,-0.18934,0.0,2023,6,7,16,55,49,837
47.51640,-0.02712,-0.01558,0.00000,0.03343,0.97637,-0.18983,0.0,2023,6,7,16,55,49,847
47.51650,-0.14962,0.15942,0.00000,0.03038,0.97612,-0.18495,0.0,2023,6,7,16,55,49,858
47.51660,-0.27212,0.10692,0.00000,0.02952,0.97551,-0.18910,0.0,2023,6,7,16,55,49,868
47.51670,0.21788,-0.15558,0.00000,0.03209,0.97624,-0.18910,0.0,2023,6,7,16,55,49,879
47.51680,-0.30712,0.05442,0.00000,0.02928,0.97466,-0.18983,0.0,2023,6,7,16,55,49,889
47.51690,-0.06212,-0.06808,0.00000,0.03013,0.97649,-0.18861,0.0,2023,6,7,16,55,49,900
47.51700,0.02538,0.12442,0.00000,0.03282,0.97576,-0.18922,0.0,2023,6,7,16,55,49,910
47.51710,-0.20212,0.01942,0.00000,0.03050,0.97600,-0.18959,0.0,2023,6,7,16,55,49,921
47.51720,0.00788,-0.27808,0.00000,0.03196,0.97612,-0.18764,0.0,2023,6,7,16,55,49,931
47.51730,0.25288,-0.12058,0.00000,0.02916,0.97588,-0.18812,0.0,2023,6,7,16,55,49,942
47.51740,-0.04462,-0.15558,0.00000,0.03209,0.97527,-0.18556,0.0,2023,6,7,16,55,49,952
47.51750,0.04288,0.12442,0.00000,0.02830,0.97527,-0.18922,0.0,2023,6,7,16,55,50,3
47.51760,-0.02712,-0.15558,0.00000,0.03074,0.97990,-0.18825,0.0,2023,6,7,16,55,50,13
47.51770,-0.14962,-0.06808,0.00000,0.02916,0.97502,-0.18812,0.0,2023,6,7,16,55,50,24
47.51780,-0.11462,-0.03308,0.00000,0.03196,0.97844,-0.19093,0.0,2023,6,7,16,55,50,34
47.51790,-0.00962,0.12442,0.00000,0.03404,0.97759,-0.18861,0.0,2023,6,7,16,55,50,45
47.51800,-0.14962,0.19442,0.00000,0.03074,0.97661,-0.18715,0.0,2023,6,7,16,55,50,55
47.51810,-0.06212,0.12442,0.00000,0.03099,0.97515,-0.19117,0.0,2023,6,7,16,55,50,66
47.51820,-0.04462,0.08942,0.00000,0.03087,0.97710,-0.18703,0.0,2023,6,7,16,55,50,76
47.51830,0.02538,-0.08558,0.00000,0.03099,0.97759,-0.19166,0.0,2023,6,7,16,55,50,87
47.51840,-0.18462,0.14192,0.00000,0.03062,0.97527,-0.18934,0.0,2023,6,7,16,55,50,97
47.51850,-0.02712,0.07192,0.00000,0.03282,0.97380,-0.18751,0.0,2023,6,7,16,55,50,108
47.51860,0.13038,-0.13808,0.00000,0.03050,0.97795,-0.19008,0.0,2023,6,7,16,55,50,118
47.51870,0.02538,0.00192,0.00000,0.03184,0.97490,-0.18922,0.0,2023,6,7,16,55,50,129
47.51880,0.14788,-0.01558,0.00000,0.03172,0.97380,-0.18910,0.0,2023,6,7,16,55,50,139
47.51890,0.00788,-0.06808,0.00000,0.02952,0.97539,-0.19105,0.0,2023,6,7,16,55,50,150
47.51900,-0.06212,-0.12058,0.00000,0.03379,0.97612,-0.18947,0.0,2023,6,7,16,55,50,160
47.51910,0.07788,-0.10308,0.00000,0.03135,0.97478,-0.18837,0.0,2023,6,7,16,55,50,171
47.51920,-0.11462,-0.05058,0.00000,0.03050,0.97832,-0.19020,0.0,2023,6,7,16,55,50,181
47.51930,0.02538,-0.06808,0.00000,0.03099,0.97588,-0.18934,0.0,2023,6,7,16,55,50,192
47.51940,-0.23712,0.12442,0.00000,0.03196,0.97563,-0.18800,0.0,2023,6,7,16,55,50,202
47.51950,-0.09712,0.03692,0.00000,0.03160,0.97917,-0.18886,0.0,2023,6,7,16,55,50,213
47.51960,0.16538,0.01942,0.00000,0.03257,0.97734,-0.18690,0.0,2023,6,7,16,55,50,223
47.51970,-0.09712,0.08942,0.00000,0.03099,0.97539,-0.18617,0.0,2023,6,7,16,55,50,234
47.51980,0.00788,0.01942,0.00000,0.03087,0.97771,-0.18739,0.0,2023,6,7,16,55,50,244
47.51990,-0.00962,-0.12058,0.00000,0.02733,0.97942,-0.19239,0.0,2023,6,7,16,55,50,255
47.52000,0.20038,-0.10308,0.00000,0.03343,0.97576,-0.18898,0.0,2023,6,7,16,55,50,265
47.52010,-0.02712,0.03692,0.00000,0.03318,0.97637,-0.18727,0.0,2023,6,7,16,55,50,276
47.52020,0.20038,-0.24308,0.00000,0.03160,0.97551,-0.19056,0.0,2023,6,7,16,55,50,286
47.52030,0.02538,-0.03308,0.00000,0.03087,0.97502,-0.18715,0.0,2023,6,7,16,55,50,297
47.52040,-0.06212,-0.06808,0.00000,0.02940,0.97746,-0.18886,0.0,2023,6,7,16,55,50,307
47.52050,-0.06212,0.10692,0.00000,0.03160,0.97673,-0.18873,0.0,2023,6,7,16,55,50,318
47.52060,-0.02712,-0.03308,0.00000,0.03123,0.97624,-0.18837,0.0,2023,6,7,16,55,50,328
47.52070,0.09538,-0.06808,0.00000,0.03270,0.97685,-0.18703,0.0,2023,6,7,16,55,50,339
47.52080,-0.09712,0.00192,0.00000,0.03038,0.97832,-0.18764,0.0,2023,6,7,16,55,50,349
47.52090,-0.07962,-0.03308,0.00000,0.03233,0.97551,-0.18995,0.0,2023,6,7,16,55,50,360
47.52100,-0.00962,-0.19058,0.00000,0.03087,0.97795,-0.18849,0.0,2023,6,7,16,55,50,370
47.52110,0.02538,-0.10308,0.00000,0.03209,0.97722,-0.19203,0.0,2023,6,7,16,55,50,381
47.52120,-0.06212,0.12442,0.00000,0.03050,0.97551,-0.18873,0.0,2023,6,7,16,55,50,391
47.52130,0.04288,0.24692,0.00000,0.03221,0.97466,-0.18898,0.0,2023,6,7,16,55,50,402
47.52140,-0.11462,0.03692,0.00000,0.03087,0.97649,-0.18971,0.0,2023,6,7,16,55,50,412
47.52150,-0.20212,0.05442,0.00000,0.03135,0.97478,-0.18873,0.0,2023,6,7,16,55,50,423
47.52160,-0.06212,0.08942,0.00000,0.03221,0.97515,-0.19044,0.0,2023,6,7,16,55,50,433
47.52170,0.20038,0.03692,0.00000,0.03111,0.97612,-0.18739,0.0,2023,6,7,16,55,50,444
47.52180,-0.07962,-0.08558,0.00000,0.03331,0.97637,-0.18934,0.0,2023,6,7,16,55,50,454
47.52190,-0.13212,0.03692,0.00000,0.03160,0.97637,-0.19020,0.0,2023,6,7,16,55,50,465
47.52200,-0.25462,0.01942,0.00000,0.03062,0.97417,-0.18788,0.0,2023,6,7,16,55,50,475
47.52210,-0.07962,-0.01558,0.00000,0.03135,0.97795,-0.18947,0.0,2023,6,7,16,55,50,486
47.52220,0.04288,0.07192,0.00000,0.03123,0.97490,-0.19105,0.0,2023,6,7,16,55,50,496
47.52230,-0.11462,0.14192,0.00000,0.03148,0.97600,-0.18715,0.0,2023,6,7,16,55,50,507
47.52240,0.02538,0.08942,0.00000,0.03001,0.97734,-0.18873,0.0,2023,6,7,16,55,50,517
47.52250,-0.09712,0.07192,0.00000,0.03135,0.97783,-0.19056,0.0,2023,6,7,16,55,50,528
47.52260,-0.09712,0.12442,0.00000,0.02928,0.97563,-0.19093,0.0,2023,6,7,16,55,50,538
47.52270,0.00788,0.15942,0.00000,0.03392,0.97795,-0.18837,0.0,2023,6,7,16,55,50,549
47.52280,-0.07962,0.05442,0.00000,0.03001,0.97832,-0.18800,0.0,2023,6,7,16,55,50,559
47.52290,-0.20212,0.05442,0.00000,0.03038,0.97685,-0.19008,0.0,2023,6,7,16,55,50,570
47.52300,-0.04462,0.01942,0.00000,0.03209,0.97685,-0.18861,0.0,2023,6,7,16,55,50,580
47.52310,-0.00962,0.31692,0.00000,0.03074,0.97710,-0.18861,0.0,2023,6,7,16,55,50,591
47.52320,-0.25462,0.31692,0.00000,0.03440,0.97539,-0.19020,0.0,2023,6,7,16,55,50,601
47.52330,0.02538,0.03692,0.00000,0.03209,0.97722,-0.18861,0.0,2023,6,7,16,55,50,612
47.52340,-0.04462,-0.13808,0.00000,0.03013,0.97637,-0.18617,0.0,2023,6,7,16,55,50,622
47.52350,0.06038,-0.19058,0.00000,0.03148,0.97478,-0.18886,0.0,2023,6,7,16,55,50,633
47.52360,-0.11462,0.12442,0.00000,0.03111,0.97661,-0.18922,0.0,2023,6,7,16,55,50,643
47.52370,-0.20212,-0.19058,0.00000,0.03074,0.97563,-0.18776,0.0,2023,6,7,16,55,50,654
47.52380,0.16538,-0.06808,0.00000,0.03001,0.97588,-0.18995,0.0,2023,6,7,16,55,50,664
47.52390,-0.16712,-0.06808,0.00000,0.03160,0.97405,-0.18886,0.0,2023,6,7,16,55,50,675
47.52400,-0.42962,0.07192,0.00000,0.03270,0.97588,-0.18703,0.0,2023,6,7,16,55,50,685
47.52410,0.00788,0.00192,0.00000,0.03318,0.97600,-0.18971,0.0,2023,6,7,16,55,50,696
47.52420,0.02538,-0.03308,0.00000,0.02989,0.97515,-0.18873,0.0,2023,6,7,16,55,50,706
47.52430,-0.11462,-0.03308,0.00000,0.03050,0.97588,-0.18910,0.0,2023,6,7,16,55,50,717
47.52440,-0.11462,0.10692,0.00000,0.03050,0.97966,-0.18910,0.0,2023,6,7,16,55,50,727
47.52450,0.00788,-0.13808,0.00000,0.03111,0.97441,-0.18959,0.0,2023,6,7,16,55,50,738
47.52460,-0.07962,-0.08558,0.00000,0.03233,0.97405,-0.18959,0.0,2023,6,7,16,55,50,748
47.52470,-0.02712,-0.03308,0.00000,0.03074,0.97673,-0.18922,0.0,2023,6,7,16,55,50,759
47.52480,0.06038,-0.17308,0.00000,0.03257,0.97490,-0.18971,0.0,2023,6,7,16,55,50,769
47.52490,-0.06212,-0.06808,0.00000,0.03026,0.97649,-0.18776,0.0,2023,6,7,16,55,50,780
47.52500,-0.09712,0.12442,0.00000,0.03318,0.97795,-0.18886,0.0,2023,6,7,16,55,50,790
47.52510,-0.14962,0.05442,0.00000,0.03148,0.97563,-0.18654,0.0,2023,6,7,16,55,50,801
47.52520,0.09538,0.03692,0.00000,0.02989,0.97527,-0.18727,0.0,2023,6,7,16,55,50,811
47.52530,-0.00962,-0.05058,0.00000,0.03355,0.97563,-0.18983,0.0,2023,6,7,16,55,50,822
47.52540,0.00788,0.03692,0.00000,0.03331,0.97685,-0.18947,0.0,2023,6,7,16,55,50,832
47.52550,-0.07962,0.03692,0.00000,0.03367,0.97759,-0.19020,0.0,2023,6,7,16,55,50,843
47.52560,-0.13212,0.14192,0.00000,0.03160,0.97551,-0.18886,0.0,2023,6,7,16,55,50,853
47.52570,-0.06212,-0.10308,0.00000,0.03160,0.97661,-0.18922,0.0,2023,6,7,16,55,50,864
47.52580,-0.07962,-0.10308,0.00000,0.03099,0.97563,-0.18959,0.0,2023,6,7,16,55,50,874
47.52590,-0.04462,-0.13808,0.00000,0.03050,0.97698,-0.18825,0.0,2023,6,7,16,55,50,885
47.52600,-0.07962,-0.05058,0.00000,0.03257,0.97588,-0.18849,0.0,2023,6,7,16,55,50,895
47.52610,-0.06212,0.12442,0.00000,0.03343,0.97576,-0.19044,0.0,2023,6,7,16,55,50,906
47.52620,-0.06212,0.01942,0.00000,0.03074,0.97746,-0.18739,0.0,2023,6,7,16,55,50,916
47.52630,-0.07962,-0.15558,0.00000,0.03111,0.97612,-0.18837,0.0,2023,6,7,16,55,50,927
47.52640,0.06038,-0.08558,0.00000,0.03087,0.97710,-0.19056,0.0,2023,6,7,16,55,50,937
47.52650,-0.02712,0.03692,0.00000,0.03148,0.97380,-0.18666,0.0,2023,6,7,16,55,51,8
47.52660,-0.13212,0.12442,0.00000,0.03465,0.97722,-0.18593,0.0,2023,6,7,16,55,51,18
47.52670,0.09538,-0.15558,0.00000,0.03087,0.97637,-0.19130,0.0,2023,6,7,16,55,51,29
47.52680,-0.07962,-0.06808,0.00000,0.03245,0.97490,-0.18654,0.0,2023,6,7,16,55,51,39
47.52690,-0.14962,0.01942,0.00000,0.03062,0.97673,-0.18837,0.0,2023,6,7,16,55,51,50
47.52700,-0.13212,0.10692,0.00000,0.03062,0.97722,-0.18910,0.0,2023,6,7,16,55,51,60
47.52710,-0.13212,0.05442,0.00000,0.03465,0.97332,-0.18605,0.0,2023,6,7,16,55,51,71
47.52720,-0.00962,-0.08558,0.00000,0.03196,0.97466,-0.18849,0.0,2023,6,7,16,55,51,81
47.52730,0.21788,-0.05058,0.00000,0.02977,0.97502,-0.18788,0.0,2023,6,7,16,55,51,92
47.52740,-0.07962,0.03692,0.00000,0.03111,0.97515,-0.18873,0.0,2023,6,7,16,55,51,102
47.52750,0.07788,0.03692,0.00000,0.03367,0.97490,-0.18727,0.0,2023,6,7,16,55,51,113
47.52760,-0.02712,0.08942,0.00000,0.03209,0.97466,-0.18703,0.0,2023,6,7,16,55,51,123
47.52770,-0.00962,-0.17308,0.00000,0.03209,0.97661,-0.18739,0.0,2023,6,7,16,55,51,134
47.52780,-0.11462,-0.10308,0.00000,0.03282,0.97368,-0.18861,0.0,2023,6,7,16,55,51,144
47.52790,0.11288,0.21192,0.00000,0.03209,0.97820,-0.18727,0.0,2023,6,7,16,55,51,155
47.52800,-0.16712,-0.03308,0.00000,0.03135,0.97649,-0.18837,0.0,2023,6,7,16,55,51,165
47.52810,-0.11462,0.03692,0.00000,0.03038,0.97795,-0.18861,0.0,2023,6,7,16,55,51,176
47.52820,-0.06212,0.14192,0.00000,0.03050,0.97637,-0.18776,0.0,2023,6,7,16,55,51,186
47.52830,-0.11462,0.03692,0.00000,0.02965,0.97807,-0.18764,0.0,2023,6,7,16,55,51,197
47.52840,0.09538,0.03692,0.00000,0.03099,0.97673,-0.18886,0.0,2023,6,7,16,55,51,207
47.52850,-0.04462,-0.06808,0.00000,0.02965,0.97478,-0.18776,0.0,2023,6,7,16,55,51,218
47.52860,0.06038,0.01942,0.00000,0.03209,0.97783,-0.18654,0.0,2023,6,7,16,55,51,228
47.52870,0.09538,0.00192,0.00000,0.02928,0.97771,-0.18837,0.0,2023,6,7,16,55,51,239
47.52880,-0.09712,-0.08558,0.00000,0.03209,0.97551,-0.18495,0.0,2023,6,7,16,55,51,249
47.52890,0.13038,-0.12058,0.00000,0.03050,0.97527,-0.18910,0.0,2023,6,7,16,55,51,260
47.52900,-0.04462,-0.01558,0.00000,0.02904,0.97478,-0.18764,0.0,2023,6,7,16,55,51,270
47.52910,-0.06212,0.01942,0.00000,0.03172,0.97612,-0.18654,0.0,2023,6,7,16,55,51,281
47.52920,0.14788,0.19442,0.00000,0.03221,0.97759,-0.18642,0.0,2023,6,7,16,55,51,291
47.52930,-0.04462,-0.10308,0.00000,0.03062,0.97600,-0.18715,0.0,2023,6,7,16,55,51,302
47.52940,0.11288,-0.26058,0.00000,0.03087,0.97551,-0.18886,0.0,2023,6,7,16,55,51,312
47.52950,-0.00962,-0.03308,0.00000,0.03135,0.97551,-0.18910,0.0,2023,6,7,16,55,51,323
47.52960,0.06038,0.17692,0.00000,0.03087,0.97661,-0.18837,0.0,2023,6,7,16,55,51,333
47.52970,-0.20212,0.17692,0.00000,0.03123,0.97637,-0.18983,0.0,2023,6,7,16,55,51,344
47.52980,0.23538,-0.03308,0.00000,0.03221,0.97722,-0.18422,0.0,2023,6,7,16,55,51,354
47.52990,-0.07962,0.10692,0.00000,0.03160,0.97710,-0.18983,0.0,2023,6,7,16,55,51,365
47.53000,-0.00962,0.10692,0.00000,0.02940,0.97515,-0.19203,0.0,2023,6,7,16,55,51,375
47.53010,-0.02712,-0.05058,0.00000,0.03245,0.97563,-0.18678,0.0,2023,6,7,16,55,51,386
47.53020,-0.02712,-0.01558,0.00000,0.03123,0.97563,-0.18629,0.0,2023,6,7,16,55,51,396
47.53030,-0.07962,-0.03308,0.00000,0.03135,0.97551,-0.18800,0.0,2023,6,7,16,55,51,407
47.53040,-0.04462,-0.05058,0.00000,0.03233,0.97893,-0.18812,0.0,2023,6,7,16,55,51,417
47.53050,0.06038,0.00192,0.00000,0.03135,0.97576,-0.18873,0.0,2023,6,7,16,55,51,428
47.53060,-0.02712,0.08942,0.00000,0.03416,0.97832,-0.19288,0.0,2023,6,7,16,55,51,438
47.53070,0.14788,-0.19058,0.00000,0.03172,0.97600,-0.18825,0.0,2023,6,7,16,55,51,449
47.53080,0.06038,0.17692,0.00000,0.03343,0.97576,-0.18959,0.0,2023,6,7,16,55,51,459
47.53090,-0.20212,0.01942,0.00000,0.02916,0.97502,-0.19105,0.0,2023,6,7,16,55,51,470
47.53100,-0.07962,0.17692,0.00000,0.03221,0.97807,-0.19178,0.0,2023,6,7,16,55,51,480
47.53110,-0.13212,0.01942,0.00000,0.03233,0.97539,-0.18959,0.0,2023,6,7,16,55,51,491
47.53120,-0.00962,-0.03308,0.00000,0.03148,0.97588,-0.18849,0.0,2023,6,7,16,55,51,501
47.53130,-0.06212,-0.03308,0.00000,0.03221,0.97673,-0.18971,0.0,2023,6,7,16,55,51,512
47.53140,-0.18462,0.05442,0.00000,0.03074,0.97844,-0.18715,0.0,2023,6,7,16,55,51,522
47.53150,0.20038,-0.10308,0.00000,0.03148,0.97661,-0.18910,0.0,2023,6,7,16,55,51,533
47.53160,-0.06212,-0.10308,0.00000,0.03001,0.97539,-0.18788,0.0,2023,6,7,16,55,51,543
47.53170,0.06038,-0.20808,0.00000,0.03111,0.97551,-0.18873,0.0,2023,6,7,16,55,51,554
47.53180,0.18288,0.03692,0.00000,0.03123,0.97929,-0.18983,0.0,2023,6,7,16,55,51,564
47.53190,-0.11462,-0.01558,0.00000,0.03294,0.97807,-0.19093,0.0,2023,6,7,16,55,51,575
47.53200,0.02538,0.15942,0.00000,0.03050,0.97515,-0.19008,0.0,2023,6,7,16,55,51,585
47.53210,-0.13212,-0.10308,0.00000,0.03050,0.97600,-0.18776,0.0,2023,6,7,16,55,51,596
47.53220,-0.00962,0.10692,0.00000,0.03209,0.97698,-0.18837,0.0,2023,6,7,16,55,51,606
47.53230,0.02538,-0.01558,0.00000,0.02928,0.97515,-0.18898,0.0,2023,6,7,16,55,51,617
47.53240,0.09538,0.01942,0.00000,0.03306,0.97563,-0.18690,0.0,2023,6,7,16,55,51,627
47.53250,0.00788,-0.01558,0.00000,0.03184,0.97588,-0.18971,0.0,2023,6,7,16,55,51,638
47.53260,0.11288,-0.03308,0.00000,0.03123,0.97576,-0.18593,0.0,2023,6,7,16,55,51,648
47.53270,-0.16712,-0.06808,0.00000,0.03172,0.97710,-0.18861,0.0,2023,6,7,16,55,51,659
47.53280,-0.13212,0.15942,0.00000,0.03233,0.97685,-0.18727,0.0,2023,6,7,16,55,51,669
47.53290,-0.13212,-0.05058,0.00000,0.03221,0.97478,-0.18971,0.0,2023,6,7,16,55,51,680
47.53300,0.06038,-0.01558,0.00000,0.03294,0.97771,-0.18812,0.0,2023,6,7,16,55,51,690
47.53310,-0.09712,-0.10308,0.00000,0.03001,0.97478,-0.18715,0.0,2023,6,7,16,55,51,701
47.53320,0.06038,-0.40058,0.00000,0.03001,0.97478,-0.18837,0.0,2023,6,7,16,55,51,711
47.53330,0.06038,-0.22558,0.00000,0.03111,0.97588,-0.18520,0.0,2023,6,7,16,55,51,722
47.53340,0.00788,0.01942,0.00000,0.03233,0.97795,-0.18959,0.0,2023,6,7,16,55,51,732
47.53350,-0.04462,0.03692,0.00000,0.03160,0.97807,-0.18788,0.0,2023,6,7,16,55,51,743
47.53360,0.00788,-0.06808,0.00000,0.03172,0.97673,-0.18605,0.0,2023,6,7,16,55,51,753
47.53370,0.04288,-0.03308,0.00000,0.02904,0.97441,-0.19044,0.0,2023,6,7,16,55,51,764
47.53380,0.07788,-0.05058,0.00000,0.03074,0.97649,-0.18495,0.0,2023,6,7,16,55,51,774
47.53390,0.09538,-0.17308,0.00000,0.03331,0.97661,-0.18959,0.0,2023,6,7,16,55,51,785
47.53400,-0.00962,-0.05058,0.00000,0.02965,0.97551,-0.18983,0.0,2023,6,7,16,55,51,795
47.53410,0.07788,-0.03308,0.00000,0.03221,0.97502,-0.18995,0.0,2023,6,7,16,55,51,806
47.53420,0.16538,-0.15558,0.00000,0.03123,0.97600,-0.18678,0.0,2023,6,7,16,55,51,816
47.53430,-0.06212,-0.15558,0.00000,0.03257,0.97515,-0.18727,0.0,2023,6,7,16,55,51,827
47.53440,0.13038,-0.05058,0.00000,0.03160,0.97710,-0.18788,0.0,2023,6,7,16,55,51,837
47.53450,0.09538,-0.08558,0.00000,0.03196,0.97746,-0.18776,0.0,2023,6,7,16,55,51,848
47.53460,-0.02712,0.07192,0.00000,0.03087,0.97673,-0.18666,0.0,2023,6,7,16,55,51,858
47.53470,0.11288,0.05442,0.00000,0.03184,0.97637,-0.19020,0.0,2023,6,7,16,55,51,869
47.53480,-0.21962,0.05442,0.00000,0.03148,0.97588,-0.18764,0.0,2023,6,7,16,55,51,879
47.53490,0.04288,-0.17308,0.00000,0.03013,0.97710,-0.18861,0.0,2023,6,7,16,55,51,890
47.53500,0.02538,-0.01558,0.00000,0.03074,0.97832,-0.18800,0.0,2023,6,7,16,55,51,900
47.53510,-0.13212,-0.15558,0.00000,0.03087,0.97576,-0.19093,0.0,2023,6,7,16,55,51,911
47.53520,-0.04462,-0.05058,0.00000,0.03209,0.97502,-0.18764,0.0,2023,6,7,16,55,51,921
47.53530,-0.14962,-0.10308,0.00000,0.03233,0.97441,-0.18739,0.0,2023,6,7,16,55,51,932
47.53540,-0.11462,-0.05058,0.00000,0.03160,0.97563,-0.18690,0.0,2023,6,7,16,55,51,942
47.53550,-0.25462,-0.05058,0.00000,0.02989,0.97551,-0.18849,0.0,2023,6,7,16,55,52,3
47.53560,-0.07962,0.05442,0.00000,0.03233,0.97380,-0.18776,0.0,2023,6,7,16,55,52,13
47.53570,-0.07962,0.00192,0.00000,0.03062,0.97637,-0.18910,0.0,2023,6,7,16,55,52,24
47.53580,0.13038,0.12442,0.00000,0.03209,0.97515,-0.18971,0.0,2023,6,7,16,55,52,34
47.53590,0.00788,-0.01558,0.00000,0.03184,0.97576,-0.18605,0.0,2023,6,7,16,55,52,45
47.53600,-0.07962,0.12442,0.00000,0.03013,0.97600,-0.18983,0.0,2023,6,7,16,55,52,55
47.53610,0.09538,0.05442,0.00000,0.03172,0.97515,-0.19032,0.0,2023,6,7,16,55,52,66
47.53620,-0.11462,-0.06808,0.00000,0.03001,0.97441,-0.18910,0.0,2023,6,7,16,55,52,76
47.53630,-0.00962,-0.01558,0.00000,0.03013,0.97783,-0.19008,0.0,2023,6,7,16,55,52,87
47.53640,0.09538,0.03692,0.00000,0.03306,0.97698,-0.19032,0.0,2023,6,7,16,55,52,97
47.53650,-0.02712,0.01942,0.00000,0.03026,0.97502,-0.19032,0.0,2023,6,7,16,55,52,108
47.53660,0.13038,-0.05058,0.00000,0.02916,0.98003,-0.18812,0.0,2023,6,7,16,55,52,118
47.53670,0.09538,-0.13808,0.00000,0.03184,0.97502,-0.18959,0.0,2023,6,7,16,55,52,129
47.53680,-0.11462,0.00192,0.00000,0.03233,0.97649,-0.18825,0.0,2023,6,7,16,55,52,139
47.53690,0.02538,0.10692,0.00000,0.03318,0.97454,-0.18837,0.0,2023,6,7,16,55,52,150
47.53700,0.02538,0.00192,0.00000,0.03111,0.97600,-0.18898,0.0,2023,6,7,16,55,52,160
47.53710,0.06038,-0.29558,0.00000,0.03123,0.97539,-0.19105,0.0,2023,6,7,16,55,52,171
47.53720,-0.14962,0.08942,0.00000,0.03062,0.97502,-0.18825,0.0,2023,6,7,16,55,52,181
47.53730,-0.02712,0.15942,0.00000,0.03038,0.97600,-0.18873,0.0,2023,6,7,16,55,52,192
47.53740,-0.00962,-0.01558,0.00000,0.03087,0.97600,-0.18873,0.0,2023,6,7,16,55,52,202
47.53750,-0.02712,-0.10308,0.00000,0.03196,0.97673,-0.19178,0.0,2023,6,7,16,55,52,213
47.53760,0.09538,-0.05058,0.00000,0.03282,0.97685,-0.18727,0.0,2023,6,7,16,55,52,223
47.53770,-0.25462,-0.06808,0.00000,0.03001,0.97905,-0.18751,0.0,2023,6,7,16,55,52,234
47.53780,0.02538,-0.10308,0.00000,0.03184,0.97734,-0.19032,0.0,2023,6,7,16,55,52,244
47.53790,0.02538,0.01942,0.00000,0.03233,0.97429,-0.19020,0.0,2023,6,7,16,55,52,255
47.53800,0.14788,0.03692,0.00000,0.03026,0.97515,-0.18898,0.0,2023,6,7,16,55,52,265
47.53810,0.28788,-0.17308,0.00000,0.02952,0.97661,-0.18995,0.0,2023,6,7,16,55,52,276
47.53820,-0.02712,0.07192,0.00000,0.03184,0.97502,-0.18873,0.0,2023,6,7,16,55,52,286
47.53830,-0.14962,-0.01558,0.00000,0.03038,0.97783,-0.18800,0.0,2023,6,7,16,55,52,297
47.53840,0.21788,-0.01558,0.00000,0.03099,0.97929,-0.18947,0.0,2023,6,7,16,55,52,307
47.53850,0.21788,-0.19058,0.00000,0.03160,0.97502,-0.19178,0.0,2023,6,7,16,55,52,318
47.53860,-0.06212,0.12442,0.00000,0.03209,0.97637,-0.18934,0.0,2023,6,7,16,55,52,328
47.53870,0.00788,0.14192,0.00000,0.03172,0.97820,-0.18849,0.0,2023,6,7,16,55,52,339
47.53880,-0.00962,-0.05058,0.00000,0.03087,0.97649,-0.19056,0.0,2023,6,7,16,55,52,349
47.53890,-0.25462,-0.03308,0.00000,0.03282,0.97673,-0.18837,0.0,2023,6,7,16,55,52,360
47.53900,0.07788,-0.15558,0.00000,0.02843,0.97478,-0.18873,0.0,2023,6,7,16,55,52,370
47.53910,0.11288,-0.08558,0.00000,0.02830,0.97429,-0.18800,0.0,2023,6,7,16,55,52,381
47.53920,0.06038,-0.19058,0.00000,0.03318,0.97649,-0.18788,0.0,2023,6,7,16,55,52,391
47.53930,0.00788,-0.12058,0.00000,0.03196,0.97502,-0.19044,0.0,2023,6,7,16,55,52,402
47.53940,0.04288,0.29942,0.00000,0.03038,0.97722,-0.18995,0.0,2023,6,7,16,55,52,412
47.53950,-0.04462,0.00192,0.00000,0.03294,0.97710,-0.19105,0.0,2023,6,7,16,55,52,423
47.53960,-0.14962,0.24692,0.00000,0.03367,0.97539,-0.18727,0.0,2023,6,7,16,55,52,433
47.53970,0.20038,-0.13808,0.00000,0.03172,0.97637,-0.18764,0.0,2023,6,7,16,55,52,444
47.53980,0.11288,0.03692,0.00000,0.03160,0.97393,-0.18764,0.0,2023,6,7,16,55,52,454
47.53990,-0.04462,-0.15558,0.00000,0.03001,0.97490,-0.18947,0.0,2023,6,7,16,55,52,465
47.54000,0.11288,-0.27808,0.00000,0.03026,0.97698,-0.19069,0.0,2023,6,7,16,55,52,475
47.54010,0.13038,-0.15558,0.00000,0.03111,0.97868,-0.19032,0.0,2023,6,7,16,55,52,486
47.54020,0.02538,0.10692,0.00000,0.02940,0.97454,-0.18886,0.0,2023,6,7,16,55,52,496
47.54030,0.00788,0.03692,0.00000,0.02952,0.97795,-0.18727,0.0,2023,6,7,16,55,52,507
47.54040,0.11288,-0.10308,0.00000,0.03160,0.97710,-0.18849,0.0,2023,6,7,16,55,52,517
47.54050,0.06038,0.03692,0.00000,0.02794,0.97551,-0.19093,0.0,2023,6,7,16,55,52,528
47.54060,-0.11462,0.07192,0.00000,0.03001,0.97441,-0.18788,0.0,2023,6,7,16,55,52,538
47.54070,-0.00962,0.03692,0.00000,0.03392,0.97734,-0.18959,0.0,2023,6,7,16,55,52,549
47.54080,-0.04462,0.10692,0.00000,0.02952,0.97673,-0.19044,0.0,2023,6,7,16,55,52,559
47.54090,0.14788,-0.22558,0.00000,0.03257,0.97454,-0.18703,0.0,2023,6,7,16,55,52,570
47.54100,0.04288,-0.13808,0.00000,0.03257,0.97710,-0.18825,0.0,2023,6,7,16,55,52,580
47.54110,-0.09712,0.08942,0.00000,0.03184,0.97685,-0.18983,0.0,2023,6,7,16,55,52,591
47.54120,-0.00962,-0.03308,0.00000,0.03160,0.97576,-0.18764,0.0,2023,6,7,16,55,52,601
47.54130,-0.02712,0.10692,0.00000,0.03209,0.97576,-0.18825,0.0,2023,6,7,16,55,52,612
47.54140,-0.06212,-0.01558,0.00000,0.03343,0.97368,-0.18654,0.0,2023,6,7,16,55,52,622
47.54150,0.02538,-0.05058,0.00000,0.03038,0.97588,-0.18922,0.0,2023,6,7,16,55,52,633
47.54160,0.07788,-0.13808,0.00000,0.03111,0.97661,-0.18739,0.0,2023,6,7,16,55,52,643
47.54170,-0.06212,-0.06808,0.00000,0.03123,0.97783,-0.18959,0.0,2023,6,7,16,55,52,654
47.54180,-0.06212,0.00192,0.00000,0.03221,0.97685,-0.18959,0.0,2023,6,7,16,55,52,664
47.54190,-0.00962,-0.05058,0.00000,0.03087,0.97576,-0.18678,0.0,2023,6,7,16,55,52,675
47.54200,-0.11462,-0.05058,0.00000,0.02989,0.97600,-0.19069,0.0,2023,6,7,16,55,52,685
47.54210,0.07788,-0.06808,0.00000,0.03209,0.97576,-0.18873,0.0,2023,6,7,16,55,52,696
47.54220,-0.16712,0.01942,0.00000,0.03050,0.97771,-0.18898,0.0,2023,6,7,16,55,52,706
47.54230,0.06038,-0.12058,0.00000,0.03087,0.97502,-0.18959,0.0,2023,6,7,16,55,52,717
47.54240,-0.09712,0.01942,0.00000,0.03026,0.97551,-0.18898,0.0,2023,6,7,16,55,52,727
47.54250,-0.16712,0.03692,0.00000,0.03001,0.97600,-0.19166,0.0,2023,6,7,16,55,52,738
47.54260,0.07788,0.01942,0.00000,0.02989,0.97710,-0.19044,0.0,2023,6,7,16,55,52,748
47.54270,-0.14962,0.00192,0.00000,0.03331,0.97539,-0.18861,0.0,2023,6,7,16,55,52,759
47.54280,-0.07962,-0.12058,0.00000,0.03074,0.97722,-0.19044,0.0,2023,6,7,16,55,52,769
47.54290,-0.07962,0.03692,0.00000,0.02928,0.97612,-0.18861,0.0,2023,6,7,16,55,52,780
47.54300,0.06038,-0.24308,0.00000,0.03172,0.97527,-0.19081,0.0,2023,6,7,16,55,52,790
47.54310,-0.00962,-0.03308,0.00000,0.03221,0.97698,-0.19008,0.0,2023,6,7,16,55,52,801
47.54320,0.09538,-0.03308,0.00000,0.03282,0.97661,-0.18910,0.0,2023,6,7,16,55,52,811
47.54330,-0.09712,-0.22558,0.00000,0.03087,0.97295,-0.18947,0.0,2023,6,7,16,55,52,822
47.54340,0.20038,-0.06808,0.00000,0.03282,0.97685,-0.19252,0.0,2023,6,7,16,55,52,832
47.54350,0.09538,-0.15558,0.00000,0.03367,0.97563,-0.19020,0.0,2023,6,7,16,55,52,843
47.54360,0.00788,0.08942,0.00000,0.03099,0.97563,-0.18971,0.0,2023,6,7,16,55,52,853
47.54370,0.23538,-0.22558,0.00000,0.02977,0.97649,-0.19288,0.0,2023,6,7,16,55,52,864
47.54380,-0.00962,0.01942,0.00000,0.03318,0.97576,-0.18825,0.0,2023,6,7,16,55,52,874
47.54390,-0.06212,-0.31308,0.00000,0.03050,0.97551,-0.18825,0.0,2023,6,7,16,55,52,885
47.54400,0.02538,-0.08558,0.00000,0.03245,0.97685,-0.19056,0.0,2023,6,7,16,55,52,895
47.54410,0.14788,-0.20808,0.00000,0.03013,0.97600,-0.18922,0.0,2023,6,7,16,55,52,906
47.54420,0.11288,-0.05058,0.00000,0.03074,0.97515,-0.19166,0.0,2023,6,7,16,55,52,916
47.54430,0.04288,-0.06808,0.00000,0.03050,0.97649,-0.18873,0.0,2023,6,7,16,55,52,927
47.54440,-0.06212,0.07192,0.00000,0.03318,0.97600,-0.18983,0.0,2023,6,7,16,55,52,937
47.54450,0.06038,-0.03308,0.00000,0.03038,0.97624,-0.19093,0.0,2023,6,7,16,55,53,8
47.54460,0.20038,0.00192,0.00000,0.03282,0.97710,-0.18776,0.0,2023,6,7,16,55,53,18
47.54470,-0.11462,-0.06808,0.00000,0.02904,0.97283,-0.18910,0.0,2023,6,7,16,55,53,29
47.54480,-0.09712,0.26442,0.00000,0.03123,0.97588,-0.19020,0.0,2023,6,7,16,55,53,39
47.54490,0.06038,0.14192,0.00000,0.02989,0.97478,-0.19252,0.0,2023,6,7,16,55,53,50
47.54500,-0.16712,-0.08558,0.00000,0.03233,0.97527,-0.18764,0.0,2023,6,7,16,55,53,60
47.54510,0.04288,-0.12058,0.00000,0.03196,0.97771,-0.18788,0.0,2023,6,7,16,55,53,71
47.54520,-0.23712,0.15942,0.00000,0.02952,0.97685,-0.18849,0.0,2023,6,7,16,55,53,81
47.54530,-0.11462,0.00192,0.00000,0.02879,0.97490,-0.19142,0.0,2023,6,7,16,55,53,92
47.54540,0.14788,-0.10308,0.00000,0.03013,0.97771,-0.18971,0.0,2023,6,7,16,55,53,102
47.54550,-0.02712,-0.01558,0.00000,0.03428,0.97710,-0.18922,0.0,2023,6,7,16,55,53,113
47.54560,-0.02712,0.05442,0.00000,0.03111,0.97624,-0.18971,0.0,2023,6,7,16,55,53,123
47.54570,0.14788,0.01942,0.00000,0.03221,0.97466,-0.18873,0.0,2023,6,7,16,55,53,134
47.54580,0.02538,-0.13808,0.00000,0.03135,0.97393,-0.19313,0.0,2023,6,7,16,55,53,144
47.54590,-0.16712,0.08942,0.00000,0.03209,0.97698,-0.19081,0.0,2023,6,7,16,55,53,155
47.54600,-0.02712,0.00192,0.00000,0.03257,0.97649,-0.19008,0.0,2023,6,7,16,55,53,165
47.54610,-0.18462,0.21192,0.00000,0.03221,0.97539,-0.18934,0.0,2023,6,7,16,55,53,176
47.54620,-0.06212,0.08942,0.00000,0.03062,0.97673,-0.18788,0.0,2023,6,7,16,55,53,186
47.54630,0.14788,-0.08558,0.00000,0.03282,0.97490,-0.18873,0.0,2023,6,7,16,55,53,197
47.54640,0.23538,-0.10308,0.00000,0.02989,0.97722,-0.18971,0.0,2023,6,7,16,55,53,207
47.54650,0.11288,0.05442,0.00000,0.03221,0.97698,-0.19081,0.0,2023,6,7,16,55,53,218
47.54660,-0.18462,0.00192,0.00000,0.02916,0.97600,-0.18751,0.0,2023,6,7,16,55,53,228
47.54670,-0.00962,0.15942,0.00000,0.03062,0.97795,-0.18605,0.0,2023,6,7,16,55,53,239
47.54680,-0.04462,-0.01558,0.00000,0.03282,0.97478,-0.18873,0.0,2023,6,7,16,55,53,249
47.54690,-0.11462,0.10692,0.00000,0.02794,0.97673,-0.19008,0.0,2023,6,7,16,55,53,260
47.54700,0.16538,0.00192,0.00000,0.03099,0.97868,-0.19203,0.0,2023,6,7,16,55,53,270
47.54710,0.09538,0.00192,0.00000,0.03038,0.97685,-0.18910,0.0,2023,6,7,16,55,53,281
47.54720,0.04288,-0.15558,0.00000,0.03038,0.97795,-0.19008,0.0,2023,6,7,16,55,53,291
47.54730,0.11288,0.03692,0.00000,0.03318,0.97307,-0.18983,0.0,2023,6,7,16,55,53,302
47.54740,0.00788,-0.03308,0.00000,0.03221,0.97624,-0.19069,0.0,2023,6,7,16,55,53,312
47.54750,0.13038,-0.13808,0.00000,0.03331,0.97551,-0.19044,0.0,2023,6,7,16,55,53,323
47.54760,-0.16712,-0.08558,0.00000,0.03331,0.97576,-0.19105,0.0,2023,6,7,16,55,53,333
47.54770,0.07788,-0.08558,0.00000,0.03184,0.97893,-0.18898,0.0,2023,6,7,16,55,53,344
47.54780,-0.16712,0.10692,0.00000,0.03331,0.97832,-0.18922,0.0,2023,6,7,16,55,53,354
47.54790,-0.16712,0.01942,0.00000,0.03123,0.97637,-0.18873,0.0,2023,6,7,16,55,53,365
47.54800,-0.02712,0.01942,0.00000,0.03062,0.97661,-0.18825,0.0,2023,6,7,16,55,53,375
47.54810,-0.02712,0.01942,0.00000,0.03135,0.97612,-0.19117,0.0,2023,6,7,16,55,53,386
47.54820,0.06038,0.21192,0.00000,0.03062,0.97441,-0.19032,0.0,2023,6,7,16,55,53,396
47.54830,-0.07962,0.01942,0.00000,0.03160,0.97405,-0.18959,0.0,2023,6,7,16,55,53,407
47.54840,0.11288,0.14192,0.00000,0.03196,0.97502,-0.18812,0.0,2023,6,7,16,55,53,417
47.54850,-0.04462,-0.06808,0.00000,0.03050,0.97588,-0.18764,0.0,2023,6,7,16,55,53,428
47.54860,-0.09712,0.10692,0.00000,0.03282,0.97539,-0.19069,0.0,2023,6,7,16,55,53,438
47.54870,-0.18462,0.08942,0.00000,0.03074,0.97600,-0.18971,0.0,2023,6,7,16,55,53,449
47.54880,0.11288,-0.22558,0.00000,0.03111,0.97563,-0.18837,0.0,2023,6,7,16,55,53,459
47.54890,-0.04462,0.10692,0.00000,0.02891,0.97661,-0.18861,0.0,2023,6,7,16,55,53,470
47.54900,0.02538,0.01942,0.00000,0.03001,0.97795,-0.19130,0.0,2023,6,7,16,55,53,480
47.54910,-0.04462,0.14192,0.00000,0.02977,0.97710,-0.18788,0.0,2023,6,7,16,55,53,491
47.54920,-0.11462,0.01942,0.00000,0.03257,0.97368,-0.18910,0.0,2023,6,7,16,55,53,501
47.54930,0.06038,-0.17308,0.00000,0.03404,0.97637,-0.19056,0.0,2023,6,7,16,55,53,512
47.54940,-0.07962,-0.13808,0.00000,0.02952,0.97746,-0.19020,0.0,2023,6,7,16,55,53,522
47.54950,-0.02712,-0.01558,0.00000,0.03062,0.97734,-0.18800,0.0,2023,6,7,16,55,53,533
47.54960,-0.00962,0.17692,0.00000,0.03062,0.97746,-0.18995,0.0,2023,6,7,16,55,53,543
47.54970,-0.11462,0.10692,0.00000,0.03026,0.97576,-0.19056,0.0,2023,6,7,16,55,53,554
47.54980,0.11288,-0.10308,0.00000,0.03148,0.97637,-0.18995,0.0,2023,6,7,16,55,53,564
47.54990,0.06038,0.07192,0.00000,0.02977,0.97502,-0.18812,0.0,2023,6,7,16,55,53,575
47.55000,-0.11462,0.03692,0.00000,0.03221,0.97722,-0.18764,0.0,2023,6,7,16,55,53,585
47.55010,0.13038,-0.17308,0.00000,0.03184,0.97454,-0.18934,0.0,2023,6,7,16,55,53,596
47.55020,0.06038,0.21192,0.00000,0.03123,0.97612,-0.18910,0.0,2023,6,7,16,55,53,606
47.55030,0.20038,-0.12058,0.00000,0.02891,0.97417,-0.19215,0.0,2023,6,7,16,55,53,617
47.55040,-0.02712,0.07192,0.00000,0.03111,0.97710,-0.18642,0.0,2023,6,7,16,55,53,627
47.55050,-0.30712,-0.06808,0.00000,0.03087,0.97649,-0.18715,0.0,2023,6,7,16,55,53,638
47.55060,0.09538,0.01942,0.00000,0.03196,0.97454,-0.18654,0.0,2023,6,7,16,55,53,648
47.55070,0.09538,-0.05058,0.00000,0.03233,0.97734,-0.19056,0.0,2023,6,7,16,55,53,659
47.55080,0.04288,-0.24308,0.00000,0.03221,0.97600,-0.18959,0.0,2023,6,7,16,55,53,669
47.55090,0.02538,-0.05058,0.00000,0.03184,0.97551,-0.18800,0.0,2023,6,7,16,55,53,680
47.55100,0.13038,-0.08558,0.00000,0.03184,0.97624,-0.18532,0.0,2023,6,7,16,55,53,690
47.55110,-0.04462,0.05442,0.00000,0.02977,0.97795,-0.18922,0.0,2023,6,7,16,55,53,701
47.55120,0.02538,0.08942,0.00000,0.03050,0.97600,-0.18776,0.0,2023,6,7,16,55,53,711
47.55130,-0.21962,-0.08558,0.00000,0.03172,0.97637,-0.18849,0.0,2023,6,7,16,55,53,722
47.55140,0.04288,-0.08558,0.00000,0.03306,0.97759,-0.18886,0.0,2023,6,7,16,55,53,732
47.55150,0.00788,0.01942,0.00000,0.03148,0.97832,-0.18788,0.0,2023,6,7,16,55,53,743
47.55160,0.07788,-0.22558,0.00000,0.03172,0.97783,-0.18849,0.0,2023,6,7,16,55,53,753
47.55170,0.14788,-0.08558,0.00000,0.03111,0.97380,-0.18971,0.0,2023,6,7,16,55,53,764
47.55180,-0.04462,0.05442,0.00000,0.03172,0.97490,-0.18934,0.0,2023,6,7,16,55,53,774
47.55190,-0.25462,-0.10308,0.00000,0.03233,0.97759,-0.18812,0.0,2023,6,7,16,55,53,785
47.55200,-0.04462,0.01942,0.00000,0.03026,0.97710,-0.19069,0.0,2023,6,7,16,55,53,795
47.55210,-0.07962,0.00192,0.00000,0.03087,0.97649,-0.18605,0.0,2023,6,7,16,55,53,806
47.55220,-0.32462,-0.08558,0.00000,0.03123,0.97710,-0.18776,0.0,2023,6,7,16,55,53,816
47.55230,-0.07962,-0.13808,0.00000,0.03038,0.97795,-0.18947,0.0,2023,6,7,16,55,53,827
47.55240,0.04288,-0.19058,0.00000,0.03282,0.97429,-0.19166,0.0,2023,6,7,16,55,53,837
47.55250,-0.04462,-0.05058,0.00000,0.03135,0.97673,-0.18971,0.0,2023,6,7,16,55,53,848
47.55260,0.02538,0.19442,0.00000,0.03172,0.97588,-0.18751,0.0,2023,6,7,16,55,53,858
47.55270,0.02538,0.08942,0.00000,0.03123,0.97368,-0.18849,0.0,2023,6,7,16,55,53,869
47.55280,-0.09712,-0.03308,0.00000,0.03257,0.97820,-0.18886,0.0,2023,6,7,16,55,53,879
47.55290,0.13038,0.05442,0.00000,0.03196,0.97527,-0.18764,0.0,2023,6,7,16,55,53,890
47.55300,-0.09712,-0.06808,0.00000,0.02696,0.97295,-0.18800,0.0,2023,6,7,16,55,53,900
47.55310,-0.16712,0.01942,0.00000,0.03294,0.97734,-0.18873,0.0,2023,6,7,16,55,53,911
47.55320,-0.18462,0.07192,0.00000,0.03270,0.97539,-0.18995,0.0,2023,6,7,16,55,53,921
47.55330,-0.00962,0.21192,0.00000,0.03087,0.97624,-0.18971,0.0,2023,6,7,16,55,53,932
47.55340,-0.04462,-0.12058,0.00000,0.03221,0.97637,-0.19008,0.0,2023,6,7,16,55,53,942
47.55350,-0.21962,0.19442,0.00000,0.02916,0.97771,-0.19020,0.0,2023,6,7,16,55,54,3
47.55360,-0.16712,-0.01558,0.00000,0.03172,0.97624,-0.18886,0.0,2023,6,7,16,55,54,13
47.55370,0.06038,-0.24308,0.00000,0.02952,0.97454,-0.18947,0.0,2023,6,7,16,55,54,24
47.55380,-0.06212,-0.15558,0.00000,0.03257,0.97563,-0.18837,0.0,2023,6,7,16,55,54,34
47.55390,0.06038,-0.17308,0.00000,0.03038,0.97539,-0.18922,0.0,2023,6,7,16,55,54,45
47.55400,-0.14962,0.00192,0.00000,0.03099,0.97600,-0.18995,0.0,2023,6,7,16,55,54,55
47.55410,-0.18462,-0.01558,0.00000,0.03196,0.97478,-0.18983,0.0,2023,6,7,16,55,54,66
47.55420,0.00788,0.01942,0.00000,0.03087,0.97844,-0.19105,0.0,2023,6,7,16,55,54,76
47.55430,-0.11462,0.00192,0.00000,0.03270,0.97624,-0.18959,0.0,2023,6,7,16,55,54,87
47.55440,-0.02712,-0.24308,0.00000,0.03233,0.97612,-0.19008,0.0,2023,6,7,16,55,54,97
47.55450,0.16538,0.15942,0.00000,0.03184,0.97795,-0.19227,0.0,2023,6,7,16,55,54,108
47.55460,0.00788,-0.10308,0.00000,0.03013,0.97722,-0.19105,0.0,2023,6,7,16,55,54,118
47.55470,-0.00962,-0.08558,0.00000,0.03111,0.97368,-0.18886,0.0,2023,6,7,16,55,54,129
47.55480,0.09538,-0.05058,0.00000,0.03196,0.97661,-0.18983,0.0,2023,6,7,16,55,54,139
47.55490,-0.07962,0.00192,0.00000,0.03209,0.97515,-0.18861,0.0,2023,6,7,16,55,54,150
47.55500,0.09538,-0.33058,0.00000,0.03135,0.97600,-0.19105,0.0,2023,6,7,16,55,54,160
47.55510,-0.02712,0.00192,0.00000,0.03233,0.97527,-0.19288,0.0,2023,6,7,16,55,54,171
47.55520,-0.00962,-0.06808,0.00000,0.03135,0.97649,-0.18995,0.0,2023,6,7,16,55,54,181
47.55530,-0.11462,0.14192,0.00000,0.03135,0.97637,-0.18764,0.0,2023,6,7,16,55,54,192
47.55540,0.00788,0.00192,0.00000,0.03013,0.97661,-0.19044,0.0,2023,6,7,16,55,54,202
47.55550,0.00788,-0.13808,0.00000,0.02904,0.97649,-0.18934,0.0,2023,6,7,16,55,54,213
47.55560,-0.18462,0.12442,0.00000,0.03050,0.97393,-0.19044,0.0,2023,6,7,16,55,54,223
47.55570,-0.11462,0.01942,0.00000,0.03196,0.97795,-0.18934,0.0,2023,6,7,16,55,54,234
47.55580,-0.11462,-0.01558,0.00000,0.03111,0.97905,-0.19105,0.0,2023,6,7,16,55,54,244
47.55590,-0.00962,-0.10308,0.00000,0.02952,0.97673,-0.19032,0.0,2023,6,7,16,55,54,255
47.55600,-0.02712,0.08942,0.00000,0.03038,0.97319,-0.19166,0.0,2023,6,7,16,55,54,265
47.55610,-0.04462,0.38692,0.00000,0.03294,0.97771,-0.18947,0.0,2023,6,7,16,55,54,276
47.55620,-0.06212,0.05442,0.00000,0.03184,0.97551,-0.18764,0.0,2023,6,7,16,55,54,286
47.55630,-0.00962,0.03692,0.00000,0.02830,0.97661,-0.18898,0.0,2023,6,7,16,55,54,297
47.55640,0.21788,-0.03308,0.00000,0.03355,0.97673,-0.19020,0.0,2023,6,7,16,55,54,307
47.55650,-0.06212,0.08942,0.00000,0.03282,0.97539,-0.18788,0.0,2023,6,7,16,55,54,318
47.55660,0.20038,-0.22558,0.00000,0.03196,0.97368,-0.19056,0.0,2023,6,7,16,55,54,328
47.55670,0.11288,-0.22558,0.00000,0.03318,0.97893,-0.18886,0.0,2023,6,7,16,55,54,339
47.55680,-0.20212,-0.03308,0.00000,0.03087,0.97600,-0.19117,0.0,2023,6,7,16,55,54,349
47.55690,0.13038,-0.08558,0.00000,0.03123,0.97734,-0.18898,0.0,2023,6,7,16,55,54,360
47.55700,-0.16712,0.03692,0.00000,0.03172,0.97588,-0.18703,0.0,2023,6,7,16,55,54,370
47.55710,-0.16712,0.08942,0.00000,0.02952,0.97441,-0.18922,0.0,2023,6,7,16,55,54,381
47.55720,0.20038,-0.10308,0.00000,0.03184,0.97624,-0.19069,0.0,2023,6,7,16,55,54,391
47.55730,-0.00962,0.14192,0.00000,0.03282,0.97454,-0.18995,0.0,2023,6,7,16,55,54,402
47.55740,-0.00962,-0.06808,0.00000,0.03184,0.97759,-0.18849,0.0,2023,6,7,16,55,54,412
47.55750,-0.02712,-0.08558,0.00000,0.03306,0.97661,-0.18764,0.0,2023,6,7,16,55,54,423
47.55760,-0.37712,0.26442,0.00000,0.03160,0.97551,-0.18861,0.0,2023,6,7,16,55,54,433
47.55770,0.14788,-0.01558,0.00000,0.03196,0.97893,-0.19117,0.0,2023,6,7,16,55,54,444
47.55780,0.20038,-0.12058,0.00000,0.03099,0.97746,-0.18995,0.0,2023,6,7,16,55,54,454
47.55790,-0.09712,-0.05058,0.00000,0.03013,0.97576,-0.18910,0.0,2023,6,7,16,55,54,465
47.55800,-0.07962,0.01942,0.00000,0.03111,0.97746,-0.18934,0.0,2023,6,7,16,55,54,475
47.55810,0.00788,0.14192,0.00000,0.03282,0.97539,-0.18910,0.0,2023,6,7,16,55,54,486
47.55820,-0.13212,0.12442,0.00000,0.03099,0.97759,-0.18947,0.0,2023,6,7,16,55,54,496
47.55830,0.11288,-0.12058,0.00000,0.03074,0.97661,-0.18910,0.0,2023,6,7,16,55,54,507
47.55840,0.13038,-0.10308,0.00000,0.03123,0.97722,-0.18666,0.0,2023,6,7,16,55,54,517
47.55850,-0.18462,0.07192,0.00000,0.03135,0.97734,-0.19020,0.0,2023,6,7,16,55,54,528
47.55860,0.09538,-0.01558,0.00000,0.03209,0.97673,-0.18751,0.0,2023,6,7,16,55,54,538
47.55870,-0.09712,0.14192,0.00000,0.02989,0.97710,-0.18873,0.0,2023,6,7,16,55,54,549
47.55880,-0.11462,-0.08558,0.00000,0.03038,0.97576,-0.19117,0.0,2023,6,7,16,55,54,559
47.55890,-0.06212,-0.05058,0.00000,0.03062,0.97771,-0.18703,0.0,2023,6,7,16,55,54,570
47.55900,-0.11462,-0.03308,0.00000,0.03270,0.97612,-0.18642,0.0,2023,6,7,16,55,54,580
47.55910,0.13038,0.01942,0.00000,0.03160,0.97807,-0.18788,0.0,2023,6,7,16,55,54,591
47.55920,-0.27212,-0.05058,0.00000,0.03428,0.97759,-0.18654,0.0,2023,6,7,16,55,54,601
47.55930,0.02538,0.08942,0.00000,0.03001,0.97759,-0.19142,0.0,2023,6,7,16,55,54,612
47.55940,0.13038,-0.05058,0.00000,0.03135,0.97380,-0.18690,0.0,2023,6,7,16,55,54,622
47.55950,-0.34212,-0.10308,0.00000,0.03099,0.97624,-0.18995,0.0,2023,6,7,16,55,54,633
47.55960,0.16538,-0.10308,0.00000,0.03050,0.97881,-0.19239,0.0,2023,6,7,16,55,54,643
47.55970,0.02538,-0.05058,0.00000,0.03294,0.97771,-0.18812,0.0,2023,6,7,16,55,54,654
47.55980,-0.27212,0.03692,0.00000,0.03050,0.97917,-0.18886,0.0,2023,6,7,16,55,54,664
47.55990,0.14788,0.21192,0.00000,0.03306,0.97551,-0.18947,0.0,2023,6,7,16,55,54,675
47.56000,0.02538,-0.15558,0.00000,0.03343,0.97527,-0.18825,0.0,2023,6,7,16,55,54,685
47.56010,0.04288,0.01942,0.00000,0.03123,0.97783,-0.18910,0.0,2023,6,7,16,55,54,696
47.56020,-0.02712,0.05442,0.00000,0.03050,0.97637,-0.18642,0.0,2023,6,7,16,55,54,706
47.56030,-0.39462,0.12442,0.00000,0.02977,0.97710,-0.18727,0.0,2023,6,7,16,55,54,717
47.56040,-0.02712,0.07192,0.00000,0.02879,0.97637,-0.18959,0.0,2023,6,7,16,55,54,727
47.56050,-0.14962,0.12442,0.00000,0.03172,0.97661,-0.18703,0.0,2023,6,7,16,55,54,738
47.56060,0.00788,-0.01558,0.00000,0.03111,0.97441,-0.18971,0.0,2023,6,7,16,55,54,748
47.56070,-0.02712,0.24692,0.00000,0.03501,0.97576,-0.18849,0.0,2023,6,7,16,55,54,759
47.56080,-0.07962,-0.08558,0.00000,0.03099,0.97563,-0.18776,0.0,2023,6,7,16,55,54,769
47.56090,-0.00962,-0.05058,0.00000,0.03001,0.97612,-0.18947,0.0,2023,6,7,16,55,54,780
47.56100,0.34038,-0.17308,0.00000,0.03062,0.97612,-0.19069,0.0,2023,6,7,16,55,54,790
47.56110,-0.09712,0.10692,0.00000,0.03196,0.97856,-0.18995,0.0,2023,6,7,16,55,54,801
47.56120,0.07788,0.07192,0.00000,0.03111,0.97832,-0.19056,0.0,2023,6,7,16,55,54,811
47.56130,0.04288,-0.22558,0.00000,0.03404,0.97454,-0.18873,0.0,2023,6,7,16,55,54,822
47.56140,-0.11462,0.14192,0.00000,0.03160,0.97551,-0.18861,0.0,2023,6,7,16,55,54,832
47.56150,-0.11462,0.07192,0.00000,0.03074,0.97710,-0.18898,0.0,2023,6,7,16,55,54,843
47.56160,0.04288,-0.01558,0.00000,0.03087,0.97490,-0.19069,0.0,2023,6,7,16,55,54,853
47.56170,-0.18462,0.14192,0.00000,0.03209,0.97588,-0.18861,0.0,2023,6,7,16,55,54,864
47.56180,-0.06212,0.14192,0.00000,0.03013,0.97588,-0.18898,0.0,2023,6,7,16,55,54,874
47.56190,0.06038,0.00192,0.00000,0.03148,0.97673,-0.18995,0.0,2023,6,7,16,55,54,885
47.56200,0.04288,-0.06808,0.00000,0.03026,0.97490,-0.18873,0.0,2023,6,7,16,55,54,895
47.56210,-0.09712,-0.03308,0.00000,0.02855,0.97502,-0.18788,0.0,2023,6,7,16,55,54,906
47.56220,0.04288,-0.10308,0.00000,0.03221,0.97539,-0.18849,0.0,2023,6,7,16,55,54,916
47.56230,0.16538,-0.08558,0.00000,0.03221,0.97527,-0.18873,0.0,2023,6,7,16,55,54,927
47.56240,-0.07962,0.00192,0.00000,0.03135,0.97771,-0.18727,0.0,2023,6,7,16,55,54,937
47.56250,-0.06212,-0.03308,0.00000,0.03001,0.97551,-0.19044,0.0,2023,6,7,16,55,54,948
47.56260,-0.04462,-0.26058,0.00000,0.03233,0.97759,-0.18922,0.0,2023,6,7,16,55,55,8
47.56270,0.09538,0.03692,0.00000,0.03074,0.97661,-0.18995,0.0,2023,6,7,16,55,55,19
47.56280,0.02538,-0.06808,0.00000,0.03160,0.97515,-0.19056,0.0,2023,6,7,16,55,55,29
47.56290,-0.00962,-0.03308,0.00000,0.03148,0.97624,-0.18861,0.0,2023,6,7,16,55,55,40
47.56300,0.25288,-0.13808,0.00000,0.03355,0.97881,-0.19227,0.0,2023,6,7,16,55,55,50
47.56310,-0.20212,0.19442,0.00000,0.03038,0.97539,-0.19008,0.0,2023,6,7,16,55,55,61
47.56320,0.07788,0.03692,0.00000,0.03245,0.97685,-0.18947,0.0,2023,6,7,16,55,55,71
47.56330,0.09538,0.10692,0.00000,0.03221,0.97478,-0.18983,0.0,2023,6,7,16,55,55,82
47.56340,-0.30712,0.07192,0.00000,0.03038,0.97710,-0.18861,0.0,2023,6,7,16,55,55,92
47.56350,-0.00962,-0.13808,0.00000,0.02965,0.97441,-0.19044,0.0,2023,6,7,16,55,55,103
47.56360,-0.04462,0.05442,0.00000,0.02855,0.97624,-0.18959,0.0,2023,6,7,16,55,55,113
47.56370,-0.09712,-0.05058,0.00000,0.03062,0.97685,-0.18654,0.0,2023,6,7,16,55,55,124
47.56380,0.02538,-0.12058,0.00000,0.02904,0.97771,-0.18861,0.0,2023,6,7,16,55,55,134
47.56390,0.00788,-0.06808,0.00000,0.03196,0.97368,-0.18873,0.0,2023,6,7,16,55,55,145
47.56400,-0.09712,0.05442,0.00000,0.03099,0.97649,-0.18776,0.0,2023,6,7,16,55,55,155
47.56410,-0.11462,-0.17308,0.00000,0.03172,0.97551,-0.18995,0.0,2023,6,7,16,55,55,166
47.56420,-0.06212,0.01942,0.00000,0.03062,0.97502,-0.18910,0.0,2023,6,7,16,55,55,176
47.56430,-0.13212,0.14192,0.00000,0.03331,0.97661,-0.18751,0.0,2023,6,7,16,55,55,187
47.56440,0.14788,-0.10308,0.00000,0.03184,0.97649,-0.19008,0.0,2023,6,7,16,55,55,197
47.56450,0.06038,-0.05058,0.00000,0.03282,0.97441,-0.19105,0.0,2023,6,7,16,55,55,208
47.56460,-0.09712,0.19442,0.00000,0.03038,0.97722,-0.18800,0.0,2023,6,7,16,55,55,218
47.56470,0.06038,-0.10308,0.00000,0.03099,0.97783,-0.18959,0.0,2023,6,7,16,55,55,229
47.56480,0.00788,-0.08558,0.00000,0.03050,0.97795,-0.18739,0.0,2023,6,7,16,55,55,239
47.56490,-0.11462,-0.06808,0.00000,0.03123,0.97685,-0.18886,0.0,2023,6,7,16,55,55,250
47.56500,-0.09712,0.03692,0.00000,0.03160,0.97539,-0.18861,0.0,2023,6,7,16,55,55,260
47.56510,0.07788,-0.03308,0.00000,0.03270,0.97661,-0.18629,0.0,2023,6,7,16,55,55,271
47.56520,-0.11462,-0.05058,0.00000,0.03257,0.97612,-0.18715,0.0,2023,6,7,16,55,55,281
47.56530,-0.06212,-0.03308,0.00000,0.03026,0.97612,-0.19239,0.0,2023,6,7,16,55,55,292
47.56540,-0.06212,0.01942,0.00000,0.03233,0.97454,-0.18898,0.0,2023,6,7,16,55,55,302
47.56550,-0.02712,0.15942,0.00000,0.03294,0.97490,-0.18861,0.0,2023,6,7,16,55,55,313
47.56560,0.11288,-0.10308,0.00000,0.03196,0.97637,-0.18947,0.0,2023,6,7,16,55,55,323
47.56570,0.04288,0.15942,0.00000,0.03050,0.97771,-0.18861,0.0,2023,6,7,16,55,55,334
47.56580,0.06038,0.03692,0.00000,0.03123,0.97771,-0.19056,0.0,2023,6,7,16,55,55,344
47.56590,-0.11462,-0.06808,0.00000,0.03050,0.97685,-0.18995,0.0,2023,6,7,16,55,55,355
47.56600,0.07788,-0.20808,0.00000,0.03172,0.97624,-0.18812,0.0,2023,6,7,16,55,55,365
47.56610,-0.04462,0.00192,0.00000,0.03087,0.97661,-0.18849,0.0,2023,6,7,16,55,55,376
47.56620,-0.11462,0.10692,0.00000,0.03135,0.97551,-0.18910,0.0,2023,6,7,16,55,55,386
47.56630,0.06038,-0.12058,0.00000,0.03026,0.97685,-0.19056,0.0,2023,6,7,16,55,55,397
47.56640,0.02538,-0.27808,0.00000,0.03111,0.97698,-0.18959,0.0,2023,6,7,16,55,55,407
47.56650,-0.14962,0.05442,0.00000,0.03099,0.97771,-0.18934,0.0,2023,6,7,16,55,55,418
47.56660,-0.14962,-0.03308,0.00000,0.03172,0.97673,-0.18800,0.0,2023,6,7,16,55,55,428
47.56670,-0.07962,-0.06808,0.00000,0.02916,0.97698,-0.18934,0.0,2023,6,7,16,55,55,439
47.56680,0.00788,0.19442,0.00000,0.03233,0.97844,-0.19044,0.0,2023,6,7,16,55,55,449
47.56690,0.07788,0.05442,0.00000,0.03001,0.97563,-0.19166,0.0,2023,6,7,16,55,55,460
47.56700,0.07788,-0.15558,0.00000,0.03160,0.97380,-0.18837,0.0,2023,6,7,16,55,55,470
47.56710,-0.07962,0.17692,0.00000,0.03257,0.97685,-0.19178,0.0,2023,6,7,16,55,55,481
47.56720,0.04288,0.08942,0.00000,0.03294,0.97490,-0.18922,0.0,2023,6,7,16,55,55,491
47.56730,0.06038,0.07192,0.00000,0.03172,0.97710,-0.19032,0.0,2023,6,7,16,55,55,502
47.56740,0.28788,-0.06808,0.00000,0.03013,0.97478,-0.18886,0.0,2023,6,7,16,55,55,512
47.56750,-0.04462,-0.01558,0.00000,0.03148,0.97710,-0.19239,0.0,2023,6,7,16,55,55,523
47.56760,0.06038,-0.08558,0.00000,0.03184,0.97539,-0.18947,0.0,2023,6,7,16,55,55,533
47.56770,0.07788,-0.19058,0.00000,0.03026,0.97576,-0.19117,0.0,2023,6,7,16,55,55,544
47.56780,-0.13212,0.10692,0.00000,0.03123,0.97417,-0.18825,0.0,2023,6,7,16,55,55,554
47.56790,0.00788,0.29942,0.00000,0.03062,0.97515,-0.19191,0.0,2023,6,7,16,55,55,565
47.56800,0.21788,-0.13808,0.00000,0.03050,0.97563,-0.19166,0.0,2023,6,7,16,55,55,575
47.56810,-0.18462,0.19442,0.00000,0.03013,0.97551,-0.18825,0.0,2023,6,7,16,55,55,586
47.56820,0.04288,0.03692,0.00000,0.03257,0.97417,-0.18910,0.0,2023,6,7,16,55,55,596
47.56830,0.00788,0.10692,0.00000,0.03196,0.97502,-0.18971,0.0,2023,6,7,16,55,55,607
47.56840,0.04288,0.03692,0.00000,0.02891,0.97515,-0.19020,0.0,2023,6,7,16,55,55,617
47.56850,-0.00962,0.07192,0.00000,0.02965,0.97539,-0.19020,0.0,2023,6,7,16,55,55,628
47.56860,-0.00962,-0.15558,0.00000,0.03123,0.97612,-0.18995,0.0,2023,6,7,16,55,55,638
47.56870,-0.07962,-0.05058,0.00000,0.03221,0.97539,-0.18910,0.0,2023,6,7,16,55,55,649
47.56880,-0.18462,-0.01558,0.00000,0.03209,0.97441,-0.18812,0.0,2023,6,7,16,55,55,659
47.56890,0.00788,-0.05058,0.00000,0.03148,0.97441,-0.18812,0.0,2023,6,7,16,55,55,670
47.56900,-0.02712,0.00192,0.00000,0.02952,0.97783,-0.19020,0.0,2023,6,7,16,55,55,680
47.56910,0.02538,0.00192,0.00000,0.03038,0.97795,-0.19020,0.0,2023,6,7,16,55,55,691
47.56920,0.09538,0.12442,0.00000,0.03404,0.97539,-0.18776,0.0,2023,6,7,16,55,55,701
47.56930,-0.07962,0.05442,0.00000,0.03172,0.97576,-0.18812,0.0,2023,6,7,16,55,55,712
47.56940,0.07788,0.01942,0.00000,0.03148,0.97893,-0.18886,0.0,2023,6,7,16,55,55,722
47.56950,0.11288,0.05442,0.00000,0.03013,0.97551,-0.18849,0.0,2023,6,7,16,55,55,733
47.56960,0.14788,-0.17308,0.00000,0.03001,0.97771,-0.19008,0.0,2023,6,7,16,55,55,743
47.56970,0.16538,-0.05058,0.00000,0.03184,0.97551,-0.18886,0.0,2023,6,7,16,55,55,754
47.56980,0.04288,0.10692,0.00000,0.03209,0.97820,-0.18898,0.0,2023,6,7,16,55,55,764
47.56990,-0.09712,0.01942,0.00000,0.03123,0.97624,-0.18812,0.0,2023,6,7,16,55,55,775
47.57000,0.11288,-0.03308,0.00000,0.03221,0.97539,-0.18764,0.0,2023,6,7,16,55,55,785
47.57010,-0.14962,0.05442,0.00000,0.03318,0.97563,-0.19032,0.0,2023,6,7,16,55,55,796
47.57020,0.07788,-0.12058,0.00000,0.03050,0.97539,-0.18861,0.0,2023,6,7,16,55,55,806
47.57030,-0.06212,0.07192,0.00000,0.03135,0.97734,-0.18898,0.0,2023,6,7,16,55,55,817
47.57040,0.09538,0.01942,0.00000,0.03257,0.97746,-0.19008,0.0,2023,6,7,16,55,55,827
47.57050,0.04288,0.00192,0.00000,0.03331,0.97539,-0.18934,0.0,2023,6,7,16,55,55,838
47.57060,-0.13212,0.17692,0.00000,0.03026,0.97637,-0.19044,0.0,2023,6,7,16,55,55,848
47.57070,-0.09712,-0.22558,0.00000,0.03306,0.97478,-0.19069,0.0,2023,6,7,16,55,55,859
47.57080,-0.07962,0.00192,0.00000,0.03099,0.97502,-0.19093,0.0,2023,6,7,16,55,55,869
47.57090,0.04288,0.14192,0.00000,0.03306,0.97490,-0.19081,0.0,2023,6,7,16,55,55,880
47.57100,-0.02712,-0.08558,0.00000,0.02989,0.97380,-0.19105,0.0,2023,6,7,16,55,55,890
47.57110,-0.13212,0.00192,0.00000,0.03282,0.97746,-0.19069,0.0,2023,6,7,16,55,55,901
47.57120,-0.00962,0.01942,0.00000,0.03148,0.97441,-0.18934,0.0,2023,6,7,16,55,55,911
47.57130,0.02538,0.08942,0.00000,0.03123,0.97746,-0.19008,0.0,2023,6,7,16,55,55,922
47.57140,-0.02712,-0.05058,0.00000,0.03087,0.97820,-0.18837,0.0,2023,6,7,16,55,55,932
47.57150,-0.21962,0.22942,0.00000,0.03148,0.97588,-0.18849,0.0,2023,6,7,16,55,56,3
47.57160,0.06038,0.08942,0.00000,0.03257,0.97551,-0.18971,0.0,2023,6,7,16,55,56,13
47.57170,0.09538,0.07192,0.00000,0.03221,0.97893,-0.18837,0.0,2023,6,7,16,55,56,24
47.57180,-0.13212,0.07192,0.00000,0.03123,0.97710,-0.19130,0.0,2023,6,7,16,55,56,34
47.57190,0.09538,-0.13808,0.00000,0.03148,0.97563,-0.18983,0.0,2023,6,7,16,55,56,45
47.57200,0.16538,0.01942,0.00000,0.02904,0.97649,-0.19252,0.0,2023,6,7,16,55,56,55
47.57210,-0.00962,-0.05058,0.00000,0.02879,0.97722,-0.19032,0.0,2023,6,7,16,55,56,66
47.57220,-0.23712,0.28192,0.00000,0.03123,0.97734,-0.19142,0.0,2023,6,7,16,55,56,76
47.57230,-0.02712,-0.08558,0.00000,0.03148,0.97527,-0.19215,0.0,2023,6,7,16,55,56,87
47.57240,0.02538,-0.10308,0.00000,0.03233,0.97710,-0.18995,0.0,2023,6,7,16,55,56,97
47.57250,0.00788,0.15942,0.00000,0.03026,0.97637,-0.18922,0.0,2023,6,7,16,55,56,108
47.57260,0.16538,-0.03308,0.00000,0.03013,0.97502,-0.18922,0.0,2023,6,7,16,55,56,118
47.57270,-0.11462,0.15942,0.00000,0.03123,0.97466,-0.18959,0.0,2023,6,7,16,55,56,129
47.57280,-0.04462,0.10692,0.00000,0.03038,0.97551,-0.19032,0.0,2023,6,7,16,55,56,139
47.57290,-0.04462,0.01942,0.00000,0.03123,0.97417,-0.19374,0.0,2023,6,7,16,55,56,150
47.57300,0.13038,0.05442,0.00000,0.03160,0.97563,-0.19069,0.0,2023,6,7,16,55,56,160
47.57310,-0.02712,0.05442,0.00000,0.03245,0.97502,-0.18825,0.0,2023,6,7,16,55,56,171
47.57320,0.02538,-0.05058,0.00000,0.03160,0.97685,-0.18995,0.0,2023,6,7,16,55,56,181
47.57330,0.04288,-0.08558,0.00000,0.03074,0.97466,-0.19032,0.0,2023,6,7,16,55,56,192
47.57340,0.04288,-0.05058,0.00000,0.02830,0.97502,-0.19178,0.0,2023,6,7,16,55,56,202
47.57350,-0.04462,0.08942,0.00000,0.02928,0.97661,-0.18837,0.0,2023,6,7,16,55,56,213
47.57360,-0.14962,0.17692,0.00000,0.03294,0.97588,-0.18715,0.0,2023,6,7,16,55,56,223
47.57370,-0.16712,0.00192,0.00000,0.03148,0.97637,-0.18678,0.0,2023,6,7,16,55,56,234
47.57380,0.14788,0.10692,0.00000,0.03013,0.97515,-0.19166,0.0,2023,6,7,16,55,56,244
47.57390,-0.00962,0.05442,0.00000,0.03038,0.97502,-0.19056,0.0,2023,6,7,16,55,56,255
47.57400,0.00788,-0.15558,0.00000,0.03196,0.97637,-0.18947,0.0,2023,6,7,16,55,56,265
47.57410,-0.04462,0.17692,0.00000,0.02989,0.97637,-0.18886,0.0,2023,6,7,16,55,56,276
47.57420,0.02538,-0.13808,0.00000,0.03184,0.97637,-0.18739,0.0,2023,6,7,16,55,56,286
47.57430,0.04288,0.00192,0.00000,0.03050,0.97563,-0.18959,0.0,2023,6,7,16,55,56,297
47.57440,0.09538,-0.10308,0.00000,0.03062,0.97649,-0.18934,0.0,2023,6,7,16,55,56,307
47.57450,0.11288,-0.12058,0.00000,0.03221,0.97490,-0.19154,0.0,2023,6,7,16,55,56,318
47.57460,-0.09712,-0.06808,0.00000,0.03209,0.97722,-0.18739,0.0,2023,6,7,16,55,56,328
47.57470,-0.16712,0.17692,0.00000,0.03379,0.97710,-0.18776,0.0,2023,6,7,16,55,56,339
47.57480,-0.04462,0.03692,0.00000,0.03306,0.97588,-0.18873,0.0,2023,6,7,16,55,56,349
47.57490,0.04288,0.03692,0.00000,0.03245,0.97356,-0.19130,0.0,2023,6,7,16,55,56,360
47.57500,-0.07962,-0.22558,0.00000,0.03184,0.97795,-0.19093,0.0,2023,6,7,16,55,56,370
47.57510,-0.27212,-0.06808,0.00000,0.03196,0.97673,-0.18642,0.0,2023,6,7,16,55,56,381
47.57520,-0.11462,0.12442,0.00000,0.03013,0.97551,-0.18947,0.0,2023,6,7,16,55,56,391
47.57530,0.02538,-0.10308,0.00000,0.03245,0.97490,-0.18898,0.0,2023,6,7,16,55,56,402
47.57540,0.13038,0.00192,0.00000,0.03184,0.97881,-0.18959,0.0,2023,6,7,16,55,56,412
47.57550,-0.07962,0.17692,0.00000,0.03099,0.97649,-0.19008,0.0,2023,6,7,16,55,56,423
47.57560,-0.02712,0.07192,0.00000,0.03331,0.97527,-0.19105,0.0,2023,6,7,16,55,56,433
47.57570,-0.02712,0.08942,0.00000,0.03355,0.97319,-0.18959,0.0,2023,6,7,16,55,56,444
47.57580,0.02538,-0.03308,0.00000,0.03257,0.97380,-0.18873,0.0,2023,6,7,16,55,56,454
47.57590,-0.14962,0.10692,0.00000,0.03196,0.97637,-0.18959,0.0,2023,6,7,16,55,56,465
47.57600,-0.11462,0.00192,0.00000,0.02977,0.97710,-0.18642,0.0,2023,6,7,16,55,56,475
47.57610,0.07788,-0.24308,0.00000,0.03367,0.97551,-0.18764,0.0,2023,6,7,16,55,56,486
47.57620,-0.13212,-0.05058,0.00000,0.03257,0.97746,-0.19032,0.0,2023,6,7,16,55,56,496
47.57630,-0.07962,0.05442,0.00000,0.02965,0.97466,-0.18764,0.0,2023,6,7,16,55,56,507
47.57640,-0.07962,0.05442,0.00000,0.03318,0.97576,-0.19032,0.0,2023,6,7,16,55,56,517
47.57650,-0.06212,-0.06808,0.00000,0.02916,0.97673,-0.18934,0.0,2023,6,7,16,55,56,528
47.57660,0.07788,-0.01558,0.00000,0.03050,0.97820,-0.19142,0.0,2023,6,7,16,55,56,538
47.57670,0.07788,0.12442,0.00000,0.03062,0.97783,-0.18995,0.0,2023,6,7,16,55,56,549
47.57680,0.04288,-0.03308,0.00000,0.03221,0.97820,-0.18764,0.0,2023,6,7,16,55,56,559
47.57690,-0.06212,-0.06808,0.00000,0.03135,0.97661,-0.18825,0.0,2023,6,7,16,55,56,570
47.57700,0.11288,0.03692,0.00000,0.03184,0.97771,-0.18739,0.0,2023,6,7,16,55,56,580
47.57710,-0.00962,0.01942,0.00000,0.03087,0.97624,-0.18800,0.0,2023,6,7,16,55,56,591
47.57720,-0.06212,-0.08558,0.00000,0.03245,0.97478,-0.19069,0.0,2023,6,7,16,55,56,601
47.57730,-0.11462,-0.01558,0.00000,0.02965,0.97710,-0.18776,0.0,2023,6,7,16,55,56,612
47.57740,-0.11462,0.00192,0.00000,0.03001,0.97685,-0.19020,0.0,2023,6,7,16,55,56,622
47.57750,0.04288,0.05442,0.00000,0.03087,0.97698,-0.18922,0.0,2023,6,7,16,55,56,633
47.57760,0.00788,-0.01558,0.00000,0.03013,0.97551,-0.18849,0.0,2023,6,7,16,55,56,643
47.57770,0.02538,0.07192,0.00000,0.03074,0.97637,-0.18983,0.0,2023,6,7,16,55,56,654
47.57780,-0.06212,0.01942,0.00000,0.03038,0.97380,-0.19020,0.0,2023,6,7,16,55,56,664
47.57790,-0.06212,-0.01558,0.00000,0.03026,0.97698,-0.18776,0.0,2023,6,7,16,55,56,675
47.57800,-0.04462,0.10692,0.00000,0.03074,0.97673,-0.18642,0.0,2023,6,7,16,55,56,685
47.57810,0.04288,-0.10308,0.00000,0.02928,0.97588,-0.18690,0.0,2023,6,7,16,55,56,696
47.57820,-0.04462,0.03692,0.00000,0.03318,0.97673,-0.18764,0.0,2023,6,7,16,55,56,706
47.57830,0.04288,-0.13808,0.00000,0.03074,0.97441,-0.19008,0.0,2023,6,7,16,55,56,717
47.57840,-0.06212,0.00192,0.00000,0.03160,0.97515,-0.18995,0.0,2023,6,7,16,55,56,727
47.57850,0.04288,-0.15558,0.00000,0.02904,0.97771,-0.18837,0.0,2023,6,7,16,55,56,738
47.57860,0.02538,-0.10308,0.00000,0.03050,0.97576,-0.18642,0.0,2023,6,7,16,55,56,748
47.57870,0.11288,0.01942,0.00000,0.03135,0.97576,-0.18910,0.0,2023,6,7,16,55,56,759
47.57880,-0.00962,-0.08558,0.00000,0.03148,0.97746,-0.18934,0.0,2023,6,7,16,55,56,769
47.57890,-0.14962,0.15942,0.00000,0.03196,0.97502,-0.18776,0.0,2023,6,7,16,55,56,780
47.57900,-0.02712,0.12442,0.00000,0.03123,0.97734,-0.19178,0.0,2023,6,7,16,55,56,790
47.57910,-0.06212,0.07192,0.00000,0.03099,0.97624,-0.18727,0.0,2023,6,7,16,55,56,801
47.57920,0.07788,0.24692,0.00000,0.02916,0.97576,-0.18995,0.0,2023,6,7,16,55,56,811
47.57930,0.04288,0.08942,0.00000,0.02965,0.97563,-0.18861,0.0,2023,6,7,16,55,56,822
47.57940,-0.21962,0.03692,0.00000,0.03123,0.97612,-0.18532,0.0,2023,6,7,16,55,56,832
47.57950,0.20038,-0.13808,0.00000,0.03062,0.97710,-0.18654,0.0,2023,6,7,16,55,56,843
47.57960,0.13038,-0.13808,0.00000,0.03074,0.97783,-0.18605,0.0,2023,6,7,16,55,56,853
47.57970,-0.13212,-0.06808,0.00000,0.02952,0.97746,-0.18983,0.0,2023,6,7,16,55,56,864
47.57980,0.11288,0.01942,0.00000,0.03233,0.97649,-0.18727,0.0,2023,6,7,16,55,56,874
47.57990,-0.06212,0.03692,0.00000,0.03062,0.97527,-0.18788,0.0,2023,6,7,16,55,56,885
47.58000,0.13038,0.17692,0.00000,0.03099,0.97612,-0.18849,0.0,2023,6,7,16,55,56,895
47.58010,0.14788,-0.15558,0.00000,0.03111,0.97685,-0.18922,0.0,2023,6,7,16,55,56,906
47.58020,-0.04462,-0.22558,0.00000,0.03196,0.97649,-0.18812,0.0,2023,6,7,16,55,56,916
47.58030,0.06038,0.12442,0.00000,0.03160,0.97600,-0.18886,0.0,2023,6,7,16,55,56,927
47.58040,0.04288,0.01942,0.00000,0.03123,0.97454,-0.18812,0.0,2023,6,7,16,55,57,7
47.58050,0.00788,0.01942,0.00000,0.02940,0.97600,-0.18947,0.0,2023,6,7,16,55,57,18
47.58060,0.09538,-0.03308,0.00000,0.03184,0.97624,-0.18983,0.0,2023,6,7,16,55,57,28
47.58070,0.02538,0.12442,0.00000,0.02928,0.97685,-0.18727,0.0,2023,6,7,16,55,57,39
47.58080,-0.02712,-0.08558,0.00000,0.03074,0.97734,-0.19093,0.0,2023,6,7,16,55,57,49
47.58090,0.13038,0.12442,0.00000,0.03257,0.97661,-0.19020,0.0,2023,6,7,16,55,57,60
47.58100,-0.11462,-0.03308,0.00000,0.03074,0.97490,-0.18898,0.0,2023,6,7,16,55,57,70
47.58110,0.00788,-0.01558,0.00000,0.03209,0.97746,-0.19300,0.0,2023,6,7,16,55,57,81
47.58120,-0.09712,-0.13808,0.00000,0.03221,0.97624,-0.18934,0.0,2023,6,7,16,55,57,91
47.58130,-0.02712,-0.08558,0.00000,0.02989,0.97954,-0.19093,0.0,2023,6,7,16,55,57,102
47.58140,0.09538,-0.03308,0.00000,0.02818,0.97685,-0.19325,0.0,2023,6,7,16,55,57,112
47.58150,0.07788,-0.13808,0.00000,0.03099,0.97624,-0.19032,0.0,2023,6,7,16,55,57,123
47.58160,-0.02712,-0.15558,0.00000,0.03026,0.97637,-0.19020,0.0,2023,6,7,16,55,57,133
47.58170,-0.06212,0.10692,0.00000,0.03062,0.97527,-0.18837,0.0,2023,6,7,16,55,57,144
47.58180,-0.00962,0.03692,0.00000,0.03099,0.97649,-0.18764,0.0,2023,6,7,16,55,57,154
47.58190,0.04288,0.12442,0.00000,0.03123,0.97466,-0.19056,0.0,2023,6,7,16,55,57,165
47.58200,-0.04462,0.00192,0.00000,0.03245,0.97783,-0.18983,0.0,2023,6,7,16,55,57,175
47.58210,-0.13212,0.17692,0.00000,0.03221,0.97746,-0.19044,0.0,2023,6,7,16,55,57,186
47.58220,-0.16712,0.19442,0.00000,0.03404,0.97710,-0.19008,0.0,2023,6,7,16,55,57,196
47.58230,-0.16712,-0.03308,0.00000,0.03184,0.97673,-0.18959,0.0,2023,6,7,16,55,57,207
47.58240,0.16538,0.01942,0.00000,0.03026,0.97576,-0.18898,0.0,2023,6,7,16,55,57,217
47.58250,0.20038,0.10692,0.00000,0.03038,0.97746,-0.19069,0.0,2023,6,7,16,55,57,228
47.58260,-0.00962,-0.08558,0.00000,0.03257,0.97722,-0.19032,0.0,2023,6,7,16,55,57,238
47.58270,-0.11462,0.07192,0.00000,0.03123,0.97673,-0.19056,0.0,2023,6,7,16,55,57,249
47.58280,-0.02712,-0.12058,0.00000,0.03111,0.97612,-0.18727,0.0,2023,6,7,16,55,57,259
47.58290,0.07788,-0.01558,0.00000,0.03148,0.97417,-0.18922,0.0,2023,6,7,16,55,57,270
47.58300,0.02538,-0.08558,0.00000,0.03343,0.97673,-0.19154,0.0,2023,6,7,16,55,57,280
47.58310,-0.07962,0.03692,0.00000,0.02989,0.97649,-0.18898,0.0,2023,6,7,16,55,57,291
47.58320,0.06038,0.08942,0.00000,0.03001,0.97588,-0.19105,0.0,2023,6,7,16,55,57,301
47.58330,-0.09712,-0.05058,0.00000,0.03172,0.97393,-0.18837,0.0,2023,6,7,16,55,57,312
47.58340,0.13038,0.01942,0.00000,0.03172,0.97783,-0.19215,0.0,2023,6,7,16,55,57,322
47.58350,0.00788,-0.15558,0.00000,0.03148,0.97710,-0.19178,0.0,2023,6,7,16,55,57,333
47.58360,-0.06212,0.03692,0.00000,0.03294,0.97637,-0.19178,0.0,2023,6,7,16,55,57,343
47.58370,-0.00962,0.05442,0.00000,0.03074,0.97563,-0.19239,0.0,2023,6,7,16,55,57,354
47.58380,0.14788,0.03692,0.00000,0.03282,0.97673,-0.19069,0.0,2023,6,7,16,55,57,364
47.58390,-0.14962,0.05442,0.00000,0.03099,0.97759,-0.19056,0.0,2023,6,7,16,55,57,375
47.58400,0.04288,-0.01558,0.00000,0.03148,0.97502,-0.19215,0.0,2023,6,7,16,55,57,385
47.58410,-0.18462,0.21192,0.00000,0.03074,0.97649,-0.19349,0.0,2023,6,7,16,55,57,396
47.58420,-0.18462,-0.03308,0.00000,0.03050,0.97734,-0.19008,0.0,2023,6,7,16,55,57,406
47.58430,0.13038,0.01942,0.00000,0.03135,0.97820,-0.18776,0.0,2023,6,7,16,55,57,417
47.58440,-0.04462,-0.03308,0.00000,0.02977,0.97490,-0.19044,0.0,2023,6,7,16,55,57,427
47.58450,-0.16712,0.05442,0.00000,0.03331,0.97441,-0.19215,0.0,2023,6,7,16,55,57,438
47.58460,0.21788,-0.01558,0.00000,0.03233,0.97783,-0.18995,0.0,2023,6,7,16,55,57,448
47.58470,-0.16712,0.05442,0.00000,0.03001,0.97624,-0.18947,0.0,2023,6,7,16,55,57,459
47.58480,0.14788,-0.12058,0.00000,0.03001,0.97807,-0.19166,0.0,2023,6,7,16,55,57,469
47.58490,-0.09712,0.12442,0.00000,0.03111,0.97307,-0.18959,0.0,2023,6,7,16,55,57,480
47.58500,-0.11462,-0.01558,0.00000,0.03245,0.97466,-0.18971,0.0,2023,6,7,16,55,57,490
47.58510,0.09538,-0.10308,0.00000,0.03123,0.97478,-0.19008,0.0,2023,6,7,16,55,57,501
47.58520,0.14788,-0.13808,0.00000,0.03306,0.97588,-0.18922,0.0,2023,6,7,16,55,57,511
47.58530,-0.02712,0.08942,0.00000,0.03221,0.97795,-0.18873,0.0,2023,6,7,16,55,57,522
47.58540,-0.00962,0.05442,0.00000,0.03172,0.97454,-0.18861,0.0,2023,6,7,16,55,57,532
47.58550,-0.04462,-0.10308,0.00000,0.03026,0.97624,-0.19032,0.0,2023,6,7,16,55,57,543
47.58560,0.20038,-0.17308,0.00000,0.03111,0.97490,-0.19325,0.0,2023,6,7,16,55,57,553
47.58570,-0.00962,0.15942,0.00000,0.03148,0.97722,-0.18800,0.0,2023,6,7,16,55,57,564
47.58580,-0.04462,0.10692,0.00000,0.03123,0.97637,-0.18837,0.0,2023,6,7,16,55,57,574
47.58590,-0.04462,0.08942,0.00000,0.03245,0.97661,-0.18971,0.0,2023,6,7,16,55,57,585
47.58600,0.13038,0.14192,0.00000,0.03087,0.97905,-0.18886,0.0,2023,6,7,16,55,57,595
47.58610,0.07788,0.01942,0.00000,0.03367,0.97539,-0.19020,0.0,2023,6,7,16,55,57,606
47.58620,-0.16712,0.00192,0.00000,0.03172,0.97746,-0.19008,0.0,2023,6,7,16,55,57,616
47.58630,-0.06212,0.03692,0.00000,0.03148,0.97551,-0.19020,0.0,2023,6,7,16,55,57,627
47.58640,-0.09712,0.14192,0.00000,0.03074,0.97710,-0.19032,0.0,2023,6,7,16,55,57,637
47.58650,-0.14962,-0.10308,0.00000,0.03257,0.97685,-0.19154,0.0,2023,6,7,16,55,57,648
47.58660,-0.04462,-0.08558,0.00000,0.03184,0.97527,-0.19044,0.0,2023,6,7,16,55,57,658
47.58670,0.04288,-0.03308,0.00000,0.03038,0.97661,-0.18861,0.0,2023,6,7,16,55,57,669
47.58680,-0.06212,0.10692,0.00000,0.03050,0.97722,-0.18947,0.0,2023,6,7,16,55,57,679
47.58690,-0.09712,0.08942,0.00000,0.03282,0.97612,-0.19154,0.0,2023,6,7,16,55,57,690
47.58700,-0.13212,0.26442,0.00000,0.03148,0.97649,-0.18861,0.0,2023,6,7,16,55,57,700
47.58710,0.07788,-0.12058,0.00000,0.03148,0.97637,-0.19374,0.0,2023,6,7,16,55,57,711
47.58720,0.04288,0.00192,0.00000,0.03123,0.97649,-0.19178,0.0,2023,6,7,16,55,57,721
47.58730,-0.00962,0.08942,0.00000,0.03172,0.97807,-0.19032,0.0,2023,6,7,16,55,57,732
47.58740,-0.04462,-0.10308,0.00000,0.03135,0.97624,-0.18837,0.0,2023,6,7,16,55,57,742
47.58750,0.04288,-0.03308,0.00000,0.03026,0.97502,-0.19154,0.0,2023,6,7,16,55,57,753
47.58760,-0.21962,0.14192,0.00000,0.03318,0.97649,-0.19325,0.0,2023,6,7,16,55,57,763
47.58770,-0.07962,0.07192,0.00000,0.02916,0.97527,-0.19166,0.0,2023,6,7,16,55,57,774
47.58780,0.04288,-0.03308,0.00000,0.03392,0.97710,-0.19044,0.0,2023,6,7,16,55,57,784
47.58790,0.04288,0.03692,0.00000,0.02989,0.97856,-0.19056,0.0,2023,6,7,16,55,57,795
47.58800,0.04288,-0.29558,0.00000,0.03050,0.97637,-0.19252,0.0,2023,6,7,16,55,57,805
47.58810,0.07788,-0.13808,0.00000,0.02904,0.97624,-0.19008,0.0,2023,6,7,16,55,57,816
47.58820,0.02538,0.07192,0.00000,0.03343,0.97502,-0.19008,0.0,2023,6,7,16,55,57,826
47.58830,-0.18462,0.14192,0.00000,0.03343,0.97783,-0.19044,0.0,2023,6,7,16,55,57,837
47.58840,-0.25462,0.10692,0.00000,0.03135,0.97624,-0.19154,0.0,2023,6,7,16,55,57,847
47.58850,0.09538,-0.01558,0.00000,0.03038,0.97466,-0.18959,0.0,2023,6,7,16,55,57,858
47.58860,-0.13212,-0.01558,0.00000,0.03135,0.97783,-0.19191,0.0,2023,6,7,16,55,57,868
47.58870,-0.06212,-0.01558,0.00000,0.03294,0.97466,-0.18825,0.0,2023,6,7,16,55,57,879
47.58880,-0.11462,0.01942,0.00000,0.03099,0.97624,-0.19093,0.0,2023,6,7,16,55,57,889
47.58890,0.14788,0.14192,0.00000,0.03062,0.97698,-0.18934,0.0,2023,6,7,16,55,57,900
47.58900,-0.06212,-0.13808,0.00000,0.03074,0.97551,-0.19032,0.0,2023,6,7,16,55,57,910
47.58910,-0.00962,0.14192,0.00000,0.03111,0.97466,-0.19276,0.0,2023,6,7,16,55,57,921
47.58920,-0.14962,0.19442,0.00000,0.03087,0.97759,-0.19069,0.0,2023,6,7,16,55,57,931
47.58930,-0.11462,0.03692,0.00000,0.02940,0.97551,-0.18983,0.0,2023,6,7,16,55,57,942
47.58940,-0.04462,-0.03308,0.00000,0.03196,0.97807,-0.19105,0.0,2023,6,7,16,55,58,2
47.58950,-0.04462,-0.12058,0.00000,0.03404,0.97722,-0.18934,0.0,2023,6,7,16,55,58,13
47.58960,0.13038,0.01942,0.00000,0.03160,0.97466,-0.19178,0.0,2023,6,7,16,55,58,23
47.58970,0.00788,0.03692,0.00000,0.03135,0.97551,-0.18873,0.0,2023,6,7,16,55,58,34
47.58980,0.02538,-0.12058,0.00000,0.02989,0.97612,-0.18922,0.0,2023,6,7,16,55,58,44
47.58990,0.00788,-0.05058,0.00000,0.03001,0.97527,-0.18764,0.0,2023,6,7,16,55,58,55
47.59000,0.11288,0.08942,0.00000,0.03062,0.97820,-0.18947,0.0,2023,6,7,16,55,58,65
47.59010,-0.00962,0.05442,0.00000,0.03135,0.97356,-0.18666,0.0,2023,6,7,16,55,58,76
47.59020,0.06038,-0.06808,0.00000,0.03379,0.97551,-0.19117,0.0,2023,6,7,16,55,58,86
47.59030,0.02538,0.05442,0.00000,0.03001,0.97454,-0.18910,0.0,2023,6,7,16,55,58,97
47.59040,-0.07962,0.05442,0.00000,0.03245,0.97734,-0.18922,0.0,2023,6,7,16,55,58,107
47.59050,-0.00962,0.05442,0.00000,0.03416,0.97783,-0.19020,0.0,2023,6,7,16,55,58,118
47.59060,0.07788,0.10692,0.00000,0.03294,0.97698,-0.19166,0.0,2023,6,7,16,55,58,128
47.59070,-0.06212,-0.06808,0.00000,0.03050,0.97710,-0.18898,0.0,2023,6,7,16,55,58,139
47.59080,-0.04462,0.12442,0.00000,0.02891,0.97563,-0.19081,0.0,2023,6,7,16,55,58,149
47.59090,0.00788,-0.24308,0.00000,0.03099,0.97771,-0.18849,0.0,2023,6,7,16,55,58,160
47.59100,-0.25462,0.15942,0.00000,0.02928,0.97649,-0.18861,0.0,2023,6,7,16,55,58,170
47.59110,0.14788,0.05442,0.00000,0.02928,0.97771,-0.19044,0.0,2023,6,7,16,55,58,181
47.59120,-0.30712,-0.01558,0.00000,0.03148,0.97673,-0.18568,0.0,2023,6,7,16,55,58,191
47.59130,-0.00962,-0.06808,0.00000,0.03172,0.97600,-0.19117,0.0,2023,6,7,16,55,58,202
47.59140,0.16538,0.03692,0.00000,0.03172,0.97673,-0.18910,0.0,2023,6,7,16,55,58,212
47.59150,-0.20212,-0.06808,0.00000,0.03123,0.97551,-0.18776,0.0,2023,6,7,16,55,58,223
47.59160,0.04288,-0.03308,0.00000,0.03135,0.97661,-0.18837,0.0,2023,6,7,16,55,58,233
47.59170,0.06038,-0.06808,0.00000,0.03172,0.97698,-0.18776,0.0,2023,6,7,16,55,58,244
47.59180,-0.37712,0.19442,0.00000,0.03074,0.97820,-0.18776,0.0,2023,6,7,16,55,58,254
47.59190,0.20038,0.17692,0.00000,0.03111,0.97417,-0.19288,0.0,2023,6,7,16,55,58,265
47.59200,0.13038,-0.06808,0.00000,0.03099,0.97612,-0.18849,0.0,2023,6,7,16,55,58,275
47.59210,-0.49962,0.12442,0.00000,0.03257,0.97698,-0.18471,0.0,2023,6,7,16,55,58,286
47.59220,0.21788,-0.26058,0.00000,0.03013,0.97746,-0.18934,0.0,2023,6,7,16,55,58,296
47.59230,-0.16712,0.03692,0.00000,0.03123,0.97661,-0.18568,0.0,2023,6,7,16,55,58,307
47.59240,-0.25462,-0.05058,0.00000,0.03050,0.97783,-0.19178,0.0,2023,6,7,16,55,58,317
47.59250,0.21788,-0.15558,0.00000,0.03245,0.97539,-0.18837,0.0,2023,6,7,16,55,58,328
47.59260,-0.42962,0.08942,0.00000,0.03294,0.97429,-0.18410,0.0,2023,6,7,16,55,58,338
47.59270,-0.25462,-0.03308,0.00000,0.03209,0.97759,-0.18873,0.0,2023,6,7,16,55,58,349
47.59280,0.07788,-0.05058,0.00000,0.03221,0.97612,-0.18593,0.0,2023,6,7,16,55,58,359
47.59290,-0.21962,-0.05058,0.00000,0.03196,0.97539,-0.18532,0.0,2023,6,7,16,55,58,370
47.59300,0.06038,-0.10308,0.00000,0.03038,0.97673,-0.18983,0.0,2023,6,7,16,55,58,380
47.59310,0.16538,0.00192,0.00000,0.03367,0.97478,-0.18898,0.0,2023,6,7,16,55,58,391
47.59320,-0.28962,0.21192,0.00000,0.03257,0.97722,-0.19252,0.0,2023,6,7,16,55,58,401
47.59330,-0.06212,0.03692,0.00000,0.02904,0.97637,-0.19093,0.0,2023,6,7,16,55,58,412
47.59340,-0.20212,-0.20808,0.00000,0.03148,0.97612,-0.18605,0.0,2023,6,7,16,55,58,422
47.59350,-0.06212,0.10692,0.00000,0.02733,0.97807,-0.19008,0.0,2023,6,7,16,55,58,433
47.59360,0.27038,0.03692,0.00000,0.03135,0.97588,-0.19227,0.0,2023,6,7,16,55,58,443
47.59370,0.02538,-0.15558,0.00000,0.03184,0.97515,-0.18898,0.0,2023,6,7,16,55,58,454
47.59380,0.18288,-0.15558,0.00000,0.03087,0.97771,-0.19020,0.0,2023,6,7,16,55,58,464
47.59390,0.11288,-0.01558,0.00000,0.03184,0.97478,-0.18678,0.0,2023,6,7,16,55,58,475
47.59400,-0.27212,-0.12058,0.00000,0.03428,0.97844,-0.18556,0.0,2023,6,7,16,55,58,485
47.59410,0.23538,0.03692,0.00000,0.02977,0.97466,-0.19264,0.0,2023,6,7,16,55,58,496
47.59420,0.14788,0.14192,0.00000,0.03282,0.97490,-0.18922,0.0,2023,6,7,16,55,58,506
47.59430,-0.30712,0.00192,0.00000,0.02867,0.97490,-0.18751,0.0,2023,6,7,16,55,58,517
47.59440,0.13038,-0.05058,0.00000,0.03148,0.97722,-0.18947,0.0,2023,6,7,16,55,58,527
47.59450,0.27038,-0.06808,0.00000,0.03245,0.97673,-0.19069,0.0,2023,6,7,16,55,58,538
47.59460,-0.02712,0.07192,0.00000,0.03184,0.97722,-0.18849,0.0,2023,6,7,16,55,58,548
47.59470,0.07788,-0.01558,0.00000,0.03172,0.97624,-0.19020,0.0,2023,6,7,16,55,58,559
47.59480,-0.11462,0.03692,0.00000,0.03562,0.97722,-0.18764,0.0,2023,6,7,16,55,58,569
47.59490,0.09538,0.01942,0.00000,0.03221,0.97490,-0.18800,0.0,2023,6,7,16,55,58,580
47.59500,0.14788,0.05442,0.00000,0.03050,0.97515,-0.18922,0.0,2023,6,7,16,55,58,590
47.59510,-0.02712,0.15942,0.00000,0.02928,0.97478,-0.18910,0.0,2023,6,7,16,55,58,601
47.59520,-0.06212,0.07192,0.00000,0.02952,0.97515,-0.18983,0.0,2023,6,7,16,55,58,611
47.59530,-0.23712,0.03692,0.00000,0.03013,0.97136,-0.18739,0.0,2023,6,7,16,55,58,622
47.59540,0.02538,0.01942,0.00000,0.03050,0.97441,-0.18825,0.0,2023,6,7,16,55,58,632
47.59550,0.18288,-0.08558,0.00000,0.02928,0.97612,-0.18788,0.0,2023,6,7,16,55,58,643
47.59560,0.07788,-0.08558,0.00000,0.03209,0.97405,-0.18800,0.0,2023,6,7,16,55,58,653
47.59570,-0.23712,0.12442,0.00000,0.03355,0.97795,-0.18861,0.0,2023,6,7,16,55,58,664
47.59580,0.04288,-0.05058,0.00000,0.03123,0.97539,-0.19215,0.0,2023,6,7,16,55,58,674
47.59590,0.11288,0.01942,0.00000,0.02989,0.97746,-0.18983,0.0,2023,6,7,16,55,58,685
47.59600,-0.34212,0.07192,0.00000,0.03282,0.97612,-0.18495,0.0,2023,6,7,16,55,58,695
47.59610,-0.07962,-0.12058,0.00000,0.03160,0.97637,-0.18788,0.0,2023,6,7,16,55,58,706
47.59620,-0.02712,-0.03308,0.00000,0.03062,0.97698,-0.18642,0.0,2023,6,7,16,55,58,716
47.59630,0.04288,0.07192,0.00000,0.03148,0.97576,-0.19056,0.0,2023,6,7,16,55,58,727
47.59640,0.18288,0.05442,0.00000,0.03087,0.97502,-0.19154,0.0,2023,6,7,16,55,58,737
47.59650,0.11288,0.03692,0.00000,0.03221,0.97759,-0.18825,0.0,2023,6,7,16,55,58,748
47.59660,0.07788,0.12442,0.00000,0.03392,0.97661,-0.18898,0.0,2023,6,7,16,55,58,758
47.59670,0.04288,0.10692,0.00000,0.03123,0.97710,-0.19020,0.0,2023,6,7,16,55,58,769
47.59680,0.06038,-0.15558,0.00000,0.03087,0.97393,-0.18910,0.0,2023,6,7,16,55,58,779
47.59690,-0.11462,-0.10308,0.00000,0.03123,0.97539,-0.18837,0.0,2023,6,7,16,55,58,790
47.59700,0.06038,-0.03308,0.00000,0.03184,0.97527,-0.18703,0.0,2023,6,7,16,55,58,800
47.59710,-0.04462,-0.17308,0.00000,0.03428,0.97673,-0.18666,0.0,2023,6,7,16,55,58,811
47.59720,-0.18462,0.15942,0.00000,0.03221,0.97710,-0.18959,0.0,2023,6,7,16,55,58,821
47.59730,0.23538,-0.06808,0.00000,0.03343,0.97746,-0.19008,0.0,2023,6,7,16,55,58,832
47.59740,-0.02712,0.05442,0.00000,0.03196,0.97466,-0.18727,0.0,2023,6,7,16,55,58,842
47.59750,-0.16712,0.14192,0.00000,0.02940,0.97624,-0.18666,0.0,2023,6,7,16,55,58,853
47.59760,0.04288,-0.03308,0.00000,0.03294,0.97551,-0.18739,0.0,2023,6,7,16,55,58,863
47.59770,-0.11462,-0.26058,0.00000,0.03245,0.97673,-0.19056,0.0,2023,6,7,16,55,58,874
47.59780,0.11288,-0.17308,0.00000,0.02989,0.97905,-0.18825,0.0,2023,6,7,16,55,58,884
47.59790,0.04288,0.15942,0.00000,0.03050,0.97600,-0.19227,0.0,2023,6,7,16,55,58,895
47.59800,-0.11462,0.05442,0.00000,0.03416,0.97539,-0.18568,0.0,2023,6,7,16,55,58,905
47.59810,0.00788,-0.03308,0.00000,0.03135,0.97661,-0.18910,0.0,2023,6,7,16,55,58,916
47.59820,0.02538,0.01942,0.00000,0.03196,0.97490,-0.18825,0.0,2023,6,7,16,55,58,926
47.59830,-0.21962,0.17692,0.00000,0.03257,0.97661,-0.18617,0.0,2023,6,7,16,55,59,7
47.59840,-0.11462,0.17692,0.00000,0.03062,0.97844,-0.19117,0.0,2023,6,7,16,55,59,17
47.59850,0.06038,0.05442,0.00000,0.03111,0.97600,-0.18873,0.0,2023,6,7,16,55,59,28
47.59860,-0.07962,0.08942,0.00000,0.02928,0.97515,-0.18788,0.0,2023,6,7,16,55,59,38
47.59870,0.11288,-0.01558,0.00000,0.03050,0.97685,-0.18922,0.0,2023,6,7,16,55,59,49
47.59880,-0.06212,0.00192,0.00000,0.03294,0.97478,-0.18642,0.0,2023,6,7,16,55,59,59
47.59890,0.02538,0.08942,0.00000,0.03050,0.97673,-0.18666,0.0,2023,6,7,16,55,59,70
47.59900,-0.06212,0.08942,0.00000,0.03123,0.97612,-0.18910,0.0,2023,6,7,16,55,59,80
47.59910,-0.06212,-0.01558,0.00000,0.03221,0.97868,-0.18995,0.0,2023,6,7,16,55,59,91
47.59920,-0.09712,-0.08558,0.00000,0.03111,0.97551,-0.18947,0.0,2023,6,7,16,55,59,101
47.59930,-0.07962,0.12442,0.00000,0.03233,0.97942,-0.19008,0.0,2023,6,7,16,55,59,112
47.59940,0.09538,0.00192,0.00000,0.03306,0.97502,-0.18666,0.0,2023,6,7,16,55,59,122
47.59950,-0.25462,-0.03308,0.00000,0.03001,0.97429,-0.18642,0.0,2023,6,7,16,55,59,133
47.59960,0.28788,-0.10308,0.00000,0.03221,0.97539,-0.19288,0.0,2023,6,7,16,55,59,143
47.59970,-0.13212,0.00192,0.00000,0.03196,0.97759,-0.18532,0.0,2023,6,7,16,55,59,154
47.59980,-0.23712,-0.19058,0.00000,0.03062,0.97771,-0.18861,0.0,2023,6,7,16,55,59,164
47.59990,0.44538,-0.01558,0.00000,0.03099,0.97795,-0.19105,0.0,2023,6,7,16,55,59,175
47.60000,-0.35962,0.00192,0.00000,0.03282,0.97576,-0.18556,0.0,2023,6,7,16,55,59,185
47.60010,-0.04462,-0.08558,0.00000,0.02928,0.97515,-0.19130,0.0,2023,6,7,16,55,59,196
47.60020,0.21788,-0.05058,0.00000,0.03221,0.97563,-0.18593,0.0,2023,6,7,16,55,59,206
47.60030,-0.34212,0.05442,0.00000,0.03343,0.97502,-0.18544,0.0,2023,6,7,16,55,59,217
47.60040,0.02538,0.01942,0.00000,0.03111,0.97698,-0.19081,0.0,2023,6,7,16,55,59,227
47.60050,0.00788,0.19442,0.00000,0.03221,0.97612,-0.18617,0.0,2023,6,7,16,55,59,238
47.60060,-0.34212,0.07192,0.00000,0.03160,0.97600,-0.19020,0.0,2023,6,7,16,55,59,248
47.60070,0.16538,0.05442,0.00000,0.03184,0.97685,-0.18825,0.0,2023,6,7,16,55,59,259
47.60080,-0.13212,0.03692,0.00000,0.02928,0.97685,-0.18666,0.0,2023,6,7,16,55,59,269
47.60090,-0.16712,-0.05058,0.00000,0.03111,0.97673,-0.18751,0.0,2023,6,7,16,55,59,280
47.60100,0.14788,0.24692,0.00000,0.03026,0.97856,-0.19056,0.0,2023,6,7,16,55,59,290
47.60110,-0.18462,-0.08558,0.00000,0.03184,0.97746,-0.18568,0.0,2023,6,7,16,55,59,301
47.60120,-0.13212,0.15942,0.00000,0.03087,0.97515,-0.18886,0.0,2023,6,7,16,55,59,311
47.60130,0.14788,0.15942,0.00000,0.03062,0.97527,-0.18947,0.0,2023,6,7,16,55,59,322
47.60140,-0.35962,0.07192,0.00000,0.03245,0.97771,-0.18873,0.0,2023,6,7,16,55,59,332
47.60150,-0.11462,0.21192,0.00000,0.03111,0.97759,-0.18898,0.0,2023,6,7,16,55,59,343
47.60160,0.14788,-0.20808,0.00000,0.03148,0.97563,-0.18642,0.0,2023,6,7,16,55,59,353
47.60170,-0.39462,0.10692,0.00000,0.03062,0.97624,-0.18544,0.0,2023,6,7,16,55,59,364
47.60180,0.28788,-0.01558,0.00000,0.03123,0.97746,-0.19166,0.0,2023,6,7,16,55,59,374
47.60190,-0.13212,0.17692,0.00000,0.03160,0.97417,-0.18605,0.0,2023,6,7,16,55,59,385
47.60200,-0.41212,-0.08558,0.00000,0.03038,0.97673,-0.18934,0.0,2023,6,7,16,55,59,395
47.60210,0.44538,-0.19058,0.00000,0.03257,0.97600,-0.19117,0.0,2023,6,7,16,55,59,406
47.60220,-0.07962,-0.10308,0.00000,0.02952,0.97783,-0.18642,0.0,2023,6,7,16,55,59,416
47.60230,-0.09712,-0.12058,0.00000,0.03135,0.97551,-0.19105,0.0,2023,6,7,16,55,59,427
47.60240,0.41038,0.07192,0.00000,0.03074,0.97624,-0.18410,0.0,2023,6,7,16,55,59,437
47.60250,-0.18462,0.36942,0.00000,0.03294,0.97576,-0.18593,0.0,2023,6,7,16,55,59,448
47.60260,0.18288,-0.08558,0.00000,0.03062,0.97417,-0.19215,0.0,2023,6,7,16,55,59,458
47.60270,-0.02712,-0.03308,0.00000,0.03099,0.97844,-0.18776,0.0,2023,6,7,16,55,59,469
47.60280,-0.25462,-0.08558,0.00000,0.02989,0.97807,-0.18873,0.0,2023,6,7,16,55,59,479
47.60290,-0.00962,-0.05058,0.00000,0.03331,0.97551,-0.18837,0.0,2023,6,7,16,55,59,490
47.60300,-0.20212,-0.03308,0.00000,0.03099,0.97795,-0.18520,0.0,2023,6,7,16,55,59,500
47.60310,-0.27212,0.07192,0.00000,0.03001,0.97868,-0.19069,0.0,2023,6,7,16,55,59,511
47.60320,0.07788,-0.06808,0.00000,0.03526,0.97771,-0.18678,0.0,2023,6,7,16,55,59,521
47.60330,0.04288,0.00192,0.00000,0.03123,0.97539,-0.18520,0.0,2023,6,7,16,55,59,532
47.60340,0.09538,-0.03308,0.00000,0.03123,0.97551,-0.18947,0.0,2023,6,7,16,55,59,542
47.60350,-0.00962,0.14192,0.00000,0.03282,0.97612,-0.18739,0.0,2023,6,7,16,55,59,553
47.60360,-0.09712,-0.13808,0.00000,0.03306,0.97698,-0.19093,0.0,2023,6,7,16,55,59,563
47.60370,-0.06212,0.05442,0.00000,0.03257,0.97649,-0.18788,0.0,2023,6,7,16,55,59,574
47.60380,-0.20212,0.12442,0.00000,0.03196,0.97454,-0.18776,0.0,2023,6,7,16,55,59,584
47.60390,-0.09712,0.03692,0.00000,0.03282,0.97820,-0.18849,0.0,2023,6,7,16,55,59,595
47.60400,0.06038,0.15942,0.00000,0.03233,0.97502,-0.19081,0.0,2023,6,7,16,55,59,605
47.60410,-0.11462,0.33442,0.00000,0.03001,0.97673,-0.18812,0.0,2023,6,7,16,55,59,616
47.60420,-0.04462,-0.05058,0.00000,0.03074,0.97429,-0.18727,0.0,2023,6,7,16,55,59,626
47.60430,0.18288,0.07192,0.00000,0.03123,0.97576,-0.18654,0.0,2023,6,7,16,55,59,637
47.60440,0.06038,-0.10308,0.00000,0.03172,0.97844,-0.18605,0.0,2023,6,7,16,55,59,647
47.60450,0.20038,-0.01558,0.00000,0.03135,0.97783,-0.18947,0.0,2023,6,7,16,55,59,658
47.60460,0.09538,0.01942,0.00000,0.03184,0.97515,-0.18764,0.0,2023,6,7,16,55,59,668
47.60470,-0.04462,-0.03308,0.00000,0.03209,0.97795,-0.18959,0.0,2023,6,7,16,55,59,679
47.60480,-0.21962,0.15942,0.00000,0.03233,0.97454,-0.18849,0.0,2023,6,7,16,55,59,689
47.60490,0.00788,0.03692,0.00000,0.02989,0.97649,-0.18861,0.0,2023,6,7,16,55,59,700
47.60500,-0.02712,-0.13808,0.00000,0.02989,0.97551,-0.18739,0.0,2023,6,7,16,55,59,710
47.60510,-0.20212,0.01942,0.00000,0.02891,0.97734,-0.18825,0.0,2023,6,7,16,55,59,721
47.60520,-0.06212,0.03692,0.00000,0.02806,0.97783,-0.19069,0.0,2023,6,7,16,55,59,731
47.60530,0.00788,0.17692,0.00000,0.02904,0.97661,-0.18849,0.0,2023,6,7,16,55,59,742
47.60540,-0.09712,0.03692,0.00000,0.03099,0.97661,-0.18971,0.0,2023,6,7,16,55,59,752
47.60550,-0.04462,-0.03308,0.00000,0.03062,0.97734,-0.18764,0.0,2023,6,7,16,55,59,763
47.60560,-0.11462,-0.08558,0.00000,0.02940,0.97515,-0.18971,0.0,2023,6,7,16,55,59,773
47.60570,0.09538,0.00192,0.00000,0.03087,0.97576,-0.18703,0.0,2023,6,7,16,55,59,784
47.60580,0.25288,0.07192,0.00000,0.03160,0.97698,-0.18898,0.0,2023,6,7,16,55,59,794
47.60590,-0.02712,-0.05058,0.00000,0.03270,0.97539,-0.18776,0.0,2023,6,7,16,55,59,805
47.60600,-0.04462,0.12442,0.00000,0.03306,0.97722,-0.18886,0.0,2023,6,7,16,55,59,815
47.60610,-0.11462,0.10692,0.00000,0.03148,0.97563,-0.18983,0.0,2023,6,7,16,55,59,826
47.60620,-0.11462,0.00192,0.00000,0.03257,0.97612,-0.18849,0.0,2023,6,7,16,55,59,836
47.60630,0.11288,-0.10308,0.00000,0.03001,0.97710,-0.19093,0.0,2023,6,7,16,55,59,847
47.60640,-0.04462,-0.03308,0.00000,0.03111,0.97502,-0.19008,0.0,2023,6,7,16,55,59,857
47.60650,-0.06212,0.07192,0.00000,0.03123,0.97771,-0.18544,0.0,2023,6,7,16,55,59,868
47.60660,0.04288,-0.19058,0.00000,0.03111,0.97612,-0.18629,0.0,2023,6,7,16,55,59,878
47.60670,-0.04462,0.00192,0.00000,0.03172,0.97539,-0.18849,0.0,2023,6,7,16,55,59,889
47.60680,-0.09712,0.10692,0.00000,0.03148,0.97661,-0.19056,0.0,2023,6,7,16,55,59,899
47.60690,-0.14962,0.19442,0.00000,0.03294,0.97490,-0.18983,0.0,2023,6,7,16,55,59,910
47.60700,0.11288,-0.15558,0.00000,0.03514,0.97710,-0.18751,0.0,2023,6,7,16,55,59,920
47.60710,0.13038,-0.01558,0.00000,0.02855,0.97942,-0.19020,0.0,2023,6,7,16,55,59,931
47.60720,0.09538,-0.10308,0.00000,0.03257,0.97502,-0.18922,0.0,2023,6,7,16,55,59,941
47.60730,-0.14962,-0.01558,0.00000,0.03099,0.97332,-0.18776,0.0,2023,6,7,16,55,59,952
47.60740,-0.13212,-0.08558,0.00000,0.03148,0.97698,-0.18971,0.0,2023,6,7,16,56,0,2
47.60750,0.21788,-0.24308,0.00000,0.03318,0.97673,-0.18849,0.0,2023,6,7,16,56,0,13
47.60760,-0.28962,0.21192,0.00000,0.03306,0.97563,-0.18861,0.0,2023,6,7,16,56,0,23
47.60770,0.11288,0.05442,0.00000,0.03306,0.97734,-0.18837,0.0,2023,6,7,16,56,0,34
47.60780,0.07788,0.00192,0.00000,0.03233,0.97771,-0.18995,0.0,2023,6,7,16,56,0,44
47.60790,-0.00962,-0.05058,0.00000,0.03062,0.97783,-0.18959,0.0,2023,6,7,16,56,0,55
47.60800,0.30538,0.01942,0.00000,0.03038,0.97612,-0.18898,0.0,2023,6,7,16,56,0,65
47.60810,-0.14962,0.07192,0.00000,0.03196,0.97624,-0.18593,0.0,2023,6,7,16,56,0,76
47.60820,-0.30712,0.17692,0.00000,0.03257,0.97539,-0.18886,0.0,2023,6,7,16,56,0,86
47.60830,0.06038,0.12442,0.00000,0.03257,0.97649,-0.18727,0.0,2023,6,7,16,56,0,97
47.60840,-0.02712,0.01942,0.00000,0.03245,0.97649,-0.18654,0.0,2023,6,7,16,56,0,107
47.60850,-0.18462,-0.03308,0.00000,0.02989,0.97612,-0.18849,0.0,2023,6,7,16,56,0,118
47.60860,0.16538,-0.08558,0.00000,0.03318,0.97698,-0.18910,0.0,2023,6,7,16,56,0,128
47.60870,-0.09712,0.10692,0.00000,0.03135,0.97539,-0.18873,0.0,2023,6,7,16,56,0,139
47.60880,-0.13212,0.01942,0.00000,0.03184,0.97588,-0.19130,0.0,2023,6,7,16,56,0,149
47.60890,-0.02712,0.08942,0.00000,0.02867,0.97612,-0.18971,0.0,2023,6,7,16,56,0,160
47.60900,-0.23712,0.10692,0.00000,0.03135,0.97515,-0.19081,0.0,2023,6,7,16,56,0,170
47.60910,-0.21962,0.33442,0.00000,0.02989,0.97856,-0.18922,0.0,2023,6,7,16,56,0,181
47.60920,-0.00962,0.08942,0.00000,0.03123,0.97771,-0.18727,0.0,2023,6,7,16,56,0,191
47.60930,-0.04462,0.10692,0.00000,0.03087,0.97624,-0.18690,0.0,2023,6,7,16,56,0,202
47.60940,-0.04462,0.14192,0.00000,0.03257,0.97576,-0.19008,0.0,2023,6,7,16,56,0,212
47.60950,-0.13212,0.14192,0.00000,0.03221,0.97759,-0.18812,0.0,2023,6,7,16,56,0,223
47.60960,-0.13212,-0.10308,0.00000,0.03294,0.97722,-0.18983,0.0,2023,6,7,16,56,0,233
47.60970,0.04288,-0.15558,0.00000,0.03245,0.97539,-0.18764,0.0,2023,6,7,16,56,0,244
47.60980,-0.11462,0.05442,0.00000,0.03172,0.97844,-0.18568,0.0,2023,6,7,16,56,0,254
47.60990,-0.07962,-0.12058,0.00000,0.03074,0.97454,-0.18861,0.0,2023,6,7,16,56,0,265
47.61000,0.06038,-0.03308,0.00000,0.03233,0.97746,-0.18605,0.0,2023,6,7,16,56,0,275
47.61010,-0.16712,0.03692,0.00000,0.03062,0.97673,-0.18812,0.0,2023,6,7,16,56,0,286
47.61020,0.18288,-0.03308,0.00000,0.03087,0.97783,-0.18922,0.0,2023,6,7,16,56,0,296
47.61030,-0.27212,0.07192,0.00000,0.03062,0.97893,-0.18666,0.0,2023,6,7,16,56,0,307
47.61040,-0.14962,0.12442,0.00000,0.03062,0.97637,-0.18581,0.0,2023,6,7,16,56,0,317
47.61050,0.11288,-0.17308,0.00000,0.03050,0.97515,-0.18922,0.0,2023,6,7,16,56,0,328
47.61060,-0.18462,0.15942,0.00000,0.03087,0.97539,-0.18910,0.0,2023,6,7,16,56,0,338
47.61070,-0.00962,-0.05058,0.00000,0.03135,0.97612,-0.18520,0.0,2023,6,7,16,56,0,349
47.61080,-0.04462,0.08942,0.00000,0.03038,0.97588,-0.18715,0.0,2023,6,7,16,56,0,359
47.61090,-0.04462,-0.15558,0.00000,0.03184,0.97673,-0.18788,0.0,2023,6,7,16,56,0,370
47.61100,0.09538,-0.08558,0.00000,0.03111,0.97454,-0.19117,0.0,2023,6,7,16,56,0,380
47.61110,-0.02712,-0.10308,0.00000,0.03087,0.97405,-0.19215,0.0,2023,6,7,16,56,0,391
47.61120,-0.21962,0.19442,0.00000,0.03306,0.97624,-0.18947,0.0,2023,6,7,16,56,0,401
47.61130,0.11288,-0.05058,0.00000,0.03233,0.97649,-0.18544,0.0,2023,6,7,16,56,0,412
47.61140,0.11288,-0.01558,0.00000,0.03209,0.97637,-0.18825,0.0,2023,6,7,16,56,0,422
47.61150,0.13038,-0.15558,0.00000,0.03172,0.97685,-0.18898,0.0,2023,6,7,16,56,0,433
47.61160,-0.00962,-0.03308,0.00000,0.03111,0.97710,-0.18776,0.0,2023,6,7,16,56,0,443
47.61170,-0.25462,-0.05058,0.00000,0.03148,0.97807,-0.18898,0.0,2023,6,7,16,56,0,454
47.61180,-0.00962,0.07192,0.00000,0.03221,0.97746,-0.18934,0.0,2023,6,7,16,56,0,464
47.61190,0.20038,-0.10308,0.00000,0.03123,0.97624,-0.18837,0.0,2023,6,7,16,56,0,475
47.61200,-0.02712,-0.10308,0.00000,0.03026,0.97576,-0.18678,0.0,2023,6,7,16,56,0,485
47.61210,-0.13212,0.10692,0.00000,0.03099,0.97783,-0.18849,0.0,2023,6,7,16,56,0,496
47.61220,0.02538,0.17692,0.00000,0.02916,0.97637,-0.18922,0.0,2023,6,7,16,56,0,506
47.61230,-0.07962,0.03692,0.00000,0.03221,0.97698,-0.18971,0.0,2023,6,7,16,56,0,517
47.61240,-0.11462,0.12442,0.00000,0.03160,0.97637,-0.18837,0.0,2023,6,7,16,56,0,527
47.61250,-0.14962,0.14192,0.00000,0.03331,0.97734,-0.18678,0.0,2023,6,7,16,56,0,538
47.61260,0.06038,0.05442,0.00000,0.03050,0.97844,-0.18727,0.0,2023,6,7,16,56,0,548
47.61270,0.04288,0.00192,0.00000,0.03245,0.97612,-0.18959,0.0,2023,6,7,16,56,0,559
47.61280,-0.00962,0.05442,0.00000,0.03428,0.97588,-0.18703,0.0,2023,6,7,16,56,0,569
47.61290,0.11288,0.05442,0.00000,0.03172,0.97454,-0.18825,0.0,2023,6,7,16,56,0,580
47.61300,0.07788,0.01942,0.00000,0.03135,0.97868,-0.18727,0.0,2023,6,7,16,56,0,590
47.61310,0.02538,-0.08558,0.00000,0.03062,0.97795,-0.18849,0.0,2023,6,7,16,56,0,601
47.61320,0.04288,-0.01558,0.00000,0.03294,0.97600,-0.18959,0.0,2023,6,7,16,56,0,611
47.61330,0.00788,-0.22558,0.00000,0.03087,0.97551,-0.18983,0.0,2023,6,7,16,56,0,622
47.61340,-0.11462,-0.05058,0.00000,0.03135,0.97722,-0.18898,0.0,2023,6,7,16,56,0,632
47.61350,0.02538,-0.06808,0.00000,0.02989,0.97588,-0.18629,0.0,2023,6,7,16,56,0,643
47.61360,0.07788,0.00192,0.00000,0.03160,0.97685,-0.18666,0.0,2023,6,7,16,56,0,653
47.61370,-0.00962,-0.03308,0.00000,0.03074,0.97685,-0.18690,0.0,2023,6,7,16,56,0,664
47.61380,0.04288,-0.13808,0.00000,0.02879,0.97649,-0.18934,0.0,2023,6,7,16,56,0,674
47.61390,-0.04462,0.05442,0.00000,0.03050,0.97661,-0.18800,0.0,2023,6,7,16,56,0,685
47.61400,-0.00962,-0.10308,0.00000,0.03013,0.97600,-0.18703,0.0,2023,6,7,16,56,0,695
47.61410,0.09538,-0.10308,0.00000,0.03270,0.97661,-0.18898,0.0,2023,6,7,16,56,0,706
47.61420,0.20038,-0.08558,0.00000,0.02989,0.97844,-0.18812,0.0,2023,6,7,16,56,0,716
47.61430,-0.13212,0.03692,0.00000,0.03209,0.97637,-0.18617,0.0,2023,6,7,16,56,0,727
47.61440,0.00788,-0.06808,0.00000,0.03062,0.97710,-0.18812,0.0,2023,6,7,16,56,0,737
47.61450,0.09538,0.05442,0.00000,0.03135,0.97661,-0.18776,0.0,2023,6,7,16,56,0,748
47.61460,-0.13212,0.01942,0.00000,0.02879,0.97588,-0.18825,0.0,2023,6,7,16,56,0,758
47.61470,-0.04462,0.08942,0.00000,0.03087,0.97661,-0.18617,0.0,2023,6,7,16,56,0,769
47.61480,-0.02712,0.10692,0.00000,0.03367,0.97612,-0.18642,0.0,2023,6,7,16,56,0,779
47.61490,-0.11462,0.19442,0.00000,0.03111,0.97527,-0.18837,0.0,2023,6,7,16,56,0,790
47.61500,-0.06212,0.15942,0.00000,0.03221,0.97588,-0.18678,0.0,2023,6,7,16,56,0,800
47.61510,0.02538,0.01942,0.00000,0.03013,0.97588,-0.18764,0.0,2023,6,7,16,56,0,811
47.61520,0.02538,0.03692,0.00000,0.03148,0.97454,-0.19056,0.0,2023,6,7,16,56,0,821
47.61530,0.32288,-0.05058,0.00000,0.03160,0.97710,-0.18751,0.0,2023,6,7,16,56,0,832
47.61540,-0.16712,0.01942,0.00000,0.03111,0.97759,-0.18507,0.0,2023,6,7,16,56,0,842
47.61550,-0.11462,0.00192,0.00000,0.03331,0.97698,-0.18568,0.0,2023,6,7,16,56,0,853
47.61560,0.27038,0.10692,0.00000,0.03257,0.97698,-0.18666,0.0,2023,6,7,16,56,0,863
47.61570,0.07788,0.01942,0.00000,0.03087,0.97502,-0.18739,0.0,2023,6,7,16,56,0,874
47.61580,-0.06212,0.01942,0.00000,0.02977,0.97734,-0.18764,0.0,2023,6,7,16,56,0,884
47.61590,-0.09712,-0.05058,0.00000,0.03221,0.97844,-0.18544,0.0,2023,6,7,16,56,0,895
47.61600,-0.07962,0.00192,0.00000,0.03245,0.97527,-0.18910,0.0,2023,6,7,16,56,0,905
47.61610,0.16538,0.03692,0.00000,0.03062,0.97734,-0.18751,0.0,2023,6,7,16,56,0,916
47.61620,-0.11462,0.01942,0.00000,0.03172,0.97710,-0.18520,0.0,2023,6,7,16,56,0,926
47.61630,0.04288,-0.01558,0.00000,0.03123,0.97710,-0.18764,0.0,2023,6,7,16,56,0,937
47.61640,0.14788,-0.06808,0.00000,0.03135,0.97490,-0.19044,0.0,2023,6,7,16,56,0,947
47.61650,-0.11462,-0.24308,0.00000,0.03074,0.97649,-0.18983,0.0,2023,6,7,16,56,1,8
47.61660,0.04288,-0.06808,0.00000,0.02904,0.97637,-0.19093,0.0,2023,6,7,16,56,1,18
47.61670,-0.07962,0.08942,0.00000,0.03026,0.97649,-0.18666,0.0,2023,6,7,16,56,1,29
47.61680,-0.21962,-0.03308,0.00000,0.03123,0.97478,-0.18971,0.0,2023,6,7,16,56,1,39
47.61690,-0.04462,0.03692,0.00000,0.03148,0.97783,-0.18922,0.0,2023,6,7,16,56,1,50
47.61700,-0.02712,-0.12058,0.00000,0.03209,0.97637,-0.18654,0.0,2023,6,7,16,56,1,60
47.61710,-0.06212,0.00192,0.00000,0.03233,0.97588,-0.19020,0.0,2023,6,7,16,56,1,71
47.61720,0.09538,-0.08558,0.00000,0.03282,0.97624,-0.18837,0.0,2023,6,7,16,56,1,81
47.61730,0.04288,0.03692,0.00000,0.02989,0.97466,-0.18764,0.0,2023,6,7,16,56,1,92
47.61740,-0.16712,0.17692,0.00000,0.03196,0.97393,-0.18886,0.0,2023,6,7,16,56,1,102
47.61750,0.00788,0.05442,0.00000,0.03160,0.97490,-0.18788,0.0,2023,6,7,16,56,1,113
47.61760,-0.00962,0.03692,0.00000,0.03111,0.97624,-0.18788,0.0,2023,6,7,16,56,1,123
47.61770,-0.07962,0.10692,0.00000,0.03221,0.97600,-0.18910,0.0,2023,6,7,16,56,1,134
47.61780,0.13038,-0.08558,0.00000,0.03172,0.97454,-0.18922,0.0,2023,6,7,16,56,1,144
47.61790,-0.09712,0.01942,0.00000,0.03184,0.97539,-0.18837,0.0,2023,6,7,16,56,1,155
47.61800,-0.18462,0.08942,0.00000,0.03038,0.97637,-0.18861,0.0,2023,6,7,16,56,1,165
47.61810,0.20038,0.03692,0.00000,0.02965,0.97685,-0.18715,0.0,2023,6,7,16,56,1,176
47.61820,0.06038,-0.08558,0.00000,0.03184,0.97673,-0.19056,0.0,2023,6,7,16,56,1,186
47.61830,0.18288,0.10692,0.00000,0.03221,0.97539,-0.19044,0.0,2023,6,7,16,56,1,197
47.61840,-0.04462,0.08942,0.00000,0.03111,0.97759,-0.18703,0.0,2023,6,7,16,56,1,207
47.61850,-0.07962,-0.03308,0.00000,0.03099,0.97380,-0.18642,0.0,2023,6,7,16,56,1,218
47.61860,-0.04462,-0.15558,0.00000,0.03050,0.97771,-0.19178,0.0,2023,6,7,16,56,1,228
47.61870,0.06038,-0.05058,0.00000,0.03172,0.97563,-0.18947,0.0,2023,6,7,16,56,1,239
47.61880,0.18288,0.17692,0.00000,0.03013,0.97502,-0.18886,0.0,2023,6,7,16,56,1,249
47.61890,-0.00962,0.00192,0.00000,0.03172,0.97649,-0.18922,0.0,2023,6,7,16,56,1,260
47.61900,0.07788,0.07192,0.00000,0.03257,0.97759,-0.18922,0.0,2023,6,7,16,56,1,270
47.61910,0.13038,-0.27808,0.00000,0.03257,0.97588,-0.19008,0.0,2023,6,7,16,56,1,281
47.61920,0.13038,-0.10308,0.00000,0.03318,0.97563,-0.18898,0.0,2023,6,7,16,56,1,291
47.61930,-0.02712,0.07192,0.00000,0.03001,0.97624,-0.18751,0.0,2023,6,7,16,56,1,302
47.61940,0.11288,-0.13808,0.00000,0.03221,0.97429,-0.19020,0.0,2023,6,7,16,56,1,312
47.61950,0.00788,0.01942,0.00000,0.03111,0.97600,-0.19020,0.0,2023,6,7,16,56,1,323
47.61960,-0.02712,0.22942,0.00000,0.03245,0.97685,-0.18886,0.0,2023,6,7,16,56,1,333
47.61970,-0.09712,-0.01558,0.00000,0.03135,0.97502,-0.19130,0.0,2023,6,7,16,56,1,344
47.61980,0.09538,-0.08558,0.00000,0.03257,0.97515,-0.19008,0.0,2023,6,7,16,56,1,354
47.61990,0.09538,0.10692,0.00000,0.03135,0.97612,-0.19032,0.0,2023,6,7,16,56,1,365
47.62000,-0.02712,0.05442,0.00000,0.03282,0.97893,-0.18715,0.0,2023,6,7,16,56,1,375
47.62010,0.06038,-0.05058,0.00000,0.03160,0.97649,-0.18690,0.0,2023,6,7,16,56,1,386
47.62020,0.04288,0.08942,0.00000,0.03270,0.97527,-0.18715,0.0,2023,6,7,16,56,1,396
47.62030,0.02538,-0.17308,0.00000,0.03221,0.97649,-0.18947,0.0,2023,6,7,16,56,1,407
47.62040,0.09538,-0.06808,0.00000,0.03233,0.97649,-0.19032,0.0,2023,6,7,16,56,1,417
47.62050,-0.14962,0.03692,0.00000,0.03318,0.97734,-0.18947,0.0,2023,6,7,16,56,1,428
47.62060,-0.20212,-0.03308,0.00000,0.03099,0.97551,-0.18947,0.0,2023,6,7,16,56,1,438
47.62070,0.07788,-0.08558,0.00000,0.03026,0.97734,-0.18910,0.0,2023,6,7,16,56,1,449
47.62080,0.14788,0.01942,0.00000,0.03270,0.97612,-0.18629,0.0,2023,6,7,16,56,1,459
47.62090,-0.09712,-0.27808,0.00000,0.03282,0.97612,-0.18642,0.0,2023,6,7,16,56,1,470
47.62100,0.07788,0.00192,0.00000,0.03404,0.97478,-0.18922,0.0,2023,6,7,16,56,1,480
47.62110,0.02538,0.07192,0.00000,0.03172,0.97417,-0.19044,0.0,2023,6,7,16,56,1,491
47.62120,-0.25462,0.10692,0.00000,0.03209,0.97637,-0.18617,0.0,2023,6,7,16,56,1,501
47.62130,-0.06212,0.19442,0.00000,0.03087,0.97502,-0.18983,0.0,2023,6,7,16,56,1,512
47.62140,0.18288,0.05442,0.00000,0.03013,0.97637,-0.18642,0.0,2023,6,7,16,56,1,522
47.62150,-0.16712,0.00192,0.00000,0.03099,0.97710,-0.18922,0.0,2023,6,7,16,56,1,533
47.62160,0.09538,-0.05058,0.00000,0.03209,0.97612,-0.18788,0.0,2023,6,7,16,56,1,543
47.62170,-0.02712,-0.10308,0.00000,0.03148,0.97661,-0.18873,0.0,2023,6,7,16,56,1,554
47.62180,-0.00962,-0.05058,0.00000,0.03074,0.97673,-0.18776,0.0,2023,6,7,16,56,1,564
47.62190,0.14788,0.01942,0.00000,0.03074,0.97734,-0.18995,0.0,2023,6,7,16,56,1,575
47.62200,-0.14962,-0.06808,0.00000,0.03074,0.97637,-0.18861,0.0,2023,6,7,16,56,1,585
47.62210,-0.09712,0.00192,0.00000,0.03160,0.97624,-0.18837,0.0,2023,6,7,16,56,1,596
47.62220,0.16538,0.00192,0.00000,0.03026,0.97576,-0.18825,0.0,2023,6,7,16,56,1,606
47.62230,0.32288,-0.19058,0.00000,0.03257,0.97637,-0.18934,0.0,2023,6,7,16,56,1,617
47.62240,0.07788,0.03692,0.00000,0.03282,0.97527,-0.18983,0.0,2023,6,7,16,56,1,627
47.62250,-0.23712,0.00192,0.00000,0.03148,0.97441,-0.18910,0.0,2023,6,7,16,56,1,638
47.62260,0.13038,0.05442,0.00000,0.03013,0.97649,-0.18873,0.0,2023,6,7,16,56,1,648
47.62270,0.06038,-0.12058,0.00000,0.03209,0.97673,-0.19032,0.0,2023,6,7,16,56,1,659
47.62280,0.00788,-0.08558,0.00000,0.02952,0.97624,-0.18825,0.0,2023,6,7,16,56,1,669
47.62290,-0.09712,0.10692,0.00000,0.03172,0.97600,-0.18471,0.0,2023,6,7,16,56,1,680
47.62300,0.20038,-0.20808,0.00000,0.03257,0.97539,-0.18800,0.0,2023,6,7,16,56,1,690
47.62310,-0.16712,0.05442,0.00000,0.03209,0.97759,-0.18959,0.0,2023,6,7,16,56,1,701
47.62320,-0.13212,0.07192,0.00000,0.03026,0.97612,-0.19008,0.0,2023,6,7,16,56,1,711
47.62330,0.02538,0.14192,0.00000,0.03294,0.97563,-0.18898,0.0,2023,6,7,16,56,1,722
47.62340,-0.16712,0.17692,0.00000,0.03245,0.97490,-0.18617,0.0,2023,6,7,16,56,1,732
47.62350,-0.06212,-0.06808,0.00000,0.02940,0.97868,-0.18922,0.0,2023,6,7,16,56,1,743
47.62360,0.09538,-0.24308,0.00000,0.02855,0.97393,-0.18983,0.0,2023,6,7,16,56,1,753
47.62370,-0.11462,-0.01558,0.00000,0.03135,0.97722,-0.19081,0.0,2023,6,7,16,56,1,764
47.62380,0.16538,-0.15558,0.00000,0.03209,0.97588,-0.18776,0.0,2023,6,7,16,56,1,774
47.62390,0.06038,-0.01558,0.00000,0.03013,0.97637,-0.19105,0.0,2023,6,7,16,56,1,785
47.62400,0.02538,0.00192,0.00000,0.03050,0.97576,-0.18849,0.0,2023,6,7,16,56,1,795
47.62410,-0.20212,-0.10308,0.00000,0.03148,0.97563,-0.18727,0.0,2023,6,7,16,56,1,806
47.62420,-0.00962,0.03692,0.00000,0.02989,0.97515,-0.18812,0.0,2023,6,7,16,56,1,816
47.62430,-0.07962,0.15942,0.00000,0.03172,0.97393,-0.18825,0.0,2023,6,7,16,56,1,827
47.62440,-0.18462,-0.15558,0.00000,0.02989,0.97685,-0.18886,0.0,2023,6,7,16,56,1,837
47.62450,-0.09712,0.08942,0.00000,0.03392,0.97734,-0.18910,0.0,2023,6,7,16,56,1,848
47.62460,0.04288,-0.05058,0.00000,0.03209,0.97783,-0.18751,0.0,2023,6,7,16,56,1,858
47.62470,-0.27212,0.00192,0.00000,0.03294,0.97710,-0.19178,0.0,2023,6,7,16,56,1,869
47.62480,0.02538,0.03692,0.00000,0.03196,0.97563,-0.19056,0.0,2023,6,7,16,56,1,879
