#2023/06/07 17:05:06
time,wx,wy,wz,ax,ay,az,yy,MM,dd,hh,mm,ss,ms
48.48210,-0.02853,-0.04777,0.00000,0.03209,0.97820,-0.18812,0.0,2023,6,7,17,5,7,511
48.48220,0.19897,0.19723,0.00000,0.03087,0.97759,-0.18825,0.0,2023,6,7,17,5,7,522
48.48230,0.21647,0.05723,0.00000,0.03123,0.97624,-0.18751,0.0,2023,6,7,17,5,7,533
48.48240,-0.11603,-0.03027,0.00000,0.03099,0.97722,-0.18971,0.0,2023,6,7,17,5,7,544
48.48250,0.11147,-0.13527,0.00000,0.02952,0.97722,-0.19154,0.0,2023,6,7,17,5,7,555
48.48260,0.09397,-0.08277,0.00000,0.02904,0.97759,-0.18959,0.0,2023,6,7,17,5,7,567
48.48270,-0.08103,-0.08277,0.00000,0.03062,0.97759,-0.18776,0.0,2023,6,7,17,5,7,578
48.48280,0.05897,0.09223,0.00000,0.02867,0.97661,-0.18788,0.0,2023,6,7,17,5,7,589
48.48290,0.07647,-0.18777,0.00000,0.03257,0.97600,-0.18739,0.0,2023,6,7,17,5,7,600
48.48300,0.09397,0.14473,0.00000,0.03013,0.97624,-0.18947,0.0,2023,6,7,17,5,7,611
48.48310,0.07647,-0.17027,0.00000,0.02965,0.97771,-0.18849,0.0,2023,6,7,17,5,7,623
48.48320,-0.02853,-0.15277,0.00000,0.03123,0.97746,-0.18947,0.0,2023,6,7,17,5,7,634
48.48330,-0.02853,-0.17027,0.00000,0.03160,0.97771,-0.18788,0.0,2023,6,7,17,5,7,645
48.48340,-0.09853,-0.04777,0.00000,0.03013,0.97600,-0.18849,0.0,2023,6,7,17,5,7,656
48.48350,-0.04603,-0.04777,0.00000,0.03038,0.98015,-0.18800,0.0,2023,6,7,17,5,7,667
48.48360,-0.13353,-0.17027,0.00000,0.03099,0.97612,-0.19008,0.0,2023,6,7,17,5,7,679
48.48370,0.18147,-0.04777,0.00000,0.02940,0.97722,-0.19142,0.0,2023,6,7,17,5,7,690
48.48380,0.09397,0.14473,0.00000,0.03221,0.97612,-0.18873,0.0,2023,6,7,17,5,7,701
48.48390,-0.11603,0.02223,0.00000,0.03172,0.97685,-0.18861,0.0,2023,6,7,17,5,7,712
48.48400,0.05897,-0.03027,0.00000,0.03306,0.97539,-0.18629,0.0,2023,6,7,17,5,7,723
48.48410,-0.11603,0.00473,0.00000,0.03209,0.97710,-0.18812,0.0,2023,6,7,17,5,7,735
48.48420,0.09397,-0.08277,0.00000,0.03184,0.97807,-0.18898,0.0,2023,6,7,17,5,7,746
48.48430,0.16397,0.10973,0.00000,0.03050,0.97868,-0.19166,0.0,2023,6,7,17,5,7,757
48.48440,0.09397,0.07473,0.00000,0.02867,0.97722,-0.19008,0.0,2023,6,7,17,5,7,768
48.48450,0.05897,-0.20527,0.00000,0.03355,0.96929,-0.19008,0.0,2023,6,7,17,5,7,779
48.48460,-0.16853,0.17973,0.00000,0.02952,0.95392,-0.17714,0.0,2023,6,7,17,5,7,791
48.48470,-0.39603,0.24973,0.00000,0.03575,0.98051,-0.19142,0.0,2023,6,7,17,5,7,802
48.48480,-0.11603,0.02223,0.00000,0.03514,0.97405,-0.18873,0.0,2023,6,7,17,5,7,813
48.48490,0.21647,-0.10027,0.00000,0.03062,0.97734,-0.19178,0.0,2023,6,7,17,5,7,824
48.48500,-0.02853,-0.01277,0.00000,0.02916,0.97661,-0.18727,0.0,2023,6,7,17,5,7,835
48.48510,-0.02853,-0.18777,0.00000,0.03172,0.97283,-0.18837,0.0,2023,6,7,17,5,7,847
48.48520,0.25147,0.00473,0.00000,0.03404,0.97759,-0.18703,0.0,2023,6,7,17,5,7,858
48.48530,-0.06353,-0.04777,0.00000,0.03111,0.97649,-0.18617,0.0,2023,6,7,17,5,7,869
48.48540,-0.20353,0.00473,0.00000,0.03148,0.97771,-0.18861,0.0,2023,6,7,17,5,7,880
48.48550,0.05897,0.05723,0.00000,0.03099,0.97649,-0.19203,0.0,2023,6,7,17,5,7,891
48.48560,-0.08103,-0.22277,0.00000,0.03013,0.97478,-0.19020,0.0,2023,6,7,17,5,7,903
48.48570,0.04147,-0.10027,0.00000,0.03160,0.97649,-0.18947,0.0,2023,6,7,17,5,7,914
48.48580,-0.20353,0.26723,0.00000,0.03233,0.97649,-0.18751,0.0,2023,6,7,17,5,7,925
48.48590,-0.11603,-0.01277,0.00000,0.03074,0.97624,-0.18776,0.0,2023,6,7,17,5,7,936
48.48600,0.09397,0.02223,0.00000,0.03331,0.97466,-0.18825,0.0,2023,6,7,17,5,7,947
48.48610,-0.06353,0.12723,0.00000,0.03074,0.97368,-0.18739,0.0,2023,6,7,17,5,7,959
48.48620,-0.08103,0.24973,0.00000,0.03282,0.97710,-0.18666,0.0,2023,6,7,17,5,7,970
48.48630,0.07647,0.00473,0.00000,0.03367,0.97539,-0.18825,0.0,2023,6,7,17,5,7,981
48.48640,-0.01103,0.24973,0.00000,0.02867,0.97710,-0.18983,0.0,2023,6,7,17,5,8,2
48.48650,0.04147,0.02223,0.00000,0.03123,0.97771,-0.19105,0.0,2023,6,7,17,5,8,13
48.48660,-0.01103,-0.13527,0.00000,0.03306,0.97380,-0.19044,0.0,2023,6,7,17,5,8,25
48.48670,-0.04603,-0.08277,0.00000,0.02806,0.97722,-0.18861,0.0,2023,6,7,17,5,8,36
48.48680,0.19897,-0.13527,0.00000,0.03160,0.97612,-0.18581,0.0,2023,6,7,17,5,8,47
48.48690,0.02397,-0.18777,0.00000,0.03172,0.97624,-0.19069,0.0,2023,6,7,17,5,8,58
48.48700,-0.08103,0.09223,0.00000,0.03038,0.97624,-0.18922,0.0,2023,6,7,17,5,8,69
48.48710,0.09397,-0.01277,0.00000,0.03123,0.97649,-0.18898,0.0,2023,6,7,17,5,8,81
48.48720,-0.06353,0.03973,0.00000,0.03343,0.97478,-0.18959,0.0,2023,6,7,17,5,8,92
48.48730,-0.18603,0.21473,0.00000,0.03172,0.97807,-0.19056,0.0,2023,6,7,17,5,8,103
48.48740,-0.04603,0.03973,0.00000,0.03294,0.97746,-0.19008,0.0,2023,6,7,17,5,8,114
48.48750,0.16397,0.02223,0.00000,0.03160,0.97624,-0.18898,0.0,2023,6,7,17,5,8,125
48.48760,-0.23853,-0.11777,0.00000,0.03257,0.97527,-0.18959,0.0,2023,6,7,17,5,8,137
48.48770,-0.02853,0.07473,0.00000,0.03148,0.97637,-0.18849,0.0,2023,6,7,17,5,8,148
48.48780,-0.06353,0.14473,0.00000,0.03123,0.97673,-0.18971,0.0,2023,6,7,17,5,8,159
48.48790,0.00647,-0.10027,0.00000,0.03111,0.97661,-0.18959,0.0,2023,6,7,17,5,8,170
48.48800,0.05897,-0.03027,0.00000,0.03111,0.97893,-0.19288,0.0,2023,6,7,17,5,8,181
48.48810,-0.11603,0.07473,0.00000,0.03148,0.97576,-0.19166,0.0,2023,6,7,17,5,8,193
48.48820,-0.06353,-0.11777,0.00000,0.03001,0.97600,-0.19130,0.0,2023,6,7,17,5,8,204
48.48830,-0.01103,0.14473,0.00000,0.03001,0.97649,-0.18825,0.0,2023,6,7,17,5,8,215
48.48840,-0.04603,0.00473,0.00000,0.03148,0.97588,-0.18654,0.0,2023,6,7,17,5,8,226
48.48850,0.05897,0.16223,0.00000,0.03196,0.97624,-0.19166,0.0,2023,6,7,17,5,8,237
48.48860,-0.01103,0.24973,0.00000,0.02977,0.97746,-0.19117,0.0,2023,6,7,17,5,8,249
48.48870,0.14647,0.00473,0.00000,0.02977,0.97722,-0.18898,0.0,2023,6,7,17,5,8,260
48.48880,-0.09853,0.21473,0.00000,0.03355,0.97685,-0.18934,0.0,2023,6,7,17,5,8,271
48.48890,-0.02853,0.03973,0.00000,0.03196,0.97771,-0.18861,0.0,2023,6,7,17,5,8,282
48.48900,0.00647,-0.15277,0.00000,0.03050,0.97527,-0.18825,0.0,2023,6,7,17,5,8,293
48.48910,0.04147,0.07473,0.00000,0.03050,0.97649,-0.19044,0.0,2023,6,7,17,5,8,305
48.48920,0.26897,-0.13527,0.00000,0.02928,0.97502,-0.18873,0.0,2023,6,7,17,5,8,316
48.48930,-0.04603,0.05723,0.00000,0.03172,0.97929,-0.18788,0.0,2023,6,7,17,5,8,327
48.48940,0.11147,0.05723,0.00000,0.03184,0.97600,-0.18861,0.0,2023,6,7,17,5,8,338
48.48950,0.18147,-0.17027,0.00000,0.03318,0.97624,-0.19069,0.0,2023,6,7,17,5,8,349
48.48960,-0.06353,-0.04777,0.00000,0.03306,0.97710,-0.18825,0.0,2023,6,7,17,5,8,361
48.48970,-0.16853,-0.15277,0.00000,0.03318,0.97637,-0.18703,0.0,2023,6,7,17,5,8,372
48.48980,0.04147,0.07473,0.00000,0.03270,0.97685,-0.18971,0.0,2023,6,7,17,5,8,383
48.48990,0.26897,-0.01277,0.00000,0.02989,0.97551,-0.19105,0.0,2023,6,7,17,5,8,394
48.49000,0.16397,0.26723,0.00000,0.03184,0.97515,-0.18873,0.0,2023,6,7,17,5,8,405
48.49010,-0.01103,0.21473,0.00000,0.03013,0.97661,-0.19093,0.0,2023,6,7,17,5,8,417
48.49020,0.00647,-0.10027,0.00000,0.03099,0.97637,-0.18715,0.0,2023,6,7,17,5,8,428
48.49030,0.09397,0.16223,0.00000,0.03318,0.97637,-0.18825,0.0,2023,6,7,17,5,8,439
48.49040,0.14647,-0.15277,0.00000,0.03160,0.97539,-0.18849,0.0,2023,6,7,17,5,8,450
48.49050,-0.13353,0.00473,0.00000,0.03111,0.97649,-0.18983,0.0,2023,6,7,17,5,8,461
48.49060,0.02397,-0.01277,0.00000,0.03074,0.97600,-0.19325,0.0,2023,6,7,17,5,8,473
48.49070,0.12897,-0.11777,0.00000,0.03111,0.97722,-0.19069,0.0,2023,6,7,17,5,8,484
48.49080,0.07647,0.09223,0.00000,0.03135,0.97600,-0.18800,0.0,2023,6,7,17,5,8,495
48.49090,-0.01103,0.12723,0.00000,0.03160,0.97649,-0.18849,0.0,2023,6,7,17,5,8,506
48.49100,-0.08103,0.19723,0.00000,0.03270,0.97698,-0.18703,0.0,2023,6,7,17,5,8,517
48.49110,-0.02853,-0.04777,0.00000,0.03245,0.97478,-0.18898,0.0,2023,6,7,17,5,8,529
48.49120,0.00647,-0.03027,0.00000,0.03148,0.97527,-0.19117,0.0,2023,6,7,17,5,8,540
48.49130,0.09397,0.07473,0.00000,0.03233,0.97454,-0.18703,0.0,2023,6,7,17,5,8,551
48.49140,0.04147,0.03973,0.00000,0.03196,0.97673,-0.19227,0.0,2023,6,7,17,5,8,562
48.49150,0.11147,-0.24027,0.00000,0.03343,0.97539,-0.19117,0.0,2023,6,7,17,5,8,573
48.49160,-0.04603,0.24973,0.00000,0.03184,0.97612,-0.18812,0.0,2023,6,7,17,5,8,585
48.49170,0.04147,0.14473,0.00000,0.03245,0.97600,-0.19142,0.0,2023,6,7,17,5,8,596
48.49180,0.25147,0.09223,0.00000,0.03026,0.97990,-0.18910,0.0,2023,6,7,17,5,8,607
48.49190,-0.27353,-0.06527,0.00000,0.03148,0.97551,-0.18910,0.0,2023,6,7,17,5,8,618
48.49200,0.02397,0.12723,0.00000,0.03245,0.97698,-0.19069,0.0,2023,6,7,17,5,8,629
48.49210,0.26897,-0.03027,0.00000,0.03013,0.97563,-0.19020,0.0,2023,6,7,17,5,8,641
48.49220,-0.15103,0.07473,0.00000,0.02879,0.97612,-0.18959,0.0,2023,6,7,17,5,8,652
48.49230,0.11147,-0.11777,0.00000,0.03196,0.97698,-0.19410,0.0,2023,6,7,17,5,8,663
48.49240,0.11147,0.02223,0.00000,0.03306,0.97502,-0.18898,0.0,2023,6,7,17,5,8,674
48.49250,-0.23853,0.21473,0.00000,0.03355,0.97588,-0.19130,0.0,2023,6,7,17,5,8,685
48.49260,0.14647,-0.01277,0.00000,0.03331,0.97722,-0.19008,0.0,2023,6,7,17,5,8,697
48.49270,-0.02853,-0.03027,0.00000,0.03160,0.97734,-0.18520,0.0,2023,6,7,17,5,8,708
48.49280,-0.18603,0.21473,0.00000,0.03074,0.97722,-0.18995,0.0,2023,6,7,17,5,8,719
48.49290,0.32147,-0.15277,0.00000,0.03160,0.97820,-0.18971,0.0,2023,6,7,17,5,8,730
48.49300,-0.13353,0.17973,0.00000,0.03160,0.97624,-0.18751,0.0,2023,6,7,17,5,8,741
48.49310,-0.06353,0.10973,0.00000,0.03038,0.97380,-0.19154,0.0,2023,6,7,17,5,8,753
48.49320,0.07647,-0.13527,0.00000,0.03294,0.97527,-0.18898,0.0,2023,6,7,17,5,8,764
48.49330,-0.09853,-0.01277,0.00000,0.03074,0.97698,-0.18971,0.0,2023,6,7,17,5,8,775
48.49340,0.23397,0.12723,0.00000,0.03282,0.97868,-0.18898,0.0,2023,6,7,17,5,8,786
48.49350,-0.08103,0.03973,0.00000,0.03087,0.97649,-0.18666,0.0,2023,6,7,17,5,8,797
48.49360,-0.02853,0.05723,0.00000,0.03123,0.97759,-0.18861,0.0,2023,6,7,17,5,8,809
48.49370,0.23397,0.07473,0.00000,0.03196,0.97258,-0.18690,0.0,2023,6,7,17,5,8,820
48.49380,-0.18603,0.14473,0.00000,0.03196,0.97710,-0.19252,0.0,2023,6,7,17,5,8,831
48.49390,0.39147,-0.15277,0.00000,0.03026,0.97722,-0.19166,0.0,2023,6,7,17,5,8,842
48.49400,-0.06353,-0.03027,0.00000,0.02977,0.97624,-0.18825,0.0,2023,6,7,17,5,8,853
48.49410,-0.25603,0.10973,0.00000,0.03184,0.97710,-0.18947,0.0,2023,6,7,17,5,8,865
48.49420,0.14647,-0.08277,0.00000,0.03514,0.97746,-0.18837,0.0,2023,6,7,17,5,8,876
48.49430,0.02397,-0.10027,0.00000,0.03050,0.97466,-0.18739,0.0,2023,6,7,17,5,8,887
48.49440,0.04147,-0.22277,0.00000,0.02928,0.97759,-0.19117,0.0,2023,6,7,17,5,8,898
48.49450,0.18147,0.03973,0.00000,0.02855,0.97588,-0.19227,0.0,2023,6,7,17,5,8,909
48.49460,0.12897,0.05723,0.00000,0.02818,0.97698,-0.18983,0.0,2023,6,7,17,5,8,921
48.49470,0.05897,-0.04777,0.00000,0.03184,0.97685,-0.18776,0.0,2023,6,7,17,5,8,932
48.49480,0.07647,-0.01277,0.00000,0.03379,0.97685,-0.18654,0.0,2023,6,7,17,5,8,943
48.49490,-0.20353,-0.18777,0.00000,0.03270,0.97673,-0.18751,0.0,2023,6,7,17,5,8,954
48.49500,0.05897,-0.01277,0.00000,0.03099,0.97856,-0.18934,0.0,2023,6,7,17,5,8,965
48.49510,0.00647,-0.03027,0.00000,0.03172,0.97661,-0.18886,0.0,2023,6,7,17,5,8,977
48.49520,0.11147,-0.06527,0.00000,0.02965,0.97563,-0.18873,0.0,2023,6,7,17,5,8,988
48.49530,0.02397,0.00473,0.00000,0.03294,0.97539,-0.18690,0.0,2023,6,7,17,5,8,999
48.49540,0.00647,-0.11777,0.00000,0.03184,0.97710,-0.18947,0.0,2023,6,7,17,5,9,9
48.49550,-0.01103,-0.15277,0.00000,0.02916,0.97576,-0.18788,0.0,2023,6,7,17,5,9,20
48.49560,0.05897,0.07473,0.00000,0.03038,0.97722,-0.19081,0.0,2023,6,7,17,5,9,32
48.49570,0.00647,0.02223,0.00000,0.03355,0.97515,-0.18825,0.0,2023,6,7,17,5,9,43
48.49580,0.07647,-0.03027,0.00000,0.03135,0.97820,-0.18873,0.0,2023,6,7,17,5,9,54
48.49590,0.11147,0.05723,0.00000,0.03209,0.97649,-0.18995,0.0,2023,6,7,17,5,9,65
48.49600,0.26897,0.03973,0.00000,0.03087,0.97563,-0.18922,0.0,2023,6,7,17,5,9,76
48.49610,0.00647,0.24973,0.00000,0.02904,0.97783,-0.18764,0.0,2023,6,7,17,5,9,88
48.49620,0.07647,0.10973,0.00000,0.03148,0.97515,-0.19215,0.0,2023,6,7,17,5,9,99
48.49630,-0.08103,0.14473,0.00000,0.02745,0.97722,-0.18947,0.0,2023,6,7,17,5,9,110
48.49640,-0.08103,0.02223,0.00000,0.03172,0.97637,-0.18690,0.0,2023,6,7,17,5,9,121
48.49650,0.00647,-0.06527,0.00000,0.03257,0.97820,-0.18825,0.0,2023,6,7,17,5,9,132
48.49660,-0.11603,0.05723,0.00000,0.03209,0.97515,-0.19227,0.0,2023,6,7,17,5,9,144
48.49670,0.12897,-0.18777,0.00000,0.03196,0.97393,-0.19203,0.0,2023,6,7,17,5,9,155
48.49680,-0.08103,0.19723,0.00000,0.03001,0.97576,-0.19130,0.0,2023,6,7,17,5,9,166
48.49690,0.11147,0.00473,0.00000,0.02989,0.97734,-0.18861,0.0,2023,6,7,17,5,9,177
48.49700,0.07647,0.00473,0.00000,0.03392,0.97637,-0.19044,0.0,2023,6,7,17,5,9,188
48.49710,-0.04603,-0.15277,0.00000,0.03087,0.97600,-0.19142,0.0,2023,6,7,17,5,9,200
48.49720,-0.01103,0.03973,0.00000,0.03221,0.97551,-0.18837,0.0,2023,6,7,17,5,9,211
48.49730,0.04147,-0.03027,0.00000,0.03148,0.97441,-0.18947,0.0,2023,6,7,17,5,9,222
48.49740,0.00647,-0.18777,0.00000,0.03160,0.97551,-0.19117,0.0,2023,6,7,17,5,9,233
48.49750,-0.11603,0.19723,0.00000,0.03160,0.97759,-0.19093,0.0,2023,6,7,17,5,9,244
48.49760,0.11147,-0.06527,0.00000,0.02806,0.97649,-0.19044,0.0,2023,6,7,17,5,9,256
48.49770,-0.08103,0.14473,0.00000,0.03111,0.97637,-0.19008,0.0,2023,6,7,17,5,9,267
48.49780,0.14647,-0.03027,0.00000,0.02928,0.97673,-0.19044,0.0,2023,6,7,17,5,9,278
48.49790,-0.11603,0.02223,0.00000,0.03209,0.97624,-0.18873,0.0,2023,6,7,17,5,9,289
48.49800,-0.13353,0.19723,0.00000,0.03148,0.97551,-0.19081,0.0,2023,6,7,17,5,9,300
48.49810,-0.01103,0.00473,0.00000,0.03221,0.97722,-0.19020,0.0,2023,6,7,17,5,9,312
48.49820,-0.02853,-0.01277,0.00000,0.02940,0.97612,-0.19117,0.0,2023,6,7,17,5,9,323
48.49830,0.04147,-0.10027,0.00000,0.02965,0.97771,-0.19154,0.0,2023,6,7,17,5,9,334
48.49840,-0.13353,0.07473,0.00000,0.03135,0.97698,-0.18788,0.0,2023,6,7,17,5,9,345
48.49850,-0.15103,0.26723,0.00000,0.03123,0.97600,-0.19056,0.0,2023,6,7,17,5,9,356
48.49860,0.11147,0.16223,0.00000,0.02916,0.97637,-0.19191,0.0,2023,6,7,17,5,9,368
48.49870,0.00647,-0.13527,0.00000,0.03148,0.97551,-0.19020,0.0,2023,6,7,17,5,9,379
48.49880,0.05897,0.03973,0.00000,0.03013,0.97698,-0.18825,0.0,2023,6,7,17,5,9,390
48.49890,-0.11603,0.07473,0.00000,0.03294,0.97661,-0.18934,0.0,2023,6,7,17,5,9,401
48.49900,0.02397,0.10973,0.00000,0.03245,0.97515,-0.18947,0.0,2023,6,7,17,5,9,412
48.49910,0.05897,-0.03027,0.00000,0.03282,0.97539,-0.18788,0.0,2023,6,7,17,5,9,424
48.49920,0.19897,-0.08277,0.00000,0.03087,0.97612,-0.18825,0.0,2023,6,7,17,5,9,435
48.49930,0.07647,0.03973,0.00000,0.03184,0.97600,-0.19081,0.0,2023,6,7,17,5,9,446
48.49940,-0.01103,-0.03027,0.00000,0.02977,0.97820,-0.18825,0.0,2023,6,7,17,5,9,457
48.49950,-0.15103,0.17973,0.00000,0.02916,0.97673,-0.18715,0.0,2023,6,7,17,5,9,468
48.49960,0.33897,0.10973,0.00000,0.03160,0.97844,-0.18873,0.0,2023,6,7,17,5,9,480
48.49970,0.19897,0.10973,0.00000,0.02965,0.97649,-0.18849,0.0,2023,6,7,17,5,9,491
48.49980,0.23397,0.02223,0.00000,0.03050,0.97405,-0.18837,0.0,2023,6,7,17,5,9,502
48.49990,0.05897,-0.01277,0.00000,0.03135,0.97527,-0.18678,0.0,2023,6,7,17,5,9,513
48.50000,0.02397,-0.03027,0.00000,0.03123,0.97722,-0.18886,0.0,2023,6,7,17,5,9,524
48.50010,0.09397,0.02223,0.00000,0.03318,0.97502,-0.18825,0.0,2023,6,7,17,5,9,536
48.50020,0.09397,0.16223,0.00000,0.03013,0.97759,-0.19020,0.0,2023,6,7,17,5,9,547
48.50030,0.00647,0.17973,0.00000,0.03123,0.97661,-0.18898,0.0,2023,6,7,17,5,9,558
48.50040,-0.08103,-0.06527,0.00000,0.03367,0.97722,-0.18849,0.0,2023,6,7,17,5,9,569
48.50050,-0.18603,-0.03027,0.00000,0.03160,0.97539,-0.19081,0.0,2023,6,7,17,5,9,580
48.50060,0.18147,0.00473,0.00000,0.03404,0.97868,-0.19056,0.0,2023,6,7,17,5,9,592
48.50070,-0.04603,0.00473,0.00000,0.03062,0.97515,-0.18800,0.0,2023,6,7,17,5,9,603
48.50080,0.00647,0.07473,0.00000,0.02928,0.97612,-0.18800,0.0,2023,6,7,17,5,9,614
48.50090,0.07647,0.02223,0.00000,0.03196,0.97441,-0.18861,0.0,2023,6,7,17,5,9,625
48.50100,-0.09853,-0.24027,0.00000,0.03013,0.97698,-0.18947,0.0,2023,6,7,17,5,9,636
48.50110,0.00647,-0.15277,0.00000,0.03343,0.97710,-0.19056,0.0,2023,6,7,17,5,9,648
48.50120,-0.04603,0.19723,0.00000,0.03196,0.97759,-0.18873,0.0,2023,6,7,17,5,9,659
48.50130,0.16397,-0.22277,0.00000,0.03148,0.97673,-0.18959,0.0,2023,6,7,17,5,9,670
48.50140,-0.02853,0.16223,0.00000,0.03343,0.97539,-0.18800,0.0,2023,6,7,17,5,9,681
48.50150,0.09397,-0.17027,0.00000,0.03209,0.97673,-0.18983,0.0,2023,6,7,17,5,9,692
48.50160,-0.08103,0.28473,0.00000,0.03038,0.97783,-0.18825,0.0,2023,6,7,17,5,9,704
48.50170,0.00647,0.24973,0.00000,0.03062,0.97563,-0.18825,0.0,2023,6,7,17,5,9,715
48.50180,0.07647,0.17973,0.00000,0.03172,0.97576,-0.18776,0.0,2023,6,7,17,5,9,726
48.50190,-0.20353,-0.22277,0.00000,0.03099,0.97807,-0.18471,0.0,2023,6,7,17,5,9,737
48.50200,0.19897,-0.18777,0.00000,0.03245,0.97624,-0.19142,0.0,2023,6,7,17,5,9,748
48.50210,-0.09853,0.23223,0.00000,0.03038,0.97551,-0.18910,0.0,2023,6,7,17,5,9,760
48.50220,-0.20353,0.02223,0.00000,0.03306,0.97710,-0.18825,0.0,2023,6,7,17,5,9,771
48.50230,0.07647,-0.13527,0.00000,0.03233,0.97441,-0.18886,0.0,2023,6,7,17,5,9,782
48.50240,0.12897,0.03973,0.00000,0.03184,0.97698,-0.18666,0.0,2023,6,7,17,5,9,793
48.50250,-0.16853,-0.03027,0.00000,0.03135,0.97502,-0.18947,0.0,2023,6,7,17,5,9,804
48.50260,0.12897,-0.01277,0.00000,0.03233,0.97417,-0.18764,0.0,2023,6,7,17,5,9,816
48.50270,-0.11603,-0.03027,0.00000,0.03111,0.97746,-0.18532,0.0,2023,6,7,17,5,9,827
48.50280,0.16397,0.16223,0.00000,0.02867,0.97673,-0.19020,0.0,2023,6,7,17,5,9,838
48.50290,-0.06353,0.14473,0.00000,0.02916,0.97759,-0.18873,0.0,2023,6,7,17,5,9,849
48.50300,0.05897,-0.11777,0.00000,0.03074,0.97441,-0.18703,0.0,2023,6,7,17,5,9,860
48.50310,0.04147,-0.08277,0.00000,0.03087,0.97771,-0.18922,0.0,2023,6,7,17,5,9,872
48.50320,-0.22103,0.12723,0.00000,0.03135,0.97563,-0.18934,0.0,2023,6,7,17,5,9,883
48.50330,-0.04603,0.12723,0.00000,0.03196,0.97624,-0.18922,0.0,2023,6,7,17,5,9,894
48.50340,0.23397,0.02223,0.00000,0.03233,0.97637,-0.18959,0.0,2023,6,7,17,5,9,905
48.50350,0.05897,-0.04777,0.00000,0.03074,0.97685,-0.18642,0.0,2023,6,7,17,5,9,916
48.50360,-0.09853,0.10973,0.00000,0.02855,0.97612,-0.18812,0.0,2023,6,7,17,5,9,928
48.50370,0.05897,0.12723,0.00000,0.03062,0.97637,-0.18751,0.0,2023,6,7,17,5,9,939
48.50380,0.02397,-0.13527,0.00000,0.03209,0.97612,-0.18849,0.0,2023,6,7,17,5,9,950
48.50390,-0.04603,0.02223,0.00000,0.03111,0.97698,-0.18776,0.0,2023,6,7,17,5,9,961
48.50400,0.02397,-0.10027,0.00000,0.03026,0.97588,-0.18751,0.0,2023,6,7,17,5,9,972
48.50410,0.04147,-0.03027,0.00000,0.03123,0.97600,-0.18788,0.0,2023,6,7,17,5,9,984
48.50420,0.23397,-0.04777,0.00000,0.03099,0.97832,-0.19117,0.0,2023,6,7,17,5,9,995
48.50430,-0.04603,0.09223,0.00000,0.03111,0.97478,-0.18825,0.0,2023,6,7,17,5,9,6
48.50440,-0.04603,-0.24027,0.00000,0.03050,0.97466,-0.18898,0.0,2023,6,7,17,5,10,6
48.50450,-0.09853,-0.03027,0.00000,0.03233,0.97612,-0.18812,0.0,2023,6,7,17,5,10,17
48.50460,-0.09853,-0.04777,0.00000,0.03038,0.97478,-0.18910,0.0,2023,6,7,17,5,10,29
48.50470,-0.06353,-0.08277,0.00000,0.02599,0.97576,-0.19130,0.0,2023,6,7,17,5,10,40
48.50480,-0.02853,0.03973,0.00000,0.03221,0.97685,-0.18947,0.0,2023,6,7,17,5,10,51
48.50490,-0.11603,-0.17027,0.00000,0.03257,0.97441,-0.18617,0.0,2023,6,7,17,5,10,62
48.50500,0.11147,-0.06527,0.00000,0.03001,0.97576,-0.18605,0.0,2023,6,7,17,5,10,73
48.50510,-0.04603,0.00473,0.00000,0.03160,0.97868,-0.19008,0.0,2023,6,7,17,5,10,85
48.50520,-0.13353,0.02223,0.00000,0.03099,0.97710,-0.18995,0.0,2023,6,7,17,5,10,96
48.50530,-0.01103,-0.03027,0.00000,0.03221,0.97478,-0.18776,0.0,2023,6,7,17,5,10,107
48.50540,0.04147,-0.03027,0.00000,0.03221,0.97783,-0.18727,0.0,2023,6,7,17,5,10,118
48.50550,-0.01103,0.00473,0.00000,0.03282,0.97612,-0.19032,0.0,2023,6,7,17,5,10,129
48.50560,-0.15103,0.05723,0.00000,0.03282,0.97417,-0.18886,0.0,2023,6,7,17,5,10,141
48.50570,-0.22103,0.23223,0.00000,0.03233,0.97478,-0.18751,0.0,2023,6,7,17,5,10,152
48.50580,0.11147,0.03973,0.00000,0.03221,0.97454,-0.18605,0.0,2023,6,7,17,5,10,163
48.50590,0.00647,0.03973,0.00000,0.02904,0.97734,-0.18678,0.0,2023,6,7,17,5,10,174
48.50600,-0.11603,0.17973,0.00000,0.03001,0.97490,-0.19069,0.0,2023,6,7,17,5,10,185
48.50610,-0.27353,-0.04777,0.00000,0.03392,0.97783,-0.18873,0.0,2023,6,7,17,5,10,197
48.50620,0.00647,-0.04777,0.00000,0.03184,0.97856,-0.18898,0.0,2023,6,7,17,5,10,208
48.50630,-0.11603,-0.04777,0.00000,0.03148,0.97771,-0.18751,0.0,2023,6,7,17,5,10,219
48.50640,0.18147,-0.17027,0.00000,0.03148,0.97539,-0.18922,0.0,2023,6,7,17,5,10,230
48.50650,-0.01103,-0.08277,0.00000,0.03184,0.97612,-0.18642,0.0,2023,6,7,17,5,10,241
48.50660,-0.02853,-0.11777,0.00000,0.03172,0.97405,-0.18898,0.0,2023,6,7,17,5,10,253
48.50670,-0.04603,-0.13527,0.00000,0.03062,0.97746,-0.18837,0.0,2023,6,7,17,5,10,264
48.50680,-0.01103,0.23223,0.00000,0.03123,0.97795,-0.18812,0.0,2023,6,7,17,5,10,275
48.50690,-0.04603,-0.08277,0.00000,0.02952,0.97612,-0.18788,0.0,2023,6,7,17,5,10,286
48.50700,0.11147,0.14473,0.00000,0.03001,0.97649,-0.19020,0.0,2023,6,7,17,5,10,297
48.50710,-0.08103,-0.06527,0.00000,0.03184,0.97527,-0.18825,0.0,2023,6,7,17,5,10,309
48.50720,-0.06353,0.10973,0.00000,0.03099,0.97637,-0.18971,0.0,2023,6,7,17,5,10,320
48.50730,0.16397,0.00473,0.00000,0.03172,0.97637,-0.18910,0.0,2023,6,7,17,5,10,331
48.50740,-0.09853,0.14473,0.00000,0.03123,0.97722,-0.18776,0.0,2023,6,7,17,5,10,342
48.50750,0.07647,-0.01277,0.00000,0.03123,0.97954,-0.19044,0.0,2023,6,7,17,5,10,353
48.50760,-0.01103,0.07473,0.00000,0.02977,0.97978,-0.18690,0.0,2023,6,7,17,5,10,365
48.50770,-0.06353,0.05723,0.00000,0.03111,0.97551,-0.19032,0.0,2023,6,7,17,5,10,376
48.50780,0.04147,-0.04777,0.00000,0.03099,0.97722,-0.19044,0.0,2023,6,7,17,5,10,387
48.50790,0.19897,-0.17027,0.00000,0.03062,0.97649,-0.18751,0.0,2023,6,7,17,5,10,398
48.50800,-0.01103,-0.11777,0.00000,0.03001,0.97746,-0.18898,0.0,2023,6,7,17,5,10,409
48.50810,0.07647,0.07473,0.00000,0.03001,0.97661,-0.18983,0.0,2023,6,7,17,5,10,421
48.50820,-0.02853,-0.04777,0.00000,0.03257,0.97771,-0.18727,0.0,2023,6,7,17,5,10,432
48.50830,0.11147,-0.03027,0.00000,0.03245,0.97490,-0.18910,0.0,2023,6,7,17,5,10,443
48.50840,0.09397,0.10973,0.00000,0.02965,0.97612,-0.18446,0.0,2023,6,7,17,5,10,454
48.50850,-0.06353,-0.18777,0.00000,0.03355,0.97746,-0.18434,0.0,2023,6,7,17,5,10,465
48.50860,-0.09853,0.00473,0.00000,0.03062,0.97698,-0.18910,0.0,2023,6,7,17,5,10,477
48.50870,0.07647,-0.01277,0.00000,0.02940,0.97722,-0.19166,0.0,2023,6,7,17,5,10,488
48.50880,0.04147,0.12723,0.00000,0.02916,0.97600,-0.18837,0.0,2023,6,7,17,5,10,499
48.50890,-0.06353,0.19723,0.00000,0.03257,0.97685,-0.18910,0.0,2023,6,7,17,5,10,510
48.50900,0.35647,-0.04777,0.00000,0.02952,0.97795,-0.18934,0.0,2023,6,7,17,5,10,521
48.50910,-0.04603,-0.08277,0.00000,0.03209,0.97624,-0.18739,0.0,2023,6,7,17,5,10,533
48.50920,-0.13353,0.14473,0.00000,0.03013,0.97490,-0.18959,0.0,2023,6,7,17,5,10,544
48.50930,0.00647,0.09223,0.00000,0.03209,0.97759,-0.18837,0.0,2023,6,7,17,5,10,555
48.50940,-0.25603,-0.01277,0.00000,0.03172,0.97734,-0.18678,0.0,2023,6,7,17,5,10,566
48.50950,0.30397,-0.10027,0.00000,0.03062,0.97673,-0.18934,0.0,2023,6,7,17,5,10,577
48.50960,0.07647,-0.10027,0.00000,0.03148,0.97698,-0.19056,0.0,2023,6,7,17,5,10,589
48.50970,-0.16853,-0.11777,0.00000,0.03379,0.97661,-0.19069,0.0,2023,6,7,17,5,10,600
48.50980,-0.04603,0.02223,0.00000,0.03038,0.97746,-0.18715,0.0,2023,6,7,17,5,10,611
48.50990,0.07647,0.07473,0.00000,0.03026,0.97783,-0.19008,0.0,2023,6,7,17,5,10,622
48.51000,-0.18603,0.16223,0.00000,0.03001,0.97673,-0.18898,0.0,2023,6,7,17,5,10,633
48.51010,-0.04603,-0.06527,0.00000,0.03099,0.97600,-0.19032,0.0,2023,6,7,17,5,10,645
48.51020,0.04147,0.28473,0.00000,0.03404,0.97722,-0.19069,0.0,2023,6,7,17,5,10,656
48.51030,-0.04603,0.23223,0.00000,0.03148,0.97832,-0.18690,0.0,2023,6,7,17,5,10,667
48.51040,-0.29103,-0.06527,0.00000,0.03038,0.97502,-0.18715,0.0,2023,6,7,17,5,10,678
48.51050,-0.08103,0.24973,0.00000,0.03099,0.97649,-0.19203,0.0,2023,6,7,17,5,10,689
48.51060,-0.06353,-0.17027,0.00000,0.03257,0.97746,-0.19093,0.0,2023,6,7,17,5,10,701
48.51070,-0.02853,0.00473,0.00000,0.03062,0.97637,-0.19044,0.0,2023,6,7,17,5,10,712
48.51080,-0.04603,-0.04777,0.00000,0.03111,0.97771,-0.19044,0.0,2023,6,7,17,5,10,723
48.51090,0.05897,0.03973,0.00000,0.03257,0.97685,-0.18812,0.0,2023,6,7,17,5,10,734
48.51100,-0.09853,0.05723,0.00000,0.03160,0.97807,-0.18934,0.0,2023,6,7,17,5,10,745
48.51110,-0.06353,-0.11777,0.00000,0.03148,0.97563,-0.18971,0.0,2023,6,7,17,5,10,757
48.51120,-0.02853,-0.32777,0.00000,0.03123,0.97588,-0.18861,0.0,2023,6,7,17,5,10,768
48.51130,-0.09853,-0.10027,0.00000,0.03099,0.97612,-0.19032,0.0,2023,6,7,17,5,10,779
48.51140,0.05897,-0.13527,0.00000,0.02965,0.97893,-0.19056,0.0,2023,6,7,17,5,10,790
48.51150,-0.16853,0.17973,0.00000,0.03001,0.97807,-0.18788,0.0,2023,6,7,17,5,10,801
48.51160,0.02397,0.17973,0.00000,0.03074,0.97673,-0.19081,0.0,2023,6,7,17,5,10,813
48.51170,0.00647,-0.10027,0.00000,0.03050,0.97624,-0.18873,0.0,2023,6,7,17,5,10,824
48.51180,0.05897,0.12723,0.00000,0.03343,0.97624,-0.18703,0.0,2023,6,7,17,5,10,835
48.51190,0.19897,-0.08277,0.00000,0.03013,0.97563,-0.18995,0.0,2023,6,7,17,5,10,846
48.51200,-0.08103,-0.31027,0.00000,0.03087,0.97698,-0.19130,0.0,2023,6,7,17,5,10,857
48.51210,0.19897,-0.15277,0.00000,0.03062,0.97698,-0.18959,0.0,2023,6,7,17,5,10,869
48.51220,-0.02853,0.00473,0.00000,0.03209,0.97734,-0.18690,0.0,2023,6,7,17,5,10,880
48.51230,-0.13353,0.03973,0.00000,0.02989,0.97893,-0.18995,0.0,2023,6,7,17,5,10,891
48.51240,0.14647,0.07473,0.00000,0.02916,0.97490,-0.19008,0.0,2023,6,7,17,5,10,902
48.51250,-0.09853,-0.13527,0.00000,0.03318,0.97637,-0.18861,0.0,2023,6,7,17,5,10,913
48.51260,-0.04603,0.05723,0.00000,0.03318,0.97515,-0.18715,0.0,2023,6,7,17,5,10,925
48.51270,0.07647,0.19723,0.00000,0.03209,0.97893,-0.18922,0.0,2023,6,7,17,5,10,936
48.51280,0.02397,0.21473,0.00000,0.02965,0.97502,-0.19093,0.0,2023,6,7,17,5,10,947
48.51290,0.14647,0.02223,0.00000,0.03099,0.97722,-0.19056,0.0,2023,6,7,17,5,10,958
48.51300,-0.16853,0.07473,0.00000,0.03233,0.97454,-0.18751,0.0,2023,6,7,17,5,10,969
48.51310,-0.15103,-0.06527,0.00000,0.03111,0.97820,-0.18800,0.0,2023,6,7,17,5,10,981
48.51320,-0.02853,0.07473,0.00000,0.03148,0.97551,-0.18873,0.0,2023,6,7,17,5,10,992
48.51330,-0.16853,-0.04777,0.00000,0.02952,0.97771,-0.19044,0.0,2023,6,7,17,5,11,2
48.51340,-0.08103,-0.01277,0.00000,0.03343,0.97466,-0.19166,0.0,2023,6,7,17,5,11,13
48.51350,-0.04603,-0.04777,0.00000,0.03111,0.97783,-0.18910,0.0,2023,6,7,17,5,11,24
48.51360,0.12897,-0.13527,0.00000,0.03087,0.97795,-0.18812,0.0,2023,6,7,17,5,11,36
48.51370,-0.04603,-0.10027,0.00000,0.03013,0.97649,-0.19239,0.0,2023,6,7,17,5,11,47
48.51380,-0.13353,0.05723,0.00000,0.03111,0.97795,-0.19300,0.0,2023,6,7,17,5,11,58
48.51390,-0.09853,-0.03027,0.00000,0.03209,0.97722,-0.18995,0.0,2023,6,7,17,5,11,69
48.51400,-0.13353,-0.06527,0.00000,0.03160,0.97563,-0.18837,0.0,2023,6,7,17,5,11,80
48.51410,0.11147,-0.03027,0.00000,0.02965,0.97807,-0.18910,0.0,2023,6,7,17,5,11,92
48.51420,0.02397,0.17973,0.00000,0.03148,0.97746,-0.18800,0.0,2023,6,7,17,5,11,103
48.51430,0.19897,-0.15277,0.00000,0.03050,0.97563,-0.19105,0.0,2023,6,7,17,5,11,114
48.51440,0.18147,-0.03027,0.00000,0.03087,0.97393,-0.19215,0.0,2023,6,7,17,5,11,125
48.51450,0.04147,-0.01277,0.00000,0.03209,0.97539,-0.18727,0.0,2023,6,7,17,5,11,136
48.51460,-0.04603,-0.03027,0.00000,0.03160,0.97502,-0.19020,0.0,2023,6,7,17,5,11,148
48.51470,0.12897,0.10973,0.00000,0.02977,0.97551,-0.19020,0.0,2023,6,7,17,5,11,159
48.51480,0.02397,0.10973,0.00000,0.03099,0.97466,-0.18678,0.0,2023,6,7,17,5,11,170
48.51490,0.04147,-0.04777,0.00000,0.03087,0.97527,-0.18898,0.0,2023,6,7,17,5,11,181
48.51500,0.07647,0.05723,0.00000,0.03087,0.97685,-0.19008,0.0,2023,6,7,17,5,11,192
48.51510,-0.18603,-0.04777,0.00000,0.03172,0.97588,-0.18971,0.0,2023,6,7,17,5,11,204
48.51520,0.16397,0.12723,0.00000,0.03074,0.97417,-0.19276,0.0,2023,6,7,17,5,11,215
48.51530,0.12897,-0.08277,0.00000,0.03245,0.97685,-0.18873,0.0,2023,6,7,17,5,11,226
48.51540,0.05897,-0.01277,0.00000,0.03111,0.97661,-0.18776,0.0,2023,6,7,17,5,11,237
48.51550,-0.01103,0.00473,0.00000,0.03196,0.97759,-0.19008,0.0,2023,6,7,17,5,11,248
48.51560,0.05897,0.09223,0.00000,0.03074,0.97722,-0.19008,0.0,2023,6,7,17,5,11,260
48.51570,-0.04603,0.09223,0.00000,0.02977,0.97807,-0.18739,0.0,2023,6,7,17,5,11,271
48.51580,-0.06353,-0.34527,0.00000,0.02940,0.97588,-0.18873,0.0,2023,6,7,17,5,11,282
48.51590,0.04147,-0.01277,0.00000,0.03074,0.97673,-0.18959,0.0,2023,6,7,17,5,11,293
48.51600,-0.04603,0.05723,0.00000,0.03160,0.97600,-0.19056,0.0,2023,6,7,17,5,11,304
48.51610,0.00647,0.02223,0.00000,0.03135,0.97759,-0.18983,0.0,2023,6,7,17,5,11,316
48.51620,-0.16853,-0.03027,0.00000,0.03209,0.97551,-0.19056,0.0,2023,6,7,17,5,11,327
48.51630,-0.01103,0.00473,0.00000,0.03099,0.97844,-0.18825,0.0,2023,6,7,17,5,11,338
48.51640,-0.06353,0.10973,0.00000,0.03184,0.97454,-0.18971,0.0,2023,6,7,17,5,11,349
48.51650,0.02397,0.02223,0.00000,0.03050,0.97710,-0.19252,0.0,2023,6,7,17,5,11,360
48.51660,0.00647,0.07473,0.00000,0.03245,0.97661,-0.18922,0.0,2023,6,7,17,5,11,372
48.51670,-0.16853,0.07473,0.00000,0.03099,0.97710,-0.18849,0.0,2023,6,7,17,5,11,383
48.51680,-0.11603,0.09223,0.00000,0.03099,0.97271,-0.18812,0.0,2023,6,7,17,5,11,394
48.51690,0.18147,-0.06527,0.00000,0.02965,0.97759,-0.18886,0.0,2023,6,7,17,5,11,405
48.51700,0.16397,-0.04777,0.00000,0.03135,0.97551,-0.19056,0.0,2023,6,7,17,5,11,416
48.51710,0.11147,-0.03027,0.00000,0.03111,0.97515,-0.18849,0.0,2023,6,7,17,5,11,428
48.51720,0.19897,-0.18777,0.00000,0.03343,0.97563,-0.18959,0.0,2023,6,7,17,5,11,439
48.51730,-0.04603,0.30223,0.00000,0.03099,0.97551,-0.18947,0.0,2023,6,7,17,5,11,450
48.51740,-0.06353,0.02223,0.00000,0.02928,0.97539,-0.18886,0.0,2023,6,7,17,5,11,461
48.51750,-0.06353,0.02223,0.00000,0.03160,0.97722,-0.18776,0.0,2023,6,7,17,5,11,472
48.51760,-0.02853,-0.15277,0.00000,0.03062,0.97893,-0.18483,0.0,2023,6,7,17,5,11,484
48.51770,-0.16853,-0.18777,0.00000,0.03123,0.97844,-0.18898,0.0,2023,6,7,17,5,11,495
48.51780,0.18147,0.12723,0.00000,0.03135,0.97820,-0.19117,0.0,2023,6,7,17,5,11,506
48.51790,0.02397,0.09223,0.00000,0.03318,0.97698,-0.19117,0.0,2023,6,7,17,5,11,517
48.51800,0.04147,0.19723,0.00000,0.02989,0.97612,-0.18861,0.0,2023,6,7,17,5,11,528
48.51810,0.00647,-0.04777,0.00000,0.03245,0.97490,-0.18825,0.0,2023,6,7,17,5,11,540
48.51820,-0.09853,0.02223,0.00000,0.03282,0.97539,-0.18959,0.0,2023,6,7,17,5,11,551
48.51830,0.11147,-0.22277,0.00000,0.03184,0.97942,-0.18886,0.0,2023,6,7,17,5,11,562
48.51840,-0.02853,0.07473,0.00000,0.03282,0.97502,-0.18751,0.0,2023,6,7,17,5,11,573
48.51850,0.02397,-0.08277,0.00000,0.03087,0.97588,-0.18849,0.0,2023,6,7,17,5,11,584
48.51860,-0.04603,-0.11777,0.00000,0.03074,0.97332,-0.18837,0.0,2023,6,7,17,5,11,596
48.51870,0.11147,0.03973,0.00000,0.03050,0.97502,-0.18849,0.0,2023,6,7,17,5,11,607
48.51880,-0.11603,0.05723,0.00000,0.03148,0.97685,-0.19117,0.0,2023,6,7,17,5,11,618
48.51890,-0.23853,0.05723,0.00000,0.03172,0.97515,-0.18983,0.0,2023,6,7,17,5,11,629
48.51900,0.05897,0.02223,0.00000,0.03184,0.97734,-0.18873,0.0,2023,6,7,17,5,11,640
48.51910,0.04147,-0.11777,0.00000,0.03160,0.97380,-0.18922,0.0,2023,6,7,17,5,11,652
48.51920,0.09397,0.02223,0.00000,0.03001,0.97624,-0.19178,0.0,2023,6,7,17,5,11,663
48.51930,0.00647,0.07473,0.00000,0.02904,0.97673,-0.18764,0.0,2023,6,7,17,5,11,674
48.51940,-0.09853,0.07473,0.00000,0.03135,0.97661,-0.19008,0.0,2023,6,7,17,5,11,685
48.51950,0.11147,-0.08277,0.00000,0.03270,0.97539,-0.18971,0.0,2023,6,7,17,5,11,696
48.51960,-0.08103,0.02223,0.00000,0.03013,0.97515,-0.18788,0.0,2023,6,7,17,5,11,708
48.51970,0.00647,0.00473,0.00000,0.03148,0.97832,-0.18788,0.0,2023,6,7,17,5,11,719
48.51980,0.18147,-0.20527,0.00000,0.03245,0.97612,-0.19093,0.0,2023,6,7,17,5,11,730
48.51990,0.00647,0.14473,0.00000,0.03038,0.97734,-0.18861,0.0,2023,6,7,17,5,11,741
48.52000,-0.08103,0.10973,0.00000,0.03074,0.97600,-0.19069,0.0,2023,6,7,17,5,11,752
48.52010,0.16397,0.02223,0.00000,0.03062,0.97734,-0.18727,0.0,2023,6,7,17,5,11,764
48.52020,-0.04603,0.10973,0.00000,0.03306,0.97576,-0.18800,0.0,2023,6,7,17,5,11,775
48.52030,0.11147,0.07473,0.00000,0.03062,0.97820,-0.18873,0.0,2023,6,7,17,5,11,786
48.52040,0.04147,0.03973,0.00000,0.02879,0.97380,-0.18849,0.0,2023,6,7,17,5,11,797
48.52050,0.04147,0.00473,0.00000,0.03099,0.97624,-0.18861,0.0,2023,6,7,17,5,11,808
48.52060,-0.04603,-0.10027,0.00000,0.03135,0.97893,-0.18776,0.0,2023,6,7,17,5,11,820
48.52070,0.04147,0.16223,0.00000,0.03087,0.97515,-0.19044,0.0,2023,6,7,17,5,11,831
48.52080,0.09397,0.07473,0.00000,0.03111,0.97539,-0.19081,0.0,2023,6,7,17,5,11,842
48.52090,-0.08103,0.24973,0.00000,0.02916,0.97673,-0.18739,0.0,2023,6,7,17,5,11,853
48.52100,-0.09853,0.05723,0.00000,0.03135,0.97380,-0.18751,0.0,2023,6,7,17,5,11,864
48.52110,0.04147,-0.10027,0.00000,0.03099,0.97710,-0.19044,0.0,2023,6,7,17,5,11,876
48.52120,0.11147,-0.03027,0.00000,0.03221,0.97368,-0.18825,0.0,2023,6,7,17,5,11,887
48.52130,0.00647,0.12723,0.00000,0.03209,0.97929,-0.18788,0.0,2023,6,7,17,5,11,898
48.52140,0.00647,-0.03027,0.00000,0.02940,0.97466,-0.18629,0.0,2023,6,7,17,5,11,909
48.52150,-0.13353,-0.01277,0.00000,0.02952,0.97563,-0.18910,0.0,2023,6,7,17,5,11,920
48.52160,-0.02853,-0.27527,0.00000,0.03099,0.97576,-0.18886,0.0,2023,6,7,17,5,11,932
48.52170,0.00647,0.19723,0.00000,0.03087,0.97454,-0.18947,0.0,2023,6,7,17,5,11,943
48.52180,0.05897,0.03973,0.00000,0.03306,0.97710,-0.18910,0.0,2023,6,7,17,5,11,954
48.52190,0.04147,-0.08277,0.00000,0.02952,0.97783,-0.18654,0.0,2023,6,7,17,5,11,965
48.52200,-0.01103,-0.01277,0.00000,0.02965,0.97673,-0.19142,0.0,2023,6,7,17,5,11,976
48.52210,0.00647,0.21473,0.00000,0.03111,0.97710,-0.18776,0.0,2023,6,7,17,5,11,988
48.52220,-0.08103,-0.04777,0.00000,0.03087,0.97734,-0.19020,0.0,2023,6,7,17,5,11,999
48.52230,-0.09853,0.12723,0.00000,0.03111,0.97734,-0.18764,0.0,2023,6,7,17,5,11,10
48.52240,-0.16853,-0.10027,0.00000,0.03221,0.97563,-0.18690,0.0,2023,6,7,17,5,12,10
48.52250,-0.08103,0.03973,0.00000,0.03148,0.97759,-0.18776,0.0,2023,6,7,17,5,12,21
48.52260,-0.04603,-0.06527,0.00000,0.03087,0.97551,-0.18861,0.0,2023,6,7,17,5,12,33
48.52270,0.09397,0.02223,0.00000,0.03013,0.97612,-0.18922,0.0,2023,6,7,17,5,12,44
48.52280,0.00647,-0.01277,0.00000,0.03209,0.97722,-0.18751,0.0,2023,6,7,17,5,12,55
48.52290,-0.01103,-0.01277,0.00000,0.03038,0.97698,-0.18800,0.0,2023,6,7,17,5,12,66
48.52300,-0.04603,-0.01277,0.00000,0.02952,0.97673,-0.18898,0.0,2023,6,7,17,5,12,77
48.52310,0.02397,-0.04777,0.00000,0.02952,0.97551,-0.19044,0.0,2023,6,7,17,5,12,89
48.52320,-0.06353,-0.03027,0.00000,0.03074,0.97600,-0.18800,0.0,2023,6,7,17,5,12,100
48.52330,-0.16853,-0.04777,0.00000,0.03294,0.97844,-0.18825,0.0,2023,6,7,17,5,12,111
48.52340,0.00647,-0.06527,0.00000,0.02952,0.97490,-0.18873,0.0,2023,6,7,17,5,12,122
48.52350,0.05897,0.12723,0.00000,0.02940,0.97466,-0.18983,0.0,2023,6,7,17,5,12,133
48.52360,0.00647,-0.10027,0.00000,0.03135,0.97600,-0.18886,0.0,2023,6,7,17,5,12,145
48.52370,0.12897,0.10973,0.00000,0.03282,0.97661,-0.18751,0.0,2023,6,7,17,5,12,156
48.52380,0.07647,0.02223,0.00000,0.03135,0.97661,-0.19056,0.0,2023,6,7,17,5,12,167
48.52390,-0.15103,-0.03027,0.00000,0.03367,0.97698,-0.18788,0.0,2023,6,7,17,5,12,178
48.52400,-0.06353,-0.06527,0.00000,0.02928,0.97600,-0.19008,0.0,2023,6,7,17,5,12,189
48.52410,0.02397,-0.25777,0.00000,0.02952,0.97563,-0.19105,0.0,2023,6,7,17,5,12,201
48.52420,-0.06353,0.10973,0.00000,0.03013,0.97685,-0.18825,0.0,2023,6,7,17,5,12,212
48.52430,0.09397,0.02223,0.00000,0.02977,0.97929,-0.18690,0.0,2023,6,7,17,5,12,223
48.52440,-0.01103,0.05723,0.00000,0.02904,0.97954,-0.18971,0.0,2023,6,7,17,5,12,234
48.52450,0.02397,-0.10027,0.00000,0.03294,0.97588,-0.18764,0.0,2023,6,7,17,5,12,245
48.52460,0.02397,-0.11777,0.00000,0.03148,0.97515,-0.18959,0.0,2023,6,7,17,5,12,257
48.52470,0.07647,-0.08277,0.00000,0.03013,0.97783,-0.18922,0.0,2023,6,7,17,5,12,268
48.52480,0.11147,0.19723,0.00000,0.03074,0.97698,-0.18776,0.0,2023,6,7,17,5,12,279
48.52490,0.16397,-0.04777,0.00000,0.02940,0.97600,-0.19044,0.0,2023,6,7,17,5,12,290
48.52500,-0.13353,0.03973,0.00000,0.03257,0.97722,-0.18812,0.0,2023,6,7,17,5,12,301
48.52510,-0.08103,-0.04777,0.00000,0.03172,0.97759,-0.18873,0.0,2023,6,7,17,5,12,313
48.52520,-0.13353,0.03973,0.00000,0.03221,0.97807,-0.18898,0.0,2023,6,7,17,5,12,324
48.52530,0.00647,0.17973,0.00000,0.02977,0.97698,-0.18922,0.0,2023,6,7,17,5,12,335
48.52540,-0.11603,0.14473,0.00000,0.03050,0.97661,-0.18764,0.0,2023,6,7,17,5,12,346
48.52550,-0.15103,0.12723,0.00000,0.03160,0.97490,-0.18861,0.0,2023,6,7,17,5,12,357
48.52560,-0.06353,-0.03027,0.00000,0.03050,0.97759,-0.19008,0.0,2023,6,7,17,5,12,369
48.52570,-0.15103,0.05723,0.00000,0.03111,0.97441,-0.18861,0.0,2023,6,7,17,5,12,380
48.52580,0.11147,-0.04777,0.00000,0.03209,0.97685,-0.18922,0.0,2023,6,7,17,5,12,391
48.52590,0.02397,0.07473,0.00000,0.03038,0.97673,-0.18776,0.0,2023,6,7,17,5,12,402
48.52600,-0.23853,0.03973,0.00000,0.03355,0.97698,-0.18715,0.0,2023,6,7,17,5,12,413
48.52610,-0.06353,-0.10027,0.00000,0.03294,0.97649,-0.18922,0.0,2023,6,7,17,5,12,425
48.52620,0.14647,-0.06527,0.00000,0.03123,0.97771,-0.18800,0.0,2023,6,7,17,5,12,436
48.52630,-0.18603,0.07473,0.00000,0.03050,0.97637,-0.18849,0.0,2023,6,7,17,5,12,447
48.52640,0.11147,0.03973,0.00000,0.03062,0.97637,-0.18703,0.0,2023,6,7,17,5,12,458
48.52650,-0.01103,0.02223,0.00000,0.03111,0.97771,-0.19081,0.0,2023,6,7,17,5,12,469
48.52660,-0.13353,-0.08277,0.00000,0.03099,0.97624,-0.18959,0.0,2023,6,7,17,5,12,481
48.52670,-0.11603,0.12723,0.00000,0.02940,0.97759,-0.19008,0.0,2023,6,7,17,5,12,492
48.52680,0.02397,-0.22277,0.00000,0.03111,0.97515,-0.18788,0.0,2023,6,7,17,5,12,503
48.52690,-0.01103,0.09223,0.00000,0.03294,0.97600,-0.18886,0.0,2023,6,7,17,5,12,514
48.52700,-0.06353,-0.08277,0.00000,0.03123,0.97820,-0.18800,0.0,2023,6,7,17,5,12,525
48.52710,-0.02853,0.07473,0.00000,0.03062,0.97661,-0.18886,0.0,2023,6,7,17,5,12,537
48.52720,0.23397,0.12723,0.00000,0.03294,0.97881,-0.18910,0.0,2023,6,7,17,5,12,548
48.52730,-0.08103,0.03973,0.00000,0.03111,0.97929,-0.18629,0.0,2023,6,7,17,5,12,559
48.52740,-0.18603,0.02223,0.00000,0.03331,0.97405,-0.18947,0.0,2023,6,7,17,5,12,570
48.52750,-0.01103,0.14473,0.00000,0.03245,0.97527,-0.18898,0.0,2023,6,7,17,5,12,581
48.52760,-0.20353,0.16223,0.00000,0.03111,0.97710,-0.18971,0.0,2023,6,7,17,5,12,593
48.52770,0.00647,0.12723,0.00000,0.03038,0.97795,-0.18934,0.0,2023,6,7,17,5,12,604
48.52780,-0.04603,0.03973,0.00000,0.03196,0.97612,-0.18617,0.0,2023,6,7,17,5,12,615
48.52790,-0.15103,-0.18777,0.00000,0.03111,0.97807,-0.18666,0.0,2023,6,7,17,5,12,626
48.52800,-0.18603,-0.10027,0.00000,0.02952,0.97820,-0.18886,0.0,2023,6,7,17,5,12,637
48.52810,0.16397,0.19723,0.00000,0.03270,0.97637,-0.19105,0.0,2023,6,7,17,5,12,649
48.52820,-0.16853,-0.17027,0.00000,0.03099,0.97563,-0.18812,0.0,2023,6,7,17,5,12,660
48.52830,0.14647,-0.06527,0.00000,0.03440,0.97673,-0.18764,0.0,2023,6,7,17,5,12,671
48.52840,0.11147,0.09223,0.00000,0.03148,0.97649,-0.19008,0.0,2023,6,7,17,5,12,682
48.52850,-0.18603,0.07473,0.00000,0.03148,0.97478,-0.18751,0.0,2023,6,7,17,5,12,693
48.52860,-0.08103,0.00473,0.00000,0.03062,0.97820,-0.18739,0.0,2023,6,7,17,5,12,705
48.52870,-0.01103,-0.18777,0.00000,0.03294,0.97649,-0.18410,0.0,2023,6,7,17,5,12,716
48.52880,-0.06353,-0.15277,0.00000,0.03111,0.97588,-0.18959,0.0,2023,6,7,17,5,12,727
48.52890,0.18147,0.10973,0.00000,0.03123,0.97722,-0.18654,0.0,2023,6,7,17,5,12,738
48.52900,0.00647,-0.03027,0.00000,0.03184,0.97710,-0.18568,0.0,2023,6,7,17,5,12,749
48.52910,-0.04603,0.00473,0.00000,0.03123,0.97490,-0.19044,0.0,2023,6,7,17,5,12,761
48.52920,-0.06353,-0.22277,0.00000,0.03221,0.97624,-0.18825,0.0,2023,6,7,17,5,12,772
48.52930,-0.04603,0.03973,0.00000,0.03123,0.97454,-0.18922,0.0,2023,6,7,17,5,12,783
48.52940,0.11147,-0.01277,0.00000,0.03062,0.97612,-0.18825,0.0,2023,6,7,17,5,12,794
48.52950,0.05897,-0.08277,0.00000,0.03416,0.97661,-0.18898,0.0,2023,6,7,17,5,12,805
48.52960,-0.27353,0.00473,0.00000,0.03209,0.97710,-0.18788,0.0,2023,6,7,17,5,12,817
48.52970,0.11147,-0.27527,0.00000,0.03367,0.97966,-0.18666,0.0,2023,6,7,17,5,12,828
48.52980,0.18147,0.09223,0.00000,0.03099,0.97637,-0.18947,0.0,2023,6,7,17,5,12,839
48.52990,0.09397,0.07473,0.00000,0.02904,0.97515,-0.19032,0.0,2023,6,7,17,5,12,850
48.53000,0.07647,0.12723,0.00000,0.03026,0.97490,-0.19069,0.0,2023,6,7,17,5,12,861
48.53010,0.09397,0.05723,0.00000,0.03257,0.97673,-0.18849,0.0,2023,6,7,17,5,12,873
48.53020,-0.06353,-0.03027,0.00000,0.03160,0.97466,-0.18983,0.0,2023,6,7,17,5,12,884
48.53030,-0.11603,0.17973,0.00000,0.03062,0.97600,-0.18849,0.0,2023,6,7,17,5,12,895
48.53040,0.07647,0.03973,0.00000,0.03001,0.97698,-0.18837,0.0,2023,6,7,17,5,12,906
48.53050,-0.25603,0.09223,0.00000,0.03026,0.97807,-0.18764,0.0,2023,6,7,17,5,12,917
48.53060,-0.01103,0.05723,0.00000,0.02916,0.97685,-0.18861,0.0,2023,6,7,17,5,12,929
48.53070,0.07647,0.09223,0.00000,0.03148,0.97405,-0.19105,0.0,2023,6,7,17,5,12,940
48.53080,0.14647,-0.10027,0.00000,0.03123,0.97563,-0.18788,0.0,2023,6,7,17,5,12,951
48.53090,0.16397,-0.03027,0.00000,0.03074,0.97917,-0.18739,0.0,2023,6,7,17,5,12,962
48.53100,-0.06353,0.12723,0.00000,0.03074,0.97441,-0.19020,0.0,2023,6,7,17,5,12,973
48.53110,0.11147,-0.01277,0.00000,0.03233,0.97673,-0.18934,0.0,2023,6,7,17,5,12,985
48.53120,-0.04603,0.12723,0.00000,0.03123,0.97502,-0.18837,0.0,2023,6,7,17,5,12,996
48.53130,0.12897,-0.13527,0.00000,0.03087,0.97685,-0.18727,0.0,2023,6,7,17,5,12,7
48.53140,-0.01103,0.26723,0.00000,0.03160,0.97576,-0.18812,0.0,2023,6,7,17,5,12,18
48.53150,-0.04603,-0.29277,0.00000,0.03318,0.97661,-0.18849,0.0,2023,6,7,17,5,13,7
48.53160,0.07647,0.03973,0.00000,0.03367,0.97576,-0.18959,0.0,2023,6,7,17,5,13,19
48.53170,0.25147,-0.08277,0.00000,0.03111,0.97478,-0.19044,0.0,2023,6,7,17,5,13,30
48.53180,-0.04603,-0.06527,0.00000,0.03160,0.97783,-0.18629,0.0,2023,6,7,17,5,13,41
48.53190,-0.16853,0.05723,0.00000,0.03392,0.97588,-0.19032,0.0,2023,6,7,17,5,13,52
48.53200,-0.01103,-0.11777,0.00000,0.02989,0.97551,-0.18934,0.0,2023,6,7,17,5,13,63
48.53210,-0.06353,0.12723,0.00000,0.03087,0.97759,-0.18898,0.0,2023,6,7,17,5,13,75
48.53220,-0.04603,-0.22277,0.00000,0.03245,0.97746,-0.18800,0.0,2023,6,7,17,5,13,86
48.53230,0.02397,0.07473,0.00000,0.03038,0.97698,-0.18812,0.0,2023,6,7,17,5,13,97
48.53240,0.21647,-0.18777,0.00000,0.03245,0.97710,-0.18751,0.0,2023,6,7,17,5,13,108
48.53250,0.18147,-0.04777,0.00000,0.03196,0.97661,-0.18800,0.0,2023,6,7,17,5,13,119
48.53260,-0.02853,0.16223,0.00000,0.03111,0.97600,-0.19044,0.0,2023,6,7,17,5,13,131
48.53270,-0.02853,-0.04777,0.00000,0.03087,0.97563,-0.18703,0.0,2023,6,7,17,5,13,142
48.53280,0.12897,-0.03027,0.00000,0.03135,0.97490,-0.18873,0.0,2023,6,7,17,5,13,153
48.53290,0.14647,-0.01277,0.00000,0.02916,0.97661,-0.18971,0.0,2023,6,7,17,5,13,164
48.53300,0.18147,0.12723,0.00000,0.02965,0.97868,-0.18703,0.0,2023,6,7,17,5,13,175
48.53310,0.02397,-0.06527,0.00000,0.03062,0.97344,-0.18849,0.0,2023,6,7,17,5,13,187
48.53320,0.05897,-0.29277,0.00000,0.03099,0.97502,-0.18934,0.0,2023,6,7,17,5,13,198
48.53330,0.05897,0.16223,0.00000,0.03099,0.97771,-0.18873,0.0,2023,6,7,17,5,13,209
48.53340,0.00647,0.09223,0.00000,0.03135,0.97393,-0.18922,0.0,2023,6,7,17,5,13,220
48.53350,-0.01103,0.02223,0.00000,0.03123,0.97332,-0.18776,0.0,2023,6,7,17,5,13,231
48.53360,-0.13353,0.09223,0.00000,0.03026,0.97393,-0.19008,0.0,2023,6,7,17,5,13,243
48.53370,-0.06353,0.07473,0.00000,0.03184,0.97563,-0.18995,0.0,2023,6,7,17,5,13,254
48.53380,0.07647,-0.01277,0.00000,0.03233,0.97746,-0.18873,0.0,2023,6,7,17,5,13,265
48.53390,-0.04603,0.10973,0.00000,0.03074,0.97612,-0.18983,0.0,2023,6,7,17,5,13,276
48.53400,0.09397,0.02223,0.00000,0.03148,0.97698,-0.18703,0.0,2023,6,7,17,5,13,287
48.53410,-0.01103,0.02223,0.00000,0.03148,0.97795,-0.18593,0.0,2023,6,7,17,5,13,299
48.53420,0.02397,-0.03027,0.00000,0.03111,0.97771,-0.19044,0.0,2023,6,7,17,5,13,310
48.53430,0.02397,-0.03027,0.00000,0.02904,0.97527,-0.18995,0.0,2023,6,7,17,5,13,321
48.53440,-0.06353,0.02223,0.00000,0.02989,0.97588,-0.18947,0.0,2023,6,7,17,5,13,332
48.53450,0.07647,-0.11777,0.00000,0.03123,0.97539,-0.18642,0.0,2023,6,7,17,5,13,343
48.53460,0.11147,0.07473,0.00000,0.03245,0.97795,-0.18727,0.0,2023,6,7,17,5,13,355
48.53470,0.07647,-0.08277,0.00000,0.03196,0.97563,-0.18654,0.0,2023,6,7,17,5,13,366
48.53480,0.02397,-0.11777,0.00000,0.03111,0.97649,-0.18971,0.0,2023,6,7,17,5,13,377
48.53490,-0.02853,-0.04777,0.00000,0.03148,0.97734,-0.18812,0.0,2023,6,7,17,5,13,388
48.53500,-0.08103,0.05723,0.00000,0.02879,0.97466,-0.18739,0.0,2023,6,7,17,5,13,399
48.53510,-0.23853,0.02223,0.00000,0.03294,0.97502,-0.18764,0.0,2023,6,7,17,5,13,411
48.53520,0.21647,-0.03027,0.00000,0.03074,0.97710,-0.18690,0.0,2023,6,7,17,5,13,422
48.53530,0.23397,-0.04777,0.00000,0.02904,0.97734,-0.19032,0.0,2023,6,7,17,5,13,433
48.53540,0.14647,-0.17027,0.00000,0.03087,0.97661,-0.18825,0.0,2023,6,7,17,5,13,444
48.53550,0.11147,-0.10027,0.00000,0.03257,0.97783,-0.18703,0.0,2023,6,7,17,5,13,455
48.53560,0.00647,0.07473,0.00000,0.03221,0.97649,-0.18922,0.0,2023,6,7,17,5,13,467
48.53570,-0.08103,0.00473,0.00000,0.02928,0.97490,-0.19020,0.0,2023,6,7,17,5,13,478
48.53580,-0.18603,0.17973,0.00000,0.03135,0.97698,-0.19069,0.0,2023,6,7,17,5,13,489
48.53590,-0.08103,0.03973,0.00000,0.03123,0.97588,-0.18934,0.0,2023,6,7,17,5,13,500
48.53600,-0.04603,0.14473,0.00000,0.03209,0.97746,-0.18812,0.0,2023,6,7,17,5,13,511
48.53610,-0.16853,0.03973,0.00000,0.03221,0.97612,-0.18934,0.0,2023,6,7,17,5,13,523
48.53620,-0.01103,-0.04777,0.00000,0.03013,0.97795,-0.18873,0.0,2023,6,7,17,5,13,534
48.53630,-0.06353,-0.10027,0.00000,0.03245,0.97783,-0.18825,0.0,2023,6,7,17,5,13,545
48.53640,-0.08103,-0.10027,0.00000,0.03209,0.97588,-0.18776,0.0,2023,6,7,17,5,13,556
48.53650,0.09397,0.02223,0.00000,0.03257,0.97966,-0.19020,0.0,2023,6,7,17,5,13,567
48.53660,0.14647,0.02223,0.00000,0.03123,0.97600,-0.19081,0.0,2023,6,7,17,5,13,579
48.53670,0.05897,0.09223,0.00000,0.02891,0.97661,-0.19191,0.0,2023,6,7,17,5,13,590
48.53680,-0.02853,0.00473,0.00000,0.03245,0.97478,-0.18581,0.0,2023,6,7,17,5,13,601
48.53690,-0.08103,-0.15277,0.00000,0.03087,0.97478,-0.18690,0.0,2023,6,7,17,5,13,612
48.53700,-0.20353,0.10973,0.00000,0.03270,0.97771,-0.18654,0.0,2023,6,7,17,5,13,623
48.53710,0.05897,0.03973,0.00000,0.03038,0.97600,-0.18800,0.0,2023,6,7,17,5,13,635
48.53720,-0.02853,-0.11777,0.00000,0.02952,0.97588,-0.18886,0.0,2023,6,7,17,5,13,646
48.53730,0.05897,-0.11777,0.00000,0.03074,0.97612,-0.18910,0.0,2023,6,7,17,5,13,657
48.53740,0.02397,0.02223,0.00000,0.02952,0.97551,-0.18715,0.0,2023,6,7,17,5,13,668
48.53750,-0.04603,0.09223,0.00000,0.02989,0.97722,-0.18983,0.0,2023,6,7,17,5,13,679
48.53760,0.00647,0.09223,0.00000,0.03233,0.97539,-0.19117,0.0,2023,6,7,17,5,13,691
48.53770,-0.09853,0.10973,0.00000,0.03245,0.97722,-0.18922,0.0,2023,6,7,17,5,13,702
48.53780,0.00647,-0.04777,0.00000,0.03099,0.97795,-0.18800,0.0,2023,6,7,17,5,13,713
48.53790,0.09397,-0.10027,0.00000,0.02940,0.97698,-0.18764,0.0,2023,6,7,17,5,13,724
48.53800,-0.04603,0.07473,0.00000,0.03160,0.97698,-0.19142,0.0,2023,6,7,17,5,13,735
48.53810,0.09397,-0.06527,0.00000,0.03123,0.97588,-0.18825,0.0,2023,6,7,17,5,13,747
48.53820,-0.15103,-0.08277,0.00000,0.02879,0.97807,-0.18861,0.0,2023,6,7,17,5,13,758
48.53830,0.12897,0.03973,0.00000,0.03440,0.97746,-0.19105,0.0,2023,6,7,17,5,13,769
48.53840,0.00647,0.02223,0.00000,0.03221,0.97649,-0.19056,0.0,2023,6,7,17,5,13,780
48.53850,0.05897,0.03973,0.00000,0.03050,0.97539,-0.19178,0.0,2023,6,7,17,5,13,791
48.53860,-0.06353,-0.18777,0.00000,0.03184,0.97551,-0.18764,0.0,2023,6,7,17,5,13,803
48.53870,-0.09853,-0.01277,0.00000,0.03233,0.97637,-0.18776,0.0,2023,6,7,17,5,13,814
48.53880,0.12897,-0.20527,0.00000,0.03184,0.97637,-0.19056,0.0,2023,6,7,17,5,13,825
48.53890,-0.11603,-0.01277,0.00000,0.03148,0.97673,-0.19020,0.0,2023,6,7,17,5,13,836
48.53900,-0.01103,0.07473,0.00000,0.03270,0.97685,-0.19166,0.0,2023,6,7,17,5,13,847
48.53910,-0.02853,-0.04777,0.00000,0.03257,0.97649,-0.19032,0.0,2023,6,7,17,5,13,859
48.53920,-0.09853,0.05723,0.00000,0.03087,0.97710,-0.18849,0.0,2023,6,7,17,5,13,870
48.53930,-0.13353,0.30223,0.00000,0.03087,0.97807,-0.18983,0.0,2023,6,7,17,5,13,881
48.53940,-0.16853,0.03973,0.00000,0.03001,0.97551,-0.18873,0.0,2023,6,7,17,5,13,892
48.53950,-0.13353,0.00473,0.00000,0.03245,0.97759,-0.18861,0.0,2023,6,7,17,5,13,903
48.53960,-0.01103,0.02223,0.00000,0.03209,0.97685,-0.18898,0.0,2023,6,7,17,5,13,915
48.53970,0.11147,-0.06527,0.00000,0.03013,0.97576,-0.18959,0.0,2023,6,7,17,5,13,926
48.53980,-0.08103,0.14473,0.00000,0.03233,0.97746,-0.18922,0.0,2023,6,7,17,5,13,937
48.53990,-0.20353,0.07473,0.00000,0.03184,0.97856,-0.18995,0.0,2023,6,7,17,5,13,948
48.54000,0.19897,-0.11777,0.00000,0.03184,0.97405,-0.18983,0.0,2023,6,7,17,5,13,959
48.54010,0.07647,-0.01277,0.00000,0.03111,0.97685,-0.18971,0.0,2023,6,7,17,5,13,971
48.54020,0.16397,0.23223,0.00000,0.03392,0.97417,-0.19276,0.0,2023,6,7,17,5,13,982
48.54030,-0.18603,0.12723,0.00000,0.03123,0.97661,-0.18934,0.0,2023,6,7,17,5,13,993
48.54040,-0.06353,0.10973,0.00000,0.03062,0.97771,-0.18886,0.0,2023,6,7,17,5,13,4
48.54050,0.05897,0.03973,0.00000,0.03318,0.97661,-0.18898,0.0,2023,6,7,17,5,14,4
48.54060,0.18147,0.07473,0.00000,0.03245,0.97710,-0.18995,0.0,2023,6,7,17,5,14,16
48.54070,0.00647,0.14473,0.00000,0.03050,0.97649,-0.19020,0.0,2023,6,7,17,5,14,27
48.54080,0.14647,-0.15277,0.00000,0.03050,0.97795,-0.18690,0.0,2023,6,7,17,5,14,38
48.54090,-0.04603,-0.01277,0.00000,0.03087,0.97734,-0.19020,0.0,2023,6,7,17,5,14,49
48.54100,0.07647,0.10973,0.00000,0.03172,0.97612,-0.18983,0.0,2023,6,7,17,5,14,60
48.54110,0.09397,-0.04777,0.00000,0.02928,0.97576,-0.18788,0.0,2023,6,7,17,5,14,72
48.54120,-0.11603,0.02223,0.00000,0.03038,0.97820,-0.19032,0.0,2023,6,7,17,5,14,83
48.54130,0.00647,0.02223,0.00000,0.03404,0.97661,-0.19020,0.0,2023,6,7,17,5,14,94
48.54140,-0.02853,0.05723,0.00000,0.03099,0.97722,-0.18959,0.0,2023,6,7,17,5,14,105
48.54150,-0.25603,0.31973,0.00000,0.03026,0.97405,-0.18898,0.0,2023,6,7,17,5,14,116
48.54160,0.11147,-0.13527,0.00000,0.03123,0.97515,-0.18922,0.0,2023,6,7,17,5,14,128
48.54170,0.16397,-0.17027,0.00000,0.03184,0.97624,-0.18934,0.0,2023,6,7,17,5,14,139
48.54180,-0.09853,0.16223,0.00000,0.03026,0.97515,-0.18983,0.0,2023,6,7,17,5,14,150
48.54190,0.04147,0.00473,0.00000,0.03221,0.97502,-0.18910,0.0,2023,6,7,17,5,14,161
48.54200,-0.09853,0.26723,0.00000,0.03160,0.97539,-0.19008,0.0,2023,6,7,17,5,14,172
48.54210,0.07647,0.02223,0.00000,0.03026,0.97637,-0.19044,0.0,2023,6,7,17,5,14,184
48.54220,-0.06353,0.17973,0.00000,0.03013,0.97783,-0.19020,0.0,2023,6,7,17,5,14,195
48.54230,0.00647,-0.24027,0.00000,0.02904,0.97600,-0.19166,0.0,2023,6,7,17,5,14,206
48.54240,0.00647,-0.06527,0.00000,0.03331,0.97746,-0.18739,0.0,2023,6,7,17,5,14,217
48.54250,-0.01103,0.24973,0.00000,0.03001,0.97832,-0.18727,0.0,2023,6,7,17,5,14,228
48.54260,0.04147,-0.15277,0.00000,0.03233,0.97429,-0.18922,0.0,2023,6,7,17,5,14,240
48.54270,0.04147,-0.08277,0.00000,0.02965,0.97673,-0.19044,0.0,2023,6,7,17,5,14,251
48.54280,0.21647,-0.01277,0.00000,0.03209,0.97807,-0.18727,0.0,2023,6,7,17,5,14,262
48.54290,-0.13353,-0.08277,0.00000,0.03135,0.97393,-0.18788,0.0,2023,6,7,17,5,14,273
48.54300,-0.09853,0.09223,0.00000,0.03392,0.97734,-0.18666,0.0,2023,6,7,17,5,14,284
48.54310,0.12897,-0.08277,0.00000,0.03087,0.97222,-0.19154,0.0,2023,6,7,17,5,14,296
48.54320,-0.15103,-0.04777,0.00000,0.03074,0.97649,-0.19215,0.0,2023,6,7,17,5,14,307
48.54330,0.18147,-0.01277,0.00000,0.03135,0.97673,-0.19044,0.0,2023,6,7,17,5,14,318
48.54340,-0.04603,0.03973,0.00000,0.03050,0.97576,-0.18678,0.0,2023,6,7,17,5,14,329
48.54350,-0.08103,-0.01277,0.00000,0.03160,0.97624,-0.18983,0.0,2023,6,7,17,5,14,340
48.54360,0.05897,-0.17027,0.00000,0.03013,0.97807,-0.18910,0.0,2023,6,7,17,5,14,352
48.54370,-0.02853,0.26723,0.00000,0.03209,0.97576,-0.18581,0.0,2023,6,7,17,5,14,363
48.54380,-0.04603,-0.01277,0.00000,0.03087,0.97759,-0.18947,0.0,2023,6,7,17,5,14,374
48.54390,-0.06353,-0.03027,0.00000,0.03111,0.97722,-0.18971,0.0,2023,6,7,17,5,14,385
48.54400,0.19897,-0.01277,0.00000,0.03111,0.97600,-0.18800,0.0,2023,6,7,17,5,14,396
48.54410,-0.23853,0.00473,0.00000,0.03087,0.97612,-0.19142,0.0,2023,6,7,17,5,14,408
48.54420,-0.02853,0.19723,0.00000,0.03233,0.97710,-0.18922,0.0,2023,6,7,17,5,14,419
48.54430,0.12897,0.00473,0.00000,0.02855,0.97685,-0.19130,0.0,2023,6,7,17,5,14,430
48.54440,0.11147,-0.04777,0.00000,0.03001,0.97832,-0.19008,0.0,2023,6,7,17,5,14,441
48.54450,0.04147,-0.10027,0.00000,0.03099,0.97624,-0.19008,0.0,2023,6,7,17,5,14,452
48.54460,-0.11603,0.03973,0.00000,0.03111,0.97685,-0.18800,0.0,2023,6,7,17,5,14,464
48.54470,0.14647,-0.06527,0.00000,0.03087,0.97746,-0.18837,0.0,2023,6,7,17,5,14,475
48.54480,0.00647,-0.06527,0.00000,0.03294,0.97600,-0.18751,0.0,2023,6,7,17,5,14,486
48.54490,-0.16853,0.12723,0.00000,0.03123,0.97844,-0.18873,0.0,2023,6,7,17,5,14,497
48.54500,-0.06353,0.12723,0.00000,0.02928,0.97844,-0.18910,0.0,2023,6,7,17,5,14,508
48.54510,0.14647,0.14473,0.00000,0.03257,0.97661,-0.19032,0.0,2023,6,7,17,5,14,520
48.54520,0.14647,-0.10027,0.00000,0.03062,0.97307,-0.18934,0.0,2023,6,7,17,5,14,531
48.54530,0.04147,-0.03027,0.00000,0.03221,0.97649,-0.19008,0.0,2023,6,7,17,5,14,542
48.54540,-0.22103,0.16223,0.00000,0.03013,0.97624,-0.19142,0.0,2023,6,7,17,5,14,553
48.54550,0.12897,-0.25777,0.00000,0.03087,0.97746,-0.19020,0.0,2023,6,7,17,5,14,564
48.54560,0.05897,-0.04777,0.00000,0.03270,0.97881,-0.19081,0.0,2023,6,7,17,5,14,576
48.54570,0.00647,0.14473,0.00000,0.03294,0.97539,-0.18922,0.0,2023,6,7,17,5,14,587
48.54580,0.09397,0.07473,0.00000,0.03062,0.97734,-0.19093,0.0,2023,6,7,17,5,14,598
48.54590,0.09397,0.03973,0.00000,0.03160,0.97576,-0.18898,0.0,2023,6,7,17,5,14,609
48.54600,0.16397,0.07473,0.00000,0.03135,0.97795,-0.18959,0.0,2023,6,7,17,5,14,620
48.54610,-0.01103,-0.04777,0.00000,0.03379,0.97746,-0.18995,0.0,2023,6,7,17,5,14,632
48.54620,0.09397,0.40723,0.00000,0.03221,0.97588,-0.18947,0.0,2023,6,7,17,5,14,643
48.54630,0.19897,-0.15277,0.00000,0.03038,0.97893,-0.19288,0.0,2023,6,7,17,5,14,654
48.54640,-0.11603,-0.06527,0.00000,0.03099,0.97771,-0.18886,0.0,2023,6,7,17,5,14,665
48.54650,-0.13353,0.21473,0.00000,0.03111,0.97600,-0.19093,0.0,2023,6,7,17,5,14,676
48.54660,0.07647,0.14473,0.00000,0.03062,0.97600,-0.18825,0.0,2023,6,7,17,5,14,688
48.54670,-0.01103,-0.11777,0.00000,0.03087,0.97698,-0.19435,0.0,2023,6,7,17,5,14,699
48.54680,0.25147,0.10973,0.00000,0.03135,0.97429,-0.19191,0.0,2023,6,7,17,5,14,710
48.54690,0.18147,-0.04777,0.00000,0.03221,0.97722,-0.18849,0.0,2023,6,7,17,5,14,721
48.54700,0.12897,0.14473,0.00000,0.03440,0.97624,-0.18751,0.0,2023,6,7,17,5,14,732
48.54710,0.30397,-0.06527,0.00000,0.03196,0.97698,-0.18995,0.0,2023,6,7,17,5,14,744
48.54720,0.19897,-0.06527,0.00000,0.03245,0.97637,-0.19166,0.0,2023,6,7,17,5,14,755
48.54730,-0.13353,-0.10027,0.00000,0.02965,0.97600,-0.19105,0.0,2023,6,7,17,5,14,766
48.54740,-0.18603,0.24973,0.00000,0.03038,0.97478,-0.19130,0.0,2023,6,7,17,5,14,777
48.54750,-0.08103,0.28473,0.00000,0.02965,0.97502,-0.19008,0.0,2023,6,7,17,5,14,788
48.54760,-0.13353,-0.03027,0.00000,0.03270,0.97441,-0.18934,0.0,2023,6,7,17,5,14,800
48.54770,-0.01103,0.12723,0.00000,0.03196,0.97710,-0.19191,0.0,2023,6,7,17,5,14,811
48.54780,-0.02853,-0.03027,0.00000,0.03160,0.97661,-0.19178,0.0,2023,6,7,17,5,14,822
48.54790,0.05897,-0.11777,0.00000,0.03148,0.97710,-0.19374,0.0,2023,6,7,17,5,14,833
48.54800,0.02397,0.05723,0.00000,0.03282,0.97734,-0.19008,0.0,2023,6,7,17,5,14,844
48.54810,0.07647,-0.03027,0.00000,0.03001,0.97649,-0.18995,0.0,2023,6,7,17,5,14,856
48.54820,0.09397,0.07473,0.00000,0.03135,0.97515,-0.18873,0.0,2023,6,7,17,5,14,867
48.54830,0.18147,-0.03027,0.00000,0.03379,0.97759,-0.18837,0.0,2023,6,7,17,5,14,878
48.54840,-0.16853,-0.01277,0.00000,0.02867,0.97600,-0.19069,0.0,2023,6,7,17,5,14,889
48.54850,0.02397,-0.17027,0.00000,0.03245,0.97624,-0.19020,0.0,2023,6,7,17,5,14,900
48.54860,-0.09853,0.05723,0.00000,0.02977,0.97795,-0.18922,0.0,2023,6,7,17,5,14,912
48.54870,-0.08103,-0.08277,0.00000,0.03184,0.97685,-0.18690,0.0,2023,6,7,17,5,14,923
48.54880,0.02397,0.17973,0.00000,0.03209,0.97661,-0.18861,0.0,2023,6,7,17,5,14,934
48.54890,0.14647,0.02223,0.00000,0.03184,0.97661,-0.19178,0.0,2023,6,7,17,5,14,945
48.54900,-0.13353,0.03973,0.00000,0.02928,0.97539,-0.19056,0.0,2023,6,7,17,5,14,956
48.54910,0.16397,-0.32777,0.00000,0.03099,0.97722,-0.18617,0.0,2023,6,7,17,5,14,968
48.54920,-0.08103,0.02223,0.00000,0.03257,0.97515,-0.18849,0.0,2023,6,7,17,5,14,979
48.54930,-0.09853,0.09223,0.00000,0.02891,0.97527,-0.18873,0.0,2023,6,7,17,5,14,990
48.54940,0.21647,0.09223,0.00000,0.03148,0.97673,-0.19239,0.0,2023,6,7,17,5,14,1
48.54950,0.09397,0.03973,0.00000,0.02904,0.97600,-0.18995,0.0,2023,6,7,17,5,14,12
48.54960,0.12897,0.21473,0.00000,0.03038,0.97441,-0.18739,0.0,2023,6,7,17,5,15,2
48.54970,0.02397,0.02223,0.00000,0.03343,0.97649,-0.19032,0.0,2023,6,7,17,5,15,13
48.54980,0.09397,0.03973,0.00000,0.03111,0.97649,-0.18837,0.0,2023,6,7,17,5,15,24
48.54990,0.18147,-0.18777,0.00000,0.03209,0.97685,-0.18971,0.0,2023,6,7,17,5,15,35
48.55000,-0.04603,0.02223,0.00000,0.03038,0.97783,-0.18886,0.0,2023,6,7,17,5,15,46
48.55010,0.04147,0.00473,0.00000,0.03257,0.97746,-0.18764,0.0,2023,6,7,17,5,15,58
48.55020,-0.02853,0.28473,0.00000,0.03050,0.97868,-0.18812,0.0,2023,6,7,17,5,15,69
48.55030,-0.02853,-0.18777,0.00000,0.03184,0.97795,-0.18898,0.0,2023,6,7,17,5,15,80
48.55040,0.02397,0.16223,0.00000,0.03001,0.97576,-0.18788,0.0,2023,6,7,17,5,15,91
48.55050,-0.04603,-0.15277,0.00000,0.02830,0.97490,-0.18629,0.0,2023,6,7,17,5,15,102
48.55060,0.11147,-0.08277,0.00000,0.03233,0.97759,-0.18910,0.0,2023,6,7,17,5,15,114
48.55070,0.12897,-0.13527,0.00000,0.03221,0.97820,-0.18788,0.0,2023,6,7,17,5,15,125
48.55080,-0.04603,0.12723,0.00000,0.03087,0.97466,-0.18971,0.0,2023,6,7,17,5,15,136
48.55090,0.25147,-0.08277,0.00000,0.03111,0.97551,-0.18678,0.0,2023,6,7,17,5,15,147
48.55100,-0.02853,0.17973,0.00000,0.03050,0.97527,-0.18910,0.0,2023,6,7,17,5,15,158
48.55110,0.11147,-0.11777,0.00000,0.03074,0.97612,-0.18934,0.0,2023,6,7,17,5,15,170
48.55120,0.25147,-0.03027,0.00000,0.02940,0.97783,-0.18739,0.0,2023,6,7,17,5,15,181
48.55130,0.00647,0.05723,0.00000,0.03233,0.97698,-0.18837,0.0,2023,6,7,17,5,15,192
48.55140,0.18147,-0.13527,0.00000,0.03160,0.97929,-0.19044,0.0,2023,6,7,17,5,15,203
48.55150,0.04147,-0.27527,0.00000,0.03160,0.97698,-0.18873,0.0,2023,6,7,17,5,15,214
48.55160,-0.11603,0.12723,0.00000,0.03074,0.97698,-0.18642,0.0,2023,6,7,17,5,15,226
48.55170,0.11147,-0.08277,0.00000,0.03123,0.97820,-0.18971,0.0,2023,6,7,17,5,15,237
48.55180,-0.11603,-0.03027,0.00000,0.03050,0.97905,-0.18593,0.0,2023,6,7,17,5,15,248
48.55190,-0.02853,-0.01277,0.00000,0.02952,0.97551,-0.19227,0.0,2023,6,7,17,5,15,259
48.55200,-0.02853,-0.04777,0.00000,0.03184,0.97917,-0.18947,0.0,2023,6,7,17,5,15,270
48.55210,0.04147,-0.15277,0.00000,0.03123,0.97393,-0.18934,0.0,2023,6,7,17,5,15,282
48.55220,-0.13353,0.12723,0.00000,0.03013,0.97710,-0.18995,0.0,2023,6,7,17,5,15,293
48.55230,0.18147,-0.03027,0.00000,0.03123,0.97710,-0.18873,0.0,2023,6,7,17,5,15,304
48.55240,-0.09853,0.07473,0.00000,0.03038,0.97624,-0.19178,0.0,2023,6,7,17,5,15,315
48.55250,-0.06353,-0.10027,0.00000,0.03294,0.97734,-0.18751,0.0,2023,6,7,17,5,15,326
48.55260,-0.15103,0.05723,0.00000,0.03099,0.97527,-0.18861,0.0,2023,6,7,17,5,15,338
48.55270,0.07647,0.05723,0.00000,0.03172,0.97734,-0.18593,0.0,2023,6,7,17,5,15,349
48.55280,0.19897,-0.06527,0.00000,0.03026,0.97783,-0.18910,0.0,2023,6,7,17,5,15,360
48.55290,0.07647,-0.03027,0.00000,0.03074,0.97722,-0.18825,0.0,2023,6,7,17,5,15,371
48.55300,0.04147,0.07473,0.00000,0.02928,0.97563,-0.18886,0.0,2023,6,7,17,5,15,382
48.55310,-0.22103,-0.06527,0.00000,0.03135,0.97734,-0.18849,0.0,2023,6,7,17,5,15,394
48.55320,0.02397,-0.11777,0.00000,0.03135,0.97600,-0.18861,0.0,2023,6,7,17,5,15,405
48.55330,-0.22103,-0.04777,0.00000,0.03233,0.97624,-0.18727,0.0,2023,6,7,17,5,15,416
48.55340,-0.02853,0.14473,0.00000,0.02928,0.97380,-0.19166,0.0,2023,6,7,17,5,15,427
48.55350,0.00647,0.05723,0.00000,0.03099,0.97429,-0.18873,0.0,2023,6,7,17,5,15,438
48.55360,0.00647,-0.03027,0.00000,0.03221,0.97637,-0.19032,0.0,2023,6,7,17,5,15,450
48.55370,-0.02853,0.21473,0.00000,0.03026,0.97551,-0.18886,0.0,2023,6,7,17,5,15,461
48.55380,0.07647,0.10973,0.00000,0.03257,0.97539,-0.18910,0.0,2023,6,7,17,5,15,472
48.55390,0.09397,0.09223,0.00000,0.02977,0.97673,-0.18983,0.0,2023,6,7,17,5,15,483
48.55400,0.05897,0.12723,0.00000,0.02977,0.97807,-0.18959,0.0,2023,6,7,17,5,15,494
48.55410,0.05897,-0.11777,0.00000,0.03062,0.97551,-0.18934,0.0,2023,6,7,17,5,15,506
48.55420,-0.11603,-0.03027,0.00000,0.03270,0.97759,-0.18690,0.0,2023,6,7,17,5,15,517
48.55430,-0.02853,0.03973,0.00000,0.03123,0.97576,-0.18922,0.0,2023,6,7,17,5,15,528
48.55440,0.00647,0.00473,0.00000,0.03099,0.97771,-0.18825,0.0,2023,6,7,17,5,15,539
48.55450,0.04147,0.09223,0.00000,0.02916,0.97685,-0.18837,0.0,2023,6,7,17,5,15,550
48.55460,-0.09853,0.14473,0.00000,0.03026,0.97746,-0.18910,0.0,2023,6,7,17,5,15,562
48.55470,0.02397,0.16223,0.00000,0.03209,0.97722,-0.18483,0.0,2023,6,7,17,5,15,573
48.55480,-0.02853,0.05723,0.00000,0.03062,0.97746,-0.18751,0.0,2023,6,7,17,5,15,584
48.55490,0.19897,-0.03027,0.00000,0.02989,0.97576,-0.19130,0.0,2023,6,7,17,5,15,595
48.55500,0.16397,0.02223,0.00000,0.03026,0.97746,-0.18812,0.0,2023,6,7,17,5,15,606
48.55510,-0.09853,0.00473,0.00000,0.03001,0.97588,-0.18739,0.0,2023,6,7,17,5,15,618
48.55520,0.09397,-0.20527,0.00000,0.03099,0.97771,-0.18776,0.0,2023,6,7,17,5,15,629
48.55530,0.12897,-0.13527,0.00000,0.03148,0.97393,-0.18788,0.0,2023,6,7,17,5,15,640
48.55540,0.00647,0.02223,0.00000,0.03050,0.97502,-0.18544,0.0,2023,6,7,17,5,15,651
48.55550,-0.01103,0.00473,0.00000,0.03074,0.97698,-0.18825,0.0,2023,6,7,17,5,15,662
48.55560,0.04147,-0.10027,0.00000,0.03038,0.97612,-0.18764,0.0,2023,6,7,17,5,15,674
48.55570,0.04147,-0.01277,0.00000,0.02928,0.97649,-0.18873,0.0,2023,6,7,17,5,15,685
48.55580,0.30397,0.10973,0.00000,0.03221,0.97502,-0.18727,0.0,2023,6,7,17,5,15,696
48.55590,-0.02853,-0.10027,0.00000,0.03196,0.97600,-0.18825,0.0,2023,6,7,17,5,15,707
48.55600,-0.22103,0.00473,0.00000,0.02989,0.97685,-0.18751,0.0,2023,6,7,17,5,15,718
48.55610,0.18147,-0.24027,0.00000,0.03196,0.97551,-0.18922,0.0,2023,6,7,17,5,15,730
48.55620,-0.08103,0.14473,0.00000,0.03355,0.98039,-0.18751,0.0,2023,6,7,17,5,15,741
48.55630,-0.09853,0.03973,0.00000,0.03135,0.97515,-0.18654,0.0,2023,6,7,17,5,15,752
48.55640,0.16397,-0.01277,0.00000,0.02928,0.97698,-0.18751,0.0,2023,6,7,17,5,15,763
48.55650,0.14647,0.10973,0.00000,0.03013,0.97563,-0.18825,0.0,2023,6,7,17,5,15,774
48.55660,0.04147,0.16223,0.00000,0.03001,0.97661,-0.18715,0.0,2023,6,7,17,5,15,786
48.55670,0.02397,-0.17027,0.00000,0.02989,0.97746,-0.18422,0.0,2023,6,7,17,5,15,797
48.55680,-0.04603,0.03973,0.00000,0.03026,0.97868,-0.18922,0.0,2023,6,7,17,5,15,808
48.55690,0.05897,0.09223,0.00000,0.03001,0.97588,-0.18678,0.0,2023,6,7,17,5,15,819
48.55700,0.14647,-0.08277,0.00000,0.03306,0.97698,-0.18703,0.0,2023,6,7,17,5,15,830
48.55710,0.02397,-0.06527,0.00000,0.03148,0.97502,-0.18703,0.0,2023,6,7,17,5,15,842
48.55720,-0.15103,0.07473,0.00000,0.02879,0.97515,-0.18788,0.0,2023,6,7,17,5,15,853
48.55730,0.04147,-0.20527,0.00000,0.03123,0.97649,-0.18629,0.0,2023,6,7,17,5,15,864
48.55740,-0.15103,0.12723,0.00000,0.03160,0.97795,-0.18788,0.0,2023,6,7,17,5,15,875
48.55750,-0.06353,0.07473,0.00000,0.03111,0.97722,-0.18739,0.0,2023,6,7,17,5,15,886
48.55760,-0.11603,0.10973,0.00000,0.03282,0.97759,-0.18666,0.0,2023,6,7,17,5,15,898
48.55770,-0.22103,0.07473,0.00000,0.02928,0.97710,-0.18812,0.0,2023,6,7,17,5,15,909
48.55780,0.25147,0.00473,0.00000,0.03135,0.97771,-0.18849,0.0,2023,6,7,17,5,15,920
48.55790,0.02397,0.02223,0.00000,0.03184,0.97441,-0.18703,0.0,2023,6,7,17,5,15,931
48.55800,0.05897,0.02223,0.00000,0.02965,0.97807,-0.18800,0.0,2023,6,7,17,5,15,942
48.55810,-0.08103,0.14473,0.00000,0.02989,0.97771,-0.18788,0.0,2023,6,7,17,5,15,954
48.55820,0.12897,-0.01277,0.00000,0.03038,0.97551,-0.18727,0.0,2023,6,7,17,5,15,965
48.55830,0.07647,-0.11777,0.00000,0.03062,0.97673,-0.18800,0.0,2023,6,7,17,5,15,976
48.55840,-0.09853,0.03973,0.00000,0.03135,0.97820,-0.18666,0.0,2023,6,7,17,5,15,987
48.55850,-0.01103,0.07473,0.00000,0.03087,0.97698,-0.18947,0.0,2023,6,7,17,5,16,8
48.55860,0.02397,0.07473,0.00000,0.03270,0.97551,-0.18934,0.0,2023,6,7,17,5,16,20
48.55870,-0.04603,-0.06527,0.00000,0.03184,0.97527,-0.18959,0.0,2023,6,7,17,5,16,31
48.55880,0.02397,-0.15277,0.00000,0.02830,0.97478,-0.18678,0.0,2023,6,7,17,5,16,42
48.55890,0.11147,0.03973,0.00000,0.03233,0.97710,-0.18764,0.0,2023,6,7,17,5,16,53
48.55900,-0.01103,-0.08277,0.00000,0.03099,0.97698,-0.18776,0.0,2023,6,7,17,5,16,64
48.55910,0.09397,0.12723,0.00000,0.03062,0.97759,-0.19032,0.0,2023,6,7,17,5,16,76
48.55920,-0.13353,0.21473,0.00000,0.03404,0.97637,-0.18849,0.0,2023,6,7,17,5,16,87
48.55930,0.09397,0.05723,0.00000,0.03196,0.97624,-0.18654,0.0,2023,6,7,17,5,16,98
48.55940,0.07647,0.00473,0.00000,0.03111,0.97539,-0.18934,0.0,2023,6,7,17,5,16,109
48.55950,0.33897,-0.13527,0.00000,0.02952,0.97685,-0.18776,0.0,2023,6,7,17,5,16,120
48.55960,-0.02853,-0.06527,0.00000,0.03233,0.97649,-0.18825,0.0,2023,6,7,17,5,16,132
48.55970,-0.27353,0.07473,0.00000,0.03270,0.97502,-0.18556,0.0,2023,6,7,17,5,16,143
48.55980,-0.01103,-0.08277,0.00000,0.02965,0.97661,-0.18715,0.0,2023,6,7,17,5,16,154
48.55990,0.11147,0.31973,0.00000,0.03196,0.97576,-0.18690,0.0,2023,6,7,17,5,16,165
48.56000,0.05897,0.12723,0.00000,0.03270,0.97466,-0.18922,0.0,2023,6,7,17,5,16,176
48.56010,0.07647,0.00473,0.00000,0.03087,0.97807,-0.18800,0.0,2023,6,7,17,5,16,188
48.56020,0.00647,0.05723,0.00000,0.02965,0.97600,-0.18617,0.0,2023,6,7,17,5,16,199
48.56030,-0.20353,0.02223,0.00000,0.03196,0.97454,-0.18751,0.0,2023,6,7,17,5,16,210
48.56040,-0.15103,-0.04777,0.00000,0.02916,0.97661,-0.18873,0.0,2023,6,7,17,5,16,221
48.56050,0.00647,0.05723,0.00000,0.03038,0.97576,-0.18800,0.0,2023,6,7,17,5,16,232
48.56060,0.09397,0.09223,0.00000,0.03135,0.97588,-0.18910,0.0,2023,6,7,17,5,16,244
48.56070,-0.15103,-0.06527,0.00000,0.03196,0.97429,-0.18642,0.0,2023,6,7,17,5,16,255
48.56080,-0.08103,0.10973,0.00000,0.03123,0.97417,-0.18727,0.0,2023,6,7,17,5,16,266
48.56090,0.05897,-0.03027,0.00000,0.03111,0.97795,-0.18678,0.0,2023,6,7,17,5,16,277
48.56100,-0.02853,0.12723,0.00000,0.03160,0.97746,-0.18788,0.0,2023,6,7,17,5,16,288
48.56110,0.19897,-0.06527,0.00000,0.03001,0.97393,-0.18617,0.0,2023,6,7,17,5,16,300
48.56120,0.11147,0.02223,0.00000,0.03050,0.97502,-0.18825,0.0,2023,6,7,17,5,16,311
48.56130,-0.04603,0.03973,0.00000,0.03233,0.97466,-0.18532,0.0,2023,6,7,17,5,16,322
48.56140,-0.08103,-0.03027,0.00000,0.03209,0.97588,-0.19117,0.0,2023,6,7,17,5,16,333
48.56150,-0.06353,-0.01277,0.00000,0.03062,0.97685,-0.18751,0.0,2023,6,7,17,5,16,344
48.56160,0.04147,0.05723,0.00000,0.03343,0.97710,-0.18727,0.0,2023,6,7,17,5,16,356
48.56170,-0.08103,0.03973,0.00000,0.03209,0.97624,-0.18605,0.0,2023,6,7,17,5,16,367
48.56180,0.09397,-0.04777,0.00000,0.03148,0.97698,-0.18764,0.0,2023,6,7,17,5,16,378
48.56190,-0.15103,0.09223,0.00000,0.02989,0.97722,-0.18739,0.0,2023,6,7,17,5,16,389
48.56200,0.09397,-0.04777,0.00000,0.02879,0.97771,-0.18703,0.0,2023,6,7,17,5,16,400
48.56210,0.12897,0.05723,0.00000,0.03209,0.97783,-0.18495,0.0,2023,6,7,17,5,16,412
48.56220,-0.08103,0.05723,0.00000,0.03221,0.97759,-0.18703,0.0,2023,6,7,17,5,16,423
48.56230,-0.08103,-0.04777,0.00000,0.03221,0.97783,-0.18739,0.0,2023,6,7,17,5,16,434
48.56240,-0.02853,0.03973,0.00000,0.02952,0.97527,-0.18812,0.0,2023,6,7,17,5,16,445
48.56250,0.07647,0.12723,0.00000,0.03038,0.97661,-0.18837,0.0,2023,6,7,17,5,16,456
48.56260,0.11147,-0.15277,0.00000,0.03172,0.97307,-0.19020,0.0,2023,6,7,17,5,16,468
48.56270,-0.09853,0.02223,0.00000,0.03062,0.97576,-0.18788,0.0,2023,6,7,17,5,16,479
48.56280,0.09397,-0.24027,0.00000,0.02867,0.97929,-0.19008,0.0,2023,6,7,17,5,16,490
48.56290,0.11147,0.03973,0.00000,0.03013,0.97478,-0.18898,0.0,2023,6,7,17,5,16,501
48.56300,0.02397,-0.17027,0.00000,0.02843,0.97685,-0.19117,0.0,2023,6,7,17,5,16,512
48.56310,-0.08103,0.02223,0.00000,0.03050,0.97624,-0.18837,0.0,2023,6,7,17,5,16,524
48.56320,0.05897,-0.08277,0.00000,0.03111,0.97441,-0.18922,0.0,2023,6,7,17,5,16,535
48.56330,0.07647,-0.08277,0.00000,0.03099,0.97820,-0.18776,0.0,2023,6,7,17,5,16,546
48.56340,0.07647,-0.17027,0.00000,0.03111,0.97551,-0.18898,0.0,2023,6,7,17,5,16,557
48.56350,0.09397,-0.11777,0.00000,0.02916,0.97759,-0.18959,0.0,2023,6,7,17,5,16,568
48.56360,0.00647,0.17973,0.00000,0.03038,0.97807,-0.18764,0.0,2023,6,7,17,5,16,580
48.56370,-0.29103,0.07473,0.00000,0.03306,0.97624,-0.18800,0.0,2023,6,7,17,5,16,591
48.56380,0.19897,-0.01277,0.00000,0.03172,0.97612,-0.18727,0.0,2023,6,7,17,5,16,602
48.56390,0.00647,0.16223,0.00000,0.03001,0.97454,-0.18873,0.0,2023,6,7,17,5,16,613
48.56400,-0.13353,-0.01277,0.00000,0.03074,0.97795,-0.19191,0.0,2023,6,7,17,5,16,624
48.56410,0.16397,-0.13527,0.00000,0.02794,0.97795,-0.19130,0.0,2023,6,7,17,5,16,636
48.56420,-0.02853,-0.11777,0.00000,0.03282,0.97576,-0.18764,0.0,2023,6,7,17,5,16,647
48.56430,0.19897,0.00473,0.00000,0.03062,0.97588,-0.19178,0.0,2023,6,7,17,5,16,658
48.56440,0.09397,-0.08277,0.00000,0.03099,0.97685,-0.19215,0.0,2023,6,7,17,5,16,669
48.56450,0.09397,-0.08277,0.00000,0.03074,0.97795,-0.19056,0.0,2023,6,7,17,5,16,680
48.56460,0.00647,0.14473,0.00000,0.03062,0.97551,-0.18837,0.0,2023,6,7,17,5,16,692
48.56470,-0.16853,0.02223,0.00000,0.03282,0.97844,-0.19008,0.0,2023,6,7,17,5,16,703
48.56480,-0.06353,0.16223,0.00000,0.03026,0.97527,-0.19130,0.0,2023,6,7,17,5,16,714
48.56490,0.14647,0.03973,0.00000,0.03038,0.97673,-0.19056,0.0,2023,6,7,17,5,16,725
48.56500,0.09397,-0.17027,0.00000,0.03062,0.97661,-0.19044,0.0,2023,6,7,17,5,16,736
48.56510,0.04147,-0.01277,0.00000,0.02916,0.97563,-0.18947,0.0,2023,6,7,17,5,16,748
48.56520,0.16397,-0.17027,0.00000,0.03270,0.97856,-0.18983,0.0,2023,6,7,17,5,16,759
48.56530,-0.11603,0.07473,0.00000,0.03050,0.97649,-0.19044,0.0,2023,6,7,17,5,16,770
48.56540,0.04147,0.12723,0.00000,0.03038,0.97466,-0.18971,0.0,2023,6,7,17,5,16,781
48.56550,0.00647,0.05723,0.00000,0.03038,0.97881,-0.18800,0.0,2023,6,7,17,5,16,792
48.56560,-0.04603,0.05723,0.00000,0.03331,0.97551,-0.19069,0.0,2023,6,7,17,5,16,804
48.56570,0.00647,-0.04777,0.00000,0.03221,0.97612,-0.18995,0.0,2023,6,7,17,5,16,815
48.56580,-0.15103,0.02223,0.00000,0.03221,0.97637,-0.18934,0.0,2023,6,7,17,5,16,826
48.56590,0.14647,-0.10027,0.00000,0.03026,0.97466,-0.19252,0.0,2023,6,7,17,5,16,837
48.56600,0.21647,-0.04777,0.00000,0.03001,0.97795,-0.18971,0.0,2023,6,7,17,5,16,848
48.56610,-0.06353,-0.03027,0.00000,0.03099,0.97698,-0.18678,0.0,2023,6,7,17,5,16,860
48.56620,0.09397,-0.04777,0.00000,0.02904,0.97881,-0.18995,0.0,2023,6,7,17,5,16,871
48.56630,0.39147,-0.25777,0.00000,0.03074,0.97600,-0.19056,0.0,2023,6,7,17,5,16,882
48.56640,-0.02853,0.00473,0.00000,0.03026,0.97685,-0.19093,0.0,2023,6,7,17,5,16,893
48.56650,0.14647,-0.04777,0.00000,0.03026,0.97807,-0.18886,0.0,2023,6,7,17,5,16,904
48.56660,-0.02853,0.31973,0.00000,0.03221,0.97893,-0.18873,0.0,2023,6,7,17,5,16,916
48.56670,-0.11603,-0.11777,0.00000,0.03221,0.97502,-0.19020,0.0,2023,6,7,17,5,16,927
48.56680,0.09397,-0.25777,0.00000,0.03099,0.97600,-0.19203,0.0,2023,6,7,17,5,16,938
48.56690,0.02397,0.03973,0.00000,0.03135,0.97856,-0.18983,0.0,2023,6,7,17,5,16,949
48.56700,0.04147,-0.11777,0.00000,0.03172,0.97539,-0.18983,0.0,2023,6,7,17,5,16,960
48.56710,0.02397,0.17973,0.00000,0.03123,0.97612,-0.18995,0.0,2023,6,7,17,5,16,972
48.56720,0.14647,0.02223,0.00000,0.03038,0.97698,-0.19154,0.0,2023,6,7,17,5,16,983
48.56730,0.02397,0.12723,0.00000,0.02916,0.97759,-0.19081,0.0,2023,6,7,17,5,16,994
48.56740,0.12897,-0.20527,0.00000,0.03099,0.97673,-0.18971,0.0,2023,6,7,17,5,16,5
48.56750,0.04147,0.03973,0.00000,0.03050,0.97771,-0.18886,0.0,2023,6,7,17,5,17,5
48.56760,0.11147,0.05723,0.00000,0.03209,0.97783,-0.18715,0.0,2023,6,7,17,5,17,17
48.56770,0.21647,-0.04777,0.00000,0.02879,0.97942,-0.18873,0.0,2023,6,7,17,5,17,28
48.56780,-0.06353,-0.06527,0.00000,0.03087,0.97905,-0.18727,0.0,2023,6,7,17,5,17,39
48.56790,-0.16853,0.17973,0.00000,0.03135,0.97600,-0.18947,0.0,2023,6,7,17,5,17,50
48.56800,-0.01103,-0.06527,0.00000,0.03123,0.97454,-0.18873,0.0,2023,6,7,17,5,17,61
48.56810,0.07647,-0.04777,0.00000,0.03148,0.97771,-0.18727,0.0,2023,6,7,17,5,17,73
48.56820,0.04147,0.03973,0.00000,0.02794,0.97490,-0.18910,0.0,2023,6,7,17,5,17,84
48.56830,0.18147,0.09223,0.00000,0.03196,0.98003,-0.19239,0.0,2023,6,7,17,5,17,95
48.56840,0.00647,0.00473,0.00000,0.03050,0.97795,-0.18788,0.0,2023,6,7,17,5,17,106
48.56850,-0.20353,-0.03027,0.00000,0.03148,0.97490,-0.18910,0.0,2023,6,7,17,5,17,117
48.56860,0.05897,0.17973,0.00000,0.03221,0.97685,-0.18849,0.0,2023,6,7,17,5,17,129
48.56870,-0.06353,-0.13527,0.00000,0.03050,0.97380,-0.18849,0.0,2023,6,7,17,5,17,140
48.56880,-0.02853,-0.20527,0.00000,0.03062,0.97722,-0.18934,0.0,2023,6,7,17,5,17,151
48.56890,0.19897,-0.15277,0.00000,0.03294,0.97820,-0.18788,0.0,2023,6,7,17,5,17,162
48.56900,-0.04603,-0.04777,0.00000,0.03221,0.97502,-0.18642,0.0,2023,6,7,17,5,17,173
48.56910,0.05897,0.02223,0.00000,0.03221,0.97673,-0.18788,0.0,2023,6,7,17,5,17,185
48.56920,0.02397,0.30223,0.00000,0.03196,0.97612,-0.19069,0.0,2023,6,7,17,5,17,196
48.56930,-0.06353,0.07473,0.00000,0.03050,0.97673,-0.19117,0.0,2023,6,7,17,5,17,207
48.56940,-0.01103,0.09223,0.00000,0.03196,0.97539,-0.18947,0.0,2023,6,7,17,5,17,218
48.56950,0.09397,0.05723,0.00000,0.03221,0.97576,-0.18642,0.0,2023,6,7,17,5,17,229
48.56960,-0.09853,0.00473,0.00000,0.03209,0.97515,-0.18788,0.0,2023,6,7,17,5,17,241
48.56970,0.11147,0.00473,0.00000,0.02879,0.97661,-0.18727,0.0,2023,6,7,17,5,17,252
48.56980,-0.04603,-0.08277,0.00000,0.03026,0.97661,-0.18751,0.0,2023,6,7,17,5,17,263
48.56990,0.23397,-0.04777,0.00000,0.03453,0.97515,-0.18788,0.0,2023,6,7,17,5,17,274
48.57000,0.12897,-0.04777,0.00000,0.03379,0.97685,-0.18971,0.0,2023,6,7,17,5,17,285
48.57010,-0.25603,0.10973,0.00000,0.03111,0.97368,-0.18666,0.0,2023,6,7,17,5,17,297
48.57020,0.09397,0.03973,0.00000,0.03221,0.97661,-0.18959,0.0,2023,6,7,17,5,17,308
48.57030,0.14647,0.10973,0.00000,0.03196,0.97649,-0.18873,0.0,2023,6,7,17,5,17,319
48.57040,-0.04603,0.07473,0.00000,0.03111,0.97576,-0.18934,0.0,2023,6,7,17,5,17,330
48.57050,-0.16853,0.02223,0.00000,0.02916,0.97795,-0.18849,0.0,2023,6,7,17,5,17,341
48.57060,-0.06353,-0.10027,0.00000,0.03196,0.97588,-0.18654,0.0,2023,6,7,17,5,17,353
48.57070,0.04147,0.07473,0.00000,0.03184,0.97539,-0.18934,0.0,2023,6,7,17,5,17,364
48.57080,-0.01103,-0.10027,0.00000,0.03050,0.97795,-0.18886,0.0,2023,6,7,17,5,17,375
48.57090,-0.15103,0.05723,0.00000,0.03111,0.97673,-0.18934,0.0,2023,6,7,17,5,17,386
48.57100,-0.01103,-0.06527,0.00000,0.03160,0.97649,-0.18678,0.0,2023,6,7,17,5,17,397
48.57110,0.02397,0.16223,0.00000,0.03270,0.97759,-0.18922,0.0,2023,6,7,17,5,17,409
48.57120,-0.04603,0.07473,0.00000,0.02879,0.97576,-0.18898,0.0,2023,6,7,17,5,17,420
48.57130,-0.06353,-0.15277,0.00000,0.02965,0.97685,-0.19288,0.0,2023,6,7,17,5,17,431
48.57140,0.11147,-0.24027,0.00000,0.03367,0.97600,-0.18739,0.0,2023,6,7,17,5,17,442
48.57150,-0.08103,-0.10027,0.00000,0.03184,0.97515,-0.18776,0.0,2023,6,7,17,5,17,453
48.57160,0.26897,-0.25777,0.00000,0.03196,0.97454,-0.18898,0.0,2023,6,7,17,5,17,465
48.57170,0.05897,-0.27527,0.00000,0.03196,0.97600,-0.18922,0.0,2023,6,7,17,5,17,476
48.57180,0.09397,-0.01277,0.00000,0.03148,0.97759,-0.18861,0.0,2023,6,7,17,5,17,487
48.57190,-0.06353,0.14473,0.00000,0.02989,0.97490,-0.18812,0.0,2023,6,7,17,5,17,498
48.57200,-0.04603,0.03973,0.00000,0.03099,0.97795,-0.18922,0.0,2023,6,7,17,5,17,509
48.57210,0.09397,0.00473,0.00000,0.02855,0.97527,-0.19081,0.0,2023,6,7,17,5,17,521
48.57220,0.09397,-0.01277,0.00000,0.03245,0.97746,-0.18837,0.0,2023,6,7,17,5,17,532
48.57230,-0.02853,-0.17027,0.00000,0.03050,0.97612,-0.18727,0.0,2023,6,7,17,5,17,543
48.57240,0.26897,-0.24027,0.00000,0.02989,0.97673,-0.18898,0.0,2023,6,7,17,5,17,554
48.57250,-0.06353,0.16223,0.00000,0.03282,0.97576,-0.19142,0.0,2023,6,7,17,5,17,565
48.57260,-0.02853,-0.25777,0.00000,0.03123,0.97685,-0.18788,0.0,2023,6,7,17,5,17,577
48.57270,0.11147,0.05723,0.00000,0.03099,0.97637,-0.18727,0.0,2023,6,7,17,5,17,588
48.57280,-0.11603,0.12723,0.00000,0.03196,0.97746,-0.18861,0.0,2023,6,7,17,5,17,599
48.57290,-0.30853,-0.01277,0.00000,0.02952,0.97759,-0.19142,0.0,2023,6,7,17,5,17,610
48.57300,0.04147,0.02223,0.00000,0.03135,0.97600,-0.19154,0.0,2023,6,7,17,5,17,621
48.57310,0.00647,0.21473,0.00000,0.03026,0.97612,-0.18764,0.0,2023,6,7,17,5,17,633
48.57320,0.04147,0.14473,0.00000,0.02989,0.97600,-0.18995,0.0,2023,6,7,17,5,17,644
48.57330,-0.15103,0.09223,0.00000,0.03367,0.97637,-0.18959,0.0,2023,6,7,17,5,17,655
48.57340,-0.20353,-0.18777,0.00000,0.03123,0.97502,-0.18898,0.0,2023,6,7,17,5,17,666
48.57350,0.05897,-0.06527,0.00000,0.03477,0.97722,-0.18910,0.0,2023,6,7,17,5,17,677
48.57360,-0.08103,0.00473,0.00000,0.03111,0.97515,-0.18764,0.0,2023,6,7,17,5,17,689
48.57370,0.05897,-0.29277,0.00000,0.03257,0.97661,-0.18849,0.0,2023,6,7,17,5,17,700
48.57380,0.12897,-0.20527,0.00000,0.03196,0.97612,-0.18922,0.0,2023,6,7,17,5,17,711
48.57390,-0.15103,0.00473,0.00000,0.03111,0.97698,-0.18727,0.0,2023,6,7,17,5,17,722
48.57400,-0.02853,-0.08277,0.00000,0.03135,0.97771,-0.18764,0.0,2023,6,7,17,5,17,733
48.57410,0.09397,-0.10027,0.00000,0.03111,0.97710,-0.18849,0.0,2023,6,7,17,5,17,745
48.57420,-0.13353,-0.08277,0.00000,0.03294,0.97612,-0.19044,0.0,2023,6,7,17,5,17,756
48.57430,-0.02853,-0.06527,0.00000,0.03087,0.97832,-0.19166,0.0,2023,6,7,17,5,17,767
48.57440,0.12897,0.02223,0.00000,0.03026,0.97868,-0.18910,0.0,2023,6,7,17,5,17,778
48.57450,0.04147,-0.15277,0.00000,0.03062,0.97673,-0.19056,0.0,2023,6,7,17,5,17,789
48.57460,-0.11603,-0.03027,0.00000,0.02879,0.97490,-0.18934,0.0,2023,6,7,17,5,17,801
48.57470,-0.04603,0.03973,0.00000,0.03209,0.97856,-0.19032,0.0,2023,6,7,17,5,17,812
48.57480,-0.01103,0.03973,0.00000,0.03050,0.97673,-0.19032,0.0,2023,6,7,17,5,17,823
48.57490,0.00647,-0.08277,0.00000,0.03209,0.97759,-0.19252,0.0,2023,6,7,17,5,17,834
48.57500,-0.08103,0.07473,0.00000,0.03135,0.97600,-0.18788,0.0,2023,6,7,17,5,17,845
48.57510,-0.15103,0.03973,0.00000,0.03001,0.97490,-0.19056,0.0,2023,6,7,17,5,17,857
48.57520,-0.18603,-0.01277,0.00000,0.03221,0.97685,-0.19069,0.0,2023,6,7,17,5,17,868
48.57530,0.14647,-0.08277,0.00000,0.03270,0.97588,-0.18959,0.0,2023,6,7,17,5,17,879
48.57540,0.09397,-0.25777,0.00000,0.03514,0.97917,-0.19044,0.0,2023,6,7,17,5,17,890
48.57550,-0.02853,-0.04777,0.00000,0.03099,0.97527,-0.18837,0.0,2023,6,7,17,5,17,901
48.57560,0.11147,0.03973,0.00000,0.03148,0.97722,-0.18971,0.0,2023,6,7,17,5,17,913
48.57570,0.07647,-0.04777,0.00000,0.03257,0.97624,-0.18898,0.0,2023,6,7,17,5,17,924
48.57580,0.02397,-0.01277,0.00000,0.03062,0.97405,-0.19166,0.0,2023,6,7,17,5,17,935
48.57590,0.05897,0.09223,0.00000,0.03148,0.97356,-0.19239,0.0,2023,6,7,17,5,17,946
48.57600,-0.16853,0.05723,0.00000,0.03062,0.97746,-0.19020,0.0,2023,6,7,17,5,17,957
48.57610,0.02397,0.07473,0.00000,0.02965,0.97539,-0.19069,0.0,2023,6,7,17,5,17,969
48.57620,0.07647,-0.18777,0.00000,0.03245,0.97759,-0.18800,0.0,2023,6,7,17,5,17,980
48.57630,-0.02853,-0.13527,0.00000,0.03184,0.97429,-0.18886,0.0,2023,6,7,17,5,17,991
48.57640,-0.16853,-0.03027,0.00000,0.02928,0.97588,-0.19044,0.0,2023,6,7,17,5,18,1
48.57650,-0.01103,-0.03027,0.00000,0.03123,0.97832,-0.19020,0.0,2023,6,7,17,5,18,12
48.57660,-0.04603,0.37223,0.00000,0.03172,0.97478,-0.18812,0.0,2023,6,7,17,5,18,24
48.57670,0.00647,0.07473,0.00000,0.03062,0.97502,-0.18837,0.0,2023,6,7,17,5,18,35
48.57680,0.19897,-0.03027,0.00000,0.03184,0.97637,-0.18983,0.0,2023,6,7,17,5,18,46
48.57690,0.12897,-0.10027,0.00000,0.03087,0.97588,-0.18995,0.0,2023,6,7,17,5,18,57
48.57700,0.14647,0.05723,0.00000,0.03148,0.97600,-0.19044,0.0,2023,6,7,17,5,18,68
48.57710,-0.02853,-0.03027,0.00000,0.03111,0.97673,-0.19142,0.0,2023,6,7,17,5,18,80
48.57720,-0.09853,-0.18777,0.00000,0.03172,0.97771,-0.18910,0.0,2023,6,7,17,5,18,91
48.57730,0.00647,-0.10027,0.00000,0.03196,0.97832,-0.19081,0.0,2023,6,7,17,5,18,102
48.57740,0.07647,0.05723,0.00000,0.03123,0.97722,-0.18922,0.0,2023,6,7,17,5,18,113
48.57750,-0.15103,0.10973,0.00000,0.03013,0.97576,-0.18788,0.0,2023,6,7,17,5,18,124
48.57760,0.09397,0.02223,0.00000,0.03099,0.97844,-0.18776,0.0,2023,6,7,17,5,18,136
48.57770,-0.22103,0.17973,0.00000,0.03148,0.97539,-0.18629,0.0,2023,6,7,17,5,18,147
48.57780,-0.01103,-0.03027,0.00000,0.03257,0.97515,-0.18910,0.0,2023,6,7,17,5,18,158
48.57790,0.02397,0.05723,0.00000,0.03087,0.97551,-0.18605,0.0,2023,6,7,17,5,18,169
48.57800,0.19897,0.00473,0.00000,0.03160,0.97551,-0.18947,0.0,2023,6,7,17,5,18,180
48.57810,0.09397,0.02223,0.00000,0.02965,0.97576,-0.18971,0.0,2023,6,7,17,5,18,192
48.57820,0.11147,0.19723,0.00000,0.03196,0.97539,-0.18995,0.0,2023,6,7,17,5,18,203
48.57830,0.07647,-0.22277,0.00000,0.03038,0.97661,-0.18800,0.0,2023,6,7,17,5,18,214
48.57840,0.23397,0.09223,0.00000,0.03196,0.97759,-0.18873,0.0,2023,6,7,17,5,18,225
48.57850,0.07647,-0.04777,0.00000,0.03074,0.97612,-0.18812,0.0,2023,6,7,17,5,18,236
48.57860,0.00647,0.19723,0.00000,0.03331,0.97490,-0.18947,0.0,2023,6,7,17,5,18,248
48.57870,-0.04603,0.26723,0.00000,0.03221,0.97515,-0.18995,0.0,2023,6,7,17,5,18,259
48.57880,-0.06353,-0.04777,0.00000,0.03160,0.97563,-0.18837,0.0,2023,6,7,17,5,18,270
48.57890,0.04147,0.10973,0.00000,0.03233,0.97661,-0.19081,0.0,2023,6,7,17,5,18,281
48.57900,0.19897,0.12723,0.00000,0.03148,0.97490,-0.18654,0.0,2023,6,7,17,5,18,292
48.57910,0.04147,0.05723,0.00000,0.02904,0.97515,-0.18971,0.0,2023,6,7,17,5,18,304
48.57920,0.02397,0.03973,0.00000,0.03123,0.97673,-0.19032,0.0,2023,6,7,17,5,18,315
48.57930,-0.13353,-0.03027,0.00000,0.03148,0.97539,-0.18800,0.0,2023,6,7,17,5,18,326
48.57940,0.12897,-0.11777,0.00000,0.03318,0.97734,-0.18898,0.0,2023,6,7,17,5,18,337
48.57950,-0.04603,-0.15277,0.00000,0.03135,0.97637,-0.18788,0.0,2023,6,7,17,5,18,348
48.57960,0.16397,0.16223,0.00000,0.03184,0.97624,-0.18910,0.0,2023,6,7,17,5,18,360
48.57970,0.12897,-0.10027,0.00000,0.03099,0.97429,-0.18934,0.0,2023,6,7,17,5,18,371
48.57980,-0.06353,0.09223,0.00000,0.03123,0.97563,-0.18532,0.0,2023,6,7,17,5,18,382
48.57990,-0.02853,-0.18777,0.00000,0.03221,0.97771,-0.18861,0.0,2023,6,7,17,5,18,393
48.58000,0.02397,-0.06527,0.00000,0.02989,0.97722,-0.19032,0.0,2023,6,7,17,5,18,404
48.58010,0.07647,-0.17027,0.00000,0.03306,0.97673,-0.18886,0.0,2023,6,7,17,5,18,416
48.58020,0.02397,0.12723,0.00000,0.03087,0.97698,-0.18971,0.0,2023,6,7,17,5,18,427
48.58030,0.04147,-0.10027,0.00000,0.03050,0.97649,-0.18812,0.0,2023,6,7,17,5,18,438
48.58040,0.07647,-0.27527,0.00000,0.03379,0.97759,-0.18922,0.0,2023,6,7,17,5,18,449
48.58050,0.14647,0.07473,0.00000,0.03196,0.97698,-0.18764,0.0,2023,6,7,17,5,18,460
48.58060,0.00647,0.02223,0.00000,0.03196,0.97515,-0.18568,0.0,2023,6,7,17,5,18,472
48.58070,-0.11603,0.02223,0.00000,0.03172,0.97734,-0.19032,0.0,2023,6,7,17,5,18,483
48.58080,-0.02853,0.00473,0.00000,0.03074,0.97466,-0.18800,0.0,2023,6,7,17,5,18,494
48.58090,0.02397,-0.04777,0.00000,0.03160,0.97637,-0.18788,0.0,2023,6,7,17,5,18,505
48.58100,-0.04603,0.05723,0.00000,0.03001,0.97563,-0.18873,0.0,2023,6,7,17,5,18,516
48.58110,0.16397,-0.08277,0.00000,0.03099,0.97746,-0.18776,0.0,2023,6,7,17,5,18,528
48.58120,0.02397,0.14473,0.00000,0.03099,0.97685,-0.18873,0.0,2023,6,7,17,5,18,539
48.58130,0.02397,-0.11777,0.00000,0.02989,0.97661,-0.18825,0.0,2023,6,7,17,5,18,550
48.58140,-0.11603,0.02223,0.00000,0.03257,0.97661,-0.18947,0.0,2023,6,7,17,5,18,561
48.58150,-0.11603,0.10973,0.00000,0.03392,0.97649,-0.18764,0.0,2023,6,7,17,5,18,572
48.58160,-0.06353,0.16223,0.00000,0.03074,0.97856,-0.18971,0.0,2023,6,7,17,5,18,584
48.58170,-0.16853,0.05723,0.00000,0.03257,0.97673,-0.18764,0.0,2023,6,7,17,5,18,595
48.58180,0.11147,0.09223,0.00000,0.03221,0.97783,-0.18812,0.0,2023,6,7,17,5,18,606
48.58190,0.14647,0.07473,0.00000,0.03416,0.97380,-0.18800,0.0,2023,6,7,17,5,18,617
48.58200,0.02397,0.00473,0.00000,0.03001,0.97844,-0.18959,0.0,2023,6,7,17,5,18,628
48.58210,0.14647,-0.06527,0.00000,0.02977,0.97649,-0.18593,0.0,2023,6,7,17,5,18,640
48.58220,-0.04603,0.07473,0.00000,0.03184,0.97673,-0.18605,0.0,2023,6,7,17,5,18,651
48.58230,0.11147,-0.25777,0.00000,0.03282,0.97429,-0.18544,0.0,2023,6,7,17,5,18,662
48.58240,-0.01103,-0.15277,0.00000,0.03172,0.97844,-0.18873,0.0,2023,6,7,17,5,18,673
48.58250,-0.06353,0.16223,0.00000,0.03013,0.97746,-0.18776,0.0,2023,6,7,17,5,18,684
48.58260,0.21647,-0.11777,0.00000,0.03123,0.97515,-0.19020,0.0,2023,6,7,17,5,18,696
48.58270,-0.04603,-0.03027,0.00000,0.03257,0.97539,-0.18690,0.0,2023,6,7,17,5,18,707
48.58280,0.05897,0.14473,0.00000,0.03001,0.97612,-0.18739,0.0,2023,6,7,17,5,18,718
48.58290,-0.06353,0.03973,0.00000,0.03282,0.97710,-0.19032,0.0,2023,6,7,17,5,18,729
48.58300,0.04147,0.02223,0.00000,0.03123,0.97722,-0.18800,0.0,2023,6,7,17,5,18,740
48.58310,0.07647,-0.20527,0.00000,0.03001,0.97698,-0.19008,0.0,2023,6,7,17,5,18,752
48.58320,0.04147,0.12723,0.00000,0.03306,0.97612,-0.18849,0.0,2023,6,7,17,5,18,763
48.58330,-0.11603,-0.15277,0.00000,0.03196,0.97661,-0.18581,0.0,2023,6,7,17,5,18,774
48.58340,-0.08103,0.07473,0.00000,0.03062,0.97490,-0.18678,0.0,2023,6,7,17,5,18,785
48.58350,0.11147,-0.17027,0.00000,0.03453,0.97929,-0.18703,0.0,2023,6,7,17,5,18,796
48.58360,0.07647,-0.03027,0.00000,0.03294,0.97710,-0.18922,0.0,2023,6,7,17,5,18,808
48.58370,-0.06353,-0.03027,0.00000,0.03184,0.97710,-0.18776,0.0,2023,6,7,17,5,18,819
48.58380,-0.06353,0.07473,0.00000,0.02952,0.97624,-0.18995,0.0,2023,6,7,17,5,18,830
48.58390,-0.04603,-0.11777,0.00000,0.02952,0.97624,-0.18849,0.0,2023,6,7,17,5,18,841
48.58400,0.05897,-0.06527,0.00000,0.03111,0.97527,-0.18751,0.0,2023,6,7,17,5,18,852
48.58410,0.16397,0.09223,0.00000,0.03074,0.97649,-0.18947,0.0,2023,6,7,17,5,18,864
48.58420,-0.01103,-0.15277,0.00000,0.03099,0.97539,-0.18825,0.0,2023,6,7,17,5,18,875
48.58430,-0.09853,0.07473,0.00000,0.03318,0.97649,-0.18812,0.0,2023,6,7,17,5,18,886
48.58440,0.05897,-0.10027,0.00000,0.03270,0.97795,-0.18947,0.0,2023,6,7,17,5,18,897
48.58450,0.28647,-0.11777,0.00000,0.02965,0.97588,-0.18922,0.0,2023,6,7,17,5,18,908
48.58460,0.00647,-0.01277,0.00000,0.03001,0.97746,-0.19032,0.0,2023,6,7,17,5,18,920
48.58470,0.12897,0.19723,0.00000,0.03074,0.97624,-0.18690,0.0,2023,6,7,17,5,18,931
48.58480,-0.11603,-0.17027,0.00000,0.03209,0.97771,-0.18886,0.0,2023,6,7,17,5,18,942
48.58490,0.04147,0.10973,0.00000,0.03233,0.97698,-0.18800,0.0,2023,6,7,17,5,18,953
48.58500,-0.11603,0.16223,0.00000,0.02916,0.97551,-0.18617,0.0,2023,6,7,17,5,18,964
48.58510,0.28647,-0.06527,0.00000,0.03148,0.97527,-0.19008,0.0,2023,6,7,17,5,18,976
48.58520,-0.16853,0.03973,0.00000,0.03074,0.97685,-0.18727,0.0,2023,6,7,17,5,18,987
48.58530,-0.01103,0.10973,0.00000,0.03050,0.97563,-0.18776,0.0,2023,6,7,17,5,18,998
48.58540,0.26897,-0.10027,0.00000,0.03160,0.97661,-0.18910,0.0,2023,6,7,17,5,19,8
48.58550,0.04147,0.07473,0.00000,0.03282,0.97539,-0.18727,0.0,2023,6,7,17,5,19,19
48.58560,-0.04603,0.05723,0.00000,0.03001,0.97539,-0.18983,0.0,2023,6,7,17,5,19,31
48.58570,0.11147,0.02223,0.00000,0.02867,0.97551,-0.18959,0.0,2023,6,7,17,5,19,42
48.58580,-0.16853,0.02223,0.00000,0.03074,0.97454,-0.18703,0.0,2023,6,7,17,5,19,53
48.58590,-0.08103,0.00473,0.00000,0.03123,0.97698,-0.19081,0.0,2023,6,7,17,5,19,64
48.58600,0.05897,-0.18777,0.00000,0.03038,0.97624,-0.19032,0.0,2023,6,7,17,5,19,75
48.58610,-0.08103,0.02223,0.00000,0.03270,0.97734,-0.18617,0.0,2023,6,7,17,5,19,87
48.58620,-0.06353,-0.10027,0.00000,0.03355,0.97637,-0.18703,0.0,2023,6,7,17,5,19,98
48.58630,0.18147,-0.20527,0.00000,0.03135,0.97820,-0.18898,0.0,2023,6,7,17,5,19,109
48.58640,-0.15103,0.16223,0.00000,0.03038,0.97685,-0.18751,0.0,2023,6,7,17,5,19,120
48.58650,0.00647,0.10973,0.00000,0.03038,0.97649,-0.18788,0.0,2023,6,7,17,5,19,131
48.58660,0.18147,-0.06527,0.00000,0.03001,0.97600,-0.18776,0.0,2023,6,7,17,5,19,143
48.58670,-0.11603,0.03973,0.00000,0.03172,0.97576,-0.19044,0.0,2023,6,7,17,5,19,154
48.58680,0.14647,-0.04777,0.00000,0.02879,0.97759,-0.18739,0.0,2023,6,7,17,5,19,165
48.58690,0.11147,0.09223,0.00000,0.03160,0.97490,-0.18898,0.0,2023,6,7,17,5,19,176
48.58700,-0.08103,0.00473,0.00000,0.03001,0.97734,-0.18751,0.0,2023,6,7,17,5,19,187
48.58710,-0.09853,0.07473,0.00000,0.02904,0.97685,-0.19130,0.0,2023,6,7,17,5,19,199
48.58720,0.00647,0.14473,0.00000,0.03123,0.97807,-0.18861,0.0,2023,6,7,17,5,19,210
48.58730,-0.08103,-0.03027,0.00000,0.03087,0.97624,-0.19069,0.0,2023,6,7,17,5,19,221
48.58740,0.02397,0.07473,0.00000,0.02916,0.97734,-0.19020,0.0,2023,6,7,17,5,19,232
48.58750,0.09397,0.02223,0.00000,0.03294,0.97783,-0.18605,0.0,2023,6,7,17,5,19,243
48.58760,-0.09853,-0.08277,0.00000,0.03282,0.97624,-0.18715,0.0,2023,6,7,17,5,19,255
48.58770,0.05897,0.00473,0.00000,0.03001,0.97673,-0.18837,0.0,2023,6,7,17,5,19,266
48.58780,0.02397,0.02223,0.00000,0.02965,0.97807,-0.18898,0.0,2023,6,7,17,5,19,277
48.58790,0.00647,-0.04777,0.00000,0.03013,0.97539,-0.18751,0.0,2023,6,7,17,5,19,288
48.58800,-0.01103,-0.06527,0.00000,0.03221,0.97637,-0.18715,0.0,2023,6,7,17,5,19,299
48.58810,-0.08103,-0.04777,0.00000,0.03026,0.97624,-0.18703,0.0,2023,6,7,17,5,19,311
48.58820,-0.09853,-0.03027,0.00000,0.03074,0.97759,-0.18678,0.0,2023,6,7,17,5,19,322
48.58830,-0.01103,0.05723,0.00000,0.03209,0.97490,-0.19044,0.0,2023,6,7,17,5,19,333
48.58840,-0.18603,0.28473,0.00000,0.03099,0.97478,-0.18837,0.0,2023,6,7,17,5,19,344
48.58850,-0.08103,-0.06527,0.00000,0.02965,0.97722,-0.18703,0.0,2023,6,7,17,5,19,355
48.58860,0.18147,-0.11777,0.00000,0.03282,0.97820,-0.18910,0.0,2023,6,7,17,5,19,367
48.58870,-0.04603,0.23223,0.00000,0.03306,0.97563,-0.18800,0.0,2023,6,7,17,5,19,378
48.58880,-0.04603,-0.01277,0.00000,0.03099,0.97759,-0.18812,0.0,2023,6,7,17,5,19,389
48.58890,-0.06353,-0.06527,0.00000,0.03062,0.97637,-0.18873,0.0,2023,6,7,17,5,19,400
48.58900,-0.23853,-0.11777,0.00000,0.03074,0.97576,-0.18629,0.0,2023,6,7,17,5,19,411
48.58910,0.07647,-0.08277,0.00000,0.03148,0.97698,-0.18678,0.0,2023,6,7,17,5,19,423
48.58920,0.04147,0.09223,0.00000,0.03148,0.97783,-0.18727,0.0,2023,6,7,17,5,19,434
48.58930,-0.06353,0.09223,0.00000,0.03209,0.97429,-0.18715,0.0,2023,6,7,17,5,19,445
48.58940,-0.04603,0.03973,0.00000,0.03184,0.97637,-0.18825,0.0,2023,6,7,17,5,19,456
48.58950,-0.09853,-0.03027,0.00000,0.03343,0.97783,-0.18764,0.0,2023,6,7,17,5,19,467
48.58960,0.14647,0.02223,0.00000,0.03111,0.97551,-0.18629,0.0,2023,6,7,17,5,19,479
48.58970,0.14647,0.03973,0.00000,0.03184,0.97563,-0.18800,0.0,2023,6,7,17,5,19,490
48.58980,-0.06353,-0.17027,0.00000,0.03318,0.97527,-0.18764,0.0,2023,6,7,17,5,19,501
48.58990,-0.01103,-0.10027,0.00000,0.03135,0.97637,-0.18764,0.0,2023,6,7,17,5,19,512
48.59000,0.23397,0.00473,0.00000,0.03099,0.97746,-0.18800,0.0,2023,6,7,17,5,19,523
48.59010,0.05897,0.12723,0.00000,0.03331,0.97734,-0.18568,0.0,2023,6,7,17,5,19,535
48.59020,0.07647,0.17973,0.00000,0.03135,0.97673,-0.18788,0.0,2023,6,7,17,5,19,546
48.59030,0.28647,0.12723,0.00000,0.03050,0.97649,-0.18849,0.0,2023,6,7,17,5,19,557
48.59040,-0.04603,0.00473,0.00000,0.03282,0.97698,-0.18825,0.0,2023,6,7,17,5,19,568
48.59050,-0.02853,0.05723,0.00000,0.02965,0.97624,-0.18654,0.0,2023,6,7,17,5,19,579
48.59060,0.09397,0.07473,0.00000,0.03257,0.97576,-0.18959,0.0,2023,6,7,17,5,19,591
48.59070,0.05897,0.03973,0.00000,0.03038,0.97734,-0.18800,0.0,2023,6,7,17,5,19,602
48.59080,-0.04603,0.17973,0.00000,0.03282,0.97637,-0.18812,0.0,2023,6,7,17,5,19,613
48.59090,0.09397,-0.18777,0.00000,0.03160,0.97551,-0.18776,0.0,2023,6,7,17,5,19,624
48.59100,0.18147,0.16223,0.00000,0.03013,0.97795,-0.18971,0.0,2023,6,7,17,5,19,635
48.59110,-0.13353,-0.04777,0.00000,0.03209,0.97637,-0.18690,0.0,2023,6,7,17,5,19,647
48.59120,0.00647,-0.08277,0.00000,0.03257,0.97807,-0.18690,0.0,2023,6,7,17,5,19,658
48.59130,-0.02853,-0.03027,0.00000,0.03148,0.97771,-0.18434,0.0,2023,6,7,17,5,19,669
48.59140,0.04147,-0.11777,0.00000,0.03087,0.97502,-0.18727,0.0,2023,6,7,17,5,19,680
48.59150,-0.02853,0.07473,0.00000,0.03062,0.97673,-0.18849,0.0,2023,6,7,17,5,19,691
48.59160,-0.02853,0.00473,0.00000,0.03245,0.97844,-0.18934,0.0,2023,6,7,17,5,19,703
48.59170,0.09397,0.07473,0.00000,0.03135,0.97417,-0.19117,0.0,2023,6,7,17,5,19,714
48.59180,0.07647,0.02223,0.00000,0.03245,0.97661,-0.18873,0.0,2023,6,7,17,5,19,725
48.59190,0.11147,-0.15277,0.00000,0.03001,0.97563,-0.18849,0.0,2023,6,7,17,5,19,736
48.59200,-0.11603,0.02223,0.00000,0.03172,0.97893,-0.18825,0.0,2023,6,7,17,5,19,747
48.59210,-0.08103,-0.03027,0.00000,0.03270,0.97807,-0.18617,0.0,2023,6,7,17,5,19,759
48.59220,0.00647,0.07473,0.00000,0.03111,0.97734,-0.18715,0.0,2023,6,7,17,5,19,770
48.59230,-0.13353,-0.03027,0.00000,0.02928,0.97612,-0.18849,0.0,2023,6,7,17,5,19,781
48.59240,0.00647,0.07473,0.00000,0.03196,0.97698,-0.18751,0.0,2023,6,7,17,5,19,792
48.59250,0.14647,-0.11777,0.00000,0.03196,0.97820,-0.18947,0.0,2023,6,7,17,5,19,803
48.59260,-0.04603,-0.03027,0.00000,0.02928,0.97661,-0.19166,0.0,2023,6,7,17,5,19,815
48.59270,0.04147,0.10973,0.00000,0.03184,0.97551,-0.18947,0.0,2023,6,7,17,5,19,826
48.59280,-0.09853,-0.10027,0.00000,0.03062,0.97710,-0.18995,0.0,2023,6,7,17,5,19,837
48.59290,0.00647,0.03973,0.00000,0.03270,0.97454,-0.18861,0.0,2023,6,7,17,5,19,848
48.59300,0.16397,-0.11777,0.00000,0.03062,0.97710,-0.19044,0.0,2023,6,7,17,5,19,859
48.59310,0.02397,-0.13527,0.00000,0.02940,0.97771,-0.18727,0.0,2023,6,7,17,5,19,871
48.59320,-0.04603,0.19723,0.00000,0.03135,0.97820,-0.18898,0.0,2023,6,7,17,5,19,882
48.59330,-0.16853,-0.15277,0.00000,0.03123,0.97502,-0.18715,0.0,2023,6,7,17,5,19,893
48.59340,-0.08103,-0.11777,0.00000,0.03001,0.97856,-0.18703,0.0,2023,6,7,17,5,19,904
48.59350,-0.08103,0.03973,0.00000,0.03172,0.97698,-0.18666,0.0,2023,6,7,17,5,19,915
48.59360,-0.06353,0.16223,0.00000,0.03233,0.97441,-0.19081,0.0,2023,6,7,17,5,19,927
48.59370,-0.11603,-0.06527,0.00000,0.03184,0.97466,-0.19032,0.0,2023,6,7,17,5,19,938
48.59380,-0.15103,0.05723,0.00000,0.02977,0.97576,-0.18812,0.0,2023,6,7,17,5,19,949
48.59390,-0.01103,0.07473,0.00000,0.03257,0.97759,-0.18654,0.0,2023,6,7,17,5,19,960
48.59400,0.02397,0.05723,0.00000,0.03123,0.97515,-0.18825,0.0,2023,6,7,17,5,19,971
48.59410,-0.08103,0.17973,0.00000,0.03453,0.97746,-0.18837,0.0,2023,6,7,17,5,19,983
48.59420,-0.18603,0.09223,0.00000,0.03013,0.97649,-0.18922,0.0,2023,6,7,17,5,19,994
48.59430,-0.15103,0.17973,0.00000,0.03123,0.97722,-0.18861,0.0,2023,6,7,17,5,19,5
48.59440,-0.08103,0.19723,0.00000,0.03123,0.97710,-0.18690,0.0,2023,6,7,17,5,20,5
48.59450,-0.11603,0.10973,0.00000,0.03148,0.97746,-0.18629,0.0,2023,6,7,17,5,20,16
48.59460,-0.08103,-0.11777,0.00000,0.03148,0.97600,-0.18654,0.0,2023,6,7,17,5,20,28
48.59470,0.16397,-0.06527,0.00000,0.03087,0.97551,-0.18983,0.0,2023,6,7,17,5,20,39
48.59480,0.14647,-0.11777,0.00000,0.02989,0.97624,-0.19081,0.0,2023,6,7,17,5,20,50
48.59490,0.14647,-0.22277,0.00000,0.03013,0.97563,-0.18886,0.0,2023,6,7,17,5,20,61
48.59500,0.00647,0.09223,0.00000,0.03135,0.97563,-0.18825,0.0,2023,6,7,17,5,20,72
48.59510,0.04147,0.16223,0.00000,0.03233,0.97710,-0.19069,0.0,2023,6,7,17,5,20,84
48.59520,0.14647,-0.11777,0.00000,0.03196,0.97710,-0.18715,0.0,2023,6,7,17,5,20,95
48.59530,0.00647,-0.18777,0.00000,0.03379,0.97795,-0.18837,0.0,2023,6,7,17,5,20,106
48.59540,0.02397,-0.03027,0.00000,0.03062,0.97649,-0.18837,0.0,2023,6,7,17,5,20,117
48.59550,-0.01103,0.05723,0.00000,0.03099,0.97734,-0.18812,0.0,2023,6,7,17,5,20,128
48.59560,-0.08103,0.16223,0.00000,0.03196,0.97539,-0.18617,0.0,2023,6,7,17,5,20,140
48.59570,0.02397,-0.01277,0.00000,0.03270,0.97746,-0.18873,0.0,2023,6,7,17,5,20,151
48.59580,0.23397,-0.03027,0.00000,0.03245,0.97710,-0.18898,0.0,2023,6,7,17,5,20,162
48.59590,-0.08103,0.03973,0.00000,0.03270,0.97734,-0.18849,0.0,2023,6,7,17,5,20,173
48.59600,-0.02853,-0.01277,0.00000,0.03160,0.97661,-0.19069,0.0,2023,6,7,17,5,20,184
48.59610,0.00647,-0.01277,0.00000,0.02977,0.97832,-0.18983,0.0,2023,6,7,17,5,20,196
48.59620,0.09397,0.09223,0.00000,0.03135,0.97490,-0.18934,0.0,2023,6,7,17,5,20,207
48.59630,-0.11603,-0.03027,0.00000,0.03160,0.97698,-0.18629,0.0,2023,6,7,17,5,20,218
48.59640,-0.13353,0.07473,0.00000,0.03074,0.97624,-0.18873,0.0,2023,6,7,17,5,20,229
48.59650,0.00647,-0.18777,0.00000,0.03184,0.97612,-0.18703,0.0,2023,6,7,17,5,20,240
48.59660,-0.01103,0.02223,0.00000,0.02928,0.97478,-0.18934,0.0,2023,6,7,17,5,20,252
48.59670,0.12897,-0.04777,0.00000,0.03245,0.97502,-0.18800,0.0,2023,6,7,17,5,20,263
48.59680,-0.08103,-0.15277,0.00000,0.03123,0.97844,-0.18995,0.0,2023,6,7,17,5,20,274
48.59690,-0.08103,-0.01277,0.00000,0.03099,0.97637,-0.18886,0.0,2023,6,7,17,5,20,285
48.59700,-0.08103,0.10973,0.00000,0.03282,0.97722,-0.18751,0.0,2023,6,7,17,5,20,296
48.59710,0.05897,-0.31027,0.00000,0.03062,0.98039,-0.18983,0.0,2023,6,7,17,5,20,308
48.59720,-0.06353,-0.01277,0.00000,0.03062,0.97515,-0.19056,0.0,2023,6,7,17,5,20,319
48.59730,0.16397,-0.01277,0.00000,0.02952,0.97978,-0.18959,0.0,2023,6,7,17,5,20,330
48.59740,0.14647,0.03973,0.00000,0.03111,0.97466,-0.19093,0.0,2023,6,7,17,5,20,341
48.59750,-0.06353,0.26723,0.00000,0.03099,0.97588,-0.18764,0.0,2023,6,7,17,5,20,352
48.59760,-0.13353,0.17973,0.00000,0.03270,0.97893,-0.18971,0.0,2023,6,7,17,5,20,364
48.59770,-0.06353,0.00473,0.00000,0.03196,0.97673,-0.18764,0.0,2023,6,7,17,5,20,375
48.59780,0.00647,-0.04777,0.00000,0.03087,0.97917,-0.18788,0.0,2023,6,7,17,5,20,386
48.59790,0.14647,-0.03027,0.00000,0.03062,0.97661,-0.19044,0.0,2023,6,7,17,5,20,397
48.59800,-0.11603,-0.06527,0.00000,0.03123,0.97710,-0.18593,0.0,2023,6,7,17,5,20,408
48.59810,0.00647,0.03973,0.00000,0.03087,0.97990,-0.18849,0.0,2023,6,7,17,5,20,420
48.59820,0.07647,0.05723,0.00000,0.03123,0.97673,-0.18764,0.0,2023,6,7,17,5,20,431
48.59830,-0.06353,-0.13527,0.00000,0.02904,0.97685,-0.18995,0.0,2023,6,7,17,5,20,442
48.59840,-0.01103,-0.10027,0.00000,0.03367,0.97710,-0.18739,0.0,2023,6,7,17,5,20,453
48.59850,0.09397,-0.04777,0.00000,0.03196,0.97673,-0.18788,0.0,2023,6,7,17,5,20,464
48.59860,-0.01103,0.21473,0.00000,0.03184,0.97600,-0.19020,0.0,2023,6,7,17,5,20,476
48.59870,-0.01103,-0.24027,0.00000,0.02965,0.97454,-0.19008,0.0,2023,6,7,17,5,20,487
48.59880,0.02397,0.00473,0.00000,0.03050,0.97771,-0.19105,0.0,2023,6,7,17,5,20,498
48.59890,-0.04603,-0.04777,0.00000,0.03087,0.97771,-0.18703,0.0,2023,6,7,17,5,20,509
48.59900,0.09397,-0.06527,0.00000,0.03160,0.97515,-0.18825,0.0,2023,6,7,17,5,20,520
48.59910,0.11147,-0.13527,0.00000,0.03135,0.97710,-0.18800,0.0,2023,6,7,17,5,20,532
48.59920,0.04147,-0.01277,0.00000,0.02928,0.97649,-0.18922,0.0,2023,6,7,17,5,20,543
48.59930,0.05897,-0.11777,0.00000,0.03270,0.97490,-0.18983,0.0,2023,6,7,17,5,20,554
48.59940,0.02397,-0.06527,0.00000,0.03331,0.97405,-0.18727,0.0,2023,6,7,17,5,20,565
48.59950,0.11147,-0.01277,0.00000,0.03026,0.97698,-0.18690,0.0,2023,6,7,17,5,20,576
48.59960,0.12897,0.07473,0.00000,0.03270,0.97856,-0.18873,0.0,2023,6,7,17,5,20,588
48.59970,0.23397,0.14473,0.00000,0.03184,0.97478,-0.18764,0.0,2023,6,7,17,5,20,599
48.59980,-0.15103,0.16223,0.00000,0.03123,0.97673,-0.18934,0.0,2023,6,7,17,5,20,610
48.59990,0.04147,-0.04777,0.00000,0.03148,0.97405,-0.18629,0.0,2023,6,7,17,5,20,621
48.60000,-0.13353,-0.03027,0.00000,0.03257,0.97551,-0.18837,0.0,2023,6,7,17,5,20,632
48.60010,0.04147,0.02223,0.00000,0.02965,0.97515,-0.18934,0.0,2023,6,7,17,5,20,644
48.60020,0.00647,0.14473,0.00000,0.02916,0.97563,-0.19020,0.0,2023,6,7,17,5,20,655
48.60030,0.09397,-0.10027,0.00000,0.03160,0.97759,-0.18898,0.0,2023,6,7,17,5,20,666
48.60040,0.12897,0.00473,0.00000,0.03074,0.97893,-0.18703,0.0,2023,6,7,17,5,20,677
48.60050,0.09397,0.14473,0.00000,0.03196,0.97527,-0.19020,0.0,2023,6,7,17,5,20,688
48.60060,0.18147,-0.17027,0.00000,0.03074,0.97685,-0.18983,0.0,2023,6,7,17,5,20,700
48.60070,0.04147,-0.10027,0.00000,0.03184,0.97722,-0.18629,0.0,2023,6,7,17,5,20,711
48.60080,0.09397,0.00473,0.00000,0.03111,0.97673,-0.18727,0.0,2023,6,7,17,5,20,722
48.60090,-0.04603,0.05723,0.00000,0.03111,0.97710,-0.18886,0.0,2023,6,7,17,5,20,733
48.60100,0.11147,0.12723,0.00000,0.03172,0.97698,-0.18727,0.0,2023,6,7,17,5,20,744
48.60110,0.11147,0.14473,0.00000,0.03270,0.97624,-0.18800,0.0,2023,6,7,17,5,20,756
48.60120,-0.06353,0.00473,0.00000,0.03477,0.97344,-0.18629,0.0,2023,6,7,17,5,20,767
48.60130,0.04147,-0.06527,0.00000,0.03062,0.97698,-0.18605,0.0,2023,6,7,17,5,20,778
48.60140,-0.04603,0.03973,0.00000,0.03087,0.97820,-0.18739,0.0,2023,6,7,17,5,20,789
48.60150,0.00647,-0.06527,0.00000,0.03453,0.97649,-0.19105,0.0,2023,6,7,17,5,20,800
48.60160,-0.11603,0.10973,0.00000,0.03184,0.97673,-0.18605,0.0,2023,6,7,17,5,20,812
48.60170,0.19897,-0.27527,0.00000,0.03196,0.97441,-0.19032,0.0,2023,6,7,17,5,20,823
48.60180,-0.08103,0.02223,0.00000,0.03221,0.97795,-0.18751,0.0,2023,6,7,17,5,20,834
48.60190,0.21647,-0.13527,0.00000,0.03135,0.97685,-0.18788,0.0,2023,6,7,17,5,20,845
48.60200,0.11147,-0.01277,0.00000,0.03111,0.97673,-0.19117,0.0,2023,6,7,17,5,20,856
48.60210,0.09397,-0.01277,0.00000,0.03050,0.98064,-0.19020,0.0,2023,6,7,17,5,20,868
48.60220,-0.02853,-0.03027,0.00000,0.03160,0.97685,-0.18764,0.0,2023,6,7,17,5,20,879
48.60230,-0.16853,0.00473,0.00000,0.03062,0.97600,-0.18983,0.0,2023,6,7,17,5,20,890
48.60240,-0.06353,0.02223,0.00000,0.03087,0.97917,-0.18910,0.0,2023,6,7,17,5,20,901
48.60250,-0.04603,0.09223,0.00000,0.03050,0.97771,-0.18886,0.0,2023,6,7,17,5,20,912
48.60260,-0.02853,0.00473,0.00000,0.03343,0.97576,-0.19044,0.0,2023,6,7,17,5,20,924
48.60270,-0.01103,0.05723,0.00000,0.03111,0.97698,-0.18873,0.0,2023,6,7,17,5,20,935
48.60280,0.00647,-0.18777,0.00000,0.03428,0.97734,-0.18715,0.0,2023,6,7,17,5,20,946
48.60290,0.09397,0.23223,0.00000,0.02952,0.97624,-0.18959,0.0,2023,6,7,17,5,20,957
48.60300,0.09397,-0.01277,0.00000,0.02843,0.97502,-0.19313,0.0,2023,6,7,17,5,20,968
48.60310,-0.13353,0.17973,0.00000,0.02977,0.97722,-0.18971,0.0,2023,6,7,17,5,20,980
48.60320,0.07647,0.12723,0.00000,0.03050,0.97551,-0.19105,0.0,2023,6,7,17,5,21,1
48.60330,-0.09853,0.07473,0.00000,0.02904,0.97856,-0.18959,0.0,2023,6,7,17,5,21,12
48.60340,0.19897,-0.08277,0.00000,0.03074,0.97795,-0.18727,0.0,2023,6,7,17,5,21,23
48.60350,-0.08103,0.05723,0.00000,0.03160,0.97649,-0.18934,0.0,2023,6,7,17,5,21,34
48.60360,0.04147,-0.17027,0.00000,0.02965,0.97771,-0.18642,0.0,2023,6,7,17,5,21,46
48.60370,0.18147,-0.04777,0.00000,0.03294,0.97563,-0.18849,0.0,2023,6,7,17,5,21,57
48.60380,0.04147,0.07473,0.00000,0.03257,0.97490,-0.18898,0.0,2023,6,7,17,5,21,68
48.60390,0.09397,0.07473,0.00000,0.03050,0.97685,-0.18995,0.0,2023,6,7,17,5,21,79
48.60400,0.02397,-0.22277,0.00000,0.03099,0.97429,-0.18605,0.0,2023,6,7,17,5,21,90
48.60410,0.11147,0.03973,0.00000,0.03038,0.97698,-0.18764,0.0,2023,6,7,17,5,21,102
48.60420,0.18147,-0.18777,0.00000,0.03111,0.97417,-0.18727,0.0,2023,6,7,17,5,21,113
48.60430,0.02397,-0.13527,0.00000,0.03026,0.97551,-0.18983,0.0,2023,6,7,17,5,21,124
48.60440,0.05897,0.00473,0.00000,0.03160,0.97563,-0.19130,0.0,2023,6,7,17,5,21,135
48.60450,0.16397,-0.08277,0.00000,0.03013,0.97734,-0.18764,0.0,2023,6,7,17,5,21,146
48.60460,0.09397,0.02223,0.00000,0.02928,0.97624,-0.18812,0.0,2023,6,7,17,5,21,158
48.60470,-0.01103,0.14473,0.00000,0.03160,0.97746,-0.18812,0.0,2023,6,7,17,5,21,169
48.60480,0.02397,-0.03027,0.00000,0.02940,0.97563,-0.18703,0.0,2023,6,7,17,5,21,180
48.60490,-0.15103,0.10973,0.00000,0.03038,0.97685,-0.18947,0.0,2023,6,7,17,5,21,191
48.60500,0.07647,-0.06527,0.00000,0.03209,0.97673,-0.18776,0.0,2023,6,7,17,5,21,202
48.60510,-0.02853,-0.13527,0.00000,0.03209,0.97673,-0.18751,0.0,2023,6,7,17,5,21,214
48.60520,0.02397,0.00473,0.00000,0.03123,0.97868,-0.19044,0.0,2023,6,7,17,5,21,225
48.60530,0.00647,-0.08277,0.00000,0.03013,0.97746,-0.19117,0.0,2023,6,7,17,5,21,236
48.60540,0.04147,-0.04777,0.00000,0.03050,0.97771,-0.18959,0.0,2023,6,7,17,5,21,247
48.60550,0.07647,0.21473,0.00000,0.03123,0.97637,-0.18825,0.0,2023,6,7,17,5,21,258
48.60560,0.11147,-0.29277,0.00000,0.03209,0.97820,-0.19069,0.0,2023,6,7,17,5,21,270
48.60570,0.11147,-0.08277,0.00000,0.03013,0.97954,-0.18812,0.0,2023,6,7,17,5,21,281
48.60580,0.11147,-0.08277,0.00000,0.03148,0.97661,-0.19008,0.0,2023,6,7,17,5,21,292
48.60590,-0.09853,0.17973,0.00000,0.03172,0.97807,-0.18849,0.0,2023,6,7,17,5,21,303
48.60600,-0.06353,0.16223,0.00000,0.03013,0.97600,-0.18873,0.0,2023,6,7,17,5,21,314
48.60610,0.02397,0.23223,0.00000,0.03257,0.97661,-0.19056,0.0,2023,6,7,17,5,21,326
48.60620,0.12897,-0.08277,0.00000,0.03306,0.97624,-0.18898,0.0,2023,6,7,17,5,21,337
48.60630,0.00647,0.07473,0.00000,0.02965,0.97698,-0.18971,0.0,2023,6,7,17,5,21,348
48.60640,0.07647,0.03973,0.00000,0.02989,0.97710,-0.18849,0.0,2023,6,7,17,5,21,359
48.60650,-0.04603,-0.11777,0.00000,0.03160,0.97734,-0.18751,0.0,2023,6,7,17,5,21,370
48.60660,-0.08103,-0.15277,0.00000,0.03465,0.97649,-0.18886,0.0,2023,6,7,17,5,21,382
48.60670,0.05897,0.12723,0.00000,0.03172,0.97612,-0.19166,0.0,2023,6,7,17,5,21,393
48.60680,0.16397,-0.15277,0.00000,0.03111,0.97759,-0.18898,0.0,2023,6,7,17,5,21,404
48.60690,0.14647,-0.13527,0.00000,0.03196,0.97649,-0.18788,0.0,2023,6,7,17,5,21,415
48.60700,-0.01103,-0.18777,0.00000,0.03148,0.97685,-0.18776,0.0,2023,6,7,17,5,21,426
48.60710,0.00647,0.07473,0.00000,0.03013,0.97942,-0.18837,0.0,2023,6,7,17,5,21,438
48.60720,0.19897,0.12723,0.00000,0.03123,0.97490,-0.19288,0.0,2023,6,7,17,5,21,449
48.60730,0.32147,-0.08277,0.00000,0.03331,0.97856,-0.19081,0.0,2023,6,7,17,5,21,460
48.60740,-0.04603,-0.10027,0.00000,0.03245,0.97893,-0.18690,0.0,2023,6,7,17,5,21,471
48.60750,-0.04603,0.05723,0.00000,0.03245,0.97576,-0.18739,0.0,2023,6,7,17,5,21,482
48.60760,-0.15103,0.16223,0.00000,0.02940,0.97929,-0.18739,0.0,2023,6,7,17,5,21,494
48.60770,0.02397,-0.06527,0.00000,0.02904,0.97783,-0.18922,0.0,2023,6,7,17,5,21,505
48.60780,-0.01103,-0.06527,0.00000,0.03245,0.97576,-0.18666,0.0,2023,6,7,17,5,21,516
48.60790,0.05897,0.03973,0.00000,0.03087,0.97563,-0.18800,0.0,2023,6,7,17,5,21,527
48.60800,-0.04603,-0.22277,0.00000,0.03026,0.97637,-0.19178,0.0,2023,6,7,17,5,21,538
48.60810,-0.01103,0.24973,0.00000,0.03135,0.97856,-0.19069,0.0,2023,6,7,17,5,21,550
48.60820,0.02397,-0.10027,0.00000,0.03245,0.97734,-0.18703,0.0,2023,6,7,17,5,21,561
48.60830,-0.01103,0.07473,0.00000,0.03026,0.97661,-0.19020,0.0,2023,6,7,17,5,21,572
48.60840,-0.04603,0.07473,0.00000,0.03221,0.97698,-0.18910,0.0,2023,6,7,17,5,21,583
48.60850,-0.01103,0.10973,0.00000,0.03111,0.97795,-0.18654,0.0,2023,6,7,17,5,21,594
48.60860,0.11147,-0.18777,0.00000,0.03148,0.97588,-0.18825,0.0,2023,6,7,17,5,21,606
48.60870,0.16397,-0.04777,0.00000,0.03062,0.97759,-0.18898,0.0,2023,6,7,17,5,21,617
48.60880,-0.04603,0.00473,0.00000,0.03026,0.97698,-0.18739,0.0,2023,6,7,17,5,21,628
48.60890,-0.01103,0.19723,0.00000,0.03184,0.97661,-0.18922,0.0,2023,6,7,17,5,21,639
48.60900,0.05897,-0.17027,0.00000,0.03172,0.97685,-0.18642,0.0,2023,6,7,17,5,21,650
48.60910,0.11147,0.17973,0.00000,0.03184,0.97490,-0.18886,0.0,2023,6,7,17,5,21,662
48.60920,-0.04603,-0.06527,0.00000,0.03026,0.97539,-0.18910,0.0,2023,6,7,17,5,21,673
48.60930,-0.04603,0.00473,0.00000,0.03050,0.97563,-0.18605,0.0,2023,6,7,17,5,21,684
48.60940,0.11147,0.00473,0.00000,0.03221,0.97673,-0.18776,0.0,2023,6,7,17,5,21,695
48.60950,-0.02853,-0.06527,0.00000,0.03184,0.97588,-0.18837,0.0,2023,6,7,17,5,21,706
48.60960,-0.02853,-0.18777,0.00000,0.02769,0.97551,-0.18922,0.0,2023,6,7,17,5,21,718
48.60970,0.16397,-0.01277,0.00000,0.03160,0.97795,-0.18934,0.0,2023,6,7,17,5,21,729
48.60980,0.09397,-0.04777,0.00000,0.02952,0.97820,-0.18971,0.0,2023,6,7,17,5,21,740
48.60990,0.05897,-0.03027,0.00000,0.03087,0.97454,-0.18739,0.0,2023,6,7,17,5,21,751
48.61000,0.05897,-0.08277,0.00000,0.03038,0.97734,-0.18934,0.0,2023,6,7,17,5,21,762
48.61010,0.09397,-0.06527,0.00000,0.03160,0.97649,-0.18934,0.0,2023,6,7,17,5,21,774
48.61020,0.11147,-0.10027,0.00000,0.03038,0.97710,-0.19166,0.0,2023,6,7,17,5,21,785
48.61030,0.12897,0.16223,0.00000,0.03160,0.97637,-0.18654,0.0,2023,6,7,17,5,21,796
48.61040,0.04147,0.09223,0.00000,0.03233,0.97380,-0.18593,0.0,2023,6,7,17,5,21,807
48.61050,-0.11603,0.10973,0.00000,0.03172,0.97478,-0.18642,0.0,2023,6,7,17,5,21,818
48.61060,0.09397,-0.06527,0.00000,0.03013,0.97685,-0.19008,0.0,2023,6,7,17,5,21,830
48.61070,0.05897,-0.18777,0.00000,0.03233,0.97600,-0.18995,0.0,2023,6,7,17,5,21,841
48.61080,-0.04603,-0.06527,0.00000,0.03050,0.97441,-0.18898,0.0,2023,6,7,17,5,21,852
48.61090,-0.13353,0.12723,0.00000,0.03184,0.97539,-0.18678,0.0,2023,6,7,17,5,21,863
48.61100,0.00647,0.03973,0.00000,0.03270,0.97637,-0.18666,0.0,2023,6,7,17,5,21,874
48.61110,-0.01103,0.00473,0.00000,0.03196,0.97905,-0.18751,0.0,2023,6,7,17,5,21,886
48.61120,0.00647,0.28473,0.00000,0.03074,0.97637,-0.18971,0.0,2023,6,7,17,5,21,897
48.61130,-0.01103,-0.01277,0.00000,0.03062,0.97624,-0.18690,0.0,2023,6,7,17,5,21,908
48.61140,-0.18603,0.09223,0.00000,0.03221,0.97685,-0.18922,0.0,2023,6,7,17,5,21,919
48.61150,0.19897,0.21473,0.00000,0.03184,0.97746,-0.19008,0.0,2023,6,7,17,5,21,930
48.61160,-0.01103,0.10973,0.00000,0.03062,0.97576,-0.19032,0.0,2023,6,7,17,5,21,942
48.61170,0.25147,-0.04777,0.00000,0.03318,0.97515,-0.19008,0.0,2023,6,7,17,5,21,953
48.61180,0.11147,-0.04777,0.00000,0.03062,0.97917,-0.18898,0.0,2023,6,7,17,5,21,964
48.61190,0.11147,-0.08277,0.00000,0.03306,0.97478,-0.18886,0.0,2023,6,7,17,5,21,975
48.61200,-0.15103,-0.03027,0.00000,0.03062,0.97624,-0.18788,0.0,2023,6,7,17,5,21,986
48.61210,-0.18603,0.14473,0.00000,0.03172,0.97527,-0.18849,0.0,2023,6,7,17,5,21,998
48.61220,-0.08103,0.16223,0.00000,0.03062,0.97685,-0.18861,0.0,2023,6,7,17,5,22,8
48.61230,-0.13353,-0.03027,0.00000,0.02940,0.97673,-0.18654,0.0,2023,6,7,17,5,22,19
48.61240,-0.16853,-0.06527,0.00000,0.03245,0.97478,-0.18617,0.0,2023,6,7,17,5,22,30
48.61250,0.00647,0.21473,0.00000,0.03160,0.97515,-0.18715,0.0,2023,6,7,17,5,22,41
48.61260,-0.01103,0.00473,0.00000,0.03111,0.97466,-0.18764,0.0,2023,6,7,17,5,22,53
48.61270,-0.04603,0.05723,0.00000,0.03001,0.97759,-0.18873,0.0,2023,6,7,17,5,22,64
48.61280,0.14647,-0.11777,0.00000,0.03111,0.97429,-0.18849,0.0,2023,6,7,17,5,22,75
48.61290,0.09397,-0.11777,0.00000,0.02977,0.97624,-0.18898,0.0,2023,6,7,17,5,22,86
48.61300,0.07647,-0.10027,0.00000,0.02904,0.97649,-0.19032,0.0,2023,6,7,17,5,22,97
48.61310,-0.06353,0.05723,0.00000,0.03074,0.97661,-0.18825,0.0,2023,6,7,17,5,22,109
48.61320,0.00647,0.07473,0.00000,0.03026,0.97661,-0.18825,0.0,2023,6,7,17,5,22,120
48.61330,0.18147,0.10973,0.00000,0.03050,0.97844,-0.18800,0.0,2023,6,7,17,5,22,131
48.61340,-0.06353,0.00473,0.00000,0.03087,0.97576,-0.18922,0.0,2023,6,7,17,5,22,142
48.61350,-0.02853,-0.11777,0.00000,0.03209,0.97771,-0.18922,0.0,2023,6,7,17,5,22,153
48.61360,0.09397,0.00473,0.00000,0.03087,0.97612,-0.18446,0.0,2023,6,7,17,5,22,165
48.61370,-0.06353,0.12723,0.00000,0.03184,0.97600,-0.19020,0.0,2023,6,7,17,5,22,176
48.61380,-0.11603,-0.06527,0.00000,0.03123,0.97624,-0.18788,0.0,2023,6,7,17,5,22,187
48.61390,0.25147,-0.18777,0.00000,0.03074,0.97429,-0.18922,0.0,2023,6,7,17,5,22,198
48.61400,-0.08103,-0.06527,0.00000,0.03026,0.97661,-0.18959,0.0,2023,6,7,17,5,22,209
48.61410,-0.04603,-0.03027,0.00000,0.03209,0.97710,-0.18837,0.0,2023,6,7,17,5,22,221
48.61420,-0.06353,0.19723,0.00000,0.03221,0.97746,-0.19130,0.0,2023,6,7,17,5,22,232
48.61430,0.07647,0.19723,0.00000,0.02989,0.97685,-0.18678,0.0,2023,6,7,17,5,22,243
48.61440,0.19897,0.00473,0.00000,0.03038,0.97551,-0.18727,0.0,2023,6,7,17,5,22,254
48.61450,0.07647,-0.13527,0.00000,0.03123,0.97746,-0.18825,0.0,2023,6,7,17,5,22,265
48.61460,-0.09853,0.02223,0.00000,0.03318,0.97673,-0.18654,0.0,2023,6,7,17,5,22,277
48.61470,-0.11603,-0.22277,0.00000,0.03074,0.97527,-0.19130,0.0,2023,6,7,17,5,22,288
48.61480,0.09397,-0.03027,0.00000,0.03062,0.97807,-0.19056,0.0,2023,6,7,17,5,22,299
48.61490,0.07647,0.05723,0.00000,0.03160,0.97551,-0.18971,0.0,2023,6,7,17,5,22,310
48.61500,-0.18603,0.16223,0.00000,0.03184,0.97490,-0.18715,0.0,2023,6,7,17,5,22,321
48.61510,0.04147,-0.06527,0.00000,0.03062,0.97332,-0.18873,0.0,2023,6,7,17,5,22,333
48.61520,-0.18603,0.05723,0.00000,0.03148,0.97856,-0.18739,0.0,2023,6,7,17,5,22,344
48.61530,0.02397,-0.03027,0.00000,0.02928,0.97673,-0.18654,0.0,2023,6,7,17,5,22,355
48.61540,0.23397,-0.01277,0.00000,0.03331,0.97722,-0.19081,0.0,2023,6,7,17,5,22,366
48.61550,-0.02853,-0.13527,0.00000,0.03123,0.97698,-0.19020,0.0,2023,6,7,17,5,22,377
48.61560,-0.23853,0.17973,0.00000,0.03099,0.97588,-0.18849,0.0,2023,6,7,17,5,22,389
48.61570,0.23397,-0.20527,0.00000,0.03257,0.97502,-0.18837,0.0,2023,6,7,17,5,22,400
48.61580,-0.08103,0.10973,0.00000,0.03050,0.97698,-0.18605,0.0,2023,6,7,17,5,22,411
48.61590,0.04147,-0.17027,0.00000,0.03196,0.97344,-0.18873,0.0,2023,6,7,17,5,22,422
48.61600,0.16397,0.05723,0.00000,0.02830,0.97624,-0.18800,0.0,2023,6,7,17,5,22,433
48.61610,-0.06353,0.05723,0.00000,0.02965,0.97539,-0.18788,0.0,2023,6,7,17,5,22,445
48.61620,-0.13353,0.16223,0.00000,0.03221,0.97490,-0.18947,0.0,2023,6,7,17,5,22,456
48.61630,-0.09853,0.02223,0.00000,0.03074,0.97771,-0.18715,0.0,2023,6,7,17,5,22,467
48.61640,0.04147,-0.01277,0.00000,0.02940,0.97759,-0.18947,0.0,2023,6,7,17,5,22,478
48.61650,0.05897,0.02223,0.00000,0.03123,0.97502,-0.18995,0.0,2023,6,7,17,5,22,489
48.61660,0.07647,-0.38027,0.00000,0.03221,0.97661,-0.18873,0.0,2023,6,7,17,5,22,501
48.61670,-0.06353,-0.11777,0.00000,0.03209,0.97966,-0.18861,0.0,2023,6,7,17,5,22,512
48.61680,0.11147,0.10973,0.00000,0.03233,0.97771,-0.18776,0.0,2023,6,7,17,5,22,523
48.61690,-0.04603,0.03973,0.00000,0.03001,0.97673,-0.18703,0.0,2023,6,7,17,5,22,534
48.61700,-0.02853,0.10973,0.00000,0.02940,0.97820,-0.18873,0.0,2023,6,7,17,5,22,545
48.61710,0.35647,-0.04777,0.00000,0.03087,0.97673,-0.18934,0.0,2023,6,7,17,5,22,557
48.61720,-0.04603,0.10973,0.00000,0.03245,0.97454,-0.18873,0.0,2023,6,7,17,5,22,568
48.61730,-0.16853,0.12723,0.00000,0.03062,0.97661,-0.18934,0.0,2023,6,7,17,5,22,579
48.61740,0.21647,-0.36277,0.00000,0.02879,0.97563,-0.18898,0.0,2023,6,7,17,5,22,590
48.61750,0.11147,-0.11777,0.00000,0.03087,0.97551,-0.18849,0.0,2023,6,7,17,5,22,601
48.61760,-0.02853,-0.04777,0.00000,0.03501,0.97661,-0.18947,0.0,2023,6,7,17,5,22,613
48.61770,0.07647,0.00473,0.00000,0.03282,0.97844,-0.18666,0.0,2023,6,7,17,5,22,624
48.61780,-0.04603,-0.08277,0.00000,0.03221,0.97600,-0.18690,0.0,2023,6,7,17,5,22,635
48.61790,-0.23853,0.14473,0.00000,0.02965,0.97588,-0.18934,0.0,2023,6,7,17,5,22,646
48.61800,0.05897,-0.01277,0.00000,0.02891,0.97624,-0.19008,0.0,2023,6,7,17,5,22,657
48.61810,0.02397,-0.01277,0.00000,0.03392,0.97844,-0.19044,0.0,2023,6,7,17,5,22,669
48.61820,-0.20353,0.17973,0.00000,0.03294,0.97685,-0.18983,0.0,2023,6,7,17,5,22,680
48.61830,0.07647,0.07473,0.00000,0.03038,0.97612,-0.18800,0.0,2023,6,7,17,5,22,691
48.61840,-0.09853,-0.01277,0.00000,0.03062,0.97807,-0.18971,0.0,2023,6,7,17,5,22,702
48.61850,0.12897,-0.03027,0.00000,0.02940,0.97746,-0.18947,0.0,2023,6,7,17,5,22,713
48.61860,0.02397,-0.15277,0.00000,0.03135,0.97454,-0.19032,0.0,2023,6,7,17,5,22,725
48.61870,0.02397,-0.20527,0.00000,0.03184,0.97893,-0.18532,0.0,2023,6,7,17,5,22,736
48.61880,-0.01103,0.14473,0.00000,0.03148,0.97771,-0.18788,0.0,2023,6,7,17,5,22,747
48.61890,0.09397,0.12723,0.00000,0.03062,0.97612,-0.18934,0.0,2023,6,7,17,5,22,758
48.61900,0.11147,0.02223,0.00000,0.03087,0.97710,-0.18983,0.0,2023,6,7,17,5,22,769
48.61910,-0.09853,-0.03027,0.00000,0.02879,0.97502,-0.19117,0.0,2023,6,7,17,5,22,781
48.61920,0.04147,0.05723,0.00000,0.03099,0.97661,-0.18751,0.0,2023,6,7,17,5,22,792
48.61930,0.00647,-0.03027,0.00000,0.03196,0.97856,-0.18886,0.0,2023,6,7,17,5,22,803
48.61940,0.09397,0.14473,0.00000,0.03355,0.97637,-0.19020,0.0,2023,6,7,17,5,22,814
48.61950,0.04147,-0.10027,0.00000,0.03257,0.97759,-0.18971,0.0,2023,6,7,17,5,22,825
48.61960,-0.15103,-0.24027,0.00000,0.03074,0.97637,-0.18886,0.0,2023,6,7,17,5,22,837
48.61970,-0.06353,0.10973,0.00000,0.03099,0.97624,-0.18703,0.0,2023,6,7,17,5,22,848
48.61980,0.00647,-0.04777,0.00000,0.03196,0.97673,-0.18520,0.0,2023,6,7,17,5,22,859
48.61990,-0.23853,0.10973,0.00000,0.02965,0.97746,-0.18886,0.0,2023,6,7,17,5,22,870
48.62000,-0.01103,0.00473,0.00000,0.03196,0.97734,-0.19044,0.0,2023,6,7,17,5,22,881
48.62010,-0.06353,-0.11777,0.00000,0.02965,0.97454,-0.18812,0.0,2023,6,7,17,5,22,893
48.62020,-0.08103,-0.06527,0.00000,0.03038,0.97807,-0.19044,0.0,2023,6,7,17,5,22,904
48.62030,-0.06353,0.03973,0.00000,0.03221,0.97551,-0.18947,0.0,2023,6,7,17,5,22,915
48.62040,0.00647,-0.01277,0.00000,0.03270,0.97527,-0.18739,0.0,2023,6,7,17,5,22,926
48.62050,0.07647,0.07473,0.00000,0.03013,0.97527,-0.18959,0.0,2023,6,7,17,5,22,937
48.62060,-0.01103,-0.01277,0.00000,0.03343,0.97734,-0.19044,0.0,2023,6,7,17,5,22,949
48.62070,-0.09853,-0.08277,0.00000,0.03050,0.97539,-0.18910,0.0,2023,6,7,17,5,22,960
48.62080,0.02397,0.09223,0.00000,0.03087,0.97856,-0.18873,0.0,2023,6,7,17,5,22,971
48.62090,0.12897,0.02223,0.00000,0.02855,0.97771,-0.18812,0.0,2023,6,7,17,5,22,982
48.62100,-0.15103,0.05723,0.00000,0.02940,0.97637,-0.18703,0.0,2023,6,7,17,5,22,993
48.62110,0.16397,-0.25777,0.00000,0.03099,0.97710,-0.18983,0.0,2023,6,7,17,5,22,5
48.62120,0.04147,0.02223,0.00000,0.03294,0.97441,-0.18739,0.0,2023,6,7,17,5,23,5
48.62130,-0.11603,0.10973,0.00000,0.03331,0.97454,-0.18934,0.0,2023,6,7,17,5,23,16
48.62140,0.00647,0.07473,0.00000,0.03038,0.97612,-0.18861,0.0,2023,6,7,17,5,23,27
48.62150,-0.02853,-0.01277,0.00000,0.03026,0.97673,-0.18581,0.0,2023,6,7,17,5,23,38
48.62160,-0.22103,-0.10027,0.00000,0.03257,0.97624,-0.19032,0.0,2023,6,7,17,5,23,50
48.62170,0.14647,0.02223,0.00000,0.03062,0.97710,-0.18837,0.0,2023,6,7,17,5,23,61
48.62180,0.04147,0.05723,0.00000,0.03282,0.97673,-0.18703,0.0,2023,6,7,17,5,23,72
48.62190,0.23397,0.00473,0.00000,0.03233,0.97527,-0.18959,0.0,2023,6,7,17,5,23,83
48.62200,0.05897,-0.11777,0.00000,0.03221,0.97710,-0.18593,0.0,2023,6,7,17,5,23,94
48.62210,-0.25603,0.10973,0.00000,0.02928,0.97698,-0.18886,0.0,2023,6,7,17,5,23,106
48.62220,0.14647,-0.03027,0.00000,0.03257,0.97698,-0.19032,0.0,2023,6,7,17,5,23,117
48.62230,-0.16853,0.23223,0.00000,0.03245,0.97539,-0.18678,0.0,2023,6,7,17,5,23,128
48.62240,-0.11603,0.03973,0.00000,0.03148,0.97844,-0.18556,0.0,2023,6,7,17,5,23,139
48.62250,0.19897,0.05723,0.00000,0.03099,0.97612,-0.19020,0.0,2023,6,7,17,5,23,150
48.62260,0.00647,-0.10027,0.00000,0.02928,0.97807,-0.18788,0.0,2023,6,7,17,5,23,162
48.62270,-0.20353,-0.18777,0.00000,0.03172,0.97673,-0.19032,0.0,2023,6,7,17,5,23,173
48.62280,0.25147,-0.13527,0.00000,0.03111,0.97698,-0.19056,0.0,2023,6,7,17,5,23,184
48.62290,-0.09853,0.12723,0.00000,0.03416,0.97685,-0.18690,0.0,2023,6,7,17,5,23,195
48.62300,-0.20353,0.00473,0.00000,0.03270,0.97600,-0.18800,0.0,2023,6,7,17,5,23,206
48.62310,-0.02853,0.00473,0.00000,0.02696,0.97783,-0.19081,0.0,2023,6,7,17,5,23,218
48.62320,0.16397,-0.01277,0.00000,0.02916,0.97588,-0.18800,0.0,2023,6,7,17,5,23,229
48.62330,-0.06353,0.02223,0.00000,0.03355,0.97600,-0.18422,0.0,2023,6,7,17,5,23,240
48.62340,-0.16853,0.05723,0.00000,0.02916,0.97783,-0.18849,0.0,2023,6,7,17,5,23,251
48.62350,0.04147,0.17973,0.00000,0.03270,0.97612,-0.19008,0.0,2023,6,7,17,5,23,262
48.62360,0.00647,-0.10027,0.00000,0.03074,0.97637,-0.18642,0.0,2023,6,7,17,5,23,274
48.62370,-0.06353,0.03973,0.00000,0.03087,0.97710,-0.18788,0.0,2023,6,7,17,5,23,285
48.62380,0.09397,-0.03027,0.00000,0.03135,0.97600,-0.18751,0.0,2023,6,7,17,5,23,296
48.62390,-0.02853,0.16223,0.00000,0.03209,0.97490,-0.18507,0.0,2023,6,7,17,5,23,307
48.62400,-0.02853,0.16223,0.00000,0.03221,0.97771,-0.18520,0.0,2023,6,7,17,5,23,318
48.62410,-0.02853,-0.13527,0.00000,0.03196,0.97722,-0.18959,0.0,2023,6,7,17,5,23,330
48.62420,0.00647,-0.03027,0.00000,0.02879,0.97515,-0.19203,0.0,2023,6,7,17,5,23,341
48.62430,0.12897,-0.18777,0.00000,0.03160,0.97673,-0.18788,0.0,2023,6,7,17,5,23,352
48.62440,0.02397,-0.06527,0.00000,0.03148,0.97539,-0.18617,0.0,2023,6,7,17,5,23,363
48.62450,-0.13353,0.05723,0.00000,0.02843,0.97746,-0.19081,0.0,2023,6,7,17,5,23,374
48.62460,0.26897,0.02223,0.00000,0.02965,0.97600,-0.19117,0.0,2023,6,7,17,5,23,386
48.62470,0.05897,0.03973,0.00000,0.03062,0.97515,-0.18934,0.0,2023,6,7,17,5,23,397
48.62480,-0.25603,-0.04777,0.00000,0.03074,0.97624,-0.18825,0.0,2023,6,7,17,5,23,408
48.62490,0.11147,-0.10027,0.00000,0.03221,0.97820,-0.19130,0.0,2023,6,7,17,5,23,419
48.62500,-0.06353,-0.01277,0.00000,0.03196,0.97441,-0.18666,0.0,2023,6,7,17,5,23,430
48.62510,-0.01103,0.02223,0.00000,0.02867,0.97795,-0.18825,0.0,2023,6,7,17,5,23,442
48.62520,0.30397,-0.22277,0.00000,0.03196,0.97759,-0.19032,0.0,2023,6,7,17,5,23,453
48.62530,-0.09853,-0.04777,0.00000,0.03196,0.97685,-0.18959,0.0,2023,6,7,17,5,23,464
