#2023/06/07 12:33:21
time,wx,wy,wz,ax,ay,az,yy,MM,dd,hh,mm,ss,ms
39.50550,0.02450,-0.02993,0.00000,0.02672,0.97502,-0.19630,0.0,2023,6,7,12,33,22,611
39.50560,-0.13300,-0.27493,0.00000,0.03001,0.97734,-0.19447,0.0,2023,6,7,12,33,22,621
39.50570,-0.23800,0.09257,0.00000,0.03026,0.97368,-0.19727,0.0,2023,6,7,12,33,22,631
39.50580,-0.01050,-0.01243,0.00000,0.02733,0.97368,-0.19496,0.0,2023,6,7,12,33,22,641
39.50590,-0.13300,0.00507,0.00000,0.03087,0.97661,-0.19557,0.0,2023,6,7,12,33,22,651
39.50600,-0.08050,-0.04743,0.00000,0.02879,0.97807,-0.19532,0.0,2023,6,7,12,33,22,661
39.50610,0.18200,-0.06493,0.00000,0.02696,0.97441,-0.19447,0.0,2023,6,7,12,33,22,671
39.50620,-0.13300,-0.01243,0.00000,0.02757,0.97380,-0.19459,0.0,2023,6,7,12,33,22,681
39.50630,-0.04550,-0.01243,0.00000,0.02586,0.97563,-0.19435,0.0,2023,6,7,12,33,22,691
39.50640,-0.11550,-0.02993,0.00000,0.02525,0.97649,-0.19459,0.0,2023,6,7,12,33,22,701
39.50650,-0.15050,-0.08243,0.00000,0.02794,0.97466,-0.19361,0.0,2023,6,7,12,33,22,711
39.50660,0.04200,-0.11743,0.00000,0.03038,0.97661,-0.19386,0.0,2023,6,7,12,33,22,721
39.50670,0.07700,0.12757,0.00000,0.02708,0.97588,-0.19459,0.0,2023,6,7,12,33,22,731
39.50680,0.00700,0.00507,0.00000,0.02684,0.97441,-0.19508,0.0,2023,6,7,12,33,22,741
39.50690,-0.01050,0.09257,0.00000,0.02904,0.97661,-0.19459,0.0,2023,6,7,12,33,22,751
39.50700,0.02450,0.00507,0.00000,0.02879,0.97527,-0.19288,0.0,2023,6,7,12,33,22,761
39.50710,0.07700,-0.08243,0.00000,0.02782,0.97661,-0.19496,0.0,2023,6,7,12,33,22,771
39.50720,0.05950,0.14507,0.00000,0.02843,0.97661,-0.19349,0.0,2023,6,7,12,33,22,781
39.50730,0.05950,0.07507,0.00000,0.02891,0.97441,-0.19557,0.0,2023,6,7,12,33,22,791
39.50740,-0.02800,-0.09993,0.00000,0.02721,0.97539,-0.19569,0.0,2023,6,7,12,33,22,801
39.50750,-0.08050,0.11007,0.00000,0.02977,0.97368,-0.19483,0.0,2023,6,7,12,33,22,811
39.50760,-0.11550,0.18007,0.00000,0.02879,0.97722,-0.19239,0.0,2023,6,7,12,33,22,821
39.50770,-0.11550,0.00507,0.00000,0.02855,0.97588,-0.19557,0.0,2023,6,7,12,33,22,831
39.50780,-0.08050,0.04007,0.00000,0.03001,0.97429,-0.19361,0.0,2023,6,7,12,33,22,841
39.50790,-0.01050,-0.11743,0.00000,0.03050,0.97502,-0.19654,0.0,2023,6,7,12,33,22,851
39.50800,-0.13300,-0.02993,0.00000,0.02452,0.97832,-0.19508,0.0,2023,6,7,12,33,22,861
39.50810,0.12950,-0.01243,0.00000,0.02794,0.97502,-0.19398,0.0,2023,6,7,12,33,22,871
39.50820,-0.22050,0.04007,0.00000,0.02721,0.97478,-0.19508,0.0,2023,6,7,12,33,22,881
39.50830,0.00700,0.09257,0.00000,0.02904,0.97563,-0.19130,0.0,2023,6,7,12,33,22,891
39.50840,0.02450,0.12757,0.00000,0.02952,0.97588,-0.19239,0.0,2023,6,7,12,33,22,901
39.50850,0.04200,0.02257,0.00000,0.02843,0.97710,-0.19313,0.0,2023,6,7,12,33,22,911
39.50860,-0.15050,-0.01243,0.00000,0.02989,0.97685,-0.19593,0.0,2023,6,7,12,33,22,921
39.50870,0.09450,-0.13493,0.00000,0.03013,0.97746,-0.19459,0.0,2023,6,7,12,33,22,931
39.50880,0.04200,-0.11743,0.00000,0.02843,0.97685,-0.19459,0.0,2023,6,7,12,33,22,941
39.50890,0.07700,-0.08243,0.00000,0.02830,0.97734,-0.19398,0.0,2023,6,7,12,33,22,951
39.50900,0.04200,0.09257,0.00000,0.02794,0.97393,-0.19593,0.0,2023,6,7,12,33,22,961
39.50910,-0.01050,-0.04743,0.00000,0.03062,0.97600,-0.19679,0.0,2023,6,7,12,33,22,971
39.50920,-0.01050,0.04007,0.00000,0.02891,0.97502,-0.19569,0.0,2023,6,7,12,33,22,981
39.50930,-0.11550,0.00507,0.00000,0.02818,0.97551,-0.19374,0.0,2023,6,7,12,33,22,991
39.50940,-0.06300,0.07507,0.00000,0.02696,0.97661,-0.19422,0.0,2023,6,7,12,33,22,1
39.50950,-0.06300,0.25007,0.00000,0.02940,0.97588,-0.19630,0.0,2023,6,7,12,33,22,11
39.50960,0.04200,0.02257,0.00000,0.02855,0.97417,-0.19630,0.0,2023,6,7,12,33,22,21
39.50970,-0.25550,-0.04743,0.00000,0.03013,0.97563,-0.19386,0.0,2023,6,7,12,33,22,31
39.50980,-0.13300,0.19757,0.00000,0.03026,0.97637,-0.19544,0.0,2023,6,7,12,33,22,41
39.50990,0.04200,0.04007,0.00000,0.02904,0.97588,-0.19349,0.0,2023,6,7,12,33,22,51
39.51000,0.18200,-0.04743,0.00000,0.02806,0.97637,-0.19593,0.0,2023,6,7,12,33,22,61
39.51010,0.07700,-0.01243,0.00000,0.02904,0.97685,-0.19496,0.0,2023,6,7,12,33,22,71
39.51020,-0.06300,0.11007,0.00000,0.02965,0.97454,-0.19264,0.0,2023,6,7,12,33,22,81
39.51030,0.00700,-0.02993,0.00000,0.02867,0.97649,-0.19471,0.0,2023,6,7,12,33,22,91
39.51040,-0.09800,-0.02993,0.00000,0.02843,0.97844,-0.19374,0.0,2023,6,7,12,33,22,101
39.51050,0.11200,0.00507,0.00000,0.02830,0.97344,-0.19349,0.0,2023,6,7,12,33,22,111
39.51060,0.14700,-0.15243,0.00000,0.02721,0.97454,-0.19593,0.0,2023,6,7,12,33,22,121
39.51070,-0.15050,0.25007,0.00000,0.02745,0.97515,-0.19593,0.0,2023,6,7,12,33,23,131
39.51080,0.05950,0.00507,0.00000,0.02843,0.97588,-0.19642,0.0,2023,6,7,12,33,23,141
39.51090,-0.18550,0.21507,0.00000,0.02916,0.97405,-0.19605,0.0,2023,6,7,12,33,23,151
39.51100,0.11200,-0.06493,0.00000,0.02965,0.97490,-0.19532,0.0,2023,6,7,12,33,23,161
39.51110,0.14700,-0.11743,0.00000,0.02696,0.97624,-0.19386,0.0,2023,6,7,12,33,23,171
39.51120,0.18200,-0.04743,0.00000,0.02965,0.97771,-0.19557,0.0,2023,6,7,12,33,23,181
39.51130,0.16450,-0.06493,0.00000,0.02830,0.97319,-0.19618,0.0,2023,6,7,12,33,23,191
39.51140,-0.02800,0.12757,0.00000,0.02769,0.97466,-0.19422,0.0,2023,6,7,12,33,23,201
39.51150,0.02450,-0.06493,0.00000,0.03001,0.97649,-0.19300,0.0,2023,6,7,12,33,23,211
39.51160,0.00700,0.11007,0.00000,0.02879,0.97734,-0.19227,0.0,2023,6,7,12,33,23,221
39.51170,-0.04550,-0.02993,0.00000,0.02696,0.97637,-0.19618,0.0,2023,6,7,12,33,23,231
39.51180,0.18200,0.07507,0.00000,0.02940,0.97539,-0.19386,0.0,2023,6,7,12,33,23,241
39.51190,-0.09800,0.18007,0.00000,0.02757,0.97551,-0.19203,0.0,2023,6,7,12,33,23,251
39.51200,0.02450,0.00507,0.00000,0.02574,0.97551,-0.19557,0.0,2023,6,7,12,33,23,261
39.51210,0.18200,-0.11743,0.00000,0.02867,0.97771,-0.19593,0.0,2023,6,7,12,33,23,271
39.51220,-0.01050,-0.06493,0.00000,0.02928,0.97673,-0.19593,0.0,2023,6,7,12,33,23,281
39.51230,-0.02800,0.02257,0.00000,0.03013,0.97417,-0.19325,0.0,2023,6,7,12,33,23,291
39.51240,-0.09800,0.07507,0.00000,0.02952,0.97441,-0.19557,0.0,2023,6,7,12,33,23,301
39.51250,0.09450,0.09257,0.00000,0.02867,0.97673,-0.19447,0.0,2023,6,7,12,33,23,311
39.51260,-0.16800,0.02257,0.00000,0.03001,0.97588,-0.19544,0.0,2023,6,7,12,33,23,321
39.51270,-0.02800,0.09257,0.00000,0.03160,0.97637,-0.19361,0.0,2023,6,7,12,33,23,331
39.51280,-0.08050,0.02257,0.00000,0.03123,0.97478,-0.19447,0.0,2023,6,7,12,33,23,341
39.51290,-0.01050,-0.01243,0.00000,0.02830,0.97332,-0.19630,0.0,2023,6,7,12,33,23,351
39.51300,-0.13300,-0.08243,0.00000,0.02855,0.97844,-0.19435,0.0,2023,6,7,12,33,23,361
39.51310,-0.04550,0.00507,0.00000,0.02684,0.97661,-0.19227,0.0,2023,6,7,12,33,23,371
39.51320,-0.20300,-0.04743,0.00000,0.02818,0.97710,-0.19410,0.0,2023,6,7,12,33,23,381
39.51330,-0.04550,0.11007,0.00000,0.02830,0.97478,-0.19435,0.0,2023,6,7,12,33,23,391
39.51340,0.18200,-0.08243,0.00000,0.02721,0.97710,-0.19349,0.0,2023,6,7,12,33,23,401
39.51350,-0.13300,-0.02993,0.00000,0.03038,0.97612,-0.19471,0.0,2023,6,7,12,33,23,411
39.51360,0.04200,0.23257,0.00000,0.02818,0.97515,-0.19435,0.0,2023,6,7,12,33,23,421
39.51370,-0.11550,0.16257,0.00000,0.02989,0.97588,-0.19361,0.0,2023,6,7,12,33,23,431
39.51380,-0.01050,0.07507,0.00000,0.02818,0.97588,-0.19410,0.0,2023,6,7,12,33,23,441
39.51390,0.02450,-0.09993,0.00000,0.02843,0.97637,-0.19374,0.0,2023,6,7,12,33,23,451
39.51400,0.04200,0.07507,0.00000,0.03001,0.97600,-0.19191,0.0,2023,6,7,12,33,23,461
39.51410,-0.04550,-0.02993,0.00000,0.02782,0.97466,-0.19483,0.0,2023,6,7,12,33,23,471
39.51420,0.19950,0.05757,0.00000,0.02891,0.97685,-0.19471,0.0,2023,6,7,12,33,23,481
39.51430,-0.13300,0.09257,0.00000,0.02916,0.97466,-0.19715,0.0,2023,6,7,12,33,23,491
39.51440,0.00700,0.05757,0.00000,0.02928,0.97685,-0.19471,0.0,2023,6,7,12,33,23,501
39.51450,-0.04550,-0.22243,0.00000,0.03001,0.97649,-0.19715,0.0,2023,6,7,12,33,23,511
39.51460,0.07700,0.00507,0.00000,0.03013,0.97710,-0.19471,0.0,2023,6,7,12,33,23,521
39.51470,-0.01050,0.18007,0.00000,0.02891,0.97551,-0.19252,0.0,2023,6,7,12,33,23,531
39.51480,-0.04550,-0.11743,0.00000,0.02904,0.97661,-0.19508,0.0,2023,6,7,12,33,23,541
39.51490,-0.01050,-0.04743,0.00000,0.02904,0.97527,-0.19422,0.0,2023,6,7,12,33,23,551
39.51500,-0.02800,-0.11743,0.00000,0.02721,0.97673,-0.19593,0.0,2023,6,7,12,33,23,561
39.51510,-0.06300,0.02257,0.00000,0.02769,0.97490,-0.19325,0.0,2023,6,7,12,33,23,571
39.51520,-0.06300,-0.16993,0.00000,0.02952,0.97380,-0.19447,0.0,2023,6,7,12,33,23,581
39.51530,0.05950,0.05757,0.00000,0.02928,0.97685,-0.19483,0.0,2023,6,7,12,33,23,591
39.51540,-0.16800,-0.11743,0.00000,0.02647,0.97576,-0.19496,0.0,2023,6,7,12,33,23,601
39.51550,-0.15050,0.04007,0.00000,0.02489,0.97466,-0.19569,0.0,2023,6,7,12,33,23,611
39.51560,-0.04550,-0.11743,0.00000,0.02855,0.97649,-0.19276,0.0,2023,6,7,12,33,23,621
39.51570,0.09450,0.04007,0.00000,0.02806,0.97734,-0.19581,0.0,2023,6,7,12,33,23,631
39.51580,-0.06300,0.02257,0.00000,0.02745,0.97612,-0.19581,0.0,2023,6,7,12,33,23,641
39.51590,0.21700,0.00507,0.00000,0.02891,0.97466,-0.19325,0.0,2023,6,7,12,33,23,651
39.51600,-0.04550,0.04007,0.00000,0.02745,0.97551,-0.19374,0.0,2023,6,7,12,33,23,661
39.51610,0.07700,0.12757,0.00000,0.02538,0.97551,-0.19471,0.0,2023,6,7,12,33,23,671
39.51620,0.00700,0.09257,0.00000,0.02769,0.97539,-0.19459,0.0,2023,6,7,12,33,23,681
39.51630,0.16450,-0.06493,0.00000,0.02782,0.97539,-0.19435,0.0,2023,6,7,12,33,23,691
39.51640,-0.16800,0.05757,0.00000,0.02940,0.97551,-0.19532,0.0,2023,6,7,12,33,23,701
39.51650,0.12950,-0.11743,0.00000,0.03123,0.97856,-0.19557,0.0,2023,6,7,12,33,23,711
39.51660,0.02450,-0.01243,0.00000,0.02879,0.97710,-0.19532,0.0,2023,6,7,12,33,23,721
39.51670,0.00700,0.19757,0.00000,0.02891,0.97893,-0.19215,0.0,2023,6,7,12,33,23,731
39.51680,-0.15050,0.33757,0.00000,0.02965,0.97515,-0.19422,0.0,2023,6,7,12,33,23,741
39.51690,0.00700,-0.15243,0.00000,0.02721,0.97685,-0.19325,0.0,2023,6,7,12,33,23,751
39.51700,0.05950,-0.04743,0.00000,0.02733,0.97820,-0.19447,0.0,2023,6,7,12,33,23,761
39.51710,0.02450,-0.16993,0.00000,0.02904,0.97417,-0.19605,0.0,2023,6,7,12,33,23,771
39.51720,-0.18550,-0.02993,0.00000,0.02965,0.97258,-0.19300,0.0,2023,6,7,12,33,23,781
39.51730,0.11200,-0.11743,0.00000,0.02940,0.97734,-0.19178,0.0,2023,6,7,12,33,23,791
39.51740,0.09450,-0.08243,0.00000,0.02721,0.97563,-0.19654,0.0,2023,6,7,12,33,23,801
39.51750,-0.01050,0.09257,0.00000,0.03074,0.97771,-0.19410,0.0,2023,6,7,12,33,23,811
39.51760,-0.08050,0.14507,0.00000,0.02830,0.97588,-0.19191,0.0,2023,6,7,12,33,23,821
39.51770,0.00700,-0.02993,0.00000,0.03038,0.97649,-0.19544,0.0,2023,6,7,12,33,23,831
39.51780,0.00700,-0.04743,0.00000,0.02818,0.97710,-0.19642,0.0,2023,6,7,12,33,23,841
39.51790,0.07700,-0.22243,0.00000,0.02867,0.97502,-0.19605,0.0,2023,6,7,12,33,23,851
39.51800,-0.01050,-0.04743,0.00000,0.02769,0.97502,-0.19642,0.0,2023,6,7,12,33,23,861
39.51810,-0.06300,-0.20493,0.00000,0.03196,0.97393,-0.19471,0.0,2023,6,7,12,33,23,871
39.51820,0.05950,-0.11743,0.00000,0.03087,0.97441,-0.19569,0.0,2023,6,7,12,33,23,881
39.51830,-0.01050,-0.01243,0.00000,0.02647,0.97637,-0.19471,0.0,2023,6,7,12,33,23,891
39.51840,-0.11550,0.05757,0.00000,0.03013,0.97649,-0.19544,0.0,2023,6,7,12,33,23,901
39.51850,-0.01050,-0.15243,0.00000,0.02867,0.97771,-0.19679,0.0,2023,6,7,12,33,23,911
39.51860,0.05950,0.05757,0.00000,0.02721,0.97649,-0.19532,0.0,2023,6,7,12,33,23,921
39.51870,-0.04550,0.09257,0.00000,0.02904,0.97527,-0.19471,0.0,2023,6,7,12,33,23,931
39.51880,-0.15050,0.05757,0.00000,0.03001,0.97527,-0.19666,0.0,2023,6,7,12,33,23,941
39.51890,-0.13300,0.11007,0.00000,0.02574,0.97844,-0.19544,0.0,2023,6,7,12,33,23,951
39.51900,0.09450,0.05757,0.00000,0.02586,0.97600,-0.19544,0.0,2023,6,7,12,33,23,961
39.51910,0.05950,-0.08243,0.00000,0.02782,0.97502,-0.19520,0.0,2023,6,7,12,33,23,971
39.51920,-0.04550,0.30257,0.00000,0.03013,0.97551,-0.19520,0.0,2023,6,7,12,33,23,981
39.51930,-0.04550,0.00507,0.00000,0.02806,0.97417,-0.19459,0.0,2023,6,7,12,33,23,991
39.51940,-0.01050,0.05757,0.00000,0.02745,0.97490,-0.19520,0.0,2023,6,7,12,33,23,1
39.51950,-0.13300,-0.04743,0.00000,0.02721,0.97527,-0.19410,0.0,2023,6,7,12,33,23,11
39.51960,-0.02800,-0.09993,0.00000,0.02940,0.97685,-0.19508,0.0,2023,6,7,12,33,23,21
39.51970,0.09450,-0.06493,0.00000,0.02940,0.97502,-0.19593,0.0,2023,6,7,12,33,24,31
39.51980,0.04200,-0.15243,0.00000,0.02940,0.97746,-0.19325,0.0,2023,6,7,12,33,24,41
39.51990,-0.04550,-0.11743,0.00000,0.02891,0.97710,-0.19435,0.0,2023,6,7,12,33,24,51
39.52000,0.16450,-0.23993,0.00000,0.02757,0.97600,-0.19557,0.0,2023,6,7,12,33,24,61
39.52010,0.23450,-0.02993,0.00000,0.02843,0.97649,-0.19642,0.0,2023,6,7,12,33,24,71
39.52020,0.02450,-0.08243,0.00000,0.03148,0.97466,-0.19276,0.0,2023,6,7,12,33,24,81
39.52030,0.09450,0.04007,0.00000,0.02794,0.97454,-0.19349,0.0,2023,6,7,12,33,24,91
39.52040,-0.06300,-0.13493,0.00000,0.02818,0.97527,-0.19544,0.0,2023,6,7,12,33,24,101
39.52050,-0.15050,-0.04743,0.00000,0.03172,0.97722,-0.19581,0.0,2023,6,7,12,33,24,111
39.52060,0.07700,-0.06493,0.00000,0.02965,0.97551,-0.19496,0.0,2023,6,7,12,33,24,121
39.52070,-0.02800,-0.08243,0.00000,0.02806,0.97588,-0.19520,0.0,2023,6,7,12,33,24,131
39.52080,0.09450,0.02257,0.00000,0.02952,0.97649,-0.19496,0.0,2023,6,7,12,33,24,141
39.52090,0.02450,-0.02993,0.00000,0.02879,0.97539,-0.19532,0.0,2023,6,7,12,33,24,151
39.52100,-0.02800,0.14507,0.00000,0.02940,0.97661,-0.19300,0.0,2023,6,7,12,33,24,161
39.52110,0.04200,-0.08243,0.00000,0.02989,0.97502,-0.19544,0.0,2023,6,7,12,33,24,171
39.52120,-0.13300,-0.04743,0.00000,0.02830,0.97551,-0.19496,0.0,2023,6,7,12,33,24,181
39.52130,-0.15050,0.05757,0.00000,0.02843,0.97637,-0.19508,0.0,2023,6,7,12,33,24,191
39.52140,0.02450,0.00507,0.00000,0.03038,0.97661,-0.19569,0.0,2023,6,7,12,33,24,201
39.52150,0.04200,-0.16993,0.00000,0.02830,0.97551,-0.19532,0.0,2023,6,7,12,33,24,211
39.52160,-0.09800,0.14507,0.00000,0.02782,0.97539,-0.19386,0.0,2023,6,7,12,33,24,221
39.52170,0.19950,-0.23993,0.00000,0.02806,0.97746,-0.19459,0.0,2023,6,7,12,33,24,231
39.52180,-0.01050,0.09257,0.00000,0.02952,0.97698,-0.19313,0.0,2023,6,7,12,33,24,241
39.52190,-0.01050,-0.06493,0.00000,0.02672,0.97600,-0.19422,0.0,2023,6,7,12,33,24,251
39.52200,-0.06300,0.21507,0.00000,0.03038,0.97746,-0.19569,0.0,2023,6,7,12,33,24,261
39.52210,0.07700,-0.13493,0.00000,0.02647,0.97832,-0.19496,0.0,2023,6,7,12,33,24,271
39.52220,0.09450,0.02257,0.00000,0.02684,0.97478,-0.19520,0.0,2023,6,7,12,33,24,281
39.52230,-0.13300,-0.13493,0.00000,0.02745,0.97563,-0.19581,0.0,2023,6,7,12,33,24,291
39.52240,-0.02800,-0.02993,0.00000,0.02940,0.97563,-0.19691,0.0,2023,6,7,12,33,24,301
39.52250,0.07700,0.05757,0.00000,0.02708,0.97563,-0.19471,0.0,2023,6,7,12,33,24,311
39.52260,0.02450,0.16257,0.00000,0.02965,0.97637,-0.19605,0.0,2023,6,7,12,33,24,321
39.52270,-0.08050,0.18007,0.00000,0.02879,0.97588,-0.19520,0.0,2023,6,7,12,33,24,331
39.52280,0.05950,0.07507,0.00000,0.02745,0.97673,-0.19386,0.0,2023,6,7,12,33,24,341
39.52290,0.14700,-0.22243,0.00000,0.03013,0.97685,-0.19422,0.0,2023,6,7,12,33,24,351
39.52300,0.05950,0.00507,0.00000,0.02916,0.97588,-0.19520,0.0,2023,6,7,12,33,24,361
39.52310,-0.04550,0.14507,0.00000,0.02684,0.97661,-0.19422,0.0,2023,6,7,12,33,24,371
39.52320,0.00700,-0.02993,0.00000,0.02794,0.97405,-0.19752,0.0,2023,6,7,12,33,24,381
39.52330,0.00700,-0.08243,0.00000,0.02879,0.97600,-0.19520,0.0,2023,6,7,12,33,24,391
39.52340,0.09450,-0.13493,0.00000,0.02977,0.97576,-0.19532,0.0,2023,6,7,12,33,24,401
39.52350,-0.04550,0.11007,0.00000,0.02599,0.97527,-0.19630,0.0,2023,6,7,12,33,24,411
39.52360,0.07700,-0.15243,0.00000,0.02904,0.97551,-0.19361,0.0,2023,6,7,12,33,24,421
39.52370,0.07700,0.09257,0.00000,0.03050,0.97368,-0.19337,0.0,2023,6,7,12,33,24,431
39.52380,0.05950,0.05757,0.00000,0.02928,0.97637,-0.19630,0.0,2023,6,7,12,33,24,441
39.52390,-0.08050,0.25007,0.00000,0.03074,0.97612,-0.19471,0.0,2023,6,7,12,33,24,451
39.52400,-0.01050,0.23257,0.00000,0.02940,0.97637,-0.19435,0.0,2023,6,7,12,33,24,461
39.52410,0.09450,-0.13493,0.00000,0.02904,0.97600,-0.19349,0.0,2023,6,7,12,33,24,471
39.52420,0.00700,0.00507,0.00000,0.02684,0.97698,-0.19508,0.0,2023,6,7,12,33,24,481
39.52430,0.05950,-0.11743,0.00000,0.03001,0.97295,-0.19276,0.0,2023,6,7,12,33,24,491
39.52440,0.00700,-0.20493,0.00000,0.02672,0.97380,-0.19508,0.0,2023,6,7,12,33,24,501
39.52450,0.07700,-0.15243,0.00000,0.02855,0.97478,-0.19300,0.0,2023,6,7,12,33,24,511
39.52460,-0.13300,0.16257,0.00000,0.02660,0.97429,-0.19569,0.0,2023,6,7,12,33,24,521
39.52470,0.02450,0.12757,0.00000,0.02733,0.97807,-0.19410,0.0,2023,6,7,12,33,24,531
39.52480,-0.15050,0.14507,0.00000,0.02696,0.97393,-0.19398,0.0,2023,6,7,12,33,24,541
39.52490,-0.06300,0.14507,0.00000,0.03074,0.97490,-0.19252,0.0,2023,6,7,12,33,24,551
39.52500,0.14700,0.12757,0.00000,0.03123,0.97698,-0.19130,0.0,2023,6,7,12,33,24,561
39.52510,0.05950,0.04007,0.00000,0.02867,0.97441,-0.19483,0.0,2023,6,7,12,33,24,571
39.52520,-0.13300,0.09257,0.00000,0.02635,0.97661,-0.19349,0.0,2023,6,7,12,33,24,581
39.52530,0.09450,-0.04743,0.00000,0.02952,0.97600,-0.19508,0.0,2023,6,7,12,33,24,591
39.52540,0.02450,-0.09993,0.00000,0.02952,0.97673,-0.19203,0.0,2023,6,7,12,33,24,601
39.52550,0.12950,-0.23993,0.00000,0.02794,0.97478,-0.19447,0.0,2023,6,7,12,33,24,611
39.52560,-0.09800,-0.04743,0.00000,0.02989,0.97832,-0.19459,0.0,2023,6,7,12,33,24,621
39.52570,0.09450,-0.15243,0.00000,0.02867,0.97490,-0.19410,0.0,2023,6,7,12,33,24,631
39.52580,0.07700,0.02257,0.00000,0.02745,0.97612,-0.19520,0.0,2023,6,7,12,33,24,641
39.52590,-0.01050,-0.16993,0.00000,0.02891,0.97527,-0.19337,0.0,2023,6,7,12,33,24,651
39.52600,-0.08050,0.16257,0.00000,0.02855,0.97624,-0.19361,0.0,2023,6,7,12,33,24,661
39.52610,0.07700,-0.04743,0.00000,0.02684,0.97588,-0.19337,0.0,2023,6,7,12,33,24,671
39.52620,-0.01050,-0.02993,0.00000,0.02647,0.97649,-0.19569,0.0,2023,6,7,12,33,24,681
39.52630,0.00700,0.05757,0.00000,0.03038,0.97759,-0.19337,0.0,2023,6,7,12,33,24,691
39.52640,-0.06300,0.02257,0.00000,0.02599,0.97466,-0.19386,0.0,2023,6,7,12,33,24,701
39.52650,0.02450,-0.25743,0.00000,0.02745,0.97624,-0.19435,0.0,2023,6,7,12,33,24,711
39.52660,0.09450,-0.16993,0.00000,0.02965,0.97588,-0.19410,0.0,2023,6,7,12,33,24,721
39.52670,-0.09800,0.09257,0.00000,0.02940,0.97795,-0.19325,0.0,2023,6,7,12,33,24,731
39.52680,0.05950,0.05757,0.00000,0.02672,0.97588,-0.19569,0.0,2023,6,7,12,33,24,741
39.52690,-0.23800,0.21507,0.00000,0.02660,0.97527,-0.19361,0.0,2023,6,7,12,33,24,751
39.52700,0.26950,-0.06493,0.00000,0.02916,0.97600,-0.19435,0.0,2023,6,7,12,33,24,761
39.52710,-0.01050,0.16257,0.00000,0.02733,0.97771,-0.19398,0.0,2023,6,7,12,33,24,771
39.52720,0.04200,0.12757,0.00000,0.03001,0.97746,-0.19349,0.0,2023,6,7,12,33,24,781
39.52730,-0.06300,0.02257,0.00000,0.02843,0.97380,-0.19300,0.0,2023,6,7,12,33,24,791
39.52740,-0.16800,0.04007,0.00000,0.02977,0.97563,-0.19288,0.0,2023,6,7,12,33,24,801
39.52750,0.18200,-0.15243,0.00000,0.02879,0.97698,-0.19215,0.0,2023,6,7,12,33,24,811
39.52760,0.07700,0.04007,0.00000,0.02745,0.97429,-0.19264,0.0,2023,6,7,12,33,24,821
39.52770,-0.04550,0.12757,0.00000,0.02733,0.97478,-0.19300,0.0,2023,6,7,12,33,24,831
39.52780,0.07700,-0.06493,0.00000,0.02855,0.97490,-0.19276,0.0,2023,6,7,12,33,24,841
39.52790,0.21700,-0.08243,0.00000,0.03026,0.97771,-0.19361,0.0,2023,6,7,12,33,24,851
39.52800,0.25200,-0.16993,0.00000,0.02733,0.97356,-0.19154,0.0,2023,6,7,12,33,24,861
39.52810,0.09450,-0.15243,0.00000,0.02733,0.97380,-0.19276,0.0,2023,6,7,12,33,24,871
39.52820,-0.11550,-0.11743,0.00000,0.03013,0.97856,-0.19825,0.0,2023,6,7,12,33,24,881
39.52830,0.05950,0.09257,0.00000,0.02940,0.97515,-0.19264,0.0,2023,6,7,12,33,24,891
39.52840,-0.13300,0.07507,0.00000,0.02940,0.97771,-0.19435,0.0,2023,6,7,12,33,24,901
39.52850,-0.02800,-0.01243,0.00000,0.03111,0.97844,-0.19605,0.0,2023,6,7,12,33,24,911
39.52860,-0.16800,0.09257,0.00000,0.02660,0.97393,-0.19203,0.0,2023,6,7,12,33,24,921
39.52870,0.14700,-0.18743,0.00000,0.02794,0.97563,-0.19520,0.0,2023,6,7,12,33,25,931
39.52880,0.18200,0.05757,0.00000,0.03050,0.97710,-0.19252,0.0,2023,6,7,12,33,25,941
39.52890,0.04200,0.11007,0.00000,0.02855,0.97539,-0.19435,0.0,2023,6,7,12,33,25,951
39.52900,-0.04550,-0.09993,0.00000,0.02708,0.97295,-0.19459,0.0,2023,6,7,12,33,25,961
39.52910,-0.02800,-0.09993,0.00000,0.02879,0.97551,-0.19227,0.0,2023,6,7,12,33,25,971
39.52920,-0.11550,0.12757,0.00000,0.03111,0.97466,-0.19386,0.0,2023,6,7,12,33,25,981
39.52930,-0.20300,0.12757,0.00000,0.02879,0.97563,-0.19496,0.0,2023,6,7,12,33,25,991
39.52940,-0.09800,0.09257,0.00000,0.03001,0.97441,-0.19117,0.0,2023,6,7,12,33,25,1
39.52950,-0.08050,0.00507,0.00000,0.02879,0.97673,-0.19337,0.0,2023,6,7,12,33,25,11
39.52960,0.07700,0.11007,0.00000,0.02782,0.97661,-0.19435,0.0,2023,6,7,12,33,25,21
39.52970,-0.02800,0.07507,0.00000,0.02806,0.97698,-0.19191,0.0,2023,6,7,12,33,25,31
39.52980,0.04200,0.07507,0.00000,0.03038,0.97722,-0.19447,0.0,2023,6,7,12,33,25,41
39.52990,-0.02800,-0.01243,0.00000,0.02745,0.97502,-0.19459,0.0,2023,6,7,12,33,25,51
39.53000,-0.02800,0.09257,0.00000,0.02818,0.97612,-0.19569,0.0,2023,6,7,12,33,25,61
39.53010,-0.22050,0.07507,0.00000,0.02623,0.97478,-0.19374,0.0,2023,6,7,12,33,25,71
39.53020,-0.20300,0.21507,0.00000,0.03001,0.97527,-0.19508,0.0,2023,6,7,12,33,25,81
39.53030,0.14700,-0.04743,0.00000,0.03001,0.97441,-0.19459,0.0,2023,6,7,12,33,25,91
39.53040,-0.11550,0.07507,0.00000,0.02916,0.97490,-0.19447,0.0,2023,6,7,12,33,25,101
39.53050,0.18200,-0.09993,0.00000,0.02818,0.97612,-0.19410,0.0,2023,6,7,12,33,25,111
39.53060,-0.02800,0.09257,0.00000,0.02647,0.97722,-0.19435,0.0,2023,6,7,12,33,25,121
39.53070,0.04200,-0.11743,0.00000,0.02843,0.97661,-0.19435,0.0,2023,6,7,12,33,25,131
39.53080,0.14700,-0.13493,0.00000,0.02977,0.97612,-0.19410,0.0,2023,6,7,12,33,25,141
39.53090,-0.23800,-0.04743,0.00000,0.02818,0.97417,-0.19483,0.0,2023,6,7,12,33,25,151
39.53100,0.07700,-0.02993,0.00000,0.02794,0.97527,-0.19459,0.0,2023,6,7,12,33,25,161
39.53110,0.05950,0.02257,0.00000,0.02806,0.97515,-0.19410,0.0,2023,6,7,12,33,25,171
39.53120,0.00700,0.21507,0.00000,0.02672,0.97685,-0.19398,0.0,2023,6,7,12,33,25,181
39.53130,-0.06300,-0.04743,0.00000,0.03026,0.97527,-0.19410,0.0,2023,6,7,12,33,25,191
39.53140,-0.13300,0.30257,0.00000,0.02916,0.97649,-0.19142,0.0,2023,6,7,12,33,25,201
39.53150,-0.06300,0.02257,0.00000,0.02940,0.97685,-0.19300,0.0,2023,6,7,12,33,25,211
39.53160,-0.02800,-0.11743,0.00000,0.02818,0.97649,-0.19447,0.0,2023,6,7,12,33,25,221
39.53170,0.02450,-0.01243,0.00000,0.02769,0.97502,-0.19325,0.0,2023,6,7,12,33,25,231
39.53180,0.02450,-0.15243,0.00000,0.03026,0.97454,-0.19398,0.0,2023,6,7,12,33,25,241
39.53190,0.05950,-0.02993,0.00000,0.02733,0.97502,-0.19361,0.0,2023,6,7,12,33,25,251
39.53200,0.12950,-0.02993,0.00000,0.02855,0.97661,-0.19374,0.0,2023,6,7,12,33,25,261
39.53210,-0.01050,0.11007,0.00000,0.03074,0.97600,-0.19313,0.0,2023,6,7,12,33,25,271
39.53220,0.09450,0.09257,0.00000,0.02928,0.97551,-0.19264,0.0,2023,6,7,12,33,25,281
39.53230,-0.01050,0.09257,0.00000,0.03013,0.97661,-0.19459,0.0,2023,6,7,12,33,25,291
39.53240,-0.08050,0.04007,0.00000,0.03001,0.97563,-0.19337,0.0,2023,6,7,12,33,25,301
39.53250,-0.06300,-0.15243,0.00000,0.02660,0.97685,-0.19337,0.0,2023,6,7,12,33,25,311
39.53260,-0.08050,0.07507,0.00000,0.02830,0.97527,-0.19483,0.0,2023,6,7,12,33,25,321
39.53270,-0.18550,-0.16993,0.00000,0.02952,0.97490,-0.19459,0.0,2023,6,7,12,33,25,331
39.53280,-0.09800,-0.02993,0.00000,0.02940,0.97673,-0.19398,0.0,2023,6,7,12,33,25,341
39.53290,0.12950,-0.20493,0.00000,0.02928,0.97600,-0.19569,0.0,2023,6,7,12,33,25,351
39.53300,-0.04550,-0.01243,0.00000,0.02843,0.97649,-0.19239,0.0,2023,6,7,12,33,25,361
39.53310,0.04200,-0.06493,0.00000,0.02916,0.97649,-0.19227,0.0,2023,6,7,12,33,25,371
39.53320,0.02450,-0.18743,0.00000,0.02818,0.97563,-0.19264,0.0,2023,6,7,12,33,25,381
39.53330,0.09450,-0.25743,0.00000,0.02818,0.97502,-0.19569,0.0,2023,6,7,12,33,25,391
39.53340,-0.06300,-0.02993,0.00000,0.02830,0.97551,-0.19459,0.0,2023,6,7,12,33,25,401
39.53350,-0.06300,-0.11743,0.00000,0.02891,0.97380,-0.19398,0.0,2023,6,7,12,33,25,411
39.53360,-0.08050,0.04007,0.00000,0.02769,0.97722,-0.19361,0.0,2023,6,7,12,33,25,421
39.53370,-0.22050,0.05757,0.00000,0.02818,0.97405,-0.19422,0.0,2023,6,7,12,33,25,431
39.53380,0.04200,-0.01243,0.00000,0.02940,0.97551,-0.19227,0.0,2023,6,7,12,33,25,441
39.53390,0.11200,-0.02993,0.00000,0.02916,0.97502,-0.19630,0.0,2023,6,7,12,33,25,451
39.53400,0.00700,-0.01243,0.00000,0.02989,0.97441,-0.19117,0.0,2023,6,7,12,33,25,461
39.53410,0.04200,-0.16993,0.00000,0.03038,0.97490,-0.19325,0.0,2023,6,7,12,33,25,471
39.53420,-0.04550,-0.08243,0.00000,0.02879,0.97637,-0.19203,0.0,2023,6,7,12,33,25,481
39.53430,0.09450,-0.32743,0.00000,0.02818,0.97441,-0.19313,0.0,2023,6,7,12,33,25,491
39.53440,-0.15050,-0.06493,0.00000,0.02647,0.97612,-0.19374,0.0,2023,6,7,12,33,25,501
39.53450,0.07700,0.07507,0.00000,0.02721,0.97429,-0.19300,0.0,2023,6,7,12,33,25,511
39.53460,-0.06300,0.18007,0.00000,0.02928,0.97576,-0.19239,0.0,2023,6,7,12,33,25,521
39.53470,-0.16800,-0.11743,0.00000,0.02769,0.97637,-0.19325,0.0,2023,6,7,12,33,25,531
39.53480,-0.06300,0.25007,0.00000,0.03050,0.97588,-0.19239,0.0,2023,6,7,12,33,25,541
39.53490,-0.02800,-0.06493,0.00000,0.02782,0.97685,-0.19459,0.0,2023,6,7,12,33,25,551
39.53500,0.02450,0.00507,0.00000,0.02696,0.97466,-0.19178,0.0,2023,6,7,12,33,25,561
39.53510,-0.06300,-0.18743,0.00000,0.02940,0.97588,-0.19252,0.0,2023,6,7,12,33,25,571
39.53520,-0.02800,0.04007,0.00000,0.02843,0.97649,-0.19386,0.0,2023,6,7,12,33,25,581
39.53530,0.12950,-0.20493,0.00000,0.02818,0.97588,-0.19349,0.0,2023,6,7,12,33,25,591
39.53540,-0.16800,0.07507,0.00000,0.02940,0.97307,-0.19264,0.0,2023,6,7,12,33,25,601
39.53550,0.12950,-0.08243,0.00000,0.02904,0.97576,-0.19386,0.0,2023,6,7,12,33,25,611
39.53560,0.05950,0.00507,0.00000,0.02867,0.97429,-0.19386,0.0,2023,6,7,12,33,25,621
39.53570,0.02450,0.09257,0.00000,0.02660,0.97624,-0.19337,0.0,2023,6,7,12,33,25,631
39.53580,-0.23800,0.28507,0.00000,0.02843,0.97332,-0.19227,0.0,2023,6,7,12,33,25,641
39.53590,-0.16800,0.14507,0.00000,0.03026,0.97576,-0.19191,0.0,2023,6,7,12,33,25,651
39.53600,0.11200,-0.20493,0.00000,0.02879,0.97661,-0.19252,0.0,2023,6,7,12,33,25,661
39.53610,-0.08050,-0.11743,0.00000,0.02904,0.97539,-0.19325,0.0,2023,6,7,12,33,25,671
39.53620,-0.02800,0.07507,0.00000,0.02940,0.97576,-0.19300,0.0,2023,6,7,12,33,25,681
39.53630,0.12950,-0.02993,0.00000,0.02769,0.97429,-0.19325,0.0,2023,6,7,12,33,25,691
39.53640,-0.11550,0.07507,0.00000,0.02867,0.97588,-0.19264,0.0,2023,6,7,12,33,25,701
39.53650,0.14700,0.11007,0.00000,0.03074,0.97551,-0.19374,0.0,2023,6,7,12,33,25,711
39.53660,-0.06300,-0.08243,0.00000,0.02855,0.97771,-0.19544,0.0,2023,6,7,12,33,25,721
39.53670,0.02450,0.04007,0.00000,0.03135,0.97466,-0.19361,0.0,2023,6,7,12,33,25,731
39.53680,0.04200,-0.09993,0.00000,0.02952,0.97698,-0.19288,0.0,2023,6,7,12,33,25,741
39.53690,0.07700,0.07507,0.00000,0.02977,0.97417,-0.19313,0.0,2023,6,7,12,33,25,751
39.53700,0.07700,0.00507,0.00000,0.02989,0.97685,-0.19215,0.0,2023,6,7,12,33,25,761
39.53710,0.00700,0.04007,0.00000,0.02940,0.97673,-0.19398,0.0,2023,6,7,12,33,25,771
39.53720,0.05950,-0.16993,0.00000,0.02782,0.97600,-0.19422,0.0,2023,6,7,12,33,25,781
39.53730,-0.04550,-0.15243,0.00000,0.02757,0.97515,-0.19227,0.0,2023,6,7,12,33,25,791
39.53740,0.00700,0.00507,0.00000,0.02965,0.97685,-0.19215,0.0,2023,6,7,12,33,25,801
39.53750,-0.04550,0.00507,0.00000,0.03074,0.97637,-0.19422,0.0,2023,6,7,12,33,25,811
39.53760,0.16450,-0.13493,0.00000,0.02891,0.97478,-0.19349,0.0,2023,6,7,12,33,26,821
39.53770,-0.13300,-0.01243,0.00000,0.02696,0.97551,-0.19459,0.0,2023,6,7,12,33,26,831
39.53780,-0.06300,-0.06493,0.00000,0.02806,0.97405,-0.19325,0.0,2023,6,7,12,33,26,841
39.53790,-0.01050,0.11007,0.00000,0.02623,0.97515,-0.19544,0.0,2023,6,7,12,33,26,851
39.53800,0.12950,-0.11743,0.00000,0.02745,0.97563,-0.19471,0.0,2023,6,7,12,33,26,861
39.53810,0.05950,0.09257,0.00000,0.02904,0.97380,-0.19337,0.0,2023,6,7,12,33,26,871
39.53820,-0.02800,0.04007,0.00000,0.02782,0.97417,-0.19227,0.0,2023,6,7,12,33,26,881
39.53830,0.07700,0.11007,0.00000,0.02879,0.97844,-0.19569,0.0,2023,6,7,12,33,26,891
39.53840,-0.16800,-0.23993,0.00000,0.02672,0.97502,-0.19337,0.0,2023,6,7,12,33,26,901
39.53850,0.05950,0.04007,0.00000,0.02904,0.97332,-0.19166,0.0,2023,6,7,12,33,26,911
39.53860,0.05950,0.00507,0.00000,0.02794,0.97539,-0.19471,0.0,2023,6,7,12,33,26,921
39.53870,-0.25550,0.19757,0.00000,0.02684,0.97685,-0.19142,0.0,2023,6,7,12,33,26,931
39.53880,0.11200,0.16257,0.00000,0.02965,0.97624,-0.19361,0.0,2023,6,7,12,33,26,941
39.53890,-0.06300,0.21507,0.00000,0.03038,0.97527,-0.19130,0.0,2023,6,7,12,33,26,951
39.53900,-0.01050,0.14507,0.00000,0.02928,0.97551,-0.19056,0.0,2023,6,7,12,33,26,961
39.53910,-0.29050,0.04007,0.00000,0.02940,0.97685,-0.19471,0.0,2023,6,7,12,33,26,971
39.53920,-0.13300,-0.04743,0.00000,0.02879,0.97527,-0.19618,0.0,2023,6,7,12,33,26,981
39.53930,0.04200,0.02257,0.00000,0.02733,0.97551,-0.19276,0.0,2023,6,7,12,33,26,991
39.53940,0.05950,-0.22243,0.00000,0.02794,0.97661,-0.19422,0.0,2023,6,7,12,33,26,1
39.53950,-0.04550,-0.09993,0.00000,0.02818,0.97466,-0.18910,0.0,2023,6,7,12,33,26,11
39.53960,0.16450,-0.02993,0.00000,0.02977,0.97588,-0.19557,0.0,2023,6,7,12,33,26,21
39.53970,-0.15050,-0.08243,0.00000,0.02830,0.97380,-0.19203,0.0,2023,6,7,12,33,26,31
39.53980,0.00700,0.11007,0.00000,0.02989,0.97429,-0.19569,0.0,2023,6,7,12,33,26,41
39.53990,-0.16800,0.05757,0.00000,0.02794,0.97771,-0.19325,0.0,2023,6,7,12,33,26,51
39.54000,-0.08050,-0.01243,0.00000,0.02696,0.97563,-0.19422,0.0,2023,6,7,12,33,26,61
39.54010,0.05950,0.11007,0.00000,0.02745,0.97649,-0.19386,0.0,2023,6,7,12,33,26,71
39.54020,-0.15050,0.02257,0.00000,0.02952,0.97490,-0.19142,0.0,2023,6,7,12,33,26,81
39.54030,-0.08050,-0.11743,0.00000,0.02818,0.97600,-0.19459,0.0,2023,6,7,12,33,26,91
39.54040,0.04200,0.14507,0.00000,0.02574,0.97563,-0.19386,0.0,2023,6,7,12,33,26,101
39.54050,0.05950,0.02257,0.00000,0.03038,0.97807,-0.19361,0.0,2023,6,7,12,33,26,111
39.54060,-0.06300,0.33757,0.00000,0.02891,0.97551,-0.19325,0.0,2023,6,7,12,33,26,121
39.54070,-0.02800,0.02257,0.00000,0.02904,0.97600,-0.19166,0.0,2023,6,7,12,33,26,131
39.54080,-0.11550,0.00507,0.00000,0.03087,0.97673,-0.19410,0.0,2023,6,7,12,33,26,141
39.54090,-0.16800,0.14507,0.00000,0.02855,0.97527,-0.19349,0.0,2023,6,7,12,33,26,151
39.54100,0.04200,-0.08243,0.00000,0.02818,0.97624,-0.19544,0.0,2023,6,7,12,33,26,161
39.54110,0.00700,-0.01243,0.00000,0.02904,0.97490,-0.19154,0.0,2023,6,7,12,33,26,171
39.54120,-0.01050,-0.04743,0.00000,0.02965,0.97746,-0.19300,0.0,2023,6,7,12,33,26,181
39.54130,-0.02800,0.02257,0.00000,0.02696,0.97588,-0.19191,0.0,2023,6,7,12,33,26,191
39.54140,0.02450,0.07507,0.00000,0.02977,0.97527,-0.19239,0.0,2023,6,7,12,33,26,201
39.54150,0.19950,-0.23993,0.00000,0.03074,0.97490,-0.19422,0.0,2023,6,7,12,33,26,211
39.54160,-0.02800,-0.01243,0.00000,0.02794,0.97502,-0.19496,0.0,2023,6,7,12,33,26,221
39.54170,0.12950,-0.02993,0.00000,0.02672,0.97478,-0.19422,0.0,2023,6,7,12,33,26,231
39.54180,0.25200,-0.02993,0.00000,0.02611,0.97722,-0.19154,0.0,2023,6,7,12,33,26,241
39.54190,0.07700,-0.08243,0.00000,0.02794,0.97588,-0.19520,0.0,2023,6,7,12,33,26,251
39.54200,0.04200,0.16257,0.00000,0.02904,0.97673,-0.19300,0.0,2023,6,7,12,33,26,261
39.54210,0.05950,-0.08243,0.00000,0.03074,0.97527,-0.19276,0.0,2023,6,7,12,33,26,271
39.54220,0.05950,0.11007,0.00000,0.03087,0.97746,-0.19520,0.0,2023,6,7,12,33,26,281
39.54230,-0.11550,0.11007,0.00000,0.03074,0.97454,-0.19471,0.0,2023,6,7,12,33,26,291
39.54240,0.04200,0.04007,0.00000,0.02843,0.97771,-0.19398,0.0,2023,6,7,12,33,26,301
39.54250,-0.09800,0.02257,0.00000,0.02806,0.97698,-0.19203,0.0,2023,6,7,12,33,26,311
39.54260,0.04200,-0.09993,0.00000,0.02879,0.97368,-0.19447,0.0,2023,6,7,12,33,26,321
39.54270,0.18200,0.00507,0.00000,0.02757,0.97563,-0.19215,0.0,2023,6,7,12,33,26,331
39.54280,0.14700,0.09257,0.00000,0.02806,0.97844,-0.19166,0.0,2023,6,7,12,33,26,341
39.54290,0.02450,0.07507,0.00000,0.03026,0.97722,-0.19508,0.0,2023,6,7,12,33,26,351
39.54300,-0.01050,0.00507,0.00000,0.02891,0.97332,-0.19325,0.0,2023,6,7,12,33,26,361
39.54310,0.11200,-0.09993,0.00000,0.02952,0.97710,-0.19520,0.0,2023,6,7,12,33,26,371
39.54320,0.16450,0.02257,0.00000,0.02794,0.97502,-0.19581,0.0,2023,6,7,12,33,26,381
39.54330,-0.02800,-0.06493,0.00000,0.02757,0.97637,-0.19300,0.0,2023,6,7,12,33,26,391
39.54340,0.18200,-0.09993,0.00000,0.03050,0.97722,-0.19435,0.0,2023,6,7,12,33,26,401
39.54350,-0.27300,0.02257,0.00000,0.03062,0.97478,-0.19288,0.0,2023,6,7,12,33,26,411
39.54360,-0.01050,0.02257,0.00000,0.02733,0.97759,-0.19593,0.0,2023,6,7,12,33,26,421
39.54370,-0.04550,0.05757,0.00000,0.02806,0.97429,-0.19520,0.0,2023,6,7,12,33,26,431
39.54380,0.11200,0.07507,0.00000,0.03026,0.97454,-0.19361,0.0,2023,6,7,12,33,26,441
39.54390,-0.01050,-0.15243,0.00000,0.02879,0.97502,-0.19203,0.0,2023,6,7,12,33,26,451
39.54400,0.05950,-0.02993,0.00000,0.02794,0.97405,-0.19215,0.0,2023,6,7,12,33,26,461
39.54410,0.00700,-0.30993,0.00000,0.02989,0.97551,-0.19349,0.0,2023,6,7,12,33,26,471
39.54420,-0.09800,-0.04743,0.00000,0.02928,0.97710,-0.19117,0.0,2023,6,7,12,33,26,481
39.54430,-0.08050,-0.13493,0.00000,0.02928,0.97612,-0.19300,0.0,2023,6,7,12,33,26,491
39.54440,0.04200,0.02257,0.00000,0.02904,0.97429,-0.19349,0.0,2023,6,7,12,33,26,501
39.54450,-0.02800,-0.06493,0.00000,0.02879,0.97807,-0.19361,0.0,2023,6,7,12,33,26,511
39.54460,0.12950,-0.13493,0.00000,0.02672,0.97405,-0.19386,0.0,2023,6,7,12,33,26,521
39.54470,0.00700,-0.13493,0.00000,0.02904,0.97588,-0.19483,0.0,2023,6,7,12,33,26,531
39.54480,0.14700,0.00507,0.00000,0.02855,0.97393,-0.19386,0.0,2023,6,7,12,33,26,541
39.54490,-0.02800,-0.34493,0.00000,0.02794,0.97624,-0.19361,0.0,2023,6,7,12,33,26,551
39.54500,-0.13300,0.04007,0.00000,0.02696,0.97551,-0.19374,0.0,2023,6,7,12,33,26,561
39.54510,-0.13300,-0.02993,0.00000,0.02769,0.97429,-0.19349,0.0,2023,6,7,12,33,26,571
39.54520,-0.02800,0.05757,0.00000,0.02952,0.97600,-0.19581,0.0,2023,6,7,12,33,26,581
39.54530,-0.15050,0.00507,0.00000,0.02806,0.97612,-0.19361,0.0,2023,6,7,12,33,26,591
39.54540,-0.09800,-0.25743,0.00000,0.03087,0.97478,-0.19520,0.0,2023,6,7,12,33,26,601
39.54550,-0.13300,0.07507,0.00000,0.02965,0.97637,-0.19276,0.0,2023,6,7,12,33,26,611
39.54560,-0.02800,0.09257,0.00000,0.02769,0.97588,-0.19605,0.0,2023,6,7,12,33,26,621
39.54570,-0.06300,-0.08243,0.00000,0.02818,0.97319,-0.19276,0.0,2023,6,7,12,33,26,631
39.54580,0.07700,-0.16993,0.00000,0.02818,0.97515,-0.19410,0.0,2023,6,7,12,33,26,641
39.54590,-0.06300,0.00507,0.00000,0.02965,0.97698,-0.19239,0.0,2023,6,7,12,33,26,651
39.54600,0.04200,-0.01243,0.00000,0.02867,0.97502,-0.19227,0.0,2023,6,7,12,33,26,661
39.54610,-0.02800,-0.11743,0.00000,0.03026,0.97490,-0.19142,0.0,2023,6,7,12,33,26,671
39.54620,-0.09800,0.05757,0.00000,0.03050,0.97588,-0.19239,0.0,2023,6,7,12,33,26,681
39.54630,0.11200,0.18007,0.00000,0.02745,0.97722,-0.19337,0.0,2023,6,7,12,33,26,691
39.54640,-0.15050,0.12757,0.00000,0.02708,0.97466,-0.19337,0.0,2023,6,7,12,33,26,701
39.54650,0.04200,0.02257,0.00000,0.02965,0.97563,-0.19252,0.0,2023,6,7,12,33,26,711
39.54660,-0.11550,-0.13493,0.00000,0.02977,0.97685,-0.19483,0.0,2023,6,7,12,33,27,721
39.54670,0.04200,-0.08243,0.00000,0.02965,0.97624,-0.19544,0.0,2023,6,7,12,33,27,731
39.54680,0.02450,-0.11743,0.00000,0.02806,0.97539,-0.19496,0.0,2023,6,7,12,33,27,741
39.54690,-0.09800,0.09257,0.00000,0.02660,0.97685,-0.19459,0.0,2023,6,7,12,33,27,751
39.54700,-0.01050,0.02257,0.00000,0.02830,0.97624,-0.19618,0.0,2023,6,7,12,33,27,761
39.54710,-0.08050,0.21507,0.00000,0.02843,0.97454,-0.19422,0.0,2023,6,7,12,33,27,771
39.54720,0.07700,-0.01243,0.00000,0.02830,0.97588,-0.19435,0.0,2023,6,7,12,33,27,781
39.54730,0.09450,-0.02993,0.00000,0.02696,0.97685,-0.19520,0.0,2023,6,7,12,33,27,791
39.54740,-0.01050,0.14507,0.00000,0.02806,0.97539,-0.19337,0.0,2023,6,7,12,33,27,801
39.54750,-0.04550,-0.06493,0.00000,0.02928,0.97612,-0.19386,0.0,2023,6,7,12,33,27,811
39.54760,-0.06300,-0.01243,0.00000,0.02635,0.97515,-0.19544,0.0,2023,6,7,12,33,27,821
39.54770,-0.04550,0.07507,0.00000,0.02977,0.97746,-0.19471,0.0,2023,6,7,12,33,27,831
39.54780,-0.04550,-0.16993,0.00000,0.02757,0.97722,-0.19508,0.0,2023,6,7,12,33,27,841
39.54790,-0.02800,-0.23993,0.00000,0.02721,0.97612,-0.19557,0.0,2023,6,7,12,33,27,851
39.54800,0.14700,-0.15243,0.00000,0.02867,0.97515,-0.19630,0.0,2023,6,7,12,33,27,861
39.54810,-0.06300,0.16257,0.00000,0.02794,0.97661,-0.19374,0.0,2023,6,7,12,33,27,871
39.54820,0.09450,-0.15243,0.00000,0.02843,0.97576,-0.19422,0.0,2023,6,7,12,33,27,881
39.54830,0.05950,0.19757,0.00000,0.02757,0.97795,-0.19544,0.0,2023,6,7,12,33,27,891
39.54840,0.16450,-0.13493,0.00000,0.02891,0.97868,-0.19593,0.0,2023,6,7,12,33,27,901
39.54850,-0.15050,-0.22243,0.00000,0.02818,0.97441,-0.19288,0.0,2023,6,7,12,33,27,911
39.54860,-0.04550,0.21507,0.00000,0.02672,0.97466,-0.19325,0.0,2023,6,7,12,33,27,921
39.54870,-0.09800,0.02257,0.00000,0.02830,0.97588,-0.19508,0.0,2023,6,7,12,33,27,931
39.54880,-0.15050,0.05757,0.00000,0.03050,0.97685,-0.19386,0.0,2023,6,7,12,33,27,941
39.54890,-0.04550,0.16257,0.00000,0.02928,0.97746,-0.19300,0.0,2023,6,7,12,33,27,951
39.54900,0.02450,0.00507,0.00000,0.02806,0.97551,-0.19447,0.0,2023,6,7,12,33,27,961
39.54910,0.07700,0.07507,0.00000,0.02757,0.97734,-0.19374,0.0,2023,6,7,12,33,27,971
39.54920,0.09450,0.11007,0.00000,0.03160,0.97490,-0.19544,0.0,2023,6,7,12,33,27,981
39.54930,-0.13300,0.07507,0.00000,0.02855,0.97502,-0.19386,0.0,2023,6,7,12,33,27,991
39.54940,-0.18550,0.02257,0.00000,0.02843,0.97551,-0.19264,0.0,2023,6,7,12,33,27,1
39.54950,-0.02800,0.11007,0.00000,0.02940,0.97405,-0.19496,0.0,2023,6,7,12,33,27,11
39.54960,-0.13300,0.11007,0.00000,0.03013,0.97673,-0.19447,0.0,2023,6,7,12,33,27,21
39.54970,0.04200,-0.11743,0.00000,0.02806,0.97417,-0.19313,0.0,2023,6,7,12,33,27,31
39.54980,-0.04550,0.23257,0.00000,0.02965,0.97478,-0.19605,0.0,2023,6,7,12,33,27,41
39.54990,0.05950,-0.02993,0.00000,0.03087,0.97624,-0.19313,0.0,2023,6,7,12,33,27,51
39.55000,0.00700,-0.08243,0.00000,0.02660,0.97600,-0.19508,0.0,2023,6,7,12,33,27,61
39.55010,-0.09800,-0.13493,0.00000,0.02672,0.97844,-0.19435,0.0,2023,6,7,12,33,27,71
39.55020,0.00700,-0.11743,0.00000,0.02989,0.97637,-0.19520,0.0,2023,6,7,12,33,27,81
39.55030,0.11200,-0.08243,0.00000,0.02684,0.97637,-0.19630,0.0,2023,6,7,12,33,27,91
39.55040,-0.02800,0.00507,0.00000,0.02879,0.97539,-0.19532,0.0,2023,6,7,12,33,27,101
39.55050,-0.13300,-0.04743,0.00000,0.02879,0.97356,-0.19618,0.0,2023,6,7,12,33,27,111
39.55060,-0.16800,0.12757,0.00000,0.02782,0.97746,-0.19215,0.0,2023,6,7,12,33,27,121
39.55070,-0.25550,0.11007,0.00000,0.02843,0.97539,-0.19483,0.0,2023,6,7,12,33,27,131
39.55080,-0.04550,0.04007,0.00000,0.02879,0.97344,-0.19605,0.0,2023,6,7,12,33,27,141
39.55090,-0.11550,0.07507,0.00000,0.03050,0.97576,-0.19264,0.0,2023,6,7,12,33,27,151
39.55100,-0.04550,-0.02993,0.00000,0.02965,0.97478,-0.19459,0.0,2023,6,7,12,33,27,161
39.55110,0.12950,-0.15243,0.00000,0.02782,0.97393,-0.19337,0.0,2023,6,7,12,33,27,171
39.55120,0.00700,0.07507,0.00000,0.02867,0.97868,-0.19166,0.0,2023,6,7,12,33,27,181
39.55130,0.02450,-0.02993,0.00000,0.02745,0.97588,-0.19435,0.0,2023,6,7,12,33,27,191
39.55140,-0.20300,-0.02993,0.00000,0.02733,0.97588,-0.19471,0.0,2023,6,7,12,33,27,201
39.55150,-0.04550,0.14507,0.00000,0.02818,0.97673,-0.19715,0.0,2023,6,7,12,33,27,211
39.55160,-0.23800,0.21507,0.00000,0.02830,0.97649,-0.19532,0.0,2023,6,7,12,33,27,221
39.55170,0.02450,0.12757,0.00000,0.02696,0.97698,-0.19654,0.0,2023,6,7,12,33,27,231
39.55180,0.00700,-0.15243,0.00000,0.03013,0.97637,-0.19459,0.0,2023,6,7,12,33,27,241
39.55190,0.02450,0.04007,0.00000,0.02904,0.97661,-0.19544,0.0,2023,6,7,12,33,27,251
39.55200,-0.15050,0.18007,0.00000,0.02940,0.97673,-0.19618,0.0,2023,6,7,12,33,27,261
39.55210,0.04200,0.18007,0.00000,0.03013,0.97490,-0.19361,0.0,2023,6,7,12,33,27,271
39.55220,0.07700,0.12757,0.00000,0.02623,0.97490,-0.19593,0.0,2023,6,7,12,33,27,281
39.55230,0.00700,-0.06493,0.00000,0.02879,0.97698,-0.19581,0.0,2023,6,7,12,33,27,291
39.55240,0.07700,0.04007,0.00000,0.02733,0.97612,-0.19422,0.0,2023,6,7,12,33,27,301
39.55250,-0.02800,-0.02993,0.00000,0.02745,0.97417,-0.19654,0.0,2023,6,7,12,33,27,311
39.55260,0.05950,-0.18743,0.00000,0.03172,0.97624,-0.19520,0.0,2023,6,7,12,33,27,321
39.55270,0.02450,0.12757,0.00000,0.02733,0.97356,-0.19496,0.0,2023,6,7,12,33,27,331
39.55280,0.07700,0.09257,0.00000,0.02855,0.97417,-0.19642,0.0,2023,6,7,12,33,27,341
39.55290,0.12950,-0.20493,0.00000,0.02977,0.97685,-0.19386,0.0,2023,6,7,12,33,27,351
39.55300,-0.01050,0.12757,0.00000,0.02952,0.97393,-0.19422,0.0,2023,6,7,12,33,27,361
39.55310,0.07700,0.02257,0.00000,0.02733,0.97527,-0.19557,0.0,2023,6,7,12,33,27,371
39.55320,0.19950,0.07507,0.00000,0.03038,0.97734,-0.19544,0.0,2023,6,7,12,33,27,381
39.55330,0.00700,0.09257,0.00000,0.02647,0.97588,-0.19593,0.0,2023,6,7,12,33,27,391
39.55340,0.16450,-0.13493,0.00000,0.02708,0.97624,-0.19605,0.0,2023,6,7,12,33,27,401
39.55350,0.09450,-0.15243,0.00000,0.02757,0.97698,-0.19276,0.0,2023,6,7,12,33,27,411
39.55360,0.04200,-0.04743,0.00000,0.02769,0.97600,-0.19325,0.0,2023,6,7,12,33,27,421
39.55370,-0.08050,-0.11743,0.00000,0.02794,0.97527,-0.19752,0.0,2023,6,7,12,33,27,431
39.55380,-0.04550,0.16257,0.00000,0.02891,0.97405,-0.19288,0.0,2023,6,7,12,33,27,441
39.55390,-0.13300,0.07507,0.00000,0.02977,0.97527,-0.19386,0.0,2023,6,7,12,33,27,451
39.55400,-0.01050,-0.04743,0.00000,0.02672,0.97698,-0.19727,0.0,2023,6,7,12,33,27,461
39.55410,0.21700,-0.02993,0.00000,0.02794,0.97515,-0.19605,0.0,2023,6,7,12,33,27,471
39.55420,-0.04550,0.02257,0.00000,0.02782,0.97234,-0.19496,0.0,2023,6,7,12,33,27,481
39.55430,-0.06300,0.04007,0.00000,0.02916,0.97441,-0.19386,0.0,2023,6,7,12,33,27,491
39.55440,0.07700,0.04007,0.00000,0.02769,0.97624,-0.19703,0.0,2023,6,7,12,33,27,501
39.55450,0.09450,0.00507,0.00000,0.02928,0.97478,-0.19593,0.0,2023,6,7,12,33,27,511
39.55460,-0.06300,0.05757,0.00000,0.02855,0.97624,-0.19605,0.0,2023,6,7,12,33,27,521
39.55470,0.14700,0.05757,0.00000,0.02794,0.97600,-0.19459,0.0,2023,6,7,12,33,27,531
39.55480,-0.25550,0.04007,0.00000,0.02745,0.97393,-0.19483,0.0,2023,6,7,12,33,27,541
39.55490,-0.27300,0.16257,0.00000,0.02635,0.97502,-0.19459,0.0,2023,6,7,12,33,27,551
39.55500,0.00700,-0.02993,0.00000,0.02684,0.97649,-0.19740,0.0,2023,6,7,12,33,27,561
39.55510,0.18200,-0.16993,0.00000,0.02952,0.97637,-0.19471,0.0,2023,6,7,12,33,27,571
39.55520,-0.02800,-0.04743,0.00000,0.03135,0.97222,-0.19398,0.0,2023,6,7,12,33,27,581
39.55530,0.05950,-0.02993,0.00000,0.02769,0.97588,-0.19544,0.0,2023,6,7,12,33,27,591
39.55540,0.19950,0.02257,0.00000,0.02769,0.97551,-0.19496,0.0,2023,6,7,12,33,27,601
39.55550,0.02450,0.05757,0.00000,0.02855,0.97783,-0.19313,0.0,2023,6,7,12,33,27,611
39.55560,-0.02800,0.04007,0.00000,0.02952,0.97710,-0.19544,0.0,2023,6,7,12,33,28,621
39.55570,0.05950,-0.01243,0.00000,0.02818,0.97576,-0.19703,0.0,2023,6,7,12,33,28,631
39.55580,0.00700,0.05757,0.00000,0.03013,0.97685,-0.19422,0.0,2023,6,7,12,33,28,641
39.55590,0.07700,-0.02993,0.00000,0.02867,0.97746,-0.19422,0.0,2023,6,7,12,33,28,651
39.55600,0.05950,-0.04743,0.00000,0.02904,0.97722,-0.19544,0.0,2023,6,7,12,33,28,661
39.55610,0.00700,0.23257,0.00000,0.02952,0.97405,-0.19520,0.0,2023,6,7,12,33,28,671
39.55620,-0.04550,-0.09993,0.00000,0.03013,0.97527,-0.19557,0.0,2023,6,7,12,33,28,681
39.55630,0.05950,-0.06493,0.00000,0.02928,0.97832,-0.19361,0.0,2023,6,7,12,33,28,691
39.55640,-0.01050,0.00507,0.00000,0.02635,0.97600,-0.19618,0.0,2023,6,7,12,33,28,701
39.55650,0.05950,0.07507,0.00000,0.02745,0.97393,-0.19581,0.0,2023,6,7,12,33,28,711
39.55660,0.09450,0.02257,0.00000,0.02806,0.97624,-0.19569,0.0,2023,6,7,12,33,28,721
39.55670,-0.04550,0.26757,0.00000,0.02940,0.97832,-0.19581,0.0,2023,6,7,12,33,28,731
39.55680,0.11200,0.00507,0.00000,0.02794,0.97637,-0.19508,0.0,2023,6,7,12,33,28,741
39.55690,-0.11550,0.07507,0.00000,0.02916,0.97807,-0.19715,0.0,2023,6,7,12,33,28,751
39.55700,0.02450,-0.23993,0.00000,0.03026,0.97685,-0.19435,0.0,2023,6,7,12,33,28,761
39.55710,-0.08050,-0.20493,0.00000,0.03074,0.97710,-0.19581,0.0,2023,6,7,12,33,28,771
39.55720,-0.08050,0.14507,0.00000,0.02806,0.97539,-0.19313,0.0,2023,6,7,12,33,28,781
39.55730,-0.02800,-0.11743,0.00000,0.02879,0.97576,-0.19691,0.0,2023,6,7,12,33,28,791
39.55740,0.00700,-0.08243,0.00000,0.02733,0.97746,-0.19874,0.0,2023,6,7,12,33,28,801
39.55750,-0.11550,0.09257,0.00000,0.02891,0.97795,-0.19618,0.0,2023,6,7,12,33,28,811
39.55760,-0.02800,0.11007,0.00000,0.02916,0.97685,-0.19715,0.0,2023,6,7,12,33,28,821
39.55770,0.04200,0.21507,0.00000,0.02818,0.97478,-0.19691,0.0,2023,6,7,12,33,28,831
39.55780,-0.11550,0.16257,0.00000,0.02843,0.97734,-0.19923,0.0,2023,6,7,12,33,28,841
39.55790,-0.06300,0.12757,0.00000,0.02684,0.97307,-0.19557,0.0,2023,6,7,12,33,28,851
39.55800,-0.01050,-0.08243,0.00000,0.02843,0.97551,-0.19630,0.0,2023,6,7,12,33,28,861
39.55810,-0.01050,-0.11743,0.00000,0.02867,0.97624,-0.19544,0.0,2023,6,7,12,33,28,871
39.55820,0.04200,-0.13493,0.00000,0.02891,0.97307,-0.19349,0.0,2023,6,7,12,33,28,881
39.55830,0.14700,-0.16993,0.00000,0.02708,0.97454,-0.19618,0.0,2023,6,7,12,33,28,891
39.55840,-0.09800,-0.22243,0.00000,0.02806,0.97454,-0.19483,0.0,2023,6,7,12,33,28,901
39.55850,-0.01050,0.18007,0.00000,0.03074,0.97649,-0.19386,0.0,2023,6,7,12,33,28,911
39.55860,0.21700,-0.16993,0.00000,0.02757,0.97515,-0.19593,0.0,2023,6,7,12,33,28,921
39.55870,-0.06300,-0.02993,0.00000,0.02904,0.97746,-0.19630,0.0,2023,6,7,12,33,28,931
39.55880,0.00700,0.07507,0.00000,0.02916,0.97600,-0.19630,0.0,2023,6,7,12,33,28,941
39.55890,0.09450,-0.16993,0.00000,0.02952,0.97698,-0.19544,0.0,2023,6,7,12,33,28,951
39.55900,0.00700,0.09257,0.00000,0.02867,0.97624,-0.19496,0.0,2023,6,7,12,33,28,961
39.55910,-0.02800,0.00507,0.00000,0.02672,0.97624,-0.19715,0.0,2023,6,7,12,33,28,971
39.55920,-0.01050,-0.23993,0.00000,0.02818,0.97332,-0.19374,0.0,2023,6,7,12,33,28,981
39.55930,-0.11550,-0.08243,0.00000,0.02721,0.97502,-0.19666,0.0,2023,6,7,12,33,28,991
39.55940,0.09450,-0.08243,0.00000,0.02830,0.97441,-0.19557,0.0,2023,6,7,12,33,28,1
39.55950,-0.15050,0.02257,0.00000,0.02940,0.97490,-0.19288,0.0,2023,6,7,12,33,28,11
39.55960,-0.04550,-0.11743,0.00000,0.02733,0.97588,-0.19337,0.0,2023,6,7,12,33,28,21
39.55970,0.11200,-0.25743,0.00000,0.02782,0.97624,-0.19471,0.0,2023,6,7,12,33,28,31
39.55980,-0.23800,0.11007,0.00000,0.02745,0.97539,-0.19447,0.0,2023,6,7,12,33,28,41
39.55990,0.02450,-0.09993,0.00000,0.02989,0.97563,-0.19386,0.0,2023,6,7,12,33,28,51
39.56000,0.02450,-0.01243,0.00000,0.02721,0.97746,-0.19569,0.0,2023,6,7,12,33,28,61
39.56010,0.02450,0.11007,0.00000,0.02916,0.97637,-0.19532,0.0,2023,6,7,12,33,28,71
39.56020,-0.09800,0.04007,0.00000,0.02879,0.97466,-0.19630,0.0,2023,6,7,12,33,28,81
39.56030,-0.01050,0.26757,0.00000,0.02843,0.97527,-0.19483,0.0,2023,6,7,12,33,28,91
39.56040,0.14700,-0.13493,0.00000,0.02940,0.97746,-0.19630,0.0,2023,6,7,12,33,28,101
39.56050,0.09450,-0.18743,0.00000,0.02965,0.97515,-0.19532,0.0,2023,6,7,12,33,28,111
39.56060,-0.16800,0.04007,0.00000,0.03148,0.97649,-0.19483,0.0,2023,6,7,12,33,28,121
39.56070,-0.16800,0.05757,0.00000,0.02916,0.97502,-0.19447,0.0,2023,6,7,12,33,28,131
39.56080,-0.02800,0.14507,0.00000,0.03001,0.97466,-0.19532,0.0,2023,6,7,12,33,28,141
39.56090,-0.13300,-0.11743,0.00000,0.02806,0.97539,-0.19520,0.0,2023,6,7,12,33,28,151
39.56100,0.12950,0.02257,0.00000,0.02952,0.97588,-0.19605,0.0,2023,6,7,12,33,28,161
39.56110,0.16450,-0.01243,0.00000,0.02757,0.97307,-0.19544,0.0,2023,6,7,12,33,28,171
39.56120,0.05950,-0.18743,0.00000,0.02904,0.97490,-0.19569,0.0,2023,6,7,12,33,28,181
39.56130,-0.04550,-0.11743,0.00000,0.02952,0.97502,-0.19557,0.0,2023,6,7,12,33,28,191
39.56140,-0.09800,-0.02993,0.00000,0.02952,0.97734,-0.19544,0.0,2023,6,7,12,33,28,201
39.56150,0.00700,0.02257,0.00000,0.03099,0.97490,-0.19374,0.0,2023,6,7,12,33,28,211
39.56160,-0.04550,0.14507,0.00000,0.03013,0.97502,-0.19569,0.0,2023,6,7,12,33,28,221
39.56170,0.07700,-0.20493,0.00000,0.02757,0.97624,-0.19618,0.0,2023,6,7,12,33,28,231
39.56180,-0.02800,0.00507,0.00000,0.03062,0.97454,-0.19374,0.0,2023,6,7,12,33,28,241
39.56190,0.02450,0.04007,0.00000,0.02891,0.97344,-0.19447,0.0,2023,6,7,12,33,28,251
39.56200,0.00700,0.23257,0.00000,0.02794,0.97600,-0.19532,0.0,2023,6,7,12,33,28,261
39.56210,-0.13300,0.12757,0.00000,0.02672,0.97588,-0.19630,0.0,2023,6,7,12,33,28,271
39.56220,-0.06300,0.02257,0.00000,0.02769,0.97490,-0.19569,0.0,2023,6,7,12,33,28,281
39.56230,0.14700,0.04007,0.00000,0.02672,0.97685,-0.19593,0.0,2023,6,7,12,33,28,291
39.56240,0.16450,0.04007,0.00000,0.02745,0.97429,-0.19642,0.0,2023,6,7,12,33,28,301
39.56250,-0.01050,0.02257,0.00000,0.03001,0.97539,-0.19727,0.0,2023,6,7,12,33,28,311
39.56260,0.02450,-0.15243,0.00000,0.02830,0.97746,-0.19557,0.0,2023,6,7,12,33,28,321
39.56270,-0.01050,-0.20493,0.00000,0.02696,0.97356,-0.19727,0.0,2023,6,7,12,33,28,331
39.56280,-0.13300,0.02257,0.00000,0.03062,0.97868,-0.19398,0.0,2023,6,7,12,33,28,341
39.56290,0.07700,-0.13493,0.00000,0.02977,0.97685,-0.19654,0.0,2023,6,7,12,33,28,351
39.56300,-0.08050,0.11007,0.00000,0.02965,0.97478,-0.19715,0.0,2023,6,7,12,33,28,361
39.56310,0.00700,0.00507,0.00000,0.02818,0.97234,-0.19959,0.0,2023,6,7,12,33,28,371
39.56320,-0.06300,-0.04743,0.00000,0.03099,0.97600,-0.19496,0.0,2023,6,7,12,33,28,381
39.56330,0.11200,0.04007,0.00000,0.02782,0.97661,-0.19679,0.0,2023,6,7,12,33,28,391
39.56340,0.00700,-0.01243,0.00000,0.02782,0.97759,-0.19532,0.0,2023,6,7,12,33,28,401
39.56350,0.09450,0.07507,0.00000,0.02757,0.97368,-0.19605,0.0,2023,6,7,12,33,28,411
39.56360,-0.09800,0.12757,0.00000,0.03001,0.97637,-0.19959,0.0,2023,6,7,12,33,28,421
39.56370,0.09450,0.04007,0.00000,0.02806,0.97734,-0.19386,0.0,2023,6,7,12,33,28,431
39.56380,-0.08050,-0.16993,0.00000,0.02855,0.97466,-0.19593,0.0,2023,6,7,12,33,28,441
39.56390,0.02450,0.00507,0.00000,0.02672,0.97576,-0.19666,0.0,2023,6,7,12,33,28,451
39.56400,-0.06300,0.28507,0.00000,0.02977,0.97478,-0.19508,0.0,2023,6,7,12,33,28,461
39.56410,-0.04550,-0.04743,0.00000,0.03184,0.97515,-0.19508,0.0,2023,6,7,12,33,28,471
39.56420,-0.20300,0.21507,0.00000,0.02940,0.97283,-0.19520,0.0,2023,6,7,12,33,28,481
39.56430,-0.06300,0.00507,0.00000,0.02843,0.97454,-0.19679,0.0,2023,6,7,12,33,28,491
39.56440,-0.01050,0.12757,0.00000,0.02672,0.97563,-0.19654,0.0,2023,6,7,12,33,29,501
39.56450,-0.11550,-0.01243,0.00000,0.02928,0.97746,-0.19483,0.0,2023,6,7,12,33,29,511
39.56460,0.14700,-0.06493,0.00000,0.02928,0.97576,-0.19532,0.0,2023,6,7,12,33,29,521
39.56470,-0.04550,-0.22243,0.00000,0.02672,0.97698,-0.19581,0.0,2023,6,7,12,33,29,531
39.56480,-0.06300,0.09257,0.00000,0.02806,0.97405,-0.19544,0.0,2023,6,7,12,33,29,541
39.56490,-0.02800,0.12757,0.00000,0.03111,0.97539,-0.19410,0.0,2023,6,7,12,33,29,551
39.56500,-0.01050,0.16257,0.00000,0.02745,0.97649,-0.19593,0.0,2023,6,7,12,33,29,561
39.56510,0.19950,0.02257,0.00000,0.02830,0.97637,-0.19581,0.0,2023,6,7,12,33,29,571
39.56520,-0.06300,-0.09993,0.00000,0.02757,0.97612,-0.19349,0.0,2023,6,7,12,33,29,581
39.56530,0.00700,0.14507,0.00000,0.02721,0.97673,-0.19532,0.0,2023,6,7,12,33,29,591
39.56540,-0.15050,0.16257,0.00000,0.02830,0.97600,-0.19227,0.0,2023,6,7,12,33,29,601
39.56550,0.12950,-0.01243,0.00000,0.02818,0.97649,-0.19496,0.0,2023,6,7,12,33,29,611
39.56560,0.16450,-0.09993,0.00000,0.02733,0.97551,-0.19447,0.0,2023,6,7,12,33,29,621
39.56570,0.14700,0.16257,0.00000,0.02769,0.97490,-0.19447,0.0,2023,6,7,12,33,29,631
39.56580,0.11200,-0.09993,0.00000,0.03013,0.97612,-0.19483,0.0,2023,6,7,12,33,29,641
39.56590,0.00700,-0.04743,0.00000,0.02843,0.97576,-0.19520,0.0,2023,6,7,12,33,29,651
39.56600,-0.06300,-0.04743,0.00000,0.03013,0.97588,-0.19557,0.0,2023,6,7,12,33,29,661
39.56610,0.02450,-0.15243,0.00000,0.02672,0.97710,-0.19605,0.0,2023,6,7,12,33,29,671
39.56620,-0.09800,-0.02993,0.00000,0.02952,0.97637,-0.19483,0.0,2023,6,7,12,33,29,681
39.56630,0.04200,0.21507,0.00000,0.02843,0.97820,-0.19581,0.0,2023,6,7,12,33,29,691
39.56640,0.02450,0.07507,0.00000,0.02977,0.97454,-0.19447,0.0,2023,6,7,12,33,29,701
39.56650,0.02450,0.09257,0.00000,0.02916,0.97441,-0.19642,0.0,2023,6,7,12,33,29,711
39.56660,0.04200,0.18007,0.00000,0.02916,0.97661,-0.19349,0.0,2023,6,7,12,33,29,721
39.56670,0.02450,0.05757,0.00000,0.02806,0.97515,-0.19374,0.0,2023,6,7,12,33,29,731
39.56680,-0.06300,0.09257,0.00000,0.03074,0.97563,-0.19288,0.0,2023,6,7,12,33,29,741
39.56690,-0.01050,-0.27493,0.00000,0.02928,0.97515,-0.19422,0.0,2023,6,7,12,33,29,751
39.56700,-0.01050,-0.04743,0.00000,0.02806,0.97856,-0.19483,0.0,2023,6,7,12,33,29,761
39.56710,-0.11550,-0.02993,0.00000,0.02635,0.97527,-0.19654,0.0,2023,6,7,12,33,29,771
39.56720,-0.04550,0.04007,0.00000,0.02806,0.97600,-0.19435,0.0,2023,6,7,12,33,29,781
39.56730,0.02450,0.12757,0.00000,0.03013,0.97600,-0.19532,0.0,2023,6,7,12,33,29,791
39.56740,-0.09800,0.05757,0.00000,0.02733,0.97563,-0.19569,0.0,2023,6,7,12,33,29,801
39.56750,-0.08050,-0.02993,0.00000,0.02916,0.97649,-0.19447,0.0,2023,6,7,12,33,29,811
39.56760,0.05950,0.16257,0.00000,0.02794,0.97600,-0.19422,0.0,2023,6,7,12,33,29,821
39.56770,0.12950,-0.01243,0.00000,0.02879,0.97441,-0.19642,0.0,2023,6,7,12,33,29,831
39.56780,0.09450,-0.13493,0.00000,0.02782,0.97429,-0.19264,0.0,2023,6,7,12,33,29,841
39.56790,0.00700,-0.08243,0.00000,0.02891,0.97405,-0.19447,0.0,2023,6,7,12,33,29,851
39.56800,0.05950,-0.08243,0.00000,0.02794,0.97612,-0.19569,0.0,2023,6,7,12,33,29,861
39.56810,-0.09800,0.21507,0.00000,0.02855,0.97515,-0.19337,0.0,2023,6,7,12,33,29,871
39.56820,0.02450,-0.15243,0.00000,0.02769,0.97502,-0.19569,0.0,2023,6,7,12,33,29,881
39.56830,-0.11550,0.07507,0.00000,0.02769,0.97673,-0.19557,0.0,2023,6,7,12,33,29,891
39.56840,-0.06300,0.14507,0.00000,0.02769,0.97393,-0.19422,0.0,2023,6,7,12,33,29,901
39.56850,-0.13300,0.18007,0.00000,0.02794,0.97515,-0.19630,0.0,2023,6,7,12,33,29,911
39.56860,-0.02800,0.02257,0.00000,0.03013,0.97344,-0.19374,0.0,2023,6,7,12,33,29,921
39.56870,0.02450,0.28507,0.00000,0.02745,0.97551,-0.19410,0.0,2023,6,7,12,33,29,931
39.56880,-0.20300,0.16257,0.00000,0.02904,0.97515,-0.19508,0.0,2023,6,7,12,33,29,941
39.56890,0.00700,0.02257,0.00000,0.02794,0.97527,-0.19471,0.0,2023,6,7,12,33,29,951
39.56900,0.05950,-0.04743,0.00000,0.02830,0.97417,-0.19337,0.0,2023,6,7,12,33,29,961
39.56910,0.14700,-0.34493,0.00000,0.02989,0.97624,-0.19374,0.0,2023,6,7,12,33,29,971
39.56920,-0.15050,-0.01243,0.00000,0.02867,0.97649,-0.19166,0.0,2023,6,7,12,33,29,981
39.56930,-0.11550,0.09257,0.00000,0.02989,0.97478,-0.19471,0.0,2023,6,7,12,33,29,991
39.56940,-0.08050,0.14507,0.00000,0.02965,0.97661,-0.19483,0.0,2023,6,7,12,33,29,1
39.56950,-0.06300,0.02257,0.00000,0.02745,0.97295,-0.19422,0.0,2023,6,7,12,33,29,11
39.56960,-0.13300,0.09257,0.00000,0.02769,0.97661,-0.19496,0.0,2023,6,7,12,33,29,21
39.56970,0.04200,0.16257,0.00000,0.02855,0.97502,-0.19471,0.0,2023,6,7,12,33,29,31
39.56980,-0.22050,0.14507,0.00000,0.02940,0.97515,-0.19435,0.0,2023,6,7,12,33,29,41
39.56990,0.16450,-0.01243,0.00000,0.02769,0.97600,-0.19630,0.0,2023,6,7,12,33,29,51
39.57000,0.11200,-0.11743,0.00000,0.02952,0.97563,-0.19410,0.0,2023,6,7,12,33,29,61
39.57010,-0.09800,-0.02993,0.00000,0.03062,0.97466,-0.19471,0.0,2023,6,7,12,33,29,71
39.57020,-0.13300,0.04007,0.00000,0.02867,0.97551,-0.19508,0.0,2023,6,7,12,33,29,81
39.57030,0.07700,-0.11743,0.00000,0.02952,0.97637,-0.19593,0.0,2023,6,7,12,33,29,91
39.57040,0.00700,-0.08243,0.00000,0.02794,0.97685,-0.19386,0.0,2023,6,7,12,33,29,101
39.57050,-0.11550,0.32007,0.00000,0.02867,0.97698,-0.19386,0.0,2023,6,7,12,33,29,111
39.57060,-0.04550,0.09257,0.00000,0.02769,0.97698,-0.19410,0.0,2023,6,7,12,33,29,121
39.57070,0.14700,-0.11743,0.00000,0.02757,0.97466,-0.19410,0.0,2023,6,7,12,33,29,131
39.57080,-0.08050,-0.01243,0.00000,0.02940,0.97563,-0.19313,0.0,2023,6,7,12,33,29,141
39.57090,-0.15050,0.05757,0.00000,0.02806,0.97844,-0.19398,0.0,2023,6,7,12,33,29,151
39.57100,0.00700,0.09257,0.00000,0.02843,0.97319,-0.19508,0.0,2023,6,7,12,33,29,161
39.57110,-0.13300,0.05757,0.00000,0.02904,0.97429,-0.19459,0.0,2023,6,7,12,33,29,171
39.57120,-0.01050,0.09257,0.00000,0.02867,0.97576,-0.19557,0.0,2023,6,7,12,33,29,181
39.57130,0.05950,0.00507,0.00000,0.02757,0.97527,-0.19691,0.0,2023,6,7,12,33,29,191
39.57140,-0.23800,0.05757,0.00000,0.03184,0.97783,-0.19618,0.0,2023,6,7,12,33,29,201
39.57150,-0.11550,0.02257,0.00000,0.02855,0.97393,-0.19642,0.0,2023,6,7,12,33,29,211
39.57160,-0.09800,0.00507,0.00000,0.02611,0.97527,-0.19618,0.0,2023,6,7,12,33,29,221
39.57170,0.11200,0.02257,0.00000,0.02965,0.97624,-0.19569,0.0,2023,6,7,12,33,29,231
39.57180,-0.13300,-0.02993,0.00000,0.02782,0.97612,-0.19630,0.0,2023,6,7,12,33,29,241
39.57190,-0.02800,-0.01243,0.00000,0.02867,0.97661,-0.19569,0.0,2023,6,7,12,33,29,251
39.57200,-0.11550,-0.09993,0.00000,0.02977,0.97368,-0.19849,0.0,2023,6,7,12,33,29,261
39.57210,-0.09800,0.14507,0.00000,0.02904,0.97502,-0.19593,0.0,2023,6,7,12,33,29,271
39.57220,0.12950,-0.04743,0.00000,0.02843,0.97563,-0.19837,0.0,2023,6,7,12,33,29,281
39.57230,0.14700,-0.11743,0.00000,0.02867,0.97454,-0.19508,0.0,2023,6,7,12,33,29,291
39.57240,0.04200,-0.04743,0.00000,0.02733,0.97649,-0.19825,0.0,2023,6,7,12,33,29,301
39.57250,-0.04550,0.02257,0.00000,0.02830,0.97368,-0.19703,0.0,2023,6,7,12,33,29,311
39.57260,-0.02800,0.05757,0.00000,0.02769,0.97502,-0.19874,0.0,2023,6,7,12,33,29,321
39.57270,-0.09800,0.09257,0.00000,0.02794,0.97612,-0.19605,0.0,2023,6,7,12,33,29,331
39.57280,-0.01050,-0.02993,0.00000,0.02830,0.97637,-0.19776,0.0,2023,6,7,12,33,29,341
39.57290,-0.04550,-0.04743,0.00000,0.02696,0.97710,-0.19581,0.0,2023,6,7,12,33,29,351
39.57300,0.11200,0.07507,0.00000,0.02940,0.97588,-0.19642,0.0,2023,6,7,12,33,29,361
39.57310,-0.18550,-0.01243,0.00000,0.02794,0.97441,-0.19666,0.0,2023,6,7,12,33,29,371
39.57320,-0.08050,0.12757,0.00000,0.02916,0.97661,-0.19740,0.0,2023,6,7,12,33,29,381
39.57330,-0.18550,-0.02993,0.00000,0.02721,0.97515,-0.19496,0.0,2023,6,7,12,33,29,391
39.57340,0.14700,0.14507,0.00000,0.02611,0.97490,-0.19532,0.0,2023,6,7,12,33,30,401
39.57350,-0.06300,-0.22243,0.00000,0.02855,0.97588,-0.19727,0.0,2023,6,7,12,33,30,411
39.57360,-0.04550,0.05757,0.00000,0.02745,0.97417,-0.19654,0.0,2023,6,7,12,33,30,421
39.57370,0.09450,-0.01243,0.00000,0.02904,0.97698,-0.19910,0.0,2023,6,7,12,33,30,431
39.57380,-0.06300,-0.11743,0.00000,0.02928,0.97527,-0.19801,0.0,2023,6,7,12,33,30,441
39.57390,0.14700,0.11007,0.00000,0.02843,0.97490,-0.19801,0.0,2023,6,7,12,33,30,451
39.57400,0.09450,0.04007,0.00000,0.02916,0.97759,-0.19788,0.0,2023,6,7,12,33,30,461
39.57410,-0.13300,0.04007,0.00000,0.02672,0.97563,-0.19666,0.0,2023,6,7,12,33,30,471
39.57420,-0.15050,-0.08243,0.00000,0.02635,0.97539,-0.19508,0.0,2023,6,7,12,33,30,481
39.57430,-0.11550,0.05757,0.00000,0.03074,0.97490,-0.19679,0.0,2023,6,7,12,33,30,491
39.57440,0.04200,0.00507,0.00000,0.02733,0.97466,-0.19764,0.0,2023,6,7,12,33,30,501
39.57450,-0.15050,0.25007,0.00000,0.02904,0.97454,-0.19593,0.0,2023,6,7,12,33,30,511
39.57460,-0.01050,0.35507,0.00000,0.02586,0.97722,-0.19898,0.0,2023,6,7,12,33,30,521
39.57470,0.04200,0.07507,0.00000,0.02794,0.97417,-0.19764,0.0,2023,6,7,12,33,30,531
39.57480,-0.04550,0.07507,0.00000,0.03062,0.97539,-0.19374,0.0,2023,6,7,12,33,30,541
39.57490,0.16450,0.04007,0.00000,0.02660,0.97795,-0.19520,0.0,2023,6,7,12,33,30,551
39.57500,-0.08050,-0.02993,0.00000,0.02891,0.97637,-0.19630,0.0,2023,6,7,12,33,30,561
39.57510,0.00700,0.02257,0.00000,0.02867,0.97539,-0.19264,0.0,2023,6,7,12,33,30,571
39.57520,-0.08050,0.05757,0.00000,0.02904,0.97673,-0.19752,0.0,2023,6,7,12,33,30,581
39.57530,0.02450,0.25007,0.00000,0.02745,0.97332,-0.19837,0.0,2023,6,7,12,33,30,591
39.57540,-0.15050,0.23257,0.00000,0.02855,0.97600,-0.19764,0.0,2023,6,7,12,33,30,601
39.57550,-0.18550,0.14507,0.00000,0.02879,0.97490,-0.19776,0.0,2023,6,7,12,33,30,611
39.57560,0.02450,0.21507,0.00000,0.02611,0.97466,-0.19837,0.0,2023,6,7,12,33,30,621
39.57570,0.12950,-0.11743,0.00000,0.02745,0.97673,-0.19410,0.0,2023,6,7,12,33,30,631
39.57580,-0.13300,0.18007,0.00000,0.02891,0.97820,-0.19630,0.0,2023,6,7,12,33,30,641
39.57590,0.04200,-0.02993,0.00000,0.02769,0.97624,-0.19764,0.0,2023,6,7,12,33,30,651
39.57600,-0.08050,0.09257,0.00000,0.02916,0.97490,-0.19666,0.0,2023,6,7,12,33,30,661
39.57610,-0.04550,-0.15243,0.00000,0.02879,0.97441,-0.19727,0.0,2023,6,7,12,33,30,671
39.57620,0.07700,-0.01243,0.00000,0.02916,0.97746,-0.19874,0.0,2023,6,7,12,33,30,681
39.57630,0.07700,0.02257,0.00000,0.02647,0.97649,-0.19642,0.0,2023,6,7,12,33,30,691
39.57640,-0.09800,0.05757,0.00000,0.02843,0.97466,-0.19337,0.0,2023,6,7,12,33,30,701
39.57650,0.05950,-0.04743,0.00000,0.02916,0.97612,-0.19715,0.0,2023,6,7,12,33,30,711
39.57660,0.00700,-0.13493,0.00000,0.02611,0.97673,-0.19752,0.0,2023,6,7,12,33,30,721
39.57670,0.04200,-0.27493,0.00000,0.02635,0.97405,-0.19544,0.0,2023,6,7,12,33,30,731
39.57680,0.04200,-0.22243,0.00000,0.02916,0.97734,-0.19691,0.0,2023,6,7,12,33,30,741
39.57690,0.00700,-0.08243,0.00000,0.02647,0.97746,-0.19910,0.0,2023,6,7,12,33,30,751
39.57700,0.00700,0.09257,0.00000,0.02843,0.97734,-0.19654,0.0,2023,6,7,12,33,30,761
39.57710,0.04200,0.02257,0.00000,0.02916,0.97527,-0.19752,0.0,2023,6,7,12,33,30,771
39.57720,0.19950,0.05757,0.00000,0.02757,0.97527,-0.19813,0.0,2023,6,7,12,33,30,781
39.57730,-0.15050,0.05757,0.00000,0.02879,0.97551,-0.19593,0.0,2023,6,7,12,33,30,791
39.57740,0.00700,-0.27493,0.00000,0.02721,0.97344,-0.19666,0.0,2023,6,7,12,33,30,801
39.57750,-0.16800,0.07507,0.00000,0.02879,0.97807,-0.19898,0.0,2023,6,7,12,33,30,811
39.57760,-0.01050,0.11007,0.00000,0.02989,0.97490,-0.19520,0.0,2023,6,7,12,33,30,821
39.57770,0.02450,0.14507,0.00000,0.02855,0.97490,-0.19605,0.0,2023,6,7,12,33,30,831
39.57780,-0.06300,-0.02993,0.00000,0.02867,0.97649,-0.19947,0.0,2023,6,7,12,33,30,841
39.57790,0.04200,0.00507,0.00000,0.02818,0.97539,-0.19752,0.0,2023,6,7,12,33,30,851
39.57800,0.04200,0.00507,0.00000,0.02879,0.97551,-0.19630,0.0,2023,6,7,12,33,30,861
39.57810,-0.02800,-0.22243,0.00000,0.02782,0.97673,-0.19727,0.0,2023,6,7,12,33,30,871
39.57820,-0.09800,-0.04743,0.00000,0.02782,0.97624,-0.19703,0.0,2023,6,7,12,33,30,881
39.57830,0.02450,0.02257,0.00000,0.02696,0.97710,-0.19630,0.0,2023,6,7,12,33,30,891
39.57840,0.14700,-0.13493,0.00000,0.02708,0.97563,-0.19727,0.0,2023,6,7,12,33,30,901
39.57850,0.04200,-0.16993,0.00000,0.02769,0.97405,-0.19715,0.0,2023,6,7,12,33,30,911
39.57860,-0.02800,0.12757,0.00000,0.02794,0.97344,-0.19593,0.0,2023,6,7,12,33,30,921
39.57870,-0.15050,0.04007,0.00000,0.03123,0.97612,-0.19520,0.0,2023,6,7,12,33,30,931
39.57880,0.05950,0.09257,0.00000,0.02830,0.97490,-0.19959,0.0,2023,6,7,12,33,30,941
39.57890,0.02450,0.11007,0.00000,0.02916,0.97393,-0.19496,0.0,2023,6,7,12,33,30,951
39.57900,0.12950,-0.11743,0.00000,0.02830,0.97515,-0.19691,0.0,2023,6,7,12,33,30,961
39.57910,-0.01050,-0.04743,0.00000,0.02904,0.97820,-0.19520,0.0,2023,6,7,12,33,30,971
39.57920,0.21700,0.05757,0.00000,0.02721,0.97393,-0.19813,0.0,2023,6,7,12,33,30,981
39.57930,0.00700,-0.01243,0.00000,0.02806,0.97673,-0.19581,0.0,2023,6,7,12,33,30,991
39.57940,0.02450,-0.01243,0.00000,0.02745,0.97698,-0.19593,0.0,2023,6,7,12,33,30,1
39.57950,0.04200,0.11007,0.00000,0.02830,0.97368,-0.19764,0.0,2023,6,7,12,33,30,11
39.57960,0.05950,0.21507,0.00000,0.02952,0.97332,-0.19459,0.0,2023,6,7,12,33,30,21
39.57970,-0.01050,-0.01243,0.00000,0.02867,0.97637,-0.19557,0.0,2023,6,7,12,33,30,31
39.57980,-0.09800,-0.06493,0.00000,0.02891,0.97539,-0.19654,0.0,2023,6,7,12,33,30,41
39.57990,-0.04550,0.16257,0.00000,0.02830,0.97515,-0.19666,0.0,2023,6,7,12,33,30,51
39.58000,0.04200,-0.01243,0.00000,0.02855,0.97344,-0.19435,0.0,2023,6,7,12,33,30,61
39.58010,-0.08050,0.16257,0.00000,0.02891,0.97441,-0.19471,0.0,2023,6,7,12,33,30,71
39.58020,0.18200,0.04007,0.00000,0.02940,0.97661,-0.19618,0.0,2023,6,7,12,33,30,81
39.58030,-0.01050,-0.18743,0.00000,0.02843,0.97417,-0.19557,0.0,2023,6,7,12,33,30,91
39.58040,0.04200,0.05757,0.00000,0.02916,0.97661,-0.19471,0.0,2023,6,7,12,33,30,101
39.58050,0.05950,-0.22243,0.00000,0.02843,0.97515,-0.19703,0.0,2023,6,7,12,33,30,111
39.58060,0.18200,-0.01243,0.00000,0.02916,0.97576,-0.19374,0.0,2023,6,7,12,33,30,121
39.58070,-0.04550,0.19757,0.00000,0.02977,0.97807,-0.19410,0.0,2023,6,7,12,33,30,131
39.58080,-0.18550,0.07507,0.00000,0.02940,0.97454,-0.19483,0.0,2023,6,7,12,33,30,141
39.58090,-0.01050,-0.16993,0.00000,0.02891,0.97698,-0.19618,0.0,2023,6,7,12,33,30,151
39.58100,-0.02800,0.28507,0.00000,0.02928,0.97393,-0.19471,0.0,2023,6,7,12,33,30,161
39.58110,0.07700,-0.29243,0.00000,0.02830,0.97490,-0.19557,0.0,2023,6,7,12,33,30,171
39.58120,-0.02800,-0.15243,0.00000,0.02562,0.97441,-0.19813,0.0,2023,6,7,12,33,30,181
39.58130,0.02450,0.00507,0.00000,0.02855,0.97637,-0.19544,0.0,2023,6,7,12,33,30,191
39.58140,0.00700,0.05757,0.00000,0.02904,0.97527,-0.19508,0.0,2023,6,7,12,33,30,201
39.58150,-0.06300,0.05757,0.00000,0.02721,0.97576,-0.19508,0.0,2023,6,7,12,33,30,211
39.58160,-0.09800,0.05757,0.00000,0.02794,0.97576,-0.19654,0.0,2023,6,7,12,33,30,221
39.58170,-0.30800,0.04007,0.00000,0.02904,0.97539,-0.19727,0.0,2023,6,7,12,33,30,231
39.58180,0.00700,0.07507,0.00000,0.02916,0.97441,-0.19569,0.0,2023,6,7,12,33,30,241
39.58190,0.00700,-0.08243,0.00000,0.03038,0.97624,-0.19581,0.0,2023,6,7,12,33,30,251
39.58200,0.05950,0.12757,0.00000,0.02830,0.97454,-0.19337,0.0,2023,6,7,12,33,30,261
39.58210,-0.15050,-0.16993,0.00000,0.02757,0.97539,-0.19593,0.0,2023,6,7,12,33,30,271
39.58220,-0.16800,-0.08243,0.00000,0.02891,0.97515,-0.19532,0.0,2023,6,7,12,33,30,281
39.58230,-0.20300,-0.01243,0.00000,0.02904,0.97258,-0.19630,0.0,2023,6,7,12,33,30,291
39.58240,-0.08050,-0.01243,0.00000,0.02977,0.97539,-0.19654,0.0,2023,6,7,12,33,31,301
39.58250,0.09450,0.09257,0.00000,0.03013,0.97576,-0.19422,0.0,2023,6,7,12,33,31,311
39.58260,-0.04550,-0.04743,0.00000,0.02855,0.97527,-0.19532,0.0,2023,6,7,12,33,31,321
39.58270,-0.08050,-0.08243,0.00000,0.02769,0.97527,-0.19447,0.0,2023,6,7,12,33,31,331
39.58280,-0.01050,-0.23993,0.00000,0.02977,0.97820,-0.19410,0.0,2023,6,7,12,33,31,341
39.58290,0.07700,0.11007,0.00000,0.02806,0.97319,-0.19398,0.0,2023,6,7,12,33,31,351
39.58300,-0.02800,0.12757,0.00000,0.02721,0.97454,-0.19642,0.0,2023,6,7,12,33,31,361
39.58310,-0.02800,0.05757,0.00000,0.02989,0.97612,-0.19532,0.0,2023,6,7,12,33,31,371
39.58320,0.00700,0.11007,0.00000,0.02965,0.97539,-0.19496,0.0,2023,6,7,12,33,31,381
39.58330,0.02450,-0.02993,0.00000,0.02708,0.97759,-0.19618,0.0,2023,6,7,12,33,31,391
39.58340,0.04200,0.02257,0.00000,0.02794,0.97478,-0.19520,0.0,2023,6,7,12,33,31,401
39.58350,0.16450,-0.16993,0.00000,0.03050,0.97478,-0.19483,0.0,2023,6,7,12,33,31,411
39.58360,-0.09800,0.09257,0.00000,0.02879,0.97588,-0.19483,0.0,2023,6,7,12,33,31,421
39.58370,0.00700,0.14507,0.00000,0.02794,0.97332,-0.19581,0.0,2023,6,7,12,33,31,431
39.58380,-0.18550,0.09257,0.00000,0.02952,0.97576,-0.19349,0.0,2023,6,7,12,33,31,441
39.58390,0.11200,0.05757,0.00000,0.03087,0.97551,-0.19410,0.0,2023,6,7,12,33,31,451
39.58400,0.14700,0.04007,0.00000,0.02769,0.97661,-0.19593,0.0,2023,6,7,12,33,31,461
39.58410,0.12950,-0.15243,0.00000,0.02940,0.97466,-0.19386,0.0,2023,6,7,12,33,31,471
39.58420,-0.06300,0.00507,0.00000,0.02940,0.97502,-0.19532,0.0,2023,6,7,12,33,31,481
39.58430,-0.11550,0.21507,0.00000,0.02867,0.97380,-0.19447,0.0,2023,6,7,12,33,31,491
39.58440,-0.02800,-0.04743,0.00000,0.02721,0.97673,-0.19410,0.0,2023,6,7,12,33,31,501
39.58450,-0.08050,-0.08243,0.00000,0.02794,0.97466,-0.19654,0.0,2023,6,7,12,33,31,511
39.58460,0.07700,-0.16993,0.00000,0.03087,0.97759,-0.19557,0.0,2023,6,7,12,33,31,521
39.58470,0.12950,0.00507,0.00000,0.02891,0.97612,-0.19581,0.0,2023,6,7,12,33,31,531
39.58480,-0.06300,0.14507,0.00000,0.02794,0.97539,-0.19410,0.0,2023,6,7,12,33,31,541
39.58490,0.07700,-0.04743,0.00000,0.02855,0.97698,-0.19752,0.0,2023,6,7,12,33,31,551
39.58500,0.16450,-0.22243,0.00000,0.02867,0.97417,-0.19313,0.0,2023,6,7,12,33,31,561
39.58510,0.04200,-0.15243,0.00000,0.02904,0.97527,-0.19239,0.0,2023,6,7,12,33,31,571
39.58520,0.07700,-0.04743,0.00000,0.02965,0.97637,-0.19471,0.0,2023,6,7,12,33,31,581
39.58530,0.04200,0.05757,0.00000,0.02867,0.97515,-0.19557,0.0,2023,6,7,12,33,31,591
39.58540,-0.08050,0.07507,0.00000,0.03074,0.97490,-0.19569,0.0,2023,6,7,12,33,31,601
39.58550,0.02450,0.12757,0.00000,0.02989,0.97649,-0.19715,0.0,2023,6,7,12,33,31,611
39.58560,-0.04550,0.04007,0.00000,0.02660,0.97490,-0.19532,0.0,2023,6,7,12,33,31,621
39.58570,0.05950,-0.06493,0.00000,0.02843,0.97612,-0.19410,0.0,2023,6,7,12,33,31,631
39.58580,-0.09800,0.19757,0.00000,0.02684,0.97673,-0.19483,0.0,2023,6,7,12,33,31,641
39.58590,-0.06300,-0.08243,0.00000,0.02733,0.97685,-0.19447,0.0,2023,6,7,12,33,31,651
39.58600,-0.06300,-0.11743,0.00000,0.02952,0.97515,-0.19496,0.0,2023,6,7,12,33,31,661
39.58610,0.00700,0.14507,0.00000,0.02635,0.97258,-0.19459,0.0,2023,6,7,12,33,31,671
39.58620,0.00700,0.11007,0.00000,0.02757,0.97771,-0.19569,0.0,2023,6,7,12,33,31,681
39.58630,-0.11550,0.09257,0.00000,0.02965,0.97295,-0.19361,0.0,2023,6,7,12,33,31,691
39.58640,0.11200,-0.13493,0.00000,0.02806,0.97393,-0.19508,0.0,2023,6,7,12,33,31,701
39.58650,0.00700,-0.01243,0.00000,0.02940,0.97600,-0.19496,0.0,2023,6,7,12,33,31,711
39.58660,-0.08050,-0.02993,0.00000,0.02550,0.97429,-0.19569,0.0,2023,6,7,12,33,31,721
39.58670,-0.01050,-0.08243,0.00000,0.02769,0.97661,-0.19386,0.0,2023,6,7,12,33,31,731
39.58680,-0.06300,-0.16993,0.00000,0.02806,0.97710,-0.19532,0.0,2023,6,7,12,33,31,741
39.58690,-0.09800,0.16257,0.00000,0.03099,0.97600,-0.19410,0.0,2023,6,7,12,33,31,751
39.58700,0.12950,0.32007,0.00000,0.02830,0.97490,-0.19386,0.0,2023,6,7,12,33,31,761
39.58710,-0.02800,-0.11743,0.00000,0.02867,0.97588,-0.19410,0.0,2023,6,7,12,33,31,771
39.58720,-0.04550,0.11007,0.00000,0.02623,0.97734,-0.19325,0.0,2023,6,7,12,33,31,781
39.58730,-0.06300,0.00507,0.00000,0.02696,0.97649,-0.19508,0.0,2023,6,7,12,33,31,791
39.58740,-0.02800,0.00507,0.00000,0.03038,0.97637,-0.19569,0.0,2023,6,7,12,33,31,801
39.58750,0.02450,0.05757,0.00000,0.02830,0.97844,-0.19496,0.0,2023,6,7,12,33,31,811
39.58760,0.05950,0.07507,0.00000,0.02806,0.97515,-0.19752,0.0,2023,6,7,12,33,31,821
39.58770,0.05950,-0.15243,0.00000,0.03099,0.97515,-0.19447,0.0,2023,6,7,12,33,31,831
39.58780,0.02450,-0.08243,0.00000,0.02916,0.97576,-0.19727,0.0,2023,6,7,12,33,31,841
39.58790,0.23450,-0.01243,0.00000,0.02965,0.97588,-0.19386,0.0,2023,6,7,12,33,31,851
39.58800,0.04200,-0.09993,0.00000,0.03172,0.97734,-0.19435,0.0,2023,6,7,12,33,31,861
39.58810,-0.04550,0.02257,0.00000,0.02830,0.97356,-0.19569,0.0,2023,6,7,12,33,31,871
39.58820,0.12950,0.00507,0.00000,0.02940,0.97588,-0.19764,0.0,2023,6,7,12,33,31,881
39.58830,-0.08050,0.04007,0.00000,0.02940,0.97380,-0.19581,0.0,2023,6,7,12,33,31,891
39.58840,-0.06300,0.02257,0.00000,0.03038,0.97393,-0.19544,0.0,2023,6,7,12,33,31,901
39.58850,0.23450,0.07507,0.00000,0.02855,0.97661,-0.19459,0.0,2023,6,7,12,33,31,911
39.58860,-0.09800,0.02257,0.00000,0.02745,0.97746,-0.19483,0.0,2023,6,7,12,33,31,921
39.58870,-0.02800,-0.01243,0.00000,0.02977,0.97685,-0.19508,0.0,2023,6,7,12,33,31,931
39.58880,-0.01050,0.23257,0.00000,0.02891,0.97624,-0.19496,0.0,2023,6,7,12,33,31,941
39.58890,-0.11550,0.04007,0.00000,0.02843,0.97759,-0.19569,0.0,2023,6,7,12,33,31,951
39.58900,0.11200,-0.04743,0.00000,0.02855,0.97551,-0.19313,0.0,2023,6,7,12,33,31,961
39.58910,0.02450,-0.01243,0.00000,0.03013,0.97551,-0.19398,0.0,2023,6,7,12,33,31,971
39.58920,0.05950,-0.01243,0.00000,0.02830,0.97441,-0.19642,0.0,2023,6,7,12,33,31,981
39.58930,-0.08050,0.00507,0.00000,0.03050,0.97661,-0.19459,0.0,2023,6,7,12,33,31,991
39.58940,-0.02800,0.02257,0.00000,0.02952,0.97356,-0.19569,0.0,2023,6,7,12,33,31,1
39.58950,0.07700,-0.06493,0.00000,0.02989,0.97795,-0.19544,0.0,2023,6,7,12,33,31,11
39.58960,-0.08050,0.02257,0.00000,0.02989,0.97624,-0.19642,0.0,2023,6,7,12,33,31,21
39.58970,-0.13300,-0.02993,0.00000,0.02977,0.97624,-0.19435,0.0,2023,6,7,12,33,31,31
39.58980,0.16450,0.23257,0.00000,0.02818,0.97551,-0.19459,0.0,2023,6,7,12,33,31,41
39.58990,0.11200,-0.01243,0.00000,0.02721,0.97637,-0.19605,0.0,2023,6,7,12,33,31,51
39.59000,-0.13300,0.12757,0.00000,0.02599,0.97441,-0.19788,0.0,2023,6,7,12,33,31,61
39.59010,0.02450,-0.02993,0.00000,0.02891,0.97539,-0.19471,0.0,2023,6,7,12,33,31,71
39.59020,-0.11550,-0.01243,0.00000,0.02855,0.97515,-0.19703,0.0,2023,6,7,12,33,31,81
39.59030,0.11200,-0.01243,0.00000,0.02672,0.97527,-0.19496,0.0,2023,6,7,12,33,31,91
39.59040,0.02450,0.12757,0.00000,0.02721,0.97698,-0.19386,0.0,2023,6,7,12,33,31,101
39.59050,0.00700,0.05757,0.00000,0.02879,0.97417,-0.19471,0.0,2023,6,7,12,33,31,111
39.59060,-0.15050,0.11007,0.00000,0.03038,0.97563,-0.19569,0.0,2023,6,7,12,33,31,121
39.59070,0.05950,-0.01243,0.00000,0.02891,0.97490,-0.19557,0.0,2023,6,7,12,33,31,131
39.59080,0.05950,-0.04743,0.00000,0.02879,0.97588,-0.19203,0.0,2023,6,7,12,33,31,141
39.59090,-0.06300,-0.11743,0.00000,0.02891,0.97649,-0.19544,0.0,2023,6,7,12,33,31,151
39.59100,-0.29050,0.02257,0.00000,0.02904,0.97417,-0.19471,0.0,2023,6,7,12,33,31,161
39.59110,0.00700,0.04007,0.00000,0.02916,0.97832,-0.19154,0.0,2023,6,7,12,33,31,171
39.59120,0.02450,-0.11743,0.00000,0.02843,0.97466,-0.19642,0.0,2023,6,7,12,33,31,181
39.59130,-0.22050,0.21507,0.00000,0.02830,0.97368,-0.19679,0.0,2023,6,7,12,33,31,191
39.59140,-0.01050,-0.06493,0.00000,0.02952,0.97661,-0.19532,0.0,2023,6,7,12,33,32,201
39.59150,-0.08050,0.07507,0.00000,0.02952,0.97698,-0.19496,0.0,2023,6,7,12,33,32,211
39.59160,-0.09800,0.09257,0.00000,0.02721,0.97600,-0.19544,0.0,2023,6,7,12,33,32,221
39.59170,-0.01050,-0.11743,0.00000,0.02940,0.97515,-0.19178,0.0,2023,6,7,12,33,32,231
39.59180,-0.02800,-0.02993,0.00000,0.02745,0.97356,-0.19532,0.0,2023,6,7,12,33,32,241
39.59190,0.05950,0.14507,0.00000,0.02916,0.97624,-0.19727,0.0,2023,6,7,12,33,32,251
39.59200,0.18200,-0.01243,0.00000,0.03001,0.97612,-0.19398,0.0,2023,6,7,12,33,32,261
39.59210,0.02450,0.02257,0.00000,0.02806,0.97417,-0.19666,0.0,2023,6,7,12,33,32,271
39.59220,-0.22050,0.16257,0.00000,0.02989,0.97685,-0.19483,0.0,2023,6,7,12,33,32,281
39.59230,-0.04550,-0.08243,0.00000,0.02757,0.97588,-0.19569,0.0,2023,6,7,12,33,32,291
39.59240,0.12950,-0.20493,0.00000,0.03026,0.97502,-0.19459,0.0,2023,6,7,12,33,32,301
39.59250,0.07700,-0.06493,0.00000,0.03233,0.97710,-0.19532,0.0,2023,6,7,12,33,32,311
39.59260,0.07700,-0.23993,0.00000,0.02599,0.97637,-0.19642,0.0,2023,6,7,12,33,32,321
39.59270,0.33950,-0.13493,0.00000,0.02745,0.97771,-0.19300,0.0,2023,6,7,12,33,32,331
39.59280,0.11200,-0.08243,0.00000,0.02977,0.97710,-0.19447,0.0,2023,6,7,12,33,32,341
39.59290,0.04200,-0.08243,0.00000,0.02940,0.97820,-0.19459,0.0,2023,6,7,12,33,32,351
39.59300,-0.02800,-0.04743,0.00000,0.02696,0.97844,-0.19520,0.0,2023,6,7,12,33,32,361
39.59310,0.12950,0.05757,0.00000,0.02989,0.97637,-0.19581,0.0,2023,6,7,12,33,32,371
39.59320,0.09450,-0.16993,0.00000,0.02721,0.97649,-0.19703,0.0,2023,6,7,12,33,32,381
39.59330,0.11200,0.00507,0.00000,0.02879,0.97490,-0.19593,0.0,2023,6,7,12,33,32,391
39.59340,0.07700,-0.01243,0.00000,0.02904,0.97881,-0.19508,0.0,2023,6,7,12,33,32,401
39.59350,0.00700,-0.18743,0.00000,0.02904,0.97515,-0.19459,0.0,2023,6,7,12,33,32,411
39.59360,-0.04550,-0.23993,0.00000,0.02891,0.97637,-0.19422,0.0,2023,6,7,12,33,32,421
39.59370,-0.02800,0.00507,0.00000,0.03001,0.97734,-0.19422,0.0,2023,6,7,12,33,32,431
39.59380,-0.09800,0.00507,0.00000,0.02928,0.97441,-0.19557,0.0,2023,6,7,12,33,32,441
39.59390,0.00700,-0.23993,0.00000,0.03074,0.97588,-0.19508,0.0,2023,6,7,12,33,32,451
39.59400,-0.02800,0.09257,0.00000,0.03001,0.97637,-0.19630,0.0,2023,6,7,12,33,32,461
39.59410,-0.06300,-0.08243,0.00000,0.03111,0.97868,-0.19410,0.0,2023,6,7,12,33,32,471
39.59420,0.14700,0.07507,0.00000,0.02855,0.97551,-0.19605,0.0,2023,6,7,12,33,32,481
39.59430,0.09450,-0.09993,0.00000,0.03148,0.97576,-0.19459,0.0,2023,6,7,12,33,32,491
39.59440,0.09450,0.04007,0.00000,0.02830,0.97502,-0.19508,0.0,2023,6,7,12,33,32,501
39.59450,0.05950,0.25007,0.00000,0.02830,0.97637,-0.19435,0.0,2023,6,7,12,33,32,511
39.59460,0.04200,0.07507,0.00000,0.02965,0.97539,-0.19398,0.0,2023,6,7,12,33,32,521
39.59470,-0.01050,-0.20493,0.00000,0.02708,0.97600,-0.19288,0.0,2023,6,7,12,33,32,531
39.59480,-0.04550,-0.04743,0.00000,0.02916,0.97576,-0.19581,0.0,2023,6,7,12,33,32,541
39.59490,-0.01050,0.25007,0.00000,0.02660,0.97893,-0.19532,0.0,2023,6,7,12,33,32,551
39.59500,0.14700,-0.02993,0.00000,0.02733,0.97673,-0.19483,0.0,2023,6,7,12,33,32,561
39.59510,0.05950,0.00507,0.00000,0.02891,0.97393,-0.19459,0.0,2023,6,7,12,33,32,571
39.59520,-0.02800,0.09257,0.00000,0.02843,0.97466,-0.19569,0.0,2023,6,7,12,33,32,581
39.59530,-0.16800,0.19757,0.00000,0.02782,0.97612,-0.19703,0.0,2023,6,7,12,33,32,591
39.59540,-0.04550,-0.22243,0.00000,0.02879,0.97454,-0.19508,0.0,2023,6,7,12,33,32,601
39.59550,-0.01050,0.02257,0.00000,0.02696,0.97624,-0.19435,0.0,2023,6,7,12,33,32,611
39.59560,-0.18550,0.14507,0.00000,0.02830,0.97600,-0.19337,0.0,2023,6,7,12,33,32,621
39.59570,-0.16800,0.11007,0.00000,0.02879,0.97612,-0.19459,0.0,2023,6,7,12,33,32,631
39.59580,-0.04550,0.07507,0.00000,0.02794,0.97502,-0.19630,0.0,2023,6,7,12,33,32,641
39.59590,0.16450,-0.02993,0.00000,0.02818,0.97576,-0.19349,0.0,2023,6,7,12,33,32,651
39.59600,0.11200,-0.15243,0.00000,0.02940,0.97600,-0.19605,0.0,2023,6,7,12,33,32,661
39.59610,0.05950,-0.02993,0.00000,0.02757,0.97405,-0.19300,0.0,2023,6,7,12,33,32,671
39.59620,0.04200,-0.09993,0.00000,0.02562,0.97502,-0.19605,0.0,2023,6,7,12,33,32,681
39.59630,0.02450,-0.04743,0.00000,0.02916,0.97490,-0.19642,0.0,2023,6,7,12,33,32,691
39.59640,-0.16800,-0.29243,0.00000,0.02904,0.97673,-0.19093,0.0,2023,6,7,12,33,32,701
39.59650,0.16450,0.18007,0.00000,0.02965,0.97661,-0.19337,0.0,2023,6,7,12,33,32,711
39.59660,0.04200,0.04007,0.00000,0.03026,0.97405,-0.19313,0.0,2023,6,7,12,33,32,721
39.59670,0.00700,0.05757,0.00000,0.03013,0.97698,-0.19313,0.0,2023,6,7,12,33,32,731
39.59680,-0.13300,-0.04743,0.00000,0.02879,0.97710,-0.19386,0.0,2023,6,7,12,33,32,741
39.59690,0.02450,0.05757,0.00000,0.02904,0.97539,-0.19386,0.0,2023,6,7,12,33,32,751
39.59700,-0.11550,-0.04743,0.00000,0.02904,0.97515,-0.19605,0.0,2023,6,7,12,33,32,761
39.59710,-0.02800,-0.01243,0.00000,0.02794,0.97502,-0.19093,0.0,2023,6,7,12,33,32,771
39.59720,-0.06300,-0.09993,0.00000,0.02623,0.97539,-0.19361,0.0,2023,6,7,12,33,32,781
39.59730,0.04200,-0.22243,0.00000,0.02782,0.97490,-0.19386,0.0,2023,6,7,12,33,32,791
39.59740,-0.15050,-0.06493,0.00000,0.03001,0.97576,-0.19703,0.0,2023,6,7,12,33,32,801
39.59750,0.12950,-0.13493,0.00000,0.02940,0.97441,-0.19203,0.0,2023,6,7,12,33,32,811
39.59760,0.02450,0.09257,0.00000,0.02928,0.97527,-0.19666,0.0,2023,6,7,12,33,32,821
39.59770,0.09450,-0.18743,0.00000,0.02855,0.97637,-0.19532,0.0,2023,6,7,12,33,32,831
39.59780,0.00700,-0.25743,0.00000,0.02855,0.97612,-0.19313,0.0,2023,6,7,12,33,32,841
39.59790,0.12950,-0.02993,0.00000,0.03026,0.97576,-0.19276,0.0,2023,6,7,12,33,32,851
39.59800,0.00700,-0.08243,0.00000,0.02757,0.97368,-0.19398,0.0,2023,6,7,12,33,32,861
39.59810,0.05950,-0.06493,0.00000,0.02708,0.97539,-0.19422,0.0,2023,6,7,12,33,32,871
39.59820,0.21700,-0.08243,0.00000,0.02904,0.97600,-0.19313,0.0,2023,6,7,12,33,32,881
39.59830,-0.02800,0.16257,0.00000,0.02891,0.97661,-0.19288,0.0,2023,6,7,12,33,32,891
39.59840,0.02450,0.05757,0.00000,0.02843,0.97649,-0.19386,0.0,2023,6,7,12,33,32,901
39.59850,-0.13300,-0.06493,0.00000,0.02891,0.97734,-0.19130,0.0,2023,6,7,12,33,32,911
39.59860,-0.04550,0.00507,0.00000,0.02904,0.97551,-0.19227,0.0,2023,6,7,12,33,32,921
39.59870,-0.01050,-0.11743,0.00000,0.02757,0.97600,-0.19508,0.0,2023,6,7,12,33,32,931
39.59880,-0.06300,0.07507,0.00000,0.03026,0.97563,-0.19410,0.0,2023,6,7,12,33,32,941
39.59890,0.05950,0.18007,0.00000,0.02952,0.97673,-0.19227,0.0,2023,6,7,12,33,32,951
39.59900,-0.01050,0.19757,0.00000,0.02855,0.97771,-0.19337,0.0,2023,6,7,12,33,32,961
39.59910,0.14700,0.00507,0.00000,0.02928,0.97637,-0.19630,0.0,2023,6,7,12,33,32,971
39.59920,0.09450,0.04007,0.00000,0.03013,0.97759,-0.19386,0.0,2023,6,7,12,33,32,981
39.59930,0.18200,-0.08243,0.00000,0.02977,0.97673,-0.19593,0.0,2023,6,7,12,33,32,991
39.59940,0.09450,0.19757,0.00000,0.02745,0.97746,-0.19337,0.0,2023,6,7,12,33,32,1
39.59950,0.00700,0.00507,0.00000,0.02940,0.97624,-0.19337,0.0,2023,6,7,12,33,32,11
39.59960,-0.16800,0.04007,0.00000,0.02855,0.97563,-0.19374,0.0,2023,6,7,12,33,32,21
39.59970,-0.06300,0.00507,0.00000,0.02684,0.97698,-0.19422,0.0,2023,6,7,12,33,32,31
39.59980,0.04200,0.04007,0.00000,0.02952,0.97783,-0.19630,0.0,2023,6,7,12,33,32,41
39.59990,-0.15050,-0.20493,0.00000,0.03123,0.97868,-0.19288,0.0,2023,6,7,12,33,32,51
39.60000,-0.01050,0.02257,0.00000,0.02928,0.97746,-0.19398,0.0,2023,6,7,12,33,32,61
39.60010,0.07700,0.12757,0.00000,0.02757,0.97551,-0.19483,0.0,2023,6,7,12,33,32,71
39.60020,0.05950,-0.09993,0.00000,0.02989,0.97710,-0.19447,0.0,2023,6,7,12,33,32,81
39.60030,-0.09800,0.05757,0.00000,0.02867,0.97722,-0.19203,0.0,2023,6,7,12,33,33,91
39.60040,-0.04550,-0.04743,0.00000,0.02916,0.97685,-0.19252,0.0,2023,6,7,12,33,33,101
39.60050,0.00700,-0.16993,0.00000,0.02891,0.97466,-0.19496,0.0,2023,6,7,12,33,33,111
39.60060,0.07700,-0.01243,0.00000,0.02794,0.97844,-0.19410,0.0,2023,6,7,12,33,33,121
39.60070,0.07700,0.18007,0.00000,0.02940,0.97783,-0.19191,0.0,2023,6,7,12,33,33,131
39.60080,0.07700,-0.08243,0.00000,0.02769,0.97722,-0.19300,0.0,2023,6,7,12,33,33,141
39.60090,0.02450,0.04007,0.00000,0.02977,0.97698,-0.19239,0.0,2023,6,7,12,33,33,151
39.60100,-0.01050,-0.23993,0.00000,0.02879,0.97539,-0.19386,0.0,2023,6,7,12,33,33,161
39.60110,-0.04550,0.02257,0.00000,0.02769,0.97637,-0.19239,0.0,2023,6,7,12,33,33,171
39.60120,0.12950,-0.29243,0.00000,0.02769,0.97478,-0.19508,0.0,2023,6,7,12,33,33,181
39.60130,0.00700,-0.04743,0.00000,0.02928,0.97685,-0.19691,0.0,2023,6,7,12,33,33,191
39.60140,0.07700,0.07507,0.00000,0.02879,0.97637,-0.19557,0.0,2023,6,7,12,33,33,201
39.60150,-0.04550,0.04007,0.00000,0.03001,0.97588,-0.19496,0.0,2023,6,7,12,33,33,211
39.60160,0.05950,-0.11743,0.00000,0.02769,0.97673,-0.19557,0.0,2023,6,7,12,33,33,221
39.60170,-0.13300,0.19757,0.00000,0.02769,0.97637,-0.19581,0.0,2023,6,7,12,33,33,231
39.60180,0.07700,0.09257,0.00000,0.03074,0.97502,-0.19679,0.0,2023,6,7,12,33,33,241
39.60190,0.04200,0.07507,0.00000,0.02928,0.97551,-0.19361,0.0,2023,6,7,12,33,33,251
39.60200,0.12950,-0.15243,0.00000,0.02721,0.97502,-0.19398,0.0,2023,6,7,12,33,33,261
39.60210,-0.02800,0.21507,0.00000,0.02904,0.97454,-0.19630,0.0,2023,6,7,12,33,33,271
39.60220,0.02450,0.11007,0.00000,0.02708,0.97685,-0.19337,0.0,2023,6,7,12,33,33,281
39.60230,-0.01050,-0.06493,0.00000,0.02782,0.97429,-0.19593,0.0,2023,6,7,12,33,33,291
39.60240,-0.08050,0.14507,0.00000,0.02818,0.97539,-0.19520,0.0,2023,6,7,12,33,33,301
39.60250,-0.02800,-0.23993,0.00000,0.02745,0.97649,-0.19398,0.0,2023,6,7,12,33,33,311
39.60260,0.00700,-0.13493,0.00000,0.02721,0.97783,-0.19459,0.0,2023,6,7,12,33,33,321
39.60270,0.05950,0.18007,0.00000,0.02843,0.97454,-0.19544,0.0,2023,6,7,12,33,33,331
39.60280,0.09450,0.04007,0.00000,0.02843,0.97490,-0.19496,0.0,2023,6,7,12,33,33,341
39.60290,-0.06300,-0.22243,0.00000,0.02904,0.97539,-0.19447,0.0,2023,6,7,12,33,33,351
39.60300,-0.01050,-0.15243,0.00000,0.02843,0.97612,-0.19142,0.0,2023,6,7,12,33,33,361
39.60310,0.04200,0.11007,0.00000,0.02782,0.97197,-0.19398,0.0,2023,6,7,12,33,33,371
39.60320,-0.15050,0.00507,0.00000,0.02708,0.97624,-0.19483,0.0,2023,6,7,12,33,33,381
39.60330,0.02450,0.18007,0.00000,0.02940,0.97600,-0.19581,0.0,2023,6,7,12,33,33,391
39.60340,0.11200,0.14507,0.00000,0.02794,0.97551,-0.19435,0.0,2023,6,7,12,33,33,401
39.60350,-0.11550,0.00507,0.00000,0.02928,0.97454,-0.19508,0.0,2023,6,7,12,33,33,411
39.60360,0.16450,-0.09993,0.00000,0.02611,0.97539,-0.19435,0.0,2023,6,7,12,33,33,421
39.60370,0.00700,0.02257,0.00000,0.02830,0.97551,-0.19386,0.0,2023,6,7,12,33,33,431
39.60380,-0.11550,-0.08243,0.00000,0.02879,0.97637,-0.19459,0.0,2023,6,7,12,33,33,441
39.60390,-0.02800,-0.08243,0.00000,0.02867,0.97527,-0.19203,0.0,2023,6,7,12,33,33,451
39.60400,0.09450,-0.01243,0.00000,0.03050,0.97588,-0.19288,0.0,2023,6,7,12,33,33,461
39.60410,0.02450,-0.13493,0.00000,0.02965,0.97649,-0.19398,0.0,2023,6,7,12,33,33,471
39.60420,0.00700,0.16257,0.00000,0.02940,0.97600,-0.19459,0.0,2023,6,7,12,33,33,481
39.60430,0.04200,0.09257,0.00000,0.02891,0.97612,-0.19410,0.0,2023,6,7,12,33,33,491
39.60440,0.04200,0.12757,0.00000,0.02855,0.97734,-0.19435,0.0,2023,6,7,12,33,33,501
39.60450,-0.04550,-0.18743,0.00000,0.02721,0.97405,-0.19276,0.0,2023,6,7,12,33,33,511
39.60460,0.00700,-0.13493,0.00000,0.02916,0.97539,-0.19740,0.0,2023,6,7,12,33,33,521
39.60470,-0.11550,-0.01243,0.00000,0.02794,0.97283,-0.19459,0.0,2023,6,7,12,33,33,531
39.60480,0.11200,-0.02993,0.00000,0.02806,0.97454,-0.19325,0.0,2023,6,7,12,33,33,541
39.60490,-0.09800,-0.02993,0.00000,0.02745,0.97454,-0.19544,0.0,2023,6,7,12,33,33,551
39.60500,0.12950,-0.18743,0.00000,0.02965,0.97746,-0.19532,0.0,2023,6,7,12,33,33,561
39.60510,0.02450,-0.20493,0.00000,0.02904,0.97649,-0.19776,0.0,2023,6,7,12,33,33,571
39.60520,0.11200,-0.04743,0.00000,0.02952,0.97710,-0.19618,0.0,2023,6,7,12,33,33,581
39.60530,0.02450,-0.11743,0.00000,0.02647,0.97563,-0.19508,0.0,2023,6,7,12,33,33,591
39.60540,0.14700,-0.02993,0.00000,0.02904,0.97441,-0.19630,0.0,2023,6,7,12,33,33,601
39.60550,-0.06300,-0.06493,0.00000,0.02721,0.97515,-0.19349,0.0,2023,6,7,12,33,33,611
39.60560,0.14700,-0.20493,0.00000,0.03050,0.97722,-0.19361,0.0,2023,6,7,12,33,33,621
39.60570,0.19950,0.12757,0.00000,0.02696,0.97734,-0.19435,0.0,2023,6,7,12,33,33,631
39.60580,-0.06300,-0.15243,0.00000,0.02660,0.97734,-0.19581,0.0,2023,6,7,12,33,33,641
39.60590,0.00700,-0.11743,0.00000,0.02684,0.97515,-0.19605,0.0,2023,6,7,12,33,33,651
39.60600,-0.08050,-0.01243,0.00000,0.02965,0.97661,-0.19410,0.0,2023,6,7,12,33,33,661
39.60610,-0.08050,0.12757,0.00000,0.02818,0.97588,-0.19581,0.0,2023,6,7,12,33,33,671
39.60620,0.02450,-0.04743,0.00000,0.02782,0.97454,-0.19740,0.0,2023,6,7,12,33,33,681
39.60630,0.02450,-0.13493,0.00000,0.02989,0.97454,-0.19764,0.0,2023,6,7,12,33,33,691
39.60640,-0.08050,-0.08243,0.00000,0.02843,0.97539,-0.19508,0.0,2023,6,7,12,33,33,701
39.60650,0.04200,-0.11743,0.00000,0.02830,0.97539,-0.19605,0.0,2023,6,7,12,33,33,711
39.60660,0.09450,0.02257,0.00000,0.02891,0.97588,-0.19679,0.0,2023,6,7,12,33,33,721
39.60670,-0.01050,0.04007,0.00000,0.02916,0.97563,-0.19605,0.0,2023,6,7,12,33,33,731
39.60680,0.11200,-0.01243,0.00000,0.02965,0.97539,-0.19715,0.0,2023,6,7,12,33,33,741
39.60690,-0.08050,0.09257,0.00000,0.02769,0.97661,-0.19715,0.0,2023,6,7,12,33,33,751
39.60700,-0.01050,0.18007,0.00000,0.02684,0.97624,-0.19483,0.0,2023,6,7,12,33,33,761
39.60710,-0.04550,-0.13493,0.00000,0.02977,0.97893,-0.19349,0.0,2023,6,7,12,33,33,771
39.60720,0.04200,0.14507,0.00000,0.02891,0.97600,-0.19447,0.0,2023,6,7,12,33,33,781
39.60730,-0.01050,0.02257,0.00000,0.02965,0.97673,-0.19435,0.0,2023,6,7,12,33,33,791
39.60740,-0.09800,0.16257,0.00000,0.03074,0.97600,-0.19447,0.0,2023,6,7,12,33,33,801
39.60750,-0.01050,0.04007,0.00000,0.02965,0.97368,-0.19337,0.0,2023,6,7,12,33,33,811
39.60760,0.28700,-0.11743,0.00000,0.02928,0.97478,-0.19557,0.0,2023,6,7,12,33,33,821
39.60770,-0.11550,0.00507,0.00000,0.02818,0.97624,-0.19581,0.0,2023,6,7,12,33,33,831
39.60780,0.04200,0.04007,0.00000,0.02879,0.97527,-0.19459,0.0,2023,6,7,12,33,33,841
39.60790,-0.16800,0.05757,0.00000,0.02672,0.97759,-0.19349,0.0,2023,6,7,12,33,33,851
39.60800,0.11200,-0.02993,0.00000,0.02940,0.97661,-0.19618,0.0,2023,6,7,12,33,33,861
39.60810,0.05950,-0.01243,0.00000,0.02940,0.97332,-0.19459,0.0,2023,6,7,12,33,33,871
39.60820,-0.01050,-0.02993,0.00000,0.03050,0.97454,-0.19630,0.0,2023,6,7,12,33,33,881
39.60830,-0.02800,0.05757,0.00000,0.02794,0.97856,-0.19532,0.0,2023,6,7,12,33,33,891
39.60840,0.04200,-0.01243,0.00000,0.03026,0.97746,-0.19642,0.0,2023,6,7,12,33,33,901
39.60850,-0.06300,0.04007,0.00000,0.02867,0.97502,-0.19666,0.0,2023,6,7,12,33,33,911
39.60860,0.02450,-0.20493,0.00000,0.02745,0.97698,-0.19630,0.0,2023,6,7,12,33,33,921
39.60870,-0.11550,0.02257,0.00000,0.02855,0.97649,-0.19410,0.0,2023,6,7,12,33,33,931
39.60880,0.02450,-0.13493,0.00000,0.02916,0.97710,-0.19325,0.0,2023,6,7,12,33,33,941
39.60890,0.00700,0.09257,0.00000,0.02855,0.97685,-0.19374,0.0,2023,6,7,12,33,33,951
39.60900,-0.04550,0.23257,0.00000,0.02708,0.97405,-0.19569,0.0,2023,6,7,12,33,33,961
39.60910,-0.01050,-0.06493,0.00000,0.02782,0.97527,-0.19544,0.0,2023,6,7,12,33,33,971
39.60920,0.07700,0.14507,0.00000,0.02806,0.97441,-0.19532,0.0,2023,6,7,12,33,34,981
39.60930,0.12950,-0.13493,0.00000,0.02794,0.97600,-0.19471,0.0,2023,6,7,12,33,34,991
39.60940,0.05950,-0.06493,0.00000,0.02745,0.97551,-0.19447,0.0,2023,6,7,12,33,34,1
39.60950,0.11200,0.07507,0.00000,0.02928,0.97356,-0.19642,0.0,2023,6,7,12,33,34,11
39.60960,-0.02800,0.19757,0.00000,0.02867,0.97466,-0.19471,0.0,2023,6,7,12,33,34,21
39.60970,-0.13300,-0.09993,0.00000,0.02708,0.97624,-0.19496,0.0,2023,6,7,12,33,34,31
39.60980,0.02450,0.09257,0.00000,0.02916,0.97661,-0.19605,0.0,2023,6,7,12,33,34,41
39.60990,0.04200,0.14507,0.00000,0.02818,0.97710,-0.19642,0.0,2023,6,7,12,33,34,51
39.61000,0.07700,-0.15243,0.00000,0.02916,0.97600,-0.19691,0.0,2023,6,7,12,33,34,61
39.61010,0.00700,-0.15243,0.00000,0.02867,0.97612,-0.19557,0.0,2023,6,7,12,33,34,71
39.61020,-0.09800,-0.01243,0.00000,0.02855,0.97734,-0.19532,0.0,2023,6,7,12,33,34,81
39.61030,0.16450,0.04007,0.00000,0.02891,0.97478,-0.19886,0.0,2023,6,7,12,33,34,91
39.61040,0.07700,-0.01243,0.00000,0.02635,0.97624,-0.19630,0.0,2023,6,7,12,33,34,101
39.61050,0.09450,-0.20493,0.00000,0.02916,0.97490,-0.19447,0.0,2023,6,7,12,33,34,111
39.61060,0.07700,0.07507,0.00000,0.03123,0.97795,-0.19618,0.0,2023,6,7,12,33,34,121
39.61070,0.07700,0.04007,0.00000,0.02891,0.97637,-0.19483,0.0,2023,6,7,12,33,34,131
39.61080,-0.04550,0.09257,0.00000,0.02879,0.97612,-0.19532,0.0,2023,6,7,12,33,34,141
39.61090,0.00700,-0.06493,0.00000,0.02879,0.97734,-0.19605,0.0,2023,6,7,12,33,34,151
39.61100,-0.11550,-0.02993,0.00000,0.02891,0.97502,-0.19642,0.0,2023,6,7,12,33,34,161
39.61110,0.04200,0.07507,0.00000,0.02806,0.97551,-0.19471,0.0,2023,6,7,12,33,34,171
39.61120,0.16450,-0.15243,0.00000,0.02928,0.97685,-0.19788,0.0,2023,6,7,12,33,34,181
39.61130,0.00700,-0.06493,0.00000,0.02745,0.97576,-0.19605,0.0,2023,6,7,12,33,34,191
39.61140,-0.16800,0.00507,0.00000,0.02904,0.97685,-0.19508,0.0,2023,6,7,12,33,34,201
39.61150,0.04200,-0.11743,0.00000,0.03050,0.97502,-0.19715,0.0,2023,6,7,12,33,34,211
39.61160,-0.22050,0.04007,0.00000,0.02879,0.97661,-0.19740,0.0,2023,6,7,12,33,34,221
39.61170,0.16450,-0.08243,0.00000,0.02940,0.97441,-0.19666,0.0,2023,6,7,12,33,34,231
39.61180,-0.04550,0.00507,0.00000,0.02733,0.97612,-0.19764,0.0,2023,6,7,12,33,34,241
39.61190,-0.09800,0.09257,0.00000,0.02635,0.97588,-0.19935,0.0,2023,6,7,12,33,34,251
39.61200,0.11200,-0.09993,0.00000,0.02965,0.97661,-0.19898,0.0,2023,6,7,12,33,34,261
39.61210,-0.23800,0.07507,0.00000,0.02745,0.97551,-0.19752,0.0,2023,6,7,12,33,34,271
39.61220,0.04200,-0.02993,0.00000,0.02696,0.97673,-0.19593,0.0,2023,6,7,12,33,34,281
39.61230,0.04200,-0.04743,0.00000,0.03038,0.97734,-0.19666,0.0,2023,6,7,12,33,34,291
39.61240,0.04200,-0.23993,0.00000,0.02757,0.97649,-0.19544,0.0,2023,6,7,12,33,34,301
39.61250,-0.09800,-0.01243,0.00000,0.03026,0.97685,-0.19337,0.0,2023,6,7,12,33,34,311
39.61260,0.00700,-0.39743,0.00000,0.02977,0.97685,-0.19361,0.0,2023,6,7,12,33,34,321
39.61270,0.18200,-0.04743,0.00000,0.02708,0.97600,-0.19483,0.0,2023,6,7,12,33,34,331
39.61280,0.05950,-0.18743,0.00000,0.02830,0.97576,-0.19691,0.0,2023,6,7,12,33,34,341
39.61290,-0.13300,-0.11743,0.00000,0.02721,0.97612,-0.19337,0.0,2023,6,7,12,33,34,351
39.61300,-0.08050,0.09257,0.00000,0.02855,0.97624,-0.19386,0.0,2023,6,7,12,33,34,361
39.61310,0.00700,0.09257,0.00000,0.03013,0.97563,-0.19703,0.0,2023,6,7,12,33,34,371
39.61320,0.05950,-0.15243,0.00000,0.02940,0.97661,-0.19496,0.0,2023,6,7,12,33,34,381
39.61330,0.16450,-0.08243,0.00000,0.02843,0.97563,-0.19618,0.0,2023,6,7,12,33,34,391
39.61340,-0.08050,0.16257,0.00000,0.02843,0.97624,-0.19788,0.0,2023,6,7,12,33,34,401
39.61350,0.02450,0.04007,0.00000,0.02940,0.97454,-0.19752,0.0,2023,6,7,12,33,34,411
39.61360,0.12950,-0.06493,0.00000,0.03038,0.97539,-0.19764,0.0,2023,6,7,12,33,34,421
39.61370,0.09450,-0.04743,0.00000,0.03013,0.97771,-0.19361,0.0,2023,6,7,12,33,34,431
39.61380,-0.11550,0.18007,0.00000,0.02782,0.97722,-0.19593,0.0,2023,6,7,12,33,34,441
39.61390,0.04200,-0.02993,0.00000,0.02745,0.97637,-0.19593,0.0,2023,6,7,12,33,34,451
39.61400,-0.02800,0.04007,0.00000,0.02916,0.97600,-0.19483,0.0,2023,6,7,12,33,34,461
39.61410,-0.16800,-0.09993,0.00000,0.02891,0.97685,-0.19483,0.0,2023,6,7,12,33,34,471
39.61420,-0.29050,0.19757,0.00000,0.02757,0.97661,-0.19398,0.0,2023,6,7,12,33,34,481
39.61430,-0.02800,-0.04743,0.00000,0.02757,0.97624,-0.19520,0.0,2023,6,7,12,33,34,491
39.61440,0.14700,-0.20493,0.00000,0.02611,0.97393,-0.19666,0.0,2023,6,7,12,33,34,501
39.61450,0.12950,0.04007,0.00000,0.02904,0.97600,-0.19679,0.0,2023,6,7,12,33,34,511
39.61460,0.09450,-0.11743,0.00000,0.02794,0.97551,-0.19569,0.0,2023,6,7,12,33,34,521
39.61470,0.18200,0.11007,0.00000,0.02843,0.97295,-0.19740,0.0,2023,6,7,12,33,34,531
39.61480,0.02450,-0.04743,0.00000,0.02794,0.97515,-0.19776,0.0,2023,6,7,12,33,34,541
39.61490,0.12950,-0.06493,0.00000,0.02806,0.97685,-0.19569,0.0,2023,6,7,12,33,34,551
39.61500,-0.02800,0.07507,0.00000,0.03038,0.97466,-0.19727,0.0,2023,6,7,12,33,34,561
39.61510,-0.02800,0.19757,0.00000,0.03001,0.97490,-0.19715,0.0,2023,6,7,12,33,34,571
39.61520,0.02450,-0.13493,0.00000,0.02965,0.97441,-0.19557,0.0,2023,6,7,12,33,34,581
39.61530,0.02450,-0.01243,0.00000,0.02928,0.97502,-0.19544,0.0,2023,6,7,12,33,34,591
39.61540,0.07700,0.11007,0.00000,0.02757,0.97881,-0.19252,0.0,2023,6,7,12,33,34,601
39.61550,-0.06300,0.11007,0.00000,0.02940,0.97502,-0.19727,0.0,2023,6,7,12,33,34,611
39.61560,0.11200,-0.09993,0.00000,0.02806,0.97576,-0.19727,0.0,2023,6,7,12,33,34,621
39.61570,0.09450,-0.08243,0.00000,0.02940,0.97600,-0.19581,0.0,2023,6,7,12,33,34,631
39.61580,-0.08050,-0.06493,0.00000,0.02769,0.97380,-0.19496,0.0,2023,6,7,12,33,34,641
39.61590,0.00700,0.02257,0.00000,0.02855,0.97527,-0.19569,0.0,2023,6,7,12,33,34,651
39.61600,-0.08050,0.02257,0.00000,0.02818,0.97588,-0.19605,0.0,2023,6,7,12,33,34,661
39.61610,-0.13300,0.04007,0.00000,0.02599,0.97624,-0.19727,0.0,2023,6,7,12,33,34,671
39.61620,0.04200,0.19757,0.00000,0.03013,0.97527,-0.19520,0.0,2023,6,7,12,33,34,681
39.61630,-0.08050,0.09257,0.00000,0.02745,0.97710,-0.19386,0.0,2023,6,7,12,33,34,691
39.61640,-0.11550,-0.11743,0.00000,0.02952,0.97710,-0.19374,0.0,2023,6,7,12,33,34,701
39.61650,0.16450,-0.15243,0.00000,0.03148,0.97490,-0.19557,0.0,2023,6,7,12,33,34,711
39.61660,-0.15050,-0.08243,0.00000,0.02916,0.97539,-0.19422,0.0,2023,6,7,12,33,34,721
39.61670,-0.22050,0.18007,0.00000,0.02940,0.97551,-0.19752,0.0,2023,6,7,12,33,34,731
39.61680,0.11200,-0.09993,0.00000,0.02757,0.97454,-0.19752,0.0,2023,6,7,12,33,34,741
39.61690,0.00700,-0.13493,0.00000,0.02928,0.97746,-0.19618,0.0,2023,6,7,12,33,34,751
39.61700,-0.09800,-0.01243,0.00000,0.02574,0.97454,-0.19764,0.0,2023,6,7,12,33,34,761
39.61710,-0.15050,0.12757,0.00000,0.02769,0.97746,-0.19557,0.0,2023,6,7,12,33,34,771
39.61720,-0.06300,-0.08243,0.00000,0.03038,0.97771,-0.19422,0.0,2023,6,7,12,33,34,781
39.61730,-0.06300,-0.01243,0.00000,0.02977,0.97478,-0.19459,0.0,2023,6,7,12,33,34,791
39.61740,-0.01050,-0.04743,0.00000,0.02830,0.97600,-0.19740,0.0,2023,6,7,12,33,34,801
39.61750,-0.04550,-0.23993,0.00000,0.02757,0.97478,-0.19666,0.0,2023,6,7,12,33,34,811
39.61760,-0.22050,0.02257,0.00000,0.02769,0.97612,-0.19532,0.0,2023,6,7,12,33,34,821
39.61770,-0.04550,-0.04743,0.00000,0.02977,0.97588,-0.19410,0.0,2023,6,7,12,33,34,831
39.61780,-0.16800,-0.01243,0.00000,0.02867,0.97698,-0.19544,0.0,2023,6,7,12,33,34,841
39.61790,0.23450,0.00507,0.00000,0.03038,0.97795,-0.19508,0.0,2023,6,7,12,33,34,851
39.61800,-0.08050,0.00507,0.00000,0.02916,0.97734,-0.19837,0.0,2023,6,7,12,33,34,861
39.61810,0.02450,0.02257,0.00000,0.02818,0.97502,-0.19752,0.0,2023,6,7,12,33,34,871
39.61820,0.04200,0.04007,0.00000,0.02757,0.97722,-0.19569,0.0,2023,6,7,12,33,35,881
39.61830,0.12950,-0.06493,0.00000,0.03026,0.97612,-0.19581,0.0,2023,6,7,12,33,35,891
39.61840,-0.16800,0.07507,0.00000,0.02904,0.97454,-0.19715,0.0,2023,6,7,12,33,35,901
39.61850,0.07700,0.19757,0.00000,0.02843,0.97563,-0.19740,0.0,2023,6,7,12,33,35,911
39.61860,0.05950,-0.06493,0.00000,0.02916,0.97649,-0.19727,0.0,2023,6,7,12,33,35,921
39.61870,0.05950,-0.11743,0.00000,0.02733,0.97576,-0.19984,0.0,2023,6,7,12,33,35,931
39.61880,0.09450,-0.04743,0.00000,0.02867,0.97454,-0.19727,0.0,2023,6,7,12,33,35,941
39.61890,0.14700,-0.13493,0.00000,0.02904,0.97271,-0.20032,0.0,2023,6,7,12,33,35,951
39.61900,0.16450,-0.09993,0.00000,0.02660,0.97393,-0.19752,0.0,2023,6,7,12,33,35,961
39.61910,0.05950,-0.06493,0.00000,0.03013,0.97722,-0.19813,0.0,2023,6,7,12,33,35,971
39.61920,0.02450,0.00507,0.00000,0.02623,0.97576,-0.19666,0.0,2023,6,7,12,33,35,981
39.61930,0.07700,0.16257,0.00000,0.02806,0.97624,-0.19618,0.0,2023,6,7,12,33,35,991
39.61940,0.16450,-0.02993,0.00000,0.02733,0.97466,-0.19776,0.0,2023,6,7,12,33,35,1
39.61950,0.02450,0.07507,0.00000,0.02989,0.97624,-0.19740,0.0,2023,6,7,12,33,35,11
39.61960,-0.02800,0.25007,0.00000,0.02867,0.97502,-0.19776,0.0,2023,6,7,12,33,35,21
39.61970,-0.08050,-0.22243,0.00000,0.02952,0.97576,-0.19605,0.0,2023,6,7,12,33,35,31
39.61980,-0.11550,0.00507,0.00000,0.02867,0.97332,-0.19764,0.0,2023,6,7,12,33,35,41
39.61990,-0.18550,-0.06493,0.00000,0.02965,0.97527,-0.19788,0.0,2023,6,7,12,33,35,51
39.62000,0.02450,0.09257,0.00000,0.02867,0.97393,-0.19740,0.0,2023,6,7,12,33,35,61
39.62010,-0.18550,0.05757,0.00000,0.02916,0.97576,-0.19654,0.0,2023,6,7,12,33,35,71
39.62020,0.04200,0.04007,0.00000,0.02855,0.97490,-0.19849,0.0,2023,6,7,12,33,35,81
39.62030,0.02450,0.14507,0.00000,0.02977,0.97539,-0.19752,0.0,2023,6,7,12,33,35,91
39.62040,-0.08050,0.12757,0.00000,0.02977,0.97637,-0.19874,0.0,2023,6,7,12,33,35,101
39.62050,0.14700,-0.32743,0.00000,0.02965,0.97673,-0.19520,0.0,2023,6,7,12,33,35,111
39.62060,0.04200,-0.02993,0.00000,0.02928,0.97490,-0.19666,0.0,2023,6,7,12,33,35,121
39.62070,0.11200,0.05757,0.00000,0.02952,0.97722,-0.19593,0.0,2023,6,7,12,33,35,131
39.62080,-0.04550,0.18007,0.00000,0.02745,0.97722,-0.19642,0.0,2023,6,7,12,33,35,141
39.62090,0.05950,-0.01243,0.00000,0.02928,0.97515,-0.19630,0.0,2023,6,7,12,33,35,151
39.62100,0.00700,-0.08243,0.00000,0.02879,0.97612,-0.19593,0.0,2023,6,7,12,33,35,161
39.62110,-0.01050,0.04007,0.00000,0.02721,0.97405,-0.19740,0.0,2023,6,7,12,33,35,171
39.62120,-0.25550,0.21507,0.00000,0.02940,0.97759,-0.19581,0.0,2023,6,7,12,33,35,181
39.62130,-0.01050,0.04007,0.00000,0.02782,0.97502,-0.19996,0.0,2023,6,7,12,33,35,191
39.62140,0.04200,-0.02993,0.00000,0.02525,0.97576,-0.19532,0.0,2023,6,7,12,33,35,201
39.62150,0.21700,0.18007,0.00000,0.02843,0.97539,-0.19874,0.0,2023,6,7,12,33,35,211
39.62160,0.00700,0.09257,0.00000,0.02867,0.97539,-0.19691,0.0,2023,6,7,12,33,35,221
39.62170,-0.06300,0.09257,0.00000,0.02952,0.97759,-0.19532,0.0,2023,6,7,12,33,35,231
39.62180,-0.02800,0.16257,0.00000,0.02940,0.97539,-0.19435,0.0,2023,6,7,12,33,35,241
39.62190,-0.06300,-0.06493,0.00000,0.02952,0.97527,-0.19459,0.0,2023,6,7,12,33,35,251
39.62200,0.00700,0.02257,0.00000,0.02745,0.97624,-0.19483,0.0,2023,6,7,12,33,35,261
39.62210,-0.01050,-0.02993,0.00000,0.02867,0.97515,-0.19569,0.0,2023,6,7,12,33,35,271
39.62220,0.09450,-0.06493,0.00000,0.02782,0.97661,-0.19740,0.0,2023,6,7,12,33,35,281
39.62230,-0.13300,0.12757,0.00000,0.02550,0.97637,-0.19837,0.0,2023,6,7,12,33,35,291
39.62240,-0.11550,0.04007,0.00000,0.02733,0.97661,-0.19764,0.0,2023,6,7,12,33,35,301
39.62250,-0.08050,-0.08243,0.00000,0.02769,0.97600,-0.19691,0.0,2023,6,7,12,33,35,311
39.62260,-0.01050,0.11007,0.00000,0.02830,0.97612,-0.19508,0.0,2023,6,7,12,33,35,321
39.62270,-0.11550,-0.09993,0.00000,0.03001,0.97539,-0.19618,0.0,2023,6,7,12,33,35,331
39.62280,0.07700,-0.09993,0.00000,0.02721,0.97563,-0.19581,0.0,2023,6,7,12,33,35,341
39.62290,0.04200,0.16257,0.00000,0.02843,0.97502,-0.19727,0.0,2023,6,7,12,33,35,351
39.62300,-0.01050,0.04007,0.00000,0.02769,0.97624,-0.19422,0.0,2023,6,7,12,33,35,361
39.62310,0.05950,0.21507,0.00000,0.03013,0.97893,-0.19740,0.0,2023,6,7,12,33,35,371
39.62320,-0.01050,-0.08243,0.00000,0.02708,0.97673,-0.19532,0.0,2023,6,7,12,33,35,381
39.62330,0.18200,-0.23993,0.00000,0.02806,0.97466,-0.19715,0.0,2023,6,7,12,33,35,391
39.62340,-0.08050,-0.08243,0.00000,0.03038,0.97844,-0.19715,0.0,2023,6,7,12,33,35,401
39.62350,0.00700,0.33757,0.00000,0.02855,0.97698,-0.19666,0.0,2023,6,7,12,33,35,411
39.62360,-0.16800,0.00507,0.00000,0.02843,0.97405,-0.19874,0.0,2023,6,7,12,33,35,421
39.62370,0.02450,0.09257,0.00000,0.03026,0.97551,-0.19703,0.0,2023,6,7,12,33,35,431
39.62380,0.02450,-0.06493,0.00000,0.02904,0.97783,-0.19691,0.0,2023,6,7,12,33,35,441
39.62390,0.05950,0.12757,0.00000,0.02745,0.97417,-0.19898,0.0,2023,6,7,12,33,35,451
39.62400,-0.02800,-0.04743,0.00000,0.02794,0.97429,-0.19666,0.0,2023,6,7,12,33,35,461
39.62410,-0.06300,0.07507,0.00000,0.02672,0.97563,-0.19642,0.0,2023,6,7,12,33,35,471
39.62420,-0.01050,-0.06493,0.00000,0.02757,0.97893,-0.19398,0.0,2023,6,7,12,33,35,481
39.62430,-0.23800,0.11007,0.00000,0.02879,0.97563,-0.19788,0.0,2023,6,7,12,33,35,491
39.62440,0.18200,-0.30993,0.00000,0.02757,0.97734,-0.19715,0.0,2023,6,7,12,33,35,501
39.62450,-0.02800,0.05757,0.00000,0.02830,0.97576,-0.19605,0.0,2023,6,7,12,33,35,511
39.62460,-0.22050,0.16257,0.00000,0.02891,0.97820,-0.19654,0.0,2023,6,7,12,33,35,521
39.62470,0.04200,0.07507,0.00000,0.02952,0.97734,-0.19557,0.0,2023,6,7,12,33,35,531
39.62480,-0.04550,0.04007,0.00000,0.02989,0.97746,-0.19752,0.0,2023,6,7,12,33,35,541
39.62490,0.18200,-0.15243,0.00000,0.02769,0.97576,-0.19801,0.0,2023,6,7,12,33,35,551
39.62500,-0.02800,-0.02993,0.00000,0.02769,0.97612,-0.19837,0.0,2023,6,7,12,33,35,561
39.62510,0.04200,-0.06493,0.00000,0.02769,0.97649,-0.19740,0.0,2023,6,7,12,33,35,571
39.62520,-0.08050,0.07507,0.00000,0.02660,0.97478,-0.19715,0.0,2023,6,7,12,33,35,581
39.62530,-0.02800,0.07507,0.00000,0.02696,0.97612,-0.19630,0.0,2023,6,7,12,33,35,591
39.62540,0.00700,0.19757,0.00000,0.02916,0.97527,-0.19569,0.0,2023,6,7,12,33,35,601
39.62550,-0.04550,0.04007,0.00000,0.02965,0.97405,-0.19910,0.0,2023,6,7,12,33,35,611
39.62560,-0.13300,-0.13493,0.00000,0.02916,0.97710,-0.19801,0.0,2023,6,7,12,33,35,621
39.62570,0.16450,-0.09993,0.00000,0.02830,0.97624,-0.19679,0.0,2023,6,7,12,33,35,631
39.62580,-0.18550,-0.01243,0.00000,0.02977,0.97820,-0.19801,0.0,2023,6,7,12,33,35,641
39.62590,-0.04550,-0.01243,0.00000,0.02684,0.97612,-0.19654,0.0,2023,6,7,12,33,35,651
39.62600,-0.04550,-0.15243,0.00000,0.02928,0.97466,-0.19703,0.0,2023,6,7,12,33,35,661
39.62610,0.05950,-0.04743,0.00000,0.03282,0.97612,-0.19752,0.0,2023,6,7,12,33,35,671
39.62620,-0.02800,0.04007,0.00000,0.02830,0.97600,-0.19849,0.0,2023,6,7,12,33,35,681
39.62630,-0.11550,0.25007,0.00000,0.02940,0.97527,-0.19752,0.0,2023,6,7,12,33,35,691
39.62640,0.00700,0.04007,0.00000,0.02721,0.97600,-0.19837,0.0,2023,6,7,12,33,35,701
39.62650,-0.13300,0.04007,0.00000,0.02757,0.97539,-0.19752,0.0,2023,6,7,12,33,35,711
39.62660,-0.11550,-0.16993,0.00000,0.02928,0.97600,-0.19862,0.0,2023,6,7,12,33,35,721
39.62670,-0.02800,0.19757,0.00000,0.03087,0.97685,-0.19740,0.0,2023,6,7,12,33,35,731
39.62680,-0.01050,0.18007,0.00000,0.02916,0.97393,-0.19776,0.0,2023,6,7,12,33,35,741
39.62690,-0.08050,0.18007,0.00000,0.02794,0.97612,-0.19715,0.0,2023,6,7,12,33,35,751
39.62700,0.14700,-0.22243,0.00000,0.02794,0.97722,-0.19642,0.0,2023,6,7,12,33,35,761
39.62710,0.23450,0.00507,0.00000,0.03026,0.97612,-0.19715,0.0,2023,6,7,12,33,35,771
39.62720,0.00700,0.07507,0.00000,0.02623,0.97515,-0.19727,0.0,2023,6,7,12,33,35,781
39.62730,0.07700,0.02257,0.00000,0.02879,0.97637,-0.19447,0.0,2023,6,7,12,33,36,791
39.62740,0.16450,-0.08243,0.00000,0.02843,0.97600,-0.19910,0.0,2023,6,7,12,33,36,801
39.62750,0.02450,0.02257,0.00000,0.02940,0.97466,-0.19740,0.0,2023,6,7,12,33,36,811
39.62760,0.11200,-0.09993,0.00000,0.02660,0.97551,-0.19605,0.0,2023,6,7,12,33,36,821
39.62770,0.09450,0.07507,0.00000,0.02904,0.97551,-0.19618,0.0,2023,6,7,12,33,36,831
39.62780,-0.06300,0.05757,0.00000,0.02965,0.97722,-0.19654,0.0,2023,6,7,12,33,36,841
39.62790,0.04200,-0.02993,0.00000,0.02794,0.97710,-0.19679,0.0,2023,6,7,12,33,36,851
39.62800,0.09450,-0.06493,0.00000,0.02782,0.97637,-0.19898,0.0,2023,6,7,12,33,36,861
39.62810,0.04200,0.05757,0.00000,0.02977,0.97612,-0.19325,0.0,2023,6,7,12,33,36,871
39.62820,0.09450,-0.20493,0.00000,0.02928,0.97661,-0.19788,0.0,2023,6,7,12,33,36,881
39.62830,0.00700,-0.02993,0.00000,0.02855,0.97515,-0.19581,0.0,2023,6,7,12,33,36,891
39.62840,0.14700,0.04007,0.00000,0.03038,0.97771,-0.19886,0.0,2023,6,7,12,33,36,901
39.62850,0.12950,0.09257,0.00000,0.02794,0.97734,-0.19715,0.0,2023,6,7,12,33,36,911
39.62860,0.02450,0.09257,0.00000,0.02794,0.97551,-0.19618,0.0,2023,6,7,12,33,36,921
39.62870,0.12950,0.02257,0.00000,0.02830,0.97441,-0.19532,0.0,2023,6,7,12,33,36,931
39.62880,0.07700,0.23257,0.00000,0.02904,0.97746,-0.19544,0.0,2023,6,7,12,33,36,941
39.62890,0.11200,0.02257,0.00000,0.02855,0.97624,-0.19496,0.0,2023,6,7,12,33,36,951
39.62900,-0.02800,0.05757,0.00000,0.02769,0.97563,-0.19679,0.0,2023,6,7,12,33,36,961
39.62910,0.09450,-0.02993,0.00000,0.03050,0.97502,-0.19630,0.0,2023,6,7,12,33,36,971
39.62920,-0.18550,0.16257,0.00000,0.02928,0.97746,-0.19740,0.0,2023,6,7,12,33,36,981
39.62930,0.00700,-0.01243,0.00000,0.02696,0.97698,-0.19618,0.0,2023,6,7,12,33,36,991
39.62940,-0.01050,-0.13493,0.00000,0.02794,0.97588,-0.19813,0.0,2023,6,7,12,33,36,1
39.62950,0.07700,-0.09993,0.00000,0.02733,0.97393,-0.19752,0.0,2023,6,7,12,33,36,11
39.62960,0.04200,0.02257,0.00000,0.02977,0.97624,-0.19557,0.0,2023,6,7,12,33,36,21
39.62970,-0.06300,-0.02993,0.00000,0.02891,0.97771,-0.19703,0.0,2023,6,7,12,33,36,31
39.62980,-0.01050,-0.11743,0.00000,0.02891,0.97490,-0.19447,0.0,2023,6,7,12,33,36,41
39.62990,0.14700,0.07507,0.00000,0.02721,0.97576,-0.19605,0.0,2023,6,7,12,33,36,51
39.63000,-0.11550,0.16257,0.00000,0.03074,0.97515,-0.19374,0.0,2023,6,7,12,33,36,61
39.63010,-0.06300,-0.01243,0.00000,0.02733,0.97527,-0.19313,0.0,2023,6,7,12,33,36,71
39.63020,-0.13300,-0.02993,0.00000,0.02525,0.97271,-0.19618,0.0,2023,6,7,12,33,36,81
39.63030,0.02450,-0.01243,0.00000,0.02513,0.97515,-0.19776,0.0,2023,6,7,12,33,36,91
39.63040,-0.08050,-0.06493,0.00000,0.03001,0.97600,-0.19703,0.0,2023,6,7,12,33,36,101
39.63050,0.04200,0.05757,0.00000,0.02965,0.97539,-0.19361,0.0,2023,6,7,12,33,36,111
39.63060,0.11200,-0.13493,0.00000,0.02867,0.97600,-0.19410,0.0,2023,6,7,12,33,36,121
39.63070,-0.15050,0.12757,0.00000,0.02818,0.97380,-0.19569,0.0,2023,6,7,12,33,36,131
39.63080,-0.01050,-0.13493,0.00000,0.02635,0.97417,-0.19593,0.0,2023,6,7,12,33,36,141
39.63090,0.00700,-0.15243,0.00000,0.02574,0.97515,-0.19557,0.0,2023,6,7,12,33,36,151
39.63100,-0.11550,0.05757,0.00000,0.02745,0.97478,-0.19618,0.0,2023,6,7,12,33,36,161
39.63110,-0.04550,0.00507,0.00000,0.03013,0.97722,-0.19679,0.0,2023,6,7,12,33,36,171
39.63120,0.02450,-0.01243,0.00000,0.02977,0.97429,-0.19398,0.0,2023,6,7,12,33,36,181
39.63130,-0.04550,-0.06493,0.00000,0.02708,0.97515,-0.19581,0.0,2023,6,7,12,33,36,191
39.63140,0.07700,0.02257,0.00000,0.02867,0.97515,-0.19813,0.0,2023,6,7,12,33,36,201
39.63150,0.04200,0.14507,0.00000,0.02818,0.97698,-0.19630,0.0,2023,6,7,12,33,36,211
39.63160,-0.06300,0.00507,0.00000,0.02843,0.97490,-0.19496,0.0,2023,6,7,12,33,36,221
39.63170,0.05950,0.00507,0.00000,0.02855,0.97710,-0.19532,0.0,2023,6,7,12,33,36,231
39.63180,0.00700,0.18007,0.00000,0.02708,0.97624,-0.19447,0.0,2023,6,7,12,33,36,241
39.63190,0.02450,0.18007,0.00000,0.02965,0.97771,-0.19264,0.0,2023,6,7,12,33,36,251
39.63200,0.12950,0.07507,0.00000,0.02794,0.97429,-0.19410,0.0,2023,6,7,12,33,36,261
39.63210,-0.13300,0.19757,0.00000,0.02891,0.97405,-0.19691,0.0,2023,6,7,12,33,36,271
39.63220,-0.04550,0.16257,0.00000,0.02928,0.97600,-0.19447,0.0,2023,6,7,12,33,36,281
39.63230,0.05950,0.04007,0.00000,0.02830,0.97783,-0.19593,0.0,2023,6,7,12,33,36,291
39.63240,-0.15050,0.02257,0.00000,0.02891,0.97588,-0.19410,0.0,2023,6,7,12,33,36,301
39.63250,-0.18550,-0.06493,0.00000,0.02965,0.97734,-0.19569,0.0,2023,6,7,12,33,36,311
39.63260,-0.01050,0.11007,0.00000,0.02806,0.97600,-0.19422,0.0,2023,6,7,12,33,36,321
39.63270,0.05950,0.16257,0.00000,0.02940,0.97295,-0.19166,0.0,2023,6,7,12,33,36,331
39.63280,-0.06300,-0.13493,0.00000,0.02818,0.97466,-0.19447,0.0,2023,6,7,12,33,36,341
39.63290,-0.22050,-0.06493,0.00000,0.02818,0.97795,-0.19483,0.0,2023,6,7,12,33,36,351
39.63300,0.14700,-0.13493,0.00000,0.02855,0.97417,-0.19532,0.0,2023,6,7,12,33,36,361
39.63310,0.00700,-0.08243,0.00000,0.02830,0.97417,-0.19410,0.0,2023,6,7,12,33,36,371
39.63320,-0.02800,0.00507,0.00000,0.02843,0.97344,-0.19471,0.0,2023,6,7,12,33,36,381
39.63330,0.05950,-0.11743,0.00000,0.02794,0.97551,-0.19520,0.0,2023,6,7,12,33,36,391
39.63340,-0.02800,0.00507,0.00000,0.02806,0.97673,-0.19593,0.0,2023,6,7,12,33,36,401
39.63350,0.16450,0.02257,0.00000,0.02806,0.97624,-0.19166,0.0,2023,6,7,12,33,36,411
39.63360,0.00700,0.05757,0.00000,0.02599,0.97563,-0.19520,0.0,2023,6,7,12,33,36,421
39.63370,-0.06300,-0.15243,0.00000,0.02867,0.97405,-0.19642,0.0,2023,6,7,12,33,36,431
39.63380,0.09450,-0.09993,0.00000,0.02904,0.97600,-0.19264,0.0,2023,6,7,12,33,36,441
39.63390,-0.02800,0.00507,0.00000,0.02721,0.97539,-0.19422,0.0,2023,6,7,12,33,36,451
39.63400,0.02450,0.04007,0.00000,0.03062,0.97661,-0.19654,0.0,2023,6,7,12,33,36,461
39.63410,0.04200,0.26757,0.00000,0.02806,0.97515,-0.19410,0.0,2023,6,7,12,33,36,471
39.63420,0.11200,-0.13493,0.00000,0.02855,0.97515,-0.19605,0.0,2023,6,7,12,33,36,481
39.63430,-0.04550,0.00507,0.00000,0.02928,0.97588,-0.19215,0.0,2023,6,7,12,33,36,491
39.63440,-0.02800,0.18007,0.00000,0.02891,0.97942,-0.19264,0.0,2023,6,7,12,33,36,501
39.63450,0.00700,-0.22243,0.00000,0.03062,0.97515,-0.19410,0.0,2023,6,7,12,33,36,511
39.63460,0.02450,-0.08243,0.00000,0.02745,0.97588,-0.19544,0.0,2023,6,7,12,33,36,521
39.63470,-0.23800,0.12757,0.00000,0.02843,0.97405,-0.19435,0.0,2023,6,7,12,33,36,531
39.63480,0.04200,-0.01243,0.00000,0.03013,0.97600,-0.19398,0.0,2023,6,7,12,33,36,541
39.63490,0.07700,-0.04743,0.00000,0.02843,0.97527,-0.19252,0.0,2023,6,7,12,33,36,551
39.63500,-0.09800,0.04007,0.00000,0.02757,0.97527,-0.19264,0.0,2023,6,7,12,33,36,561
39.63510,0.02450,-0.09993,0.00000,0.02794,0.97502,-0.19422,0.0,2023,6,7,12,33,36,571
39.63520,-0.18550,0.16257,0.00000,0.03013,0.97478,-0.19288,0.0,2023,6,7,12,33,36,581
39.63530,0.04200,0.00507,0.00000,0.02843,0.97661,-0.19520,0.0,2023,6,7,12,33,36,591
39.63540,0.00700,-0.15243,0.00000,0.02867,0.97576,-0.19544,0.0,2023,6,7,12,33,36,601
39.63550,0.11200,0.09257,0.00000,0.02660,0.97673,-0.19398,0.0,2023,6,7,12,33,36,611
39.63560,0.12950,-0.04743,0.00000,0.02818,0.97539,-0.19679,0.0,2023,6,7,12,33,36,621
39.63570,-0.09800,-0.04743,0.00000,0.02782,0.97454,-0.19557,0.0,2023,6,7,12,33,36,631
39.63580,-0.25550,-0.04743,0.00000,0.02965,0.97795,-0.19532,0.0,2023,6,7,12,33,36,641
39.63590,0.09450,-0.08243,0.00000,0.02952,0.97588,-0.19435,0.0,2023,6,7,12,33,36,651
39.63600,-0.11550,0.09257,0.00000,0.03123,0.97624,-0.19532,0.0,2023,6,7,12,33,36,661
39.63610,-0.09800,0.28507,0.00000,0.02940,0.97966,-0.19520,0.0,2023,6,7,12,33,36,671
39.63620,0.00700,-0.09993,0.00000,0.02916,0.97673,-0.19532,0.0,2023,6,7,12,33,37,681
39.63630,0.02450,0.07507,0.00000,0.02733,0.97454,-0.19471,0.0,2023,6,7,12,33,37,691
39.63640,-0.23800,0.21507,0.00000,0.02952,0.97807,-0.19496,0.0,2023,6,7,12,33,37,701
39.63650,-0.01050,0.19757,0.00000,0.02794,0.97454,-0.19349,0.0,2023,6,7,12,33,37,711
39.63660,-0.02800,0.23257,0.00000,0.02904,0.97356,-0.19398,0.0,2023,6,7,12,33,37,721
39.63670,-0.13300,0.07507,0.00000,0.02806,0.97319,-0.19349,0.0,2023,6,7,12,33,37,731
39.63680,0.09450,-0.09993,0.00000,0.02782,0.97490,-0.19557,0.0,2023,6,7,12,33,37,741
39.63690,-0.06300,0.23257,0.00000,0.02855,0.97527,-0.19410,0.0,2023,6,7,12,33,37,751
39.63700,0.28700,-0.18743,0.00000,0.02721,0.97539,-0.19239,0.0,2023,6,7,12,33,37,761
39.63710,0.09450,-0.02993,0.00000,0.02757,0.97600,-0.19422,0.0,2023,6,7,12,33,37,771
39.63720,0.12950,-0.15243,0.00000,0.02891,0.97576,-0.19203,0.0,2023,6,7,12,33,37,781
39.63730,0.04200,-0.09993,0.00000,0.02794,0.97600,-0.19422,0.0,2023,6,7,12,33,37,791
39.63740,0.07700,0.07507,0.00000,0.02806,0.97624,-0.19422,0.0,2023,6,7,12,33,37,801
39.63750,-0.09800,-0.02993,0.00000,0.03062,0.97600,-0.19605,0.0,2023,6,7,12,33,37,811
39.63760,0.05950,0.00507,0.00000,0.02843,0.97454,-0.19264,0.0,2023,6,7,12,33,37,821
39.63770,-0.04550,-0.01243,0.00000,0.03013,0.97502,-0.19520,0.0,2023,6,7,12,33,37,831
39.63780,0.00700,0.02257,0.00000,0.02891,0.97478,-0.19581,0.0,2023,6,7,12,33,37,841
39.63790,0.21700,-0.06493,0.00000,0.02928,0.97539,-0.19630,0.0,2023,6,7,12,33,37,851
39.63800,0.05950,-0.04743,0.00000,0.02916,0.97759,-0.19398,0.0,2023,6,7,12,33,37,861
39.63810,0.04200,0.07507,0.00000,0.02757,0.97685,-0.19178,0.0,2023,6,7,12,33,37,871
39.63820,0.07700,0.09257,0.00000,0.02916,0.97319,-0.19166,0.0,2023,6,7,12,33,37,881
39.63830,0.12950,-0.06493,0.00000,0.02879,0.97563,-0.19471,0.0,2023,6,7,12,33,37,891
39.63840,0.11200,0.04007,0.00000,0.02769,0.97576,-0.19483,0.0,2023,6,7,12,33,37,901
39.63850,0.00700,0.07507,0.00000,0.02928,0.97661,-0.19496,0.0,2023,6,7,12,33,37,911
39.63860,-0.01050,0.05757,0.00000,0.02818,0.97685,-0.19435,0.0,2023,6,7,12,33,37,921
39.63870,-0.04550,-0.06493,0.00000,0.03001,0.97405,-0.19239,0.0,2023,6,7,12,33,37,931
39.63880,-0.06300,-0.02993,0.00000,0.02891,0.97551,-0.19483,0.0,2023,6,7,12,33,37,941
39.63890,-0.20300,0.19757,0.00000,0.03062,0.97454,-0.19630,0.0,2023,6,7,12,33,37,951
39.63900,-0.15050,0.02257,0.00000,0.02806,0.97673,-0.19483,0.0,2023,6,7,12,33,37,961
39.63910,0.14700,0.04007,0.00000,0.02952,0.97649,-0.19435,0.0,2023,6,7,12,33,37,971
39.63920,0.04200,0.02257,0.00000,0.02867,0.97478,-0.19422,0.0,2023,6,7,12,33,37,981
39.63930,0.07700,0.04007,0.00000,0.02830,0.97637,-0.19618,0.0,2023,6,7,12,33,37,991
39.63940,-0.04550,0.04007,0.00000,0.02952,0.97600,-0.19679,0.0,2023,6,7,12,33,37,1
39.63950,0.04200,0.14507,0.00000,0.02916,0.97454,-0.19544,0.0,2023,6,7,12,33,37,11
39.63960,-0.02800,-0.15243,0.00000,0.02745,0.97685,-0.19752,0.0,2023,6,7,12,33,37,21
39.63970,-0.04550,0.07507,0.00000,0.02782,0.97795,-0.19544,0.0,2023,6,7,12,33,37,31
39.63980,0.00700,0.11007,0.00000,0.02843,0.97527,-0.19727,0.0,2023,6,7,12,33,37,41
39.63990,-0.01050,0.32007,0.00000,0.02977,0.97783,-0.19740,0.0,2023,6,7,12,33,37,51
39.64000,-0.04550,0.11007,0.00000,0.02928,0.97563,-0.19544,0.0,2023,6,7,12,33,37,61
39.64010,0.05950,-0.02993,0.00000,0.02843,0.97551,-0.19398,0.0,2023,6,7,12,33,37,71
39.64020,0.00700,-0.04743,0.00000,0.03038,0.97417,-0.19459,0.0,2023,6,7,12,33,37,81
39.64030,0.02450,0.07507,0.00000,0.02977,0.97502,-0.19386,0.0,2023,6,7,12,33,37,91
39.64040,-0.09800,0.33757,0.00000,0.02916,0.97539,-0.19264,0.0,2023,6,7,12,33,37,101
39.64050,-0.01050,0.25007,0.00000,0.02830,0.97454,-0.19349,0.0,2023,6,7,12,33,37,111
39.64060,0.05950,-0.20493,0.00000,0.02782,0.97722,-0.19191,0.0,2023,6,7,12,33,37,121
39.64070,-0.11550,0.14507,0.00000,0.02928,0.97417,-0.19483,0.0,2023,6,7,12,33,37,131
39.64080,-0.06300,-0.01243,0.00000,0.02818,0.97600,-0.19544,0.0,2023,6,7,12,33,37,141
39.64090,0.04200,-0.01243,0.00000,0.02843,0.97380,-0.19532,0.0,2023,6,7,12,33,37,151
39.64100,0.14700,-0.09993,0.00000,0.02806,0.97515,-0.19581,0.0,2023,6,7,12,33,37,161
39.64110,0.09450,-0.01243,0.00000,0.02830,0.97771,-0.19337,0.0,2023,6,7,12,33,37,171
39.64120,0.04200,0.18007,0.00000,0.02928,0.97600,-0.19313,0.0,2023,6,7,12,33,37,181
39.64130,0.11200,0.19757,0.00000,0.02977,0.97698,-0.19447,0.0,2023,6,7,12,33,37,191
39.64140,0.07700,0.00507,0.00000,0.03026,0.97795,-0.19618,0.0,2023,6,7,12,33,37,201
39.64150,0.21700,-0.09993,0.00000,0.02843,0.97551,-0.19264,0.0,2023,6,7,12,33,37,211
39.64160,-0.20300,0.04007,0.00000,0.02904,0.97856,-0.19276,0.0,2023,6,7,12,33,37,221
39.64170,-0.01050,-0.04743,0.00000,0.02806,0.97661,-0.19410,0.0,2023,6,7,12,33,37,231
39.64180,0.11200,-0.23993,0.00000,0.02952,0.97746,-0.19325,0.0,2023,6,7,12,33,37,241
39.64190,0.00700,-0.04743,0.00000,0.02782,0.97649,-0.19361,0.0,2023,6,7,12,33,37,251
39.64200,0.00700,-0.02993,0.00000,0.03050,0.97576,-0.19300,0.0,2023,6,7,12,33,37,261
39.64210,0.04200,0.11007,0.00000,0.02782,0.97502,-0.19349,0.0,2023,6,7,12,33,37,271
39.64220,-0.06300,-0.02993,0.00000,0.02952,0.97624,-0.19459,0.0,2023,6,7,12,33,37,281
39.64230,0.02450,-0.01243,0.00000,0.02891,0.97649,-0.19630,0.0,2023,6,7,12,33,37,291
39.64240,0.07700,0.04007,0.00000,0.02916,0.97661,-0.19715,0.0,2023,6,7,12,33,37,301
39.64250,-0.01050,-0.23993,0.00000,0.02830,0.97515,-0.19496,0.0,2023,6,7,12,33,37,311
39.64260,0.05950,0.25007,0.00000,0.02757,0.97722,-0.19325,0.0,2023,6,7,12,33,37,321
39.64270,-0.11550,0.07507,0.00000,0.02733,0.97441,-0.19581,0.0,2023,6,7,12,33,37,331
39.64280,0.12950,-0.01243,0.00000,0.02843,0.97624,-0.19410,0.0,2023,6,7,12,33,37,341
39.64290,0.26950,-0.04743,0.00000,0.02879,0.97881,-0.19410,0.0,2023,6,7,12,33,37,351
39.64300,0.07700,-0.27493,0.00000,0.02965,0.97685,-0.19508,0.0,2023,6,7,12,33,37,361
39.64310,-0.02800,0.00507,0.00000,0.02867,0.97661,-0.19508,0.0,2023,6,7,12,33,37,371
39.64320,0.00700,-0.32743,0.00000,0.02830,0.97576,-0.19398,0.0,2023,6,7,12,33,37,381
39.64330,0.04200,0.09257,0.00000,0.02733,0.97527,-0.19349,0.0,2023,6,7,12,33,37,391
39.64340,-0.08050,-0.06493,0.00000,0.02733,0.97600,-0.19618,0.0,2023,6,7,12,33,37,401
39.64350,0.04200,-0.06493,0.00000,0.02647,0.97551,-0.19435,0.0,2023,6,7,12,33,37,411
39.64360,0.04200,0.11007,0.00000,0.02757,0.97649,-0.19483,0.0,2023,6,7,12,33,37,421
39.64370,-0.11550,-0.02993,0.00000,0.02977,0.97588,-0.19569,0.0,2023,6,7,12,33,37,431
39.64380,0.02450,-0.13493,0.00000,0.02977,0.97466,-0.19544,0.0,2023,6,7,12,33,37,441
39.64390,-0.06300,0.18007,0.00000,0.02782,0.97612,-0.19593,0.0,2023,6,7,12,33,37,451
39.64400,-0.04550,0.02257,0.00000,0.02965,0.97673,-0.19471,0.0,2023,6,7,12,33,37,461
39.64410,0.04200,-0.15243,0.00000,0.02843,0.97563,-0.19532,0.0,2023,6,7,12,33,37,471
39.64420,0.09450,-0.01243,0.00000,0.02940,0.97649,-0.19593,0.0,2023,6,7,12,33,37,481
39.64430,-0.09800,0.07507,0.00000,0.02867,0.97515,-0.19398,0.0,2023,6,7,12,33,37,491
39.64440,-0.11550,0.02257,0.00000,0.02940,0.97649,-0.19435,0.0,2023,6,7,12,33,37,501
39.64450,-0.01050,-0.06493,0.00000,0.02989,0.97527,-0.19349,0.0,2023,6,7,12,33,37,511
39.64460,0.23450,-0.04743,0.00000,0.02830,0.97368,-0.19557,0.0,2023,6,7,12,33,37,521
39.64470,-0.09800,0.05757,0.00000,0.02525,0.97417,-0.19520,0.0,2023,6,7,12,33,37,531
39.64480,-0.06300,0.02257,0.00000,0.02977,0.97502,-0.19459,0.0,2023,6,7,12,33,37,541
39.64490,0.02450,-0.16993,0.00000,0.02794,0.97624,-0.19544,0.0,2023,6,7,12,33,37,551
39.64500,0.02450,0.07507,0.00000,0.02867,0.97722,-0.19557,0.0,2023,6,7,12,33,37,561
39.64510,0.02450,0.05757,0.00000,0.02843,0.97551,-0.19496,0.0,2023,6,7,12,33,38,571
39.64520,-0.01050,-0.02993,0.00000,0.02818,0.97612,-0.19056,0.0,2023,6,7,12,33,38,581
39.64530,-0.06300,-0.06493,0.00000,0.02867,0.97576,-0.19288,0.0,2023,6,7,12,33,38,591
39.64540,-0.25550,-0.11743,0.00000,0.02843,0.97649,-0.19557,0.0,2023,6,7,12,33,38,601
39.64550,-0.02800,-0.15243,0.00000,0.02818,0.97515,-0.19569,0.0,2023,6,7,12,33,38,611
39.64560,0.09450,0.02257,0.00000,0.02769,0.97515,-0.19483,0.0,2023,6,7,12,33,38,621
39.64570,-0.02800,-0.20493,0.00000,0.02916,0.97746,-0.19581,0.0,2023,6,7,12,33,38,631
39.64580,-0.09800,0.09257,0.00000,0.02794,0.97685,-0.19361,0.0,2023,6,7,12,33,38,641
39.64590,0.21700,-0.09993,0.00000,0.02904,0.97515,-0.19605,0.0,2023,6,7,12,33,38,651
39.64600,0.04200,-0.13493,0.00000,0.02879,0.97551,-0.19264,0.0,2023,6,7,12,33,38,661
39.64610,0.00700,0.12757,0.00000,0.02891,0.97454,-0.19276,0.0,2023,6,7,12,33,38,671
39.64620,0.02450,-0.04743,0.00000,0.02696,0.97685,-0.19447,0.0,2023,6,7,12,33,38,681
39.64630,0.02450,-0.11743,0.00000,0.02891,0.97576,-0.19508,0.0,2023,6,7,12,33,38,691
39.64640,-0.02800,0.02257,0.00000,0.02782,0.97393,-0.19313,0.0,2023,6,7,12,33,38,701
39.64650,0.09450,-0.01243,0.00000,0.02977,0.97612,-0.19313,0.0,2023,6,7,12,33,38,711
39.64660,-0.08050,-0.18743,0.00000,0.02891,0.97466,-0.19276,0.0,2023,6,7,12,33,38,721
39.64670,-0.01050,0.07507,0.00000,0.02952,0.97576,-0.19740,0.0,2023,6,7,12,33,38,731
