#2023/06/07 16:14:14
time,wx,wy,wz,ax,ay,az,yy,MM,dd,hh,mm,ss,ms
45.04260,-0.09835,-0.04148,0.00000,0.03026,0.97441,-0.19056,0.0,2023,6,7,16,14,15,989
45.04270,0.00665,-0.04148,0.00000,0.03087,0.97637,-0.18715,0.0,2023,6,7,16,14,15,8
45.04280,0.04165,0.15102,0.00000,0.03123,0.97710,-0.18776,0.0,2023,6,7,16,14,15,27
45.04290,0.09415,-0.26898,0.00000,0.03123,0.97490,-0.18934,0.0,2023,6,7,16,14,15,46
45.04300,-0.06335,-0.12898,0.00000,0.03062,0.97746,-0.18873,0.0,2023,6,7,16,14,15,65
45.04310,0.11165,-0.05898,0.00000,0.02916,0.97771,-0.18739,0.0,2023,6,7,16,14,15,84
45.04320,-0.15085,-0.05898,0.00000,0.02940,0.97588,-0.18642,0.0,2023,6,7,16,14,15,103
45.04330,0.09415,0.02852,0.00000,0.02891,0.97649,-0.18849,0.0,2023,6,7,16,14,15,122
45.04340,0.02415,0.06352,0.00000,0.03184,0.97698,-0.18959,0.0,2023,6,7,16,14,15,141
45.04350,-0.13335,0.23852,0.00000,0.03392,0.97637,-0.18886,0.0,2023,6,7,16,14,15,160
45.04360,-0.09835,0.18602,0.00000,0.03050,0.97600,-0.19008,0.0,2023,6,7,16,14,15,178
45.04370,-0.09835,0.15102,0.00000,0.03392,0.97527,-0.18459,0.0,2023,6,7,16,14,15,197
45.04380,-0.16835,0.27352,0.00000,0.03087,0.97563,-0.18751,0.0,2023,6,7,16,14,15,216
45.04390,-0.04585,-0.09398,0.00000,0.03026,0.97795,-0.18715,0.0,2023,6,7,16,14,15,235
45.04400,0.04165,0.04602,0.00000,0.03062,0.97649,-0.18861,0.0,2023,6,7,16,14,15,254
45.04410,0.00665,0.08102,0.00000,0.03074,0.97466,-0.18947,0.0,2023,6,7,16,14,15,273
45.04420,-0.06335,0.06352,0.00000,0.03209,0.97466,-0.18764,0.0,2023,6,7,16,14,15,292
45.04430,0.11165,0.13352,0.00000,0.03050,0.97478,-0.18605,0.0,2023,6,7,16,14,15,311
45.04440,0.11165,0.13352,0.00000,0.02952,0.97893,-0.18751,0.0,2023,6,7,16,14,15,330
45.04450,0.00665,0.32602,0.00000,0.03160,0.97624,-0.18934,0.0,2023,6,7,16,14,15,349
45.04460,0.04165,-0.12898,0.00000,0.02952,0.97832,-0.18324,0.0,2023,6,7,16,14,15,367
45.04470,-0.15085,-0.11148,0.00000,0.03111,0.97722,-0.18800,0.0,2023,6,7,16,14,15,386
45.04480,0.05915,0.02852,0.00000,0.03087,0.97515,-0.18776,0.0,2023,6,7,16,14,15,405
45.04490,0.05915,-0.09398,0.00000,0.02940,0.97624,-0.18739,0.0,2023,6,7,16,14,15,424
45.04500,-0.18585,0.04602,0.00000,0.03294,0.97710,-0.18568,0.0,2023,6,7,16,14,15,443
45.04510,-0.02835,-0.09398,0.00000,0.03050,0.97600,-0.18739,0.0,2023,6,7,16,14,15,462
45.04520,0.18165,0.01102,0.00000,0.02989,0.97844,-0.18471,0.0,2023,6,7,16,14,15,481
45.04530,0.07665,-0.12898,0.00000,0.03099,0.97698,-0.18703,0.0,2023,6,7,16,14,15,500
45.04540,-0.11585,-0.00648,0.00000,0.02904,0.97698,-0.18910,0.0,2023,6,7,16,14,15,519
45.04550,0.02415,0.01102,0.00000,0.03123,0.97527,-0.18629,0.0,2023,6,7,16,14,15,538
45.04560,-0.01085,0.11602,0.00000,0.02928,0.97698,-0.18983,0.0,2023,6,7,16,14,15,556
45.04570,-0.08085,-0.05898,0.00000,0.02952,0.97685,-0.18886,0.0,2023,6,7,16,14,15,575
45.04580,0.11165,-0.23398,0.00000,0.03123,0.97722,-0.18910,0.0,2023,6,7,16,14,15,594
45.04590,0.14665,0.06352,0.00000,0.03184,0.97502,-0.18666,0.0,2023,6,7,16,14,15,613
45.04600,-0.04585,-0.04148,0.00000,0.03013,0.97490,-0.18959,0.0,2023,6,7,16,14,15,632
45.04610,-0.09835,-0.14648,0.00000,0.03050,0.97637,-0.18995,0.0,2023,6,7,16,14,15,651
45.04620,0.12915,-0.12898,0.00000,0.02891,0.97478,-0.18800,0.0,2023,6,7,16,14,15,670
45.04630,-0.13335,0.08102,0.00000,0.03196,0.97722,-0.18947,0.0,2023,6,7,16,14,16,9
45.04640,-0.06335,0.15102,0.00000,0.03099,0.97807,-0.18678,0.0,2023,6,7,16,14,16,28
45.04650,0.09415,0.04602,0.00000,0.03099,0.97624,-0.18666,0.0,2023,6,7,16,14,16,47
45.04660,0.09415,-0.04148,0.00000,0.03026,0.97588,-0.18934,0.0,2023,6,7,16,14,16,65
45.04670,-0.06335,-0.04148,0.00000,0.03050,0.97820,-0.18739,0.0,2023,6,7,16,14,16,84
45.04680,0.05915,0.01102,0.00000,0.03160,0.97649,-0.18812,0.0,2023,6,7,16,14,16,103
45.04690,0.12915,-0.23398,0.00000,0.03062,0.97746,-0.18617,0.0,2023,6,7,16,14,16,122
45.04700,0.05915,-0.00648,0.00000,0.03087,0.97710,-0.18751,0.0,2023,6,7,16,14,16,141
45.04710,-0.16835,0.09852,0.00000,0.03074,0.97551,-0.18849,0.0,2023,6,7,16,14,16,160
45.04720,0.02415,0.02852,0.00000,0.03074,0.97600,-0.18678,0.0,2023,6,7,16,14,16,179
45.04730,-0.09835,-0.11148,0.00000,0.02977,0.97649,-0.18995,0.0,2023,6,7,16,14,16,198
45.04740,0.00665,0.01102,0.00000,0.02891,0.97661,-0.18971,0.0,2023,6,7,16,14,16,217
45.04750,0.07665,0.29102,0.00000,0.02952,0.97551,-0.18739,0.0,2023,6,7,16,14,16,236
45.04760,0.04165,0.06352,0.00000,0.03379,0.97600,-0.18703,0.0,2023,6,7,16,14,16,254
45.04770,0.11165,-0.02398,0.00000,0.02904,0.97978,-0.18873,0.0,2023,6,7,16,14,16,273
45.04780,0.04165,-0.07648,0.00000,0.03331,0.97624,-0.18703,0.0,2023,6,7,16,14,16,292
45.04790,-0.02835,-0.00648,0.00000,0.03111,0.97539,-0.18922,0.0,2023,6,7,16,14,16,311
45.04800,0.14665,-0.21648,0.00000,0.03184,0.97795,-0.18837,0.0,2023,6,7,16,14,16,330
45.04810,-0.16835,0.04602,0.00000,0.03123,0.97685,-0.18703,0.0,2023,6,7,16,14,16,349
45.04820,0.16415,-0.26898,0.00000,0.03087,0.97649,-0.18837,0.0,2023,6,7,16,14,16,368
45.04830,-0.02835,-0.16398,0.00000,0.03184,0.97515,-0.18849,0.0,2023,6,7,16,14,16,387
45.04840,-0.22085,-0.11148,0.00000,0.03148,0.97661,-0.18568,0.0,2023,6,7,16,14,16,406
45.04850,0.00665,-0.04148,0.00000,0.03135,0.97551,-0.18788,0.0,2023,6,7,16,14,16,425
45.04860,0.23415,-0.02398,0.00000,0.03038,0.97649,-0.18861,0.0,2023,6,7,16,14,16,443
45.04870,0.00665,-0.07648,0.00000,0.02855,0.97466,-0.18764,0.0,2023,6,7,16,14,16,462
45.04880,0.00665,-0.12898,0.00000,0.03074,0.97539,-0.18520,0.0,2023,6,7,16,14,16,481
45.04890,-0.04585,-0.11148,0.00000,0.02965,0.97807,-0.19008,0.0,2023,6,7,16,14,16,500
45.04900,0.16415,-0.11148,0.00000,0.03123,0.97466,-0.18849,0.0,2023,6,7,16,14,16,519
45.04910,-0.01085,-0.02398,0.00000,0.03123,0.97661,-0.18861,0.0,2023,6,7,16,14,16,538
45.04920,0.04165,-0.00648,0.00000,0.03221,0.97795,-0.18739,0.0,2023,6,7,16,14,16,557
45.04930,0.04165,-0.07648,0.00000,0.02904,0.97588,-0.18776,0.0,2023,6,7,16,14,16,576
45.04940,0.09415,-0.00648,0.00000,0.03111,0.97637,-0.18983,0.0,2023,6,7,16,14,16,595
45.04950,-0.04585,-0.30398,0.00000,0.03099,0.97576,-0.18544,0.0,2023,6,7,16,14,16,614
45.04960,-0.16835,0.02852,0.00000,0.03184,0.97332,-0.18605,0.0,2023,6,7,16,14,16,632
45.04970,0.00665,-0.19898,0.00000,0.03111,0.97661,-0.18837,0.0,2023,6,7,16,14,16,651
45.04980,0.18165,-0.02398,0.00000,0.03074,0.97588,-0.18788,0.0,2023,6,7,16,14,16,670
45.04990,-0.06335,0.16852,0.00000,0.03099,0.97722,-0.18654,0.0,2023,6,7,16,14,16,689
45.05000,-0.01085,0.06352,0.00000,0.03257,0.97844,-0.18922,0.0,2023,6,7,16,14,16,708
45.05010,-0.11585,-0.00648,0.00000,0.03123,0.97661,-0.18971,0.0,2023,6,7,16,14,16,727
45.05020,0.00665,-0.00648,0.00000,0.03184,0.97673,-0.18690,0.0,2023,6,7,16,14,16,746
45.05030,-0.11585,-0.11148,0.00000,0.03294,0.97441,-0.18703,0.0,2023,6,7,16,14,16,765
45.05040,-0.09835,-0.07648,0.00000,0.03087,0.97722,-0.18739,0.0,2023,6,7,16,14,16,784
45.05050,0.07665,0.04602,0.00000,0.03087,0.97551,-0.18886,0.0,2023,6,7,16,14,16,803
45.05060,0.16415,-0.07648,0.00000,0.03160,0.97624,-0.18654,0.0,2023,6,7,16,14,16,821
45.05070,-0.25585,0.09852,0.00000,0.03026,0.97551,-0.18849,0.0,2023,6,7,16,14,16,840
45.05080,0.16415,0.11602,0.00000,0.03184,0.97454,-0.18678,0.0,2023,6,7,16,14,16,859
45.05090,0.05915,-0.05898,0.00000,0.03257,0.97405,-0.18983,0.0,2023,6,7,16,14,16,878
45.05100,0.05915,0.09852,0.00000,0.03123,0.97917,-0.18654,0.0,2023,6,7,16,14,16,897
45.05110,0.05915,-0.21648,0.00000,0.03160,0.97527,-0.18629,0.0,2023,6,7,16,14,16,916
45.05120,0.05915,-0.00648,0.00000,0.03209,0.97771,-0.18629,0.0,2023,6,7,16,14,16,935
45.05130,0.14665,0.02852,0.00000,0.02989,0.97661,-0.18764,0.0,2023,6,7,16,14,16,954
45.05140,0.12915,-0.07648,0.00000,0.03111,0.97454,-0.18544,0.0,2023,6,7,16,14,16,973
45.05150,-0.02835,-0.02398,0.00000,0.03209,0.97661,-0.18642,0.0,2023,6,7,16,14,16,992
45.05160,-0.08085,-0.11148,0.00000,0.03135,0.97698,-0.18715,0.0,2023,6,7,16,14,16,10
45.05170,0.00665,-0.05898,0.00000,0.03111,0.97673,-0.18642,0.0,2023,6,7,16,14,16,29
45.05180,0.09415,0.15102,0.00000,0.03270,0.97588,-0.18739,0.0,2023,6,7,16,14,16,48
45.05190,0.00665,0.01102,0.00000,0.03184,0.97771,-0.18849,0.0,2023,6,7,16,14,16,67
45.05200,0.19915,-0.05898,0.00000,0.03013,0.97722,-0.18873,0.0,2023,6,7,16,14,16,86
45.05210,-0.11585,0.06352,0.00000,0.03294,0.97441,-0.18812,0.0,2023,6,7,16,14,16,105
45.05220,-0.13335,0.18602,0.00000,0.03233,0.97673,-0.18459,0.0,2023,6,7,16,14,16,124
45.05230,-0.11585,-0.05898,0.00000,0.03111,0.97722,-0.18581,0.0,2023,6,7,16,14,16,143
45.05240,-0.18585,0.15102,0.00000,0.03111,0.97490,-0.19044,0.0,2023,6,7,16,14,16,162
45.05250,0.00665,-0.16398,0.00000,0.03062,0.97478,-0.18520,0.0,2023,6,7,16,14,16,181
45.05260,-0.06335,-0.04148,0.00000,0.03257,0.97661,-0.18593,0.0,2023,6,7,16,14,16,199
45.05270,-0.11585,-0.04148,0.00000,0.03233,0.97673,-0.18593,0.0,2023,6,7,16,14,16,218
45.05280,-0.04585,0.01102,0.00000,0.02904,0.97454,-0.18922,0.0,2023,6,7,16,14,16,237
45.05290,-0.08085,0.15102,0.00000,0.03245,0.97490,-0.18690,0.0,2023,6,7,16,14,16,256
45.05300,-0.02835,-0.04148,0.00000,0.03099,0.97637,-0.18507,0.0,2023,6,7,16,14,16,275
45.05310,-0.13335,0.04602,0.00000,0.02940,0.97783,-0.18703,0.0,2023,6,7,16,14,16,294
45.05320,0.09415,-0.07648,0.00000,0.03099,0.97722,-0.18812,0.0,2023,6,7,16,14,16,313
45.05330,-0.11585,-0.00648,0.00000,0.03099,0.97698,-0.18642,0.0,2023,6,7,16,14,16,332
45.05340,-0.09835,-0.02398,0.00000,0.03221,0.97515,-0.18581,0.0,2023,6,7,16,14,16,351
45.05350,-0.16835,0.11602,0.00000,0.03148,0.97600,-0.18422,0.0,2023,6,7,16,14,16,370
45.05360,-0.08085,0.06352,0.00000,0.03050,0.97527,-0.18776,0.0,2023,6,7,16,14,16,388
45.05370,0.16415,-0.05898,0.00000,0.03038,0.97637,-0.18703,0.0,2023,6,7,16,14,16,407
45.05380,-0.04585,-0.02398,0.00000,0.03184,0.97698,-0.18581,0.0,2023,6,7,16,14,16,426
45.05390,-0.11585,-0.05898,0.00000,0.02977,0.97746,-0.18751,0.0,2023,6,7,16,14,16,445
45.05400,0.04165,0.04602,0.00000,0.03306,0.97380,-0.18690,0.0,2023,6,7,16,14,16,464
45.05410,0.05915,-0.04148,0.00000,0.03160,0.97710,-0.18410,0.0,2023,6,7,16,14,16,483
45.05420,-0.13335,0.09852,0.00000,0.03074,0.97685,-0.18800,0.0,2023,6,7,16,14,16,502
45.05430,0.09415,-0.09398,0.00000,0.03209,0.97637,-0.18873,0.0,2023,6,7,16,14,16,521
45.05440,-0.16835,0.08102,0.00000,0.03172,0.97466,-0.18507,0.0,2023,6,7,16,14,16,540
45.05450,-0.06335,0.01102,0.00000,0.03038,0.97673,-0.18812,0.0,2023,6,7,16,14,16,559
45.05460,-0.11585,-0.09398,0.00000,0.03233,0.97966,-0.18727,0.0,2023,6,7,16,14,16,577
45.05470,0.09415,0.01102,0.00000,0.03135,0.97563,-0.18788,0.0,2023,6,7,16,14,16,596
45.05480,-0.11585,0.04602,0.00000,0.03196,0.97746,-0.18593,0.0,2023,6,7,16,14,16,615
45.05490,-0.04585,-0.12898,0.00000,0.03135,0.97734,-0.18776,0.0,2023,6,7,16,14,16,634
45.05500,-0.08085,-0.02398,0.00000,0.03196,0.97466,-0.18690,0.0,2023,6,7,16,14,16,653
45.05510,-0.06335,-0.05898,0.00000,0.03221,0.97600,-0.18654,0.0,2023,6,7,16,14,16,672
45.05520,0.05915,0.09852,0.00000,0.03074,0.97673,-0.18617,0.0,2023,6,7,16,14,16,691
45.05530,0.02415,-0.18148,0.00000,0.03135,0.97563,-0.18666,0.0,2023,6,7,16,14,17,0
45.05540,0.16415,-0.05898,0.00000,0.03123,0.97661,-0.18934,0.0,2023,6,7,16,14,17,19
45.05550,-0.23835,0.04602,0.00000,0.03196,0.97283,-0.18471,0.0,2023,6,7,16,14,17,38
45.05560,0.09415,-0.00648,0.00000,0.03062,0.97710,-0.18666,0.0,2023,6,7,16,14,17,56
45.05570,-0.20335,-0.11148,0.00000,0.03001,0.97515,-0.18837,0.0,2023,6,7,16,14,17,75
45.05580,0.00665,0.01102,0.00000,0.03074,0.97515,-0.18654,0.0,2023,6,7,16,14,17,94
45.05590,0.05915,-0.09398,0.00000,0.03245,0.97600,-0.18715,0.0,2023,6,7,16,14,17,113
45.05600,0.04165,-0.28648,0.00000,0.03050,0.97734,-0.18654,0.0,2023,6,7,16,14,17,132
45.05610,-0.06335,0.06352,0.00000,0.03160,0.97698,-0.18788,0.0,2023,6,7,16,14,17,151
45.05620,0.00665,0.06352,0.00000,0.02965,0.97820,-0.18568,0.0,2023,6,7,16,14,17,170
45.05630,-0.02835,-0.11148,0.00000,0.02977,0.97734,-0.18654,0.0,2023,6,7,16,14,17,189
45.05640,0.11165,0.20352,0.00000,0.03013,0.97820,-0.18593,0.0,2023,6,7,16,14,17,208
45.05650,-0.15085,0.01102,0.00000,0.02989,0.97685,-0.18605,0.0,2023,6,7,16,14,17,227
45.05660,0.02415,0.04602,0.00000,0.03135,0.97624,-0.18666,0.0,2023,6,7,16,14,17,245
45.05670,-0.11585,-0.05898,0.00000,0.03196,0.97734,-0.18532,0.0,2023,6,7,16,14,17,264
45.05680,-0.02835,0.08102,0.00000,0.03209,0.97405,-0.18739,0.0,2023,6,7,16,14,17,283
45.05690,-0.09835,0.11602,0.00000,0.03245,0.97649,-0.18825,0.0,2023,6,7,16,14,17,302
45.05700,-0.02835,0.09852,0.00000,0.03257,0.97478,-0.18568,0.0,2023,6,7,16,14,17,321
45.05710,0.09415,-0.23398,0.00000,0.03074,0.97734,-0.18727,0.0,2023,6,7,16,14,17,340
45.05720,0.09415,-0.00648,0.00000,0.03062,0.97771,-0.18751,0.0,2023,6,7,16,14,17,359
45.05730,-0.13335,0.04602,0.00000,0.03196,0.97576,-0.18507,0.0,2023,6,7,16,14,17,378
45.05740,0.02415,0.18602,0.00000,0.03196,0.97710,-0.18825,0.0,2023,6,7,16,14,17,397
45.05750,-0.02835,0.06352,0.00000,0.03160,0.97563,-0.18825,0.0,2023,6,7,16,14,17,416
45.05760,-0.02835,-0.00648,0.00000,0.02977,0.97502,-0.18642,0.0,2023,6,7,16,14,17,434
45.05770,0.07665,0.04602,0.00000,0.03221,0.97746,-0.18690,0.0,2023,6,7,16,14,17,453
45.05780,-0.13335,0.13352,0.00000,0.03318,0.97759,-0.18629,0.0,2023,6,7,16,14,17,472
45.05790,-0.04585,0.34352,0.00000,0.03099,0.97673,-0.18507,0.0,2023,6,7,16,14,17,491
45.05800,-0.04585,0.16852,0.00000,0.03111,0.97551,-0.18471,0.0,2023,6,7,16,14,17,510
45.05810,-0.06335,-0.00648,0.00000,0.03123,0.97624,-0.18568,0.0,2023,6,7,16,14,17,529
45.05820,-0.04585,-0.07648,0.00000,0.03196,0.97710,-0.18666,0.0,2023,6,7,16,14,17,548
45.05830,0.18165,-0.09398,0.00000,0.03221,0.97393,-0.18398,0.0,2023,6,7,16,14,17,567
45.05840,-0.08085,0.02852,0.00000,0.03343,0.97685,-0.18520,0.0,2023,6,7,16,14,17,586
45.05850,0.16415,0.06352,0.00000,0.02940,0.97551,-0.18837,0.0,2023,6,7,16,14,17,605
45.05860,0.09415,0.15102,0.00000,0.03087,0.97856,-0.18971,0.0,2023,6,7,16,14,17,623
45.05870,-0.11585,0.02852,0.00000,0.03026,0.97759,-0.18568,0.0,2023,6,7,16,14,17,642
45.05880,-0.18585,0.01102,0.00000,0.03026,0.97478,-0.18678,0.0,2023,6,7,16,14,17,661
45.05890,0.12915,0.08102,0.00000,0.03209,0.97649,-0.18764,0.0,2023,6,7,16,14,17,680
45.05900,-0.04585,0.01102,0.00000,0.02928,0.97600,-0.18837,0.0,2023,6,7,16,14,17,699
45.05910,0.09415,-0.04148,0.00000,0.03038,0.97734,-0.18764,0.0,2023,6,7,16,14,17,718
45.05920,-0.13335,0.15102,0.00000,0.02916,0.97734,-0.18617,0.0,2023,6,7,16,14,17,737
45.05930,0.21665,-0.05898,0.00000,0.03196,0.97661,-0.18812,0.0,2023,6,7,16,14,17,756
45.05940,0.09415,-0.02398,0.00000,0.03111,0.97759,-0.18568,0.0,2023,6,7,16,14,17,775
45.05950,0.05915,0.01102,0.00000,0.03062,0.97649,-0.18825,0.0,2023,6,7,16,14,17,794
45.05960,-0.06335,-0.09398,0.00000,0.03099,0.97283,-0.18983,0.0,2023,6,7,16,14,17,812
45.05970,0.05915,-0.07648,0.00000,0.03074,0.97698,-0.18727,0.0,2023,6,7,16,14,17,831
45.05980,0.09415,-0.00648,0.00000,0.03038,0.97685,-0.18727,0.0,2023,6,7,16,14,17,850
45.05990,-0.09835,0.20352,0.00000,0.03135,0.97746,-0.18886,0.0,2023,6,7,16,14,17,869
45.06000,0.04165,0.11602,0.00000,0.03135,0.97600,-0.18715,0.0,2023,6,7,16,14,17,888
45.06010,0.02415,0.01102,0.00000,0.03135,0.97807,-0.18605,0.0,2023,6,7,16,14,17,907
45.06020,0.00665,0.06352,0.00000,0.03331,0.97502,-0.18947,0.0,2023,6,7,16,14,17,926
45.06030,0.09415,0.06352,0.00000,0.03087,0.97588,-0.18678,0.0,2023,6,7,16,14,17,945
45.06040,-0.01085,0.01102,0.00000,0.03013,0.97661,-0.18666,0.0,2023,6,7,16,14,17,964
45.06050,0.21665,-0.07648,0.00000,0.03111,0.97807,-0.18800,0.0,2023,6,7,16,14,17,983
45.06060,-0.08085,0.09852,0.00000,0.03184,0.97600,-0.18471,0.0,2023,6,7,16,14,17,1
45.06070,-0.02835,-0.09398,0.00000,0.03123,0.97722,-0.18544,0.0,2023,6,7,16,14,17,20
45.06080,0.16415,-0.39148,0.00000,0.02940,0.97844,-0.18739,0.0,2023,6,7,16,14,17,39
45.06090,-0.01085,-0.09398,0.00000,0.03013,0.97820,-0.18715,0.0,2023,6,7,16,14,17,58
45.06100,0.09415,-0.07648,0.00000,0.03233,0.97344,-0.18544,0.0,2023,6,7,16,14,17,77
45.06110,0.19915,0.06352,0.00000,0.03245,0.97722,-0.18764,0.0,2023,6,7,16,14,17,96
45.06120,0.07665,-0.07648,0.00000,0.03343,0.97466,-0.18703,0.0,2023,6,7,16,14,17,115
45.06130,0.00665,0.09852,0.00000,0.03392,0.97746,-0.19056,0.0,2023,6,7,16,14,17,134
45.06140,0.05915,0.11602,0.00000,0.03026,0.97746,-0.18629,0.0,2023,6,7,16,14,17,153
45.06150,-0.11585,-0.02398,0.00000,0.03257,0.97710,-0.18483,0.0,2023,6,7,16,14,17,172
45.06160,-0.02835,-0.07648,0.00000,0.03428,0.97612,-0.18812,0.0,2023,6,7,16,14,17,190
45.06170,-0.02835,-0.04148,0.00000,0.03282,0.97380,-0.18556,0.0,2023,6,7,16,14,17,209
45.06180,-0.16835,-0.00648,0.00000,0.03038,0.97368,-0.18788,0.0,2023,6,7,16,14,17,228
45.06190,-0.11585,0.13352,0.00000,0.03233,0.97624,-0.18934,0.0,2023,6,7,16,14,17,247
45.06200,0.02415,-0.05898,0.00000,0.03013,0.97722,-0.18690,0.0,2023,6,7,16,14,17,266
45.06210,-0.01085,-0.07648,0.00000,0.03135,0.97685,-0.19020,0.0,2023,6,7,16,14,17,285
45.06220,0.09415,0.08102,0.00000,0.02916,0.97612,-0.18788,0.0,2023,6,7,16,14,17,304
45.06230,0.14665,-0.00648,0.00000,0.03196,0.97624,-0.18507,0.0,2023,6,7,16,14,17,323
45.06240,0.02415,0.01102,0.00000,0.03087,0.97881,-0.18776,0.0,2023,6,7,16,14,17,342
45.06250,-0.01085,0.01102,0.00000,0.02928,0.97490,-0.18605,0.0,2023,6,7,16,14,17,361
45.06260,-0.09835,-0.05898,0.00000,0.03172,0.97417,-0.18947,0.0,2023,6,7,16,14,17,379
45.06270,0.14665,0.04602,0.00000,0.02891,0.97734,-0.18715,0.0,2023,6,7,16,14,17,398
45.06280,-0.08085,-0.02398,0.00000,0.03282,0.97454,-0.18373,0.0,2023,6,7,16,14,17,417
45.06290,-0.09835,-0.09398,0.00000,0.03209,0.97576,-0.18934,0.0,2023,6,7,16,14,17,436
45.06300,0.00665,-0.09398,0.00000,0.03074,0.97795,-0.18727,0.0,2023,6,7,16,14,17,455
45.06310,-0.09835,-0.04148,0.00000,0.03196,0.97551,-0.18690,0.0,2023,6,7,16,14,17,474
45.06320,0.26915,-0.07648,0.00000,0.02977,0.97637,-0.18886,0.0,2023,6,7,16,14,17,493
45.06330,0.07665,-0.02398,0.00000,0.03209,0.97661,-0.18410,0.0,2023,6,7,16,14,17,512
45.06340,-0.09835,0.13352,0.00000,0.03306,0.97624,-0.18678,0.0,2023,6,7,16,14,17,531
45.06350,-0.06335,0.06352,0.00000,0.03099,0.97673,-0.18751,0.0,2023,6,7,16,14,17,550
45.06360,-0.08085,-0.04148,0.00000,0.03111,0.97917,-0.18605,0.0,2023,6,7,16,14,17,568
45.06370,0.11165,0.04602,0.00000,0.03123,0.97771,-0.18654,0.0,2023,6,7,16,14,17,587
45.06380,-0.08085,-0.02398,0.00000,0.03172,0.97551,-0.18532,0.0,2023,6,7,16,14,17,606
45.06390,0.04165,0.15102,0.00000,0.03123,0.97734,-0.18788,0.0,2023,6,7,16,14,17,625
45.06400,0.16415,-0.00648,0.00000,0.03013,0.97356,-0.18739,0.0,2023,6,7,16,14,17,644
45.06410,0.11165,-0.02398,0.00000,0.03160,0.97917,-0.18581,0.0,2023,6,7,16,14,17,663
45.06420,-0.06335,0.04602,0.00000,0.03074,0.97722,-0.18922,0.0,2023,6,7,16,14,18,2
45.06430,0.02415,-0.07648,0.00000,0.03013,0.97441,-0.18971,0.0,2023,6,7,16,14,18,21
45.06440,0.07665,0.06352,0.00000,0.03148,0.97783,-0.18666,0.0,2023,6,7,16,14,18,40
45.06450,-0.15085,-0.02398,0.00000,0.03013,0.97710,-0.18690,0.0,2023,6,7,16,14,18,59
45.06460,0.23415,-0.07648,0.00000,0.03270,0.97539,-0.18776,0.0,2023,6,7,16,14,18,77
45.06470,-0.15085,0.04602,0.00000,0.03294,0.97722,-0.18971,0.0,2023,6,7,16,14,18,96
45.06480,-0.13335,0.04602,0.00000,0.03221,0.97759,-0.18800,0.0,2023,6,7,16,14,18,115
45.06490,0.16415,0.06352,0.00000,0.03245,0.97539,-0.18910,0.0,2023,6,7,16,14,18,134
45.06500,-0.11585,0.04602,0.00000,0.02977,0.97527,-0.18593,0.0,2023,6,7,16,14,18,153
45.06510,0.16415,-0.11148,0.00000,0.03111,0.97624,-0.18703,0.0,2023,6,7,16,14,18,172
45.06520,0.04165,-0.07648,0.00000,0.03123,0.97832,-0.18910,0.0,2023,6,7,16,14,18,191
45.06530,-0.08085,-0.07648,0.00000,0.03123,0.97673,-0.18886,0.0,2023,6,7,16,14,18,210
45.06540,-0.18585,0.23852,0.00000,0.03440,0.97576,-0.18825,0.0,2023,6,7,16,14,18,229
45.06550,-0.13335,-0.16398,0.00000,0.03148,0.97600,-0.18568,0.0,2023,6,7,16,14,18,248
45.06560,0.00665,-0.16398,0.00000,0.03318,0.97771,-0.18934,0.0,2023,6,7,16,14,18,266
45.06570,-0.04585,-0.00648,0.00000,0.03196,0.97551,-0.18642,0.0,2023,6,7,16,14,18,285
45.06580,-0.18585,0.06352,0.00000,0.03221,0.97600,-0.18532,0.0,2023,6,7,16,14,18,304
45.06590,-0.02835,-0.16398,0.00000,0.03123,0.97649,-0.18727,0.0,2023,6,7,16,14,18,323
45.06600,-0.06335,-0.00648,0.00000,0.03111,0.97612,-0.18642,0.0,2023,6,7,16,14,18,342
45.06610,-0.13335,-0.00648,0.00000,0.03026,0.97710,-0.18373,0.0,2023,6,7,16,14,18,361
45.06620,0.04165,-0.07648,0.00000,0.03270,0.97527,-0.18703,0.0,2023,6,7,16,14,18,380
45.06630,0.07665,-0.09398,0.00000,0.02928,0.97576,-0.18629,0.0,2023,6,7,16,14,18,399
45.06640,-0.22085,0.01102,0.00000,0.02867,0.97563,-0.18678,0.0,2023,6,7,16,14,18,418
45.06650,0.02415,-0.18148,0.00000,0.03111,0.97759,-0.18703,0.0,2023,6,7,16,14,18,437
45.06660,0.12915,-0.12898,0.00000,0.03306,0.97624,-0.18703,0.0,2023,6,7,16,14,18,455
45.06670,-0.01085,-0.12898,0.00000,0.03270,0.97393,-0.18593,0.0,2023,6,7,16,14,18,474
45.06680,-0.08085,-0.07648,0.00000,0.03062,0.97698,-0.18776,0.0,2023,6,7,16,14,18,493
45.06690,-0.08085,-0.11148,0.00000,0.03013,0.97649,-0.18703,0.0,2023,6,7,16,14,18,512
45.06700,0.12915,-0.18148,0.00000,0.03294,0.97527,-0.18629,0.0,2023,6,7,16,14,18,531
45.06710,0.05915,-0.05898,0.00000,0.03099,0.97576,-0.18617,0.0,2023,6,7,16,14,18,550
45.06720,-0.08085,-0.00648,0.00000,0.03013,0.97734,-0.18617,0.0,2023,6,7,16,14,18,569
45.06730,0.04165,-0.00648,0.00000,0.02977,0.97612,-0.18825,0.0,2023,6,7,16,14,18,588
45.06740,-0.08085,-0.09398,0.00000,0.03062,0.97161,-0.18739,0.0,2023,6,7,16,14,18,607
45.06750,0.12915,-0.07648,0.00000,0.03148,0.97698,-0.18849,0.0,2023,6,7,16,14,18,626
45.06760,-0.11585,-0.12898,0.00000,0.02916,0.97795,-0.18727,0.0,2023,6,7,16,14,18,644
45.06770,0.11165,-0.09398,0.00000,0.03270,0.97795,-0.18947,0.0,2023,6,7,16,14,18,663
45.06780,0.02415,-0.07648,0.00000,0.03318,0.97368,-0.18837,0.0,2023,6,7,16,14,18,682
45.06790,-0.04585,-0.25148,0.00000,0.02928,0.97685,-0.18727,0.0,2023,6,7,16,14,18,701
45.06800,0.07665,-0.00648,0.00000,0.03013,0.97624,-0.18910,0.0,2023,6,7,16,14,18,720
45.06810,-0.04585,0.13352,0.00000,0.03257,0.97722,-0.18886,0.0,2023,6,7,16,14,18,739
45.06820,0.07665,0.09852,0.00000,0.03111,0.97722,-0.18849,0.0,2023,6,7,16,14,18,758
45.06830,0.19915,0.06352,0.00000,0.03233,0.97466,-0.18800,0.0,2023,6,7,16,14,18,777
45.06840,0.07665,0.13352,0.00000,0.03221,0.97771,-0.18581,0.0,2023,6,7,16,14,18,796
45.06850,0.09415,0.13352,0.00000,0.03160,0.97807,-0.18886,0.0,2023,6,7,16,14,18,815
45.06860,0.16415,-0.28648,0.00000,0.03099,0.97685,-0.18971,0.0,2023,6,7,16,14,18,833
45.06870,-0.13335,0.23852,0.00000,0.03062,0.97405,-0.18873,0.0,2023,6,7,16,14,18,852
45.06880,0.11165,-0.04148,0.00000,0.03282,0.97820,-0.18898,0.0,2023,6,7,16,14,18,871
45.06890,0.00665,0.16852,0.00000,0.03001,0.97771,-0.18995,0.0,2023,6,7,16,14,18,890
45.06900,0.12915,0.01102,0.00000,0.03026,0.97429,-0.18873,0.0,2023,6,7,16,14,18,909
45.06910,0.23415,-0.21648,0.00000,0.03209,0.97515,-0.18739,0.0,2023,6,7,16,14,18,928
45.06920,0.09415,0.08102,0.00000,0.03111,0.97746,-0.18861,0.0,2023,6,7,16,14,18,947
45.06930,0.11165,-0.07648,0.00000,0.03148,0.97441,-0.18873,0.0,2023,6,7,16,14,18,966
45.06940,-0.02835,-0.00648,0.00000,0.03172,0.97576,-0.18764,0.0,2023,6,7,16,14,18,985
45.06950,-0.22085,0.15102,0.00000,0.03050,0.97429,-0.18654,0.0,2023,6,7,16,14,18,4
45.06960,-0.04585,0.23852,0.00000,0.03257,0.97771,-0.18703,0.0,2023,6,7,16,14,18,22
45.06970,-0.11585,-0.04148,0.00000,0.03209,0.97649,-0.19008,0.0,2023,6,7,16,14,18,41
45.06980,-0.02835,0.04602,0.00000,0.03026,0.97417,-0.18727,0.0,2023,6,7,16,14,18,60
45.06990,-0.20335,-0.00648,0.00000,0.03270,0.97710,-0.18910,0.0,2023,6,7,16,14,18,79
45.07000,-0.02835,0.16852,0.00000,0.03001,0.97759,-0.19117,0.0,2023,6,7,16,14,18,98
45.07010,0.00665,-0.04148,0.00000,0.03282,0.97612,-0.18605,0.0,2023,6,7,16,14,18,117
45.07020,-0.01085,-0.11148,0.00000,0.03331,0.97795,-0.18837,0.0,2023,6,7,16,14,18,136
45.07030,0.07665,0.02852,0.00000,0.02940,0.97820,-0.18922,0.0,2023,6,7,16,14,18,155
45.07040,-0.01085,0.08102,0.00000,0.02806,0.97539,-0.18654,0.0,2023,6,7,16,14,18,174
45.07050,-0.13335,0.18602,0.00000,0.03257,0.97563,-0.18642,0.0,2023,6,7,16,14,18,193
45.07060,0.00665,-0.11148,0.00000,0.03123,0.97759,-0.18764,0.0,2023,6,7,16,14,18,211
45.07070,-0.01085,-0.09398,0.00000,0.03172,0.97710,-0.18861,0.0,2023,6,7,16,14,18,230
45.07080,0.00665,-0.04148,0.00000,0.03050,0.97759,-0.18739,0.0,2023,6,7,16,14,18,249
45.07090,0.09415,0.08102,0.00000,0.03245,0.97795,-0.18922,0.0,2023,6,7,16,14,18,268
45.07100,-0.22085,0.08102,0.00000,0.03148,0.97734,-0.18764,0.0,2023,6,7,16,14,18,287
45.07110,0.02415,-0.05898,0.00000,0.03123,0.97661,-0.18751,0.0,2023,6,7,16,14,18,306
45.07120,0.05915,-0.37398,0.00000,0.03160,0.97685,-0.18654,0.0,2023,6,7,16,14,18,325
45.07130,-0.23835,0.09852,0.00000,0.03001,0.97710,-0.19032,0.0,2023,6,7,16,14,18,344
45.07140,-0.13335,-0.04148,0.00000,0.03026,0.97478,-0.18849,0.0,2023,6,7,16,14,18,363
45.07150,0.02415,-0.00648,0.00000,0.03282,0.97673,-0.18837,0.0,2023,6,7,16,14,18,382
45.07160,-0.13335,0.06352,0.00000,0.03184,0.97698,-0.18849,0.0,2023,6,7,16,14,18,400
45.07170,-0.09835,0.01102,0.00000,0.03135,0.97759,-0.18873,0.0,2023,6,7,16,14,18,419
45.07180,-0.09835,-0.05898,0.00000,0.02794,0.97771,-0.18520,0.0,2023,6,7,16,14,18,438
45.07190,-0.30835,0.02852,0.00000,0.03270,0.97649,-0.18959,0.0,2023,6,7,16,14,18,457
45.07200,0.11165,0.09852,0.00000,0.03111,0.97661,-0.18690,0.0,2023,6,7,16,14,18,476
45.07210,-0.18585,0.04602,0.00000,0.03001,0.97637,-0.18764,0.0,2023,6,7,16,14,18,495
45.07220,0.05915,-0.05898,0.00000,0.02989,0.97722,-0.18629,0.0,2023,6,7,16,14,18,514
45.07230,-0.06335,0.13352,0.00000,0.03111,0.97844,-0.18776,0.0,2023,6,7,16,14,18,533
45.07240,0.04165,0.01102,0.00000,0.03331,0.97637,-0.18642,0.0,2023,6,7,16,14,18,552
45.07250,-0.08085,-0.11148,0.00000,0.03135,0.97820,-0.18751,0.0,2023,6,7,16,14,18,571
45.07260,-0.06335,0.36102,0.00000,0.03148,0.97722,-0.18739,0.0,2023,6,7,16,14,18,589
45.07270,-0.15085,-0.02398,0.00000,0.03270,0.97710,-0.19105,0.0,2023,6,7,16,14,18,608
45.07280,0.00665,-0.05898,0.00000,0.03196,0.97551,-0.18739,0.0,2023,6,7,16,14,18,627
45.07290,-0.11585,0.06352,0.00000,0.02977,0.97771,-0.18910,0.0,2023,6,7,16,14,18,646
45.07300,-0.06335,-0.00648,0.00000,0.03135,0.97795,-0.18690,0.0,2023,6,7,16,14,18,665
45.07310,-0.11585,-0.00648,0.00000,0.02757,0.97649,-0.18800,0.0,2023,6,7,16,14,18,684
45.07320,-0.11585,-0.09398,0.00000,0.03099,0.97624,-0.18678,0.0,2023,6,7,16,14,19,3
45.07330,0.07665,-0.02398,0.00000,0.03306,0.97478,-0.18666,0.0,2023,6,7,16,14,19,22
45.07340,0.00665,0.09852,0.00000,0.03306,0.97551,-0.18690,0.0,2023,6,7,16,14,19,41
45.07350,0.09415,-0.12898,0.00000,0.03294,0.97515,-0.18568,0.0,2023,6,7,16,14,19,60
45.07360,-0.09835,-0.02398,0.00000,0.03172,0.97698,-0.18642,0.0,2023,6,7,16,14,19,78
45.07370,-0.02835,0.01102,0.00000,0.03062,0.97624,-0.18776,0.0,2023,6,7,16,14,19,97
45.07380,-0.11585,0.13352,0.00000,0.03343,0.97563,-0.18593,0.0,2023,6,7,16,14,19,116
45.07390,0.07665,-0.05898,0.00000,0.03062,0.97856,-0.18666,0.0,2023,6,7,16,14,19,135
45.07400,0.05915,-0.02398,0.00000,0.03087,0.97685,-0.18910,0.0,2023,6,7,16,14,19,154
45.07410,-0.02835,-0.04148,0.00000,0.03135,0.97539,-0.18910,0.0,2023,6,7,16,14,19,173
45.07420,-0.02835,0.04602,0.00000,0.03221,0.97576,-0.18703,0.0,2023,6,7,16,14,19,192
45.07430,0.02415,-0.16398,0.00000,0.03196,0.97661,-0.18910,0.0,2023,6,7,16,14,19,211
45.07440,-0.08085,0.08102,0.00000,0.03050,0.97685,-0.18886,0.0,2023,6,7,16,14,19,230
45.07450,-0.02835,0.08102,0.00000,0.03233,0.97624,-0.18739,0.0,2023,6,7,16,14,19,249
45.07460,-0.02835,-0.04148,0.00000,0.03209,0.97502,-0.18605,0.0,2023,6,7,16,14,19,267
45.07470,-0.15085,0.15102,0.00000,0.03160,0.97710,-0.18751,0.0,2023,6,7,16,14,19,286
45.07480,0.04165,0.11602,0.00000,0.03270,0.97600,-0.18507,0.0,2023,6,7,16,14,19,305
45.07490,0.09415,-0.07648,0.00000,0.02989,0.97612,-0.18532,0.0,2023,6,7,16,14,19,324
45.07500,0.32165,-0.14648,0.00000,0.03196,0.97868,-0.18825,0.0,2023,6,7,16,14,19,343
45.07510,-0.16835,0.13352,0.00000,0.03184,0.97515,-0.18642,0.0,2023,6,7,16,14,19,362
45.07520,-0.09835,-0.07648,0.00000,0.02965,0.97624,-0.18959,0.0,2023,6,7,16,14,19,381
45.07530,-0.01085,-0.26898,0.00000,0.03148,0.97868,-0.18825,0.0,2023,6,7,16,14,19,400
45.07540,0.11165,-0.11148,0.00000,0.03062,0.97551,-0.18764,0.0,2023,6,7,16,14,19,419
45.07550,-0.01085,0.04602,0.00000,0.03013,0.97429,-0.18800,0.0,2023,6,7,16,14,19,438
45.07560,0.16415,0.01102,0.00000,0.03428,0.97759,-0.19081,0.0,2023,6,7,16,14,19,456
45.07570,0.00665,-0.09398,0.00000,0.03026,0.97612,-0.18568,0.0,2023,6,7,16,14,19,475
45.07580,-0.06335,0.02852,0.00000,0.03099,0.97929,-0.18666,0.0,2023,6,7,16,14,19,494
45.07590,0.11165,-0.19898,0.00000,0.02965,0.97649,-0.18849,0.0,2023,6,7,16,14,19,513
45.07600,0.02415,-0.19898,0.00000,0.03099,0.97417,-0.18703,0.0,2023,6,7,16,14,19,532
45.07610,-0.08085,-0.19898,0.00000,0.03270,0.97759,-0.18825,0.0,2023,6,7,16,14,19,551
45.07620,0.09415,-0.04148,0.00000,0.03050,0.97551,-0.18825,0.0,2023,6,7,16,14,19,570
45.07630,0.25165,-0.07648,0.00000,0.03111,0.97600,-0.18959,0.0,2023,6,7,16,14,19,589
45.07640,0.02415,-0.07648,0.00000,0.03172,0.97624,-0.18507,0.0,2023,6,7,16,14,19,608
45.07650,-0.02835,0.01102,0.00000,0.03001,0.97734,-0.18727,0.0,2023,6,7,16,14,19,627
45.07660,0.07665,0.02852,0.00000,0.03099,0.97588,-0.18861,0.0,2023,6,7,16,14,19,645
45.07670,0.14665,-0.11148,0.00000,0.03245,0.97722,-0.18507,0.0,2023,6,7,16,14,19,664
45.07680,-0.18585,0.09852,0.00000,0.03209,0.97441,-0.18764,0.0,2023,6,7,16,14,19,683
45.07690,-0.06335,0.04602,0.00000,0.03245,0.97576,-0.18886,0.0,2023,6,7,16,14,19,702
45.07700,-0.11585,-0.09398,0.00000,0.02977,0.97771,-0.18861,0.0,2023,6,7,16,14,19,721
45.07710,-0.27335,-0.11148,0.00000,0.03221,0.97429,-0.18507,0.0,2023,6,7,16,14,19,740
45.07720,-0.01085,-0.05898,0.00000,0.03038,0.97637,-0.18715,0.0,2023,6,7,16,14,19,759
45.07730,0.11165,0.11602,0.00000,0.03001,0.97637,-0.18617,0.0,2023,6,7,16,14,19,778
45.07740,-0.08085,-0.23398,0.00000,0.03074,0.97637,-0.18312,0.0,2023,6,7,16,14,19,797
45.07750,-0.02835,0.04602,0.00000,0.03050,0.97722,-0.18678,0.0,2023,6,7,16,14,19,816
45.07760,0.05915,-0.26898,0.00000,0.03172,0.97637,-0.18898,0.0,2023,6,7,16,14,19,834
45.07770,0.05915,0.11602,0.00000,0.03306,0.97600,-0.18666,0.0,2023,6,7,16,14,19,853
45.07780,-0.09835,0.04602,0.00000,0.03282,0.97624,-0.18666,0.0,2023,6,7,16,14,19,872
45.07790,0.09415,0.04602,0.00000,0.03062,0.97490,-0.18959,0.0,2023,6,7,16,14,19,891
45.07800,0.07665,-0.23398,0.00000,0.03026,0.97441,-0.18764,0.0,2023,6,7,16,14,19,910
45.07810,-0.01085,-0.21648,0.00000,0.03148,0.97661,-0.18776,0.0,2023,6,7,16,14,19,929
45.07820,0.02415,0.09852,0.00000,0.03026,0.97832,-0.18922,0.0,2023,6,7,16,14,19,948
45.07830,-0.08085,-0.07648,0.00000,0.03013,0.97563,-0.18727,0.0,2023,6,7,16,14,19,967
45.07840,-0.13335,0.04602,0.00000,0.03331,0.97734,-0.18581,0.0,2023,6,7,16,14,19,986
45.07850,-0.04585,-0.00648,0.00000,0.03160,0.97527,-0.18886,0.0,2023,6,7,16,14,19,5
45.07860,0.09415,0.18602,0.00000,0.03050,0.97612,-0.18800,0.0,2023,6,7,16,14,19,23
45.07870,-0.08085,0.01102,0.00000,0.03160,0.97612,-0.18617,0.0,2023,6,7,16,14,19,42
45.07880,0.07665,-0.09398,0.00000,0.03013,0.97612,-0.18605,0.0,2023,6,7,16,14,19,61
45.07890,0.04165,0.09852,0.00000,0.03355,0.97942,-0.18800,0.0,2023,6,7,16,14,19,80
45.07900,0.00665,-0.09398,0.00000,0.02965,0.97673,-0.18703,0.0,2023,6,7,16,14,19,99
45.07910,-0.18585,-0.04148,0.00000,0.03148,0.97661,-0.18568,0.0,2023,6,7,16,14,19,118
45.07920,0.19915,-0.02398,0.00000,0.03270,0.97624,-0.18690,0.0,2023,6,7,16,14,19,137
45.07930,-0.02835,0.01102,0.00000,0.03038,0.97429,-0.18739,0.0,2023,6,7,16,14,19,156
45.07940,0.04165,-0.14648,0.00000,0.03184,0.97527,-0.18642,0.0,2023,6,7,16,14,19,175
45.07950,0.14665,-0.04148,0.00000,0.03257,0.97673,-0.18495,0.0,2023,6,7,16,14,19,194
45.07960,0.11165,-0.00648,0.00000,0.03245,0.97649,-0.18593,0.0,2023,6,7,16,14,19,212
45.07970,0.02415,0.06352,0.00000,0.03257,0.97637,-0.18629,0.0,2023,6,7,16,14,19,231
45.07980,-0.09835,-0.02398,0.00000,0.03245,0.97478,-0.18629,0.0,2023,6,7,16,14,19,250
45.07990,-0.02835,-0.00648,0.00000,0.03209,0.97759,-0.18385,0.0,2023,6,7,16,14,19,269
45.08000,0.02415,0.04602,0.00000,0.03160,0.97478,-0.18581,0.0,2023,6,7,16,14,19,288
45.08010,-0.08085,-0.09398,0.00000,0.02989,0.97441,-0.18629,0.0,2023,6,7,16,14,19,307
45.08020,0.00665,-0.04148,0.00000,0.03038,0.97698,-0.18886,0.0,2023,6,7,16,14,19,326
45.08030,0.02415,-0.09398,0.00000,0.03099,0.97771,-0.18593,0.0,2023,6,7,16,14,19,345
45.08040,0.09415,-0.21648,0.00000,0.03379,0.97637,-0.18544,0.0,2023,6,7,16,14,19,364
45.08050,0.19915,0.06352,0.00000,0.03050,0.97844,-0.18666,0.0,2023,6,7,16,14,19,383
45.08060,-0.04585,0.01102,0.00000,0.03245,0.97771,-0.18666,0.0,2023,6,7,16,14,19,401
45.08070,0.00665,0.01102,0.00000,0.03257,0.97710,-0.18715,0.0,2023,6,7,16,14,19,420
45.08080,0.05915,-0.05898,0.00000,0.03087,0.97771,-0.18788,0.0,2023,6,7,16,14,19,439
45.08090,-0.04585,-0.05898,0.00000,0.03257,0.97673,-0.18849,0.0,2023,6,7,16,14,19,458
45.08100,0.09415,-0.09398,0.00000,0.03123,0.97759,-0.18617,0.0,2023,6,7,16,14,19,477
45.08110,0.18165,-0.11148,0.00000,0.02940,0.97832,-0.18727,0.0,2023,6,7,16,14,19,496
45.08120,0.23415,-0.21648,0.00000,0.03074,0.97722,-0.18788,0.0,2023,6,7,16,14,19,515
45.08130,0.07665,0.08102,0.00000,0.03270,0.97588,-0.18678,0.0,2023,6,7,16,14,19,534
45.08140,0.02415,0.04602,0.00000,0.03148,0.97746,-0.18825,0.0,2023,6,7,16,14,19,553
45.08150,0.14665,0.06352,0.00000,0.03062,0.97698,-0.18703,0.0,2023,6,7,16,14,19,572
45.08160,0.12915,-0.12898,0.00000,0.03172,0.97746,-0.18812,0.0,2023,6,7,16,14,19,590
45.08170,0.18165,-0.16398,0.00000,0.03306,0.97990,-0.19032,0.0,2023,6,7,16,14,19,609
45.08180,0.00665,-0.18148,0.00000,0.03026,0.97844,-0.18690,0.0,2023,6,7,16,14,19,628
45.08190,-0.06335,-0.05898,0.00000,0.03209,0.97490,-0.18800,0.0,2023,6,7,16,14,19,647
45.08200,0.00665,-0.21648,0.00000,0.03233,0.97844,-0.18703,0.0,2023,6,7,16,14,19,666
45.08210,0.04165,-0.00648,0.00000,0.03038,0.97502,-0.18666,0.0,2023,6,7,16,14,20,5
45.08220,-0.08085,0.01102,0.00000,0.03123,0.97539,-0.18666,0.0,2023,6,7,16,14,20,24
45.08230,0.00665,-0.02398,0.00000,0.03148,0.97795,-0.18703,0.0,2023,6,7,16,14,20,43
45.08240,0.16415,-0.07648,0.00000,0.03111,0.97368,-0.18715,0.0,2023,6,7,16,14,20,62
45.08250,-0.06335,0.02852,0.00000,0.03135,0.97441,-0.18861,0.0,2023,6,7,16,14,20,81
45.08260,0.04165,-0.04148,0.00000,0.03318,0.97710,-0.18666,0.0,2023,6,7,16,14,20,99
45.08270,-0.08085,-0.25148,0.00000,0.03160,0.97649,-0.18459,0.0,2023,6,7,16,14,20,118
45.08280,0.07665,0.11602,0.00000,0.03013,0.97612,-0.18629,0.0,2023,6,7,16,14,20,137
45.08290,-0.04585,0.18602,0.00000,0.03148,0.97612,-0.18959,0.0,2023,6,7,16,14,20,156
45.08300,0.11165,0.11602,0.00000,0.03050,0.97637,-0.18861,0.0,2023,6,7,16,14,20,175
45.08310,0.11165,-0.12898,0.00000,0.03087,0.97734,-0.18690,0.0,2023,6,7,16,14,20,194
45.08320,0.02415,-0.02398,0.00000,0.03172,0.97612,-0.18861,0.0,2023,6,7,16,14,20,213
45.08330,-0.08085,-0.00648,0.00000,0.02965,0.97637,-0.18934,0.0,2023,6,7,16,14,20,232
45.08340,-0.08085,-0.12898,0.00000,0.03038,0.97734,-0.18898,0.0,2023,6,7,16,14,20,251
45.08350,-0.25585,0.01102,0.00000,0.03123,0.97490,-0.18690,0.0,2023,6,7,16,14,20,270
45.08360,0.14665,0.09852,0.00000,0.03270,0.97539,-0.19008,0.0,2023,6,7,16,14,20,288
45.08370,0.11165,0.23852,0.00000,0.03404,0.97673,-0.18861,0.0,2023,6,7,16,14,20,307
45.08380,0.12915,-0.14648,0.00000,0.03062,0.97832,-0.18849,0.0,2023,6,7,16,14,20,326
45.08390,0.04165,0.04602,0.00000,0.02952,0.97490,-0.19093,0.0,2023,6,7,16,14,20,345
45.08400,-0.01085,-0.09398,0.00000,0.03270,0.97588,-0.18983,0.0,2023,6,7,16,14,20,364
45.08410,-0.06335,0.06352,0.00000,0.03026,0.97624,-0.18861,0.0,2023,6,7,16,14,20,383
45.08420,-0.04585,0.02852,0.00000,0.03184,0.97685,-0.19093,0.0,2023,6,7,16,14,20,402
45.08430,-0.02835,0.18602,0.00000,0.03367,0.97515,-0.18922,0.0,2023,6,7,16,14,20,421
45.08440,0.00665,-0.04148,0.00000,0.03038,0.97685,-0.19056,0.0,2023,6,7,16,14,20,440
45.08450,0.21665,-0.07648,0.00000,0.02916,0.97637,-0.19008,0.0,2023,6,7,16,14,20,459
45.08460,-0.02835,-0.04148,0.00000,0.03245,0.97856,-0.18886,0.0,2023,6,7,16,14,20,477
45.08470,-0.01085,-0.23398,0.00000,0.03245,0.97563,-0.18703,0.0,2023,6,7,16,14,20,496
45.08480,-0.09835,0.22102,0.00000,0.02928,0.97856,-0.18947,0.0,2023,6,7,16,14,20,515
45.08490,0.12915,0.18602,0.00000,0.03221,0.97624,-0.18812,0.0,2023,6,7,16,14,20,534
45.08500,-0.06335,-0.04148,0.00000,0.03123,0.97539,-0.18690,0.0,2023,6,7,16,14,20,553
45.08510,0.00665,-0.19898,0.00000,0.03282,0.97795,-0.18995,0.0,2023,6,7,16,14,20,572
45.08520,-0.02835,-0.09398,0.00000,0.03099,0.97734,-0.19130,0.0,2023,6,7,16,14,20,591
45.08530,-0.11585,0.08102,0.00000,0.03245,0.97722,-0.18593,0.0,2023,6,7,16,14,20,610
45.08540,0.09415,-0.05898,0.00000,0.02891,0.97502,-0.18776,0.0,2023,6,7,16,14,20,629
45.08550,0.04165,0.06352,0.00000,0.03087,0.97698,-0.18910,0.0,2023,6,7,16,14,20,648
45.08560,0.02415,-0.09398,0.00000,0.03233,0.97295,-0.18581,0.0,2023,6,7,16,14,20,666
45.08570,0.12915,-0.02398,0.00000,0.03184,0.97698,-0.18995,0.0,2023,6,7,16,14,20,685
45.08580,-0.09835,0.15102,0.00000,0.03148,0.97527,-0.18654,0.0,2023,6,7,16,14,20,704
45.08590,-0.09835,-0.00648,0.00000,0.03270,0.97698,-0.18703,0.0,2023,6,7,16,14,20,723
45.08600,0.14665,0.18602,0.00000,0.03306,0.97783,-0.19081,0.0,2023,6,7,16,14,20,742
45.08610,0.05915,-0.00648,0.00000,0.03209,0.97563,-0.18898,0.0,2023,6,7,16,14,20,761
45.08620,0.04165,0.04602,0.00000,0.03257,0.97576,-0.18983,0.0,2023,6,7,16,14,20,780
45.08630,0.09415,0.15102,0.00000,0.03184,0.97563,-0.18837,0.0,2023,6,7,16,14,20,799
45.08640,-0.09835,-0.05898,0.00000,0.03001,0.97746,-0.18886,0.0,2023,6,7,16,14,20,818
45.08650,-0.02835,-0.16398,0.00000,0.03257,0.97466,-0.18751,0.0,2023,6,7,16,14,20,837
45.08660,0.09415,-0.07648,0.00000,0.03135,0.97649,-0.18739,0.0,2023,6,7,16,14,20,855
45.08670,0.07665,-0.09398,0.00000,0.03148,0.97527,-0.18934,0.0,2023,6,7,16,14,20,874
45.08680,-0.06335,0.09852,0.00000,0.03318,0.97637,-0.18849,0.0,2023,6,7,16,14,20,893
45.08690,-0.02835,0.13352,0.00000,0.03099,0.97649,-0.18861,0.0,2023,6,7,16,14,20,912
45.08700,0.07665,-0.11148,0.00000,0.03233,0.97698,-0.18995,0.0,2023,6,7,16,14,20,931
45.08710,0.18165,0.02852,0.00000,0.02989,0.97893,-0.18886,0.0,2023,6,7,16,14,20,950
45.08720,0.00665,-0.07648,0.00000,0.03026,0.98064,-0.18910,0.0,2023,6,7,16,14,20,969
45.08730,-0.11585,0.15102,0.00000,0.03172,0.97576,-0.18959,0.0,2023,6,7,16,14,20,988
45.08740,0.07665,-0.02398,0.00000,0.03026,0.97929,-0.18910,0.0,2023,6,7,16,14,20,7
45.08750,-0.13335,0.09852,0.00000,0.03111,0.97746,-0.18690,0.0,2023,6,7,16,14,20,26
45.08760,-0.02835,-0.07648,0.00000,0.03038,0.97612,-0.18837,0.0,2023,6,7,16,14,20,44
45.08770,0.00665,0.08102,0.00000,0.03148,0.97649,-0.18910,0.0,2023,6,7,16,14,20,63
45.08780,-0.01085,0.08102,0.00000,0.03221,0.97637,-0.18788,0.0,2023,6,7,16,14,20,82
45.08790,0.11165,-0.02398,0.00000,0.03013,0.97649,-0.18849,0.0,2023,6,7,16,14,20,101
45.08800,0.18165,0.01102,0.00000,0.03099,0.97807,-0.18812,0.0,2023,6,7,16,14,20,120
45.08810,-0.04585,-0.05898,0.00000,0.03135,0.97429,-0.18800,0.0,2023,6,7,16,14,20,139
45.08820,-0.02835,-0.09398,0.00000,0.03111,0.97673,-0.18849,0.0,2023,6,7,16,14,20,158
45.08830,0.02415,0.04602,0.00000,0.03099,0.97710,-0.18666,0.0,2023,6,7,16,14,20,177
45.08840,-0.29085,0.34352,0.00000,0.03343,0.97515,-0.18642,0.0,2023,6,7,16,14,20,196
45.08850,0.05915,-0.02398,0.00000,0.03099,0.97942,-0.18678,0.0,2023,6,7,16,14,20,215
45.08860,-0.04585,0.01102,0.00000,0.03001,0.97832,-0.19032,0.0,2023,6,7,16,14,20,233
45.08870,0.04165,-0.05898,0.00000,0.03111,0.97502,-0.18568,0.0,2023,6,7,16,14,20,252
45.08880,-0.09835,-0.00648,0.00000,0.03270,0.97759,-0.18788,0.0,2023,6,7,16,14,20,271
45.08890,0.11165,0.06352,0.00000,0.03111,0.97820,-0.18617,0.0,2023,6,7,16,14,20,290
45.08900,0.02415,-0.12898,0.00000,0.03257,0.97637,-0.18532,0.0,2023,6,7,16,14,20,309
45.08910,-0.01085,0.13352,0.00000,0.03196,0.97624,-0.18751,0.0,2023,6,7,16,14,20,328
45.08920,0.04165,-0.09398,0.00000,0.03099,0.97490,-0.18898,0.0,2023,6,7,16,14,20,347
45.08930,-0.06335,-0.18148,0.00000,0.03099,0.97734,-0.18764,0.0,2023,6,7,16,14,20,366
45.08940,0.02415,0.02852,0.00000,0.03318,0.97478,-0.18666,0.0,2023,6,7,16,14,20,385
45.08950,0.11165,0.02852,0.00000,0.02952,0.97673,-0.18825,0.0,2023,6,7,16,14,20,404
45.08960,-0.06335,-0.02398,0.00000,0.03099,0.97673,-0.18959,0.0,2023,6,7,16,14,20,422
45.08970,-0.01085,-0.12898,0.00000,0.03233,0.97576,-0.18947,0.0,2023,6,7,16,14,20,441
45.08980,0.16415,-0.09398,0.00000,0.03282,0.97698,-0.18947,0.0,2023,6,7,16,14,20,460
45.08990,-0.01085,0.13352,0.00000,0.03172,0.97539,-0.18983,0.0,2023,6,7,16,14,20,479
45.09000,-0.22085,0.08102,0.00000,0.03416,0.97746,-0.18995,0.0,2023,6,7,16,14,20,498
45.09010,0.11165,-0.18148,0.00000,0.02928,0.97637,-0.18934,0.0,2023,6,7,16,14,20,517
45.09020,-0.02835,0.09852,0.00000,0.03074,0.97612,-0.18959,0.0,2023,6,7,16,14,20,536
45.09030,-0.09835,-0.02398,0.00000,0.03135,0.97722,-0.18788,0.0,2023,6,7,16,14,20,555
45.09040,0.00665,0.01102,0.00000,0.03233,0.97759,-0.18934,0.0,2023,6,7,16,14,20,574
45.09050,0.02415,-0.00648,0.00000,0.03172,0.97637,-0.18751,0.0,2023,6,7,16,14,20,593
45.09060,0.19915,0.13352,0.00000,0.03148,0.97600,-0.18825,0.0,2023,6,7,16,14,20,611
45.09070,0.12915,-0.14648,0.00000,0.03099,0.97478,-0.18800,0.0,2023,6,7,16,14,20,630
45.09080,0.11165,0.04602,0.00000,0.03148,0.97868,-0.18520,0.0,2023,6,7,16,14,20,649
45.09090,-0.23835,0.02852,0.00000,0.03111,0.97612,-0.18849,0.0,2023,6,7,16,14,20,668
45.09100,-0.11585,0.04602,0.00000,0.03245,0.97600,-0.18861,0.0,2023,6,7,16,14,20,687
45.09110,-0.01085,0.08102,0.00000,0.03233,0.97527,-0.18800,0.0,2023,6,7,16,14,20,706
45.09120,0.00665,-0.09398,0.00000,0.03099,0.97637,-0.18971,0.0,2023,6,7,16,14,20,725
45.09130,0.11165,-0.21648,0.00000,0.03209,0.97624,-0.18873,0.0,2023,6,7,16,14,21,4
45.09140,0.19915,-0.11148,0.00000,0.03196,0.97759,-0.19020,0.0,2023,6,7,16,14,21,23
45.09150,-0.02835,-0.00648,0.00000,0.03038,0.97746,-0.18629,0.0,2023,6,7,16,14,21,42
45.09160,0.07665,0.15102,0.00000,0.02989,0.97344,-0.18751,0.0,2023,6,7,16,14,21,60
45.09170,-0.02835,0.08102,0.00000,0.03148,0.97551,-0.18788,0.0,2023,6,7,16,14,21,79
45.09180,-0.01085,-0.30398,0.00000,0.02965,0.97637,-0.18861,0.0,2023,6,7,16,14,21,98
45.09190,-0.04585,0.22102,0.00000,0.03148,0.97942,-0.18654,0.0,2023,6,7,16,14,21,117
45.09200,0.02415,-0.12898,0.00000,0.03062,0.97759,-0.18581,0.0,2023,6,7,16,14,21,136
45.09210,0.14665,0.01102,0.00000,0.03050,0.97539,-0.18739,0.0,2023,6,7,16,14,21,155
45.09220,-0.09835,-0.12898,0.00000,0.03050,0.97759,-0.18690,0.0,2023,6,7,16,14,21,174
45.09230,-0.06335,0.02852,0.00000,0.03233,0.97759,-0.18739,0.0,2023,6,7,16,14,21,193
45.09240,0.12915,-0.05898,0.00000,0.02928,0.97576,-0.18715,0.0,2023,6,7,16,14,21,212
45.09250,-0.15085,-0.21648,0.00000,0.03074,0.97637,-0.18666,0.0,2023,6,7,16,14,21,231
45.09260,-0.15085,0.04602,0.00000,0.03111,0.97490,-0.18715,0.0,2023,6,7,16,14,21,249
45.09270,-0.04585,0.04602,0.00000,0.02855,0.97710,-0.18995,0.0,2023,6,7,16,14,21,268
45.09280,-0.06335,0.20352,0.00000,0.03282,0.97649,-0.18837,0.0,2023,6,7,16,14,21,287
45.09290,0.00665,-0.04148,0.00000,0.03074,0.97563,-0.18605,0.0,2023,6,7,16,14,21,306
45.09300,0.00665,-0.23398,0.00000,0.03196,0.97978,-0.18788,0.0,2023,6,7,16,14,21,325
45.09310,0.02415,0.02852,0.00000,0.03257,0.97783,-0.18898,0.0,2023,6,7,16,14,21,344
45.09320,-0.11585,0.18602,0.00000,0.02977,0.97661,-0.18593,0.0,2023,6,7,16,14,21,363
45.09330,0.02415,-0.11148,0.00000,0.02989,0.97637,-0.18764,0.0,2023,6,7,16,14,21,382
45.09340,0.07665,0.02852,0.00000,0.03343,0.97600,-0.18898,0.0,2023,6,7,16,14,21,401
45.09350,-0.02835,-0.12898,0.00000,0.03270,0.97612,-0.18520,0.0,2023,6,7,16,14,21,420
45.09360,-0.15085,-0.09398,0.00000,0.03233,0.97417,-0.18983,0.0,2023,6,7,16,14,21,438
45.09370,-0.01085,-0.00648,0.00000,0.03221,0.97905,-0.19008,0.0,2023,6,7,16,14,21,457
45.09380,-0.18585,0.08102,0.00000,0.02977,0.97637,-0.18727,0.0,2023,6,7,16,14,21,476
45.09390,0.07665,-0.14648,0.00000,0.02989,0.97502,-0.18605,0.0,2023,6,7,16,14,21,495
45.09400,0.00665,-0.02398,0.00000,0.03257,0.97637,-0.18812,0.0,2023,6,7,16,14,21,514
45.09410,0.02415,-0.05898,0.00000,0.02867,0.97454,-0.18666,0.0,2023,6,7,16,14,21,533
45.09420,-0.13335,0.20352,0.00000,0.03196,0.97588,-0.18812,0.0,2023,6,7,16,14,21,552
45.09430,-0.25585,-0.14648,0.00000,0.03160,0.97551,-0.18751,0.0,2023,6,7,16,14,21,571
45.09440,0.04165,0.01102,0.00000,0.02904,0.97600,-0.18764,0.0,2023,6,7,16,14,21,590
45.09450,0.04165,0.04602,0.00000,0.03135,0.97612,-0.18617,0.0,2023,6,7,16,14,21,609
45.09460,-0.13335,0.08102,0.00000,0.03038,0.97673,-0.18849,0.0,2023,6,7,16,14,21,627
45.09470,0.05915,0.04602,0.00000,0.03160,0.97637,-0.18764,0.0,2023,6,7,16,14,21,646
45.09480,0.30415,-0.07648,0.00000,0.03209,0.97649,-0.18678,0.0,2023,6,7,16,14,21,665
45.09490,-0.01085,-0.02398,0.00000,0.03111,0.97710,-0.18617,0.0,2023,6,7,16,14,21,684
45.09500,0.04165,-0.04148,0.00000,0.03148,0.97661,-0.18800,0.0,2023,6,7,16,14,21,703
45.09510,0.05915,0.08102,0.00000,0.03099,0.97624,-0.18788,0.0,2023,6,7,16,14,21,722
45.09520,0.09415,-0.21648,0.00000,0.03160,0.97698,-0.18788,0.0,2023,6,7,16,14,21,741
45.09530,0.02415,-0.00648,0.00000,0.03355,0.97539,-0.18629,0.0,2023,6,7,16,14,21,760
45.09540,-0.01085,0.25602,0.00000,0.03111,0.97539,-0.18617,0.0,2023,6,7,16,14,21,779
45.09550,-0.01085,0.25602,0.00000,0.03306,0.97710,-0.18654,0.0,2023,6,7,16,14,21,798
45.09560,-0.11585,0.04602,0.00000,0.03038,0.97710,-0.18520,0.0,2023,6,7,16,14,21,816
45.09570,0.12915,-0.23398,0.00000,0.03123,0.97624,-0.18678,0.0,2023,6,7,16,14,21,835
45.09580,-0.01085,-0.07648,0.00000,0.02989,0.97722,-0.18764,0.0,2023,6,7,16,14,21,854
45.09590,-0.11585,-0.05898,0.00000,0.03001,0.97649,-0.18337,0.0,2023,6,7,16,14,21,873
45.09600,0.16415,-0.02398,0.00000,0.03331,0.97600,-0.18959,0.0,2023,6,7,16,14,21,892
45.09610,-0.04585,0.13352,0.00000,0.03270,0.97380,-0.18629,0.0,2023,6,7,16,14,21,911
45.09620,-0.18585,0.02852,0.00000,0.03148,0.97319,-0.18568,0.0,2023,6,7,16,14,21,930
45.09630,0.04165,-0.09398,0.00000,0.02977,0.97515,-0.18764,0.0,2023,6,7,16,14,21,949
45.09640,0.02415,0.06352,0.00000,0.03038,0.97563,-0.18764,0.0,2023,6,7,16,14,21,968
45.09650,-0.08085,0.01102,0.00000,0.03148,0.97478,-0.18544,0.0,2023,6,7,16,14,21,987
45.09660,-0.02835,-0.05898,0.00000,0.03050,0.97673,-0.18886,0.0,2023,6,7,16,14,21,5
45.09670,0.00665,-0.07648,0.00000,0.03026,0.97429,-0.18861,0.0,2023,6,7,16,14,21,24
45.09680,-0.01085,-0.09398,0.00000,0.03209,0.97661,-0.18703,0.0,2023,6,7,16,14,21,43
45.09690,0.04165,0.01102,0.00000,0.03050,0.97929,-0.19105,0.0,2023,6,7,16,14,21,62
45.09700,0.18165,-0.09398,0.00000,0.03099,0.97502,-0.18959,0.0,2023,6,7,16,14,21,81
45.09710,-0.01085,0.06352,0.00000,0.03172,0.97771,-0.18666,0.0,2023,6,7,16,14,21,100
45.09720,0.04165,0.15102,0.00000,0.03123,0.97722,-0.19056,0.0,2023,6,7,16,14,21,119
45.09730,0.11165,0.01102,0.00000,0.03209,0.97405,-0.18947,0.0,2023,6,7,16,14,21,138
45.09740,-0.02835,0.13352,0.00000,0.03172,0.97759,-0.18617,0.0,2023,6,7,16,14,21,157
45.09750,-0.13335,0.02852,0.00000,0.03062,0.97515,-0.18739,0.0,2023,6,7,16,14,21,176
45.09760,0.18165,-0.23398,0.00000,0.03050,0.97637,-0.18776,0.0,2023,6,7,16,14,21,194
45.09770,-0.01085,-0.05898,0.00000,0.03099,0.97710,-0.18581,0.0,2023,6,7,16,14,21,213
45.09780,-0.08085,0.06352,0.00000,0.02965,0.97832,-0.18825,0.0,2023,6,7,16,14,21,232
45.09790,0.00665,0.04602,0.00000,0.02989,0.97588,-0.18837,0.0,2023,6,7,16,14,21,251
45.09800,-0.08085,-0.18148,0.00000,0.03245,0.97637,-0.18678,0.0,2023,6,7,16,14,21,270
45.09810,0.00665,0.02852,0.00000,0.03062,0.97490,-0.18690,0.0,2023,6,7,16,14,21,289
45.09820,0.14665,0.02852,0.00000,0.03184,0.97685,-0.18947,0.0,2023,6,7,16,14,21,308
45.09830,-0.08085,0.09852,0.00000,0.03148,0.97673,-0.18581,0.0,2023,6,7,16,14,21,327
45.09840,0.18165,-0.04148,0.00000,0.03209,0.97795,-0.18727,0.0,2023,6,7,16,14,21,346
45.09850,0.11165,-0.05898,0.00000,0.03160,0.97807,-0.19105,0.0,2023,6,7,16,14,21,365
45.09860,-0.01085,-0.30398,0.00000,0.02843,0.97624,-0.18617,0.0,2023,6,7,16,14,21,383
45.09870,-0.04585,0.04602,0.00000,0.03196,0.97624,-0.18751,0.0,2023,6,7,16,14,21,402
45.09880,-0.01085,0.06352,0.00000,0.03013,0.97502,-0.18873,0.0,2023,6,7,16,14,21,421
45.09890,0.00665,-0.07648,0.00000,0.03294,0.97539,-0.18776,0.0,2023,6,7,16,14,21,440
45.09900,-0.09835,-0.05898,0.00000,0.03087,0.97685,-0.18532,0.0,2023,6,7,16,14,21,459
45.09910,0.14665,-0.12898,0.00000,0.03221,0.97454,-0.18617,0.0,2023,6,7,16,14,21,478
45.09920,-0.06335,-0.14648,0.00000,0.03282,0.97478,-0.18617,0.0,2023,6,7,16,14,21,497
45.09930,-0.11585,-0.02398,0.00000,0.03209,0.97710,-0.18812,0.0,2023,6,7,16,14,21,516
45.09940,-0.11585,-0.11148,0.00000,0.02757,0.97478,-0.18837,0.0,2023,6,7,16,14,21,535
45.09950,-0.01085,-0.05898,0.00000,0.03013,0.97673,-0.18873,0.0,2023,6,7,16,14,21,554
45.09960,-0.01085,0.01102,0.00000,0.03221,0.97771,-0.18507,0.0,2023,6,7,16,14,21,572
45.09970,0.04165,-0.02398,0.00000,0.02977,0.97746,-0.18922,0.0,2023,6,7,16,14,21,591
45.09980,0.04165,0.02852,0.00000,0.03148,0.97783,-0.18910,0.0,2023,6,7,16,14,21,610
45.09990,-0.16835,-0.04148,0.00000,0.03172,0.97539,-0.18849,0.0,2023,6,7,16,14,21,629
45.10000,0.11165,-0.09398,0.00000,0.03172,0.97746,-0.19056,0.0,2023,6,7,16,14,21,648
45.10010,0.02415,-0.05898,0.00000,0.03074,0.97612,-0.19069,0.0,2023,6,7,16,14,21,667
45.10020,-0.08085,-0.04148,0.00000,0.03172,0.97905,-0.18995,0.0,2023,6,7,16,14,21,686
45.10030,0.12915,-0.11148,0.00000,0.03062,0.97820,-0.19117,0.0,2023,6,7,16,14,22,5
45.10040,0.07665,-0.09398,0.00000,0.03160,0.97746,-0.19130,0.0,2023,6,7,16,14,22,24
45.10050,0.28665,-0.16398,0.00000,0.03135,0.97380,-0.18959,0.0,2023,6,7,16,14,22,43
45.10060,-0.09835,0.22102,0.00000,0.03050,0.97795,-0.19081,0.0,2023,6,7,16,14,22,61
45.10070,0.02415,-0.00648,0.00000,0.03257,0.97795,-0.19069,0.0,2023,6,7,16,14,22,80
45.10080,-0.18585,0.04602,0.00000,0.03209,0.97588,-0.18971,0.0,2023,6,7,16,14,22,99
45.10090,0.07665,0.09852,0.00000,0.03172,0.97771,-0.19020,0.0,2023,6,7,16,14,22,118
45.10100,-0.01085,-0.02398,0.00000,0.03184,0.97624,-0.19032,0.0,2023,6,7,16,14,22,137
45.10110,0.07665,0.08102,0.00000,0.03013,0.97698,-0.18703,0.0,2023,6,7,16,14,22,156
45.10120,-0.09835,0.02852,0.00000,0.03111,0.97624,-0.18788,0.0,2023,6,7,16,14,22,175
45.10130,-0.02835,0.29102,0.00000,0.03062,0.97515,-0.19020,0.0,2023,6,7,16,14,22,194
45.10140,-0.04585,-0.02398,0.00000,0.03111,0.97637,-0.18776,0.0,2023,6,7,16,14,22,213
45.10150,-0.09835,0.20352,0.00000,0.03355,0.97576,-0.18825,0.0,2023,6,7,16,14,22,232
45.10160,0.09415,0.06352,0.00000,0.03123,0.97807,-0.18995,0.0,2023,6,7,16,14,22,250
45.10170,-0.22085,0.09852,0.00000,0.03233,0.97405,-0.18947,0.0,2023,6,7,16,14,22,269
45.10180,0.04165,-0.14648,0.00000,0.03074,0.97600,-0.19020,0.0,2023,6,7,16,14,22,288
45.10190,0.05915,-0.04148,0.00000,0.03184,0.97722,-0.18995,0.0,2023,6,7,16,14,22,307
45.10200,0.12915,-0.11148,0.00000,0.03123,0.97417,-0.18703,0.0,2023,6,7,16,14,22,326
45.10210,0.02415,-0.09398,0.00000,0.03111,0.97661,-0.18812,0.0,2023,6,7,16,14,22,345
45.10220,-0.16835,-0.26898,0.00000,0.03245,0.97807,-0.18873,0.0,2023,6,7,16,14,22,364
45.10230,0.04165,0.09852,0.00000,0.03087,0.97600,-0.18971,0.0,2023,6,7,16,14,22,383
45.10240,0.04165,-0.11148,0.00000,0.03123,0.97490,-0.18739,0.0,2023,6,7,16,14,22,402
45.10250,-0.01085,0.09852,0.00000,0.03257,0.97734,-0.18593,0.0,2023,6,7,16,14,22,421
45.10260,0.04165,0.27352,0.00000,0.03087,0.97490,-0.19008,0.0,2023,6,7,16,14,22,439
45.10270,-0.04585,0.09852,0.00000,0.03233,0.97661,-0.18788,0.0,2023,6,7,16,14,22,458
45.10280,-0.16835,-0.16398,0.00000,0.02867,0.97710,-0.18849,0.0,2023,6,7,16,14,22,477
45.10290,-0.04585,0.01102,0.00000,0.03172,0.97624,-0.18922,0.0,2023,6,7,16,14,22,496
45.10300,-0.11585,0.02852,0.00000,0.03184,0.97746,-0.18605,0.0,2023,6,7,16,14,22,515
45.10310,-0.09835,-0.00648,0.00000,0.03184,0.97722,-0.18642,0.0,2023,6,7,16,14,22,534
45.10320,0.19915,0.01102,0.00000,0.03087,0.97746,-0.18983,0.0,2023,6,7,16,14,22,553
45.10330,0.05915,-0.19898,0.00000,0.03160,0.97698,-0.18934,0.0,2023,6,7,16,14,22,572
45.10340,-0.18585,0.15102,0.00000,0.03001,0.97490,-0.18703,0.0,2023,6,7,16,14,22,591
45.10350,0.14665,0.15102,0.00000,0.03087,0.97807,-0.18861,0.0,2023,6,7,16,14,22,610
45.10360,-0.04585,0.06352,0.00000,0.03074,0.97881,-0.18825,0.0,2023,6,7,16,14,22,628
45.10370,-0.11585,0.09852,0.00000,0.03111,0.97502,-0.19093,0.0,2023,6,7,16,14,22,647
45.10380,0.00665,0.22102,0.00000,0.03099,0.97771,-0.18910,0.0,2023,6,7,16,14,22,666
45.10390,-0.01085,0.01102,0.00000,0.03026,0.97795,-0.18812,0.0,2023,6,7,16,14,22,685
45.10400,0.11165,0.06352,0.00000,0.03245,0.97698,-0.18727,0.0,2023,6,7,16,14,22,704
45.10410,0.00665,0.01102,0.00000,0.03257,0.97746,-0.18910,0.0,2023,6,7,16,14,22,723
45.10420,0.00665,0.13352,0.00000,0.03074,0.97600,-0.18934,0.0,2023,6,7,16,14,22,742
45.10430,0.14665,-0.09398,0.00000,0.02928,0.97649,-0.19008,0.0,2023,6,7,16,14,22,761
45.10440,-0.11585,-0.14648,0.00000,0.03135,0.97856,-0.18678,0.0,2023,6,7,16,14,22,780
45.10450,-0.02835,0.23852,0.00000,0.03184,0.97490,-0.18959,0.0,2023,6,7,16,14,22,799
45.10460,0.02415,-0.02398,0.00000,0.03062,0.97649,-0.19313,0.0,2023,6,7,16,14,22,817
45.10470,0.11165,-0.11148,0.00000,0.02977,0.97551,-0.18678,0.0,2023,6,7,16,14,22,836
45.10480,0.05915,-0.05898,0.00000,0.03233,0.97881,-0.18886,0.0,2023,6,7,16,14,22,855
45.10490,0.00665,-0.18148,0.00000,0.03038,0.97795,-0.18934,0.0,2023,6,7,16,14,22,874
45.10500,-0.04585,-0.12898,0.00000,0.03013,0.97563,-0.18642,0.0,2023,6,7,16,14,22,893
45.10510,0.02415,0.13352,0.00000,0.03331,0.97490,-0.18837,0.0,2023,6,7,16,14,22,912
45.10520,0.11165,-0.05898,0.00000,0.03160,0.97649,-0.18934,0.0,2023,6,7,16,14,22,931
45.10530,-0.25585,0.15102,0.00000,0.02952,0.97124,-0.18715,0.0,2023,6,7,16,14,22,950
45.10540,0.14665,-0.00648,0.00000,0.02879,0.97478,-0.18898,0.0,2023,6,7,16,14,22,969
45.10550,0.07665,-0.09398,0.00000,0.02989,0.97783,-0.18812,0.0,2023,6,7,16,14,22,988
45.10560,-0.16835,-0.02398,0.00000,0.03062,0.97673,-0.18617,0.0,2023,6,7,16,14,22,6
45.10570,0.28665,-0.18148,0.00000,0.03209,0.97942,-0.18800,0.0,2023,6,7,16,14,22,25
45.10580,0.02415,0.02852,0.00000,0.03257,0.97856,-0.18800,0.0,2023,6,7,16,14,22,44
45.10590,0.09415,-0.12898,0.00000,0.03172,0.97466,-0.18776,0.0,2023,6,7,16,14,22,63
45.10600,-0.18585,-0.05898,0.00000,0.02952,0.97795,-0.18727,0.0,2023,6,7,16,14,22,82
45.10610,0.21665,-0.04148,0.00000,0.03148,0.97649,-0.18703,0.0,2023,6,7,16,14,22,101
45.10620,0.00665,0.06352,0.00000,0.03209,0.97600,-0.18837,0.0,2023,6,7,16,14,22,120
45.10630,-0.04585,0.04602,0.00000,0.02965,0.97478,-0.18910,0.0,2023,6,7,16,14,22,139
45.10640,0.00665,0.20352,0.00000,0.03001,0.97844,-0.18556,0.0,2023,6,7,16,14,22,158
45.10650,-0.25585,0.04602,0.00000,0.03294,0.97502,-0.18751,0.0,2023,6,7,16,14,22,177
45.10660,0.11165,-0.18148,0.00000,0.03087,0.97600,-0.18617,0.0,2023,6,7,16,14,22,195
45.10670,0.00665,-0.19898,0.00000,0.03245,0.97673,-0.18727,0.0,2023,6,7,16,14,22,214
45.10680,-0.06335,0.11602,0.00000,0.03233,0.97539,-0.18581,0.0,2023,6,7,16,14,22,233
45.10690,-0.08085,0.01102,0.00000,0.03050,0.97722,-0.18800,0.0,2023,6,7,16,14,22,252
45.10700,-0.13335,-0.07648,0.00000,0.03257,0.97771,-0.18764,0.0,2023,6,7,16,14,22,271
45.10710,-0.09835,-0.21648,0.00000,0.02928,0.97759,-0.18837,0.0,2023,6,7,16,14,22,290
45.10720,0.19915,0.13352,0.00000,0.03074,0.97661,-0.18922,0.0,2023,6,7,16,14,22,309
45.10730,-0.02835,-0.07648,0.00000,0.03026,0.97563,-0.18886,0.0,2023,6,7,16,14,22,328
45.10740,0.12915,0.08102,0.00000,0.03062,0.97722,-0.18703,0.0,2023,6,7,16,14,22,347
45.10750,0.09415,0.13352,0.00000,0.03087,0.97832,-0.18581,0.0,2023,6,7,16,14,22,366
45.10760,0.04165,-0.18148,0.00000,0.03148,0.98015,-0.18739,0.0,2023,6,7,16,14,22,384
45.10770,-0.02835,0.01102,0.00000,0.02928,0.97807,-0.19239,0.0,2023,6,7,16,14,22,403
45.10780,-0.13335,0.02852,0.00000,0.03148,0.97893,-0.18812,0.0,2023,6,7,16,14,22,422
45.10790,-0.02835,-0.12898,0.00000,0.02965,0.97661,-0.18703,0.0,2023,6,7,16,14,22,441
45.10800,0.09415,0.01102,0.00000,0.03306,0.97637,-0.19044,0.0,2023,6,7,16,14,22,460
45.10810,0.05915,-0.04148,0.00000,0.03148,0.97637,-0.18507,0.0,2023,6,7,16,14,22,479
45.10820,-0.23835,0.22102,0.00000,0.03099,0.97637,-0.18922,0.0,2023,6,7,16,14,22,498
45.10830,0.05915,0.02852,0.00000,0.03013,0.97612,-0.18971,0.0,2023,6,7,16,14,22,517
45.10840,0.14665,-0.07648,0.00000,0.03160,0.97746,-0.18703,0.0,2023,6,7,16,14,22,536
45.10850,-0.02835,0.01102,0.00000,0.03135,0.97710,-0.18593,0.0,2023,6,7,16,14,22,555
45.10860,-0.09835,0.02852,0.00000,0.03099,0.97954,-0.18959,0.0,2023,6,7,16,14,22,573
45.10870,-0.04585,0.02852,0.00000,0.03099,0.97624,-0.18703,0.0,2023,6,7,16,14,22,592
45.10880,0.02415,-0.14648,0.00000,0.03038,0.97661,-0.18825,0.0,2023,6,7,16,14,22,611
45.10890,0.09415,-0.00648,0.00000,0.02843,0.97624,-0.18934,0.0,2023,6,7,16,14,22,630
45.10900,0.09415,-0.09398,0.00000,0.03160,0.97551,-0.19008,0.0,2023,6,7,16,14,22,649
45.10910,-0.06335,0.08102,0.00000,0.02867,0.97563,-0.18642,0.0,2023,6,7,16,14,22,668
45.10920,-0.02835,-0.12898,0.00000,0.03135,0.97673,-0.18776,0.0,2023,6,7,16,14,22,687
45.10930,-0.11585,0.09852,0.00000,0.03123,0.97685,-0.18837,0.0,2023,6,7,16,14,23,6
45.10940,0.25165,-0.12898,0.00000,0.03123,0.97576,-0.18800,0.0,2023,6,7,16,14,23,25
45.10950,-0.04585,0.01102,0.00000,0.03294,0.97722,-0.18873,0.0,2023,6,7,16,14,23,44
45.10960,0.07665,-0.09398,0.00000,0.03087,0.97551,-0.18910,0.0,2023,6,7,16,14,23,62
45.10970,0.00665,0.22102,0.00000,0.03074,0.97563,-0.18873,0.0,2023,6,7,16,14,23,81
45.10980,0.00665,-0.07648,0.00000,0.03050,0.97661,-0.18837,0.0,2023,6,7,16,14,23,100
45.10990,0.09415,-0.11148,0.00000,0.02904,0.97710,-0.18812,0.0,2023,6,7,16,14,23,119
45.11000,0.12915,-0.11148,0.00000,0.03196,0.97649,-0.18812,0.0,2023,6,7,16,14,23,138
45.11010,0.07665,-0.25148,0.00000,0.03209,0.97649,-0.18849,0.0,2023,6,7,16,14,23,157
45.11020,0.07665,-0.16398,0.00000,0.03196,0.97612,-0.18886,0.0,2023,6,7,16,14,23,176
45.11030,-0.11585,0.08102,0.00000,0.03038,0.97612,-0.18995,0.0,2023,6,7,16,14,23,195
45.11040,0.09415,0.13352,0.00000,0.03013,0.97502,-0.18703,0.0,2023,6,7,16,14,23,214
45.11050,-0.11585,0.01102,0.00000,0.03257,0.97673,-0.19044,0.0,2023,6,7,16,14,23,233
45.11060,-0.04585,-0.00648,0.00000,0.03355,0.97539,-0.18849,0.0,2023,6,7,16,14,23,251
45.11070,0.14665,-0.12898,0.00000,0.03062,0.97624,-0.18715,0.0,2023,6,7,16,14,23,270
45.11080,0.07665,-0.21648,0.00000,0.03148,0.97393,-0.18690,0.0,2023,6,7,16,14,23,289
45.11090,0.00665,-0.05898,0.00000,0.02952,0.97722,-0.18873,0.0,2023,6,7,16,14,23,308
45.11100,0.00665,0.01102,0.00000,0.03160,0.97527,-0.18947,0.0,2023,6,7,16,14,23,327
45.11110,-0.08085,-0.05898,0.00000,0.03013,0.97490,-0.18703,0.0,2023,6,7,16,14,23,346
45.11120,-0.06335,0.13352,0.00000,0.03184,0.97661,-0.18849,0.0,2023,6,7,16,14,23,365
45.11130,0.02415,0.01102,0.00000,0.03148,0.97637,-0.19105,0.0,2023,6,7,16,14,23,384
45.11140,0.00665,-0.09398,0.00000,0.03087,0.97624,-0.18654,0.0,2023,6,7,16,14,23,403
45.11150,-0.08085,-0.14648,0.00000,0.03233,0.97771,-0.18812,0.0,2023,6,7,16,14,23,422
45.11160,0.14665,0.01102,0.00000,0.03135,0.97612,-0.18764,0.0,2023,6,7,16,14,23,440
45.11170,0.11165,-0.07648,0.00000,0.03270,0.97624,-0.18739,0.0,2023,6,7,16,14,23,459
45.11180,0.12915,0.02852,0.00000,0.02708,0.97551,-0.18800,0.0,2023,6,7,16,14,23,478
45.11190,0.00665,0.06352,0.00000,0.03148,0.97368,-0.18751,0.0,2023,6,7,16,14,23,497
45.11200,0.11165,0.08102,0.00000,0.02965,0.97637,-0.18739,0.0,2023,6,7,16,14,23,516
45.11210,-0.11585,0.16852,0.00000,0.03062,0.97539,-0.18190,0.0,2023,6,7,16,14,23,535
45.11220,-0.04585,-0.12898,0.00000,0.02928,0.97551,-0.18739,0.0,2023,6,7,16,14,23,554
45.11230,-0.11585,0.34352,0.00000,0.03257,0.97685,-0.18898,0.0,2023,6,7,16,14,23,573
45.11240,0.05915,-0.12898,0.00000,0.03245,0.97588,-0.18617,0.0,2023,6,7,16,14,23,592
45.11250,-0.08085,-0.11148,0.00000,0.03135,0.97527,-0.18800,0.0,2023,6,7,16,14,23,611
45.11260,-0.13335,0.16852,0.00000,0.03123,0.97759,-0.18568,0.0,2023,6,7,16,14,23,629
45.11270,-0.16835,0.08102,0.00000,0.03355,0.97576,-0.18812,0.0,2023,6,7,16,14,23,648
45.11280,0.21665,0.02852,0.00000,0.03001,0.97624,-0.18837,0.0,2023,6,7,16,14,23,667
45.11290,0.02415,-0.04148,0.00000,0.02989,0.97844,-0.18459,0.0,2023,6,7,16,14,23,686
45.11300,-0.13335,-0.00648,0.00000,0.03318,0.97673,-0.18495,0.0,2023,6,7,16,14,23,705
45.11310,0.04165,0.13352,0.00000,0.03160,0.97551,-0.18776,0.0,2023,6,7,16,14,23,724
45.11320,-0.06335,-0.00648,0.00000,0.03026,0.97649,-0.18971,0.0,2023,6,7,16,14,23,743
45.11330,-0.06335,0.23852,0.00000,0.03209,0.97576,-0.18971,0.0,2023,6,7,16,14,23,762
45.11340,0.02415,-0.02398,0.00000,0.03001,0.97649,-0.19020,0.0,2023,6,7,16,14,23,781
45.11350,0.02415,-0.04148,0.00000,0.02916,0.97710,-0.18959,0.0,2023,6,7,16,14,23,800
45.11360,0.00665,0.04602,0.00000,0.03184,0.97319,-0.18983,0.0,2023,6,7,16,14,23,818
45.11370,-0.15085,0.08102,0.00000,0.03209,0.97661,-0.18690,0.0,2023,6,7,16,14,23,837
45.11380,-0.08085,0.16852,0.00000,0.03196,0.97881,-0.18898,0.0,2023,6,7,16,14,23,856
45.11390,0.11165,0.08102,0.00000,0.03111,0.97429,-0.18825,0.0,2023,6,7,16,14,23,875
45.11400,0.04165,-0.07648,0.00000,0.03233,0.97722,-0.18910,0.0,2023,6,7,16,14,23,894
45.11410,0.05915,0.18602,0.00000,0.03221,0.97698,-0.18812,0.0,2023,6,7,16,14,23,913
45.11420,0.00665,0.13352,0.00000,0.03172,0.97746,-0.18788,0.0,2023,6,7,16,14,23,932
45.11430,0.05915,0.13352,0.00000,0.03184,0.97441,-0.18654,0.0,2023,6,7,16,14,23,951
45.11440,-0.04585,-0.02398,0.00000,0.03257,0.97673,-0.18751,0.0,2023,6,7,16,14,23,970
45.11450,0.09415,0.01102,0.00000,0.03123,0.97832,-0.18690,0.0,2023,6,7,16,14,23,989
45.11460,-0.01085,-0.19898,0.00000,0.03184,0.97478,-0.18605,0.0,2023,6,7,16,14,23,7
45.11470,0.09415,0.16852,0.00000,0.02977,0.97722,-0.18776,0.0,2023,6,7,16,14,23,26
45.11480,-0.11585,0.16852,0.00000,0.03196,0.97868,-0.18495,0.0,2023,6,7,16,14,23,45
45.11490,0.00665,0.09852,0.00000,0.03160,0.97600,-0.18544,0.0,2023,6,7,16,14,23,64
45.11500,0.11165,-0.18148,0.00000,0.03087,0.97771,-0.18642,0.0,2023,6,7,16,14,23,83
45.11510,-0.01085,0.06352,0.00000,0.03038,0.97637,-0.18629,0.0,2023,6,7,16,14,23,102
45.11520,-0.08085,-0.04148,0.00000,0.03160,0.97624,-0.18593,0.0,2023,6,7,16,14,23,121
45.11530,0.05915,-0.09398,0.00000,0.03099,0.97698,-0.18690,0.0,2023,6,7,16,14,23,140
45.11540,-0.18585,-0.11148,0.00000,0.03062,0.97698,-0.18727,0.0,2023,6,7,16,14,23,159
45.11550,-0.02835,0.13352,0.00000,0.03428,0.97576,-0.18751,0.0,2023,6,7,16,14,23,178
45.11560,-0.09835,-0.07648,0.00000,0.03306,0.97734,-0.18544,0.0,2023,6,7,16,14,23,196
45.11570,0.02415,0.06352,0.00000,0.03160,0.97893,-0.18825,0.0,2023,6,7,16,14,23,215
45.11580,0.04165,0.13352,0.00000,0.02989,0.97551,-0.18666,0.0,2023,6,7,16,14,23,234
45.11590,0.05915,-0.07648,0.00000,0.03184,0.97649,-0.18642,0.0,2023,6,7,16,14,23,253
45.11600,0.00665,0.11602,0.00000,0.03013,0.97698,-0.18922,0.0,2023,6,7,16,14,23,272
45.11610,-0.08085,0.04602,0.00000,0.03282,0.97649,-0.18715,0.0,2023,6,7,16,14,23,291
45.11620,-0.23835,0.04602,0.00000,0.03074,0.97807,-0.18678,0.0,2023,6,7,16,14,23,310
45.11630,-0.06335,0.15102,0.00000,0.03111,0.97893,-0.18849,0.0,2023,6,7,16,14,23,329
45.11640,-0.02835,-0.00648,0.00000,0.02891,0.97393,-0.18812,0.0,2023,6,7,16,14,23,348
45.11650,-0.01085,-0.09398,0.00000,0.03026,0.97539,-0.18544,0.0,2023,6,7,16,14,23,367
45.11660,0.07665,0.06352,0.00000,0.03355,0.97637,-0.18666,0.0,2023,6,7,16,14,23,385
45.11670,-0.09835,-0.04148,0.00000,0.03196,0.97746,-0.18642,0.0,2023,6,7,16,14,23,404
45.11680,0.14665,-0.00648,0.00000,0.02952,0.97478,-0.18837,0.0,2023,6,7,16,14,23,423
45.11690,-0.01085,-0.09398,0.00000,0.03050,0.97600,-0.18483,0.0,2023,6,7,16,14,23,442
45.11700,-0.11585,0.09852,0.00000,0.03013,0.97698,-0.18690,0.0,2023,6,7,16,14,23,461
45.11710,0.09415,0.13352,0.00000,0.02891,0.97698,-0.18825,0.0,2023,6,7,16,14,23,480
45.11720,-0.08085,-0.05898,0.00000,0.03233,0.97490,-0.18703,0.0,2023,6,7,16,14,23,499
45.11730,-0.09835,-0.04148,0.00000,0.03209,0.97673,-0.18922,0.0,2023,6,7,16,14,23,518
45.11740,0.00665,-0.09398,0.00000,0.03050,0.97710,-0.18800,0.0,2023,6,7,16,14,23,537
45.11750,0.05915,-0.00648,0.00000,0.03135,0.97429,-0.18654,0.0,2023,6,7,16,14,23,556
45.11760,-0.23835,-0.33898,0.00000,0.03099,0.97807,-0.18629,0.0,2023,6,7,16,14,23,574
45.11770,0.14665,-0.02398,0.00000,0.03099,0.97649,-0.18861,0.0,2023,6,7,16,14,23,593
45.11780,-0.04585,-0.02398,0.00000,0.03367,0.97698,-0.18471,0.0,2023,6,7,16,14,23,612
45.11790,0.05915,-0.12898,0.00000,0.03160,0.97563,-0.18593,0.0,2023,6,7,16,14,23,631
45.11800,0.05915,-0.07648,0.00000,0.03209,0.97722,-0.18812,0.0,2023,6,7,16,14,23,650
45.11810,-0.13335,0.01102,0.00000,0.03428,0.97429,-0.18532,0.0,2023,6,7,16,14,23,669
45.11820,0.07665,0.15102,0.00000,0.03196,0.97612,-0.18446,0.0,2023,6,7,16,14,23,688
45.11830,-0.02835,-0.16398,0.00000,0.03196,0.97893,-0.18690,0.0,2023,6,7,16,14,23,707
45.11840,0.16415,-0.00648,0.00000,0.03062,0.97515,-0.18776,0.0,2023,6,7,16,14,24,6
45.11850,0.12915,-0.19898,0.00000,0.03099,0.97746,-0.18751,0.0,2023,6,7,16,14,24,25
45.11860,-0.01085,-0.18148,0.00000,0.03196,0.97710,-0.18739,0.0,2023,6,7,16,14,24,43
45.11870,0.02415,0.01102,0.00000,0.03123,0.97722,-0.18666,0.0,2023,6,7,16,14,24,62
45.11880,0.02415,-0.09398,0.00000,0.02879,0.97685,-0.18642,0.0,2023,6,7,16,14,24,81
45.11890,-0.11585,-0.09398,0.00000,0.03209,0.97783,-0.18739,0.0,2023,6,7,16,14,24,100
45.11900,0.07665,-0.09398,0.00000,0.03026,0.97759,-0.18593,0.0,2023,6,7,16,14,24,119
45.11910,0.02415,0.09852,0.00000,0.03111,0.97722,-0.18654,0.0,2023,6,7,16,14,24,138
45.11920,-0.15085,-0.14648,0.00000,0.02965,0.97759,-0.18568,0.0,2023,6,7,16,14,24,157
45.11930,-0.08085,0.15102,0.00000,0.03087,0.97637,-0.18568,0.0,2023,6,7,16,14,24,176
45.11940,-0.08085,-0.18148,0.00000,0.03257,0.97832,-0.18642,0.0,2023,6,7,16,14,24,195
45.11950,0.04165,0.15102,0.00000,0.03050,0.97649,-0.18727,0.0,2023,6,7,16,14,24,214
45.11960,-0.02835,-0.16398,0.00000,0.02928,0.97649,-0.18532,0.0,2023,6,7,16,14,24,232
45.11970,-0.13335,-0.25148,0.00000,0.03123,0.97649,-0.18654,0.0,2023,6,7,16,14,24,251
45.11980,-0.08085,-0.12898,0.00000,0.03087,0.97576,-0.18715,0.0,2023,6,7,16,14,24,270
45.11990,0.02415,-0.00648,0.00000,0.03233,0.97637,-0.18812,0.0,2023,6,7,16,14,24,289
45.12000,-0.13335,0.01102,0.00000,0.03233,0.97502,-0.18642,0.0,2023,6,7,16,14,24,308
45.12010,-0.11585,-0.00648,0.00000,0.03148,0.97527,-0.18324,0.0,2023,6,7,16,14,24,327
45.12020,0.02415,0.06352,0.00000,0.03074,0.97759,-0.19044,0.0,2023,6,7,16,14,24,346
45.12030,0.07665,-0.09398,0.00000,0.03172,0.97502,-0.18617,0.0,2023,6,7,16,14,24,365
45.12040,0.04165,-0.12898,0.00000,0.03148,0.97612,-0.18690,0.0,2023,6,7,16,14,24,384
45.12050,-0.16835,-0.11148,0.00000,0.03148,0.97563,-0.18776,0.0,2023,6,7,16,14,24,403
45.12060,0.05915,-0.00648,0.00000,0.02977,0.97539,-0.18507,0.0,2023,6,7,16,14,24,421
45.12070,-0.16835,0.02852,0.00000,0.03257,0.97649,-0.18642,0.0,2023,6,7,16,14,24,440
45.12080,-0.11585,0.15102,0.00000,0.03294,0.97576,-0.18788,0.0,2023,6,7,16,14,24,459
45.12090,-0.01085,0.15102,0.00000,0.03209,0.97454,-0.18642,0.0,2023,6,7,16,14,24,478
45.12100,0.07665,-0.07648,0.00000,0.02965,0.97832,-0.18715,0.0,2023,6,7,16,14,24,497
45.12110,-0.01085,-0.04148,0.00000,0.03148,0.97685,-0.18678,0.0,2023,6,7,16,14,24,516
45.12120,0.05915,0.08102,0.00000,0.03087,0.97734,-0.18556,0.0,2023,6,7,16,14,24,535
45.12130,-0.04585,0.06352,0.00000,0.03026,0.97759,-0.18642,0.0,2023,6,7,16,14,24,554
45.12140,0.04165,-0.00648,0.00000,0.03172,0.97685,-0.18812,0.0,2023,6,7,16,14,24,573
45.12150,0.05915,-0.14648,0.00000,0.03026,0.97795,-0.18654,0.0,2023,6,7,16,14,24,592
45.12160,0.09415,-0.02398,0.00000,0.02940,0.97637,-0.18654,0.0,2023,6,7,16,14,24,610
45.12170,-0.08085,-0.19898,0.00000,0.03013,0.97612,-0.18654,0.0,2023,6,7,16,14,24,629
45.12180,0.00665,0.13352,0.00000,0.03209,0.97490,-0.18837,0.0,2023,6,7,16,14,24,648
45.12190,-0.04585,-0.18148,0.00000,0.03196,0.97771,-0.18825,0.0,2023,6,7,16,14,24,667
45.12200,0.04165,0.02852,0.00000,0.03099,0.97527,-0.18825,0.0,2023,6,7,16,14,24,686
45.12210,-0.13335,-0.00648,0.00000,0.03038,0.97563,-0.18654,0.0,2023,6,7,16,14,24,705
45.12220,0.05915,-0.09398,0.00000,0.03257,0.97624,-0.18788,0.0,2023,6,7,16,14,24,724
45.12230,0.19915,-0.12898,0.00000,0.03196,0.97576,-0.18727,0.0,2023,6,7,16,14,24,743
45.12240,-0.16835,-0.00648,0.00000,0.03135,0.97502,-0.18605,0.0,2023,6,7,16,14,24,762
45.12250,-0.16835,-0.12898,0.00000,0.03062,0.97490,-0.18581,0.0,2023,6,7,16,14,24,781
45.12260,0.00665,0.20352,0.00000,0.02952,0.97637,-0.18715,0.0,2023,6,7,16,14,24,799
45.12270,-0.16835,0.01102,0.00000,0.03050,0.97637,-0.18593,0.0,2023,6,7,16,14,24,818
45.12280,0.12915,-0.04148,0.00000,0.02916,0.97685,-0.18593,0.0,2023,6,7,16,14,24,837
45.12290,0.14665,0.09852,0.00000,0.03257,0.97685,-0.18434,0.0,2023,6,7,16,14,24,856
45.12300,0.16415,0.08102,0.00000,0.03123,0.97807,-0.18751,0.0,2023,6,7,16,14,24,875
45.12310,-0.09835,-0.16398,0.00000,0.03111,0.97673,-0.18666,0.0,2023,6,7,16,14,24,894
45.12320,-0.08085,-0.11148,0.00000,0.02952,0.97612,-0.18678,0.0,2023,6,7,16,14,24,913
45.12330,-0.23835,-0.04148,0.00000,0.03318,0.97588,-0.18605,0.0,2023,6,7,16,14,24,932
45.12340,0.12915,-0.02398,0.00000,0.03050,0.97563,-0.18690,0.0,2023,6,7,16,14,24,951
45.12350,0.09415,0.06352,0.00000,0.02916,0.97539,-0.18727,0.0,2023,6,7,16,14,24,970
45.12360,0.11165,-0.07648,0.00000,0.03245,0.97466,-0.18886,0.0,2023,6,7,16,14,24,988
45.12370,-0.11585,0.13352,0.00000,0.03087,0.97588,-0.18507,0.0,2023,6,7,16,14,24,7
45.12380,-0.02835,-0.23398,0.00000,0.03209,0.97759,-0.19008,0.0,2023,6,7,16,14,24,26
45.12390,0.00665,-0.02398,0.00000,0.03257,0.97868,-0.18617,0.0,2023,6,7,16,14,24,45
45.12400,0.02415,0.16852,0.00000,0.03001,0.97637,-0.18642,0.0,2023,6,7,16,14,24,64
45.12410,-0.11585,-0.04148,0.00000,0.03221,0.97746,-0.18532,0.0,2023,6,7,16,14,24,83
45.12420,0.00665,-0.04148,0.00000,0.03099,0.97405,-0.18776,0.0,2023,6,7,16,14,24,102
45.12430,-0.18585,-0.09398,0.00000,0.02965,0.97576,-0.18703,0.0,2023,6,7,16,14,24,121
45.12440,-0.06335,0.16852,0.00000,0.03318,0.97551,-0.18703,0.0,2023,6,7,16,14,24,140
45.12450,0.00665,-0.02398,0.00000,0.03160,0.97637,-0.18629,0.0,2023,6,7,16,14,24,159
45.12460,-0.11585,0.09852,0.00000,0.03135,0.97637,-0.18666,0.0,2023,6,7,16,14,24,177
45.12470,0.00665,-0.11148,0.00000,0.03160,0.97734,-0.18751,0.0,2023,6,7,16,14,24,196
45.12480,-0.11585,0.09852,0.00000,0.03074,0.97685,-0.18715,0.0,2023,6,7,16,14,24,215
45.12490,-0.22085,-0.07648,0.00000,0.02879,0.97649,-0.18678,0.0,2023,6,7,16,14,24,234
45.12500,-0.11585,0.27352,0.00000,0.03038,0.97600,-0.18764,0.0,2023,6,7,16,14,24,253
45.12510,0.07665,-0.14648,0.00000,0.02940,0.97380,-0.18349,0.0,2023,6,7,16,14,24,272
45.12520,0.19915,-0.16398,0.00000,0.03135,0.97576,-0.18617,0.0,2023,6,7,16,14,24,291
45.12530,0.25165,-0.00648,0.00000,0.03184,0.97466,-0.18788,0.0,2023,6,7,16,14,24,310
45.12540,-0.20335,0.01102,0.00000,0.02965,0.97649,-0.18666,0.0,2023,6,7,16,14,24,329
45.12550,-0.06335,-0.18148,0.00000,0.03318,0.97759,-0.18727,0.0,2023,6,7,16,14,24,348
45.12560,0.02415,0.16852,0.00000,0.03233,0.97710,-0.18532,0.0,2023,6,7,16,14,24,366
45.12570,0.00665,0.16852,0.00000,0.03099,0.97466,-0.18849,0.0,2023,6,7,16,14,24,385
45.12580,0.04165,0.06352,0.00000,0.03050,0.97649,-0.18788,0.0,2023,6,7,16,14,24,404
45.12590,-0.09835,0.01102,0.00000,0.03233,0.97734,-0.18739,0.0,2023,6,7,16,14,24,423
45.12600,-0.16835,0.08102,0.00000,0.03026,0.97563,-0.18764,0.0,2023,6,7,16,14,24,442
45.12610,-0.08085,-0.02398,0.00000,0.03026,0.97649,-0.18922,0.0,2023,6,7,16,14,24,461
45.12620,0.09415,0.01102,0.00000,0.03062,0.97698,-0.18654,0.0,2023,6,7,16,14,24,480
45.12630,-0.04585,0.13352,0.00000,0.03184,0.97466,-0.18629,0.0,2023,6,7,16,14,24,499
45.12640,-0.01085,-0.12898,0.00000,0.03196,0.97685,-0.18776,0.0,2023,6,7,16,14,24,518
45.12650,-0.01085,0.04602,0.00000,0.03209,0.97710,-0.18800,0.0,2023,6,7,16,14,24,537
45.12660,0.07665,0.01102,0.00000,0.03026,0.97624,-0.18776,0.0,2023,6,7,16,14,24,555
45.12670,0.07665,-0.12898,0.00000,0.03026,0.97893,-0.18837,0.0,2023,6,7,16,14,24,574
45.12680,-0.11585,-0.05898,0.00000,0.03111,0.97624,-0.18947,0.0,2023,6,7,16,14,24,593
45.12690,-0.02835,-0.00648,0.00000,0.03209,0.97710,-0.18910,0.0,2023,6,7,16,14,24,612
45.12700,0.05915,-0.00648,0.00000,0.03087,0.97844,-0.18947,0.0,2023,6,7,16,14,24,631
45.12710,0.07665,-0.14648,0.00000,0.03013,0.97722,-0.18764,0.0,2023,6,7,16,14,24,650
45.12720,-0.01085,0.06352,0.00000,0.02855,0.97527,-0.18959,0.0,2023,6,7,16,14,24,669
45.12730,0.09415,0.09852,0.00000,0.03379,0.97820,-0.19178,0.0,2023,6,7,16,14,24,688
45.12740,0.00665,-0.07648,0.00000,0.03172,0.97746,-0.18751,0.0,2023,6,7,16,14,25,7
45.12750,0.12915,-0.00648,0.00000,0.03087,0.97576,-0.18776,0.0,2023,6,7,16,14,25,26
45.12760,0.04165,0.04602,0.00000,0.03148,0.97551,-0.18886,0.0,2023,6,7,16,14,25,44
45.12770,-0.13335,0.08102,0.00000,0.03196,0.97454,-0.18751,0.0,2023,6,7,16,14,25,63
45.12780,-0.16835,-0.18148,0.00000,0.02977,0.97490,-0.18849,0.0,2023,6,7,16,14,25,82
45.12790,-0.01085,0.02852,0.00000,0.03087,0.97832,-0.18995,0.0,2023,6,7,16,14,25,101
45.12800,-0.04585,0.01102,0.00000,0.03306,0.97466,-0.18788,0.0,2023,6,7,16,14,25,120
45.12810,-0.02835,-0.09398,0.00000,0.02977,0.97515,-0.18690,0.0,2023,6,7,16,14,25,139
45.12820,0.11165,-0.05898,0.00000,0.03074,0.97649,-0.18739,0.0,2023,6,7,16,14,25,158
45.12830,-0.11585,0.08102,0.00000,0.03416,0.97588,-0.18861,0.0,2023,6,7,16,14,25,177
45.12840,0.07665,-0.07648,0.00000,0.03184,0.97624,-0.18886,0.0,2023,6,7,16,14,25,196
45.12850,0.07665,-0.02398,0.00000,0.03099,0.97539,-0.18556,0.0,2023,6,7,16,14,25,215
45.12860,0.07665,0.09852,0.00000,0.03270,0.97771,-0.18934,0.0,2023,6,7,16,14,25,233
45.12870,0.23415,-0.07648,0.00000,0.03184,0.97807,-0.19044,0.0,2023,6,7,16,14,25,252
45.12880,-0.06335,0.16852,0.00000,0.03331,0.97624,-0.18532,0.0,2023,6,7,16,14,25,271
45.12890,0.05915,-0.00648,0.00000,0.02916,0.97551,-0.18690,0.0,2023,6,7,16,14,25,290
45.12900,0.02415,-0.07648,0.00000,0.02989,0.97563,-0.18605,0.0,2023,6,7,16,14,25,309
45.12910,-0.23835,0.23852,0.00000,0.03050,0.97710,-0.18532,0.0,2023,6,7,16,14,25,328
45.12920,0.18165,0.01102,0.00000,0.02965,0.97624,-0.18800,0.0,2023,6,7,16,14,25,347
45.12930,-0.02835,-0.04148,0.00000,0.03111,0.97624,-0.18629,0.0,2023,6,7,16,14,25,366
45.12940,-0.23835,0.04602,0.00000,0.03050,0.97795,-0.18812,0.0,2023,6,7,16,14,25,385
45.12950,-0.06335,0.06352,0.00000,0.03196,0.97502,-0.18666,0.0,2023,6,7,16,14,25,404
45.12960,0.00665,-0.04148,0.00000,0.02928,0.97417,-0.18849,0.0,2023,6,7,16,14,25,422
45.12970,-0.02835,0.04602,0.00000,0.02879,0.97454,-0.18922,0.0,2023,6,7,16,14,25,441
45.12980,0.11165,-0.05898,0.00000,0.02965,0.97698,-0.18654,0.0,2023,6,7,16,14,25,460
45.12990,-0.01085,0.06352,0.00000,0.02940,0.97624,-0.18849,0.0,2023,6,7,16,14,25,479
45.13000,0.14665,-0.04148,0.00000,0.03099,0.97563,-0.18837,0.0,2023,6,7,16,14,25,498
45.13010,0.12915,0.04602,0.00000,0.03245,0.97637,-0.18629,0.0,2023,6,7,16,14,25,517
45.13020,-0.09835,-0.02398,0.00000,0.03013,0.97576,-0.18764,0.0,2023,6,7,16,14,25,536
45.13030,0.00665,0.06352,0.00000,0.03160,0.97588,-0.18947,0.0,2023,6,7,16,14,25,555
45.13040,0.00665,0.01102,0.00000,0.03160,0.97466,-0.18800,0.0,2023,6,7,16,14,25,574
45.13050,0.09415,-0.02398,0.00000,0.02952,0.97832,-0.18727,0.0,2023,6,7,16,14,25,593
45.13060,0.12915,-0.19898,0.00000,0.03026,0.97576,-0.18739,0.0,2023,6,7,16,14,25,611
45.13070,-0.06335,0.18602,0.00000,0.03172,0.97649,-0.18910,0.0,2023,6,7,16,14,25,630
45.13080,0.05915,0.22102,0.00000,0.03245,0.97527,-0.18544,0.0,2023,6,7,16,14,25,649
45.13090,-0.01085,-0.18148,0.00000,0.03184,0.97661,-0.18666,0.0,2023,6,7,16,14,25,668
45.13100,-0.09835,-0.02398,0.00000,0.02867,0.97771,-0.18739,0.0,2023,6,7,16,14,25,687
45.13110,0.18165,-0.04148,0.00000,0.03123,0.97454,-0.19069,0.0,2023,6,7,16,14,25,706
45.13120,-0.06335,0.06352,0.00000,0.03148,0.97563,-0.18751,0.0,2023,6,7,16,14,25,725
45.13130,-0.02835,-0.02398,0.00000,0.03013,0.97710,-0.18764,0.0,2023,6,7,16,14,25,744
45.13140,-0.02835,-0.14648,0.00000,0.03172,0.97820,-0.18556,0.0,2023,6,7,16,14,25,763
45.13150,-0.06335,0.08102,0.00000,0.03062,0.97673,-0.18642,0.0,2023,6,7,16,14,25,782
45.13160,0.09415,-0.07648,0.00000,0.03172,0.97820,-0.18898,0.0,2023,6,7,16,14,25,800
45.13170,0.07665,-0.16398,0.00000,0.02977,0.97624,-0.18873,0.0,2023,6,7,16,14,25,819
45.13180,-0.11585,-0.04148,0.00000,0.03209,0.97746,-0.18715,0.0,2023,6,7,16,14,25,838
45.13190,-0.01085,-0.19898,0.00000,0.03026,0.97637,-0.18776,0.0,2023,6,7,16,14,25,857
45.13200,0.14665,-0.00648,0.00000,0.03355,0.97551,-0.18629,0.0,2023,6,7,16,14,25,876
45.13210,0.07665,0.04602,0.00000,0.03331,0.97649,-0.18983,0.0,2023,6,7,16,14,25,895
45.13220,0.05915,-0.04148,0.00000,0.03087,0.97771,-0.18764,0.0,2023,6,7,16,14,25,914
45.13230,-0.22085,-0.23398,0.00000,0.03038,0.97527,-0.18642,0.0,2023,6,7,16,14,25,933
45.13240,0.02415,-0.00648,0.00000,0.03318,0.97466,-0.18703,0.0,2023,6,7,16,14,25,952
45.13250,-0.06335,-0.00648,0.00000,0.03111,0.97588,-0.18690,0.0,2023,6,7,16,14,25,971
45.13260,0.04165,-0.04148,0.00000,0.03026,0.97759,-0.18678,0.0,2023,6,7,16,14,25,989
45.13270,-0.13335,-0.14648,0.00000,0.03148,0.97478,-0.18690,0.0,2023,6,7,16,14,25,8
45.13280,0.02415,-0.00648,0.00000,0.03270,0.97454,-0.18934,0.0,2023,6,7,16,14,25,27
45.13290,0.05915,-0.00648,0.00000,0.03245,0.97563,-0.18995,0.0,2023,6,7,16,14,25,46
45.13300,0.04165,-0.39148,0.00000,0.03184,0.97405,-0.18800,0.0,2023,6,7,16,14,25,65
45.13310,-0.22085,-0.19898,0.00000,0.03050,0.97454,-0.18922,0.0,2023,6,7,16,14,25,84
45.13320,-0.06335,0.27352,0.00000,0.02989,0.97759,-0.18739,0.0,2023,6,7,16,14,25,103
45.13330,-0.16835,0.13352,0.00000,0.03209,0.97551,-0.18764,0.0,2023,6,7,16,14,25,122
45.13340,0.07665,0.15102,0.00000,0.02904,0.97722,-0.18983,0.0,2023,6,7,16,14,25,141
45.13350,0.26915,-0.26898,0.00000,0.03160,0.97795,-0.18642,0.0,2023,6,7,16,14,25,160
45.13360,0.04165,-0.04148,0.00000,0.03196,0.97539,-0.18739,0.0,2023,6,7,16,14,25,178
45.13370,0.00665,-0.02398,0.00000,0.03257,0.97527,-0.18629,0.0,2023,6,7,16,14,25,197
45.13380,0.02415,0.01102,0.00000,0.03270,0.97698,-0.18812,0.0,2023,6,7,16,14,25,216
45.13390,-0.09835,-0.04148,0.00000,0.03123,0.97612,-0.18849,0.0,2023,6,7,16,14,25,235
45.13400,-0.18585,-0.21648,0.00000,0.02843,0.97637,-0.18751,0.0,2023,6,7,16,14,25,254
45.13410,0.09415,-0.16398,0.00000,0.02940,0.97734,-0.18654,0.0,2023,6,7,16,14,25,273
45.13420,-0.13335,0.09852,0.00000,0.03160,0.97795,-0.18812,0.0,2023,6,7,16,14,25,292
45.13430,-0.22085,-0.00648,0.00000,0.02891,0.97771,-0.18837,0.0,2023,6,7,16,14,25,311
45.13440,-0.04585,-0.05898,0.00000,0.03123,0.97685,-0.18995,0.0,2023,6,7,16,14,25,330
45.13450,0.16415,0.01102,0.00000,0.03184,0.97502,-0.18886,0.0,2023,6,7,16,14,25,349
45.13460,-0.01085,-0.19898,0.00000,0.03209,0.97466,-0.18751,0.0,2023,6,7,16,14,25,367
45.13470,-0.09835,0.01102,0.00000,0.03111,0.97759,-0.18922,0.0,2023,6,7,16,14,25,386
45.13480,-0.06335,-0.05898,0.00000,0.03099,0.97734,-0.18959,0.0,2023,6,7,16,14,25,405
45.13490,-0.02835,-0.16398,0.00000,0.03050,0.97856,-0.18849,0.0,2023,6,7,16,14,25,424
45.13500,0.02415,-0.12898,0.00000,0.03196,0.97637,-0.18849,0.0,2023,6,7,16,14,25,443
45.13510,0.04165,-0.12898,0.00000,0.02989,0.97502,-0.18861,0.0,2023,6,7,16,14,25,462
45.13520,-0.04585,0.13352,0.00000,0.03038,0.97685,-0.18788,0.0,2023,6,7,16,14,25,481
45.13530,-0.04585,-0.00648,0.00000,0.03123,0.97759,-0.18605,0.0,2023,6,7,16,14,25,500
45.13540,-0.22085,0.08102,0.00000,0.03123,0.97624,-0.18666,0.0,2023,6,7,16,14,25,519
45.13550,0.04165,-0.09398,0.00000,0.03257,0.97576,-0.18678,0.0,2023,6,7,16,14,25,538
45.13560,-0.04585,-0.12898,0.00000,0.02830,0.97576,-0.18507,0.0,2023,6,7,16,14,25,556
45.13570,-0.15085,-0.11148,0.00000,0.02940,0.97954,-0.18666,0.0,2023,6,7,16,14,25,575
45.13580,0.00665,-0.19898,0.00000,0.03196,0.97429,-0.18764,0.0,2023,6,7,16,14,25,594
45.13590,0.07665,0.20352,0.00000,0.03355,0.97637,-0.18715,0.0,2023,6,7,16,14,25,613
45.13600,0.11165,-0.05898,0.00000,0.03367,0.97624,-0.18849,0.0,2023,6,7,16,14,25,632
45.13610,0.07665,-0.09398,0.00000,0.02965,0.97600,-0.18873,0.0,2023,6,7,16,14,25,651
45.13620,0.07665,0.06352,0.00000,0.03172,0.97783,-0.18471,0.0,2023,6,7,16,14,26,0
45.13630,0.07665,0.02852,0.00000,0.03123,0.97466,-0.18629,0.0,2023,6,7,16,14,26,19
45.13640,0.12915,-0.07648,0.00000,0.03270,0.97698,-0.18666,0.0,2023,6,7,16,14,26,38
45.13650,-0.09835,0.11602,0.00000,0.03135,0.97978,-0.18715,0.0,2023,6,7,16,14,26,57
45.13660,0.04165,-0.05898,0.00000,0.03209,0.97624,-0.18605,0.0,2023,6,7,16,14,26,75
45.13670,-0.09835,-0.07648,0.00000,0.03111,0.97271,-0.18825,0.0,2023,6,7,16,14,26,94
45.13680,-0.11585,-0.28648,0.00000,0.03111,0.97637,-0.18703,0.0,2023,6,7,16,14,26,113
45.13690,-0.01085,0.13352,0.00000,0.02916,0.97576,-0.18922,0.0,2023,6,7,16,14,26,132
45.13700,0.02415,0.08102,0.00000,0.03367,0.97795,-0.18678,0.0,2023,6,7,16,14,26,151
45.13710,-0.01085,-0.09398,0.00000,0.02952,0.97563,-0.18910,0.0,2023,6,7,16,14,26,170
45.13720,0.05915,-0.12898,0.00000,0.02989,0.97588,-0.18886,0.0,2023,6,7,16,14,26,189
45.13730,-0.06335,-0.04148,0.00000,0.03257,0.97722,-0.18788,0.0,2023,6,7,16,14,26,208
45.13740,0.00665,0.15102,0.00000,0.03245,0.97441,-0.18678,0.0,2023,6,7,16,14,26,227
45.13750,0.07665,-0.07648,0.00000,0.03343,0.97527,-0.18690,0.0,2023,6,7,16,14,26,246
45.13760,0.18165,-0.00648,0.00000,0.03160,0.97637,-0.18739,0.0,2023,6,7,16,14,26,264
45.13770,0.00665,-0.07648,0.00000,0.03099,0.97649,-0.18727,0.0,2023,6,7,16,14,26,283
45.13780,0.11165,-0.04148,0.00000,0.03135,0.98039,-0.18715,0.0,2023,6,7,16,14,26,302
45.13790,0.00665,-0.07648,0.00000,0.03209,0.97649,-0.18666,0.0,2023,6,7,16,14,26,321
45.13800,0.19915,-0.19898,0.00000,0.03196,0.97612,-0.18995,0.0,2023,6,7,16,14,26,340
45.13810,-0.04585,-0.12898,0.00000,0.03148,0.97710,-0.18703,0.0,2023,6,7,16,14,26,359
45.13820,-0.08085,-0.00648,0.00000,0.03160,0.97612,-0.18812,0.0,2023,6,7,16,14,26,378
45.13830,-0.13335,0.08102,0.00000,0.03026,0.97454,-0.18861,0.0,2023,6,7,16,14,26,397
45.13840,-0.13335,0.34352,0.00000,0.03184,0.97661,-0.18690,0.0,2023,6,7,16,14,26,416
45.13850,-0.08085,-0.07648,0.00000,0.02891,0.97356,-0.18751,0.0,2023,6,7,16,14,26,435
45.13860,0.30415,-0.00648,0.00000,0.02940,0.97698,-0.18727,0.0,2023,6,7,16,14,26,453
45.13870,-0.08085,0.04602,0.00000,0.03099,0.97612,-0.18581,0.0,2023,6,7,16,14,26,472
45.13880,0.09415,-0.00648,0.00000,0.02879,0.97624,-0.18410,0.0,2023,6,7,16,14,26,491
45.13890,0.16415,-0.09398,0.00000,0.03099,0.97954,-0.18678,0.0,2023,6,7,16,14,26,510
45.13900,0.11165,0.01102,0.00000,0.03123,0.97722,-0.19056,0.0,2023,6,7,16,14,26,529
45.13910,0.04165,-0.14648,0.00000,0.03294,0.97685,-0.18861,0.0,2023,6,7,16,14,26,548
45.13920,0.05915,0.09852,0.00000,0.03184,0.97832,-0.18593,0.0,2023,6,7,16,14,26,567
45.13930,-0.08085,0.13352,0.00000,0.03367,0.97441,-0.18800,0.0,2023,6,7,16,14,26,586
45.13940,-0.25585,0.08102,0.00000,0.02891,0.97563,-0.19093,0.0,2023,6,7,16,14,26,605
45.13950,-0.01085,0.09852,0.00000,0.03209,0.97637,-0.18788,0.0,2023,6,7,16,14,26,624
45.13960,-0.20335,-0.12898,0.00000,0.03196,0.97368,-0.18727,0.0,2023,6,7,16,14,26,642
45.13970,0.05915,0.13352,0.00000,0.03013,0.97832,-0.18410,0.0,2023,6,7,16,14,26,661
45.13980,0.02415,0.13352,0.00000,0.03148,0.97722,-0.18715,0.0,2023,6,7,16,14,26,680
45.13990,0.19915,-0.19898,0.00000,0.03196,0.97807,-0.18812,0.0,2023,6,7,16,14,26,699
45.14000,-0.04585,0.02852,0.00000,0.03233,0.97588,-0.18959,0.0,2023,6,7,16,14,26,718
45.14010,-0.02835,0.16852,0.00000,0.03184,0.97771,-0.18568,0.0,2023,6,7,16,14,26,737
45.14020,-0.32585,0.16852,0.00000,0.02965,0.97600,-0.18812,0.0,2023,6,7,16,14,26,756
45.14030,0.00665,-0.12898,0.00000,0.03026,0.97795,-0.18678,0.0,2023,6,7,16,14,26,775
45.14040,-0.16835,-0.14648,0.00000,0.03404,0.97551,-0.18776,0.0,2023,6,7,16,14,26,794
45.14050,0.02415,-0.00648,0.00000,0.02977,0.97515,-0.18678,0.0,2023,6,7,16,14,26,813
45.14060,0.12915,-0.11148,0.00000,0.02928,0.97771,-0.19227,0.0,2023,6,7,16,14,26,831
45.14070,-0.11585,-0.11148,0.00000,0.03367,0.97844,-0.18544,0.0,2023,6,7,16,14,26,850
45.14080,-0.08085,0.01102,0.00000,0.03111,0.97393,-0.18678,0.0,2023,6,7,16,14,26,869
45.14090,0.00665,-0.07648,0.00000,0.03257,0.97502,-0.18678,0.0,2023,6,7,16,14,26,888
45.14100,0.07665,-0.05898,0.00000,0.03196,0.97978,-0.18751,0.0,2023,6,7,16,14,26,907
45.14110,-0.04585,-0.07648,0.00000,0.03038,0.97685,-0.18642,0.0,2023,6,7,16,14,26,926
45.14120,0.00665,0.08102,0.00000,0.03160,0.97734,-0.18947,0.0,2023,6,7,16,14,26,945
45.14130,0.02415,0.09852,0.00000,0.03209,0.97612,-0.18825,0.0,2023,6,7,16,14,26,964
45.14140,-0.11585,0.06352,0.00000,0.03062,0.97539,-0.18886,0.0,2023,6,7,16,14,26,983
45.14150,-0.13335,0.06352,0.00000,0.03074,0.97661,-0.18788,0.0,2023,6,7,16,14,26,2
45.14160,-0.08085,-0.02398,0.00000,0.03172,0.97759,-0.18922,0.0,2023,6,7,16,14,26,20
45.14170,-0.01085,0.23852,0.00000,0.03099,0.97441,-0.18971,0.0,2023,6,7,16,14,26,39
45.14180,0.14665,-0.04148,0.00000,0.03257,0.97942,-0.18898,0.0,2023,6,7,16,14,26,58
45.14190,-0.15085,0.08102,0.00000,0.03221,0.97515,-0.18617,0.0,2023,6,7,16,14,26,77
45.14200,0.05915,0.02852,0.00000,0.03074,0.97673,-0.18788,0.0,2023,6,7,16,14,26,96
45.14210,0.02415,0.02852,0.00000,0.03233,0.97368,-0.18605,0.0,2023,6,7,16,14,26,115
45.14220,-0.15085,-0.04148,0.00000,0.03123,0.97649,-0.18812,0.0,2023,6,7,16,14,26,134
45.14230,-0.02835,-0.26898,0.00000,0.03270,0.97722,-0.18715,0.0,2023,6,7,16,14,26,153
45.14240,-0.18585,0.01102,0.00000,0.03245,0.97624,-0.18605,0.0,2023,6,7,16,14,26,172
45.14250,0.18165,-0.04148,0.00000,0.03221,0.97539,-0.18947,0.0,2023,6,7,16,14,26,191
45.14260,0.00665,-0.04148,0.00000,0.03013,0.97868,-0.18886,0.0,2023,6,7,16,14,26,209
45.14270,-0.11585,0.02852,0.00000,0.03123,0.97576,-0.18971,0.0,2023,6,7,16,14,26,228
45.14280,0.21665,-0.05898,0.00000,0.03038,0.97685,-0.18910,0.0,2023,6,7,16,14,26,247
45.14290,-0.02835,-0.07648,0.00000,0.03392,0.97673,-0.18556,0.0,2023,6,7,16,14,26,266
45.14300,-0.02835,-0.21648,0.00000,0.02891,0.97783,-0.18800,0.0,2023,6,7,16,14,26,285
45.14310,0.04165,-0.07648,0.00000,0.03013,0.97685,-0.18886,0.0,2023,6,7,16,14,26,304
45.14320,-0.08085,-0.04148,0.00000,0.03135,0.97502,-0.18703,0.0,2023,6,7,16,14,26,323
45.14330,-0.02835,-0.00648,0.00000,0.03135,0.97807,-0.18788,0.0,2023,6,7,16,14,26,342
45.14340,0.18165,-0.26898,0.00000,0.02989,0.97734,-0.18776,0.0,2023,6,7,16,14,26,361
45.14350,0.14665,0.09852,0.00000,0.03148,0.97563,-0.18849,0.0,2023,6,7,16,14,26,380
45.14360,-0.11585,0.13352,0.00000,0.03038,0.97710,-0.18861,0.0,2023,6,7,16,14,26,398
45.14370,-0.18585,0.02852,0.00000,0.03062,0.97807,-0.18666,0.0,2023,6,7,16,14,26,417
45.14380,0.19915,-0.18148,0.00000,0.02977,0.97527,-0.18703,0.0,2023,6,7,16,14,26,436
45.14390,0.00665,-0.02398,0.00000,0.03001,0.97600,-0.18764,0.0,2023,6,7,16,14,26,455
45.14400,0.19915,0.02852,0.00000,0.03355,0.97539,-0.18629,0.0,2023,6,7,16,14,26,474
45.14410,-0.01085,-0.07648,0.00000,0.03111,0.97661,-0.18544,0.0,2023,6,7,16,14,26,493
45.14420,-0.01085,-0.11148,0.00000,0.02989,0.97527,-0.18629,0.0,2023,6,7,16,14,26,512
45.14430,-0.06335,-0.11148,0.00000,0.03184,0.97795,-0.18581,0.0,2023,6,7,16,14,26,531
45.14440,-0.01085,0.06352,0.00000,0.03172,0.97527,-0.18703,0.0,2023,6,7,16,14,26,550
45.14450,0.21665,-0.18148,0.00000,0.02977,0.97685,-0.18776,0.0,2023,6,7,16,14,26,569
45.14460,0.00665,-0.00648,0.00000,0.03074,0.97612,-0.18886,0.0,2023,6,7,16,14,26,587
45.14470,0.09415,-0.21648,0.00000,0.03270,0.97576,-0.18666,0.0,2023,6,7,16,14,26,606
45.14480,0.05915,-0.07648,0.00000,0.03221,0.97539,-0.18666,0.0,2023,6,7,16,14,26,625
45.14490,0.04165,0.02852,0.00000,0.03099,0.97942,-0.18861,0.0,2023,6,7,16,14,26,644
45.14500,0.05915,0.09852,0.00000,0.03135,0.97551,-0.18825,0.0,2023,6,7,16,14,26,663
45.14510,0.16415,-0.16398,0.00000,0.03233,0.97868,-0.18776,0.0,2023,6,7,16,14,26,682
45.14520,-0.16835,0.01102,0.00000,0.03221,0.97283,-0.18678,0.0,2023,6,7,16,14,27,1
45.14530,-0.13335,-0.16398,0.00000,0.03074,0.97929,-0.18812,0.0,2023,6,7,16,14,27,20
45.14540,-0.02835,-0.02398,0.00000,0.03148,0.97624,-0.18947,0.0,2023,6,7,16,14,27,39
45.14550,0.00665,0.02852,0.00000,0.02904,0.97588,-0.18727,0.0,2023,6,7,16,14,27,58
45.14560,0.07665,-0.21648,0.00000,0.03209,0.97502,-0.18678,0.0,2023,6,7,16,14,27,76
45.14570,0.04165,0.01102,0.00000,0.03160,0.97698,-0.18654,0.0,2023,6,7,16,14,27,95
45.14580,-0.08085,0.04602,0.00000,0.02952,0.97576,-0.18678,0.0,2023,6,7,16,14,27,114
45.14590,0.05915,0.09852,0.00000,0.03355,0.97588,-0.19093,0.0,2023,6,7,16,14,27,133
45.14600,0.32165,-0.12898,0.00000,0.03233,0.97563,-0.18886,0.0,2023,6,7,16,14,27,152
45.14610,-0.01085,-0.14648,0.00000,0.03233,0.97734,-0.18605,0.0,2023,6,7,16,14,27,171
45.14620,0.00665,0.01102,0.00000,0.03245,0.97563,-0.18788,0.0,2023,6,7,16,14,27,190
45.14630,0.02415,0.08102,0.00000,0.03111,0.97588,-0.18849,0.0,2023,6,7,16,14,27,209
45.14640,-0.09835,0.08102,0.00000,0.02952,0.97588,-0.18861,0.0,2023,6,7,16,14,27,228
45.14650,-0.06335,0.01102,0.00000,0.03221,0.97820,-0.18532,0.0,2023,6,7,16,14,27,247
45.14660,0.00665,-0.07648,0.00000,0.03209,0.97588,-0.18715,0.0,2023,6,7,16,14,27,265
45.14670,-0.15085,0.18602,0.00000,0.03038,0.97661,-0.18910,0.0,2023,6,7,16,14,27,284
45.14680,-0.01085,-0.09398,0.00000,0.03245,0.97673,-0.18971,0.0,2023,6,7,16,14,27,303
45.14690,-0.20335,-0.07648,0.00000,0.03306,0.97454,-0.18581,0.0,2023,6,7,16,14,27,322
45.14700,-0.15085,-0.12898,0.00000,0.03001,0.97600,-0.18776,0.0,2023,6,7,16,14,27,341
45.14710,0.18165,-0.12898,0.00000,0.03160,0.97661,-0.18581,0.0,2023,6,7,16,14,27,360
45.14720,0.02415,-0.11148,0.00000,0.03257,0.97795,-0.18886,0.0,2023,6,7,16,14,27,379
45.14730,-0.09835,0.02852,0.00000,0.03294,0.97710,-0.18727,0.0,2023,6,7,16,14,27,398
45.14740,0.04165,-0.07648,0.00000,0.02965,0.97795,-0.18605,0.0,2023,6,7,16,14,27,417
45.14750,-0.11585,-0.05898,0.00000,0.03160,0.97698,-0.18837,0.0,2023,6,7,16,14,27,436
45.14760,0.05915,-0.00648,0.00000,0.03074,0.97637,-0.18910,0.0,2023,6,7,16,14,27,454
45.14770,0.14665,-0.00648,0.00000,0.02940,0.97917,-0.18678,0.0,2023,6,7,16,14,27,473
45.14780,0.00665,0.01102,0.00000,0.02952,0.97612,-0.19032,0.0,2023,6,7,16,14,27,492
45.14790,0.14665,-0.09398,0.00000,0.02952,0.97600,-0.18776,0.0,2023,6,7,16,14,27,511
45.14800,0.09415,0.04602,0.00000,0.03233,0.97820,-0.19081,0.0,2023,6,7,16,14,27,530
45.14810,0.00665,0.08102,0.00000,0.02977,0.97698,-0.18678,0.0,2023,6,7,16,14,27,549
45.14820,0.11165,0.06352,0.00000,0.03233,0.97393,-0.18581,0.0,2023,6,7,16,14,27,568
45.14830,-0.11585,0.08102,0.00000,0.03111,0.97698,-0.18678,0.0,2023,6,7,16,14,27,587
45.14840,-0.16835,0.09852,0.00000,0.03013,0.97576,-0.18739,0.0,2023,6,7,16,14,27,606
45.14850,0.07665,-0.11148,0.00000,0.03196,0.97807,-0.18666,0.0,2023,6,7,16,14,27,625
45.14860,-0.06335,-0.05898,0.00000,0.03184,0.97722,-0.18837,0.0,2023,6,7,16,14,27,643
45.14870,0.04165,0.16852,0.00000,0.03087,0.97405,-0.18727,0.0,2023,6,7,16,14,27,662
45.14880,0.09415,-0.05898,0.00000,0.03184,0.97893,-0.18715,0.0,2023,6,7,16,14,27,681
45.14890,-0.06335,-0.09398,0.00000,0.03172,0.97588,-0.18520,0.0,2023,6,7,16,14,27,700
45.14900,-0.09835,0.08102,0.00000,0.03087,0.97624,-0.18581,0.0,2023,6,7,16,14,27,719
45.14910,0.05915,-0.04148,0.00000,0.02940,0.97881,-0.18751,0.0,2023,6,7,16,14,27,738
45.14920,0.02415,-0.12898,0.00000,0.03111,0.97551,-0.18800,0.0,2023,6,7,16,14,27,757
45.14930,0.00665,0.01102,0.00000,0.03148,0.97612,-0.18654,0.0,2023,6,7,16,14,27,776
45.14940,0.09415,-0.00648,0.00000,0.02952,0.97624,-0.18886,0.0,2023,6,7,16,14,27,795
45.14950,0.11165,0.11602,0.00000,0.03001,0.97637,-0.18825,0.0,2023,6,7,16,14,27,814
45.14960,0.11165,-0.16398,0.00000,0.03209,0.97527,-0.18995,0.0,2023,6,7,16,14,27,832
45.14970,-0.01085,-0.00648,0.00000,0.03209,0.97832,-0.18764,0.0,2023,6,7,16,14,27,851
45.14980,-0.08085,0.06352,0.00000,0.03074,0.97685,-0.18495,0.0,2023,6,7,16,14,27,870
45.14990,-0.16835,-0.18148,0.00000,0.03221,0.97673,-0.18715,0.0,2023,6,7,16,14,27,889
45.15000,0.09415,0.01102,0.00000,0.03196,0.97612,-0.18983,0.0,2023,6,7,16,14,27,908
45.15010,-0.13335,-0.09398,0.00000,0.03416,0.97490,-0.18495,0.0,2023,6,7,16,14,27,927
45.15020,0.19915,0.04602,0.00000,0.03050,0.97551,-0.18910,0.0,2023,6,7,16,14,27,946
45.15030,0.19915,-0.44398,0.00000,0.03196,0.97417,-0.18739,0.0,2023,6,7,16,14,27,965
45.15040,-0.23835,0.01102,0.00000,0.03367,0.97429,-0.18849,0.0,2023,6,7,16,14,27,984
45.15050,0.05915,0.22102,0.00000,0.03038,0.97783,-0.18959,0.0,2023,6,7,16,14,27,3
45.15060,0.14665,-0.02398,0.00000,0.03148,0.97661,-0.18788,0.0,2023,6,7,16,14,27,21
45.15070,0.04165,-0.11148,0.00000,0.03160,0.97600,-0.18703,0.0,2023,6,7,16,14,27,40
45.15080,-0.01085,0.15102,0.00000,0.03160,0.97515,-0.18959,0.0,2023,6,7,16,14,27,59
45.15090,-0.08085,0.18602,0.00000,0.03306,0.97685,-0.18715,0.0,2023,6,7,16,14,27,78
45.15100,-0.04585,0.11602,0.00000,0.02916,0.97673,-0.18654,0.0,2023,6,7,16,14,27,97
45.15110,0.00665,0.02852,0.00000,0.02952,0.97722,-0.18764,0.0,2023,6,7,16,14,27,116
45.15120,-0.04585,-0.11148,0.00000,0.03013,0.97661,-0.18581,0.0,2023,6,7,16,14,27,135
45.15130,-0.01085,0.09852,0.00000,0.03038,0.97685,-0.18581,0.0,2023,6,7,16,14,27,154
45.15140,-0.06335,0.16852,0.00000,0.03306,0.97405,-0.18886,0.0,2023,6,7,16,14,27,173
45.15150,0.21665,0.09852,0.00000,0.03135,0.97820,-0.18715,0.0,2023,6,7,16,14,27,192
45.15160,-0.04585,-0.16398,0.00000,0.02989,0.97734,-0.18812,0.0,2023,6,7,16,14,27,210
45.15170,-0.02835,0.25602,0.00000,0.03172,0.97600,-0.18825,0.0,2023,6,7,16,14,27,229
45.15180,0.07665,-0.19898,0.00000,0.03196,0.97685,-0.18459,0.0,2023,6,7,16,14,27,248
45.15190,0.05915,0.02852,0.00000,0.03245,0.97539,-0.18666,0.0,2023,6,7,16,14,27,267
45.15200,0.18165,0.09852,0.00000,0.03099,0.97246,-0.18776,0.0,2023,6,7,16,14,27,286
45.15210,0.11165,-0.07648,0.00000,0.03172,0.97722,-0.18983,0.0,2023,6,7,16,14,27,305
45.15220,-0.02835,0.02852,0.00000,0.03123,0.97624,-0.18739,0.0,2023,6,7,16,14,27,324
45.15230,-0.02835,-0.05898,0.00000,0.03245,0.97637,-0.18629,0.0,2023,6,7,16,14,27,343
45.15240,0.19915,-0.09398,0.00000,0.03087,0.97454,-0.18751,0.0,2023,6,7,16,14,27,362
45.15250,0.14665,0.20352,0.00000,0.03123,0.97710,-0.18873,0.0,2023,6,7,16,14,27,381
45.15260,0.02415,0.01102,0.00000,0.03233,0.97319,-0.18459,0.0,2023,6,7,16,14,27,399
45.15270,0.09415,-0.19898,0.00000,0.03111,0.97685,-0.18715,0.0,2023,6,7,16,14,27,418
45.15280,0.14665,-0.09398,0.00000,0.03209,0.97698,-0.18678,0.0,2023,6,7,16,14,27,437
45.15290,0.14665,-0.21648,0.00000,0.03160,0.97807,-0.18483,0.0,2023,6,7,16,14,27,456
45.15300,-0.15085,-0.11148,0.00000,0.03245,0.97490,-0.18861,0.0,2023,6,7,16,14,27,475
45.15310,0.00665,0.29102,0.00000,0.02843,0.97563,-0.18800,0.0,2023,6,7,16,14,27,494
45.15320,-0.22085,-0.05898,0.00000,0.03184,0.97649,-0.18654,0.0,2023,6,7,16,14,27,513
45.15330,-0.11585,0.02852,0.00000,0.03013,0.97722,-0.18788,0.0,2023,6,7,16,14,27,532
45.15340,-0.02835,0.04602,0.00000,0.03026,0.97698,-0.18910,0.0,2023,6,7,16,14,27,551
45.15350,0.11165,-0.02398,0.00000,0.03050,0.97551,-0.18690,0.0,2023,6,7,16,14,27,570
45.15360,-0.22085,-0.05898,0.00000,0.03233,0.97600,-0.18703,0.0,2023,6,7,16,14,27,588
45.15370,-0.06335,-0.16398,0.00000,0.03050,0.97649,-0.18764,0.0,2023,6,7,16,14,27,607
45.15380,0.09415,0.06352,0.00000,0.03245,0.97771,-0.18751,0.0,2023,6,7,16,14,27,626
45.15390,0.04165,0.02852,0.00000,0.03184,0.98039,-0.18825,0.0,2023,6,7,16,14,27,645
45.15400,0.00665,-0.00648,0.00000,0.03294,0.97588,-0.18593,0.0,2023,6,7,16,14,27,664
45.15410,0.16415,-0.11148,0.00000,0.03050,0.97649,-0.18642,0.0,2023,6,7,16,14,28,3
45.15420,-0.11585,-0.07648,0.00000,0.03257,0.97612,-0.18568,0.0,2023,6,7,16,14,28,22
45.15430,-0.09835,0.08102,0.00000,0.03184,0.97795,-0.18666,0.0,2023,6,7,16,14,28,41
45.15440,0.00665,-0.02398,0.00000,0.02635,0.97624,-0.18812,0.0,2023,6,7,16,14,28,60
45.15450,0.04165,0.04602,0.00000,0.03062,0.97563,-0.18800,0.0,2023,6,7,16,14,28,79
45.15460,-0.32585,0.08102,0.00000,0.03184,0.97600,-0.18751,0.0,2023,6,7,16,14,28,97
45.15470,0.18165,0.06352,0.00000,0.03062,0.97905,-0.18873,0.0,2023,6,7,16,14,28,116
45.15480,0.05915,-0.04148,0.00000,0.03160,0.97588,-0.18715,0.0,2023,6,7,16,14,28,135
45.15490,-0.02835,-0.05898,0.00000,0.03099,0.97746,-0.18825,0.0,2023,6,7,16,14,28,154
45.15500,0.12915,-0.09398,0.00000,0.03013,0.97685,-0.18556,0.0,2023,6,7,16,14,28,173
45.15510,-0.04585,0.02852,0.00000,0.02989,0.97771,-0.18849,0.0,2023,6,7,16,14,28,192
45.15520,0.09415,-0.04148,0.00000,0.03074,0.97868,-0.18800,0.0,2023,6,7,16,14,28,211
45.15530,-0.01085,0.06352,0.00000,0.02879,0.97637,-0.18861,0.0,2023,6,7,16,14,28,230
45.15540,0.16415,-0.07648,0.00000,0.03245,0.97515,-0.19044,0.0,2023,6,7,16,14,28,249
45.15550,0.04165,0.01102,0.00000,0.03148,0.97746,-0.18556,0.0,2023,6,7,16,14,28,268
45.15560,-0.01085,-0.04148,0.00000,0.03270,0.97612,-0.18544,0.0,2023,6,7,16,14,28,286
45.15570,-0.08085,0.02852,0.00000,0.03257,0.97637,-0.18764,0.0,2023,6,7,16,14,28,305
45.15580,-0.02835,-0.16398,0.00000,0.02916,0.97624,-0.18910,0.0,2023,6,7,16,14,28,324
45.15590,-0.04585,0.01102,0.00000,0.03209,0.97746,-0.18751,0.0,2023,6,7,16,14,28,343
45.15600,0.00665,-0.16398,0.00000,0.03038,0.97600,-0.18678,0.0,2023,6,7,16,14,28,362
45.15610,-0.08085,0.02852,0.00000,0.03233,0.97722,-0.18593,0.0,2023,6,7,16,14,28,381
45.15620,-0.15085,0.08102,0.00000,0.03257,0.97478,-0.18886,0.0,2023,6,7,16,14,28,400
45.15630,0.19915,-0.00648,0.00000,0.03172,0.97893,-0.18776,0.0,2023,6,7,16,14,28,419
45.15640,-0.15085,-0.02398,0.00000,0.03184,0.97771,-0.18520,0.0,2023,6,7,16,14,28,438
45.15650,0.11165,-0.11148,0.00000,0.03087,0.97563,-0.18947,0.0,2023,6,7,16,14,28,457
45.15660,0.14665,-0.14648,0.00000,0.03160,0.97429,-0.18459,0.0,2023,6,7,16,14,28,475
45.15670,0.02415,0.02852,0.00000,0.03038,0.97673,-0.18947,0.0,2023,6,7,16,14,28,494
45.15680,-0.15085,-0.16398,0.00000,0.03001,0.97624,-0.18849,0.0,2023,6,7,16,14,28,513
45.15690,0.02415,0.04602,0.00000,0.03294,0.97759,-0.18581,0.0,2023,6,7,16,14,28,532
45.15700,0.05915,-0.18148,0.00000,0.03233,0.97502,-0.18703,0.0,2023,6,7,16,14,28,551
45.15710,0.19915,-0.05898,0.00000,0.03074,0.97637,-0.19130,0.0,2023,6,7,16,14,28,570
45.15720,0.28665,0.02852,0.00000,0.03135,0.97612,-0.19008,0.0,2023,6,7,16,14,28,589
45.15730,0.14665,-0.14648,0.00000,0.02928,0.97502,-0.18898,0.0,2023,6,7,16,14,28,608
45.15740,-0.08085,-0.11148,0.00000,0.03050,0.97612,-0.18812,0.0,2023,6,7,16,14,28,627
45.15750,-0.04585,-0.19898,0.00000,0.03318,0.97942,-0.18837,0.0,2023,6,7,16,14,28,646
45.15760,-0.01085,-0.09398,0.00000,0.03111,0.97649,-0.18886,0.0,2023,6,7,16,14,28,664
45.15770,0.05915,-0.09398,0.00000,0.03087,0.97490,-0.19081,0.0,2023,6,7,16,14,28,683
45.15780,-0.02835,0.01102,0.00000,0.03038,0.97759,-0.19166,0.0,2023,6,7,16,14,28,702
45.15790,-0.15085,-0.12898,0.00000,0.03038,0.97649,-0.18605,0.0,2023,6,7,16,14,28,721
45.15800,-0.08085,-0.16398,0.00000,0.03209,0.97600,-0.18727,0.0,2023,6,7,16,14,28,740
45.15810,0.02415,-0.02398,0.00000,0.03001,0.97576,-0.18642,0.0,2023,6,7,16,14,28,759
45.15820,0.02415,-0.14648,0.00000,0.03123,0.97612,-0.18751,0.0,2023,6,7,16,14,28,778
45.15830,-0.06335,-0.09398,0.00000,0.03135,0.97454,-0.18922,0.0,2023,6,7,16,14,28,797
45.15840,0.09415,-0.21648,0.00000,0.03282,0.97722,-0.18520,0.0,2023,6,7,16,14,28,816
45.15850,-0.18585,0.04602,0.00000,0.03318,0.97893,-0.18507,0.0,2023,6,7,16,14,28,835
45.15860,0.14665,0.09852,0.00000,0.02940,0.97893,-0.18959,0.0,2023,6,7,16,14,28,853
45.15870,-0.01085,-0.09398,0.00000,0.03074,0.97929,-0.18812,0.0,2023,6,7,16,14,28,872
45.15880,0.00665,0.08102,0.00000,0.02916,0.97637,-0.18727,0.0,2023,6,7,16,14,28,891
45.15890,0.12915,-0.04148,0.00000,0.03026,0.97612,-0.18788,0.0,2023,6,7,16,14,28,910
45.15900,0.02415,-0.00648,0.00000,0.02965,0.97771,-0.18947,0.0,2023,6,7,16,14,28,929
45.15910,-0.18585,0.13352,0.00000,0.03050,0.97783,-0.18532,0.0,2023,6,7,16,14,28,948
45.15920,0.02415,0.02852,0.00000,0.02708,0.97612,-0.18910,0.0,2023,6,7,16,14,28,967
45.15930,0.19915,-0.30398,0.00000,0.03038,0.97685,-0.18385,0.0,2023,6,7,16,14,28,986
45.15940,-0.20335,-0.04148,0.00000,0.03148,0.97722,-0.18715,0.0,2023,6,7,16,14,28,5
45.15950,0.09415,-0.07648,0.00000,0.03111,0.97746,-0.18825,0.0,2023,6,7,16,14,28,24
45.15960,0.04165,0.09852,0.00000,0.03123,0.97746,-0.19032,0.0,2023,6,7,16,14,28,42
45.15970,-0.11585,0.11602,0.00000,0.03331,0.97466,-0.18629,0.0,2023,6,7,16,14,28,61
45.15980,0.07665,-0.04148,0.00000,0.03001,0.97661,-0.18751,0.0,2023,6,7,16,14,28,80
45.15990,-0.06335,-0.19898,0.00000,0.03148,0.97759,-0.18886,0.0,2023,6,7,16,14,28,99
45.16000,0.04165,0.11602,0.00000,0.03123,0.97637,-0.18898,0.0,2023,6,7,16,14,28,118
45.16010,0.09415,0.09852,0.00000,0.03062,0.97661,-0.18800,0.0,2023,6,7,16,14,28,137
45.16020,-0.13335,-0.07648,0.00000,0.03087,0.97673,-0.18837,0.0,2023,6,7,16,14,28,156
45.16030,-0.11585,0.25602,0.00000,0.02928,0.97600,-0.18764,0.0,2023,6,7,16,14,28,175
45.16040,0.39165,-0.16398,0.00000,0.03123,0.97612,-0.18800,0.0,2023,6,7,16,14,28,194
45.16050,0.07665,-0.19898,0.00000,0.03148,0.97551,-0.18666,0.0,2023,6,7,16,14,28,213
45.16060,-0.13335,0.09852,0.00000,0.03050,0.97502,-0.18776,0.0,2023,6,7,16,14,28,231
45.16070,0.14665,-0.09398,0.00000,0.03245,0.97783,-0.18654,0.0,2023,6,7,16,14,28,250
45.16080,-0.09835,-0.14648,0.00000,0.03050,0.97905,-0.18886,0.0,2023,6,7,16,14,28,269
45.16090,-0.04585,-0.02398,0.00000,0.03245,0.97441,-0.18520,0.0,2023,6,7,16,14,28,288
45.16100,0.11165,-0.02398,0.00000,0.03087,0.97661,-0.18825,0.0,2023,6,7,16,14,28,307
45.16110,0.12915,-0.19898,0.00000,0.03001,0.97417,-0.18886,0.0,2023,6,7,16,14,28,326
45.16120,-0.09835,-0.04148,0.00000,0.03038,0.97490,-0.18727,0.0,2023,6,7,16,14,28,345
45.16130,-0.30835,0.25602,0.00000,0.03026,0.97588,-0.18727,0.0,2023,6,7,16,14,28,364
45.16140,-0.02835,0.04602,0.00000,0.03172,0.97710,-0.18532,0.0,2023,6,7,16,14,28,383
45.16150,0.07665,-0.16398,0.00000,0.02989,0.97710,-0.18751,0.0,2023,6,7,16,14,28,402
45.16160,-0.20335,0.09852,0.00000,0.03123,0.97624,-0.18947,0.0,2023,6,7,16,14,28,420
45.16170,-0.04585,-0.07648,0.00000,0.03099,0.97576,-0.18446,0.0,2023,6,7,16,14,28,439
45.16180,-0.09835,0.09852,0.00000,0.03013,0.97380,-0.18764,0.0,2023,6,7,16,14,28,458
45.16190,0.05915,0.01102,0.00000,0.03257,0.97563,-0.18593,0.0,2023,6,7,16,14,28,477
45.16200,0.14665,0.15102,0.00000,0.02989,0.97588,-0.18727,0.0,2023,6,7,16,14,28,496
45.16210,-0.01085,-0.00648,0.00000,0.03355,0.97856,-0.18446,0.0,2023,6,7,16,14,28,515
45.16220,-0.09835,0.06352,0.00000,0.03221,0.97441,-0.18678,0.0,2023,6,7,16,14,28,534
45.16230,0.19915,-0.16398,0.00000,0.03111,0.97624,-0.18764,0.0,2023,6,7,16,14,28,553
45.16240,0.28665,-0.19898,0.00000,0.03160,0.97807,-0.18678,0.0,2023,6,7,16,14,28,572
45.16250,0.19915,-0.07648,0.00000,0.02818,0.97563,-0.18568,0.0,2023,6,7,16,14,28,591
45.16260,-0.02835,-0.07648,0.00000,0.03209,0.97527,-0.18849,0.0,2023,6,7,16,14,28,609
45.16270,0.04165,0.02852,0.00000,0.03062,0.97417,-0.18715,0.0,2023,6,7,16,14,28,628
45.16280,0.19915,-0.12898,0.00000,0.03209,0.97710,-0.18825,0.0,2023,6,7,16,14,28,647
45.16290,0.23415,-0.11148,0.00000,0.03062,0.97563,-0.18751,0.0,2023,6,7,16,14,28,666
45.16300,0.00665,-0.30398,0.00000,0.03221,0.97649,-0.18739,0.0,2023,6,7,16,14,29,5
45.16310,0.12915,0.06352,0.00000,0.03221,0.97759,-0.18727,0.0,2023,6,7,16,14,29,24
45.16320,0.07665,-0.16398,0.00000,0.03062,0.97807,-0.18971,0.0,2023,6,7,16,14,29,43
45.16330,0.07665,0.04602,0.00000,0.03245,0.97637,-0.18654,0.0,2023,6,7,16,14,29,62
45.16340,0.07665,-0.02398,0.00000,0.03196,0.97807,-0.18825,0.0,2023,6,7,16,14,29,81
45.16350,-0.04585,-0.05898,0.00000,0.03111,0.97612,-0.18666,0.0,2023,6,7,16,14,29,100
45.16360,-0.02835,-0.18148,0.00000,0.03404,0.97698,-0.18654,0.0,2023,6,7,16,14,29,118
45.16370,0.05915,-0.11148,0.00000,0.03074,0.97649,-0.18800,0.0,2023,6,7,16,14,29,137
45.16380,-0.01085,-0.00648,0.00000,0.03135,0.97576,-0.18642,0.0,2023,6,7,16,14,29,156
45.16390,0.00665,0.01102,0.00000,0.02952,0.97722,-0.18800,0.0,2023,6,7,16,14,29,175
45.16400,0.00665,-0.02398,0.00000,0.02830,0.97673,-0.18654,0.0,2023,6,7,16,14,29,194
45.16410,0.09415,-0.32148,0.00000,0.03001,0.97637,-0.18727,0.0,2023,6,7,16,14,29,213
45.16420,0.16415,0.13352,0.00000,0.03087,0.97624,-0.18812,0.0,2023,6,7,16,14,29,232
45.16430,0.00665,-0.14648,0.00000,0.03062,0.97539,-0.18605,0.0,2023,6,7,16,14,29,251
45.16440,-0.06335,-0.04148,0.00000,0.03123,0.97795,-0.18605,0.0,2023,6,7,16,14,29,270
45.16450,0.04165,-0.00648,0.00000,0.03196,0.97722,-0.18703,0.0,2023,6,7,16,14,29,289
45.16460,-0.08085,0.04602,0.00000,0.03245,0.97649,-0.18812,0.0,2023,6,7,16,14,29,307
45.16470,0.12915,-0.35648,0.00000,0.03087,0.97734,-0.18898,0.0,2023,6,7,16,14,29,326
45.16480,0.07665,0.11602,0.00000,0.02867,0.97637,-0.18654,0.0,2023,6,7,16,14,29,345
45.16490,-0.02835,-0.02398,0.00000,0.03062,0.97563,-0.18739,0.0,2023,6,7,16,14,29,364
45.16500,-0.04585,0.09852,0.00000,0.03233,0.97661,-0.18959,0.0,2023,6,7,16,14,29,383
45.16510,-0.20335,0.13352,0.00000,0.03172,0.97649,-0.18776,0.0,2023,6,7,16,14,29,402
45.16520,-0.13335,0.13352,0.00000,0.03209,0.97637,-0.18751,0.0,2023,6,7,16,14,29,421
45.16530,0.04165,0.06352,0.00000,0.03050,0.97539,-0.18849,0.0,2023,6,7,16,14,29,440
45.16540,-0.15085,-0.12898,0.00000,0.03038,0.97576,-0.18739,0.0,2023,6,7,16,14,29,459
45.16550,0.12915,-0.04148,0.00000,0.03013,0.97380,-0.18898,0.0,2023,6,7,16,14,29,478
45.16560,0.04165,0.04602,0.00000,0.03245,0.97710,-0.18739,0.0,2023,6,7,16,14,29,496
45.16570,0.11165,0.01102,0.00000,0.03111,0.97612,-0.18825,0.0,2023,6,7,16,14,29,515
45.16580,0.02415,0.02852,0.00000,0.03184,0.97588,-0.18727,0.0,2023,6,7,16,14,29,534
45.16590,-0.18585,0.22102,0.00000,0.03074,0.97734,-0.18666,0.0,2023,6,7,16,14,29,553
45.16600,-0.23835,-0.00648,0.00000,0.03038,0.97539,-0.18666,0.0,2023,6,7,16,14,29,572
45.16610,-0.04585,-0.04148,0.00000,0.02916,0.97527,-0.18690,0.0,2023,6,7,16,14,29,591
45.16620,0.00665,-0.12898,0.00000,0.03221,0.97551,-0.18715,0.0,2023,6,7,16,14,29,610
45.16630,0.09415,-0.04148,0.00000,0.03111,0.97710,-0.18788,0.0,2023,6,7,16,14,29,629
45.16640,-0.01085,-0.02398,0.00000,0.03111,0.97649,-0.18739,0.0,2023,6,7,16,14,29,648
45.16650,-0.09835,0.11602,0.00000,0.03062,0.97466,-0.18446,0.0,2023,6,7,16,14,29,667
45.16660,-0.11585,0.01102,0.00000,0.03123,0.97746,-0.18654,0.0,2023,6,7,16,14,29,685
45.16670,-0.13335,-0.11148,0.00000,0.03038,0.97576,-0.18800,0.0,2023,6,7,16,14,29,704
45.16680,-0.15085,-0.02398,0.00000,0.03184,0.97637,-0.18788,0.0,2023,6,7,16,14,29,723
45.16690,-0.06335,0.04602,0.00000,0.03184,0.97429,-0.18642,0.0,2023,6,7,16,14,29,742
45.16700,-0.11585,0.04602,0.00000,0.02891,0.97807,-0.18690,0.0,2023,6,7,16,14,29,761
45.16710,0.00665,0.15102,0.00000,0.03294,0.97551,-0.18776,0.0,2023,6,7,16,14,29,780
45.16720,-0.01085,0.13352,0.00000,0.03013,0.97454,-0.18983,0.0,2023,6,7,16,14,29,799
45.16730,-0.22085,-0.09398,0.00000,0.03184,0.97698,-0.18654,0.0,2023,6,7,16,14,29,818
45.16740,-0.13335,0.08102,0.00000,0.02977,0.97673,-0.18703,0.0,2023,6,7,16,14,29,837
45.16750,0.18165,-0.05898,0.00000,0.03062,0.97820,-0.18751,0.0,2023,6,7,16,14,29,856
45.16760,-0.11585,-0.09398,0.00000,0.03221,0.97746,-0.18629,0.0,2023,6,7,16,14,29,874
45.16770,0.04165,0.16852,0.00000,0.03294,0.97710,-0.18617,0.0,2023,6,7,16,14,29,893
45.16780,-0.01085,0.04602,0.00000,0.03209,0.97490,-0.18861,0.0,2023,6,7,16,14,29,912
45.16790,0.12915,-0.02398,0.00000,0.03074,0.97856,-0.18654,0.0,2023,6,7,16,14,29,931
45.16800,0.02415,-0.07648,0.00000,0.03209,0.97527,-0.18922,0.0,2023,6,7,16,14,29,950
45.16810,0.11165,0.01102,0.00000,0.03233,0.97624,-0.18568,0.0,2023,6,7,16,14,29,969
45.16820,0.04165,-0.09398,0.00000,0.03196,0.97673,-0.18617,0.0,2023,6,7,16,14,29,988
45.16830,0.25165,-0.26898,0.00000,0.03233,0.97527,-0.18629,0.0,2023,6,7,16,14,29,7
45.16840,-0.02835,-0.09398,0.00000,0.03111,0.97710,-0.18593,0.0,2023,6,7,16,14,29,26
45.16850,0.04165,0.02852,0.00000,0.03062,0.97929,-0.18593,0.0,2023,6,7,16,14,29,45
45.16860,0.04165,-0.18148,0.00000,0.03013,0.97673,-0.18812,0.0,2023,6,7,16,14,29,63
45.16870,0.02415,0.02852,0.00000,0.03135,0.97685,-0.18739,0.0,2023,6,7,16,14,29,82
45.16880,-0.06335,-0.04148,0.00000,0.03038,0.97454,-0.18837,0.0,2023,6,7,16,14,29,101
45.16890,0.07665,0.20352,0.00000,0.03355,0.97710,-0.18629,0.0,2023,6,7,16,14,29,120
45.16900,-0.08085,0.01102,0.00000,0.03184,0.97820,-0.18947,0.0,2023,6,7,16,14,29,139
45.16910,-0.08085,-0.02398,0.00000,0.03074,0.97624,-0.18995,0.0,2023,6,7,16,14,29,158
45.16920,0.12915,-0.00648,0.00000,0.03074,0.97515,-0.18690,0.0,2023,6,7,16,14,29,177
45.16930,0.04165,0.08102,0.00000,0.03099,0.97746,-0.18642,0.0,2023,6,7,16,14,29,196
45.16940,-0.15085,-0.09398,0.00000,0.03050,0.97698,-0.18812,0.0,2023,6,7,16,14,29,215
45.16950,-0.23835,0.09852,0.00000,0.03087,0.97942,-0.18837,0.0,2023,6,7,16,14,29,234
45.16960,0.12915,-0.11148,0.00000,0.03062,0.97612,-0.18800,0.0,2023,6,7,16,14,29,252
45.16970,0.16415,0.02852,0.00000,0.02904,0.97600,-0.18886,0.0,2023,6,7,16,14,29,271
45.16980,0.00665,0.08102,0.00000,0.03221,0.97710,-0.18666,0.0,2023,6,7,16,14,29,290
45.16990,-0.08085,-0.04148,0.00000,0.03050,0.97527,-0.19008,0.0,2023,6,7,16,14,29,309
45.17000,-0.09835,0.30852,0.00000,0.03087,0.97624,-0.18642,0.0,2023,6,7,16,14,29,328
45.17010,0.07665,-0.05898,0.00000,0.03331,0.97844,-0.18556,0.0,2023,6,7,16,14,29,347
45.17020,-0.11585,-0.12898,0.00000,0.03233,0.97637,-0.18703,0.0,2023,6,7,16,14,29,366
45.17030,0.09415,0.02852,0.00000,0.03221,0.97539,-0.18788,0.0,2023,6,7,16,14,29,385
45.17040,-0.11585,-0.09398,0.00000,0.03135,0.97783,-0.18556,0.0,2023,6,7,16,14,29,404
45.17050,0.09415,0.13352,0.00000,0.03233,0.97734,-0.18727,0.0,2023,6,7,16,14,29,423
45.17060,0.05915,-0.14648,0.00000,0.02891,0.97551,-0.18873,0.0,2023,6,7,16,14,29,441
45.17070,0.14665,-0.04148,0.00000,0.03367,0.97539,-0.18520,0.0,2023,6,7,16,14,29,460
45.17080,0.16415,-0.02398,0.00000,0.03148,0.97685,-0.18959,0.0,2023,6,7,16,14,29,479
45.17090,0.05915,-0.02398,0.00000,0.03062,0.97832,-0.18995,0.0,2023,6,7,16,14,29,498
45.17100,-0.04585,0.08102,0.00000,0.02904,0.97722,-0.18788,0.0,2023,6,7,16,14,29,517
45.17110,0.16415,0.01102,0.00000,0.03270,0.97600,-0.18873,0.0,2023,6,7,16,14,29,536
45.17120,-0.04585,-0.14648,0.00000,0.03062,0.97527,-0.18703,0.0,2023,6,7,16,14,29,555
45.17130,-0.09835,-0.04148,0.00000,0.03062,0.97905,-0.18678,0.0,2023,6,7,16,14,29,574
45.17140,-0.11585,0.11602,0.00000,0.03221,0.97502,-0.18593,0.0,2023,6,7,16,14,29,593
45.17150,-0.08085,-0.02398,0.00000,0.03148,0.97771,-0.18703,0.0,2023,6,7,16,14,29,612
45.17160,0.04165,0.02852,0.00000,0.03160,0.97746,-0.18788,0.0,2023,6,7,16,14,29,630
45.17170,0.11165,-0.05898,0.00000,0.03074,0.97600,-0.18959,0.0,2023,6,7,16,14,29,649
45.17180,-0.01085,0.02852,0.00000,0.02928,0.97624,-0.18825,0.0,2023,6,7,16,14,29,668
45.17190,-0.02835,0.22102,0.00000,0.03294,0.97576,-0.18544,0.0,2023,6,7,16,14,29,687
45.17200,-0.15085,0.18602,0.00000,0.03245,0.97637,-0.19056,0.0,2023,6,7,16,14,29,706
45.17210,0.12915,-0.18148,0.00000,0.03135,0.97673,-0.18788,0.0,2023,6,7,16,14,29,725
45.17220,0.05915,0.08102,0.00000,0.03087,0.97649,-0.18520,0.0,2023,6,7,16,14,30,4
45.17230,-0.04585,-0.09398,0.00000,0.03038,0.97698,-0.18605,0.0,2023,6,7,16,14,30,23
45.17240,-0.18585,-0.07648,0.00000,0.03013,0.97600,-0.18727,0.0,2023,6,7,16,14,30,42
45.17250,0.09415,-0.11148,0.00000,0.03196,0.97563,-0.18617,0.0,2023,6,7,16,14,30,61
45.17260,-0.20335,0.15102,0.00000,0.03172,0.97722,-0.18581,0.0,2023,6,7,16,14,30,79
45.17270,0.33915,-0.09398,0.00000,0.03099,0.97734,-0.18544,0.0,2023,6,7,16,14,30,98
45.17280,-0.01085,-0.00648,0.00000,0.03196,0.97441,-0.18837,0.0,2023,6,7,16,14,30,117
45.17290,-0.02835,0.06352,0.00000,0.03087,0.97856,-0.18727,0.0,2023,6,7,16,14,30,136
45.17300,-0.04585,-0.16398,0.00000,0.03087,0.97893,-0.18751,0.0,2023,6,7,16,14,30,155
45.17310,0.12915,0.08102,0.00000,0.03038,0.97563,-0.18837,0.0,2023,6,7,16,14,30,174
45.17320,-0.06335,0.02852,0.00000,0.03038,0.97710,-0.18642,0.0,2023,6,7,16,14,30,193
45.17330,0.14665,-0.18148,0.00000,0.03221,0.97832,-0.18751,0.0,2023,6,7,16,14,30,212
45.17340,0.04165,0.01102,0.00000,0.02879,0.97698,-0.18825,0.0,2023,6,7,16,14,30,231
45.17350,-0.18585,-0.07648,0.00000,0.03209,0.97881,-0.18629,0.0,2023,6,7,16,14,30,250
45.17360,-0.02835,-0.04148,0.00000,0.03221,0.97807,-0.18581,0.0,2023,6,7,16,14,30,268
45.17370,0.05915,0.08102,0.00000,0.03209,0.97893,-0.18910,0.0,2023,6,7,16,14,30,287
45.17380,0.19915,-0.00648,0.00000,0.03111,0.97685,-0.18934,0.0,2023,6,7,16,14,30,306
45.17390,-0.25585,0.32602,0.00000,0.02879,0.97588,-0.18910,0.0,2023,6,7,16,14,30,325
45.17400,-0.06335,0.15102,0.00000,0.03306,0.97515,-0.18629,0.0,2023,6,7,16,14,30,344
45.17410,-0.01085,-0.00648,0.00000,0.03111,0.97673,-0.18495,0.0,2023,6,7,16,14,30,363
45.17420,0.12915,0.11602,0.00000,0.03111,0.97563,-0.18837,0.0,2023,6,7,16,14,30,382
45.17430,-0.08085,0.13352,0.00000,0.03184,0.97588,-0.18629,0.0,2023,6,7,16,14,30,401
45.17440,-0.11585,0.04602,0.00000,0.02952,0.97624,-0.18434,0.0,2023,6,7,16,14,30,420
45.17450,-0.11585,-0.02398,0.00000,0.03245,0.97624,-0.18507,0.0,2023,6,7,16,14,30,439
45.17460,0.28665,-0.04148,0.00000,0.03099,0.97722,-0.18739,0.0,2023,6,7,16,14,30,457
45.17470,-0.06335,0.04602,0.00000,0.02916,0.97624,-0.18654,0.0,2023,6,7,16,14,30,476
45.17480,0.09415,-0.02398,0.00000,0.03099,0.97624,-0.18617,0.0,2023,6,7,16,14,30,495
45.17490,0.02415,0.09852,0.00000,0.03245,0.97624,-0.18751,0.0,2023,6,7,16,14,30,514
45.17500,-0.09835,-0.07648,0.00000,0.03245,0.97576,-0.18812,0.0,2023,6,7,16,14,30,533
45.17510,-0.15085,0.36102,0.00000,0.03343,0.97637,-0.18739,0.0,2023,6,7,16,14,30,552
45.17520,-0.02835,-0.05898,0.00000,0.03404,0.97490,-0.18593,0.0,2023,6,7,16,14,30,571
45.17530,-0.09835,-0.05898,0.00000,0.03074,0.97612,-0.18776,0.0,2023,6,7,16,14,30,590
45.17540,0.05915,0.06352,0.00000,0.02867,0.97722,-0.18739,0.0,2023,6,7,16,14,30,609
45.17550,0.09415,0.15102,0.00000,0.03001,0.97746,-0.18812,0.0,2023,6,7,16,14,30,628
45.17560,-0.22085,0.16852,0.00000,0.03221,0.97478,-0.18629,0.0,2023,6,7,16,14,30,646
45.17570,0.00665,-0.02398,0.00000,0.03038,0.97698,-0.18727,0.0,2023,6,7,16,14,30,665
45.17580,-0.11585,-0.33898,0.00000,0.03123,0.97661,-0.18739,0.0,2023,6,7,16,14,30,684
45.17590,0.07665,-0.04148,0.00000,0.03184,0.97868,-0.19069,0.0,2023,6,7,16,14,30,703
45.17600,-0.06335,-0.09398,0.00000,0.02843,0.97515,-0.18751,0.0,2023,6,7,16,14,30,722
45.17610,-0.04585,-0.11148,0.00000,0.03013,0.97588,-0.18727,0.0,2023,6,7,16,14,30,741
45.17620,0.19915,-0.16398,0.00000,0.02977,0.97563,-0.18507,0.0,2023,6,7,16,14,30,760
45.17630,-0.02835,0.27352,0.00000,0.03282,0.97515,-0.18812,0.0,2023,6,7,16,14,30,779
45.17640,0.16415,0.06352,0.00000,0.03038,0.97515,-0.18642,0.0,2023,6,7,16,14,30,798
45.17650,0.07665,-0.25148,0.00000,0.03148,0.97600,-0.18654,0.0,2023,6,7,16,14,30,817
45.17660,-0.08085,-0.04148,0.00000,0.03062,0.97759,-0.18788,0.0,2023,6,7,16,14,30,835
45.17670,0.11165,0.06352,0.00000,0.03099,0.97454,-0.18898,0.0,2023,6,7,16,14,30,854
45.17680,-0.09835,-0.09398,0.00000,0.03209,0.97539,-0.18690,0.0,2023,6,7,16,14,30,873
45.17690,0.02415,0.16852,0.00000,0.03099,0.97563,-0.18715,0.0,2023,6,7,16,14,30,892
45.17700,0.00665,0.01102,0.00000,0.03367,0.97588,-0.18593,0.0,2023,6,7,16,14,30,911
45.17710,-0.16835,0.04602,0.00000,0.03087,0.97734,-0.18764,0.0,2023,6,7,16,14,30,930
45.17720,0.04165,0.06352,0.00000,0.03209,0.97502,-0.18886,0.0,2023,6,7,16,14,30,949
45.17730,0.16415,-0.09398,0.00000,0.03062,0.97698,-0.18776,0.0,2023,6,7,16,14,30,968
45.17740,0.00665,-0.07648,0.00000,0.03404,0.97466,-0.18495,0.0,2023,6,7,16,14,30,987
45.17750,-0.01085,-0.00648,0.00000,0.03135,0.97661,-0.18764,0.0,2023,6,7,16,14,30,6
45.17760,-0.04585,-0.07648,0.00000,0.02891,0.97685,-0.18910,0.0,2023,6,7,16,14,30,24
45.17770,-0.11585,0.01102,0.00000,0.03209,0.97600,-0.18910,0.0,2023,6,7,16,14,30,43
45.17780,-0.09835,0.08102,0.00000,0.03379,0.97405,-0.18764,0.0,2023,6,7,16,14,30,62
45.17790,0.02415,-0.19898,0.00000,0.03184,0.97576,-0.18544,0.0,2023,6,7,16,14,30,81
45.17800,0.05915,-0.05898,0.00000,0.03074,0.97588,-0.18959,0.0,2023,6,7,16,14,30,100
45.17810,-0.01085,-0.21648,0.00000,0.02965,0.97600,-0.18812,0.0,2023,6,7,16,14,30,119
45.17820,0.00665,-0.05898,0.00000,0.03196,0.97600,-0.18703,0.0,2023,6,7,16,14,30,138
45.17830,-0.11585,-0.04148,0.00000,0.03209,0.97661,-0.18849,0.0,2023,6,7,16,14,30,157
45.17840,-0.01085,-0.05898,0.00000,0.03038,0.97576,-0.18629,0.0,2023,6,7,16,14,30,176
45.17850,0.04165,0.02852,0.00000,0.02977,0.97746,-0.18886,0.0,2023,6,7,16,14,30,195
45.17860,-0.09835,-0.00648,0.00000,0.03282,0.97600,-0.18666,0.0,2023,6,7,16,14,30,213
45.17870,-0.16835,0.02852,0.00000,0.03123,0.97624,-0.18532,0.0,2023,6,7,16,14,30,232
45.17880,0.07665,-0.19898,0.00000,0.03184,0.97539,-0.18398,0.0,2023,6,7,16,14,30,251
45.17890,-0.01085,0.08102,0.00000,0.03184,0.97759,-0.18898,0.0,2023,6,7,16,14,30,270
45.17900,-0.02835,-0.05898,0.00000,0.03135,0.97515,-0.18825,0.0,2023,6,7,16,14,30,289
45.17910,0.25165,0.09852,0.00000,0.02891,0.97515,-0.18666,0.0,2023,6,7,16,14,30,308
45.17920,-0.01085,-0.11148,0.00000,0.03245,0.97600,-0.18861,0.0,2023,6,7,16,14,30,327
45.17930,-0.08085,0.06352,0.00000,0.03160,0.97576,-0.18812,0.0,2023,6,7,16,14,30,346
45.17940,-0.04585,0.01102,0.00000,0.03013,0.97661,-0.18666,0.0,2023,6,7,16,14,30,365
45.17950,0.14665,0.02852,0.00000,0.03074,0.97783,-0.18739,0.0,2023,6,7,16,14,30,384
45.17960,0.00665,0.02852,0.00000,0.03160,0.97466,-0.18532,0.0,2023,6,7,16,14,30,402
45.17970,0.02415,0.15102,0.00000,0.03062,0.97624,-0.18910,0.0,2023,6,7,16,14,30,421
45.17980,0.05915,0.01102,0.00000,0.03099,0.97685,-0.18886,0.0,2023,6,7,16,14,30,440
45.17990,0.02415,-0.25148,0.00000,0.03221,0.97685,-0.18995,0.0,2023,6,7,16,14,30,459
45.18000,-0.08085,0.06352,0.00000,0.03184,0.97478,-0.18593,0.0,2023,6,7,16,14,30,478
45.18010,0.04165,-0.00648,0.00000,0.03160,0.97490,-0.18593,0.0,2023,6,7,16,14,30,497
45.18020,-0.15085,0.11602,0.00000,0.03172,0.97673,-0.18690,0.0,2023,6,7,16,14,30,516
45.18030,0.02415,-0.11148,0.00000,0.03172,0.97746,-0.18873,0.0,2023,6,7,16,14,30,535
45.18040,-0.06335,0.01102,0.00000,0.03160,0.97673,-0.18593,0.0,2023,6,7,16,14,30,554
45.18050,-0.16835,0.11602,0.00000,0.03294,0.97820,-0.19020,0.0,2023,6,7,16,14,30,573
45.18060,-0.22085,0.02852,0.00000,0.02916,0.97539,-0.18568,0.0,2023,6,7,16,14,30,591
45.18070,-0.02835,-0.09398,0.00000,0.03123,0.97502,-0.18947,0.0,2023,6,7,16,14,30,610
45.18080,0.05915,-0.14648,0.00000,0.02928,0.97734,-0.18642,0.0,2023,6,7,16,14,30,629
45.18090,0.04165,-0.11148,0.00000,0.03318,0.97515,-0.18812,0.0,2023,6,7,16,14,30,648
45.18100,0.02415,0.15102,0.00000,0.03123,0.97332,-0.18934,0.0,2023,6,7,16,14,30,667
45.18110,0.12915,-0.23398,0.00000,0.03148,0.97868,-0.18849,0.0,2023,6,7,16,14,30,686
45.18120,-0.22085,0.06352,0.00000,0.03001,0.97332,-0.18727,0.0,2023,6,7,16,14,31,5
45.18130,0.19915,-0.18148,0.00000,0.03074,0.97417,-0.18947,0.0,2023,6,7,16,14,31,24
45.18140,-0.06335,0.02852,0.00000,0.03270,0.97588,-0.18629,0.0,2023,6,7,16,14,31,43
45.18150,-0.22085,0.06352,0.00000,0.03111,0.97673,-0.18812,0.0,2023,6,7,16,14,31,62
45.18160,0.09415,0.01102,0.00000,0.03074,0.97600,-0.18812,0.0,2023,6,7,16,14,31,80
45.18170,-0.06335,0.13352,0.00000,0.03392,0.97539,-0.18349,0.0,2023,6,7,16,14,31,99
45.18180,-0.16835,0.09852,0.00000,0.03282,0.97698,-0.18605,0.0,2023,6,7,16,14,31,118
45.18190,0.26915,-0.18148,0.00000,0.03074,0.97649,-0.18959,0.0,2023,6,7,16,14,31,137
45.18200,-0.15085,0.08102,0.00000,0.03294,0.97600,-0.18849,0.0,2023,6,7,16,14,31,156
45.18210,0.00665,-0.16398,0.00000,0.02977,0.97490,-0.18800,0.0,2023,6,7,16,14,31,175
45.18220,0.04165,-0.16398,0.00000,0.03087,0.97624,-0.18751,0.0,2023,6,7,16,14,31,194
45.18230,-0.08085,0.11602,0.00000,0.03270,0.97710,-0.18959,0.0,2023,6,7,16,14,31,213
45.18240,0.30415,-0.05898,0.00000,0.03148,0.97771,-0.18934,0.0,2023,6,7,16,14,31,232
45.18250,-0.20335,-0.16398,0.00000,0.03148,0.97746,-0.18739,0.0,2023,6,7,16,14,31,251
45.18260,-0.08085,0.04602,0.00000,0.03135,0.97722,-0.18666,0.0,2023,6,7,16,14,31,269
45.18270,0.05915,0.15102,0.00000,0.03343,0.97698,-0.18544,0.0,2023,6,7,16,14,31,288
45.18280,-0.06335,0.09852,0.00000,0.02965,0.97600,-0.18812,0.0,2023,6,7,16,14,31,307
45.18290,-0.01085,0.02852,0.00000,0.03148,0.97527,-0.19044,0.0,2023,6,7,16,14,31,326
45.18300,-0.09835,-0.02398,0.00000,0.03245,0.97783,-0.18849,0.0,2023,6,7,16,14,31,345
45.18310,-0.16835,0.09852,0.00000,0.02940,0.97917,-0.18715,0.0,2023,6,7,16,14,31,364
45.18320,-0.01085,0.04602,0.00000,0.03038,0.97673,-0.18812,0.0,2023,6,7,16,14,31,383
45.18330,-0.04585,-0.07648,0.00000,0.03087,0.97624,-0.18751,0.0,2023,6,7,16,14,31,402
45.18340,-0.18585,-0.05898,0.00000,0.03379,0.97600,-0.18837,0.0,2023,6,7,16,14,31,421
45.18350,-0.02835,0.06352,0.00000,0.03245,0.97624,-0.18751,0.0,2023,6,7,16,14,31,440
45.18360,0.16415,-0.09398,0.00000,0.03087,0.97649,-0.18898,0.0,2023,6,7,16,14,31,458
45.18370,-0.01085,0.01102,0.00000,0.02891,0.97832,-0.18739,0.0,2023,6,7,16,14,31,477
