#2023/06/07 14:54:13
time,wx,wy,wz,ax,ay,az,yy,MM,dd,hh,mm,ss,ms
40.97270,0.22907,-0.44923,0.00000,0.02965,0.97563,-0.18947,0.0,2023,6,7,14,54,13,150
40.97280,-0.06842,0.07577,0.00000,0.03355,0.97649,-0.19105,0.0,2023,6,7,14,54,13,160
40.97290,0.08907,0.12827,0.00000,0.03172,0.97612,-0.19093,0.0,2023,6,7,14,54,13,170
40.97300,0.00157,0.02327,0.00000,0.03160,0.97624,-0.18837,0.0,2023,6,7,14,54,14,180
40.97310,-0.08593,0.19827,0.00000,0.03196,0.97612,-0.18971,0.0,2023,6,7,14,54,14,190
40.97320,-0.03343,0.00577,0.00000,0.03209,0.97502,-0.18995,0.0,2023,6,7,14,54,14,200
40.97330,0.19407,-0.22173,0.00000,0.03111,0.97783,-0.19142,0.0,2023,6,7,14,54,14,210
40.97340,0.01907,0.07577,0.00000,0.03050,0.97710,-0.18922,0.0,2023,6,7,14,54,14,220
40.97350,-0.06842,0.21577,0.00000,0.03306,0.97393,-0.18947,0.0,2023,6,7,14,54,14,230
40.97360,-0.10343,-0.04673,0.00000,0.03196,0.97576,-0.18910,0.0,2023,6,7,14,54,14,240
40.97370,-0.01593,-0.18673,0.00000,0.03282,0.97539,-0.19056,0.0,2023,6,7,14,54,14,250
40.97380,0.19407,-0.01173,0.00000,0.03013,0.97551,-0.18825,0.0,2023,6,7,14,54,14,260
40.97390,-0.03343,0.07577,0.00000,0.03087,0.97271,-0.18812,0.0,2023,6,7,14,54,14,270
40.97400,0.05407,0.02327,0.00000,0.03172,0.97795,-0.18983,0.0,2023,6,7,14,54,14,280
40.97410,0.07157,-0.08173,0.00000,0.03038,0.97405,-0.18886,0.0,2023,6,7,14,54,14,290
40.97420,0.00157,0.05827,0.00000,0.03111,0.97710,-0.18788,0.0,2023,6,7,14,54,14,300
40.97430,-0.03343,0.07577,0.00000,0.03233,0.97746,-0.18995,0.0,2023,6,7,14,54,14,310
40.97440,0.10657,0.09327,0.00000,0.03172,0.97820,-0.18800,0.0,2023,6,7,14,54,14,320
40.97450,-0.15593,0.02327,0.00000,0.03026,0.97698,-0.19142,0.0,2023,6,7,14,54,14,330
40.97460,0.03658,0.00577,0.00000,0.03074,0.97490,-0.18837,0.0,2023,6,7,14,54,14,340
40.97470,-0.10343,0.14577,0.00000,0.03123,0.97588,-0.18764,0.0,2023,6,7,14,54,14,350
40.97480,0.00157,-0.09923,0.00000,0.03026,0.97771,-0.18825,0.0,2023,6,7,14,54,14,360
40.97490,-0.01593,-0.09923,0.00000,0.03318,0.97539,-0.18983,0.0,2023,6,7,14,54,14,370
40.97500,0.08907,0.02327,0.00000,0.03209,0.97661,-0.19032,0.0,2023,6,7,14,54,14,380
40.97510,0.01907,0.04077,0.00000,0.03148,0.97783,-0.18959,0.0,2023,6,7,14,54,14,390
40.97520,-0.06842,0.25077,0.00000,0.03343,0.97551,-0.19191,0.0,2023,6,7,14,54,14,400
40.97530,0.03658,-0.06423,0.00000,0.03172,0.97759,-0.18861,0.0,2023,6,7,14,54,14,410
40.97540,-0.12093,0.11077,0.00000,0.03050,0.97832,-0.18886,0.0,2023,6,7,14,54,14,420
40.97550,-0.15593,0.19827,0.00000,0.03221,0.97637,-0.18971,0.0,2023,6,7,14,54,14,430
40.97560,-0.03343,0.02327,0.00000,0.03306,0.97637,-0.18971,0.0,2023,6,7,14,54,14,440
40.97570,-0.13843,0.05827,0.00000,0.03087,0.97454,-0.19276,0.0,2023,6,7,14,54,14,450
40.97580,0.00157,0.14577,0.00000,0.03294,0.97490,-0.18971,0.0,2023,6,7,14,54,14,460
40.97590,0.01907,-0.02923,0.00000,0.03257,0.97624,-0.18800,0.0,2023,6,7,14,54,14,470
40.97600,0.01907,-0.09923,0.00000,0.03160,0.97624,-0.19093,0.0,2023,6,7,14,54,14,480
40.97610,-0.05093,0.21577,0.00000,0.03428,0.97478,-0.18886,0.0,2023,6,7,14,54,14,490
40.97620,-0.10343,0.09327,0.00000,0.03013,0.97356,-0.18764,0.0,2023,6,7,14,54,14,500
40.97630,0.05407,-0.06423,0.00000,0.03209,0.97515,-0.19056,0.0,2023,6,7,14,54,14,510
40.97640,0.00157,-0.06423,0.00000,0.03245,0.97673,-0.18983,0.0,2023,6,7,14,54,14,520
40.97650,-0.01593,0.04077,0.00000,0.03245,0.97637,-0.18995,0.0,2023,6,7,14,54,14,530
40.97660,-0.12093,0.14577,0.00000,0.03270,0.97466,-0.19264,0.0,2023,6,7,14,54,14,540
40.97670,0.07157,0.05827,0.00000,0.03282,0.97698,-0.18910,0.0,2023,6,7,14,54,14,550
40.97680,0.08907,-0.13423,0.00000,0.03282,0.97649,-0.18861,0.0,2023,6,7,14,54,14,560
40.97690,-0.17342,0.07577,0.00000,0.03172,0.97746,-0.18837,0.0,2023,6,7,14,54,14,570
40.97700,0.12407,-0.02923,0.00000,0.03282,0.97759,-0.18861,0.0,2023,6,7,14,54,14,580
40.97710,0.15908,-0.09923,0.00000,0.03233,0.97478,-0.18886,0.0,2023,6,7,14,54,14,590
40.97720,-0.05093,0.07577,0.00000,0.03148,0.97807,-0.19032,0.0,2023,6,7,14,54,14,600
40.97730,0.10657,0.05827,0.00000,0.03270,0.97710,-0.18934,0.0,2023,6,7,14,54,14,610
40.97740,-0.05093,0.09327,0.00000,0.03074,0.97856,-0.18934,0.0,2023,6,7,14,54,14,620
40.97750,0.00157,-0.13423,0.00000,0.03184,0.97673,-0.18861,0.0,2023,6,7,14,54,14,630
40.97760,-0.01593,0.04077,0.00000,0.03099,0.97759,-0.18751,0.0,2023,6,7,14,54,14,640
40.97770,0.03658,0.00577,0.00000,0.03038,0.97661,-0.18959,0.0,2023,6,7,14,54,14,650
40.97780,-0.01593,-0.20423,0.00000,0.03099,0.97576,-0.18971,0.0,2023,6,7,14,54,14,660
40.97790,-0.05093,-0.02923,0.00000,0.03233,0.97649,-0.18959,0.0,2023,6,7,14,54,14,670
40.97800,0.00157,0.07577,0.00000,0.03318,0.97734,-0.18703,0.0,2023,6,7,14,54,14,680
40.97810,0.12407,-0.06423,0.00000,0.03294,0.97673,-0.19142,0.0,2023,6,7,14,54,14,690
40.97820,0.00157,0.19827,0.00000,0.03257,0.97551,-0.19008,0.0,2023,6,7,14,54,14,700
40.97830,-0.05093,0.07577,0.00000,0.03196,0.97576,-0.18776,0.0,2023,6,7,14,54,14,710
40.97840,0.01907,0.12827,0.00000,0.02989,0.97868,-0.18764,0.0,2023,6,7,14,54,14,720
40.97850,-0.05093,0.04077,0.00000,0.02721,0.97661,-0.18947,0.0,2023,6,7,14,54,14,730
40.97860,0.07157,0.04077,0.00000,0.02843,0.97673,-0.18886,0.0,2023,6,7,14,54,14,740
40.97870,-0.12093,-0.02923,0.00000,0.03331,0.97722,-0.18898,0.0,2023,6,7,14,54,14,750
40.97880,0.10657,0.02327,0.00000,0.03660,0.97478,-0.18837,0.0,2023,6,7,14,54,14,760
40.97890,0.21157,0.11077,0.00000,0.03623,0.97576,-0.18983,0.0,2023,6,7,14,54,14,770
40.97900,0.01907,-0.09923,0.00000,0.03428,0.97673,-0.18983,0.0,2023,6,7,14,54,14,780
40.97910,-0.01593,-0.09923,0.00000,0.03050,0.97746,-0.19154,0.0,2023,6,7,14,54,14,790
40.97920,0.12407,-0.01173,0.00000,0.03135,0.97771,-0.18507,0.0,2023,6,7,14,54,14,800
40.97930,-0.05093,0.19827,0.00000,0.02696,0.97649,-0.18776,0.0,2023,6,7,14,54,14,810
40.97940,0.24657,-0.11673,0.00000,0.02562,0.97771,-0.18507,0.0,2023,6,7,14,54,14,820
40.97950,0.10657,0.18077,0.00000,0.03074,0.97661,-0.18764,0.0,2023,6,7,14,54,14,830
40.97960,0.07157,-0.02923,0.00000,0.03721,0.97515,-0.18995,0.0,2023,6,7,14,54,14,840
40.97970,0.07157,-0.08173,0.00000,0.03941,0.97759,-0.19081,0.0,2023,6,7,14,54,14,850
40.97980,-0.03343,-0.09923,0.00000,0.03733,0.97637,-0.19093,0.0,2023,6,7,14,54,14,860
40.97990,0.10657,0.12827,0.00000,0.02952,0.97624,-0.19069,0.0,2023,6,7,14,54,14,870
40.98000,-0.05093,-0.16923,0.00000,0.02318,0.97673,-0.18764,0.0,2023,6,7,14,54,14,880
40.98010,-0.01593,0.25077,0.00000,0.02489,0.97759,-0.18581,0.0,2023,6,7,14,54,14,890
40.98020,-0.01593,0.12827,0.00000,0.03221,0.97905,-0.18581,0.0,2023,6,7,14,54,14,900
40.98030,0.01907,-0.02923,0.00000,0.03221,0.97832,-0.19008,0.0,2023,6,7,14,54,14,910
40.98040,0.15908,-0.25673,0.00000,0.03575,0.97673,-0.19130,0.0,2023,6,7,14,54,14,920
40.98050,0.21157,0.02327,0.00000,0.03794,0.97722,-0.19215,0.0,2023,6,7,14,54,14,930
40.98060,-0.10343,-0.06423,0.00000,0.03758,0.97710,-0.19313,0.0,2023,6,7,14,54,14,940
40.98070,0.00157,0.00577,0.00000,0.03282,0.98039,-0.19105,0.0,2023,6,7,14,54,14,950
40.98080,-0.15593,0.16327,0.00000,0.03001,0.97795,-0.18459,0.0,2023,6,7,14,54,14,960
40.98090,0.03658,0.18077,0.00000,0.02867,0.97771,-0.18032,0.0,2023,6,7,14,54,14,970
40.98100,0.21157,-0.18673,0.00000,0.02684,0.97393,-0.18715,0.0,2023,6,7,14,54,14,980
40.98110,0.19407,0.11077,0.00000,0.02916,0.97380,-0.19569,0.0,2023,6,7,14,54,14,990
40.98120,-0.08593,0.07577,0.00000,0.03343,0.97429,-0.19679,0.0,2023,6,7,14,54,14,0
40.98130,-0.45343,0.00577,0.00000,0.04038,0.97417,-0.19239,0.0,2023,6,7,14,54,14,10
40.98140,0.00157,0.09327,0.00000,0.03672,0.97783,-0.18080,0.0,2023,6,7,14,54,14,20
40.98150,-0.06842,0.12827,0.00000,0.02611,0.97661,-0.18361,0.0,2023,6,7,14,54,14,30
40.98160,0.10657,0.04077,0.00000,0.02525,0.97515,-0.19008,0.0,2023,6,7,14,54,14,40
40.98170,0.10657,0.07577,0.00000,0.03074,0.97527,-0.19191,0.0,2023,6,7,14,54,14,50
40.98180,-0.29592,-0.08173,0.00000,0.03160,0.97563,-0.19508,0.0,2023,6,7,14,54,14,60
40.98190,0.19407,-0.06423,0.00000,0.03221,0.97539,-0.19471,0.0,2023,6,7,14,54,14,70
40.98200,-0.20843,0.07577,0.00000,0.03514,0.97734,-0.18703,0.0,2023,6,7,14,54,15,80
40.98210,-0.17342,0.25077,0.00000,0.03733,0.97844,-0.18227,0.0,2023,6,7,14,54,15,90
40.98220,0.42157,0.04077,0.00000,0.03367,0.97868,-0.18263,0.0,2023,6,7,14,54,15,100
40.98230,0.29907,-0.15173,0.00000,0.02379,0.97563,-0.19593,0.0,2023,6,7,14,54,15,110
40.98240,0.12407,-0.08173,0.00000,0.02586,0.97173,-0.19508,0.0,2023,6,7,14,54,15,120
40.98250,-0.20843,-0.02923,0.00000,0.03404,0.97515,-0.19178,0.0,2023,6,7,14,54,15,130
40.98260,-0.06842,0.07577,0.00000,0.03611,0.97759,-0.18825,0.0,2023,6,7,14,54,15,140
40.98270,-0.05093,0.07577,0.00000,0.03257,0.97929,-0.18459,0.0,2023,6,7,14,54,15,150
40.98280,0.10657,0.02327,0.00000,0.03282,0.97661,-0.18532,0.0,2023,6,7,14,54,15,160
40.98290,0.28157,-0.11673,0.00000,0.02977,0.97929,-0.18654,0.0,2023,6,7,14,54,15,170
40.98300,0.17657,-0.06423,0.00000,0.02538,0.97417,-0.19410,0.0,2023,6,7,14,54,15,180
40.98310,-0.06842,0.04077,0.00000,0.02745,0.97539,-0.19691,0.0,2023,6,7,14,54,15,190
40.98320,-0.15593,-0.20423,0.00000,0.03355,0.97563,-0.18922,0.0,2023,6,7,14,54,15,200
40.98330,0.07157,-0.08173,0.00000,0.03697,0.98003,-0.18288,0.0,2023,6,7,14,54,15,210
40.98340,0.07157,0.04077,0.00000,0.03001,0.97783,-0.18398,0.0,2023,6,7,14,54,15,220
40.98350,0.26408,-0.13423,0.00000,0.02721,0.97466,-0.18788,0.0,2023,6,7,14,54,15,230
40.98360,0.03658,0.11077,0.00000,0.03050,0.97600,-0.19056,0.0,2023,6,7,14,54,15,240
40.98370,-0.05093,0.05827,0.00000,0.03465,0.97539,-0.19361,0.0,2023,6,7,14,54,15,250
40.98380,-0.17342,-0.06423,0.00000,0.03660,0.97807,-0.19374,0.0,2023,6,7,14,54,15,260
40.98390,-0.19093,0.02327,0.00000,0.03257,0.97600,-0.18764,0.0,2023,6,7,14,54,15,270
40.98400,-0.03343,0.02327,0.00000,0.03416,0.98015,-0.18349,0.0,2023,6,7,14,54,15,280
40.98410,0.08907,0.04077,0.00000,0.03038,0.97710,-0.18507,0.0,2023,6,7,14,54,15,290
40.98420,-0.03343,-0.11673,0.00000,0.02904,0.97637,-0.19105,0.0,2023,6,7,14,54,15,300
40.98430,0.08907,0.02327,0.00000,0.03074,0.97222,-0.19630,0.0,2023,6,7,14,54,15,310
40.98440,-0.10343,0.07577,0.00000,0.03428,0.97844,-0.19325,0.0,2023,6,7,14,54,15,320
40.98450,0.12407,-0.11673,0.00000,0.03648,0.97393,-0.18983,0.0,2023,6,7,14,54,15,330
40.98460,-0.06842,-0.01173,0.00000,0.03257,0.97649,-0.18593,0.0,2023,6,7,14,54,15,340
40.98470,0.03658,0.14577,0.00000,0.02977,0.97820,-0.18678,0.0,2023,6,7,14,54,15,350
40.98480,0.38657,0.07577,0.00000,0.02891,0.97771,-0.18483,0.0,2023,6,7,14,54,15,360
40.98490,0.29907,-0.13423,0.00000,0.02855,0.97588,-0.19276,0.0,2023,6,7,14,54,15,370
40.98500,-0.08593,-0.02923,0.00000,0.03074,0.97576,-0.19593,0.0,2023,6,7,14,54,15,380
40.98510,0.01907,-0.04673,0.00000,0.03221,0.97710,-0.18959,0.0,2023,6,7,14,54,15,390
40.98520,-0.15593,-0.02923,0.00000,0.03562,0.97649,-0.18678,0.0,2023,6,7,14,54,15,400
40.98530,0.19407,-0.02923,0.00000,0.03355,0.97820,-0.18495,0.0,2023,6,7,14,54,15,410
40.98540,-0.01593,-0.25673,0.00000,0.02721,0.97795,-0.18910,0.0,2023,6,7,14,54,15,420
40.98550,0.19407,-0.06423,0.00000,0.02708,0.97710,-0.19300,0.0,2023,6,7,14,54,15,430
40.98560,0.10657,-0.06423,0.00000,0.02916,0.97576,-0.19154,0.0,2023,6,7,14,54,15,440
40.98570,-0.13843,0.05827,0.00000,0.03221,0.97856,-0.19020,0.0,2023,6,7,14,54,15,450
40.98580,-0.05093,0.05827,0.00000,0.03428,0.97844,-0.18849,0.0,2023,6,7,14,54,15,460
40.98590,-0.01593,0.02327,0.00000,0.03184,0.97868,-0.18654,0.0,2023,6,7,14,54,15,470
40.98600,0.07157,0.07577,0.00000,0.03343,0.97661,-0.18593,0.0,2023,6,7,14,54,15,480
40.98610,0.35157,-0.04673,0.00000,0.03172,0.97795,-0.18983,0.0,2023,6,7,14,54,15,490
40.98620,-0.05093,0.05827,0.00000,0.02879,0.97698,-0.18959,0.0,2023,6,7,14,54,15,500
40.98630,-0.01593,0.04077,0.00000,0.03001,0.97576,-0.18971,0.0,2023,6,7,14,54,15,510
40.98640,0.19407,-0.13423,0.00000,0.03245,0.97685,-0.18934,0.0,2023,6,7,14,54,15,520
40.98650,-0.03343,-0.08173,0.00000,0.03489,0.97746,-0.18654,0.0,2023,6,7,14,54,15,530
40.98660,0.01907,0.11077,0.00000,0.03245,0.97673,-0.19093,0.0,2023,6,7,14,54,15,540
40.98670,0.00157,0.05827,0.00000,0.03282,0.97673,-0.18800,0.0,2023,6,7,14,54,15,550
40.98680,-0.15593,0.19827,0.00000,0.03294,0.97734,-0.18678,0.0,2023,6,7,14,54,15,560
40.98690,0.28157,-0.23923,0.00000,0.03062,0.97771,-0.18910,0.0,2023,6,7,14,54,15,570
40.98700,0.08907,-0.08173,0.00000,0.02721,0.97624,-0.18873,0.0,2023,6,7,14,54,15,580
40.98710,-0.03343,0.00577,0.00000,0.02647,0.97795,-0.19166,0.0,2023,6,7,14,54,15,590
40.98720,-0.01593,0.05827,0.00000,0.03196,0.97405,-0.18983,0.0,2023,6,7,14,54,15,600
40.98730,0.07157,-0.11673,0.00000,0.03489,0.97539,-0.18898,0.0,2023,6,7,14,54,15,610
40.98740,0.14158,-0.20423,0.00000,0.03819,0.97844,-0.18617,0.0,2023,6,7,14,54,15,620
40.98750,-0.13843,0.05827,0.00000,0.03172,0.97588,-0.18776,0.0,2023,6,7,14,54,15,630
40.98760,0.00157,0.30327,0.00000,0.03148,0.97539,-0.18654,0.0,2023,6,7,14,54,15,640
40.98770,0.15908,0.14577,0.00000,0.02818,0.97759,-0.19191,0.0,2023,6,7,14,54,15,650
40.98780,0.08907,0.09327,0.00000,0.02721,0.97515,-0.19239,0.0,2023,6,7,14,54,15,660
40.98790,-0.12093,0.14577,0.00000,0.03245,0.97515,-0.19008,0.0,2023,6,7,14,54,15,670
40.98800,-0.20843,-0.08173,0.00000,0.03550,0.97673,-0.18568,0.0,2023,6,7,14,54,15,680
40.98810,0.22907,0.11077,0.00000,0.03440,0.97685,-0.18593,0.0,2023,6,7,14,54,15,690
40.98820,0.15908,0.00577,0.00000,0.03196,0.97746,-0.18666,0.0,2023,6,7,14,54,15,700
40.98830,-0.03343,0.00577,0.00000,0.03257,0.97429,-0.19361,0.0,2023,6,7,14,54,15,710
40.98840,0.03658,0.11077,0.00000,0.03270,0.97637,-0.19020,0.0,2023,6,7,14,54,15,720
40.98850,-0.20843,0.14577,0.00000,0.03099,0.97429,-0.18922,0.0,2023,6,7,14,54,15,730
40.98860,-0.10343,-0.06423,0.00000,0.02867,0.97380,-0.18727,0.0,2023,6,7,14,54,15,740
40.98870,-0.15593,0.05827,0.00000,0.03013,0.97820,-0.18678,0.0,2023,6,7,14,54,15,750
40.98880,-0.03343,0.00577,0.00000,0.03526,0.97600,-0.18751,0.0,2023,6,7,14,54,15,760
40.98890,0.19407,-0.01173,0.00000,0.03526,0.97490,-0.19178,0.0,2023,6,7,14,54,15,770
40.98900,-0.06842,0.14577,0.00000,0.03404,0.97649,-0.18873,0.0,2023,6,7,14,54,15,780
40.98910,-0.01593,0.14577,0.00000,0.03135,0.97576,-0.18910,0.0,2023,6,7,14,54,15,790
40.98920,0.05407,0.11077,0.00000,0.02904,0.97661,-0.18873,0.0,2023,6,7,14,54,15,800
40.98930,0.22907,-0.02923,0.00000,0.02952,0.97661,-0.18703,0.0,2023,6,7,14,54,15,810
40.98940,-0.08593,-0.06423,0.00000,0.03111,0.97771,-0.18861,0.0,2023,6,7,14,54,15,820
40.98950,-0.12093,-0.01173,0.00000,0.03379,0.97734,-0.18886,0.0,2023,6,7,14,54,15,830
40.98960,-0.15593,-0.04673,0.00000,0.03367,0.97832,-0.18678,0.0,2023,6,7,14,54,15,840
40.98970,-0.08593,0.02327,0.00000,0.03233,0.97759,-0.18886,0.0,2023,6,7,14,54,15,850
40.98980,0.14158,0.33827,0.00000,0.03087,0.97710,-0.19410,0.0,2023,6,7,14,54,15,860
40.98990,0.08907,-0.02923,0.00000,0.03172,0.97429,-0.19337,0.0,2023,6,7,14,54,15,870
40.99000,-0.19093,0.04077,0.00000,0.03233,0.97710,-0.18922,0.0,2023,6,7,14,54,15,880
40.99010,-0.10343,0.04077,0.00000,0.03026,0.97661,-0.18739,0.0,2023,6,7,14,54,15,890
40.99020,0.00157,0.05827,0.00000,0.03245,0.97685,-0.18727,0.0,2023,6,7,14,54,15,900
40.99030,0.19407,-0.02923,0.00000,0.03404,0.97783,-0.19020,0.0,2023,6,7,14,54,15,910
40.99040,0.07157,-0.02923,0.00000,0.03331,0.97673,-0.19117,0.0,2023,6,7,14,54,15,920
40.99050,0.10657,-0.09923,0.00000,0.03355,0.97783,-0.19239,0.0,2023,6,7,14,54,15,930
40.99060,0.03658,0.14577,0.00000,0.03257,0.97649,-0.19056,0.0,2023,6,7,14,54,15,940
40.99070,-0.03343,-0.02923,0.00000,0.03257,0.97612,-0.18739,0.0,2023,6,7,14,54,15,950
40.99080,0.26408,-0.11673,0.00000,0.03160,0.97832,-0.18971,0.0,2023,6,7,14,54,16,960
40.99090,0.10657,0.07577,0.00000,0.02891,0.97478,-0.18581,0.0,2023,6,7,14,54,16,970
40.99100,0.08907,0.00577,0.00000,0.03196,0.97515,-0.19008,0.0,2023,6,7,14,54,16,980
40.99110,0.15908,-0.32673,0.00000,0.03209,0.97429,-0.19117,0.0,2023,6,7,14,54,16,990
40.99120,-0.03343,-0.06423,0.00000,0.03001,0.97698,-0.19044,0.0,2023,6,7,14,54,16,0
40.99130,0.00157,-0.08173,0.00000,0.03038,0.97637,-0.18873,0.0,2023,6,7,14,54,16,10
40.99140,0.10657,0.11077,0.00000,0.03135,0.97807,-0.18971,0.0,2023,6,7,14,54,16,20
40.99150,0.19407,0.00577,0.00000,0.02818,0.97527,-0.18873,0.0,2023,6,7,14,54,16,30
40.99160,-0.08593,-0.08173,0.00000,0.03172,0.97783,-0.18959,0.0,2023,6,7,14,54,16,40
40.99170,-0.13843,-0.04673,0.00000,0.03233,0.97307,-0.18947,0.0,2023,6,7,14,54,16,50
40.99180,-0.10343,0.00577,0.00000,0.03038,0.97417,-0.19081,0.0,2023,6,7,14,54,16,60
40.99190,-0.01593,-0.13423,0.00000,0.03184,0.97380,-0.19008,0.0,2023,6,7,14,54,16,70
40.99200,0.01907,0.12827,0.00000,0.03184,0.97771,-0.18776,0.0,2023,6,7,14,54,16,80
40.99210,0.12407,-0.27423,0.00000,0.03282,0.97771,-0.18800,0.0,2023,6,7,14,54,16,90
40.99220,-0.06842,0.00577,0.00000,0.03062,0.97539,-0.18886,0.0,2023,6,7,14,54,16,100
40.99230,-0.05093,-0.09923,0.00000,0.03331,0.97661,-0.18898,0.0,2023,6,7,14,54,16,110
40.99240,-0.10343,0.02327,0.00000,0.03245,0.97551,-0.18837,0.0,2023,6,7,14,54,16,120
40.99250,-0.05093,-0.13423,0.00000,0.02977,0.97795,-0.19044,0.0,2023,6,7,14,54,16,130
40.99260,0.05407,0.00577,0.00000,0.03184,0.97698,-0.18788,0.0,2023,6,7,14,54,16,140
40.99270,0.03658,0.09327,0.00000,0.03087,0.97905,-0.18910,0.0,2023,6,7,14,54,16,150
40.99280,-0.08593,-0.04673,0.00000,0.03026,0.97624,-0.18947,0.0,2023,6,7,14,54,16,160
40.99290,0.19407,-0.01173,0.00000,0.03123,0.97759,-0.18654,0.0,2023,6,7,14,54,16,170
40.99300,0.08907,0.09327,0.00000,0.03209,0.97624,-0.18800,0.0,2023,6,7,14,54,16,180
40.99310,-0.08593,0.16327,0.00000,0.03087,0.97722,-0.18837,0.0,2023,6,7,14,54,16,190
40.99320,0.17657,0.00577,0.00000,0.03270,0.97917,-0.18971,0.0,2023,6,7,14,54,16,200
40.99330,-0.13843,-0.06423,0.00000,0.03062,0.97698,-0.18898,0.0,2023,6,7,14,54,16,210
40.99340,-0.06842,-0.15173,0.00000,0.03001,0.97649,-0.19020,0.0,2023,6,7,14,54,16,220
40.99350,-0.12093,-0.02923,0.00000,0.03184,0.97685,-0.18898,0.0,2023,6,7,14,54,16,230
40.99360,0.10657,-0.13423,0.00000,0.03294,0.97942,-0.18959,0.0,2023,6,7,14,54,16,240
40.99370,0.12407,0.02327,0.00000,0.03257,0.97624,-0.18934,0.0,2023,6,7,14,54,16,250
40.99380,-0.06842,-0.13423,0.00000,0.03343,0.97551,-0.18959,0.0,2023,6,7,14,54,16,260
40.99390,-0.03343,0.00577,0.00000,0.03318,0.97637,-0.19069,0.0,2023,6,7,14,54,16,270
40.99400,0.21157,-0.06423,0.00000,0.03196,0.97551,-0.18947,0.0,2023,6,7,14,54,16,280
40.99410,0.05407,0.11077,0.00000,0.03087,0.97588,-0.18764,0.0,2023,6,7,14,54,16,290
40.99420,-0.01593,-0.16923,0.00000,0.03087,0.97612,-0.19020,0.0,2023,6,7,14,54,16,300
40.99430,0.10657,0.12827,0.00000,0.03074,0.97637,-0.18910,0.0,2023,6,7,14,54,16,310
40.99440,0.19407,-0.09923,0.00000,0.03074,0.97673,-0.19008,0.0,2023,6,7,14,54,16,320
40.99450,-0.06842,-0.11673,0.00000,0.03184,0.97588,-0.19239,0.0,2023,6,7,14,54,16,330
40.99460,0.19407,-0.11673,0.00000,0.03160,0.97588,-0.18995,0.0,2023,6,7,14,54,16,340
40.99470,-0.06842,0.05827,0.00000,0.03074,0.97698,-0.18873,0.0,2023,6,7,14,54,16,350
40.99480,0.05407,-0.11673,0.00000,0.03160,0.97771,-0.18654,0.0,2023,6,7,14,54,16,360
40.99490,0.10657,0.16327,0.00000,0.03172,0.97734,-0.18886,0.0,2023,6,7,14,54,16,370
40.99500,0.00157,0.05827,0.00000,0.03221,0.97759,-0.18971,0.0,2023,6,7,14,54,16,380
40.99510,-0.06842,0.00577,0.00000,0.03489,0.97637,-0.18922,0.0,2023,6,7,14,54,16,390
40.99520,0.03658,0.14577,0.00000,0.03209,0.97563,-0.19105,0.0,2023,6,7,14,54,16,400
40.99530,-0.08593,-0.02923,0.00000,0.03343,0.97722,-0.18703,0.0,2023,6,7,14,54,16,410
40.99540,0.12407,-0.16923,0.00000,0.03013,0.97759,-0.18739,0.0,2023,6,7,14,54,16,420
40.99550,0.05407,-0.02923,0.00000,0.03074,0.97576,-0.18800,0.0,2023,6,7,14,54,16,430
40.99560,0.21157,-0.01173,0.00000,0.02891,0.97490,-0.18886,0.0,2023,6,7,14,54,16,440
40.99570,0.07157,-0.18673,0.00000,0.03074,0.97210,-0.19081,0.0,2023,6,7,14,54,16,450
40.99580,0.05407,-0.06423,0.00000,0.03343,0.97478,-0.19044,0.0,2023,6,7,14,54,16,460
40.99590,-0.10343,0.02327,0.00000,0.03587,0.97685,-0.18995,0.0,2023,6,7,14,54,16,470
40.99600,0.29907,-0.01173,0.00000,0.03440,0.97673,-0.18788,0.0,2023,6,7,14,54,16,480
40.99610,0.17657,-0.09923,0.00000,0.03294,0.97600,-0.18581,0.0,2023,6,7,14,54,16,490
40.99620,0.03658,0.16327,0.00000,0.03050,0.97771,-0.19081,0.0,2023,6,7,14,54,16,500
40.99630,0.00157,0.07577,0.00000,0.02989,0.97515,-0.18947,0.0,2023,6,7,14,54,16,510
40.99640,-0.19093,0.11077,0.00000,0.02977,0.97649,-0.19105,0.0,2023,6,7,14,54,16,520
40.99650,-0.12093,0.09327,0.00000,0.03123,0.97673,-0.18727,0.0,2023,6,7,14,54,16,530
40.99660,-0.08593,-0.06423,0.00000,0.03440,0.97588,-0.18727,0.0,2023,6,7,14,54,16,540
40.99670,-0.20843,0.16327,0.00000,0.03404,0.97588,-0.18690,0.0,2023,6,7,14,54,16,550
40.99680,0.07157,-0.06423,0.00000,0.03514,0.97478,-0.19154,0.0,2023,6,7,14,54,16,560
40.99690,0.08907,0.11077,0.00000,0.03294,0.97759,-0.18898,0.0,2023,6,7,14,54,16,570
40.99700,-0.03343,-0.09923,0.00000,0.03050,0.97710,-0.18971,0.0,2023,6,7,14,54,16,580
40.99710,0.15908,-0.04673,0.00000,0.03148,0.97698,-0.18861,0.0,2023,6,7,14,54,16,590
40.99720,-0.01593,0.00577,0.00000,0.03099,0.97917,-0.19008,0.0,2023,6,7,14,54,16,600
40.99730,-0.03343,0.09327,0.00000,0.03099,0.97807,-0.18727,0.0,2023,6,7,14,54,16,610
40.99740,0.26408,-0.09923,0.00000,0.03489,0.97588,-0.18922,0.0,2023,6,7,14,54,16,620
40.99750,-0.12093,0.00577,0.00000,0.03172,0.97612,-0.18995,0.0,2023,6,7,14,54,16,630
40.99760,0.26408,0.02327,0.00000,0.03428,0.97454,-0.19142,0.0,2023,6,7,14,54,16,640
40.99770,0.07157,0.00577,0.00000,0.03306,0.97722,-0.19276,0.0,2023,6,7,14,54,16,650
40.99780,-0.01593,0.11077,0.00000,0.03087,0.97673,-0.18849,0.0,2023,6,7,14,54,16,660
40.99790,-0.17342,0.07577,0.00000,0.03184,0.97551,-0.18995,0.0,2023,6,7,14,54,16,670
40.99800,0.12407,-0.04673,0.00000,0.03001,0.97563,-0.18886,0.0,2023,6,7,14,54,16,680
40.99810,0.01907,-0.04673,0.00000,0.02989,0.97868,-0.18873,0.0,2023,6,7,14,54,16,690
40.99820,0.28157,-0.09923,0.00000,0.03111,0.97637,-0.18959,0.0,2023,6,7,14,54,16,700
40.99830,0.19407,0.11077,0.00000,0.03257,0.97673,-0.18849,0.0,2023,6,7,14,54,16,710
40.99840,-0.10343,-0.02923,0.00000,0.03062,0.97490,-0.19117,0.0,2023,6,7,14,54,16,720
40.99850,0.10657,0.14577,0.00000,0.02940,0.97527,-0.19288,0.0,2023,6,7,14,54,16,730
40.99860,0.10657,0.02327,0.00000,0.03196,0.97722,-0.18910,0.0,2023,6,7,14,54,16,740
40.99870,-0.05093,-0.22173,0.00000,0.03392,0.97661,-0.18837,0.0,2023,6,7,14,54,16,750
40.99880,-0.03343,-0.01173,0.00000,0.03453,0.97661,-0.18764,0.0,2023,6,7,14,54,16,760
40.99890,-0.08593,-0.01173,0.00000,0.03184,0.97588,-0.19069,0.0,2023,6,7,14,54,16,770
40.99900,0.00157,0.09327,0.00000,0.03148,0.97673,-0.18849,0.0,2023,6,7,14,54,16,780
40.99910,0.15908,-0.06423,0.00000,0.03135,0.97832,-0.19142,0.0,2023,6,7,14,54,16,790
40.99920,0.00157,-0.02923,0.00000,0.03209,0.97527,-0.19178,0.0,2023,6,7,14,54,16,800
40.99930,-0.03343,-0.04673,0.00000,0.03270,0.97771,-0.19117,0.0,2023,6,7,14,54,16,810
40.99940,0.17657,-0.18673,0.00000,0.03111,0.97710,-0.19008,0.0,2023,6,7,14,54,16,820
40.99950,0.00157,-0.01173,0.00000,0.03148,0.97661,-0.19056,0.0,2023,6,7,14,54,16,830
40.99960,-0.05093,-0.09923,0.00000,0.03172,0.97405,-0.18715,0.0,2023,6,7,14,54,16,840
40.99970,-0.03343,0.09327,0.00000,0.03233,0.97649,-0.19093,0.0,2023,6,7,14,54,16,850
40.99980,-0.06842,-0.02923,0.00000,0.03196,0.97612,-0.19081,0.0,2023,6,7,14,54,17,860
40.99990,-0.06842,0.12827,0.00000,0.03184,0.97405,-0.18947,0.0,2023,6,7,14,54,17,870
41.00000,0.07157,0.04077,0.00000,0.03148,0.97502,-0.19020,0.0,2023,6,7,14,54,17,880
41.00010,-0.03343,-0.06423,0.00000,0.03294,0.97734,-0.19154,0.0,2023,6,7,14,54,17,890
41.00020,-0.05093,0.04077,0.00000,0.03282,0.97661,-0.19032,0.0,2023,6,7,14,54,17,900
41.00030,-0.10343,0.21577,0.00000,0.03184,0.97710,-0.18995,0.0,2023,6,7,14,54,17,910
41.00040,0.05407,-0.04673,0.00000,0.03013,0.97649,-0.19154,0.0,2023,6,7,14,54,17,920
41.00050,0.03658,0.02327,0.00000,0.03270,0.97600,-0.19191,0.0,2023,6,7,14,54,17,930
41.00060,-0.03343,-0.02923,0.00000,0.03148,0.98003,-0.18995,0.0,2023,6,7,14,54,17,940
41.00070,0.15908,0.02327,0.00000,0.03221,0.97600,-0.19044,0.0,2023,6,7,14,54,17,950
41.00080,0.14158,-0.08173,0.00000,0.03111,0.97637,-0.19069,0.0,2023,6,7,14,54,17,960
41.00090,0.15908,-0.23923,0.00000,0.03074,0.97759,-0.19056,0.0,2023,6,7,14,54,17,970
41.00100,-0.08593,-0.15173,0.00000,0.03209,0.97405,-0.18934,0.0,2023,6,7,14,54,17,980
41.00110,0.00157,-0.13423,0.00000,0.03257,0.97783,-0.19069,0.0,2023,6,7,14,54,17,990
41.00120,-0.03343,0.16327,0.00000,0.03038,0.97612,-0.19069,0.0,2023,6,7,14,54,17,0
41.00130,0.22907,-0.01173,0.00000,0.03135,0.97551,-0.19191,0.0,2023,6,7,14,54,17,10
41.00140,-0.17342,0.04077,0.00000,0.03123,0.97624,-0.18910,0.0,2023,6,7,14,54,17,20
41.00150,0.22907,-0.08173,0.00000,0.03233,0.97576,-0.18849,0.0,2023,6,7,14,54,17,30
41.00160,0.10657,-0.22173,0.00000,0.03123,0.97734,-0.19044,0.0,2023,6,7,14,54,17,40
41.00170,0.08907,-0.02923,0.00000,0.03196,0.97673,-0.19069,0.0,2023,6,7,14,54,17,50
41.00180,-0.05093,-0.09923,0.00000,0.03172,0.97612,-0.19081,0.0,2023,6,7,14,54,17,60
41.00190,0.05407,0.25077,0.00000,0.03001,0.97478,-0.19008,0.0,2023,6,7,14,54,17,70
41.00200,-0.05093,0.02327,0.00000,0.03233,0.97759,-0.19056,0.0,2023,6,7,14,54,17,80
41.00210,0.21157,0.14577,0.00000,0.03184,0.97722,-0.18983,0.0,2023,6,7,14,54,17,90
41.00220,0.05407,-0.09923,0.00000,0.03111,0.97527,-0.18898,0.0,2023,6,7,14,54,17,100
41.00230,0.19407,-0.02923,0.00000,0.03001,0.97685,-0.19191,0.0,2023,6,7,14,54,17,110
41.00240,0.12407,0.05827,0.00000,0.03148,0.97649,-0.19056,0.0,2023,6,7,14,54,17,120
41.00250,-0.05093,-0.18673,0.00000,0.02830,0.97551,-0.19093,0.0,2023,6,7,14,54,17,130
41.00260,0.12407,0.09327,0.00000,0.03050,0.97759,-0.19300,0.0,2023,6,7,14,54,17,140
41.00270,-0.03343,0.18077,0.00000,0.03318,0.97429,-0.19154,0.0,2023,6,7,14,54,17,150
41.00280,-0.05093,0.09327,0.00000,0.03148,0.97600,-0.18934,0.0,2023,6,7,14,54,17,160
41.00290,-0.06842,-0.04673,0.00000,0.03867,1.00138,-0.19410,0.0,2023,6,7,14,54,17,170
41.00300,0.43907,-0.11673,0.00000,0.02904,0.95306,-0.19313,0.0,2023,6,7,14,54,17,180
41.00310,-0.78593,0.09327,0.00000,0.03257,0.95209,-0.18983,0.0,2023,6,7,14,54,17,190
41.00320,0.56157,-0.11673,0.00000,0.03404,0.98003,-0.19069,0.0,2023,6,7,14,54,17,200
41.00330,-0.34843,-0.01173,0.00000,0.03087,0.98405,-0.18178,0.0,2023,6,7,14,54,17,210
41.00340,0.01907,0.05827,0.00000,0.02904,0.97502,-0.19971,0.0,2023,6,7,14,54,17,220
41.00350,1.27908,-0.13423,0.00000,0.03306,0.97393,-0.18678,0.0,2023,6,7,14,54,17,230
41.00360,-0.87343,0.05827,0.00000,0.02769,0.97478,-0.18385,0.0,2023,6,7,14,54,17,240
41.00370,0.49157,-0.11673,0.00000,0.03135,0.97649,-0.19862,0.0,2023,6,7,14,54,17,250
41.00380,0.33407,-0.08173,0.00000,0.03270,0.98186,-0.18715,0.0,2023,6,7,14,54,17,260
41.00390,-0.24343,0.04077,0.00000,0.02782,0.98613,-0.19788,0.0,2023,6,7,14,54,17,270
41.00400,1.15657,0.00577,0.00000,0.03038,0.96734,-0.19288,0.0,2023,6,7,14,54,17,280
41.00410,-0.83842,0.33827,0.00000,0.03270,0.97393,-0.17897,0.0,2023,6,7,14,54,17,290
41.00420,0.59658,0.09327,0.00000,0.03087,0.99174,-0.20142,0.0,2023,6,7,14,54,17,300
41.00430,1.10407,-0.01173,0.00000,0.03148,0.96404,-0.18459,0.0,2023,6,7,14,54,17,310
41.00440,-1.29343,0.30327,0.00000,0.03379,0.97832,-0.18117,0.0,2023,6,7,14,54,17,320
41.00450,0.15908,-0.09923,0.00000,0.03050,0.97698,-0.20130,0.0,2023,6,7,14,54,17,330
41.00460,-0.13843,0.12827,0.00000,0.03611,0.98186,-0.18471,0.0,2023,6,7,14,54,17,340
41.00470,-0.45343,-0.02923,0.00000,0.03087,0.97710,-0.19008,0.0,2023,6,7,14,54,17,350
41.00480,0.43907,-0.04673,0.00000,0.02599,0.97881,-0.19471,0.0,2023,6,7,14,54,17,360
41.00490,-0.36593,-0.06423,0.00000,0.03453,0.97832,-0.18727,0.0,2023,6,7,14,54,17,370
41.00500,-0.20843,-0.13423,0.00000,0.02928,0.97417,-0.19422,0.0,2023,6,7,14,54,17,380
41.00510,0.56157,0.09327,0.00000,0.03233,0.97698,-0.19630,0.0,2023,6,7,14,54,17,390
41.00520,-0.41843,0.09327,0.00000,0.03355,0.97075,-0.18556,0.0,2023,6,7,14,54,17,400
41.00530,-0.27842,0.09327,0.00000,0.03196,0.97771,-0.19276,0.0,2023,6,7,14,54,17,410
41.00540,0.78907,-0.06423,0.00000,0.03135,0.97942,-0.19410,0.0,2023,6,7,14,54,17,420
41.00550,0.07157,-0.01173,0.00000,0.03062,0.97685,-0.18751,0.0,2023,6,7,14,54,17,430
41.00560,-0.26093,0.18077,0.00000,0.03062,0.97820,-0.19227,0.0,2023,6,7,14,54,17,440
41.00570,0.47408,0.11077,0.00000,0.02879,0.97783,-0.19276,0.0,2023,6,7,14,54,17,450
41.00580,0.05407,0.02327,0.00000,0.03245,0.97783,-0.18715,0.0,2023,6,7,14,54,17,460
41.00590,-0.34843,0.05827,0.00000,0.03184,0.97600,-0.19227,0.0,2023,6,7,14,54,17,470
41.00600,0.49157,0.16327,0.00000,0.02928,0.97393,-0.18910,0.0,2023,6,7,14,54,17,480
41.00610,-0.19093,-0.13423,0.00000,0.03282,0.97759,-0.19032,0.0,2023,6,7,14,54,17,490
41.00620,0.12407,0.21577,0.00000,0.02940,0.97551,-0.19313,0.0,2023,6,7,14,54,17,500
41.00630,0.15908,0.09327,0.00000,0.03026,0.97893,-0.18910,0.0,2023,6,7,14,54,17,510
41.00640,-0.17342,0.00577,0.00000,0.03062,0.97649,-0.19044,0.0,2023,6,7,14,54,17,520
41.00650,0.15908,-0.15173,0.00000,0.03062,0.97795,-0.19093,0.0,2023,6,7,14,54,17,530
41.00660,0.19407,0.02327,0.00000,0.02989,0.97637,-0.19178,0.0,2023,6,7,14,54,17,540
41.00670,-0.29592,-0.01173,0.00000,0.03257,0.97661,-0.18922,0.0,2023,6,7,14,54,17,550
41.00680,0.22907,-0.09923,0.00000,0.03111,0.97661,-0.19191,0.0,2023,6,7,14,54,17,560
41.00690,0.42157,-0.16923,0.00000,0.03257,0.97820,-0.19105,0.0,2023,6,7,14,54,17,570
41.00700,-0.08593,0.02327,0.00000,0.03148,0.97441,-0.18751,0.0,2023,6,7,14,54,17,580
41.00710,0.12407,0.28577,0.00000,0.03148,0.97929,-0.19227,0.0,2023,6,7,14,54,17,590
41.00720,0.12407,0.09327,0.00000,0.03526,0.97685,-0.18947,0.0,2023,6,7,14,54,17,600
41.00730,-0.08593,-0.02923,0.00000,0.03392,0.97380,-0.18776,0.0,2023,6,7,14,54,17,610
41.00740,0.29907,-0.15173,0.00000,0.03123,0.97795,-0.19313,0.0,2023,6,7,14,54,17,620
41.00750,-0.12093,0.04077,0.00000,0.03318,0.97746,-0.18898,0.0,2023,6,7,14,54,17,630
41.00760,-0.20843,0.09327,0.00000,0.03245,0.97527,-0.19130,0.0,2023,6,7,14,54,17,640
41.00770,0.24657,-0.01173,0.00000,0.02940,0.97649,-0.19008,0.0,2023,6,7,14,54,17,650
41.00780,-0.17342,0.07577,0.00000,0.03184,0.97807,-0.18764,0.0,2023,6,7,14,54,17,660
41.00790,-0.01593,0.04077,0.00000,0.02916,0.97576,-0.19117,0.0,2023,6,7,14,54,17,670
41.00800,0.15908,-0.09923,0.00000,0.03111,0.97685,-0.19191,0.0,2023,6,7,14,54,17,680
41.00810,0.00157,-0.04673,0.00000,0.03282,0.97710,-0.19044,0.0,2023,6,7,14,54,17,690
41.00820,-0.05093,0.07577,0.00000,0.03306,0.97637,-0.19313,0.0,2023,6,7,14,54,17,700
41.00830,0.17657,0.12827,0.00000,0.02989,0.97563,-0.19093,0.0,2023,6,7,14,54,17,710
41.00840,-0.33093,-0.15173,0.00000,0.03099,0.97600,-0.18995,0.0,2023,6,7,14,54,17,720
41.00850,0.14158,0.04077,0.00000,0.03087,0.97685,-0.19300,0.0,2023,6,7,14,54,17,730
41.00860,0.28157,0.05827,0.00000,0.03282,0.97661,-0.19117,0.0,2023,6,7,14,54,17,740
41.00870,-0.08593,-0.16923,0.00000,0.03148,0.97502,-0.18703,0.0,2023,6,7,14,54,17,750
41.00880,-0.05093,0.19827,0.00000,0.03123,0.97551,-0.19105,0.0,2023,6,7,14,54,18,760
41.00890,0.14158,-0.02923,0.00000,0.03392,0.97661,-0.18983,0.0,2023,6,7,14,54,18,770
41.00900,-0.05093,0.19827,0.00000,0.03209,0.97624,-0.18934,0.0,2023,6,7,14,54,18,780
41.00910,0.19407,-0.11673,0.00000,0.03062,0.97612,-0.19130,0.0,2023,6,7,14,54,18,790
41.00920,0.14158,-0.08173,0.00000,0.03294,0.97734,-0.19105,0.0,2023,6,7,14,54,18,800
41.00930,-0.08593,0.05827,0.00000,0.03184,0.97746,-0.18678,0.0,2023,6,7,14,54,18,810
41.00940,-0.15593,0.23327,0.00000,0.03148,0.97807,-0.19081,0.0,2023,6,7,14,54,18,820
41.00950,-0.05093,-0.08173,0.00000,0.03209,0.97576,-0.19032,0.0,2023,6,7,14,54,18,830
41.00960,0.01907,0.04077,0.00000,0.03611,0.97551,-0.18898,0.0,2023,6,7,14,54,18,840
41.00970,0.15908,-0.18673,0.00000,0.03172,0.97393,-0.19056,0.0,2023,6,7,14,54,18,850
41.00980,-0.06842,0.25077,0.00000,0.02989,0.97820,-0.18959,0.0,2023,6,7,14,54,18,860
41.00990,-0.03343,0.14577,0.00000,0.03257,0.97612,-0.19166,0.0,2023,6,7,14,54,18,870
41.01000,0.21157,-0.08173,0.00000,0.03087,0.97515,-0.19191,0.0,2023,6,7,14,54,18,880
41.01010,-0.08593,0.02327,0.00000,0.03221,0.97698,-0.18983,0.0,2023,6,7,14,54,18,890
41.01020,-0.01593,-0.01173,0.00000,0.03379,0.97954,-0.18934,0.0,2023,6,7,14,54,18,900
41.01030,0.38657,-0.13423,0.00000,0.03148,0.97710,-0.19142,0.0,2023,6,7,14,54,18,910
41.01040,-0.06842,0.02327,0.00000,0.03172,0.97612,-0.19252,0.0,2023,6,7,14,54,18,920
41.01050,0.01907,-0.15173,0.00000,0.03160,0.97478,-0.19410,0.0,2023,6,7,14,54,18,930
41.01060,0.12407,0.09327,0.00000,0.03209,0.97759,-0.18934,0.0,2023,6,7,14,54,18,940
41.01070,-0.06842,-0.16923,0.00000,0.03355,0.97502,-0.18971,0.0,2023,6,7,14,54,18,950
41.01080,0.17657,-0.08173,0.00000,0.03123,0.97783,-0.19191,0.0,2023,6,7,14,54,18,960
41.01090,0.03658,0.07577,0.00000,0.03257,0.97759,-0.18947,0.0,2023,6,7,14,54,18,970
41.01100,0.10657,-0.02923,0.00000,0.03123,0.97588,-0.19117,0.0,2023,6,7,14,54,18,980
41.01110,0.22907,-0.01173,0.00000,0.03331,0.97759,-0.19117,0.0,2023,6,7,14,54,18,990
41.01120,-0.08593,-0.09923,0.00000,0.03050,0.97783,-0.18959,0.0,2023,6,7,14,54,18,0
41.01130,0.21157,0.02327,0.00000,0.03099,0.97588,-0.19130,0.0,2023,6,7,14,54,18,10
41.01140,0.05407,0.05827,0.00000,0.03160,0.97661,-0.19142,0.0,2023,6,7,14,54,18,20
41.01150,-0.12093,0.00577,0.00000,0.03038,0.97612,-0.18983,0.0,2023,6,7,14,54,18,30
41.01160,0.21157,-0.04673,0.00000,0.03172,0.97685,-0.19215,0.0,2023,6,7,14,54,18,40
41.01170,0.00157,-0.01173,0.00000,0.03172,0.97600,-0.19008,0.0,2023,6,7,14,54,18,50
41.01180,0.01907,0.12827,0.00000,0.03355,0.97429,-0.18995,0.0,2023,6,7,14,54,18,60
41.01190,-0.01593,0.11077,0.00000,0.02928,0.97612,-0.19105,0.0,2023,6,7,14,54,18,70
41.01200,0.08907,0.02327,0.00000,0.03367,0.97454,-0.19300,0.0,2023,6,7,14,54,18,80
41.01210,-0.01593,-0.20423,0.00000,0.03209,0.97710,-0.19093,0.0,2023,6,7,14,54,18,90
41.01220,0.05407,0.05827,0.00000,0.03123,0.97576,-0.19252,0.0,2023,6,7,14,54,18,100
41.01230,0.14158,0.02327,0.00000,0.03404,0.97795,-0.19117,0.0,2023,6,7,14,54,18,110
41.01240,-0.12093,0.12827,0.00000,0.03379,0.97429,-0.19166,0.0,2023,6,7,14,54,18,120
41.01250,0.03658,0.12827,0.00000,0.03111,0.97734,-0.19300,0.0,2023,6,7,14,54,18,130
41.01260,0.01907,-0.04673,0.00000,0.03196,0.97600,-0.19093,0.0,2023,6,7,14,54,18,140
41.01270,0.03658,-0.08173,0.00000,0.03099,0.97502,-0.18995,0.0,2023,6,7,14,54,18,150
41.01280,0.24657,-0.09923,0.00000,0.03013,0.97624,-0.19154,0.0,2023,6,7,14,54,18,160
41.01290,0.19407,0.07577,0.00000,0.03257,0.97600,-0.19056,0.0,2023,6,7,14,54,18,170
41.01300,-0.17342,0.18077,0.00000,0.03026,0.97795,-0.19069,0.0,2023,6,7,14,54,18,180
41.01310,0.03658,0.02327,0.00000,0.03196,0.97795,-0.18934,0.0,2023,6,7,14,54,18,190
41.01320,0.07157,0.02327,0.00000,0.03282,0.97478,-0.18837,0.0,2023,6,7,14,54,18,200
41.01330,-0.08593,0.04077,0.00000,0.03135,0.97673,-0.18995,0.0,2023,6,7,14,54,18,210
41.01340,0.01907,0.23327,0.00000,0.03233,0.97698,-0.19117,0.0,2023,6,7,14,54,18,220
41.01350,-0.08593,0.11077,0.00000,0.03282,0.97661,-0.19020,0.0,2023,6,7,14,54,18,230
41.01360,0.26408,0.11077,0.00000,0.03184,0.97759,-0.19032,0.0,2023,6,7,14,54,18,240
41.01370,0.19407,0.00577,0.00000,0.03355,0.97710,-0.19056,0.0,2023,6,7,14,54,18,250
41.01380,-0.20843,0.07577,0.00000,0.03160,0.97673,-0.19081,0.0,2023,6,7,14,54,18,260
41.01390,-0.10343,0.07577,0.00000,0.03148,0.97734,-0.19081,0.0,2023,6,7,14,54,18,270
41.01400,0.10657,0.05827,0.00000,0.03282,0.97429,-0.18971,0.0,2023,6,7,14,54,18,280
41.01410,-0.01593,0.09327,0.00000,0.03221,0.97771,-0.18934,0.0,2023,6,7,14,54,18,290
41.01420,0.00157,0.18077,0.00000,0.03087,0.97722,-0.18959,0.0,2023,6,7,14,54,18,300
41.01430,0.05407,-0.15173,0.00000,0.03111,0.97576,-0.18922,0.0,2023,6,7,14,54,18,310
41.01440,-0.13843,-0.13423,0.00000,0.03172,0.97673,-0.19117,0.0,2023,6,7,14,54,18,320
41.01450,-0.13843,0.12827,0.00000,0.03257,0.97588,-0.19020,0.0,2023,6,7,14,54,18,330
41.01460,-0.05093,-0.01173,0.00000,0.03233,0.97588,-0.19069,0.0,2023,6,7,14,54,18,340
41.01470,0.10657,0.16327,0.00000,0.03148,0.97771,-0.18971,0.0,2023,6,7,14,54,18,350
41.01480,0.00157,-0.11673,0.00000,0.03501,0.97820,-0.18898,0.0,2023,6,7,14,54,18,360
41.01490,0.08907,-0.11673,0.00000,0.03001,0.97637,-0.19178,0.0,2023,6,7,14,54,18,370
41.01500,0.14158,0.07577,0.00000,0.02928,0.97771,-0.19300,0.0,2023,6,7,14,54,18,380
41.01510,-0.06842,-0.20423,0.00000,0.02989,0.97441,-0.18837,0.0,2023,6,7,14,54,18,390
41.01520,-0.03343,-0.11673,0.00000,0.03453,0.97722,-0.19203,0.0,2023,6,7,14,54,18,400
41.01530,-0.06842,0.07577,0.00000,0.03074,0.97600,-0.18849,0.0,2023,6,7,14,54,18,410
41.01540,0.17657,0.04077,0.00000,0.03038,0.97710,-0.18764,0.0,2023,6,7,14,54,18,420
41.01550,-0.13843,0.16327,0.00000,0.03209,0.97661,-0.19008,0.0,2023,6,7,14,54,18,430
41.01560,0.07157,0.02327,0.00000,0.03331,0.97612,-0.18922,0.0,2023,6,7,14,54,18,440
41.01570,-0.01593,0.04077,0.00000,0.03477,0.97478,-0.19142,0.0,2023,6,7,14,54,18,450
41.01580,-0.05093,0.07577,0.00000,0.03196,0.97734,-0.18922,0.0,2023,6,7,14,54,18,460
41.01590,-0.08593,0.18077,0.00000,0.03050,0.97661,-0.18971,0.0,2023,6,7,14,54,18,470
41.01600,0.22907,-0.34423,0.00000,0.03111,0.97685,-0.18812,0.0,2023,6,7,14,54,18,480
41.01610,-0.15593,-0.06423,0.00000,0.03074,0.97698,-0.18898,0.0,2023,6,7,14,54,18,490
41.01620,0.05407,0.07577,0.00000,0.03282,0.97454,-0.19020,0.0,2023,6,7,14,54,18,500
41.01630,-0.01593,0.04077,0.00000,0.03209,0.97405,-0.19105,0.0,2023,6,7,14,54,18,510
41.01640,0.08907,0.04077,0.00000,0.03111,0.97661,-0.19081,0.0,2023,6,7,14,54,18,520
41.01650,0.01907,0.09327,0.00000,0.03257,0.97527,-0.18934,0.0,2023,6,7,14,54,18,530
41.01660,-0.17342,0.07577,0.00000,0.03062,0.97868,-0.18910,0.0,2023,6,7,14,54,18,540
41.01670,0.00157,0.11077,0.00000,0.03245,0.97661,-0.19044,0.0,2023,6,7,14,54,18,550
41.01680,-0.24343,0.18077,0.00000,0.03196,0.97527,-0.18727,0.0,2023,6,7,14,54,18,560
41.01690,0.10657,-0.01173,0.00000,0.03367,0.97954,-0.19044,0.0,2023,6,7,14,54,18,570
41.01700,0.03658,0.11077,0.00000,0.03050,0.97466,-0.19056,0.0,2023,6,7,14,54,18,580
41.01710,0.07157,-0.01173,0.00000,0.03245,0.97734,-0.18739,0.0,2023,6,7,14,54,18,590
41.01720,0.05407,0.07577,0.00000,0.03233,0.97661,-0.18983,0.0,2023,6,7,14,54,18,600
41.01730,0.00157,0.12827,0.00000,0.02965,0.97893,-0.18886,0.0,2023,6,7,14,54,18,610
41.01740,0.08907,-0.18673,0.00000,0.03123,0.97661,-0.19020,0.0,2023,6,7,14,54,18,620
41.01750,0.14158,-0.22173,0.00000,0.03172,0.97771,-0.18812,0.0,2023,6,7,14,54,18,630
41.01760,0.01907,0.11077,0.00000,0.03172,0.97807,-0.18886,0.0,2023,6,7,14,54,18,640
41.01770,0.22907,0.02327,0.00000,0.03331,0.97515,-0.19020,0.0,2023,6,7,14,54,18,650
41.01780,-0.13843,-0.08173,0.00000,0.03123,0.97454,-0.18825,0.0,2023,6,7,14,54,18,660
41.01790,0.00157,-0.13423,0.00000,0.03087,0.97563,-0.18983,0.0,2023,6,7,14,54,19,670
41.01800,0.14158,0.05827,0.00000,0.03013,0.97698,-0.19044,0.0,2023,6,7,14,54,19,680
41.01810,-0.01593,0.09327,0.00000,0.03196,0.97722,-0.19117,0.0,2023,6,7,14,54,19,690
41.01820,0.05407,-0.02923,0.00000,0.03221,0.97624,-0.18934,0.0,2023,6,7,14,54,19,700
41.01830,0.10657,-0.04673,0.00000,0.02989,0.97563,-0.19056,0.0,2023,6,7,14,54,19,710
41.01840,-0.10343,-0.20423,0.00000,0.03148,0.97539,-0.19069,0.0,2023,6,7,14,54,19,720
41.01850,-0.17342,0.12827,0.00000,0.03099,0.97502,-0.18983,0.0,2023,6,7,14,54,19,730
41.01860,0.07157,0.04077,0.00000,0.03306,0.97746,-0.18947,0.0,2023,6,7,14,54,19,740
41.01870,0.03658,-0.23923,0.00000,0.03318,0.97612,-0.18837,0.0,2023,6,7,14,54,19,750
41.01880,0.12407,0.16327,0.00000,0.03233,0.97685,-0.18703,0.0,2023,6,7,14,54,19,760
41.01890,0.15908,0.11077,0.00000,0.03209,0.97624,-0.18947,0.0,2023,6,7,14,54,19,770
41.01900,-0.03343,-0.09923,0.00000,0.03392,0.97685,-0.18922,0.0,2023,6,7,14,54,19,780
41.01910,-0.05093,0.04077,0.00000,0.03099,0.97661,-0.19117,0.0,2023,6,7,14,54,19,790
41.01920,0.15908,0.00577,0.00000,0.03074,0.97685,-0.19069,0.0,2023,6,7,14,54,19,800
41.01930,-0.10343,-0.15173,0.00000,0.03245,0.97698,-0.18849,0.0,2023,6,7,14,54,19,810
41.01940,-0.12093,0.16327,0.00000,0.03099,0.97649,-0.19056,0.0,2023,6,7,14,54,19,820
41.01950,0.14158,-0.16923,0.00000,0.02928,0.97905,-0.18812,0.0,2023,6,7,14,54,19,830
41.01960,0.00157,-0.18673,0.00000,0.02977,0.97563,-0.18812,0.0,2023,6,7,14,54,19,840
41.01970,0.14158,0.12827,0.00000,0.03050,0.97832,-0.19264,0.0,2023,6,7,14,54,19,850
41.01980,0.26408,-0.23923,0.00000,0.03148,0.97563,-0.18776,0.0,2023,6,7,14,54,19,860
41.01990,-0.08593,0.05827,0.00000,0.03087,0.97515,-0.18605,0.0,2023,6,7,14,54,19,870
41.02000,-0.01593,0.00577,0.00000,0.02965,0.97734,-0.19227,0.0,2023,6,7,14,54,19,880
41.02010,-0.05093,0.05827,0.00000,0.03282,0.97771,-0.18922,0.0,2023,6,7,14,54,19,890
41.02020,0.03658,-0.06423,0.00000,0.03001,0.97661,-0.18983,0.0,2023,6,7,14,54,19,900
41.02030,-0.01593,0.02327,0.00000,0.03196,0.97637,-0.19313,0.0,2023,6,7,14,54,19,910
41.02040,-0.08593,0.09327,0.00000,0.03148,0.97515,-0.18910,0.0,2023,6,7,14,54,19,920
41.02050,-0.17342,0.19827,0.00000,0.03294,0.97551,-0.18910,0.0,2023,6,7,14,54,19,930
41.02060,0.01907,0.09327,0.00000,0.03172,0.97624,-0.18983,0.0,2023,6,7,14,54,19,940
41.02070,0.05407,0.07577,0.00000,0.03318,0.97759,-0.19069,0.0,2023,6,7,14,54,19,950
41.02080,0.17657,0.02327,0.00000,0.03172,0.97893,-0.18837,0.0,2023,6,7,14,54,19,960
41.02090,-0.12093,0.02327,0.00000,0.03001,0.97759,-0.18812,0.0,2023,6,7,14,54,19,970
41.02100,-0.01593,0.02327,0.00000,0.03038,0.97539,-0.18995,0.0,2023,6,7,14,54,19,980
41.02110,0.19407,-0.04673,0.00000,0.03245,0.97515,-0.18983,0.0,2023,6,7,14,54,19,990
41.02120,0.07157,0.02327,0.00000,0.03123,0.97673,-0.18886,0.0,2023,6,7,14,54,19,0
41.02130,0.05407,-0.09923,0.00000,0.03123,0.97551,-0.19105,0.0,2023,6,7,14,54,19,10
41.02140,0.12407,0.00577,0.00000,0.03379,0.97515,-0.18959,0.0,2023,6,7,14,54,19,20
41.02150,-0.15593,-0.06423,0.00000,0.03062,0.97551,-0.19093,0.0,2023,6,7,14,54,19,30
41.02160,0.03658,-0.06423,0.00000,0.03294,0.97454,-0.18995,0.0,2023,6,7,14,54,19,40
41.02170,0.05407,-0.25673,0.00000,0.03306,0.97563,-0.19117,0.0,2023,6,7,14,54,19,50
41.02180,0.10657,0.14577,0.00000,0.03148,0.97600,-0.19105,0.0,2023,6,7,14,54,19,60
41.02190,-0.06842,0.07577,0.00000,0.03013,0.97576,-0.18971,0.0,2023,6,7,14,54,19,70
41.02200,0.17657,0.21577,0.00000,0.03245,0.97698,-0.19142,0.0,2023,6,7,14,54,19,80
41.02210,0.12407,-0.01173,0.00000,0.02977,0.97649,-0.18910,0.0,2023,6,7,14,54,19,90
41.02220,-0.08593,0.09327,0.00000,0.03135,0.97576,-0.18898,0.0,2023,6,7,14,54,19,100
41.02230,0.17657,0.16327,0.00000,0.03013,0.97698,-0.19020,0.0,2023,6,7,14,54,19,110
41.02240,-0.13843,0.00577,0.00000,0.03282,0.97942,-0.18947,0.0,2023,6,7,14,54,19,120
41.02250,0.05407,-0.04673,0.00000,0.03318,0.97795,-0.18812,0.0,2023,6,7,14,54,19,130
41.02260,0.19407,0.16327,0.00000,0.03257,0.97600,-0.18886,0.0,2023,6,7,14,54,19,140
41.02270,0.08907,-0.08173,0.00000,0.03282,0.97527,-0.18837,0.0,2023,6,7,14,54,19,150
41.02280,-0.19093,0.39077,0.00000,0.02891,0.98003,-0.18629,0.0,2023,6,7,14,54,19,160
41.02290,0.24657,0.16327,0.00000,0.03026,0.97856,-0.18959,0.0,2023,6,7,14,54,19,170
41.02300,0.14158,-0.06423,0.00000,0.03087,0.97698,-0.18800,0.0,2023,6,7,14,54,19,180
41.02310,-0.13843,0.11077,0.00000,0.03099,0.97685,-0.18788,0.0,2023,6,7,14,54,19,190
41.02320,-0.08593,0.12827,0.00000,0.02965,0.97576,-0.18995,0.0,2023,6,7,14,54,19,200
41.02330,-0.01593,0.19827,0.00000,0.03135,0.97698,-0.19008,0.0,2023,6,7,14,54,19,210
41.02340,0.00157,0.28577,0.00000,0.02916,0.97490,-0.19020,0.0,2023,6,7,14,54,19,220
41.02350,0.00157,0.00577,0.00000,0.03196,0.97356,-0.18898,0.0,2023,6,7,14,54,19,230
41.02360,-0.12093,0.05827,0.00000,0.03196,0.97429,-0.19130,0.0,2023,6,7,14,54,19,240
41.02370,0.21157,-0.08173,0.00000,0.03270,0.97893,-0.18959,0.0,2023,6,7,14,54,19,250
41.02380,0.08907,0.19827,0.00000,0.03184,0.97380,-0.18947,0.0,2023,6,7,14,54,19,260
41.02390,-0.01593,0.18077,0.00000,0.02989,0.97746,-0.18983,0.0,2023,6,7,14,54,19,270
41.02400,0.00157,0.18077,0.00000,0.03123,0.97539,-0.19008,0.0,2023,6,7,14,54,19,280
41.02410,-0.03343,0.04077,0.00000,0.03123,0.97783,-0.18971,0.0,2023,6,7,14,54,19,290
41.02420,0.08907,-0.02923,0.00000,0.03209,0.97649,-0.19130,0.0,2023,6,7,14,54,19,300
41.02430,0.10657,0.05827,0.00000,0.03087,0.97759,-0.18934,0.0,2023,6,7,14,54,19,310
41.02440,-0.08593,-0.09923,0.00000,0.03148,0.97588,-0.18971,0.0,2023,6,7,14,54,19,320
41.02450,0.05407,0.16327,0.00000,0.03123,0.97588,-0.18690,0.0,2023,6,7,14,54,19,330
41.02460,0.07157,0.18077,0.00000,0.03148,0.97759,-0.18727,0.0,2023,6,7,14,54,19,340
41.02470,-0.05093,-0.02923,0.00000,0.02989,0.97685,-0.18910,0.0,2023,6,7,14,54,19,350
41.02480,-0.01593,-0.18673,0.00000,0.03074,0.97551,-0.18739,0.0,2023,6,7,14,54,19,360
41.02490,0.10657,-0.06423,0.00000,0.03111,0.97649,-0.18886,0.0,2023,6,7,14,54,19,370
41.02500,-0.05093,-0.04673,0.00000,0.03355,0.97673,-0.18995,0.0,2023,6,7,14,54,19,380
41.02510,0.01907,0.04077,0.00000,0.03148,0.97539,-0.18898,0.0,2023,6,7,14,54,19,390
41.02520,-0.01593,-0.02923,0.00000,0.03294,0.97588,-0.18825,0.0,2023,6,7,14,54,19,400
41.02530,-0.01593,0.12827,0.00000,0.03379,0.97734,-0.18995,0.0,2023,6,7,14,54,19,410
41.02540,0.01907,-0.16923,0.00000,0.03099,0.97954,-0.18812,0.0,2023,6,7,14,54,19,420
41.02550,0.03658,0.09327,0.00000,0.03245,0.97515,-0.18690,0.0,2023,6,7,14,54,19,430
41.02560,0.01907,0.05827,0.00000,0.03294,0.97746,-0.18934,0.0,2023,6,7,14,54,19,440
41.02570,0.14158,0.07577,0.00000,0.03318,0.97759,-0.18910,0.0,2023,6,7,14,54,19,450
41.02580,0.12407,-0.04673,0.00000,0.03062,0.97600,-0.19105,0.0,2023,6,7,14,54,19,460
41.02590,0.00157,0.02327,0.00000,0.03221,0.97539,-0.18690,0.0,2023,6,7,14,54,19,470
41.02600,-0.03343,-0.11673,0.00000,0.03355,0.97405,-0.18910,0.0,2023,6,7,14,54,19,480
41.02610,-0.08593,-0.22173,0.00000,0.03477,0.97576,-0.19020,0.0,2023,6,7,14,54,19,490
41.02620,0.26408,-0.18673,0.00000,0.03172,0.97722,-0.18971,0.0,2023,6,7,14,54,19,500
41.02630,-0.06842,-0.13423,0.00000,0.03270,0.97539,-0.19069,0.0,2023,6,7,14,54,19,510
41.02640,-0.01593,0.07577,0.00000,0.02952,0.97673,-0.18995,0.0,2023,6,7,14,54,19,520
41.02650,0.24657,-0.02923,0.00000,0.03111,0.97588,-0.19044,0.0,2023,6,7,14,54,19,530
41.02660,0.05407,-0.02923,0.00000,0.03440,0.97832,-0.19008,0.0,2023,6,7,14,54,19,540
41.02670,0.00157,0.09327,0.00000,0.03245,0.97746,-0.18873,0.0,2023,6,7,14,54,19,550
41.02680,0.00157,-0.01173,0.00000,0.03148,0.97454,-0.18971,0.0,2023,6,7,14,54,19,560
41.02690,-0.01593,0.21577,0.00000,0.02989,0.97942,-0.19093,0.0,2023,6,7,14,54,19,570
41.02700,-0.05093,0.04077,0.00000,0.03282,0.97685,-0.18776,0.0,2023,6,7,14,54,20,580
41.02710,-0.06842,0.07577,0.00000,0.03062,0.97698,-0.19093,0.0,2023,6,7,14,54,20,590
41.02720,0.05407,0.02327,0.00000,0.03123,0.97734,-0.18983,0.0,2023,6,7,14,54,20,600
41.02730,0.08907,-0.09923,0.00000,0.03013,0.97893,-0.19081,0.0,2023,6,7,14,54,20,610
41.02740,0.07157,0.07577,0.00000,0.03343,0.97588,-0.18995,0.0,2023,6,7,14,54,20,620
41.02750,0.07157,-0.08173,0.00000,0.03087,0.97405,-0.19008,0.0,2023,6,7,14,54,20,630
41.02760,0.00157,0.02327,0.00000,0.03148,0.97637,-0.19081,0.0,2023,6,7,14,54,20,640
41.02770,-0.10343,0.11077,0.00000,0.03245,0.97515,-0.18947,0.0,2023,6,7,14,54,20,650
41.02780,-0.19093,-0.11673,0.00000,0.03123,0.97710,-0.18922,0.0,2023,6,7,14,54,20,660
41.02790,-0.03343,-0.20423,0.00000,0.03123,0.97807,-0.18947,0.0,2023,6,7,14,54,20,670
41.02800,0.10657,0.00577,0.00000,0.03367,0.97722,-0.18947,0.0,2023,6,7,14,54,20,680
41.02810,0.01907,0.18077,0.00000,0.02879,0.97588,-0.19093,0.0,2023,6,7,14,54,20,690
41.02820,0.00157,-0.06423,0.00000,0.03172,0.97868,-0.18995,0.0,2023,6,7,14,54,20,700
41.02830,-0.10343,-0.11673,0.00000,0.03148,0.97588,-0.19154,0.0,2023,6,7,14,54,20,710
41.02840,0.15908,-0.27423,0.00000,0.03074,0.97929,-0.18995,0.0,2023,6,7,14,54,20,720
41.02850,-0.24343,0.25077,0.00000,0.03026,0.97429,-0.18898,0.0,2023,6,7,14,54,20,730
41.02860,-0.03343,0.21577,0.00000,0.03318,0.97661,-0.18654,0.0,2023,6,7,14,54,20,740
41.02870,0.19407,-0.06423,0.00000,0.03367,0.97478,-0.19008,0.0,2023,6,7,14,54,20,750
41.02880,-0.17342,-0.08173,0.00000,0.03087,0.97588,-0.19020,0.0,2023,6,7,14,54,20,760
41.02890,-0.22593,0.12827,0.00000,0.03026,0.97588,-0.18983,0.0,2023,6,7,14,54,20,770
41.02900,0.10657,0.11077,0.00000,0.03087,0.97600,-0.18922,0.0,2023,6,7,14,54,20,780
41.02910,-0.12093,0.14577,0.00000,0.03148,0.97551,-0.19264,0.0,2023,6,7,14,54,20,790
41.02920,0.26408,-0.15173,0.00000,0.03001,0.97673,-0.18922,0.0,2023,6,7,14,54,20,800
41.02930,0.01907,0.11077,0.00000,0.03184,0.97551,-0.19032,0.0,2023,6,7,14,54,20,810
41.02940,-0.19093,0.16327,0.00000,0.03160,0.97393,-0.18886,0.0,2023,6,7,14,54,20,820
41.02950,-0.10343,0.23327,0.00000,0.03135,0.97624,-0.19117,0.0,2023,6,7,14,54,20,830
41.02960,0.08907,0.02327,0.00000,0.03331,0.97673,-0.18788,0.0,2023,6,7,14,54,20,840
41.02970,0.07157,-0.01173,0.00000,0.03233,0.97734,-0.19178,0.0,2023,6,7,14,54,20,850
41.02980,-0.12093,0.02327,0.00000,0.03355,0.97820,-0.19081,0.0,2023,6,7,14,54,20,860
41.02990,0.07157,0.05827,0.00000,0.03282,0.97612,-0.18825,0.0,2023,6,7,14,54,20,870
41.03000,0.08907,-0.02923,0.00000,0.03148,0.97637,-0.19154,0.0,2023,6,7,14,54,20,880
41.03010,0.12407,-0.02923,0.00000,0.03233,0.97490,-0.18788,0.0,2023,6,7,14,54,20,890
41.03020,-0.01593,0.04077,0.00000,0.03087,0.97759,-0.18910,0.0,2023,6,7,14,54,20,900
41.03030,0.08907,-0.02923,0.00000,0.03209,0.97893,-0.18983,0.0,2023,6,7,14,54,20,910
41.03040,0.00157,0.02327,0.00000,0.03245,0.97637,-0.18934,0.0,2023,6,7,14,54,20,920
41.03050,-0.12093,0.25077,0.00000,0.03343,0.97685,-0.18873,0.0,2023,6,7,14,54,20,930
41.03060,-0.01593,0.19827,0.00000,0.03148,0.97722,-0.18934,0.0,2023,6,7,14,54,20,940
41.03070,-0.12093,0.11077,0.00000,0.03099,0.97844,-0.19093,0.0,2023,6,7,14,54,20,950
41.03080,0.21157,0.14577,0.00000,0.03160,0.97612,-0.18934,0.0,2023,6,7,14,54,20,960
41.03090,-0.03343,0.05827,0.00000,0.03343,0.97759,-0.18995,0.0,2023,6,7,14,54,20,970
41.03100,0.08907,-0.16923,0.00000,0.03111,0.97661,-0.18971,0.0,2023,6,7,14,54,20,980
41.03110,0.03658,0.25077,0.00000,0.03135,0.97661,-0.18971,0.0,2023,6,7,14,54,20,990
41.03120,-0.06842,0.00577,0.00000,0.02965,0.97783,-0.19142,0.0,2023,6,7,14,54,20,0
41.03130,-0.13843,-0.08173,0.00000,0.03026,0.97356,-0.18800,0.0,2023,6,7,14,54,20,10
41.03140,0.00157,0.07577,0.00000,0.03221,0.97539,-0.18922,0.0,2023,6,7,14,54,20,20
41.03150,-0.06842,0.09327,0.00000,0.03282,0.97588,-0.18715,0.0,2023,6,7,14,54,20,30
41.03160,-0.19093,0.05827,0.00000,0.02989,0.97685,-0.18873,0.0,2023,6,7,14,54,20,40
41.03170,-0.24343,-0.04673,0.00000,0.03233,0.97856,-0.19069,0.0,2023,6,7,14,54,20,50
41.03180,-0.06842,-0.02923,0.00000,0.03392,0.97661,-0.18788,0.0,2023,6,7,14,54,20,60
41.03190,0.10657,-0.09923,0.00000,0.03026,0.97454,-0.19154,0.0,2023,6,7,14,54,20,70
41.03200,-0.05093,0.07577,0.00000,0.03440,0.97661,-0.18995,0.0,2023,6,7,14,54,20,80
41.03210,-0.27842,0.12827,0.00000,0.03282,0.97551,-0.19117,0.0,2023,6,7,14,54,20,90
41.03220,0.22907,0.00577,0.00000,0.03074,0.97515,-0.19154,0.0,2023,6,7,14,54,20,100
41.03230,0.12407,-0.04673,0.00000,0.03245,0.97417,-0.18910,0.0,2023,6,7,14,54,20,110
41.03240,-0.12093,-0.15173,0.00000,0.03196,0.97649,-0.18788,0.0,2023,6,7,14,54,20,120
41.03250,-0.13843,-0.08173,0.00000,0.03270,0.97685,-0.19142,0.0,2023,6,7,14,54,20,130
41.03260,-0.05093,0.04077,0.00000,0.03367,0.97624,-0.19008,0.0,2023,6,7,14,54,20,140
41.03270,0.07157,-0.02923,0.00000,0.03270,0.97454,-0.18873,0.0,2023,6,7,14,54,20,150
41.03280,0.01907,0.11077,0.00000,0.03343,0.97563,-0.18983,0.0,2023,6,7,14,54,20,160
41.03290,0.12407,0.07577,0.00000,0.03245,0.97600,-0.18873,0.0,2023,6,7,14,54,20,170
41.03300,-0.15593,0.07577,0.00000,0.03050,0.97820,-0.19069,0.0,2023,6,7,14,54,20,180
41.03310,0.05407,-0.20423,0.00000,0.03135,0.97478,-0.19020,0.0,2023,6,7,14,54,20,190
41.03320,-0.03343,0.04077,0.00000,0.03160,0.97685,-0.19008,0.0,2023,6,7,14,54,20,200
41.03330,0.17657,0.02327,0.00000,0.03331,0.97759,-0.18910,0.0,2023,6,7,14,54,20,210
41.03340,-0.20843,0.12827,0.00000,0.03209,0.97771,-0.18922,0.0,2023,6,7,14,54,20,220
41.03350,-0.08593,0.00577,0.00000,0.03050,0.97673,-0.18800,0.0,2023,6,7,14,54,20,230
41.03360,-0.08593,0.09327,0.00000,0.03038,0.97649,-0.18910,0.0,2023,6,7,14,54,20,240
41.03370,-0.10343,-0.06423,0.00000,0.03123,0.97710,-0.18959,0.0,2023,6,7,14,54,20,250
41.03380,0.00157,0.35577,0.00000,0.03392,0.97466,-0.18934,0.0,2023,6,7,14,54,20,260
41.03390,-0.08593,0.05827,0.00000,0.03221,0.97612,-0.18934,0.0,2023,6,7,14,54,20,270
41.03400,-0.01593,0.19827,0.00000,0.03355,0.97685,-0.18934,0.0,2023,6,7,14,54,20,280
41.03410,0.19407,-0.09923,0.00000,0.03428,0.97539,-0.18849,0.0,2023,6,7,14,54,20,290
41.03420,0.12407,0.05827,0.00000,0.03282,0.97588,-0.19044,0.0,2023,6,7,14,54,20,300
41.03430,0.14158,-0.13423,0.00000,0.03221,0.97527,-0.19008,0.0,2023,6,7,14,54,20,310
41.03440,-0.06842,0.07577,0.00000,0.03282,0.97490,-0.18910,0.0,2023,6,7,14,54,20,320
41.03450,0.03658,-0.04673,0.00000,0.02989,0.97844,-0.18861,0.0,2023,6,7,14,54,20,330
41.03460,-0.05093,-0.11673,0.00000,0.03123,0.97710,-0.18678,0.0,2023,6,7,14,54,20,340
41.03470,0.14158,0.11077,0.00000,0.03148,0.97515,-0.18873,0.0,2023,6,7,14,54,20,350
41.03480,0.03658,0.04077,0.00000,0.03111,0.97563,-0.18873,0.0,2023,6,7,14,54,20,360
41.03490,0.08907,-0.04673,0.00000,0.03282,0.97795,-0.18983,0.0,2023,6,7,14,54,20,370
41.03500,0.14158,-0.02923,0.00000,0.02904,0.97722,-0.18776,0.0,2023,6,7,14,54,20,380
41.03510,-0.10343,0.09327,0.00000,0.03148,0.97624,-0.18788,0.0,2023,6,7,14,54,20,390
41.03520,0.05407,0.07577,0.00000,0.03172,0.97551,-0.18751,0.0,2023,6,7,14,54,20,400
41.03530,0.07157,0.05827,0.00000,0.03331,0.97795,-0.18971,0.0,2023,6,7,14,54,20,410
41.03540,-0.06842,0.07577,0.00000,0.03294,0.97576,-0.18837,0.0,2023,6,7,14,54,20,420
41.03550,-0.06842,-0.01173,0.00000,0.03221,0.97502,-0.18800,0.0,2023,6,7,14,54,20,430
41.03560,0.17657,-0.20423,0.00000,0.03367,0.97881,-0.18776,0.0,2023,6,7,14,54,20,440
41.03570,-0.19093,0.07577,0.00000,0.03013,0.97649,-0.18886,0.0,2023,6,7,14,54,20,450
41.03580,-0.03343,-0.04673,0.00000,0.03318,0.97685,-0.19191,0.0,2023,6,7,14,54,20,460
41.03590,0.08907,0.18077,0.00000,0.03306,0.97746,-0.18825,0.0,2023,6,7,14,54,20,470
41.03600,0.07157,-0.09923,0.00000,0.03245,0.97783,-0.18776,0.0,2023,6,7,14,54,21,480
41.03610,-0.10343,-0.09923,0.00000,0.03026,0.97783,-0.18995,0.0,2023,6,7,14,54,21,490
41.03620,0.03658,0.12827,0.00000,0.03257,0.97539,-0.18934,0.0,2023,6,7,14,54,21,500
41.03630,0.19407,-0.30923,0.00000,0.03148,0.97539,-0.19044,0.0,2023,6,7,14,54,21,510
41.03640,0.01907,0.04077,0.00000,0.03233,0.97563,-0.18788,0.0,2023,6,7,14,54,21,520
41.03650,-0.12093,0.04077,0.00000,0.03270,0.97783,-0.18776,0.0,2023,6,7,14,54,21,530
41.03660,0.05407,-0.02923,0.00000,0.03148,0.97673,-0.18910,0.0,2023,6,7,14,54,21,540
41.03670,0.00157,0.04077,0.00000,0.03318,0.97576,-0.19081,0.0,2023,6,7,14,54,21,550
41.03680,-0.10343,-0.15173,0.00000,0.03209,0.97649,-0.19056,0.0,2023,6,7,14,54,21,560
41.03690,0.12407,0.11077,0.00000,0.03318,0.97771,-0.19081,0.0,2023,6,7,14,54,21,570
41.03700,-0.01593,0.02327,0.00000,0.03074,0.97319,-0.18959,0.0,2023,6,7,14,54,21,580
41.03710,0.01907,-0.06423,0.00000,0.02977,0.97637,-0.18934,0.0,2023,6,7,14,54,21,590
41.03720,0.01907,0.09327,0.00000,0.03221,0.97746,-0.19044,0.0,2023,6,7,14,54,21,600
41.03730,0.01907,0.07577,0.00000,0.03160,0.97600,-0.18861,0.0,2023,6,7,14,54,21,610
41.03740,-0.03343,-0.04673,0.00000,0.03306,0.97698,-0.19093,0.0,2023,6,7,14,54,21,620
41.03750,0.38657,0.00577,0.00000,0.03111,0.97734,-0.19142,0.0,2023,6,7,14,54,21,630
41.03760,0.07157,-0.01173,0.00000,0.03135,0.97295,-0.18532,0.0,2023,6,7,14,54,21,640
41.03770,0.05407,-0.13423,0.00000,0.03404,0.97502,-0.19166,0.0,2023,6,7,14,54,21,650
41.03780,0.14158,0.00577,0.00000,0.03282,0.97746,-0.19056,0.0,2023,6,7,14,54,21,660
41.03790,-0.26093,-0.11673,0.00000,0.03209,0.97417,-0.18703,0.0,2023,6,7,14,54,21,670
41.03800,0.35157,0.00577,0.00000,0.03099,0.97612,-0.19130,0.0,2023,6,7,14,54,21,680
41.03810,-0.06842,-0.09923,0.00000,0.03050,0.97466,-0.18715,0.0,2023,6,7,14,54,21,690
41.03820,-0.19093,0.07577,0.00000,0.03111,0.97832,-0.19166,0.0,2023,6,7,14,54,21,700
41.03830,0.42157,-0.30923,0.00000,0.03343,0.97441,-0.18812,0.0,2023,6,7,14,54,21,710
41.03840,-0.34843,-0.02923,0.00000,0.03404,0.97734,-0.18703,0.0,2023,6,7,14,54,21,720
41.03850,0.36908,-0.13423,0.00000,0.03135,0.97466,-0.19130,0.0,2023,6,7,14,54,21,730
41.03860,0.38657,-0.25673,0.00000,0.03123,0.97710,-0.18617,0.0,2023,6,7,14,54,21,740
41.03870,-0.20843,-0.01173,0.00000,0.03526,0.97795,-0.18934,0.0,2023,6,7,14,54,21,750
41.03880,0.42157,0.02327,0.00000,0.03209,0.97478,-0.19130,0.0,2023,6,7,14,54,21,760
41.03890,-0.12093,0.16327,0.00000,0.03038,0.97576,-0.18654,0.0,2023,6,7,14,54,21,770
41.03900,0.08907,0.00577,0.00000,0.03001,0.97722,-0.19191,0.0,2023,6,7,14,54,21,780
41.03910,0.19407,0.18077,0.00000,0.03099,0.97746,-0.18983,0.0,2023,6,7,14,54,21,790
41.03920,-0.19093,-0.02923,0.00000,0.03367,0.97612,-0.18971,0.0,2023,6,7,14,54,21,800
41.03930,-0.10343,-0.06423,0.00000,0.03074,0.97807,-0.19056,0.0,2023,6,7,14,54,21,810
41.03940,0.10657,-0.23923,0.00000,0.03294,0.97673,-0.18898,0.0,2023,6,7,14,54,21,820
41.03950,-0.34843,0.11077,0.00000,0.03160,0.97527,-0.18788,0.0,2023,6,7,14,54,21,830
41.03960,0.29907,-0.04673,0.00000,0.03306,0.97746,-0.19166,0.0,2023,6,7,14,54,21,840
41.03970,-0.01593,0.11077,0.00000,0.03392,0.97710,-0.18873,0.0,2023,6,7,14,54,21,850
41.03980,0.00157,-0.18673,0.00000,0.03172,0.97698,-0.18642,0.0,2023,6,7,14,54,21,860
41.03990,0.08907,-0.02923,0.00000,0.03099,0.97527,-0.19178,0.0,2023,6,7,14,54,21,870
41.04000,0.17657,-0.02923,0.00000,0.03282,0.97637,-0.19154,0.0,2023,6,7,14,54,21,880
41.04010,-0.12093,0.05827,0.00000,0.03294,0.97649,-0.19056,0.0,2023,6,7,14,54,21,890
41.04020,0.03658,-0.06423,0.00000,0.03416,0.97332,-0.19056,0.0,2023,6,7,14,54,21,900
41.04030,0.00157,-0.04673,0.00000,0.03233,0.97783,-0.19117,0.0,2023,6,7,14,54,21,910
41.04040,0.05407,0.00577,0.00000,0.03111,0.97478,-0.18849,0.0,2023,6,7,14,54,21,920
41.04050,-0.08593,0.11077,0.00000,0.03074,0.97527,-0.18837,0.0,2023,6,7,14,54,21,930
41.04060,-0.06842,-0.06423,0.00000,0.03160,0.97539,-0.18861,0.0,2023,6,7,14,54,21,940
41.04070,0.03658,0.07577,0.00000,0.03074,0.97661,-0.18739,0.0,2023,6,7,14,54,21,950
41.04080,0.08907,-0.13423,0.00000,0.03074,0.97600,-0.18922,0.0,2023,6,7,14,54,21,960
41.04090,0.07157,0.12827,0.00000,0.03172,0.97393,-0.18861,0.0,2023,6,7,14,54,21,970
41.04100,0.07157,0.02327,0.00000,0.03160,0.97612,-0.19142,0.0,2023,6,7,14,54,21,980
41.04110,0.01907,0.11077,0.00000,0.03123,0.97405,-0.18971,0.0,2023,6,7,14,54,21,990
41.04120,0.14158,-0.18673,0.00000,0.03184,0.97624,-0.18666,0.0,2023,6,7,14,54,21,0
41.04130,-0.03343,0.00577,0.00000,0.02989,0.97771,-0.18690,0.0,2023,6,7,14,54,21,10
41.04140,0.19407,0.05827,0.00000,0.03135,0.97783,-0.18788,0.0,2023,6,7,14,54,21,20
41.04150,-0.10343,-0.08173,0.00000,0.03172,0.97771,-0.18995,0.0,2023,6,7,14,54,21,30
41.04160,0.19407,0.05827,0.00000,0.03001,0.97820,-0.18812,0.0,2023,6,7,14,54,21,40
41.04170,0.05407,0.07577,0.00000,0.03148,0.97673,-0.18727,0.0,2023,6,7,14,54,21,50
41.04180,0.31657,-0.08173,0.00000,0.03087,0.97490,-0.18898,0.0,2023,6,7,14,54,21,60
41.04190,0.10657,0.26827,0.00000,0.03282,0.97893,-0.18898,0.0,2023,6,7,14,54,21,70
41.04200,0.05407,-0.13423,0.00000,0.03001,0.97746,-0.18800,0.0,2023,6,7,14,54,21,80
41.04210,0.08907,0.11077,0.00000,0.02977,0.97649,-0.19069,0.0,2023,6,7,14,54,21,90
41.04220,0.15908,0.09327,0.00000,0.03074,0.97417,-0.19032,0.0,2023,6,7,14,54,21,100
41.04230,-0.03343,0.11077,0.00000,0.03440,0.97454,-0.18849,0.0,2023,6,7,14,54,21,110
41.04240,0.07157,-0.11673,0.00000,0.03379,0.97820,-0.18983,0.0,2023,6,7,14,54,21,120
41.04250,0.22907,-0.01173,0.00000,0.03404,0.97466,-0.18751,0.0,2023,6,7,14,54,21,130
41.04260,-0.06842,-0.15173,0.00000,0.03099,0.97746,-0.18776,0.0,2023,6,7,14,54,21,140
41.04270,0.03658,-0.20423,0.00000,0.02916,0.97746,-0.18922,0.0,2023,6,7,14,54,21,150
41.04280,-0.15593,-0.06423,0.00000,0.02855,0.97393,-0.19020,0.0,2023,6,7,14,54,21,160
41.04290,0.03658,0.04077,0.00000,0.03148,0.97576,-0.18861,0.0,2023,6,7,14,54,21,170
41.04300,0.05407,0.05827,0.00000,0.03404,0.97759,-0.18898,0.0,2023,6,7,14,54,21,180
41.04310,0.15908,-0.08173,0.00000,0.03331,0.97563,-0.18739,0.0,2023,6,7,14,54,21,190
41.04320,0.01907,-0.04673,0.00000,0.03233,0.97551,-0.18959,0.0,2023,6,7,14,54,21,200
41.04330,0.07157,0.07577,0.00000,0.03233,0.97563,-0.18983,0.0,2023,6,7,14,54,21,210
41.04340,-0.05093,-0.11673,0.00000,0.03270,0.97600,-0.18898,0.0,2023,6,7,14,54,21,220
41.04350,-0.10343,-0.02923,0.00000,0.03172,0.97698,-0.18947,0.0,2023,6,7,14,54,21,230
41.04360,0.12407,-0.02923,0.00000,0.03221,0.97478,-0.18995,0.0,2023,6,7,14,54,21,240
41.04370,-0.15593,0.02327,0.00000,0.03233,0.97600,-0.18812,0.0,2023,6,7,14,54,21,250
41.04380,0.05407,0.14577,0.00000,0.03209,0.97649,-0.18947,0.0,2023,6,7,14,54,21,260
41.04390,0.19407,-0.13423,0.00000,0.03196,0.97832,-0.19044,0.0,2023,6,7,14,54,21,270
41.04400,0.03658,-0.09923,0.00000,0.02965,0.97612,-0.18959,0.0,2023,6,7,14,54,21,280
41.04410,-0.03343,-0.15173,0.00000,0.03294,0.97649,-0.19020,0.0,2023,6,7,14,54,21,290
41.04420,-0.05093,0.23327,0.00000,0.03282,0.97734,-0.18629,0.0,2023,6,7,14,54,21,300
41.04430,-0.06842,0.07577,0.00000,0.03270,0.97820,-0.18812,0.0,2023,6,7,14,54,21,310
41.04440,0.26408,-0.16923,0.00000,0.03111,0.97795,-0.18764,0.0,2023,6,7,14,54,21,320
41.04450,-0.12093,-0.11673,0.00000,0.03196,0.97478,-0.18922,0.0,2023,6,7,14,54,21,330
41.04460,0.07157,0.12827,0.00000,0.03355,0.97820,-0.19105,0.0,2023,6,7,14,54,21,340
41.04470,0.08907,0.04077,0.00000,0.03196,0.97832,-0.18739,0.0,2023,6,7,14,54,21,350
41.04480,0.00157,0.21577,0.00000,0.03257,0.97685,-0.18910,0.0,2023,6,7,14,54,21,360
41.04490,0.10657,0.00577,0.00000,0.03270,0.97466,-0.19069,0.0,2023,6,7,14,54,21,370
41.04500,-0.05093,0.04077,0.00000,0.03123,0.97649,-0.18959,0.0,2023,6,7,14,54,22,380
41.04510,0.07157,-0.25673,0.00000,0.03184,0.97698,-0.19081,0.0,2023,6,7,14,54,22,390
41.04520,-0.05093,0.11077,0.00000,0.03428,0.97783,-0.18873,0.0,2023,6,7,14,54,22,400
41.04530,-0.12093,0.07577,0.00000,0.03184,0.97637,-0.18825,0.0,2023,6,7,14,54,22,410
41.04540,0.00157,0.19827,0.00000,0.03184,0.97490,-0.19069,0.0,2023,6,7,14,54,22,420
41.04550,-0.06842,0.30327,0.00000,0.03148,0.97722,-0.19044,0.0,2023,6,7,14,54,22,430
41.04560,0.01907,0.07577,0.00000,0.03209,0.97429,-0.19081,0.0,2023,6,7,14,54,22,440
41.04570,0.08907,0.05827,0.00000,0.02977,0.97527,-0.19203,0.0,2023,6,7,14,54,22,450
41.04580,0.05407,-0.02923,0.00000,0.03099,0.97576,-0.18886,0.0,2023,6,7,14,54,22,460
41.04590,-0.06842,0.07577,0.00000,0.03294,0.97649,-0.18751,0.0,2023,6,7,14,54,22,470
41.04600,0.22907,0.05827,0.00000,0.03257,0.97490,-0.19032,0.0,2023,6,7,14,54,22,480
41.04610,0.03658,-0.04673,0.00000,0.03087,0.97624,-0.18873,0.0,2023,6,7,14,54,22,490
41.04620,-0.15593,0.12827,0.00000,0.03343,0.97588,-0.18873,0.0,2023,6,7,14,54,22,500
41.04630,0.08907,-0.01173,0.00000,0.03196,0.97515,-0.19239,0.0,2023,6,7,14,54,22,510
41.04640,0.28157,-0.02923,0.00000,0.03257,0.97515,-0.18947,0.0,2023,6,7,14,54,22,520
41.04650,-0.01593,-0.13423,0.00000,0.03111,0.97820,-0.19105,0.0,2023,6,7,14,54,22,530
41.04660,-0.17342,0.04077,0.00000,0.03148,0.97405,-0.19032,0.0,2023,6,7,14,54,22,540
41.04670,0.31657,-0.09923,0.00000,0.03160,0.97478,-0.18886,0.0,2023,6,7,14,54,22,550
41.04680,0.12407,0.14577,0.00000,0.03306,0.97722,-0.18922,0.0,2023,6,7,14,54,22,560
41.04690,0.05407,-0.08173,0.00000,0.03355,0.97710,-0.18971,0.0,2023,6,7,14,54,22,570
41.04700,0.00157,0.09327,0.00000,0.03050,0.97746,-0.18910,0.0,2023,6,7,14,54,22,580
41.04710,0.14158,-0.01173,0.00000,0.02989,0.97905,-0.18971,0.0,2023,6,7,14,54,22,590
41.04720,-0.08593,-0.04673,0.00000,0.03184,0.97466,-0.19044,0.0,2023,6,7,14,54,22,600
41.04730,0.03658,0.02327,0.00000,0.03123,0.97905,-0.19178,0.0,2023,6,7,14,54,22,610
41.04740,0.00157,-0.06423,0.00000,0.03245,0.97746,-0.19154,0.0,2023,6,7,14,54,22,620
41.04750,0.05407,0.05827,0.00000,0.03099,0.97649,-0.18959,0.0,2023,6,7,14,54,22,630
41.04760,0.00157,-0.13423,0.00000,0.03123,0.97502,-0.18739,0.0,2023,6,7,14,54,22,640
41.04770,0.00157,-0.09923,0.00000,0.03099,0.97466,-0.19032,0.0,2023,6,7,14,54,22,650
41.04780,0.05407,0.04077,0.00000,0.02940,0.97710,-0.18922,0.0,2023,6,7,14,54,22,660
41.04790,-0.15593,0.16327,0.00000,0.03270,0.97600,-0.18727,0.0,2023,6,7,14,54,22,670
41.04800,0.08907,0.14577,0.00000,0.03123,0.97637,-0.19056,0.0,2023,6,7,14,54,22,680
41.04810,0.03658,0.25077,0.00000,0.03257,0.97783,-0.19032,0.0,2023,6,7,14,54,22,690
41.04820,-0.08593,0.00577,0.00000,0.03318,0.97576,-0.18861,0.0,2023,6,7,14,54,22,700
41.04830,-0.03343,-0.01173,0.00000,0.03440,0.97576,-0.18825,0.0,2023,6,7,14,54,22,710
41.04840,0.10657,0.09327,0.00000,0.03184,0.97698,-0.19056,0.0,2023,6,7,14,54,22,720
41.04850,-0.03343,-0.11673,0.00000,0.03160,0.97698,-0.18995,0.0,2023,6,7,14,54,22,730
41.04860,0.17657,-0.02923,0.00000,0.03099,0.97576,-0.19154,0.0,2023,6,7,14,54,22,740
41.04870,0.10657,-0.09923,0.00000,0.03050,0.97588,-0.18800,0.0,2023,6,7,14,54,22,750
41.04880,0.08907,0.04077,0.00000,0.03184,0.97576,-0.18764,0.0,2023,6,7,14,54,22,760
41.04890,-0.01593,0.07577,0.00000,0.03123,0.97990,-0.19032,0.0,2023,6,7,14,54,22,770
41.04900,-0.03343,0.04077,0.00000,0.03135,0.97807,-0.18995,0.0,2023,6,7,14,54,22,780
41.04910,0.08907,-0.06423,0.00000,0.03306,0.97710,-0.18995,0.0,2023,6,7,14,54,22,790
41.04920,0.08907,0.12827,0.00000,0.03270,0.97588,-0.18800,0.0,2023,6,7,14,54,22,800
41.04930,-0.03343,0.14577,0.00000,0.03172,0.97637,-0.18898,0.0,2023,6,7,14,54,22,810
41.04940,-0.01593,-0.02923,0.00000,0.03184,0.97783,-0.18922,0.0,2023,6,7,14,54,22,820
41.04950,0.14158,0.11077,0.00000,0.03404,0.97527,-0.18861,0.0,2023,6,7,14,54,22,830
41.04960,-0.03343,0.04077,0.00000,0.02952,0.97685,-0.18947,0.0,2023,6,7,14,54,22,840
41.04970,0.05407,-0.11673,0.00000,0.03294,0.97856,-0.18934,0.0,2023,6,7,14,54,22,850
41.04980,0.00157,-0.08173,0.00000,0.03135,0.97844,-0.19117,0.0,2023,6,7,14,54,22,860
41.04990,0.07157,-0.13423,0.00000,0.03306,0.97661,-0.18971,0.0,2023,6,7,14,54,22,870
41.05000,0.08907,0.05827,0.00000,0.03270,0.97502,-0.19044,0.0,2023,6,7,14,54,22,880
41.05010,0.00157,-0.01173,0.00000,0.03074,0.97612,-0.18922,0.0,2023,6,7,14,54,22,890
41.05020,-0.03343,0.05827,0.00000,0.03379,0.97612,-0.19093,0.0,2023,6,7,14,54,22,900
41.05030,-0.05093,0.04077,0.00000,0.03196,0.97710,-0.19154,0.0,2023,6,7,14,54,22,910
41.05040,0.10657,0.16327,0.00000,0.03367,0.97856,-0.18873,0.0,2023,6,7,14,54,22,920
41.05050,-0.05093,0.16327,0.00000,0.03172,0.97685,-0.18886,0.0,2023,6,7,14,54,22,930
41.05060,0.10657,0.04077,0.00000,0.03233,0.97637,-0.18739,0.0,2023,6,7,14,54,22,940
41.05070,0.21157,-0.18673,0.00000,0.03184,0.97368,-0.19032,0.0,2023,6,7,14,54,22,950
41.05080,0.03658,-0.08173,0.00000,0.03209,0.97588,-0.19044,0.0,2023,6,7,14,54,22,960
41.05090,0.07157,0.00577,0.00000,0.03379,0.97624,-0.19227,0.0,2023,6,7,14,54,22,970
41.05100,-0.03343,0.11077,0.00000,0.03050,0.97771,-0.18947,0.0,2023,6,7,14,54,22,980
41.05110,0.07157,-0.02923,0.00000,0.03221,0.97771,-0.19020,0.0,2023,6,7,14,54,22,990
41.05120,0.01907,-0.01173,0.00000,0.03026,0.97478,-0.18788,0.0,2023,6,7,14,54,22,0
41.05130,0.05407,0.02327,0.00000,0.02940,0.97466,-0.19081,0.0,2023,6,7,14,54,22,10
41.05140,0.08907,0.11077,0.00000,0.03172,0.97759,-0.18959,0.0,2023,6,7,14,54,22,20
41.05150,-0.15593,0.05827,0.00000,0.02965,0.97563,-0.19093,0.0,2023,6,7,14,54,22,30
41.05160,0.03658,0.04077,0.00000,0.03013,0.97539,-0.19130,0.0,2023,6,7,14,54,22,40
41.05170,0.19407,0.09327,0.00000,0.02952,0.97490,-0.18971,0.0,2023,6,7,14,54,22,50
41.05180,0.22907,-0.06423,0.00000,0.02940,0.97771,-0.18788,0.0,2023,6,7,14,54,22,60
41.05190,0.01907,-0.22173,0.00000,0.03111,0.97746,-0.18861,0.0,2023,6,7,14,54,22,70
41.05200,0.07157,-0.18673,0.00000,0.03123,0.97698,-0.19081,0.0,2023,6,7,14,54,22,80
41.05210,0.19407,-0.04673,0.00000,0.03306,0.97588,-0.18788,0.0,2023,6,7,14,54,22,90
41.05220,-0.06842,0.19827,0.00000,0.03099,0.97710,-0.19069,0.0,2023,6,7,14,54,22,100
41.05230,0.00157,-0.11673,0.00000,0.03111,0.97600,-0.18983,0.0,2023,6,7,14,54,22,110
41.05240,0.17657,-0.09923,0.00000,0.02965,0.97368,-0.19081,0.0,2023,6,7,14,54,22,120
41.05250,-0.01593,-0.01173,0.00000,0.03111,0.97685,-0.19374,0.0,2023,6,7,14,54,22,130
41.05260,0.24657,0.00577,0.00000,0.03282,0.97722,-0.18983,0.0,2023,6,7,14,54,22,140
41.05270,-0.26093,0.11077,0.00000,0.03111,0.97734,-0.18873,0.0,2023,6,7,14,54,22,150
41.05280,-0.10343,0.02327,0.00000,0.03172,0.97795,-0.18995,0.0,2023,6,7,14,54,22,160
41.05290,-0.05093,0.07577,0.00000,0.03148,0.97539,-0.18727,0.0,2023,6,7,14,54,22,170
41.05300,0.12407,0.00577,0.00000,0.03306,0.97612,-0.19130,0.0,2023,6,7,14,54,22,180
41.05310,-0.17342,0.09327,0.00000,0.03221,0.97722,-0.19093,0.0,2023,6,7,14,54,22,190
41.05320,0.03658,0.00577,0.00000,0.03416,0.97588,-0.19142,0.0,2023,6,7,14,54,22,200
41.05330,0.14158,-0.04673,0.00000,0.03148,0.97661,-0.19032,0.0,2023,6,7,14,54,22,210
41.05340,-0.13843,0.00577,0.00000,0.03148,0.97551,-0.18971,0.0,2023,6,7,14,54,22,220
41.05350,-0.03343,0.04077,0.00000,0.03209,0.97539,-0.19081,0.0,2023,6,7,14,54,22,230
41.05360,0.07157,-0.11673,0.00000,0.03209,0.97795,-0.19020,0.0,2023,6,7,14,54,22,240
41.05370,0.00157,0.21577,0.00000,0.03282,0.97551,-0.19008,0.0,2023,6,7,14,54,22,250
41.05380,0.01907,-0.06423,0.00000,0.03099,0.97600,-0.18812,0.0,2023,6,7,14,54,22,260
41.05390,0.03658,0.04077,0.00000,0.03209,0.97478,-0.18812,0.0,2023,6,7,14,54,22,270
41.05400,-0.10343,-0.06423,0.00000,0.02989,0.97722,-0.19032,0.0,2023,6,7,14,54,23,280
41.05410,-0.06842,-0.06423,0.00000,0.03257,0.97649,-0.18934,0.0,2023,6,7,14,54,23,290
41.05420,-0.06842,-0.04673,0.00000,0.03050,0.97539,-0.18873,0.0,2023,6,7,14,54,23,300
41.05430,0.12407,0.02327,0.00000,0.03306,0.97417,-0.18910,0.0,2023,6,7,14,54,23,310
41.05440,0.00157,0.07577,0.00000,0.03123,0.97746,-0.18971,0.0,2023,6,7,14,54,23,320
41.05450,0.01907,0.12827,0.00000,0.03148,0.97539,-0.18812,0.0,2023,6,7,14,54,23,330
41.05460,0.10657,-0.22173,0.00000,0.03257,0.97563,-0.19239,0.0,2023,6,7,14,54,23,340
41.05470,-0.12093,-0.25673,0.00000,0.03062,0.97563,-0.19105,0.0,2023,6,7,14,54,23,350
41.05480,-0.13843,0.14577,0.00000,0.03148,0.97624,-0.19032,0.0,2023,6,7,14,54,23,360
41.05490,0.00157,0.18077,0.00000,0.03233,0.97746,-0.19093,0.0,2023,6,7,14,54,23,370
41.05500,0.07157,0.04077,0.00000,0.03196,0.97637,-0.19020,0.0,2023,6,7,14,54,23,380
41.05510,-0.06842,-0.01173,0.00000,0.02965,0.97734,-0.19154,0.0,2023,6,7,14,54,23,390
41.05520,-0.05093,0.05827,0.00000,0.03221,0.97576,-0.19227,0.0,2023,6,7,14,54,23,400
41.05530,0.15908,-0.16923,0.00000,0.03209,0.97588,-0.19191,0.0,2023,6,7,14,54,23,410
41.05540,0.00157,0.14577,0.00000,0.03050,0.97490,-0.19142,0.0,2023,6,7,14,54,23,420
41.05550,0.01907,0.00577,0.00000,0.03172,0.97441,-0.19069,0.0,2023,6,7,14,54,23,430
41.05560,0.00157,0.05827,0.00000,0.03160,0.97551,-0.19203,0.0,2023,6,7,14,54,23,440
41.05570,-0.12093,0.04077,0.00000,0.02891,0.97795,-0.18934,0.0,2023,6,7,14,54,23,450
41.05580,-0.17342,0.11077,0.00000,0.03148,0.97905,-0.19203,0.0,2023,6,7,14,54,23,460
41.05590,0.00157,0.07577,0.00000,0.03135,0.97502,-0.19008,0.0,2023,6,7,14,54,23,470
41.05600,-0.03343,-0.02923,0.00000,0.03270,0.97698,-0.18947,0.0,2023,6,7,14,54,23,480
41.05610,0.05407,-0.37923,0.00000,0.03074,0.97734,-0.19008,0.0,2023,6,7,14,54,23,490
41.05620,-0.15593,0.09327,0.00000,0.03245,0.97356,-0.19020,0.0,2023,6,7,14,54,23,500
41.05630,0.19407,-0.01173,0.00000,0.03221,0.97661,-0.18971,0.0,2023,6,7,14,54,23,510
41.05640,0.08907,0.05827,0.00000,0.03392,0.97661,-0.19130,0.0,2023,6,7,14,54,23,520
41.05650,0.10657,-0.01173,0.00000,0.03172,0.97393,-0.18971,0.0,2023,6,7,14,54,23,530
41.05660,0.05407,0.00577,0.00000,0.03099,0.97637,-0.19032,0.0,2023,6,7,14,54,23,540
41.05670,0.07157,-0.08173,0.00000,0.03294,0.97539,-0.19239,0.0,2023,6,7,14,54,23,550
41.05680,0.01907,0.21577,0.00000,0.03416,0.97978,-0.19008,0.0,2023,6,7,14,54,23,560
41.05690,-0.03343,0.04077,0.00000,0.03209,0.97722,-0.19032,0.0,2023,6,7,14,54,23,570
41.05700,-0.05093,0.28577,0.00000,0.03038,0.97637,-0.19117,0.0,2023,6,7,14,54,23,580
41.05710,-0.15593,-0.01173,0.00000,0.03001,0.97673,-0.19032,0.0,2023,6,7,14,54,23,590
41.05720,-0.01593,-0.04673,0.00000,0.03172,0.97527,-0.19044,0.0,2023,6,7,14,54,23,600
41.05730,-0.01593,0.11077,0.00000,0.03099,0.97466,-0.19178,0.0,2023,6,7,14,54,23,610
41.05740,-0.01593,-0.02923,0.00000,0.03111,0.97637,-0.19227,0.0,2023,6,7,14,54,23,620
41.05750,-0.05093,0.04077,0.00000,0.03062,0.97600,-0.19191,0.0,2023,6,7,14,54,23,630
41.05760,-0.08593,0.18077,0.00000,0.03099,0.97527,-0.19105,0.0,2023,6,7,14,54,23,640
41.05770,0.05407,0.00577,0.00000,0.02891,0.97673,-0.19178,0.0,2023,6,7,14,54,23,650
41.05780,0.07157,0.00577,0.00000,0.03111,0.97783,-0.19154,0.0,2023,6,7,14,54,23,660
41.05790,-0.08593,0.26827,0.00000,0.03148,0.97454,-0.19117,0.0,2023,6,7,14,54,23,670
41.05800,0.12407,0.09327,0.00000,0.03099,0.97734,-0.19032,0.0,2023,6,7,14,54,23,680
41.05810,0.08907,-0.06423,0.00000,0.03306,0.97637,-0.19069,0.0,2023,6,7,14,54,23,690
41.05820,0.15908,-0.20423,0.00000,0.02867,0.97576,-0.18971,0.0,2023,6,7,14,54,23,700
41.05830,0.03658,-0.09923,0.00000,0.03221,0.97637,-0.18886,0.0,2023,6,7,14,54,23,710
41.05840,-0.10343,0.00577,0.00000,0.03282,0.97588,-0.18959,0.0,2023,6,7,14,54,23,720
41.05850,0.01907,0.16327,0.00000,0.03038,0.97759,-0.19081,0.0,2023,6,7,14,54,23,730
41.05860,-0.03343,-0.13423,0.00000,0.03026,0.97783,-0.19105,0.0,2023,6,7,14,54,23,740
41.05870,0.17657,0.02327,0.00000,0.03099,0.97649,-0.18934,0.0,2023,6,7,14,54,23,750
41.05880,0.10657,-0.06423,0.00000,0.02965,0.97600,-0.19093,0.0,2023,6,7,14,54,23,760
41.05890,0.12407,-0.13423,0.00000,0.03160,0.97539,-0.19191,0.0,2023,6,7,14,54,23,770
41.05900,-0.05093,0.19827,0.00000,0.03282,0.97746,-0.19069,0.0,2023,6,7,14,54,23,780
41.05910,0.00157,0.12827,0.00000,0.03172,0.97576,-0.19093,0.0,2023,6,7,14,54,23,790
41.05920,0.15908,-0.11673,0.00000,0.03282,0.97759,-0.19142,0.0,2023,6,7,14,54,23,800
41.05930,-0.01593,0.12827,0.00000,0.03001,0.97746,-0.19166,0.0,2023,6,7,14,54,23,810
41.05940,-0.08593,-0.02923,0.00000,0.03160,0.97588,-0.19130,0.0,2023,6,7,14,54,23,820
41.05950,0.17657,0.04077,0.00000,0.03294,0.97563,-0.18873,0.0,2023,6,7,14,54,23,830
41.05960,0.29907,-0.15173,0.00000,0.03148,0.97698,-0.19056,0.0,2023,6,7,14,54,23,840
41.05970,0.15908,-0.20423,0.00000,0.03123,0.97637,-0.19044,0.0,2023,6,7,14,54,23,850
41.05980,0.14158,-0.09923,0.00000,0.03257,0.97734,-0.18922,0.0,2023,6,7,14,54,23,860
41.05990,0.19407,-0.08173,0.00000,0.03270,0.97685,-0.19203,0.0,2023,6,7,14,54,23,870
41.06000,0.14158,-0.04673,0.00000,0.03306,0.97600,-0.19069,0.0,2023,6,7,14,54,23,880
41.06010,-0.05093,-0.22173,0.00000,0.03257,0.97576,-0.19008,0.0,2023,6,7,14,54,23,890
41.06020,0.10657,0.05827,0.00000,0.03245,0.97661,-0.19056,0.0,2023,6,7,14,54,23,900
41.06030,0.05407,-0.01173,0.00000,0.03026,0.97539,-0.19044,0.0,2023,6,7,14,54,23,910
41.06040,-0.01593,-0.13423,0.00000,0.03209,0.97527,-0.18861,0.0,2023,6,7,14,54,23,920
41.06050,0.08907,-0.16923,0.00000,0.03294,0.97710,-0.19264,0.0,2023,6,7,14,54,23,930
41.06060,0.07157,-0.11673,0.00000,0.03294,0.97710,-0.19203,0.0,2023,6,7,14,54,23,940
41.06070,0.05407,0.09327,0.00000,0.03306,0.97417,-0.19069,0.0,2023,6,7,14,54,23,950
41.06080,0.12407,0.04077,0.00000,0.03135,0.97722,-0.19288,0.0,2023,6,7,14,54,23,960
41.06090,0.03658,-0.04673,0.00000,0.03343,0.97527,-0.19300,0.0,2023,6,7,14,54,23,970
41.06100,-0.20843,0.16327,0.00000,0.03099,0.97734,-0.18971,0.0,2023,6,7,14,54,23,980
41.06110,0.26408,-0.20423,0.00000,0.03184,0.97649,-0.19020,0.0,2023,6,7,14,54,23,990
41.06120,0.01907,0.04077,0.00000,0.03111,0.97624,-0.19032,0.0,2023,6,7,14,54,23,0
41.06130,0.12407,-0.15173,0.00000,0.03148,0.97539,-0.18934,0.0,2023,6,7,14,54,23,10
41.06140,0.03658,0.09327,0.00000,0.03062,0.97673,-0.18886,0.0,2023,6,7,14,54,23,20
41.06150,-0.10343,-0.02923,0.00000,0.03257,0.97600,-0.18959,0.0,2023,6,7,14,54,23,30
41.06160,-0.03343,-0.13423,0.00000,0.03294,0.97698,-0.18947,0.0,2023,6,7,14,54,23,40
41.06170,0.08907,0.00577,0.00000,0.03099,0.97759,-0.19166,0.0,2023,6,7,14,54,23,50
41.06180,-0.03343,0.02327,0.00000,0.03050,0.97734,-0.18947,0.0,2023,6,7,14,54,23,60
41.06190,-0.19093,0.23327,0.00000,0.03160,0.97600,-0.18995,0.0,2023,6,7,14,54,23,70
41.06200,0.08907,0.04077,0.00000,0.03172,0.97612,-0.18971,0.0,2023,6,7,14,54,23,80
41.06210,-0.05093,0.05827,0.00000,0.03148,0.97685,-0.18800,0.0,2023,6,7,14,54,23,90
41.06220,0.26408,0.16327,0.00000,0.03123,0.97576,-0.18934,0.0,2023,6,7,14,54,23,100
41.06230,0.15908,-0.11673,0.00000,0.03367,0.97466,-0.18934,0.0,2023,6,7,14,54,23,110
41.06240,0.15908,-0.13423,0.00000,0.03184,0.97661,-0.18910,0.0,2023,6,7,14,54,23,120
41.06250,0.26408,-0.04673,0.00000,0.03477,0.97637,-0.19056,0.0,2023,6,7,14,54,23,130
41.06260,0.19407,0.07577,0.00000,0.03099,0.97490,-0.18947,0.0,2023,6,7,14,54,23,140
41.06270,-0.06842,-0.13423,0.00000,0.03123,0.97478,-0.19032,0.0,2023,6,7,14,54,23,150
41.06280,0.03658,0.11077,0.00000,0.03026,0.97551,-0.19215,0.0,2023,6,7,14,54,23,160
41.06290,0.00157,-0.25673,0.00000,0.03221,0.97710,-0.18947,0.0,2023,6,7,14,54,24,170
41.06300,0.22907,-0.11673,0.00000,0.03294,0.97978,-0.18873,0.0,2023,6,7,14,54,24,180
41.06310,0.08907,0.14577,0.00000,0.03074,0.97637,-0.19178,0.0,2023,6,7,14,54,24,190
41.06320,0.03658,0.00577,0.00000,0.03087,0.97881,-0.18983,0.0,2023,6,7,14,54,24,200
41.06330,-0.06842,0.11077,0.00000,0.03050,0.97490,-0.18934,0.0,2023,6,7,14,54,24,210
41.06340,-0.05093,0.07577,0.00000,0.03160,0.97856,-0.19178,0.0,2023,6,7,14,54,24,220
41.06350,-0.06842,0.00577,0.00000,0.03196,0.97490,-0.19069,0.0,2023,6,7,14,54,24,230
41.06360,-0.12093,0.16327,0.00000,0.02989,0.97734,-0.19093,0.0,2023,6,7,14,54,24,240
41.06370,0.00157,0.07577,0.00000,0.03196,0.97515,-0.19117,0.0,2023,6,7,14,54,24,250
41.06380,-0.08593,0.25077,0.00000,0.03184,0.97820,-0.19130,0.0,2023,6,7,14,54,24,260
41.06390,0.08907,0.11077,0.00000,0.03123,0.97502,-0.19130,0.0,2023,6,7,14,54,24,270
41.06400,-0.13843,-0.06423,0.00000,0.02989,0.97698,-0.18959,0.0,2023,6,7,14,54,24,280
41.06410,0.07157,0.00577,0.00000,0.03209,0.97661,-0.18947,0.0,2023,6,7,14,54,24,290
41.06420,-0.05093,-0.01173,0.00000,0.03245,0.97502,-0.19276,0.0,2023,6,7,14,54,24,300
41.06430,0.07157,-0.22173,0.00000,0.03209,0.97661,-0.18922,0.0,2023,6,7,14,54,24,310
41.06440,0.21157,-0.01173,0.00000,0.03148,0.97478,-0.18995,0.0,2023,6,7,14,54,24,320
41.06450,-0.01593,0.09327,0.00000,0.02977,0.97722,-0.19239,0.0,2023,6,7,14,54,24,330
41.06460,0.07157,-0.09923,0.00000,0.03453,0.97600,-0.19093,0.0,2023,6,7,14,54,24,340
41.06470,0.00157,-0.08173,0.00000,0.03111,0.97820,-0.19105,0.0,2023,6,7,14,54,24,350
41.06480,0.03658,-0.06423,0.00000,0.03123,0.97624,-0.19020,0.0,2023,6,7,14,54,24,360
41.06490,0.00157,-0.11673,0.00000,0.03245,0.97539,-0.19008,0.0,2023,6,7,14,54,24,370
41.06500,0.05407,-0.29173,0.00000,0.03099,0.97539,-0.19117,0.0,2023,6,7,14,54,24,380
41.06510,0.05407,0.00577,0.00000,0.03013,0.97698,-0.19166,0.0,2023,6,7,14,54,24,390
41.06520,0.07157,-0.02923,0.00000,0.03160,0.97637,-0.18959,0.0,2023,6,7,14,54,24,400
41.06530,-0.06842,-0.04673,0.00000,0.03111,0.97502,-0.19008,0.0,2023,6,7,14,54,24,410
41.06540,0.07157,0.12827,0.00000,0.03282,0.97759,-0.19081,0.0,2023,6,7,14,54,24,420
41.06550,0.00157,0.04077,0.00000,0.03001,0.97551,-0.18825,0.0,2023,6,7,14,54,24,430
41.06560,-0.08593,-0.15173,0.00000,0.03221,0.97637,-0.18947,0.0,2023,6,7,14,54,24,440
41.06570,-0.03343,0.05827,0.00000,0.03074,0.97502,-0.19008,0.0,2023,6,7,14,54,24,450
41.06580,-0.01593,0.05827,0.00000,0.03074,0.97722,-0.19020,0.0,2023,6,7,14,54,24,460
41.06590,-0.13843,0.19827,0.00000,0.03135,0.97624,-0.18873,0.0,2023,6,7,14,54,24,470
41.06600,0.08907,0.09327,0.00000,0.03233,0.97441,-0.19020,0.0,2023,6,7,14,54,24,480
41.06610,0.10657,0.04077,0.00000,0.03318,0.97929,-0.19032,0.0,2023,6,7,14,54,24,490
41.06620,-0.08593,0.09327,0.00000,0.02952,0.97600,-0.19105,0.0,2023,6,7,14,54,24,500
41.06630,0.26408,0.00577,0.00000,0.02891,0.97637,-0.19166,0.0,2023,6,7,14,54,24,510
41.06640,-0.01593,-0.08173,0.00000,0.02940,0.97624,-0.18873,0.0,2023,6,7,14,54,24,520
41.06650,0.14158,0.16327,0.00000,0.03306,0.97502,-0.18983,0.0,2023,6,7,14,54,24,530
41.06660,0.08907,0.14577,0.00000,0.03379,0.97929,-0.18898,0.0,2023,6,7,14,54,24,540
41.06670,-0.12093,0.25077,0.00000,0.03087,0.97722,-0.18971,0.0,2023,6,7,14,54,24,550
41.06680,0.00157,0.02327,0.00000,0.03270,0.97637,-0.19020,0.0,2023,6,7,14,54,24,560
41.06690,-0.01593,0.16327,0.00000,0.03392,0.97661,-0.18788,0.0,2023,6,7,14,54,24,570
41.06700,0.05407,-0.09923,0.00000,0.02891,0.97466,-0.18983,0.0,2023,6,7,14,54,24,580
41.06710,0.08907,0.19827,0.00000,0.03404,0.97771,-0.19288,0.0,2023,6,7,14,54,24,590
41.06720,-0.15593,0.09327,0.00000,0.03196,0.97612,-0.19093,0.0,2023,6,7,14,54,24,600
41.06730,-0.06842,-0.01173,0.00000,0.03013,0.97673,-0.18934,0.0,2023,6,7,14,54,24,610
41.06740,-0.10343,0.02327,0.00000,0.03184,0.97563,-0.18971,0.0,2023,6,7,14,54,24,620
41.06750,0.00157,-0.08173,0.00000,0.03221,0.97466,-0.19142,0.0,2023,6,7,14,54,24,630
41.06760,0.10657,0.14577,0.00000,0.03209,0.97612,-0.18873,0.0,2023,6,7,14,54,24,640
41.06770,0.00157,0.18077,0.00000,0.03270,0.97454,-0.19020,0.0,2023,6,7,14,54,24,650
41.06780,0.05407,-0.01173,0.00000,0.03367,0.97759,-0.19008,0.0,2023,6,7,14,54,24,660
41.06790,-0.01593,-0.13423,0.00000,0.03172,0.97661,-0.19056,0.0,2023,6,7,14,54,24,670
41.06800,0.01907,0.18077,0.00000,0.03111,0.97612,-0.19252,0.0,2023,6,7,14,54,24,680
41.06810,-0.03343,0.16327,0.00000,0.03257,0.97746,-0.19093,0.0,2023,6,7,14,54,24,690
41.06820,0.05407,-0.13423,0.00000,0.03209,0.97368,-0.19056,0.0,2023,6,7,14,54,24,700
41.06830,-0.05093,-0.01173,0.00000,0.03318,0.97588,-0.19081,0.0,2023,6,7,14,54,24,710
41.06840,0.01907,-0.02923,0.00000,0.03355,0.97734,-0.18959,0.0,2023,6,7,14,54,24,720
41.06850,0.00157,0.18077,0.00000,0.03160,0.97722,-0.19105,0.0,2023,6,7,14,54,24,730
41.06860,-0.12093,-0.09923,0.00000,0.03050,0.97466,-0.19178,0.0,2023,6,7,14,54,24,740
41.06870,0.01907,-0.13423,0.00000,0.03111,0.97917,-0.18947,0.0,2023,6,7,14,54,24,750
41.06880,-0.03343,0.09327,0.00000,0.03233,0.97490,-0.19056,0.0,2023,6,7,14,54,24,760
41.06890,0.03658,0.00577,0.00000,0.03221,0.97380,-0.19166,0.0,2023,6,7,14,54,24,770
41.06900,-0.01593,0.02327,0.00000,0.03050,0.97734,-0.19154,0.0,2023,6,7,14,54,24,780
41.06910,0.01907,0.07577,0.00000,0.03099,0.97624,-0.18934,0.0,2023,6,7,14,54,24,790
41.06920,-0.05093,0.04077,0.00000,0.03196,0.97576,-0.18886,0.0,2023,6,7,14,54,24,800
41.06930,-0.03343,0.02327,0.00000,0.03282,0.97612,-0.19020,0.0,2023,6,7,14,54,24,810
41.06940,-0.03343,0.05827,0.00000,0.02855,0.97637,-0.19069,0.0,2023,6,7,14,54,24,820
41.06950,-0.12093,0.19827,0.00000,0.03111,0.97502,-0.19056,0.0,2023,6,7,14,54,24,830
41.06960,-0.22593,0.02327,0.00000,0.03111,0.97417,-0.19032,0.0,2023,6,7,14,54,24,840
41.06970,0.01907,-0.23923,0.00000,0.03233,0.97929,-0.19105,0.0,2023,6,7,14,54,24,850
41.06980,-0.10343,0.02327,0.00000,0.03172,0.97393,-0.19459,0.0,2023,6,7,14,54,24,860
41.06990,-0.01593,0.07577,0.00000,0.03026,0.97551,-0.19215,0.0,2023,6,7,14,54,24,870
41.07000,0.01907,0.14577,0.00000,0.03209,0.97576,-0.19337,0.0,2023,6,7,14,54,24,880
41.07010,0.05407,0.00577,0.00000,0.03026,0.97502,-0.19215,0.0,2023,6,7,14,54,24,890
41.07020,0.08907,-0.08173,0.00000,0.03184,0.97759,-0.19142,0.0,2023,6,7,14,54,24,900
41.07030,0.14158,-0.13423,0.00000,0.03184,0.97600,-0.19178,0.0,2023,6,7,14,54,24,910
41.07040,0.12407,0.14577,0.00000,0.03184,0.97563,-0.19191,0.0,2023,6,7,14,54,24,920
41.07050,-0.06842,0.16327,0.00000,0.03038,0.97502,-0.18959,0.0,2023,6,7,14,54,24,930
41.07060,0.08907,0.12827,0.00000,0.03074,0.97820,-0.19081,0.0,2023,6,7,14,54,24,940
41.07070,0.08907,-0.08173,0.00000,0.03026,0.97515,-0.19191,0.0,2023,6,7,14,54,24,950
41.07080,-0.17342,0.00577,0.00000,0.02867,0.97527,-0.19044,0.0,2023,6,7,14,54,24,960
41.07090,0.08907,0.16327,0.00000,0.02965,0.97454,-0.19093,0.0,2023,6,7,14,54,24,970
41.07100,0.01907,0.00577,0.00000,0.03257,0.97515,-0.19044,0.0,2023,6,7,14,54,24,980
41.07110,0.00157,-0.09923,0.00000,0.03062,0.97393,-0.19264,0.0,2023,6,7,14,54,24,990
41.07120,-0.06842,0.05827,0.00000,0.02977,0.97698,-0.18959,0.0,2023,6,7,14,54,24,0
41.07130,-0.05093,0.14577,0.00000,0.03233,0.97527,-0.19105,0.0,2023,6,7,14,54,24,10
41.07140,0.05407,0.00577,0.00000,0.03184,0.97637,-0.19203,0.0,2023,6,7,14,54,24,20
41.07150,0.08907,0.14577,0.00000,0.03257,0.97490,-0.19166,0.0,2023,6,7,14,54,24,30
41.07160,-0.01593,0.04077,0.00000,0.02891,0.97551,-0.18922,0.0,2023,6,7,14,54,24,40
41.07170,-0.05093,0.09327,0.00000,0.03026,0.97673,-0.18898,0.0,2023,6,7,14,54,24,50
41.07180,-0.22593,0.07577,0.00000,0.02989,0.97502,-0.19117,0.0,2023,6,7,14,54,24,60
41.07190,-0.06842,0.21577,0.00000,0.03209,0.97563,-0.19069,0.0,2023,6,7,14,54,25,70
41.07200,0.26408,-0.13423,0.00000,0.03245,0.97612,-0.19300,0.0,2023,6,7,14,54,25,80
41.07210,0.03658,0.14577,0.00000,0.03233,0.97563,-0.19032,0.0,2023,6,7,14,54,25,90
41.07220,0.21157,-0.08173,0.00000,0.03123,0.97624,-0.18910,0.0,2023,6,7,14,54,25,100
41.07230,0.07157,0.21577,0.00000,0.03123,0.97771,-0.19069,0.0,2023,6,7,14,54,25,110
41.07240,0.01907,-0.01173,0.00000,0.03135,0.97771,-0.19252,0.0,2023,6,7,14,54,25,120
41.07250,0.08907,-0.04673,0.00000,0.03355,0.97771,-0.19264,0.0,2023,6,7,14,54,25,130
41.07260,0.21157,-0.04673,0.00000,0.03233,0.97563,-0.19166,0.0,2023,6,7,14,54,25,140
41.07270,-0.06842,-0.08173,0.00000,0.03099,0.97624,-0.19178,0.0,2023,6,7,14,54,25,150
41.07280,0.01907,0.04077,0.00000,0.03294,0.97551,-0.19178,0.0,2023,6,7,14,54,25,160
41.07290,-0.03343,0.09327,0.00000,0.03111,0.97685,-0.18703,0.0,2023,6,7,14,54,25,170
41.07300,0.07157,-0.01173,0.00000,0.03160,0.97490,-0.19252,0.0,2023,6,7,14,54,25,180
41.07310,-0.06842,0.09327,0.00000,0.03172,0.97661,-0.19252,0.0,2023,6,7,14,54,25,190
41.07320,0.10657,-0.13423,0.00000,0.03245,0.97576,-0.19215,0.0,2023,6,7,14,54,25,200
41.07330,0.00157,-0.02923,0.00000,0.03221,0.97844,-0.19105,0.0,2023,6,7,14,54,25,210
41.07340,0.07157,0.11077,0.00000,0.03087,0.97710,-0.19288,0.0,2023,6,7,14,54,25,220
41.07350,0.12407,0.16327,0.00000,0.03270,0.97624,-0.19032,0.0,2023,6,7,14,54,25,230
41.07360,-0.06842,0.12827,0.00000,0.03111,0.97490,-0.19081,0.0,2023,6,7,14,54,25,240
41.07370,0.01907,-0.04673,0.00000,0.03196,0.97612,-0.19069,0.0,2023,6,7,14,54,25,250
41.07380,-0.03343,0.23327,0.00000,0.02891,0.97588,-0.19081,0.0,2023,6,7,14,54,25,260
41.07390,0.01907,0.28577,0.00000,0.03221,0.97551,-0.19044,0.0,2023,6,7,14,54,25,270
41.07400,0.21157,0.09327,0.00000,0.03050,0.97624,-0.19056,0.0,2023,6,7,14,54,25,280
41.07410,0.01907,0.07577,0.00000,0.03013,0.97637,-0.18995,0.0,2023,6,7,14,54,25,290
41.07420,0.10657,-0.02923,0.00000,0.03087,0.97856,-0.18776,0.0,2023,6,7,14,54,25,300
41.07430,-0.03343,-0.18673,0.00000,0.03196,0.97454,-0.18910,0.0,2023,6,7,14,54,25,310
41.07440,0.01907,-0.27423,0.00000,0.03111,0.97490,-0.18947,0.0,2023,6,7,14,54,25,320
41.07450,0.21157,-0.06423,0.00000,0.03245,0.97551,-0.18983,0.0,2023,6,7,14,54,25,330
41.07460,-0.01593,0.02327,0.00000,0.02916,0.97612,-0.19105,0.0,2023,6,7,14,54,25,340
41.07470,-0.12093,0.18077,0.00000,0.03294,0.97380,-0.18910,0.0,2023,6,7,14,54,25,350
41.07480,0.12407,-0.18673,0.00000,0.03257,0.97588,-0.18934,0.0,2023,6,7,14,54,25,360
41.07490,0.14158,0.12827,0.00000,0.03013,0.97441,-0.19264,0.0,2023,6,7,14,54,25,370
41.07500,0.05407,0.16327,0.00000,0.03172,0.97576,-0.18983,0.0,2023,6,7,14,54,25,380
41.07510,0.15908,-0.09923,0.00000,0.03184,0.97710,-0.18898,0.0,2023,6,7,14,54,25,390
41.07520,-0.06842,-0.04673,0.00000,0.03111,0.97600,-0.19069,0.0,2023,6,7,14,54,25,400
41.07530,-0.10343,0.19827,0.00000,0.03111,0.97576,-0.18934,0.0,2023,6,7,14,54,25,410
41.07540,0.01907,-0.13423,0.00000,0.03062,0.97844,-0.19032,0.0,2023,6,7,14,54,25,420
41.07550,-0.17342,0.09327,0.00000,0.03404,0.97600,-0.19032,0.0,2023,6,7,14,54,25,430
41.07560,0.17657,0.18077,0.00000,0.03135,0.97588,-0.19215,0.0,2023,6,7,14,54,25,440
41.07570,0.05407,0.04077,0.00000,0.02965,0.97624,-0.19032,0.0,2023,6,7,14,54,25,450
41.07580,-0.13843,-0.01173,0.00000,0.03160,0.97759,-0.19203,0.0,2023,6,7,14,54,25,460
41.07590,-0.01593,0.07577,0.00000,0.03343,0.97624,-0.19178,0.0,2023,6,7,14,54,25,470
41.07600,0.17657,-0.18673,0.00000,0.03001,0.97820,-0.18995,0.0,2023,6,7,14,54,25,480
41.07610,-0.05093,-0.01173,0.00000,0.03001,0.97551,-0.19032,0.0,2023,6,7,14,54,25,490
41.07620,0.01907,-0.04673,0.00000,0.03184,0.97502,-0.19081,0.0,2023,6,7,14,54,25,500
41.07630,-0.06842,0.18077,0.00000,0.03270,0.97551,-0.18849,0.0,2023,6,7,14,54,25,510
41.07640,-0.19093,0.18077,0.00000,0.03172,0.97624,-0.18947,0.0,2023,6,7,14,54,25,520
41.07650,0.17657,-0.01173,0.00000,0.03160,0.97563,-0.18922,0.0,2023,6,7,14,54,25,530
41.07660,0.08907,0.02327,0.00000,0.02940,0.97576,-0.18959,0.0,2023,6,7,14,54,25,540
41.07670,0.08907,0.19827,0.00000,0.03172,0.97185,-0.19117,0.0,2023,6,7,14,54,25,550
41.07680,0.00157,0.07577,0.00000,0.03123,0.97685,-0.19142,0.0,2023,6,7,14,54,25,560
41.07690,-0.12093,-0.08173,0.00000,0.03001,0.97661,-0.19044,0.0,2023,6,7,14,54,25,570
41.07700,0.03658,0.04077,0.00000,0.03221,0.97502,-0.19008,0.0,2023,6,7,14,54,25,580
41.07710,-0.01593,0.05827,0.00000,0.03038,0.97698,-0.18971,0.0,2023,6,7,14,54,25,590
41.07720,-0.12093,-0.01173,0.00000,0.03184,0.97685,-0.19239,0.0,2023,6,7,14,54,25,600
41.07730,0.00157,0.09327,0.00000,0.03172,0.97624,-0.19130,0.0,2023,6,7,14,54,25,610
41.07740,0.08907,0.11077,0.00000,0.03184,0.97454,-0.19056,0.0,2023,6,7,14,54,25,620
41.07750,0.08907,0.05827,0.00000,0.03099,0.97759,-0.18873,0.0,2023,6,7,14,54,25,630
41.07760,0.08907,0.07577,0.00000,0.03087,0.97527,-0.19288,0.0,2023,6,7,14,54,25,640
41.07770,-0.10343,-0.08173,0.00000,0.02989,0.97319,-0.18873,0.0,2023,6,7,14,54,25,650
41.07780,0.08907,0.00577,0.00000,0.03257,0.97698,-0.18861,0.0,2023,6,7,14,54,25,660
41.07790,0.10657,-0.08173,0.00000,0.03160,0.97722,-0.18739,0.0,2023,6,7,14,54,25,670
41.07800,0.01907,-0.08173,0.00000,0.03416,0.97685,-0.18727,0.0,2023,6,7,14,54,25,680
41.07810,0.10657,-0.04673,0.00000,0.03135,0.97490,-0.18837,0.0,2023,6,7,14,54,25,690
41.07820,0.19407,-0.02923,0.00000,0.03184,0.97624,-0.19374,0.0,2023,6,7,14,54,25,700
41.07830,-0.12093,0.12827,0.00000,0.03282,0.97637,-0.18764,0.0,2023,6,7,14,54,25,710
41.07840,0.08907,0.12827,0.00000,0.03013,0.97551,-0.18959,0.0,2023,6,7,14,54,25,720
41.07850,-0.15593,0.14577,0.00000,0.03233,0.97722,-0.19154,0.0,2023,6,7,14,54,25,730
41.07860,0.03658,0.04077,0.00000,0.03184,0.97441,-0.19044,0.0,2023,6,7,14,54,25,740
#2023/06/07 14:54:25
