#2023/06/07 12:05:31
time,wx,wy,wz,ax,ay,az,yy,MM,dd,hh,mm,ss,ms
38.98570,0.12075,0.15295,0.00000,0.02965,0.97563,-0.19325,0.0,2023,6,7,12,5,32,1000
38.98580,-0.19425,0.29295,0.00000,0.02757,0.97478,-0.19508,0.0,2023,6,7,12,5,32,10
38.98590,-0.03675,0.04795,0.00000,0.02660,0.97710,-0.19618,0.0,2023,6,7,12,5,32,20
38.98600,0.08575,0.04795,0.00000,0.02806,0.97551,-0.19703,0.0,2023,6,7,12,5,32,30
38.98610,-0.00175,-0.02205,0.00000,0.02904,0.97685,-0.19496,0.0,2023,6,7,12,5,32,40
38.98620,0.03325,-0.23205,0.00000,0.02928,0.97612,-0.19471,0.0,2023,6,7,12,5,32,50
38.98630,0.01575,-0.03955,0.00000,0.02940,0.97527,-0.19386,0.0,2023,6,7,12,5,32,60
38.98640,0.01575,0.04795,0.00000,0.02855,0.97624,-0.19398,0.0,2023,6,7,12,5,32,70
38.98650,-0.03675,-0.14455,0.00000,0.02843,0.97515,-0.19593,0.0,2023,6,7,12,5,32,80
38.98660,-0.10675,0.24045,0.00000,0.02916,0.97490,-0.19532,0.0,2023,6,7,12,5,32,90
38.98670,-0.10675,0.08295,0.00000,0.02952,0.97868,-0.19361,0.0,2023,6,7,12,5,32,100
38.98680,-0.08925,0.29295,0.00000,0.03026,0.97356,-0.19618,0.0,2023,6,7,12,5,32,110
38.98690,0.29575,-0.23205,0.00000,0.03050,0.98173,-0.19788,0.0,2023,6,7,12,5,32,120
38.98700,0.40075,-0.10955,0.00000,0.02855,0.98966,-0.20459,0.0,2023,6,7,12,5,32,130
38.98710,0.05075,-0.02205,0.00000,0.03318,0.97942,-0.19923,0.0,2023,6,7,12,5,32,140
38.98720,-0.22925,0.15295,0.00000,0.03270,0.97161,-0.19081,0.0,2023,6,7,12,5,32,150
38.98730,-0.12425,0.10045,0.00000,0.03416,0.97942,-0.19715,0.0,2023,6,7,12,5,32,160
38.98740,-0.07175,-0.14455,0.00000,0.03453,0.97783,-0.19813,0.0,2023,6,7,12,5,32,170
38.98750,0.29575,-0.17955,0.00000,0.03111,0.97710,-0.19593,0.0,2023,6,7,12,5,32,180
38.98760,0.13825,-0.03955,0.00000,0.02782,0.98076,-0.19752,0.0,2023,6,7,12,5,32,190
38.98770,-0.03675,-0.23205,0.00000,0.02623,0.97356,-0.19191,0.0,2023,6,7,12,5,32,200
38.98780,0.01575,0.11795,0.00000,0.02965,0.97319,-0.19496,0.0,2023,6,7,12,5,32,210
38.98790,-0.12425,-0.07455,0.00000,0.03221,0.97759,-0.19337,0.0,2023,6,7,12,5,32,220
38.98800,0.15575,-0.21455,0.00000,0.02904,0.97868,-0.19361,0.0,2023,6,7,12,5,32,230
38.98810,-0.03675,0.15295,0.00000,0.02879,0.97673,-0.19532,0.0,2023,6,7,12,5,32,240
38.98820,-0.08925,-0.05705,0.00000,0.02867,0.97551,-0.19398,0.0,2023,6,7,12,5,32,250
38.98830,0.15575,0.13545,0.00000,0.03001,0.97698,-0.19471,0.0,2023,6,7,12,5,32,260
38.98840,0.13825,-0.31955,0.00000,0.02904,0.97795,-0.19691,0.0,2023,6,7,12,5,32,270
38.98850,0.03325,0.17045,0.00000,0.02940,0.97685,-0.19410,0.0,2023,6,7,12,5,32,280
38.98860,-0.01925,-0.00455,0.00000,0.02769,0.97551,-0.19581,0.0,2023,6,7,12,5,32,290
38.98870,0.05075,0.01295,0.00000,0.03074,0.97588,-0.19630,0.0,2023,6,7,12,5,32,300
38.98880,0.03325,0.01295,0.00000,0.03233,0.97368,-0.19703,0.0,2023,6,7,12,5,33,310
38.98890,-0.17675,-0.07455,0.00000,0.03026,0.97649,-0.19618,0.0,2023,6,7,12,5,33,320
38.98900,-0.03675,-0.09205,0.00000,0.02867,0.97417,-0.19398,0.0,2023,6,7,12,5,33,330
38.98910,-0.24675,0.04795,0.00000,0.02769,0.97490,-0.19435,0.0,2023,6,7,12,5,33,340
38.98920,-0.21175,0.24045,0.00000,0.02769,0.97698,-0.19532,0.0,2023,6,7,12,5,33,350
38.98930,0.13825,-0.09205,0.00000,0.03087,0.97685,-0.19459,0.0,2023,6,7,12,5,33,360
38.98940,0.10325,-0.03955,0.00000,0.02952,0.97332,-0.19557,0.0,2023,6,7,12,5,33,370
38.98950,0.06825,-0.03955,0.00000,0.02891,0.97624,-0.19630,0.0,2023,6,7,12,5,33,380
38.98960,-0.07175,0.06545,0.00000,0.02879,0.97771,-0.19618,0.0,2023,6,7,12,5,33,390
38.98970,-0.12425,0.08295,0.00000,0.02794,0.97551,-0.19508,0.0,2023,6,7,12,5,33,400
38.98980,0.12075,-0.03955,0.00000,0.02977,0.97637,-0.19679,0.0,2023,6,7,12,5,33,410
38.98990,0.03325,-0.05705,0.00000,0.02928,0.97332,-0.19349,0.0,2023,6,7,12,5,33,420
38.99000,-0.05425,-0.05705,0.00000,0.02794,0.97673,-0.19727,0.0,2023,6,7,12,5,33,430
38.99010,-0.12425,0.04795,0.00000,0.02830,0.97612,-0.19337,0.0,2023,6,7,12,5,33,440
38.99020,-0.01925,-0.00455,0.00000,0.02855,0.97466,-0.19776,0.0,2023,6,7,12,5,33,450
38.99030,-0.00175,-0.30205,0.00000,0.02855,0.97515,-0.19520,0.0,2023,6,7,12,5,33,460
38.99040,0.12075,0.13545,0.00000,0.02696,0.97356,-0.19361,0.0,2023,6,7,12,5,33,470
38.99050,0.05075,-0.07455,0.00000,0.02952,0.97685,-0.19593,0.0,2023,6,7,12,5,33,480
38.99060,0.10325,-0.00455,0.00000,0.02855,0.97673,-0.19447,0.0,2023,6,7,12,5,33,490
38.99070,0.01575,0.11795,0.00000,0.03062,0.97551,-0.19325,0.0,2023,6,7,12,5,33,500
38.99080,-0.10675,0.01295,0.00000,0.02879,0.97698,-0.19459,0.0,2023,6,7,12,5,33,510
38.99090,0.05075,-0.07455,0.00000,0.03087,0.97539,-0.19593,0.0,2023,6,7,12,5,33,520
38.99100,0.05075,-0.09205,0.00000,0.02672,0.97539,-0.19593,0.0,2023,6,7,12,5,33,530
38.99110,0.17325,0.34545,0.00000,0.02904,0.97441,-0.19422,0.0,2023,6,7,12,5,33,540
38.99120,0.12075,-0.12705,0.00000,0.02599,0.97539,-0.19252,0.0,2023,6,7,12,5,33,550
38.99130,0.10325,-0.02205,0.00000,0.02989,0.97771,-0.19447,0.0,2023,6,7,12,5,33,560
38.99140,-0.00175,-0.14455,0.00000,0.02806,0.97454,-0.19679,0.0,2023,6,7,12,5,33,570
38.99150,0.05075,-0.07455,0.00000,0.02855,0.97527,-0.19422,0.0,2023,6,7,12,5,33,580
38.99160,-0.01925,0.03045,0.00000,0.02696,0.97551,-0.19398,0.0,2023,6,7,12,5,33,590
38.99170,0.13825,-0.10955,0.00000,0.02757,0.97454,-0.19459,0.0,2023,6,7,12,5,33,600
38.99180,-0.10675,-0.02205,0.00000,0.02867,0.97551,-0.19447,0.0,2023,6,7,12,5,33,610
38.99190,-0.12425,0.27545,0.00000,0.02818,0.97649,-0.19618,0.0,2023,6,7,12,5,33,620
38.99200,0.03325,-0.05705,0.00000,0.02965,0.97746,-0.19410,0.0,2023,6,7,12,5,33,630
38.99210,-0.07175,-0.02205,0.00000,0.02806,0.97624,-0.19447,0.0,2023,6,7,12,5,33,640
38.99220,-0.00175,0.01295,0.00000,0.02635,0.97820,-0.19557,0.0,2023,6,7,12,5,33,650
38.99230,0.24325,0.03045,0.00000,0.03038,0.97539,-0.19593,0.0,2023,6,7,12,5,33,660
38.99240,0.08575,-0.03955,0.00000,0.03026,0.97637,-0.19630,0.0,2023,6,7,12,5,33,670
38.99250,-0.03675,-0.10955,0.00000,0.02818,0.97746,-0.19215,0.0,2023,6,7,12,5,33,680
38.99260,0.17325,-0.12705,0.00000,0.02660,0.97673,-0.19459,0.0,2023,6,7,12,5,33,690
38.99270,-0.00175,-0.17955,0.00000,0.02684,0.97661,-0.19593,0.0,2023,6,7,12,5,33,700
38.99280,0.03325,-0.05705,0.00000,0.03001,0.97746,-0.19300,0.0,2023,6,7,12,5,33,710
38.99290,-0.05425,0.01295,0.00000,0.03160,0.97624,-0.19398,0.0,2023,6,7,12,5,33,720
38.99300,0.05075,-0.10955,0.00000,0.03001,0.97649,-0.19727,0.0,2023,6,7,12,5,33,730
38.99310,0.13825,-0.10955,0.00000,0.02879,0.97673,-0.19325,0.0,2023,6,7,12,5,33,740
38.99320,-0.01925,-0.02205,0.00000,0.02928,0.97771,-0.19605,0.0,2023,6,7,12,5,33,750
38.99330,-0.00175,0.04795,0.00000,0.02782,0.97393,-0.19642,0.0,2023,6,7,12,5,33,760
38.99340,-0.03675,-0.00455,0.00000,0.02782,0.97368,-0.19349,0.0,2023,6,7,12,5,33,770
38.99350,-0.15925,0.03045,0.00000,0.02855,0.97576,-0.19532,0.0,2023,6,7,12,5,33,780
38.99360,-0.05425,-0.12705,0.00000,0.02928,0.97502,-0.19544,0.0,2023,6,7,12,5,33,790
38.99370,-0.00175,-0.10955,0.00000,0.03013,0.97502,-0.19276,0.0,2023,6,7,12,5,33,800
38.99380,-0.05425,-0.05705,0.00000,0.02891,0.97783,-0.19508,0.0,2023,6,7,12,5,33,810
38.99390,-0.10675,0.03045,0.00000,0.02830,0.97612,-0.19532,0.0,2023,6,7,12,5,33,820
38.99400,0.03325,0.11795,0.00000,0.02830,0.97454,-0.19386,0.0,2023,6,7,12,5,33,830
38.99410,0.05075,0.08295,0.00000,0.02928,0.97539,-0.19435,0.0,2023,6,7,12,5,33,840
38.99420,-0.24675,0.01295,0.00000,0.02769,0.97856,-0.19386,0.0,2023,6,7,12,5,33,850
38.99430,-0.05425,-0.05705,0.00000,0.03050,0.97698,-0.19447,0.0,2023,6,7,12,5,33,860
38.99440,-0.01925,-0.03955,0.00000,0.02708,0.97490,-0.19618,0.0,2023,6,7,12,5,33,870
38.99450,0.01575,0.03045,0.00000,0.03013,0.97612,-0.19520,0.0,2023,6,7,12,5,33,880
38.99460,-0.01925,0.18795,0.00000,0.02818,0.97429,-0.19422,0.0,2023,6,7,12,5,33,890
38.99470,-0.10675,0.06545,0.00000,0.02928,0.97441,-0.19447,0.0,2023,6,7,12,5,33,900
38.99480,0.12075,0.04795,0.00000,0.02550,0.97319,-0.19166,0.0,2023,6,7,12,5,33,910
38.99490,-0.03675,0.06545,0.00000,0.02879,0.97576,-0.19605,0.0,2023,6,7,12,5,33,920
38.99500,-0.00175,-0.07455,0.00000,0.02867,0.97673,-0.19618,0.0,2023,6,7,12,5,33,930
38.99510,-0.03675,0.10045,0.00000,0.02891,0.97710,-0.19337,0.0,2023,6,7,12,5,33,940
38.99520,0.01575,-0.05705,0.00000,0.02843,0.97612,-0.19630,0.0,2023,6,7,12,5,33,950
38.99530,0.12075,-0.09205,0.00000,0.03013,0.97576,-0.19605,0.0,2023,6,7,12,5,33,960
38.99540,-0.10675,-0.17955,0.00000,0.02635,0.97673,-0.19471,0.0,2023,6,7,12,5,33,970
38.99550,-0.00175,0.11795,0.00000,0.02830,0.97576,-0.19471,0.0,2023,6,7,12,5,33,980
38.99560,-0.03675,0.20545,0.00000,0.02977,0.97588,-0.19520,0.0,2023,6,7,12,5,33,990
38.99570,0.05075,-0.24955,0.00000,0.03026,0.97466,-0.19264,0.0,2023,6,7,12,5,33,1000
38.99580,0.05075,-0.09205,0.00000,0.03099,0.97649,-0.19374,0.0,2023,6,7,12,5,33,10
38.99590,0.05075,0.04795,0.00000,0.02843,0.97661,-0.19410,0.0,2023,6,7,12,5,33,20
38.99600,0.01575,0.10045,0.00000,0.03074,0.97698,-0.19715,0.0,2023,6,7,12,5,33,30
38.99610,-0.03675,-0.03955,0.00000,0.02904,0.97612,-0.19374,0.0,2023,6,7,12,5,33,40
38.99620,0.15575,0.03045,0.00000,0.02916,0.97710,-0.19703,0.0,2023,6,7,12,5,33,50
38.99630,-0.01925,-0.02205,0.00000,0.02672,0.97563,-0.19642,0.0,2023,6,7,12,5,33,60
38.99640,0.12075,-0.03955,0.00000,0.02721,0.97661,-0.19422,0.0,2023,6,7,12,5,33,70
38.99650,-0.00175,0.04795,0.00000,0.02843,0.97563,-0.19508,0.0,2023,6,7,12,5,33,80
38.99660,-0.00175,-0.03955,0.00000,0.02952,0.97576,-0.19544,0.0,2023,6,7,12,5,33,90
38.99670,0.03325,0.03045,0.00000,0.02672,0.97612,-0.19422,0.0,2023,6,7,12,5,33,100
38.99680,0.10325,-0.12705,0.00000,0.02708,0.97539,-0.19410,0.0,2023,6,7,12,5,33,110
38.99690,0.05075,0.04795,0.00000,0.02806,0.97478,-0.19483,0.0,2023,6,7,12,5,33,120
38.99700,0.12075,-0.12705,0.00000,0.02794,0.97490,-0.19581,0.0,2023,6,7,12,5,33,130
38.99710,-0.14175,-0.02205,0.00000,0.02757,0.97319,-0.19544,0.0,2023,6,7,12,5,33,140
38.99720,0.10325,0.06545,0.00000,0.03062,0.97710,-0.19264,0.0,2023,6,7,12,5,33,150
38.99730,-0.08925,-0.05705,0.00000,0.02977,0.97698,-0.19581,0.0,2023,6,7,12,5,33,160
38.99740,0.05075,-0.07455,0.00000,0.02904,0.97832,-0.19459,0.0,2023,6,7,12,5,33,170
38.99750,-0.03675,0.01295,0.00000,0.02647,0.97722,-0.19447,0.0,2023,6,7,12,5,33,180
38.99760,0.05075,0.13545,0.00000,0.02891,0.97673,-0.19447,0.0,2023,6,7,12,5,33,190
38.99770,0.12075,-0.07455,0.00000,0.02855,0.97649,-0.19203,0.0,2023,6,7,12,5,34,200
38.99780,0.03325,0.08295,0.00000,0.02757,0.97576,-0.19447,0.0,2023,6,7,12,5,34,210
38.99790,0.08575,0.04795,0.00000,0.02769,0.97661,-0.19422,0.0,2023,6,7,12,5,34,220
38.99800,0.06825,0.03045,0.00000,0.02965,0.97466,-0.19398,0.0,2023,6,7,12,5,34,230
38.99810,0.19075,0.04795,0.00000,0.02830,0.97649,-0.19544,0.0,2023,6,7,12,5,34,240
38.99820,0.06825,-0.07455,0.00000,0.02928,0.97649,-0.19471,0.0,2023,6,7,12,5,34,250
38.99830,-0.19425,0.10045,0.00000,0.02916,0.97368,-0.19544,0.0,2023,6,7,12,5,34,260
38.99840,-0.15925,-0.07455,0.00000,0.02708,0.97551,-0.19447,0.0,2023,6,7,12,5,34,270
38.99850,0.12075,-0.19705,0.00000,0.02660,0.97563,-0.19618,0.0,2023,6,7,12,5,34,280
38.99860,0.06825,-0.07455,0.00000,0.02806,0.97502,-0.19727,0.0,2023,6,7,12,5,34,290
38.99870,0.03325,-0.10955,0.00000,0.02940,0.97783,-0.19337,0.0,2023,6,7,12,5,34,300
38.99880,-0.15925,-0.02205,0.00000,0.02940,0.97551,-0.19422,0.0,2023,6,7,12,5,34,310
38.99890,-0.15925,0.15295,0.00000,0.02867,0.97478,-0.19435,0.0,2023,6,7,12,5,34,320
38.99900,0.08575,-0.14455,0.00000,0.02708,0.97551,-0.19447,0.0,2023,6,7,12,5,34,330
38.99910,0.01575,-0.17955,0.00000,0.02818,0.97722,-0.19483,0.0,2023,6,7,12,5,34,340
38.99920,-0.14175,0.04795,0.00000,0.03038,0.97563,-0.19483,0.0,2023,6,7,12,5,34,350
38.99930,-0.14175,0.17045,0.00000,0.02684,0.97441,-0.19459,0.0,2023,6,7,12,5,34,360
38.99940,0.08575,0.10045,0.00000,0.02818,0.97624,-0.19618,0.0,2023,6,7,12,5,34,370
38.99950,0.12075,0.03045,0.00000,0.02928,0.97551,-0.19483,0.0,2023,6,7,12,5,34,380
38.99960,-0.15925,-0.00455,0.00000,0.02611,0.97478,-0.19252,0.0,2023,6,7,12,5,34,390
38.99970,-0.05425,-0.07455,0.00000,0.02843,0.97649,-0.19483,0.0,2023,6,7,12,5,34,400
38.99980,0.05075,0.04795,0.00000,0.02928,0.97551,-0.19349,0.0,2023,6,7,12,5,34,410
38.99990,-0.03675,-0.02205,0.00000,0.02965,0.97344,-0.19459,0.0,2023,6,7,12,5,34,420
39.00000,-0.07175,-0.03955,0.00000,0.03001,0.97600,-0.19471,0.0,2023,6,7,12,5,34,430
39.00010,0.08575,0.11795,0.00000,0.02782,0.97539,-0.19447,0.0,2023,6,7,12,5,34,440
39.00020,-0.08925,-0.21455,0.00000,0.03001,0.97649,-0.19361,0.0,2023,6,7,12,5,34,450
39.00030,-0.03675,0.01295,0.00000,0.03001,0.97807,-0.19532,0.0,2023,6,7,12,5,34,460
39.00040,0.01575,0.04795,0.00000,0.02989,0.97698,-0.19788,0.0,2023,6,7,12,5,34,470
39.00050,-0.12425,0.15295,0.00000,0.02843,0.97637,-0.19337,0.0,2023,6,7,12,5,34,480
39.00060,0.17325,-0.05705,0.00000,0.02830,0.97466,-0.19227,0.0,2023,6,7,12,5,34,490
39.00070,-0.08925,-0.03955,0.00000,0.02977,0.97661,-0.19459,0.0,2023,6,7,12,5,34,500
39.00080,-0.05425,-0.05705,0.00000,0.02769,0.97429,-0.19630,0.0,2023,6,7,12,5,34,510
39.00090,0.06825,0.01295,0.00000,0.02830,0.97502,-0.19483,0.0,2023,6,7,12,5,34,520
39.00100,-0.14175,-0.00455,0.00000,0.02696,0.97478,-0.19325,0.0,2023,6,7,12,5,34,530
39.00110,0.06825,-0.00455,0.00000,0.02721,0.97649,-0.19435,0.0,2023,6,7,12,5,34,540
39.00120,-0.15925,-0.02205,0.00000,0.02940,0.97637,-0.19252,0.0,2023,6,7,12,5,34,550
39.00130,0.03325,0.06545,0.00000,0.02855,0.97673,-0.19483,0.0,2023,6,7,12,5,34,560
39.00140,0.08575,-0.05705,0.00000,0.02660,0.97795,-0.19837,0.0,2023,6,7,12,5,34,570
39.00150,-0.08925,0.17045,0.00000,0.02733,0.97332,-0.19630,0.0,2023,6,7,12,5,34,580
39.00160,0.06825,0.17045,0.00000,0.02733,0.97417,-0.19459,0.0,2023,6,7,12,5,34,590
39.00170,0.01575,-0.09205,0.00000,0.02952,0.97612,-0.19508,0.0,2023,6,7,12,5,34,600
39.00180,0.10325,-0.00455,0.00000,0.02806,0.97527,-0.19569,0.0,2023,6,7,12,5,34,610
39.00190,0.06825,-0.07455,0.00000,0.02952,0.97868,-0.19569,0.0,2023,6,7,12,5,34,620
39.00200,-0.19425,0.06545,0.00000,0.02928,0.97576,-0.19618,0.0,2023,6,7,12,5,34,630
39.00210,-0.08925,-0.10955,0.00000,0.02647,0.97502,-0.19544,0.0,2023,6,7,12,5,34,640
39.00220,0.10325,-0.07455,0.00000,0.03001,0.97563,-0.19593,0.0,2023,6,7,12,5,34,650
39.00230,-0.12425,0.10045,0.00000,0.02745,0.97441,-0.19520,0.0,2023,6,7,12,5,34,660
39.00240,-0.03675,-0.03955,0.00000,0.02891,0.97637,-0.19618,0.0,2023,6,7,12,5,34,670
39.00250,-0.03675,-0.19705,0.00000,0.02696,0.97502,-0.19483,0.0,2023,6,7,12,5,34,680
39.00260,-0.00175,-0.07455,0.00000,0.03050,0.97722,-0.19435,0.0,2023,6,7,12,5,34,690
39.00270,0.05075,-0.02205,0.00000,0.02586,0.97759,-0.19581,0.0,2023,6,7,12,5,34,700
39.00280,-0.05425,0.03045,0.00000,0.02818,0.97356,-0.19557,0.0,2023,6,7,12,5,34,710
39.00290,-0.07175,-0.03955,0.00000,0.02794,0.97576,-0.19544,0.0,2023,6,7,12,5,34,720
39.00300,0.17325,-0.03955,0.00000,0.02782,0.97710,-0.19764,0.0,2023,6,7,12,5,34,730
39.00310,0.08575,-0.02205,0.00000,0.02708,0.97551,-0.19410,0.0,2023,6,7,12,5,34,740
39.00320,-0.01925,0.03045,0.00000,0.02891,0.97661,-0.19642,0.0,2023,6,7,12,5,34,750
39.00330,-0.05425,-0.05705,0.00000,0.02818,0.97600,-0.19508,0.0,2023,6,7,12,5,34,760
39.00340,-0.07175,-0.02205,0.00000,0.03111,0.97527,-0.19679,0.0,2023,6,7,12,5,34,770
39.00350,0.15575,-0.16205,0.00000,0.02733,0.97588,-0.19532,0.0,2023,6,7,12,5,34,780
39.00360,-0.26425,0.06545,0.00000,0.02843,0.97673,-0.19471,0.0,2023,6,7,12,5,34,790
39.00370,0.15575,0.06545,0.00000,0.02794,0.97588,-0.19642,0.0,2023,6,7,12,5,34,800
39.00380,0.05075,0.11795,0.00000,0.02965,0.97454,-0.19764,0.0,2023,6,7,12,5,34,810
39.00390,0.05075,0.06545,0.00000,0.02782,0.97307,-0.19630,0.0,2023,6,7,12,5,34,820
39.00400,0.08575,-0.21455,0.00000,0.02855,0.97393,-0.19483,0.0,2023,6,7,12,5,34,830
39.00410,-0.03675,0.03045,0.00000,0.02818,0.97624,-0.19703,0.0,2023,6,7,12,5,34,840
39.00420,-0.05425,-0.05705,0.00000,0.03026,0.97466,-0.19435,0.0,2023,6,7,12,5,34,850
39.00430,-0.05425,0.08295,0.00000,0.02879,0.97868,-0.19569,0.0,2023,6,7,12,5,34,860
39.00440,0.03325,0.03045,0.00000,0.02830,0.97429,-0.19471,0.0,2023,6,7,12,5,34,870
39.00450,-0.15925,0.10045,0.00000,0.02989,0.97637,-0.19532,0.0,2023,6,7,12,5,34,880
39.00460,-0.24675,0.15295,0.00000,0.02757,0.97685,-0.19654,0.0,2023,6,7,12,5,34,890
39.00470,0.10325,0.17045,0.00000,0.02635,0.97576,-0.19618,0.0,2023,6,7,12,5,34,900
39.00480,0.06825,0.10045,0.00000,0.03087,0.97405,-0.19862,0.0,2023,6,7,12,5,34,910
39.00490,0.13825,-0.05705,0.00000,0.02879,0.97515,-0.19630,0.0,2023,6,7,12,5,34,920
39.00500,-0.07175,0.11795,0.00000,0.02867,0.97673,-0.19679,0.0,2023,6,7,12,5,34,930
39.00510,0.05075,0.18795,0.00000,0.03001,0.97515,-0.19703,0.0,2023,6,7,12,5,34,940
39.00520,-0.15925,0.11795,0.00000,0.02830,0.97661,-0.19374,0.0,2023,6,7,12,5,34,950
39.00530,-0.05425,-0.03955,0.00000,0.02830,0.97515,-0.19410,0.0,2023,6,7,12,5,34,960
39.00540,0.08575,-0.05705,0.00000,0.02794,0.97563,-0.19544,0.0,2023,6,7,12,5,34,970
39.00550,0.19075,0.03045,0.00000,0.02891,0.97624,-0.19630,0.0,2023,6,7,12,5,34,980
39.00560,0.03325,-0.14455,0.00000,0.02989,0.97551,-0.19508,0.0,2023,6,7,12,5,34,990
39.00570,0.10325,-0.03955,0.00000,0.02867,0.97539,-0.19605,0.0,2023,6,7,12,5,34,1000
39.00580,0.01575,-0.00455,0.00000,0.03209,0.97698,-0.19776,0.0,2023,6,7,12,5,34,10
39.00590,-0.10675,-0.09205,0.00000,0.02928,0.97759,-0.19727,0.0,2023,6,7,12,5,34,20
39.00600,0.13825,-0.16205,0.00000,0.02647,0.97576,-0.19703,0.0,2023,6,7,12,5,34,30
39.00610,-0.08925,0.01295,0.00000,0.02806,0.97466,-0.19544,0.0,2023,6,7,12,5,34,40
39.00620,-0.12425,-0.07455,0.00000,0.02672,0.97515,-0.19508,0.0,2023,6,7,12,5,34,50
39.00630,-0.08925,0.11795,0.00000,0.03074,0.97673,-0.19520,0.0,2023,6,7,12,5,34,60
39.00640,-0.07175,-0.16205,0.00000,0.02977,0.97588,-0.19727,0.0,2023,6,7,12,5,34,70
39.00650,0.01575,-0.12705,0.00000,0.02757,0.97746,-0.19837,0.0,2023,6,7,12,5,34,80
39.00660,-0.05425,0.13545,0.00000,0.03050,0.97588,-0.19788,0.0,2023,6,7,12,5,34,90
39.00670,0.03325,0.06545,0.00000,0.03123,0.97393,-0.19605,0.0,2023,6,7,12,5,35,100
39.00680,-0.17675,0.27545,0.00000,0.02830,0.97600,-0.19642,0.0,2023,6,7,12,5,35,110
39.00690,-0.00175,-0.05705,0.00000,0.02843,0.97527,-0.19508,0.0,2023,6,7,12,5,35,120
39.00700,-0.14175,0.18795,0.00000,0.03038,0.97515,-0.19422,0.0,2023,6,7,12,5,35,130
39.00710,0.24325,-0.33705,0.00000,0.02904,0.97649,-0.19630,0.0,2023,6,7,12,5,35,140
39.00720,0.17325,-0.10955,0.00000,0.02806,0.97539,-0.19764,0.0,2023,6,7,12,5,35,150
39.00730,-0.07175,0.24045,0.00000,0.02757,0.97490,-0.19703,0.0,2023,6,7,12,5,35,160
39.00740,0.20825,-0.07455,0.00000,0.02879,0.97368,-0.19642,0.0,2023,6,7,12,5,35,170
39.00750,0.24325,-0.05705,0.00000,0.02757,0.97563,-0.19459,0.0,2023,6,7,12,5,35,180
39.00760,-0.07175,0.08295,0.00000,0.02940,0.97698,-0.19544,0.0,2023,6,7,12,5,35,190
39.00770,0.01575,-0.09205,0.00000,0.02928,0.97417,-0.19618,0.0,2023,6,7,12,5,35,200
39.00780,-0.22925,0.25795,0.00000,0.02891,0.97466,-0.19544,0.0,2023,6,7,12,5,35,210
39.00790,-0.15925,-0.00455,0.00000,0.03087,0.97515,-0.19788,0.0,2023,6,7,12,5,35,220
39.00800,0.06825,-0.00455,0.00000,0.03050,0.97527,-0.19764,0.0,2023,6,7,12,5,35,230
39.00810,-0.14175,-0.02205,0.00000,0.02782,0.97746,-0.19593,0.0,2023,6,7,12,5,35,240
39.00820,0.15575,0.01295,0.00000,0.02891,0.97600,-0.19715,0.0,2023,6,7,12,5,35,250
39.00830,-0.07175,-0.02205,0.00000,0.03087,0.97441,-0.19715,0.0,2023,6,7,12,5,35,260
39.00840,0.08575,-0.02205,0.00000,0.02696,0.97417,-0.19618,0.0,2023,6,7,12,5,35,270
39.00850,-0.15925,0.03045,0.00000,0.03123,0.97563,-0.20020,0.0,2023,6,7,12,5,35,280
39.00860,0.05075,-0.12705,0.00000,0.02696,0.97563,-0.19703,0.0,2023,6,7,12,5,35,290
39.00870,-0.03675,0.08295,0.00000,0.02879,0.97429,-0.19593,0.0,2023,6,7,12,5,35,300
39.00880,-0.00175,-0.02205,0.00000,0.02879,0.97515,-0.19435,0.0,2023,6,7,12,5,35,310
39.00890,0.10325,-0.12705,0.00000,0.02757,0.97563,-0.19813,0.0,2023,6,7,12,5,35,320
39.00900,0.17325,-0.17955,0.00000,0.02952,0.97637,-0.19569,0.0,2023,6,7,12,5,35,330
39.00910,-0.01925,0.01295,0.00000,0.02940,0.97441,-0.19520,0.0,2023,6,7,12,5,35,340
39.00920,-0.12425,-0.12705,0.00000,0.02855,0.97600,-0.19679,0.0,2023,6,7,12,5,35,350
39.00930,0.10325,0.06545,0.00000,0.02757,0.97368,-0.19422,0.0,2023,6,7,12,5,35,360
39.00940,-0.07175,-0.00455,0.00000,0.02708,0.97600,-0.19422,0.0,2023,6,7,12,5,35,370
39.00950,-0.00175,-0.05705,0.00000,0.02952,0.97673,-0.19654,0.0,2023,6,7,12,5,35,380
39.00960,-0.01925,0.11795,0.00000,0.02818,0.97515,-0.19630,0.0,2023,6,7,12,5,35,390
39.00970,0.10325,0.03045,0.00000,0.03013,0.97588,-0.19788,0.0,2023,6,7,12,5,35,400
39.00980,-0.03675,0.13545,0.00000,0.02952,0.97490,-0.19605,0.0,2023,6,7,12,5,35,410
39.00990,-0.00175,0.13545,0.00000,0.02904,0.97624,-0.19618,0.0,2023,6,7,12,5,35,420
39.01000,-0.01925,0.10045,0.00000,0.02879,0.97515,-0.19691,0.0,2023,6,7,12,5,35,430
39.01010,0.08575,-0.02205,0.00000,0.02818,0.97515,-0.19740,0.0,2023,6,7,12,5,35,440
39.01020,0.12075,0.03045,0.00000,0.02904,0.97612,-0.19971,0.0,2023,6,7,12,5,35,450
39.01030,0.03325,-0.10955,0.00000,0.02843,0.97685,-0.19715,0.0,2023,6,7,12,5,35,460
39.01040,-0.08925,-0.05705,0.00000,0.02843,0.97685,-0.19593,0.0,2023,6,7,12,5,35,470
39.01050,0.10325,-0.02205,0.00000,0.02965,0.97759,-0.19544,0.0,2023,6,7,12,5,35,480
39.01060,-0.08925,-0.00455,0.00000,0.02879,0.97734,-0.19764,0.0,2023,6,7,12,5,35,490
39.01070,-0.00175,-0.00455,0.00000,0.02965,0.97502,-0.20081,0.0,2023,6,7,12,5,35,500
39.01080,0.06825,0.01295,0.00000,0.02855,0.97454,-0.19764,0.0,2023,6,7,12,5,35,510
39.01090,0.13825,0.01295,0.00000,0.02879,0.97454,-0.19935,0.0,2023,6,7,12,5,35,520
39.01100,-0.03675,-0.10955,0.00000,0.03062,0.97515,-0.19788,0.0,2023,6,7,12,5,35,530
39.01110,-0.07175,-0.05705,0.00000,0.02855,0.97673,-0.19642,0.0,2023,6,7,12,5,35,540
39.01120,0.06825,-0.05705,0.00000,0.02745,0.97417,-0.19654,0.0,2023,6,7,12,5,35,550
39.01130,0.10325,0.10045,0.00000,0.02855,0.97527,-0.19691,0.0,2023,6,7,12,5,35,560
39.01140,-0.00175,-0.23205,0.00000,0.02965,0.97551,-0.19618,0.0,2023,6,7,12,5,35,570
39.01150,-0.10675,-0.07455,0.00000,0.02855,0.97746,-0.19483,0.0,2023,6,7,12,5,35,580
39.01160,0.13825,-0.24955,0.00000,0.02855,0.97551,-0.19703,0.0,2023,6,7,12,5,35,590
39.01170,-0.05425,-0.05705,0.00000,0.03026,0.97527,-0.19886,0.0,2023,6,7,12,5,35,600
39.01180,-0.08925,0.24045,0.00000,0.02696,0.97710,-0.19813,0.0,2023,6,7,12,5,35,610
39.01190,0.03325,-0.10955,0.00000,0.02830,0.97942,-0.19984,0.0,2023,6,7,12,5,35,620
39.01200,0.13825,-0.05705,0.00000,0.02721,0.97356,-0.19666,0.0,2023,6,7,12,5,35,630
39.01210,-0.07175,0.06545,0.00000,0.03148,0.97332,-0.19471,0.0,2023,6,7,12,5,35,640
39.01220,-0.15925,-0.00455,0.00000,0.02818,0.97637,-0.19666,0.0,2023,6,7,12,5,35,650
39.01230,0.05075,0.13545,0.00000,0.02672,0.97478,-0.19959,0.0,2023,6,7,12,5,35,660
39.01240,-0.07175,0.18795,0.00000,0.02818,0.97856,-0.19813,0.0,2023,6,7,12,5,35,670
39.01250,-0.03675,-0.00455,0.00000,0.02745,0.97563,-0.19898,0.0,2023,6,7,12,5,35,680
39.01260,-0.14175,-0.19705,0.00000,0.02916,0.97685,-0.19630,0.0,2023,6,7,12,5,35,690
39.01270,-0.07175,0.31045,0.00000,0.02867,0.97624,-0.19459,0.0,2023,6,7,12,5,35,700
39.01280,0.08575,-0.12705,0.00000,0.02696,0.97539,-0.19788,0.0,2023,6,7,12,5,35,710
39.01290,-0.00175,0.04795,0.00000,0.02782,0.97624,-0.19740,0.0,2023,6,7,12,5,35,720
39.01300,0.08575,-0.17955,0.00000,0.02830,0.97698,-0.19825,0.0,2023,6,7,12,5,35,730
39.01310,0.15575,-0.05705,0.00000,0.02843,0.97624,-0.19679,0.0,2023,6,7,12,5,35,740
39.01320,0.08575,-0.17955,0.00000,0.02830,0.97588,-0.19386,0.0,2023,6,7,12,5,35,750
39.01330,0.01575,-0.09205,0.00000,0.02806,0.97600,-0.19679,0.0,2023,6,7,12,5,35,760
39.01340,0.05075,-0.00455,0.00000,0.02733,0.97502,-0.19605,0.0,2023,6,7,12,5,35,770
39.01350,-0.01925,-0.03955,0.00000,0.02855,0.97429,-0.19776,0.0,2023,6,7,12,5,35,780
39.01360,-0.14175,0.04795,0.00000,0.02660,0.97771,-0.19801,0.0,2023,6,7,12,5,35,790
39.01370,-0.19425,-0.10955,0.00000,0.02867,0.97539,-0.19923,0.0,2023,6,7,12,5,35,800
39.01380,-0.19425,0.01295,0.00000,0.02940,0.97393,-0.19776,0.0,2023,6,7,12,5,35,810
39.01390,0.10325,0.08295,0.00000,0.02696,0.97734,-0.19703,0.0,2023,6,7,12,5,35,820
39.01400,0.12075,0.06545,0.00000,0.02855,0.97563,-0.19740,0.0,2023,6,7,12,5,35,830
39.01410,0.08575,-0.03955,0.00000,0.03001,0.97515,-0.19727,0.0,2023,6,7,12,5,35,840
39.01420,0.08575,-0.05705,0.00000,0.03160,0.97502,-0.19776,0.0,2023,6,7,12,5,35,850
39.01430,-0.17675,-0.00455,0.00000,0.02904,0.97637,-0.19752,0.0,2023,6,7,12,5,35,860
39.01440,0.03325,0.03045,0.00000,0.02660,0.97600,-0.19776,0.0,2023,6,7,12,5,35,870
39.01450,0.08575,-0.07455,0.00000,0.02940,0.97637,-0.19630,0.0,2023,6,7,12,5,35,880
39.01460,-0.00175,-0.07455,0.00000,0.02818,0.97661,-0.19654,0.0,2023,6,7,12,5,35,890
39.01470,-0.10675,0.10045,0.00000,0.02904,0.97515,-0.19703,0.0,2023,6,7,12,5,35,900
39.01480,0.03325,0.27545,0.00000,0.02733,0.97527,-0.19459,0.0,2023,6,7,12,5,35,910
39.01490,-0.17675,0.04795,0.00000,0.02965,0.97441,-0.19679,0.0,2023,6,7,12,5,35,920
39.01500,0.10325,0.08295,0.00000,0.02879,0.97783,-0.19544,0.0,2023,6,7,12,5,35,930
39.01510,0.08575,0.13545,0.00000,0.02891,0.97661,-0.19557,0.0,2023,6,7,12,5,35,940
39.01520,-0.00175,-0.03955,0.00000,0.02757,0.97393,-0.19581,0.0,2023,6,7,12,5,35,950
39.01530,0.12075,-0.00455,0.00000,0.02830,0.97429,-0.19483,0.0,2023,6,7,12,5,35,960
39.01540,0.08575,-0.00455,0.00000,0.02708,0.97380,-0.19764,0.0,2023,6,7,12,5,35,970
39.01550,0.13825,-0.02205,0.00000,0.02867,0.97722,-0.19581,0.0,2023,6,7,12,5,35,980
39.01560,-0.08925,0.17045,0.00000,0.02879,0.97551,-0.19849,0.0,2023,6,7,12,5,35,990
39.01570,0.20825,-0.17955,0.00000,0.02855,0.97551,-0.19740,0.0,2023,6,7,12,5,36,1000
39.01580,0.03325,-0.12705,0.00000,0.02843,0.97539,-0.19715,0.0,2023,6,7,12,5,36,10
39.01590,-0.14175,-0.09205,0.00000,0.02965,0.97649,-0.19715,0.0,2023,6,7,12,5,36,20
39.01600,0.10325,0.08295,0.00000,0.03062,0.97551,-0.19825,0.0,2023,6,7,12,5,36,30
39.01610,-0.07175,0.15295,0.00000,0.02696,0.97576,-0.19862,0.0,2023,6,7,12,5,36,40
39.01620,-0.08925,0.08295,0.00000,0.02867,0.97490,-0.19752,0.0,2023,6,7,12,5,36,50
39.01630,-0.00175,-0.12705,0.00000,0.03062,0.97588,-0.19483,0.0,2023,6,7,12,5,36,60
39.01640,-0.14175,0.11795,0.00000,0.02757,0.97405,-0.19557,0.0,2023,6,7,12,5,36,70
39.01650,0.05075,-0.00455,0.00000,0.02916,0.97661,-0.19849,0.0,2023,6,7,12,5,36,80
39.01660,-0.00175,0.04795,0.00000,0.02867,0.97746,-0.19471,0.0,2023,6,7,12,5,36,90
39.01670,-0.07175,-0.24955,0.00000,0.02647,0.97539,-0.19520,0.0,2023,6,7,12,5,36,100
39.01680,-0.00175,0.04795,0.00000,0.02818,0.97576,-0.19776,0.0,2023,6,7,12,5,36,110
39.01690,-0.00175,-0.21455,0.00000,0.02586,0.97649,-0.19386,0.0,2023,6,7,12,5,36,120
39.01700,0.22575,-0.12705,0.00000,0.02952,0.97685,-0.19605,0.0,2023,6,7,12,5,36,130
39.01710,0.06825,-0.12705,0.00000,0.02757,0.97466,-0.19642,0.0,2023,6,7,12,5,36,140
39.01720,0.08575,-0.05705,0.00000,0.02806,0.97441,-0.19910,0.0,2023,6,7,12,5,36,150
39.01730,0.03325,-0.09205,0.00000,0.02891,0.97685,-0.19520,0.0,2023,6,7,12,5,36,160
39.01740,-0.07175,-0.05705,0.00000,0.02904,0.97576,-0.19691,0.0,2023,6,7,12,5,36,170
39.01750,0.06825,0.13545,0.00000,0.02843,0.97661,-0.19435,0.0,2023,6,7,12,5,36,180
39.01760,0.08575,-0.03955,0.00000,0.03062,0.97661,-0.19837,0.0,2023,6,7,12,5,36,190
39.01770,-0.14175,-0.03955,0.00000,0.02879,0.97380,-0.19337,0.0,2023,6,7,12,5,36,200
39.01780,-0.00175,-0.09205,0.00000,0.02904,0.97661,-0.19605,0.0,2023,6,7,12,5,36,210
39.01790,-0.03675,-0.10955,0.00000,0.02818,0.97624,-0.19630,0.0,2023,6,7,12,5,36,220
39.01800,-0.12425,-0.00455,0.00000,0.02977,0.97515,-0.19471,0.0,2023,6,7,12,5,36,230
39.01810,0.05075,-0.12705,0.00000,0.03001,0.97734,-0.19605,0.0,2023,6,7,12,5,36,240
39.01820,0.05075,0.17045,0.00000,0.03050,0.97637,-0.19532,0.0,2023,6,7,12,5,36,250
39.01830,0.01575,0.01295,0.00000,0.02818,0.97576,-0.19422,0.0,2023,6,7,12,5,36,260
39.01840,-0.10675,0.18795,0.00000,0.02660,0.97478,-0.19642,0.0,2023,6,7,12,5,36,270
39.01850,-0.14175,0.08295,0.00000,0.02708,0.97685,-0.19605,0.0,2023,6,7,12,5,36,280
39.01860,0.06825,-0.03955,0.00000,0.02855,0.97698,-0.19752,0.0,2023,6,7,12,5,36,290
39.01870,0.03325,-0.09205,0.00000,0.02830,0.97393,-0.19776,0.0,2023,6,7,12,5,36,300
39.01880,-0.08925,-0.07455,0.00000,0.02867,0.97478,-0.19581,0.0,2023,6,7,12,5,36,310
39.01890,-0.15925,0.08295,0.00000,0.02660,0.97551,-0.19618,0.0,2023,6,7,12,5,36,320
39.01900,-0.03675,-0.12705,0.00000,0.02855,0.97746,-0.19483,0.0,2023,6,7,12,5,36,330
39.01910,0.05075,-0.10955,0.00000,0.03062,0.97405,-0.19642,0.0,2023,6,7,12,5,36,340
39.01920,0.15575,-0.09205,0.00000,0.02721,0.97441,-0.19642,0.0,2023,6,7,12,5,36,350
39.01930,-0.00175,-0.24955,0.00000,0.03062,0.97380,-0.19935,0.0,2023,6,7,12,5,36,360
39.01940,-0.00175,-0.05705,0.00000,0.02977,0.97454,-0.19569,0.0,2023,6,7,12,5,36,370
39.01950,-0.08925,0.08295,0.00000,0.02989,0.97722,-0.19618,0.0,2023,6,7,12,5,36,380
39.01960,-0.00175,-0.09205,0.00000,0.02635,0.97515,-0.19557,0.0,2023,6,7,12,5,36,390
39.01970,-0.01925,0.10045,0.00000,0.02843,0.97356,-0.19703,0.0,2023,6,7,12,5,36,400
39.01980,-0.01925,0.13545,0.00000,0.02574,0.97820,-0.19752,0.0,2023,6,7,12,5,36,410
39.01990,-0.10675,-0.10955,0.00000,0.02891,0.97600,-0.19557,0.0,2023,6,7,12,5,36,420
39.02000,0.13825,-0.02205,0.00000,0.02952,0.97527,-0.19837,0.0,2023,6,7,12,5,36,430
39.02010,0.03325,-0.14455,0.00000,0.02965,0.97429,-0.19849,0.0,2023,6,7,12,5,36,440
39.02020,-0.15925,-0.03955,0.00000,0.02965,0.97429,-0.19801,0.0,2023,6,7,12,5,36,450
39.02030,0.17325,-0.23205,0.00000,0.02782,0.97393,-0.19642,0.0,2023,6,7,12,5,36,460
39.02040,0.10325,0.03045,0.00000,0.02794,0.97624,-0.19764,0.0,2023,6,7,12,5,36,470
39.02050,0.05075,0.01295,0.00000,0.02830,0.97551,-0.19801,0.0,2023,6,7,12,5,36,480
39.02060,0.10325,-0.02205,0.00000,0.02891,0.97722,-0.19715,0.0,2023,6,7,12,5,36,490
39.02070,-0.15925,-0.05705,0.00000,0.02952,0.97600,-0.19703,0.0,2023,6,7,12,5,36,500
39.02080,-0.19425,-0.07455,0.00000,0.03050,0.97685,-0.19764,0.0,2023,6,7,12,5,36,510
39.02090,0.13825,-0.09205,0.00000,0.02879,0.97612,-0.19593,0.0,2023,6,7,12,5,36,520
39.02100,-0.03675,0.01295,0.00000,0.02989,0.97368,-0.19727,0.0,2023,6,7,12,5,36,530
39.02110,0.13825,0.10045,0.00000,0.02891,0.97576,-0.19569,0.0,2023,6,7,12,5,36,540
39.02120,-0.03675,-0.17955,0.00000,0.02769,0.97441,-0.19666,0.0,2023,6,7,12,5,36,550
39.02130,0.01575,-0.19705,0.00000,0.02989,0.97649,-0.19666,0.0,2023,6,7,12,5,36,560
39.02140,0.06825,0.01295,0.00000,0.02855,0.97820,-0.19520,0.0,2023,6,7,12,5,36,570
39.02150,-0.12425,0.01295,0.00000,0.02928,0.97649,-0.19496,0.0,2023,6,7,12,5,36,580
39.02160,0.08575,-0.00455,0.00000,0.02891,0.97710,-0.19801,0.0,2023,6,7,12,5,36,590
39.02170,-0.00175,0.04795,0.00000,0.02977,0.97710,-0.19630,0.0,2023,6,7,12,5,36,600
39.02180,-0.01925,-0.14455,0.00000,0.02660,0.97356,-0.19544,0.0,2023,6,7,12,5,36,610
39.02190,0.05075,-0.16205,0.00000,0.02794,0.97515,-0.19630,0.0,2023,6,7,12,5,36,620
39.02200,-0.05425,0.04795,0.00000,0.03038,0.97661,-0.19557,0.0,2023,6,7,12,5,36,630
39.02210,-0.00175,0.06545,0.00000,0.02843,0.97685,-0.19740,0.0,2023,6,7,12,5,36,640
39.02220,-0.00175,0.01295,0.00000,0.02952,0.97502,-0.19764,0.0,2023,6,7,12,5,36,650
39.02230,-0.00175,0.20545,0.00000,0.03026,0.97600,-0.19508,0.0,2023,6,7,12,5,36,660
39.02240,-0.00175,0.10045,0.00000,0.02879,0.97502,-0.19764,0.0,2023,6,7,12,5,36,670
39.02250,0.10325,-0.12705,0.00000,0.02611,0.97698,-0.19544,0.0,2023,6,7,12,5,36,680
39.02260,-0.14175,-0.09205,0.00000,0.03062,0.97588,-0.19496,0.0,2023,6,7,12,5,36,690
39.02270,-0.00175,0.11795,0.00000,0.02965,0.97698,-0.19801,0.0,2023,6,7,12,5,36,700
39.02280,-0.07175,0.06545,0.00000,0.02843,0.97698,-0.19740,0.0,2023,6,7,12,5,36,710
39.02290,-0.12425,0.10045,0.00000,0.02891,0.97612,-0.19557,0.0,2023,6,7,12,5,36,720
39.02300,-0.19425,0.10045,0.00000,0.02599,0.97661,-0.19898,0.0,2023,6,7,12,5,36,730
39.02310,0.17325,-0.26705,0.00000,0.02916,0.97539,-0.19691,0.0,2023,6,7,12,5,36,740
39.02320,-0.10675,0.04795,0.00000,0.02684,0.97588,-0.19813,0.0,2023,6,7,12,5,36,750
39.02330,0.01575,0.27545,0.00000,0.02611,0.97661,-0.19740,0.0,2023,6,7,12,5,36,760
39.02340,-0.00175,0.24045,0.00000,0.02965,0.97576,-0.19630,0.0,2023,6,7,12,5,36,770
39.02350,0.01575,0.18795,0.00000,0.03026,0.97588,-0.19715,0.0,2023,6,7,12,5,36,780
39.02360,-0.00175,0.04795,0.00000,0.03013,0.97722,-0.19788,0.0,2023,6,7,12,5,36,790
39.02370,0.08575,-0.00455,0.00000,0.02818,0.97454,-0.19532,0.0,2023,6,7,12,5,36,800
39.02380,0.15575,-0.05705,0.00000,0.02891,0.97563,-0.19703,0.0,2023,6,7,12,5,36,810
39.02390,-0.03675,0.11795,0.00000,0.03074,0.97612,-0.19557,0.0,2023,6,7,12,5,36,820
39.02400,-0.07175,0.11795,0.00000,0.03001,0.97563,-0.19752,0.0,2023,6,7,12,5,36,830
39.02410,-0.00175,0.01295,0.00000,0.02904,0.97551,-0.19520,0.0,2023,6,7,12,5,36,840
39.02420,-0.03675,-0.12705,0.00000,0.02916,0.97624,-0.19544,0.0,2023,6,7,12,5,36,850
39.02430,-0.14175,-0.05705,0.00000,0.02904,0.97466,-0.19837,0.0,2023,6,7,12,5,36,860
39.02440,0.10325,-0.10955,0.00000,0.02745,0.97246,-0.19544,0.0,2023,6,7,12,5,36,870
39.02450,-0.21175,-0.09205,0.00000,0.02904,0.97454,-0.19874,0.0,2023,6,7,12,5,36,880
39.02460,-0.05425,0.06545,0.00000,0.02904,0.97502,-0.19703,0.0,2023,6,7,12,5,37,890
39.02470,-0.00175,0.03045,0.00000,0.02879,0.97722,-0.19691,0.0,2023,6,7,12,5,37,900
39.02480,0.05075,0.08295,0.00000,0.02684,0.97393,-0.19923,0.0,2023,6,7,12,5,37,910
39.02490,0.17325,-0.28455,0.00000,0.02733,0.97563,-0.19740,0.0,2023,6,7,12,5,37,920
39.02500,-0.05425,0.06545,0.00000,0.02965,0.97405,-0.19886,0.0,2023,6,7,12,5,37,930
39.02510,-0.07175,-0.10955,0.00000,0.02879,0.97539,-0.19825,0.0,2023,6,7,12,5,37,940
39.02520,-0.00175,-0.33705,0.00000,0.02818,0.97502,-0.19813,0.0,2023,6,7,12,5,37,950
39.02530,0.31325,-0.12705,0.00000,0.02965,0.97600,-0.19752,0.0,2023,6,7,12,5,37,960
39.02540,-0.05425,0.10045,0.00000,0.02623,0.97685,-0.19581,0.0,2023,6,7,12,5,37,970
39.02550,-0.12425,-0.03955,0.00000,0.02928,0.97539,-0.19910,0.0,2023,6,7,12,5,37,980
39.02560,0.17325,0.08295,0.00000,0.03099,0.97563,-0.19886,0.0,2023,6,7,12,5,37,990
39.02570,-0.03675,0.08295,0.00000,0.02879,0.97600,-0.19544,0.0,2023,6,7,12,5,37,1000
39.02580,0.01575,-0.07455,0.00000,0.02806,0.97539,-0.19849,0.0,2023,6,7,12,5,37,10
39.02590,-0.03675,0.10045,0.00000,0.02965,0.97661,-0.19837,0.0,2023,6,7,12,5,37,20
39.02600,0.05075,0.17045,0.00000,0.02635,0.97527,-0.19886,0.0,2023,6,7,12,5,37,30
39.02610,0.01575,-0.02205,0.00000,0.02904,0.97551,-0.19862,0.0,2023,6,7,12,5,37,40
39.02620,-0.07175,-0.05705,0.00000,0.02733,0.97441,-0.19923,0.0,2023,6,7,12,5,37,50
39.02630,0.01575,0.04795,0.00000,0.02904,0.97502,-0.19630,0.0,2023,6,7,12,5,37,60
39.02640,0.13825,-0.07455,0.00000,0.02891,0.97539,-0.19971,0.0,2023,6,7,12,5,37,70
39.02650,-0.03675,0.06545,0.00000,0.02977,0.97698,-0.19630,0.0,2023,6,7,12,5,37,80
39.02660,0.20825,0.13545,0.00000,0.03013,0.97551,-0.19630,0.0,2023,6,7,12,5,37,90
39.02670,-0.05425,-0.09205,0.00000,0.02879,0.97539,-0.19654,0.0,2023,6,7,12,5,37,100
39.02680,-0.00175,-0.14455,0.00000,0.02806,0.97612,-0.19557,0.0,2023,6,7,12,5,37,110
39.02690,0.03325,0.11795,0.00000,0.03050,0.97429,-0.19764,0.0,2023,6,7,12,5,37,120
39.02700,-0.15925,-0.02205,0.00000,0.02733,0.97807,-0.19679,0.0,2023,6,7,12,5,37,130
39.02710,0.01575,0.06545,0.00000,0.02599,0.97624,-0.19666,0.0,2023,6,7,12,5,37,140
39.02720,0.05075,-0.00455,0.00000,0.02867,0.97539,-0.19666,0.0,2023,6,7,12,5,37,150
39.02730,-0.15925,0.15295,0.00000,0.02733,0.97417,-0.19630,0.0,2023,6,7,12,5,37,160
39.02740,-0.08925,-0.07455,0.00000,0.02684,0.97490,-0.19642,0.0,2023,6,7,12,5,37,170
39.02750,-0.08925,0.03045,0.00000,0.03001,0.97795,-0.19618,0.0,2023,6,7,12,5,37,180
39.02760,0.05075,0.03045,0.00000,0.03001,0.97588,-0.19764,0.0,2023,6,7,12,5,37,190
39.02770,-0.07175,-0.05705,0.00000,0.02684,0.97576,-0.19642,0.0,2023,6,7,12,5,37,200
39.02780,0.05075,-0.24955,0.00000,0.03026,0.97612,-0.19801,0.0,2023,6,7,12,5,37,210
39.02790,-0.05425,-0.07455,0.00000,0.02806,0.97490,-0.19752,0.0,2023,6,7,12,5,37,220
39.02800,0.03325,0.08295,0.00000,0.02989,0.97807,-0.19666,0.0,2023,6,7,12,5,37,230
39.02810,-0.01925,0.10045,0.00000,0.02647,0.97539,-0.19947,0.0,2023,6,7,12,5,37,240
39.02820,-0.03675,-0.02205,0.00000,0.02830,0.97576,-0.19825,0.0,2023,6,7,12,5,37,250
39.02830,0.03325,-0.12705,0.00000,0.02745,0.97649,-0.19605,0.0,2023,6,7,12,5,37,260
39.02840,0.06825,0.03045,0.00000,0.02879,0.97698,-0.19557,0.0,2023,6,7,12,5,37,270
39.02850,0.10325,0.03045,0.00000,0.02867,0.97624,-0.19654,0.0,2023,6,7,12,5,37,280
39.02860,0.01575,-0.12705,0.00000,0.02660,0.97576,-0.19715,0.0,2023,6,7,12,5,37,290
39.02870,-0.01925,0.17045,0.00000,0.02806,0.97515,-0.19654,0.0,2023,6,7,12,5,37,300
39.02880,0.20825,0.04795,0.00000,0.02769,0.97515,-0.19642,0.0,2023,6,7,12,5,37,310
39.02890,0.17325,-0.19705,0.00000,0.02916,0.97368,-0.19508,0.0,2023,6,7,12,5,37,320
39.02900,-0.10675,-0.19705,0.00000,0.03074,0.97246,-0.19666,0.0,2023,6,7,12,5,37,330
39.02910,-0.07175,-0.12705,0.00000,0.02757,0.97685,-0.19447,0.0,2023,6,7,12,5,37,340
39.02920,0.15575,-0.19705,0.00000,0.02660,0.97637,-0.19618,0.0,2023,6,7,12,5,37,350
39.02930,0.13825,-0.09205,0.00000,0.02855,0.97307,-0.19544,0.0,2023,6,7,12,5,37,360
39.02940,-0.05425,-0.05705,0.00000,0.03001,0.97576,-0.19764,0.0,2023,6,7,12,5,37,370
39.02950,0.05075,0.10045,0.00000,0.02952,0.97917,-0.19447,0.0,2023,6,7,12,5,37,380
39.02960,-0.01925,-0.14455,0.00000,0.02855,0.97563,-0.19618,0.0,2023,6,7,12,5,37,390
39.02970,0.05075,0.04795,0.00000,0.02818,0.97490,-0.19544,0.0,2023,6,7,12,5,37,400
39.02980,0.05075,-0.07455,0.00000,0.02879,0.97502,-0.19605,0.0,2023,6,7,12,5,37,410
39.02990,-0.00175,-0.12705,0.00000,0.02891,0.97624,-0.19679,0.0,2023,6,7,12,5,37,420
39.03000,0.13825,-0.17955,0.00000,0.02757,0.97466,-0.19923,0.0,2023,6,7,12,5,37,430
39.03010,0.10325,-0.17955,0.00000,0.02855,0.97588,-0.19923,0.0,2023,6,7,12,5,37,440
39.03020,-0.03675,-0.09205,0.00000,0.02879,0.97588,-0.19618,0.0,2023,6,7,12,5,37,450
39.03030,0.08575,0.15295,0.00000,0.02891,0.97588,-0.19752,0.0,2023,6,7,12,5,37,460
39.03040,-0.10675,-0.03955,0.00000,0.02928,0.97661,-0.19886,0.0,2023,6,7,12,5,37,470
39.03050,0.10325,0.04795,0.00000,0.02977,0.97527,-0.19435,0.0,2023,6,7,12,5,37,480
39.03060,0.17325,-0.23205,0.00000,0.02904,0.97502,-0.19605,0.0,2023,6,7,12,5,37,490
39.03070,0.03325,0.10045,0.00000,0.02916,0.97539,-0.19593,0.0,2023,6,7,12,5,37,500
39.03080,-0.14175,0.10045,0.00000,0.02757,0.97502,-0.19679,0.0,2023,6,7,12,5,37,510
39.03090,0.15575,-0.02205,0.00000,0.02855,0.97661,-0.19935,0.0,2023,6,7,12,5,37,520
39.03100,-0.08925,0.01295,0.00000,0.02818,0.97759,-0.19788,0.0,2023,6,7,12,5,37,530
39.03110,-0.05425,-0.03955,0.00000,0.03087,0.97612,-0.19642,0.0,2023,6,7,12,5,37,540
39.03120,0.01575,-0.03955,0.00000,0.03026,0.97722,-0.19740,0.0,2023,6,7,12,5,37,550
39.03130,-0.08925,0.10045,0.00000,0.02794,0.97405,-0.19508,0.0,2023,6,7,12,5,37,560
39.03140,-0.03675,0.03045,0.00000,0.02733,0.97417,-0.19825,0.0,2023,6,7,12,5,37,570
39.03150,0.05075,0.03045,0.00000,0.02733,0.97527,-0.19801,0.0,2023,6,7,12,5,37,580
39.03160,-0.03675,-0.05705,0.00000,0.02721,0.97405,-0.19740,0.0,2023,6,7,12,5,37,590
39.03170,-0.05425,-0.07455,0.00000,0.02769,0.97624,-0.19788,0.0,2023,6,7,12,5,37,600
39.03180,0.06825,0.03045,0.00000,0.02696,0.97661,-0.19642,0.0,2023,6,7,12,5,37,610
39.03190,0.01575,0.27545,0.00000,0.02855,0.97478,-0.19679,0.0,2023,6,7,12,5,37,620
39.03200,0.01575,-0.10955,0.00000,0.02818,0.97612,-0.19593,0.0,2023,6,7,12,5,37,630
39.03210,-0.03675,0.10045,0.00000,0.02928,0.97429,-0.19752,0.0,2023,6,7,12,5,37,640
39.03220,0.05075,-0.17955,0.00000,0.02867,0.97478,-0.19679,0.0,2023,6,7,12,5,37,650
39.03230,0.05075,-0.07455,0.00000,0.02891,0.97710,-0.19874,0.0,2023,6,7,12,5,37,660
39.03240,-0.03675,0.10045,0.00000,0.02843,0.97502,-0.19691,0.0,2023,6,7,12,5,37,670
39.03250,0.08575,0.03045,0.00000,0.02855,0.97673,-0.19691,0.0,2023,6,7,12,5,37,680
39.03260,-0.05425,0.06545,0.00000,0.03087,0.97551,-0.19666,0.0,2023,6,7,12,5,37,690
39.03270,-0.07175,-0.10955,0.00000,0.02647,0.97405,-0.19752,0.0,2023,6,7,12,5,37,700
39.03280,0.13825,-0.09205,0.00000,0.02916,0.97673,-0.19471,0.0,2023,6,7,12,5,37,710
39.03290,-0.01925,-0.02205,0.00000,0.02794,0.97527,-0.19703,0.0,2023,6,7,12,5,37,720
39.03300,-0.00175,0.10045,0.00000,0.02818,0.97624,-0.19776,0.0,2023,6,7,12,5,37,730
39.03310,-0.07175,0.20545,0.00000,0.02843,0.97649,-0.19935,0.0,2023,6,7,12,5,37,740
39.03320,-0.00175,0.20545,0.00000,0.02928,0.97551,-0.19849,0.0,2023,6,7,12,5,37,750
39.03330,0.06825,0.17045,0.00000,0.02891,0.97612,-0.19569,0.0,2023,6,7,12,5,37,760
39.03340,-0.12425,-0.07455,0.00000,0.02904,0.97502,-0.19496,0.0,2023,6,7,12,5,37,770
39.03350,0.12075,-0.23205,0.00000,0.03148,0.97441,-0.19630,0.0,2023,6,7,12,5,37,780
39.03360,0.01575,-0.09205,0.00000,0.02916,0.97405,-0.19642,0.0,2023,6,7,12,5,37,790
39.03370,-0.03675,-0.14455,0.00000,0.02916,0.97563,-0.19581,0.0,2023,6,7,12,5,38,800
39.03380,0.24325,-0.03955,0.00000,0.02928,0.97698,-0.19593,0.0,2023,6,7,12,5,38,810
39.03390,-0.03675,0.03045,0.00000,0.02928,0.97588,-0.19740,0.0,2023,6,7,12,5,38,820
39.03400,0.12075,-0.02205,0.00000,0.03026,0.97429,-0.19618,0.0,2023,6,7,12,5,38,830
39.03410,-0.01925,-0.09205,0.00000,0.03050,0.97746,-0.19813,0.0,2023,6,7,12,5,38,840
39.03420,0.12075,-0.19705,0.00000,0.02806,0.97551,-0.19849,0.0,2023,6,7,12,5,38,850
39.03430,0.01575,-0.16205,0.00000,0.03001,0.97405,-0.19752,0.0,2023,6,7,12,5,38,860
39.03440,-0.15925,0.18795,0.00000,0.02782,0.97783,-0.19849,0.0,2023,6,7,12,5,38,870
39.03450,-0.01925,0.01295,0.00000,0.02855,0.97527,-0.19605,0.0,2023,6,7,12,5,38,880
39.03460,0.05075,-0.03955,0.00000,0.02672,0.97478,-0.19935,0.0,2023,6,7,12,5,38,890
39.03470,0.03325,-0.03955,0.00000,0.03099,0.97563,-0.19618,0.0,2023,6,7,12,5,38,900
39.03480,-0.05425,0.01295,0.00000,0.02904,0.97746,-0.19471,0.0,2023,6,7,12,5,38,910
39.03490,-0.03675,-0.03955,0.00000,0.02867,0.97685,-0.19361,0.0,2023,6,7,12,5,38,920
39.03500,-0.00175,-0.05705,0.00000,0.02855,0.97588,-0.19557,0.0,2023,6,7,12,5,38,930
39.03510,-0.12425,0.04795,0.00000,0.02794,0.97527,-0.19605,0.0,2023,6,7,12,5,38,940
39.03520,0.01575,0.06545,0.00000,0.02989,0.97417,-0.19581,0.0,2023,6,7,12,5,38,950
39.03530,0.15575,-0.17955,0.00000,0.03087,0.97576,-0.19557,0.0,2023,6,7,12,5,38,960
39.03540,-0.03675,0.04795,0.00000,0.02952,0.97405,-0.19691,0.0,2023,6,7,12,5,38,970
39.03550,0.03325,0.04795,0.00000,0.02745,0.97466,-0.19569,0.0,2023,6,7,12,5,38,980
39.03560,-0.03675,-0.02205,0.00000,0.02745,0.97478,-0.19508,0.0,2023,6,7,12,5,38,990
39.03570,0.05075,0.13545,0.00000,0.02757,0.97624,-0.19801,0.0,2023,6,7,12,5,38,1000
39.03580,-0.05425,0.08295,0.00000,0.02989,0.97612,-0.19752,0.0,2023,6,7,12,5,38,10
39.03590,0.06825,0.01295,0.00000,0.02708,0.97600,-0.19752,0.0,2023,6,7,12,5,38,20
39.03600,-0.05425,-0.00455,0.00000,0.02745,0.97527,-0.19520,0.0,2023,6,7,12,5,38,30
39.03610,0.08575,-0.21455,0.00000,0.02843,0.97527,-0.19642,0.0,2023,6,7,12,5,38,40
39.03620,-0.15925,0.13545,0.00000,0.02745,0.97612,-0.19618,0.0,2023,6,7,12,5,38,50
39.03630,-0.21175,0.03045,0.00000,0.02855,0.97502,-0.19825,0.0,2023,6,7,12,5,38,60
39.03640,-0.15925,-0.12705,0.00000,0.02867,0.97490,-0.19618,0.0,2023,6,7,12,5,38,70
39.03650,0.06825,-0.09205,0.00000,0.02684,0.97588,-0.19727,0.0,2023,6,7,12,5,38,80
39.03660,0.15575,-0.09205,0.00000,0.02708,0.97649,-0.19801,0.0,2023,6,7,12,5,38,90
39.03670,0.03325,0.08295,0.00000,0.02708,0.97441,-0.19703,0.0,2023,6,7,12,5,38,100
39.03680,-0.10675,0.15295,0.00000,0.02989,0.97563,-0.19605,0.0,2023,6,7,12,5,38,110
39.03690,-0.03675,0.01295,0.00000,0.02745,0.97685,-0.19605,0.0,2023,6,7,12,5,38,120
39.03700,-0.05425,0.15295,0.00000,0.02952,0.97405,-0.19727,0.0,2023,6,7,12,5,38,130
39.03710,-0.01925,0.20545,0.00000,0.02794,0.97588,-0.19740,0.0,2023,6,7,12,5,38,140
39.03720,0.10325,-0.00455,0.00000,0.02867,0.97576,-0.19727,0.0,2023,6,7,12,5,38,150
39.03730,-0.17675,-0.05705,0.00000,0.02830,0.97478,-0.20142,0.0,2023,6,7,12,5,38,160
39.03740,0.03325,-0.10955,0.00000,0.02904,0.97478,-0.19581,0.0,2023,6,7,12,5,38,170
39.03750,-0.10675,-0.02205,0.00000,0.02952,0.97624,-0.19618,0.0,2023,6,7,12,5,38,180
39.03760,0.13825,-0.09205,0.00000,0.02952,0.97685,-0.19483,0.0,2023,6,7,12,5,38,190
39.03770,0.12075,-0.09205,0.00000,0.02916,0.97820,-0.19605,0.0,2023,6,7,12,5,38,200
39.03780,0.01575,0.03045,0.00000,0.02952,0.97417,-0.19788,0.0,2023,6,7,12,5,38,210
39.03790,0.01575,0.08295,0.00000,0.02928,0.97527,-0.19447,0.0,2023,6,7,12,5,38,220
39.03800,-0.12425,0.11795,0.00000,0.02708,0.97490,-0.19654,0.0,2023,6,7,12,5,38,230
39.03810,0.01575,-0.02205,0.00000,0.02769,0.97588,-0.19727,0.0,2023,6,7,12,5,38,240
39.03820,0.20825,-0.09205,0.00000,0.02818,0.97563,-0.19910,0.0,2023,6,7,12,5,38,250
39.03830,-0.01925,-0.05705,0.00000,0.02879,0.97600,-0.19764,0.0,2023,6,7,12,5,38,260
39.03840,-0.15925,-0.00455,0.00000,0.03013,0.97429,-0.19544,0.0,2023,6,7,12,5,38,270
39.03850,-0.07175,-0.23205,0.00000,0.02830,0.97612,-0.19569,0.0,2023,6,7,12,5,38,280
39.03860,0.05075,-0.10955,0.00000,0.02806,0.97490,-0.19593,0.0,2023,6,7,12,5,38,290
39.03870,0.06825,0.18795,0.00000,0.02916,0.97368,-0.19727,0.0,2023,6,7,12,5,38,300
39.03880,-0.01925,-0.02205,0.00000,0.02599,0.97478,-0.19752,0.0,2023,6,7,12,5,38,310
39.03890,0.15575,-0.07455,0.00000,0.02952,0.97624,-0.19825,0.0,2023,6,7,12,5,38,320
39.03900,0.24325,0.25795,0.00000,0.02965,0.97698,-0.19532,0.0,2023,6,7,12,5,38,330
39.03910,-0.19425,-0.03955,0.00000,0.03001,0.97649,-0.19483,0.0,2023,6,7,12,5,38,340
39.03920,0.08575,0.10045,0.00000,0.02989,0.97600,-0.19605,0.0,2023,6,7,12,5,38,350
39.03930,-0.01925,0.06545,0.00000,0.02733,0.97466,-0.19496,0.0,2023,6,7,12,5,38,360
39.03940,0.06825,-0.14455,0.00000,0.02745,0.97527,-0.19459,0.0,2023,6,7,12,5,38,370
39.03950,-0.01925,-0.00455,0.00000,0.03050,0.97588,-0.19825,0.0,2023,6,7,12,5,38,380
39.03960,0.12075,-0.12705,0.00000,0.02904,0.97527,-0.19605,0.0,2023,6,7,12,5,38,390
39.03970,-0.08925,-0.02205,0.00000,0.02916,0.97393,-0.19642,0.0,2023,6,7,12,5,38,400
39.03980,-0.24675,-0.09205,0.00000,0.03013,0.97759,-0.19715,0.0,2023,6,7,12,5,38,410
39.03990,-0.15925,0.13545,0.00000,0.03026,0.97746,-0.19630,0.0,2023,6,7,12,5,38,420
39.04000,0.10325,0.01295,0.00000,0.02916,0.97502,-0.19471,0.0,2023,6,7,12,5,38,430
39.04010,0.08575,-0.03955,0.00000,0.02794,0.97600,-0.19703,0.0,2023,6,7,12,5,38,440
39.04020,-0.07175,-0.07455,0.00000,0.02672,0.97600,-0.19581,0.0,2023,6,7,12,5,38,450
39.04030,-0.05425,-0.10955,0.00000,0.03087,0.97454,-0.19459,0.0,2023,6,7,12,5,38,460
39.04040,-0.08925,-0.03955,0.00000,0.02672,0.97490,-0.19605,0.0,2023,6,7,12,5,38,470
39.04050,0.01575,-0.19705,0.00000,0.02660,0.97771,-0.19691,0.0,2023,6,7,12,5,38,480
39.04060,-0.14175,0.03045,0.00000,0.02806,0.97088,-0.19764,0.0,2023,6,7,12,5,38,490
39.04070,0.01575,0.20545,0.00000,0.02940,0.97551,-0.19508,0.0,2023,6,7,12,5,38,500
39.04080,-0.05425,-0.00455,0.00000,0.02940,0.97417,-0.19825,0.0,2023,6,7,12,5,38,510
39.04090,0.12075,-0.02205,0.00000,0.02867,0.97673,-0.19618,0.0,2023,6,7,12,5,38,520
39.04100,-0.10675,0.04795,0.00000,0.02977,0.97637,-0.19679,0.0,2023,6,7,12,5,38,530
39.04110,-0.10675,-0.17955,0.00000,0.02830,0.97576,-0.19374,0.0,2023,6,7,12,5,38,540
39.04120,0.01575,0.01295,0.00000,0.02928,0.97588,-0.19715,0.0,2023,6,7,12,5,38,550
39.04130,-0.08925,-0.10955,0.00000,0.02855,0.97600,-0.19581,0.0,2023,6,7,12,5,38,560
39.04140,0.03325,0.08295,0.00000,0.03172,0.97527,-0.19471,0.0,2023,6,7,12,5,38,570
39.04150,0.01575,0.06545,0.00000,0.02806,0.97783,-0.19398,0.0,2023,6,7,12,5,38,580
39.04160,-0.03675,-0.03955,0.00000,0.02769,0.97441,-0.19679,0.0,2023,6,7,12,5,38,590
39.04170,0.06825,-0.00455,0.00000,0.02879,0.97515,-0.19703,0.0,2023,6,7,12,5,38,600
39.04180,-0.03675,-0.14455,0.00000,0.02965,0.97746,-0.19679,0.0,2023,6,7,12,5,38,610
39.04190,-0.03675,-0.00455,0.00000,0.02830,0.97563,-0.19752,0.0,2023,6,7,12,5,38,620
39.04200,-0.07175,-0.09205,0.00000,0.02843,0.97551,-0.19569,0.0,2023,6,7,12,5,38,630
39.04210,0.10325,0.04795,0.00000,0.02891,0.97612,-0.19593,0.0,2023,6,7,12,5,38,640
39.04220,0.06825,-0.10955,0.00000,0.02916,0.97734,-0.19435,0.0,2023,6,7,12,5,38,650
39.04230,0.05075,-0.12705,0.00000,0.02830,0.97515,-0.19715,0.0,2023,6,7,12,5,38,660
39.04240,-0.08925,-0.03955,0.00000,0.02830,0.97734,-0.19496,0.0,2023,6,7,12,5,38,670
39.04250,-0.01925,0.24045,0.00000,0.02769,0.97515,-0.19654,0.0,2023,6,7,12,5,38,680
39.04260,0.01575,0.06545,0.00000,0.02843,0.97698,-0.19654,0.0,2023,6,7,12,5,38,690
39.04270,0.19075,-0.09205,0.00000,0.02867,0.97600,-0.19642,0.0,2023,6,7,12,5,39,700
39.04280,-0.05425,-0.09205,0.00000,0.03074,0.97515,-0.19715,0.0,2023,6,7,12,5,39,710
39.04290,-0.10675,-0.02205,0.00000,0.02818,0.97588,-0.19691,0.0,2023,6,7,12,5,39,720
39.04300,-0.12425,0.01295,0.00000,0.03135,0.97600,-0.19581,0.0,2023,6,7,12,5,39,730
39.04310,0.08575,-0.02205,0.00000,0.02684,0.97490,-0.19483,0.0,2023,6,7,12,5,39,740
39.04320,0.05075,0.20545,0.00000,0.02867,0.97734,-0.19691,0.0,2023,6,7,12,5,39,750
39.04330,-0.01925,0.08295,0.00000,0.02818,0.97417,-0.19557,0.0,2023,6,7,12,5,39,760
39.04340,0.05075,-0.00455,0.00000,0.02818,0.97551,-0.19605,0.0,2023,6,7,12,5,39,770
39.04350,0.12075,-0.02205,0.00000,0.02940,0.97746,-0.19654,0.0,2023,6,7,12,5,39,780
39.04360,-0.12425,0.04795,0.00000,0.03038,0.97685,-0.19483,0.0,2023,6,7,12,5,39,790
39.04370,-0.03675,0.08295,0.00000,0.02916,0.97490,-0.19666,0.0,2023,6,7,12,5,39,800
39.04380,0.01575,-0.03955,0.00000,0.02745,0.97698,-0.19544,0.0,2023,6,7,12,5,39,810
39.04390,0.10325,0.06545,0.00000,0.02769,0.97527,-0.19837,0.0,2023,6,7,12,5,39,820
39.04400,0.24325,-0.35455,0.00000,0.02977,0.97600,-0.19740,0.0,2023,6,7,12,5,39,830
39.04410,0.10325,-0.19705,0.00000,0.02867,0.97527,-0.19569,0.0,2023,6,7,12,5,39,840
39.04420,-0.00175,-0.07455,0.00000,0.02830,0.97637,-0.19496,0.0,2023,6,7,12,5,39,850
39.04430,-0.05425,0.10045,0.00000,0.03050,0.97515,-0.19727,0.0,2023,6,7,12,5,39,860
39.04440,0.01575,-0.07455,0.00000,0.02891,0.97685,-0.19727,0.0,2023,6,7,12,5,39,870
39.04450,-0.10675,0.15295,0.00000,0.02757,0.97368,-0.19630,0.0,2023,6,7,12,5,39,880
39.04460,0.01575,0.06545,0.00000,0.02635,0.97917,-0.19605,0.0,2023,6,7,12,5,39,890
39.04470,0.01575,0.01295,0.00000,0.02928,0.97685,-0.19520,0.0,2023,6,7,12,5,39,900
39.04480,0.05075,0.11795,0.00000,0.03026,0.97210,-0.19459,0.0,2023,6,7,12,5,39,910
39.04490,0.03325,0.01295,0.00000,0.02843,0.97588,-0.19703,0.0,2023,6,7,12,5,39,920
39.04500,-0.10675,0.11795,0.00000,0.02843,0.97612,-0.19727,0.0,2023,6,7,12,5,39,930
39.04510,-0.07175,0.18795,0.00000,0.02696,0.97795,-0.19605,0.0,2023,6,7,12,5,39,940
39.04520,0.10325,0.04795,0.00000,0.02721,0.97551,-0.19508,0.0,2023,6,7,12,5,39,950
39.04530,0.10325,-0.09205,0.00000,0.02830,0.97624,-0.19691,0.0,2023,6,7,12,5,39,960
39.04540,-0.03675,0.10045,0.00000,0.02745,0.97417,-0.19910,0.0,2023,6,7,12,5,39,970
39.04550,0.12075,-0.12705,0.00000,0.02989,0.97576,-0.19544,0.0,2023,6,7,12,5,39,980
39.04560,0.13825,-0.21455,0.00000,0.02916,0.97429,-0.19618,0.0,2023,6,7,12,5,39,990
39.04570,0.20825,-0.00455,0.00000,0.02806,0.97539,-0.19666,0.0,2023,6,7,12,5,39,1000
39.04580,0.08575,0.04795,0.00000,0.02843,0.97515,-0.19508,0.0,2023,6,7,12,5,39,10
39.04590,0.05075,-0.03955,0.00000,0.02769,0.97368,-0.19679,0.0,2023,6,7,12,5,39,20
39.04600,0.03325,0.04795,0.00000,0.02916,0.97441,-0.19727,0.0,2023,6,7,12,5,39,30
39.04610,0.08575,-0.02205,0.00000,0.02806,0.97466,-0.19569,0.0,2023,6,7,12,5,39,40
39.04620,0.10325,0.10045,0.00000,0.02867,0.97698,-0.19337,0.0,2023,6,7,12,5,39,50
39.04630,0.03325,-0.17955,0.00000,0.02977,0.97600,-0.19630,0.0,2023,6,7,12,5,39,60
39.04640,-0.15925,0.04795,0.00000,0.02672,0.97417,-0.19679,0.0,2023,6,7,12,5,39,70
39.04650,0.01575,-0.09205,0.00000,0.03001,0.97649,-0.19471,0.0,2023,6,7,12,5,39,80
39.04660,-0.01925,0.03045,0.00000,0.02952,0.97393,-0.19752,0.0,2023,6,7,12,5,39,90
39.04670,0.24325,-0.09205,0.00000,0.02843,0.97746,-0.19386,0.0,2023,6,7,12,5,39,100
39.04680,-0.01925,0.04795,0.00000,0.02782,0.97441,-0.19459,0.0,2023,6,7,12,5,39,110
39.04690,0.12075,-0.00455,0.00000,0.03001,0.97649,-0.19691,0.0,2023,6,7,12,5,39,120
39.04700,-0.10675,0.01295,0.00000,0.03026,0.97661,-0.19532,0.0,2023,6,7,12,5,39,130
39.04710,-0.08925,-0.10955,0.00000,0.03001,0.97673,-0.19691,0.0,2023,6,7,12,5,39,140
39.04720,-0.12425,-0.23205,0.00000,0.02989,0.97356,-0.19642,0.0,2023,6,7,12,5,39,150
39.04730,-0.00175,-0.19705,0.00000,0.02904,0.97515,-0.19837,0.0,2023,6,7,12,5,39,160
39.04740,0.12075,-0.05705,0.00000,0.02879,0.97588,-0.19654,0.0,2023,6,7,12,5,39,170
39.04750,-0.14175,0.29295,0.00000,0.02867,0.97722,-0.19630,0.0,2023,6,7,12,5,39,180
39.04760,-0.05425,-0.02205,0.00000,0.03123,0.97673,-0.19557,0.0,2023,6,7,12,5,39,190
39.04770,-0.01925,-0.12705,0.00000,0.03087,0.97417,-0.19727,0.0,2023,6,7,12,5,39,200
39.04780,0.15575,0.08295,0.00000,0.02904,0.97771,-0.19581,0.0,2023,6,7,12,5,39,210
39.04790,0.08575,-0.23205,0.00000,0.02745,0.97661,-0.19544,0.0,2023,6,7,12,5,39,220
39.04800,-0.00175,-0.05705,0.00000,0.02965,0.97576,-0.19886,0.0,2023,6,7,12,5,39,230
39.04810,0.20825,-0.14455,0.00000,0.02745,0.97576,-0.19727,0.0,2023,6,7,12,5,39,240
39.04820,-0.07175,-0.05705,0.00000,0.02855,0.97588,-0.19801,0.0,2023,6,7,12,5,39,250
39.04830,0.01575,0.04795,0.00000,0.02928,0.97490,-0.19618,0.0,2023,6,7,12,5,39,260
39.04840,0.10325,-0.00455,0.00000,0.02891,0.97795,-0.19776,0.0,2023,6,7,12,5,39,270
39.04850,-0.05425,0.01295,0.00000,0.02818,0.97563,-0.19605,0.0,2023,6,7,12,5,39,280
39.04860,0.10325,-0.09205,0.00000,0.02952,0.97722,-0.19605,0.0,2023,6,7,12,5,39,290
39.04870,-0.03675,0.01295,0.00000,0.02830,0.97478,-0.19581,0.0,2023,6,7,12,5,39,300
39.04880,-0.05425,0.01295,0.00000,0.02611,0.97490,-0.19691,0.0,2023,6,7,12,5,39,310
39.04890,0.05075,-0.10955,0.00000,0.02782,0.97551,-0.19679,0.0,2023,6,7,12,5,39,320
39.04900,-0.01925,-0.14455,0.00000,0.02745,0.97551,-0.19630,0.0,2023,6,7,12,5,39,330
39.04910,0.12075,-0.12705,0.00000,0.02696,0.97783,-0.19727,0.0,2023,6,7,12,5,39,340
39.04920,0.06825,-0.03955,0.00000,0.03111,0.97673,-0.19593,0.0,2023,6,7,12,5,39,350
39.04930,-0.10675,0.13545,0.00000,0.03001,0.97588,-0.19849,0.0,2023,6,7,12,5,39,360
39.04940,0.01575,-0.09205,0.00000,0.02855,0.97515,-0.19618,0.0,2023,6,7,12,5,39,370
39.04950,0.03325,-0.10955,0.00000,0.02940,0.97283,-0.19642,0.0,2023,6,7,12,5,39,380
39.04960,-0.00175,-0.17955,0.00000,0.02757,0.97576,-0.19947,0.0,2023,6,7,12,5,39,390
39.04970,-0.01925,-0.12705,0.00000,0.02684,0.97722,-0.19837,0.0,2023,6,7,12,5,39,400
39.04980,0.03325,0.06545,0.00000,0.03074,0.97698,-0.19715,0.0,2023,6,7,12,5,39,410
39.04990,-0.05425,0.08295,0.00000,0.02782,0.97417,-0.19874,0.0,2023,6,7,12,5,39,420
39.05000,-0.00175,-0.05705,0.00000,0.02891,0.97746,-0.19691,0.0,2023,6,7,12,5,39,430
39.05010,-0.03675,-0.05705,0.00000,0.02916,0.97649,-0.19776,0.0,2023,6,7,12,5,39,440
39.05020,0.03325,0.04795,0.00000,0.02867,0.97612,-0.19520,0.0,2023,6,7,12,5,39,450
39.05030,-0.07175,0.04795,0.00000,0.02867,0.97502,-0.19618,0.0,2023,6,7,12,5,39,460
39.05040,0.13825,0.13545,0.00000,0.02733,0.97600,-0.19825,0.0,2023,6,7,12,5,39,470
39.05050,-0.29925,0.08295,0.00000,0.02672,0.97624,-0.19642,0.0,2023,6,7,12,5,39,480
39.05060,-0.03675,0.17045,0.00000,0.02940,0.97576,-0.19569,0.0,2023,6,7,12,5,39,490
39.05070,0.06825,-0.14455,0.00000,0.02647,0.97649,-0.19715,0.0,2023,6,7,12,5,39,500
39.05080,0.03325,-0.21455,0.00000,0.02977,0.97722,-0.19764,0.0,2023,6,7,12,5,39,510
39.05090,0.05075,-0.09205,0.00000,0.02684,0.97734,-0.19642,0.0,2023,6,7,12,5,39,520
39.05100,0.05075,0.08295,0.00000,0.02806,0.97478,-0.19557,0.0,2023,6,7,12,5,39,530
39.05110,0.03325,-0.14455,0.00000,0.03123,0.97795,-0.19862,0.0,2023,6,7,12,5,39,540
39.05120,-0.05425,-0.10955,0.00000,0.02891,0.97576,-0.19593,0.0,2023,6,7,12,5,39,550
39.05130,0.06825,0.01295,0.00000,0.02855,0.97515,-0.20069,0.0,2023,6,7,12,5,39,560
39.05140,0.06825,0.15295,0.00000,0.02623,0.97515,-0.19813,0.0,2023,6,7,12,5,39,570
39.05150,0.03325,-0.05705,0.00000,0.02989,0.97734,-0.19788,0.0,2023,6,7,12,5,39,580
39.05160,-0.00175,-0.10955,0.00000,0.02586,0.97649,-0.19605,0.0,2023,6,7,12,5,39,590
39.05170,-0.14175,0.08295,0.00000,0.02635,0.97551,-0.19788,0.0,2023,6,7,12,5,39,600
39.05180,0.06825,-0.03955,0.00000,0.02928,0.97551,-0.19715,0.0,2023,6,7,12,5,40,610
39.05190,0.06825,0.06545,0.00000,0.02782,0.97563,-0.19691,0.0,2023,6,7,12,5,40,620
39.05200,-0.21175,-0.05705,0.00000,0.02977,0.97405,-0.19581,0.0,2023,6,7,12,5,40,630
39.05210,-0.01925,-0.05705,0.00000,0.02928,0.97624,-0.19654,0.0,2023,6,7,12,5,40,640
39.05220,-0.08925,-0.05705,0.00000,0.02989,0.97490,-0.19666,0.0,2023,6,7,12,5,40,650
39.05230,-0.12425,-0.00455,0.00000,0.02782,0.97551,-0.19752,0.0,2023,6,7,12,5,40,660
39.05240,-0.05425,-0.09205,0.00000,0.02940,0.97576,-0.19813,0.0,2023,6,7,12,5,40,670
39.05250,-0.00175,-0.16205,0.00000,0.03135,0.97710,-0.19593,0.0,2023,6,7,12,5,40,680
39.05260,0.06825,0.06545,0.00000,0.02879,0.97527,-0.19605,0.0,2023,6,7,12,5,40,690
39.05270,0.08575,0.15295,0.00000,0.03062,0.97466,-0.19837,0.0,2023,6,7,12,5,40,700
39.05280,-0.07175,0.06545,0.00000,0.02965,0.97539,-0.19898,0.0,2023,6,7,12,5,40,710
39.05290,0.06825,-0.05705,0.00000,0.02623,0.97637,-0.19654,0.0,2023,6,7,12,5,40,720
39.05300,-0.08925,-0.02205,0.00000,0.02660,0.97661,-0.19679,0.0,2023,6,7,12,5,40,730
39.05310,0.01575,0.13545,0.00000,0.02867,0.97539,-0.19496,0.0,2023,6,7,12,5,40,740
39.05320,0.01575,0.15295,0.00000,0.02904,0.97332,-0.19825,0.0,2023,6,7,12,5,40,750
39.05330,0.08575,-0.02205,0.00000,0.02940,0.97637,-0.19886,0.0,2023,6,7,12,5,40,760
39.05340,-0.07175,0.04795,0.00000,0.03038,0.97551,-0.19910,0.0,2023,6,7,12,5,40,770
39.05350,0.01575,-0.19705,0.00000,0.02721,0.97332,-0.19557,0.0,2023,6,7,12,5,40,780
39.05360,0.08575,-0.00455,0.00000,0.02891,0.97527,-0.19483,0.0,2023,6,7,12,5,40,790
39.05370,0.10325,0.04795,0.00000,0.02782,0.97685,-0.19593,0.0,2023,6,7,12,5,40,800
39.05380,-0.01925,-0.07455,0.00000,0.02891,0.97698,-0.19593,0.0,2023,6,7,12,5,40,810
39.05390,-0.17675,-0.00455,0.00000,0.02940,0.97734,-0.19788,0.0,2023,6,7,12,5,40,820
39.05400,-0.07175,-0.00455,0.00000,0.02904,0.97466,-0.19837,0.0,2023,6,7,12,5,40,830
39.05410,-0.05425,-0.10955,0.00000,0.02904,0.97771,-0.19752,0.0,2023,6,7,12,5,40,840
39.05420,0.10325,-0.12705,0.00000,0.02769,0.97515,-0.19581,0.0,2023,6,7,12,5,40,850
39.05430,0.05075,-0.03955,0.00000,0.02916,0.97600,-0.19727,0.0,2023,6,7,12,5,40,860
39.05440,-0.03675,0.08295,0.00000,0.02855,0.97466,-0.19605,0.0,2023,6,7,12,5,40,870
39.05450,0.10325,-0.05705,0.00000,0.02965,0.97417,-0.19679,0.0,2023,6,7,12,5,40,880
39.05460,-0.05425,-0.07455,0.00000,0.02916,0.97588,-0.19703,0.0,2023,6,7,12,5,40,890
39.05470,-0.00175,0.03045,0.00000,0.02782,0.97637,-0.19727,0.0,2023,6,7,12,5,40,900
39.05480,0.06825,-0.03955,0.00000,0.02769,0.97454,-0.19679,0.0,2023,6,7,12,5,40,910
39.05490,-0.08925,-0.00455,0.00000,0.02916,0.97429,-0.19544,0.0,2023,6,7,12,5,40,920
39.05500,-0.00175,-0.16205,0.00000,0.02647,0.97478,-0.19496,0.0,2023,6,7,12,5,40,930
39.05510,-0.00175,-0.07455,0.00000,0.02733,0.97637,-0.19679,0.0,2023,6,7,12,5,40,940
39.05520,-0.12425,0.06545,0.00000,0.02879,0.97734,-0.19569,0.0,2023,6,7,12,5,40,950
39.05530,-0.14175,0.13545,0.00000,0.02721,0.97454,-0.19703,0.0,2023,6,7,12,5,40,960
39.05540,0.13825,0.04795,0.00000,0.02855,0.97539,-0.19984,0.0,2023,6,7,12,5,40,970
39.05550,-0.08925,0.08295,0.00000,0.02794,0.97649,-0.19898,0.0,2023,6,7,12,5,40,980
39.05560,0.06825,-0.19705,0.00000,0.02952,0.97685,-0.19898,0.0,2023,6,7,12,5,40,990
39.05570,0.05075,-0.03955,0.00000,0.02952,0.97746,-0.19605,0.0,2023,6,7,12,5,40,1000
39.05580,0.05075,0.04795,0.00000,0.02733,0.97588,-0.19801,0.0,2023,6,7,12,5,40,10
39.05590,0.19075,0.08295,0.00000,0.02891,0.97478,-0.19935,0.0,2023,6,7,12,5,40,20
39.05600,-0.10675,-0.00455,0.00000,0.02989,0.97417,-0.19971,0.0,2023,6,7,12,5,40,30
39.05610,0.01575,0.24045,0.00000,0.03087,0.97746,-0.19837,0.0,2023,6,7,12,5,40,40
39.05620,0.12075,-0.14455,0.00000,0.02733,0.97624,-0.19532,0.0,2023,6,7,12,5,40,50
39.05630,-0.08925,0.13545,0.00000,0.03013,0.97466,-0.19581,0.0,2023,6,7,12,5,40,60
39.05640,0.12075,-0.03955,0.00000,0.02757,0.97551,-0.19740,0.0,2023,6,7,12,5,40,70
39.05650,-0.01925,0.04795,0.00000,0.03013,0.97600,-0.19874,0.0,2023,6,7,12,5,40,80
39.05660,-0.00175,-0.07455,0.00000,0.02916,0.97502,-0.19703,0.0,2023,6,7,12,5,40,90
39.05670,-0.08925,-0.09205,0.00000,0.02952,0.97563,-0.19740,0.0,2023,6,7,12,5,40,100
39.05680,0.08575,0.01295,0.00000,0.02977,0.97490,-0.19691,0.0,2023,6,7,12,5,40,110
39.05690,-0.22925,0.13545,0.00000,0.02867,0.97685,-0.19996,0.0,2023,6,7,12,5,40,120
39.05700,0.12075,0.03045,0.00000,0.02745,0.97356,-0.19666,0.0,2023,6,7,12,5,40,130
39.05710,-0.07175,-0.09205,0.00000,0.02830,0.97612,-0.19630,0.0,2023,6,7,12,5,40,140
39.05720,-0.22925,0.06545,0.00000,0.03013,0.97515,-0.19874,0.0,2023,6,7,12,5,40,150
39.05730,-0.07175,0.06545,0.00000,0.02794,0.97551,-0.19703,0.0,2023,6,7,12,5,40,160
39.05740,-0.01925,0.08295,0.00000,0.02879,0.97344,-0.19654,0.0,2023,6,7,12,5,40,170
39.05750,-0.07175,-0.14455,0.00000,0.02928,0.97807,-0.19788,0.0,2023,6,7,12,5,40,180
39.05760,-0.05425,-0.02205,0.00000,0.02952,0.97637,-0.19703,0.0,2023,6,7,12,5,40,190
39.05770,-0.08925,-0.26705,0.00000,0.02916,0.97478,-0.19593,0.0,2023,6,7,12,5,40,200
39.05780,0.06825,-0.12705,0.00000,0.02782,0.97515,-0.19874,0.0,2023,6,7,12,5,40,210
39.05790,-0.10675,0.20545,0.00000,0.03038,0.97515,-0.19496,0.0,2023,6,7,12,5,40,220
39.05800,-0.01925,-0.03955,0.00000,0.02879,0.97576,-0.19715,0.0,2023,6,7,12,5,40,230
39.05810,0.15575,-0.05705,0.00000,0.02623,0.97807,-0.19740,0.0,2023,6,7,12,5,40,240
39.05820,-0.08925,-0.03955,0.00000,0.02891,0.97612,-0.19935,0.0,2023,6,7,12,5,40,250
39.05830,0.05075,0.04795,0.00000,0.02867,0.97466,-0.19776,0.0,2023,6,7,12,5,40,260
39.05840,-0.03675,0.10045,0.00000,0.02952,0.97441,-0.19654,0.0,2023,6,7,12,5,40,270
39.05850,-0.14175,0.03045,0.00000,0.02769,0.97600,-0.19703,0.0,2023,6,7,12,5,40,280
39.05860,-0.28175,-0.05705,0.00000,0.03074,0.97600,-0.19679,0.0,2023,6,7,12,5,40,290
39.05870,-0.00175,-0.07455,0.00000,0.02928,0.97527,-0.19898,0.0,2023,6,7,12,5,40,300
39.05880,0.12075,-0.16205,0.00000,0.02733,0.97502,-0.19874,0.0,2023,6,7,12,5,40,310
39.05890,0.10325,0.06545,0.00000,0.02891,0.97759,-0.19971,0.0,2023,6,7,12,5,40,320
39.05900,-0.01925,0.01295,0.00000,0.02757,0.97502,-0.19849,0.0,2023,6,7,12,5,40,330
39.05910,0.06825,-0.12705,0.00000,0.02965,0.97515,-0.19837,0.0,2023,6,7,12,5,40,340
39.05920,0.10325,0.01295,0.00000,0.02855,0.97478,-0.19630,0.0,2023,6,7,12,5,40,350
39.05930,-0.03675,-0.05705,0.00000,0.02952,0.97685,-0.19630,0.0,2023,6,7,12,5,40,360
39.05940,-0.00175,-0.16205,0.00000,0.02843,0.97466,-0.19752,0.0,2023,6,7,12,5,40,370
39.05950,0.10325,-0.09205,0.00000,0.02867,0.97600,-0.19849,0.0,2023,6,7,12,5,40,380
39.05960,-0.00175,0.15295,0.00000,0.02928,0.97405,-0.19520,0.0,2023,6,7,12,5,40,390
39.05970,0.10325,-0.12705,0.00000,0.02647,0.97417,-0.19764,0.0,2023,6,7,12,5,40,400
39.05980,0.06825,-0.00455,0.00000,0.02977,0.97380,-0.19788,0.0,2023,6,7,12,5,40,410
39.05990,0.12075,-0.10955,0.00000,0.02757,0.97698,-0.19520,0.0,2023,6,7,12,5,40,420
39.06000,-0.10675,0.11795,0.00000,0.02879,0.97783,-0.19715,0.0,2023,6,7,12,5,40,430
39.06010,0.10325,-0.10955,0.00000,0.02843,0.97405,-0.19605,0.0,2023,6,7,12,5,40,440
39.06020,0.01575,-0.00455,0.00000,0.03148,0.97478,-0.19605,0.0,2023,6,7,12,5,40,450
39.06030,0.05075,-0.09205,0.00000,0.02733,0.97661,-0.19764,0.0,2023,6,7,12,5,40,460
39.06040,0.05075,-0.02205,0.00000,0.03087,0.97612,-0.19191,0.0,2023,6,7,12,5,40,470
39.06050,0.03325,0.08295,0.00000,0.02855,0.97551,-0.19752,0.0,2023,6,7,12,5,40,480
39.06060,0.01575,-0.02205,0.00000,0.02855,0.97417,-0.19752,0.0,2023,6,7,12,5,40,490
39.06070,-0.19425,-0.03955,0.00000,0.02916,0.97551,-0.19618,0.0,2023,6,7,12,5,40,500
39.06080,0.17325,-0.12705,0.00000,0.02721,0.97576,-0.19435,0.0,2023,6,7,12,5,41,510
39.06090,0.01575,-0.26705,0.00000,0.02818,0.97466,-0.19679,0.0,2023,6,7,12,5,41,520
39.06100,0.08575,-0.09205,0.00000,0.02696,0.97746,-0.19642,0.0,2023,6,7,12,5,41,530
39.06110,0.05075,-0.09205,0.00000,0.02904,0.97539,-0.19849,0.0,2023,6,7,12,5,41,540
39.06120,0.22575,0.03045,0.00000,0.02879,0.97637,-0.19752,0.0,2023,6,7,12,5,41,550
39.06130,-0.14175,0.08295,0.00000,0.03013,0.97576,-0.19825,0.0,2023,6,7,12,5,41,560
39.06140,-0.03675,-0.03955,0.00000,0.02904,0.97685,-0.19910,0.0,2023,6,7,12,5,41,570
39.06150,0.03325,0.03045,0.00000,0.02757,0.97380,-0.19691,0.0,2023,6,7,12,5,41,580
39.06160,0.03325,-0.09205,0.00000,0.02782,0.97612,-0.19752,0.0,2023,6,7,12,5,41,590
39.06170,-0.14175,-0.05705,0.00000,0.02782,0.97576,-0.20045,0.0,2023,6,7,12,5,41,600
39.06180,0.01575,0.01295,0.00000,0.02879,0.97527,-0.19813,0.0,2023,6,7,12,5,41,610
39.06190,-0.01925,0.10045,0.00000,0.02769,0.97429,-0.19715,0.0,2023,6,7,12,5,41,620
39.06200,0.08575,-0.31955,0.00000,0.02721,0.97637,-0.19581,0.0,2023,6,7,12,5,41,630
39.06210,-0.08925,-0.23205,0.00000,0.02977,0.97515,-0.19532,0.0,2023,6,7,12,5,41,640
39.06220,0.01575,0.17045,0.00000,0.02855,0.97624,-0.19544,0.0,2023,6,7,12,5,41,650
39.06230,-0.07175,0.08295,0.00000,0.02769,0.97588,-0.19813,0.0,2023,6,7,12,5,41,660
39.06240,0.05075,0.10045,0.00000,0.02599,0.97502,-0.19898,0.0,2023,6,7,12,5,41,670
39.06250,-0.07175,0.04795,0.00000,0.02782,0.97515,-0.19666,0.0,2023,6,7,12,5,41,680
39.06260,-0.01925,0.04795,0.00000,0.02904,0.97515,-0.19727,0.0,2023,6,7,12,5,41,690
39.06270,-0.00175,0.08295,0.00000,0.02806,0.97685,-0.19691,0.0,2023,6,7,12,5,41,700
39.06280,0.03325,-0.09205,0.00000,0.02928,0.97551,-0.19691,0.0,2023,6,7,12,5,41,710
39.06290,0.05075,0.08295,0.00000,0.02940,0.97588,-0.19874,0.0,2023,6,7,12,5,41,720
39.06300,0.22575,-0.09205,0.00000,0.02989,0.97539,-0.19679,0.0,2023,6,7,12,5,41,730
39.06310,-0.14175,-0.02205,0.00000,0.02977,0.97685,-0.19679,0.0,2023,6,7,12,5,41,740
39.06320,0.03325,-0.09205,0.00000,0.02855,0.97356,-0.19764,0.0,2023,6,7,12,5,41,750
39.06330,-0.01925,-0.17955,0.00000,0.02782,0.97478,-0.19935,0.0,2023,6,7,12,5,41,760
39.06340,-0.03675,0.08295,0.00000,0.02879,0.97783,-0.19740,0.0,2023,6,7,12,5,41,770
39.06350,-0.03675,0.27545,0.00000,0.02696,0.97588,-0.19752,0.0,2023,6,7,12,5,41,780
39.06360,0.10325,-0.09205,0.00000,0.02891,0.97612,-0.19447,0.0,2023,6,7,12,5,41,790
39.06370,-0.14175,0.10045,0.00000,0.02965,0.97844,-0.19727,0.0,2023,6,7,12,5,41,800
39.06380,0.01575,0.11795,0.00000,0.02794,0.97319,-0.19666,0.0,2023,6,7,12,5,41,810
39.06390,-0.12425,0.01295,0.00000,0.02830,0.97380,-0.19727,0.0,2023,6,7,12,5,41,820
39.06400,0.13825,-0.03955,0.00000,0.03062,0.97551,-0.19581,0.0,2023,6,7,12,5,41,830
39.06410,-0.00175,-0.03955,0.00000,0.02916,0.97600,-0.19520,0.0,2023,6,7,12,5,41,840
39.06420,-0.08925,-0.02205,0.00000,0.02830,0.97576,-0.19825,0.0,2023,6,7,12,5,41,850
39.06430,-0.03675,0.17045,0.00000,0.02855,0.97539,-0.19581,0.0,2023,6,7,12,5,41,860
39.06440,-0.07175,0.01295,0.00000,0.02855,0.97673,-0.19471,0.0,2023,6,7,12,5,41,870
39.06450,0.06825,-0.10955,0.00000,0.02745,0.97807,-0.19557,0.0,2023,6,7,12,5,41,880
39.06460,0.08575,-0.19705,0.00000,0.02879,0.97612,-0.19776,0.0,2023,6,7,12,5,41,890
39.06470,-0.10675,-0.07455,0.00000,0.03050,0.97380,-0.19544,0.0,2023,6,7,12,5,41,900
39.06480,0.12075,-0.12705,0.00000,0.02965,0.97710,-0.19605,0.0,2023,6,7,12,5,41,910
39.06490,-0.10675,0.03045,0.00000,0.02904,0.97454,-0.19618,0.0,2023,6,7,12,5,41,920
39.06500,-0.01925,0.24045,0.00000,0.02721,0.97576,-0.19654,0.0,2023,6,7,12,5,41,930
39.06510,-0.01925,-0.02205,0.00000,0.02855,0.97746,-0.19642,0.0,2023,6,7,12,5,41,940
39.06520,-0.01925,-0.05705,0.00000,0.02721,0.97502,-0.19654,0.0,2023,6,7,12,5,41,950
39.06530,-0.15925,-0.05705,0.00000,0.03062,0.97600,-0.19679,0.0,2023,6,7,12,5,41,960
39.06540,0.01575,-0.00455,0.00000,0.02696,0.97612,-0.19532,0.0,2023,6,7,12,5,41,970
39.06550,-0.07175,0.03045,0.00000,0.02879,0.97490,-0.19605,0.0,2023,6,7,12,5,41,980
39.06560,0.03325,-0.07455,0.00000,0.02843,0.97685,-0.19618,0.0,2023,6,7,12,5,41,990
39.06570,-0.03675,-0.21455,0.00000,0.02721,0.97417,-0.19837,0.0,2023,6,7,12,5,41,1000
39.06580,-0.26425,-0.03955,0.00000,0.02989,0.97600,-0.19544,0.0,2023,6,7,12,5,41,10
39.06590,-0.17675,-0.10955,0.00000,0.02867,0.97698,-0.19642,0.0,2023,6,7,12,5,41,20
39.06600,-0.00175,-0.07455,0.00000,0.02855,0.97783,-0.19544,0.0,2023,6,7,12,5,41,30
39.06610,0.08575,0.01295,0.00000,0.02794,0.97466,-0.19886,0.0,2023,6,7,12,5,41,40
39.06620,0.20825,0.01295,0.00000,0.02599,0.97612,-0.19447,0.0,2023,6,7,12,5,41,50
39.06630,-0.12425,0.11795,0.00000,0.02855,0.97527,-0.19581,0.0,2023,6,7,12,5,41,60
39.06640,-0.03675,-0.09205,0.00000,0.02806,0.97588,-0.19520,0.0,2023,6,7,12,5,41,70
39.06650,-0.24675,0.24045,0.00000,0.02965,0.97759,-0.19837,0.0,2023,6,7,12,5,41,80
39.06660,-0.00175,0.10045,0.00000,0.02672,0.97624,-0.19666,0.0,2023,6,7,12,5,41,90
39.06670,0.06825,-0.05705,0.00000,0.02928,0.97685,-0.19691,0.0,2023,6,7,12,5,41,100
39.06680,0.12075,0.01295,0.00000,0.02928,0.97698,-0.19581,0.0,2023,6,7,12,5,41,110
39.06690,-0.05425,0.10045,0.00000,0.02855,0.97698,-0.19752,0.0,2023,6,7,12,5,41,120
39.06700,-0.01925,0.01295,0.00000,0.02745,0.97490,-0.19801,0.0,2023,6,7,12,5,41,130
39.06710,0.05075,0.04795,0.00000,0.02977,0.97478,-0.19764,0.0,2023,6,7,12,5,41,140
39.06720,-0.03675,-0.14455,0.00000,0.02769,0.97698,-0.19801,0.0,2023,6,7,12,5,41,150
39.06730,-0.19425,0.08295,0.00000,0.02916,0.97539,-0.19325,0.0,2023,6,7,12,5,41,160
39.06740,0.17325,0.01295,0.00000,0.02965,0.97624,-0.19618,0.0,2023,6,7,12,5,41,170
39.06750,-0.01925,-0.09205,0.00000,0.02623,0.97673,-0.19386,0.0,2023,6,7,12,5,41,180
39.06760,0.13825,0.13545,0.00000,0.02843,0.97746,-0.19642,0.0,2023,6,7,12,5,41,190
39.06770,-0.03675,-0.00455,0.00000,0.02843,0.97502,-0.19788,0.0,2023,6,7,12,5,41,200
39.06780,0.13825,-0.00455,0.00000,0.02855,0.97429,-0.19727,0.0,2023,6,7,12,5,41,210
39.06790,0.10325,-0.23205,0.00000,0.02672,0.97478,-0.19605,0.0,2023,6,7,12,5,41,220
39.06800,0.05075,0.01295,0.00000,0.02562,0.97515,-0.19520,0.0,2023,6,7,12,5,41,230
39.06810,0.01575,0.06545,0.00000,0.02891,0.97771,-0.19471,0.0,2023,6,7,12,5,41,240
39.06820,-0.00175,0.01295,0.00000,0.02806,0.97515,-0.19361,0.0,2023,6,7,12,5,41,250
39.06830,0.03325,0.01295,0.00000,0.02733,0.97502,-0.19532,0.0,2023,6,7,12,5,41,260
39.06840,0.03325,0.04795,0.00000,0.03099,0.97734,-0.19666,0.0,2023,6,7,12,5,41,270
39.06850,-0.03675,-0.02205,0.00000,0.02721,0.97515,-0.19349,0.0,2023,6,7,12,5,41,280
39.06860,0.01575,0.24045,0.00000,0.02660,0.97649,-0.19691,0.0,2023,6,7,12,5,41,290
39.06870,-0.03675,-0.05705,0.00000,0.02904,0.97466,-0.19508,0.0,2023,6,7,12,5,41,300
39.06880,0.10325,-0.21455,0.00000,0.03062,0.97637,-0.19325,0.0,2023,6,7,12,5,41,310
39.06890,-0.14175,0.15295,0.00000,0.02965,0.97515,-0.19593,0.0,2023,6,7,12,5,41,320
39.06900,0.05075,0.17045,0.00000,0.02818,0.97502,-0.19520,0.0,2023,6,7,12,5,41,330
39.06910,0.22575,0.15295,0.00000,0.03062,0.97429,-0.19593,0.0,2023,6,7,12,5,41,340
39.06920,0.05075,-0.05705,0.00000,0.02891,0.97466,-0.19361,0.0,2023,6,7,12,5,41,350
39.06930,0.19075,-0.23205,0.00000,0.02879,0.97539,-0.19618,0.0,2023,6,7,12,5,41,360
39.06940,-0.01925,0.06545,0.00000,0.02977,0.97576,-0.19569,0.0,2023,6,7,12,5,41,370
39.06950,0.03325,0.08295,0.00000,0.02989,0.97551,-0.19715,0.0,2023,6,7,12,5,41,380
39.06960,0.15575,0.01295,0.00000,0.02952,0.97405,-0.19471,0.0,2023,6,7,12,5,41,390
39.06970,0.12075,0.04795,0.00000,0.02891,0.97661,-0.19666,0.0,2023,6,7,12,5,41,400
39.06980,-0.07175,0.04795,0.00000,0.02623,0.97612,-0.19593,0.0,2023,6,7,12,5,42,410
39.06990,-0.21175,0.15295,0.00000,0.02782,0.97624,-0.19459,0.0,2023,6,7,12,5,42,420
39.07000,-0.12425,-0.00455,0.00000,0.02855,0.97698,-0.19691,0.0,2023,6,7,12,5,42,430
39.07010,-0.07175,0.03045,0.00000,0.02708,0.97807,-0.19849,0.0,2023,6,7,12,5,42,440
39.07020,0.03325,0.24045,0.00000,0.02867,0.97405,-0.19557,0.0,2023,6,7,12,5,42,450
39.07030,-0.05425,-0.02205,0.00000,0.02928,0.97539,-0.19471,0.0,2023,6,7,12,5,42,460
39.07040,-0.03675,0.15295,0.00000,0.02904,0.97612,-0.19581,0.0,2023,6,7,12,5,42,470
39.07050,-0.00175,-0.00455,0.00000,0.02843,0.97698,-0.19593,0.0,2023,6,7,12,5,42,480
39.07060,0.03325,-0.16205,0.00000,0.02916,0.97588,-0.19691,0.0,2023,6,7,12,5,42,490
39.07070,0.01575,-0.07455,0.00000,0.03160,0.97417,-0.19422,0.0,2023,6,7,12,5,42,500
39.07080,-0.00175,-0.09205,0.00000,0.02940,0.97783,-0.19618,0.0,2023,6,7,12,5,42,510
39.07090,0.12075,-0.02205,0.00000,0.02843,0.97563,-0.19447,0.0,2023,6,7,12,5,42,520
39.07100,-0.00175,-0.10955,0.00000,0.02769,0.97502,-0.19849,0.0,2023,6,7,12,5,42,530
39.07110,-0.00175,0.01295,0.00000,0.02745,0.97600,-0.19715,0.0,2023,6,7,12,5,42,540
39.07120,-0.21175,-0.02205,0.00000,0.02794,0.97539,-0.19605,0.0,2023,6,7,12,5,42,550
39.07130,-0.26425,-0.05705,0.00000,0.03026,0.97624,-0.19239,0.0,2023,6,7,12,5,42,560
39.07140,-0.01925,-0.05705,0.00000,0.02891,0.97551,-0.19325,0.0,2023,6,7,12,5,42,570
39.07150,-0.01925,0.06545,0.00000,0.02855,0.97698,-0.19483,0.0,2023,6,7,12,5,42,580
39.07160,0.10325,-0.03955,0.00000,0.02721,0.97746,-0.19630,0.0,2023,6,7,12,5,42,590
39.07170,-0.14175,0.03045,0.00000,0.02843,0.97551,-0.19300,0.0,2023,6,7,12,5,42,600
39.07180,0.15575,0.08295,0.00000,0.02733,0.97539,-0.19752,0.0,2023,6,7,12,5,42,610
39.07190,0.03325,0.06545,0.00000,0.02928,0.97490,-0.19386,0.0,2023,6,7,12,5,42,620
39.07200,0.01575,-0.02205,0.00000,0.02721,0.97454,-0.19630,0.0,2023,6,7,12,5,42,630
39.07210,0.08575,-0.07455,0.00000,0.02916,0.97624,-0.19703,0.0,2023,6,7,12,5,42,640
39.07220,-0.05425,0.13545,0.00000,0.02830,0.97441,-0.19532,0.0,2023,6,7,12,5,42,650
39.07230,-0.05425,0.11795,0.00000,0.02977,0.97563,-0.19459,0.0,2023,6,7,12,5,42,660
39.07240,-0.01925,0.03045,0.00000,0.02916,0.97673,-0.19496,0.0,2023,6,7,12,5,42,670
39.07250,-0.17675,0.01295,0.00000,0.02794,0.97783,-0.19679,0.0,2023,6,7,12,5,42,680
39.07260,0.03325,-0.00455,0.00000,0.02879,0.97649,-0.19630,0.0,2023,6,7,12,5,42,690
39.07270,0.22575,-0.12705,0.00000,0.02769,0.97380,-0.19691,0.0,2023,6,7,12,5,42,700
39.07280,-0.19425,0.25795,0.00000,0.03062,0.97673,-0.19410,0.0,2023,6,7,12,5,42,710
39.07290,-0.15925,-0.03955,0.00000,0.02745,0.97624,-0.19618,0.0,2023,6,7,12,5,42,720
39.07300,0.01575,0.10045,0.00000,0.02940,0.97722,-0.19459,0.0,2023,6,7,12,5,42,730
39.07310,-0.14175,0.06545,0.00000,0.02977,0.97746,-0.19691,0.0,2023,6,7,12,5,42,740
39.07320,0.05075,-0.00455,0.00000,0.02757,0.97441,-0.19410,0.0,2023,6,7,12,5,42,750
39.07330,-0.01925,-0.05705,0.00000,0.02952,0.97588,-0.19618,0.0,2023,6,7,12,5,42,760
39.07340,0.20825,-0.10955,0.00000,0.02806,0.97600,-0.19715,0.0,2023,6,7,12,5,42,770
39.07350,0.08575,-0.03955,0.00000,0.02867,0.97795,-0.19569,0.0,2023,6,7,12,5,42,780
39.07360,-0.05425,0.13545,0.00000,0.02818,0.97527,-0.19374,0.0,2023,6,7,12,5,42,790
39.07370,-0.07175,-0.03955,0.00000,0.02806,0.97380,-0.19459,0.0,2023,6,7,12,5,42,800
39.07380,-0.03675,0.15295,0.00000,0.02794,0.97661,-0.19374,0.0,2023,6,7,12,5,42,810
39.07390,0.10325,0.03045,0.00000,0.02928,0.97478,-0.19752,0.0,2023,6,7,12,5,42,820
39.07400,-0.00175,-0.35455,0.00000,0.03038,0.97380,-0.19508,0.0,2023,6,7,12,5,42,830
39.07410,0.20825,-0.16205,0.00000,0.02867,0.97563,-0.19618,0.0,2023,6,7,12,5,42,840
39.07420,-0.12425,-0.17955,0.00000,0.02818,0.97478,-0.19288,0.0,2023,6,7,12,5,42,850
39.07430,0.12075,0.03045,0.00000,0.02855,0.97722,-0.19642,0.0,2023,6,7,12,5,42,860
39.07440,-0.03675,0.08295,0.00000,0.02684,0.97551,-0.19703,0.0,2023,6,7,12,5,42,870
39.07450,-0.01925,-0.10955,0.00000,0.03013,0.97380,-0.19508,0.0,2023,6,7,12,5,42,880
39.07460,-0.10675,-0.14455,0.00000,0.03001,0.97332,-0.19410,0.0,2023,6,7,12,5,42,890
39.07470,0.19075,-0.19705,0.00000,0.03062,0.97576,-0.19630,0.0,2023,6,7,12,5,42,900
39.07480,0.08575,-0.12705,0.00000,0.02989,0.97795,-0.19508,0.0,2023,6,7,12,5,42,910
39.07490,-0.05425,-0.05705,0.00000,0.02916,0.97673,-0.19618,0.0,2023,6,7,12,5,42,920
39.07500,0.08575,-0.14455,0.00000,0.02928,0.97563,-0.19630,0.0,2023,6,7,12,5,42,930
39.07510,-0.14175,0.13545,0.00000,0.02794,0.97710,-0.19605,0.0,2023,6,7,12,5,42,940
39.07520,-0.08925,-0.00455,0.00000,0.03001,0.97576,-0.19691,0.0,2023,6,7,12,5,42,950
39.07530,0.13825,0.01295,0.00000,0.02977,0.97612,-0.19435,0.0,2023,6,7,12,5,42,960
39.07540,-0.12425,0.15295,0.00000,0.02684,0.97551,-0.19996,0.0,2023,6,7,12,5,42,970
39.07550,0.17325,-0.02205,0.00000,0.02952,0.97600,-0.19532,0.0,2023,6,7,12,5,42,980
39.07560,-0.03675,0.06545,0.00000,0.02794,0.97612,-0.19300,0.0,2023,6,7,12,5,42,990
39.07570,0.08575,0.11795,0.00000,0.02830,0.97466,-0.19520,0.0,2023,6,7,12,5,42,1000
39.07580,0.05075,0.10045,0.00000,0.02635,0.97746,-0.19483,0.0,2023,6,7,12,5,42,10
39.07590,0.03325,-0.09205,0.00000,0.02757,0.97405,-0.19727,0.0,2023,6,7,12,5,42,20
39.07600,0.03325,0.03045,0.00000,0.02830,0.97502,-0.19715,0.0,2023,6,7,12,5,42,30
39.07610,-0.05425,0.01295,0.00000,0.02879,0.97527,-0.19435,0.0,2023,6,7,12,5,42,40
39.07620,-0.10675,-0.05705,0.00000,0.02794,0.97405,-0.19483,0.0,2023,6,7,12,5,42,50
39.07630,0.06825,0.06545,0.00000,0.02745,0.97380,-0.19593,0.0,2023,6,7,12,5,42,60
39.07640,0.01575,-0.02205,0.00000,0.02867,0.97539,-0.19435,0.0,2023,6,7,12,5,42,70
39.07650,0.12075,-0.12705,0.00000,0.02806,0.97539,-0.19386,0.0,2023,6,7,12,5,42,80
39.07660,-0.01925,0.06545,0.00000,0.02721,0.97515,-0.19544,0.0,2023,6,7,12,5,42,90
39.07670,-0.01925,0.22295,0.00000,0.02660,0.97466,-0.19471,0.0,2023,6,7,12,5,42,100
39.07680,0.01575,0.06545,0.00000,0.02745,0.97637,-0.19764,0.0,2023,6,7,12,5,42,110
39.07690,0.01575,-0.00455,0.00000,0.02806,0.97588,-0.19740,0.0,2023,6,7,12,5,42,120
39.07700,-0.15925,0.08295,0.00000,0.03001,0.97698,-0.19679,0.0,2023,6,7,12,5,42,130
39.07710,-0.05425,-0.17955,0.00000,0.02867,0.97673,-0.19727,0.0,2023,6,7,12,5,42,140
39.07720,0.08575,0.10045,0.00000,0.02928,0.97539,-0.19496,0.0,2023,6,7,12,5,42,150
39.07730,-0.08925,-0.10955,0.00000,0.02733,0.97429,-0.19361,0.0,2023,6,7,12,5,42,160
39.07740,-0.17675,-0.07455,0.00000,0.03013,0.97380,-0.19654,0.0,2023,6,7,12,5,42,170
39.07750,-0.21175,-0.09205,0.00000,0.03001,0.97624,-0.19630,0.0,2023,6,7,12,5,42,180
39.07760,-0.10675,0.04795,0.00000,0.02940,0.97466,-0.19642,0.0,2023,6,7,12,5,42,190
#2023/06/07 12:05:42
