#2023/06/07 16:40:50
time,wx,wy,wz,ax,ay,az,yy,MM,dd,hh,mm,ss,ms
46.75890,-0.13807,0.02590,0.00000,0.03087,0.97576,-0.18703,0.0,2023,6,7,16,40,50,147
46.75900,-0.06807,0.18340,0.00000,0.03111,0.97649,-0.18764,0.0,2023,6,7,16,40,50,158
46.75910,0.17693,-0.06160,0.00000,0.03074,0.97734,-0.18849,0.0,2023,6,7,16,40,50,169
46.75920,0.01943,-0.04410,0.00000,0.02818,0.97588,-0.19056,0.0,2023,6,7,16,40,50,180
46.75930,0.00193,-0.34160,0.00000,0.03184,0.97563,-0.19130,0.0,2023,6,7,16,40,50,192
46.75940,-0.06807,0.06090,0.00000,0.03196,0.97844,-0.19032,0.0,2023,6,7,16,40,50,203
46.75950,-0.06807,0.09590,0.00000,0.03221,0.97820,-0.18703,0.0,2023,6,7,16,40,50,214
46.75960,0.05443,-0.25410,0.00000,0.03087,0.97942,-0.18898,0.0,2023,6,7,16,40,50,225
46.75970,-0.03307,0.16590,0.00000,0.02952,0.97685,-0.19081,0.0,2023,6,7,16,40,50,237
46.75980,-0.03307,-0.11410,0.00000,0.02977,0.97576,-0.18666,0.0,2023,6,7,16,40,50,248
46.75990,-0.10307,0.00840,0.00000,0.03148,0.97527,-0.18947,0.0,2023,6,7,16,40,50,259
46.76000,-0.08557,0.07840,0.00000,0.03355,0.97698,-0.18751,0.0,2023,6,7,16,40,50,270
46.76010,0.08943,-0.04410,0.00000,0.03074,0.97637,-0.19142,0.0,2023,6,7,16,40,50,282
46.76020,0.01943,0.04340,0.00000,0.03209,0.97612,-0.18922,0.0,2023,6,7,16,40,50,293
46.76030,0.26443,-0.02660,0.00000,0.02977,0.97698,-0.18995,0.0,2023,6,7,16,40,50,304
46.76040,-0.01557,-0.07910,0.00000,0.03050,0.97502,-0.18812,0.0,2023,6,7,16,40,50,315
46.76050,0.01943,-0.13160,0.00000,0.03404,0.97661,-0.18995,0.0,2023,6,7,16,40,51,327
46.76060,0.00193,0.04340,0.00000,0.03038,0.97649,-0.18959,0.0,2023,6,7,16,40,51,338
46.76070,0.17693,-0.13160,0.00000,0.03172,0.97649,-0.18983,0.0,2023,6,7,16,40,51,349
46.76080,-0.06807,-0.11410,0.00000,0.03026,0.97759,-0.19008,0.0,2023,6,7,16,40,51,360
46.76090,0.12443,-0.13160,0.00000,0.03111,0.97551,-0.18910,0.0,2023,6,7,16,40,51,372
46.76100,0.01943,-0.37660,0.00000,0.03160,0.97478,-0.18971,0.0,2023,6,7,16,40,51,383
46.76110,0.12443,-0.02660,0.00000,0.02891,0.97649,-0.19008,0.0,2023,6,7,16,40,51,394
46.76120,0.12443,-0.07910,0.00000,0.03282,0.97637,-0.18751,0.0,2023,6,7,16,40,51,405
46.76130,-0.06807,0.07840,0.00000,0.03160,0.97710,-0.18934,0.0,2023,6,7,16,40,51,417
46.76140,0.07193,-0.02660,0.00000,0.03074,0.97771,-0.18947,0.0,2023,6,7,16,40,51,428
46.76150,0.03693,0.13090,0.00000,0.03270,0.97710,-0.18471,0.0,2023,6,7,16,40,51,439
46.76160,-0.05057,0.16590,0.00000,0.02940,0.97588,-0.18861,0.0,2023,6,7,16,40,51,450
46.76170,0.12443,-0.11410,0.00000,0.03099,0.97734,-0.19093,0.0,2023,6,7,16,40,51,462
46.76180,-0.01557,0.04340,0.00000,0.03294,0.97527,-0.18800,0.0,2023,6,7,16,40,51,473
46.76190,-0.08557,0.00840,0.00000,0.03038,0.97771,-0.18861,0.0,2023,6,7,16,40,51,484
46.76200,0.05443,0.20090,0.00000,0.03294,0.97441,-0.18934,0.0,2023,6,7,16,40,51,495
46.76210,-0.22557,0.04340,0.00000,0.03148,0.97563,-0.18971,0.0,2023,6,7,16,40,51,507
46.76220,0.10693,0.02590,0.00000,0.03062,0.97844,-0.19056,0.0,2023,6,7,16,40,51,518
46.76230,-0.03307,-0.09660,0.00000,0.03111,0.97624,-0.18898,0.0,2023,6,7,16,40,51,529
46.76240,-0.10307,0.14840,0.00000,0.03026,0.97685,-0.18861,0.0,2023,6,7,16,40,51,540
46.76250,0.03693,-0.02660,0.00000,0.03001,0.97746,-0.18788,0.0,2023,6,7,16,40,51,552
46.76260,0.05443,0.13090,0.00000,0.02952,0.97746,-0.18934,0.0,2023,6,7,16,40,51,563
46.76270,0.01943,0.00840,0.00000,0.02916,0.97588,-0.18934,0.0,2023,6,7,16,40,51,574
46.76280,0.19443,-0.13160,0.00000,0.03099,0.97405,-0.18934,0.0,2023,6,7,16,40,51,585
46.76290,-0.01557,0.06090,0.00000,0.03257,0.97759,-0.18751,0.0,2023,6,7,16,40,51,597
46.76300,-0.27807,0.09590,0.00000,0.02916,0.97698,-0.18971,0.0,2023,6,7,16,40,51,608
46.76310,0.08943,0.21840,0.00000,0.03135,0.97710,-0.18910,0.0,2023,6,7,16,40,51,619
46.76320,0.00193,0.02590,0.00000,0.03160,0.97710,-0.18971,0.0,2023,6,7,16,40,51,630
46.76330,0.08943,-0.00910,0.00000,0.02989,0.97661,-0.19093,0.0,2023,6,7,16,40,51,642
46.76340,-0.17307,-0.00910,0.00000,0.03148,0.97673,-0.18715,0.0,2023,6,7,16,40,51,653
46.76350,-0.19057,0.11340,0.00000,0.03245,0.97673,-0.18837,0.0,2023,6,7,16,40,51,664
46.76360,0.12443,-0.00910,0.00000,0.03221,0.97820,-0.18812,0.0,2023,6,7,16,40,51,675
46.76370,0.19443,-0.02660,0.00000,0.03135,0.97563,-0.19008,0.0,2023,6,7,16,40,51,687
46.76380,0.03693,0.11340,0.00000,0.03294,0.97746,-0.18715,0.0,2023,6,7,16,40,51,698
46.76390,-0.12057,-0.02660,0.00000,0.03233,0.97454,-0.18837,0.0,2023,6,7,16,40,51,709
46.76400,0.03693,-0.09660,0.00000,0.03221,0.97551,-0.18934,0.0,2023,6,7,16,40,51,720
46.76410,-0.01557,0.11340,0.00000,0.02989,0.97563,-0.19117,0.0,2023,6,7,16,40,51,732
46.76420,0.10693,-0.18410,0.00000,0.03026,0.97551,-0.19032,0.0,2023,6,7,16,40,51,743
46.76430,0.08943,0.06090,0.00000,0.03270,0.97820,-0.18629,0.0,2023,6,7,16,40,51,754
46.76440,0.05443,-0.00910,0.00000,0.03123,0.97710,-0.18629,0.0,2023,6,7,16,40,51,765
46.76450,-0.03307,0.07840,0.00000,0.03123,0.97466,-0.18788,0.0,2023,6,7,16,40,51,777
46.76460,0.19443,-0.25410,0.00000,0.02989,0.97527,-0.18690,0.0,2023,6,7,16,40,51,788
46.76470,0.12443,-0.09660,0.00000,0.03282,0.97258,-0.18764,0.0,2023,6,7,16,40,51,799
46.76480,-0.01557,-0.14910,0.00000,0.03257,0.97783,-0.18910,0.0,2023,6,7,16,40,51,810
46.76490,-0.12057,0.04340,0.00000,0.03221,0.97588,-0.18910,0.0,2023,6,7,16,40,51,822
46.76500,0.00193,-0.09660,0.00000,0.02928,0.97429,-0.18922,0.0,2023,6,7,16,40,51,833
46.76510,-0.06807,-0.00910,0.00000,0.03013,0.97454,-0.19056,0.0,2023,6,7,16,40,51,844
46.76520,0.17693,0.04340,0.00000,0.03135,0.97868,-0.18898,0.0,2023,6,7,16,40,51,855
46.76530,-0.06807,-0.09660,0.00000,0.03172,0.97673,-0.18812,0.0,2023,6,7,16,40,51,867
46.76540,0.14193,-0.06160,0.00000,0.02928,0.97563,-0.18666,0.0,2023,6,7,16,40,51,878
46.76550,-0.03307,-0.14910,0.00000,0.02928,0.97637,-0.18983,0.0,2023,6,7,16,40,51,889
46.76560,0.05443,0.16590,0.00000,0.03038,0.97661,-0.19008,0.0,2023,6,7,16,40,51,900
46.76570,0.05443,-0.11410,0.00000,0.03209,0.97283,-0.18617,0.0,2023,6,7,16,40,51,912
46.76580,0.00193,0.11340,0.00000,0.03111,0.97807,-0.19044,0.0,2023,6,7,16,40,51,923
46.76590,-0.03307,0.21840,0.00000,0.03282,0.97783,-0.18898,0.0,2023,6,7,16,40,51,934
46.76600,0.00193,0.35840,0.00000,0.03184,0.97746,-0.18825,0.0,2023,6,7,16,40,51,945
46.76610,-0.10307,0.18340,0.00000,0.03135,0.97673,-0.18764,0.0,2023,6,7,16,40,51,957
46.76620,0.07193,-0.02660,0.00000,0.03148,0.97600,-0.18324,0.0,2023,6,7,16,40,51,968
46.76630,-0.08557,-0.11410,0.00000,0.03257,0.97649,-0.19093,0.0,2023,6,7,16,40,51,979
46.76640,0.07193,0.02590,0.00000,0.03148,0.97795,-0.18861,0.0,2023,6,7,16,40,51,990
46.76650,-0.06807,0.04340,0.00000,0.03221,0.97698,-0.19008,0.0,2023,6,7,16,40,51,2
46.76660,-0.06807,-0.02660,0.00000,0.03160,0.97795,-0.18995,0.0,2023,6,7,16,40,51,13
46.76670,0.14193,0.02590,0.00000,0.02977,0.97832,-0.18715,0.0,2023,6,7,16,40,51,24
46.76680,-0.12057,-0.18410,0.00000,0.03294,0.97759,-0.18825,0.0,2023,6,7,16,40,51,35
46.76690,0.00193,0.02590,0.00000,0.02977,0.97783,-0.18861,0.0,2023,6,7,16,40,51,47
46.76700,-0.15557,0.14840,0.00000,0.03172,0.97673,-0.18605,0.0,2023,6,7,16,40,51,58
46.76710,0.07193,0.07840,0.00000,0.02989,0.97478,-0.18812,0.0,2023,6,7,16,40,51,69
46.76720,0.00193,0.06090,0.00000,0.03172,0.97551,-0.19093,0.0,2023,6,7,16,40,51,80
46.76730,0.01943,0.04340,0.00000,0.02989,0.97539,-0.19191,0.0,2023,6,7,16,40,51,92
46.76740,0.12443,-0.04410,0.00000,0.02989,0.97454,-0.18825,0.0,2023,6,7,16,40,51,103
46.76750,0.17693,-0.07910,0.00000,0.03184,0.97588,-0.18800,0.0,2023,6,7,16,40,51,114
46.76760,0.03693,-0.25410,0.00000,0.03111,0.97600,-0.18654,0.0,2023,6,7,16,40,51,125
46.76770,0.05443,-0.09660,0.00000,0.03172,0.97393,-0.18995,0.0,2023,6,7,16,40,51,137
46.76780,-0.05057,-0.06160,0.00000,0.03001,0.97783,-0.18947,0.0,2023,6,7,16,40,51,148
46.76790,0.10693,0.00840,0.00000,0.03074,0.97844,-0.18898,0.0,2023,6,7,16,40,51,159
46.76800,-0.03307,0.09590,0.00000,0.03355,0.97734,-0.18703,0.0,2023,6,7,16,40,51,170
46.76810,-0.08557,-0.04410,0.00000,0.03184,0.97527,-0.18886,0.0,2023,6,7,16,40,51,182
46.76820,0.21193,-0.02660,0.00000,0.03001,0.97722,-0.18922,0.0,2023,6,7,16,40,51,193
46.76830,-0.03307,0.23590,0.00000,0.03111,0.97722,-0.18727,0.0,2023,6,7,16,40,51,204
46.76840,0.00193,0.04340,0.00000,0.03257,0.97612,-0.18666,0.0,2023,6,7,16,40,51,215
46.76850,-0.15557,0.00840,0.00000,0.03111,0.97722,-0.18886,0.0,2023,6,7,16,40,51,227
46.76860,0.14193,-0.06160,0.00000,0.03196,0.97576,-0.18959,0.0,2023,6,7,16,40,51,238
46.76870,-0.05057,0.18340,0.00000,0.03294,0.97344,-0.18812,0.0,2023,6,7,16,40,51,249
46.76880,0.05443,0.07840,0.00000,0.02952,0.97710,-0.19020,0.0,2023,6,7,16,40,51,260
46.76890,0.24693,-0.09660,0.00000,0.03111,0.97868,-0.18776,0.0,2023,6,7,16,40,51,272
46.76900,-0.13807,-0.09660,0.00000,0.03331,0.97576,-0.18983,0.0,2023,6,7,16,40,51,283
46.76910,0.01943,0.11340,0.00000,0.03294,0.97795,-0.18812,0.0,2023,6,7,16,40,51,294
46.76920,0.15943,-0.00910,0.00000,0.03111,0.97661,-0.18995,0.0,2023,6,7,16,40,51,305
46.76930,0.08943,-0.18410,0.00000,0.03135,0.97502,-0.18995,0.0,2023,6,7,16,40,51,317
46.76940,0.22943,0.16590,0.00000,0.03184,0.97771,-0.18995,0.0,2023,6,7,16,40,52,328
46.76950,-0.06807,0.09590,0.00000,0.03282,0.97734,-0.18898,0.0,2023,6,7,16,40,52,339
46.76960,0.17693,-0.06160,0.00000,0.03209,0.97844,-0.18837,0.0,2023,6,7,16,40,52,350
46.76970,-0.06807,-0.04410,0.00000,0.03282,0.97624,-0.18593,0.0,2023,6,7,16,40,52,362
46.76980,-0.05057,-0.06160,0.00000,0.03148,0.97441,-0.18788,0.0,2023,6,7,16,40,52,373
46.76990,-0.10307,-0.00910,0.00000,0.03343,0.97698,-0.18934,0.0,2023,6,7,16,40,52,384
46.77000,0.03693,0.11340,0.00000,0.03196,0.97698,-0.18934,0.0,2023,6,7,16,40,52,395
46.77010,-0.15557,-0.00910,0.00000,0.03184,0.97856,-0.18886,0.0,2023,6,7,16,40,52,407
46.77020,-0.06807,-0.13160,0.00000,0.03233,0.97588,-0.18825,0.0,2023,6,7,16,40,52,418
46.77030,-0.05057,-0.13160,0.00000,0.02989,0.97746,-0.19154,0.0,2023,6,7,16,40,52,429
46.77040,0.08943,-0.11410,0.00000,0.03257,0.97502,-0.18910,0.0,2023,6,7,16,40,52,440
46.77050,0.01943,0.13090,0.00000,0.02977,0.97405,-0.18922,0.0,2023,6,7,16,40,52,452
46.77060,-0.01557,-0.00910,0.00000,0.03331,0.97576,-0.19008,0.0,2023,6,7,16,40,52,463
46.77070,0.14193,0.00840,0.00000,0.03221,0.97759,-0.18898,0.0,2023,6,7,16,40,52,474
46.77080,0.05443,-0.18410,0.00000,0.02916,0.97612,-0.18861,0.0,2023,6,7,16,40,52,485
46.77090,0.14193,0.02590,0.00000,0.03099,0.97380,-0.18959,0.0,2023,6,7,16,40,52,497
46.77100,0.00193,-0.06160,0.00000,0.03087,0.97502,-0.19032,0.0,2023,6,7,16,40,52,508
46.77110,-0.03307,0.16590,0.00000,0.03111,0.97429,-0.19020,0.0,2023,6,7,16,40,52,519
46.77120,0.01943,-0.25410,0.00000,0.03148,0.97698,-0.19093,0.0,2023,6,7,16,40,52,530
46.77130,-0.24307,0.32340,0.00000,0.03074,0.97527,-0.18886,0.0,2023,6,7,16,40,52,542
46.77140,0.07193,0.16590,0.00000,0.03233,0.97844,-0.19117,0.0,2023,6,7,16,40,52,553
46.77150,-0.01557,0.11340,0.00000,0.03257,0.97441,-0.18666,0.0,2023,6,7,16,40,52,564
46.77160,0.05443,-0.00910,0.00000,0.03074,0.97783,-0.18995,0.0,2023,6,7,16,40,52,575
46.77170,0.15943,-0.04410,0.00000,0.03245,0.97807,-0.18788,0.0,2023,6,7,16,40,52,587
46.77180,-0.19057,-0.04410,0.00000,0.03184,0.97746,-0.18800,0.0,2023,6,7,16,40,52,598
46.77190,-0.05057,0.14840,0.00000,0.03038,0.97624,-0.18886,0.0,2023,6,7,16,40,52,609
46.77200,-0.15557,0.14840,0.00000,0.03172,0.97661,-0.18703,0.0,2023,6,7,16,40,52,620
46.77210,-0.03307,0.21840,0.00000,0.03221,0.97429,-0.18629,0.0,2023,6,7,16,40,52,632
46.77220,-0.06807,-0.06160,0.00000,0.03087,0.97649,-0.18922,0.0,2023,6,7,16,40,52,643
46.77230,0.17693,-0.13160,0.00000,0.03245,0.97722,-0.18873,0.0,2023,6,7,16,40,52,654
46.77240,-0.06807,-0.11410,0.00000,0.02916,0.97478,-0.18837,0.0,2023,6,7,16,40,52,665
46.77250,0.10693,-0.18410,0.00000,0.03099,0.97637,-0.18873,0.0,2023,6,7,16,40,52,677
46.77260,-0.10307,-0.14910,0.00000,0.03111,0.97515,-0.18873,0.0,2023,6,7,16,40,52,688
46.77270,0.03693,0.07840,0.00000,0.03184,0.97600,-0.19105,0.0,2023,6,7,16,40,52,699
46.77280,0.15943,-0.00910,0.00000,0.03123,0.97734,-0.18959,0.0,2023,6,7,16,40,52,710
46.77290,0.01943,-0.21910,0.00000,0.03148,0.97478,-0.18751,0.0,2023,6,7,16,40,52,722
46.77300,-0.10307,-0.06160,0.00000,0.03050,0.97746,-0.18861,0.0,2023,6,7,16,40,52,733
46.77310,-0.08557,-0.07910,0.00000,0.03184,0.97783,-0.18983,0.0,2023,6,7,16,40,52,744
46.77320,-0.01557,-0.09660,0.00000,0.03074,0.97576,-0.18666,0.0,2023,6,7,16,40,52,755
46.77330,0.22943,-0.18410,0.00000,0.03343,0.97576,-0.18983,0.0,2023,6,7,16,40,52,767
46.77340,-0.03307,-0.09660,0.00000,0.03001,0.97807,-0.19044,0.0,2023,6,7,16,40,52,778
46.77350,-0.06807,0.11340,0.00000,0.03196,0.97673,-0.18910,0.0,2023,6,7,16,40,52,789
46.77360,0.17693,-0.00910,0.00000,0.03453,0.97515,-0.19032,0.0,2023,6,7,16,40,52,800
46.77370,-0.13807,-0.11410,0.00000,0.03270,0.97722,-0.18751,0.0,2023,6,7,16,40,52,812
46.77380,-0.05057,-0.16660,0.00000,0.03038,0.97685,-0.18715,0.0,2023,6,7,16,40,52,823
46.77390,0.00193,-0.02660,0.00000,0.03026,0.97661,-0.19142,0.0,2023,6,7,16,40,52,834
46.77400,0.33443,-0.06160,0.00000,0.03135,0.97527,-0.18703,0.0,2023,6,7,16,40,52,845
46.77410,-0.06807,0.02590,0.00000,0.03404,0.97600,-0.18727,0.0,2023,6,7,16,40,52,857
46.77420,-0.19057,-0.00910,0.00000,0.03160,0.97685,-0.19081,0.0,2023,6,7,16,40,52,868
46.77430,-0.08557,0.07840,0.00000,0.03074,0.97673,-0.18983,0.0,2023,6,7,16,40,52,879
46.77440,0.00193,-0.06160,0.00000,0.03026,0.97588,-0.19105,0.0,2023,6,7,16,40,52,890
46.77450,-0.22557,-0.02660,0.00000,0.02989,0.97637,-0.18886,0.0,2023,6,7,16,40,52,902
46.77460,0.03693,-0.00910,0.00000,0.03282,0.97649,-0.18788,0.0,2023,6,7,16,40,52,913
46.77470,0.03693,-0.02660,0.00000,0.02855,0.97466,-0.19056,0.0,2023,6,7,16,40,52,924
46.77480,-0.06807,-0.00910,0.00000,0.03050,0.97929,-0.18959,0.0,2023,6,7,16,40,52,935
46.77490,0.14193,-0.04410,0.00000,0.03087,0.97454,-0.18751,0.0,2023,6,7,16,40,52,947
46.77500,-0.05057,-0.00910,0.00000,0.03184,0.97685,-0.18983,0.0,2023,6,7,16,40,52,958
46.77510,0.12443,-0.04410,0.00000,0.03160,0.97661,-0.18934,0.0,2023,6,7,16,40,52,969
46.77520,-0.03307,0.27090,0.00000,0.03331,0.97734,-0.18959,0.0,2023,6,7,16,40,52,980
46.77530,-0.03307,-0.06160,0.00000,0.03111,0.97490,-0.18849,0.0,2023,6,7,16,40,52,992
46.77540,0.17693,-0.20160,0.00000,0.03306,0.97698,-0.18934,0.0,2023,6,7,16,40,52,3
46.77550,-0.19057,0.07840,0.00000,0.03062,0.97624,-0.18886,0.0,2023,6,7,16,40,52,14
46.77560,-0.05057,0.20090,0.00000,0.03099,0.97393,-0.18947,0.0,2023,6,7,16,40,52,25
46.77570,0.05443,-0.06160,0.00000,0.03160,0.97783,-0.18788,0.0,2023,6,7,16,40,52,37
46.77580,-0.15557,-0.06160,0.00000,0.03209,0.97563,-0.18715,0.0,2023,6,7,16,40,52,48
46.77590,0.17693,-0.07910,0.00000,0.03001,0.97466,-0.19069,0.0,2023,6,7,16,40,52,59
46.77600,-0.06807,-0.00910,0.00000,0.03001,0.97441,-0.18776,0.0,2023,6,7,16,40,52,70
46.77610,0.07193,-0.09660,0.00000,0.02965,0.97685,-0.18666,0.0,2023,6,7,16,40,52,82
46.77620,-0.05057,0.07840,0.00000,0.03245,0.97490,-0.18751,0.0,2023,6,7,16,40,52,93
46.77630,0.03693,-0.02660,0.00000,0.03087,0.97454,-0.18849,0.0,2023,6,7,16,40,52,104
46.77640,0.03693,-0.07910,0.00000,0.03123,0.97722,-0.18568,0.0,2023,6,7,16,40,52,115
46.77650,0.10693,-0.02660,0.00000,0.03209,0.97710,-0.18947,0.0,2023,6,7,16,40,52,127
46.77660,-0.01557,0.04340,0.00000,0.03026,0.97539,-0.18568,0.0,2023,6,7,16,40,52,138
46.77670,-0.03307,-0.11410,0.00000,0.03026,0.97417,-0.19154,0.0,2023,6,7,16,40,52,149
46.77680,-0.06807,-0.13160,0.00000,0.03135,0.97661,-0.18678,0.0,2023,6,7,16,40,52,160
46.77690,0.01943,0.09590,0.00000,0.03294,0.97563,-0.18727,0.0,2023,6,7,16,40,52,172
46.77700,-0.22557,0.13090,0.00000,0.03367,0.97539,-0.18959,0.0,2023,6,7,16,40,52,183
46.77710,0.10693,0.00840,0.00000,0.03074,0.97515,-0.18934,0.0,2023,6,7,16,40,52,194
46.77720,0.01943,-0.06160,0.00000,0.03209,0.97685,-0.18678,0.0,2023,6,7,16,40,52,205
46.77730,-0.13807,-0.02660,0.00000,0.02977,0.97771,-0.18837,0.0,2023,6,7,16,40,52,217
46.77740,-0.08557,-0.07910,0.00000,0.03038,0.97588,-0.19044,0.0,2023,6,7,16,40,52,228
46.77750,0.03693,-0.11410,0.00000,0.03172,0.97527,-0.18837,0.0,2023,6,7,16,40,52,239
46.77760,0.01943,-0.11410,0.00000,0.03099,0.97527,-0.18690,0.0,2023,6,7,16,40,52,250
46.77770,0.21193,-0.02660,0.00000,0.03270,0.97905,-0.19069,0.0,2023,6,7,16,40,52,262
46.77780,-0.06807,-0.16660,0.00000,0.03306,0.97710,-0.19081,0.0,2023,6,7,16,40,52,273
46.77790,0.12443,0.09590,0.00000,0.03062,0.97673,-0.18959,0.0,2023,6,7,16,40,52,284
46.77800,0.05443,0.20090,0.00000,0.03209,0.97661,-0.18910,0.0,2023,6,7,16,40,52,295
46.77810,0.00193,0.14840,0.00000,0.03282,0.97539,-0.18922,0.0,2023,6,7,16,40,52,307
46.77820,0.08943,0.04340,0.00000,0.03026,0.97612,-0.18947,0.0,2023,6,7,16,40,52,318
46.77830,-0.06807,-0.07910,0.00000,0.03074,0.97563,-0.18800,0.0,2023,6,7,16,40,52,329
46.77840,0.05443,-0.14910,0.00000,0.03123,0.97832,-0.19264,0.0,2023,6,7,16,40,53,340
46.77850,0.10693,-0.02660,0.00000,0.03001,0.97698,-0.18898,0.0,2023,6,7,16,40,53,352
46.77860,-0.22557,0.00840,0.00000,0.03013,0.97661,-0.18873,0.0,2023,6,7,16,40,53,363
46.77870,0.01943,-0.07910,0.00000,0.03294,0.97795,-0.18898,0.0,2023,6,7,16,40,53,374
46.77880,0.10693,0.18340,0.00000,0.02952,0.97563,-0.18959,0.0,2023,6,7,16,40,53,385
46.77890,0.01943,0.13090,0.00000,0.03196,0.97515,-0.18764,0.0,2023,6,7,16,40,53,397
46.77900,-0.08557,-0.02660,0.00000,0.03123,0.97795,-0.18764,0.0,2023,6,7,16,40,53,408
46.77910,0.05443,0.00840,0.00000,0.03184,0.97515,-0.19105,0.0,2023,6,7,16,40,53,419
46.77920,-0.22557,-0.04410,0.00000,0.03148,0.97576,-0.18898,0.0,2023,6,7,16,40,53,430
46.77930,-0.13807,0.00840,0.00000,0.03245,0.97368,-0.18739,0.0,2023,6,7,16,40,53,442
46.77940,-0.06807,0.18340,0.00000,0.03184,0.97612,-0.18983,0.0,2023,6,7,16,40,53,453
46.77950,-0.10307,-0.07910,0.00000,0.03062,0.97722,-0.18934,0.0,2023,6,7,16,40,53,464
46.77960,0.00193,-0.25410,0.00000,0.03062,0.97673,-0.19020,0.0,2023,6,7,16,40,53,475
46.77970,0.12443,0.14840,0.00000,0.03111,0.97832,-0.18788,0.0,2023,6,7,16,40,53,487
46.77980,0.00193,0.21840,0.00000,0.03245,0.97539,-0.18886,0.0,2023,6,7,16,40,53,498
46.77990,0.03693,0.00840,0.00000,0.03087,0.97649,-0.19105,0.0,2023,6,7,16,40,53,509
46.78000,-0.01557,0.09590,0.00000,0.03282,0.97466,-0.18629,0.0,2023,6,7,16,40,53,520
46.78010,-0.05057,0.16590,0.00000,0.03050,0.97637,-0.18764,0.0,2023,6,7,16,40,53,532
46.78020,-0.01557,0.14840,0.00000,0.02916,0.97539,-0.18727,0.0,2023,6,7,16,40,53,543
46.78030,-0.19057,-0.16660,0.00000,0.03148,0.97454,-0.18776,0.0,2023,6,7,16,40,53,554
46.78040,0.03693,-0.13160,0.00000,0.03026,0.97502,-0.18837,0.0,2023,6,7,16,40,53,565
46.78050,0.14193,-0.11410,0.00000,0.03074,0.97734,-0.18800,0.0,2023,6,7,16,40,53,577
46.78060,0.05443,0.00840,0.00000,0.03062,0.97746,-0.18983,0.0,2023,6,7,16,40,53,588
46.78070,-0.06807,-0.25410,0.00000,0.02928,0.97515,-0.18886,0.0,2023,6,7,16,40,53,599
46.78080,-0.05057,0.21840,0.00000,0.03233,0.97454,-0.18849,0.0,2023,6,7,16,40,53,610
46.78090,-0.19057,0.09590,0.00000,0.02989,0.97612,-0.18898,0.0,2023,6,7,16,40,53,622
46.78100,0.12443,0.11340,0.00000,0.03135,0.97612,-0.19130,0.0,2023,6,7,16,40,53,633
46.78110,-0.05057,0.18340,0.00000,0.03026,0.97820,-0.18751,0.0,2023,6,7,16,40,53,644
46.78120,0.07193,0.02590,0.00000,0.03172,0.97710,-0.18959,0.0,2023,6,7,16,40,53,655
46.78130,0.07193,-0.02660,0.00000,0.03111,0.97661,-0.18934,0.0,2023,6,7,16,40,53,667
46.78140,-0.12057,0.02590,0.00000,0.03148,0.97612,-0.18800,0.0,2023,6,7,16,40,53,678
46.78150,-0.03307,0.09590,0.00000,0.03062,0.97685,-0.18873,0.0,2023,6,7,16,40,53,689
46.78160,0.10693,-0.27160,0.00000,0.03038,0.97795,-0.18971,0.0,2023,6,7,16,40,53,700
46.78170,0.05443,0.00840,0.00000,0.03001,0.97734,-0.18886,0.0,2023,6,7,16,40,53,712
46.78180,-0.06807,0.02590,0.00000,0.03087,0.97441,-0.18971,0.0,2023,6,7,16,40,53,723
46.78190,-0.08557,-0.04410,0.00000,0.03196,0.97673,-0.18776,0.0,2023,6,7,16,40,53,734
46.78200,0.14193,-0.04410,0.00000,0.03062,0.97771,-0.19203,0.0,2023,6,7,16,40,53,745
46.78210,0.00193,-0.13160,0.00000,0.03135,0.97624,-0.18910,0.0,2023,6,7,16,40,53,757
46.78220,-0.03307,-0.11410,0.00000,0.03123,0.97746,-0.18800,0.0,2023,6,7,16,40,53,768
46.78230,0.03693,0.20090,0.00000,0.03331,0.97637,-0.19008,0.0,2023,6,7,16,40,53,779
46.78240,0.03693,-0.11410,0.00000,0.03233,0.97502,-0.18983,0.0,2023,6,7,16,40,53,790
46.78250,0.01943,0.04340,0.00000,0.03233,0.97515,-0.18910,0.0,2023,6,7,16,40,53,802
46.78260,0.03693,0.13090,0.00000,0.03233,0.97551,-0.18825,0.0,2023,6,7,16,40,53,813
46.78270,-0.01557,-0.14910,0.00000,0.03294,0.97832,-0.19081,0.0,2023,6,7,16,40,53,824
46.78280,0.21193,-0.14910,0.00000,0.03099,0.97515,-0.18934,0.0,2023,6,7,16,40,53,835
46.78290,-0.03307,-0.11410,0.00000,0.03111,0.97527,-0.18825,0.0,2023,6,7,16,40,53,847
46.78300,0.07193,0.21840,0.00000,0.03038,0.97563,-0.18788,0.0,2023,6,7,16,40,53,858
46.78310,0.07193,-0.04410,0.00000,0.02891,0.97685,-0.18910,0.0,2023,6,7,16,40,53,869
46.78320,0.05443,-0.00910,0.00000,0.03123,0.97527,-0.18812,0.0,2023,6,7,16,40,53,880
46.78330,0.19443,-0.07910,0.00000,0.03135,0.97649,-0.18861,0.0,2023,6,7,16,40,53,892
46.78340,-0.03307,0.04340,0.00000,0.03343,0.97771,-0.19069,0.0,2023,6,7,16,40,53,903
46.78350,0.10693,-0.09660,0.00000,0.03062,0.97612,-0.18947,0.0,2023,6,7,16,40,53,914
46.78360,-0.19057,0.00840,0.00000,0.03282,0.97710,-0.19044,0.0,2023,6,7,16,40,53,925
46.78370,-0.01557,0.13090,0.00000,0.03026,0.97722,-0.19008,0.0,2023,6,7,16,40,53,937
46.78380,0.08943,0.06090,0.00000,0.03074,0.97649,-0.18983,0.0,2023,6,7,16,40,53,948
46.78390,0.10693,-0.00910,0.00000,0.03001,0.97600,-0.18654,0.0,2023,6,7,16,40,53,959
46.78400,0.19443,0.16590,0.00000,0.02989,0.97990,-0.18959,0.0,2023,6,7,16,40,53,970
46.78410,0.10693,-0.09660,0.00000,0.03123,0.97527,-0.18849,0.0,2023,6,7,16,40,53,982
46.78420,-0.03307,0.06090,0.00000,0.03099,0.97515,-0.18812,0.0,2023,6,7,16,40,53,993
46.78430,-0.17307,0.04340,0.00000,0.03135,0.97576,-0.18690,0.0,2023,6,7,16,40,53,4
46.78440,0.08943,0.20090,0.00000,0.03294,0.97795,-0.19166,0.0,2023,6,7,16,40,53,15
46.78450,0.01943,0.25340,0.00000,0.03160,0.97649,-0.18886,0.0,2023,6,7,16,40,53,27
46.78460,-0.03307,-0.09660,0.00000,0.03184,0.97612,-0.18825,0.0,2023,6,7,16,40,53,38
46.78470,-0.31307,0.09590,0.00000,0.03062,0.97868,-0.18898,0.0,2023,6,7,16,40,53,49
46.78480,0.14193,0.11340,0.00000,0.02916,0.97746,-0.19227,0.0,2023,6,7,16,40,53,60
46.78490,-0.06807,-0.11410,0.00000,0.03233,0.97490,-0.18642,0.0,2023,6,7,16,40,53,72
46.78500,0.00193,-0.23660,0.00000,0.03270,0.97832,-0.18764,0.0,2023,6,7,16,40,53,83
46.78510,0.12443,-0.06160,0.00000,0.02916,0.97515,-0.19215,0.0,2023,6,7,16,40,53,94
46.78520,-0.10307,0.07840,0.00000,0.03196,0.97795,-0.18861,0.0,2023,6,7,16,40,53,105
46.78530,-0.20807,0.18340,0.00000,0.03062,0.97502,-0.18739,0.0,2023,6,7,16,40,53,117
46.78540,0.14193,0.07840,0.00000,0.03343,0.97563,-0.18959,0.0,2023,6,7,16,40,53,128
46.78550,-0.10307,0.25340,0.00000,0.03184,0.97722,-0.18654,0.0,2023,6,7,16,40,53,139
46.78560,0.03693,-0.16660,0.00000,0.03038,0.97576,-0.18764,0.0,2023,6,7,16,40,53,150
46.78570,-0.03307,-0.04410,0.00000,0.03184,0.97466,-0.18690,0.0,2023,6,7,16,40,53,162
46.78580,0.03693,-0.09660,0.00000,0.03001,0.97612,-0.19008,0.0,2023,6,7,16,40,53,173
46.78590,0.01943,-0.04410,0.00000,0.03245,0.97490,-0.18873,0.0,2023,6,7,16,40,53,184
46.78600,0.01943,0.11340,0.00000,0.03099,0.97746,-0.18812,0.0,2023,6,7,16,40,53,195
46.78610,-0.17307,0.14840,0.00000,0.02989,0.97820,-0.18812,0.0,2023,6,7,16,40,53,207
46.78620,-0.03307,-0.13160,0.00000,0.03160,0.97576,-0.18739,0.0,2023,6,7,16,40,53,218
46.78630,0.24693,-0.04410,0.00000,0.03196,0.97637,-0.18837,0.0,2023,6,7,16,40,53,229
46.78640,-0.13807,0.13090,0.00000,0.03331,0.97710,-0.18788,0.0,2023,6,7,16,40,53,240
46.78650,0.05443,0.02590,0.00000,0.03282,0.97661,-0.19032,0.0,2023,6,7,16,40,53,252
46.78660,-0.05057,0.20090,0.00000,0.03245,0.97612,-0.18739,0.0,2023,6,7,16,40,53,263
46.78670,-0.06807,-0.00910,0.00000,0.03318,0.97710,-0.18886,0.0,2023,6,7,16,40,53,274
46.78680,-0.06807,-0.02660,0.00000,0.03111,0.97685,-0.18886,0.0,2023,6,7,16,40,53,285
46.78690,0.08943,0.02590,0.00000,0.03282,0.97673,-0.18922,0.0,2023,6,7,16,40,53,297
46.78700,-0.17307,0.09590,0.00000,0.03099,0.97734,-0.18837,0.0,2023,6,7,16,40,53,308
46.78710,-0.10307,-0.18410,0.00000,0.03196,0.97502,-0.18825,0.0,2023,6,7,16,40,53,319
46.78720,-0.06807,0.14840,0.00000,0.02965,0.97624,-0.18812,0.0,2023,6,7,16,40,53,330
46.78730,0.05443,0.02590,0.00000,0.03087,0.97673,-0.18825,0.0,2023,6,7,16,40,54,342
46.78740,0.03693,0.11340,0.00000,0.03160,0.97734,-0.18959,0.0,2023,6,7,16,40,54,353
46.78750,0.03693,-0.16660,0.00000,0.03099,0.97856,-0.18886,0.0,2023,6,7,16,40,54,364
46.78760,0.01943,-0.11410,0.00000,0.03123,0.97576,-0.18886,0.0,2023,6,7,16,40,54,375
46.78770,0.03693,0.02590,0.00000,0.03233,0.97661,-0.18983,0.0,2023,6,7,16,40,54,387
46.78780,-0.05057,0.00840,0.00000,0.03160,0.97490,-0.18825,0.0,2023,6,7,16,40,54,398
46.78790,-0.13807,0.20090,0.00000,0.03123,0.97295,-0.18764,0.0,2023,6,7,16,40,54,409
46.78800,0.15943,-0.06160,0.00000,0.03135,0.97685,-0.18666,0.0,2023,6,7,16,40,54,420
46.78810,-0.12057,0.11340,0.00000,0.03135,0.97929,-0.18739,0.0,2023,6,7,16,40,54,432
46.78820,-0.05057,0.07840,0.00000,0.02940,0.97600,-0.18861,0.0,2023,6,7,16,40,54,443
46.78830,-0.19057,0.28840,0.00000,0.03062,0.97661,-0.18751,0.0,2023,6,7,16,40,54,454
46.78840,-0.19057,-0.02660,0.00000,0.03087,0.97490,-0.18751,0.0,2023,6,7,16,40,54,465
46.78850,0.17693,-0.23660,0.00000,0.02977,0.97673,-0.18837,0.0,2023,6,7,16,40,54,477
46.78860,-0.06807,0.13090,0.00000,0.02977,0.97515,-0.18800,0.0,2023,6,7,16,40,54,488
46.78870,-0.26057,0.04340,0.00000,0.03050,0.97759,-0.19093,0.0,2023,6,7,16,40,54,499
46.78880,0.14193,-0.02660,0.00000,0.02928,0.97527,-0.18849,0.0,2023,6,7,16,40,54,510
46.78890,-0.13807,0.07840,0.00000,0.03160,0.97539,-0.18715,0.0,2023,6,7,16,40,54,522
46.78900,-0.12057,0.02590,0.00000,0.03184,0.97649,-0.18776,0.0,2023,6,7,16,40,54,533
46.78910,0.14193,0.02590,0.00000,0.03245,0.97698,-0.19056,0.0,2023,6,7,16,40,54,544
46.78920,0.17693,-0.09660,0.00000,0.03233,0.97441,-0.18934,0.0,2023,6,7,16,40,54,555
46.78930,-0.08557,0.18340,0.00000,0.03184,0.97600,-0.18934,0.0,2023,6,7,16,40,54,567
46.78940,-0.19057,0.00840,0.00000,0.02940,0.97807,-0.18873,0.0,2023,6,7,16,40,54,578
46.78950,0.14193,-0.16660,0.00000,0.03148,0.97417,-0.18812,0.0,2023,6,7,16,40,54,589
46.78960,-0.01557,-0.11410,0.00000,0.02965,0.97527,-0.18764,0.0,2023,6,7,16,40,54,600
46.78970,-0.08557,-0.13160,0.00000,0.03099,0.97563,-0.18703,0.0,2023,6,7,16,40,54,612
46.78980,0.03693,-0.07910,0.00000,0.03196,0.97539,-0.19020,0.0,2023,6,7,16,40,54,623
46.78990,-0.01557,-0.02660,0.00000,0.03209,0.97551,-0.18727,0.0,2023,6,7,16,40,54,634
46.79000,0.15943,0.11340,0.00000,0.02977,0.97795,-0.18971,0.0,2023,6,7,16,40,54,645
46.79010,-0.12057,0.25340,0.00000,0.03221,0.97795,-0.18800,0.0,2023,6,7,16,40,54,657
46.79020,0.03693,0.23590,0.00000,0.03111,0.97722,-0.18568,0.0,2023,6,7,16,40,54,668
46.79030,-0.06807,0.20090,0.00000,0.03221,0.97710,-0.18739,0.0,2023,6,7,16,40,54,679
46.79040,-0.12057,0.13090,0.00000,0.03087,0.97734,-0.19044,0.0,2023,6,7,16,40,54,690
46.79050,0.03693,0.07840,0.00000,0.03355,0.97649,-0.18812,0.0,2023,6,7,16,40,54,702
46.79060,-0.01557,0.14840,0.00000,0.03062,0.97600,-0.18703,0.0,2023,6,7,16,40,54,713
46.79070,0.07193,-0.23660,0.00000,0.03074,0.97698,-0.18910,0.0,2023,6,7,16,40,54,724
46.79080,0.17693,-0.11410,0.00000,0.03233,0.97673,-0.18678,0.0,2023,6,7,16,40,54,735
46.79090,-0.13807,0.04340,0.00000,0.03184,0.97393,-0.18898,0.0,2023,6,7,16,40,54,747
46.79100,0.05443,-0.04410,0.00000,0.03209,0.97673,-0.18886,0.0,2023,6,7,16,40,54,758
46.79110,0.08943,-0.16660,0.00000,0.03074,0.97661,-0.18739,0.0,2023,6,7,16,40,54,769
46.79120,-0.24307,0.21840,0.00000,0.03233,0.97917,-0.18910,0.0,2023,6,7,16,40,54,780
46.79130,0.01943,0.09590,0.00000,0.03074,0.97551,-0.18886,0.0,2023,6,7,16,40,54,792
46.79140,-0.06807,-0.20160,0.00000,0.03209,0.97685,-0.18690,0.0,2023,6,7,16,40,54,803
46.79150,-0.26057,-0.06160,0.00000,0.02940,0.97698,-0.18751,0.0,2023,6,7,16,40,54,814
46.79160,0.07193,-0.07910,0.00000,0.02904,0.97576,-0.19044,0.0,2023,6,7,16,40,54,825
46.79170,-0.06807,-0.02660,0.00000,0.03282,0.97637,-0.18837,0.0,2023,6,7,16,40,54,837
46.79180,0.10693,0.04340,0.00000,0.02904,0.97734,-0.18934,0.0,2023,6,7,16,40,54,848
46.79190,0.10693,-0.14910,0.00000,0.03013,0.97746,-0.18764,0.0,2023,6,7,16,40,54,859
46.79200,0.00193,-0.11410,0.00000,0.03148,0.97441,-0.18886,0.0,2023,6,7,16,40,54,870
46.79210,0.10693,0.04340,0.00000,0.03196,0.97685,-0.18788,0.0,2023,6,7,16,40,54,882
46.79220,0.07193,0.13090,0.00000,0.03233,0.97478,-0.18959,0.0,2023,6,7,16,40,54,893
46.79230,-0.19057,0.14840,0.00000,0.03123,0.97746,-0.18764,0.0,2023,6,7,16,40,54,904
46.79240,-0.05057,0.07840,0.00000,0.03233,0.97563,-0.18788,0.0,2023,6,7,16,40,54,915
46.79250,0.21193,-0.21910,0.00000,0.03135,0.97710,-0.18873,0.0,2023,6,7,16,40,54,927
46.79260,-0.06807,0.11340,0.00000,0.03013,0.97600,-0.18886,0.0,2023,6,7,16,40,54,938
46.79270,0.15943,0.13090,0.00000,0.03050,0.97332,-0.18934,0.0,2023,6,7,16,40,54,949
46.79280,0.17693,0.00840,0.00000,0.03257,0.97746,-0.18764,0.0,2023,6,7,16,40,54,960
46.79290,-0.12057,-0.25410,0.00000,0.03074,0.97563,-0.18886,0.0,2023,6,7,16,40,54,972
46.79300,-0.12057,0.13090,0.00000,0.03160,0.97783,-0.18995,0.0,2023,6,7,16,40,54,983
46.79310,-0.12057,0.02590,0.00000,0.03196,0.97685,-0.18886,0.0,2023,6,7,16,40,54,994
46.79320,0.00193,0.09590,0.00000,0.03135,0.97612,-0.18788,0.0,2023,6,7,16,40,54,5
46.79330,0.26443,0.16590,0.00000,0.03196,0.97478,-0.18861,0.0,2023,6,7,16,40,54,17
46.79340,-0.10307,0.00840,0.00000,0.03026,0.97820,-0.18764,0.0,2023,6,7,16,40,54,28
46.79350,0.12443,-0.13160,0.00000,0.03074,0.97710,-0.18922,0.0,2023,6,7,16,40,54,39
46.79360,-0.12057,0.02590,0.00000,0.02977,0.97710,-0.18886,0.0,2023,6,7,16,40,54,50
46.79370,-0.08557,-0.09660,0.00000,0.03196,0.97429,-0.18654,0.0,2023,6,7,16,40,54,62
46.79380,0.03693,-0.07910,0.00000,0.03001,0.97685,-0.19203,0.0,2023,6,7,16,40,54,73
46.79390,0.29943,-0.21910,0.00000,0.03172,0.97661,-0.19032,0.0,2023,6,7,16,40,54,84
46.79400,-0.13807,0.04340,0.00000,0.03172,0.97661,-0.18849,0.0,2023,6,7,16,40,54,95
46.79410,0.15943,-0.09660,0.00000,0.03099,0.97551,-0.18959,0.0,2023,6,7,16,40,54,107
46.79420,0.12443,-0.06160,0.00000,0.03099,0.97734,-0.18995,0.0,2023,6,7,16,40,54,118
46.79430,-0.06807,-0.06160,0.00000,0.03099,0.97588,-0.18678,0.0,2023,6,7,16,40,54,129
46.79440,0.00193,0.14840,0.00000,0.03013,0.97649,-0.19069,0.0,2023,6,7,16,40,54,140
46.79450,0.10693,-0.27160,0.00000,0.03233,0.97844,-0.18825,0.0,2023,6,7,16,40,54,152
46.79460,-0.05057,0.11340,0.00000,0.03294,0.97502,-0.19069,0.0,2023,6,7,16,40,54,163
46.79470,0.19443,0.20090,0.00000,0.03013,0.97673,-0.18812,0.0,2023,6,7,16,40,54,174
46.79480,-0.05057,0.11340,0.00000,0.03184,0.97856,-0.18873,0.0,2023,6,7,16,40,54,185
46.79490,0.08943,0.21840,0.00000,0.02989,0.97722,-0.19105,0.0,2023,6,7,16,40,54,197
46.79500,0.00193,0.00840,0.00000,0.03184,0.97429,-0.18959,0.0,2023,6,7,16,40,54,208
46.79510,-0.10307,0.18340,0.00000,0.03209,0.97746,-0.18666,0.0,2023,6,7,16,40,54,219
46.79520,0.14193,-0.02660,0.00000,0.03038,0.97832,-0.19166,0.0,2023,6,7,16,40,54,230
46.79530,-0.13807,0.09590,0.00000,0.02940,0.97380,-0.18971,0.0,2023,6,7,16,40,54,242
46.79540,0.10693,0.09590,0.00000,0.03318,0.97490,-0.18727,0.0,2023,6,7,16,40,54,253
46.79550,-0.03307,-0.14910,0.00000,0.03074,0.97576,-0.18947,0.0,2023,6,7,16,40,54,264
46.79560,0.01943,0.09590,0.00000,0.03123,0.97881,-0.19239,0.0,2023,6,7,16,40,54,275
46.79570,-0.01557,-0.07910,0.00000,0.03184,0.97588,-0.18898,0.0,2023,6,7,16,40,54,287
46.79580,0.00193,0.02590,0.00000,0.03196,0.97527,-0.18983,0.0,2023,6,7,16,40,54,298
46.79590,-0.06807,0.07840,0.00000,0.03123,0.97649,-0.19056,0.0,2023,6,7,16,40,54,309
46.79600,-0.06807,-0.00910,0.00000,0.03257,0.97454,-0.18715,0.0,2023,6,7,16,40,54,320
46.79610,-0.08557,0.02590,0.00000,0.02843,0.97661,-0.18715,0.0,2023,6,7,16,40,54,332
46.79620,-0.13807,0.00840,0.00000,0.03013,0.97637,-0.18983,0.0,2023,6,7,16,40,54,343
46.79630,0.03693,-0.02660,0.00000,0.02879,0.97478,-0.19069,0.0,2023,6,7,16,40,55,354
46.79640,0.14193,0.28840,0.00000,0.03099,0.97722,-0.18910,0.0,2023,6,7,16,40,55,365
46.79650,0.03693,-0.02660,0.00000,0.03184,0.97698,-0.18995,0.0,2023,6,7,16,40,55,377
46.79660,0.01943,-0.07910,0.00000,0.03148,0.97746,-0.19313,0.0,2023,6,7,16,40,55,388
46.79670,0.08943,0.07840,0.00000,0.03074,0.97673,-0.18959,0.0,2023,6,7,16,40,55,399
46.79680,-0.26057,0.04340,0.00000,0.03318,0.97612,-0.18837,0.0,2023,6,7,16,40,55,410
46.79690,0.01943,0.09590,0.00000,0.02965,0.97722,-0.19020,0.0,2023,6,7,16,40,55,422
46.79700,0.01943,-0.09660,0.00000,0.03062,0.97637,-0.18910,0.0,2023,6,7,16,40,55,433
46.79710,-0.13807,0.18340,0.00000,0.03013,0.97624,-0.18861,0.0,2023,6,7,16,40,55,444
46.79720,0.07193,-0.18410,0.00000,0.03196,0.97515,-0.18849,0.0,2023,6,7,16,40,55,455
46.79730,-0.17307,0.14840,0.00000,0.03087,0.97795,-0.18947,0.0,2023,6,7,16,40,55,467
46.79740,0.01943,0.02590,0.00000,0.03221,0.97722,-0.18764,0.0,2023,6,7,16,40,55,478
46.79750,0.00193,0.07840,0.00000,0.02806,0.97527,-0.18776,0.0,2023,6,7,16,40,55,489
46.79760,0.08943,0.11340,0.00000,0.03013,0.97771,-0.18947,0.0,2023,6,7,16,40,55,500
46.79770,0.00193,0.06090,0.00000,0.03087,0.97771,-0.18959,0.0,2023,6,7,16,40,55,512
46.79780,0.07193,-0.00910,0.00000,0.03196,0.97673,-0.18581,0.0,2023,6,7,16,40,55,523
46.79790,0.14193,-0.25410,0.00000,0.03087,0.97734,-0.18715,0.0,2023,6,7,16,40,55,534
46.79800,-0.15557,0.07840,0.00000,0.03172,0.97820,-0.18800,0.0,2023,6,7,16,40,55,545
46.79810,-0.03307,-0.07910,0.00000,0.03282,0.97539,-0.18812,0.0,2023,6,7,16,40,55,557
46.79820,-0.01557,-0.06160,0.00000,0.03099,0.97551,-0.18825,0.0,2023,6,7,16,40,55,568
46.79830,0.03693,0.28840,0.00000,0.03099,0.97600,-0.19032,0.0,2023,6,7,16,40,55,579
46.79840,0.22943,-0.14910,0.00000,0.03013,0.97661,-0.18898,0.0,2023,6,7,16,40,55,590
46.79850,-0.13807,0.02590,0.00000,0.03111,0.97551,-0.18886,0.0,2023,6,7,16,40,55,602
46.79860,0.03693,-0.07910,0.00000,0.02904,0.97710,-0.18788,0.0,2023,6,7,16,40,55,613
46.79870,-0.20807,0.02590,0.00000,0.03111,0.97515,-0.18910,0.0,2023,6,7,16,40,55,624
46.79880,-0.19057,-0.04410,0.00000,0.03123,0.97539,-0.18727,0.0,2023,6,7,16,40,55,635
46.79890,-0.03307,-0.04410,0.00000,0.03062,0.97563,-0.18715,0.0,2023,6,7,16,40,55,647
46.79900,0.01943,0.04340,0.00000,0.02965,0.97746,-0.18788,0.0,2023,6,7,16,40,55,658
46.79910,-0.05057,0.06090,0.00000,0.03306,0.97612,-0.18739,0.0,2023,6,7,16,40,55,669
46.79920,-0.03307,-0.09660,0.00000,0.02891,0.97734,-0.18800,0.0,2023,6,7,16,40,55,680
46.79930,0.05443,0.04340,0.00000,0.03184,0.97673,-0.18812,0.0,2023,6,7,16,40,55,692
46.79940,-0.08557,0.02590,0.00000,0.03196,0.97637,-0.18837,0.0,2023,6,7,16,40,55,703
46.79950,-0.05057,-0.02660,0.00000,0.03209,0.97624,-0.18715,0.0,2023,6,7,16,40,55,714
46.79960,0.05443,0.02590,0.00000,0.03160,0.97649,-0.18934,0.0,2023,6,7,16,40,55,725
46.79970,0.03693,0.11340,0.00000,0.03160,0.97649,-0.18751,0.0,2023,6,7,16,40,55,737
46.79980,-0.06807,0.21840,0.00000,0.03282,0.97661,-0.18715,0.0,2023,6,7,16,40,55,748
46.79990,-0.10307,-0.04410,0.00000,0.03172,0.97490,-0.18922,0.0,2023,6,7,16,40,55,759
46.80000,0.07193,-0.20160,0.00000,0.03050,0.97405,-0.18922,0.0,2023,6,7,16,40,55,770
46.80010,0.07193,-0.16660,0.00000,0.03282,0.97551,-0.18886,0.0,2023,6,7,16,40,55,782
46.80020,0.01943,0.04340,0.00000,0.03257,0.97527,-0.18593,0.0,2023,6,7,16,40,55,793
46.80030,0.10693,0.07840,0.00000,0.03013,0.97637,-0.18983,0.0,2023,6,7,16,40,55,804
46.80040,0.17693,-0.06160,0.00000,0.02891,0.97551,-0.18654,0.0,2023,6,7,16,40,55,815
46.80050,0.00193,-0.23660,0.00000,0.03184,0.97502,-0.18751,0.0,2023,6,7,16,40,55,827
46.80060,0.28193,-0.13160,0.00000,0.03160,0.97868,-0.19008,0.0,2023,6,7,16,40,55,838
46.80070,0.01943,-0.04410,0.00000,0.03160,0.97515,-0.18727,0.0,2023,6,7,16,40,55,849
46.80080,-0.03307,-0.00910,0.00000,0.03184,0.97698,-0.18739,0.0,2023,6,7,16,40,55,860
46.80090,0.15943,-0.11410,0.00000,0.02940,0.97746,-0.18922,0.0,2023,6,7,16,40,55,872
46.80100,0.08943,-0.00910,0.00000,0.02977,0.97563,-0.19056,0.0,2023,6,7,16,40,55,883
46.80110,-0.05057,-0.07910,0.00000,0.03038,0.97637,-0.18837,0.0,2023,6,7,16,40,55,894
46.80120,-0.01557,-0.00910,0.00000,0.03050,0.97649,-0.18703,0.0,2023,6,7,16,40,55,905
46.80130,0.24693,0.11340,0.00000,0.02940,0.97771,-0.19020,0.0,2023,6,7,16,40,55,917
46.80140,-0.06807,0.04340,0.00000,0.03343,0.97576,-0.18800,0.0,2023,6,7,16,40,55,928
46.80150,-0.08557,0.00840,0.00000,0.03148,0.97417,-0.18971,0.0,2023,6,7,16,40,55,939
46.80160,0.05443,0.09590,0.00000,0.03123,0.97917,-0.19081,0.0,2023,6,7,16,40,55,950
46.80170,-0.24307,0.06090,0.00000,0.03343,0.97283,-0.18544,0.0,2023,6,7,16,40,55,962
46.80180,0.05443,0.06090,0.00000,0.03148,0.97612,-0.18959,0.0,2023,6,7,16,40,55,973
46.80190,-0.03307,0.11340,0.00000,0.03148,0.97624,-0.18715,0.0,2023,6,7,16,40,55,984
46.80200,0.01943,-0.11410,0.00000,0.03221,0.97551,-0.18788,0.0,2023,6,7,16,40,55,995
46.80210,0.17693,-0.00910,0.00000,0.03074,0.97515,-0.18995,0.0,2023,6,7,16,40,55,7
46.80220,0.08943,-0.07910,0.00000,0.03148,0.97771,-0.18666,0.0,2023,6,7,16,40,55,18
46.80230,-0.08557,0.18340,0.00000,0.03074,0.97807,-0.19178,0.0,2023,6,7,16,40,55,29
46.80240,-0.08557,0.13090,0.00000,0.02965,0.97576,-0.18776,0.0,2023,6,7,16,40,55,40
46.80250,-0.01557,0.16590,0.00000,0.03111,0.97734,-0.18642,0.0,2023,6,7,16,40,55,52
46.80260,0.00193,-0.09660,0.00000,0.03123,0.97759,-0.18825,0.0,2023,6,7,16,40,55,63
46.80270,-0.10307,0.13090,0.00000,0.03050,0.97649,-0.18812,0.0,2023,6,7,16,40,55,74
46.80280,-0.03307,-0.16660,0.00000,0.02965,0.97576,-0.18629,0.0,2023,6,7,16,40,55,85
46.80290,0.03693,0.00840,0.00000,0.03026,0.97685,-0.19154,0.0,2023,6,7,16,40,55,97
46.80300,0.07193,0.09590,0.00000,0.03221,0.97795,-0.18812,0.0,2023,6,7,16,40,55,108
46.80310,0.00193,0.07840,0.00000,0.03099,0.97722,-0.18959,0.0,2023,6,7,16,40,55,119
46.80320,0.14193,0.07840,0.00000,0.03135,0.97661,-0.18800,0.0,2023,6,7,16,40,55,130
46.80330,0.19443,-0.14910,0.00000,0.02965,0.97637,-0.18959,0.0,2023,6,7,16,40,55,142
46.80340,0.08943,-0.00910,0.00000,0.02989,0.97746,-0.18690,0.0,2023,6,7,16,40,55,153
46.80350,-0.17307,0.04340,0.00000,0.03160,0.97539,-0.19105,0.0,2023,6,7,16,40,55,164
46.80360,0.12443,0.16590,0.00000,0.02928,0.97978,-0.18947,0.0,2023,6,7,16,40,55,175
46.80370,-0.19057,0.02590,0.00000,0.02867,0.97527,-0.18629,0.0,2023,6,7,16,40,55,187
46.80380,0.03693,-0.09660,0.00000,0.03257,0.97624,-0.19056,0.0,2023,6,7,16,40,55,198
46.80390,0.14193,0.11340,0.00000,0.03209,0.97710,-0.18947,0.0,2023,6,7,16,40,55,209
46.80400,0.01943,0.04340,0.00000,0.03038,0.97746,-0.18934,0.0,2023,6,7,16,40,55,220
46.80410,-0.01557,-0.27160,0.00000,0.03221,0.97649,-0.18886,0.0,2023,6,7,16,40,55,232
46.80420,-0.03307,-0.07910,0.00000,0.03233,0.97637,-0.18922,0.0,2023,6,7,16,40,55,243
46.80430,0.00193,-0.06160,0.00000,0.03074,0.97576,-0.19044,0.0,2023,6,7,16,40,55,254
46.80440,0.00193,0.16590,0.00000,0.03013,0.97649,-0.18922,0.0,2023,6,7,16,40,55,265
46.80450,-0.08557,-0.09660,0.00000,0.03038,0.97637,-0.18886,0.0,2023,6,7,16,40,55,277
46.80460,0.14193,0.18340,0.00000,0.02843,0.97612,-0.19093,0.0,2023,6,7,16,40,55,288
46.80470,-0.05057,-0.13160,0.00000,0.02989,0.97685,-0.18934,0.0,2023,6,7,16,40,55,299
46.80480,-0.08557,-0.00910,0.00000,0.03148,0.97771,-0.18520,0.0,2023,6,7,16,40,55,310
46.80490,0.00193,0.14840,0.00000,0.02940,0.97673,-0.19008,0.0,2023,6,7,16,40,55,322
46.80500,-0.12057,0.09590,0.00000,0.03087,0.97466,-0.19166,0.0,2023,6,7,16,40,55,333
46.80510,-0.13807,-0.07910,0.00000,0.02977,0.97722,-0.18971,0.0,2023,6,7,16,40,55,344
46.80520,-0.06807,0.09590,0.00000,0.03257,0.97759,-0.18947,0.0,2023,6,7,16,40,55,355
46.80530,-0.12057,-0.00910,0.00000,0.03135,0.97685,-0.18910,0.0,2023,6,7,16,40,56,367
46.80540,0.14193,-0.06160,0.00000,0.03184,0.97563,-0.18959,0.0,2023,6,7,16,40,56,378
46.80550,0.01943,-0.06160,0.00000,0.03099,0.97734,-0.18837,0.0,2023,6,7,16,40,56,389
46.80560,0.03693,-0.00910,0.00000,0.02940,0.97685,-0.18910,0.0,2023,6,7,16,40,56,400
46.80570,-0.01557,-0.04410,0.00000,0.03001,0.97783,-0.19178,0.0,2023,6,7,16,40,56,412
46.80580,-0.05057,-0.00910,0.00000,0.03245,0.97527,-0.18947,0.0,2023,6,7,16,40,56,423
46.80590,0.03693,-0.09660,0.00000,0.03221,0.97868,-0.18886,0.0,2023,6,7,16,40,56,434
46.80600,0.14193,-0.16660,0.00000,0.03233,0.97210,-0.19227,0.0,2023,6,7,16,40,56,445
46.80610,0.14193,0.13090,0.00000,0.02904,0.97380,-0.19130,0.0,2023,6,7,16,40,56,457
46.80620,-0.05057,0.00840,0.00000,0.03074,0.97649,-0.18837,0.0,2023,6,7,16,40,56,468
46.80630,-0.26057,-0.14910,0.00000,0.02965,0.97600,-0.19435,0.0,2023,6,7,16,40,56,479
46.80640,0.21193,0.02590,0.00000,0.03209,0.98003,-0.18812,0.0,2023,6,7,16,40,56,490
46.80650,-0.38307,-0.09660,0.00000,0.03233,0.97807,-0.18629,0.0,2023,6,7,16,40,56,502
46.80660,0.05443,-0.13160,0.00000,0.02977,0.97600,-0.19178,0.0,2023,6,7,16,40,56,513
46.80670,0.36943,0.14840,0.00000,0.03184,0.97478,-0.18825,0.0,2023,6,7,16,40,56,524
46.80680,-0.40057,0.00840,0.00000,0.03148,0.97600,-0.18581,0.0,2023,6,7,16,40,56,535
46.80690,-0.05057,-0.00910,0.00000,0.02916,0.97795,-0.19191,0.0,2023,6,7,16,40,56,547
46.80700,0.45693,-0.13160,0.00000,0.03318,0.97734,-0.18995,0.0,2023,6,7,16,40,56,558
46.80710,-0.24307,-0.11410,0.00000,0.03135,0.98015,-0.18898,0.0,2023,6,7,16,40,56,569
46.80720,0.15943,0.00840,0.00000,0.03172,0.97637,-0.19142,0.0,2023,6,7,16,40,56,580
46.80730,-0.01557,-0.11410,0.00000,0.03184,0.97539,-0.18825,0.0,2023,6,7,16,40,56,592
46.80740,-0.05057,0.07840,0.00000,0.03184,0.97490,-0.18886,0.0,2023,6,7,16,40,56,603
46.80750,0.24693,-0.00910,0.00000,0.03221,0.97795,-0.19093,0.0,2023,6,7,16,40,56,614
46.80760,-0.03307,0.00840,0.00000,0.03038,0.97759,-0.18886,0.0,2023,6,7,16,40,56,625
46.80770,0.08943,0.20090,0.00000,0.03233,0.97454,-0.19349,0.0,2023,6,7,16,40,56,637
46.80780,0.07193,-0.14910,0.00000,0.03087,0.97795,-0.19008,0.0,2023,6,7,16,40,56,648
46.80790,-0.17307,0.20090,0.00000,0.02977,0.97771,-0.18910,0.0,2023,6,7,16,40,56,659
46.80800,0.35193,-0.14910,0.00000,0.02989,0.97820,-0.19532,0.0,2023,6,7,16,40,56,670
46.80810,-0.10307,0.13090,0.00000,0.03148,0.97734,-0.18934,0.0,2023,6,7,16,40,56,682
46.80820,0.01943,-0.02660,0.00000,0.03209,0.97673,-0.18861,0.0,2023,6,7,16,40,56,693
46.80830,0.08943,-0.00910,0.00000,0.03233,0.97685,-0.18995,0.0,2023,6,7,16,40,56,704
46.80840,0.00193,-0.09660,0.00000,0.03074,0.97637,-0.18910,0.0,2023,6,7,16,40,56,715
46.80850,0.17693,-0.28910,0.00000,0.03172,0.97527,-0.18959,0.0,2023,6,7,16,40,56,727
46.80860,-0.01557,0.18340,0.00000,0.02952,0.97783,-0.18776,0.0,2023,6,7,16,40,56,738
46.80870,0.03693,0.02590,0.00000,0.03355,0.97612,-0.19105,0.0,2023,6,7,16,40,56,749
46.80880,0.17693,0.13090,0.00000,0.02867,0.97478,-0.19008,0.0,2023,6,7,16,40,56,760
46.80890,-0.06807,0.07840,0.00000,0.02916,0.97490,-0.19032,0.0,2023,6,7,16,40,56,772
46.80900,-0.10307,-0.04410,0.00000,0.02879,0.97624,-0.18849,0.0,2023,6,7,16,40,56,783
46.80910,0.03693,-0.02660,0.00000,0.03209,0.97502,-0.19154,0.0,2023,6,7,16,40,56,794
46.80920,-0.13807,0.23590,0.00000,0.03135,0.97551,-0.18922,0.0,2023,6,7,16,40,56,805
46.80930,0.03693,-0.02660,0.00000,0.03074,0.97576,-0.19044,0.0,2023,6,7,16,40,56,817
46.80940,0.10693,0.14840,0.00000,0.03184,0.97661,-0.19044,0.0,2023,6,7,16,40,56,828
46.80950,-0.08557,0.07840,0.00000,0.03184,0.97527,-0.18678,0.0,2023,6,7,16,40,56,839
46.80960,0.12443,0.04340,0.00000,0.02916,0.97820,-0.19056,0.0,2023,6,7,16,40,56,850
46.80970,-0.05057,0.04340,0.00000,0.03013,0.97722,-0.19069,0.0,2023,6,7,16,40,56,862
46.80980,0.00193,-0.00910,0.00000,0.03099,0.97759,-0.19044,0.0,2023,6,7,16,40,56,873
46.80990,-0.15557,0.07840,0.00000,0.03050,0.97502,-0.19191,0.0,2023,6,7,16,40,56,884
46.81000,0.05443,-0.07910,0.00000,0.02965,0.97685,-0.18776,0.0,2023,6,7,16,40,56,895
46.81010,-0.01557,-0.13160,0.00000,0.03013,0.97661,-0.19081,0.0,2023,6,7,16,40,56,907
46.81020,-0.01557,0.06090,0.00000,0.03038,0.97868,-0.19239,0.0,2023,6,7,16,40,56,918
46.81030,-0.03307,-0.02660,0.00000,0.02965,0.97612,-0.18947,0.0,2023,6,7,16,40,56,929
46.81040,0.12443,0.16590,0.00000,0.03282,0.97539,-0.19008,0.0,2023,6,7,16,40,56,940
46.81050,-0.15557,-0.00910,0.00000,0.03331,0.97807,-0.18995,0.0,2023,6,7,16,40,56,952
46.81060,-0.17307,-0.00910,0.00000,0.03074,0.97539,-0.18776,0.0,2023,6,7,16,40,56,963
46.81070,-0.15557,0.25340,0.00000,0.03001,0.97600,-0.19252,0.0,2023,6,7,16,40,56,974
46.81080,0.08943,0.13090,0.00000,0.02952,0.97563,-0.19008,0.0,2023,6,7,16,40,56,985
46.81090,-0.06807,-0.11410,0.00000,0.03233,0.97624,-0.18776,0.0,2023,6,7,16,40,56,997
46.81100,0.12443,0.11340,0.00000,0.02965,0.97649,-0.19130,0.0,2023,6,7,16,40,56,8
46.81110,0.14193,-0.07910,0.00000,0.03026,0.97515,-0.19288,0.0,2023,6,7,16,40,56,19
46.81120,0.19443,-0.14910,0.00000,0.03294,0.97551,-0.19142,0.0,2023,6,7,16,40,56,30
46.81130,-0.01557,-0.11410,0.00000,0.03038,0.97832,-0.18959,0.0,2023,6,7,16,40,56,42
46.81140,0.00193,0.14840,0.00000,0.03026,0.97673,-0.19252,0.0,2023,6,7,16,40,56,53
46.81150,0.08943,0.07840,0.00000,0.03233,0.97746,-0.18605,0.0,2023,6,7,16,40,56,64
46.81160,-0.08557,0.06090,0.00000,0.02989,0.97478,-0.18971,0.0,2023,6,7,16,40,56,75
46.81170,0.22943,-0.21910,0.00000,0.02891,0.97734,-0.19227,0.0,2023,6,7,16,40,56,87
46.81180,-0.05057,0.02590,0.00000,0.03038,0.97454,-0.19032,0.0,2023,6,7,16,40,56,98
46.81190,-0.05057,-0.09660,0.00000,0.03306,0.97771,-0.19117,0.0,2023,6,7,16,40,56,109
46.81200,0.12443,-0.07910,0.00000,0.03038,0.97661,-0.19130,0.0,2023,6,7,16,40,56,120
46.81210,0.12443,0.04340,0.00000,0.03221,0.97868,-0.19142,0.0,2023,6,7,16,40,56,132
46.81220,-0.01557,-0.14910,0.00000,0.03331,0.97600,-0.19032,0.0,2023,6,7,16,40,56,143
46.81230,-0.10307,0.09590,0.00000,0.03135,0.97710,-0.18751,0.0,2023,6,7,16,40,56,154
46.81240,-0.17307,0.16590,0.00000,0.03074,0.97417,-0.19117,0.0,2023,6,7,16,40,56,165
46.81250,0.19443,-0.00910,0.00000,0.03160,0.97661,-0.18922,0.0,2023,6,7,16,40,56,177
46.81260,-0.05057,0.09590,0.00000,0.03196,0.97588,-0.19166,0.0,2023,6,7,16,40,56,188
46.81270,0.01943,0.00840,0.00000,0.03404,0.97637,-0.19178,0.0,2023,6,7,16,40,56,199
46.81280,0.12443,0.04340,0.00000,0.03001,0.97600,-0.19203,0.0,2023,6,7,16,40,56,210
46.81290,0.03693,-0.07910,0.00000,0.02879,0.97673,-0.18739,0.0,2023,6,7,16,40,56,222
46.81300,0.12443,0.04340,0.00000,0.03099,0.97515,-0.19044,0.0,2023,6,7,16,40,56,233
46.81310,0.05443,-0.09660,0.00000,0.03355,0.97393,-0.18898,0.0,2023,6,7,16,40,56,244
46.81320,-0.08557,0.13090,0.00000,0.03221,0.97576,-0.18995,0.0,2023,6,7,16,40,56,255
46.81330,0.03693,-0.09660,0.00000,0.03160,0.97795,-0.19008,0.0,2023,6,7,16,40,56,267
46.81340,-0.01557,0.16590,0.00000,0.03172,0.97502,-0.18983,0.0,2023,6,7,16,40,56,278
46.81350,-0.01557,0.04340,0.00000,0.03013,0.97710,-0.18898,0.0,2023,6,7,16,40,56,289
46.81360,0.14193,-0.16660,0.00000,0.03026,0.97698,-0.18934,0.0,2023,6,7,16,40,56,300
46.81370,0.03693,0.18340,0.00000,0.02952,0.97478,-0.19203,0.0,2023,6,7,16,40,56,312
46.81380,-0.05057,0.09590,0.00000,0.03184,0.97478,-0.18934,0.0,2023,6,7,16,40,56,323
46.81390,0.10693,0.11340,0.00000,0.02989,0.97637,-0.18947,0.0,2023,6,7,16,40,56,334
46.81400,0.12443,-0.20160,0.00000,0.03233,0.97661,-0.19300,0.0,2023,6,7,16,40,56,345
46.81410,0.03693,0.16590,0.00000,0.03135,0.97612,-0.18690,0.0,2023,6,7,16,40,56,357
46.81420,0.08943,-0.02660,0.00000,0.03160,0.97820,-0.18922,0.0,2023,6,7,16,40,56,368
46.81430,0.01943,0.04340,0.00000,0.03160,0.97637,-0.19349,0.0,2023,6,7,16,40,57,379
46.81440,-0.05057,-0.04410,0.00000,0.03221,0.97637,-0.19008,0.0,2023,6,7,16,40,57,390
46.81450,0.07193,0.07840,0.00000,0.03196,0.97673,-0.19093,0.0,2023,6,7,16,40,57,402
46.81460,0.03693,0.06090,0.00000,0.03148,0.97502,-0.19056,0.0,2023,6,7,16,40,57,413
46.81470,0.17693,-0.02660,0.00000,0.03062,0.97795,-0.18910,0.0,2023,6,7,16,40,57,424
46.81480,-0.03307,-0.06160,0.00000,0.02867,0.97905,-0.19056,0.0,2023,6,7,16,40,57,435
46.81490,0.05443,-0.07910,0.00000,0.03135,0.97673,-0.19154,0.0,2023,6,7,16,40,57,447
46.81500,0.07193,0.14840,0.00000,0.02879,0.97624,-0.19081,0.0,2023,6,7,16,40,57,458
46.81510,0.05443,-0.02660,0.00000,0.03026,0.97832,-0.18971,0.0,2023,6,7,16,40,57,469
46.81520,0.03693,-0.23660,0.00000,0.03209,0.97588,-0.19032,0.0,2023,6,7,16,40,57,480
46.81530,0.15943,-0.09660,0.00000,0.03270,0.97661,-0.19044,0.0,2023,6,7,16,40,57,492
46.81540,0.07193,-0.11410,0.00000,0.03062,0.97917,-0.18873,0.0,2023,6,7,16,40,57,503
46.81550,-0.05057,-0.11410,0.00000,0.03209,0.97698,-0.19081,0.0,2023,6,7,16,40,57,514
46.81560,0.12443,0.02590,0.00000,0.03257,0.97649,-0.19032,0.0,2023,6,7,16,40,57,525
46.81570,-0.01557,-0.11410,0.00000,0.03026,0.97515,-0.19154,0.0,2023,6,7,16,40,57,537
46.81580,-0.05057,0.16590,0.00000,0.03331,0.97576,-0.18959,0.0,2023,6,7,16,40,57,548
46.81590,-0.05057,-0.28910,0.00000,0.03038,0.97832,-0.18934,0.0,2023,6,7,16,40,57,559
46.81600,0.03693,0.07840,0.00000,0.03148,0.97551,-0.18922,0.0,2023,6,7,16,40,57,570
46.81610,0.05443,0.07840,0.00000,0.03123,0.97478,-0.18776,0.0,2023,6,7,16,40,57,582
46.81620,-0.15557,0.04340,0.00000,0.03233,0.97588,-0.18934,0.0,2023,6,7,16,40,57,593
46.81630,-0.17307,-0.07910,0.00000,0.03245,0.97783,-0.19081,0.0,2023,6,7,16,40,57,604
46.81640,0.03693,-0.04410,0.00000,0.03233,0.97881,-0.18849,0.0,2023,6,7,16,40,57,615
46.81650,0.07193,-0.11410,0.00000,0.03038,0.97710,-0.18983,0.0,2023,6,7,16,40,57,627
46.81660,-0.03307,-0.28910,0.00000,0.02867,0.97502,-0.19142,0.0,2023,6,7,16,40,57,638
46.81670,0.52693,-0.09660,0.00000,0.03135,0.97649,-0.19361,0.0,2023,6,7,16,40,57,649
46.81680,-0.24307,0.06090,0.00000,0.03209,0.97661,-0.18995,0.0,2023,6,7,16,40,57,660
46.81690,0.01943,-0.06160,0.00000,0.02965,0.97502,-0.19410,0.0,2023,6,7,16,40,57,672
46.81700,0.26443,-0.11410,0.00000,0.02891,0.97795,-0.19227,0.0,2023,6,7,16,40,57,683
46.81710,-0.22557,0.13090,0.00000,0.03379,0.97685,-0.18751,0.0,2023,6,7,16,40,57,694
46.81720,0.19443,0.13090,0.00000,0.03160,0.97527,-0.19056,0.0,2023,6,7,16,40,57,705
46.81730,-0.08557,0.06090,0.00000,0.03257,0.97990,-0.19081,0.0,2023,6,7,16,40,57,717
46.81740,-0.24307,-0.04410,0.00000,0.03111,0.97234,-0.18739,0.0,2023,6,7,16,40,57,728
46.81750,0.29943,0.00840,0.00000,0.03087,0.97649,-0.19130,0.0,2023,6,7,16,40,57,739
46.81760,-0.08557,0.06090,0.00000,0.03148,0.97868,-0.18812,0.0,2023,6,7,16,40,57,750
46.81770,-0.13807,-0.06160,0.00000,0.03026,0.97698,-0.19093,0.0,2023,6,7,16,40,57,762
46.81780,0.28193,-0.13160,0.00000,0.03001,0.97551,-0.19252,0.0,2023,6,7,16,40,57,773
46.81790,-0.24307,-0.07910,0.00000,0.03001,0.97588,-0.18678,0.0,2023,6,7,16,40,57,784
46.81800,-0.17307,0.04340,0.00000,0.02989,0.97771,-0.19300,0.0,2023,6,7,16,40,57,795
46.81810,0.28193,-0.11410,0.00000,0.03099,0.97637,-0.19276,0.0,2023,6,7,16,40,57,807
46.81820,-0.22557,0.06090,0.00000,0.03233,0.97624,-0.19032,0.0,2023,6,7,16,40,57,818
46.81830,-0.01557,0.11340,0.00000,0.03099,0.97539,-0.19178,0.0,2023,6,7,16,40,57,829
46.81840,0.01943,-0.04410,0.00000,0.03074,0.97685,-0.19130,0.0,2023,6,7,16,40,57,840
46.81850,-0.20807,-0.04410,0.00000,0.02916,0.97490,-0.18983,0.0,2023,6,7,16,40,57,852
46.81860,-0.01557,0.02590,0.00000,0.03404,0.97563,-0.19056,0.0,2023,6,7,16,40,57,863
46.81870,0.07193,-0.02660,0.00000,0.03062,0.97722,-0.19032,0.0,2023,6,7,16,40,57,874
46.81880,-0.33057,-0.16660,0.00000,0.03087,0.97624,-0.18873,0.0,2023,6,7,16,40,57,885
46.81890,0.24693,0.09590,0.00000,0.03184,0.97490,-0.19069,0.0,2023,6,7,16,40,57,897
46.81900,0.05443,0.00840,0.00000,0.03038,0.97710,-0.19203,0.0,2023,6,7,16,40,57,908
46.81910,-0.01557,0.18340,0.00000,0.03135,0.97527,-0.18825,0.0,2023,6,7,16,40,57,919
46.81920,-0.17307,-0.09660,0.00000,0.03209,0.97771,-0.19191,0.0,2023,6,7,16,40,57,930
46.81930,-0.10307,0.11340,0.00000,0.03111,0.97832,-0.19154,0.0,2023,6,7,16,40,57,942
46.81940,-0.03307,-0.02660,0.00000,0.03306,0.97759,-0.19154,0.0,2023,6,7,16,40,57,953
46.81950,-0.03307,0.06090,0.00000,0.03184,0.97466,-0.18861,0.0,2023,6,7,16,40,57,964
46.81960,0.01943,0.00840,0.00000,0.03123,0.97856,-0.18959,0.0,2023,6,7,16,40,57,975
46.81970,-0.01557,0.02590,0.00000,0.02977,0.97685,-0.19288,0.0,2023,6,7,16,40,57,987
46.81980,-0.17307,0.00840,0.00000,0.02830,0.97515,-0.19191,0.0,2023,6,7,16,40,57,998
46.81990,0.03693,-0.23660,0.00000,0.03209,0.97624,-0.18959,0.0,2023,6,7,16,40,57,9
46.82000,-0.13807,-0.11410,0.00000,0.03050,0.97759,-0.19178,0.0,2023,6,7,16,40,57,20
46.82010,0.21193,-0.14910,0.00000,0.03050,0.97600,-0.19276,0.0,2023,6,7,16,40,57,32
46.82020,0.00193,0.13090,0.00000,0.03379,0.97563,-0.19191,0.0,2023,6,7,16,40,57,43
46.82030,-0.03307,-0.28910,0.00000,0.03148,0.97710,-0.19105,0.0,2023,6,7,16,40,57,54
46.82040,0.15943,-0.07910,0.00000,0.02928,0.98015,-0.19276,0.0,2023,6,7,16,40,57,65
46.82050,-0.10307,0.06090,0.00000,0.03196,0.97893,-0.19044,0.0,2023,6,7,16,40,57,77
46.82060,0.19443,-0.04410,0.00000,0.03087,0.97441,-0.19361,0.0,2023,6,7,16,40,57,88
46.82070,0.26443,0.06090,0.00000,0.02965,0.97527,-0.19117,0.0,2023,6,7,16,40,57,99
46.82080,-0.17307,0.04340,0.00000,0.03087,0.97929,-0.18947,0.0,2023,6,7,16,40,57,110
46.82090,0.42193,-0.16660,0.00000,0.02794,0.97771,-0.19544,0.0,2023,6,7,16,40,57,122
46.82100,-0.13807,-0.11410,0.00000,0.03172,0.97746,-0.18776,0.0,2023,6,7,16,40,57,133
46.82110,-0.20807,0.14840,0.00000,0.03257,0.97551,-0.19032,0.0,2023,6,7,16,40,57,144
46.82120,0.22943,-0.04410,0.00000,0.02977,0.97795,-0.19313,0.0,2023,6,7,16,40,57,155
46.82130,-0.10307,-0.13160,0.00000,0.03123,0.97380,-0.18556,0.0,2023,6,7,16,40,57,167
46.82140,-0.08557,-0.02660,0.00000,0.03123,0.97795,-0.19093,0.0,2023,6,7,16,40,57,178
46.82150,0.21193,0.11340,0.00000,0.03013,0.97710,-0.19374,0.0,2023,6,7,16,40,57,189
46.82160,0.24693,0.07840,0.00000,0.03184,0.97771,-0.19105,0.0,2023,6,7,16,40,57,200
46.82170,-0.36557,-0.02660,0.00000,0.03074,0.97405,-0.18812,0.0,2023,6,7,16,40,57,212
46.82180,0.08943,0.02590,0.00000,0.03221,0.97527,-0.19154,0.0,2023,6,7,16,40,57,223
46.82190,0.21193,-0.09660,0.00000,0.02965,0.97515,-0.19191,0.0,2023,6,7,16,40,57,234
46.82200,-0.24307,-0.30660,0.00000,0.03148,0.97673,-0.18861,0.0,2023,6,7,16,40,57,245
46.82210,0.17693,-0.25410,0.00000,0.03123,0.97649,-0.19130,0.0,2023,6,7,16,40,57,257
46.82220,0.28193,-0.09660,0.00000,0.03062,0.97576,-0.18910,0.0,2023,6,7,16,40,57,268
46.82230,-0.22557,-0.00910,0.00000,0.03001,0.97563,-0.19020,0.0,2023,6,7,16,40,57,279
46.82240,0.03693,-0.11410,0.00000,0.02928,0.97734,-0.18886,0.0,2023,6,7,16,40,57,290
46.82250,0.03693,0.02590,0.00000,0.03135,0.97734,-0.18922,0.0,2023,6,7,16,40,57,302
46.82260,0.03693,0.06090,0.00000,0.02952,0.97722,-0.18849,0.0,2023,6,7,16,40,57,313
46.82270,0.12443,-0.02660,0.00000,0.03074,0.97649,-0.19117,0.0,2023,6,7,16,40,57,324
46.82280,0.01943,-0.16660,0.00000,0.03099,0.97490,-0.18995,0.0,2023,6,7,16,40,57,335
46.82290,0.10693,-0.06160,0.00000,0.03209,0.97734,-0.19313,0.0,2023,6,7,16,40,57,347
46.82300,0.10693,-0.07910,0.00000,0.03196,0.97624,-0.18873,0.0,2023,6,7,16,40,57,358
46.82310,-0.19057,0.09590,0.00000,0.03257,0.97746,-0.18849,0.0,2023,6,7,16,40,57,369
46.82320,0.31693,-0.07910,0.00000,0.03184,0.97478,-0.18983,0.0,2023,6,7,16,40,57,380
46.82330,0.01943,0.09590,0.00000,0.03050,0.97527,-0.19105,0.0,2023,6,7,16,40,58,392
46.82340,-0.05057,-0.14910,0.00000,0.03087,0.97515,-0.18922,0.0,2023,6,7,16,40,58,403
46.82350,-0.05057,-0.14910,0.00000,0.03026,0.97685,-0.19203,0.0,2023,6,7,16,40,58,414
46.82360,0.00193,-0.21910,0.00000,0.03062,0.97588,-0.19020,0.0,2023,6,7,16,40,58,425
46.82370,-0.05057,0.13090,0.00000,0.03087,0.97405,-0.18849,0.0,2023,6,7,16,40,58,437
46.82380,-0.10307,0.06090,0.00000,0.03196,0.97820,-0.19374,0.0,2023,6,7,16,40,58,448
46.82390,-0.03307,0.21840,0.00000,0.02867,0.97478,-0.19117,0.0,2023,6,7,16,40,58,459
46.82400,-0.01557,0.04340,0.00000,0.03123,0.97466,-0.19117,0.0,2023,6,7,16,40,58,470
46.82410,-0.10307,-0.07910,0.00000,0.03160,0.97783,-0.18983,0.0,2023,6,7,16,40,58,482
46.82420,0.12443,-0.07910,0.00000,0.03209,0.97661,-0.19227,0.0,2023,6,7,16,40,58,493
46.82430,0.26443,-0.09660,0.00000,0.03026,0.96051,-0.18751,0.0,2023,6,7,16,40,58,504
46.82440,0.05443,0.13090,0.00000,0.03392,0.97990,-0.18617,0.0,2023,6,7,16,40,58,515
46.82450,-0.57557,0.14840,0.00000,0.03526,0.97698,-0.18373,0.0,2023,6,7,16,40,58,527
46.82460,0.64943,-0.06160,0.00000,0.03172,0.97576,-0.19557,0.0,2023,6,7,16,40,58,538
46.82470,0.01943,-0.04410,0.00000,0.03306,0.97746,-0.18178,0.0,2023,6,7,16,40,58,549
46.82480,-0.76807,-0.06160,0.00000,0.03489,0.97454,-0.18886,0.0,2023,6,7,16,40,58,560
46.82490,0.63193,-0.13160,0.00000,0.03013,0.97149,-0.19374,0.0,2023,6,7,16,40,58,572
46.82500,-0.01557,-0.06160,0.00000,0.03343,0.98015,-0.18434,0.0,2023,6,7,16,40,58,583
46.82510,-0.59307,0.14840,0.00000,0.03123,0.97307,-0.18788,0.0,2023,6,7,16,40,58,594
46.82520,0.82443,-0.21910,0.00000,0.03087,0.97685,-0.19581,0.0,2023,6,7,16,40,58,605
46.82530,-0.34807,-0.00910,0.00000,0.03270,0.97368,-0.18361,0.0,2023,6,7,16,40,58,617
46.82540,-0.19057,0.07840,0.00000,0.03196,0.97393,-0.19081,0.0,2023,6,7,16,40,58,628
46.82550,0.57943,-0.11410,0.00000,0.02940,0.97722,-0.19398,0.0,2023,6,7,16,40,58,639
46.82560,-0.41807,0.13090,0.00000,0.03306,0.97576,-0.19032,0.0,2023,6,7,16,40,58,650
46.82570,0.01943,0.06090,0.00000,0.03001,0.97539,-0.19313,0.0,2023,6,7,16,40,58,662
46.82580,0.19443,0.06090,0.00000,0.03062,0.97746,-0.18934,0.0,2023,6,7,16,40,58,673
46.82590,-0.36557,0.14840,0.00000,0.03221,0.97539,-0.19325,0.0,2023,6,7,16,40,58,684
46.82600,0.28193,0.09590,0.00000,0.03062,0.97600,-0.19166,0.0,2023,6,7,16,40,58,695
46.82610,0.05443,-0.00910,0.00000,0.03148,0.97515,-0.18556,0.0,2023,6,7,16,40,58,707
46.82620,-0.05057,0.07840,0.00000,0.03148,0.97588,-0.18739,0.0,2023,6,7,16,40,58,718
46.82630,0.03693,0.06090,0.00000,0.03135,0.97722,-0.18764,0.0,2023,6,7,16,40,58,729
46.82640,-0.15557,-0.16660,0.00000,0.03087,0.97722,-0.18971,0.0,2023,6,7,16,40,58,740
46.82650,-0.05057,0.07840,0.00000,0.02977,0.97551,-0.19166,0.0,2023,6,7,16,40,58,752
46.82660,0.08943,-0.04410,0.00000,0.02965,0.97710,-0.18922,0.0,2023,6,7,16,40,58,763
46.82670,-0.24307,0.32340,0.00000,0.03111,0.97405,-0.19008,0.0,2023,6,7,16,40,58,774
46.82680,0.33443,-0.14910,0.00000,0.02965,0.97820,-0.19252,0.0,2023,6,7,16,40,58,785
46.82690,-0.13807,-0.04410,0.00000,0.03221,0.97576,-0.18776,0.0,2023,6,7,16,40,58,797
46.82700,0.10693,-0.04410,0.00000,0.03282,0.97295,-0.19044,0.0,2023,6,7,16,40,58,808
46.82710,-0.06807,-0.02660,0.00000,0.03001,0.97527,-0.19056,0.0,2023,6,7,16,40,58,819
46.82720,-0.15557,0.02590,0.00000,0.03050,0.97807,-0.18776,0.0,2023,6,7,16,40,58,830
46.82730,0.17693,0.28840,0.00000,0.02989,0.97661,-0.19166,0.0,2023,6,7,16,40,58,842
46.82740,0.03693,-0.04410,0.00000,0.03209,0.97429,-0.18715,0.0,2023,6,7,16,40,58,853
46.82750,-0.36557,0.02590,0.00000,0.03416,0.97466,-0.19093,0.0,2023,6,7,16,40,58,864
46.82760,0.29943,-0.16660,0.00000,0.03257,0.97649,-0.19276,0.0,2023,6,7,16,40,58,875
46.82770,0.21193,-0.13160,0.00000,0.03062,0.97832,-0.18617,0.0,2023,6,7,16,40,58,887
46.82780,-0.13807,0.06090,0.00000,0.03172,0.97380,-0.18983,0.0,2023,6,7,16,40,58,898
46.82790,0.08943,0.14840,0.00000,0.03172,0.97393,-0.19191,0.0,2023,6,7,16,40,58,909
46.82800,-0.12057,0.07840,0.00000,0.03245,0.97637,-0.18617,0.0,2023,6,7,16,40,58,920
46.82810,0.03693,-0.07910,0.00000,0.03392,0.97698,-0.19105,0.0,2023,6,7,16,40,58,932
46.82820,0.14193,-0.09660,0.00000,0.03184,0.97563,-0.18861,0.0,2023,6,7,16,40,58,943
46.82830,-0.12057,0.00840,0.00000,0.03221,0.97478,-0.18727,0.0,2023,6,7,16,40,58,954
46.82840,0.05443,-0.23660,0.00000,0.03135,0.97551,-0.18800,0.0,2023,6,7,16,40,58,965
46.82850,-0.03307,-0.04410,0.00000,0.03196,0.97600,-0.18947,0.0,2023,6,7,16,40,58,977
46.82860,0.05443,-0.41160,0.00000,0.03087,0.97563,-0.18825,0.0,2023,6,7,16,40,58,988
46.82870,0.08943,-0.13160,0.00000,0.03294,0.97637,-0.18825,0.0,2023,6,7,16,40,58,999
46.82880,-0.01557,0.04340,0.00000,0.03148,0.97649,-0.18886,0.0,2023,6,7,16,40,58,10
46.82890,-0.03307,0.06090,0.00000,0.03221,0.97490,-0.18934,0.0,2023,6,7,16,40,58,22
46.82900,0.00193,-0.25410,0.00000,0.03379,0.97612,-0.18825,0.0,2023,6,7,16,40,58,33
46.82910,0.17693,0.00840,0.00000,0.03184,0.97588,-0.19300,0.0,2023,6,7,16,40,58,44
46.82920,0.19443,-0.07910,0.00000,0.03050,0.97502,-0.19191,0.0,2023,6,7,16,40,58,55
46.82930,0.01943,-0.09660,0.00000,0.03184,0.97624,-0.18910,0.0,2023,6,7,16,40,58,67
46.82940,0.08943,-0.09660,0.00000,0.03209,0.97698,-0.19130,0.0,2023,6,7,16,40,58,78
46.82950,0.29943,-0.11410,0.00000,0.02928,0.97637,-0.18861,0.0,2023,6,7,16,40,58,89
46.82960,-0.03307,-0.00910,0.00000,0.03245,0.97466,-0.18934,0.0,2023,6,7,16,40,58,100
46.82970,-0.13807,0.00840,0.00000,0.03111,0.97673,-0.19093,0.0,2023,6,7,16,40,58,112
46.82980,-0.01557,0.27090,0.00000,0.03038,0.97588,-0.19105,0.0,2023,6,7,16,40,58,123
46.82990,0.01943,-0.16660,0.00000,0.03160,0.97393,-0.18959,0.0,2023,6,7,16,40,58,134
46.83000,0.01943,-0.18410,0.00000,0.02977,0.97685,-0.19117,0.0,2023,6,7,16,40,58,145
46.83010,0.07193,0.16590,0.00000,0.03087,0.97722,-0.19093,0.0,2023,6,7,16,40,58,157
46.83020,-0.03307,-0.16660,0.00000,0.03062,0.97661,-0.19252,0.0,2023,6,7,16,40,58,168
46.83030,-0.01557,-0.07910,0.00000,0.03172,0.97807,-0.19032,0.0,2023,6,7,16,40,58,179
46.83040,-0.05057,-0.04410,0.00000,0.03367,0.97624,-0.18629,0.0,2023,6,7,16,40,58,190
46.83050,-0.05057,-0.02660,0.00000,0.03172,0.97795,-0.19056,0.0,2023,6,7,16,40,58,202
46.83060,-0.08557,-0.06160,0.00000,0.03050,0.97624,-0.19130,0.0,2023,6,7,16,40,58,213
46.83070,0.12443,0.09590,0.00000,0.03209,0.97600,-0.19093,0.0,2023,6,7,16,40,58,224
46.83080,0.07193,0.00840,0.00000,0.03099,0.97478,-0.18861,0.0,2023,6,7,16,40,58,235
46.83090,-0.13807,0.32340,0.00000,0.03196,0.97490,-0.18995,0.0,2023,6,7,16,40,58,247
46.83100,-0.13807,0.18340,0.00000,0.03074,0.97673,-0.18886,0.0,2023,6,7,16,40,58,258
46.83110,0.00193,0.09590,0.00000,0.02904,0.97685,-0.19008,0.0,2023,6,7,16,40,58,269
46.83120,-0.01557,-0.25410,0.00000,0.02989,0.97612,-0.18825,0.0,2023,6,7,16,40,58,280
46.83130,-0.03307,0.02590,0.00000,0.03148,0.97698,-0.18739,0.0,2023,6,7,16,40,58,292
46.83140,0.12443,0.16590,0.00000,0.03111,0.97710,-0.18873,0.0,2023,6,7,16,40,58,303
46.83150,-0.01557,-0.09660,0.00000,0.03392,0.97588,-0.19093,0.0,2023,6,7,16,40,58,314
46.83160,-0.03307,0.07840,0.00000,0.03099,0.97746,-0.19093,0.0,2023,6,7,16,40,58,325
46.83170,0.22943,0.00840,0.00000,0.03111,0.97466,-0.19044,0.0,2023,6,7,16,40,58,337
46.83180,0.00193,-0.14910,0.00000,0.03160,0.97527,-0.18995,0.0,2023,6,7,16,40,58,348
46.83190,0.08943,-0.18410,0.00000,0.03184,0.97612,-0.18886,0.0,2023,6,7,16,40,58,359
46.83200,0.01943,0.20090,0.00000,0.03001,0.97856,-0.19069,0.0,2023,6,7,16,40,58,370
46.83210,0.14193,0.04340,0.00000,0.03123,0.97612,-0.19117,0.0,2023,6,7,16,40,58,382
46.83220,0.07193,-0.02660,0.00000,0.03099,0.97527,-0.18825,0.0,2023,6,7,16,40,58,393
46.83230,-0.13807,0.06090,0.00000,0.03148,0.97600,-0.19008,0.0,2023,6,7,16,40,59,404
46.83240,0.22943,-0.06160,0.00000,0.02977,0.97502,-0.19081,0.0,2023,6,7,16,40,59,415
46.83250,-0.08557,0.06090,0.00000,0.03184,0.97649,-0.19044,0.0,2023,6,7,16,40,59,427
46.83260,0.19443,0.00840,0.00000,0.02977,0.97698,-0.18934,0.0,2023,6,7,16,40,59,438
46.83270,0.08943,-0.02660,0.00000,0.03111,0.97441,-0.19069,0.0,2023,6,7,16,40,59,449
46.83280,-0.06807,0.23590,0.00000,0.03026,0.97624,-0.18825,0.0,2023,6,7,16,40,59,460
46.83290,0.03693,0.16590,0.00000,0.02989,0.97832,-0.18898,0.0,2023,6,7,16,40,59,472
46.83300,-0.01557,0.06090,0.00000,0.03074,0.97661,-0.18825,0.0,2023,6,7,16,40,59,483
46.83310,0.01943,0.09590,0.00000,0.03282,0.97771,-0.18873,0.0,2023,6,7,16,40,59,494
46.83320,0.17693,-0.23660,0.00000,0.03099,0.97527,-0.18947,0.0,2023,6,7,16,40,59,505
46.83330,0.12443,-0.06160,0.00000,0.03148,0.97710,-0.18776,0.0,2023,6,7,16,40,59,517
46.83340,0.05443,-0.02660,0.00000,0.03099,0.97588,-0.18825,0.0,2023,6,7,16,40,59,528
46.83350,-0.03307,0.23590,0.00000,0.03233,0.97649,-0.18934,0.0,2023,6,7,16,40,59,539
46.83360,0.00193,-0.09660,0.00000,0.02782,0.97563,-0.18898,0.0,2023,6,7,16,40,59,550
46.83370,0.03693,0.11340,0.00000,0.03233,0.97661,-0.18666,0.0,2023,6,7,16,40,59,562
46.83380,-0.08557,0.00840,0.00000,0.03233,0.97551,-0.18812,0.0,2023,6,7,16,40,59,573
46.83390,-0.10307,0.18340,0.00000,0.03062,0.97844,-0.19020,0.0,2023,6,7,16,40,59,584
46.83400,0.05443,-0.13160,0.00000,0.03196,0.97624,-0.18873,0.0,2023,6,7,16,40,59,595
46.83410,-0.08557,-0.09660,0.00000,0.03489,0.97393,-0.18886,0.0,2023,6,7,16,40,59,607
46.83420,0.17693,0.04340,0.00000,0.03245,0.97441,-0.19093,0.0,2023,6,7,16,40,59,618
46.83430,0.01943,-0.04410,0.00000,0.03099,0.97710,-0.18873,0.0,2023,6,7,16,40,59,629
46.83440,-0.03307,-0.06160,0.00000,0.03087,0.97588,-0.18715,0.0,2023,6,7,16,40,59,640
46.83450,0.08943,0.07840,0.00000,0.03148,0.97685,-0.18971,0.0,2023,6,7,16,40,59,652
46.83460,-0.05057,0.06090,0.00000,0.03160,0.97454,-0.18788,0.0,2023,6,7,16,40,59,663
46.83470,0.08943,-0.06160,0.00000,0.03184,0.97502,-0.18800,0.0,2023,6,7,16,40,59,674
46.83480,-0.03307,0.21840,0.00000,0.02830,0.97783,-0.19032,0.0,2023,6,7,16,40,59,685
46.83490,-0.01557,-0.06160,0.00000,0.03245,0.97600,-0.18886,0.0,2023,6,7,16,40,59,697
46.83500,-0.17307,0.11340,0.00000,0.03160,0.97637,-0.19032,0.0,2023,6,7,16,40,59,708
46.83510,-0.05057,0.16590,0.00000,0.03233,0.97881,-0.19166,0.0,2023,6,7,16,40,59,719
46.83520,-0.05057,0.00840,0.00000,0.03209,0.97356,-0.18971,0.0,2023,6,7,16,40,59,730
46.83530,0.00193,-0.09660,0.00000,0.03221,0.97698,-0.18837,0.0,2023,6,7,16,40,59,742
46.83540,-0.10307,0.04340,0.00000,0.03013,0.97722,-0.18898,0.0,2023,6,7,16,40,59,753
46.83550,-0.15557,0.02590,0.00000,0.03099,0.97698,-0.19069,0.0,2023,6,7,16,40,59,764
46.83560,-0.13807,0.11340,0.00000,0.03050,0.97649,-0.18947,0.0,2023,6,7,16,40,59,775
46.83570,-0.01557,0.14840,0.00000,0.03209,0.97649,-0.18727,0.0,2023,6,7,16,40,59,787
46.83580,-0.03307,0.04340,0.00000,0.03123,0.97454,-0.19191,0.0,2023,6,7,16,40,59,798
46.83590,0.07193,0.02590,0.00000,0.03050,0.97685,-0.18642,0.0,2023,6,7,16,40,59,809
46.83600,-0.19057,-0.13160,0.00000,0.03038,0.97685,-0.18764,0.0,2023,6,7,16,40,59,820
46.83610,-0.13807,0.04340,0.00000,0.02916,0.97820,-0.18995,0.0,2023,6,7,16,40,59,832
46.83620,-0.01557,-0.07910,0.00000,0.03123,0.97868,-0.18861,0.0,2023,6,7,16,40,59,843
46.83630,-0.06807,-0.13160,0.00000,0.03196,0.97576,-0.18812,0.0,2023,6,7,16,40,59,854
46.83640,-0.10307,0.14840,0.00000,0.03013,0.97893,-0.18849,0.0,2023,6,7,16,40,59,865
46.83650,-0.05057,-0.11410,0.00000,0.03099,0.97820,-0.18629,0.0,2023,6,7,16,40,59,877
46.83660,-0.19057,-0.06160,0.00000,0.03172,0.97685,-0.18873,0.0,2023,6,7,16,40,59,888
46.83670,-0.08557,-0.09660,0.00000,0.02879,0.97490,-0.18812,0.0,2023,6,7,16,40,59,899
46.83680,0.01943,-0.11410,0.00000,0.03026,0.97771,-0.18666,0.0,2023,6,7,16,40,59,910
46.83690,-0.12057,0.35840,0.00000,0.03160,0.97649,-0.18947,0.0,2023,6,7,16,40,59,922
46.83700,-0.03307,-0.06160,0.00000,0.03270,0.97600,-0.18825,0.0,2023,6,7,16,40,59,933
46.83710,0.08943,-0.14910,0.00000,0.03013,0.97661,-0.18764,0.0,2023,6,7,16,40,59,944
46.83720,0.01943,-0.04410,0.00000,0.02843,0.97515,-0.18861,0.0,2023,6,7,16,40,59,955
46.83730,0.08943,0.27090,0.00000,0.03001,0.97612,-0.18654,0.0,2023,6,7,16,40,59,967
46.83740,-0.05057,0.00840,0.00000,0.03148,0.97600,-0.18556,0.0,2023,6,7,16,40,59,978
46.83750,0.03693,0.13090,0.00000,0.03135,0.97502,-0.18995,0.0,2023,6,7,16,40,59,989
46.83760,0.15943,-0.02660,0.00000,0.03135,0.97466,-0.18898,0.0,2023,6,7,16,40,59,0
46.83770,-0.15557,0.04340,0.00000,0.03209,0.97539,-0.18678,0.0,2023,6,7,16,40,59,12
46.83780,0.01943,0.00840,0.00000,0.03013,0.97795,-0.18947,0.0,2023,6,7,16,40,59,23
46.83790,0.22943,0.02590,0.00000,0.03306,0.97405,-0.18751,0.0,2023,6,7,16,40,59,34
46.83800,-0.03307,-0.07910,0.00000,0.03196,0.97551,-0.18642,0.0,2023,6,7,16,40,59,45
46.83810,0.10693,-0.00910,0.00000,0.03257,0.97722,-0.18947,0.0,2023,6,7,16,40,59,57
46.83820,-0.06807,-0.09660,0.00000,0.03184,0.97624,-0.18837,0.0,2023,6,7,16,40,59,68
46.83830,-0.12057,0.13090,0.00000,0.03245,0.97624,-0.18690,0.0,2023,6,7,16,40,59,79
46.83840,0.00193,-0.02660,0.00000,0.03233,0.97722,-0.18959,0.0,2023,6,7,16,40,59,90
46.83850,0.07193,0.00840,0.00000,0.03038,0.97563,-0.19105,0.0,2023,6,7,16,40,59,102
46.83860,-0.01557,-0.23660,0.00000,0.03196,0.97759,-0.18886,0.0,2023,6,7,16,40,59,113
46.83870,0.24693,-0.09660,0.00000,0.03099,0.97563,-0.18629,0.0,2023,6,7,16,40,59,124
46.83880,-0.03307,0.11340,0.00000,0.03294,0.97746,-0.18788,0.0,2023,6,7,16,40,59,135
46.83890,-0.10307,-0.06160,0.00000,0.03221,0.97527,-0.18751,0.0,2023,6,7,16,40,59,147
46.83900,0.07193,-0.04410,0.00000,0.03196,0.97685,-0.18873,0.0,2023,6,7,16,40,59,158
46.83910,-0.15557,0.04340,0.00000,0.03013,0.97685,-0.18971,0.0,2023,6,7,16,40,59,169
46.83920,-0.12057,-0.06160,0.00000,0.03013,0.97576,-0.18788,0.0,2023,6,7,16,40,59,180
46.83930,0.08943,-0.11410,0.00000,0.03160,0.97673,-0.18776,0.0,2023,6,7,16,40,59,192
46.83940,-0.06807,0.13090,0.00000,0.03062,0.97820,-0.19008,0.0,2023,6,7,16,40,59,203
46.83950,0.03693,-0.04410,0.00000,0.03013,0.97502,-0.18922,0.0,2023,6,7,16,40,59,214
46.83960,-0.26057,0.07840,0.00000,0.03172,0.97539,-0.18873,0.0,2023,6,7,16,40,59,225
46.83970,-0.10307,-0.06160,0.00000,0.02928,0.97612,-0.18739,0.0,2023,6,7,16,40,59,237
46.83980,0.12443,-0.06160,0.00000,0.02989,0.97624,-0.18971,0.0,2023,6,7,16,40,59,248
46.83990,-0.03307,0.18340,0.00000,0.03294,0.97844,-0.18971,0.0,2023,6,7,16,40,59,259
46.84000,-0.10307,-0.07910,0.00000,0.03148,0.97722,-0.19056,0.0,2023,6,7,16,40,59,270
46.84010,0.01943,0.06090,0.00000,0.02818,0.97746,-0.18983,0.0,2023,6,7,16,40,59,282
46.84020,-0.10307,0.00840,0.00000,0.03087,0.97942,-0.18776,0.0,2023,6,7,16,40,59,293
46.84030,-0.10307,0.00840,0.00000,0.03074,0.97673,-0.19056,0.0,2023,6,7,16,40,59,304
46.84040,0.05443,0.07840,0.00000,0.03074,0.97759,-0.18861,0.0,2023,6,7,16,40,59,315
46.84050,0.05443,0.02590,0.00000,0.03135,0.97551,-0.18727,0.0,2023,6,7,16,40,59,327
46.84060,0.03693,0.06090,0.00000,0.02977,0.97551,-0.18886,0.0,2023,6,7,16,40,59,338
46.84070,0.01943,0.16590,0.00000,0.03209,0.97637,-0.18861,0.0,2023,6,7,16,40,59,349
46.84080,-0.01557,-0.00910,0.00000,0.03245,0.97307,-0.18825,0.0,2023,6,7,16,40,59,360
46.84090,0.08943,-0.11410,0.00000,0.03209,0.97539,-0.18739,0.0,2023,6,7,16,40,59,372
46.84100,-0.08557,0.04340,0.00000,0.03135,0.97588,-0.18690,0.0,2023,6,7,16,40,59,383
46.84110,0.14193,-0.11410,0.00000,0.03148,0.97771,-0.18934,0.0,2023,6,7,16,40,59,394
46.84120,0.12443,0.13090,0.00000,0.03221,0.97576,-0.18581,0.0,2023,6,7,16,40,59,405
46.84130,0.08943,0.04340,0.00000,0.03184,0.97515,-0.18715,0.0,2023,6,7,16,41,0,417
46.84140,-0.10307,-0.02660,0.00000,0.03123,0.97722,-0.18898,0.0,2023,6,7,16,41,0,428
46.84150,0.01943,0.00840,0.00000,0.03331,0.97783,-0.18751,0.0,2023,6,7,16,41,0,439
46.84160,-0.05057,-0.07910,0.00000,0.02989,0.97612,-0.18593,0.0,2023,6,7,16,41,0,450
46.84170,0.05443,0.14840,0.00000,0.03135,0.97661,-0.19337,0.0,2023,6,7,16,41,0,462
46.84180,-0.12057,0.07840,0.00000,0.03013,0.97588,-0.18922,0.0,2023,6,7,16,41,0,473
46.84190,-0.10307,-0.06160,0.00000,0.03282,0.97685,-0.19191,0.0,2023,6,7,16,41,0,484
46.84200,0.15943,0.06090,0.00000,0.03148,0.97649,-0.18764,0.0,2023,6,7,16,41,0,495
46.84210,-0.10307,0.07840,0.00000,0.02977,0.97576,-0.18873,0.0,2023,6,7,16,41,0,507
46.84220,0.15943,-0.07910,0.00000,0.03245,0.97490,-0.19032,0.0,2023,6,7,16,41,0,518
46.84230,0.19443,-0.00910,0.00000,0.03343,0.97807,-0.19203,0.0,2023,6,7,16,41,0,529
46.84240,0.12443,0.07840,0.00000,0.03087,0.97637,-0.18983,0.0,2023,6,7,16,41,0,540
46.84250,-0.03307,-0.18410,0.00000,0.03148,0.97612,-0.18983,0.0,2023,6,7,16,41,0,552
46.84260,0.12443,-0.21910,0.00000,0.03148,0.97637,-0.19117,0.0,2023,6,7,16,41,0,563
46.84270,0.19443,0.06090,0.00000,0.03087,0.97990,-0.18727,0.0,2023,6,7,16,41,0,574
46.84280,-0.17307,0.11340,0.00000,0.03306,0.97539,-0.18861,0.0,2023,6,7,16,41,0,585
46.84290,0.17693,-0.09660,0.00000,0.03111,0.97942,-0.19105,0.0,2023,6,7,16,41,0,597
46.84300,-0.06807,-0.00910,0.00000,0.03135,0.97539,-0.19044,0.0,2023,6,7,16,41,0,608
46.84310,-0.05057,-0.02660,0.00000,0.03087,0.97588,-0.19056,0.0,2023,6,7,16,41,0,619
46.84320,0.07193,0.04340,0.00000,0.03123,0.97563,-0.19032,0.0,2023,6,7,16,41,0,630
46.84330,-0.08557,-0.00910,0.00000,0.03087,0.97502,-0.19178,0.0,2023,6,7,16,41,0,642
46.84340,0.17693,0.11340,0.00000,0.03233,0.97478,-0.18983,0.0,2023,6,7,16,41,0,653
46.84350,0.00193,-0.07910,0.00000,0.03001,0.97868,-0.18959,0.0,2023,6,7,16,41,0,664
46.84360,-0.24307,0.20090,0.00000,0.02904,0.97576,-0.18898,0.0,2023,6,7,16,41,0,675
46.84370,0.08943,-0.07910,0.00000,0.03184,0.97454,-0.18922,0.0,2023,6,7,16,41,0,687
46.84380,-0.19057,0.04340,0.00000,0.03111,0.97832,-0.18959,0.0,2023,6,7,16,41,0,698
46.84390,-0.01557,-0.04410,0.00000,0.03087,0.97832,-0.18910,0.0,2023,6,7,16,41,0,709
46.84400,-0.19057,-0.28910,0.00000,0.03221,0.97637,-0.18910,0.0,2023,6,7,16,41,0,720
46.84410,-0.03307,0.00840,0.00000,0.03074,0.97393,-0.18812,0.0,2023,6,7,16,41,0,732
46.84420,-0.01557,0.07840,0.00000,0.03160,0.97820,-0.18800,0.0,2023,6,7,16,41,0,743
46.84430,-0.12057,0.00840,0.00000,0.03123,0.97600,-0.18788,0.0,2023,6,7,16,41,0,754
46.84440,-0.01557,-0.13160,0.00000,0.03257,0.97551,-0.19020,0.0,2023,6,7,16,41,0,765
46.84450,0.12443,-0.18410,0.00000,0.03026,0.97649,-0.18837,0.0,2023,6,7,16,41,0,777
46.84460,-0.12057,0.21840,0.00000,0.03245,0.97441,-0.19008,0.0,2023,6,7,16,41,0,788
46.84470,0.10693,0.09590,0.00000,0.03404,0.97515,-0.18947,0.0,2023,6,7,16,41,0,799
46.84480,-0.06807,-0.13160,0.00000,0.03172,0.97380,-0.19008,0.0,2023,6,7,16,41,0,810
46.84490,0.22943,-0.11410,0.00000,0.02989,0.97539,-0.18886,0.0,2023,6,7,16,41,0,822
46.84500,-0.01557,-0.02660,0.00000,0.03013,0.97807,-0.18995,0.0,2023,6,7,16,41,0,833
46.84510,-0.17307,0.02590,0.00000,0.03160,0.97454,-0.18886,0.0,2023,6,7,16,41,0,844
46.84520,-0.13807,-0.04410,0.00000,0.03257,0.97490,-0.18995,0.0,2023,6,7,16,41,0,855
46.84530,-0.05057,0.14840,0.00000,0.02952,0.97551,-0.18922,0.0,2023,6,7,16,41,0,867
46.84540,0.07193,0.09590,0.00000,0.03123,0.97368,-0.19044,0.0,2023,6,7,16,41,0,878
46.84550,0.24693,-0.16660,0.00000,0.03221,0.97673,-0.18861,0.0,2023,6,7,16,41,0,889
46.84560,0.15943,-0.09660,0.00000,0.03074,0.97673,-0.19215,0.0,2023,6,7,16,41,0,900
46.84570,0.03693,-0.00910,0.00000,0.03245,0.97368,-0.19105,0.0,2023,6,7,16,41,0,912
46.84580,0.08943,0.02590,0.00000,0.03306,0.97258,-0.18922,0.0,2023,6,7,16,41,0,923
46.84590,-0.08557,0.21840,0.00000,0.03074,0.97710,-0.19142,0.0,2023,6,7,16,41,0,934
46.84600,0.17693,0.02590,0.00000,0.03001,0.97673,-0.19032,0.0,2023,6,7,16,41,0,945
46.84610,0.07193,-0.14910,0.00000,0.03184,0.97710,-0.18886,0.0,2023,6,7,16,41,0,957
46.84620,0.07193,0.06090,0.00000,0.03148,0.97551,-0.19130,0.0,2023,6,7,16,41,0,968
46.84630,0.24693,0.00840,0.00000,0.03184,0.97563,-0.18898,0.0,2023,6,7,16,41,0,979
46.84640,0.00193,0.02590,0.00000,0.03282,0.97612,-0.19032,0.0,2023,6,7,16,41,0,990
46.84650,0.00193,0.16590,0.00000,0.03050,0.97722,-0.18910,0.0,2023,6,7,16,41,0,2
46.84660,0.05443,-0.09660,0.00000,0.03343,0.97685,-0.18934,0.0,2023,6,7,16,41,0,13
46.84670,0.10693,-0.11410,0.00000,0.03074,0.97698,-0.18898,0.0,2023,6,7,16,41,0,24
46.84680,0.05443,0.20090,0.00000,0.03270,0.97820,-0.18922,0.0,2023,6,7,16,41,0,35
46.84690,0.17693,0.23590,0.00000,0.03196,0.97734,-0.18995,0.0,2023,6,7,16,41,0,47
46.84700,0.05443,0.04340,0.00000,0.03050,0.97673,-0.19105,0.0,2023,6,7,16,41,0,58
46.84710,-0.10307,-0.04410,0.00000,0.03123,0.97588,-0.18654,0.0,2023,6,7,16,41,0,69
46.84720,-0.01557,-0.00910,0.00000,0.03123,0.97881,-0.19081,0.0,2023,6,7,16,41,0,80
46.84730,-0.13807,0.11340,0.00000,0.03245,0.97637,-0.19203,0.0,2023,6,7,16,41,0,92
46.84740,0.00193,0.11340,0.00000,0.02891,0.97356,-0.19069,0.0,2023,6,7,16,41,0,103
46.84750,0.08943,0.02590,0.00000,0.03233,0.97283,-0.18812,0.0,2023,6,7,16,41,0,114
46.84760,0.10693,0.07840,0.00000,0.03013,0.97478,-0.19020,0.0,2023,6,7,16,41,0,125
46.84770,0.15943,-0.18410,0.00000,0.02891,0.97612,-0.19215,0.0,2023,6,7,16,41,0,137
46.84780,0.05443,0.14840,0.00000,0.03148,0.97685,-0.18703,0.0,2023,6,7,16,41,0,148
46.84790,0.00193,0.00840,0.00000,0.02891,0.97820,-0.18910,0.0,2023,6,7,16,41,0,159
46.84800,0.21193,-0.18410,0.00000,0.03050,0.97844,-0.19044,0.0,2023,6,7,16,41,0,170
46.84810,0.15943,0.30590,0.00000,0.02733,0.97673,-0.19130,0.0,2023,6,7,16,41,0,182
46.84820,-0.12057,-0.20160,0.00000,0.03184,0.97868,-0.19117,0.0,2023,6,7,16,41,0,193
46.84830,0.17693,0.09590,0.00000,0.02818,0.97759,-0.18995,0.0,2023,6,7,16,41,0,204
46.84840,0.03693,0.00840,0.00000,0.03294,0.97820,-0.19032,0.0,2023,6,7,16,41,0,215
46.84850,-0.05057,0.14840,0.00000,0.03160,0.97551,-0.18922,0.0,2023,6,7,16,41,0,227
46.84860,0.17693,-0.07910,0.00000,0.03184,0.97649,-0.18959,0.0,2023,6,7,16,41,0,238
46.84870,-0.06807,-0.06160,0.00000,0.03318,0.97783,-0.19203,0.0,2023,6,7,16,41,0,249
46.84880,0.00193,-0.06160,0.00000,0.03074,0.97807,-0.19130,0.0,2023,6,7,16,41,0,260
46.84890,0.03693,-0.06160,0.00000,0.03172,0.97612,-0.18861,0.0,2023,6,7,16,41,0,272
46.84900,-0.05057,-0.14910,0.00000,0.03087,0.97624,-0.18959,0.0,2023,6,7,16,41,0,283
46.84910,0.08943,-0.09660,0.00000,0.03123,0.97612,-0.18886,0.0,2023,6,7,16,41,0,294
46.84920,-0.05057,0.02590,0.00000,0.03123,0.97954,-0.18617,0.0,2023,6,7,16,41,0,305
46.84930,-0.19057,-0.06160,0.00000,0.03184,0.97539,-0.18751,0.0,2023,6,7,16,41,0,317
46.84940,0.05443,0.11340,0.00000,0.03013,0.97661,-0.19130,0.0,2023,6,7,16,41,0,328
46.84950,-0.05057,-0.07910,0.00000,0.02952,0.97600,-0.18788,0.0,2023,6,7,16,41,0,339
46.84960,-0.24307,0.02590,0.00000,0.03160,0.97380,-0.18922,0.0,2023,6,7,16,41,0,350
46.84970,0.05443,-0.20160,0.00000,0.03148,0.97466,-0.18873,0.0,2023,6,7,16,41,0,362
46.84980,0.12443,0.11340,0.00000,0.03026,0.97710,-0.18837,0.0,2023,6,7,16,41,0,373
46.84990,0.03693,-0.11410,0.00000,0.03038,0.97454,-0.18873,0.0,2023,6,7,16,41,0,384
46.85000,0.12443,0.20090,0.00000,0.03050,0.97698,-0.19020,0.0,2023,6,7,16,41,0,395
46.85010,-0.20807,-0.04410,0.00000,0.03282,0.97820,-0.18666,0.0,2023,6,7,16,41,0,407
46.85020,0.14193,0.16590,0.00000,0.03367,0.97563,-0.18666,0.0,2023,6,7,16,41,0,418
46.85030,0.22943,0.00840,0.00000,0.03245,0.97722,-0.18703,0.0,2023,6,7,16,41,1,429
46.85040,-0.13807,0.11340,0.00000,0.03184,0.97698,-0.18642,0.0,2023,6,7,16,41,1,440
46.85050,-0.01557,-0.09660,0.00000,0.02989,0.97661,-0.19154,0.0,2023,6,7,16,41,1,452
46.85060,-0.17307,0.06090,0.00000,0.03221,0.97563,-0.19032,0.0,2023,6,7,16,41,1,463
46.85070,-0.19057,0.25340,0.00000,0.03087,0.97466,-0.18873,0.0,2023,6,7,16,41,1,474
46.85080,0.07193,0.04340,0.00000,0.02989,0.97954,-0.19081,0.0,2023,6,7,16,41,1,485
46.85090,0.19443,0.00840,0.00000,0.02965,0.97685,-0.18812,0.0,2023,6,7,16,41,1,497
46.85100,-0.05057,0.13090,0.00000,0.03050,0.97466,-0.19081,0.0,2023,6,7,16,41,1,508
46.85110,0.08943,0.13090,0.00000,0.03160,0.97771,-0.18873,0.0,2023,6,7,16,41,1,519
46.85120,-0.06807,-0.02660,0.00000,0.03135,0.97588,-0.18959,0.0,2023,6,7,16,41,1,530
46.85130,-0.05057,0.14840,0.00000,0.03184,0.97380,-0.18849,0.0,2023,6,7,16,41,1,542
46.85140,0.24693,0.02590,0.00000,0.02989,0.97283,-0.19008,0.0,2023,6,7,16,41,1,553
46.85150,0.01943,0.07840,0.00000,0.03062,0.97783,-0.18825,0.0,2023,6,7,16,41,1,564
46.85160,0.05443,-0.09660,0.00000,0.03099,0.97710,-0.18764,0.0,2023,6,7,16,41,1,575
46.85170,0.15943,0.04340,0.00000,0.03148,0.97746,-0.18776,0.0,2023,6,7,16,41,1,587
46.85180,0.07193,-0.14910,0.00000,0.03148,0.97759,-0.18727,0.0,2023,6,7,16,41,1,598
46.85190,0.15943,-0.00910,0.00000,0.03172,0.97539,-0.18959,0.0,2023,6,7,16,41,1,609
46.85200,0.05443,-0.07910,0.00000,0.03245,0.97612,-0.19081,0.0,2023,6,7,16,41,1,620
46.85210,-0.05057,0.00840,0.00000,0.03099,0.97661,-0.19032,0.0,2023,6,7,16,41,1,632
46.85220,-0.08557,0.04340,0.00000,0.03148,0.97698,-0.18910,0.0,2023,6,7,16,41,1,643
46.85230,-0.05057,0.23590,0.00000,0.03282,0.97795,-0.19093,0.0,2023,6,7,16,41,1,654
46.85240,0.10693,-0.02660,0.00000,0.03099,0.97807,-0.19166,0.0,2023,6,7,16,41,1,665
46.85250,0.00193,-0.02660,0.00000,0.03221,0.97673,-0.18690,0.0,2023,6,7,16,41,1,677
46.85260,-0.13807,0.02590,0.00000,0.03148,0.97600,-0.18861,0.0,2023,6,7,16,41,1,688
46.85270,-0.03307,-0.16660,0.00000,0.03099,0.97563,-0.18910,0.0,2023,6,7,16,41,1,699
46.85280,0.15943,-0.14910,0.00000,0.03099,0.97649,-0.19056,0.0,2023,6,7,16,41,1,710
46.85290,-0.13807,0.07840,0.00000,0.03209,0.97393,-0.18898,0.0,2023,6,7,16,41,1,722
46.85300,-0.10307,0.20090,0.00000,0.03050,0.97844,-0.18898,0.0,2023,6,7,16,41,1,733
46.85310,-0.24307,0.16590,0.00000,0.03074,0.97502,-0.19313,0.0,2023,6,7,16,41,1,744
46.85320,-0.08557,-0.06160,0.00000,0.02989,0.97734,-0.18947,0.0,2023,6,7,16,41,1,755
46.85330,0.07193,0.14840,0.00000,0.03050,0.97600,-0.18837,0.0,2023,6,7,16,41,1,767
46.85340,-0.08557,0.00840,0.00000,0.03257,0.97759,-0.18910,0.0,2023,6,7,16,41,1,778
46.85350,0.03693,-0.07910,0.00000,0.03184,0.97832,-0.18678,0.0,2023,6,7,16,41,1,789
46.85360,-0.20807,0.14840,0.00000,0.03099,0.97661,-0.19117,0.0,2023,6,7,16,41,1,800
46.85370,0.14193,-0.13160,0.00000,0.03038,0.97612,-0.19117,0.0,2023,6,7,16,41,1,812
46.85380,-0.08557,0.04340,0.00000,0.03379,0.97576,-0.18922,0.0,2023,6,7,16,41,1,823
46.85390,-0.22557,-0.02660,0.00000,0.03233,0.97600,-0.18825,0.0,2023,6,7,16,41,1,834
46.85400,0.01943,0.21840,0.00000,0.02916,0.97539,-0.19044,0.0,2023,6,7,16,41,1,845
46.85410,0.01943,0.04340,0.00000,0.03123,0.97868,-0.19093,0.0,2023,6,7,16,41,1,857
46.85420,-0.06807,-0.07910,0.00000,0.03318,0.97844,-0.18898,0.0,2023,6,7,16,41,1,868
46.85430,-0.05057,-0.04410,0.00000,0.03026,0.97807,-0.18739,0.0,2023,6,7,16,41,1,879
46.85440,-0.06807,-0.11410,0.00000,0.03172,0.97576,-0.18934,0.0,2023,6,7,16,41,1,890
46.85450,0.07193,-0.00910,0.00000,0.03111,0.97380,-0.18825,0.0,2023,6,7,16,41,1,902
46.85460,-0.13807,0.02590,0.00000,0.02904,0.97527,-0.18971,0.0,2023,6,7,16,41,1,913
46.85470,0.03693,-0.23660,0.00000,0.02867,0.97612,-0.19044,0.0,2023,6,7,16,41,1,924
46.85480,0.28193,-0.20160,0.00000,0.03013,0.97734,-0.19227,0.0,2023,6,7,16,41,1,935
46.85490,-0.12057,0.02590,0.00000,0.03087,0.97795,-0.19081,0.0,2023,6,7,16,41,1,947
46.85500,0.15943,-0.18410,0.00000,0.03050,0.97685,-0.18947,0.0,2023,6,7,16,41,1,958
46.85510,0.00193,0.09590,0.00000,0.03221,0.97405,-0.18886,0.0,2023,6,7,16,41,1,969
46.85520,0.08943,-0.06160,0.00000,0.03172,0.97551,-0.19044,0.0,2023,6,7,16,41,1,980
46.85530,-0.13807,-0.13160,0.00000,0.02977,0.97771,-0.18800,0.0,2023,6,7,16,41,1,992
46.85540,-0.15557,0.18340,0.00000,0.02818,0.97673,-0.18800,0.0,2023,6,7,16,41,1,3
46.85550,0.03693,-0.09660,0.00000,0.03123,0.97563,-0.18922,0.0,2023,6,7,16,41,1,14
46.85560,0.07193,-0.02660,0.00000,0.02769,0.97783,-0.19008,0.0,2023,6,7,16,41,1,25
46.85570,-0.08557,-0.06160,0.00000,0.03038,0.97661,-0.19032,0.0,2023,6,7,16,41,1,37
46.85580,0.26443,-0.16660,0.00000,0.03001,0.97722,-0.19069,0.0,2023,6,7,16,41,1,48
46.85590,0.03693,-0.04410,0.00000,0.03099,0.97624,-0.18849,0.0,2023,6,7,16,41,1,59
46.85600,-0.05057,-0.09660,0.00000,0.03062,0.97588,-0.19008,0.0,2023,6,7,16,41,1,70
46.85610,0.14193,0.07840,0.00000,0.03123,0.97502,-0.18983,0.0,2023,6,7,16,41,1,82
46.85620,0.07193,-0.04410,0.00000,0.03074,0.97502,-0.18800,0.0,2023,6,7,16,41,1,93
46.85630,0.08943,-0.06160,0.00000,0.02989,0.97600,-0.18776,0.0,2023,6,7,16,41,1,104
46.85640,-0.03307,0.14840,0.00000,0.03111,0.97698,-0.18837,0.0,2023,6,7,16,41,1,115
46.85650,-0.01557,-0.20160,0.00000,0.03087,0.97539,-0.18825,0.0,2023,6,7,16,41,1,127
46.85660,0.17693,-0.11410,0.00000,0.03148,0.97441,-0.18776,0.0,2023,6,7,16,41,1,138
46.85670,-0.08557,-0.00910,0.00000,0.03111,0.97881,-0.18947,0.0,2023,6,7,16,41,1,149
46.85680,0.12443,0.06090,0.00000,0.03074,0.97661,-0.19008,0.0,2023,6,7,16,41,1,160
46.85690,0.00193,0.09590,0.00000,0.03245,0.97429,-0.18983,0.0,2023,6,7,16,41,1,172
46.85700,-0.05057,0.23590,0.00000,0.03233,0.97649,-0.18898,0.0,2023,6,7,16,41,1,183
46.85710,-0.10307,0.30590,0.00000,0.03221,0.97661,-0.18581,0.0,2023,6,7,16,41,1,194
46.85720,0.07193,-0.02660,0.00000,0.03245,0.97661,-0.18812,0.0,2023,6,7,16,41,1,205
46.85730,0.03693,-0.04410,0.00000,0.02733,0.97490,-0.19203,0.0,2023,6,7,16,41,1,217
46.85740,-0.17307,0.07840,0.00000,0.03196,0.97454,-0.18715,0.0,2023,6,7,16,41,1,228
46.85750,0.21193,0.04340,0.00000,0.03221,0.97551,-0.18983,0.0,2023,6,7,16,41,1,239
46.85760,-0.12057,0.04340,0.00000,0.03062,0.97649,-0.18764,0.0,2023,6,7,16,41,1,250
46.85770,-0.08557,0.11340,0.00000,0.03196,0.97551,-0.18983,0.0,2023,6,7,16,41,1,262
46.85780,0.24693,-0.14910,0.00000,0.02940,0.97673,-0.19154,0.0,2023,6,7,16,41,1,273
46.85790,0.12443,-0.02660,0.00000,0.03026,0.97429,-0.18666,0.0,2023,6,7,16,41,1,284
46.85800,-0.01557,-0.02660,0.00000,0.03172,0.97649,-0.18886,0.0,2023,6,7,16,41,1,295
46.85810,0.07193,0.09590,0.00000,0.03172,0.97600,-0.18922,0.0,2023,6,7,16,41,1,307
46.85820,-0.10307,0.00840,0.00000,0.03087,0.97820,-0.18983,0.0,2023,6,7,16,41,1,318
46.85830,-0.13807,-0.11410,0.00000,0.03209,0.97734,-0.18776,0.0,2023,6,7,16,41,1,329
46.85840,-0.06807,-0.25410,0.00000,0.03172,0.97734,-0.18727,0.0,2023,6,7,16,41,1,340
46.85850,-0.03307,0.06090,0.00000,0.03001,0.97685,-0.18995,0.0,2023,6,7,16,41,1,352
46.85860,0.07193,-0.14910,0.00000,0.03343,0.97600,-0.18886,0.0,2023,6,7,16,41,1,363
46.85870,-0.03307,0.30590,0.00000,0.03062,0.97515,-0.18873,0.0,2023,6,7,16,41,1,374
46.85880,0.07193,-0.06160,0.00000,0.03062,0.97576,-0.18849,0.0,2023,6,7,16,41,1,385
46.85890,-0.13807,-0.07910,0.00000,0.03013,0.97637,-0.18910,0.0,2023,6,7,16,41,1,397
46.85900,0.22943,0.06090,0.00000,0.03416,0.97563,-0.18959,0.0,2023,6,7,16,41,1,408
46.85910,0.01943,-0.04410,0.00000,0.03160,0.97734,-0.18593,0.0,2023,6,7,16,41,1,419
46.85920,0.01943,-0.09660,0.00000,0.03367,0.97649,-0.19044,0.0,2023,6,7,16,41,2,430
46.85930,-0.01557,0.00840,0.00000,0.03245,0.97563,-0.18922,0.0,2023,6,7,16,41,2,442
46.85940,-0.08557,-0.18410,0.00000,0.02879,0.97454,-0.19130,0.0,2023,6,7,16,41,2,453
46.85950,-0.40057,0.09590,0.00000,0.03318,0.97673,-0.18776,0.0,2023,6,7,16,41,2,464
46.85960,0.01943,-0.04410,0.00000,0.03196,0.97722,-0.18922,0.0,2023,6,7,16,41,2,475
46.85970,-0.12057,0.11340,0.00000,0.03038,0.97612,-0.19069,0.0,2023,6,7,16,41,2,487
46.85980,0.10693,-0.06160,0.00000,0.03282,0.97551,-0.19008,0.0,2023,6,7,16,41,2,498
46.85990,0.24693,-0.20160,0.00000,0.02916,0.97576,-0.19032,0.0,2023,6,7,16,41,2,509
46.86000,0.12443,0.07840,0.00000,0.03160,0.97661,-0.18678,0.0,2023,6,7,16,41,2,520
46.86010,0.03693,0.23590,0.00000,0.03026,0.97624,-0.18861,0.0,2023,6,7,16,41,2,532
46.86020,0.22943,0.14840,0.00000,0.03245,0.97710,-0.18910,0.0,2023,6,7,16,41,2,543
46.86030,0.14193,0.16590,0.00000,0.03245,0.97600,-0.18849,0.0,2023,6,7,16,41,2,554
46.86040,0.00193,-0.02660,0.00000,0.03087,0.97795,-0.18800,0.0,2023,6,7,16,41,2,565
46.86050,-0.05057,0.04340,0.00000,0.03062,0.97295,-0.18788,0.0,2023,6,7,16,41,2,577
46.86060,-0.15557,-0.09660,0.00000,0.03111,0.97746,-0.18873,0.0,2023,6,7,16,41,2,588
46.86070,0.15943,-0.00910,0.00000,0.03172,0.97612,-0.18898,0.0,2023,6,7,16,41,2,599
46.86080,0.19443,0.04340,0.00000,0.03013,0.97649,-0.19105,0.0,2023,6,7,16,41,2,610
46.86090,-0.06807,-0.02660,0.00000,0.03318,0.97515,-0.18788,0.0,2023,6,7,16,41,2,622
46.86100,-0.03307,-0.00910,0.00000,0.03160,0.97588,-0.18873,0.0,2023,6,7,16,41,2,633
46.86110,-0.19057,0.00840,0.00000,0.03099,0.97551,-0.18995,0.0,2023,6,7,16,41,2,644
46.86120,-0.08557,0.18340,0.00000,0.03062,0.97661,-0.19020,0.0,2023,6,7,16,41,2,655
46.86130,-0.08557,0.00840,0.00000,0.03196,0.97807,-0.18922,0.0,2023,6,7,16,41,2,667
46.86140,-0.03307,0.06090,0.00000,0.03135,0.97807,-0.18995,0.0,2023,6,7,16,41,2,678
46.86150,0.05443,-0.00910,0.00000,0.03111,0.97685,-0.18812,0.0,2023,6,7,16,41,2,689
46.86160,-0.15557,-0.06160,0.00000,0.03282,0.97527,-0.18983,0.0,2023,6,7,16,41,2,700
46.86170,0.14193,-0.16660,0.00000,0.03172,0.97600,-0.19044,0.0,2023,6,7,16,41,2,712
46.86180,0.10693,-0.09660,0.00000,0.03148,0.97612,-0.18776,0.0,2023,6,7,16,41,2,723
46.86190,-0.05057,-0.06160,0.00000,0.03123,0.97710,-0.18959,0.0,2023,6,7,16,41,2,734
46.86200,-0.01557,-0.21910,0.00000,0.03160,0.97600,-0.18690,0.0,2023,6,7,16,41,2,745
46.86210,-0.06807,-0.11410,0.00000,0.03184,0.97844,-0.18971,0.0,2023,6,7,16,41,2,757
46.86220,0.07193,0.13090,0.00000,0.03172,0.97344,-0.18959,0.0,2023,6,7,16,41,2,768
46.86230,-0.06807,0.32340,0.00000,0.02855,0.97393,-0.19020,0.0,2023,6,7,16,41,2,779
46.86240,-0.01557,0.11340,0.00000,0.02928,0.97783,-0.18837,0.0,2023,6,7,16,41,2,790
46.86250,0.03693,-0.00910,0.00000,0.03111,0.97429,-0.18788,0.0,2023,6,7,16,41,2,802
46.86260,0.05443,0.14840,0.00000,0.03233,0.97563,-0.18947,0.0,2023,6,7,16,41,2,813
46.86270,-0.17307,0.04340,0.00000,0.03148,0.97466,-0.19044,0.0,2023,6,7,16,41,2,824
46.86280,0.08943,-0.06160,0.00000,0.03148,0.97368,-0.18690,0.0,2023,6,7,16,41,2,835
46.86290,0.14193,-0.14910,0.00000,0.03026,0.97527,-0.18666,0.0,2023,6,7,16,41,2,847
46.86300,-0.10307,-0.06160,0.00000,0.03257,0.97527,-0.18922,0.0,2023,6,7,16,41,2,858
46.86310,0.05443,-0.06160,0.00000,0.03050,0.97588,-0.19117,0.0,2023,6,7,16,41,2,869
46.86320,0.03693,0.11340,0.00000,0.03099,0.97734,-0.18947,0.0,2023,6,7,16,41,2,880
46.86330,0.07193,-0.25410,0.00000,0.03209,0.97649,-0.18776,0.0,2023,6,7,16,41,2,892
46.86340,0.07193,-0.20160,0.00000,0.03172,0.97490,-0.18873,0.0,2023,6,7,16,41,2,903
46.86350,0.08943,0.07840,0.00000,0.03099,0.97820,-0.18629,0.0,2023,6,7,16,41,2,914
46.86360,0.05443,0.21840,0.00000,0.02989,0.97734,-0.18825,0.0,2023,6,7,16,41,2,925
46.86370,0.36943,-0.06160,0.00000,0.03062,0.97746,-0.18751,0.0,2023,6,7,16,41,2,937
46.86380,-0.22557,0.02590,0.00000,0.03331,0.97734,-0.18666,0.0,2023,6,7,16,41,2,948
46.86390,-0.12057,0.14840,0.00000,0.03026,0.97295,-0.18715,0.0,2023,6,7,16,41,2,959
46.86400,-0.17307,0.00840,0.00000,0.03099,0.97551,-0.18849,0.0,2023,6,7,16,41,2,970
46.86410,0.10693,0.09590,0.00000,0.03221,0.97673,-0.19069,0.0,2023,6,7,16,41,2,982
46.86420,-0.19057,0.14840,0.00000,0.03135,0.97844,-0.19276,0.0,2023,6,7,16,41,2,993
46.86430,0.08943,-0.02660,0.00000,0.03013,0.97905,-0.19117,0.0,2023,6,7,16,41,2,4
46.86440,-0.22557,0.13090,0.00000,0.03111,0.97856,-0.18959,0.0,2023,6,7,16,41,2,15
46.86450,0.21193,-0.16660,0.00000,0.03062,0.97576,-0.19264,0.0,2023,6,7,16,41,2,27
46.86460,-0.01557,0.04340,0.00000,0.03196,0.97820,-0.18886,0.0,2023,6,7,16,41,2,38
46.86470,0.14193,0.02590,0.00000,0.03172,0.97673,-0.18666,0.0,2023,6,7,16,41,2,49
46.86480,0.08943,-0.02660,0.00000,0.03282,0.97685,-0.18898,0.0,2023,6,7,16,41,2,60
46.86490,-0.13807,0.09590,0.00000,0.03270,0.97527,-0.18642,0.0,2023,6,7,16,41,2,72
46.86500,-0.05057,-0.02660,0.00000,0.03062,0.97771,-0.18703,0.0,2023,6,7,16,41,2,83
46.86510,0.07193,-0.04410,0.00000,0.03050,0.97710,-0.18776,0.0,2023,6,7,16,41,2,94
46.86520,0.12443,-0.16660,0.00000,0.03135,0.97661,-0.18910,0.0,2023,6,7,16,41,2,105
46.86530,-0.06807,0.04340,0.00000,0.03196,0.97393,-0.19166,0.0,2023,6,7,16,41,2,117
46.86540,-0.01557,-0.20160,0.00000,0.03038,0.97515,-0.18837,0.0,2023,6,7,16,41,2,128
46.86550,0.19443,0.09590,0.00000,0.03001,0.97807,-0.18910,0.0,2023,6,7,16,41,2,139
46.86560,-0.01557,0.00840,0.00000,0.03440,0.97478,-0.18861,0.0,2023,6,7,16,41,2,150
46.86570,-0.05057,-0.09660,0.00000,0.03184,0.97380,-0.18873,0.0,2023,6,7,16,41,2,162
46.86580,0.03693,0.02590,0.00000,0.03074,0.97563,-0.18947,0.0,2023,6,7,16,41,2,173
46.86590,0.01943,-0.07910,0.00000,0.03318,0.97820,-0.18751,0.0,2023,6,7,16,41,2,184
46.86600,0.08943,0.13090,0.00000,0.03477,0.97600,-0.19044,0.0,2023,6,7,16,41,2,195
46.86610,0.10693,-0.07910,0.00000,0.03196,0.97734,-0.18739,0.0,2023,6,7,16,41,2,207
46.86620,-0.12057,0.09590,0.00000,0.02977,0.97734,-0.18739,0.0,2023,6,7,16,41,2,218
46.86630,0.10693,0.20090,0.00000,0.03172,0.97698,-0.18898,0.0,2023,6,7,16,41,2,229
46.86640,-0.12057,-0.06160,0.00000,0.03294,0.97698,-0.18861,0.0,2023,6,7,16,41,2,240
46.86650,0.03693,-0.11410,0.00000,0.03245,0.97600,-0.18812,0.0,2023,6,7,16,41,2,252
46.86660,0.05443,-0.06160,0.00000,0.03074,0.97515,-0.18727,0.0,2023,6,7,16,41,2,263
46.86670,-0.06807,0.02590,0.00000,0.03062,0.97795,-0.18556,0.0,2023,6,7,16,41,2,274
46.86680,0.05443,-0.06160,0.00000,0.03062,0.97563,-0.18959,0.0,2023,6,7,16,41,2,285
46.86690,0.00193,0.13090,0.00000,0.03172,0.97734,-0.18605,0.0,2023,6,7,16,41,2,297
46.86700,0.03693,0.02590,0.00000,0.03111,0.97661,-0.18873,0.0,2023,6,7,16,41,2,308
46.86710,-0.08557,-0.07910,0.00000,0.03148,0.97527,-0.18825,0.0,2023,6,7,16,41,2,319
46.86720,-0.05057,-0.02660,0.00000,0.03038,0.97527,-0.18776,0.0,2023,6,7,16,41,2,330
46.86730,-0.06807,-0.02660,0.00000,0.03099,0.97685,-0.18703,0.0,2023,6,7,16,41,2,342
46.86740,-0.08557,-0.20160,0.00000,0.03257,0.97856,-0.18703,0.0,2023,6,7,16,41,2,353
46.86750,-0.12057,-0.07910,0.00000,0.03306,0.97637,-0.18934,0.0,2023,6,7,16,41,2,364
46.86760,0.00193,-0.11410,0.00000,0.03038,0.97673,-0.18886,0.0,2023,6,7,16,41,2,375
46.86770,0.03693,0.02590,0.00000,0.02989,0.97624,-0.18947,0.0,2023,6,7,16,41,2,387
46.86780,0.01943,-0.07910,0.00000,0.03196,0.97710,-0.18654,0.0,2023,6,7,16,41,2,398
46.86790,0.07193,-0.07910,0.00000,0.02989,0.97710,-0.18861,0.0,2023,6,7,16,41,2,409
46.86800,-0.08557,0.02590,0.00000,0.03343,0.97637,-0.18532,0.0,2023,6,7,16,41,2,420
46.86810,0.00193,-0.11410,0.00000,0.03038,0.97734,-0.18703,0.0,2023,6,7,16,41,2,432
46.86820,-0.10307,0.07840,0.00000,0.03172,0.97844,-0.19154,0.0,2023,6,7,16,41,3,443
46.86830,0.15943,0.06090,0.00000,0.03074,0.97722,-0.18812,0.0,2023,6,7,16,41,3,454
46.86840,-0.01557,0.02590,0.00000,0.03038,0.97332,-0.19008,0.0,2023,6,7,16,41,3,465
46.86850,0.03693,0.09590,0.00000,0.03184,0.97612,-0.18910,0.0,2023,6,7,16,41,3,477
46.86860,-0.08557,0.18340,0.00000,0.03331,0.97624,-0.18861,0.0,2023,6,7,16,41,3,488
46.86870,-0.06807,0.04340,0.00000,0.03160,0.97820,-0.18715,0.0,2023,6,7,16,41,3,499
46.86880,0.08943,-0.06160,0.00000,0.03245,0.97722,-0.18751,0.0,2023,6,7,16,41,3,510
46.86890,0.00193,0.02590,0.00000,0.03148,0.97539,-0.18825,0.0,2023,6,7,16,41,3,522
46.86900,-0.20807,0.14840,0.00000,0.03135,0.97490,-0.18910,0.0,2023,6,7,16,41,3,533
46.86910,0.12443,-0.00910,0.00000,0.03123,0.97527,-0.19069,0.0,2023,6,7,16,41,3,544
46.86920,0.05443,0.00840,0.00000,0.03196,0.97844,-0.18886,0.0,2023,6,7,16,41,3,555
46.86930,-0.15557,-0.06160,0.00000,0.03184,0.97649,-0.18910,0.0,2023,6,7,16,41,3,567
46.86940,0.15943,-0.09660,0.00000,0.03099,0.97649,-0.18983,0.0,2023,6,7,16,41,3,578
46.86950,-0.17307,0.06090,0.00000,0.03221,0.97734,-0.18739,0.0,2023,6,7,16,41,3,589
46.86960,-0.12057,-0.06160,0.00000,0.02989,0.97612,-0.18898,0.0,2023,6,7,16,41,3,600
46.86970,0.07193,-0.02660,0.00000,0.03221,0.97893,-0.18886,0.0,2023,6,7,16,41,3,612
46.86980,-0.06807,-0.06160,0.00000,0.03062,0.97771,-0.18800,0.0,2023,6,7,16,41,3,623
46.86990,0.12443,-0.00910,0.00000,0.03221,0.97600,-0.18678,0.0,2023,6,7,16,41,3,634
46.87000,0.12443,-0.16660,0.00000,0.03050,0.97502,-0.18764,0.0,2023,6,7,16,41,3,645
46.87010,0.00193,-0.02660,0.00000,0.03196,0.97295,-0.19008,0.0,2023,6,7,16,41,3,657
46.87020,0.24693,0.02590,0.00000,0.03160,0.97685,-0.18959,0.0,2023,6,7,16,41,3,668
46.87030,-0.08557,0.27090,0.00000,0.03123,0.97759,-0.18837,0.0,2023,6,7,16,41,3,679
46.87040,0.05443,0.07840,0.00000,0.03062,0.97783,-0.18959,0.0,2023,6,7,16,41,3,690
46.87050,0.10693,0.00840,0.00000,0.03245,0.97795,-0.18727,0.0,2023,6,7,16,41,3,702
46.87060,0.00193,0.13090,0.00000,0.03123,0.97649,-0.18934,0.0,2023,6,7,16,41,3,713
46.87070,0.03693,-0.06160,0.00000,0.02940,0.97563,-0.18873,0.0,2023,6,7,16,41,3,724
46.87080,-0.08557,0.04340,0.00000,0.03160,0.97673,-0.18703,0.0,2023,6,7,16,41,3,735
46.87090,-0.17307,-0.21910,0.00000,0.03172,0.97783,-0.19081,0.0,2023,6,7,16,41,3,747
46.87100,0.07193,-0.11410,0.00000,0.03026,0.97515,-0.19044,0.0,2023,6,7,16,41,3,758
46.87110,-0.12057,-0.04410,0.00000,0.03050,0.97710,-0.18922,0.0,2023,6,7,16,41,3,769
46.87120,0.10693,-0.18410,0.00000,0.03038,0.97624,-0.18971,0.0,2023,6,7,16,41,3,780
46.87130,0.14193,0.16590,0.00000,0.02965,0.97661,-0.18678,0.0,2023,6,7,16,41,3,792
46.87140,0.00193,-0.02660,0.00000,0.03184,0.97722,-0.18715,0.0,2023,6,7,16,41,3,803
46.87150,0.17693,0.09590,0.00000,0.03172,0.97527,-0.19105,0.0,2023,6,7,16,41,3,814
46.87160,0.07193,-0.02660,0.00000,0.03099,0.97917,-0.18532,0.0,2023,6,7,16,41,3,825
46.87170,0.05443,-0.04410,0.00000,0.03087,0.97771,-0.18654,0.0,2023,6,7,16,41,3,837
46.87180,0.05443,-0.16660,0.00000,0.03001,0.97612,-0.18751,0.0,2023,6,7,16,41,3,848
46.87190,0.01943,-0.09660,0.00000,0.03013,0.97905,-0.18898,0.0,2023,6,7,16,41,3,859
46.87200,0.12443,0.02590,0.00000,0.02952,0.97820,-0.18971,0.0,2023,6,7,16,41,3,870
46.87210,0.07193,-0.04410,0.00000,0.03318,0.97588,-0.18678,0.0,2023,6,7,16,41,3,882
46.87220,0.01943,0.00840,0.00000,0.02989,0.97673,-0.18849,0.0,2023,6,7,16,41,3,893
46.87230,-0.06807,-0.00910,0.00000,0.02891,0.97515,-0.18642,0.0,2023,6,7,16,41,3,904
46.87240,-0.05057,0.02590,0.00000,0.02891,0.97576,-0.18971,0.0,2023,6,7,16,41,3,915
46.87250,0.12443,-0.00910,0.00000,0.03148,0.97661,-0.18800,0.0,2023,6,7,16,41,3,927
46.87260,0.22943,-0.14910,0.00000,0.03209,0.97624,-0.18825,0.0,2023,6,7,16,41,3,938
46.87270,-0.05057,-0.11410,0.00000,0.03196,0.97588,-0.18849,0.0,2023,6,7,16,41,3,949
46.87280,0.15943,0.02590,0.00000,0.02989,0.97661,-0.18764,0.0,2023,6,7,16,41,3,960
46.87290,-0.05057,0.09590,0.00000,0.03294,0.97429,-0.18617,0.0,2023,6,7,16,41,3,972
46.87300,-0.05057,0.13090,0.00000,0.03062,0.97576,-0.18751,0.0,2023,6,7,16,41,3,983
46.87310,0.05443,0.11340,0.00000,0.03135,0.97539,-0.18825,0.0,2023,6,7,16,41,3,994
46.87320,0.14193,-0.13160,0.00000,0.03270,0.97515,-0.19105,0.0,2023,6,7,16,41,3,5
46.87330,-0.10307,-0.09660,0.00000,0.03038,0.97576,-0.18861,0.0,2023,6,7,16,41,3,17
46.87340,-0.05057,-0.09660,0.00000,0.02989,0.97515,-0.18739,0.0,2023,6,7,16,41,3,28
46.87350,0.17693,-0.02660,0.00000,0.02989,0.97551,-0.18825,0.0,2023,6,7,16,41,3,39
46.87360,0.24693,-0.09660,0.00000,0.03050,0.97600,-0.19020,0.0,2023,6,7,16,41,3,50
46.87370,0.03693,0.09590,0.00000,0.03172,0.97588,-0.18837,0.0,2023,6,7,16,41,3,62
46.87380,-0.12057,0.18340,0.00000,0.03233,0.97856,-0.18825,0.0,2023,6,7,16,41,3,73
46.87390,0.05443,-0.18410,0.00000,0.03196,0.97917,-0.18898,0.0,2023,6,7,16,41,3,84
46.87400,-0.05057,0.09590,0.00000,0.03392,0.97539,-0.18873,0.0,2023,6,7,16,41,3,95
46.87410,-0.19057,0.20090,0.00000,0.03209,0.97466,-0.19044,0.0,2023,6,7,16,41,3,107
46.87420,-0.03307,0.04340,0.00000,0.03111,0.97673,-0.18934,0.0,2023,6,7,16,41,3,118
46.87430,0.07193,-0.23660,0.00000,0.03282,0.97502,-0.18971,0.0,2023,6,7,16,41,3,129
46.87440,0.14193,-0.09660,0.00000,0.03123,0.97868,-0.18532,0.0,2023,6,7,16,41,3,140
46.87450,0.07193,-0.04410,0.00000,0.03270,0.97685,-0.18751,0.0,2023,6,7,16,41,3,152
46.87460,0.14193,0.13090,0.00000,0.03087,0.97759,-0.18983,0.0,2023,6,7,16,41,3,163
46.87470,0.01943,0.02590,0.00000,0.03050,0.97393,-0.19154,0.0,2023,6,7,16,41,3,174
46.87480,0.07193,-0.09660,0.00000,0.03428,0.97698,-0.18898,0.0,2023,6,7,16,41,3,185
46.87490,-0.08557,0.06090,0.00000,0.03257,0.97612,-0.18751,0.0,2023,6,7,16,41,3,197
46.87500,-0.01557,0.11340,0.00000,0.03038,0.97527,-0.18971,0.0,2023,6,7,16,41,3,208
46.87510,0.05443,-0.14910,0.00000,0.03184,0.97588,-0.18776,0.0,2023,6,7,16,41,3,219
46.87520,-0.12057,0.20090,0.00000,0.03184,0.97478,-0.18934,0.0,2023,6,7,16,41,3,230
46.87530,-0.22557,0.25340,0.00000,0.03135,0.97685,-0.18971,0.0,2023,6,7,16,41,3,242
46.87540,-0.12057,0.11340,0.00000,0.03013,0.97783,-0.18812,0.0,2023,6,7,16,41,3,253
46.87550,0.17693,-0.02660,0.00000,0.03148,0.97637,-0.18678,0.0,2023,6,7,16,41,3,264
46.87560,0.05443,-0.02660,0.00000,0.02940,0.97576,-0.19142,0.0,2023,6,7,16,41,3,275
46.87570,-0.05057,0.02590,0.00000,0.03233,0.97746,-0.18800,0.0,2023,6,7,16,41,3,287
46.87580,-0.01557,-0.00910,0.00000,0.03135,0.97576,-0.19032,0.0,2023,6,7,16,41,3,298
46.87590,-0.20807,-0.07910,0.00000,0.03099,0.97783,-0.18861,0.0,2023,6,7,16,41,3,309
46.87600,-0.20807,-0.16660,0.00000,0.03196,0.97746,-0.18788,0.0,2023,6,7,16,41,3,320
46.87610,0.10693,0.11340,0.00000,0.03062,0.97429,-0.19008,0.0,2023,6,7,16,41,3,332
46.87620,0.12443,0.00840,0.00000,0.03111,0.97698,-0.18776,0.0,2023,6,7,16,41,3,343
46.87630,0.10693,-0.18410,0.00000,0.03123,0.97734,-0.18764,0.0,2023,6,7,16,41,3,354
46.87640,-0.01557,-0.09660,0.00000,0.03135,0.97685,-0.18593,0.0,2023,6,7,16,41,3,365
46.87650,0.10693,-0.23660,0.00000,0.03111,0.97588,-0.18947,0.0,2023,6,7,16,41,3,377
46.87660,-0.01557,-0.02660,0.00000,0.02916,0.97466,-0.18947,0.0,2023,6,7,16,41,3,388
46.87670,-0.05057,0.09590,0.00000,0.03062,0.97795,-0.19069,0.0,2023,6,7,16,41,3,399
46.87680,0.15943,-0.21910,0.00000,0.03148,0.97515,-0.18873,0.0,2023,6,7,16,41,3,410
46.87690,-0.17307,0.14840,0.00000,0.03087,0.97820,-0.18971,0.0,2023,6,7,16,41,3,422
46.87700,0.12443,0.06090,0.00000,0.03099,0.97685,-0.18983,0.0,2023,6,7,16,41,3,433
46.87710,-0.08557,-0.07910,0.00000,0.03026,0.97576,-0.19178,0.0,2023,6,7,16,41,4,444
46.87720,0.12443,0.00840,0.00000,0.03001,0.97820,-0.18849,0.0,2023,6,7,16,41,4,455
46.87730,0.17693,-0.23660,0.00000,0.03160,0.97563,-0.19069,0.0,2023,6,7,16,41,4,467
46.87740,-0.03307,0.13090,0.00000,0.03135,0.97600,-0.18776,0.0,2023,6,7,16,41,4,478
46.87750,0.05443,0.02590,0.00000,0.03062,0.97698,-0.18983,0.0,2023,6,7,16,41,4,489
46.87760,0.22943,-0.02660,0.00000,0.03233,0.97661,-0.18812,0.0,2023,6,7,16,41,4,500
46.87770,0.15943,-0.06160,0.00000,0.03062,0.97856,-0.19325,0.0,2023,6,7,16,41,4,512
46.87780,-0.03307,0.09590,0.00000,0.03148,0.97624,-0.18947,0.0,2023,6,7,16,41,4,523
46.87790,0.03693,-0.06160,0.00000,0.03062,0.97563,-0.18593,0.0,2023,6,7,16,41,4,534
46.87800,0.14193,-0.00910,0.00000,0.03221,0.97661,-0.18788,0.0,2023,6,7,16,41,4,545
46.87810,0.12443,0.02590,0.00000,0.03087,0.97795,-0.18861,0.0,2023,6,7,16,41,4,557
46.87820,-0.03307,0.04340,0.00000,0.03160,0.97917,-0.18544,0.0,2023,6,7,16,41,4,568
46.87830,-0.12057,-0.18410,0.00000,0.03245,0.97417,-0.18886,0.0,2023,6,7,16,41,4,579
46.87840,0.01943,-0.07910,0.00000,0.03099,0.97502,-0.18703,0.0,2023,6,7,16,41,4,590
46.87850,0.08943,-0.07910,0.00000,0.03172,0.97429,-0.19044,0.0,2023,6,7,16,41,4,602
46.87860,0.07193,-0.09660,0.00000,0.03099,0.97820,-0.19008,0.0,2023,6,7,16,41,4,613
46.87870,-0.06807,0.09590,0.00000,0.03209,0.97441,-0.19020,0.0,2023,6,7,16,41,4,624
46.87880,0.10693,-0.00910,0.00000,0.03074,0.97478,-0.18715,0.0,2023,6,7,16,41,4,635
46.87890,0.12443,-0.11410,0.00000,0.02940,0.97624,-0.18922,0.0,2023,6,7,16,41,4,647
46.87900,0.19443,-0.13160,0.00000,0.03294,0.97685,-0.18947,0.0,2023,6,7,16,41,4,658
46.87910,0.10693,-0.23660,0.00000,0.03209,0.97734,-0.18959,0.0,2023,6,7,16,41,4,669
46.87920,0.03693,0.06090,0.00000,0.02867,0.97661,-0.18703,0.0,2023,6,7,16,41,4,680
46.87930,0.01943,0.09590,0.00000,0.03221,0.97783,-0.18922,0.0,2023,6,7,16,41,4,692
46.87940,0.15943,-0.07910,0.00000,0.03184,0.97600,-0.18983,0.0,2023,6,7,16,41,4,703
46.87950,-0.01557,0.07840,0.00000,0.03099,0.97527,-0.19008,0.0,2023,6,7,16,41,4,714
46.87960,-0.26057,0.23590,0.00000,0.03026,0.97795,-0.18764,0.0,2023,6,7,16,41,4,725
46.87970,-0.05057,0.13090,0.00000,0.03026,0.97673,-0.19130,0.0,2023,6,7,16,41,4,737
46.87980,-0.01557,-0.00910,0.00000,0.03062,0.97722,-0.18995,0.0,2023,6,7,16,41,4,748
46.87990,-0.01557,0.00840,0.00000,0.03343,0.97478,-0.19056,0.0,2023,6,7,16,41,4,759
46.88000,0.07193,0.14840,0.00000,0.03160,0.97551,-0.18825,0.0,2023,6,7,16,41,4,770
46.88010,0.01943,-0.06160,0.00000,0.03001,0.97368,-0.18812,0.0,2023,6,7,16,41,4,782
46.88020,-0.01557,0.07840,0.00000,0.03062,0.97515,-0.18849,0.0,2023,6,7,16,41,4,793
46.88030,-0.03307,-0.09660,0.00000,0.03184,0.97478,-0.18825,0.0,2023,6,7,16,41,4,804
46.88040,0.07193,0.11340,0.00000,0.03026,0.97807,-0.18995,0.0,2023,6,7,16,41,4,815
46.88050,0.00193,-0.04410,0.00000,0.03172,0.97576,-0.19069,0.0,2023,6,7,16,41,4,827
46.88060,0.10693,-0.07910,0.00000,0.03087,0.97637,-0.19239,0.0,2023,6,7,16,41,4,838
46.88070,0.15943,-0.06160,0.00000,0.03148,0.97466,-0.19093,0.0,2023,6,7,16,41,4,849
46.88080,0.03693,0.02590,0.00000,0.03245,0.97685,-0.18861,0.0,2023,6,7,16,41,4,860
46.88090,-0.06807,-0.21910,0.00000,0.03111,0.97710,-0.19044,0.0,2023,6,7,16,41,4,872
46.88100,-0.01557,0.14840,0.00000,0.03196,0.97746,-0.19032,0.0,2023,6,7,16,41,4,883
46.88110,-0.08557,0.00840,0.00000,0.03135,0.97563,-0.19178,0.0,2023,6,7,16,41,4,894
46.88120,0.05443,0.02590,0.00000,0.03135,0.97563,-0.18934,0.0,2023,6,7,16,41,4,905
46.88130,-0.08557,0.00840,0.00000,0.03135,0.97759,-0.18873,0.0,2023,6,7,16,41,4,917
46.88140,-0.10307,-0.09660,0.00000,0.03392,0.97624,-0.18837,0.0,2023,6,7,16,41,4,928
46.88150,0.22943,-0.18410,0.00000,0.03038,0.97722,-0.19398,0.0,2023,6,7,16,41,4,939
46.88160,0.01943,0.11340,0.00000,0.03294,0.97551,-0.19105,0.0,2023,6,7,16,41,4,950
46.88170,0.14193,-0.11410,0.00000,0.03111,0.97490,-0.18995,0.0,2023,6,7,16,41,4,962
46.88180,0.07193,-0.00910,0.00000,0.03013,0.97746,-0.19130,0.0,2023,6,7,16,41,4,973
46.88190,-0.08557,-0.07910,0.00000,0.03099,0.97759,-0.19105,0.0,2023,6,7,16,41,4,984
46.88200,0.03693,0.20090,0.00000,0.02952,0.97588,-0.19447,0.0,2023,6,7,16,41,4,995
46.88210,-0.13807,0.04340,0.00000,0.03270,0.97734,-0.19081,0.0,2023,6,7,16,41,4,7
46.88220,-0.03307,-0.02660,0.00000,0.03221,0.97661,-0.18812,0.0,2023,6,7,16,41,4,18
46.88230,-0.05057,0.06090,0.00000,0.03294,0.98003,-0.19105,0.0,2023,6,7,16,41,4,29
46.88240,-0.13807,-0.00910,0.00000,0.03074,0.97710,-0.19215,0.0,2023,6,7,16,41,4,40
46.88250,0.08943,-0.13160,0.00000,0.03050,0.97820,-0.19130,0.0,2023,6,7,16,41,4,52
46.88260,0.12443,-0.04410,0.00000,0.03270,0.97429,-0.19032,0.0,2023,6,7,16,41,4,63
46.88270,0.08943,-0.30660,0.00000,0.03160,0.97771,-0.19044,0.0,2023,6,7,16,41,4,74
46.88280,-0.06807,0.11340,0.00000,0.03233,0.97563,-0.18995,0.0,2023,6,7,16,41,4,85
46.88290,0.05443,0.00840,0.00000,0.03257,0.97624,-0.19215,0.0,2023,6,7,16,41,4,97
46.88300,0.07193,-0.04410,0.00000,0.03172,0.97246,-0.18849,0.0,2023,6,7,16,41,4,108
46.88310,0.12443,-0.14910,0.00000,0.02940,0.97295,-0.19020,0.0,2023,6,7,16,41,4,119
46.88320,-0.01557,0.00840,0.00000,0.03245,0.97600,-0.18764,0.0,2023,6,7,16,41,4,130
46.88330,0.10693,0.25340,0.00000,0.03196,0.97441,-0.19056,0.0,2023,6,7,16,41,4,142
46.88340,-0.12057,-0.21910,0.00000,0.03050,0.97429,-0.19154,0.0,2023,6,7,16,41,4,153
46.88350,-0.12057,-0.00910,0.00000,0.03148,0.97734,-0.18922,0.0,2023,6,7,16,41,4,164
46.88360,0.07193,-0.07910,0.00000,0.03111,0.97649,-0.18886,0.0,2023,6,7,16,41,4,175
46.88370,-0.13807,-0.11410,0.00000,0.03245,0.97612,-0.19081,0.0,2023,6,7,16,41,4,187
46.88380,0.00193,0.02590,0.00000,0.03062,0.97624,-0.19337,0.0,2023,6,7,16,41,4,198
46.88390,0.05443,0.11340,0.00000,0.03123,0.97454,-0.18642,0.0,2023,6,7,16,41,4,209
46.88400,0.03693,-0.16660,0.00000,0.03160,0.97661,-0.18739,0.0,2023,6,7,16,41,4,220
46.88410,0.03693,-0.14910,0.00000,0.03111,0.97685,-0.18947,0.0,2023,6,7,16,41,4,232
46.88420,-0.01557,0.20090,0.00000,0.03318,0.97661,-0.18873,0.0,2023,6,7,16,41,4,243
46.88430,0.08943,-0.14910,0.00000,0.02916,0.97685,-0.19044,0.0,2023,6,7,16,41,4,254
46.88440,-0.03307,-0.04410,0.00000,0.03184,0.97600,-0.19044,0.0,2023,6,7,16,41,4,265
46.88450,-0.13807,0.04340,0.00000,0.03318,0.97783,-0.18544,0.0,2023,6,7,16,41,4,277
46.88460,0.15943,-0.11410,0.00000,0.03318,0.97563,-0.18849,0.0,2023,6,7,16,41,4,288
46.88470,0.17693,-0.20160,0.00000,0.02928,0.97673,-0.19142,0.0,2023,6,7,16,41,4,299
46.88480,0.03693,-0.07910,0.00000,0.03257,0.97539,-0.19154,0.0,2023,6,7,16,41,4,310
46.88490,-0.15557,-0.06160,0.00000,0.03099,0.97746,-0.18849,0.0,2023,6,7,16,41,4,322
46.88500,0.00193,-0.11410,0.00000,0.03209,0.97527,-0.18983,0.0,2023,6,7,16,41,4,333
46.88510,-0.12057,0.23590,0.00000,0.03074,0.97637,-0.19056,0.0,2023,6,7,16,41,4,344
46.88520,-0.08557,-0.21910,0.00000,0.03013,0.97710,-0.18800,0.0,2023,6,7,16,41,4,355
46.88530,0.07193,-0.14910,0.00000,0.03282,0.97527,-0.19300,0.0,2023,6,7,16,41,4,367
46.88540,-0.05057,0.04340,0.00000,0.03099,0.97576,-0.19044,0.0,2023,6,7,16,41,4,378
46.88550,-0.06807,-0.04410,0.00000,0.03013,0.97624,-0.18959,0.0,2023,6,7,16,41,4,389
46.88560,-0.03307,0.00840,0.00000,0.03172,0.97759,-0.19166,0.0,2023,6,7,16,41,4,400
46.88570,-0.10307,0.06090,0.00000,0.03233,0.97685,-0.19215,0.0,2023,6,7,16,41,4,412
46.88580,0.01943,0.04340,0.00000,0.02977,0.97783,-0.19081,0.0,2023,6,7,16,41,4,423
46.88590,0.21193,-0.06160,0.00000,0.02891,0.97710,-0.19313,0.0,2023,6,7,16,41,4,434
46.88600,0.05443,-0.07910,0.00000,0.03111,0.97710,-0.19117,0.0,2023,6,7,16,41,4,445
46.88610,0.00193,-0.02660,0.00000,0.03245,0.97502,-0.18995,0.0,2023,6,7,16,41,5,457
46.88620,0.21193,-0.11410,0.00000,0.03184,0.97429,-0.18825,0.0,2023,6,7,16,41,5,468
46.88630,0.07193,-0.04410,0.00000,0.03038,0.97478,-0.19203,0.0,2023,6,7,16,41,5,479
46.88640,0.07193,-0.18410,0.00000,0.02916,0.97588,-0.19056,0.0,2023,6,7,16,41,5,490
46.88650,0.14193,-0.09660,0.00000,0.03306,0.97515,-0.18995,0.0,2023,6,7,16,41,5,502
46.88660,-0.20807,0.02590,0.00000,0.03160,0.97771,-0.19008,0.0,2023,6,7,16,41,5,513
46.88670,-0.03307,0.02590,0.00000,0.02989,0.97478,-0.19203,0.0,2023,6,7,16,41,5,524
46.88680,0.15943,0.04340,0.00000,0.03245,0.97576,-0.19093,0.0,2023,6,7,16,41,5,535
46.88690,0.08943,-0.06160,0.00000,0.03184,0.97698,-0.18971,0.0,2023,6,7,16,41,5,547
46.88700,-0.01557,0.18340,0.00000,0.03331,0.97624,-0.19032,0.0,2023,6,7,16,41,5,558
46.88710,-0.01557,0.00840,0.00000,0.03087,0.97844,-0.18910,0.0,2023,6,7,16,41,5,569
46.88720,0.03693,-0.00910,0.00000,0.03160,0.97527,-0.18910,0.0,2023,6,7,16,41,5,580
46.88730,-0.06807,0.09590,0.00000,0.03050,0.97624,-0.18727,0.0,2023,6,7,16,41,5,592
46.88740,-0.03307,0.18340,0.00000,0.03038,0.97490,-0.19020,0.0,2023,6,7,16,41,5,603
46.88750,-0.06807,-0.09660,0.00000,0.03123,0.97466,-0.19105,0.0,2023,6,7,16,41,5,614
46.88760,0.03693,0.06090,0.00000,0.03209,0.97722,-0.18995,0.0,2023,6,7,16,41,5,625
46.88770,-0.01557,-0.00910,0.00000,0.02989,0.97600,-0.19032,0.0,2023,6,7,16,41,5,637
46.88780,0.03693,-0.23660,0.00000,0.03001,0.97649,-0.18995,0.0,2023,6,7,16,41,5,648
46.88790,0.05443,0.16590,0.00000,0.03282,0.97454,-0.19069,0.0,2023,6,7,16,41,5,659
46.88800,0.03693,-0.06160,0.00000,0.02940,0.97417,-0.18861,0.0,2023,6,7,16,41,5,670
46.88810,-0.08557,0.06090,0.00000,0.02928,0.97698,-0.19008,0.0,2023,6,7,16,41,5,682
46.88820,-0.01557,0.09590,0.00000,0.03343,0.97661,-0.19300,0.0,2023,6,7,16,41,5,693
46.88830,0.08943,-0.18410,0.00000,0.03026,0.97807,-0.18983,0.0,2023,6,7,16,41,5,704
46.88840,0.07193,-0.13160,0.00000,0.03050,0.97612,-0.19069,0.0,2023,6,7,16,41,5,715
46.88850,0.07193,-0.06160,0.00000,0.02843,0.97710,-0.19044,0.0,2023,6,7,16,41,5,727
46.88860,-0.06807,-0.18410,0.00000,0.03074,0.97685,-0.18947,0.0,2023,6,7,16,41,5,738
46.88870,0.14193,-0.32410,0.00000,0.03038,0.97710,-0.19239,0.0,2023,6,7,16,41,5,749
46.88880,0.05443,0.07840,0.00000,0.02940,0.97661,-0.19105,0.0,2023,6,7,16,41,5,760
46.88890,0.00193,-0.23660,0.00000,0.03135,0.97771,-0.19166,0.0,2023,6,7,16,41,5,772
46.88900,-0.12057,0.14840,0.00000,0.03099,0.97685,-0.19020,0.0,2023,6,7,16,41,5,783
46.88910,-0.03307,0.25340,0.00000,0.03355,0.97515,-0.19008,0.0,2023,6,7,16,41,5,794
46.88920,0.03693,0.02590,0.00000,0.03026,0.97332,-0.18776,0.0,2023,6,7,16,41,5,805
46.88930,0.03693,-0.09660,0.00000,0.03135,0.97722,-0.19117,0.0,2023,6,7,16,41,5,817
46.88940,-0.20807,0.00840,0.00000,0.03148,0.97502,-0.18849,0.0,2023,6,7,16,41,5,828
46.88950,-0.10307,0.14840,0.00000,0.03294,0.97588,-0.18873,0.0,2023,6,7,16,41,5,839
46.88960,-0.26057,0.20090,0.00000,0.03026,0.97881,-0.18910,0.0,2023,6,7,16,41,5,850
46.88970,0.03693,-0.07910,0.00000,0.02928,0.97637,-0.18886,0.0,2023,6,7,16,41,5,862
46.88980,0.12443,-0.04410,0.00000,0.03221,0.97600,-0.19044,0.0,2023,6,7,16,41,5,873
46.88990,0.17693,-0.02660,0.00000,0.03135,0.97319,-0.19044,0.0,2023,6,7,16,41,5,884
46.89000,0.19443,-0.09660,0.00000,0.02928,0.97673,-0.18764,0.0,2023,6,7,16,41,5,895
46.89010,-0.06807,-0.13160,0.00000,0.03209,0.97600,-0.18825,0.0,2023,6,7,16,41,5,907
46.89020,-0.17307,-0.04410,0.00000,0.03087,0.97612,-0.19374,0.0,2023,6,7,16,41,5,918
46.89030,-0.01557,-0.07910,0.00000,0.03026,0.97746,-0.19203,0.0,2023,6,7,16,41,5,929
46.89040,0.05443,-0.16660,0.00000,0.03050,0.97759,-0.19020,0.0,2023,6,7,16,41,5,940
46.89050,-0.06807,-0.09660,0.00000,0.03209,0.97661,-0.19020,0.0,2023,6,7,16,41,5,952
46.89060,-0.05057,0.06090,0.00000,0.03074,0.97746,-0.19117,0.0,2023,6,7,16,41,5,963
46.89070,0.01943,0.00840,0.00000,0.03245,0.97844,-0.18898,0.0,2023,6,7,16,41,5,974
46.89080,-0.19057,-0.00910,0.00000,0.03245,0.97685,-0.18800,0.0,2023,6,7,16,41,5,985
46.89090,0.21193,-0.00910,0.00000,0.02928,0.97576,-0.19020,0.0,2023,6,7,16,41,5,997
46.89100,0.07193,-0.18410,0.00000,0.03087,0.97685,-0.18910,0.0,2023,6,7,16,41,5,8
46.89110,-0.15557,-0.06160,0.00000,0.02989,0.97771,-0.19239,0.0,2023,6,7,16,41,5,19
46.89120,0.00193,-0.07910,0.00000,0.03245,0.97661,-0.19227,0.0,2023,6,7,16,41,5,30
46.89130,-0.01557,-0.00910,0.00000,0.03026,0.97588,-0.19056,0.0,2023,6,7,16,41,5,42
46.89140,-0.22557,0.21840,0.00000,0.03209,0.97551,-0.19044,0.0,2023,6,7,16,41,5,53
46.89150,0.14193,-0.06160,0.00000,0.03209,0.97722,-0.18995,0.0,2023,6,7,16,41,5,64
46.89160,0.14193,-0.11410,0.00000,0.03026,0.97551,-0.19130,0.0,2023,6,7,16,41,5,75
46.89170,0.05443,-0.14910,0.00000,0.03062,0.97563,-0.19105,0.0,2023,6,7,16,41,5,87
46.89180,-0.03307,-0.11410,0.00000,0.03038,0.97563,-0.19081,0.0,2023,6,7,16,41,5,98
46.89190,0.05443,0.02590,0.00000,0.03087,0.97637,-0.19093,0.0,2023,6,7,16,41,5,109
46.89200,0.08943,0.00840,0.00000,0.03221,0.97563,-0.19020,0.0,2023,6,7,16,41,5,120
46.89210,0.08943,0.37590,0.00000,0.02940,0.97722,-0.18995,0.0,2023,6,7,16,41,5,132
46.89220,-0.05057,0.07840,0.00000,0.03123,0.97917,-0.19032,0.0,2023,6,7,16,41,5,143
46.89230,0.07193,-0.14910,0.00000,0.02916,0.97661,-0.18800,0.0,2023,6,7,16,41,5,154
46.89240,-0.06807,-0.02660,0.00000,0.03184,0.97624,-0.18886,0.0,2023,6,7,16,41,5,165
46.89250,0.12443,-0.02660,0.00000,0.03245,0.97637,-0.18873,0.0,2023,6,7,16,41,5,177
46.89260,-0.08557,-0.02660,0.00000,0.03172,0.97466,-0.18898,0.0,2023,6,7,16,41,5,188
46.89270,0.21193,-0.28910,0.00000,0.03196,0.97576,-0.18861,0.0,2023,6,7,16,41,5,199
46.89280,0.07193,-0.23660,0.00000,0.03135,0.97600,-0.18727,0.0,2023,6,7,16,41,5,210
46.89290,0.00193,0.09590,0.00000,0.02879,0.97454,-0.18886,0.0,2023,6,7,16,41,5,222
46.89300,-0.01557,-0.09660,0.00000,0.03160,0.97649,-0.18788,0.0,2023,6,7,16,41,5,233
46.89310,0.00193,0.04340,0.00000,0.03209,0.97466,-0.19081,0.0,2023,6,7,16,41,5,244
46.89320,0.00193,0.04340,0.00000,0.02940,0.97588,-0.18861,0.0,2023,6,7,16,41,5,255
46.89330,-0.03307,-0.00910,0.00000,0.03062,0.97502,-0.18776,0.0,2023,6,7,16,41,5,267
46.89340,0.05443,-0.06160,0.00000,0.03099,0.97856,-0.18764,0.0,2023,6,7,16,41,5,278
46.89350,0.08943,0.00840,0.00000,0.03160,0.97539,-0.18886,0.0,2023,6,7,16,41,5,289
46.89360,0.17693,0.00840,0.00000,0.03001,0.97759,-0.18959,0.0,2023,6,7,16,41,5,300
46.89370,0.12443,0.09590,0.00000,0.03001,0.97637,-0.19081,0.0,2023,6,7,16,41,5,312
46.89380,-0.12057,-0.00910,0.00000,0.03062,0.97624,-0.18812,0.0,2023,6,7,16,41,5,323
46.89390,0.07193,-0.11410,0.00000,0.03221,0.97673,-0.19105,0.0,2023,6,7,16,41,5,334
46.89400,-0.10307,-0.09660,0.00000,0.02916,0.97515,-0.18873,0.0,2023,6,7,16,41,5,345
46.89410,0.05443,0.02590,0.00000,0.03050,0.97515,-0.18837,0.0,2023,6,7,16,41,5,357
46.89420,-0.03307,0.04340,0.00000,0.03160,0.97881,-0.18800,0.0,2023,6,7,16,41,5,368
46.89430,0.03693,0.00840,0.00000,0.03367,0.97746,-0.18715,0.0,2023,6,7,16,41,5,379
46.89440,0.10693,-0.13160,0.00000,0.03160,0.97612,-0.19093,0.0,2023,6,7,16,41,5,390
46.89450,0.12443,-0.06160,0.00000,0.03013,0.97563,-0.18776,0.0,2023,6,7,16,41,5,402
46.89460,0.00193,-0.09660,0.00000,0.03196,0.97771,-0.18959,0.0,2023,6,7,16,41,5,413
46.89470,-0.03307,0.20090,0.00000,0.03355,0.97624,-0.18947,0.0,2023,6,7,16,41,5,424
46.89480,0.01943,0.02590,0.00000,0.03123,0.97624,-0.18617,0.0,2023,6,7,16,41,5,435
46.89490,0.24693,-0.20160,0.00000,0.02879,0.97624,-0.19130,0.0,2023,6,7,16,41,5,447
46.89500,0.22943,-0.20160,0.00000,0.03245,0.97649,-0.18922,0.0,2023,6,7,16,41,5,458
46.89510,-0.08557,0.02590,0.00000,0.02965,0.97515,-0.18837,0.0,2023,6,7,16,41,6,469
46.89520,0.07193,-0.02660,0.00000,0.03331,0.97771,-0.18898,0.0,2023,6,7,16,41,6,480
46.89530,0.05443,-0.07910,0.00000,0.03196,0.97868,-0.19056,0.0,2023,6,7,16,41,6,492
46.89540,0.05443,-0.00910,0.00000,0.03050,0.97466,-0.19093,0.0,2023,6,7,16,41,6,503
46.89550,-0.01557,-0.09660,0.00000,0.03111,0.97649,-0.19020,0.0,2023,6,7,16,41,6,514
46.89560,0.05443,-0.02660,0.00000,0.03099,0.97515,-0.18849,0.0,2023,6,7,16,41,6,525
46.89570,0.07193,-0.18410,0.00000,0.03209,0.97441,-0.19020,0.0,2023,6,7,16,41,6,537
46.89580,0.15943,-0.06160,0.00000,0.03087,0.97649,-0.19032,0.0,2023,6,7,16,41,6,548
46.89590,-0.05057,-0.14910,0.00000,0.03306,0.97746,-0.18861,0.0,2023,6,7,16,41,6,559
46.89600,-0.15557,0.13090,0.00000,0.03416,0.97612,-0.18873,0.0,2023,6,7,16,41,6,570
46.89610,-0.03307,0.06090,0.00000,0.03062,0.97734,-0.18861,0.0,2023,6,7,16,41,6,582
46.89620,-0.24307,0.04340,0.00000,0.03160,0.97844,-0.19191,0.0,2023,6,7,16,41,6,593
46.89630,-0.08557,-0.06160,0.00000,0.03111,0.97722,-0.18861,0.0,2023,6,7,16,41,6,604
46.89640,-0.08557,0.11340,0.00000,0.03209,0.97783,-0.18898,0.0,2023,6,7,16,41,6,615
46.89650,0.00193,0.09590,0.00000,0.02952,0.97600,-0.19105,0.0,2023,6,7,16,41,6,627
46.89660,0.28193,-0.02660,0.00000,0.03123,0.97612,-0.19093,0.0,2023,6,7,16,41,6,638
46.89670,0.14193,-0.07910,0.00000,0.03209,0.97490,-0.18983,0.0,2023,6,7,16,41,6,649
46.89680,-0.19057,-0.02660,0.00000,0.03148,0.97539,-0.19069,0.0,2023,6,7,16,41,6,660
46.89690,-0.15557,0.16590,0.00000,0.03111,0.97820,-0.18947,0.0,2023,6,7,16,41,6,672
46.89700,0.12443,-0.25410,0.00000,0.03050,0.97527,-0.18947,0.0,2023,6,7,16,41,6,683
46.89710,0.03693,-0.30660,0.00000,0.03001,0.97612,-0.18837,0.0,2023,6,7,16,41,6,694
46.89720,0.08943,0.00840,0.00000,0.03135,0.97673,-0.18898,0.0,2023,6,7,16,41,6,705
46.89730,0.01943,0.23590,0.00000,0.03062,0.97551,-0.18898,0.0,2023,6,7,16,41,6,717
46.89740,0.14193,0.00840,0.00000,0.02989,0.97527,-0.19069,0.0,2023,6,7,16,41,6,728
46.89750,0.10693,0.06090,0.00000,0.03062,0.97698,-0.19020,0.0,2023,6,7,16,41,6,739
46.89760,0.03693,-0.07910,0.00000,0.03074,0.97832,-0.18922,0.0,2023,6,7,16,41,6,750
46.89770,0.22943,-0.09660,0.00000,0.03331,0.97637,-0.19117,0.0,2023,6,7,16,41,6,762
46.89780,-0.05057,-0.00910,0.00000,0.03209,0.97795,-0.18898,0.0,2023,6,7,16,41,6,773
46.89790,-0.13807,0.23590,0.00000,0.03172,0.97783,-0.18861,0.0,2023,6,7,16,41,6,784
46.89800,-0.01557,0.04340,0.00000,0.03135,0.97612,-0.18788,0.0,2023,6,7,16,41,6,795
46.89810,-0.06807,0.07840,0.00000,0.03001,0.97673,-0.18861,0.0,2023,6,7,16,41,6,807
46.89820,0.00193,0.02590,0.00000,0.03355,0.97759,-0.18910,0.0,2023,6,7,16,41,6,818
46.89830,0.01943,-0.25410,0.00000,0.03087,0.97673,-0.19008,0.0,2023,6,7,16,41,6,829
46.89840,0.00193,0.09590,0.00000,0.03087,0.97551,-0.19130,0.0,2023,6,7,16,41,6,840
46.89850,0.07193,-0.02660,0.00000,0.03038,0.97734,-0.18959,0.0,2023,6,7,16,41,6,852
46.89860,-0.05057,0.14840,0.00000,0.03245,0.97612,-0.18861,0.0,2023,6,7,16,41,6,863
46.89870,-0.15557,0.28840,0.00000,0.03074,0.97661,-0.18983,0.0,2023,6,7,16,41,6,874
46.89880,0.07193,0.16590,0.00000,0.02952,0.97649,-0.19020,0.0,2023,6,7,16,41,6,885
46.89890,-0.03307,-0.09660,0.00000,0.03111,0.97661,-0.19142,0.0,2023,6,7,16,41,6,897
46.89900,0.05443,0.18340,0.00000,0.03233,0.97551,-0.18922,0.0,2023,6,7,16,41,6,908
46.89910,0.05443,-0.20160,0.00000,0.03209,0.97698,-0.18776,0.0,2023,6,7,16,41,6,919
46.89920,0.03693,-0.13160,0.00000,0.03172,0.97515,-0.18751,0.0,2023,6,7,16,41,6,930
46.89930,0.03693,-0.09660,0.00000,0.03245,0.97539,-0.19032,0.0,2023,6,7,16,41,6,942
46.89940,0.10693,-0.02660,0.00000,0.03099,0.97527,-0.18971,0.0,2023,6,7,16,41,6,953
46.89950,0.01943,-0.02660,0.00000,0.02928,0.97734,-0.19069,0.0,2023,6,7,16,41,6,964
46.89960,0.01943,0.11340,0.00000,0.03270,0.97417,-0.18922,0.0,2023,6,7,16,41,6,975
46.89970,0.03693,0.04340,0.00000,0.03135,0.97551,-0.18812,0.0,2023,6,7,16,41,6,987
46.89980,-0.05057,0.14840,0.00000,0.03001,0.97698,-0.18764,0.0,2023,6,7,16,41,6,998
46.89990,0.01943,-0.11410,0.00000,0.03160,0.97380,-0.18910,0.0,2023,6,7,16,41,6,9
46.90000,0.05443,0.14840,0.00000,0.03221,0.97466,-0.18666,0.0,2023,6,7,16,41,6,20
46.90010,-0.03307,-0.16660,0.00000,0.03379,0.97417,-0.18910,0.0,2023,6,7,16,41,6,32
46.90020,-0.06807,-0.07910,0.00000,0.03099,0.97661,-0.18861,0.0,2023,6,7,16,41,6,43
46.90030,0.14193,0.06090,0.00000,0.03233,0.97734,-0.18886,0.0,2023,6,7,16,41,6,54
46.90040,0.03693,-0.14910,0.00000,0.02989,0.97649,-0.19093,0.0,2023,6,7,16,41,6,65
46.90050,0.21193,-0.09660,0.00000,0.03050,0.97698,-0.19105,0.0,2023,6,7,16,41,6,77
46.90060,0.03693,-0.11410,0.00000,0.03209,0.97722,-0.18886,0.0,2023,6,7,16,41,6,88
46.90070,0.07193,0.11340,0.00000,0.03172,0.97588,-0.19056,0.0,2023,6,7,16,41,6,99
46.90080,-0.05057,0.09590,0.00000,0.03221,0.97661,-0.18812,0.0,2023,6,7,16,41,6,110
