#2023/06/07 17:10:46
time,wx,wy,wz,ax,ay,az,yy,MM,dd,hh,mm,ss,ms
48.96880,0.31868,-0.19722,0.00000,0.03135,0.97454,-0.18983,0.0,2023,6,7,17,10,47,103
48.96890,0.05618,-0.12722,0.00000,0.03038,0.97905,-0.18690,0.0,2023,6,7,17,10,47,115
48.96900,0.10868,-0.02222,0.00000,0.03306,0.97576,-0.18922,0.0,2023,6,7,17,10,47,126
48.96910,0.19618,-0.07472,0.00000,0.03379,0.97478,-0.18959,0.0,2023,6,7,17,10,47,137
48.96920,0.05618,-0.00472,0.00000,0.03245,0.97807,-0.18959,0.0,2023,6,7,17,10,47,148
48.96930,-0.04882,0.04778,0.00000,0.03038,0.97917,-0.18764,0.0,2023,6,7,17,10,47,159
48.96940,-0.01382,0.18778,0.00000,0.03172,0.97673,-0.18898,0.0,2023,6,7,17,10,47,170
48.96950,-0.06632,-0.10972,0.00000,0.03196,0.97685,-0.18947,0.0,2023,6,7,17,10,47,182
48.96960,-0.04882,0.10028,0.00000,0.03196,0.97698,-0.18849,0.0,2023,6,7,17,10,47,193
48.96970,-0.01382,-0.21472,0.00000,0.03050,0.97624,-0.18886,0.0,2023,6,7,17,10,47,204
48.96980,-0.04882,0.17028,0.00000,0.03087,0.97368,-0.19142,0.0,2023,6,7,17,10,47,215
48.96990,-0.15382,0.03028,0.00000,0.03062,0.97637,-0.18861,0.0,2023,6,7,17,10,47,226
48.97000,0.02118,0.10028,0.00000,0.03026,0.97600,-0.18812,0.0,2023,6,7,17,10,47,237
48.97010,0.10868,-0.12722,0.00000,0.03038,0.97783,-0.18995,0.0,2023,6,7,17,10,47,248
48.97020,0.17868,-0.09222,0.00000,0.03111,0.97637,-0.18947,0.0,2023,6,7,17,10,47,260
48.97030,-0.18882,0.03028,0.00000,0.03087,0.97624,-0.18812,0.0,2023,6,7,17,10,47,271
48.97040,-0.10132,-0.17972,0.00000,0.03013,0.97856,-0.18788,0.0,2023,6,7,17,10,47,282
48.97050,-0.01382,0.15278,0.00000,0.03318,0.97685,-0.19166,0.0,2023,6,7,17,10,47,293
48.97060,-0.06632,-0.12722,0.00000,0.03050,0.97734,-0.18971,0.0,2023,6,7,17,10,47,304
48.97070,0.03868,-0.03972,0.00000,0.03306,0.97795,-0.18971,0.0,2023,6,7,17,10,47,315
48.97080,0.02118,-0.05722,0.00000,0.03135,0.97783,-0.18703,0.0,2023,6,7,17,10,47,326
48.97090,-0.03132,0.11778,0.00000,0.02989,0.97588,-0.18971,0.0,2023,6,7,17,10,47,338
48.97100,0.16118,0.06528,0.00000,0.03514,0.97746,-0.19276,0.0,2023,6,7,17,10,47,349
48.97110,0.02118,-0.12722,0.00000,0.03294,0.97710,-0.18812,0.0,2023,6,7,17,10,47,360
48.97120,-0.13632,0.06528,0.00000,0.03538,0.97771,-0.18751,0.0,2023,6,7,17,10,47,371
48.97130,0.07368,-0.03972,0.00000,0.03562,0.97734,-0.18751,0.0,2023,6,7,17,10,47,382
48.97140,0.05618,-0.10972,0.00000,0.03099,0.97649,-0.18971,0.0,2023,6,7,17,10,47,393
48.97150,-0.13632,-0.09222,0.00000,0.03379,0.97563,-0.18849,0.0,2023,6,7,17,10,47,405
48.97160,-0.15382,-0.17972,0.00000,0.03392,0.97478,-0.18690,0.0,2023,6,7,17,10,47,416
48.97170,-0.08382,-0.02222,0.00000,0.03099,0.97820,-0.19020,0.0,2023,6,7,17,10,47,427
48.97180,0.09118,-0.24972,0.00000,0.03050,0.97454,-0.18812,0.0,2023,6,7,17,10,47,438
48.97190,0.02118,-0.02222,0.00000,0.03099,0.97539,-0.19032,0.0,2023,6,7,17,10,47,449
48.97200,0.09118,-0.05722,0.00000,0.03209,0.97710,-0.19081,0.0,2023,6,7,17,10,47,460
48.97210,0.00368,0.01278,0.00000,0.03196,0.97795,-0.18837,0.0,2023,6,7,17,10,47,471
48.97220,-0.18882,-0.00472,0.00000,0.03087,0.97783,-0.19008,0.0,2023,6,7,17,10,47,483
48.97230,0.14368,0.04778,0.00000,0.03331,0.97441,-0.18959,0.0,2023,6,7,17,10,47,494
48.97240,-0.04882,-0.00472,0.00000,0.03184,0.97539,-0.18617,0.0,2023,6,7,17,10,47,505
48.97250,0.02118,-0.12722,0.00000,0.03184,0.97600,-0.18788,0.0,2023,6,7,17,10,47,516
48.97260,0.10868,-0.10972,0.00000,0.03172,0.97661,-0.18910,0.0,2023,6,7,17,10,47,527
48.97270,0.02118,-0.00472,0.00000,0.03026,0.97588,-0.18825,0.0,2023,6,7,17,10,47,538
48.97280,0.09118,0.04778,0.00000,0.03160,0.97832,-0.18837,0.0,2023,6,7,17,10,47,549
48.97290,0.12618,-0.05722,0.00000,0.03270,0.97698,-0.18764,0.0,2023,6,7,17,10,47,561
48.97300,0.07368,0.06528,0.00000,0.03160,0.97612,-0.18764,0.0,2023,6,7,17,10,47,572
48.97310,0.19618,-0.05722,0.00000,0.03318,0.97624,-0.19020,0.0,2023,6,7,17,10,47,583
48.97320,-0.10132,-0.14472,0.00000,0.03331,0.97624,-0.18898,0.0,2023,6,7,17,10,47,594
48.97330,0.03868,0.11778,0.00000,0.03123,0.97917,-0.18751,0.0,2023,6,7,17,10,47,605
48.97340,0.00368,-0.07472,0.00000,0.03270,0.97673,-0.18654,0.0,2023,6,7,17,10,47,616
48.97350,-0.08382,0.01278,0.00000,0.02952,0.97417,-0.18812,0.0,2023,6,7,17,10,47,628
48.97360,0.24868,-0.31972,0.00000,0.03196,0.97612,-0.18727,0.0,2023,6,7,17,10,47,639
48.97370,-0.03132,-0.00472,0.00000,0.03245,0.97490,-0.19032,0.0,2023,6,7,17,10,47,650
48.97380,-0.15382,0.15278,0.00000,0.03123,0.97893,-0.18715,0.0,2023,6,7,17,10,47,661
48.97390,0.23118,-0.09222,0.00000,0.03440,0.97600,-0.18898,0.0,2023,6,7,17,10,47,672
48.97400,-0.13632,0.24028,0.00000,0.03001,0.97929,-0.19081,0.0,2023,6,7,17,10,47,683
48.97410,-0.04882,-0.02222,0.00000,0.03367,0.97673,-0.18947,0.0,2023,6,7,17,10,47,694
48.97420,0.00368,-0.14472,0.00000,0.03001,0.97588,-0.18800,0.0,2023,6,7,17,10,47,706
48.97430,-0.01382,0.11778,0.00000,0.03257,0.97807,-0.19093,0.0,2023,6,7,17,10,47,717
48.97440,0.00368,-0.05722,0.00000,0.03123,0.97661,-0.18971,0.0,2023,6,7,17,10,47,728
48.97450,0.02118,0.22278,0.00000,0.03367,0.97759,-0.19044,0.0,2023,6,7,17,10,47,739
48.97460,0.16118,0.18778,0.00000,0.03099,0.97612,-0.18703,0.0,2023,6,7,17,10,47,750
48.97470,-0.01382,-0.00472,0.00000,0.03160,0.97649,-0.18751,0.0,2023,6,7,17,10,47,761
48.97480,0.03868,0.04778,0.00000,0.03306,0.97685,-0.18995,0.0,2023,6,7,17,10,47,772
48.97490,-0.13632,0.03028,0.00000,0.03099,0.97868,-0.18739,0.0,2023,6,7,17,10,47,784
48.97500,-0.01382,-0.02222,0.00000,0.03294,0.97661,-0.19081,0.0,2023,6,7,17,10,47,795
48.97510,0.02118,0.03028,0.00000,0.03209,0.97661,-0.18922,0.0,2023,6,7,17,10,47,806
48.97520,0.00368,-0.03972,0.00000,0.03294,0.97527,-0.18825,0.0,2023,6,7,17,10,47,817
48.97530,0.07368,0.03028,0.00000,0.03123,0.97685,-0.19020,0.0,2023,6,7,17,10,47,828
48.97540,0.14368,0.01278,0.00000,0.03172,0.97698,-0.18922,0.0,2023,6,7,17,10,47,839
48.97550,0.00368,-0.05722,0.00000,0.03282,0.97832,-0.18800,0.0,2023,6,7,17,10,47,851
48.97560,-0.06632,-0.07472,0.00000,0.03392,0.97710,-0.18947,0.0,2023,6,7,17,10,47,862
48.97570,-0.17132,-0.02222,0.00000,0.03160,0.97954,-0.18873,0.0,2023,6,7,17,10,47,873
48.97580,0.09118,-0.05722,0.00000,0.03294,0.97576,-0.18934,0.0,2023,6,7,17,10,47,884
48.97590,-0.10132,-0.09222,0.00000,0.03099,0.97746,-0.18727,0.0,2023,6,7,17,10,47,895
48.97600,0.09118,-0.03972,0.00000,0.03306,0.97820,-0.18642,0.0,2023,6,7,17,10,47,906
48.97610,0.10868,-0.05722,0.00000,0.03257,0.97807,-0.18861,0.0,2023,6,7,17,10,47,917
48.97620,0.10868,-0.02222,0.00000,0.02940,0.97759,-0.18788,0.0,2023,6,7,17,10,47,929
48.97630,-0.01382,-0.02222,0.00000,0.03306,0.97502,-0.19239,0.0,2023,6,7,17,10,47,940
48.97640,0.05618,0.04778,0.00000,0.03087,0.97759,-0.18959,0.0,2023,6,7,17,10,47,951
48.97650,-0.08382,0.17028,0.00000,0.03062,0.97539,-0.18812,0.0,2023,6,7,17,10,47,962
48.97660,0.14368,0.06528,0.00000,0.03221,0.97722,-0.18910,0.0,2023,6,7,17,10,47,973
48.97670,0.14368,-0.24972,0.00000,0.03306,0.97685,-0.18934,0.0,2023,6,7,17,10,47,984
48.97680,-0.15382,0.03028,0.00000,0.03148,0.97478,-0.18934,0.0,2023,6,7,17,10,47,995
48.97690,0.14368,0.03028,0.00000,0.03148,0.97771,-0.18678,0.0,2023,6,7,17,10,48,7
48.97700,-0.06632,0.08278,0.00000,0.03343,0.97698,-0.18886,0.0,2023,6,7,17,10,48,18
48.97710,-0.06632,-0.16222,0.00000,0.03355,0.97600,-0.18739,0.0,2023,6,7,17,10,48,29
48.97720,0.10868,0.06528,0.00000,0.02952,0.97832,-0.19032,0.0,2023,6,7,17,10,48,40
48.97730,-0.06632,-0.14472,0.00000,0.03184,0.97576,-0.18873,0.0,2023,6,7,17,10,48,51
48.97740,-0.04882,-0.03972,0.00000,0.03038,0.97783,-0.18751,0.0,2023,6,7,17,10,48,62
48.97750,0.05618,-0.31972,0.00000,0.03123,0.97673,-0.18861,0.0,2023,6,7,17,10,48,74
48.97760,0.07368,-0.10972,0.00000,0.03221,0.97539,-0.18971,0.0,2023,6,7,17,10,48,85
48.97770,-0.08382,-0.14472,0.00000,0.03074,0.97893,-0.18922,0.0,2023,6,7,17,10,48,96
48.97780,0.05618,0.10028,0.00000,0.03209,0.97856,-0.19081,0.0,2023,6,7,17,10,48,107
48.97790,0.23118,0.03028,0.00000,0.03245,0.97685,-0.18739,0.0,2023,6,7,17,10,48,118
48.97800,-0.10132,-0.03972,0.00000,0.03233,0.97576,-0.18849,0.0,2023,6,7,17,10,48,129
48.97810,-0.01382,-0.05722,0.00000,0.03331,0.97966,-0.18800,0.0,2023,6,7,17,10,48,140
48.97820,0.02118,0.06528,0.00000,0.03184,0.97527,-0.19008,0.0,2023,6,7,17,10,48,152
48.97830,-0.03132,-0.03972,0.00000,0.03172,0.97515,-0.18727,0.0,2023,6,7,17,10,48,163
48.97840,0.09118,-0.16222,0.00000,0.03074,0.97649,-0.18947,0.0,2023,6,7,17,10,48,174
48.97850,0.12618,-0.26722,0.00000,0.03038,0.97734,-0.18727,0.0,2023,6,7,17,10,48,185
48.97860,0.05618,-0.16222,0.00000,0.03074,0.97759,-0.18703,0.0,2023,6,7,17,10,48,196
48.97870,-0.03132,0.08278,0.00000,0.03209,0.97405,-0.18739,0.0,2023,6,7,17,10,48,207
48.97880,-0.20632,-0.07472,0.00000,0.03050,0.97759,-0.18764,0.0,2023,6,7,17,10,48,218
48.97890,0.17868,0.06528,0.00000,0.03294,0.97539,-0.19178,0.0,2023,6,7,17,10,48,230
48.97900,0.14368,0.08278,0.00000,0.03062,0.97661,-0.18825,0.0,2023,6,7,17,10,48,241
48.97910,0.12618,0.13528,0.00000,0.03367,0.97539,-0.18751,0.0,2023,6,7,17,10,48,252
48.97920,0.14368,-0.05722,0.00000,0.03221,0.97820,-0.18825,0.0,2023,6,7,17,10,48,263
48.97930,0.03868,-0.12722,0.00000,0.03196,0.97759,-0.19008,0.0,2023,6,7,17,10,48,274
48.97940,0.10868,0.03028,0.00000,0.02952,0.97649,-0.18910,0.0,2023,6,7,17,10,48,285
48.97950,0.02118,0.04778,0.00000,0.03233,0.97405,-0.18873,0.0,2023,6,7,17,10,48,297
48.97960,0.00368,0.03028,0.00000,0.03196,0.97539,-0.18825,0.0,2023,6,7,17,10,48,308
48.97970,-0.03132,0.10028,0.00000,0.03257,0.97710,-0.18898,0.0,2023,6,7,17,10,48,319
48.97980,-0.22382,-0.12722,0.00000,0.03184,0.97673,-0.18715,0.0,2023,6,7,17,10,48,330
48.97990,-0.11882,0.06528,0.00000,0.03355,0.97832,-0.18886,0.0,2023,6,7,17,10,48,341
48.98000,0.12618,-0.03972,0.00000,0.03221,0.97942,-0.18800,0.0,2023,6,7,17,10,48,352
48.98010,0.05618,-0.19722,0.00000,0.03026,0.97576,-0.18666,0.0,2023,6,7,17,10,48,363
48.98020,-0.03132,-0.12722,0.00000,0.03123,0.97490,-0.18800,0.0,2023,6,7,17,10,48,375
48.98030,-0.03132,0.15278,0.00000,0.03343,0.97832,-0.18715,0.0,2023,6,7,17,10,48,386
48.98040,0.10868,-0.12722,0.00000,0.03282,0.97612,-0.18873,0.0,2023,6,7,17,10,48,397
48.98050,0.12618,0.18778,0.00000,0.03282,0.97759,-0.19056,0.0,2023,6,7,17,10,48,408
48.98060,0.10868,-0.02222,0.00000,0.03135,0.97710,-0.18922,0.0,2023,6,7,17,10,48,419
48.98070,-0.11882,-0.07472,0.00000,0.03148,0.97844,-0.18764,0.0,2023,6,7,17,10,48,430
48.98080,0.02118,0.03028,0.00000,0.03306,0.97551,-0.18886,0.0,2023,6,7,17,10,48,441
48.98090,-0.04882,0.11778,0.00000,0.03196,0.97600,-0.18703,0.0,2023,6,7,17,10,48,453
48.98100,0.17868,-0.00472,0.00000,0.03111,0.97612,-0.18849,0.0,2023,6,7,17,10,48,464
48.98110,0.09118,-0.12722,0.00000,0.03245,0.97588,-0.18934,0.0,2023,6,7,17,10,48,475
48.98120,0.21368,-0.26722,0.00000,0.03062,0.97942,-0.18849,0.0,2023,6,7,17,10,48,486
48.98130,0.05618,-0.05722,0.00000,0.03184,0.97661,-0.19081,0.0,2023,6,7,17,10,48,497
48.98140,-0.11882,-0.10972,0.00000,0.03074,0.97624,-0.18825,0.0,2023,6,7,17,10,48,508
48.98150,0.03868,0.03028,0.00000,0.03270,0.97807,-0.18861,0.0,2023,6,7,17,10,48,520
48.98160,0.09118,-0.00472,0.00000,0.03111,0.97551,-0.18764,0.0,2023,6,7,17,10,48,531
48.98170,0.10868,-0.00472,0.00000,0.03379,0.97832,-0.18703,0.0,2023,6,7,17,10,48,542
48.98180,0.00368,0.01278,0.00000,0.03209,0.97588,-0.19069,0.0,2023,6,7,17,10,48,553
48.98190,0.12618,0.01278,0.00000,0.03440,0.97673,-0.18995,0.0,2023,6,7,17,10,48,564
48.98200,0.00368,-0.09222,0.00000,0.03221,0.97673,-0.18947,0.0,2023,6,7,17,10,48,575
48.98210,0.17868,-0.24972,0.00000,0.03123,0.97624,-0.18910,0.0,2023,6,7,17,10,48,586
48.98220,0.12618,-0.05722,0.00000,0.03038,0.97844,-0.19105,0.0,2023,6,7,17,10,48,598
48.98230,0.00368,-0.02222,0.00000,0.03099,0.97795,-0.18751,0.0,2023,6,7,17,10,48,609
48.98240,-0.04882,-0.09222,0.00000,0.03257,0.97722,-0.18739,0.0,2023,6,7,17,10,48,620
48.98250,0.07368,-0.03972,0.00000,0.03453,0.97673,-0.18898,0.0,2023,6,7,17,10,48,631
48.98260,0.07368,-0.17972,0.00000,0.03196,0.97746,-0.18800,0.0,2023,6,7,17,10,48,642
48.98270,0.00368,0.24028,0.00000,0.03196,0.97612,-0.18873,0.0,2023,6,7,17,10,48,653
48.98280,0.07368,-0.02222,0.00000,0.03074,0.97502,-0.18898,0.0,2023,6,7,17,10,48,664
48.98290,0.02118,-0.07472,0.00000,0.03306,0.97783,-0.18825,0.0,2023,6,7,17,10,48,676
48.98300,-0.08382,-0.10972,0.00000,0.02916,0.97637,-0.18703,0.0,2023,6,7,17,10,48,687
48.98310,0.17868,0.04778,0.00000,0.03221,0.97710,-0.19044,0.0,2023,6,7,17,10,48,698
48.98320,0.07368,-0.14472,0.00000,0.03404,0.97478,-0.18739,0.0,2023,6,7,17,10,48,709
48.98330,-0.15382,0.13528,0.00000,0.03245,0.97490,-0.18898,0.0,2023,6,7,17,10,48,720
48.98340,-0.10132,0.03028,0.00000,0.03416,0.97685,-0.18898,0.0,2023,6,7,17,10,48,731
48.98350,0.19618,-0.09222,0.00000,0.03209,0.97490,-0.19069,0.0,2023,6,7,17,10,48,743
48.98360,-0.01382,-0.16222,0.00000,0.02977,0.97917,-0.18983,0.0,2023,6,7,17,10,48,754
48.98370,0.16118,0.01278,0.00000,0.03160,0.97783,-0.18739,0.0,2023,6,7,17,10,48,765
48.98380,-0.03132,0.27528,0.00000,0.03209,0.97600,-0.18739,0.0,2023,6,7,17,10,48,776
48.98390,0.05618,-0.10972,0.00000,0.03062,0.97722,-0.18825,0.0,2023,6,7,17,10,48,787
48.98400,0.03868,-0.12722,0.00000,0.03477,0.97722,-0.18776,0.0,2023,6,7,17,10,48,798
48.98410,0.07368,-0.16222,0.00000,0.03172,0.97661,-0.19105,0.0,2023,6,7,17,10,48,809
48.98420,0.00368,-0.19722,0.00000,0.03013,0.97624,-0.19093,0.0,2023,6,7,17,10,48,821
48.98430,0.05618,-0.12722,0.00000,0.03123,0.97637,-0.18947,0.0,2023,6,7,17,10,48,832
48.98440,-0.22382,0.11778,0.00000,0.03087,0.97466,-0.18764,0.0,2023,6,7,17,10,48,843
48.98450,0.00368,-0.02222,0.00000,0.03257,0.97771,-0.18971,0.0,2023,6,7,17,10,48,854
48.98460,0.07368,-0.09222,0.00000,0.03038,0.97722,-0.18703,0.0,2023,6,7,17,10,48,865
48.98470,0.10868,0.18778,0.00000,0.03257,0.97478,-0.18898,0.0,2023,6,7,17,10,48,876
48.98480,0.10868,-0.09222,0.00000,0.03257,0.97490,-0.18690,0.0,2023,6,7,17,10,48,887
48.98490,0.07368,-0.17972,0.00000,0.03428,0.97637,-0.18617,0.0,2023,6,7,17,10,48,899
48.98500,-0.18882,0.08278,0.00000,0.03001,0.97588,-0.18934,0.0,2023,6,7,17,10,48,910
48.98510,0.24868,0.04778,0.00000,0.03111,0.97539,-0.18910,0.0,2023,6,7,17,10,48,921
48.98520,0.00368,0.15278,0.00000,0.03209,0.97661,-0.19020,0.0,2023,6,7,17,10,48,932
48.98530,-0.13632,-0.07472,0.00000,0.03245,0.97563,-0.18861,0.0,2023,6,7,17,10,48,943
48.98540,-0.06632,-0.23222,0.00000,0.03221,0.97698,-0.19105,0.0,2023,6,7,17,10,48,954
48.98550,0.00368,0.13528,0.00000,0.02940,0.97661,-0.18800,0.0,2023,6,7,17,10,48,966
48.98560,-0.15382,0.22278,0.00000,0.03404,0.97661,-0.18898,0.0,2023,6,7,17,10,48,977
48.98570,-0.01382,-0.10972,0.00000,0.03257,0.97539,-0.19032,0.0,2023,6,7,17,10,48,988
48.98580,0.24868,-0.10972,0.00000,0.03331,0.97795,-0.18886,0.0,2023,6,7,17,10,49,999
48.98590,0.03868,-0.02222,0.00000,0.03184,0.97490,-0.18934,0.0,2023,6,7,17,10,49,10
48.98600,0.09118,0.01278,0.00000,0.03233,0.97698,-0.18861,0.0,2023,6,7,17,10,49,21
48.98610,-0.10132,-0.02222,0.00000,0.03343,0.97685,-0.18776,0.0,2023,6,7,17,10,49,32
48.98620,-0.01382,-0.05722,0.00000,0.03135,0.97917,-0.18873,0.0,2023,6,7,17,10,49,44
48.98630,0.07368,-0.07472,0.00000,0.03184,0.97966,-0.18861,0.0,2023,6,7,17,10,49,55
48.98640,-0.04882,0.01278,0.00000,0.03233,0.97759,-0.18959,0.0,2023,6,7,17,10,49,66
48.98650,0.03868,0.03028,0.00000,0.02989,0.97612,-0.19215,0.0,2023,6,7,17,10,49,77
48.98660,0.14368,-0.10972,0.00000,0.03379,0.97807,-0.18934,0.0,2023,6,7,17,10,49,88
48.98670,-0.03132,0.01278,0.00000,0.03001,0.97685,-0.18861,0.0,2023,6,7,17,10,49,99
48.98680,-0.01382,0.01278,0.00000,0.03209,0.97539,-0.18971,0.0,2023,6,7,17,10,49,110
48.98690,0.14368,-0.12722,0.00000,0.03172,0.97478,-0.18861,0.0,2023,6,7,17,10,49,122
48.98700,0.03868,0.10028,0.00000,0.03111,0.97612,-0.18959,0.0,2023,6,7,17,10,49,133
48.98710,0.00368,-0.00472,0.00000,0.03062,0.97759,-0.18934,0.0,2023,6,7,17,10,49,144
48.98720,0.10868,-0.07472,0.00000,0.03257,0.97795,-0.18947,0.0,2023,6,7,17,10,49,155
48.98730,0.02118,-0.23222,0.00000,0.03294,0.97795,-0.19117,0.0,2023,6,7,17,10,49,166
48.98740,0.05618,-0.10972,0.00000,0.02989,0.97637,-0.18995,0.0,2023,6,7,17,10,49,177
48.98750,-0.13632,-0.05722,0.00000,0.03135,0.97807,-0.19008,0.0,2023,6,7,17,10,49,189
48.98760,-0.06632,-0.07472,0.00000,0.03038,0.97759,-0.18861,0.0,2023,6,7,17,10,49,200
48.98770,-0.03132,-0.16222,0.00000,0.03221,0.97612,-0.18886,0.0,2023,6,7,17,10,49,211
48.98780,-0.03132,-0.07472,0.00000,0.03099,0.97588,-0.18934,0.0,2023,6,7,17,10,49,222
48.98790,0.14368,-0.09222,0.00000,0.03123,0.97771,-0.19191,0.0,2023,6,7,17,10,49,233
48.98800,-0.01382,-0.02222,0.00000,0.03196,0.97502,-0.18947,0.0,2023,6,7,17,10,49,244
48.98810,-0.08382,-0.03972,0.00000,0.03111,0.97881,-0.18776,0.0,2023,6,7,17,10,49,255
48.98820,-0.03132,0.06528,0.00000,0.03270,0.97673,-0.18715,0.0,2023,6,7,17,10,49,267
48.98830,0.03868,-0.09222,0.00000,0.03184,0.97868,-0.18922,0.0,2023,6,7,17,10,49,278
48.98840,0.00368,0.03028,0.00000,0.03123,0.97698,-0.18922,0.0,2023,6,7,17,10,49,289
48.98850,0.02118,-0.05722,0.00000,0.03172,0.97807,-0.18715,0.0,2023,6,7,17,10,49,300
48.98860,0.07368,-0.03972,0.00000,0.02782,0.97820,-0.18849,0.0,2023,6,7,17,10,49,311
48.98870,0.00368,-0.10972,0.00000,0.03184,0.97856,-0.18959,0.0,2023,6,7,17,10,49,322
48.98880,0.10868,0.15278,0.00000,0.03062,0.97734,-0.18983,0.0,2023,6,7,17,10,49,333
48.98890,-0.01382,0.01278,0.00000,0.03318,0.97795,-0.18947,0.0,2023,6,7,17,10,49,345
48.98900,-0.17132,-0.30222,0.00000,0.03196,0.97685,-0.18703,0.0,2023,6,7,17,10,49,356
48.98910,-0.17132,0.01278,0.00000,0.03160,0.97698,-0.18764,0.0,2023,6,7,17,10,49,367
48.98920,0.16118,-0.28472,0.00000,0.03184,0.97502,-0.19069,0.0,2023,6,7,17,10,49,378
48.98930,-0.01382,0.15278,0.00000,0.03013,0.97783,-0.18947,0.0,2023,6,7,17,10,49,389
48.98940,-0.06632,0.18778,0.00000,0.03245,0.97673,-0.18800,0.0,2023,6,7,17,10,49,400
48.98950,-0.11882,-0.12722,0.00000,0.03123,0.97698,-0.18800,0.0,2023,6,7,17,10,49,412
48.98960,0.09118,0.08278,0.00000,0.03257,0.97637,-0.18837,0.0,2023,6,7,17,10,49,423
48.98970,0.02118,0.01278,0.00000,0.03172,0.97612,-0.19069,0.0,2023,6,7,17,10,49,434
48.98980,-0.15382,0.24028,0.00000,0.03270,0.97563,-0.19105,0.0,2023,6,7,17,10,49,445
48.98990,-0.01382,0.11778,0.00000,0.03148,0.97771,-0.19032,0.0,2023,6,7,17,10,49,456
48.99000,-0.11882,-0.05722,0.00000,0.03355,0.97502,-0.18800,0.0,2023,6,7,17,10,49,467
48.99010,0.14368,-0.19722,0.00000,0.03160,0.97698,-0.18934,0.0,2023,6,7,17,10,49,478
48.99020,-0.06632,0.10028,0.00000,0.03160,0.97637,-0.18764,0.0,2023,6,7,17,10,49,490
48.99030,-0.06632,-0.24972,0.00000,0.03013,0.97600,-0.19349,0.0,2023,6,7,17,10,49,501
48.99040,0.16118,-0.30222,0.00000,0.03404,0.97624,-0.18971,0.0,2023,6,7,17,10,49,512
48.99050,-0.10132,0.08278,0.00000,0.03379,0.97893,-0.18898,0.0,2023,6,7,17,10,49,523
48.99060,0.02118,-0.03972,0.00000,0.03148,0.97759,-0.18959,0.0,2023,6,7,17,10,49,534
48.99070,-0.08382,0.04778,0.00000,0.03404,0.97856,-0.18849,0.0,2023,6,7,17,10,49,545
48.99080,-0.15382,-0.03972,0.00000,0.03270,0.97771,-0.18934,0.0,2023,6,7,17,10,49,556
48.99090,-0.04882,0.03028,0.00000,0.03318,0.97649,-0.18776,0.0,2023,6,7,17,10,49,568
48.99100,-0.10132,0.03028,0.00000,0.03050,0.97795,-0.18788,0.0,2023,6,7,17,10,49,579
48.99110,-0.01382,0.06528,0.00000,0.03257,0.97868,-0.19117,0.0,2023,6,7,17,10,49,590
48.99120,0.19618,0.01278,0.00000,0.03013,0.97893,-0.19008,0.0,2023,6,7,17,10,49,601
48.99130,-0.18882,-0.09222,0.00000,0.03013,0.97832,-0.18861,0.0,2023,6,7,17,10,49,612
48.99140,0.16118,-0.00472,0.00000,0.03453,0.97661,-0.18898,0.0,2023,6,7,17,10,49,623
48.99150,0.03868,-0.02222,0.00000,0.03196,0.97649,-0.18934,0.0,2023,6,7,17,10,49,635
48.99160,-0.04882,-0.07472,0.00000,0.03001,0.97673,-0.19093,0.0,2023,6,7,17,10,49,646
48.99170,0.07368,-0.09222,0.00000,0.02940,0.97746,-0.19093,0.0,2023,6,7,17,10,49,657
48.99180,-0.17132,0.06528,0.00000,0.03392,0.97832,-0.18739,0.0,2023,6,7,17,10,49,668
48.99190,0.26618,-0.10972,0.00000,0.03367,0.97649,-0.18812,0.0,2023,6,7,17,10,49,679
48.99200,-0.08382,0.03028,0.00000,0.03160,0.97612,-0.19032,0.0,2023,6,7,17,10,49,690
48.99210,0.07368,0.01278,0.00000,0.03087,0.97539,-0.19130,0.0,2023,6,7,17,10,49,701
48.99220,0.03868,0.18778,0.00000,0.03111,0.97600,-0.19032,0.0,2023,6,7,17,10,49,713
48.99230,0.03868,0.08278,0.00000,0.03233,0.97722,-0.18910,0.0,2023,6,7,17,10,49,724
48.99240,-0.18882,-0.00472,0.00000,0.03270,0.97685,-0.18971,0.0,2023,6,7,17,10,49,735
48.99250,-0.10132,-0.10972,0.00000,0.03196,0.97698,-0.18959,0.0,2023,6,7,17,10,49,746
48.99260,-0.10132,0.11778,0.00000,0.03135,0.97588,-0.19069,0.0,2023,6,7,17,10,49,757
48.99270,0.00368,-0.05722,0.00000,0.02965,0.97673,-0.19374,0.0,2023,6,7,17,10,49,768
48.99280,0.07368,0.03028,0.00000,0.03038,0.97600,-0.18873,0.0,2023,6,7,17,10,49,779
48.99290,0.09118,0.11778,0.00000,0.03123,0.97576,-0.18873,0.0,2023,6,7,17,10,49,791
48.99300,0.00368,0.11778,0.00000,0.03318,0.97515,-0.18873,0.0,2023,6,7,17,10,49,802
48.99310,0.07368,-0.03972,0.00000,0.03331,0.97746,-0.18922,0.0,2023,6,7,17,10,49,813
48.99320,-0.04882,0.06528,0.00000,0.02952,0.97649,-0.18934,0.0,2023,6,7,17,10,49,824
48.99330,-0.08382,0.08278,0.00000,0.03123,0.97588,-0.18947,0.0,2023,6,7,17,10,49,835
48.99340,-0.04882,0.06528,0.00000,0.03245,0.97637,-0.18886,0.0,2023,6,7,17,10,49,846
48.99350,-0.03132,-0.10972,0.00000,0.03306,0.97698,-0.19032,0.0,2023,6,7,17,10,49,858
48.99360,-0.01382,-0.00472,0.00000,0.03038,0.97820,-0.18886,0.0,2023,6,7,17,10,49,869
48.99370,0.19618,0.10028,0.00000,0.03148,0.97893,-0.18788,0.0,2023,6,7,17,10,49,880
48.99380,0.14368,-0.07472,0.00000,0.03184,0.97588,-0.18837,0.0,2023,6,7,17,10,49,891
48.99390,0.03868,0.17028,0.00000,0.03270,0.97624,-0.18459,0.0,2023,6,7,17,10,49,902
48.99400,0.05618,-0.12722,0.00000,0.03074,0.97649,-0.18800,0.0,2023,6,7,17,10,49,913
48.99410,-0.03132,-0.05722,0.00000,0.03379,0.97795,-0.19105,0.0,2023,6,7,17,10,49,924
48.99420,0.23118,-0.09222,0.00000,0.03209,0.97832,-0.18605,0.0,2023,6,7,17,10,49,936
48.99430,0.14368,0.01278,0.00000,0.03233,0.97551,-0.18910,0.0,2023,6,7,17,10,49,947
48.99440,0.00368,-0.05722,0.00000,0.03343,0.97502,-0.18910,0.0,2023,6,7,17,10,49,958
48.99450,-0.08382,-0.16222,0.00000,0.03001,0.97820,-0.19178,0.0,2023,6,7,17,10,49,969
48.99460,0.03868,0.25778,0.00000,0.02916,0.97576,-0.19020,0.0,2023,6,7,17,10,49,980
48.99470,0.03868,0.03028,0.00000,0.03331,0.97551,-0.18873,0.0,2023,6,7,17,10,50,991
48.99480,0.02118,-0.07472,0.00000,0.03270,0.97673,-0.18861,0.0,2023,6,7,17,10,50,2
48.99490,0.03868,-0.14472,0.00000,0.03099,0.97820,-0.18800,0.0,2023,6,7,17,10,50,14
48.99500,-0.06632,0.13528,0.00000,0.03062,0.97734,-0.19239,0.0,2023,6,7,17,10,50,25
48.99510,0.05618,-0.23222,0.00000,0.02928,0.97820,-0.18995,0.0,2023,6,7,17,10,50,36
48.99520,0.02118,0.20528,0.00000,0.03087,0.97576,-0.18861,0.0,2023,6,7,17,10,50,47
48.99530,-0.06632,0.04778,0.00000,0.03172,0.97624,-0.18873,0.0,2023,6,7,17,10,50,58
48.99540,0.10868,-0.02222,0.00000,0.03355,0.97734,-0.18593,0.0,2023,6,7,17,10,50,69
48.99550,-0.06632,-0.10972,0.00000,0.03160,0.97759,-0.18910,0.0,2023,6,7,17,10,50,81
48.99560,0.10868,-0.03972,0.00000,0.03038,0.97832,-0.19020,0.0,2023,6,7,17,10,50,92
48.99570,-0.01382,0.17028,0.00000,0.03196,0.97759,-0.18898,0.0,2023,6,7,17,10,50,103
48.99580,0.10868,-0.05722,0.00000,0.03209,0.97612,-0.18739,0.0,2023,6,7,17,10,50,114
48.99590,-0.15382,0.17028,0.00000,0.03282,0.97612,-0.18812,0.0,2023,6,7,17,10,50,125
48.99600,-0.08382,0.20528,0.00000,0.03233,0.97563,-0.18788,0.0,2023,6,7,17,10,50,136
48.99610,-0.03132,-0.12722,0.00000,0.02916,0.97685,-0.18898,0.0,2023,6,7,17,10,50,147
48.99620,0.07368,-0.02222,0.00000,0.03013,0.97844,-0.19227,0.0,2023,6,7,17,10,50,159
48.99630,-0.01382,0.04778,0.00000,0.03050,0.97588,-0.18898,0.0,2023,6,7,17,10,50,170
48.99640,-0.04882,-0.03972,0.00000,0.03355,0.97734,-0.19044,0.0,2023,6,7,17,10,50,181
48.99650,0.23118,-0.03972,0.00000,0.03318,0.97966,-0.18934,0.0,2023,6,7,17,10,50,192
48.99660,0.03868,-0.17972,0.00000,0.03306,0.97722,-0.18861,0.0,2023,6,7,17,10,50,203
48.99670,0.12618,0.20528,0.00000,0.03209,0.97734,-0.19020,0.0,2023,6,7,17,10,50,214
48.99680,0.21368,-0.10972,0.00000,0.03209,0.97649,-0.18983,0.0,2023,6,7,17,10,50,225
48.99690,-0.18882,0.03028,0.00000,0.03172,0.97637,-0.18873,0.0,2023,6,7,17,10,50,237
48.99700,-0.06632,-0.16222,0.00000,0.03282,0.97649,-0.18922,0.0,2023,6,7,17,10,50,248
48.99710,-0.10132,0.03028,0.00000,0.03343,0.97710,-0.18776,0.0,2023,6,7,17,10,50,259
48.99720,0.07368,0.06528,0.00000,0.02952,0.97734,-0.19130,0.0,2023,6,7,17,10,50,270
48.99730,0.10868,0.06528,0.00000,0.03184,0.97576,-0.18898,0.0,2023,6,7,17,10,50,281
48.99740,0.02118,-0.05722,0.00000,0.03123,0.97649,-0.18971,0.0,2023,6,7,17,10,50,292
48.99750,0.00368,0.03028,0.00000,0.03306,0.97405,-0.18959,0.0,2023,6,7,17,10,50,304
48.99760,-0.04882,0.10028,0.00000,0.03087,0.97637,-0.18873,0.0,2023,6,7,17,10,50,315
48.99770,-0.10132,0.10028,0.00000,0.03087,0.97588,-0.18861,0.0,2023,6,7,17,10,50,326
48.99780,0.09118,-0.14472,0.00000,0.03318,0.97698,-0.19325,0.0,2023,6,7,17,10,50,337
48.99790,-0.13632,-0.16222,0.00000,0.03404,0.97698,-0.18800,0.0,2023,6,7,17,10,50,348
48.99800,0.19618,-0.26722,0.00000,0.03257,0.97612,-0.18886,0.0,2023,6,7,17,10,50,359
48.99810,-0.17132,-0.16222,0.00000,0.03343,0.97649,-0.18886,0.0,2023,6,7,17,10,50,370
48.99820,0.16118,-0.05722,0.00000,0.03074,0.97722,-0.18825,0.0,2023,6,7,17,10,50,382
48.99830,-0.08382,0.03028,0.00000,0.03001,0.97588,-0.18861,0.0,2023,6,7,17,10,50,393
48.99840,0.09118,-0.00472,0.00000,0.03306,0.97746,-0.18825,0.0,2023,6,7,17,10,50,404
48.99850,0.05618,0.03028,0.00000,0.03270,0.98003,-0.18934,0.0,2023,6,7,17,10,50,415
48.99860,0.03868,-0.03972,0.00000,0.03233,0.97722,-0.18605,0.0,2023,6,7,17,10,50,426
48.99870,0.02118,0.01278,0.00000,0.03074,0.97649,-0.19215,0.0,2023,6,7,17,10,50,437
48.99880,0.12618,-0.03972,0.00000,0.03111,0.97551,-0.19203,0.0,2023,6,7,17,10,50,448
48.99890,0.12618,-0.07472,0.00000,0.03209,0.97807,-0.18581,0.0,2023,6,7,17,10,50,460
48.99900,0.05618,-0.12722,0.00000,0.03196,0.97441,-0.18922,0.0,2023,6,7,17,10,50,471
48.99910,0.17868,-0.09222,0.00000,0.03294,0.97588,-0.18910,0.0,2023,6,7,17,10,50,482
48.99920,-0.17132,-0.12722,0.00000,0.03221,0.97698,-0.19056,0.0,2023,6,7,17,10,50,493
48.99930,-0.04882,0.10028,0.00000,0.03209,0.97649,-0.18812,0.0,2023,6,7,17,10,50,504
48.99940,0.03868,-0.23222,0.00000,0.03013,0.97551,-0.18971,0.0,2023,6,7,17,10,50,515
48.99950,-0.06632,0.25778,0.00000,0.03160,0.97820,-0.18825,0.0,2023,6,7,17,10,50,527
48.99960,0.03868,0.08278,0.00000,0.03160,0.97893,-0.18922,0.0,2023,6,7,17,10,50,538
48.99970,0.02118,0.04778,0.00000,0.03172,0.97588,-0.18861,0.0,2023,6,7,17,10,50,549
48.99980,0.02118,0.06528,0.00000,0.03074,0.97612,-0.18788,0.0,2023,6,7,17,10,50,560
48.99990,0.05618,-0.19722,0.00000,0.03294,0.97454,-0.18910,0.0,2023,6,7,17,10,50,571
49.00000,0.10868,0.15278,0.00000,0.03306,0.97637,-0.18837,0.0,2023,6,7,17,10,50,582
49.00010,-0.03132,0.17028,0.00000,0.03257,0.97783,-0.18983,0.0,2023,6,7,17,10,50,593
49.00020,0.00368,-0.09222,0.00000,0.03038,0.97734,-0.19130,0.0,2023,6,7,17,10,50,605
49.00030,-0.17132,-0.09222,0.00000,0.03270,0.97637,-0.18837,0.0,2023,6,7,17,10,50,616
49.00040,0.05618,-0.16222,0.00000,0.03209,0.97722,-0.18910,0.0,2023,6,7,17,10,50,627
49.00050,-0.04882,-0.21472,0.00000,0.03172,0.97673,-0.18910,0.0,2023,6,7,17,10,50,638
49.00060,0.07368,-0.07472,0.00000,0.03087,0.97466,-0.18922,0.0,2023,6,7,17,10,50,649
49.00070,-0.01382,-0.00472,0.00000,0.03294,0.97746,-0.18776,0.0,2023,6,7,17,10,50,660
49.00080,0.10868,-0.17972,0.00000,0.03294,0.97710,-0.18678,0.0,2023,6,7,17,10,50,671
49.00090,0.14368,-0.09222,0.00000,0.03062,0.97600,-0.18812,0.0,2023,6,7,17,10,50,683
49.00100,-0.04882,0.06528,0.00000,0.03050,0.97698,-0.19288,0.0,2023,6,7,17,10,50,694
49.00110,0.16118,-0.07472,0.00000,0.03123,0.97612,-0.19056,0.0,2023,6,7,17,10,50,705
49.00120,-0.01382,0.18778,0.00000,0.03257,0.97588,-0.18764,0.0,2023,6,7,17,10,50,716
49.00130,0.12618,-0.16222,0.00000,0.02989,0.97612,-0.19044,0.0,2023,6,7,17,10,50,727
49.00140,-0.10132,0.01278,0.00000,0.03160,0.97698,-0.18800,0.0,2023,6,7,17,10,50,738
49.00150,-0.08382,-0.07472,0.00000,0.03331,0.97673,-0.18959,0.0,2023,6,7,17,10,50,750
49.00160,0.12618,-0.28472,0.00000,0.03196,0.97551,-0.19008,0.0,2023,6,7,17,10,50,761
49.00170,-0.10132,-0.07472,0.00000,0.03343,0.97820,-0.18837,0.0,2023,6,7,17,10,50,772
49.00180,-0.06632,0.17028,0.00000,0.03294,0.98003,-0.18825,0.0,2023,6,7,17,10,50,783
49.00190,0.16118,0.10028,0.00000,0.03294,0.97551,-0.18971,0.0,2023,6,7,17,10,50,794
49.00200,0.02118,0.04778,0.00000,0.03099,0.97527,-0.18983,0.0,2023,6,7,17,10,50,805
49.00210,-0.11882,0.01278,0.00000,0.03184,0.97527,-0.18861,0.0,2023,6,7,17,10,50,816
49.00220,0.03868,-0.02222,0.00000,0.03050,0.97563,-0.18812,0.0,2023,6,7,17,10,50,828
49.00230,-0.18882,0.18778,0.00000,0.03111,0.97759,-0.18849,0.0,2023,6,7,17,10,50,839
49.00240,0.09118,-0.09222,0.00000,0.03111,0.97673,-0.19069,0.0,2023,6,7,17,10,50,850
49.00250,0.19618,0.20528,0.00000,0.03160,0.97612,-0.18910,0.0,2023,6,7,17,10,50,861
49.00260,0.03868,-0.02222,0.00000,0.03184,0.97685,-0.18947,0.0,2023,6,7,17,10,50,872
49.00270,0.09118,-0.00472,0.00000,0.03245,0.97661,-0.18825,0.0,2023,6,7,17,10,50,883
49.00280,0.21368,-0.17972,0.00000,0.03050,0.97807,-0.18959,0.0,2023,6,7,17,10,50,894
49.00290,0.14368,-0.00472,0.00000,0.03172,0.97600,-0.19215,0.0,2023,6,7,17,10,50,906
49.00300,-0.18882,0.15278,0.00000,0.03135,0.97637,-0.18910,0.0,2023,6,7,17,10,50,917
49.00310,-0.04882,0.01278,0.00000,0.03501,0.97783,-0.18703,0.0,2023,6,7,17,10,50,928
49.00320,-0.01382,-0.09222,0.00000,0.03123,0.97685,-0.18629,0.0,2023,6,7,17,10,50,939
49.00330,-0.03132,0.24028,0.00000,0.03074,0.97624,-0.19178,0.0,2023,6,7,17,10,50,950
49.00340,-0.13632,-0.00472,0.00000,0.03489,0.97722,-0.18910,0.0,2023,6,7,17,10,50,961
49.00350,-0.10132,-0.16222,0.00000,0.03123,0.97661,-0.18727,0.0,2023,6,7,17,10,50,973
49.00360,-0.13632,0.03028,0.00000,0.03501,0.97844,-0.18910,0.0,2023,6,7,17,10,50,984
49.00370,-0.08382,0.13528,0.00000,0.03148,0.97820,-0.18678,0.0,2023,6,7,17,10,51,995
49.00380,-0.01382,-0.12722,0.00000,0.03184,0.97478,-0.18910,0.0,2023,6,7,17,10,51,6
49.00390,-0.08382,0.24028,0.00000,0.03282,0.97698,-0.18959,0.0,2023,6,7,17,10,51,17
49.00400,0.02118,-0.00472,0.00000,0.03331,0.97649,-0.18837,0.0,2023,6,7,17,10,51,28
49.00410,0.05618,-0.03972,0.00000,0.03245,0.97515,-0.19020,0.0,2023,6,7,17,10,51,39
49.00420,0.03868,0.03028,0.00000,0.03160,0.97649,-0.19008,0.0,2023,6,7,17,10,51,51
49.00430,0.05618,0.11778,0.00000,0.03233,0.97551,-0.18910,0.0,2023,6,7,17,10,51,62
49.00440,-0.01382,0.03028,0.00000,0.03282,0.97771,-0.18666,0.0,2023,6,7,17,10,51,73
49.00450,-0.03132,-0.03972,0.00000,0.03172,0.97698,-0.18825,0.0,2023,6,7,17,10,51,84
49.00460,0.00368,-0.12722,0.00000,0.03257,0.97685,-0.18873,0.0,2023,6,7,17,10,51,95
49.00470,-0.04882,0.29278,0.00000,0.03233,0.97539,-0.19142,0.0,2023,6,7,17,10,51,106
49.00480,0.10868,-0.10972,0.00000,0.03087,0.97685,-0.18971,0.0,2023,6,7,17,10,51,117
49.00490,-0.06632,-0.05722,0.00000,0.03184,0.97612,-0.19008,0.0,2023,6,7,17,10,51,129
49.00500,0.03868,0.08278,0.00000,0.03196,0.97551,-0.18922,0.0,2023,6,7,17,10,51,140
49.00510,-0.01382,0.08278,0.00000,0.03135,0.97771,-0.18947,0.0,2023,6,7,17,10,51,151
49.00520,-0.04882,-0.12722,0.00000,0.03294,0.97685,-0.18947,0.0,2023,6,7,17,10,51,162
49.00530,0.12618,-0.16222,0.00000,0.03099,0.97917,-0.18617,0.0,2023,6,7,17,10,51,173
49.00540,0.05618,-0.17972,0.00000,0.02952,0.97881,-0.18800,0.0,2023,6,7,17,10,51,184
49.00550,0.05618,-0.10972,0.00000,0.03172,0.97771,-0.18837,0.0,2023,6,7,17,10,51,196
49.00560,-0.20632,0.01278,0.00000,0.03245,0.97954,-0.18886,0.0,2023,6,7,17,10,51,207
49.00570,0.09118,0.04778,0.00000,0.03123,0.97734,-0.18788,0.0,2023,6,7,17,10,51,218
49.00580,-0.03132,-0.09222,0.00000,0.03392,0.97661,-0.18947,0.0,2023,6,7,17,10,51,229
49.00590,0.26618,-0.02222,0.00000,0.03209,0.97820,-0.18971,0.0,2023,6,7,17,10,51,240
49.00600,0.03868,-0.09222,0.00000,0.03245,0.97466,-0.19056,0.0,2023,6,7,17,10,51,251
49.00610,-0.03132,0.01278,0.00000,0.03111,0.97637,-0.18593,0.0,2023,6,7,17,10,51,262
49.00620,-0.11882,0.10028,0.00000,0.03282,0.97466,-0.18922,0.0,2023,6,7,17,10,51,274
49.00630,-0.10132,0.01278,0.00000,0.03013,0.97661,-0.18910,0.0,2023,6,7,17,10,51,285
49.00640,0.02118,-0.12722,0.00000,0.03221,0.97576,-0.19056,0.0,2023,6,7,17,10,51,296
49.00650,0.24868,0.11778,0.00000,0.03196,0.97539,-0.18812,0.0,2023,6,7,17,10,51,307
49.00660,-0.01382,0.11778,0.00000,0.03123,0.97917,-0.18886,0.0,2023,6,7,17,10,51,318
49.00670,0.03868,0.13528,0.00000,0.03270,0.97624,-0.18812,0.0,2023,6,7,17,10,51,329
49.00680,0.28368,-0.09222,0.00000,0.03135,0.97734,-0.19166,0.0,2023,6,7,17,10,51,340
49.00690,0.14368,-0.00472,0.00000,0.03111,0.97551,-0.18666,0.0,2023,6,7,17,10,51,352
49.00700,0.19618,-0.03972,0.00000,0.03245,0.97710,-0.18751,0.0,2023,6,7,17,10,51,363
49.00710,-0.13632,-0.09222,0.00000,0.03172,0.97832,-0.18776,0.0,2023,6,7,17,10,51,374
49.00720,0.00368,-0.16222,0.00000,0.03050,0.97795,-0.19032,0.0,2023,6,7,17,10,51,385
49.00730,0.07368,-0.05722,0.00000,0.03282,0.97710,-0.18703,0.0,2023,6,7,17,10,51,396
49.00740,-0.10132,-0.03972,0.00000,0.03257,0.97612,-0.18654,0.0,2023,6,7,17,10,51,407
49.00750,-0.06632,0.10028,0.00000,0.03233,0.97795,-0.18532,0.0,2023,6,7,17,10,51,419
49.00760,0.00368,-0.03972,0.00000,0.03331,0.97722,-0.18849,0.0,2023,6,7,17,10,51,430
49.00770,0.07368,-0.24972,0.00000,0.03209,0.97734,-0.18788,0.0,2023,6,7,17,10,51,441
49.00780,-0.04882,0.04778,0.00000,0.03221,0.97698,-0.18642,0.0,2023,6,7,17,10,51,452
49.00790,0.02118,0.04778,0.00000,0.03160,0.97722,-0.18873,0.0,2023,6,7,17,10,51,463
49.00800,-0.08382,0.13528,0.00000,0.03135,0.97746,-0.19142,0.0,2023,6,7,17,10,51,474
49.00810,-0.08382,0.01278,0.00000,0.03343,0.97807,-0.18788,0.0,2023,6,7,17,10,51,485
49.00820,-0.04882,0.06528,0.00000,0.03392,0.97807,-0.18825,0.0,2023,6,7,17,10,51,497
49.00830,-0.11882,-0.10972,0.00000,0.03245,0.97710,-0.18812,0.0,2023,6,7,17,10,51,508
49.00840,0.02118,0.01278,0.00000,0.03050,0.97771,-0.18825,0.0,2023,6,7,17,10,51,519
49.00850,-0.01382,0.06528,0.00000,0.03087,0.97759,-0.19166,0.0,2023,6,7,17,10,51,530
49.00860,0.19618,0.04778,0.00000,0.03111,0.97600,-0.19178,0.0,2023,6,7,17,10,51,541
49.00870,-0.03132,-0.00472,0.00000,0.03282,0.97856,-0.18922,0.0,2023,6,7,17,10,51,552
49.00880,0.03868,-0.07472,0.00000,0.02855,0.97600,-0.18800,0.0,2023,6,7,17,10,51,563
49.00890,0.05618,-0.19722,0.00000,0.03074,0.97661,-0.19093,0.0,2023,6,7,17,10,51,575
49.00900,0.12618,-0.05722,0.00000,0.03306,0.97478,-0.18617,0.0,2023,6,7,17,10,51,586
49.00910,0.16118,-0.07472,0.00000,0.03160,0.97771,-0.18849,0.0,2023,6,7,17,10,51,597
49.00920,-0.10132,0.17028,0.00000,0.03355,0.97600,-0.18910,0.0,2023,6,7,17,10,51,608
49.00930,0.00368,-0.05722,0.00000,0.03318,0.97612,-0.19081,0.0,2023,6,7,17,10,51,619
49.00940,-0.03132,0.03028,0.00000,0.03245,0.97807,-0.18544,0.0,2023,6,7,17,10,51,630
49.00950,0.07368,-0.23222,0.00000,0.03074,0.97893,-0.18837,0.0,2023,6,7,17,10,51,642
49.00960,-0.01382,0.04778,0.00000,0.03099,0.97868,-0.18934,0.0,2023,6,7,17,10,51,653
49.00970,0.23118,-0.24972,0.00000,0.03074,0.97771,-0.18837,0.0,2023,6,7,17,10,51,664
49.00980,0.23118,-0.23222,0.00000,0.02965,0.97698,-0.18825,0.0,2023,6,7,17,10,51,675
49.00990,-0.22382,-0.02222,0.00000,0.03379,0.97539,-0.18703,0.0,2023,6,7,17,10,51,686
49.01000,-0.03132,0.24028,0.00000,0.03233,0.97795,-0.18788,0.0,2023,6,7,17,10,51,697
49.01010,-0.03132,-0.10972,0.00000,0.03343,0.97746,-0.19166,0.0,2023,6,7,17,10,51,708
49.01020,0.07368,-0.17972,0.00000,0.03111,0.97820,-0.18971,0.0,2023,6,7,17,10,51,720
49.01030,0.07368,-0.03972,0.00000,0.03221,0.97881,-0.18922,0.0,2023,6,7,17,10,51,731
49.01040,0.09118,0.08278,0.00000,0.03270,0.97429,-0.18898,0.0,2023,6,7,17,10,51,742
49.01050,0.07368,-0.19722,0.00000,0.03099,0.97661,-0.19093,0.0,2023,6,7,17,10,51,753
49.01060,-0.01382,0.04778,0.00000,0.03428,0.97551,-0.18654,0.0,2023,6,7,17,10,51,764
49.01070,0.10868,-0.16222,0.00000,0.03196,0.97539,-0.18678,0.0,2023,6,7,17,10,51,775
49.01080,-0.06632,-0.21472,0.00000,0.03196,0.97661,-0.18751,0.0,2023,6,7,17,10,51,786
49.01090,0.21368,-0.09222,0.00000,0.03099,0.97807,-0.18861,0.0,2023,6,7,17,10,51,798
49.01100,0.21368,-0.16222,0.00000,0.03172,0.97685,-0.18934,0.0,2023,6,7,17,10,51,809
49.01110,0.05618,0.01278,0.00000,0.03038,0.97783,-0.18812,0.0,2023,6,7,17,10,51,820
49.01120,-0.08382,0.08278,0.00000,0.03245,0.97624,-0.18934,0.0,2023,6,7,17,10,51,831
49.01130,0.02118,0.06528,0.00000,0.03111,0.97673,-0.18934,0.0,2023,6,7,17,10,51,842
49.01140,0.09118,-0.10972,0.00000,0.03135,0.97685,-0.19008,0.0,2023,6,7,17,10,51,853
49.01150,0.17868,-0.28472,0.00000,0.03062,0.97807,-0.18837,0.0,2023,6,7,17,10,51,865
49.01160,0.19618,-0.02222,0.00000,0.03111,0.97637,-0.18886,0.0,2023,6,7,17,10,51,876
49.01170,0.03868,0.11778,0.00000,0.03123,0.97844,-0.18849,0.0,2023,6,7,17,10,51,887
49.01180,0.17868,-0.00472,0.00000,0.03123,0.97771,-0.18788,0.0,2023,6,7,17,10,51,898
49.01190,0.16118,-0.14472,0.00000,0.03245,0.97600,-0.18788,0.0,2023,6,7,17,10,51,909
49.01200,-0.15382,0.20528,0.00000,0.03306,0.97490,-0.18873,0.0,2023,6,7,17,10,51,920
49.01210,0.05618,0.08278,0.00000,0.02989,0.97673,-0.18873,0.0,2023,6,7,17,10,51,931
49.01220,0.21368,-0.02222,0.00000,0.03148,0.97990,-0.19093,0.0,2023,6,7,17,10,51,943
49.01230,0.12618,0.01278,0.00000,0.03148,0.97515,-0.18995,0.0,2023,6,7,17,10,51,954
49.01240,-0.04882,-0.07472,0.00000,0.03148,0.97612,-0.18959,0.0,2023,6,7,17,10,51,965
49.01250,0.17868,-0.05722,0.00000,0.03294,0.97454,-0.18715,0.0,2023,6,7,17,10,51,976
49.01260,-0.08382,-0.10972,0.00000,0.03050,0.97905,-0.18825,0.0,2023,6,7,17,10,51,987
49.01270,0.09118,0.08278,0.00000,0.03209,0.97685,-0.19032,0.0,2023,6,7,17,10,52,998
49.01280,0.10868,-0.09222,0.00000,0.03209,0.97527,-0.18934,0.0,2023,6,7,17,10,52,9
49.01290,-0.22382,0.17028,0.00000,0.03196,0.97820,-0.18678,0.0,2023,6,7,17,10,52,21
49.01300,0.09118,-0.09222,0.00000,0.03257,0.97637,-0.18873,0.0,2023,6,7,17,10,52,32
49.01310,-0.17132,-0.05722,0.00000,0.03062,0.97551,-0.18727,0.0,2023,6,7,17,10,52,43
49.01320,0.07368,-0.07472,0.00000,0.03111,0.97563,-0.18922,0.0,2023,6,7,17,10,52,54
49.01330,0.07368,-0.37222,0.00000,0.03172,0.97673,-0.18812,0.0,2023,6,7,17,10,52,65
49.01340,0.05618,0.03028,0.00000,0.03257,0.97795,-0.18800,0.0,2023,6,7,17,10,52,76
49.01350,-0.10132,0.27528,0.00000,0.03074,0.97661,-0.18812,0.0,2023,6,7,17,10,52,88
49.01360,0.17868,0.15278,0.00000,0.02879,0.97820,-0.18922,0.0,2023,6,7,17,10,52,99
49.01370,-0.25882,0.04778,0.00000,0.03160,0.97612,-0.18825,0.0,2023,6,7,17,10,52,110
49.01380,0.14368,-0.12722,0.00000,0.03221,0.97563,-0.18849,0.0,2023,6,7,17,10,52,121
49.01390,-0.17132,-0.14472,0.00000,0.03331,0.97783,-0.18776,0.0,2023,6,7,17,10,52,132
49.01400,-0.01382,-0.33722,0.00000,0.03440,0.97612,-0.18947,0.0,2023,6,7,17,10,52,143
49.01410,0.12618,-0.02222,0.00000,0.03038,0.97466,-0.19008,0.0,2023,6,7,17,10,52,154
49.01420,-0.03132,-0.12722,0.00000,0.03050,0.97685,-0.18898,0.0,2023,6,7,17,10,52,166
49.01430,-0.22382,-0.10972,0.00000,0.03221,0.97698,-0.18666,0.0,2023,6,7,17,10,52,177
49.01440,0.03868,0.08278,0.00000,0.03038,0.97942,-0.18886,0.0,2023,6,7,17,10,52,188
49.01450,0.12618,-0.14472,0.00000,0.03148,0.97637,-0.18983,0.0,2023,6,7,17,10,52,199
49.01460,-0.03132,-0.05722,0.00000,0.03123,0.97490,-0.18947,0.0,2023,6,7,17,10,52,210
49.01470,0.03868,0.03028,0.00000,0.03160,0.97576,-0.18690,0.0,2023,6,7,17,10,52,221
49.01480,-0.06632,0.24028,0.00000,0.03196,0.97673,-0.18666,0.0,2023,6,7,17,10,52,232
49.01490,-0.18882,0.20528,0.00000,0.03270,0.97624,-0.18995,0.0,2023,6,7,17,10,52,244
49.01500,-0.01382,-0.02222,0.00000,0.03282,0.97673,-0.18739,0.0,2023,6,7,17,10,52,255
49.01510,0.02118,-0.35472,0.00000,0.03221,0.97612,-0.18898,0.0,2023,6,7,17,10,52,266
49.01520,-0.03132,-0.12722,0.00000,0.03184,0.97637,-0.18776,0.0,2023,6,7,17,10,52,277
49.01530,0.10868,-0.21472,0.00000,0.03062,0.97515,-0.19020,0.0,2023,6,7,17,10,52,288
49.01540,0.05618,-0.00472,0.00000,0.03209,0.97710,-0.18764,0.0,2023,6,7,17,10,52,299
49.01550,0.00368,-0.10972,0.00000,0.03294,0.97978,-0.18922,0.0,2023,6,7,17,10,52,311
49.01560,0.21368,-0.14472,0.00000,0.03148,0.97759,-0.18776,0.0,2023,6,7,17,10,52,322
49.01570,0.05618,0.10028,0.00000,0.03343,0.97661,-0.18922,0.0,2023,6,7,17,10,52,333
49.01580,0.17868,-0.10972,0.00000,0.03172,0.97698,-0.18898,0.0,2023,6,7,17,10,52,344
49.01590,-0.13632,-0.10972,0.00000,0.03392,0.97722,-0.18715,0.0,2023,6,7,17,10,52,355
49.01600,0.00368,-0.00472,0.00000,0.03233,0.97710,-0.19008,0.0,2023,6,7,17,10,52,366
49.01610,0.05618,0.15278,0.00000,0.02989,0.97576,-0.19069,0.0,2023,6,7,17,10,52,377
49.01620,-0.04882,-0.05722,0.00000,0.03270,0.97600,-0.18983,0.0,2023,6,7,17,10,52,389
49.01630,0.03868,-0.03972,0.00000,0.03148,0.97795,-0.18959,0.0,2023,6,7,17,10,52,400
49.01640,0.21368,-0.07472,0.00000,0.03257,0.97759,-0.18812,0.0,2023,6,7,17,10,52,411
49.01650,0.14368,-0.00472,0.00000,0.03404,0.97527,-0.18910,0.0,2023,6,7,17,10,52,422
49.01660,0.00368,-0.09222,0.00000,0.02952,0.97429,-0.18812,0.0,2023,6,7,17,10,52,433
49.01670,0.03868,-0.16222,0.00000,0.03209,0.97783,-0.18898,0.0,2023,6,7,17,10,52,444
49.01680,-0.03132,0.11778,0.00000,0.03062,0.97685,-0.18605,0.0,2023,6,7,17,10,52,455
49.01690,0.07368,0.08278,0.00000,0.02977,0.97527,-0.18947,0.0,2023,6,7,17,10,52,467
49.01700,0.31868,-0.02222,0.00000,0.03184,0.97588,-0.18971,0.0,2023,6,7,17,10,52,478
49.01710,-0.04882,-0.02222,0.00000,0.03099,0.97698,-0.18654,0.0,2023,6,7,17,10,52,489
49.01720,-0.25882,0.11778,0.00000,0.03270,0.97734,-0.18910,0.0,2023,6,7,17,10,52,500
49.01730,0.00368,0.10028,0.00000,0.03184,0.97612,-0.18739,0.0,2023,6,7,17,10,52,511
49.01740,0.02118,-0.02222,0.00000,0.03221,0.97502,-0.19081,0.0,2023,6,7,17,10,52,522
49.01750,0.03868,-0.10972,0.00000,0.03160,0.97539,-0.18934,0.0,2023,6,7,17,10,52,534
49.01760,0.03868,0.08278,0.00000,0.03148,0.97807,-0.18861,0.0,2023,6,7,17,10,52,545
49.01770,0.09118,-0.16222,0.00000,0.03135,0.97637,-0.18886,0.0,2023,6,7,17,10,52,556
49.01780,0.14368,0.08278,0.00000,0.03245,0.97685,-0.18788,0.0,2023,6,7,17,10,52,567
49.01790,0.10868,0.08278,0.00000,0.03148,0.97746,-0.18727,0.0,2023,6,7,17,10,52,578
49.01800,-0.03132,-0.00472,0.00000,0.03209,0.97576,-0.18605,0.0,2023,6,7,17,10,52,589
49.01810,0.03868,-0.10972,0.00000,0.02989,0.97539,-0.18751,0.0,2023,6,7,17,10,52,600
49.01820,-0.15382,-0.07472,0.00000,0.03099,0.97490,-0.18715,0.0,2023,6,7,17,10,52,612
49.01830,0.12618,0.04778,0.00000,0.03148,0.97649,-0.18886,0.0,2023,6,7,17,10,52,623
49.01840,0.05618,-0.03972,0.00000,0.03257,0.97527,-0.18812,0.0,2023,6,7,17,10,52,634
49.01850,0.03868,-0.02222,0.00000,0.03172,0.97478,-0.18605,0.0,2023,6,7,17,10,52,645
49.01860,0.07368,-0.00472,0.00000,0.03123,0.97661,-0.18873,0.0,2023,6,7,17,10,52,656
49.01870,0.23118,-0.10972,0.00000,0.03282,0.97673,-0.18715,0.0,2023,6,7,17,10,52,667
49.01880,0.16118,-0.05722,0.00000,0.03074,0.97563,-0.18959,0.0,2023,6,7,17,10,52,678
49.01890,-0.11882,0.01278,0.00000,0.03148,0.97734,-0.18825,0.0,2023,6,7,17,10,52,690
49.01900,0.00368,-0.07472,0.00000,0.03233,0.97429,-0.18605,0.0,2023,6,7,17,10,52,701
49.01910,0.12618,0.10028,0.00000,0.03306,0.97832,-0.18947,0.0,2023,6,7,17,10,52,712
49.01920,0.12618,0.24028,0.00000,0.02989,0.97685,-0.18861,0.0,2023,6,7,17,10,52,723
49.01930,0.14368,0.06528,0.00000,0.03209,0.97685,-0.18666,0.0,2023,6,7,17,10,52,734
49.01940,0.10868,0.10028,0.00000,0.03343,0.97661,-0.18678,0.0,2023,6,7,17,10,52,745
49.01950,-0.04882,-0.16222,0.00000,0.03184,0.97673,-0.18898,0.0,2023,6,7,17,10,52,757
49.01960,0.10868,0.04778,0.00000,0.03233,0.97588,-0.18800,0.0,2023,6,7,17,10,52,768
49.01970,-0.04882,0.17028,0.00000,0.03087,0.97771,-0.18727,0.0,2023,6,7,17,10,52,779
49.01980,0.05618,-0.24972,0.00000,0.03184,0.97515,-0.19032,0.0,2023,6,7,17,10,52,790
49.01990,-0.06632,0.08278,0.00000,0.03221,0.97600,-0.18690,0.0,2023,6,7,17,10,52,801
49.02000,0.10868,0.03028,0.00000,0.03013,0.97734,-0.18971,0.0,2023,6,7,17,10,52,812
49.02010,0.07368,-0.03972,0.00000,0.03233,0.97734,-0.18739,0.0,2023,6,7,17,10,52,823
49.02020,-0.03132,-0.00472,0.00000,0.03196,0.97698,-0.18959,0.0,2023,6,7,17,10,52,835
49.02030,-0.01382,-0.03972,0.00000,0.03209,0.97734,-0.18849,0.0,2023,6,7,17,10,52,846
49.02040,-0.13632,0.10028,0.00000,0.03184,0.97722,-0.18642,0.0,2023,6,7,17,10,52,857
49.02050,-0.10132,-0.07472,0.00000,0.03270,0.97685,-0.18556,0.0,2023,6,7,17,10,52,868
49.02060,0.21368,-0.02222,0.00000,0.03270,0.97795,-0.18776,0.0,2023,6,7,17,10,52,879
49.02070,0.10868,-0.05722,0.00000,0.03331,0.97600,-0.18947,0.0,2023,6,7,17,10,52,890
49.02080,-0.04882,0.15278,0.00000,0.03221,0.97771,-0.18983,0.0,2023,6,7,17,10,52,901
49.02090,0.14368,-0.17972,0.00000,0.03099,0.97637,-0.18898,0.0,2023,6,7,17,10,52,913
49.02100,-0.01382,-0.10972,0.00000,0.03282,0.97551,-0.18788,0.0,2023,6,7,17,10,52,924
49.02110,0.02118,0.20528,0.00000,0.03355,0.97795,-0.18886,0.0,2023,6,7,17,10,52,935
49.02120,0.05618,0.13528,0.00000,0.03099,0.97722,-0.18861,0.0,2023,6,7,17,10,52,946
49.02130,0.14368,-0.10972,0.00000,0.03050,0.97954,-0.18873,0.0,2023,6,7,17,10,52,957
49.02140,0.10868,-0.02222,0.00000,0.03099,0.97698,-0.18825,0.0,2023,6,7,17,10,52,968
49.02150,-0.29382,-0.10972,0.00000,0.03111,0.97820,-0.18666,0.0,2023,6,7,17,10,52,980
49.02160,0.03868,0.15278,0.00000,0.03209,0.97673,-0.18739,0.0,2023,6,7,17,10,52,991
49.02170,0.21368,-0.07472,0.00000,0.03087,0.97844,-0.18971,0.0,2023,6,7,17,10,53,2
49.02180,0.12618,-0.09222,0.00000,0.03392,0.97588,-0.18568,0.0,2023,6,7,17,10,53,13
49.02190,-0.20632,-0.03972,0.00000,0.02952,0.97441,-0.18385,0.0,2023,6,7,17,10,53,24
49.02200,-0.03132,-0.14472,0.00000,0.03233,0.97698,-0.18751,0.0,2023,6,7,17,10,53,35
49.02210,-0.11882,-0.10972,0.00000,0.03074,0.97893,-0.18910,0.0,2023,6,7,17,10,53,46
49.02220,0.03868,0.06528,0.00000,0.03184,0.97515,-0.18825,0.0,2023,6,7,17,10,53,58
49.02230,-0.06632,0.18778,0.00000,0.03184,0.97478,-0.18898,0.0,2023,6,7,17,10,53,69
49.02240,0.00368,0.03028,0.00000,0.03343,0.97722,-0.18837,0.0,2023,6,7,17,10,53,80
49.02250,0.12618,-0.16222,0.00000,0.03270,0.97734,-0.18812,0.0,2023,6,7,17,10,53,91
49.02260,-0.01382,0.18778,0.00000,0.03087,0.97685,-0.18898,0.0,2023,6,7,17,10,53,102
49.02270,0.02118,-0.00472,0.00000,0.03331,0.97685,-0.18910,0.0,2023,6,7,17,10,53,113
49.02280,0.09118,-0.16222,0.00000,0.03245,0.97698,-0.18837,0.0,2023,6,7,17,10,53,124
49.02290,0.02118,0.04778,0.00000,0.03294,0.97588,-0.18947,0.0,2023,6,7,17,10,53,136
49.02300,0.03868,-0.21472,0.00000,0.03233,0.97685,-0.18556,0.0,2023,6,7,17,10,53,147
49.02310,-0.15382,-0.07472,0.00000,0.03257,0.97661,-0.18825,0.0,2023,6,7,17,10,53,158
49.02320,0.12618,0.06528,0.00000,0.03135,0.97527,-0.18703,0.0,2023,6,7,17,10,53,169
49.02330,-0.03132,0.17028,0.00000,0.03404,0.97905,-0.18727,0.0,2023,6,7,17,10,53,180
49.02340,0.14368,-0.17972,0.00000,0.03196,0.97527,-0.18861,0.0,2023,6,7,17,10,53,191
49.02350,0.00368,0.03028,0.00000,0.03196,0.97588,-0.18886,0.0,2023,6,7,17,10,53,203
49.02360,-0.20632,-0.07472,0.00000,0.03270,0.97649,-0.18788,0.0,2023,6,7,17,10,53,214
49.02370,0.02118,0.20528,0.00000,0.03245,0.97783,-0.18983,0.0,2023,6,7,17,10,53,225
49.02380,-0.04882,0.03028,0.00000,0.03111,0.97673,-0.18678,0.0,2023,6,7,17,10,53,236
49.02390,0.03868,0.08278,0.00000,0.03160,0.97661,-0.18764,0.0,2023,6,7,17,10,53,247
49.02400,0.17868,-0.17972,0.00000,0.03282,0.97844,-0.18800,0.0,2023,6,7,17,10,53,258
49.02410,-0.24132,-0.00472,0.00000,0.03404,0.97722,-0.18568,0.0,2023,6,7,17,10,53,269
49.02420,0.09118,-0.05722,0.00000,0.03416,0.97746,-0.19044,0.0,2023,6,7,17,10,53,281
49.02430,-0.10132,-0.02222,0.00000,0.03148,0.97734,-0.19166,0.0,2023,6,7,17,10,53,292
49.02440,0.40618,-0.26722,0.00000,0.03062,0.97661,-0.18764,0.0,2023,6,7,17,10,53,303
49.02450,-0.04882,-0.10972,0.00000,0.03245,0.97478,-0.18764,0.0,2023,6,7,17,10,53,314
49.02460,0.00368,-0.24972,0.00000,0.03184,0.97539,-0.18825,0.0,2023,6,7,17,10,53,325
49.02470,0.03868,-0.14472,0.00000,0.03245,0.97685,-0.19020,0.0,2023,6,7,17,10,53,336
49.02480,-0.03132,0.08278,0.00000,0.03294,0.97441,-0.18812,0.0,2023,6,7,17,10,53,347
49.02490,-0.04882,0.10028,0.00000,0.02928,0.97490,-0.18886,0.0,2023,6,7,17,10,53,359
49.02500,-0.10132,0.03028,0.00000,0.03148,0.97673,-0.18715,0.0,2023,6,7,17,10,53,370
49.02510,-0.08382,-0.12722,0.00000,0.03123,0.97722,-0.18593,0.0,2023,6,7,17,10,53,381
49.02520,0.21368,0.03028,0.00000,0.03087,0.97820,-0.18727,0.0,2023,6,7,17,10,53,392
49.02530,0.03868,0.06528,0.00000,0.03270,0.97466,-0.18764,0.0,2023,6,7,17,10,53,403
49.02540,-0.10132,0.15278,0.00000,0.03172,0.97539,-0.18825,0.0,2023,6,7,17,10,53,414
49.02550,-0.10132,-0.05722,0.00000,0.03306,0.97820,-0.18812,0.0,2023,6,7,17,10,53,426
49.02560,-0.22382,0.06528,0.00000,0.03123,0.97576,-0.18666,0.0,2023,6,7,17,10,53,437
49.02570,0.17868,-0.05722,0.00000,0.03160,0.97612,-0.18947,0.0,2023,6,7,17,10,53,448
49.02580,0.05618,-0.14472,0.00000,0.03148,0.97515,-0.18861,0.0,2023,6,7,17,10,53,459
49.02590,-0.20632,-0.03972,0.00000,0.03355,0.97783,-0.18678,0.0,2023,6,7,17,10,53,470
49.02600,0.09118,-0.02222,0.00000,0.03209,0.97868,-0.18873,0.0,2023,6,7,17,10,53,481
49.02610,0.09118,-0.07472,0.00000,0.03172,0.97490,-0.18861,0.0,2023,6,7,17,10,53,492
49.02620,0.09118,-0.00472,0.00000,0.02928,0.97820,-0.18800,0.0,2023,6,7,17,10,53,504
49.02630,0.16118,-0.03972,0.00000,0.02965,0.97527,-0.18727,0.0,2023,6,7,17,10,53,515
49.02640,-0.01382,0.15278,0.00000,0.03294,0.97783,-0.18849,0.0,2023,6,7,17,10,53,526
49.02650,-0.04882,-0.02222,0.00000,0.03379,0.97759,-0.18788,0.0,2023,6,7,17,10,53,537
49.02660,0.09118,-0.05722,0.00000,0.03233,0.97881,-0.18764,0.0,2023,6,7,17,10,53,548
49.02670,-0.04882,0.04778,0.00000,0.03404,0.97661,-0.18959,0.0,2023,6,7,17,10,53,559
49.02680,0.00368,-0.07472,0.00000,0.03245,0.97600,-0.18788,0.0,2023,6,7,17,10,53,570
49.02690,0.09118,0.08278,0.00000,0.03343,0.97698,-0.18715,0.0,2023,6,7,17,10,53,582
49.02700,0.09118,-0.07472,0.00000,0.03196,0.97490,-0.18971,0.0,2023,6,7,17,10,53,593
49.02710,-0.08382,-0.14472,0.00000,0.02940,0.97685,-0.18812,0.0,2023,6,7,17,10,53,604
49.02720,0.12618,-0.09222,0.00000,0.03282,0.97905,-0.19056,0.0,2023,6,7,17,10,53,615
49.02730,-0.08382,-0.02222,0.00000,0.03196,0.97820,-0.18947,0.0,2023,6,7,17,10,53,626
49.02740,0.02118,0.03028,0.00000,0.03221,0.97893,-0.18764,0.0,2023,6,7,17,10,53,637
49.02750,0.00368,-0.02222,0.00000,0.03233,0.97795,-0.18922,0.0,2023,6,7,17,10,53,649
49.02760,0.10868,-0.00472,0.00000,0.03209,0.97685,-0.18703,0.0,2023,6,7,17,10,53,660
49.02770,0.14368,-0.14472,0.00000,0.03074,0.97807,-0.18690,0.0,2023,6,7,17,10,53,671
49.02780,-0.01382,-0.16222,0.00000,0.03184,0.97881,-0.18739,0.0,2023,6,7,17,10,53,682
49.02790,-0.11882,-0.00472,0.00000,0.03282,0.97576,-0.18873,0.0,2023,6,7,17,10,53,693
49.02800,0.05618,0.04778,0.00000,0.03172,0.97746,-0.19032,0.0,2023,6,7,17,10,53,704
49.02810,0.10868,-0.14472,0.00000,0.03209,0.97673,-0.18910,0.0,2023,6,7,17,10,53,715
49.02820,0.09118,0.06528,0.00000,0.03233,0.97820,-0.19069,0.0,2023,6,7,17,10,53,727
49.02830,-0.11882,0.10028,0.00000,0.03294,0.97612,-0.18825,0.0,2023,6,7,17,10,53,738
49.02840,0.03868,-0.00472,0.00000,0.03172,0.97759,-0.18995,0.0,2023,6,7,17,10,53,749
49.02850,-0.03132,-0.10972,0.00000,0.03111,0.97454,-0.19130,0.0,2023,6,7,17,10,53,760
49.02860,0.03868,-0.07472,0.00000,0.03135,0.97612,-0.19056,0.0,2023,6,7,17,10,53,771
49.02870,-0.11882,-0.03972,0.00000,0.02977,0.97527,-0.18593,0.0,2023,6,7,17,10,53,782
49.02880,0.09118,-0.12722,0.00000,0.02916,0.97710,-0.18776,0.0,2023,6,7,17,10,53,793
49.02890,0.00368,-0.07472,0.00000,0.03306,0.97734,-0.18886,0.0,2023,6,7,17,10,53,805
49.02900,0.14368,0.04778,0.00000,0.03172,0.97673,-0.19032,0.0,2023,6,7,17,10,53,816
49.02910,0.09118,0.04778,0.00000,0.03257,0.97478,-0.18983,0.0,2023,6,7,17,10,53,827
49.02920,-0.06632,-0.02222,0.00000,0.03099,0.97441,-0.18947,0.0,2023,6,7,17,10,53,838
49.02930,0.12618,0.01278,0.00000,0.03245,0.97563,-0.18788,0.0,2023,6,7,17,10,53,849
49.02940,0.02118,-0.00472,0.00000,0.03209,0.97759,-0.18959,0.0,2023,6,7,17,10,53,860
49.02950,0.14368,-0.07472,0.00000,0.03099,0.97832,-0.18898,0.0,2023,6,7,17,10,53,872
49.02960,0.09118,-0.12722,0.00000,0.02977,0.97600,-0.19093,0.0,2023,6,7,17,10,53,883
49.02970,0.21368,0.10028,0.00000,0.03196,0.97295,-0.18922,0.0,2023,6,7,17,10,53,894
49.02980,0.12618,-0.19722,0.00000,0.03282,0.97624,-0.18861,0.0,2023,6,7,17,10,53,905
49.02990,0.16118,-0.07472,0.00000,0.03184,0.97380,-0.19069,0.0,2023,6,7,17,10,53,916
49.03000,-0.17132,0.06528,0.00000,0.03013,0.97576,-0.19105,0.0,2023,6,7,17,10,53,927
49.03010,0.14368,-0.09222,0.00000,0.03123,0.97454,-0.18751,0.0,2023,6,7,17,10,53,938
49.03020,0.10868,-0.02222,0.00000,0.03209,0.97600,-0.18703,0.0,2023,6,7,17,10,53,950
49.03030,-0.08382,-0.02222,0.00000,0.03111,0.97710,-0.18849,0.0,2023,6,7,17,10,53,961
49.03040,-0.04882,-0.05722,0.00000,0.03355,0.97661,-0.18727,0.0,2023,6,7,17,10,53,972
49.03050,-0.10132,0.31028,0.00000,0.03196,0.97734,-0.19191,0.0,2023,6,7,17,10,53,983
49.03060,-0.01382,-0.00472,0.00000,0.03074,0.97868,-0.19008,0.0,2023,6,7,17,10,53,994
49.03070,-0.01382,-0.21472,0.00000,0.03099,0.97783,-0.18922,0.0,2023,6,7,17,10,54,5
49.03080,0.02118,-0.02222,0.00000,0.03087,0.97698,-0.18678,0.0,2023,6,7,17,10,54,16
49.03090,0.02118,-0.00472,0.00000,0.03184,0.97710,-0.19069,0.0,2023,6,7,17,10,54,28
49.03100,0.17868,-0.16222,0.00000,0.03270,0.97795,-0.18910,0.0,2023,6,7,17,10,54,39
49.03110,0.02118,0.01278,0.00000,0.03087,0.97661,-0.18922,0.0,2023,6,7,17,10,54,50
49.03120,-0.06632,0.06528,0.00000,0.03099,0.97698,-0.18934,0.0,2023,6,7,17,10,54,61
49.03130,-0.04882,0.13528,0.00000,0.03196,0.97539,-0.18715,0.0,2023,6,7,17,10,54,72
49.03140,-0.01382,0.24028,0.00000,0.03282,0.97624,-0.18751,0.0,2023,6,7,17,10,54,83
49.03150,0.07368,-0.10972,0.00000,0.03221,0.97588,-0.18922,0.0,2023,6,7,17,10,54,95
49.03160,0.05618,-0.10972,0.00000,0.03257,0.97624,-0.18959,0.0,2023,6,7,17,10,54,106
49.03170,0.02118,-0.05722,0.00000,0.02989,0.97710,-0.18947,0.0,2023,6,7,17,10,54,117
49.03180,-0.13632,-0.02222,0.00000,0.03221,0.97588,-0.18947,0.0,2023,6,7,17,10,54,128
49.03190,-0.04882,-0.03972,0.00000,0.03379,0.97527,-0.18788,0.0,2023,6,7,17,10,54,139
49.03200,0.14368,0.15278,0.00000,0.03282,0.97478,-0.19081,0.0,2023,6,7,17,10,54,150
49.03210,0.02118,0.10028,0.00000,0.03148,0.97771,-0.18751,0.0,2023,6,7,17,10,54,161
49.03220,-0.06632,-0.07472,0.00000,0.03111,0.97588,-0.18983,0.0,2023,6,7,17,10,54,173
49.03230,0.00368,0.08278,0.00000,0.03099,0.97698,-0.18581,0.0,2023,6,7,17,10,54,184
49.03240,0.02118,0.06528,0.00000,0.02965,0.97844,-0.19044,0.0,2023,6,7,17,10,54,195
49.03250,0.02118,-0.02222,0.00000,0.03087,0.97759,-0.19117,0.0,2023,6,7,17,10,54,206
49.03260,-0.10132,-0.02222,0.00000,0.02891,0.97844,-0.19020,0.0,2023,6,7,17,10,54,217
49.03270,-0.01382,-0.10972,0.00000,0.03135,0.97551,-0.19081,0.0,2023,6,7,17,10,54,228
49.03280,0.05618,0.01278,0.00000,0.03111,0.97637,-0.18751,0.0,2023,6,7,17,10,54,239
49.03290,-0.03132,-0.16222,0.00000,0.03257,0.97563,-0.18922,0.0,2023,6,7,17,10,54,251
49.03300,0.12618,-0.03972,0.00000,0.03013,0.97637,-0.18764,0.0,2023,6,7,17,10,54,262
49.03310,0.00368,0.01278,0.00000,0.03233,0.97722,-0.19032,0.0,2023,6,7,17,10,54,273
49.03320,-0.10132,0.06528,0.00000,0.03062,0.97539,-0.18849,0.0,2023,6,7,17,10,54,284
49.03330,0.05618,-0.14472,0.00000,0.03270,0.97539,-0.18837,0.0,2023,6,7,17,10,54,295
49.03340,-0.15382,-0.09222,0.00000,0.03196,0.97685,-0.18678,0.0,2023,6,7,17,10,54,306
49.03350,-0.04882,0.10028,0.00000,0.03184,0.97722,-0.18654,0.0,2023,6,7,17,10,54,318
49.03360,-0.03132,0.17028,0.00000,0.03099,0.97771,-0.19020,0.0,2023,6,7,17,10,54,329
49.03370,-0.06632,-0.03972,0.00000,0.03087,0.97881,-0.18861,0.0,2023,6,7,17,10,54,340
49.03380,0.17868,-0.17972,0.00000,0.03233,0.97637,-0.19032,0.0,2023,6,7,17,10,54,351
49.03390,-0.01382,-0.21472,0.00000,0.03196,0.97893,-0.18739,0.0,2023,6,7,17,10,54,362
49.03400,0.00368,-0.07472,0.00000,0.03367,0.97832,-0.18690,0.0,2023,6,7,17,10,54,373
49.03410,-0.13632,-0.17972,0.00000,0.03184,0.97759,-0.19020,0.0,2023,6,7,17,10,54,384
49.03420,0.07368,0.15278,0.00000,0.03087,0.97783,-0.18898,0.0,2023,6,7,17,10,54,396
49.03430,-0.20632,0.04778,0.00000,0.03074,0.97600,-0.18373,0.0,2023,6,7,17,10,54,407
49.03440,0.05618,0.15278,0.00000,0.03209,0.97722,-0.18886,0.0,2023,6,7,17,10,54,418
49.03450,0.16118,0.01278,0.00000,0.03294,0.97734,-0.18849,0.0,2023,6,7,17,10,54,429
49.03460,0.10868,-0.16222,0.00000,0.03379,0.97539,-0.18995,0.0,2023,6,7,17,10,54,440
49.03470,0.05618,0.01278,0.00000,0.03160,0.97490,-0.19044,0.0,2023,6,7,17,10,54,451
49.03480,-0.03132,0.20528,0.00000,0.03306,0.97429,-0.18764,0.0,2023,6,7,17,10,54,462
49.03490,-0.08382,0.10028,0.00000,0.03282,0.97820,-0.18873,0.0,2023,6,7,17,10,54,474
49.03500,0.14368,0.01278,0.00000,0.03270,0.97698,-0.18959,0.0,2023,6,7,17,10,54,485
49.03510,0.00368,-0.21472,0.00000,0.02977,0.97698,-0.19142,0.0,2023,6,7,17,10,54,496
49.03520,0.05618,0.08278,0.00000,0.03160,0.97624,-0.18886,0.0,2023,6,7,17,10,54,507
49.03530,-0.24132,-0.02222,0.00000,0.03282,0.97698,-0.18800,0.0,2023,6,7,17,10,54,518
49.03540,0.07368,-0.02222,0.00000,0.02928,0.97990,-0.18788,0.0,2023,6,7,17,10,54,529
49.03550,0.14368,-0.09222,0.00000,0.03184,0.97881,-0.19130,0.0,2023,6,7,17,10,54,541
49.03560,0.07368,0.06528,0.00000,0.03099,0.97502,-0.18873,0.0,2023,6,7,17,10,54,552
49.03570,-0.03132,-0.12722,0.00000,0.03209,0.97417,-0.18971,0.0,2023,6,7,17,10,54,563
49.03580,0.10868,-0.28472,0.00000,0.03135,0.97746,-0.18764,0.0,2023,6,7,17,10,54,574
49.03590,0.09118,-0.07472,0.00000,0.02965,0.97624,-0.18825,0.0,2023,6,7,17,10,54,585
49.03600,-0.10132,-0.19722,0.00000,0.03123,0.97576,-0.18666,0.0,2023,6,7,17,10,54,596
49.03610,-0.04882,-0.14472,0.00000,0.03050,0.97624,-0.18837,0.0,2023,6,7,17,10,54,607
49.03620,-0.04882,-0.26722,0.00000,0.03306,0.97539,-0.19105,0.0,2023,6,7,17,10,54,619
49.03630,0.19618,0.03028,0.00000,0.03270,0.97905,-0.19081,0.0,2023,6,7,17,10,54,630
49.03640,0.00368,-0.10972,0.00000,0.03196,0.97490,-0.19008,0.0,2023,6,7,17,10,54,641
49.03650,-0.04882,0.27528,0.00000,0.03135,0.97576,-0.19178,0.0,2023,6,7,17,10,54,652
49.03660,-0.04882,0.04778,0.00000,0.03196,0.97844,-0.18800,0.0,2023,6,7,17,10,54,663
49.03670,0.02118,-0.16222,0.00000,0.03245,0.97722,-0.18678,0.0,2023,6,7,17,10,54,674
49.03680,0.02118,0.08278,0.00000,0.03135,0.97710,-0.18898,0.0,2023,6,7,17,10,54,685
49.03690,0.05618,0.01278,0.00000,0.03428,0.97698,-0.18776,0.0,2023,6,7,17,10,54,697
49.03700,-0.08382,0.01278,0.00000,0.03233,0.97624,-0.18764,0.0,2023,6,7,17,10,54,708
49.03710,-0.11882,-0.17972,0.00000,0.03074,0.97698,-0.19044,0.0,2023,6,7,17,10,54,719
49.03720,0.09118,0.01278,0.00000,0.03282,0.97783,-0.18812,0.0,2023,6,7,17,10,54,730
49.03730,-0.01382,0.13528,0.00000,0.03196,0.97563,-0.18971,0.0,2023,6,7,17,10,54,741
49.03740,-0.08382,0.27528,0.00000,0.03245,0.97417,-0.18776,0.0,2023,6,7,17,10,54,752
49.03750,0.12618,-0.16222,0.00000,0.03306,0.98051,-0.18776,0.0,2023,6,7,17,10,54,764
49.03760,0.05618,0.03028,0.00000,0.02879,0.97746,-0.18776,0.0,2023,6,7,17,10,54,775
49.03770,0.09118,0.06528,0.00000,0.03184,0.97722,-0.18959,0.0,2023,6,7,17,10,54,786
49.03780,-0.10132,0.01278,0.00000,0.03123,0.97429,-0.18947,0.0,2023,6,7,17,10,54,797
49.03790,-0.17132,0.01278,0.00000,0.03184,0.97929,-0.18788,0.0,2023,6,7,17,10,54,808
49.03800,0.17868,-0.16222,0.00000,0.03111,0.97673,-0.18959,0.0,2023,6,7,17,10,54,819
49.03810,0.26618,-0.26722,0.00000,0.03123,0.97710,-0.19105,0.0,2023,6,7,17,10,54,830
49.03820,0.02118,0.11778,0.00000,0.03221,0.97893,-0.19142,0.0,2023,6,7,17,10,54,842
49.03830,0.00368,0.06528,0.00000,0.03209,0.97637,-0.18886,0.0,2023,6,7,17,10,54,853
49.03840,-0.08382,0.18778,0.00000,0.03026,0.97673,-0.18837,0.0,2023,6,7,17,10,54,864
49.03850,-0.13632,0.10028,0.00000,0.03404,0.97734,-0.19069,0.0,2023,6,7,17,10,54,875
49.03860,0.02118,0.08278,0.00000,0.03270,0.97637,-0.18995,0.0,2023,6,7,17,10,54,886
49.03870,0.05618,-0.26722,0.00000,0.03233,0.97576,-0.18861,0.0,2023,6,7,17,10,54,897
49.03880,0.07368,-0.02222,0.00000,0.03184,0.97807,-0.18861,0.0,2023,6,7,17,10,54,908
49.03890,0.10868,0.13528,0.00000,0.03062,0.97527,-0.18837,0.0,2023,6,7,17,10,54,920
49.03900,-0.06632,-0.02222,0.00000,0.03196,0.97868,-0.19020,0.0,2023,6,7,17,10,54,931
49.03910,-0.13632,0.04778,0.00000,0.03331,0.97576,-0.18861,0.0,2023,6,7,17,10,54,942
49.03920,0.31868,-0.24972,0.00000,0.02867,0.97710,-0.18922,0.0,2023,6,7,17,10,54,953
49.03930,0.05618,0.15278,0.00000,0.03172,0.97624,-0.18886,0.0,2023,6,7,17,10,54,964
49.03940,-0.15382,0.18778,0.00000,0.03209,0.97649,-0.18776,0.0,2023,6,7,17,10,54,975
49.03950,-0.08382,-0.00472,0.00000,0.03038,0.97673,-0.19044,0.0,2023,6,7,17,10,54,987
49.03960,0.10868,-0.21472,0.00000,0.03087,0.97722,-0.18922,0.0,2023,6,7,17,10,54,998
49.03970,-0.08382,0.08278,0.00000,0.03233,0.97551,-0.19056,0.0,2023,6,7,17,10,55,9
49.03980,0.14368,0.01278,0.00000,0.02757,0.97661,-0.19020,0.0,2023,6,7,17,10,55,20
49.03990,-0.03132,0.06528,0.00000,0.03172,0.97502,-0.18715,0.0,2023,6,7,17,10,55,31
49.04000,0.03868,-0.00472,0.00000,0.03440,0.97807,-0.18898,0.0,2023,6,7,17,10,55,42
49.04010,-0.13632,0.13528,0.00000,0.03135,0.97966,-0.19008,0.0,2023,6,7,17,10,55,53
49.04020,-0.06632,0.13528,0.00000,0.03294,0.97698,-0.19105,0.0,2023,6,7,17,10,55,65
49.04030,0.05618,0.03028,0.00000,0.03135,0.97649,-0.19117,0.0,2023,6,7,17,10,55,76
49.04040,0.00368,-0.03972,0.00000,0.03148,0.97673,-0.19276,0.0,2023,6,7,17,10,55,87
49.04050,-0.11882,-0.12722,0.00000,0.03306,0.97600,-0.18837,0.0,2023,6,7,17,10,55,98
49.04060,-0.04882,0.06528,0.00000,0.03074,0.97624,-0.19130,0.0,2023,6,7,17,10,55,109
49.04070,-0.04882,0.10028,0.00000,0.03245,0.97649,-0.18983,0.0,2023,6,7,17,10,55,120
49.04080,0.14368,-0.07472,0.00000,0.03379,0.97563,-0.18983,0.0,2023,6,7,17,10,55,131
49.04090,0.03868,-0.10972,0.00000,0.03062,0.97746,-0.18690,0.0,2023,6,7,17,10,55,143
49.04100,-0.22382,-0.02222,0.00000,0.03209,0.97515,-0.18898,0.0,2023,6,7,17,10,55,154
49.04110,-0.03132,-0.05722,0.00000,0.03013,0.97820,-0.18995,0.0,2023,6,7,17,10,55,165
49.04120,-0.10132,0.06528,0.00000,0.03148,0.97612,-0.18898,0.0,2023,6,7,17,10,55,176
49.04130,0.09118,-0.35472,0.00000,0.03160,0.97490,-0.18837,0.0,2023,6,7,17,10,55,187
49.04140,0.12618,-0.05722,0.00000,0.03257,0.97685,-0.18971,0.0,2023,6,7,17,10,55,198
49.04150,-0.08382,-0.00472,0.00000,0.03184,0.97661,-0.19105,0.0,2023,6,7,17,10,55,210
49.04160,0.24868,0.01278,0.00000,0.03318,0.97746,-0.18971,0.0,2023,6,7,17,10,55,221
49.04170,0.26618,0.11778,0.00000,0.03209,0.97466,-0.19166,0.0,2023,6,7,17,10,55,232
49.04180,-0.13632,0.01278,0.00000,0.02928,0.97722,-0.18910,0.0,2023,6,7,17,10,55,243
49.04190,-0.20632,0.01278,0.00000,0.03245,0.97746,-0.18678,0.0,2023,6,7,17,10,55,254
49.04200,0.10868,-0.07472,0.00000,0.03087,0.97783,-0.18849,0.0,2023,6,7,17,10,55,265
49.04210,0.14368,-0.00472,0.00000,0.03282,0.97795,-0.18886,0.0,2023,6,7,17,10,55,276
49.04220,-0.04882,-0.14472,0.00000,0.03257,0.97393,-0.18886,0.0,2023,6,7,17,10,55,288
49.04230,-0.13632,-0.19722,0.00000,0.03221,0.97649,-0.18995,0.0,2023,6,7,17,10,55,299
49.04240,-0.04882,0.04778,0.00000,0.03270,0.97624,-0.18629,0.0,2023,6,7,17,10,55,310
49.04250,-0.03132,0.10028,0.00000,0.03099,0.97954,-0.18776,0.0,2023,6,7,17,10,55,321
49.04260,0.17868,-0.00472,0.00000,0.03026,0.97746,-0.19032,0.0,2023,6,7,17,10,55,332
49.04270,0.14368,-0.12722,0.00000,0.03245,0.97539,-0.18861,0.0,2023,6,7,17,10,55,343
49.04280,0.21368,-0.28472,0.00000,0.03465,0.97698,-0.18703,0.0,2023,6,7,17,10,55,354
49.04290,-0.10132,-0.12722,0.00000,0.03257,0.97673,-0.18764,0.0,2023,6,7,17,10,55,366
49.04300,0.10868,-0.09222,0.00000,0.03111,0.97612,-0.18983,0.0,2023,6,7,17,10,55,377
49.04310,-0.01382,0.11778,0.00000,0.03099,0.97734,-0.19154,0.0,2023,6,7,17,10,55,388
49.04320,0.00368,0.10028,0.00000,0.03294,0.97612,-0.19069,0.0,2023,6,7,17,10,55,399
49.04330,-0.11882,-0.03972,0.00000,0.03160,0.97722,-0.18959,0.0,2023,6,7,17,10,55,410
49.04340,-0.06632,-0.07472,0.00000,0.03196,0.97783,-0.18727,0.0,2023,6,7,17,10,55,421
49.04350,0.16118,0.03028,0.00000,0.03379,0.97624,-0.18934,0.0,2023,6,7,17,10,55,433
49.04360,0.09118,0.20528,0.00000,0.03209,0.97771,-0.18873,0.0,2023,6,7,17,10,55,444
49.04370,0.09118,-0.05722,0.00000,0.03245,0.97673,-0.18934,0.0,2023,6,7,17,10,55,455
49.04380,0.07368,0.03028,0.00000,0.03196,0.97856,-0.18873,0.0,2023,6,7,17,10,55,466
49.04390,-0.10132,0.04778,0.00000,0.03428,0.97576,-0.18593,0.0,2023,6,7,17,10,55,477
49.04400,0.00368,0.03028,0.00000,0.03160,0.97612,-0.18983,0.0,2023,6,7,17,10,55,488
49.04410,-0.06632,0.08278,0.00000,0.03087,0.97844,-0.19093,0.0,2023,6,7,17,10,55,499
49.04420,0.00368,0.06528,0.00000,0.03111,0.97698,-0.18995,0.0,2023,6,7,17,10,55,511
49.04430,0.12618,-0.10972,0.00000,0.03379,0.97698,-0.18849,0.0,2023,6,7,17,10,55,522
49.04440,0.02118,-0.19722,0.00000,0.03148,0.97539,-0.18947,0.0,2023,6,7,17,10,55,533
49.04450,-0.15382,0.01278,0.00000,0.03477,0.97527,-0.18959,0.0,2023,6,7,17,10,55,544
49.04460,-0.06632,-0.07472,0.00000,0.03172,0.97783,-0.19093,0.0,2023,6,7,17,10,55,555
49.04470,-0.10132,-0.03972,0.00000,0.03087,0.97746,-0.18800,0.0,2023,6,7,17,10,55,566
49.04480,-0.11882,0.04778,0.00000,0.03209,0.97612,-0.18666,0.0,2023,6,7,17,10,55,577
49.04490,0.10868,-0.16222,0.00000,0.03257,0.97563,-0.18837,0.0,2023,6,7,17,10,55,589
49.04500,0.16118,0.01278,0.00000,0.03050,0.97649,-0.18947,0.0,2023,6,7,17,10,55,600
49.04510,0.05618,0.03028,0.00000,0.03111,0.97441,-0.18922,0.0,2023,6,7,17,10,55,611
49.04520,0.16118,-0.10972,0.00000,0.03148,0.97649,-0.19203,0.0,2023,6,7,17,10,55,622
49.04530,0.28368,0.01278,0.00000,0.03099,0.97539,-0.18751,0.0,2023,6,7,17,10,55,633
49.04540,-0.11882,-0.05722,0.00000,0.03221,0.97612,-0.18861,0.0,2023,6,7,17,10,55,644
49.04550,-0.03132,-0.02222,0.00000,0.03233,0.97710,-0.18837,0.0,2023,6,7,17,10,55,656
49.04560,0.05618,0.10028,0.00000,0.03099,0.97588,-0.18715,0.0,2023,6,7,17,10,55,667
49.04570,-0.03132,-0.09222,0.00000,0.03270,0.97746,-0.18776,0.0,2023,6,7,17,10,55,678
49.04580,-0.01382,-0.07472,0.00000,0.03392,0.97649,-0.18800,0.0,2023,6,7,17,10,55,689
49.04590,0.00368,0.11778,0.00000,0.03331,0.97734,-0.18751,0.0,2023,6,7,17,10,55,700
49.04600,-0.06632,-0.09222,0.00000,0.03221,0.97600,-0.18971,0.0,2023,6,7,17,10,55,711
49.04610,0.12618,-0.07472,0.00000,0.03294,0.97551,-0.19020,0.0,2023,6,7,17,10,55,722
49.04620,0.05618,0.24028,0.00000,0.03062,0.97612,-0.18934,0.0,2023,6,7,17,10,55,734
49.04630,0.00368,0.17028,0.00000,0.03111,0.97722,-0.19142,0.0,2023,6,7,17,10,55,745
49.04640,0.10868,-0.07472,0.00000,0.03343,0.97844,-0.18556,0.0,2023,6,7,17,10,55,756
49.04650,0.16118,-0.21472,0.00000,0.03355,0.97807,-0.18947,0.0,2023,6,7,17,10,55,767
49.04660,-0.17132,0.20528,0.00000,0.03074,0.97856,-0.18715,0.0,2023,6,7,17,10,55,778
49.04670,0.10868,0.08278,0.00000,0.03270,0.97698,-0.18898,0.0,2023,6,7,17,10,55,789
49.04680,-0.01382,-0.09222,0.00000,0.03074,0.97820,-0.19056,0.0,2023,6,7,17,10,55,800
49.04690,0.17868,-0.05722,0.00000,0.03209,0.97685,-0.18495,0.0,2023,6,7,17,10,55,812
49.04700,-0.01382,-0.10972,0.00000,0.03245,0.97771,-0.18739,0.0,2023,6,7,17,10,55,823
49.04710,0.16118,0.11778,0.00000,0.03221,0.97515,-0.18788,0.0,2023,6,7,17,10,55,834
49.04720,0.03868,-0.12722,0.00000,0.03196,0.97588,-0.18825,0.0,2023,6,7,17,10,55,845
49.04730,0.07368,-0.09222,0.00000,0.03355,0.97673,-0.18995,0.0,2023,6,7,17,10,55,856
49.04740,0.02118,0.10028,0.00000,0.03148,0.97612,-0.18495,0.0,2023,6,7,17,10,55,867
49.04750,0.05618,-0.17972,0.00000,0.03257,0.97783,-0.18666,0.0,2023,6,7,17,10,55,879
49.04760,0.00368,-0.16222,0.00000,0.03233,0.97612,-0.18971,0.0,2023,6,7,17,10,55,890
49.04770,0.09118,-0.02222,0.00000,0.03160,0.97624,-0.19056,0.0,2023,6,7,17,10,55,901
49.04780,-0.04882,-0.12722,0.00000,0.03196,0.97429,-0.18910,0.0,2023,6,7,17,10,55,912
49.04790,0.00368,0.04778,0.00000,0.03367,0.97624,-0.18959,0.0,2023,6,7,17,10,55,923
49.04800,-0.01382,-0.00472,0.00000,0.02989,0.97661,-0.18788,0.0,2023,6,7,17,10,55,934
49.04810,0.19618,0.01278,0.00000,0.03013,0.97868,-0.19044,0.0,2023,6,7,17,10,55,945
49.04820,0.10868,0.01278,0.00000,0.03013,0.97807,-0.19044,0.0,2023,6,7,17,10,55,957
49.04830,0.05618,-0.05722,0.00000,0.03111,0.97856,-0.18971,0.0,2023,6,7,17,10,55,968
49.04840,0.03868,-0.07472,0.00000,0.03074,0.97771,-0.18812,0.0,2023,6,7,17,10,55,979
49.04850,0.10868,0.11778,0.00000,0.03245,0.97746,-0.18812,0.0,2023,6,7,17,10,55,990
49.04860,-0.04882,0.17028,0.00000,0.02928,0.97807,-0.18995,0.0,2023,6,7,17,10,55,1
49.04870,-0.17132,0.10028,0.00000,0.03148,0.97576,-0.19117,0.0,2023,6,7,17,10,56,12
49.04880,-0.03132,-0.03972,0.00000,0.03318,0.97673,-0.18886,0.0,2023,6,7,17,10,56,23
49.04890,0.00368,-0.16222,0.00000,0.03209,0.97820,-0.18800,0.0,2023,6,7,17,10,56,35
49.04900,0.02118,-0.10972,0.00000,0.03306,0.97734,-0.18788,0.0,2023,6,7,17,10,56,46
49.04910,-0.11882,0.13528,0.00000,0.03489,0.97588,-0.19056,0.0,2023,6,7,17,10,56,57
49.04920,0.17868,-0.16222,0.00000,0.03087,0.97380,-0.19056,0.0,2023,6,7,17,10,56,68
49.04930,0.10868,-0.21472,0.00000,0.03343,0.97832,-0.18837,0.0,2023,6,7,17,10,56,79
49.04940,-0.15382,0.20528,0.00000,0.03306,0.97734,-0.18910,0.0,2023,6,7,17,10,56,90
49.04950,0.00368,0.08278,0.00000,0.03282,0.97624,-0.18642,0.0,2023,6,7,17,10,56,102
49.04960,-0.13632,-0.00472,0.00000,0.03172,0.97795,-0.18971,0.0,2023,6,7,17,10,56,113
49.04970,0.10868,-0.05722,0.00000,0.03343,0.97722,-0.18971,0.0,2023,6,7,17,10,56,124
49.04980,-0.03132,0.11778,0.00000,0.03196,0.97478,-0.18886,0.0,2023,6,7,17,10,56,135
49.04990,0.07368,-0.14472,0.00000,0.03099,0.97685,-0.18873,0.0,2023,6,7,17,10,56,146
49.05000,0.03868,-0.10972,0.00000,0.03172,0.97673,-0.18776,0.0,2023,6,7,17,10,56,157
49.05010,-0.01382,0.08278,0.00000,0.02989,0.97624,-0.19215,0.0,2023,6,7,17,10,56,168
49.05020,0.16118,-0.09222,0.00000,0.03074,0.97563,-0.18812,0.0,2023,6,7,17,10,56,180
49.05030,-0.13632,0.13528,0.00000,0.02891,0.97759,-0.19044,0.0,2023,6,7,17,10,56,191
49.05040,0.10868,0.06528,0.00000,0.03270,0.97673,-0.18947,0.0,2023,6,7,17,10,56,202
49.05050,0.07368,0.03028,0.00000,0.03123,0.97807,-0.19081,0.0,2023,6,7,17,10,56,213
49.05060,0.05618,-0.17972,0.00000,0.03050,0.97673,-0.19130,0.0,2023,6,7,17,10,56,224
49.05070,0.14368,0.01278,0.00000,0.03013,0.97856,-0.19154,0.0,2023,6,7,17,10,56,235
49.05080,0.16118,0.03028,0.00000,0.03111,0.97820,-0.18934,0.0,2023,6,7,17,10,56,246
49.05090,-0.13632,0.08278,0.00000,0.03294,0.97563,-0.18922,0.0,2023,6,7,17,10,56,258
49.05100,-0.10132,-0.10972,0.00000,0.03282,0.97417,-0.18983,0.0,2023,6,7,17,10,56,269
49.05110,0.02118,-0.12722,0.00000,0.02989,0.97576,-0.18861,0.0,2023,6,7,17,10,56,280
49.05120,-0.08382,0.08278,0.00000,0.03087,0.97539,-0.19020,0.0,2023,6,7,17,10,56,291
49.05130,0.10868,0.03028,0.00000,0.03184,0.97624,-0.18886,0.0,2023,6,7,17,10,56,302
49.05140,0.02118,-0.00472,0.00000,0.03050,0.97478,-0.19032,0.0,2023,6,7,17,10,56,313
49.05150,0.02118,-0.14472,0.00000,0.03318,0.97673,-0.18934,0.0,2023,6,7,17,10,56,325
49.05160,-0.03132,0.20528,0.00000,0.03160,0.97710,-0.19081,0.0,2023,6,7,17,10,56,336
49.05170,0.19618,-0.16222,0.00000,0.03087,0.97771,-0.19300,0.0,2023,6,7,17,10,56,347
49.05180,-0.01382,0.18778,0.00000,0.03087,0.97783,-0.19166,0.0,2023,6,7,17,10,56,358
49.05190,0.10868,-0.17972,0.00000,0.03135,0.97698,-0.18898,0.0,2023,6,7,17,10,56,369
49.05200,-0.08382,0.06528,0.00000,0.03001,0.97722,-0.19044,0.0,2023,6,7,17,10,56,380
49.05210,0.03868,0.03028,0.00000,0.03282,0.97771,-0.18983,0.0,2023,6,7,17,10,56,391
49.05220,0.03868,-0.02222,0.00000,0.03270,0.97637,-0.18751,0.0,2023,6,7,17,10,56,403
49.05230,-0.03132,0.15278,0.00000,0.03367,0.97746,-0.18898,0.0,2023,6,7,17,10,56,414
49.05240,0.05618,0.10028,0.00000,0.03306,0.97698,-0.18995,0.0,2023,6,7,17,10,56,425
49.05250,-0.10132,0.01278,0.00000,0.03026,0.97551,-0.19008,0.0,2023,6,7,17,10,56,436
49.05260,-0.10132,0.13528,0.00000,0.03318,0.97576,-0.18812,0.0,2023,6,7,17,10,56,447
49.05270,-0.03132,0.13528,0.00000,0.03257,0.97783,-0.18898,0.0,2023,6,7,17,10,56,458
49.05280,-0.04882,0.18778,0.00000,0.03123,0.97600,-0.18666,0.0,2023,6,7,17,10,56,469
49.05290,-0.01382,-0.17972,0.00000,0.03209,0.97502,-0.18825,0.0,2023,6,7,17,10,56,481
49.05300,0.05618,-0.07472,0.00000,0.03013,0.97661,-0.19044,0.0,2023,6,7,17,10,56,492
49.05310,0.10868,0.06528,0.00000,0.03001,0.98003,-0.18886,0.0,2023,6,7,17,10,56,503
49.05320,-0.01382,-0.19722,0.00000,0.03245,0.97734,-0.18825,0.0,2023,6,7,17,10,56,514
49.05330,-0.11882,0.13528,0.00000,0.03306,0.97661,-0.19093,0.0,2023,6,7,17,10,56,525
49.05340,0.10868,-0.00472,0.00000,0.03013,0.97698,-0.18959,0.0,2023,6,7,17,10,56,536
49.05350,0.16118,-0.16222,0.00000,0.03184,0.97954,-0.19093,0.0,2023,6,7,17,10,56,548
49.05360,0.09118,-0.00472,0.00000,0.03331,0.97673,-0.19081,0.0,2023,6,7,17,10,56,559
49.05370,-0.36382,0.06528,0.00000,0.03184,0.97868,-0.18800,0.0,2023,6,7,17,10,56,570
49.05380,0.05618,-0.00472,0.00000,0.03135,0.97502,-0.18898,0.0,2023,6,7,17,10,56,581
49.05390,0.10868,-0.16222,0.00000,0.03135,0.97600,-0.18910,0.0,2023,6,7,17,10,56,592
49.05400,-0.06632,-0.00472,0.00000,0.03209,0.97759,-0.18849,0.0,2023,6,7,17,10,56,603
49.05410,0.02118,-0.05722,0.00000,0.03172,0.98076,-0.18739,0.0,2023,6,7,17,10,56,614
49.05420,0.09118,-0.14472,0.00000,0.03196,0.97807,-0.19044,0.0,2023,6,7,17,10,56,626
49.05430,0.10868,0.03028,0.00000,0.03343,0.97490,-0.18886,0.0,2023,6,7,17,10,56,637
49.05440,0.09118,-0.17972,0.00000,0.03184,0.97746,-0.19105,0.0,2023,6,7,17,10,56,648
49.05450,-0.15382,-0.07472,0.00000,0.03196,0.97698,-0.18934,0.0,2023,6,7,17,10,56,659
49.05460,0.16118,0.17028,0.00000,0.03257,0.97539,-0.18751,0.0,2023,6,7,17,10,56,670
49.05470,0.07368,0.01278,0.00000,0.03196,0.97673,-0.19056,0.0,2023,6,7,17,10,56,681
49.05480,0.12618,-0.02222,0.00000,0.03257,0.97441,-0.18959,0.0,2023,6,7,17,10,56,692
49.05490,0.05618,-0.05722,0.00000,0.03270,0.97783,-0.18849,0.0,2023,6,7,17,10,56,704
49.05500,0.12618,-0.16222,0.00000,0.03270,0.97441,-0.19056,0.0,2023,6,7,17,10,56,715
49.05510,0.00368,0.03028,0.00000,0.02952,0.97759,-0.18861,0.0,2023,6,7,17,10,56,726
49.05520,-0.22382,0.18778,0.00000,0.03196,0.97612,-0.18812,0.0,2023,6,7,17,10,56,737
49.05530,0.02118,-0.07472,0.00000,0.03318,0.97539,-0.19276,0.0,2023,6,7,17,10,56,748
49.05540,0.05618,-0.00472,0.00000,0.03160,0.97649,-0.18910,0.0,2023,6,7,17,10,56,759
49.05550,-0.11882,-0.00472,0.00000,0.02989,0.97685,-0.18861,0.0,2023,6,7,17,10,56,771
49.05560,-0.03132,-0.12722,0.00000,0.03038,0.97490,-0.19032,0.0,2023,6,7,17,10,56,782
49.05570,0.02118,-0.10972,0.00000,0.03135,0.97722,-0.19227,0.0,2023,6,7,17,10,56,793
49.05580,0.05618,0.04778,0.00000,0.02989,0.97637,-0.18971,0.0,2023,6,7,17,10,56,804
49.05590,-0.27632,0.24028,0.00000,0.03440,0.98039,-0.18873,0.0,2023,6,7,17,10,56,815
49.05600,0.14368,-0.16222,0.00000,0.02977,0.97795,-0.18825,0.0,2023,6,7,17,10,56,826
49.05610,-0.03132,-0.09222,0.00000,0.03184,0.97722,-0.18764,0.0,2023,6,7,17,10,56,837
49.05620,0.14368,0.01278,0.00000,0.03184,0.97295,-0.18983,0.0,2023,6,7,17,10,56,849
49.05630,0.03868,0.04778,0.00000,0.03440,0.97539,-0.18764,0.0,2023,6,7,17,10,56,860
49.05640,-0.08382,-0.12722,0.00000,0.03135,0.97685,-0.18971,0.0,2023,6,7,17,10,56,871
49.05650,-0.13632,-0.30222,0.00000,0.03257,0.97649,-0.18959,0.0,2023,6,7,17,10,56,882
49.05660,-0.04882,0.10028,0.00000,0.03233,0.97649,-0.18800,0.0,2023,6,7,17,10,56,893
49.05670,0.09118,0.15278,0.00000,0.03196,0.97820,-0.19020,0.0,2023,6,7,17,10,56,904
49.05680,0.14368,-0.02222,0.00000,0.03001,0.97771,-0.18593,0.0,2023,6,7,17,10,56,915
49.05690,0.07368,-0.09222,0.00000,0.03148,0.97612,-0.18886,0.0,2023,6,7,17,10,56,927
49.05700,-0.01382,-0.23222,0.00000,0.03087,0.98039,-0.19105,0.0,2023,6,7,17,10,56,938
49.05710,0.09118,0.06528,0.00000,0.03013,0.97771,-0.19093,0.0,2023,6,7,17,10,56,949
49.05720,0.03868,0.17028,0.00000,0.02940,0.97661,-0.18934,0.0,2023,6,7,17,10,56,960
49.05730,-0.01382,0.01278,0.00000,0.03440,0.97759,-0.18727,0.0,2023,6,7,17,10,56,971
49.05740,-0.03132,-0.12722,0.00000,0.03123,0.98088,-0.18617,0.0,2023,6,7,17,10,56,982
49.05750,-0.11882,-0.00472,0.00000,0.03257,0.97746,-0.18898,0.0,2023,6,7,17,10,56,994
49.05760,0.12618,0.17028,0.00000,0.03172,0.97600,-0.18837,0.0,2023,6,7,17,10,57,5
49.05770,0.00368,0.08278,0.00000,0.03111,0.97515,-0.18910,0.0,2023,6,7,17,10,57,16
49.05780,-0.13632,-0.12722,0.00000,0.03160,0.97722,-0.19044,0.0,2023,6,7,17,10,57,27
49.05790,0.14368,-0.24972,0.00000,0.03184,0.97527,-0.18776,0.0,2023,6,7,17,10,57,38
49.05800,-0.15382,-0.12722,0.00000,0.03257,0.97685,-0.18727,0.0,2023,6,7,17,10,57,49
49.05810,0.09118,0.01278,0.00000,0.03428,0.97759,-0.19056,0.0,2023,6,7,17,10,57,60
49.05820,0.10868,0.08278,0.00000,0.03172,0.97649,-0.18629,0.0,2023,6,7,17,10,57,72
49.05830,0.03868,-0.07472,0.00000,0.03123,0.97710,-0.18751,0.0,2023,6,7,17,10,57,83
49.05840,-0.08382,0.01278,0.00000,0.03196,0.97661,-0.18727,0.0,2023,6,7,17,10,57,94
49.05850,-0.13632,-0.14472,0.00000,0.03099,0.97539,-0.18922,0.0,2023,6,7,17,10,57,105
49.05860,0.10868,0.06528,0.00000,0.03038,0.97832,-0.18947,0.0,2023,6,7,17,10,57,116
49.05870,0.05618,0.15278,0.00000,0.03062,0.97698,-0.18971,0.0,2023,6,7,17,10,57,127
49.05880,-0.10132,0.04778,0.00000,0.03294,0.97746,-0.18629,0.0,2023,6,7,17,10,57,138
49.05890,0.05618,-0.07472,0.00000,0.03282,0.97466,-0.18764,0.0,2023,6,7,17,10,57,150
49.05900,0.10868,-0.10972,0.00000,0.03172,0.97612,-0.18995,0.0,2023,6,7,17,10,57,161
49.05910,-0.11882,-0.10972,0.00000,0.03135,0.97588,-0.18922,0.0,2023,6,7,17,10,57,172
49.05920,-0.22382,-0.02222,0.00000,0.03184,0.97746,-0.18873,0.0,2023,6,7,17,10,57,183
49.05930,0.03868,-0.03972,0.00000,0.03270,0.97673,-0.18861,0.0,2023,6,7,17,10,57,194
49.05940,0.03868,-0.17972,0.00000,0.03209,0.97563,-0.18886,0.0,2023,6,7,17,10,57,205
49.05950,-0.01382,-0.14472,0.00000,0.03343,0.97734,-0.19069,0.0,2023,6,7,17,10,57,217
49.05960,0.12618,0.01278,0.00000,0.03233,0.97551,-0.19008,0.0,2023,6,7,17,10,57,228
49.05970,0.19618,-0.12722,0.00000,0.03221,0.97807,-0.18971,0.0,2023,6,7,17,10,57,239
49.05980,0.17868,-0.07472,0.00000,0.03318,0.97551,-0.18898,0.0,2023,6,7,17,10,57,250
49.05990,-0.17132,-0.05722,0.00000,0.03026,0.97563,-0.18995,0.0,2023,6,7,17,10,57,261
49.06000,0.12618,-0.03972,0.00000,0.03111,0.97661,-0.19117,0.0,2023,6,7,17,10,57,272
49.06010,0.19618,-0.17972,0.00000,0.03209,0.97624,-0.19069,0.0,2023,6,7,17,10,57,283
49.06020,0.23118,0.03028,0.00000,0.03123,0.97441,-0.19239,0.0,2023,6,7,17,10,57,295
49.06030,-0.10132,0.01278,0.00000,0.03013,0.97795,-0.18861,0.0,2023,6,7,17,10,57,306
49.06040,0.07368,-0.09222,0.00000,0.03038,0.97466,-0.18995,0.0,2023,6,7,17,10,57,317
49.06050,0.07368,-0.17972,0.00000,0.02965,0.97502,-0.18934,0.0,2023,6,7,17,10,57,328
49.06060,-0.11882,-0.00472,0.00000,0.03148,0.97576,-0.19215,0.0,2023,6,7,17,10,57,339
49.06070,-0.04882,-0.30222,0.00000,0.03184,0.97588,-0.18849,0.0,2023,6,7,17,10,57,350
49.06080,-0.03132,-0.12722,0.00000,0.03111,0.97783,-0.18886,0.0,2023,6,7,17,10,57,361
49.06090,-0.01382,0.04778,0.00000,0.03050,0.97856,-0.18898,0.0,2023,6,7,17,10,57,373
49.06100,0.05618,-0.14472,0.00000,0.03172,0.97710,-0.19105,0.0,2023,6,7,17,10,57,384
49.06110,0.12618,0.01278,0.00000,0.03026,0.97856,-0.19008,0.0,2023,6,7,17,10,57,395
49.06120,-0.11882,0.06528,0.00000,0.03257,0.97783,-0.18898,0.0,2023,6,7,17,10,57,406
49.06130,-0.10132,-0.19722,0.00000,0.03074,0.97698,-0.18739,0.0,2023,6,7,17,10,57,417
49.06140,0.10868,-0.17972,0.00000,0.03111,0.97441,-0.19398,0.0,2023,6,7,17,10,57,428
49.06150,0.02118,-0.05722,0.00000,0.03050,0.97624,-0.19044,0.0,2023,6,7,17,10,57,440
49.06160,0.00368,-0.10972,0.00000,0.03062,0.97490,-0.19044,0.0,2023,6,7,17,10,57,451
49.06170,-0.11882,0.06528,0.00000,0.03221,0.97454,-0.19117,0.0,2023,6,7,17,10,57,462
49.06180,0.09118,-0.00472,0.00000,0.03221,0.97771,-0.18837,0.0,2023,6,7,17,10,57,473
49.06190,0.00368,0.06528,0.00000,0.02940,0.97502,-0.19154,0.0,2023,6,7,17,10,57,484
49.06200,-0.04882,-0.12722,0.00000,0.03038,0.97563,-0.19032,0.0,2023,6,7,17,10,57,495
49.06210,-0.27632,0.18778,0.00000,0.03123,0.97539,-0.18898,0.0,2023,6,7,17,10,57,506
49.06220,-0.08382,0.08278,0.00000,0.03233,0.97551,-0.18849,0.0,2023,6,7,17,10,57,518
49.06230,0.17868,-0.03972,0.00000,0.03148,0.97746,-0.18788,0.0,2023,6,7,17,10,57,529
49.06240,-0.08382,-0.12722,0.00000,0.03160,0.97698,-0.18898,0.0,2023,6,7,17,10,57,540
49.06250,-0.01382,0.04778,0.00000,0.03074,0.97722,-0.18837,0.0,2023,6,7,17,10,57,551
49.06260,-0.11882,0.08278,0.00000,0.03245,0.97832,-0.18983,0.0,2023,6,7,17,10,57,562
49.06270,-0.17132,-0.14472,0.00000,0.03148,0.97673,-0.18715,0.0,2023,6,7,17,10,57,573
49.06280,0.02118,-0.09222,0.00000,0.03318,0.97698,-0.19069,0.0,2023,6,7,17,10,57,584
49.06290,0.03868,-0.23222,0.00000,0.03160,0.97893,-0.19239,0.0,2023,6,7,17,10,57,596
49.06300,0.12618,0.06528,0.00000,0.03428,0.97893,-0.19093,0.0,2023,6,7,17,10,57,607
49.06310,0.17868,-0.10972,0.00000,0.03160,0.97673,-0.18837,0.0,2023,6,7,17,10,57,618
49.06320,0.10868,-0.07472,0.00000,0.03257,0.97600,-0.18861,0.0,2023,6,7,17,10,57,629
49.06330,-0.04882,-0.03972,0.00000,0.03392,0.97698,-0.18995,0.0,2023,6,7,17,10,57,640
49.06340,0.07368,-0.02222,0.00000,0.02989,0.97539,-0.19130,0.0,2023,6,7,17,10,57,651
49.06350,0.09118,0.27528,0.00000,0.03135,0.97893,-0.18886,0.0,2023,6,7,17,10,57,663
49.06360,-0.17132,0.06528,0.00000,0.03196,0.97771,-0.18910,0.0,2023,6,7,17,10,57,674
49.06370,0.00368,-0.03972,0.00000,0.03233,0.97588,-0.18764,0.0,2023,6,7,17,10,57,685
49.06380,0.14368,-0.12722,0.00000,0.03074,0.97759,-0.18910,0.0,2023,6,7,17,10,57,696
49.06390,0.12618,-0.03972,0.00000,0.03111,0.97649,-0.18739,0.0,2023,6,7,17,10,57,707
49.06400,0.14368,-0.14472,0.00000,0.03245,0.97759,-0.18849,0.0,2023,6,7,17,10,57,718
49.06410,-0.06632,0.01278,0.00000,0.03416,0.97759,-0.18837,0.0,2023,6,7,17,10,57,729
49.06420,0.12618,-0.07472,0.00000,0.03001,0.97588,-0.19020,0.0,2023,6,7,17,10,57,741
49.06430,-0.08382,-0.14472,0.00000,0.03001,0.97624,-0.19069,0.0,2023,6,7,17,10,57,752
49.06440,0.26618,-0.07472,0.00000,0.03148,0.97612,-0.19105,0.0,2023,6,7,17,10,57,763
49.06450,0.05618,0.06528,0.00000,0.03343,0.97942,-0.18873,0.0,2023,6,7,17,10,57,774
49.06460,0.10868,-0.24972,0.00000,0.03148,0.97917,-0.18825,0.0,2023,6,7,17,10,57,785
49.06470,0.00368,-0.12722,0.00000,0.03148,0.97539,-0.18995,0.0,2023,6,7,17,10,57,796
49.06480,-0.06632,0.06528,0.00000,0.03172,0.97734,-0.18812,0.0,2023,6,7,17,10,57,807
49.06490,0.03868,-0.14472,0.00000,0.03355,0.97624,-0.18947,0.0,2023,6,7,17,10,57,819
49.06500,0.21368,-0.10972,0.00000,0.03135,0.97563,-0.18800,0.0,2023,6,7,17,10,57,830
49.06510,-0.24132,0.13528,0.00000,0.03343,0.97588,-0.18715,0.0,2023,6,7,17,10,57,841
49.06520,0.12618,-0.30222,0.00000,0.02928,0.97685,-0.19032,0.0,2023,6,7,17,10,57,852
49.06530,0.21368,-0.12722,0.00000,0.03331,0.97515,-0.19117,0.0,2023,6,7,17,10,57,863
49.06540,-0.03132,-0.10972,0.00000,0.03099,0.97563,-0.18776,0.0,2023,6,7,17,10,57,874
49.06550,-0.03132,0.10028,0.00000,0.03221,0.97649,-0.18910,0.0,2023,6,7,17,10,57,886
49.06560,0.09118,-0.00472,0.00000,0.03501,0.97771,-0.18886,0.0,2023,6,7,17,10,57,897
49.06570,-0.06632,0.04778,0.00000,0.03331,0.97820,-0.18898,0.0,2023,6,7,17,10,57,908
49.06580,0.07368,-0.09222,0.00000,0.03196,0.97612,-0.19032,0.0,2023,6,7,17,10,57,919
49.06590,0.16118,0.01278,0.00000,0.03111,0.97405,-0.18776,0.0,2023,6,7,17,10,57,930
49.06600,-0.06632,0.13528,0.00000,0.03135,0.97759,-0.19020,0.0,2023,6,7,17,10,57,941
49.06610,-0.01382,0.01278,0.00000,0.03331,0.97868,-0.18886,0.0,2023,6,7,17,10,57,952
49.06620,-0.18882,-0.10972,0.00000,0.03123,0.97893,-0.18934,0.0,2023,6,7,17,10,57,964
49.06630,0.24868,-0.21472,0.00000,0.03013,0.97502,-0.19130,0.0,2023,6,7,17,10,57,975
49.06640,0.24868,-0.26722,0.00000,0.03013,0.97490,-0.19105,0.0,2023,6,7,17,10,58,986
49.06650,0.03868,0.03028,0.00000,0.03074,0.97466,-0.18898,0.0,2023,6,7,17,10,58,997
49.06660,-0.03132,-0.12722,0.00000,0.03282,0.97844,-0.18727,0.0,2023,6,7,17,10,58,8
49.06670,-0.13632,-0.03972,0.00000,0.03245,0.97624,-0.19154,0.0,2023,6,7,17,10,58,19
#2023/06/07 17:10:58
