#2023/06/07 14:43:57
time,wx,wy,wz,ax,ay,az,yy,MM,dd,hh,mm,ss,ms
40.77080,0.06160,-0.11567,0.00000,0.03209,0.97722,-0.18947,0.0,2023,6,7,14,43,58,2
40.77090,0.06160,-0.08067,0.00000,0.03038,0.97576,-0.19044,0.0,2023,6,7,14,43,58,10
40.77100,-0.04340,-0.04567,0.00000,0.03123,0.97600,-0.18800,0.0,2023,6,7,14,43,58,20
40.77110,-0.04340,-0.06317,0.00000,0.03392,0.97746,-0.18715,0.0,2023,6,7,14,43,58,30
40.77120,-0.20090,0.04183,0.00000,0.03209,0.97783,-0.18971,0.0,2023,6,7,14,43,58,40
40.77130,-0.11340,0.12933,0.00000,0.03135,0.97624,-0.19056,0.0,2023,6,7,14,43,58,50
40.77140,-0.04340,0.07683,0.00000,0.03209,0.97698,-0.19154,0.0,2023,6,7,14,43,58,60
40.77150,-0.09590,0.11183,0.00000,0.03087,0.97734,-0.19020,0.0,2023,6,7,14,43,58,70
40.77160,0.07910,-0.18567,0.00000,0.03001,0.97588,-0.18849,0.0,2023,6,7,14,43,58,80
40.77170,-0.13090,-0.06317,0.00000,0.03074,0.97868,-0.19032,0.0,2023,6,7,14,43,58,90
40.77180,0.11410,0.02433,0.00000,0.03135,0.97832,-0.18898,0.0,2023,6,7,14,43,58,100
40.77190,-0.20090,-0.22067,0.00000,0.03196,0.97551,-0.18959,0.0,2023,6,7,14,43,58,110
40.77200,0.20160,-0.22067,0.00000,0.02977,0.97551,-0.19008,0.0,2023,6,7,14,43,58,120
40.77210,0.06160,0.02433,0.00000,0.03135,0.97649,-0.18898,0.0,2023,6,7,14,43,58,130
40.77220,0.00910,0.07683,0.00000,0.03099,0.97637,-0.18995,0.0,2023,6,7,14,43,58,140
40.77230,0.13160,-0.06317,0.00000,0.02928,0.97649,-0.18971,0.0,2023,6,7,14,43,58,150
40.77240,-0.21840,0.23433,0.00000,0.03062,0.97807,-0.19081,0.0,2023,6,7,14,43,58,160
40.77250,0.02660,0.12933,0.00000,0.03172,0.97600,-0.18873,0.0,2023,6,7,14,43,58,170
40.77260,-0.09590,0.09433,0.00000,0.03306,0.97722,-0.19008,0.0,2023,6,7,14,43,58,180
40.77270,-0.09590,0.18183,0.00000,0.03135,0.97661,-0.18812,0.0,2023,6,7,14,43,58,190
40.77280,-0.04340,0.14683,0.00000,0.03196,0.97368,-0.18910,0.0,2023,6,7,14,43,58,200
40.77290,-0.09590,-0.02817,0.00000,0.02977,0.97673,-0.18995,0.0,2023,6,7,14,43,58,210
40.77300,0.09660,0.04183,0.00000,0.03343,0.97661,-0.18971,0.0,2023,6,7,14,43,58,220
40.77310,0.04410,0.00683,0.00000,0.03355,0.97783,-0.19117,0.0,2023,6,7,14,43,58,230
40.77320,0.23660,-0.08067,0.00000,0.02977,0.97820,-0.18910,0.0,2023,6,7,14,43,58,240
40.77330,-0.09590,0.19933,0.00000,0.03367,0.97490,-0.19081,0.0,2023,6,7,14,43,58,250
40.77340,0.20160,0.00683,0.00000,0.03074,0.97624,-0.18971,0.0,2023,6,7,14,43,58,260
40.77350,-0.02590,0.12933,0.00000,0.03318,0.97722,-0.18825,0.0,2023,6,7,14,43,58,270
40.77360,-0.07840,-0.08067,0.00000,0.03343,0.97734,-0.18971,0.0,2023,6,7,14,43,58,280
40.77370,-0.16590,0.05933,0.00000,0.02867,0.98039,-0.18898,0.0,2023,6,7,14,43,58,290
40.77380,0.11410,0.11183,0.00000,0.03184,0.97515,-0.18825,0.0,2023,6,7,14,43,58,300
40.77390,0.14910,-0.09817,0.00000,0.02952,0.97563,-0.19020,0.0,2023,6,7,14,43,58,310
40.77400,0.02660,-0.13317,0.00000,0.03013,0.97539,-0.18690,0.0,2023,6,7,14,43,58,320
40.77410,0.04410,0.04183,0.00000,0.03160,0.97441,-0.18971,0.0,2023,6,7,14,43,58,330
40.77420,0.07910,0.05933,0.00000,0.03221,0.97563,-0.19069,0.0,2023,6,7,14,43,58,340
40.77430,0.27160,0.07683,0.00000,0.03111,0.97649,-0.18947,0.0,2023,6,7,14,43,58,350
40.77440,-0.18340,-0.02817,0.00000,0.03099,0.97600,-0.19032,0.0,2023,6,7,14,43,58,360
40.77450,0.09660,-0.25567,0.00000,0.03074,0.97661,-0.18629,0.0,2023,6,7,14,43,58,370
40.77460,0.06160,0.18183,0.00000,0.03282,0.97539,-0.19239,0.0,2023,6,7,14,43,58,380
40.77470,-0.18340,0.18183,0.00000,0.03245,0.97844,-0.18825,0.0,2023,6,7,14,43,58,390
40.77480,0.18410,0.05933,0.00000,0.03135,0.97685,-0.18849,0.0,2023,6,7,14,43,58,400
40.77490,-0.02590,0.00683,0.00000,0.03135,0.97649,-0.18715,0.0,2023,6,7,14,43,58,410
40.77500,0.14910,-0.11567,0.00000,0.03318,0.97539,-0.19056,0.0,2023,6,7,14,43,58,420
40.77510,-0.09590,-0.01067,0.00000,0.03026,0.97563,-0.18886,0.0,2023,6,7,14,43,58,430
40.77520,0.04410,0.05933,0.00000,0.03099,0.97576,-0.19056,0.0,2023,6,7,14,43,58,440
40.77530,0.00910,0.07683,0.00000,0.03148,0.97746,-0.18788,0.0,2023,6,7,14,43,58,450
40.77540,-0.00840,0.04183,0.00000,0.03062,0.97624,-0.18995,0.0,2023,6,7,14,43,58,460
40.77550,0.39410,-0.13317,0.00000,0.03038,0.97759,-0.18959,0.0,2023,6,7,14,43,58,470
40.77560,-0.04340,-0.01067,0.00000,0.03392,0.97600,-0.18861,0.0,2023,6,7,14,43,58,480
40.77570,0.04410,-0.18567,0.00000,0.03331,0.97673,-0.19069,0.0,2023,6,7,14,43,58,490
40.77580,0.20160,-0.06317,0.00000,0.03221,0.97612,-0.19008,0.0,2023,6,7,14,43,58,500
40.77590,-0.06090,0.09433,0.00000,0.03001,0.97759,-0.18934,0.0,2023,6,7,14,43,58,510
40.77600,-0.02590,0.04183,0.00000,0.03294,0.97771,-0.19044,0.0,2023,6,7,14,43,58,520
40.77610,0.00910,-0.18567,0.00000,0.02952,0.97502,-0.18995,0.0,2023,6,7,14,43,58,530
40.77620,-0.07840,-0.09817,0.00000,0.03074,0.97502,-0.18812,0.0,2023,6,7,14,43,58,540
40.77630,-0.02590,0.09433,0.00000,0.03160,0.97539,-0.18971,0.0,2023,6,7,14,43,58,550
40.77640,0.00910,0.00683,0.00000,0.03087,0.97649,-0.18886,0.0,2023,6,7,14,43,58,560
40.77650,0.09660,-0.02817,0.00000,0.03233,0.97490,-0.18947,0.0,2023,6,7,14,43,58,570
40.77660,-0.06090,-0.09817,0.00000,0.03123,0.97429,-0.18861,0.0,2023,6,7,14,43,58,580
40.77670,-0.00840,0.05933,0.00000,0.03050,0.97771,-0.18959,0.0,2023,6,7,14,43,58,590
40.77680,0.11410,-0.02817,0.00000,0.03233,0.97746,-0.18739,0.0,2023,6,7,14,43,58,600
40.77690,-0.00840,-0.01067,0.00000,0.03257,0.97417,-0.19056,0.0,2023,6,7,14,43,58,610
40.77700,0.06160,-0.08067,0.00000,0.03196,0.97405,-0.18886,0.0,2023,6,7,14,43,58,620
40.77710,0.11410,-0.04567,0.00000,0.03331,0.97722,-0.18764,0.0,2023,6,7,14,43,58,630
40.77720,0.02660,0.04183,0.00000,0.03196,0.97393,-0.18849,0.0,2023,6,7,14,43,58,640
40.77730,0.00910,-0.29067,0.00000,0.03221,0.97673,-0.18910,0.0,2023,6,7,14,43,58,650
40.77740,0.07910,0.05933,0.00000,0.03038,0.97820,-0.18898,0.0,2023,6,7,14,43,58,660
40.77750,-0.23590,-0.04567,0.00000,0.03135,0.97551,-0.19008,0.0,2023,6,7,14,43,58,670
40.77760,-0.16590,0.32183,0.00000,0.03038,0.97368,-0.18837,0.0,2023,6,7,14,43,58,680
40.77770,-0.00840,0.14683,0.00000,0.03160,0.97698,-0.18934,0.0,2023,6,7,14,43,58,690
40.77780,0.02660,-0.01067,0.00000,0.03013,0.97929,-0.18849,0.0,2023,6,7,14,43,58,700
40.77790,-0.11340,0.02433,0.00000,0.03306,0.97539,-0.18934,0.0,2023,6,7,14,43,58,710
40.77800,0.00910,-0.06317,0.00000,0.03099,0.97612,-0.18849,0.0,2023,6,7,14,43,58,720
40.77810,0.14910,-0.04567,0.00000,0.03099,0.97710,-0.18922,0.0,2023,6,7,14,43,58,730
40.77820,-0.04340,0.00683,0.00000,0.03294,0.97502,-0.18825,0.0,2023,6,7,14,43,58,740
40.77830,0.20160,0.04183,0.00000,0.03038,0.97393,-0.19032,0.0,2023,6,7,14,43,58,750
40.77840,0.13160,-0.09817,0.00000,0.03306,0.97673,-0.18776,0.0,2023,6,7,14,43,58,760
40.77850,-0.14840,0.00683,0.00000,0.02952,0.97466,-0.18886,0.0,2023,6,7,14,43,58,770
40.77860,-0.07840,-0.02817,0.00000,0.03148,0.97624,-0.19020,0.0,2023,6,7,14,43,58,780
40.77870,-0.06090,-0.16817,0.00000,0.03038,0.97478,-0.18849,0.0,2023,6,7,14,43,58,790
40.77880,0.21910,-0.02817,0.00000,0.03111,0.97624,-0.18947,0.0,2023,6,7,14,43,58,800
40.77890,-0.04340,-0.22067,0.00000,0.03379,0.97600,-0.18593,0.0,2023,6,7,14,43,59,810
40.77900,-0.00840,-0.04567,0.00000,0.03270,0.97563,-0.18715,0.0,2023,6,7,14,43,59,820
40.77910,-0.04340,0.04183,0.00000,0.03184,0.97673,-0.18910,0.0,2023,6,7,14,43,59,830
40.77920,0.02660,-0.08067,0.00000,0.03038,0.97881,-0.18739,0.0,2023,6,7,14,43,59,840
40.77930,0.16660,0.05933,0.00000,0.03196,0.97539,-0.18581,0.0,2023,6,7,14,43,59,850
40.77940,-0.16590,0.09433,0.00000,0.03062,0.97466,-0.18825,0.0,2023,6,7,14,43,59,860
40.77950,0.00910,0.04183,0.00000,0.03282,0.97490,-0.18703,0.0,2023,6,7,14,43,59,870
40.77960,-0.18340,-0.15067,0.00000,0.02940,0.97746,-0.18910,0.0,2023,6,7,14,43,59,880
40.77970,-0.18340,0.02433,0.00000,0.03306,0.97649,-0.18983,0.0,2023,6,7,14,43,59,890
40.77980,-0.04340,-0.16817,0.00000,0.03160,0.97710,-0.18825,0.0,2023,6,7,14,43,59,900
40.77990,0.00910,0.11183,0.00000,0.03099,0.97576,-0.18971,0.0,2023,6,7,14,43,59,910
40.78000,0.04410,-0.01067,0.00000,0.03184,0.97576,-0.18922,0.0,2023,6,7,14,43,59,920
40.78010,-0.02590,-0.22067,0.00000,0.03404,0.97405,-0.18959,0.0,2023,6,7,14,43,59,930
40.78020,-0.07840,0.05933,0.00000,0.03135,0.97661,-0.19020,0.0,2023,6,7,14,43,59,940
40.78030,0.20160,-0.09817,0.00000,0.03135,0.97673,-0.18690,0.0,2023,6,7,14,43,59,950
40.78040,0.02660,-0.15067,0.00000,0.03196,0.97685,-0.18910,0.0,2023,6,7,14,43,59,960
40.78050,0.02660,-0.09817,0.00000,0.03123,0.97612,-0.18690,0.0,2023,6,7,14,43,59,970
40.78060,-0.06090,0.02433,0.00000,0.03184,0.97649,-0.18934,0.0,2023,6,7,14,43,59,980
40.78070,-0.07840,0.04183,0.00000,0.03087,0.97637,-0.18617,0.0,2023,6,7,14,43,59,990
40.78080,0.02660,-0.08067,0.00000,0.03209,0.97332,-0.19117,0.0,2023,6,7,14,43,59,0
40.78090,-0.02590,-0.06317,0.00000,0.03184,0.97685,-0.18629,0.0,2023,6,7,14,43,59,10
40.78100,-0.00840,0.00683,0.00000,0.02977,0.97502,-0.19032,0.0,2023,6,7,14,43,59,20
40.78110,0.07910,-0.04567,0.00000,0.03209,0.97576,-0.18947,0.0,2023,6,7,14,43,59,30
40.78120,-0.02590,-0.04567,0.00000,0.03099,0.97527,-0.18825,0.0,2023,6,7,14,43,59,40
40.78130,-0.18340,-0.01067,0.00000,0.03123,0.97832,-0.18776,0.0,2023,6,7,14,43,59,50
40.78140,0.07910,-0.11567,0.00000,0.03013,0.97612,-0.19117,0.0,2023,6,7,14,43,59,60
40.78150,0.44660,-0.16817,0.00000,0.03306,0.97661,-0.18934,0.0,2023,6,7,14,43,59,70
40.78160,0.02660,-0.11567,0.00000,0.03087,0.97588,-0.18837,0.0,2023,6,7,14,43,59,80
40.78170,0.04410,0.18183,0.00000,0.03160,0.97649,-0.18837,0.0,2023,6,7,14,43,59,90
40.78180,0.02660,0.07683,0.00000,0.03087,0.97698,-0.18947,0.0,2023,6,7,14,43,59,100
40.78190,-0.06090,-0.06317,0.00000,0.03099,0.97722,-0.18751,0.0,2023,6,7,14,43,59,110
40.78200,0.00910,-0.02817,0.00000,0.03196,0.97490,-0.18922,0.0,2023,6,7,14,43,59,120
40.78210,0.14910,0.14683,0.00000,0.03050,0.97771,-0.18764,0.0,2023,6,7,14,43,59,130
40.78220,0.07910,-0.08067,0.00000,0.03270,0.97807,-0.18959,0.0,2023,6,7,14,43,59,140
40.78230,-0.07840,-0.08067,0.00000,0.03148,0.97649,-0.18825,0.0,2023,6,7,14,43,59,150
40.78240,0.04410,0.11183,0.00000,0.03050,0.97661,-0.18886,0.0,2023,6,7,14,43,59,160
40.78250,0.13160,-0.16817,0.00000,0.03318,0.97637,-0.18727,0.0,2023,6,7,14,43,59,170
40.78260,-0.02590,-0.02817,0.00000,0.03270,0.97710,-0.18617,0.0,2023,6,7,14,43,59,180
40.78270,0.04410,0.04183,0.00000,0.03135,0.97295,-0.19032,0.0,2023,6,7,14,43,59,190
40.78280,0.02660,-0.16817,0.00000,0.02928,0.97588,-0.18886,0.0,2023,6,7,14,43,59,200
40.78290,0.02660,-0.08067,0.00000,0.03099,0.97759,-0.18898,0.0,2023,6,7,14,43,59,210
40.78300,0.32410,-0.16817,0.00000,0.03026,0.97661,-0.18898,0.0,2023,6,7,14,43,59,220
40.78310,-0.04340,0.07683,0.00000,0.03270,0.97722,-0.18678,0.0,2023,6,7,14,43,59,230
40.78320,0.06160,-0.06317,0.00000,0.03062,0.97551,-0.18910,0.0,2023,6,7,14,43,59,240
40.78330,-0.00840,-0.04567,0.00000,0.03123,0.97710,-0.18617,0.0,2023,6,7,14,43,59,250
40.78340,-0.04340,0.04183,0.00000,0.03233,0.97600,-0.18849,0.0,2023,6,7,14,43,59,260
40.78350,0.04410,-0.25567,0.00000,0.03111,0.97649,-0.18727,0.0,2023,6,7,14,43,59,270
40.78360,-0.06090,0.16433,0.00000,0.03196,0.97698,-0.18800,0.0,2023,6,7,14,43,59,280
40.78370,0.02660,0.05933,0.00000,0.03343,0.97612,-0.18898,0.0,2023,6,7,14,43,59,290
40.78380,0.14910,-0.01067,0.00000,0.03294,0.97429,-0.18788,0.0,2023,6,7,14,43,59,300
40.78390,-0.04340,-0.01067,0.00000,0.03233,0.97563,-0.18971,0.0,2023,6,7,14,43,59,310
40.78400,0.13160,0.02433,0.00000,0.03135,0.97502,-0.19044,0.0,2023,6,7,14,43,59,320
40.78410,0.11410,-0.04567,0.00000,0.03245,0.97685,-0.18837,0.0,2023,6,7,14,43,59,330
40.78420,0.02660,0.09433,0.00000,0.03038,0.97624,-0.19008,0.0,2023,6,7,14,43,59,340
40.78430,0.13160,-0.06317,0.00000,0.03087,0.97637,-0.18727,0.0,2023,6,7,14,43,59,350
40.78440,0.09660,0.11183,0.00000,0.03245,0.97588,-0.18934,0.0,2023,6,7,14,43,59,360
40.78450,-0.18340,0.05933,0.00000,0.03514,0.97698,-0.18825,0.0,2023,6,7,14,43,59,370
40.78460,0.30660,-0.08067,0.00000,0.03111,0.97759,-0.19056,0.0,2023,6,7,14,43,59,380
40.78470,0.09660,0.11183,0.00000,0.03245,0.97746,-0.18837,0.0,2023,6,7,14,43,59,390
40.78480,0.13160,0.04183,0.00000,0.03001,0.97649,-0.18898,0.0,2023,6,7,14,43,59,400
40.78490,0.13160,-0.09817,0.00000,0.03257,0.97405,-0.19020,0.0,2023,6,7,14,43,59,410
40.78500,-0.16590,0.07683,0.00000,0.03148,0.97661,-0.18715,0.0,2023,6,7,14,43,59,420
40.78510,0.13160,0.32183,0.00000,0.03209,0.97527,-0.19020,0.0,2023,6,7,14,43,59,430
40.78520,-0.09590,-0.02817,0.00000,0.03087,0.97344,-0.18971,0.0,2023,6,7,14,43,59,440
40.78530,0.23660,-0.27317,0.00000,0.03184,0.97576,-0.18910,0.0,2023,6,7,14,43,59,450
40.78540,0.07910,-0.15067,0.00000,0.03026,0.97539,-0.18959,0.0,2023,6,7,14,43,59,460
40.78550,0.23660,-0.06317,0.00000,0.03099,0.97576,-0.18690,0.0,2023,6,7,14,43,59,470
40.78560,0.00910,-0.11567,0.00000,0.03123,0.97490,-0.18837,0.0,2023,6,7,14,43,59,480
40.78570,0.13160,-0.02817,0.00000,0.03148,0.97868,-0.18873,0.0,2023,6,7,14,43,59,490
40.78580,-0.00840,-0.04567,0.00000,0.03123,0.97563,-0.18764,0.0,2023,6,7,14,43,59,500
40.78590,0.06160,0.04183,0.00000,0.03184,0.97746,-0.18837,0.0,2023,6,7,14,43,59,510
40.78600,-0.07840,0.16433,0.00000,0.03111,0.97576,-0.18776,0.0,2023,6,7,14,43,59,520
40.78610,-0.02590,-0.22067,0.00000,0.03245,0.97673,-0.19008,0.0,2023,6,7,14,43,59,530
40.78620,-0.02590,-0.06317,0.00000,0.03099,0.97563,-0.18995,0.0,2023,6,7,14,43,59,540
40.78630,0.07910,-0.39567,0.00000,0.03233,0.97661,-0.18788,0.0,2023,6,7,14,43,59,550
40.78640,-0.13090,0.02433,0.00000,0.03221,0.97771,-0.18812,0.0,2023,6,7,14,43,59,560
40.78650,0.02660,0.07683,0.00000,0.03148,0.97600,-0.18837,0.0,2023,6,7,14,43,59,570
40.78660,-0.07840,-0.02817,0.00000,0.03099,0.97746,-0.18739,0.0,2023,6,7,14,43,59,580
40.78670,0.02660,0.00683,0.00000,0.03172,0.97539,-0.19191,0.0,2023,6,7,14,43,59,590
40.78680,-0.13090,0.00683,0.00000,0.03148,0.97734,-0.18776,0.0,2023,6,7,14,43,59,600
40.78690,-0.09590,0.21683,0.00000,0.03172,0.97539,-0.18849,0.0,2023,6,7,14,43,59,610
40.78700,0.00910,-0.01067,0.00000,0.03233,0.97478,-0.18727,0.0,2023,6,7,14,43,59,620
40.78710,0.00910,0.12933,0.00000,0.03306,0.97710,-0.19032,0.0,2023,6,7,14,43,59,630
40.78720,0.14910,0.00683,0.00000,0.03026,0.97502,-0.18886,0.0,2023,6,7,14,43,59,640
40.78730,0.14910,-0.09817,0.00000,0.03282,0.97600,-0.18922,0.0,2023,6,7,14,43,59,650
40.78740,-0.18340,0.04183,0.00000,0.03172,0.97649,-0.18703,0.0,2023,6,7,14,43,59,660
40.78750,0.09660,0.02433,0.00000,0.03196,0.97746,-0.18922,0.0,2023,6,7,14,43,59,670
40.78760,-0.16590,0.02433,0.00000,0.03196,0.97624,-0.18898,0.0,2023,6,7,14,43,59,680
40.78770,-0.00840,-0.01067,0.00000,0.03282,0.97502,-0.18886,0.0,2023,6,7,14,43,59,690
40.78780,0.00910,0.00683,0.00000,0.03306,0.97637,-0.18873,0.0,2023,6,7,14,43,59,700
40.78790,-0.09590,-0.09817,0.00000,0.03074,0.97490,-0.18788,0.0,2023,6,7,14,43,59,710
40.78800,-0.07840,0.16433,0.00000,0.03184,0.97722,-0.18910,0.0,2023,6,7,14,44,0,720
40.78810,0.14910,-0.06317,0.00000,0.03111,0.97576,-0.19008,0.0,2023,6,7,14,44,0,730
40.78820,0.04410,-0.02817,0.00000,0.03148,0.97429,-0.19032,0.0,2023,6,7,14,44,0,740
40.78830,-0.20090,0.00683,0.00000,0.03087,0.97490,-0.18849,0.0,2023,6,7,14,44,0,750
40.78840,-0.07840,-0.01067,0.00000,0.03087,0.97771,-0.18947,0.0,2023,6,7,14,44,0,760
40.78850,-0.09590,0.05933,0.00000,0.02952,0.97478,-0.18715,0.0,2023,6,7,14,44,0,770
40.78860,-0.07840,-0.02817,0.00000,0.03318,0.97771,-0.18934,0.0,2023,6,7,14,44,0,780
40.78870,0.00910,0.11183,0.00000,0.03050,0.97417,-0.18922,0.0,2023,6,7,14,44,0,790
40.78880,0.11410,-0.15067,0.00000,0.03148,0.97917,-0.18812,0.0,2023,6,7,14,44,0,800
40.78890,0.09660,0.07683,0.00000,0.03209,0.97820,-0.19081,0.0,2023,6,7,14,44,0,810
40.78900,0.07910,-0.01067,0.00000,0.03123,0.97759,-0.19044,0.0,2023,6,7,14,44,0,820
40.78910,0.02660,0.00683,0.00000,0.03087,0.97624,-0.19020,0.0,2023,6,7,14,44,0,830
40.78920,0.07910,-0.16817,0.00000,0.03257,0.97563,-0.18727,0.0,2023,6,7,14,44,0,840
40.78930,-0.02590,-0.02817,0.00000,0.03270,0.97820,-0.18837,0.0,2023,6,7,14,44,0,850
40.78940,0.30660,-0.16817,0.00000,0.03148,0.97673,-0.18947,0.0,2023,6,7,14,44,0,860
40.78950,-0.13090,0.05933,0.00000,0.03318,0.97868,-0.18983,0.0,2023,6,7,14,44,0,870
40.78960,0.00910,-0.09817,0.00000,0.03111,0.97624,-0.18861,0.0,2023,6,7,14,44,0,880
40.78970,-0.09590,-0.08067,0.00000,0.03013,0.97527,-0.18995,0.0,2023,6,7,14,44,0,890
40.78980,0.11410,-0.20317,0.00000,0.03318,0.97734,-0.18825,0.0,2023,6,7,14,44,0,900
40.78990,0.00910,0.05933,0.00000,0.02952,0.97588,-0.18898,0.0,2023,6,7,14,44,0,910
40.79000,-0.00840,-0.01067,0.00000,0.03123,0.97673,-0.19081,0.0,2023,6,7,14,44,0,920
40.79010,0.04410,-0.16817,0.00000,0.03184,0.97466,-0.18666,0.0,2023,6,7,14,44,0,930
40.79020,0.11410,-0.23817,0.00000,0.03184,0.97588,-0.19056,0.0,2023,6,7,14,44,0,940
40.79030,0.14910,-0.15067,0.00000,0.03013,0.97515,-0.19117,0.0,2023,6,7,14,44,0,950
40.79040,-0.11340,-0.08067,0.00000,0.03160,0.97673,-0.18788,0.0,2023,6,7,14,44,0,960
40.79050,0.00910,-0.11567,0.00000,0.03050,0.97563,-0.18776,0.0,2023,6,7,14,44,0,970
40.79060,-0.16590,0.00683,0.00000,0.03135,0.97820,-0.18886,0.0,2023,6,7,14,44,0,980
40.79070,-0.21840,0.14683,0.00000,0.03099,0.97685,-0.18947,0.0,2023,6,7,14,44,0,990
40.79080,0.09660,-0.04567,0.00000,0.02940,0.97673,-0.18934,0.0,2023,6,7,14,44,0,0
40.79090,-0.02590,0.05933,0.00000,0.03026,0.97563,-0.18934,0.0,2023,6,7,14,44,0,10
40.79100,-0.02590,-0.08067,0.00000,0.03209,0.97539,-0.19044,0.0,2023,6,7,14,44,0,20
40.79110,0.32410,-0.04567,0.00000,0.02965,0.97588,-0.18910,0.0,2023,6,7,14,44,0,30
40.79120,-0.06090,-0.02817,0.00000,0.02867,0.97954,-0.18800,0.0,2023,6,7,14,44,0,40
40.79130,0.06160,0.02433,0.00000,0.03148,0.97649,-0.18959,0.0,2023,6,7,14,44,0,50
40.79140,-0.07840,-0.02817,0.00000,0.03135,0.97612,-0.18922,0.0,2023,6,7,14,44,0,60
40.79150,-0.04340,0.09433,0.00000,0.03257,0.97576,-0.18873,0.0,2023,6,7,14,44,0,70
40.79160,-0.07840,0.02433,0.00000,0.03013,0.97698,-0.19178,0.0,2023,6,7,14,44,0,80
40.79170,-0.14840,0.21683,0.00000,0.03111,0.97844,-0.18751,0.0,2023,6,7,14,44,0,90
40.79180,-0.06090,0.05933,0.00000,0.02977,0.97600,-0.18800,0.0,2023,6,7,14,44,0,100
40.79190,0.02660,-0.11567,0.00000,0.03038,0.97746,-0.18922,0.0,2023,6,7,14,44,0,110
40.79200,-0.02590,-0.13317,0.00000,0.03099,0.97454,-0.18910,0.0,2023,6,7,14,44,0,120
40.79210,0.11410,0.07683,0.00000,0.03135,0.97454,-0.19215,0.0,2023,6,7,14,44,0,130
40.79220,-0.06090,-0.15067,0.00000,0.03123,0.97600,-0.18849,0.0,2023,6,7,14,44,0,140
40.79230,-0.04340,-0.02817,0.00000,0.03233,0.97478,-0.19178,0.0,2023,6,7,14,44,0,150
40.79240,-0.00840,0.02433,0.00000,0.02952,0.97698,-0.18922,0.0,2023,6,7,14,44,0,160
40.79250,0.00910,0.12933,0.00000,0.03013,0.97893,-0.18812,0.0,2023,6,7,14,44,0,170
40.79260,-0.02590,0.14683,0.00000,0.03233,0.97685,-0.19081,0.0,2023,6,7,14,44,0,180
40.79270,-0.00840,-0.09817,0.00000,0.03306,0.97539,-0.18947,0.0,2023,6,7,14,44,0,190
40.79280,0.02660,0.02433,0.00000,0.03172,0.97771,-0.19081,0.0,2023,6,7,14,44,0,200
40.79290,-0.11340,-0.02817,0.00000,0.03245,0.97649,-0.18837,0.0,2023,6,7,14,44,0,210
40.79300,-0.00840,0.11183,0.00000,0.03294,0.97527,-0.19203,0.0,2023,6,7,14,44,0,220
40.79310,0.09660,-0.01067,0.00000,0.03148,0.97673,-0.18849,0.0,2023,6,7,14,44,0,230
40.79320,-0.09590,0.18183,0.00000,0.03233,0.97734,-0.18934,0.0,2023,6,7,14,44,0,240
40.79330,-0.16590,-0.08067,0.00000,0.03148,0.97649,-0.19044,0.0,2023,6,7,14,44,0,250
40.79340,0.02660,-0.11567,0.00000,0.03172,0.97832,-0.18837,0.0,2023,6,7,14,44,0,260
40.79350,-0.07840,0.05933,0.00000,0.03013,0.97698,-0.18971,0.0,2023,6,7,14,44,0,270
40.79360,0.06160,0.09433,0.00000,0.03135,0.97624,-0.19093,0.0,2023,6,7,14,44,0,280
40.79370,-0.06090,-0.01067,0.00000,0.03221,0.97612,-0.19008,0.0,2023,6,7,14,44,0,290
40.79380,0.02660,0.07683,0.00000,0.03062,0.97649,-0.18995,0.0,2023,6,7,14,44,0,300
40.79390,0.21910,-0.18567,0.00000,0.03294,0.97637,-0.18934,0.0,2023,6,7,14,44,0,310
40.79400,-0.14840,0.11183,0.00000,0.03294,0.97515,-0.18910,0.0,2023,6,7,14,44,0,320
40.79410,0.00910,0.07683,0.00000,0.03184,0.97722,-0.19020,0.0,2023,6,7,14,44,0,330
40.79420,0.02660,0.04183,0.00000,0.03013,0.97551,-0.18995,0.0,2023,6,7,14,44,0,340
40.79430,0.06160,0.00683,0.00000,0.03404,0.97417,-0.18971,0.0,2023,6,7,14,44,0,350
40.79440,0.06160,-0.04567,0.00000,0.03355,0.97820,-0.18971,0.0,2023,6,7,14,44,0,360
40.79450,0.07910,-0.22067,0.00000,0.03123,0.97490,-0.18837,0.0,2023,6,7,14,44,0,370
40.79460,-0.18340,0.19933,0.00000,0.03257,0.97539,-0.18934,0.0,2023,6,7,14,44,0,380
40.79470,0.09660,0.11183,0.00000,0.03038,0.97673,-0.19008,0.0,2023,6,7,14,44,0,390
40.79480,-0.06090,0.12933,0.00000,0.03245,0.97746,-0.18849,0.0,2023,6,7,14,44,0,400
40.79490,0.06160,-0.04567,0.00000,0.03355,0.97722,-0.18727,0.0,2023,6,7,14,44,0,410
40.79500,-0.06090,0.12933,0.00000,0.03111,0.97905,-0.18922,0.0,2023,6,7,14,44,0,420
40.79510,-0.09590,-0.01067,0.00000,0.03099,0.97612,-0.18825,0.0,2023,6,7,14,44,0,430
40.79520,-0.18340,0.23433,0.00000,0.03209,0.97466,-0.18812,0.0,2023,6,7,14,44,0,440
40.79530,-0.32340,0.26933,0.00000,0.03123,0.97612,-0.18947,0.0,2023,6,7,14,44,0,450
40.79540,0.21910,0.12933,0.00000,0.03257,0.97746,-0.18800,0.0,2023,6,7,14,44,0,460
40.79550,-0.02590,-0.18567,0.00000,0.03282,0.97576,-0.18800,0.0,2023,6,7,14,44,0,470
40.79560,-0.09590,0.14683,0.00000,0.03257,0.97783,-0.19069,0.0,2023,6,7,14,44,0,480
40.79570,-0.04340,0.04183,0.00000,0.03135,0.97649,-0.18922,0.0,2023,6,7,14,44,0,490
40.79580,-0.11340,-0.01067,0.00000,0.03099,0.97551,-0.19020,0.0,2023,6,7,14,44,0,500
40.79590,0.02660,-0.13317,0.00000,0.03196,0.97576,-0.18934,0.0,2023,6,7,14,44,0,510
40.79600,-0.09590,0.05933,0.00000,0.03209,0.97637,-0.18715,0.0,2023,6,7,14,44,0,520
40.79610,-0.04340,-0.04567,0.00000,0.03282,0.97576,-0.18971,0.0,2023,6,7,14,44,0,530
40.79620,0.14910,-0.04567,0.00000,0.03282,0.97466,-0.19032,0.0,2023,6,7,14,44,0,540
40.79630,-0.00840,0.04183,0.00000,0.03355,0.97319,-0.18837,0.0,2023,6,7,14,44,0,550
40.79640,0.07910,-0.01067,0.00000,0.03270,0.97807,-0.19142,0.0,2023,6,7,14,44,0,560
40.79650,0.00910,0.07683,0.00000,0.03160,0.97490,-0.19069,0.0,2023,6,7,14,44,0,570
40.79660,0.11410,0.02433,0.00000,0.03050,0.97441,-0.19191,0.0,2023,6,7,14,44,0,580
40.79670,-0.02590,-0.18567,0.00000,0.03221,0.97588,-0.19056,0.0,2023,6,7,14,44,0,590
40.79680,0.06160,-0.11567,0.00000,0.03087,0.97563,-0.18959,0.0,2023,6,7,14,44,0,600
40.79690,0.07910,-0.08067,0.00000,0.02989,0.97478,-0.19056,0.0,2023,6,7,14,44,0,610
40.79700,-0.07840,0.05933,0.00000,0.02977,0.97551,-0.18971,0.0,2023,6,7,14,44,1,620
40.79710,0.27160,-0.04567,0.00000,0.03099,0.97673,-0.19032,0.0,2023,6,7,14,44,1,630
40.79720,0.06160,-0.06317,0.00000,0.03099,0.97539,-0.18983,0.0,2023,6,7,14,44,1,640
40.79730,-0.06090,-0.09817,0.00000,0.03221,0.97734,-0.19093,0.0,2023,6,7,14,44,1,650
40.79740,-0.00840,0.07683,0.00000,0.03160,0.97624,-0.18861,0.0,2023,6,7,14,44,1,660
40.79750,-0.11340,-0.04567,0.00000,0.03343,0.97624,-0.18812,0.0,2023,6,7,14,44,1,670
40.79760,-0.13090,-0.02817,0.00000,0.03257,0.97490,-0.18690,0.0,2023,6,7,14,44,1,680
40.79770,0.04410,-0.11567,0.00000,0.03294,0.97600,-0.19044,0.0,2023,6,7,14,44,1,690
40.79780,0.23660,-0.23817,0.00000,0.03257,0.97600,-0.18922,0.0,2023,6,7,14,44,1,700
40.79790,0.07910,-0.02817,0.00000,0.03196,0.97490,-0.19056,0.0,2023,6,7,14,44,1,710
40.79800,0.04410,-0.06317,0.00000,0.03074,0.97698,-0.19093,0.0,2023,6,7,14,44,1,720
40.79810,0.06160,0.19933,0.00000,0.02989,0.97563,-0.18825,0.0,2023,6,7,14,44,1,730
40.79820,-0.07840,-0.15067,0.00000,0.03087,0.97551,-0.18825,0.0,2023,6,7,14,44,1,740
40.79830,-0.14840,-0.08067,0.00000,0.03074,0.97673,-0.19008,0.0,2023,6,7,14,44,1,750
40.79840,-0.04340,-0.15067,0.00000,0.02977,0.97710,-0.18983,0.0,2023,6,7,14,44,1,760
40.79850,0.02660,-0.02817,0.00000,0.02965,0.97612,-0.18910,0.0,2023,6,7,14,44,1,770
40.79860,0.11410,-0.01067,0.00000,0.02916,0.97820,-0.18825,0.0,2023,6,7,14,44,1,780
40.79870,-0.02590,0.00683,0.00000,0.03074,0.97539,-0.19105,0.0,2023,6,7,14,44,1,790
40.79880,0.13160,-0.11567,0.00000,0.03282,0.97612,-0.18849,0.0,2023,6,7,14,44,1,800
40.79890,-0.06090,-0.01067,0.00000,0.03270,0.97734,-0.18983,0.0,2023,6,7,14,44,1,810
40.79900,0.11410,-0.11567,0.00000,0.03196,0.97637,-0.18837,0.0,2023,6,7,14,44,1,820
40.79910,0.09660,-0.06317,0.00000,0.03087,0.97649,-0.18849,0.0,2023,6,7,14,44,1,830
40.79920,-0.07840,0.05933,0.00000,0.03184,0.97429,-0.18825,0.0,2023,6,7,14,44,1,840
40.79930,0.02660,-0.01067,0.00000,0.03050,0.97661,-0.18837,0.0,2023,6,7,14,44,1,850
40.79940,0.00910,-0.20317,0.00000,0.03209,0.97710,-0.19044,0.0,2023,6,7,14,44,1,860
40.79950,0.20160,0.02433,0.00000,0.03282,0.97637,-0.19069,0.0,2023,6,7,14,44,1,870
40.79960,0.02660,-0.11567,0.00000,0.03221,0.97710,-0.18934,0.0,2023,6,7,14,44,1,880
40.79970,0.02660,-0.11567,0.00000,0.03148,0.97661,-0.19142,0.0,2023,6,7,14,44,1,890
40.79980,-0.00840,-0.09817,0.00000,0.03148,0.97393,-0.19069,0.0,2023,6,7,14,44,1,900
40.79990,0.18410,-0.13317,0.00000,0.03257,0.97722,-0.19044,0.0,2023,6,7,14,44,1,910
40.80000,0.07910,0.02433,0.00000,0.03196,0.97637,-0.18983,0.0,2023,6,7,14,44,1,920
40.80010,0.07910,-0.04567,0.00000,0.03050,0.97673,-0.18861,0.0,2023,6,7,14,44,1,930
40.80020,-0.07840,-0.01067,0.00000,0.03160,0.97551,-0.19130,0.0,2023,6,7,14,44,1,940
40.80030,-0.00840,0.12933,0.00000,0.03282,0.97673,-0.18825,0.0,2023,6,7,14,44,1,950
40.80040,0.02660,0.11183,0.00000,0.03135,0.97551,-0.18910,0.0,2023,6,7,14,44,1,960
40.80050,-0.04340,-0.08067,0.00000,0.03026,0.97698,-0.18947,0.0,2023,6,7,14,44,1,970
40.80060,-0.04340,0.19933,0.00000,0.03111,0.97905,-0.18971,0.0,2023,6,7,14,44,1,980
40.80070,-0.06090,0.19933,0.00000,0.03233,0.97588,-0.18959,0.0,2023,6,7,14,44,1,990
40.80080,0.14910,-0.16817,0.00000,0.03355,0.97551,-0.18934,0.0,2023,6,7,14,44,1,0
40.80090,-0.00840,-0.06317,0.00000,0.03209,0.97637,-0.18959,0.0,2023,6,7,14,44,1,10
40.80100,-0.04340,0.02433,0.00000,0.03111,0.97527,-0.19130,0.0,2023,6,7,14,44,1,20
40.80110,-0.11340,-0.20317,0.00000,0.03331,0.97661,-0.19069,0.0,2023,6,7,14,44,1,30
40.80120,0.06160,0.02433,0.00000,0.03038,0.97820,-0.18800,0.0,2023,6,7,14,44,1,40
40.80130,-0.04340,0.07683,0.00000,0.03160,0.97600,-0.18898,0.0,2023,6,7,14,44,1,50
40.80140,0.11410,-0.22067,0.00000,0.03233,0.97710,-0.18898,0.0,2023,6,7,14,44,1,60
40.80150,-0.04340,-0.01067,0.00000,0.03099,0.97649,-0.18886,0.0,2023,6,7,14,44,1,70
40.80160,-0.14840,0.09433,0.00000,0.03038,0.97771,-0.18959,0.0,2023,6,7,14,44,1,80
40.80170,-0.16590,0.07683,0.00000,0.03074,0.97661,-0.19020,0.0,2023,6,7,14,44,1,90
40.80180,-0.14840,0.04183,0.00000,0.03160,0.97539,-0.19288,0.0,2023,6,7,14,44,1,100
40.80190,-0.13090,-0.27317,0.00000,0.03074,0.97746,-0.18959,0.0,2023,6,7,14,44,1,110
40.80200,0.02660,-0.08067,0.00000,0.03111,0.97832,-0.18861,0.0,2023,6,7,14,44,1,120
40.80210,-0.04340,-0.04567,0.00000,0.03331,0.97746,-0.19008,0.0,2023,6,7,14,44,1,130
40.80220,-0.02590,0.09433,0.00000,0.03306,0.97502,-0.18825,0.0,2023,6,7,14,44,1,140
40.80230,0.14910,-0.02817,0.00000,0.03221,0.97551,-0.19032,0.0,2023,6,7,14,44,1,150
40.80240,0.00910,-0.15067,0.00000,0.03087,0.97612,-0.19069,0.0,2023,6,7,14,44,1,160
40.80250,-0.11340,-0.06317,0.00000,0.03245,0.97685,-0.18861,0.0,2023,6,7,14,44,1,170
40.80260,-0.06090,0.12933,0.00000,0.03062,0.97454,-0.18837,0.0,2023,6,7,14,44,1,180
40.80270,0.04410,0.00683,0.00000,0.03087,0.97588,-0.18995,0.0,2023,6,7,14,44,1,190
40.80280,0.04410,0.02433,0.00000,0.03172,0.97600,-0.18910,0.0,2023,6,7,14,44,1,200
40.80290,-0.06090,-0.11567,0.00000,0.03160,0.97649,-0.18995,0.0,2023,6,7,14,44,1,210
40.80300,0.07910,0.05933,0.00000,0.03306,0.97734,-0.18910,0.0,2023,6,7,14,44,1,220
40.80310,0.14910,-0.20317,0.00000,0.03196,0.97466,-0.19105,0.0,2023,6,7,14,44,1,230
40.80320,-0.00840,-0.02817,0.00000,0.03123,0.97868,-0.19008,0.0,2023,6,7,14,44,1,240
40.80330,-0.02590,-0.08067,0.00000,0.03343,0.97624,-0.19044,0.0,2023,6,7,14,44,1,250
40.80340,0.04410,0.00683,0.00000,0.02928,0.97502,-0.19044,0.0,2023,6,7,14,44,1,260
40.80350,-0.06090,0.11183,0.00000,0.03245,0.97771,-0.18690,0.0,2023,6,7,14,44,1,270
40.80360,0.13160,0.00683,0.00000,0.03355,0.97820,-0.19081,0.0,2023,6,7,14,44,1,280
40.80370,0.00910,0.23433,0.00000,0.02916,0.97661,-0.18812,0.0,2023,6,7,14,44,1,290
40.80380,-0.13090,0.25183,0.00000,0.02928,0.97661,-0.19154,0.0,2023,6,7,14,44,1,300
40.80390,0.02660,-0.15067,0.00000,0.03062,0.97649,-0.18922,0.0,2023,6,7,14,44,1,310
40.80400,-0.00840,-0.02817,0.00000,0.03099,0.97746,-0.19069,0.0,2023,6,7,14,44,1,320
40.80410,0.00910,0.05933,0.00000,0.03050,0.97734,-0.19069,0.0,2023,6,7,14,44,1,330
40.80420,0.09660,-0.06317,0.00000,0.03233,0.97515,-0.18934,0.0,2023,6,7,14,44,1,340
40.80430,0.16660,0.05933,0.00000,0.03074,0.97771,-0.18898,0.0,2023,6,7,14,44,1,350
40.80440,0.07910,-0.15067,0.00000,0.02940,0.97673,-0.19215,0.0,2023,6,7,14,44,1,360
40.80450,-0.02590,-0.23817,0.00000,0.03172,0.97539,-0.19056,0.0,2023,6,7,14,44,1,370
40.80460,-0.07840,0.14683,0.00000,0.03111,0.97795,-0.18861,0.0,2023,6,7,14,44,1,380
40.80470,0.00910,-0.02817,0.00000,0.03245,0.97722,-0.18788,0.0,2023,6,7,14,44,1,390
40.80480,0.07910,-0.04567,0.00000,0.03026,0.97563,-0.19020,0.0,2023,6,7,14,44,1,400
40.80490,-0.04340,0.19933,0.00000,0.03087,0.97637,-0.19178,0.0,2023,6,7,14,44,1,410
40.80500,-0.14840,0.11183,0.00000,0.03038,0.97673,-0.18849,0.0,2023,6,7,14,44,1,420
40.80510,-0.09590,-0.04567,0.00000,0.03062,0.97746,-0.18873,0.0,2023,6,7,14,44,1,430
40.80520,-0.04340,-0.08067,0.00000,0.02891,0.97563,-0.18947,0.0,2023,6,7,14,44,1,440
40.80530,-0.09590,-0.15067,0.00000,0.03135,0.97576,-0.19044,0.0,2023,6,7,14,44,1,450
40.80540,-0.04340,-0.06317,0.00000,0.02989,0.97649,-0.18971,0.0,2023,6,7,14,44,1,460
40.80550,0.20160,0.05933,0.00000,0.03184,0.97722,-0.19056,0.0,2023,6,7,14,44,1,470
40.80560,-0.00840,0.09433,0.00000,0.03087,0.97637,-0.19044,0.0,2023,6,7,14,44,1,480
40.80570,0.06160,-0.22067,0.00000,0.03233,0.97746,-0.18934,0.0,2023,6,7,14,44,1,490
40.80580,-0.20090,0.05933,0.00000,0.03209,0.97637,-0.19239,0.0,2023,6,7,14,44,1,500
40.80590,0.06160,0.11183,0.00000,0.03245,0.97698,-0.19032,0.0,2023,6,7,14,44,1,510
40.80600,0.06160,-0.18567,0.00000,0.03355,0.97746,-0.18995,0.0,2023,6,7,14,44,2,520
40.80610,0.00910,0.14683,0.00000,0.03245,0.97466,-0.18922,0.0,2023,6,7,14,44,2,530
40.80620,-0.02590,-0.09817,0.00000,0.03221,0.97783,-0.18947,0.0,2023,6,7,14,44,2,540
40.80630,0.07910,-0.30817,0.00000,0.03416,0.97673,-0.19081,0.0,2023,6,7,14,44,2,550
40.80640,0.09660,0.19933,0.00000,0.03123,0.97624,-0.19008,0.0,2023,6,7,14,44,2,560
40.80650,0.06160,0.18183,0.00000,0.03123,0.97832,-0.19130,0.0,2023,6,7,14,44,2,570
40.80660,-0.00840,-0.02817,0.00000,0.02989,0.97612,-0.19142,0.0,2023,6,7,14,44,2,580
40.80670,-0.16590,0.04183,0.00000,0.03282,0.97624,-0.18995,0.0,2023,6,7,14,44,2,590
40.80680,-0.00840,-0.20317,0.00000,0.03026,0.97624,-0.18959,0.0,2023,6,7,14,44,2,600
40.80690,-0.04340,0.02433,0.00000,0.03135,0.97441,-0.19203,0.0,2023,6,7,14,44,2,610
40.80700,-0.00840,-0.15067,0.00000,0.03087,0.97600,-0.19069,0.0,2023,6,7,14,44,2,620
40.80710,-0.00840,-0.01067,0.00000,0.03062,0.97551,-0.19081,0.0,2023,6,7,14,44,2,630
40.80720,0.02660,0.11183,0.00000,0.03245,0.97429,-0.19117,0.0,2023,6,7,14,44,2,640
40.80730,0.09660,0.09433,0.00000,0.03172,0.97576,-0.18934,0.0,2023,6,7,14,44,2,650
40.80740,-0.06090,-0.04567,0.00000,0.03074,0.97832,-0.19056,0.0,2023,6,7,14,44,2,660
40.80750,0.02660,0.02433,0.00000,0.03013,0.97600,-0.18910,0.0,2023,6,7,14,44,2,670
40.80760,-0.06090,0.11183,0.00000,0.03257,0.97563,-0.18995,0.0,2023,6,7,14,44,2,680
40.80770,0.18410,-0.04567,0.00000,0.03099,0.97637,-0.19142,0.0,2023,6,7,14,44,2,690
40.80780,-0.07840,-0.08067,0.00000,0.03245,0.97783,-0.18959,0.0,2023,6,7,14,44,2,700
40.80790,0.13160,-0.08067,0.00000,0.03294,0.97551,-0.18983,0.0,2023,6,7,14,44,2,710
40.80800,-0.04340,-0.18567,0.00000,0.03099,0.97551,-0.19105,0.0,2023,6,7,14,44,2,720
40.80810,0.07910,-0.11567,0.00000,0.03172,0.97551,-0.18983,0.0,2023,6,7,14,44,2,730
40.80820,-0.02590,-0.16817,0.00000,0.03209,0.97515,-0.19142,0.0,2023,6,7,14,44,2,740
40.80830,0.00910,-0.01067,0.00000,0.03148,0.97393,-0.18873,0.0,2023,6,7,14,44,2,750
40.80840,0.00910,-0.13317,0.00000,0.02867,0.97502,-0.18947,0.0,2023,6,7,14,44,2,760
40.80850,-0.07840,0.19933,0.00000,0.02965,0.97673,-0.18971,0.0,2023,6,7,14,44,2,770
40.80860,-0.00840,-0.09817,0.00000,0.02904,0.97917,-0.18886,0.0,2023,6,7,14,44,2,780
40.80870,-0.04340,0.04183,0.00000,0.03245,0.97515,-0.19069,0.0,2023,6,7,14,44,2,790
40.80880,-0.04340,0.05933,0.00000,0.03196,0.97844,-0.19056,0.0,2023,6,7,14,44,2,800
40.80890,-0.04340,0.05933,0.00000,0.03257,0.97515,-0.19069,0.0,2023,6,7,14,44,2,810
40.80900,0.23660,-0.23817,0.00000,0.03111,0.97868,-0.18947,0.0,2023,6,7,14,44,2,820
40.80910,-0.16590,0.07683,0.00000,0.03233,0.97661,-0.18776,0.0,2023,6,7,14,44,2,830
40.80920,0.11410,-0.11567,0.00000,0.03123,0.97649,-0.19020,0.0,2023,6,7,14,44,2,840
40.80930,0.16660,-0.04567,0.00000,0.02965,0.97783,-0.18739,0.0,2023,6,7,14,44,2,850
40.80940,-0.06090,-0.01067,0.00000,0.03172,0.97637,-0.18715,0.0,2023,6,7,14,44,2,860
40.80950,0.23660,-0.01067,0.00000,0.03148,0.97868,-0.18910,0.0,2023,6,7,14,44,2,870
40.80960,-0.11340,0.12933,0.00000,0.03074,0.97563,-0.18934,0.0,2023,6,7,14,44,2,880
40.80970,-0.13090,-0.01067,0.00000,0.03440,0.97759,-0.19081,0.0,2023,6,7,14,44,2,890
40.80980,0.07910,0.02433,0.00000,0.03099,0.97588,-0.18983,0.0,2023,6,7,14,44,2,900
40.80990,0.02660,-0.02817,0.00000,0.03355,0.97576,-0.18812,0.0,2023,6,7,14,44,2,910
40.81000,-0.06090,0.12933,0.00000,0.03026,0.97515,-0.19008,0.0,2023,6,7,14,44,2,920
40.81010,0.06160,-0.16817,0.00000,0.03135,0.97588,-0.18825,0.0,2023,6,7,14,44,2,930
40.81020,-0.09590,-0.04567,0.00000,0.02952,0.97539,-0.18983,0.0,2023,6,7,14,44,2,940
40.81030,0.21910,-0.16817,0.00000,0.03135,0.97746,-0.19044,0.0,2023,6,7,14,44,2,950
40.81040,-0.07840,0.23433,0.00000,0.03196,0.97539,-0.18947,0.0,2023,6,7,14,44,2,960
40.81050,0.13160,0.07683,0.00000,0.03026,0.97844,-0.18995,0.0,2023,6,7,14,44,2,970
40.81060,0.04410,-0.20317,0.00000,0.03306,0.97722,-0.19044,0.0,2023,6,7,14,44,2,980
40.81070,0.14910,-0.15067,0.00000,0.03318,0.97600,-0.19056,0.0,2023,6,7,14,44,2,990
40.81080,-0.02590,0.16433,0.00000,0.03233,0.97710,-0.18703,0.0,2023,6,7,14,44,2,0
40.81090,0.06160,-0.15067,0.00000,0.03074,0.97637,-0.18910,0.0,2023,6,7,14,44,2,10
40.81100,0.11410,0.05933,0.00000,0.03050,0.97698,-0.18934,0.0,2023,6,7,14,44,2,20
40.81110,0.06160,-0.08067,0.00000,0.03184,0.97527,-0.18861,0.0,2023,6,7,14,44,2,30
40.81120,-0.16590,0.09433,0.00000,0.03013,0.97673,-0.18983,0.0,2023,6,7,14,44,2,40
40.81130,0.14910,0.00683,0.00000,0.03050,0.97454,-0.19154,0.0,2023,6,7,14,44,2,50
40.81140,0.11410,-0.18567,0.00000,0.02977,0.97478,-0.18983,0.0,2023,6,7,14,44,2,60
40.81150,-0.07840,0.04183,0.00000,0.03233,0.97856,-0.18983,0.0,2023,6,7,14,44,2,70
40.81160,0.18410,-0.06317,0.00000,0.03087,0.97393,-0.18922,0.0,2023,6,7,14,44,2,80
40.81170,-0.04340,-0.01067,0.00000,0.03367,0.97612,-0.18910,0.0,2023,6,7,14,44,2,90
40.81180,0.07910,-0.25567,0.00000,0.03099,0.97710,-0.19203,0.0,2023,6,7,14,44,2,100
40.81190,0.14910,-0.16817,0.00000,0.03050,0.97600,-0.18825,0.0,2023,6,7,14,44,2,110
40.81200,0.06160,-0.13317,0.00000,0.02989,0.97551,-0.19105,0.0,2023,6,7,14,44,2,120
40.81210,0.04410,0.09433,0.00000,0.02952,0.97661,-0.18959,0.0,2023,6,7,14,44,2,130
40.81220,0.04410,0.05933,0.00000,0.03379,0.97527,-0.18910,0.0,2023,6,7,14,44,2,140
40.81230,0.07910,0.02433,0.00000,0.03135,0.97551,-0.19142,0.0,2023,6,7,14,44,2,150
40.81240,0.16660,0.04183,0.00000,0.02965,0.97832,-0.19105,0.0,2023,6,7,14,44,2,160
40.81250,-0.09590,0.18183,0.00000,0.02977,0.97527,-0.18800,0.0,2023,6,7,14,44,2,170
40.81260,0.16660,-0.08067,0.00000,0.03013,0.97405,-0.19191,0.0,2023,6,7,14,44,2,180
40.81270,0.09660,0.05933,0.00000,0.03123,0.97759,-0.18776,0.0,2023,6,7,14,44,2,190
40.81280,-0.11340,0.04183,0.00000,0.03050,0.97734,-0.18764,0.0,2023,6,7,14,44,2,200
40.81290,-0.21840,0.05933,0.00000,0.03172,0.97551,-0.18910,0.0,2023,6,7,14,44,2,210
40.81300,0.02660,-0.13317,0.00000,0.03209,0.97795,-0.18886,0.0,2023,6,7,14,44,2,220
40.81310,0.06160,-0.06317,0.00000,0.03074,0.97856,-0.18739,0.0,2023,6,7,14,44,2,230
40.81320,0.14910,-0.16817,0.00000,0.03050,0.97807,-0.18788,0.0,2023,6,7,14,44,2,240
40.81330,0.16660,0.02433,0.00000,0.03367,0.97746,-0.18776,0.0,2023,6,7,14,44,2,250
40.81340,0.07910,-0.32567,0.00000,0.03123,0.97722,-0.18995,0.0,2023,6,7,14,44,2,260
40.81350,0.18410,0.04183,0.00000,0.03074,0.97673,-0.18971,0.0,2023,6,7,14,44,2,270
40.81360,0.06160,0.00683,0.00000,0.03172,0.97551,-0.18788,0.0,2023,6,7,14,44,2,280
40.81370,-0.09590,0.18183,0.00000,0.02952,0.97637,-0.18825,0.0,2023,6,7,14,44,2,290
40.81380,-0.09590,0.05933,0.00000,0.03135,0.97710,-0.18703,0.0,2023,6,7,14,44,2,300
40.81390,0.07910,0.12933,0.00000,0.03074,0.97454,-0.18934,0.0,2023,6,7,14,44,2,310
40.81400,-0.02590,-0.04567,0.00000,0.03196,0.97856,-0.18849,0.0,2023,6,7,14,44,2,320
40.81410,0.04410,0.07683,0.00000,0.03160,0.97795,-0.19191,0.0,2023,6,7,14,44,2,330
40.81420,0.02660,0.04183,0.00000,0.03318,0.97600,-0.18873,0.0,2023,6,7,14,44,2,340
40.81430,-0.02590,-0.08067,0.00000,0.03135,0.97710,-0.19154,0.0,2023,6,7,14,44,2,350
40.81440,-0.02590,-0.08067,0.00000,0.02904,0.97698,-0.19044,0.0,2023,6,7,14,44,2,360
40.81450,-0.02590,-0.08067,0.00000,0.02989,0.97624,-0.18959,0.0,2023,6,7,14,44,2,370
40.81460,0.02660,-0.02817,0.00000,0.03172,0.97600,-0.18886,0.0,2023,6,7,14,44,2,380
40.81470,-0.13090,0.02433,0.00000,0.03135,0.97466,-0.19032,0.0,2023,6,7,14,44,2,390
40.81480,0.16660,0.02433,0.00000,0.03257,0.97710,-0.18983,0.0,2023,6,7,14,44,2,400
40.81490,-0.00840,-0.23817,0.00000,0.03209,0.97795,-0.18959,0.0,2023,6,7,14,44,2,410
40.81500,-0.04340,-0.02817,0.00000,0.03318,0.97356,-0.19130,0.0,2023,6,7,14,44,3,420
40.81510,-0.04340,-0.13317,0.00000,0.03209,0.97917,-0.19032,0.0,2023,6,7,14,44,3,430
40.81520,0.11410,0.11183,0.00000,0.03196,0.97734,-0.19081,0.0,2023,6,7,14,44,3,440
40.81530,0.11410,-0.27317,0.00000,0.03160,0.97612,-0.18995,0.0,2023,6,7,14,44,3,450
40.81540,0.13160,-0.09817,0.00000,0.03318,0.97734,-0.18922,0.0,2023,6,7,14,44,3,460
40.81550,-0.07840,-0.11567,0.00000,0.03440,0.97637,-0.18971,0.0,2023,6,7,14,44,3,470
40.81560,0.16660,-0.25567,0.00000,0.03196,0.97698,-0.18825,0.0,2023,6,7,14,44,3,480
40.81570,-0.13090,0.00683,0.00000,0.03257,0.97624,-0.18959,0.0,2023,6,7,14,44,3,490
40.81580,-0.07840,0.00683,0.00000,0.03184,0.97624,-0.18898,0.0,2023,6,7,14,44,3,500
40.81590,-0.04340,-0.20317,0.00000,0.03270,0.97490,-0.19069,0.0,2023,6,7,14,44,3,510
40.81600,0.06160,0.02433,0.00000,0.03270,0.97832,-0.18947,0.0,2023,6,7,14,44,3,520
40.81610,-0.04340,0.00683,0.00000,0.03148,0.97722,-0.19142,0.0,2023,6,7,14,44,3,530
40.81620,-0.04340,0.18183,0.00000,0.03306,0.97478,-0.19117,0.0,2023,6,7,14,44,3,540
40.81630,-0.21840,0.02433,0.00000,0.03294,0.97502,-0.19069,0.0,2023,6,7,14,44,3,550
40.81640,0.02660,-0.06317,0.00000,0.03148,0.97673,-0.18605,0.0,2023,6,7,14,44,3,560
40.81650,-0.14840,0.05933,0.00000,0.03209,0.97624,-0.18934,0.0,2023,6,7,14,44,3,570
40.81660,-0.14840,0.14683,0.00000,0.03050,0.97685,-0.19191,0.0,2023,6,7,14,44,3,580
40.81670,-0.00840,-0.23817,0.00000,0.03404,0.97637,-0.18959,0.0,2023,6,7,14,44,3,590
40.81680,0.11410,-0.32567,0.00000,0.03221,0.97429,-0.18995,0.0,2023,6,7,14,44,3,600
40.81690,-0.09590,0.25183,0.00000,0.03148,0.97868,-0.19069,0.0,2023,6,7,14,44,3,610
40.81700,0.06160,-0.13317,0.00000,0.03331,0.97881,-0.18934,0.0,2023,6,7,14,44,3,620
40.81710,0.02660,0.12933,0.00000,0.03306,0.97746,-0.18861,0.0,2023,6,7,14,44,3,630
40.81720,-0.06090,0.04183,0.00000,0.03050,0.97722,-0.19081,0.0,2023,6,7,14,44,3,640
40.81730,0.00910,0.09433,0.00000,0.02940,0.97588,-0.19191,0.0,2023,6,7,14,44,3,650
40.81740,0.06160,0.07683,0.00000,0.03038,0.97783,-0.19008,0.0,2023,6,7,14,44,3,660
40.81750,0.07910,-0.04567,0.00000,0.03160,0.97563,-0.18800,0.0,2023,6,7,14,44,3,670
40.81760,-0.06090,0.00683,0.00000,0.02989,0.97588,-0.19008,0.0,2023,6,7,14,44,3,680
40.81770,-0.11340,-0.06317,0.00000,0.03233,0.97527,-0.18873,0.0,2023,6,7,14,44,3,690
40.81780,-0.09590,0.12933,0.00000,0.03257,0.97441,-0.19020,0.0,2023,6,7,14,44,3,700
40.81790,0.06160,-0.11567,0.00000,0.03099,0.97649,-0.19166,0.0,2023,6,7,14,44,3,710
40.81800,-0.02590,-0.15067,0.00000,0.03196,0.97783,-0.19154,0.0,2023,6,7,14,44,3,720
40.81810,0.04410,0.11183,0.00000,0.03148,0.97685,-0.19203,0.0,2023,6,7,14,44,3,730
40.81820,-0.00840,0.02433,0.00000,0.03257,0.97661,-0.19313,0.0,2023,6,7,14,44,3,740
40.81830,-0.27090,0.00683,0.00000,0.03123,0.97649,-0.19227,0.0,2023,6,7,14,44,3,750
40.81840,-0.04340,0.02433,0.00000,0.02989,0.97588,-0.19105,0.0,2023,6,7,14,44,3,760
40.81850,0.02660,-0.04567,0.00000,0.03172,0.97649,-0.19325,0.0,2023,6,7,14,44,3,770
40.81860,-0.06090,-0.11567,0.00000,0.03050,0.97783,-0.19020,0.0,2023,6,7,14,44,3,780
40.81870,0.16660,-0.01067,0.00000,0.03404,0.97698,-0.19069,0.0,2023,6,7,14,44,3,790
40.81880,0.00910,-0.25567,0.00000,0.03221,0.97393,-0.19020,0.0,2023,6,7,14,44,3,800
40.81890,0.07910,0.12933,0.00000,0.03196,0.97698,-0.19191,0.0,2023,6,7,14,44,3,810
40.81900,-0.13090,0.14683,0.00000,0.03343,0.97942,-0.18922,0.0,2023,6,7,14,44,3,820
40.81910,0.04410,-0.09817,0.00000,0.03087,0.97661,-0.19020,0.0,2023,6,7,14,44,3,830
40.81920,-0.00840,0.14683,0.00000,0.02977,0.97844,-0.19081,0.0,2023,6,7,14,44,3,840
40.81930,0.00910,-0.09817,0.00000,0.03367,0.97380,-0.18934,0.0,2023,6,7,14,44,3,850
40.81940,0.11410,-0.11567,0.00000,0.03062,0.97551,-0.18983,0.0,2023,6,7,14,44,3,860
40.81950,0.09660,0.05933,0.00000,0.03074,0.97746,-0.19081,0.0,2023,6,7,14,44,3,870
40.81960,-0.06090,0.04183,0.00000,0.03355,0.97612,-0.19130,0.0,2023,6,7,14,44,3,880
40.81970,-0.02590,0.00683,0.00000,0.03099,0.97588,-0.19117,0.0,2023,6,7,14,44,3,890
40.81980,0.18410,0.18183,0.00000,0.03209,0.97685,-0.19081,0.0,2023,6,7,14,44,3,900
40.81990,-0.07840,0.16433,0.00000,0.03172,0.97539,-0.19130,0.0,2023,6,7,14,44,3,910
40.82000,0.11410,-0.11567,0.00000,0.03111,0.97746,-0.19130,0.0,2023,6,7,14,44,3,920
40.82010,0.16660,0.07683,0.00000,0.03184,0.97466,-0.18812,0.0,2023,6,7,14,44,3,930
40.82020,-0.00840,-0.16817,0.00000,0.03026,0.97612,-0.19117,0.0,2023,6,7,14,44,3,940
40.82030,0.14910,0.12933,0.00000,0.02989,0.97405,-0.19166,0.0,2023,6,7,14,44,3,950
40.82040,-0.06090,0.09433,0.00000,0.03050,0.97722,-0.18898,0.0,2023,6,7,14,44,3,960
40.82050,0.04410,0.04183,0.00000,0.02989,0.97649,-0.19215,0.0,2023,6,7,14,44,3,970
40.82060,0.07910,0.00683,0.00000,0.03074,0.97576,-0.19191,0.0,2023,6,7,14,44,3,980
40.82070,0.07910,-0.13317,0.00000,0.03270,0.97576,-0.19093,0.0,2023,6,7,14,44,3,990
40.82080,0.02660,0.00683,0.00000,0.02977,0.97771,-0.19020,0.0,2023,6,7,14,44,3,0
40.82090,0.02660,-0.08067,0.00000,0.03062,0.97576,-0.19032,0.0,2023,6,7,14,44,3,10
40.82100,-0.00840,0.04183,0.00000,0.03184,0.97600,-0.18873,0.0,2023,6,7,14,44,3,20
40.82110,-0.11340,-0.11567,0.00000,0.03001,0.97600,-0.19056,0.0,2023,6,7,14,44,3,30
40.82120,-0.21840,-0.08067,0.00000,0.03306,0.97783,-0.19020,0.0,2023,6,7,14,44,3,40
40.82130,-0.14840,-0.02817,0.00000,0.03087,0.97685,-0.18947,0.0,2023,6,7,14,44,3,50
40.82140,0.14910,-0.04567,0.00000,0.03087,0.97344,-0.18788,0.0,2023,6,7,14,44,3,60
40.82150,0.23660,0.00683,0.00000,0.03233,0.97563,-0.19227,0.0,2023,6,7,14,44,3,70
40.82160,0.13160,-0.04567,0.00000,0.03440,0.97502,-0.18910,0.0,2023,6,7,14,44,3,80
40.82170,0.06160,0.09433,0.00000,0.03172,0.97588,-0.19008,0.0,2023,6,7,14,44,3,90
40.82180,0.04410,0.02433,0.00000,0.02952,0.97868,-0.18666,0.0,2023,6,7,14,44,3,100
40.82190,-0.04340,0.00683,0.00000,0.03099,0.97795,-0.18983,0.0,2023,6,7,14,44,3,110
40.82200,-0.11340,0.04183,0.00000,0.03184,0.97588,-0.18678,0.0,2023,6,7,14,44,3,120
40.82210,0.11410,-0.20317,0.00000,0.02952,0.97637,-0.18776,0.0,2023,6,7,14,44,3,130
40.82220,-0.13090,0.12933,0.00000,0.03294,0.97563,-0.19130,0.0,2023,6,7,14,44,3,140
40.82230,-0.00840,-0.08067,0.00000,0.03099,0.97661,-0.18837,0.0,2023,6,7,14,44,3,150
40.82240,0.25410,-0.01067,0.00000,0.03209,0.97576,-0.19166,0.0,2023,6,7,14,44,3,160
40.82250,-0.09590,0.09433,0.00000,0.03074,0.97612,-0.19154,0.0,2023,6,7,14,44,3,170
40.82260,-0.06090,-0.04567,0.00000,0.03148,0.97612,-0.18971,0.0,2023,6,7,14,44,3,180
40.82270,-0.13090,0.14683,0.00000,0.03416,0.97759,-0.18971,0.0,2023,6,7,14,44,3,190
40.82280,-0.06090,0.02433,0.00000,0.03026,0.97539,-0.19032,0.0,2023,6,7,14,44,3,200
40.82290,-0.21840,-0.08067,0.00000,0.03196,0.97539,-0.18825,0.0,2023,6,7,14,44,3,210
40.82300,0.07910,0.05933,0.00000,0.03123,0.97795,-0.18605,0.0,2023,6,7,14,44,3,220
40.82310,0.09660,-0.04567,0.00000,0.03257,0.97637,-0.18873,0.0,2023,6,7,14,44,3,230
40.82320,0.04410,-0.06317,0.00000,0.02904,0.97429,-0.18898,0.0,2023,6,7,14,44,3,240
40.82330,0.18410,-0.11567,0.00000,0.03294,0.97612,-0.19117,0.0,2023,6,7,14,44,3,250
40.82340,0.14910,0.02433,0.00000,0.03270,0.97563,-0.18849,0.0,2023,6,7,14,44,3,260
40.82350,-0.04340,0.09433,0.00000,0.03306,0.97710,-0.18788,0.0,2023,6,7,14,44,3,270
40.82360,-0.00840,0.07683,0.00000,0.03135,0.97710,-0.18776,0.0,2023,6,7,14,44,3,280
40.82370,-0.09590,0.00683,0.00000,0.03001,0.97661,-0.19044,0.0,2023,6,7,14,44,3,290
40.82380,-0.04340,0.00683,0.00000,0.03477,0.97551,-0.18971,0.0,2023,6,7,14,44,3,300
40.82390,0.18410,0.09433,0.00000,0.03026,0.97698,-0.18800,0.0,2023,6,7,14,44,3,310
40.82400,0.11410,0.11183,0.00000,0.03318,0.97466,-0.18825,0.0,2023,6,7,14,44,4,320
40.82410,-0.11340,-0.13317,0.00000,0.03123,0.97649,-0.18812,0.0,2023,6,7,14,44,4,330
40.82420,-0.04340,0.02433,0.00000,0.03135,0.97429,-0.18812,0.0,2023,6,7,14,44,4,340
40.82430,-0.14840,0.05933,0.00000,0.03184,0.97759,-0.18922,0.0,2023,6,7,14,44,4,350
40.82440,-0.11340,0.21683,0.00000,0.02977,0.97454,-0.19032,0.0,2023,6,7,14,44,4,360
40.82450,0.13160,0.05933,0.00000,0.03184,0.97539,-0.18910,0.0,2023,6,7,14,44,4,370
40.82460,-0.06090,0.14683,0.00000,0.03392,0.97881,-0.19081,0.0,2023,6,7,14,44,4,380
40.82470,0.07910,-0.08067,0.00000,0.03196,0.97661,-0.18800,0.0,2023,6,7,14,44,4,390
40.82480,-0.00840,0.07683,0.00000,0.02904,0.97649,-0.19105,0.0,2023,6,7,14,44,4,400
40.82490,-0.06090,-0.02817,0.00000,0.03209,0.97820,-0.18788,0.0,2023,6,7,14,44,4,410
40.82500,0.02660,-0.09817,0.00000,0.03343,0.97929,-0.18995,0.0,2023,6,7,14,44,4,420
40.82510,-0.00840,0.02433,0.00000,0.02806,0.97576,-0.19130,0.0,2023,6,7,14,44,4,430
40.82520,-0.00840,0.23433,0.00000,0.02952,0.97515,-0.19203,0.0,2023,6,7,14,44,4,440
40.82530,0.06160,-0.08067,0.00000,0.02952,0.97771,-0.18971,0.0,2023,6,7,14,44,4,450
40.82540,0.06160,0.07683,0.00000,0.03111,0.97588,-0.18873,0.0,2023,6,7,14,44,4,460
40.82550,0.04410,-0.16817,0.00000,0.03221,0.97734,-0.18959,0.0,2023,6,7,14,44,4,470
40.82560,-0.07840,-0.13317,0.00000,0.03172,0.97661,-0.18995,0.0,2023,6,7,14,44,4,480
40.82570,-0.02590,0.02433,0.00000,0.03050,0.97734,-0.19008,0.0,2023,6,7,14,44,4,490
40.82580,-0.11340,0.07683,0.00000,0.03233,0.97722,-0.19178,0.0,2023,6,7,14,44,4,500
40.82590,0.02660,0.02433,0.00000,0.03172,0.97661,-0.19081,0.0,2023,6,7,14,44,4,510
40.82600,0.07910,0.09433,0.00000,0.03392,0.97539,-0.18995,0.0,2023,6,7,14,44,4,520
40.82610,0.13160,0.07683,0.00000,0.03087,0.97637,-0.19130,0.0,2023,6,7,14,44,4,530
40.82620,-0.02590,0.09433,0.00000,0.03294,0.97746,-0.18898,0.0,2023,6,7,14,44,4,540
40.82630,0.09660,0.00683,0.00000,0.03184,0.97722,-0.18812,0.0,2023,6,7,14,44,4,550
40.82640,-0.18340,0.14683,0.00000,0.03160,0.97515,-0.19130,0.0,2023,6,7,14,44,4,560
40.82650,-0.04340,-0.13317,0.00000,0.03257,0.97710,-0.19008,0.0,2023,6,7,14,44,4,570
40.82660,-0.00840,-0.04567,0.00000,0.03245,0.97429,-0.19081,0.0,2023,6,7,14,44,4,580
40.82670,0.07910,0.14683,0.00000,0.03331,0.97771,-0.18837,0.0,2023,6,7,14,44,4,590
40.82680,0.13160,-0.04567,0.00000,0.03257,0.97722,-0.18886,0.0,2023,6,7,14,44,4,600
40.82690,0.02660,-0.08067,0.00000,0.03148,0.97734,-0.18934,0.0,2023,6,7,14,44,4,610
40.82700,-0.07840,-0.04567,0.00000,0.03196,0.97588,-0.18776,0.0,2023,6,7,14,44,4,620
40.82710,-0.07840,0.00683,0.00000,0.03111,0.97600,-0.19081,0.0,2023,6,7,14,44,4,630
40.82720,-0.07840,0.04183,0.00000,0.03196,0.97380,-0.19008,0.0,2023,6,7,14,44,4,640
40.82730,-0.11340,0.04183,0.00000,0.03123,0.97527,-0.19093,0.0,2023,6,7,14,44,4,650
40.82740,0.14910,0.00683,0.00000,0.03148,0.97551,-0.18934,0.0,2023,6,7,14,44,4,660
40.82750,0.09660,0.00683,0.00000,0.03074,0.97478,-0.18947,0.0,2023,6,7,14,44,4,670
40.82760,0.11410,-0.25567,0.00000,0.03099,0.97820,-0.19056,0.0,2023,6,7,14,44,4,680
40.82770,-0.11340,0.02433,0.00000,0.03148,0.97759,-0.18837,0.0,2023,6,7,14,44,4,690
40.82780,0.04410,-0.13317,0.00000,0.03135,0.97478,-0.19069,0.0,2023,6,7,14,44,4,700
40.82790,0.11410,0.00683,0.00000,0.03050,0.97600,-0.18971,0.0,2023,6,7,14,44,4,710
40.82800,0.20160,-0.37817,0.00000,0.03099,0.97612,-0.18959,0.0,2023,6,7,14,44,4,720
40.82810,-0.21840,0.09433,0.00000,0.03135,0.97637,-0.19117,0.0,2023,6,7,14,44,4,730
40.82820,-0.14840,0.05933,0.00000,0.03196,0.97783,-0.19142,0.0,2023,6,7,14,44,4,740
40.82830,-0.07840,0.05933,0.00000,0.03270,0.97612,-0.19154,0.0,2023,6,7,14,44,4,750
40.82840,0.11410,-0.09817,0.00000,0.02891,0.97527,-0.19020,0.0,2023,6,7,14,44,4,760
40.82850,-0.09590,-0.04567,0.00000,0.03209,0.97820,-0.19154,0.0,2023,6,7,14,44,4,770
40.82860,-0.23590,0.12933,0.00000,0.03355,0.97673,-0.19105,0.0,2023,6,7,14,44,4,780
40.82870,-0.13090,-0.09817,0.00000,0.03282,0.97649,-0.18898,0.0,2023,6,7,14,44,4,790
40.82880,-0.02590,0.18183,0.00000,0.03318,0.97563,-0.18934,0.0,2023,6,7,14,44,4,800
40.82890,0.07910,0.05933,0.00000,0.02952,0.97649,-0.19081,0.0,2023,6,7,14,44,4,810
40.82900,0.13160,0.04183,0.00000,0.03160,0.97539,-0.19056,0.0,2023,6,7,14,44,4,820
40.82910,0.00910,0.04183,0.00000,0.03282,0.97539,-0.19008,0.0,2023,6,7,14,44,4,830
40.82920,-0.02590,-0.09817,0.00000,0.03026,0.97637,-0.19056,0.0,2023,6,7,14,44,4,840
40.82930,-0.07840,0.12933,0.00000,0.03111,0.97685,-0.19032,0.0,2023,6,7,14,44,4,850
40.82940,0.04410,-0.09817,0.00000,0.03123,0.97649,-0.19044,0.0,2023,6,7,14,44,4,860
40.82950,0.18410,-0.15067,0.00000,0.03123,0.97771,-0.19154,0.0,2023,6,7,14,44,4,870
40.82960,0.25410,0.00683,0.00000,0.02977,0.97746,-0.19337,0.0,2023,6,7,14,44,4,880
40.82970,-0.11340,0.09433,0.00000,0.03172,0.97466,-0.18983,0.0,2023,6,7,14,44,4,890
40.82980,-0.09590,-0.04567,0.00000,0.03038,0.97539,-0.19142,0.0,2023,6,7,14,44,4,900
40.82990,-0.13090,0.19933,0.00000,0.03294,0.97685,-0.18788,0.0,2023,6,7,14,44,4,910
40.83000,-0.02590,0.04183,0.00000,0.02989,0.97637,-0.19093,0.0,2023,6,7,14,44,4,920
40.83010,0.23660,-0.18567,0.00000,0.03026,0.97612,-0.18922,0.0,2023,6,7,14,44,4,930
40.83020,0.00910,-0.06317,0.00000,0.03123,0.97624,-0.18910,0.0,2023,6,7,14,44,4,940
40.83030,-0.14840,0.19933,0.00000,0.03038,0.97710,-0.19215,0.0,2023,6,7,14,44,4,950
40.83040,0.00910,0.11183,0.00000,0.03184,0.97588,-0.18910,0.0,2023,6,7,14,44,4,960
40.83050,0.04410,-0.06317,0.00000,0.03453,0.97673,-0.18922,0.0,2023,6,7,14,44,4,970
40.83060,-0.06090,-0.04567,0.00000,0.03050,0.97441,-0.19032,0.0,2023,6,7,14,44,4,980
40.83070,-0.09590,-0.01067,0.00000,0.03038,0.97783,-0.19093,0.0,2023,6,7,14,44,4,990
40.83080,0.06160,-0.23817,0.00000,0.03099,0.97710,-0.18934,0.0,2023,6,7,14,44,4,0
40.83090,-0.00840,-0.01067,0.00000,0.03135,0.97490,-0.19032,0.0,2023,6,7,14,44,4,10
40.83100,0.09660,-0.09817,0.00000,0.03160,0.97588,-0.19105,0.0,2023,6,7,14,44,4,20
40.83110,0.13160,0.07683,0.00000,0.03245,0.97429,-0.18983,0.0,2023,6,7,14,44,4,30
40.83120,0.16660,-0.15067,0.00000,0.03257,0.97563,-0.18995,0.0,2023,6,7,14,44,4,40
40.83130,0.02660,-0.15067,0.00000,0.03245,0.97502,-0.19081,0.0,2023,6,7,14,44,4,50
40.83140,0.00910,0.00683,0.00000,0.03038,0.97624,-0.19191,0.0,2023,6,7,14,44,4,60
40.83150,0.13160,-0.09817,0.00000,0.03209,0.97759,-0.19008,0.0,2023,6,7,14,44,4,70
40.83160,-0.09590,-0.15067,0.00000,0.03087,0.97783,-0.19069,0.0,2023,6,7,14,44,4,80
40.83170,-0.07840,-0.09817,0.00000,0.03318,0.97722,-0.19203,0.0,2023,6,7,14,44,4,90
40.83180,0.02660,0.12933,0.00000,0.03123,0.97576,-0.19105,0.0,2023,6,7,14,44,4,100
40.83190,-0.04340,0.09433,0.00000,0.03294,0.97490,-0.19069,0.0,2023,6,7,14,44,4,110
40.83200,0.00910,-0.09817,0.00000,0.03026,0.97624,-0.19069,0.0,2023,6,7,14,44,4,120
40.83210,0.11410,-0.02817,0.00000,0.03172,0.97844,-0.18947,0.0,2023,6,7,14,44,4,130
40.83220,0.04410,-0.08067,0.00000,0.03026,0.97551,-0.18971,0.0,2023,6,7,14,44,4,140
40.83230,0.07910,0.30433,0.00000,0.03135,0.97515,-0.19056,0.0,2023,6,7,14,44,4,150
40.83240,0.02660,0.04183,0.00000,0.03074,0.97746,-0.18922,0.0,2023,6,7,14,44,4,160
40.83250,0.32410,-0.30817,0.00000,0.03209,0.97734,-0.19081,0.0,2023,6,7,14,44,4,170
40.83260,0.00910,0.18183,0.00000,0.03184,0.97576,-0.19215,0.0,2023,6,7,14,44,4,180
40.83270,-0.00840,0.07683,0.00000,0.03294,0.97563,-0.18886,0.0,2023,6,7,14,44,4,190
40.83280,0.04410,0.05933,0.00000,0.03270,0.97637,-0.18934,0.0,2023,6,7,14,44,4,200
40.83290,0.11410,0.09433,0.00000,0.03038,0.97771,-0.19008,0.0,2023,6,7,14,44,4,210
40.83300,0.02660,-0.29067,0.00000,0.03135,0.97832,-0.19154,0.0,2023,6,7,14,44,5,220
40.83310,0.00910,0.04183,0.00000,0.03294,0.97844,-0.18971,0.0,2023,6,7,14,44,5,230
40.83320,-0.02590,-0.16817,0.00000,0.03221,0.97490,-0.19178,0.0,2023,6,7,14,44,5,240
40.83330,0.13160,-0.27317,0.00000,0.03184,0.97868,-0.18959,0.0,2023,6,7,14,44,5,250
40.83340,-0.07840,-0.04567,0.00000,0.02843,0.97612,-0.19093,0.0,2023,6,7,14,44,5,260
40.83350,-0.00840,0.00683,0.00000,0.03221,0.97502,-0.18922,0.0,2023,6,7,14,44,5,270
40.83360,0.04410,0.02433,0.00000,0.03111,0.97844,-0.19239,0.0,2023,6,7,14,44,5,280
40.83370,-0.06090,-0.09817,0.00000,0.03257,0.97588,-0.18995,0.0,2023,6,7,14,44,5,290
40.83380,-0.07840,0.18183,0.00000,0.02965,0.97405,-0.19276,0.0,2023,6,7,14,44,5,300
40.83390,-0.06090,0.05933,0.00000,0.02989,0.97527,-0.19069,0.0,2023,6,7,14,44,5,310
40.83400,-0.14840,-0.09817,0.00000,0.03318,0.97929,-0.19056,0.0,2023,6,7,14,44,5,320
40.83410,0.28910,-0.15067,0.00000,0.03392,0.97795,-0.19020,0.0,2023,6,7,14,44,5,330
40.83420,-0.06090,-0.23817,0.00000,0.03221,0.97441,-0.19020,0.0,2023,6,7,14,44,5,340
40.83430,-0.21840,-0.01067,0.00000,0.03038,0.97551,-0.19203,0.0,2023,6,7,14,44,5,350
40.83440,0.13160,0.11183,0.00000,0.03404,0.97527,-0.19142,0.0,2023,6,7,14,44,5,360
40.83450,0.07910,0.00683,0.00000,0.03209,0.97698,-0.18800,0.0,2023,6,7,14,44,5,370
40.83460,-0.13090,0.07683,0.00000,0.03257,0.97673,-0.19032,0.0,2023,6,7,14,44,5,380
40.83470,0.16660,-0.02817,0.00000,0.03270,0.97478,-0.18898,0.0,2023,6,7,14,44,5,390
40.83480,0.02660,-0.09817,0.00000,0.03282,0.97527,-0.19154,0.0,2023,6,7,14,44,5,400
40.83490,-0.02590,0.12933,0.00000,0.03160,0.97527,-0.19056,0.0,2023,6,7,14,44,5,410
40.83500,-0.11340,0.09433,0.00000,0.03026,0.97576,-0.19044,0.0,2023,6,7,14,44,5,420
40.83510,0.06160,-0.13317,0.00000,0.03123,0.97893,-0.19191,0.0,2023,6,7,14,44,5,430
40.83520,0.06160,-0.13317,0.00000,0.03160,0.97600,-0.18934,0.0,2023,6,7,14,44,5,440
40.83530,0.18410,-0.08067,0.00000,0.03160,0.97441,-0.18861,0.0,2023,6,7,14,44,5,450
40.83540,-0.28840,0.32183,0.00000,0.03282,0.97624,-0.18898,0.0,2023,6,7,14,44,5,460
40.83550,-0.00840,-0.09817,0.00000,0.03245,0.97734,-0.19008,0.0,2023,6,7,14,44,5,470
40.83560,-0.11340,0.11183,0.00000,0.03013,0.97698,-0.19069,0.0,2023,6,7,14,44,5,480
40.83570,-0.07840,-0.06317,0.00000,0.03111,0.97673,-0.18983,0.0,2023,6,7,14,44,5,490
40.83580,-0.02590,-0.01067,0.00000,0.03196,0.97685,-0.19117,0.0,2023,6,7,14,44,5,500
40.83590,0.07910,0.05933,0.00000,0.03123,0.97820,-0.19032,0.0,2023,6,7,14,44,5,510
40.83600,0.00910,-0.08067,0.00000,0.03123,0.97515,-0.18934,0.0,2023,6,7,14,44,5,520
40.83610,0.11410,-0.16817,0.00000,0.03196,0.97649,-0.19117,0.0,2023,6,7,14,44,5,530
40.83620,-0.06090,-0.09817,0.00000,0.03184,0.97637,-0.18959,0.0,2023,6,7,14,44,5,540
40.83630,-0.13090,-0.13317,0.00000,0.03343,0.97685,-0.19130,0.0,2023,6,7,14,44,5,550
40.83640,0.07910,0.00683,0.00000,0.03184,0.97283,-0.18666,0.0,2023,6,7,14,44,5,560
40.83650,-0.00840,0.07683,0.00000,0.03050,0.97832,-0.18983,0.0,2023,6,7,14,44,5,570
40.83660,0.02660,-0.01067,0.00000,0.03233,0.97661,-0.18947,0.0,2023,6,7,14,44,5,580
40.83670,-0.02590,-0.01067,0.00000,0.03294,0.97661,-0.19117,0.0,2023,6,7,14,44,5,590
40.83680,0.00910,0.05933,0.00000,0.03233,0.97588,-0.18898,0.0,2023,6,7,14,44,5,600
40.83690,0.11410,-0.08067,0.00000,0.03087,0.97649,-0.18983,0.0,2023,6,7,14,44,5,610
40.83700,-0.02590,0.11183,0.00000,0.03172,0.97429,-0.18971,0.0,2023,6,7,14,44,5,620
40.83710,-0.14840,-0.06317,0.00000,0.03172,0.97551,-0.18849,0.0,2023,6,7,14,44,5,630
40.83720,0.04410,0.19933,0.00000,0.02977,0.97502,-0.19069,0.0,2023,6,7,14,44,5,640
40.83730,-0.00840,0.07683,0.00000,0.03123,0.97393,-0.18971,0.0,2023,6,7,14,44,5,650
40.83740,-0.00840,-0.04567,0.00000,0.03123,0.97771,-0.18715,0.0,2023,6,7,14,44,5,660
40.83750,-0.02590,-0.08067,0.00000,0.02879,0.97490,-0.19081,0.0,2023,6,7,14,44,5,670
40.83760,0.11410,0.00683,0.00000,0.03050,0.97405,-0.19191,0.0,2023,6,7,14,44,5,680
40.83770,0.06160,-0.08067,0.00000,0.03062,0.97466,-0.18849,0.0,2023,6,7,14,44,5,690
40.83780,-0.04340,0.23433,0.00000,0.02952,0.97527,-0.19154,0.0,2023,6,7,14,44,5,700
40.83790,-0.18340,0.14683,0.00000,0.03135,0.97722,-0.18971,0.0,2023,6,7,14,44,5,710
40.83800,-0.02590,-0.01067,0.00000,0.03099,0.97783,-0.18995,0.0,2023,6,7,14,44,5,720
40.83810,-0.13090,-0.13317,0.00000,0.03160,0.97624,-0.18922,0.0,2023,6,7,14,44,5,730
40.83820,-0.09590,0.02433,0.00000,0.03013,0.97661,-0.18886,0.0,2023,6,7,14,44,5,740
40.83830,-0.07840,0.09433,0.00000,0.03306,0.97563,-0.19069,0.0,2023,6,7,14,44,5,750
40.83840,-0.07840,0.12933,0.00000,0.03099,0.97490,-0.19069,0.0,2023,6,7,14,44,5,760
40.83850,-0.11340,0.14683,0.00000,0.03123,0.97856,-0.19105,0.0,2023,6,7,14,44,5,770
40.83860,-0.02590,0.00683,0.00000,0.03343,0.97685,-0.19008,0.0,2023,6,7,14,44,5,780
40.83870,-0.16590,0.16433,0.00000,0.03392,0.97612,-0.19117,0.0,2023,6,7,14,44,5,790
40.83880,-0.16590,0.23433,0.00000,0.03172,0.97527,-0.18849,0.0,2023,6,7,14,44,5,800
40.83890,-0.07840,0.23433,0.00000,0.03087,0.97551,-0.19154,0.0,2023,6,7,14,44,5,810
40.83900,0.21910,0.14683,0.00000,0.03209,0.97429,-0.19130,0.0,2023,6,7,14,44,5,820
40.83910,-0.02590,0.12933,0.00000,0.03221,0.97673,-0.18849,0.0,2023,6,7,14,44,5,830
40.83920,0.21910,0.16433,0.00000,0.02965,0.97576,-0.18995,0.0,2023,6,7,14,44,5,840
40.83930,0.27160,-0.22067,0.00000,0.03062,0.97551,-0.18922,0.0,2023,6,7,14,44,5,850
40.83940,-0.20090,0.07683,0.00000,0.03306,0.97881,-0.18934,0.0,2023,6,7,14,44,5,860
40.83950,-0.09590,-0.01067,0.00000,0.03111,0.97661,-0.19130,0.0,2023,6,7,14,44,5,870
40.83960,0.09660,0.04183,0.00000,0.03184,0.97600,-0.18922,0.0,2023,6,7,14,44,5,880
40.83970,-0.09590,-0.06317,0.00000,0.03355,0.97539,-0.19008,0.0,2023,6,7,14,44,5,890
40.83980,-0.04340,-0.16817,0.00000,0.03318,0.97612,-0.18861,0.0,2023,6,7,14,44,5,900
40.83990,0.04410,-0.06317,0.00000,0.03172,0.97759,-0.18959,0.0,2023,6,7,14,44,5,910
40.84000,-0.02590,-0.04567,0.00000,0.03160,0.97600,-0.18873,0.0,2023,6,7,14,44,5,920
40.84010,0.04410,-0.11567,0.00000,0.03026,0.97356,-0.19056,0.0,2023,6,7,14,44,5,930
40.84020,0.16660,0.00683,0.00000,0.03160,0.97612,-0.19044,0.0,2023,6,7,14,44,5,940
40.84030,0.02660,0.05933,0.00000,0.03148,0.97673,-0.18812,0.0,2023,6,7,14,44,5,950
40.84040,0.23660,-0.18567,0.00000,0.03257,0.97612,-0.18983,0.0,2023,6,7,14,44,5,960
40.84050,-0.02590,0.12933,0.00000,0.03209,0.97893,-0.18727,0.0,2023,6,7,14,44,5,970
40.84060,0.06160,-0.08067,0.00000,0.03135,0.97576,-0.18983,0.0,2023,6,7,14,44,5,980
40.84070,0.13160,0.02433,0.00000,0.03379,0.97868,-0.19154,0.0,2023,6,7,14,44,5,990
40.84080,0.20160,0.02433,0.00000,0.03099,0.97539,-0.18861,0.0,2023,6,7,14,44,5,0
40.84090,0.13160,-0.01067,0.00000,0.03038,0.97490,-0.18983,0.0,2023,6,7,14,44,5,10
40.84100,0.02660,-0.06317,0.00000,0.03050,0.97637,-0.19020,0.0,2023,6,7,14,44,5,20
40.84110,-0.06090,0.12933,0.00000,0.03050,0.97783,-0.18934,0.0,2023,6,7,14,44,5,30
40.84120,0.09660,-0.11567,0.00000,0.03038,0.97722,-0.18995,0.0,2023,6,7,14,44,5,40
40.84130,-0.14840,-0.15067,0.00000,0.03074,0.97380,-0.19105,0.0,2023,6,7,14,44,5,50
40.84140,-0.21840,-0.06317,0.00000,0.03148,0.97368,-0.18886,0.0,2023,6,7,14,44,5,60
40.84150,0.02660,0.19933,0.00000,0.02928,0.97661,-0.18861,0.0,2023,6,7,14,44,5,70
40.84160,0.02660,-0.06317,0.00000,0.03160,0.97612,-0.19117,0.0,2023,6,7,14,44,5,80
40.84170,-0.04340,-0.06317,0.00000,0.02940,0.97649,-0.18959,0.0,2023,6,7,14,44,5,90
40.84180,0.09660,-0.16817,0.00000,0.03123,0.97722,-0.18788,0.0,2023,6,7,14,44,5,100
40.84190,-0.16590,0.11183,0.00000,0.03282,0.97722,-0.18751,0.0,2023,6,7,14,44,5,110
40.84200,0.13160,-0.01067,0.00000,0.03331,0.97502,-0.18910,0.0,2023,6,7,14,44,5,120
40.84210,-0.04340,0.07683,0.00000,0.03111,0.97502,-0.19032,0.0,2023,6,7,14,44,5,130
40.84220,-0.14840,0.21683,0.00000,0.03221,0.97820,-0.18922,0.0,2023,6,7,14,44,6,140
40.84230,-0.06090,-0.22067,0.00000,0.03111,0.97563,-0.18922,0.0,2023,6,7,14,44,6,150
40.84240,0.00910,-0.08067,0.00000,0.03294,0.97563,-0.18861,0.0,2023,6,7,14,44,6,160
40.84250,0.04410,-0.01067,0.00000,0.03050,0.97795,-0.18971,0.0,2023,6,7,14,44,6,170
40.84260,0.11410,-0.02817,0.00000,0.03062,0.97746,-0.19056,0.0,2023,6,7,14,44,6,180
40.84270,-0.14840,0.18183,0.00000,0.03099,0.97624,-0.18800,0.0,2023,6,7,14,44,6,190
40.84280,0.04410,-0.16817,0.00000,0.03148,0.97722,-0.18947,0.0,2023,6,7,14,44,6,200
40.84290,0.07910,-0.04567,0.00000,0.03306,0.97490,-0.18934,0.0,2023,6,7,14,44,6,210
40.84300,0.04410,0.16433,0.00000,0.03160,0.97722,-0.18825,0.0,2023,6,7,14,44,6,220
40.84310,0.04410,0.00683,0.00000,0.03099,0.97734,-0.19227,0.0,2023,6,7,14,44,6,230
40.84320,0.04410,0.07683,0.00000,0.03148,0.97759,-0.18898,0.0,2023,6,7,14,44,6,240
40.84330,-0.06090,0.12933,0.00000,0.03196,0.97698,-0.18910,0.0,2023,6,7,14,44,6,250
40.84340,0.00910,-0.16817,0.00000,0.02940,0.97515,-0.19142,0.0,2023,6,7,14,44,6,260
40.84350,0.02660,0.07683,0.00000,0.03123,0.97783,-0.18690,0.0,2023,6,7,14,44,6,270
40.84360,-0.11340,0.04183,0.00000,0.03135,0.97844,-0.18825,0.0,2023,6,7,14,44,6,280
40.84370,0.00910,-0.01067,0.00000,0.03062,0.97563,-0.19117,0.0,2023,6,7,14,44,6,290
40.84380,-0.16590,-0.01067,0.00000,0.03087,0.97563,-0.18898,0.0,2023,6,7,14,44,6,300
40.84390,0.02660,0.02433,0.00000,0.03050,0.97563,-0.19203,0.0,2023,6,7,14,44,6,310
40.84400,0.14910,-0.20317,0.00000,0.03099,0.97563,-0.18922,0.0,2023,6,7,14,44,6,320
40.84410,-0.00840,-0.06317,0.00000,0.03074,0.97490,-0.18898,0.0,2023,6,7,14,44,6,330
40.84420,0.32410,0.04183,0.00000,0.03062,0.97576,-0.19008,0.0,2023,6,7,14,44,6,340
40.84430,0.13160,-0.04567,0.00000,0.03050,0.97746,-0.18715,0.0,2023,6,7,14,44,6,350
40.84440,-0.13090,0.07683,0.00000,0.03087,0.97673,-0.18971,0.0,2023,6,7,14,44,6,360
40.84450,0.13160,0.04183,0.00000,0.03135,0.97612,-0.18922,0.0,2023,6,7,14,44,6,370
40.84460,-0.14840,0.02433,0.00000,0.03038,0.97661,-0.18959,0.0,2023,6,7,14,44,6,380
40.84470,-0.11340,0.14683,0.00000,0.03355,0.97783,-0.19056,0.0,2023,6,7,14,44,6,390
40.84480,-0.07840,-0.02817,0.00000,0.03379,0.97844,-0.18898,0.0,2023,6,7,14,44,6,400
40.84490,-0.11340,0.02433,0.00000,0.03209,0.97661,-0.18959,0.0,2023,6,7,14,44,6,410
40.84500,0.23660,-0.08067,0.00000,0.03160,0.97173,-0.18959,0.0,2023,6,7,14,44,6,420
40.84510,0.11410,-0.15067,0.00000,0.02806,0.97429,-0.18764,0.0,2023,6,7,14,44,6,430
40.84520,0.07910,-0.18567,0.00000,0.03074,0.97661,-0.18849,0.0,2023,6,7,14,44,6,440
40.84530,0.11410,-0.23817,0.00000,0.03160,0.97698,-0.18934,0.0,2023,6,7,14,44,6,450
40.84540,-0.00840,-0.27317,0.00000,0.03221,0.97600,-0.18873,0.0,2023,6,7,14,44,6,460
40.84550,0.09660,-0.06317,0.00000,0.03135,0.97905,-0.19191,0.0,2023,6,7,14,44,6,470
40.84560,0.28910,-0.08067,0.00000,0.03172,0.97600,-0.18886,0.0,2023,6,7,14,44,6,480
40.84570,0.04410,-0.20317,0.00000,0.03172,0.97527,-0.18910,0.0,2023,6,7,14,44,6,490
40.84580,0.04410,0.16433,0.00000,0.03160,0.97405,-0.19166,0.0,2023,6,7,14,44,6,500
40.84590,0.06160,-0.11567,0.00000,0.03099,0.97710,-0.18947,0.0,2023,6,7,14,44,6,510
40.84600,0.07910,0.21683,0.00000,0.03343,0.97759,-0.18873,0.0,2023,6,7,14,44,6,520
40.84610,0.09660,-0.08067,0.00000,0.03294,0.97490,-0.18690,0.0,2023,6,7,14,44,6,530
40.84620,0.06160,0.21683,0.00000,0.03135,0.97954,-0.18800,0.0,2023,6,7,14,44,6,540
40.84630,0.09660,0.05933,0.00000,0.02965,0.97637,-0.19203,0.0,2023,6,7,14,44,6,550
40.84640,0.14910,0.11183,0.00000,0.03257,0.97466,-0.18886,0.0,2023,6,7,14,44,6,560
40.84650,-0.06090,-0.04567,0.00000,0.03038,0.97576,-0.18861,0.0,2023,6,7,14,44,6,570
40.84660,-0.09590,0.09433,0.00000,0.03209,0.97917,-0.19056,0.0,2023,6,7,14,44,6,580
40.84670,-0.06090,0.05933,0.00000,0.03355,0.97771,-0.19056,0.0,2023,6,7,14,44,6,590
40.84680,-0.13090,0.02433,0.00000,0.03172,0.97722,-0.18812,0.0,2023,6,7,14,44,6,600
40.84690,0.00910,-0.09817,0.00000,0.03453,0.97771,-0.18959,0.0,2023,6,7,14,44,6,610
40.84700,-0.00840,-0.06317,0.00000,0.03477,0.97856,-0.18971,0.0,2023,6,7,14,44,6,620
40.84710,-0.02590,0.00683,0.00000,0.03062,0.97539,-0.19142,0.0,2023,6,7,14,44,6,630
40.84720,0.04410,-0.06317,0.00000,0.03172,0.97576,-0.18959,0.0,2023,6,7,14,44,6,640
40.84730,0.18410,0.02433,0.00000,0.03257,0.97698,-0.19020,0.0,2023,6,7,14,44,6,650
40.84740,0.02660,-0.15067,0.00000,0.03355,0.97515,-0.19032,0.0,2023,6,7,14,44,6,660
40.84750,0.00910,-0.01067,0.00000,0.03038,0.97661,-0.19081,0.0,2023,6,7,14,44,6,670
40.84760,0.06160,-0.23817,0.00000,0.03026,0.97551,-0.18983,0.0,2023,6,7,14,44,6,680
40.84770,0.11410,0.07683,0.00000,0.03331,0.97466,-0.19020,0.0,2023,6,7,14,44,6,690
40.84780,0.02660,-0.02817,0.00000,0.03038,0.97551,-0.18934,0.0,2023,6,7,14,44,6,700
40.84790,-0.07840,-0.01067,0.00000,0.02891,0.97600,-0.19056,0.0,2023,6,7,14,44,6,710
40.84800,-0.06090,0.09433,0.00000,0.03196,0.97771,-0.18922,0.0,2023,6,7,14,44,6,720
40.84810,-0.02590,0.02433,0.00000,0.03392,0.97563,-0.18776,0.0,2023,6,7,14,44,6,730
40.84820,0.07910,-0.08067,0.00000,0.03135,0.97527,-0.18947,0.0,2023,6,7,14,44,6,740
40.84830,-0.07840,0.07683,0.00000,0.03062,0.97600,-0.18922,0.0,2023,6,7,14,44,6,750
40.84840,-0.07840,0.12933,0.00000,0.03148,0.97466,-0.19105,0.0,2023,6,7,14,44,6,760
40.84850,0.04410,0.19933,0.00000,0.03111,0.97673,-0.19178,0.0,2023,6,7,14,44,6,770
40.84860,-0.04340,-0.04567,0.00000,0.03050,0.97490,-0.18934,0.0,2023,6,7,14,44,6,780
40.84870,0.13160,-0.20317,0.00000,0.03123,0.97527,-0.18910,0.0,2023,6,7,14,44,6,790
40.84880,0.09660,0.02433,0.00000,0.03148,0.97600,-0.19117,0.0,2023,6,7,14,44,6,800
40.84890,0.00910,0.14683,0.00000,0.03270,0.97710,-0.19093,0.0,2023,6,7,14,44,6,810
40.84900,0.06160,-0.06317,0.00000,0.03050,0.97478,-0.19166,0.0,2023,6,7,14,44,6,820
40.84910,0.07910,0.07683,0.00000,0.02940,0.97527,-0.19032,0.0,2023,6,7,14,44,6,830
40.84920,0.00910,0.02433,0.00000,0.03038,0.97576,-0.18934,0.0,2023,6,7,14,44,6,840
40.84930,0.07910,0.02433,0.00000,0.03123,0.97734,-0.18934,0.0,2023,6,7,14,44,6,850
40.84940,0.04410,-0.13317,0.00000,0.03087,0.97966,-0.18934,0.0,2023,6,7,14,44,6,860
40.84950,0.04410,-0.04567,0.00000,0.03209,0.97515,-0.19044,0.0,2023,6,7,14,44,6,870
40.84960,0.07910,-0.04567,0.00000,0.03270,0.97673,-0.19056,0.0,2023,6,7,14,44,6,880
40.84970,0.23660,-0.08067,0.00000,0.03099,0.97600,-0.19191,0.0,2023,6,7,14,44,6,890
40.84980,0.06160,0.16433,0.00000,0.03135,0.97624,-0.18971,0.0,2023,6,7,14,44,6,900
40.84990,-0.04340,-0.06317,0.00000,0.03099,0.97466,-0.19252,0.0,2023,6,7,14,44,6,910
40.85000,0.00910,-0.01067,0.00000,0.03074,0.97685,-0.18873,0.0,2023,6,7,14,44,6,920
40.85010,-0.02590,0.04183,0.00000,0.03184,0.97624,-0.19032,0.0,2023,6,7,14,44,6,930
40.85020,0.07910,-0.11567,0.00000,0.03135,0.97612,-0.18959,0.0,2023,6,7,14,44,6,940
40.85030,-0.02590,-0.01067,0.00000,0.02952,0.97795,-0.19008,0.0,2023,6,7,14,44,6,950
40.85040,0.02660,0.02433,0.00000,0.03062,0.97673,-0.19105,0.0,2023,6,7,14,44,6,960
40.85050,-0.04340,-0.02817,0.00000,0.03270,0.97685,-0.18873,0.0,2023,6,7,14,44,6,970
40.85060,0.00910,-0.15067,0.00000,0.03294,0.97734,-0.18959,0.0,2023,6,7,14,44,6,980
40.85070,0.06160,-0.01067,0.00000,0.03026,0.97466,-0.18934,0.0,2023,6,7,14,44,6,990
40.85080,0.02660,0.00683,0.00000,0.03050,0.97710,-0.18727,0.0,2023,6,7,14,44,6,0
40.85090,-0.09590,-0.02817,0.00000,0.03209,0.97759,-0.19130,0.0,2023,6,7,14,44,6,10
40.85100,0.16660,-0.15067,0.00000,0.03367,0.97734,-0.19044,0.0,2023,6,7,14,44,7,20
40.85110,-0.18340,0.18183,0.00000,0.03074,0.97698,-0.19191,0.0,2023,6,7,14,44,7,30
40.85120,-0.04340,-0.09817,0.00000,0.03050,0.97868,-0.18947,0.0,2023,6,7,14,44,7,40
40.85130,0.04410,-0.11567,0.00000,0.03233,0.97551,-0.18898,0.0,2023,6,7,14,44,7,50
40.85140,-0.11340,-0.01067,0.00000,0.03172,0.97795,-0.19032,0.0,2023,6,7,14,44,7,60
40.85150,-0.00840,-0.15067,0.00000,0.03062,0.97515,-0.18910,0.0,2023,6,7,14,44,7,70
40.85160,-0.18340,-0.08067,0.00000,0.03050,0.97624,-0.18849,0.0,2023,6,7,14,44,7,80
40.85170,-0.13090,0.07683,0.00000,0.02989,0.97490,-0.19008,0.0,2023,6,7,14,44,7,90
40.85180,0.11410,0.14683,0.00000,0.03209,0.97466,-0.18873,0.0,2023,6,7,14,44,7,100
40.85190,0.00910,-0.06317,0.00000,0.03367,0.97685,-0.18898,0.0,2023,6,7,14,44,7,110
40.85200,0.00910,-0.06317,0.00000,0.03148,0.97478,-0.19069,0.0,2023,6,7,14,44,7,120
40.85210,0.18410,0.00683,0.00000,0.03148,0.97539,-0.18959,0.0,2023,6,7,14,44,7,130
40.85220,-0.14840,-0.09817,0.00000,0.03111,0.97698,-0.18947,0.0,2023,6,7,14,44,7,140
40.85230,0.23660,-0.29067,0.00000,0.02989,0.97478,-0.18825,0.0,2023,6,7,14,44,7,150
40.85240,0.09660,-0.06317,0.00000,0.03099,0.97307,-0.18959,0.0,2023,6,7,14,44,7,160
40.85250,-0.11340,-0.06317,0.00000,0.03111,0.97576,-0.18934,0.0,2023,6,7,14,44,7,170
40.85260,0.00910,-0.13317,0.00000,0.03135,0.97771,-0.19044,0.0,2023,6,7,14,44,7,180
40.85270,0.21910,-0.25567,0.00000,0.03001,0.97539,-0.18934,0.0,2023,6,7,14,44,7,190
40.85280,0.00910,-0.18567,0.00000,0.03111,0.97563,-0.18886,0.0,2023,6,7,14,44,7,200
40.85290,0.04410,0.05933,0.00000,0.02977,0.97759,-0.18983,0.0,2023,6,7,14,44,7,210
40.85300,-0.13090,-0.11567,0.00000,0.03331,0.97893,-0.19008,0.0,2023,6,7,14,44,7,220
40.85310,0.09660,-0.06317,0.00000,0.03001,0.97624,-0.18995,0.0,2023,6,7,14,44,7,230
40.85320,0.13160,-0.04567,0.00000,0.03123,0.97612,-0.19032,0.0,2023,6,7,14,44,7,240
40.85330,0.04410,0.07683,0.00000,0.03160,0.97429,-0.18886,0.0,2023,6,7,14,44,7,250
40.85340,0.07910,0.02433,0.00000,0.03221,0.97685,-0.18910,0.0,2023,6,7,14,44,7,260
40.85350,0.02660,-0.01067,0.00000,0.03294,0.97490,-0.18861,0.0,2023,6,7,14,44,7,270
40.85360,0.07910,-0.13317,0.00000,0.03404,0.97673,-0.18703,0.0,2023,6,7,14,44,7,280
40.85370,0.02660,-0.01067,0.00000,0.03026,0.97759,-0.19008,0.0,2023,6,7,14,44,7,290
40.85380,0.14910,0.05933,0.00000,0.03379,0.97771,-0.18873,0.0,2023,6,7,14,44,7,300
40.85390,0.09660,-0.02817,0.00000,0.03123,0.97649,-0.18764,0.0,2023,6,7,14,44,7,310
40.85400,-0.20090,0.09433,0.00000,0.03233,0.97637,-0.18947,0.0,2023,6,7,14,44,7,320
40.85410,0.18410,0.02433,0.00000,0.03172,0.97685,-0.18947,0.0,2023,6,7,14,44,7,330
40.85420,-0.11340,-0.02817,0.00000,0.03270,0.97771,-0.18837,0.0,2023,6,7,14,44,7,340
40.85430,-0.13090,-0.04567,0.00000,0.03355,0.97649,-0.18947,0.0,2023,6,7,14,44,7,350
40.85440,-0.06090,-0.02817,0.00000,0.03221,0.97600,-0.18947,0.0,2023,6,7,14,44,7,360
40.85450,-0.06090,-0.08067,0.00000,0.03148,0.97563,-0.18825,0.0,2023,6,7,14,44,7,370
40.85460,-0.02590,-0.04567,0.00000,0.03160,0.97649,-0.18617,0.0,2023,6,7,14,44,7,380
40.85470,-0.11340,0.30433,0.00000,0.03221,0.97588,-0.18678,0.0,2023,6,7,14,44,7,390
40.85480,0.06160,0.07683,0.00000,0.03135,0.97722,-0.18751,0.0,2023,6,7,14,44,7,400
40.85490,0.13160,-0.08067,0.00000,0.03148,0.97637,-0.19239,0.0,2023,6,7,14,44,7,410
40.85500,0.06160,0.23433,0.00000,0.03294,0.97563,-0.18776,0.0,2023,6,7,14,44,7,420
40.85510,-0.07840,0.25183,0.00000,0.03160,0.97576,-0.19105,0.0,2023,6,7,14,44,7,430
40.85520,0.00910,0.11183,0.00000,0.03099,0.97539,-0.18947,0.0,2023,6,7,14,44,7,440
40.85530,-0.04340,0.02433,0.00000,0.03343,0.97612,-0.18934,0.0,2023,6,7,14,44,7,450
40.85540,-0.00840,-0.06317,0.00000,0.03306,0.97759,-0.18764,0.0,2023,6,7,14,44,7,460
40.85550,0.04410,0.02433,0.00000,0.03013,0.97576,-0.19081,0.0,2023,6,7,14,44,7,470
40.85560,-0.00840,-0.06317,0.00000,0.02977,0.97563,-0.18764,0.0,2023,6,7,14,44,7,480
40.85570,0.00910,0.04183,0.00000,0.03111,0.97624,-0.18959,0.0,2023,6,7,14,44,7,490
40.85580,-0.16590,0.07683,0.00000,0.03050,0.97661,-0.18861,0.0,2023,6,7,14,44,7,500
40.85590,-0.06090,0.04183,0.00000,0.03270,0.97527,-0.18812,0.0,2023,6,7,14,44,7,510
40.85600,0.06160,-0.11567,0.00000,0.03221,0.97624,-0.19044,0.0,2023,6,7,14,44,7,520
40.85610,-0.13090,-0.11567,0.00000,0.03196,0.97527,-0.18910,0.0,2023,6,7,14,44,7,530
40.85620,-0.04340,0.21683,0.00000,0.03404,0.97466,-0.18886,0.0,2023,6,7,14,44,7,540
40.85630,-0.02590,0.00683,0.00000,0.02977,0.97624,-0.18995,0.0,2023,6,7,14,44,7,550
40.85640,0.00910,-0.08067,0.00000,0.03221,0.97527,-0.18812,0.0,2023,6,7,14,44,7,560
40.85650,0.02660,-0.09817,0.00000,0.03038,0.97710,-0.18959,0.0,2023,6,7,14,44,7,570
40.85660,0.11410,-0.01067,0.00000,0.03257,0.97820,-0.19117,0.0,2023,6,7,14,44,7,580
40.85670,0.13160,-0.22067,0.00000,0.03050,0.97649,-0.18922,0.0,2023,6,7,14,44,7,590
40.85680,-0.06090,0.00683,0.00000,0.03318,0.97502,-0.18995,0.0,2023,6,7,14,44,7,600
40.85690,-0.23590,-0.15067,0.00000,0.03160,0.97344,-0.18947,0.0,2023,6,7,14,44,7,610
40.85700,0.04410,0.05933,0.00000,0.03160,0.97576,-0.18959,0.0,2023,6,7,14,44,7,620
40.85710,-0.00840,0.02433,0.00000,0.03074,0.97661,-0.18971,0.0,2023,6,7,14,44,7,630
40.85720,0.20160,-0.02817,0.00000,0.03026,0.97527,-0.18983,0.0,2023,6,7,14,44,7,640
40.85730,-0.07840,0.00683,0.00000,0.02782,0.97454,-0.19032,0.0,2023,6,7,14,44,7,650
40.85740,0.14910,-0.02817,0.00000,0.03282,0.97649,-0.19130,0.0,2023,6,7,14,44,7,660
40.85750,0.23660,0.23433,0.00000,0.03221,0.97527,-0.18947,0.0,2023,6,7,14,44,7,670
40.85760,0.00910,0.00683,0.00000,0.03270,0.97783,-0.19093,0.0,2023,6,7,14,44,7,680
40.85770,0.07910,-0.02817,0.00000,0.03343,0.97466,-0.19117,0.0,2023,6,7,14,44,7,690
40.85780,0.11410,-0.15067,0.00000,0.03257,0.97685,-0.18995,0.0,2023,6,7,14,44,7,700
40.85790,0.00910,-0.11567,0.00000,0.02965,0.97673,-0.18861,0.0,2023,6,7,14,44,7,710
40.85800,-0.13090,0.00683,0.00000,0.02989,0.97649,-0.18800,0.0,2023,6,7,14,44,7,720
40.85810,0.06160,-0.02817,0.00000,0.03013,0.97478,-0.18727,0.0,2023,6,7,14,44,7,730
40.85820,0.02660,-0.23817,0.00000,0.03038,0.97734,-0.18898,0.0,2023,6,7,14,44,7,740
40.85830,0.14910,0.12933,0.00000,0.03233,0.97637,-0.18861,0.0,2023,6,7,14,44,7,750
40.85840,0.02660,0.04183,0.00000,0.03087,0.97356,-0.19069,0.0,2023,6,7,14,44,7,760
40.85850,0.18410,0.19933,0.00000,0.03038,0.97466,-0.18849,0.0,2023,6,7,14,44,7,770
40.85860,-0.16590,0.09433,0.00000,0.03160,0.97795,-0.18861,0.0,2023,6,7,14,44,7,780
40.85870,-0.00840,-0.08067,0.00000,0.02977,0.97429,-0.19166,0.0,2023,6,7,14,44,7,790
40.85880,-0.00840,-0.06317,0.00000,0.02952,0.97637,-0.18971,0.0,2023,6,7,14,44,7,800
40.85890,0.02660,-0.08067,0.00000,0.03123,0.97734,-0.18971,0.0,2023,6,7,14,44,7,810
40.85900,-0.00840,0.12933,0.00000,0.02977,0.97637,-0.18861,0.0,2023,6,7,14,44,7,820
40.85910,-0.09590,0.12933,0.00000,0.03367,0.97771,-0.18947,0.0,2023,6,7,14,44,7,830
40.85920,0.04410,-0.22067,0.00000,0.03306,0.97624,-0.18922,0.0,2023,6,7,14,44,7,840
40.85930,0.04410,-0.23817,0.00000,0.03270,0.97710,-0.18922,0.0,2023,6,7,14,44,7,850
40.85940,-0.04340,0.16433,0.00000,0.03416,0.97795,-0.19032,0.0,2023,6,7,14,44,7,860
40.85950,-0.23590,-0.13317,0.00000,0.03123,0.97515,-0.19020,0.0,2023,6,7,14,44,7,870
40.85960,-0.04340,0.05933,0.00000,0.03062,0.97405,-0.18910,0.0,2023,6,7,14,44,7,880
40.85970,0.00910,0.16433,0.00000,0.03026,0.97698,-0.18764,0.0,2023,6,7,14,44,7,890
40.85980,-0.02590,0.07683,0.00000,0.03172,0.97539,-0.18983,0.0,2023,6,7,14,44,7,900
40.85990,-0.25340,0.04183,0.00000,0.03184,0.97929,-0.18983,0.0,2023,6,7,14,44,7,910
40.86000,-0.04340,0.09433,0.00000,0.03013,0.97734,-0.18995,0.0,2023,6,7,14,44,8,920
40.86010,0.14910,-0.08067,0.00000,0.03440,0.97502,-0.18947,0.0,2023,6,7,14,44,8,930
40.86020,-0.09590,0.02433,0.00000,0.03416,0.97746,-0.19117,0.0,2023,6,7,14,44,8,940
40.86030,-0.06090,-0.16817,0.00000,0.03184,0.97698,-0.18995,0.0,2023,6,7,14,44,8,950
40.86040,0.00910,-0.15067,0.00000,0.03221,0.97551,-0.18922,0.0,2023,6,7,14,44,8,960
40.86050,-0.06090,-0.06317,0.00000,0.03135,0.97698,-0.18971,0.0,2023,6,7,14,44,8,970
40.86060,0.13160,0.12933,0.00000,0.02928,0.97649,-0.18983,0.0,2023,6,7,14,44,8,980
40.86070,-0.11340,-0.08067,0.00000,0.03184,0.97441,-0.18910,0.0,2023,6,7,14,44,8,990
40.86080,0.14910,-0.09817,0.00000,0.03172,0.97576,-0.18739,0.0,2023,6,7,14,44,8,0
40.86090,0.16660,0.23433,0.00000,0.03343,0.97685,-0.18861,0.0,2023,6,7,14,44,8,10
40.86100,-0.14840,-0.04567,0.00000,0.03160,0.97722,-0.18983,0.0,2023,6,7,14,44,8,20
40.86110,-0.00840,-0.06317,0.00000,0.03270,0.97734,-0.18922,0.0,2023,6,7,14,44,8,30
40.86120,0.04410,-0.06317,0.00000,0.03013,0.97661,-0.18727,0.0,2023,6,7,14,44,8,40
40.86130,0.02660,-0.16817,0.00000,0.03306,0.97588,-0.18849,0.0,2023,6,7,14,44,8,50
40.86140,0.20160,-0.13317,0.00000,0.03135,0.97783,-0.18947,0.0,2023,6,7,14,44,8,60
40.86150,-0.11340,0.05933,0.00000,0.03074,0.97527,-0.18910,0.0,2023,6,7,14,44,8,70
40.86160,0.02660,0.02433,0.00000,0.03087,0.97710,-0.18837,0.0,2023,6,7,14,44,8,80
40.86170,0.21910,0.14683,0.00000,0.03111,0.97783,-0.18959,0.0,2023,6,7,14,44,8,90
40.86180,0.00910,0.16433,0.00000,0.03172,0.97624,-0.18739,0.0,2023,6,7,14,44,8,100
40.86190,-0.11340,0.14683,0.00000,0.03184,0.97832,-0.19069,0.0,2023,6,7,14,44,8,110
40.86200,-0.13090,-0.06317,0.00000,0.03343,0.97661,-0.19178,0.0,2023,6,7,14,44,8,120
40.86210,-0.23590,-0.16817,0.00000,0.03257,0.97454,-0.18849,0.0,2023,6,7,14,44,8,130
40.86220,0.02660,0.02433,0.00000,0.03245,0.97441,-0.18934,0.0,2023,6,7,14,44,8,140
40.86230,-0.07840,-0.06317,0.00000,0.03148,0.97637,-0.19105,0.0,2023,6,7,14,44,8,150
40.86240,0.00910,-0.01067,0.00000,0.03172,0.97698,-0.18873,0.0,2023,6,7,14,44,8,160
40.86250,0.30660,-0.29067,0.00000,0.03196,0.97746,-0.19117,0.0,2023,6,7,14,44,8,170
40.86260,-0.20090,0.12933,0.00000,0.02989,0.97576,-0.18886,0.0,2023,6,7,14,44,8,180
40.86270,-0.11340,0.04183,0.00000,0.03233,0.97820,-0.18971,0.0,2023,6,7,14,44,8,190
40.86280,0.20160,0.07683,0.00000,0.03099,0.97624,-0.18922,0.0,2023,6,7,14,44,8,200
40.86290,-0.16590,-0.11567,0.00000,0.03013,0.97344,-0.18617,0.0,2023,6,7,14,44,8,210
40.86300,0.04410,-0.09817,0.00000,0.03245,0.97783,-0.19069,0.0,2023,6,7,14,44,8,220
40.86310,0.14910,0.18183,0.00000,0.03501,0.97551,-0.18764,0.0,2023,6,7,14,44,8,230
40.86320,-0.21840,-0.04567,0.00000,0.03172,0.97734,-0.18983,0.0,2023,6,7,14,44,8,240
40.86330,0.27160,0.16433,0.00000,0.03196,0.97429,-0.18971,0.0,2023,6,7,14,44,8,250
40.86340,-0.35840,0.28683,0.00000,0.03062,0.97563,-0.18642,0.0,2023,6,7,14,44,8,260
40.86350,-0.11340,-0.01067,0.00000,0.03001,0.97734,-0.19020,0.0,2023,6,7,14,44,8,270
40.86360,0.28910,0.07683,0.00000,0.03331,0.97600,-0.18934,0.0,2023,6,7,14,44,8,280
40.86370,-0.30590,-0.13317,0.00000,0.03221,0.98003,-0.18727,0.0,2023,6,7,14,44,8,290
40.86380,0.23660,-0.16817,0.00000,0.03111,0.97759,-0.19166,0.0,2023,6,7,14,44,8,300
40.86390,0.42910,0.07683,0.00000,0.03245,0.97466,-0.19020,0.0,2023,6,7,14,44,8,310
40.86400,-0.07840,0.00683,0.00000,0.02965,0.97685,-0.18910,0.0,2023,6,7,14,44,8,320
40.86410,-0.04340,0.23433,0.00000,0.03135,0.97820,-0.19239,0.0,2023,6,7,14,44,8,330
40.86420,-0.09590,0.18183,0.00000,0.03172,0.97429,-0.18849,0.0,2023,6,7,14,44,8,340
40.86430,-0.11340,-0.02817,0.00000,0.03135,0.97722,-0.19069,0.0,2023,6,7,14,44,8,350
40.86440,0.20160,-0.20317,0.00000,0.03196,0.97637,-0.18983,0.0,2023,6,7,14,44,8,360
40.86450,-0.18340,0.09433,0.00000,0.03135,0.97515,-0.18788,0.0,2023,6,7,14,44,8,370
40.86460,0.00910,0.09433,0.00000,0.03501,0.97832,-0.19191,0.0,2023,6,7,14,44,8,380
40.86470,0.04410,-0.09817,0.00000,0.03001,0.97637,-0.19020,0.0,2023,6,7,14,44,8,390
40.86480,-0.20090,-0.01067,0.00000,0.03233,0.97990,-0.18959,0.0,2023,6,7,14,44,8,400
40.86490,-0.20090,-0.09817,0.00000,0.03172,0.97868,-0.18910,0.0,2023,6,7,14,44,8,410
40.86500,0.00910,0.00683,0.00000,0.03318,0.97515,-0.18654,0.0,2023,6,7,14,44,8,420
40.86510,-0.00840,0.05933,0.00000,0.03087,0.97698,-0.18739,0.0,2023,6,7,14,44,8,430
40.86520,-0.21840,0.19933,0.00000,0.03318,0.97673,-0.19008,0.0,2023,6,7,14,44,8,440
40.86530,0.11410,-0.08067,0.00000,0.03172,0.97551,-0.19056,0.0,2023,6,7,14,44,8,450
40.86540,-0.06090,-0.09817,0.00000,0.03343,0.97698,-0.18995,0.0,2023,6,7,14,44,8,460
40.86550,-0.02590,0.00683,0.00000,0.03026,0.97783,-0.19105,0.0,2023,6,7,14,44,8,470
40.86560,-0.04340,-0.04567,0.00000,0.03050,0.97637,-0.19044,0.0,2023,6,7,14,44,8,480
40.86570,-0.02590,0.04183,0.00000,0.03111,0.97405,-0.18861,0.0,2023,6,7,14,44,8,490
40.86580,-0.16590,0.23433,0.00000,0.02989,0.97429,-0.19130,0.0,2023,6,7,14,44,8,500
40.86590,0.06160,-0.20317,0.00000,0.03245,0.97881,-0.18922,0.0,2023,6,7,14,44,8,510
40.86600,-0.06090,-0.06317,0.00000,0.03111,0.97405,-0.18995,0.0,2023,6,7,14,44,8,520
40.86610,-0.11340,-0.02817,0.00000,0.03245,0.97588,-0.18825,0.0,2023,6,7,14,44,8,530
40.86620,-0.00840,0.09433,0.00000,0.03123,0.97685,-0.19130,0.0,2023,6,7,14,44,8,540
40.86630,0.00910,0.21683,0.00000,0.03209,0.97600,-0.18837,0.0,2023,6,7,14,44,8,550
40.86640,0.02660,0.16433,0.00000,0.03282,0.97710,-0.18971,0.0,2023,6,7,14,44,8,560
40.86650,0.04410,-0.01067,0.00000,0.03282,0.97673,-0.18983,0.0,2023,6,7,14,44,8,570
40.86660,-0.27090,0.11183,0.00000,0.03099,0.97637,-0.18922,0.0,2023,6,7,14,44,8,580
40.86670,-0.02590,-0.20317,0.00000,0.03343,0.97649,-0.18825,0.0,2023,6,7,14,44,8,590
40.86680,0.13160,0.05933,0.00000,0.03196,0.97405,-0.18934,0.0,2023,6,7,14,44,8,600
40.86690,-0.06090,-0.01067,0.00000,0.03148,0.97783,-0.18971,0.0,2023,6,7,14,44,8,610
40.86700,-0.06090,0.11183,0.00000,0.03074,0.97698,-0.18959,0.0,2023,6,7,14,44,8,620
40.86710,0.04410,-0.13317,0.00000,0.03184,0.97868,-0.18971,0.0,2023,6,7,14,44,8,630
40.86720,0.07910,0.00683,0.00000,0.03038,0.97722,-0.19008,0.0,2023,6,7,14,44,8,640
40.86730,0.00910,-0.08067,0.00000,0.03135,0.97624,-0.18971,0.0,2023,6,7,14,44,8,650
40.86740,-0.04340,-0.08067,0.00000,0.03135,0.97698,-0.19008,0.0,2023,6,7,14,44,8,660
40.86750,0.09660,0.14683,0.00000,0.03135,0.97332,-0.19105,0.0,2023,6,7,14,44,8,670
40.86760,0.04410,-0.09817,0.00000,0.03026,0.97783,-0.19056,0.0,2023,6,7,14,44,8,680
40.86770,-0.09590,0.12933,0.00000,0.03148,0.97759,-0.18788,0.0,2023,6,7,14,44,8,690
40.86780,0.00910,-0.01067,0.00000,0.02989,0.97576,-0.18983,0.0,2023,6,7,14,44,8,700
40.86790,0.11410,0.05933,0.00000,0.02916,0.97576,-0.18849,0.0,2023,6,7,14,44,8,710
40.86800,-0.04340,0.02433,0.00000,0.03209,0.97698,-0.18922,0.0,2023,6,7,14,44,8,720
40.86810,0.00910,0.04183,0.00000,0.03026,0.97673,-0.18886,0.0,2023,6,7,14,44,8,730
40.86820,-0.02590,0.11183,0.00000,0.03087,0.97734,-0.18971,0.0,2023,6,7,14,44,8,740
40.86830,-0.14840,0.04183,0.00000,0.03013,0.97673,-0.18886,0.0,2023,6,7,14,44,8,750
40.86840,0.00910,0.11183,0.00000,0.03001,0.97612,-0.19166,0.0,2023,6,7,14,44,8,760
40.86850,0.06160,0.05933,0.00000,0.03257,0.97795,-0.19069,0.0,2023,6,7,14,44,8,770
40.86860,0.25410,-0.02817,0.00000,0.03196,0.97563,-0.18983,0.0,2023,6,7,14,44,8,780
40.86870,0.06160,0.28683,0.00000,0.03050,0.97881,-0.18910,0.0,2023,6,7,14,44,8,790
40.86880,0.00910,-0.06317,0.00000,0.03050,0.97771,-0.18751,0.0,2023,6,7,14,44,8,800
40.86890,-0.07840,-0.02817,0.00000,0.03087,0.97795,-0.18947,0.0,2023,6,7,14,44,8,810
40.86900,0.16660,-0.11567,0.00000,0.03367,0.97502,-0.18776,0.0,2023,6,7,14,44,9,820
40.86910,0.00910,0.30433,0.00000,0.03184,0.97441,-0.18776,0.0,2023,6,7,14,44,9,830
40.86920,-0.06090,0.02433,0.00000,0.03013,0.97771,-0.19166,0.0,2023,6,7,14,44,9,840
40.86930,-0.06090,0.02433,0.00000,0.03135,0.97746,-0.18886,0.0,2023,6,7,14,44,9,850
40.86940,0.02660,0.07683,0.00000,0.03001,0.97490,-0.18959,0.0,2023,6,7,14,44,9,860
40.86950,0.14910,-0.04567,0.00000,0.03160,0.97551,-0.18690,0.0,2023,6,7,14,44,9,870
40.86960,0.04410,-0.08067,0.00000,0.03050,0.97515,-0.18861,0.0,2023,6,7,14,44,9,880
40.86970,0.04410,-0.08067,0.00000,0.03026,0.97563,-0.19020,0.0,2023,6,7,14,44,9,890
40.86980,0.18410,-0.18567,0.00000,0.03135,0.97454,-0.19142,0.0,2023,6,7,14,44,9,900
40.86990,-0.18340,0.09433,0.00000,0.03196,0.97746,-0.18800,0.0,2023,6,7,14,44,9,910
40.87000,-0.07840,0.05933,0.00000,0.03135,0.97441,-0.19008,0.0,2023,6,7,14,44,9,920
40.87010,0.18410,-0.16817,0.00000,0.03233,0.97710,-0.19105,0.0,2023,6,7,14,44,9,930
40.87020,-0.07840,-0.15067,0.00000,0.03062,0.97405,-0.18825,0.0,2023,6,7,14,44,9,940
40.87030,0.09660,0.04183,0.00000,0.03074,0.97905,-0.19069,0.0,2023,6,7,14,44,9,950
40.87040,0.07910,-0.16817,0.00000,0.03038,0.97441,-0.19117,0.0,2023,6,7,14,44,9,960
40.87050,-0.04340,0.14683,0.00000,0.02952,0.97649,-0.18715,0.0,2023,6,7,14,44,9,970
40.87060,0.00910,-0.11567,0.00000,0.03013,0.97466,-0.18849,0.0,2023,6,7,14,44,9,980
40.87070,0.14910,-0.04567,0.00000,0.03233,0.97502,-0.19105,0.0,2023,6,7,14,44,9,990
40.87080,-0.04340,0.30433,0.00000,0.03355,0.97637,-0.18800,0.0,2023,6,7,14,44,9,0
40.87090,0.00910,-0.01067,0.00000,0.02989,0.97539,-0.19215,0.0,2023,6,7,14,44,9,10
40.87100,0.35910,-0.30817,0.00000,0.03233,0.97685,-0.18898,0.0,2023,6,7,14,44,9,20
40.87110,0.00910,-0.06317,0.00000,0.03221,0.97490,-0.19032,0.0,2023,6,7,14,44,9,30
40.87120,0.00910,-0.09817,0.00000,0.02965,0.97624,-0.18837,0.0,2023,6,7,14,44,9,40
40.87130,0.18410,0.02433,0.00000,0.02989,0.97454,-0.18788,0.0,2023,6,7,14,44,9,50
40.87140,0.13160,-0.18567,0.00000,0.03196,0.97429,-0.18886,0.0,2023,6,7,14,44,9,60
40.87150,0.13160,-0.13317,0.00000,0.03270,0.97551,-0.19117,0.0,2023,6,7,14,44,9,70
40.87160,-0.11340,0.05933,0.00000,0.03111,0.97466,-0.18751,0.0,2023,6,7,14,44,9,80
40.87170,0.02660,-0.09817,0.00000,0.03367,0.97405,-0.18849,0.0,2023,6,7,14,44,9,90
40.87180,-0.04340,0.12933,0.00000,0.03209,0.97600,-0.19117,0.0,2023,6,7,14,44,9,100
40.87190,-0.11340,-0.15067,0.00000,0.03367,0.97624,-0.18873,0.0,2023,6,7,14,44,9,110
40.87200,0.00910,0.14683,0.00000,0.03172,0.97527,-0.18959,0.0,2023,6,7,14,44,9,120
40.87210,0.06160,-0.01067,0.00000,0.03245,0.97576,-0.18873,0.0,2023,6,7,14,44,9,130
40.87220,0.02660,0.14683,0.00000,0.03111,0.97673,-0.18886,0.0,2023,6,7,14,44,9,140
40.87230,-0.09590,-0.22067,0.00000,0.03294,0.97649,-0.18995,0.0,2023,6,7,14,44,9,150
40.87240,0.02660,0.16433,0.00000,0.03245,0.97807,-0.18849,0.0,2023,6,7,14,44,9,160
40.87250,0.06160,-0.22067,0.00000,0.03318,0.97698,-0.18947,0.0,2023,6,7,14,44,9,170
40.87260,0.14910,0.07683,0.00000,0.02940,0.97673,-0.19044,0.0,2023,6,7,14,44,9,180
40.87270,-0.11340,0.09433,0.00000,0.02806,0.97917,-0.18910,0.0,2023,6,7,14,44,9,190
40.87280,0.04410,0.12933,0.00000,0.02794,0.97722,-0.18764,0.0,2023,6,7,14,44,9,200
40.87290,-0.09590,0.11183,0.00000,0.03123,0.97612,-0.18800,0.0,2023,6,7,14,44,9,210
40.87300,0.18410,-0.15067,0.00000,0.03221,0.97795,-0.18764,0.0,2023,6,7,14,44,9,220
40.87310,-0.09590,-0.06317,0.00000,0.03318,0.97515,-0.18642,0.0,2023,6,7,14,44,9,230
40.87320,0.07910,0.12933,0.00000,0.03062,0.97649,-0.19154,0.0,2023,6,7,14,44,9,240
40.87330,-0.02590,-0.20317,0.00000,0.03160,0.97490,-0.19032,0.0,2023,6,7,14,44,9,250
40.87340,-0.11340,0.00683,0.00000,0.03221,0.97515,-0.18849,0.0,2023,6,7,14,44,9,260
40.87350,0.06160,0.14683,0.00000,0.03135,0.97832,-0.18959,0.0,2023,6,7,14,44,9,270
40.87360,0.21910,-0.22067,0.00000,0.02940,0.97515,-0.18995,0.0,2023,6,7,14,44,9,280
40.87370,0.00910,-0.08067,0.00000,0.03184,0.97649,-0.18861,0.0,2023,6,7,14,44,9,290
40.87380,-0.06090,-0.01067,0.00000,0.03123,0.97673,-0.19313,0.0,2023,6,7,14,44,9,300
40.87390,0.11410,0.02433,0.00000,0.03062,0.97649,-0.18934,0.0,2023,6,7,14,44,9,310
40.87400,0.09660,-0.04567,0.00000,0.03221,0.97624,-0.18678,0.0,2023,6,7,14,44,9,320
40.87410,0.14910,-0.09817,0.00000,0.03026,0.97661,-0.18910,0.0,2023,6,7,14,44,9,330
40.87420,0.21910,-0.30817,0.00000,0.03026,0.97380,-0.18849,0.0,2023,6,7,14,44,9,340
40.87430,-0.07840,0.07683,0.00000,0.03001,0.97759,-0.19105,0.0,2023,6,7,14,44,9,350
40.87440,0.11410,-0.09817,0.00000,0.03135,0.97515,-0.18898,0.0,2023,6,7,14,44,9,360
40.87450,-0.06090,0.19933,0.00000,0.03172,0.97795,-0.18971,0.0,2023,6,7,14,44,9,370
40.87460,-0.07840,-0.11567,0.00000,0.03294,0.97490,-0.18922,0.0,2023,6,7,14,44,9,380
40.87470,0.00910,0.02433,0.00000,0.03038,0.97551,-0.18959,0.0,2023,6,7,14,44,9,390
40.87480,-0.00840,-0.09817,0.00000,0.03013,0.97624,-0.18739,0.0,2023,6,7,14,44,9,400
40.87490,-0.04340,-0.01067,0.00000,0.03135,0.97551,-0.18922,0.0,2023,6,7,14,44,9,410
40.87500,-0.18340,0.02433,0.00000,0.03196,0.97356,-0.18849,0.0,2023,6,7,14,44,9,420
40.87510,-0.04340,-0.06317,0.00000,0.03001,0.97905,-0.18788,0.0,2023,6,7,14,44,9,430
40.87520,-0.04340,0.09433,0.00000,0.03062,0.97673,-0.18959,0.0,2023,6,7,14,44,9,440
40.87530,0.20160,-0.01067,0.00000,0.03209,0.97490,-0.18715,0.0,2023,6,7,14,44,9,450
40.87540,-0.09590,-0.15067,0.00000,0.03013,0.97661,-0.18886,0.0,2023,6,7,14,44,9,460
40.87550,-0.04340,0.07683,0.00000,0.03160,0.97502,-0.18934,0.0,2023,6,7,14,44,9,470
40.87560,0.20160,-0.09817,0.00000,0.03257,0.97612,-0.18947,0.0,2023,6,7,14,44,9,480
40.87570,0.02660,-0.11567,0.00000,0.03135,0.97637,-0.18727,0.0,2023,6,7,14,44,9,490
40.87580,-0.07840,0.07683,0.00000,0.03135,0.97673,-0.18983,0.0,2023,6,7,14,44,9,500
40.87590,0.28910,-0.01067,0.00000,0.03148,0.97576,-0.18776,0.0,2023,6,7,14,44,9,510
40.87600,0.07910,0.02433,0.00000,0.03245,0.97661,-0.19032,0.0,2023,6,7,14,44,9,520
40.87610,-0.09590,0.23433,0.00000,0.03062,0.97698,-0.18959,0.0,2023,6,7,14,44,9,530
40.87620,-0.04340,0.05933,0.00000,0.03209,0.97539,-0.18727,0.0,2023,6,7,14,44,9,540
40.87630,-0.07840,-0.08067,0.00000,0.03209,0.97551,-0.18959,0.0,2023,6,7,14,44,9,550
40.87640,-0.11340,0.09433,0.00000,0.03294,0.97759,-0.18934,0.0,2023,6,7,14,44,9,560
40.87650,0.18410,-0.13317,0.00000,0.03148,0.97722,-0.18751,0.0,2023,6,7,14,44,9,570
40.87660,0.02660,-0.02817,0.00000,0.03050,0.97527,-0.18605,0.0,2023,6,7,14,44,9,580
40.87670,-0.04340,-0.04567,0.00000,0.03074,0.97551,-0.18849,0.0,2023,6,7,14,44,9,590
40.87680,0.11410,0.11183,0.00000,0.03038,0.97673,-0.18666,0.0,2023,6,7,14,44,9,600
40.87690,0.02660,-0.09817,0.00000,0.03196,0.97356,-0.18886,0.0,2023,6,7,14,44,9,610
40.87700,-0.04340,-0.18567,0.00000,0.03318,0.97490,-0.18666,0.0,2023,6,7,14,44,9,620
40.87710,-0.00840,0.04183,0.00000,0.03245,0.97490,-0.18898,0.0,2023,6,7,14,44,9,630
40.87720,0.04410,-0.01067,0.00000,0.03135,0.97807,-0.18825,0.0,2023,6,7,14,44,9,640
40.87730,0.07910,0.00683,0.00000,0.03184,0.97685,-0.18898,0.0,2023,6,7,14,44,9,650
40.87740,-0.34090,-0.15067,0.00000,0.03074,0.97551,-0.18751,0.0,2023,6,7,14,44,9,660
40.87750,0.06160,-0.11567,0.00000,0.03282,0.97612,-0.19020,0.0,2023,6,7,14,44,9,670
40.87760,-0.09590,0.05933,0.00000,0.03221,0.97698,-0.18971,0.0,2023,6,7,14,44,9,680
40.87770,-0.23590,0.21683,0.00000,0.03074,0.97661,-0.18715,0.0,2023,6,7,14,44,9,690
40.87780,0.11410,0.02433,0.00000,0.02916,0.97954,-0.19020,0.0,2023,6,7,14,44,9,700
40.87790,-0.04340,-0.01067,0.00000,0.03123,0.97539,-0.18666,0.0,2023,6,7,14,44,10,710
40.87800,-0.04340,0.02433,0.00000,0.02977,0.97807,-0.18776,0.0,2023,6,7,14,44,10,720
40.87810,0.07910,0.09433,0.00000,0.03123,0.97539,-0.19093,0.0,2023,6,7,14,44,10,730
40.87820,0.09660,0.05933,0.00000,0.03074,0.97637,-0.18825,0.0,2023,6,7,14,44,10,740
40.87830,0.11410,-0.13317,0.00000,0.03135,0.97600,-0.18886,0.0,2023,6,7,14,44,10,750
40.87840,-0.04340,-0.11567,0.00000,0.03111,0.97746,-0.19008,0.0,2023,6,7,14,44,10,760
40.87850,0.06160,-0.15067,0.00000,0.03355,0.97746,-0.19069,0.0,2023,6,7,14,44,10,770
40.87860,0.18410,-0.16817,0.00000,0.03074,0.97417,-0.18947,0.0,2023,6,7,14,44,10,780
40.87870,0.02660,0.05933,0.00000,0.03074,0.97502,-0.18922,0.0,2023,6,7,14,44,10,790
40.87880,0.02660,0.12933,0.00000,0.03013,0.97746,-0.18971,0.0,2023,6,7,14,44,10,800
40.87890,0.11410,-0.04567,0.00000,0.03160,0.97637,-0.19081,0.0,2023,6,7,14,44,10,810
40.87900,0.16660,0.21683,0.00000,0.03245,0.97576,-0.18983,0.0,2023,6,7,14,44,10,820
40.87910,-0.06090,0.19933,0.00000,0.03270,0.97417,-0.19056,0.0,2023,6,7,14,44,10,830
40.87920,-0.09590,-0.09817,0.00000,0.03062,0.97661,-0.18910,0.0,2023,6,7,14,44,10,840
40.87930,0.13160,0.02433,0.00000,0.03160,0.97795,-0.18959,0.0,2023,6,7,14,44,10,850
40.87940,-0.02590,-0.01067,0.00000,0.02965,0.97649,-0.18873,0.0,2023,6,7,14,44,10,860
40.87950,0.07910,0.18183,0.00000,0.03172,0.97759,-0.19166,0.0,2023,6,7,14,44,10,870
40.87960,0.09660,-0.18567,0.00000,0.03099,0.97576,-0.18861,0.0,2023,6,7,14,44,10,880
40.87970,0.02660,0.19933,0.00000,0.03257,0.97393,-0.18886,0.0,2023,6,7,14,44,10,890
40.87980,-0.07840,-0.02817,0.00000,0.03135,0.97881,-0.18886,0.0,2023,6,7,14,44,10,900
40.87990,-0.11340,0.04183,0.00000,0.03306,0.97466,-0.19105,0.0,2023,6,7,14,44,10,910
40.88000,0.06160,-0.36067,0.00000,0.03465,0.97588,-0.18971,0.0,2023,6,7,14,44,10,920
40.88010,0.07910,0.14683,0.00000,0.03416,0.97722,-0.18837,0.0,2023,6,7,14,44,10,930
40.88020,0.02660,0.00683,0.00000,0.03233,0.97466,-0.18886,0.0,2023,6,7,14,44,10,940
40.88030,0.00910,-0.09817,0.00000,0.03111,0.97563,-0.18873,0.0,2023,6,7,14,44,10,950
40.88040,0.14910,-0.06317,0.00000,0.03282,0.97698,-0.18898,0.0,2023,6,7,14,44,10,960
40.88050,0.11410,-0.08067,0.00000,0.03148,0.97502,-0.18934,0.0,2023,6,7,14,44,10,970
40.88060,0.18410,-0.02817,0.00000,0.03038,0.97600,-0.18934,0.0,2023,6,7,14,44,10,980
40.88070,0.11410,0.11183,0.00000,0.03148,0.97734,-0.18800,0.0,2023,6,7,14,44,10,990
40.88080,-0.11340,-0.13317,0.00000,0.03026,0.97454,-0.18886,0.0,2023,6,7,14,44,10,0
40.88090,0.16660,-0.18567,0.00000,0.03184,0.97722,-0.18764,0.0,2023,6,7,14,44,10,10
40.88100,-0.09590,0.11183,0.00000,0.03221,0.97710,-0.18922,0.0,2023,6,7,14,44,10,20
40.88110,-0.06090,-0.08067,0.00000,0.03184,0.97759,-0.18959,0.0,2023,6,7,14,44,10,30
40.88120,-0.06090,0.16433,0.00000,0.03001,0.97527,-0.18873,0.0,2023,6,7,14,44,10,40
40.88130,0.13160,0.07683,0.00000,0.03001,0.97746,-0.18715,0.0,2023,6,7,14,44,10,50
40.88140,0.09660,-0.08067,0.00000,0.03209,0.97795,-0.18971,0.0,2023,6,7,14,44,10,60
40.88150,-0.13090,-0.22067,0.00000,0.03062,0.97734,-0.18898,0.0,2023,6,7,14,44,10,70
40.88160,0.16660,0.00683,0.00000,0.03087,0.97600,-0.18922,0.0,2023,6,7,14,44,10,80
40.88170,0.00910,-0.15067,0.00000,0.03306,0.97588,-0.18934,0.0,2023,6,7,14,44,10,90
40.88180,-0.00840,-0.04567,0.00000,0.03184,0.97551,-0.18983,0.0,2023,6,7,14,44,10,100
40.88190,0.00910,0.00683,0.00000,0.03148,0.97600,-0.18910,0.0,2023,6,7,14,44,10,110
40.88200,0.06160,-0.18567,0.00000,0.03282,0.97600,-0.18959,0.0,2023,6,7,14,44,10,120
40.88210,0.04410,-0.01067,0.00000,0.03087,0.97624,-0.19142,0.0,2023,6,7,14,44,10,130
40.88220,0.14910,-0.13317,0.00000,0.03135,0.97490,-0.19020,0.0,2023,6,7,14,44,10,140
40.88230,0.00910,0.04183,0.00000,0.02977,0.97661,-0.18739,0.0,2023,6,7,14,44,10,150
40.88240,-0.00840,0.14683,0.00000,0.03343,0.97759,-0.19032,0.0,2023,6,7,14,44,10,160
40.88250,0.23660,-0.01067,0.00000,0.03123,0.97783,-0.18861,0.0,2023,6,7,14,44,10,170
40.88260,-0.02590,-0.04567,0.00000,0.03343,0.97515,-0.18947,0.0,2023,6,7,14,44,10,180
40.88270,0.13160,-0.16817,0.00000,0.03306,0.97478,-0.18776,0.0,2023,6,7,14,44,10,190
40.88280,0.09660,-0.02817,0.00000,0.03233,0.97600,-0.18764,0.0,2023,6,7,14,44,10,200
40.88290,-0.07840,0.00683,0.00000,0.03074,0.97588,-0.18886,0.0,2023,6,7,14,44,10,210
40.88300,-0.09590,0.09433,0.00000,0.03026,0.97759,-0.19032,0.0,2023,6,7,14,44,10,220
40.88310,0.00910,-0.08067,0.00000,0.03196,0.97576,-0.18886,0.0,2023,6,7,14,44,10,230
40.88320,0.06160,0.04183,0.00000,0.03050,0.97576,-0.18922,0.0,2023,6,7,14,44,10,240
40.88330,0.07910,0.21683,0.00000,0.03257,0.97612,-0.18825,0.0,2023,6,7,14,44,10,250
40.88340,0.18410,-0.02817,0.00000,0.02904,0.97746,-0.18800,0.0,2023,6,7,14,44,10,260
40.88350,-0.11340,0.07683,0.00000,0.03111,0.97624,-0.19020,0.0,2023,6,7,14,44,10,270
40.88360,-0.02590,-0.11567,0.00000,0.03294,0.97990,-0.18910,0.0,2023,6,7,14,44,10,280
40.88370,0.02660,-0.01067,0.00000,0.03160,0.97807,-0.18812,0.0,2023,6,7,14,44,10,290
40.88380,-0.00840,0.19933,0.00000,0.03135,0.97673,-0.18812,0.0,2023,6,7,14,44,10,300
40.88390,-0.11340,-0.08067,0.00000,0.03318,0.97332,-0.18764,0.0,2023,6,7,14,44,10,310
40.88400,0.11410,-0.04567,0.00000,0.03184,0.97783,-0.19020,0.0,2023,6,7,14,44,10,320
40.88410,-0.00840,0.09433,0.00000,0.03013,0.97600,-0.18983,0.0,2023,6,7,14,44,10,330
40.88420,0.02660,-0.09817,0.00000,0.03148,0.97429,-0.18947,0.0,2023,6,7,14,44,10,340
40.88430,0.06160,-0.02817,0.00000,0.03074,0.97515,-0.18995,0.0,2023,6,7,14,44,10,350
40.88440,-0.14840,0.19933,0.00000,0.03233,0.97612,-0.18886,0.0,2023,6,7,14,44,10,360
40.88450,0.00910,-0.06317,0.00000,0.03306,0.97649,-0.19032,0.0,2023,6,7,14,44,10,370
40.88460,-0.13090,0.00683,0.00000,0.03245,0.97563,-0.18825,0.0,2023,6,7,14,44,10,380
40.88470,-0.04340,-0.11567,0.00000,0.03050,0.97746,-0.18959,0.0,2023,6,7,14,44,10,390
40.88480,0.16660,-0.18567,0.00000,0.03306,0.97673,-0.19105,0.0,2023,6,7,14,44,10,400
40.88490,0.02660,-0.15067,0.00000,0.03148,0.97722,-0.18947,0.0,2023,6,7,14,44,10,410
40.88500,0.06160,-0.04567,0.00000,0.03148,0.97515,-0.18849,0.0,2023,6,7,14,44,10,420
40.88510,-0.06090,0.18183,0.00000,0.03318,0.97429,-0.18910,0.0,2023,6,7,14,44,10,430
40.88520,0.09660,0.09433,0.00000,0.03135,0.97698,-0.18873,0.0,2023,6,7,14,44,10,440
40.88530,-0.02590,0.14683,0.00000,0.03209,0.97624,-0.18959,0.0,2023,6,7,14,44,10,450
40.88540,0.02660,0.26933,0.00000,0.03428,0.97649,-0.18995,0.0,2023,6,7,14,44,10,460
40.88550,-0.04340,0.11183,0.00000,0.03148,0.97490,-0.18812,0.0,2023,6,7,14,44,10,470
40.88560,-0.07840,0.04183,0.00000,0.03257,0.97783,-0.18934,0.0,2023,6,7,14,44,10,480
40.88570,-0.06090,0.12933,0.00000,0.03148,0.97783,-0.18959,0.0,2023,6,7,14,44,10,490
40.88580,0.04410,0.23433,0.00000,0.03209,0.97502,-0.18995,0.0,2023,6,7,14,44,10,500
40.88590,0.04410,-0.06317,0.00000,0.03062,0.97795,-0.18947,0.0,2023,6,7,14,44,10,510
40.88600,-0.07840,-0.11567,0.00000,0.03428,0.97795,-0.18959,0.0,2023,6,7,14,44,10,520
40.88610,0.00910,-0.18567,0.00000,0.03245,0.97332,-0.19020,0.0,2023,6,7,14,44,10,530
40.88620,0.00910,-0.08067,0.00000,0.03172,0.97673,-0.18825,0.0,2023,6,7,14,44,10,540
40.88630,0.09660,0.09433,0.00000,0.03184,0.97783,-0.19032,0.0,2023,6,7,14,44,10,550
40.88640,-0.11340,-0.16817,0.00000,0.03123,0.97563,-0.18898,0.0,2023,6,7,14,44,10,560
40.88650,-0.06090,-0.08067,0.00000,0.03160,0.97710,-0.18983,0.0,2023,6,7,14,44,10,570
40.88660,-0.02590,0.09433,0.00000,0.03209,0.97502,-0.19020,0.0,2023,6,7,14,44,10,580
40.88670,-0.00840,0.07683,0.00000,0.03257,0.97649,-0.19032,0.0,2023,6,7,14,44,10,590
40.88680,-0.06090,-0.04567,0.00000,0.03001,0.97600,-0.19044,0.0,2023,6,7,14,44,10,600
40.88690,-0.07840,0.11183,0.00000,0.02855,0.97649,-0.19142,0.0,2023,6,7,14,44,11,610
40.88700,-0.00840,0.00683,0.00000,0.03282,0.97795,-0.18971,0.0,2023,6,7,14,44,11,620
40.88710,0.02660,-0.25567,0.00000,0.03050,0.97771,-0.18910,0.0,2023,6,7,14,44,11,630
40.88720,-0.00840,-0.13317,0.00000,0.03148,0.97600,-0.18922,0.0,2023,6,7,14,44,11,640
40.88730,-0.00840,0.04183,0.00000,0.02916,0.97588,-0.18886,0.0,2023,6,7,14,44,11,650
40.88740,0.13160,-0.39567,0.00000,0.03343,0.97478,-0.18947,0.0,2023,6,7,14,44,11,660
40.88750,0.18410,0.00683,0.00000,0.03050,0.97563,-0.19227,0.0,2023,6,7,14,44,11,670
40.88760,0.25410,0.02433,0.00000,0.03050,0.97576,-0.19117,0.0,2023,6,7,14,44,11,680
40.88770,0.09660,-0.11567,0.00000,0.03074,0.97722,-0.18825,0.0,2023,6,7,14,44,11,690
40.88780,0.23660,-0.13317,0.00000,0.03160,0.97759,-0.19093,0.0,2023,6,7,14,44,11,700
40.88790,0.00910,0.00683,0.00000,0.03196,0.97673,-0.18910,0.0,2023,6,7,14,44,11,710
40.88800,-0.13090,0.12933,0.00000,0.03282,0.97563,-0.19044,0.0,2023,6,7,14,44,11,720
40.88810,-0.04340,-0.04567,0.00000,0.03416,0.97771,-0.19105,0.0,2023,6,7,14,44,11,730
40.88820,0.07910,-0.08067,0.00000,0.03184,0.97527,-0.18947,0.0,2023,6,7,14,44,11,740
40.88830,0.00910,-0.15067,0.00000,0.03087,0.97600,-0.19069,0.0,2023,6,7,14,44,11,750
40.88840,-0.00840,0.02433,0.00000,0.03099,0.97576,-0.19020,0.0,2023,6,7,14,44,11,760
40.88850,-0.02590,0.18183,0.00000,0.03209,0.97746,-0.18776,0.0,2023,6,7,14,44,11,770
40.88860,0.14910,-0.08067,0.00000,0.03196,0.97771,-0.18959,0.0,2023,6,7,14,44,11,780
40.88870,0.14910,-0.27317,0.00000,0.02977,0.97673,-0.18825,0.0,2023,6,7,14,44,11,790
40.88880,0.00910,0.05933,0.00000,0.03416,0.97576,-0.18873,0.0,2023,6,7,14,44,11,800
40.88890,-0.13090,0.12933,0.00000,0.03123,0.97527,-0.18605,0.0,2023,6,7,14,44,11,810
40.88900,0.04410,0.00683,0.00000,0.03233,0.97722,-0.19093,0.0,2023,6,7,14,44,11,820
40.88910,-0.09590,-0.22067,0.00000,0.02940,0.97661,-0.18837,0.0,2023,6,7,14,44,11,830
40.88920,0.02660,0.07683,0.00000,0.03111,0.97624,-0.18886,0.0,2023,6,7,14,44,11,840
40.88930,0.11410,-0.06317,0.00000,0.03123,0.97637,-0.18947,0.0,2023,6,7,14,44,11,850
40.88940,0.06160,-0.04567,0.00000,0.03282,0.97490,-0.18983,0.0,2023,6,7,14,44,11,860
40.88950,0.14910,-0.02817,0.00000,0.03148,0.97563,-0.18776,0.0,2023,6,7,14,44,11,870
40.88960,-0.07840,-0.11567,0.00000,0.03184,0.97783,-0.18593,0.0,2023,6,7,14,44,11,880
40.88970,-0.06090,-0.08067,0.00000,0.03135,0.97795,-0.19081,0.0,2023,6,7,14,44,11,890
40.88980,0.13160,-0.08067,0.00000,0.03172,0.97576,-0.19154,0.0,2023,6,7,14,44,11,900
40.88990,-0.09590,0.02433,0.00000,0.03221,0.97539,-0.19032,0.0,2023,6,7,14,44,11,910
40.89000,0.14910,-0.02817,0.00000,0.03111,0.97612,-0.18922,0.0,2023,6,7,14,44,11,920
40.89010,0.04410,-0.08067,0.00000,0.03013,0.97710,-0.18800,0.0,2023,6,7,14,44,11,930
40.89020,-0.02590,-0.01067,0.00000,0.03111,0.97527,-0.18825,0.0,2023,6,7,14,44,11,940
40.89030,-0.09590,0.09433,0.00000,0.03221,0.97661,-0.19044,0.0,2023,6,7,14,44,11,950
40.89040,-0.02590,0.04183,0.00000,0.03221,0.97807,-0.18983,0.0,2023,6,7,14,44,11,960
40.89050,-0.13090,0.19933,0.00000,0.03099,0.97661,-0.18812,0.0,2023,6,7,14,44,11,970
40.89060,-0.02590,0.16433,0.00000,0.03062,0.97429,-0.18922,0.0,2023,6,7,14,44,11,980
40.89070,0.00910,0.02433,0.00000,0.03074,0.97612,-0.18910,0.0,2023,6,7,14,44,11,990
40.89080,0.00910,0.07683,0.00000,0.02989,0.97490,-0.18959,0.0,2023,6,7,14,44,11,0
40.89090,0.04410,0.16433,0.00000,0.03318,0.97576,-0.18873,0.0,2023,6,7,14,44,11,10
40.89100,-0.07840,-0.02817,0.00000,0.03184,0.97478,-0.18886,0.0,2023,6,7,14,44,11,20
40.89110,0.06160,-0.22067,0.00000,0.03233,0.97612,-0.18898,0.0,2023,6,7,14,44,11,30
40.89120,-0.23590,0.19933,0.00000,0.03013,0.97637,-0.18812,0.0,2023,6,7,14,44,11,40
40.89130,-0.07840,0.12933,0.00000,0.03184,0.97685,-0.18764,0.0,2023,6,7,14,44,11,50
40.89140,0.07910,-0.01067,0.00000,0.02989,0.97698,-0.18922,0.0,2023,6,7,14,44,11,60
40.89150,0.09660,-0.13317,0.00000,0.03038,0.97783,-0.18898,0.0,2023,6,7,14,44,11,70
40.89160,0.07910,-0.02817,0.00000,0.03135,0.97429,-0.18947,0.0,2023,6,7,14,44,11,80
40.89170,-0.23590,0.16433,0.00000,0.03160,0.97685,-0.18971,0.0,2023,6,7,14,44,11,90
40.89180,-0.04340,0.05933,0.00000,0.03038,0.97698,-0.19105,0.0,2023,6,7,14,44,11,100
40.89190,0.04410,0.14683,0.00000,0.03074,0.97527,-0.18849,0.0,2023,6,7,14,44,11,110
40.89200,-0.06090,-0.06317,0.00000,0.03160,0.97612,-0.18873,0.0,2023,6,7,14,44,11,120
40.89210,-0.00840,-0.08067,0.00000,0.03184,0.97917,-0.18764,0.0,2023,6,7,14,44,11,130
40.89220,0.02660,0.02433,0.00000,0.03087,0.97661,-0.18837,0.0,2023,6,7,14,44,11,140
40.89230,-0.16590,-0.08067,0.00000,0.03038,0.97502,-0.18812,0.0,2023,6,7,14,44,11,150
40.89240,-0.07840,-0.08067,0.00000,0.03270,0.97710,-0.18959,0.0,2023,6,7,14,44,11,160
40.89250,0.04410,-0.20317,0.00000,0.03062,0.97563,-0.18812,0.0,2023,6,7,14,44,11,170
40.89260,0.02660,-0.09817,0.00000,0.03087,0.97600,-0.19056,0.0,2023,6,7,14,44,11,180
40.89270,-0.00840,-0.09817,0.00000,0.03233,0.97637,-0.18898,0.0,2023,6,7,14,44,11,190
40.89280,0.09660,-0.11567,0.00000,0.03233,0.97746,-0.18995,0.0,2023,6,7,14,44,11,200
40.89290,0.16660,-0.32567,0.00000,0.03160,0.97783,-0.18873,0.0,2023,6,7,14,44,11,210
40.89300,0.23660,-0.16817,0.00000,0.02965,0.97673,-0.18910,0.0,2023,6,7,14,44,11,220
40.89310,-0.11340,-0.06317,0.00000,0.03087,0.97771,-0.18886,0.0,2023,6,7,14,44,11,230
40.89320,-0.18340,0.19933,0.00000,0.03245,0.97649,-0.18922,0.0,2023,6,7,14,44,11,240
40.89330,-0.13090,-0.04567,0.00000,0.03087,0.97673,-0.18654,0.0,2023,6,7,14,44,11,250
40.89340,-0.11340,-0.02817,0.00000,0.03148,0.97795,-0.18910,0.0,2023,6,7,14,44,11,260
40.89350,0.00910,0.25183,0.00000,0.03135,0.97490,-0.18910,0.0,2023,6,7,14,44,11,270
40.89360,-0.02590,0.05933,0.00000,0.03148,0.97637,-0.18764,0.0,2023,6,7,14,44,11,280
40.89370,0.04410,-0.11567,0.00000,0.03123,0.97649,-0.18983,0.0,2023,6,7,14,44,11,290
40.89380,-0.13090,-0.16817,0.00000,0.03123,0.97673,-0.18849,0.0,2023,6,7,14,44,11,300
40.89390,0.04410,-0.02817,0.00000,0.03160,0.97771,-0.19130,0.0,2023,6,7,14,44,11,310
40.89400,-0.02590,0.14683,0.00000,0.03184,0.97332,-0.18995,0.0,2023,6,7,14,44,11,320
40.89410,0.04410,0.05933,0.00000,0.03013,0.97722,-0.18593,0.0,2023,6,7,14,44,11,330
40.89420,0.07910,-0.04567,0.00000,0.03160,0.97820,-0.18812,0.0,2023,6,7,14,44,11,340
40.89430,-0.13090,0.04183,0.00000,0.03111,0.97795,-0.18703,0.0,2023,6,7,14,44,11,350
40.89440,0.13160,-0.09817,0.00000,0.03050,0.97600,-0.19093,0.0,2023,6,7,14,44,11,360
40.89450,0.14910,-0.04567,0.00000,0.03026,0.97905,-0.18947,0.0,2023,6,7,14,44,11,370
40.89460,-0.28840,0.11183,0.00000,0.03099,0.97637,-0.18837,0.0,2023,6,7,14,44,11,380
40.89470,0.06160,-0.13317,0.00000,0.03074,0.97722,-0.18934,0.0,2023,6,7,14,44,11,390
40.89480,-0.07840,0.05933,0.00000,0.03428,0.97600,-0.18934,0.0,2023,6,7,14,44,11,400
40.89490,0.21910,-0.02817,0.00000,0.02940,0.97722,-0.18873,0.0,2023,6,7,14,44,11,410
40.89500,0.09660,-0.06317,0.00000,0.03282,0.97807,-0.19288,0.0,2023,6,7,14,44,11,420
40.89510,0.14910,-0.08067,0.00000,0.03123,0.97649,-0.18812,0.0,2023,6,7,14,44,11,430
40.89520,-0.09590,0.05933,0.00000,0.02916,0.97795,-0.18971,0.0,2023,6,7,14,44,11,440
40.89530,0.00910,-0.02817,0.00000,0.03062,0.97429,-0.19117,0.0,2023,6,7,14,44,11,450
40.89540,-0.02590,-0.15067,0.00000,0.03318,0.97832,-0.18934,0.0,2023,6,7,14,44,11,460
40.89550,-0.00840,-0.01067,0.00000,0.03050,0.97527,-0.18983,0.0,2023,6,7,14,44,11,470
40.89560,-0.00840,-0.08067,0.00000,0.03221,0.97576,-0.18886,0.0,2023,6,7,14,44,11,480
40.89570,0.00910,-0.04567,0.00000,0.02879,0.97612,-0.18910,0.0,2023,6,7,14,44,11,490
40.89580,0.09660,-0.13317,0.00000,0.03087,0.97661,-0.18642,0.0,2023,6,7,14,44,11,500
40.89590,-0.27090,0.19933,0.00000,0.03001,0.97271,-0.18910,0.0,2023,6,7,14,44,11,510
40.89600,0.06160,-0.22067,0.00000,0.03148,0.97539,-0.19020,0.0,2023,6,7,14,44,12,520
40.89610,-0.28840,0.14683,0.00000,0.03196,0.97466,-0.18666,0.0,2023,6,7,14,44,12,530
40.89620,0.00910,0.21683,0.00000,0.03343,0.97820,-0.18861,0.0,2023,6,7,14,44,12,540
40.89630,0.14910,0.00683,0.00000,0.03026,0.97490,-0.18788,0.0,2023,6,7,14,44,12,550
40.89640,-0.18340,-0.01067,0.00000,0.02952,0.97832,-0.19044,0.0,2023,6,7,14,44,12,560
40.89650,0.34160,0.09433,0.00000,0.03209,0.97661,-0.19374,0.0,2023,6,7,14,44,12,570
40.89660,-0.27090,-0.09817,0.00000,0.03221,0.97234,-0.18703,0.0,2023,6,7,14,44,12,580
40.89670,-0.25340,0.00683,0.00000,0.03038,0.97844,-0.19166,0.0,2023,6,7,14,44,12,590
40.89680,0.30660,-0.15067,0.00000,0.03172,0.97649,-0.19203,0.0,2023,6,7,14,44,12,600
40.89690,-0.37590,0.09433,0.00000,0.02916,0.97698,-0.18532,0.0,2023,6,7,14,44,12,610
40.89700,0.11410,-0.11567,0.00000,0.03172,0.97673,-0.19191,0.0,2023,6,7,14,44,12,620
40.89710,0.02660,0.25183,0.00000,0.03099,0.97258,-0.18739,0.0,2023,6,7,14,44,12,630
40.89720,-0.35840,-0.11567,0.00000,0.03038,0.97722,-0.19154,0.0,2023,6,7,14,44,12,640
40.89730,0.41160,0.09433,0.00000,0.03160,0.97673,-0.19215,0.0,2023,6,7,14,44,12,650
40.89740,-0.21840,0.12933,0.00000,0.03367,0.97588,-0.18776,0.0,2023,6,7,14,44,12,660
40.89750,0.04410,0.18183,0.00000,0.03148,0.97783,-0.19386,0.0,2023,6,7,14,44,12,670
40.89760,0.30660,-0.20317,0.00000,0.03184,0.97539,-0.19191,0.0,2023,6,7,14,44,12,680
40.89770,-0.25340,0.05933,0.00000,0.03184,0.97746,-0.18995,0.0,2023,6,7,14,44,12,690
40.89780,0.41160,-0.01067,0.00000,0.03074,0.97661,-0.19142,0.0,2023,6,7,14,44,12,700
40.89790,-0.02590,-0.20317,0.00000,0.03172,0.97576,-0.18678,0.0,2023,6,7,14,44,12,710
40.89800,-0.07840,0.07683,0.00000,0.03233,0.97832,-0.19020,0.0,2023,6,7,14,44,12,720
40.89810,0.35910,0.09433,0.00000,0.03001,0.97637,-0.19069,0.0,2023,6,7,14,44,12,730
40.89820,-0.13090,-0.11567,0.00000,0.03318,0.97795,-0.18825,0.0,2023,6,7,14,44,12,740
40.89830,-0.04340,-0.06317,0.00000,0.03318,0.97905,-0.18995,0.0,2023,6,7,14,44,12,750
40.89840,0.14910,0.02433,0.00000,0.02855,0.97551,-0.19032,0.0,2023,6,7,14,44,12,760
40.89850,0.11410,0.05933,0.00000,0.03355,0.97600,-0.18910,0.0,2023,6,7,14,44,12,770
40.89860,-0.04340,0.09433,0.00000,0.03135,0.97600,-0.19032,0.0,2023,6,7,14,44,12,780
40.89870,0.06160,0.00683,0.00000,0.03026,0.97515,-0.18922,0.0,2023,6,7,14,44,12,790
40.89880,-0.11340,0.07683,0.00000,0.03172,0.97673,-0.18934,0.0,2023,6,7,14,44,12,800
40.89890,-0.30590,0.19933,0.00000,0.03050,0.97515,-0.18873,0.0,2023,6,7,14,44,12,810
40.89900,-0.16590,0.00683,0.00000,0.03184,0.97551,-0.18910,0.0,2023,6,7,14,44,12,820
40.89910,-0.04340,-0.23817,0.00000,0.03306,0.97698,-0.18825,0.0,2023,6,7,14,44,12,830
40.89920,0.21910,-0.04567,0.00000,0.03099,0.97637,-0.18690,0.0,2023,6,7,14,44,12,840
40.89930,0.06160,-0.02817,0.00000,0.02989,0.97759,-0.18983,0.0,2023,6,7,14,44,12,850
40.89940,0.07910,-0.18567,0.00000,0.03245,0.97576,-0.18678,0.0,2023,6,7,14,44,12,860
40.89950,0.13160,-0.18567,0.00000,0.03331,0.97539,-0.18727,0.0,2023,6,7,14,44,12,870
40.89960,-0.06090,-0.16817,0.00000,0.03196,0.97588,-0.18898,0.0,2023,6,7,14,44,12,880
40.89970,0.04410,0.23433,0.00000,0.03123,0.97685,-0.18837,0.0,2023,6,7,14,44,12,890
40.89980,0.20160,0.02433,0.00000,0.03209,0.97795,-0.18861,0.0,2023,6,7,14,44,12,900
40.89990,-0.09590,-0.08067,0.00000,0.03367,0.97685,-0.18788,0.0,2023,6,7,14,44,12,910
40.90000,-0.06090,0.00683,0.00000,0.03233,0.97588,-0.19020,0.0,2023,6,7,14,44,12,920
40.90010,0.16660,0.00683,0.00000,0.03087,0.97893,-0.19154,0.0,2023,6,7,14,44,12,930
40.90020,-0.18340,0.04183,0.00000,0.03209,0.97600,-0.18861,0.0,2023,6,7,14,44,12,940
40.90030,-0.07840,-0.09817,0.00000,0.03404,0.97783,-0.19020,0.0,2023,6,7,14,44,12,950
40.90040,-0.00840,0.21683,0.00000,0.03318,0.97588,-0.18898,0.0,2023,6,7,14,44,12,960
40.90050,-0.00840,0.05933,0.00000,0.03221,0.97417,-0.19032,0.0,2023,6,7,14,44,12,970
40.90060,0.02660,-0.16817,0.00000,0.03001,0.97807,-0.18849,0.0,2023,6,7,14,44,12,980
40.90070,-0.00840,0.19933,0.00000,0.02855,0.97502,-0.18605,0.0,2023,6,7,14,44,12,990
40.90080,-0.06090,-0.16817,0.00000,0.03355,0.97563,-0.19044,0.0,2023,6,7,14,44,12,0
40.90090,0.00910,-0.11567,0.00000,0.03074,0.97685,-0.19056,0.0,2023,6,7,14,44,12,10
40.90100,-0.02590,0.04183,0.00000,0.03379,0.97502,-0.18751,0.0,2023,6,7,14,44,12,20
40.90110,-0.14840,0.04183,0.00000,0.03331,0.97612,-0.18959,0.0,2023,6,7,14,44,12,30
40.90120,-0.06090,0.11183,0.00000,0.03282,0.97722,-0.18690,0.0,2023,6,7,14,44,12,40
40.90130,0.04410,-0.01067,0.00000,0.03135,0.97746,-0.18690,0.0,2023,6,7,14,44,12,50
40.90140,0.11410,0.02433,0.00000,0.02782,0.97649,-0.19069,0.0,2023,6,7,14,44,12,60
40.90150,0.04410,-0.09817,0.00000,0.03233,0.97698,-0.18995,0.0,2023,6,7,14,44,12,70
40.90160,-0.00840,-0.18567,0.00000,0.03501,0.97759,-0.18751,0.0,2023,6,7,14,44,12,80
40.90170,0.02660,0.12933,0.00000,0.03148,0.97844,-0.18983,0.0,2023,6,7,14,44,12,90
40.90180,0.16660,-0.15067,0.00000,0.03038,0.97588,-0.18995,0.0,2023,6,7,14,44,12,100
40.90190,0.02660,-0.01067,0.00000,0.03514,0.97637,-0.18995,0.0,2023,6,7,14,44,12,110
40.90200,-0.04340,-0.04567,0.00000,0.03209,0.97490,-0.19105,0.0,2023,6,7,14,44,12,120
40.90210,-0.14840,0.02433,0.00000,0.03245,0.97551,-0.18849,0.0,2023,6,7,14,44,12,130
40.90220,-0.20090,0.14683,0.00000,0.03148,0.97649,-0.18910,0.0,2023,6,7,14,44,12,140
40.90230,0.11410,0.16433,0.00000,0.03160,0.97734,-0.18995,0.0,2023,6,7,14,44,12,150
40.90240,-0.16590,0.09433,0.00000,0.03135,0.97527,-0.18922,0.0,2023,6,7,14,44,12,160
40.90250,-0.00840,-0.22067,0.00000,0.03062,0.97698,-0.18995,0.0,2023,6,7,14,44,12,170
40.90260,0.18410,0.09433,0.00000,0.03196,0.97673,-0.19069,0.0,2023,6,7,14,44,12,180
40.90270,-0.16590,-0.15067,0.00000,0.03501,0.97649,-0.19032,0.0,2023,6,7,14,44,12,190
40.90280,0.14910,-0.15067,0.00000,0.03099,0.97783,-0.18898,0.0,2023,6,7,14,44,12,200
40.90290,0.23660,-0.27317,0.00000,0.03306,0.97551,-0.18812,0.0,2023,6,7,14,44,12,210
40.90300,0.04410,-0.11567,0.00000,0.03148,0.97539,-0.19154,0.0,2023,6,7,14,44,12,220
40.90310,-0.09590,-0.02817,0.00000,0.03074,0.97283,-0.18825,0.0,2023,6,7,14,44,12,230
40.90320,0.00910,0.04183,0.00000,0.02928,0.97795,-0.18764,0.0,2023,6,7,14,44,12,240
40.90330,-0.04340,-0.25567,0.00000,0.03209,0.97698,-0.18922,0.0,2023,6,7,14,44,12,250
40.90340,0.04410,0.02433,0.00000,0.03123,0.97466,-0.19227,0.0,2023,6,7,14,44,12,260
40.90350,0.14910,-0.08067,0.00000,0.03026,0.97722,-0.18934,0.0,2023,6,7,14,44,12,270
40.90360,-0.06090,0.05933,0.00000,0.03379,0.97673,-0.18861,0.0,2023,6,7,14,44,12,280
40.90370,0.02660,0.00683,0.00000,0.03221,0.97307,-0.18776,0.0,2023,6,7,14,44,12,290
40.90380,0.14910,0.18183,0.00000,0.03270,0.97600,-0.18837,0.0,2023,6,7,14,44,12,300
40.90390,0.11410,0.00683,0.00000,0.03123,0.97734,-0.18995,0.0,2023,6,7,14,44,12,310
40.90400,-0.09590,0.02433,0.00000,0.02940,0.97746,-0.18947,0.0,2023,6,7,14,44,12,320
40.90410,0.06160,0.00683,0.00000,0.03221,0.97685,-0.18764,0.0,2023,6,7,14,44,12,330
40.90420,0.00910,-0.01067,0.00000,0.03111,0.97759,-0.18910,0.0,2023,6,7,14,44,12,340
40.90430,-0.02590,0.04183,0.00000,0.03306,0.97710,-0.18825,0.0,2023,6,7,14,44,12,350
40.90440,-0.04340,-0.18567,0.00000,0.02977,0.97624,-0.18898,0.0,2023,6,7,14,44,12,360
40.90450,-0.13090,0.16433,0.00000,0.03331,0.97576,-0.18849,0.0,2023,6,7,14,44,12,370
40.90460,-0.00840,-0.08067,0.00000,0.03538,0.97844,-0.18983,0.0,2023,6,7,14,44,12,380
40.90470,0.06160,-0.02817,0.00000,0.02928,0.97673,-0.18922,0.0,2023,6,7,14,44,12,390
40.90480,-0.20090,-0.11567,0.00000,0.03074,0.97673,-0.19044,0.0,2023,6,7,14,44,12,400
40.90490,0.06160,0.02433,0.00000,0.03135,0.97417,-0.19044,0.0,2023,6,7,14,44,12,410
40.90500,0.21910,-0.37817,0.00000,0.03196,0.97478,-0.18934,0.0,2023,6,7,14,44,13,420
40.90510,-0.07840,-0.25567,0.00000,0.03331,0.97637,-0.18995,0.0,2023,6,7,14,44,13,430
40.90520,0.11410,-0.22067,0.00000,0.02965,0.97685,-0.19166,0.0,2023,6,7,14,44,13,440
40.90530,0.04410,0.21683,0.00000,0.03099,0.97466,-0.18934,0.0,2023,6,7,14,44,13,450
40.90540,0.21910,0.07683,0.00000,0.02916,0.97624,-0.18825,0.0,2023,6,7,14,44,13,460
40.90550,-0.11340,-0.08067,0.00000,0.03196,0.97588,-0.18947,0.0,2023,6,7,14,44,13,470
40.90560,0.13160,-0.04567,0.00000,0.03282,0.97649,-0.19093,0.0,2023,6,7,14,44,13,480
40.90570,0.02660,0.19933,0.00000,0.03196,0.97466,-0.18776,0.0,2023,6,7,14,44,13,490
40.90580,0.00910,0.11183,0.00000,0.03318,0.97807,-0.18861,0.0,2023,6,7,14,44,13,500
40.90590,-0.07840,0.00683,0.00000,0.03331,0.97746,-0.18849,0.0,2023,6,7,14,44,13,510
40.90600,0.11410,-0.29067,0.00000,0.03294,0.97332,-0.19069,0.0,2023,6,7,14,44,13,520
40.90610,0.00910,-0.01067,0.00000,0.03111,0.97844,-0.18934,0.0,2023,6,7,14,44,13,530
40.90620,0.11410,-0.13317,0.00000,0.03148,0.97441,-0.18959,0.0,2023,6,7,14,44,13,540
40.90630,-0.06090,-0.06317,0.00000,0.03087,0.97551,-0.19105,0.0,2023,6,7,14,44,13,550
40.90640,-0.02590,-0.06317,0.00000,0.03050,0.97722,-0.18703,0.0,2023,6,7,14,44,13,560
40.90650,-0.14840,-0.04567,0.00000,0.03026,0.97588,-0.19081,0.0,2023,6,7,14,44,13,570
40.90660,0.07910,-0.11567,0.00000,0.03343,0.97795,-0.19081,0.0,2023,6,7,14,44,13,580
40.90670,0.09660,-0.11567,0.00000,0.03233,0.97515,-0.19008,0.0,2023,6,7,14,44,13,590
40.90680,0.13160,0.02433,0.00000,0.03062,0.97368,-0.19117,0.0,2023,6,7,14,44,13,600
40.90690,-0.07840,0.09433,0.00000,0.03001,0.97673,-0.18983,0.0,2023,6,7,14,44,13,610
40.90700,-0.13090,0.11183,0.00000,0.03172,0.97685,-0.18825,0.0,2023,6,7,14,44,13,620
40.90710,0.18410,-0.02817,0.00000,0.03355,0.97771,-0.19056,0.0,2023,6,7,14,44,13,630
40.90720,-0.04340,-0.25567,0.00000,0.03160,0.97563,-0.18934,0.0,2023,6,7,14,44,13,640
40.90730,0.18410,-0.06317,0.00000,0.03392,0.97624,-0.19154,0.0,2023,6,7,14,44,13,650
40.90740,0.06160,0.11183,0.00000,0.03123,0.97539,-0.18873,0.0,2023,6,7,14,44,13,660
40.90750,-0.02590,0.12933,0.00000,0.03331,0.97624,-0.18886,0.0,2023,6,7,14,44,13,670
40.90760,-0.16590,0.21683,0.00000,0.03257,0.97588,-0.19081,0.0,2023,6,7,14,44,13,680
40.90770,0.21910,-0.13317,0.00000,0.03245,0.97612,-0.18934,0.0,2023,6,7,14,44,13,690
40.90780,0.00910,-0.20317,0.00000,0.03282,0.97490,-0.18959,0.0,2023,6,7,14,44,13,700
40.90790,0.11410,-0.15067,0.00000,0.03245,0.97685,-0.18922,0.0,2023,6,7,14,44,13,710
40.90800,-0.00840,0.07683,0.00000,0.03209,0.97539,-0.19142,0.0,2023,6,7,14,44,13,720
40.90810,-0.11340,-0.11567,0.00000,0.03209,0.97490,-0.19008,0.0,2023,6,7,14,44,13,730
40.90820,0.02660,0.02433,0.00000,0.03221,0.97868,-0.18934,0.0,2023,6,7,14,44,13,740
40.90830,0.06160,-0.08067,0.00000,0.03392,0.97527,-0.19117,0.0,2023,6,7,14,44,13,750
40.90840,0.18410,-0.09817,0.00000,0.03221,0.97637,-0.18922,0.0,2023,6,7,14,44,13,760
40.90850,-0.02590,0.12933,0.00000,0.03270,0.97771,-0.19300,0.0,2023,6,7,14,44,13,770
40.90860,-0.00840,-0.09817,0.00000,0.03087,0.97563,-0.18825,0.0,2023,6,7,14,44,13,780
40.90870,0.06160,-0.02817,0.00000,0.03306,0.97795,-0.19105,0.0,2023,6,7,14,44,13,790
40.90880,-0.04340,-0.04567,0.00000,0.03160,0.97710,-0.18861,0.0,2023,6,7,14,44,13,800
40.90890,-0.09590,-0.04567,0.00000,0.03294,0.98003,-0.18959,0.0,2023,6,7,14,44,13,810
40.90900,0.06160,-0.01067,0.00000,0.03306,0.97563,-0.18788,0.0,2023,6,7,14,44,13,820
40.90910,0.13160,-0.02817,0.00000,0.03087,0.97393,-0.19130,0.0,2023,6,7,14,44,13,830
40.90920,-0.16590,0.04183,0.00000,0.03392,0.97771,-0.19105,0.0,2023,6,7,14,44,13,840
40.90930,0.07910,-0.09817,0.00000,0.03062,0.97417,-0.19093,0.0,2023,6,7,14,44,13,850
40.90940,0.09660,-0.16817,0.00000,0.03172,0.97734,-0.18825,0.0,2023,6,7,14,44,13,860
40.90950,-0.00840,0.05933,0.00000,0.03184,0.97734,-0.18776,0.0,2023,6,7,14,44,13,870
40.90960,-0.25340,0.14683,0.00000,0.03123,0.97820,-0.18898,0.0,2023,6,7,14,44,13,880
40.90970,0.16660,-0.09817,0.00000,0.03196,0.97624,-0.19081,0.0,2023,6,7,14,44,13,890
40.90980,0.00910,-0.01067,0.00000,0.03062,0.97807,-0.18886,0.0,2023,6,7,14,44,13,900
40.90990,0.11410,0.00683,0.00000,0.02977,0.97795,-0.19215,0.0,2023,6,7,14,44,13,910
40.91000,0.06160,-0.09817,0.00000,0.03294,0.97881,-0.19069,0.0,2023,6,7,14,44,13,920
40.91010,-0.11340,0.00683,0.00000,0.03209,0.97454,-0.18776,0.0,2023,6,7,14,44,13,930
40.91020,0.13160,-0.11567,0.00000,0.03160,0.97673,-0.18678,0.0,2023,6,7,14,44,13,940
40.91030,-0.11340,0.05933,0.00000,0.03074,0.97783,-0.19081,0.0,2023,6,7,14,44,13,950
40.91040,-0.09590,-0.06317,0.00000,0.03087,0.97661,-0.19117,0.0,2023,6,7,14,44,13,960
40.91050,0.11410,-0.23817,0.00000,0.02879,0.97393,-0.19093,0.0,2023,6,7,14,44,13,970
40.91060,-0.06090,-0.01067,0.00000,0.03148,0.97795,-0.19069,0.0,2023,6,7,14,44,13,980
40.91070,0.14910,0.00683,0.00000,0.03038,0.97576,-0.19105,0.0,2023,6,7,14,44,13,990
40.91080,0.21910,-0.23817,0.00000,0.03282,0.97637,-0.18995,0.0,2023,6,7,14,44,13,0
40.91090,-0.09590,-0.25567,0.00000,0.03062,0.97698,-0.19081,0.0,2023,6,7,14,44,13,10
40.91100,0.11410,0.19933,0.00000,0.03148,0.97454,-0.18947,0.0,2023,6,7,14,44,13,20
40.91110,-0.06090,-0.16817,0.00000,0.03160,0.97673,-0.18959,0.0,2023,6,7,14,44,13,30
40.91120,-0.02590,0.12933,0.00000,0.03148,0.97405,-0.18922,0.0,2023,6,7,14,44,13,40
40.91130,-0.14840,0.09433,0.00000,0.02891,0.97563,-0.18947,0.0,2023,6,7,14,44,13,50
40.91140,0.00910,-0.09817,0.00000,0.03026,0.97710,-0.18825,0.0,2023,6,7,14,44,13,60
40.91150,0.02660,-0.02817,0.00000,0.03123,0.97563,-0.19142,0.0,2023,6,7,14,44,13,70
40.91160,0.04410,0.09433,0.00000,0.03184,0.97624,-0.19178,0.0,2023,6,7,14,44,13,80
40.91170,-0.02590,-0.04567,0.00000,0.03306,0.97515,-0.19093,0.0,2023,6,7,14,44,13,90
40.91180,-0.27090,0.07683,0.00000,0.02965,0.97881,-0.19325,0.0,2023,6,7,14,44,13,100
40.91190,0.11410,-0.01067,0.00000,0.02977,0.97612,-0.19252,0.0,2023,6,7,14,44,13,110
40.91200,-0.02590,-0.18567,0.00000,0.02989,0.97710,-0.18959,0.0,2023,6,7,14,44,13,120
40.91210,-0.06090,0.02433,0.00000,0.03196,0.97551,-0.18947,0.0,2023,6,7,14,44,13,130
40.91220,0.06160,-0.06317,0.00000,0.03318,0.97563,-0.18922,0.0,2023,6,7,14,44,13,140
40.91230,-0.02590,0.11183,0.00000,0.03001,0.97661,-0.19093,0.0,2023,6,7,14,44,13,150
40.91240,-0.00840,0.09433,0.00000,0.03379,0.97685,-0.19056,0.0,2023,6,7,14,44,13,160
40.91250,0.14910,-0.16817,0.00000,0.03245,0.97637,-0.18959,0.0,2023,6,7,14,44,13,170
40.91260,0.00910,-0.09817,0.00000,0.03172,0.97563,-0.18959,0.0,2023,6,7,14,44,13,180
40.91270,-0.07840,0.05933,0.00000,0.03087,0.97661,-0.19008,0.0,2023,6,7,14,44,13,190
40.91280,-0.04340,0.04183,0.00000,0.03148,0.97722,-0.18788,0.0,2023,6,7,14,44,13,200
40.91290,-0.02590,0.05933,0.00000,0.03196,0.97612,-0.19020,0.0,2023,6,7,14,44,13,210
40.91300,0.07910,-0.08067,0.00000,0.03050,0.97881,-0.18873,0.0,2023,6,7,14,44,13,220
