#2023/06/07 16:45:26
time,wx,wy,wz,ax,ay,az,yy,MM,dd,hh,mm,ss,ms
46.93390,-0.04725,-0.11795,0.00000,0.02818,0.97551,-0.19008,0.0,2023,6,7,16,45,27,-59
46.93400,0.16275,0.10955,0.00000,0.02904,0.97527,-0.18910,0.0,2023,6,7,16,45,27,-48
46.93410,-0.11725,0.19705,0.00000,0.02977,0.97698,-0.18861,0.0,2023,6,7,16,45,27,-37
46.93420,-0.08225,0.05705,0.00000,0.03209,0.97685,-0.18873,0.0,2023,6,7,16,45,27,-25
46.93430,0.12775,-0.10045,0.00000,0.02843,0.97454,-0.19069,0.0,2023,6,7,16,45,27,-14
46.93440,-0.09975,0.07455,0.00000,0.03123,0.97673,-0.18971,0.0,2023,6,7,16,45,27,-3
46.93450,0.05775,-0.13545,0.00000,0.03111,0.97734,-0.19008,0.0,2023,6,7,16,45,27,8
46.93460,0.09275,-0.25795,0.00000,0.03392,0.97661,-0.18654,0.0,2023,6,7,16,45,27,19
46.93470,0.11025,-0.13545,0.00000,0.02855,0.97612,-0.18849,0.0,2023,6,7,16,45,27,30
46.93480,0.09275,0.03955,0.00000,0.03074,0.97612,-0.19008,0.0,2023,6,7,16,45,27,42
46.93490,-0.16975,0.09205,0.00000,0.03135,0.97624,-0.18910,0.0,2023,6,7,16,45,27,53
46.93500,0.04025,-0.03045,0.00000,0.03245,0.97539,-0.18776,0.0,2023,6,7,16,45,27,64
46.93510,-0.08225,0.19705,0.00000,0.03099,0.97771,-0.18678,0.0,2023,6,7,16,45,27,76
46.93520,-0.06475,0.05705,0.00000,0.03038,0.97637,-0.18678,0.0,2023,6,7,16,45,27,87
46.93530,-0.16975,0.12705,0.00000,0.02952,0.97661,-0.18715,0.0,2023,6,7,16,45,27,99
46.93540,0.14525,-0.08295,0.00000,0.03343,0.97685,-0.18934,0.0,2023,6,7,16,45,27,110
46.93550,-0.11725,-0.01295,0.00000,0.03233,0.97661,-0.18544,0.0,2023,6,7,16,45,27,121
46.93560,0.14525,-0.18795,0.00000,0.03062,0.97539,-0.18800,0.0,2023,6,7,16,45,27,133
46.93570,0.11025,0.09205,0.00000,0.03160,0.97478,-0.18703,0.0,2023,6,7,16,45,27,144
46.93580,-0.23975,0.16205,0.00000,0.03062,0.97368,-0.18776,0.0,2023,6,7,16,45,27,155
46.93590,-0.01225,0.03955,0.00000,0.03172,0.97612,-0.18983,0.0,2023,6,7,16,45,27,167
46.93600,0.07525,-0.06545,0.00000,0.03172,0.97710,-0.18739,0.0,2023,6,7,16,45,27,178
46.93610,-0.20475,0.00455,0.00000,0.03111,0.97600,-0.18983,0.0,2023,6,7,16,45,27,189
46.93620,-0.06475,0.07455,0.00000,0.03318,0.97637,-0.19069,0.0,2023,6,7,16,45,27,201
46.93630,-0.09975,-0.04795,0.00000,0.03013,0.97868,-0.18739,0.0,2023,6,7,16,45,27,212
46.93640,-0.02975,-0.08295,0.00000,0.03062,0.97624,-0.18959,0.0,2023,6,7,16,45,27,224
46.93650,0.14525,-0.04795,0.00000,0.03135,0.97746,-0.19044,0.0,2023,6,7,16,45,27,235
46.93660,-0.06475,0.00455,0.00000,0.02928,0.97588,-0.18727,0.0,2023,6,7,16,45,27,246
46.93670,0.04025,0.10955,0.00000,0.03087,0.97417,-0.18861,0.0,2023,6,7,16,45,27,258
46.93680,0.14525,0.07455,0.00000,0.02989,0.97685,-0.18800,0.0,2023,6,7,16,45,27,269
46.93690,0.00525,-0.08295,0.00000,0.03233,0.97478,-0.18544,0.0,2023,6,7,16,45,27,280
46.93700,0.00525,0.09205,0.00000,0.03074,0.97588,-0.18898,0.0,2023,6,7,16,45,27,292
46.93710,-0.02975,0.05705,0.00000,0.03001,0.97637,-0.18629,0.0,2023,6,7,16,45,27,303
46.93720,-0.02975,-0.01295,0.00000,0.03148,0.97698,-0.18727,0.0,2023,6,7,16,45,27,314
46.93730,-0.09975,-0.08295,0.00000,0.03038,0.97576,-0.18776,0.0,2023,6,7,16,45,28,-673
46.93740,0.07525,-0.04795,0.00000,0.03001,0.97649,-0.18825,0.0,2023,6,7,16,45,28,-662
46.93750,-0.09975,0.14455,0.00000,0.02952,0.97624,-0.18922,0.0,2023,6,7,16,45,28,-651
46.93760,0.28525,-0.08295,0.00000,0.03172,0.97478,-0.18922,0.0,2023,6,7,16,45,28,-639
46.93770,-0.15225,-0.01295,0.00000,0.03172,0.97612,-0.18666,0.0,2023,6,7,16,45,28,-628
46.93780,-0.15225,0.16205,0.00000,0.03074,0.97734,-0.18910,0.0,2023,6,7,16,45,28,-616
46.93790,0.21525,-0.04795,0.00000,0.03062,0.97515,-0.19276,0.0,2023,6,7,16,45,28,-605
46.93800,0.12775,-0.15295,0.00000,0.02940,0.97734,-0.18922,0.0,2023,6,7,16,45,28,-594
46.93810,-0.02975,0.17955,0.00000,0.02965,0.97722,-0.18898,0.0,2023,6,7,16,45,28,-582
46.93820,0.00525,0.14455,0.00000,0.02891,0.97417,-0.18873,0.0,2023,6,7,16,45,28,-571
46.93830,0.12775,0.05705,0.00000,0.02916,0.97588,-0.18861,0.0,2023,6,7,16,45,28,-560
46.93840,0.05775,-0.11795,0.00000,0.03160,0.97551,-0.19105,0.0,2023,6,7,16,45,28,-548
46.93850,-0.13475,0.09205,0.00000,0.03135,0.97515,-0.18898,0.0,2023,6,7,16,45,28,-537
46.93860,0.07525,-0.11795,0.00000,0.03184,0.97478,-0.18837,0.0,2023,6,7,16,45,28,-526
46.93870,0.02275,0.07455,0.00000,0.02940,0.97441,-0.18886,0.0,2023,6,7,16,45,28,-514
46.93880,0.04025,-0.13545,0.00000,0.03135,0.97527,-0.19008,0.0,2023,6,7,16,45,28,-503
46.93890,0.02275,0.05705,0.00000,0.03367,0.97551,-0.18629,0.0,2023,6,7,16,45,28,-491
46.93900,0.00525,-0.11795,0.00000,0.03282,0.97490,-0.18764,0.0,2023,6,7,16,45,28,-480
46.93910,0.02275,-0.27545,0.00000,0.02977,0.97637,-0.18751,0.0,2023,6,7,16,45,28,-469
46.93920,-0.02975,0.09205,0.00000,0.03013,0.97527,-0.18739,0.0,2023,6,7,16,45,28,-457
46.93930,0.07525,-0.20545,0.00000,0.03172,0.97685,-0.18934,0.0,2023,6,7,16,45,28,-446
46.93940,0.09275,0.23205,0.00000,0.02977,0.97844,-0.18837,0.0,2023,6,7,16,45,28,-435
46.93950,-0.04725,0.07455,0.00000,0.03050,0.97502,-0.18849,0.0,2023,6,7,16,45,28,-423
46.93960,0.00525,-0.10045,0.00000,0.03038,0.97380,-0.19203,0.0,2023,6,7,16,45,28,-412
46.93970,0.12775,0.19705,0.00000,0.02977,0.97612,-0.18947,0.0,2023,6,7,16,45,28,-401
46.93980,0.02275,-0.04795,0.00000,0.03148,0.97368,-0.18947,0.0,2023,6,7,16,45,28,-389
46.93990,0.02275,-0.10045,0.00000,0.03172,0.97515,-0.18886,0.0,2023,6,7,16,45,28,-378
46.94000,-0.04725,0.05705,0.00000,0.03172,0.97563,-0.18886,0.0,2023,6,7,16,45,28,-367
46.94010,-0.04725,-0.06545,0.00000,0.03172,0.97612,-0.18666,0.0,2023,6,7,16,45,28,-355
46.94020,-0.02975,0.12705,0.00000,0.03013,0.97588,-0.18812,0.0,2023,6,7,16,45,28,-344
46.94030,0.11025,-0.04795,0.00000,0.03135,0.97759,-0.18825,0.0,2023,6,7,16,45,28,-332
46.94040,0.00525,0.05705,0.00000,0.03001,0.97637,-0.19081,0.0,2023,6,7,16,45,28,-321
46.94050,0.28525,0.00455,0.00000,0.02904,0.97722,-0.19166,0.0,2023,6,7,16,45,28,-310
46.94060,0.09275,-0.13545,0.00000,0.03026,0.97881,-0.19008,0.0,2023,6,7,16,45,28,-298
46.94070,0.16275,-0.11795,0.00000,0.03331,0.97722,-0.18886,0.0,2023,6,7,16,45,28,-287
46.94080,-0.04725,0.10955,0.00000,0.03270,0.97771,-0.19032,0.0,2023,6,7,16,45,28,-276
46.94090,-0.01225,0.00455,0.00000,0.03257,0.97539,-0.19056,0.0,2023,6,7,16,45,28,-264
46.94100,0.00525,-0.03045,0.00000,0.03306,0.97502,-0.18995,0.0,2023,6,7,16,45,28,-253
46.94110,-0.16975,0.12705,0.00000,0.02965,0.97454,-0.18812,0.0,2023,6,7,16,45,28,-242
46.94120,-0.15225,0.03955,0.00000,0.03099,0.97600,-0.18800,0.0,2023,6,7,16,45,28,-230
46.94130,-0.02975,0.16205,0.00000,0.02940,0.97649,-0.19117,0.0,2023,6,7,16,45,28,-219
46.94140,0.07525,0.12705,0.00000,0.02904,0.97478,-0.19020,0.0,2023,6,7,16,45,28,-207
46.94150,-0.13475,0.00455,0.00000,0.03074,0.97710,-0.18727,0.0,2023,6,7,16,45,28,-196
46.94160,-0.16975,-0.04795,0.00000,0.02855,0.97624,-0.19154,0.0,2023,6,7,16,45,28,-185
46.94170,-0.15225,0.16205,0.00000,0.03294,0.97929,-0.18910,0.0,2023,6,7,16,45,28,-173
46.94180,-0.20475,0.07455,0.00000,0.03245,0.97527,-0.19191,0.0,2023,6,7,16,45,28,-162
46.94190,0.02275,-0.11795,0.00000,0.03196,0.97612,-0.18995,0.0,2023,6,7,16,45,28,-151
46.94200,-0.02975,-0.04795,0.00000,0.02855,0.97576,-0.18910,0.0,2023,6,7,16,45,28,-139
46.94210,0.09275,-0.08295,0.00000,0.03233,0.97722,-0.18812,0.0,2023,6,7,16,45,28,-128
46.94220,-0.08225,-0.03045,0.00000,0.03038,0.97515,-0.19178,0.0,2023,6,7,16,45,28,-117
46.94230,-0.02975,-0.18795,0.00000,0.03233,0.97551,-0.18886,0.0,2023,6,7,16,45,28,-105
46.94240,-0.01225,0.09205,0.00000,0.03160,0.97624,-0.18886,0.0,2023,6,7,16,45,28,-94
46.94250,0.04025,-0.13545,0.00000,0.03184,0.97637,-0.18849,0.0,2023,6,7,16,45,28,-83
46.94260,0.12775,-0.06545,0.00000,0.03148,0.97551,-0.18934,0.0,2023,6,7,16,45,28,-71
46.94270,0.05775,-0.13545,0.00000,0.03111,0.97551,-0.18995,0.0,2023,6,7,16,45,28,-60
46.94280,0.04025,-0.15295,0.00000,0.03001,0.97954,-0.19203,0.0,2023,6,7,16,45,28,-48
46.94290,0.04025,-0.13545,0.00000,0.03148,0.97954,-0.18947,0.0,2023,6,7,16,45,28,-37
46.94300,-0.02975,-0.08295,0.00000,0.03099,0.97527,-0.18959,0.0,2023,6,7,16,45,28,-26
46.94310,-0.02975,-0.03045,0.00000,0.03257,0.97600,-0.19032,0.0,2023,6,7,16,45,28,-14
46.94320,0.02275,-0.13545,0.00000,0.03111,0.97673,-0.18959,0.0,2023,6,7,16,45,28,-3
46.94330,-0.09975,0.09205,0.00000,0.03062,0.97551,-0.19386,0.0,2023,6,7,16,45,28,7
46.94340,0.16275,-0.04795,0.00000,0.03306,0.97576,-0.18995,0.0,2023,6,7,16,45,28,19
46.94350,-0.23975,0.28455,0.00000,0.03209,0.97502,-0.18751,0.0,2023,6,7,16,45,28,30
46.94360,-0.02975,0.00455,0.00000,0.03074,0.97795,-0.18849,0.0,2023,6,7,16,45,28,41
46.94370,0.09275,0.07455,0.00000,0.03172,0.97527,-0.18983,0.0,2023,6,7,16,45,28,53
46.94380,-0.11725,-0.01295,0.00000,0.03148,0.97612,-0.19044,0.0,2023,6,7,16,45,28,64
46.94390,0.14525,0.12705,0.00000,0.03062,0.97539,-0.19020,0.0,2023,6,7,16,45,28,76
46.94400,-0.06475,0.23205,0.00000,0.03245,0.97698,-0.18812,0.0,2023,6,7,16,45,28,87
46.94410,-0.04725,0.05705,0.00000,0.03331,0.97698,-0.19227,0.0,2023,6,7,16,45,28,98
46.94420,-0.02975,0.05705,0.00000,0.03087,0.97515,-0.19056,0.0,2023,6,7,16,45,28,110
46.94430,-0.09975,0.07455,0.00000,0.03257,0.97710,-0.18971,0.0,2023,6,7,16,45,28,121
46.94440,0.25025,0.09205,0.00000,0.02952,0.97307,-0.19008,0.0,2023,6,7,16,45,28,132
46.94450,-0.02975,0.07455,0.00000,0.03087,0.97685,-0.19117,0.0,2023,6,7,16,45,28,144
46.94460,-0.02975,0.00455,0.00000,0.03038,0.97661,-0.19105,0.0,2023,6,7,16,45,28,155
46.94470,0.04025,-0.01295,0.00000,0.03233,0.97734,-0.18983,0.0,2023,6,7,16,45,28,166
46.94480,-0.01225,-0.15295,0.00000,0.03184,0.97527,-0.18751,0.0,2023,6,7,16,45,28,178
46.94490,-0.11725,-0.24045,0.00000,0.02928,0.97612,-0.18910,0.0,2023,6,7,16,45,28,189
46.94500,0.19775,0.03955,0.00000,0.03026,0.97832,-0.18910,0.0,2023,6,7,16,45,28,200
46.94510,-0.06475,-0.04795,0.00000,0.03001,0.97673,-0.18910,0.0,2023,6,7,16,45,28,212
46.94520,-0.16975,0.03955,0.00000,0.03135,0.97600,-0.19117,0.0,2023,6,7,16,45,28,223
46.94530,0.07525,0.05705,0.00000,0.03038,0.97771,-0.19032,0.0,2023,6,7,16,45,28,235
46.94540,-0.15225,0.14455,0.00000,0.03221,0.97417,-0.18751,0.0,2023,6,7,16,45,28,246
46.94550,-0.09975,0.17955,0.00000,0.03111,0.97380,-0.18995,0.0,2023,6,7,16,45,28,257
46.94560,0.05775,-0.17045,0.00000,0.03123,0.97600,-0.18861,0.0,2023,6,7,16,45,28,269
46.94570,0.05775,0.02205,0.00000,0.02904,0.97832,-0.19032,0.0,2023,6,7,16,45,28,280
46.94580,-0.08225,0.07455,0.00000,0.03062,0.97490,-0.18800,0.0,2023,6,7,16,45,28,291
46.94590,-0.15225,-0.03045,0.00000,0.03172,0.97332,-0.18873,0.0,2023,6,7,16,45,28,303
46.94600,-0.02975,-0.06545,0.00000,0.03245,0.97649,-0.19032,0.0,2023,6,7,16,45,28,314
46.94610,0.09275,0.12705,0.00000,0.02928,0.97698,-0.19020,0.0,2023,6,7,16,45,28,325
46.94620,-0.18725,0.07455,0.00000,0.03172,0.97722,-0.18776,0.0,2023,6,7,16,45,28,337
46.94630,-0.13475,-0.08295,0.00000,0.03026,0.97649,-0.18886,0.0,2023,6,7,16,45,29,-651
46.94640,0.18025,0.05705,0.00000,0.02891,0.97576,-0.18898,0.0,2023,6,7,16,45,29,-639
46.94650,0.04025,0.16205,0.00000,0.02916,0.97759,-0.19178,0.0,2023,6,7,16,45,29,-628
46.94660,0.09275,-0.06545,0.00000,0.03026,0.97441,-0.19056,0.0,2023,6,7,16,45,29,-617
46.94670,-0.02975,0.09205,0.00000,0.03135,0.97478,-0.18947,0.0,2023,6,7,16,45,29,-605
46.94680,0.00525,-0.27545,0.00000,0.03135,0.97563,-0.18727,0.0,2023,6,7,16,45,29,-594
46.94690,-0.04725,0.00455,0.00000,0.03001,0.97600,-0.18983,0.0,2023,6,7,16,45,29,-583
46.94700,0.04025,0.02205,0.00000,0.03209,0.97722,-0.18971,0.0,2023,6,7,16,45,29,-571
46.94710,0.02275,-0.13545,0.00000,0.03160,0.97722,-0.18800,0.0,2023,6,7,16,45,29,-560
46.94720,0.07525,-0.06545,0.00000,0.03038,0.97502,-0.19105,0.0,2023,6,7,16,45,29,-549
46.94730,-0.02975,-0.03045,0.00000,0.03148,0.97710,-0.18959,0.0,2023,6,7,16,45,29,-537
46.94740,-0.04725,0.02205,0.00000,0.03160,0.97344,-0.18678,0.0,2023,6,7,16,45,29,-526
46.94750,0.05775,0.07455,0.00000,0.02989,0.97722,-0.19130,0.0,2023,6,7,16,45,29,-515
46.94760,0.07525,0.14455,0.00000,0.03233,0.97673,-0.19093,0.0,2023,6,7,16,45,29,-503
46.94770,-0.15225,-0.06545,0.00000,0.02928,0.97258,-0.18971,0.0,2023,6,7,16,45,29,-492
46.94780,-0.01225,0.12705,0.00000,0.03111,0.97283,-0.19032,0.0,2023,6,7,16,45,29,-480
46.94790,-0.06475,0.00455,0.00000,0.02867,0.97673,-0.19008,0.0,2023,6,7,16,45,29,-469
46.94800,-0.11725,0.00455,0.00000,0.03148,0.97637,-0.19154,0.0,2023,6,7,16,45,29,-458
46.94810,-0.01225,0.03955,0.00000,0.02940,0.97661,-0.18983,0.0,2023,6,7,16,45,29,-446
46.94820,0.02275,0.05705,0.00000,0.03245,0.97515,-0.18898,0.0,2023,6,7,16,45,29,-435
46.94830,-0.06475,0.14455,0.00000,0.03111,0.97795,-0.19093,0.0,2023,6,7,16,45,29,-424
46.94840,0.18025,-0.22295,0.00000,0.03111,0.97698,-0.19020,0.0,2023,6,7,16,45,29,-412
46.94850,0.00525,0.12705,0.00000,0.03270,0.97722,-0.18910,0.0,2023,6,7,16,45,29,-401
46.94860,-0.13475,-0.03045,0.00000,0.03050,0.97649,-0.18873,0.0,2023,6,7,16,45,29,-390
46.94870,0.26775,-0.04795,0.00000,0.02891,0.97490,-0.19227,0.0,2023,6,7,16,45,29,-378
46.94880,0.00525,0.16205,0.00000,0.02989,0.97661,-0.19093,0.0,2023,6,7,16,45,29,-367
46.94890,0.02275,0.07455,0.00000,0.03196,0.97612,-0.18825,0.0,2023,6,7,16,45,29,-355
46.94900,0.04025,-0.03045,0.00000,0.03062,0.97698,-0.19032,0.0,2023,6,7,16,45,29,-344
46.94910,0.04025,-0.01295,0.00000,0.02916,0.97673,-0.19093,0.0,2023,6,7,16,45,29,-333
46.94920,0.19775,-0.06545,0.00000,0.03221,0.97600,-0.18825,0.0,2023,6,7,16,45,29,-321
46.94930,-0.02975,0.09205,0.00000,0.03013,0.97600,-0.18812,0.0,2023,6,7,16,45,29,-310
46.94940,0.00525,-0.03045,0.00000,0.03123,0.97502,-0.19020,0.0,2023,6,7,16,45,29,-299
46.94950,0.02275,-0.03045,0.00000,0.03087,0.97405,-0.18922,0.0,2023,6,7,16,45,29,-287
46.94960,-0.04725,-0.11795,0.00000,0.03087,0.97405,-0.18886,0.0,2023,6,7,16,45,29,-276
46.94970,0.07525,0.17955,0.00000,0.02928,0.97405,-0.18666,0.0,2023,6,7,16,45,29,-265
46.94980,0.16275,-0.03045,0.00000,0.03196,0.97466,-0.18995,0.0,2023,6,7,16,45,29,-253
46.94990,-0.15225,-0.10045,0.00000,0.03026,0.97417,-0.19069,0.0,2023,6,7,16,45,29,-242
46.95000,-0.06475,-0.04795,0.00000,0.03001,0.97441,-0.18886,0.0,2023,6,7,16,45,29,-231
46.95010,0.02275,0.00455,0.00000,0.03074,0.97673,-0.19178,0.0,2023,6,7,16,45,29,-219
46.95020,-0.01225,0.12705,0.00000,0.03148,0.97576,-0.18910,0.0,2023,6,7,16,45,29,-208
46.95030,0.07525,-0.06545,0.00000,0.03148,0.97441,-0.18812,0.0,2023,6,7,16,45,29,-196
46.95040,0.14525,0.02205,0.00000,0.03148,0.97893,-0.19044,0.0,2023,6,7,16,45,29,-185
46.95050,0.21525,-0.01295,0.00000,0.02989,0.97429,-0.19044,0.0,2023,6,7,16,45,29,-174
46.95060,-0.04725,0.05705,0.00000,0.03148,0.97478,-0.18825,0.0,2023,6,7,16,45,29,-162
46.95070,-0.16975,0.02205,0.00000,0.03062,0.97612,-0.18764,0.0,2023,6,7,16,45,29,-151
46.95080,-0.06475,-0.04795,0.00000,0.03318,0.97673,-0.18995,0.0,2023,6,7,16,45,29,-140
46.95090,0.14525,0.10955,0.00000,0.03209,0.97539,-0.18995,0.0,2023,6,7,16,45,29,-128
46.95100,-0.13475,0.14455,0.00000,0.03074,0.97746,-0.19093,0.0,2023,6,7,16,45,29,-117
46.95110,-0.09975,-0.15295,0.00000,0.03209,0.97637,-0.18788,0.0,2023,6,7,16,45,29,-106
46.95120,0.02275,0.19705,0.00000,0.02989,0.97539,-0.19020,0.0,2023,6,7,16,45,29,-94
46.95130,0.02275,0.00455,0.00000,0.03038,0.97588,-0.18703,0.0,2023,6,7,16,45,29,-83
46.95140,-0.13475,0.12705,0.00000,0.03013,0.97771,-0.18995,0.0,2023,6,7,16,45,29,-71
46.95150,-0.04725,0.02205,0.00000,0.03209,0.97722,-0.19081,0.0,2023,6,7,16,45,29,-60
46.95160,-0.02975,-0.03045,0.00000,0.03221,0.97539,-0.18544,0.0,2023,6,7,16,45,29,-49
46.95170,-0.02975,-0.10045,0.00000,0.02977,0.97637,-0.18788,0.0,2023,6,7,16,45,29,-37
46.95180,0.23275,0.03955,0.00000,0.03087,0.97734,-0.18947,0.0,2023,6,7,16,45,29,-26
46.95190,-0.08225,0.02205,0.00000,0.03087,0.97734,-0.18971,0.0,2023,6,7,16,45,29,-15
46.95200,0.02275,0.05705,0.00000,0.02867,0.97612,-0.19154,0.0,2023,6,7,16,45,29,-3
46.95210,0.11025,-0.08295,0.00000,0.03050,0.97356,-0.18995,0.0,2023,6,7,16,45,29,7
46.95220,0.16275,-0.10045,0.00000,0.03111,0.97673,-0.19020,0.0,2023,6,7,16,45,29,18
46.95230,-0.13475,-0.01295,0.00000,0.03196,0.97539,-0.18910,0.0,2023,6,7,16,45,29,30
46.95240,0.04025,0.00455,0.00000,0.03038,0.97710,-0.19093,0.0,2023,6,7,16,45,29,41
46.95250,-0.01225,0.00455,0.00000,0.03221,0.97551,-0.19142,0.0,2023,6,7,16,45,29,52
46.95260,0.18025,0.05705,0.00000,0.03209,0.97783,-0.18800,0.0,2023,6,7,16,45,29,64
46.95270,-0.16975,0.03955,0.00000,0.03209,0.97612,-0.18922,0.0,2023,6,7,16,45,29,75
46.95280,0.09275,0.19705,0.00000,0.02928,0.97429,-0.18825,0.0,2023,6,7,16,45,29,87
46.95290,-0.01225,0.02205,0.00000,0.02977,0.97661,-0.19191,0.0,2023,6,7,16,45,29,98
46.95300,-0.09975,0.10955,0.00000,0.03111,0.97539,-0.18727,0.0,2023,6,7,16,45,29,109
46.95310,-0.04725,-0.01295,0.00000,0.03050,0.97539,-0.19264,0.0,2023,6,7,16,45,29,121
46.95320,0.19775,-0.31045,0.00000,0.02867,0.97624,-0.18934,0.0,2023,6,7,16,45,29,132
46.95330,0.14525,-0.03045,0.00000,0.03087,0.97405,-0.18983,0.0,2023,6,7,16,45,29,143
46.95340,-0.11725,-0.06545,0.00000,0.02855,0.97734,-0.19056,0.0,2023,6,7,16,45,29,155
46.95350,-0.01225,0.05705,0.00000,0.03099,0.97588,-0.19239,0.0,2023,6,7,16,45,29,166
46.95360,-0.06475,0.07455,0.00000,0.03013,0.97539,-0.18825,0.0,2023,6,7,16,45,29,177
46.95370,0.02275,-0.06545,0.00000,0.03013,0.97722,-0.18947,0.0,2023,6,7,16,45,29,189
46.95380,-0.15225,0.00455,0.00000,0.03172,0.97661,-0.19142,0.0,2023,6,7,16,45,29,200
46.95390,-0.18725,-0.08295,0.00000,0.03245,0.97881,-0.19069,0.0,2023,6,7,16,45,29,212
46.95400,0.00525,0.16205,0.00000,0.03294,0.97563,-0.18947,0.0,2023,6,7,16,45,29,223
46.95410,-0.13475,0.14455,0.00000,0.03148,0.97746,-0.18910,0.0,2023,6,7,16,45,29,234
46.95420,0.11025,-0.10045,0.00000,0.03123,0.97820,-0.18800,0.0,2023,6,7,16,45,29,246
46.95430,-0.09975,0.14455,0.00000,0.03038,0.97844,-0.19081,0.0,2023,6,7,16,45,29,257
46.95440,0.02275,0.03955,0.00000,0.03209,0.97539,-0.18837,0.0,2023,6,7,16,45,29,268
46.95450,0.04025,0.00455,0.00000,0.03050,0.97771,-0.18995,0.0,2023,6,7,16,45,29,280
46.95460,-0.06475,0.03955,0.00000,0.03196,0.97612,-0.18800,0.0,2023,6,7,16,45,29,291
46.95470,-0.09975,-0.10045,0.00000,0.03184,0.97685,-0.18959,0.0,2023,6,7,16,45,29,302
46.95480,0.09275,0.07455,0.00000,0.02867,0.97502,-0.18861,0.0,2023,6,7,16,45,29,314
46.95490,0.00525,-0.08295,0.00000,0.02965,0.97502,-0.18812,0.0,2023,6,7,16,45,29,325
46.95500,-0.01225,-0.03045,0.00000,0.02904,0.97820,-0.18983,0.0,2023,6,7,16,45,29,336
46.95510,0.11025,-0.39795,0.00000,0.03184,0.97429,-0.18873,0.0,2023,6,7,16,45,29,348
46.95520,-0.04725,0.03955,0.00000,0.03282,0.97563,-0.18910,0.0,2023,6,7,16,45,29,359
46.95530,0.11025,-0.01295,0.00000,0.03074,0.97807,-0.18873,0.0,2023,6,7,16,45,30,-628
46.95540,-0.11725,0.00455,0.00000,0.03099,0.97515,-0.18800,0.0,2023,6,7,16,45,30,-617
46.95550,0.09275,-0.01295,0.00000,0.03196,0.97624,-0.18886,0.0,2023,6,7,16,45,30,-606
46.95560,-0.15225,0.10955,0.00000,0.03062,0.97600,-0.18849,0.0,2023,6,7,16,45,30,-594
46.95570,0.07525,-0.18795,0.00000,0.03050,0.97454,-0.19252,0.0,2023,6,7,16,45,30,-583
46.95580,0.04025,-0.22295,0.00000,0.03233,0.97222,-0.18947,0.0,2023,6,7,16,45,30,-572
46.95590,0.05775,-0.15295,0.00000,0.03050,0.97807,-0.18922,0.0,2023,6,7,16,45,30,-560
46.95600,-0.09975,-0.01295,0.00000,0.02794,0.97722,-0.19093,0.0,2023,6,7,16,45,30,-549
46.95610,0.19775,-0.20545,0.00000,0.03050,0.97527,-0.18800,0.0,2023,6,7,16,45,30,-538
46.95620,0.07525,-0.04795,0.00000,0.03196,0.97759,-0.18898,0.0,2023,6,7,16,45,30,-526
46.95630,0.00525,-0.08295,0.00000,0.03245,0.97637,-0.18959,0.0,2023,6,7,16,45,30,-515
46.95640,-0.09975,0.23205,0.00000,0.03062,0.97685,-0.18947,0.0,2023,6,7,16,45,30,-503
46.95650,0.11025,-0.06545,0.00000,0.03050,0.97710,-0.18934,0.0,2023,6,7,16,45,30,-492
46.95660,0.12775,-0.03045,0.00000,0.03306,0.97527,-0.18837,0.0,2023,6,7,16,45,30,-481
46.95670,0.05775,0.12705,0.00000,0.03038,0.97856,-0.19215,0.0,2023,6,7,16,45,30,-469
46.95680,0.16275,-0.08295,0.00000,0.03135,0.97685,-0.19239,0.0,2023,6,7,16,45,30,-458
46.95690,-0.04725,0.03955,0.00000,0.03050,0.97478,-0.18849,0.0,2023,6,7,16,45,30,-447
46.95700,-0.11725,0.03955,0.00000,0.02891,0.97746,-0.18788,0.0,2023,6,7,16,45,30,-435
46.95710,0.11025,0.00455,0.00000,0.02977,0.97722,-0.19020,0.0,2023,6,7,16,45,30,-424
46.95720,-0.13475,0.02205,0.00000,0.03209,0.97624,-0.18825,0.0,2023,6,7,16,45,30,-413
46.95730,0.11025,0.02205,0.00000,0.03148,0.97600,-0.19227,0.0,2023,6,7,16,45,30,-401
46.95740,-0.01225,-0.04795,0.00000,0.03050,0.97844,-0.19069,0.0,2023,6,7,16,45,30,-390
46.95750,-0.02975,-0.08295,0.00000,0.03172,0.97356,-0.18605,0.0,2023,6,7,16,45,30,-379
46.95760,-0.01225,-0.04795,0.00000,0.03160,0.97515,-0.18886,0.0,2023,6,7,16,45,30,-367
46.95770,-0.01225,0.16205,0.00000,0.03209,0.97844,-0.18861,0.0,2023,6,7,16,45,30,-356
46.95780,-0.15225,-0.04795,0.00000,0.03026,0.97612,-0.19093,0.0,2023,6,7,16,45,30,-344
46.95790,-0.02975,-0.08295,0.00000,0.03367,0.97759,-0.18947,0.0,2023,6,7,16,45,30,-333
46.95800,0.02275,-0.20545,0.00000,0.03135,0.97576,-0.18910,0.0,2023,6,7,16,45,30,-322
46.95810,-0.08225,0.07455,0.00000,0.03172,0.97771,-0.18959,0.0,2023,6,7,16,45,30,-310
46.95820,-0.13475,-0.03045,0.00000,0.03343,0.97454,-0.18873,0.0,2023,6,7,16,45,30,-299
46.95830,0.05775,-0.15295,0.00000,0.03209,0.97466,-0.18898,0.0,2023,6,7,16,45,30,-288
46.95840,-0.01225,-0.04795,0.00000,0.03148,0.97612,-0.18947,0.0,2023,6,7,16,45,30,-276
46.95850,0.04025,-0.04795,0.00000,0.03026,0.97466,-0.18910,0.0,2023,6,7,16,45,30,-265
46.95860,0.04025,-0.13545,0.00000,0.03160,0.97600,-0.18995,0.0,2023,6,7,16,45,30,-254
46.95870,-0.04725,0.17955,0.00000,0.03001,0.97490,-0.18837,0.0,2023,6,7,16,45,30,-242
46.95880,0.12775,0.17955,0.00000,0.03196,0.97807,-0.19215,0.0,2023,6,7,16,45,30,-231
46.95890,-0.06475,0.09205,0.00000,0.03306,0.97576,-0.18898,0.0,2023,6,7,16,45,30,-219
46.95900,0.05775,-0.06545,0.00000,0.03160,0.97551,-0.18971,0.0,2023,6,7,16,45,30,-208
46.95910,0.12775,0.00455,0.00000,0.03172,0.97466,-0.19093,0.0,2023,6,7,16,45,30,-197
46.95920,0.00525,0.05705,0.00000,0.03233,0.97649,-0.19093,0.0,2023,6,7,16,45,30,-185
46.95930,-0.08225,0.05705,0.00000,0.03148,0.97698,-0.18812,0.0,2023,6,7,16,45,30,-174
46.95940,0.05775,-0.04795,0.00000,0.03087,0.97588,-0.18886,0.0,2023,6,7,16,45,30,-163
46.95950,0.05775,0.03955,0.00000,0.03270,0.97698,-0.18995,0.0,2023,6,7,16,45,30,-151
46.95960,0.12775,0.09205,0.00000,0.02867,0.97893,-0.19008,0.0,2023,6,7,16,45,30,-140
46.95970,-0.04725,0.19705,0.00000,0.03050,0.97454,-0.18849,0.0,2023,6,7,16,45,30,-129
46.95980,-0.06475,-0.08295,0.00000,0.03074,0.97649,-0.18995,0.0,2023,6,7,16,45,30,-117
46.95990,0.07525,-0.01295,0.00000,0.03087,0.97502,-0.19056,0.0,2023,6,7,16,45,30,-106
46.96000,0.09275,-0.08295,0.00000,0.03306,0.97637,-0.18886,0.0,2023,6,7,16,45,30,-95
46.96010,-0.04725,-0.01295,0.00000,0.03111,0.97612,-0.19203,0.0,2023,6,7,16,45,30,-83
46.96020,0.21525,-0.03045,0.00000,0.02879,0.97466,-0.19215,0.0,2023,6,7,16,45,30,-72
46.96030,0.02275,-0.04795,0.00000,0.03074,0.97649,-0.19117,0.0,2023,6,7,16,45,30,-60
46.96040,0.05775,-0.06545,0.00000,0.02977,0.97466,-0.18739,0.0,2023,6,7,16,45,30,-49
46.96050,0.19775,-0.17045,0.00000,0.03172,0.97612,-0.19142,0.0,2023,6,7,16,45,30,-38
46.96060,0.11025,-0.03045,0.00000,0.03087,0.97820,-0.18825,0.0,2023,6,7,16,45,30,-26
46.96070,0.00525,-0.13545,0.00000,0.02818,0.97685,-0.19178,0.0,2023,6,7,16,45,30,-15
46.96080,0.09275,-0.04795,0.00000,0.03074,0.97795,-0.19032,0.0,2023,6,7,16,45,30,-4
46.96090,0.07525,-0.17045,0.00000,0.03062,0.97624,-0.18959,0.0,2023,6,7,16,45,30,7
46.96100,0.00525,0.03955,0.00000,0.03050,0.97722,-0.18995,0.0,2023,6,7,16,45,30,18
46.96110,-0.06475,0.00455,0.00000,0.03013,0.97661,-0.18947,0.0,2023,6,7,16,45,30,29
46.96120,-0.02975,-0.15295,0.00000,0.03172,0.97710,-0.19044,0.0,2023,6,7,16,45,30,41
46.96130,0.04025,0.12705,0.00000,0.03026,0.97332,-0.18947,0.0,2023,6,7,16,45,30,52
46.96140,0.09275,-0.08295,0.00000,0.03050,0.97563,-0.18983,0.0,2023,6,7,16,45,30,64
46.96150,0.04025,-0.01295,0.00000,0.02952,0.97624,-0.19142,0.0,2023,6,7,16,45,30,75
46.96160,0.07525,0.00455,0.00000,0.03050,0.97429,-0.18629,0.0,2023,6,7,16,45,30,86
46.96170,0.16275,0.12705,0.00000,0.03087,0.97515,-0.19191,0.0,2023,6,7,16,45,30,98
46.96180,0.00525,0.14455,0.00000,0.02977,0.97661,-0.18995,0.0,2023,6,7,16,45,30,109
46.96190,-0.08225,-0.08295,0.00000,0.03135,0.97539,-0.18727,0.0,2023,6,7,16,45,30,120
46.96200,-0.13475,0.10955,0.00000,0.02916,0.97722,-0.18617,0.0,2023,6,7,16,45,30,132
46.96210,-0.09975,-0.08295,0.00000,0.03099,0.97807,-0.18849,0.0,2023,6,7,16,45,30,143
46.96220,-0.01225,-0.15295,0.00000,0.02977,0.97539,-0.18654,0.0,2023,6,7,16,45,30,154
46.96230,-0.13475,0.02205,0.00000,0.03013,0.97624,-0.18666,0.0,2023,6,7,16,45,30,166
46.96240,-0.01225,0.02205,0.00000,0.03099,0.97490,-0.19008,0.0,2023,6,7,16,45,30,177
46.96250,-0.01225,-0.13545,0.00000,0.03038,0.97746,-0.19142,0.0,2023,6,7,16,45,30,188
46.96260,0.12775,-0.03045,0.00000,0.03123,0.97441,-0.18861,0.0,2023,6,7,16,45,30,200
46.96270,-0.06475,-0.18795,0.00000,0.03160,0.97563,-0.18959,0.0,2023,6,7,16,45,30,211
46.96280,0.05775,-0.10045,0.00000,0.03074,0.97685,-0.19056,0.0,2023,6,7,16,45,30,223
46.96290,0.14525,0.05705,0.00000,0.03013,0.97551,-0.19020,0.0,2023,6,7,16,45,30,234
46.96300,0.02275,-0.17045,0.00000,0.03306,0.97527,-0.18825,0.0,2023,6,7,16,45,30,245
46.96310,0.11025,0.14455,0.00000,0.02977,0.97527,-0.18764,0.0,2023,6,7,16,45,30,257
46.96320,0.00525,-0.13545,0.00000,0.02989,0.97637,-0.18959,0.0,2023,6,7,16,45,30,268
46.96330,-0.08225,0.02205,0.00000,0.03087,0.97612,-0.18605,0.0,2023,6,7,16,45,30,279
46.96340,0.12775,0.17955,0.00000,0.03013,0.97319,-0.18861,0.0,2023,6,7,16,45,30,291
46.96350,0.09275,0.00455,0.00000,0.02940,0.97820,-0.19056,0.0,2023,6,7,16,45,30,302
46.96360,-0.04725,0.07455,0.00000,0.03172,0.97673,-0.18605,0.0,2023,6,7,16,45,30,313
46.96370,-0.09975,0.12705,0.00000,0.03111,0.97612,-0.18849,0.0,2023,6,7,16,45,30,325
46.96380,-0.11725,0.02205,0.00000,0.03135,0.97698,-0.19130,0.0,2023,6,7,16,45,30,336
46.96390,0.12775,0.28455,0.00000,0.03318,0.97624,-0.18812,0.0,2023,6,7,16,45,30,348
46.96400,0.21525,-0.03045,0.00000,0.03062,0.97612,-0.19069,0.0,2023,6,7,16,45,30,359
46.96410,0.21525,-0.13545,0.00000,0.03062,0.97759,-0.18886,0.0,2023,6,7,16,45,30,370
46.96420,-0.20475,0.07455,0.00000,0.03123,0.97356,-0.18593,0.0,2023,6,7,16,45,31,-617
46.96430,0.02275,0.17955,0.00000,0.02867,0.97478,-0.18886,0.0,2023,6,7,16,45,31,-606
46.96440,0.00525,-0.20545,0.00000,0.03196,0.97673,-0.18947,0.0,2023,6,7,16,45,31,-595
46.96450,-0.02975,-0.18795,0.00000,0.03135,0.97551,-0.18825,0.0,2023,6,7,16,45,31,-583
46.96460,-0.06475,0.03955,0.00000,0.02928,0.97661,-0.18727,0.0,2023,6,7,16,45,31,-572
46.96470,-0.02975,-0.01295,0.00000,0.03209,0.97868,-0.18690,0.0,2023,6,7,16,45,31,-561
46.96480,-0.18725,0.05705,0.00000,0.02940,0.97685,-0.18995,0.0,2023,6,7,16,45,31,-549
46.96490,-0.08225,0.26705,0.00000,0.03087,0.97490,-0.18947,0.0,2023,6,7,16,45,31,-538
46.96500,-0.16975,0.02205,0.00000,0.03026,0.97600,-0.18764,0.0,2023,6,7,16,45,31,-527
46.96510,-0.01225,0.00455,0.00000,0.03294,0.97624,-0.18947,0.0,2023,6,7,16,45,31,-515
46.96520,0.09275,-0.08295,0.00000,0.02989,0.97417,-0.18788,0.0,2023,6,7,16,45,31,-504
46.96530,0.00525,0.10955,0.00000,0.03257,0.97551,-0.18934,0.0,2023,6,7,16,45,31,-492
46.96540,0.02275,-0.04795,0.00000,0.03221,0.97637,-0.18715,0.0,2023,6,7,16,45,31,-481
46.96550,0.16275,0.07455,0.00000,0.03172,0.97746,-0.19117,0.0,2023,6,7,16,45,31,-470
46.96560,-0.02975,0.05705,0.00000,0.03343,0.97454,-0.18983,0.0,2023,6,7,16,45,31,-458
46.96570,-0.18725,0.02205,0.00000,0.02879,0.97600,-0.18800,0.0,2023,6,7,16,45,31,-447
46.96580,0.11025,-0.06545,0.00000,0.03087,0.97710,-0.19093,0.0,2023,6,7,16,45,31,-436
46.96590,-0.02975,-0.03045,0.00000,0.03135,0.97649,-0.18629,0.0,2023,6,7,16,45,31,-424
46.96600,-0.16975,-0.24045,0.00000,0.03074,0.97551,-0.18776,0.0,2023,6,7,16,45,31,-413
46.96610,-0.09975,0.05705,0.00000,0.02977,0.97515,-0.18983,0.0,2023,6,7,16,45,31,-402
46.96620,0.09275,0.02205,0.00000,0.03221,0.97551,-0.19191,0.0,2023,6,7,16,45,31,-390
46.96630,0.07525,0.10955,0.00000,0.02940,0.97490,-0.18910,0.0,2023,6,7,16,45,31,-379
46.96640,-0.04725,0.05705,0.00000,0.03111,0.97746,-0.18934,0.0,2023,6,7,16,45,31,-367
46.96650,-0.04725,0.03955,0.00000,0.03221,0.97698,-0.18898,0.0,2023,6,7,16,45,31,-356
46.96660,-0.22225,0.26705,0.00000,0.03392,0.97929,-0.18971,0.0,2023,6,7,16,45,31,-345
46.96670,-0.04725,-0.03045,0.00000,0.03135,0.97405,-0.18703,0.0,2023,6,7,16,45,31,-333
46.96680,-0.23975,0.14455,0.00000,0.03160,0.97649,-0.18837,0.0,2023,6,7,16,45,31,-322
46.96690,0.09275,-0.01295,0.00000,0.02989,0.97673,-0.19142,0.0,2023,6,7,16,45,31,-311
46.96700,0.16275,0.24955,0.00000,0.02965,0.97624,-0.18995,0.0,2023,6,7,16,45,31,-299
46.96710,-0.15225,0.03955,0.00000,0.03148,0.97612,-0.18861,0.0,2023,6,7,16,45,31,-288
46.96720,0.07525,-0.06545,0.00000,0.03038,0.97783,-0.18861,0.0,2023,6,7,16,45,31,-277
46.96730,0.12775,0.23205,0.00000,0.02965,0.97685,-0.19069,0.0,2023,6,7,16,45,31,-265
46.96740,0.00525,-0.10045,0.00000,0.02977,0.97685,-0.18776,0.0,2023,6,7,16,45,31,-254
46.96750,0.12775,-0.01295,0.00000,0.02952,0.97539,-0.18995,0.0,2023,6,7,16,45,31,-243
46.96760,-0.04725,0.00455,0.00000,0.02977,0.97807,-0.19093,0.0,2023,6,7,16,45,31,-231
46.96770,0.16275,-0.13545,0.00000,0.02977,0.97417,-0.19093,0.0,2023,6,7,16,45,31,-220
46.96780,-0.08225,0.02205,0.00000,0.02794,0.97600,-0.18947,0.0,2023,6,7,16,45,31,-208
46.96790,-0.01225,-0.01295,0.00000,0.03160,0.97661,-0.18995,0.0,2023,6,7,16,45,31,-197
46.96800,0.07525,-0.04795,0.00000,0.03087,0.97649,-0.19020,0.0,2023,6,7,16,45,31,-186
46.96810,0.02275,-0.06545,0.00000,0.03135,0.97710,-0.19081,0.0,2023,6,7,16,45,31,-174
46.96820,0.07525,0.00455,0.00000,0.03318,0.97649,-0.19056,0.0,2023,6,7,16,45,31,-163
46.96830,0.07525,0.05705,0.00000,0.02928,0.97710,-0.19276,0.0,2023,6,7,16,45,31,-152
46.96840,-0.01225,-0.17045,0.00000,0.03196,0.97746,-0.19044,0.0,2023,6,7,16,45,31,-140
46.96850,-0.02975,0.19705,0.00000,0.03184,0.97746,-0.18837,0.0,2023,6,7,16,45,31,-129
46.96860,-0.08225,-0.15295,0.00000,0.02977,0.97649,-0.19008,0.0,2023,6,7,16,45,31,-118
46.96870,-0.02975,0.10955,0.00000,0.03343,0.97441,-0.19081,0.0,2023,6,7,16,45,31,-106
46.96880,0.09275,0.03955,0.00000,0.02989,0.97624,-0.18715,0.0,2023,6,7,16,45,31,-95
46.96890,-0.16975,-0.01295,0.00000,0.03062,0.97563,-0.19117,0.0,2023,6,7,16,45,31,-83
46.96900,0.05775,0.12705,0.00000,0.03184,0.97673,-0.19008,0.0,2023,6,7,16,45,31,-72
46.96910,-0.02975,0.16205,0.00000,0.03221,0.97771,-0.18947,0.0,2023,6,7,16,45,31,-61
46.96920,-0.08225,0.03955,0.00000,0.03196,0.97722,-0.19142,0.0,2023,6,7,16,45,31,-49
46.96930,0.05775,-0.15295,0.00000,0.03050,0.97673,-0.18947,0.0,2023,6,7,16,45,31,-38
46.96940,-0.15225,-0.08295,0.00000,0.03038,0.97551,-0.19056,0.0,2023,6,7,16,45,31,-27
46.96950,-0.04725,-0.04795,0.00000,0.03099,0.97649,-0.18837,0.0,2023,6,7,16,45,31,-15
46.96960,0.19775,0.02205,0.00000,0.03184,0.97576,-0.18788,0.0,2023,6,7,16,45,31,-4
46.96970,0.02275,0.03955,0.00000,0.02904,0.97649,-0.18934,0.0,2023,6,7,16,45,31,6
46.96980,-0.13475,0.14455,0.00000,0.03160,0.97783,-0.18764,0.0,2023,6,7,16,45,31,18
46.96990,-0.08225,0.17955,0.00000,0.03074,0.97515,-0.18959,0.0,2023,6,7,16,45,31,29
46.97000,0.04025,-0.04795,0.00000,0.03294,0.97673,-0.18983,0.0,2023,6,7,16,45,31,40
46.97010,-0.08225,-0.11795,0.00000,0.03001,0.97588,-0.18995,0.0,2023,6,7,16,45,31,52
46.97020,0.02275,0.24955,0.00000,0.03221,0.97868,-0.18471,0.0,2023,6,7,16,45,31,63
46.97030,0.00525,0.07455,0.00000,0.03111,0.97271,-0.18776,0.0,2023,6,7,16,45,31,75
46.97040,-0.16975,-0.10045,0.00000,0.03013,0.97527,-0.18947,0.0,2023,6,7,16,45,31,86
46.97050,-0.06475,-0.06545,0.00000,0.03172,0.97624,-0.19264,0.0,2023,6,7,16,45,31,97
46.97060,0.05775,-0.01295,0.00000,0.03026,0.97771,-0.18861,0.0,2023,6,7,16,45,31,109
46.97070,-0.13475,0.14455,0.00000,0.03123,0.97295,-0.18739,0.0,2023,6,7,16,45,31,120
46.97080,0.07525,0.10955,0.00000,0.03160,0.97734,-0.18800,0.0,2023,6,7,16,45,31,131
46.97090,-0.01225,-0.06545,0.00000,0.03123,0.97551,-0.18764,0.0,2023,6,7,16,45,31,143
46.97100,0.19775,-0.11795,0.00000,0.03209,0.97344,-0.18971,0.0,2023,6,7,16,45,31,154
46.97110,0.14525,-0.01295,0.00000,0.03160,0.97624,-0.18788,0.0,2023,6,7,16,45,31,165
46.97120,0.00525,-0.03045,0.00000,0.03087,0.98051,-0.18812,0.0,2023,6,7,16,45,31,177
46.97130,-0.08225,-0.20545,0.00000,0.03245,0.97429,-0.18690,0.0,2023,6,7,16,45,31,188
46.97140,0.00525,-0.10045,0.00000,0.02696,0.97454,-0.18837,0.0,2023,6,7,16,45,31,200
46.97150,-0.13475,0.07455,0.00000,0.03257,0.97417,-0.18886,0.0,2023,6,7,16,45,31,211
46.97160,0.07525,0.00455,0.00000,0.02806,0.97429,-0.18995,0.0,2023,6,7,16,45,31,222
46.97170,0.02275,-0.15295,0.00000,0.03160,0.97258,-0.18861,0.0,2023,6,7,16,45,31,234
46.97180,-0.08225,-0.08295,0.00000,0.03074,0.97673,-0.18654,0.0,2023,6,7,16,45,31,245
46.97190,0.02275,-0.04795,0.00000,0.03172,0.97441,-0.18861,0.0,2023,6,7,16,45,31,256
46.97200,0.14525,-0.24045,0.00000,0.03038,0.97746,-0.18764,0.0,2023,6,7,16,45,31,268
46.97210,-0.06475,0.12705,0.00000,0.03270,0.97466,-0.18617,0.0,2023,6,7,16,45,31,279
46.97220,0.25025,0.09205,0.00000,0.03099,0.97734,-0.18910,0.0,2023,6,7,16,45,31,290
46.97230,-0.06475,0.19705,0.00000,0.03221,0.97759,-0.18959,0.0,2023,6,7,16,45,31,302
46.97240,0.04025,-0.03045,0.00000,0.03160,0.97710,-0.18861,0.0,2023,6,7,16,45,31,313
46.97250,0.05775,-0.38045,0.00000,0.03062,0.97502,-0.19020,0.0,2023,6,7,16,45,31,324
46.97260,0.18025,-0.10045,0.00000,0.03001,0.97649,-0.18873,0.0,2023,6,7,16,45,31,336
46.97270,-0.15225,-0.10045,0.00000,0.03245,0.97515,-0.18617,0.0,2023,6,7,16,45,31,347
46.97280,0.04025,-0.01295,0.00000,0.03038,0.97551,-0.18837,0.0,2023,6,7,16,45,31,359
46.97290,-0.08225,-0.01295,0.00000,0.03184,0.97722,-0.18788,0.0,2023,6,7,16,45,31,370
46.97300,-0.29225,0.16205,0.00000,0.02757,0.97722,-0.18849,0.0,2023,6,7,16,45,31,381
46.97310,-0.02975,0.16205,0.00000,0.03038,0.97319,-0.18678,0.0,2023,6,7,16,45,32,-606
46.97320,-0.08225,-0.18795,0.00000,0.03196,0.97637,-0.18849,0.0,2023,6,7,16,45,32,-595
46.97330,-0.27475,0.12705,0.00000,0.03062,0.97734,-0.18995,0.0,2023,6,7,16,45,32,-584
46.97340,0.07525,0.00455,0.00000,0.03062,0.97600,-0.18947,0.0,2023,6,7,16,45,32,-572
46.97350,-0.01225,0.10955,0.00000,0.03050,0.97637,-0.18739,0.0,2023,6,7,16,45,32,-561
46.97360,-0.25725,0.07455,0.00000,0.03074,0.97807,-0.18959,0.0,2023,6,7,16,45,32,-550
46.97370,0.04025,-0.11795,0.00000,0.02989,0.97588,-0.18910,0.0,2023,6,7,16,45,32,-538
46.97380,-0.06475,0.07455,0.00000,0.03111,0.97612,-0.18739,0.0,2023,6,7,16,45,32,-527
46.97390,-0.02975,0.16205,0.00000,0.03172,0.97624,-0.19020,0.0,2023,6,7,16,45,32,-515
46.97400,0.12775,0.03955,0.00000,0.03074,0.97478,-0.18995,0.0,2023,6,7,16,45,32,-504
46.97410,0.07525,-0.04795,0.00000,0.03038,0.97429,-0.18764,0.0,2023,6,7,16,45,32,-493
46.97420,-0.25725,-0.01295,0.00000,0.03135,0.97576,-0.18764,0.0,2023,6,7,16,45,32,-481
46.97430,0.12775,-0.06545,0.00000,0.03001,0.97588,-0.18861,0.0,2023,6,7,16,45,32,-470
46.97440,-0.04725,0.14455,0.00000,0.03233,0.97563,-0.18678,0.0,2023,6,7,16,45,32,-459
46.97450,0.04025,0.23205,0.00000,0.03355,0.97722,-0.18959,0.0,2023,6,7,16,45,32,-447
46.97460,0.02275,0.17955,0.00000,0.03282,0.97405,-0.19105,0.0,2023,6,7,16,45,32,-436
46.97470,0.00525,-0.03045,0.00000,0.02965,0.97490,-0.18983,0.0,2023,6,7,16,45,32,-425
46.97480,0.12775,-0.20545,0.00000,0.03087,0.97588,-0.19093,0.0,2023,6,7,16,45,32,-413
46.97490,0.16275,0.09205,0.00000,0.03062,0.97515,-0.18922,0.0,2023,6,7,16,45,32,-402
46.97500,-0.09975,0.26705,0.00000,0.03343,0.97454,-0.18825,0.0,2023,6,7,16,45,32,-391
46.97510,0.26775,-0.04795,0.00000,0.02989,0.97746,-0.19008,0.0,2023,6,7,16,45,32,-379
46.97520,0.09275,0.02205,0.00000,0.03074,0.97673,-0.19081,0.0,2023,6,7,16,45,32,-368
46.97530,-0.11725,0.03955,0.00000,0.03123,0.97698,-0.18898,0.0,2023,6,7,16,45,32,-356
46.97540,0.04025,-0.13545,0.00000,0.03111,0.97356,-0.18959,0.0,2023,6,7,16,45,32,-345
46.97550,-0.09975,-0.06545,0.00000,0.03172,0.97441,-0.18812,0.0,2023,6,7,16,45,32,-334
46.97560,-0.04725,0.26705,0.00000,0.03074,0.97624,-0.19191,0.0,2023,6,7,16,45,32,-322
46.97570,0.04025,-0.06545,0.00000,0.03209,0.97746,-0.18849,0.0,2023,6,7,16,45,32,-311
46.97580,-0.02975,0.10955,0.00000,0.03148,0.97649,-0.18800,0.0,2023,6,7,16,45,32,-300
46.97590,0.07525,0.02205,0.00000,0.03160,0.97527,-0.19093,0.0,2023,6,7,16,45,32,-288
46.97600,0.00525,-0.10045,0.00000,0.03001,0.97612,-0.19056,0.0,2023,6,7,16,45,32,-277
46.97610,-0.08225,-0.04795,0.00000,0.03111,0.97527,-0.19105,0.0,2023,6,7,16,45,32,-266
46.97620,-0.02975,-0.04795,0.00000,0.03099,0.97649,-0.18922,0.0,2023,6,7,16,45,32,-254
46.97630,-0.04725,0.02205,0.00000,0.03172,0.97515,-0.18922,0.0,2023,6,7,16,45,32,-243
46.97640,0.04025,-0.03045,0.00000,0.02989,0.97588,-0.18910,0.0,2023,6,7,16,45,32,-231
46.97650,0.00525,0.16205,0.00000,0.03026,0.97539,-0.18727,0.0,2023,6,7,16,45,32,-220
46.97660,-0.09975,0.05705,0.00000,0.02952,0.97515,-0.18861,0.0,2023,6,7,16,45,32,-209
46.97670,0.02275,-0.03045,0.00000,0.03074,0.97685,-0.18947,0.0,2023,6,7,16,45,32,-197
46.97680,-0.13475,0.07455,0.00000,0.03221,0.97454,-0.18642,0.0,2023,6,7,16,45,32,-186
46.97690,0.05775,-0.08295,0.00000,0.03270,0.97612,-0.19154,0.0,2023,6,7,16,45,32,-175
46.97700,0.02275,-0.04795,0.00000,0.03038,0.97539,-0.19008,0.0,2023,6,7,16,45,32,-163
46.97710,-0.02975,-0.15295,0.00000,0.03062,0.97734,-0.18983,0.0,2023,6,7,16,45,32,-152
46.97720,0.04025,-0.01295,0.00000,0.03172,0.97661,-0.18642,0.0,2023,6,7,16,45,32,-141
46.97730,-0.04725,0.16205,0.00000,0.03221,0.97771,-0.19081,0.0,2023,6,7,16,45,32,-129
46.97740,0.02275,0.09205,0.00000,0.03074,0.97551,-0.18825,0.0,2023,6,7,16,45,32,-118
46.97750,0.04025,0.00455,0.00000,0.03062,0.97405,-0.18947,0.0,2023,6,7,16,45,32,-107
46.97760,-0.22225,0.10955,0.00000,0.03160,0.97746,-0.19215,0.0,2023,6,7,16,45,32,-95
46.97770,0.11025,-0.08295,0.00000,0.03001,0.97710,-0.18788,0.0,2023,6,7,16,45,32,-84
46.97780,-0.22225,0.14455,0.00000,0.03074,0.97624,-0.18873,0.0,2023,6,7,16,45,32,-72
46.97790,0.25025,0.02205,0.00000,0.03038,0.97466,-0.19093,0.0,2023,6,7,16,45,32,-61
46.97800,0.12775,-0.13545,0.00000,0.03026,0.97844,-0.18593,0.0,2023,6,7,16,45,32,-50
46.97810,0.00525,0.00455,0.00000,0.03099,0.97929,-0.18812,0.0,2023,6,7,16,45,32,-38
46.97820,-0.02975,-0.04795,0.00000,0.03099,0.97490,-0.19008,0.0,2023,6,7,16,45,32,-27
46.97830,0.07525,0.05705,0.00000,0.03087,0.97551,-0.18922,0.0,2023,6,7,16,45,32,-16
46.97840,0.00525,0.02205,0.00000,0.03013,0.97454,-0.19008,0.0,2023,6,7,16,45,32,-4
46.97850,0.33775,-0.17045,0.00000,0.02891,0.97600,-0.18934,0.0,2023,6,7,16,45,32,6
46.97860,-0.06475,-0.08295,0.00000,0.03148,0.97344,-0.18776,0.0,2023,6,7,16,45,32,17
46.97870,-0.01225,-0.13545,0.00000,0.03233,0.97515,-0.18776,0.0,2023,6,7,16,45,32,29
46.97880,0.04025,-0.06545,0.00000,0.03062,0.97685,-0.18812,0.0,2023,6,7,16,45,32,40
46.97890,-0.01225,-0.20545,0.00000,0.03026,0.98015,-0.18825,0.0,2023,6,7,16,45,32,52
46.97900,0.09275,0.00455,0.00000,0.03245,0.97368,-0.18837,0.0,2023,6,7,16,45,32,63
46.97910,0.02275,-0.10045,0.00000,0.02952,0.97734,-0.18837,0.0,2023,6,7,16,45,32,74
46.97920,-0.02975,0.10955,0.00000,0.02794,0.97393,-0.18910,0.0,2023,6,7,16,45,32,86
46.97930,-0.08225,-0.17045,0.00000,0.02977,0.97502,-0.18983,0.0,2023,6,7,16,45,32,97
46.97940,0.00525,-0.01295,0.00000,0.03233,0.97539,-0.18873,0.0,2023,6,7,16,45,32,108
46.97950,0.05775,-0.08295,0.00000,0.03062,0.97490,-0.19032,0.0,2023,6,7,16,45,32,120
46.97960,-0.01225,-0.10045,0.00000,0.03160,0.97563,-0.18654,0.0,2023,6,7,16,45,32,131
46.97970,0.00525,0.03955,0.00000,0.03343,0.97783,-0.18690,0.0,2023,6,7,16,45,32,142
46.97980,0.02275,-0.08295,0.00000,0.02891,0.97539,-0.18910,0.0,2023,6,7,16,45,32,154
46.97990,-0.13475,0.03955,0.00000,0.03257,0.97624,-0.18837,0.0,2023,6,7,16,45,32,165
46.98000,0.04025,-0.06545,0.00000,0.03160,0.97527,-0.18873,0.0,2023,6,7,16,45,32,176
46.98010,0.19775,-0.04795,0.00000,0.02940,0.97515,-0.18739,0.0,2023,6,7,16,45,32,188
46.98020,-0.09975,0.07455,0.00000,0.03135,0.97685,-0.18837,0.0,2023,6,7,16,45,32,199
46.98030,-0.08225,0.10955,0.00000,0.03013,0.97710,-0.18873,0.0,2023,6,7,16,45,32,211
46.98040,0.00525,0.14455,0.00000,0.03257,0.97832,-0.18800,0.0,2023,6,7,16,45,32,222
46.98050,0.11025,-0.01295,0.00000,0.03257,0.97563,-0.18788,0.0,2023,6,7,16,45,32,233
46.98060,-0.16975,0.07455,0.00000,0.03013,0.97673,-0.18751,0.0,2023,6,7,16,45,32,245
46.98070,-0.02975,0.07455,0.00000,0.03111,0.97539,-0.18751,0.0,2023,6,7,16,45,32,256
46.98080,0.05775,-0.08295,0.00000,0.03050,0.97820,-0.18812,0.0,2023,6,7,16,45,32,267
46.98090,-0.11725,0.05705,0.00000,0.03270,0.97685,-0.18715,0.0,2023,6,7,16,45,32,279
46.98100,0.16275,-0.29295,0.00000,0.03111,0.97783,-0.18837,0.0,2023,6,7,16,45,32,290
46.98110,0.14525,0.07455,0.00000,0.02891,0.97673,-0.18898,0.0,2023,6,7,16,45,32,301
46.98120,-0.02975,0.09205,0.00000,0.03282,0.97539,-0.18983,0.0,2023,6,7,16,45,32,313
46.98130,-0.18725,-0.06545,0.00000,0.03184,0.97661,-0.18593,0.0,2023,6,7,16,45,32,324
46.98140,-0.02975,-0.08295,0.00000,0.03282,0.97685,-0.18983,0.0,2023,6,7,16,45,32,336
46.98150,0.12775,-0.03045,0.00000,0.03087,0.97612,-0.18947,0.0,2023,6,7,16,45,32,347
46.98160,-0.09975,0.10955,0.00000,0.03026,0.97710,-0.18605,0.0,2023,6,7,16,45,32,358
46.98170,-0.04725,-0.06545,0.00000,0.03172,0.97612,-0.18983,0.0,2023,6,7,16,45,32,370
46.98180,0.05775,0.28455,0.00000,0.03074,0.97539,-0.19056,0.0,2023,6,7,16,45,32,381
46.98190,0.00525,-0.04795,0.00000,0.03062,0.97600,-0.18849,0.0,2023,6,7,16,45,32,392
46.98200,-0.04725,0.16205,0.00000,0.03111,0.97710,-0.18751,0.0,2023,6,7,16,45,32,404
46.98210,0.02275,-0.06545,0.00000,0.03209,0.97502,-0.18642,0.0,2023,6,7,16,45,32,415
46.98220,-0.09975,0.10955,0.00000,0.03294,0.97502,-0.18739,0.0,2023,6,7,16,45,33,-573
46.98230,0.25025,-0.18795,0.00000,0.03099,0.97844,-0.18983,0.0,2023,6,7,16,45,33,-561
46.98240,-0.04725,0.10955,0.00000,0.02965,0.97685,-0.18739,0.0,2023,6,7,16,45,33,-550
46.98250,-0.11725,-0.08295,0.00000,0.03184,0.97710,-0.18800,0.0,2023,6,7,16,45,33,-539
46.98260,-0.01225,0.14455,0.00000,0.02965,0.97588,-0.18739,0.0,2023,6,7,16,45,33,-527
46.98270,0.05775,0.03955,0.00000,0.03148,0.97685,-0.19130,0.0,2023,6,7,16,45,33,-516
46.98280,0.14525,-0.06545,0.00000,0.03050,0.97600,-0.18898,0.0,2023,6,7,16,45,33,-504
46.98290,0.00525,-0.03045,0.00000,0.03111,0.97771,-0.18837,0.0,2023,6,7,16,45,33,-493
46.98300,0.25025,-0.15295,0.00000,0.02928,0.97722,-0.18971,0.0,2023,6,7,16,45,33,-482
46.98310,0.11025,-0.06545,0.00000,0.03123,0.97576,-0.19044,0.0,2023,6,7,16,45,33,-470
46.98320,-0.02975,0.16205,0.00000,0.03233,0.97515,-0.18800,0.0,2023,6,7,16,45,33,-459
46.98330,-0.02975,-0.06545,0.00000,0.03160,0.97807,-0.18812,0.0,2023,6,7,16,45,33,-448
46.98340,0.07525,-0.06545,0.00000,0.03270,0.97588,-0.19044,0.0,2023,6,7,16,45,33,-436
46.98350,-0.01225,0.12705,0.00000,0.02977,0.97856,-0.18678,0.0,2023,6,7,16,45,33,-425
46.98360,0.21525,-0.06545,0.00000,0.02855,0.97624,-0.19081,0.0,2023,6,7,16,45,33,-414
46.98370,-0.01225,0.09205,0.00000,0.03282,0.97746,-0.18947,0.0,2023,6,7,16,45,33,-402
46.98380,0.05775,-0.27545,0.00000,0.03270,0.97722,-0.18873,0.0,2023,6,7,16,45,33,-391
46.98390,0.07525,-0.01295,0.00000,0.03038,0.97893,-0.18849,0.0,2023,6,7,16,45,33,-379
46.98400,0.12775,0.03955,0.00000,0.03135,0.97698,-0.18959,0.0,2023,6,7,16,45,33,-368
46.98410,-0.13475,0.10955,0.00000,0.03294,0.97649,-0.18788,0.0,2023,6,7,16,45,33,-357
46.98420,-0.06475,0.00455,0.00000,0.03013,0.97807,-0.18922,0.0,2023,6,7,16,45,33,-345
46.98430,0.33775,0.02205,0.00000,0.03111,0.97990,-0.18898,0.0,2023,6,7,16,45,33,-334
46.98440,-0.13475,0.03955,0.00000,0.03099,0.97417,-0.18593,0.0,2023,6,7,16,45,33,-323
46.98450,-0.01225,-0.01295,0.00000,0.03001,0.97637,-0.19056,0.0,2023,6,7,16,45,33,-311
46.98460,-0.01225,0.00455,0.00000,0.03026,0.97710,-0.18776,0.0,2023,6,7,16,45,33,-300
46.98470,-0.01225,-0.10045,0.00000,0.03001,0.97478,-0.18776,0.0,2023,6,7,16,45,33,-289
46.98480,0.26775,-0.15295,0.00000,0.02940,0.97905,-0.18873,0.0,2023,6,7,16,45,33,-277
46.98490,0.05775,-0.06545,0.00000,0.03050,0.97893,-0.18959,0.0,2023,6,7,16,45,33,-266
46.98500,-0.08225,0.07455,0.00000,0.03257,0.97722,-0.18922,0.0,2023,6,7,16,45,33,-255
46.98510,-0.11725,0.00455,0.00000,0.03294,0.97624,-0.18727,0.0,2023,6,7,16,45,33,-243
46.98520,-0.01225,0.07455,0.00000,0.03209,0.97612,-0.18849,0.0,2023,6,7,16,45,33,-232
46.98530,0.05775,-0.24045,0.00000,0.03257,0.97661,-0.18910,0.0,2023,6,7,16,45,33,-220
46.98540,0.00525,-0.13545,0.00000,0.03038,0.97734,-0.18898,0.0,2023,6,7,16,45,33,-209
46.98550,0.07525,0.16205,0.00000,0.02867,0.97429,-0.18910,0.0,2023,6,7,16,45,33,-198
46.98560,0.02275,0.02205,0.00000,0.03294,0.97685,-0.18837,0.0,2023,6,7,16,45,33,-186
46.98570,0.07525,-0.24045,0.00000,0.03026,0.97551,-0.18617,0.0,2023,6,7,16,45,33,-175
46.98580,-0.06475,0.03955,0.00000,0.03221,0.97563,-0.19044,0.0,2023,6,7,16,45,33,-164
46.98590,0.09275,-0.17045,0.00000,0.02952,0.97539,-0.18886,0.0,2023,6,7,16,45,33,-152
46.98600,-0.22225,0.10955,0.00000,0.03245,0.97661,-0.18776,0.0,2023,6,7,16,45,33,-141
46.98610,-0.09975,0.07455,0.00000,0.03270,0.97637,-0.19056,0.0,2023,6,7,16,45,33,-130
46.98620,0.14525,-0.06545,0.00000,0.02916,0.97710,-0.19069,0.0,2023,6,7,16,45,33,-118
46.98630,0.02275,-0.06545,0.00000,0.03062,0.97563,-0.18666,0.0,2023,6,7,16,45,33,-107
46.98640,0.00525,-0.01295,0.00000,0.02965,0.97746,-0.18898,0.0,2023,6,7,16,45,33,-95
46.98650,0.14525,-0.04795,0.00000,0.02952,0.97405,-0.18947,0.0,2023,6,7,16,45,33,-84
46.98660,-0.08225,-0.01295,0.00000,0.03233,0.97844,-0.18471,0.0,2023,6,7,16,45,33,-73
46.98670,-0.02975,0.03955,0.00000,0.03135,0.97563,-0.18959,0.0,2023,6,7,16,45,33,-61
46.98680,0.21525,-0.17045,0.00000,0.03013,0.97722,-0.19008,0.0,2023,6,7,16,45,33,-50
46.98690,-0.13475,0.03955,0.00000,0.03257,0.97393,-0.19008,0.0,2023,6,7,16,45,33,-39
46.98700,-0.01225,-0.01295,0.00000,0.03038,0.97820,-0.19020,0.0,2023,6,7,16,45,33,-27
46.98710,0.23275,-0.08295,0.00000,0.03001,0.97637,-0.19008,0.0,2023,6,7,16,45,33,-16
46.98720,-0.09975,-0.01295,0.00000,0.02830,0.97429,-0.19032,0.0,2023,6,7,16,45,33,-5
46.98730,-0.04725,-0.06545,0.00000,0.03099,0.97722,-0.18629,0.0,2023,6,7,16,45,33,6
46.98740,0.00525,-0.18795,0.00000,0.03123,0.97515,-0.18983,0.0,2023,6,7,16,45,33,17
46.98750,-0.04725,-0.01295,0.00000,0.03160,0.97515,-0.18739,0.0,2023,6,7,16,45,33,28
46.98760,0.00525,-0.04795,0.00000,0.03148,0.97844,-0.18971,0.0,2023,6,7,16,45,33,40
46.98770,0.14525,0.00455,0.00000,0.03074,0.97502,-0.18947,0.0,2023,6,7,16,45,33,51
46.98780,-0.23975,-0.01295,0.00000,0.03050,0.97454,-0.19093,0.0,2023,6,7,16,45,33,63
46.98790,-0.01225,-0.01295,0.00000,0.03270,0.97551,-0.18861,0.0,2023,6,7,16,45,33,74
46.98800,0.05775,0.00455,0.00000,0.03001,0.97600,-0.18934,0.0,2023,6,7,16,45,33,85
46.98810,-0.20475,0.21455,0.00000,0.03306,0.97673,-0.19069,0.0,2023,6,7,16,45,33,97
46.98820,0.21525,-0.10045,0.00000,0.02830,0.97637,-0.18947,0.0,2023,6,7,16,45,33,108
46.98830,0.07525,0.03955,0.00000,0.03172,0.97685,-0.19130,0.0,2023,6,7,16,45,33,119
46.98840,0.16275,0.16205,0.00000,0.03160,0.97527,-0.19020,0.0,2023,6,7,16,45,33,131
46.98850,0.23275,-0.29295,0.00000,0.03209,0.97576,-0.18800,0.0,2023,6,7,16,45,33,142
46.98860,-0.11725,0.19705,0.00000,0.02855,0.97722,-0.18983,0.0,2023,6,7,16,45,33,153
46.98870,-0.22225,0.07455,0.00000,0.03074,0.97576,-0.18995,0.0,2023,6,7,16,45,33,165
46.98880,-0.08225,0.16205,0.00000,0.03087,0.97539,-0.18739,0.0,2023,6,7,16,45,33,176
46.98890,-0.09975,-0.27545,0.00000,0.03050,0.97685,-0.18910,0.0,2023,6,7,16,45,33,188
46.98900,0.04025,-0.11795,0.00000,0.03050,0.97771,-0.18910,0.0,2023,6,7,16,45,33,199
46.98910,-0.06475,0.07455,0.00000,0.03013,0.97710,-0.18812,0.0,2023,6,7,16,45,33,210
46.98920,0.00525,0.09205,0.00000,0.03233,0.97759,-0.18812,0.0,2023,6,7,16,45,33,222
46.98930,-0.18725,0.14455,0.00000,0.02940,0.97832,-0.18922,0.0,2023,6,7,16,45,33,233
46.98940,0.11025,-0.03045,0.00000,0.03111,0.97795,-0.18751,0.0,2023,6,7,16,45,33,244
46.98950,-0.08225,-0.03045,0.00000,0.03172,0.97429,-0.18849,0.0,2023,6,7,16,45,33,256
46.98960,0.07525,0.07455,0.00000,0.02879,0.97710,-0.19276,0.0,2023,6,7,16,45,33,267
46.98970,-0.01225,-0.06545,0.00000,0.03111,0.97454,-0.18690,0.0,2023,6,7,16,45,33,278
46.98980,-0.08225,0.10955,0.00000,0.03160,0.97588,-0.18922,0.0,2023,6,7,16,45,33,290
46.98990,0.25025,-0.01295,0.00000,0.02940,0.97673,-0.18873,0.0,2023,6,7,16,45,33,301
46.99000,-0.16975,0.03955,0.00000,0.03111,0.97600,-0.18825,0.0,2023,6,7,16,45,33,312
46.99010,0.07525,0.09205,0.00000,0.03062,0.97685,-0.18703,0.0,2023,6,7,16,45,33,324
46.99020,0.00525,-0.17045,0.00000,0.03282,0.97588,-0.18739,0.0,2023,6,7,16,45,33,335
46.99030,-0.02975,0.02205,0.00000,0.03001,0.97698,-0.18642,0.0,2023,6,7,16,45,33,347
46.99040,-0.15225,0.17955,0.00000,0.02989,0.97637,-0.18898,0.0,2023,6,7,16,45,33,358
46.99050,-0.16975,0.00455,0.00000,0.03050,0.97685,-0.18995,0.0,2023,6,7,16,45,33,369
46.99060,-0.08225,0.17955,0.00000,0.02904,0.97771,-0.18861,0.0,2023,6,7,16,45,33,381
46.99070,-0.11725,0.00455,0.00000,0.03001,0.97588,-0.18703,0.0,2023,6,7,16,45,33,392
46.99080,0.14525,-0.10045,0.00000,0.03038,0.97698,-0.18593,0.0,2023,6,7,16,45,33,403
46.99090,0.02275,-0.20545,0.00000,0.03257,0.97454,-0.18861,0.0,2023,6,7,16,45,33,415
46.99100,-0.13475,0.23205,0.00000,0.03331,0.97649,-0.18995,0.0,2023,6,7,16,45,33,426
46.99110,-0.13475,0.05705,0.00000,0.03123,0.97515,-0.19142,0.0,2023,6,7,16,45,33,437
46.99120,0.12775,0.07455,0.00000,0.02928,0.97746,-0.19008,0.0,2023,6,7,16,45,34,-550
46.99130,0.12775,-0.15295,0.00000,0.03062,0.97807,-0.18959,0.0,2023,6,7,16,45,34,-539
46.99140,-0.13475,0.03955,0.00000,0.03135,0.97637,-0.18971,0.0,2023,6,7,16,45,34,-527
46.99150,0.00525,-0.03045,0.00000,0.03123,0.97368,-0.18678,0.0,2023,6,7,16,45,34,-516
46.99160,0.07525,-0.18795,0.00000,0.03001,0.97649,-0.19008,0.0,2023,6,7,16,45,34,-505
46.99170,0.14525,0.02205,0.00000,0.03087,0.97515,-0.19020,0.0,2023,6,7,16,45,34,-493
46.99180,0.04025,0.09205,0.00000,0.03087,0.97710,-0.18678,0.0,2023,6,7,16,45,34,-482
46.99190,-0.15225,0.10955,0.00000,0.03013,0.97612,-0.18556,0.0,2023,6,7,16,45,34,-471
46.99200,0.18025,0.02205,0.00000,0.03148,0.97734,-0.19020,0.0,2023,6,7,16,45,34,-459
46.99210,-0.23975,-0.11795,0.00000,0.03196,0.97332,-0.18800,0.0,2023,6,7,16,45,34,-448
46.99220,-0.15225,0.09205,0.00000,0.02855,0.97624,-0.18751,0.0,2023,6,7,16,45,34,-437
46.99230,0.07525,-0.15295,0.00000,0.03001,0.97868,-0.19105,0.0,2023,6,7,16,45,34,-425
46.99240,-0.08225,0.10955,0.00000,0.03099,0.97588,-0.18898,0.0,2023,6,7,16,45,34,-414
46.99250,-0.18725,0.19705,0.00000,0.03111,0.97478,-0.18873,0.0,2023,6,7,16,45,34,-403
46.99260,-0.11725,-0.03045,0.00000,0.02855,0.97783,-0.18837,0.0,2023,6,7,16,45,34,-391
46.99270,0.04025,-0.10045,0.00000,0.02928,0.97722,-0.18995,0.0,2023,6,7,16,45,34,-380
46.99280,0.14525,-0.01295,0.00000,0.03099,0.97539,-0.19081,0.0,2023,6,7,16,45,34,-368
46.99290,0.18025,-0.04795,0.00000,0.03148,0.97637,-0.18629,0.0,2023,6,7,16,45,34,-357
46.99300,-0.02975,-0.11795,0.00000,0.03270,0.97478,-0.18739,0.0,2023,6,7,16,45,34,-346
46.99310,-0.18725,0.23205,0.00000,0.03050,0.97551,-0.18629,0.0,2023,6,7,16,45,34,-334
46.99320,0.25025,-0.13545,0.00000,0.03135,0.97417,-0.18959,0.0,2023,6,7,16,45,34,-323
46.99330,-0.01225,0.05705,0.00000,0.03209,0.97441,-0.18971,0.0,2023,6,7,16,45,34,-312
46.99340,-0.08225,0.03955,0.00000,0.02989,0.97429,-0.18739,0.0,2023,6,7,16,45,34,-300
46.99350,-0.09975,-0.13545,0.00000,0.03257,0.97393,-0.18788,0.0,2023,6,7,16,45,34,-289
46.99360,0.04025,0.03955,0.00000,0.03111,0.97710,-0.18934,0.0,2023,6,7,16,45,34,-278
46.99370,0.07525,0.03955,0.00000,0.03270,0.97734,-0.19056,0.0,2023,6,7,16,45,34,-266
46.99380,-0.13475,0.10955,0.00000,0.03404,0.97710,-0.18788,0.0,2023,6,7,16,45,34,-255
46.99390,-0.08225,0.07455,0.00000,0.03172,0.97698,-0.19008,0.0,2023,6,7,16,45,34,-243
46.99400,0.25025,-0.01295,0.00000,0.03257,0.97515,-0.19264,0.0,2023,6,7,16,45,34,-232
46.99410,-0.04725,0.00455,0.00000,0.03160,0.97502,-0.18764,0.0,2023,6,7,16,45,34,-221
46.99420,0.09275,0.12705,0.00000,0.02965,0.97515,-0.19020,0.0,2023,6,7,16,45,34,-209
46.99430,-0.08225,0.10955,0.00000,0.03062,0.97942,-0.19044,0.0,2023,6,7,16,45,34,-198
46.99440,0.02275,0.03955,0.00000,0.03135,0.97783,-0.19008,0.0,2023,6,7,16,45,34,-187
46.99450,-0.09975,0.31955,0.00000,0.03087,0.97893,-0.18825,0.0,2023,6,7,16,45,34,-175
46.99460,0.05775,0.03955,0.00000,0.03148,0.97600,-0.18776,0.0,2023,6,7,16,45,34,-164
46.99470,0.07525,0.12705,0.00000,0.03013,0.97661,-0.18910,0.0,2023,6,7,16,45,34,-153
46.99480,-0.01225,-0.04795,0.00000,0.03135,0.97600,-0.18812,0.0,2023,6,7,16,45,34,-141
46.99490,0.09275,-0.15295,0.00000,0.02916,0.97759,-0.18837,0.0,2023,6,7,16,45,34,-130
46.99500,-0.02975,-0.03045,0.00000,0.03074,0.97734,-0.18947,0.0,2023,6,7,16,45,34,-119
46.99510,0.00525,-0.46795,0.00000,0.03148,0.97563,-0.18849,0.0,2023,6,7,16,45,34,-107
46.99520,0.25025,0.00455,0.00000,0.03282,0.97539,-0.18898,0.0,2023,6,7,16,45,34,-96
46.99530,-0.08225,0.07455,0.00000,0.02952,0.97417,-0.18861,0.0,2023,6,7,16,45,34,-84
46.99540,-0.08225,0.02205,0.00000,0.03062,0.97624,-0.18751,0.0,2023,6,7,16,45,34,-73
46.99550,0.00525,0.00455,0.00000,0.03111,0.97820,-0.18715,0.0,2023,6,7,16,45,34,-62
46.99560,0.12775,-0.03045,0.00000,0.02855,0.97649,-0.18886,0.0,2023,6,7,16,45,34,-50
46.99570,-0.02975,0.03955,0.00000,0.03294,0.97710,-0.18947,0.0,2023,6,7,16,45,34,-39
46.99580,0.02275,0.07455,0.00000,0.03221,0.97356,-0.18666,0.0,2023,6,7,16,45,34,-28
46.99590,0.14525,-0.01295,0.00000,0.03123,0.97685,-0.18886,0.0,2023,6,7,16,45,34,-16
46.99600,0.04025,-0.01295,0.00000,0.03038,0.97490,-0.19056,0.0,2023,6,7,16,45,34,-5
46.99610,-0.09975,0.03955,0.00000,0.02867,0.97478,-0.18861,0.0,2023,6,7,16,45,34,5
46.99620,-0.09975,0.09205,0.00000,0.03245,0.97588,-0.18947,0.0,2023,6,7,16,45,34,17
46.99630,0.04025,0.10955,0.00000,0.03160,0.97612,-0.18739,0.0,2023,6,7,16,45,34,28
46.99640,-0.01225,0.24955,0.00000,0.02977,0.97527,-0.19032,0.0,2023,6,7,16,45,34,40
46.99650,0.04025,-0.15295,0.00000,0.03062,0.97478,-0.18849,0.0,2023,6,7,16,45,34,51
46.99660,0.07525,0.02205,0.00000,0.03026,0.97649,-0.18812,0.0,2023,6,7,16,45,34,62
46.99670,0.07525,0.02205,0.00000,0.03172,0.97685,-0.18886,0.0,2023,6,7,16,45,34,74
46.99680,0.04025,0.03955,0.00000,0.02916,0.97734,-0.18678,0.0,2023,6,7,16,45,34,85
46.99690,-0.13475,-0.01295,0.00000,0.03013,0.97759,-0.19044,0.0,2023,6,7,16,45,34,96
46.99700,0.09275,-0.01295,0.00000,0.03074,0.97624,-0.18886,0.0,2023,6,7,16,45,34,108
46.99710,-0.08225,-0.10045,0.00000,0.03184,0.97637,-0.19032,0.0,2023,6,7,16,45,34,119
46.99720,0.05775,0.00455,0.00000,0.03318,0.97905,-0.18983,0.0,2023,6,7,16,45,34,130
46.99730,-0.15225,0.10955,0.00000,0.03306,0.97661,-0.18788,0.0,2023,6,7,16,45,34,142
46.99740,-0.06475,-0.13545,0.00000,0.03184,0.97673,-0.18983,0.0,2023,6,7,16,45,34,153
46.99750,0.02275,0.02205,0.00000,0.03001,0.97441,-0.18873,0.0,2023,6,7,16,45,34,164
46.99760,-0.08225,-0.03045,0.00000,0.03062,0.97820,-0.19130,0.0,2023,6,7,16,45,34,176
46.99770,0.12775,-0.13545,0.00000,0.03074,0.97771,-0.19044,0.0,2023,6,7,16,45,34,187
46.99780,0.18025,-0.15295,0.00000,0.02891,0.97820,-0.19056,0.0,2023,6,7,16,45,34,199
46.99790,0.12775,0.05705,0.00000,0.03209,0.97661,-0.18812,0.0,2023,6,7,16,45,34,210
46.99800,-0.09975,0.03955,0.00000,0.03135,0.97771,-0.19178,0.0,2023,6,7,16,45,34,221
46.99810,0.18025,0.12705,0.00000,0.03111,0.97673,-0.18825,0.0,2023,6,7,16,45,34,233
46.99820,-0.11725,0.07455,0.00000,0.02916,0.97515,-0.18751,0.0,2023,6,7,16,45,34,244
46.99830,0.02275,-0.18795,0.00000,0.03038,0.97649,-0.18837,0.0,2023,6,7,16,45,34,255
46.99840,-0.01225,0.03955,0.00000,0.02952,0.97637,-0.18995,0.0,2023,6,7,16,45,34,267
46.99850,0.02275,0.17955,0.00000,0.03062,0.97539,-0.18910,0.0,2023,6,7,16,45,34,278
46.99860,-0.13475,0.09205,0.00000,0.03172,0.97783,-0.18678,0.0,2023,6,7,16,45,34,289
46.99870,0.02275,0.12705,0.00000,0.03172,0.97515,-0.18947,0.0,2023,6,7,16,45,34,301
46.99880,0.00525,0.09205,0.00000,0.03099,0.97417,-0.19239,0.0,2023,6,7,16,45,34,312
46.99890,-0.08225,0.00455,0.00000,0.03160,0.97527,-0.18910,0.0,2023,6,7,16,45,34,324
46.99900,-0.04725,-0.18795,0.00000,0.03062,0.97649,-0.19154,0.0,2023,6,7,16,45,34,335
46.99910,-0.13475,0.02205,0.00000,0.03135,0.97624,-0.19056,0.0,2023,6,7,16,45,34,346
46.99920,0.11025,0.12705,0.00000,0.03282,0.97466,-0.19032,0.0,2023,6,7,16,45,34,358
46.99930,0.07525,-0.04795,0.00000,0.03087,0.97624,-0.18995,0.0,2023,6,7,16,45,34,369
46.99940,0.14525,0.07455,0.00000,0.02952,0.97698,-0.19069,0.0,2023,6,7,16,45,34,380
46.99950,-0.04725,-0.15295,0.00000,0.02940,0.97673,-0.19020,0.0,2023,6,7,16,45,34,392
46.99960,-0.04725,0.05705,0.00000,0.03196,0.97661,-0.18886,0.0,2023,6,7,16,45,34,403
46.99970,0.04025,0.09205,0.00000,0.02989,0.97515,-0.19044,0.0,2023,6,7,16,45,34,414
46.99980,-0.04725,0.12705,0.00000,0.03404,0.97612,-0.18995,0.0,2023,6,7,16,45,34,426
46.99990,-0.08225,0.09205,0.00000,0.03001,0.97454,-0.18971,0.0,2023,6,7,16,45,34,437
47.00000,-0.06475,0.00455,0.00000,0.03001,0.97759,-0.19105,0.0,2023,6,7,16,45,34,448
47.00010,-0.20475,0.03955,0.00000,0.02977,0.97795,-0.19130,0.0,2023,6,7,16,45,34,460
47.00020,0.00525,0.03955,0.00000,0.03062,0.97942,-0.18959,0.0,2023,6,7,16,45,34,471
47.00030,-0.09975,-0.08295,0.00000,0.02940,0.97637,-0.19093,0.0,2023,6,7,16,45,35,-516
47.00040,-0.09975,0.00455,0.00000,0.02952,0.97637,-0.19142,0.0,2023,6,7,16,45,35,-505
47.00050,0.14525,0.00455,0.00000,0.03160,0.97368,-0.18983,0.0,2023,6,7,16,45,35,-494
47.00060,-0.04725,-0.01295,0.00000,0.03026,0.97649,-0.18800,0.0,2023,6,7,16,45,35,-482
47.00070,-0.15225,0.12705,0.00000,0.03196,0.97624,-0.18788,0.0,2023,6,7,16,45,35,-471
47.00080,-0.18725,0.02205,0.00000,0.02940,0.97856,-0.18983,0.0,2023,6,7,16,45,35,-460
#2023/06/07 16:45:35
