#2023/06/07 17:06:50
time,wx,wy,wz,ax,ay,az,yy,MM,dd,hh,mm,ss,ms
48.68300,0.01400,0.04165,0.00000,0.03172,0.97624,-0.19215,0.0,2023,6,7,17,6,51,4
48.68310,-0.17850,0.09415,0.00000,0.03245,0.97624,-0.18886,0.0,2023,6,7,17,6,51,16
48.68320,-0.02100,0.07665,0.00000,0.03038,0.97722,-0.18825,0.0,2023,6,7,17,6,51,27
48.68330,0.06650,0.12915,0.00000,0.03099,0.97722,-0.18776,0.0,2023,6,7,17,6,51,38
48.68340,0.13650,-0.22085,0.00000,0.03099,0.97844,-0.18995,0.0,2023,6,7,17,6,51,49
48.68350,-0.03850,-0.09835,0.00000,0.03123,0.97307,-0.19154,0.0,2023,6,7,17,6,51,60
48.68360,0.06650,0.12915,0.00000,0.03160,0.97649,-0.18751,0.0,2023,6,7,17,6,51,71
48.68370,0.15400,-0.08085,0.00000,0.03026,0.97637,-0.18861,0.0,2023,6,7,17,6,51,82
48.68380,0.01400,-0.13335,0.00000,0.03318,0.97820,-0.18861,0.0,2023,6,7,17,6,51,93
48.68390,-0.19600,0.04165,0.00000,0.03148,0.97612,-0.18642,0.0,2023,6,7,17,6,51,104
48.68400,0.10150,-0.20335,0.00000,0.03172,0.97624,-0.19117,0.0,2023,6,7,17,6,51,115
48.68410,-0.02100,0.05915,0.00000,0.03184,0.97539,-0.18800,0.0,2023,6,7,17,6,51,126
48.68420,-0.02100,0.26915,0.00000,0.03306,0.97673,-0.18642,0.0,2023,6,7,17,6,51,137
48.68430,-0.00350,0.02415,0.00000,0.02952,0.97685,-0.19069,0.0,2023,6,7,17,6,51,148
48.68440,0.24150,-0.06335,0.00000,0.03172,0.97588,-0.19142,0.0,2023,6,7,17,6,51,159
48.68450,0.13650,0.05915,0.00000,0.03148,0.97966,-0.18507,0.0,2023,6,7,17,6,51,170
48.68460,-0.23100,0.23415,0.00000,0.03270,0.97771,-0.18947,0.0,2023,6,7,17,6,51,181
48.68470,0.08400,-0.09835,0.00000,0.03221,0.97844,-0.18837,0.0,2023,6,7,17,6,51,192
48.68480,-0.09100,0.02415,0.00000,0.02977,0.97893,-0.18715,0.0,2023,6,7,17,6,51,203
48.68490,-0.05600,0.07665,0.00000,0.03087,0.97771,-0.18947,0.0,2023,6,7,17,6,51,214
48.68500,-0.03850,0.14665,0.00000,0.03001,0.97673,-0.18825,0.0,2023,6,7,17,6,51,225
48.68510,-0.00350,-0.27335,0.00000,0.03160,0.97527,-0.18642,0.0,2023,6,7,17,6,51,236
48.68520,0.01400,-0.01085,0.00000,0.02989,0.97673,-0.19008,0.0,2023,6,7,17,6,51,247
48.68530,0.25900,0.04165,0.00000,0.03111,0.97624,-0.19130,0.0,2023,6,7,17,6,51,258
48.68540,-0.07350,-0.08085,0.00000,0.03184,0.97478,-0.18898,0.0,2023,6,7,17,6,51,269
48.68550,-0.21350,-0.06335,0.00000,0.03196,0.97563,-0.18812,0.0,2023,6,7,17,6,51,280
48.68560,0.08400,-0.09835,0.00000,0.03282,0.97490,-0.19032,0.0,2023,6,7,17,6,51,291
48.68570,0.20650,0.04165,0.00000,0.03209,0.97600,-0.19008,0.0,2023,6,7,17,6,51,302
48.68580,0.11900,0.05915,0.00000,0.03038,0.97600,-0.19117,0.0,2023,6,7,17,6,51,313
48.68590,-0.05600,-0.16835,0.00000,0.03038,0.97612,-0.18812,0.0,2023,6,7,17,6,51,324
48.68600,0.06650,0.11165,0.00000,0.03013,0.97539,-0.18947,0.0,2023,6,7,17,6,51,335
48.68610,0.04900,0.18165,0.00000,0.03196,0.97795,-0.18934,0.0,2023,6,7,17,6,51,346
48.68620,-0.00350,0.04165,0.00000,0.02965,0.97710,-0.18971,0.0,2023,6,7,17,6,51,357
48.68630,0.04900,0.07665,0.00000,0.03209,0.97685,-0.18581,0.0,2023,6,7,17,6,51,368
48.68640,-0.00350,-0.02835,0.00000,0.03050,0.97649,-0.18764,0.0,2023,6,7,17,6,51,380
48.68650,0.04900,-0.16835,0.00000,0.03245,0.97515,-0.18873,0.0,2023,6,7,17,6,51,391
48.68660,0.03150,0.18165,0.00000,0.02977,0.97685,-0.18849,0.0,2023,6,7,17,6,51,402
48.68670,0.01400,0.07665,0.00000,0.02989,0.97685,-0.19154,0.0,2023,6,7,17,6,51,413
48.68680,0.06650,0.16415,0.00000,0.03587,0.97698,-0.19020,0.0,2023,6,7,17,6,51,424
48.68690,0.20650,-0.04585,0.00000,0.03074,0.97722,-0.18715,0.0,2023,6,7,17,6,51,435
48.68700,0.08400,0.00665,0.00000,0.03062,0.97698,-0.19056,0.0,2023,6,7,17,6,51,446
48.68710,-0.05600,0.02415,0.00000,0.03038,0.97734,-0.18947,0.0,2023,6,7,17,6,51,457
48.68720,-0.16100,0.00665,0.00000,0.02989,0.97807,-0.18959,0.0,2023,6,7,17,6,51,468
48.68730,-0.09100,-0.06335,0.00000,0.03062,0.97698,-0.18873,0.0,2023,6,7,17,6,51,479
48.68740,-0.05600,0.33915,0.00000,0.02989,0.97734,-0.18983,0.0,2023,6,7,17,6,51,490
48.68750,-0.03850,0.12915,0.00000,0.03062,0.97649,-0.19008,0.0,2023,6,7,17,6,51,501
48.68760,-0.02100,-0.23835,0.00000,0.03087,0.97624,-0.18788,0.0,2023,6,7,17,6,51,512
48.68770,-0.05600,-0.08085,0.00000,0.03123,0.97856,-0.18861,0.0,2023,6,7,17,6,51,523
48.68780,0.03150,0.05915,0.00000,0.03257,0.97893,-0.18837,0.0,2023,6,7,17,6,51,534
48.68790,0.17150,0.07665,0.00000,0.03172,0.97746,-0.18800,0.0,2023,6,7,17,6,51,545
48.68800,0.10150,-0.06335,0.00000,0.03013,0.97600,-0.18934,0.0,2023,6,7,17,6,51,556
48.68810,-0.02100,-0.06335,0.00000,0.03184,0.97685,-0.18837,0.0,2023,6,7,17,6,51,567
48.68820,0.04900,-0.02835,0.00000,0.03245,0.97624,-0.18776,0.0,2023,6,7,17,6,51,578
48.68830,0.04900,0.18165,0.00000,0.03160,0.97673,-0.18959,0.0,2023,6,7,17,6,51,589
48.68840,-0.03850,-0.08085,0.00000,0.03123,0.97759,-0.19154,0.0,2023,6,7,17,6,51,600
48.68850,0.11900,0.19915,0.00000,0.03245,0.97649,-0.19081,0.0,2023,6,7,17,6,51,611
48.68860,0.01400,0.09415,0.00000,0.03245,0.97539,-0.18825,0.0,2023,6,7,17,6,51,622
48.68870,0.01400,-0.06335,0.00000,0.02952,0.97710,-0.19264,0.0,2023,6,7,17,6,51,633
48.68880,-0.14350,0.18165,0.00000,0.03245,0.97466,-0.19203,0.0,2023,6,7,17,6,51,644
48.68890,0.10150,0.05915,0.00000,0.03233,0.97490,-0.18959,0.0,2023,6,7,17,6,51,655
48.68900,-0.14350,-0.09835,0.00000,0.03038,0.97698,-0.18947,0.0,2023,6,7,17,6,51,666
48.68910,0.06650,0.02415,0.00000,0.03050,0.97673,-0.19117,0.0,2023,6,7,17,6,51,677
48.68920,-0.05600,0.07665,0.00000,0.03257,0.97600,-0.19203,0.0,2023,6,7,17,6,51,688
48.68930,-0.03850,0.07665,0.00000,0.03367,0.97527,-0.19044,0.0,2023,6,7,17,6,51,699
48.68940,0.01400,-0.04585,0.00000,0.03282,0.97832,-0.19069,0.0,2023,6,7,17,6,51,710
48.68950,-0.00350,-0.08085,0.00000,0.03013,0.97539,-0.19264,0.0,2023,6,7,17,6,51,721
48.68960,0.20650,-0.08085,0.00000,0.03172,0.97637,-0.19105,0.0,2023,6,7,17,6,51,732
48.68970,0.04900,0.11165,0.00000,0.03440,0.97576,-0.19056,0.0,2023,6,7,17,6,51,744
48.68980,-0.07350,-0.11585,0.00000,0.03282,0.97624,-0.18703,0.0,2023,6,7,17,6,51,755
48.68990,0.25900,-0.27335,0.00000,0.03074,0.97624,-0.19154,0.0,2023,6,7,17,6,51,766
48.69000,-0.02100,0.07665,0.00000,0.03026,0.97612,-0.19117,0.0,2023,6,7,17,6,51,777
48.69010,-0.03850,0.16415,0.00000,0.03209,0.97807,-0.18934,0.0,2023,6,7,17,6,51,788
48.69020,-0.02100,-0.11585,0.00000,0.03062,0.97795,-0.19044,0.0,2023,6,7,17,6,51,799
48.69030,0.01400,-0.04585,0.00000,0.03026,0.97783,-0.18922,0.0,2023,6,7,17,6,51,810
48.69040,-0.02100,0.02415,0.00000,0.03050,0.97551,-0.19166,0.0,2023,6,7,17,6,51,821
48.69050,-0.05600,-0.08085,0.00000,0.03111,0.97795,-0.18959,0.0,2023,6,7,17,6,51,832
48.69060,-0.14350,0.02415,0.00000,0.02952,0.97649,-0.18910,0.0,2023,6,7,17,6,51,843
48.69070,-0.05600,0.21665,0.00000,0.03221,0.97673,-0.18788,0.0,2023,6,7,17,6,51,854
48.69080,0.08400,-0.09835,0.00000,0.02989,0.97539,-0.19154,0.0,2023,6,7,17,6,51,865
48.69090,0.10150,0.02415,0.00000,0.03111,0.97698,-0.18947,0.0,2023,6,7,17,6,51,876
48.69100,-0.02100,-0.20335,0.00000,0.03221,0.97551,-0.19093,0.0,2023,6,7,17,6,51,887
48.69110,-0.07350,0.16415,0.00000,0.03111,0.97844,-0.19215,0.0,2023,6,7,17,6,51,898
48.69120,-0.02100,-0.02835,0.00000,0.03087,0.97954,-0.18861,0.0,2023,6,7,17,6,51,909
48.69130,0.10150,-0.08085,0.00000,0.03099,0.97759,-0.18947,0.0,2023,6,7,17,6,51,920
48.69140,0.08400,-0.01085,0.00000,0.03172,0.97881,-0.18800,0.0,2023,6,7,17,6,51,931
48.69150,-0.21350,0.30415,0.00000,0.02952,0.97698,-0.18910,0.0,2023,6,7,17,6,51,942
48.69160,0.11900,0.02415,0.00000,0.03184,0.97722,-0.19130,0.0,2023,6,7,17,6,51,953
48.69170,-0.05600,-0.13335,0.00000,0.03245,0.97759,-0.18495,0.0,2023,6,7,17,6,51,964
48.69180,-0.35350,-0.04585,0.00000,0.03050,0.97734,-0.18751,0.0,2023,6,7,17,6,51,975
48.69190,0.25900,-0.18585,0.00000,0.03111,0.97783,-0.18995,0.0,2023,6,7,17,6,52,7
48.69200,-0.09100,0.00665,0.00000,0.03404,0.97466,-0.18751,0.0,2023,6,7,17,6,52,18
48.69210,-0.00350,-0.13335,0.00000,0.03099,0.97624,-0.18995,0.0,2023,6,7,17,6,52,29
48.69220,0.18900,-0.04585,0.00000,0.03331,0.97722,-0.18861,0.0,2023,6,7,17,6,52,40
48.69230,-0.19600,0.19915,0.00000,0.03087,0.97637,-0.19008,0.0,2023,6,7,17,6,52,51
48.69240,0.24150,0.00665,0.00000,0.03196,0.97576,-0.19117,0.0,2023,6,7,17,6,52,62
48.69250,0.10150,-0.18585,0.00000,0.03135,0.97612,-0.18983,0.0,2023,6,7,17,6,52,73
48.69260,-0.16100,0.11165,0.00000,0.03148,0.97710,-0.19056,0.0,2023,6,7,17,6,52,84
48.69270,0.20650,0.02415,0.00000,0.03245,0.97539,-0.19117,0.0,2023,6,7,17,6,52,95
48.69280,-0.14350,-0.06335,0.00000,0.03160,0.97746,-0.18898,0.0,2023,6,7,17,6,52,106
48.69290,0.10150,-0.08085,0.00000,0.02989,0.97771,-0.19191,0.0,2023,6,7,17,6,52,117
48.69300,0.08400,0.09415,0.00000,0.02928,0.97624,-0.18983,0.0,2023,6,7,17,6,52,128
48.69310,-0.07350,-0.02835,0.00000,0.02916,0.97515,-0.18873,0.0,2023,6,7,17,6,52,140
48.69320,0.04900,-0.01085,0.00000,0.02940,0.97417,-0.18971,0.0,2023,6,7,17,6,52,151
48.69330,0.06650,0.02415,0.00000,0.02965,0.97746,-0.18898,0.0,2023,6,7,17,6,52,162
48.69340,0.01400,-0.15085,0.00000,0.03440,0.97746,-0.18654,0.0,2023,6,7,17,6,52,173
48.69350,-0.10850,0.11165,0.00000,0.03221,0.97551,-0.19020,0.0,2023,6,7,17,6,52,184
48.69360,0.06650,-0.01085,0.00000,0.03001,0.97466,-0.18934,0.0,2023,6,7,17,6,52,195
48.69370,-0.03850,-0.15085,0.00000,0.03306,0.97771,-0.18642,0.0,2023,6,7,17,6,52,206
48.69380,0.10150,0.05915,0.00000,0.03184,0.97539,-0.19105,0.0,2023,6,7,17,6,52,217
48.69390,0.10150,-0.18585,0.00000,0.03196,0.97576,-0.19044,0.0,2023,6,7,17,6,52,228
48.69400,0.04900,-0.06335,0.00000,0.03233,0.97685,-0.18715,0.0,2023,6,7,17,6,52,239
48.69410,0.01400,-0.04585,0.00000,0.03123,0.97649,-0.19056,0.0,2023,6,7,17,6,52,250
48.69420,0.20650,-0.16835,0.00000,0.02928,0.97698,-0.19044,0.0,2023,6,7,17,6,52,261
48.69430,0.06650,-0.09835,0.00000,0.03050,0.97649,-0.18715,0.0,2023,6,7,17,6,52,272
48.69440,0.13650,-0.25585,0.00000,0.03099,0.97795,-0.19056,0.0,2023,6,7,17,6,52,283
48.69450,0.22400,-0.11585,0.00000,0.03050,0.97649,-0.19044,0.0,2023,6,7,17,6,52,294
48.69460,-0.02100,0.28665,0.00000,0.03209,0.97551,-0.18593,0.0,2023,6,7,17,6,52,305
48.69470,0.01400,0.04165,0.00000,0.03209,0.97661,-0.18825,0.0,2023,6,7,17,6,52,316
48.69480,-0.10850,0.07665,0.00000,0.03233,0.97820,-0.18825,0.0,2023,6,7,17,6,52,327
48.69490,0.06650,-0.04585,0.00000,0.02977,0.97502,-0.18873,0.0,2023,6,7,17,6,52,338
48.69500,0.36400,0.05915,0.00000,0.03001,0.97685,-0.19191,0.0,2023,6,7,17,6,52,349
48.69510,-0.21350,-0.02835,0.00000,0.03123,0.97759,-0.18727,0.0,2023,6,7,17,6,52,360
48.69520,0.06650,-0.09835,0.00000,0.03013,0.97844,-0.19117,0.0,2023,6,7,17,6,52,371
48.69530,0.18900,-0.01085,0.00000,0.02904,0.97624,-0.18934,0.0,2023,6,7,17,6,52,382
48.69540,-0.10850,-0.23835,0.00000,0.02965,0.97576,-0.18764,0.0,2023,6,7,17,6,52,393
48.69550,0.03150,0.00665,0.00000,0.03111,0.97612,-0.19154,0.0,2023,6,7,17,6,52,404
48.69560,0.13650,0.00665,0.00000,0.03074,0.97600,-0.18934,0.0,2023,6,7,17,6,52,415
48.69570,0.06650,-0.11585,0.00000,0.03160,0.97746,-0.18800,0.0,2023,6,7,17,6,52,426
48.69580,0.01400,0.18165,0.00000,0.03306,0.97588,-0.18812,0.0,2023,6,7,17,6,52,437
48.69590,0.17150,0.12915,0.00000,0.03172,0.97576,-0.18715,0.0,2023,6,7,17,6,52,448
48.69600,-0.17850,-0.04585,0.00000,0.03099,0.97502,-0.18861,0.0,2023,6,7,17,6,52,459
48.69610,-0.14350,0.18165,0.00000,0.03099,0.97637,-0.18593,0.0,2023,6,7,17,6,52,470
48.69620,-0.24850,0.07665,0.00000,0.03160,0.97624,-0.18593,0.0,2023,6,7,17,6,52,481
48.69630,0.20650,-0.11585,0.00000,0.02989,0.97563,-0.18971,0.0,2023,6,7,17,6,52,492
48.69640,-0.17850,-0.04585,0.00000,0.02843,0.97820,-0.18434,0.0,2023,6,7,17,6,52,504
48.69650,-0.24850,0.05915,0.00000,0.03111,0.97466,-0.18971,0.0,2023,6,7,17,6,52,515
48.69660,0.13650,0.07665,0.00000,0.03099,0.97759,-0.19069,0.0,2023,6,7,17,6,52,526
48.69670,-0.03850,0.00665,0.00000,0.03184,0.97222,-0.18642,0.0,2023,6,7,17,6,52,537
48.69680,-0.10850,0.04165,0.00000,0.03233,0.97551,-0.18666,0.0,2023,6,7,17,6,52,548
48.69690,0.18900,0.00665,0.00000,0.02891,0.97661,-0.18983,0.0,2023,6,7,17,6,52,559
48.69700,-0.03850,0.09415,0.00000,0.03026,0.97478,-0.18654,0.0,2023,6,7,17,6,52,570
48.69710,-0.10850,0.00665,0.00000,0.02904,0.97624,-0.19044,0.0,2023,6,7,17,6,52,581
48.69720,0.18900,-0.04585,0.00000,0.03257,0.97820,-0.18922,0.0,2023,6,7,17,6,52,592
48.69730,0.01400,-0.02835,0.00000,0.03074,0.97515,-0.18837,0.0,2023,6,7,17,6,52,603
48.69740,-0.16100,0.04165,0.00000,0.03343,0.97466,-0.18751,0.0,2023,6,7,17,6,52,614
48.69750,0.06650,0.04165,0.00000,0.03233,0.97917,-0.18739,0.0,2023,6,7,17,6,52,625
48.69760,-0.07350,-0.01085,0.00000,0.03172,0.97502,-0.18825,0.0,2023,6,7,17,6,52,636
48.69770,-0.02100,-0.02835,0.00000,0.02952,0.97673,-0.18849,0.0,2023,6,7,17,6,52,647
48.69780,-0.00350,0.02415,0.00000,0.03026,0.97734,-0.18825,0.0,2023,6,7,17,6,52,658
48.69790,-0.12600,-0.11585,0.00000,0.03184,0.97624,-0.18751,0.0,2023,6,7,17,6,52,669
48.69800,0.17150,-0.09835,0.00000,0.03221,0.97649,-0.19044,0.0,2023,6,7,17,6,52,680
48.69810,-0.09100,-0.02835,0.00000,0.02977,0.97624,-0.18556,0.0,2023,6,7,17,6,52,691
48.69820,-0.00350,0.00665,0.00000,0.02952,0.97539,-0.18825,0.0,2023,6,7,17,6,52,702
48.69830,0.10150,0.18165,0.00000,0.03184,0.97612,-0.18825,0.0,2023,6,7,17,6,52,713
48.69840,-0.16100,0.14665,0.00000,0.03013,0.97490,-0.18922,0.0,2023,6,7,17,6,52,724
48.69850,0.03150,0.11165,0.00000,0.03294,0.97502,-0.18727,0.0,2023,6,7,17,6,52,735
48.69860,-0.00350,-0.08085,0.00000,0.03184,0.97783,-0.18678,0.0,2023,6,7,17,6,52,746
48.69870,-0.05600,-0.16835,0.00000,0.03050,0.97539,-0.18568,0.0,2023,6,7,17,6,52,757
48.69880,-0.07350,-0.04585,0.00000,0.02977,0.97502,-0.18751,0.0,2023,6,7,17,6,52,768
48.69890,-0.07350,0.04165,0.00000,0.03062,0.97588,-0.18703,0.0,2023,6,7,17,6,52,779
48.69900,-0.00350,-0.11585,0.00000,0.03245,0.97490,-0.18861,0.0,2023,6,7,17,6,52,790
48.69910,-0.14350,0.09415,0.00000,0.03026,0.97710,-0.18739,0.0,2023,6,7,17,6,52,801
48.69920,-0.03850,0.16415,0.00000,0.03087,0.97539,-0.18715,0.0,2023,6,7,17,6,52,812
48.69930,-0.12600,0.12915,0.00000,0.03135,0.97698,-0.18495,0.0,2023,6,7,17,6,52,823
48.69940,-0.07350,0.02415,0.00000,0.03135,0.97844,-0.18837,0.0,2023,6,7,17,6,52,834
48.69950,-0.03850,0.07665,0.00000,0.03099,0.97661,-0.18654,0.0,2023,6,7,17,6,52,845
48.69960,0.06650,0.04165,0.00000,0.03050,0.97698,-0.18764,0.0,2023,6,7,17,6,52,856
48.69970,-0.03850,0.07665,0.00000,0.03087,0.97576,-0.18849,0.0,2023,6,7,17,6,52,868
48.69980,-0.09100,0.28665,0.00000,0.03172,0.97820,-0.18898,0.0,2023,6,7,17,6,52,879
48.69990,-0.10850,-0.09835,0.00000,0.02952,0.97673,-0.18666,0.0,2023,6,7,17,6,52,890
48.70000,-0.05600,-0.08085,0.00000,0.03416,0.97502,-0.18764,0.0,2023,6,7,17,6,52,901
48.70010,-0.00350,0.12915,0.00000,0.03135,0.97807,-0.19008,0.0,2023,6,7,17,6,52,912
48.70020,0.11900,-0.04585,0.00000,0.03123,0.97588,-0.18788,0.0,2023,6,7,17,6,52,923
48.70030,0.08400,-0.06335,0.00000,0.03245,0.97771,-0.18837,0.0,2023,6,7,17,6,52,934
48.70040,0.15400,-0.02835,0.00000,0.03013,0.97551,-0.18825,0.0,2023,6,7,17,6,52,945
48.70050,0.08400,-0.16835,0.00000,0.03355,0.97685,-0.18727,0.0,2023,6,7,17,6,52,956
48.70060,-0.05600,0.07665,0.00000,0.03245,0.97502,-0.18617,0.0,2023,6,7,17,6,52,967
48.70070,0.08400,0.04165,0.00000,0.03087,0.97905,-0.18739,0.0,2023,6,7,17,6,52,978
48.70080,-0.03850,0.00665,0.00000,0.03111,0.97856,-0.18861,0.0,2023,6,7,17,6,52,989
48.70090,0.18900,-0.13335,0.00000,0.03148,0.97490,-0.18837,0.0,2023,6,7,17,6,53,10
48.70100,0.01400,-0.20335,0.00000,0.03282,0.97771,-0.18800,0.0,2023,6,7,17,6,53,21
48.70110,0.06650,-0.01085,0.00000,0.03196,0.97685,-0.18886,0.0,2023,6,7,17,6,53,32
48.70120,-0.10850,-0.27335,0.00000,0.02855,0.97698,-0.18727,0.0,2023,6,7,17,6,53,43
48.70130,-0.10850,0.32165,0.00000,0.02843,0.97539,-0.18666,0.0,2023,6,7,17,6,53,54
48.70140,0.13650,-0.04585,0.00000,0.02916,0.97673,-0.18971,0.0,2023,6,7,17,6,53,65
48.70150,0.01400,-0.04585,0.00000,0.02928,0.97795,-0.18886,0.0,2023,6,7,17,6,53,76
48.70160,-0.03850,0.07665,0.00000,0.03087,0.97576,-0.18910,0.0,2023,6,7,17,6,53,87
48.70170,-0.02100,0.18165,0.00000,0.03221,0.97612,-0.19056,0.0,2023,6,7,17,6,53,98
48.70180,0.03150,-0.18585,0.00000,0.03062,0.97820,-0.18959,0.0,2023,6,7,17,6,53,109
48.70190,0.01400,0.02415,0.00000,0.03209,0.97588,-0.18825,0.0,2023,6,7,17,6,53,120
48.70200,-0.03850,0.07665,0.00000,0.03233,0.97466,-0.18971,0.0,2023,6,7,17,6,53,131
48.70210,0.13650,-0.01085,0.00000,0.03294,0.97624,-0.18849,0.0,2023,6,7,17,6,53,142
48.70220,0.06650,-0.02835,0.00000,0.03270,0.97576,-0.18776,0.0,2023,6,7,17,6,53,153
48.70230,0.04900,0.19915,0.00000,0.03282,0.97685,-0.18788,0.0,2023,6,7,17,6,53,164
48.70240,0.13650,-0.01085,0.00000,0.03160,0.97746,-0.18849,0.0,2023,6,7,17,6,53,175
48.70250,0.11900,0.04165,0.00000,0.03050,0.97698,-0.18764,0.0,2023,6,7,17,6,53,186
48.70260,-0.17850,0.18165,0.00000,0.02977,0.97820,-0.18812,0.0,2023,6,7,17,6,53,197
48.70270,0.03150,0.05915,0.00000,0.03160,0.97795,-0.18861,0.0,2023,6,7,17,6,53,208
48.70280,0.03150,0.07665,0.00000,0.03135,0.97661,-0.18849,0.0,2023,6,7,17,6,53,219
48.70290,-0.16100,0.16415,0.00000,0.03196,0.97600,-0.18861,0.0,2023,6,7,17,6,53,230
48.70300,0.08400,0.02415,0.00000,0.02916,0.97771,-0.18715,0.0,2023,6,7,17,6,53,241
48.70310,0.08400,0.05915,0.00000,0.03331,0.97490,-0.18873,0.0,2023,6,7,17,6,53,253
48.70320,-0.02100,0.11165,0.00000,0.03123,0.97661,-0.18886,0.0,2023,6,7,17,6,53,264
48.70330,0.13650,-0.23835,0.00000,0.03233,0.97637,-0.18898,0.0,2023,6,7,17,6,53,275
48.70340,0.27650,-0.11585,0.00000,0.03209,0.97539,-0.18873,0.0,2023,6,7,17,6,53,286
48.70350,-0.03850,0.12915,0.00000,0.03245,0.97490,-0.18910,0.0,2023,6,7,17,6,53,297
48.70360,0.03150,0.11165,0.00000,0.03392,0.97624,-0.18825,0.0,2023,6,7,17,6,53,308
48.70370,-0.05600,-0.04585,0.00000,0.03160,0.97905,-0.18690,0.0,2023,6,7,17,6,53,319
48.70380,-0.00350,0.14665,0.00000,0.03026,0.97624,-0.18995,0.0,2023,6,7,17,6,53,330
48.70390,-0.07350,0.00665,0.00000,0.03135,0.97698,-0.18922,0.0,2023,6,7,17,6,53,341
48.70400,-0.02100,-0.15085,0.00000,0.03087,0.97502,-0.18861,0.0,2023,6,7,17,6,53,352
48.70410,-0.09100,-0.16835,0.00000,0.03062,0.97759,-0.19008,0.0,2023,6,7,17,6,53,363
48.70420,0.06650,0.09415,0.00000,0.03282,0.97795,-0.18751,0.0,2023,6,7,17,6,53,374
48.70430,-0.19600,0.07665,0.00000,0.03160,0.97698,-0.18654,0.0,2023,6,7,17,6,53,385
48.70440,-0.10850,-0.01085,0.00000,0.03294,0.97722,-0.18947,0.0,2023,6,7,17,6,53,396
48.70450,-0.00350,-0.27335,0.00000,0.03135,0.97807,-0.19020,0.0,2023,6,7,17,6,53,407
48.70460,0.01400,-0.16835,0.00000,0.03160,0.97807,-0.19081,0.0,2023,6,7,17,6,53,418
48.70470,-0.09100,0.11165,0.00000,0.03343,0.97722,-0.18849,0.0,2023,6,7,17,6,53,429
48.70480,0.08400,-0.02835,0.00000,0.02977,0.97746,-0.18947,0.0,2023,6,7,17,6,53,440
48.70490,-0.10850,0.14665,0.00000,0.03233,0.97490,-0.18849,0.0,2023,6,7,17,6,53,451
48.70500,-0.05600,0.04165,0.00000,0.03074,0.97844,-0.18800,0.0,2023,6,7,17,6,53,462
48.70510,-0.09100,0.07665,0.00000,0.03026,0.97771,-0.18873,0.0,2023,6,7,17,6,53,473
48.70520,0.03150,-0.15085,0.00000,0.03257,0.97759,-0.18800,0.0,2023,6,7,17,6,53,484
48.70530,0.01400,-0.02835,0.00000,0.03184,0.97698,-0.18678,0.0,2023,6,7,17,6,53,495
48.70540,-0.26600,0.12915,0.00000,0.02965,0.97698,-0.18910,0.0,2023,6,7,17,6,53,506
48.70550,-0.10850,-0.01085,0.00000,0.03257,0.97661,-0.18800,0.0,2023,6,7,17,6,53,517
48.70560,-0.19600,0.32165,0.00000,0.03245,0.97441,-0.18617,0.0,2023,6,7,17,6,53,528
48.70570,-0.09100,-0.01085,0.00000,0.03196,0.97746,-0.18727,0.0,2023,6,7,17,6,53,539
48.70580,0.04900,0.11165,0.00000,0.03172,0.97649,-0.18947,0.0,2023,6,7,17,6,53,550
48.70590,0.22400,-0.01085,0.00000,0.03099,0.97661,-0.18995,0.0,2023,6,7,17,6,53,561
48.70600,-0.00350,0.05915,0.00000,0.03416,0.97441,-0.18825,0.0,2023,6,7,17,6,53,572
48.70610,-0.03850,0.14665,0.00000,0.03038,0.97661,-0.18934,0.0,2023,6,7,17,6,53,583
48.70620,0.13650,-0.02835,0.00000,0.03245,0.97722,-0.19008,0.0,2023,6,7,17,6,53,594
48.70630,-0.16100,-0.08085,0.00000,0.03050,0.97661,-0.18666,0.0,2023,6,7,17,6,53,605
48.70640,0.01400,-0.01085,0.00000,0.03001,0.97759,-0.18995,0.0,2023,6,7,17,6,53,617
48.70650,-0.02100,-0.02835,0.00000,0.03123,0.97746,-0.19032,0.0,2023,6,7,17,6,53,628
48.70660,-0.02100,-0.11585,0.00000,0.03257,0.97551,-0.18910,0.0,2023,6,7,17,6,53,639
48.70670,-0.00350,0.04165,0.00000,0.03196,0.97722,-0.18837,0.0,2023,6,7,17,6,53,650
48.70680,0.03150,0.04165,0.00000,0.03135,0.97844,-0.18764,0.0,2023,6,7,17,6,53,661
48.70690,-0.09100,0.09415,0.00000,0.03111,0.97405,-0.19178,0.0,2023,6,7,17,6,53,672
48.70700,0.22400,-0.01085,0.00000,0.03221,0.97917,-0.18788,0.0,2023,6,7,17,6,53,683
48.70710,-0.03850,-0.09835,0.00000,0.03221,0.97685,-0.18690,0.0,2023,6,7,17,6,53,694
48.70720,0.01400,0.19915,0.00000,0.02965,0.97661,-0.18739,0.0,2023,6,7,17,6,53,705
48.70730,0.24150,-0.18585,0.00000,0.03050,0.97783,-0.18861,0.0,2023,6,7,17,6,53,716
48.70740,-0.10850,0.05915,0.00000,0.03123,0.97637,-0.18715,0.0,2023,6,7,17,6,53,727
48.70750,0.11900,0.05915,0.00000,0.03111,0.97661,-0.18873,0.0,2023,6,7,17,6,53,738
48.70760,0.11900,0.02415,0.00000,0.03196,0.97441,-0.19020,0.0,2023,6,7,17,6,53,749
48.70770,-0.17850,0.18165,0.00000,0.03111,0.97441,-0.18715,0.0,2023,6,7,17,6,53,760
48.70780,0.04900,-0.09835,0.00000,0.03135,0.97478,-0.18886,0.0,2023,6,7,17,6,53,771
48.70790,-0.00350,0.09415,0.00000,0.02879,0.97515,-0.18995,0.0,2023,6,7,17,6,53,782
48.70800,-0.12600,0.00665,0.00000,0.03038,0.97807,-0.18898,0.0,2023,6,7,17,6,53,793
48.70810,0.13650,0.07665,0.00000,0.02940,0.97734,-0.18739,0.0,2023,6,7,17,6,53,804
48.70820,0.13650,0.09415,0.00000,0.03184,0.97624,-0.18727,0.0,2023,6,7,17,6,53,815
48.70830,-0.05600,-0.18585,0.00000,0.03135,0.97527,-0.18715,0.0,2023,6,7,17,6,53,826
48.70840,0.27650,-0.09835,0.00000,0.03355,0.97637,-0.18983,0.0,2023,6,7,17,6,53,837
48.70850,-0.23100,0.19915,0.00000,0.03404,0.97673,-0.18678,0.0,2023,6,7,17,6,53,848
48.70860,-0.14350,0.05915,0.00000,0.03111,0.97527,-0.18971,0.0,2023,6,7,17,6,53,859
48.70870,0.04900,0.19915,0.00000,0.03099,0.97661,-0.19044,0.0,2023,6,7,17,6,53,870
48.70880,-0.07350,-0.09835,0.00000,0.03294,0.97588,-0.18934,0.0,2023,6,7,17,6,53,881
48.70890,-0.00350,0.14665,0.00000,0.03221,0.97515,-0.18727,0.0,2023,6,7,17,6,53,892
48.70900,0.01400,0.14665,0.00000,0.03172,0.97856,-0.18666,0.0,2023,6,7,17,6,53,903
48.70910,0.01400,-0.16835,0.00000,0.03099,0.97551,-0.18910,0.0,2023,6,7,17,6,53,914
48.70920,-0.14350,0.18165,0.00000,0.02952,0.97637,-0.18666,0.0,2023,6,7,17,6,53,925
48.70930,-0.10850,-0.01085,0.00000,0.03111,0.97441,-0.18837,0.0,2023,6,7,17,6,53,936
48.70940,0.06650,-0.04585,0.00000,0.03123,0.97673,-0.19093,0.0,2023,6,7,17,6,53,947
48.70950,0.08400,0.00665,0.00000,0.03099,0.97746,-0.18947,0.0,2023,6,7,17,6,53,958
48.70960,0.17150,-0.11585,0.00000,0.03172,0.97551,-0.19032,0.0,2023,6,7,17,6,53,969
48.70970,-0.10850,0.05915,0.00000,0.03099,0.97576,-0.18776,0.0,2023,6,7,17,6,53,981
48.70980,-0.09100,-0.04585,0.00000,0.03160,0.97746,-0.18959,0.0,2023,6,7,17,6,54,2
48.70990,0.20650,0.02415,0.00000,0.02855,0.97502,-0.19020,0.0,2023,6,7,17,6,54,13
48.71000,0.06650,0.09415,0.00000,0.03099,0.97673,-0.18825,0.0,2023,6,7,17,6,54,24
48.71010,0.01400,0.16415,0.00000,0.03001,0.97771,-0.18995,0.0,2023,6,7,17,6,54,35
48.71020,0.13650,0.04165,0.00000,0.03111,0.97588,-0.18654,0.0,2023,6,7,17,6,54,46
48.71030,0.04900,0.04165,0.00000,0.02965,0.97698,-0.19044,0.0,2023,6,7,17,6,54,57
48.71040,0.20650,0.05915,0.00000,0.03221,0.97868,-0.18617,0.0,2023,6,7,17,6,54,68
48.71050,-0.19600,-0.04585,0.00000,0.03099,0.97698,-0.18800,0.0,2023,6,7,17,6,54,79
48.71060,0.01400,-0.02835,0.00000,0.02940,0.97722,-0.18764,0.0,2023,6,7,17,6,54,90
48.71070,0.27650,-0.01085,0.00000,0.03562,0.97795,-0.18971,0.0,2023,6,7,17,6,54,101
48.71080,-0.28350,0.07665,0.00000,0.03209,0.97820,-0.18764,0.0,2023,6,7,17,6,54,112
48.71090,0.03150,0.18165,0.00000,0.03282,0.97600,-0.18934,0.0,2023,6,7,17,6,54,123
48.71100,0.27650,-0.20335,0.00000,0.03282,0.97795,-0.18812,0.0,2023,6,7,17,6,54,134
48.71110,-0.07350,0.12915,0.00000,0.03233,0.97698,-0.18471,0.0,2023,6,7,17,6,54,145
48.71120,-0.12600,0.25165,0.00000,0.03306,0.97576,-0.18849,0.0,2023,6,7,17,6,54,156
48.71130,0.13650,0.07665,0.00000,0.03184,0.97527,-0.18849,0.0,2023,6,7,17,6,54,167
48.71140,0.01400,0.16415,0.00000,0.03270,0.97820,-0.18446,0.0,2023,6,7,17,6,54,178
48.71150,0.04900,-0.02835,0.00000,0.03087,0.97673,-0.18849,0.0,2023,6,7,17,6,54,189
48.71160,-0.02100,0.21665,0.00000,0.03172,0.97661,-0.18800,0.0,2023,6,7,17,6,54,200
48.71170,-0.12600,0.02415,0.00000,0.03196,0.97795,-0.18678,0.0,2023,6,7,17,6,54,211
48.71180,-0.05600,0.04165,0.00000,0.03282,0.97734,-0.18690,0.0,2023,6,7,17,6,54,222
48.71190,0.06650,0.12915,0.00000,0.03209,0.97722,-0.18593,0.0,2023,6,7,17,6,54,233
48.71200,-0.05600,-0.01085,0.00000,0.03123,0.97588,-0.18495,0.0,2023,6,7,17,6,54,244
48.71210,0.03150,0.05915,0.00000,0.03160,0.97673,-0.18812,0.0,2023,6,7,17,6,54,255
48.71220,-0.03850,-0.20335,0.00000,0.03062,0.97490,-0.18886,0.0,2023,6,7,17,6,54,266
48.71230,-0.33600,0.30415,0.00000,0.03172,0.97600,-0.18971,0.0,2023,6,7,17,6,54,277
48.71240,0.24150,-0.09835,0.00000,0.03306,0.97637,-0.18715,0.0,2023,6,7,17,6,54,288
48.71250,0.03150,0.11165,0.00000,0.03111,0.97820,-0.18654,0.0,2023,6,7,17,6,54,299
48.71260,-0.05600,0.04165,0.00000,0.03184,0.97917,-0.19020,0.0,2023,6,7,17,6,54,310
48.71270,0.13650,0.09415,0.00000,0.03318,0.97576,-0.18812,0.0,2023,6,7,17,6,54,321
48.71280,-0.03850,-0.04585,0.00000,0.03221,0.97600,-0.18739,0.0,2023,6,7,17,6,54,332
48.71290,-0.02100,0.00665,0.00000,0.03050,0.97612,-0.18812,0.0,2023,6,7,17,6,54,343
48.71300,0.17150,0.02415,0.00000,0.03087,0.97661,-0.18947,0.0,2023,6,7,17,6,54,354
48.71310,-0.30100,0.12915,0.00000,0.03160,0.97759,-0.18703,0.0,2023,6,7,17,6,54,366
48.71320,0.01400,-0.13335,0.00000,0.03331,0.97783,-0.18922,0.0,2023,6,7,17,6,54,377
48.71330,-0.02100,-0.04585,0.00000,0.03148,0.97685,-0.18703,0.0,2023,6,7,17,6,54,388
48.71340,-0.17850,0.07665,0.00000,0.03209,0.97563,-0.18703,0.0,2023,6,7,17,6,54,399
48.71350,0.01400,0.09415,0.00000,0.03111,0.97637,-0.18800,0.0,2023,6,7,17,6,54,410
48.71360,0.01400,-0.13335,0.00000,0.03123,0.97710,-0.18983,0.0,2023,6,7,17,6,54,421
48.71370,-0.17850,-0.09835,0.00000,0.03123,0.97466,-0.18922,0.0,2023,6,7,17,6,54,432
48.71380,0.06650,0.26915,0.00000,0.03257,0.97600,-0.18727,0.0,2023,6,7,17,6,54,443
48.71390,0.04900,0.00665,0.00000,0.03087,0.97539,-0.18825,0.0,2023,6,7,17,6,54,454
48.71400,-0.02100,-0.02835,0.00000,0.02891,0.97478,-0.18666,0.0,2023,6,7,17,6,54,465
48.71410,0.13650,0.12915,0.00000,0.03257,0.97722,-0.18873,0.0,2023,6,7,17,6,54,476
48.71420,-0.16100,-0.13335,0.00000,0.03233,0.97551,-0.18471,0.0,2023,6,7,17,6,54,487
48.71430,0.10150,0.02415,0.00000,0.03001,0.97539,-0.19154,0.0,2023,6,7,17,6,54,498
48.71440,0.18900,-0.08085,0.00000,0.03160,0.97563,-0.19044,0.0,2023,6,7,17,6,54,509
48.71450,-0.10850,0.04165,0.00000,0.03367,0.97820,-0.18751,0.0,2023,6,7,17,6,54,520
48.71460,0.03150,0.04165,0.00000,0.03050,0.97759,-0.18898,0.0,2023,6,7,17,6,54,531
48.71470,0.11900,0.00665,0.00000,0.03038,0.97563,-0.18971,0.0,2023,6,7,17,6,54,542
48.71480,0.03150,-0.11585,0.00000,0.03233,0.97771,-0.18861,0.0,2023,6,7,17,6,54,553
48.71490,-0.14350,0.11165,0.00000,0.03050,0.97600,-0.18825,0.0,2023,6,7,17,6,54,564
48.71500,0.01400,0.14665,0.00000,0.03135,0.97759,-0.18788,0.0,2023,6,7,17,6,54,575
48.71510,0.01400,0.14665,0.00000,0.03160,0.97759,-0.18825,0.0,2023,6,7,17,6,54,586
48.71520,-0.00350,0.00665,0.00000,0.03196,0.97624,-0.18849,0.0,2023,6,7,17,6,54,597
48.71530,-0.19600,0.04165,0.00000,0.03306,0.97515,-0.18776,0.0,2023,6,7,17,6,54,608
48.71540,0.01400,-0.01085,0.00000,0.03148,0.97649,-0.18727,0.0,2023,6,7,17,6,54,619
48.71550,0.08400,-0.20335,0.00000,0.03294,0.97576,-0.18617,0.0,2023,6,7,17,6,54,630
48.71560,-0.02100,-0.29085,0.00000,0.02940,0.97600,-0.18934,0.0,2023,6,7,17,6,54,641
48.71570,0.22400,-0.09835,0.00000,0.03026,0.97624,-0.18678,0.0,2023,6,7,17,6,54,652
48.71580,-0.02100,-0.08085,0.00000,0.03221,0.97576,-0.18959,0.0,2023,6,7,17,6,54,663
48.71590,-0.12600,0.21665,0.00000,0.03001,0.97649,-0.18593,0.0,2023,6,7,17,6,54,674
48.71600,0.15400,0.28665,0.00000,0.03184,0.97588,-0.19105,0.0,2023,6,7,17,6,54,685
48.71610,0.04900,-0.09835,0.00000,0.03160,0.97698,-0.18947,0.0,2023,6,7,17,6,54,696
48.71620,-0.03850,-0.06335,0.00000,0.03148,0.97673,-0.18837,0.0,2023,6,7,17,6,54,707
48.71630,0.08400,-0.01085,0.00000,0.03135,0.97661,-0.18873,0.0,2023,6,7,17,6,54,718
48.71640,0.10150,-0.02835,0.00000,0.02977,0.97478,-0.18812,0.0,2023,6,7,17,6,54,730
48.71650,0.03150,0.05915,0.00000,0.03257,0.97698,-0.18922,0.0,2023,6,7,17,6,54,741
48.71660,0.04900,0.00665,0.00000,0.03172,0.97637,-0.18825,0.0,2023,6,7,17,6,54,752
48.71670,0.01400,0.07665,0.00000,0.03184,0.97734,-0.18629,0.0,2023,6,7,17,6,54,763
48.71680,-0.05600,-0.01085,0.00000,0.03160,0.97807,-0.18678,0.0,2023,6,7,17,6,54,774
48.71690,0.06650,0.12915,0.00000,0.03245,0.97527,-0.18861,0.0,2023,6,7,17,6,54,785
48.71700,-0.09100,0.11165,0.00000,0.03184,0.97380,-0.18764,0.0,2023,6,7,17,6,54,796
48.71710,-0.00350,-0.01085,0.00000,0.03172,0.97441,-0.18776,0.0,2023,6,7,17,6,54,807
48.71720,0.18900,0.21665,0.00000,0.03245,0.97832,-0.18764,0.0,2023,6,7,17,6,54,818
48.71730,-0.03850,0.11165,0.00000,0.03221,0.97820,-0.18788,0.0,2023,6,7,17,6,54,829
48.71740,0.01400,0.09415,0.00000,0.03026,0.97795,-0.19081,0.0,2023,6,7,17,6,54,840
48.71750,0.17150,0.26915,0.00000,0.03196,0.97795,-0.19056,0.0,2023,6,7,17,6,54,851
48.71760,-0.05600,-0.11585,0.00000,0.02928,0.97661,-0.18690,0.0,2023,6,7,17,6,54,862
48.71770,0.04900,-0.06335,0.00000,0.03294,0.97673,-0.18654,0.0,2023,6,7,17,6,54,873
48.71780,-0.05600,0.12915,0.00000,0.03123,0.97856,-0.18739,0.0,2023,6,7,17,6,54,884
48.71790,0.04900,0.04165,0.00000,0.03257,0.97405,-0.19117,0.0,2023,6,7,17,6,54,895
48.71800,0.06650,-0.04585,0.00000,0.03160,0.97746,-0.18812,0.0,2023,6,7,17,6,54,906
48.71810,-0.07350,0.09415,0.00000,0.03123,0.97783,-0.18873,0.0,2023,6,7,17,6,54,917
48.71820,0.01400,0.05915,0.00000,0.03221,0.97551,-0.18629,0.0,2023,6,7,17,6,54,928
48.71830,0.03150,-0.13335,0.00000,0.03087,0.97551,-0.18678,0.0,2023,6,7,17,6,54,939
48.71840,-0.19600,0.11165,0.00000,0.03001,0.97710,-0.18593,0.0,2023,6,7,17,6,54,950
48.71850,-0.21350,-0.13335,0.00000,0.03233,0.97673,-0.19056,0.0,2023,6,7,17,6,54,961
48.71860,0.13650,0.00665,0.00000,0.03111,0.97551,-0.18642,0.0,2023,6,7,17,6,54,972
48.71870,0.01400,-0.15085,0.00000,0.03196,0.97612,-0.18507,0.0,2023,6,7,17,6,54,983
48.71880,0.04900,0.05915,0.00000,0.03135,0.97844,-0.19008,0.0,2023,6,7,17,6,55,4
48.71890,0.01400,0.12915,0.00000,0.03160,0.97685,-0.18825,0.0,2023,6,7,17,6,55,15
48.71900,0.08400,-0.04585,0.00000,0.03099,0.97441,-0.18666,0.0,2023,6,7,17,6,55,26
48.71910,-0.16100,0.04165,0.00000,0.03257,0.97344,-0.18690,0.0,2023,6,7,17,6,55,37
48.71920,-0.14350,0.05915,0.00000,0.03196,0.97624,-0.18788,0.0,2023,6,7,17,6,55,48
48.71930,0.10150,-0.01085,0.00000,0.03062,0.97429,-0.18837,0.0,2023,6,7,17,6,55,59
48.71940,0.10150,0.02415,0.00000,0.03209,0.97649,-0.18947,0.0,2023,6,7,17,6,55,70
48.71950,0.29400,-0.09835,0.00000,0.03245,0.97673,-0.18947,0.0,2023,6,7,17,6,55,81
48.71960,-0.26600,-0.04585,0.00000,0.03160,0.97466,-0.18495,0.0,2023,6,7,17,6,55,92
48.71970,-0.03850,0.33915,0.00000,0.03209,0.97698,-0.18556,0.0,2023,6,7,17,6,55,104
48.71980,0.11900,0.11165,0.00000,0.03111,0.97832,-0.18642,0.0,2023,6,7,17,6,55,115
48.71990,-0.12600,0.00665,0.00000,0.03026,0.97551,-0.18727,0.0,2023,6,7,17,6,55,126
48.72000,0.04900,-0.06335,0.00000,0.03172,0.97600,-0.18886,0.0,2023,6,7,17,6,55,137
48.72010,-0.21350,0.16415,0.00000,0.03233,0.97795,-0.18947,0.0,2023,6,7,17,6,55,148
48.72020,0.01400,0.00665,0.00000,0.02806,0.97490,-0.19032,0.0,2023,6,7,17,6,55,159
48.72030,-0.07350,0.21665,0.00000,0.03270,0.97539,-0.18849,0.0,2023,6,7,17,6,55,170
48.72040,-0.00350,-0.11585,0.00000,0.03404,0.97600,-0.18776,0.0,2023,6,7,17,6,55,181
48.72050,-0.00350,-0.04585,0.00000,0.03196,0.97783,-0.18800,0.0,2023,6,7,17,6,55,192
48.72060,0.10150,0.00665,0.00000,0.03318,0.97917,-0.18617,0.0,2023,6,7,17,6,55,203
48.72070,0.04900,0.07665,0.00000,0.03001,0.97466,-0.18837,0.0,2023,6,7,17,6,55,214
48.72080,-0.05600,-0.02835,0.00000,0.03074,0.97856,-0.19069,0.0,2023,6,7,17,6,55,225
48.72090,-0.17850,0.09415,0.00000,0.03111,0.97722,-0.18739,0.0,2023,6,7,17,6,55,236
48.72100,-0.14350,0.28665,0.00000,0.03209,0.97734,-0.18959,0.0,2023,6,7,17,6,55,247
48.72110,0.15400,0.02415,0.00000,0.03062,0.97685,-0.18910,0.0,2023,6,7,17,6,55,258
48.72120,-0.26600,-0.11585,0.00000,0.03062,0.97722,-0.18739,0.0,2023,6,7,17,6,55,269
48.72130,-0.03850,-0.01085,0.00000,0.03160,0.97734,-0.19093,0.0,2023,6,7,17,6,55,280
48.72140,0.27650,0.02415,0.00000,0.03233,0.97502,-0.18825,0.0,2023,6,7,17,6,55,291
48.72150,0.04900,0.14665,0.00000,0.03172,0.97734,-0.18629,0.0,2023,6,7,17,6,55,302
48.72160,0.11900,-0.06335,0.00000,0.03306,0.97454,-0.19117,0.0,2023,6,7,17,6,55,313
48.72170,0.04900,-0.04585,0.00000,0.02965,0.97515,-0.18947,0.0,2023,6,7,17,6,55,324
48.72180,0.01400,-0.04585,0.00000,0.03135,0.97820,-0.18873,0.0,2023,6,7,17,6,55,335
48.72190,0.04900,0.14665,0.00000,0.03318,0.97710,-0.18544,0.0,2023,6,7,17,6,55,346
48.72200,-0.14350,0.12915,0.00000,0.03245,0.98003,-0.18849,0.0,2023,6,7,17,6,55,357
48.72210,0.34650,-0.04585,0.00000,0.03074,0.97771,-0.19044,0.0,2023,6,7,17,6,55,368
48.72220,-0.21350,0.14665,0.00000,0.03087,0.97624,-0.18666,0.0,2023,6,7,17,6,55,379
48.72230,0.01400,-0.04585,0.00000,0.02977,0.97771,-0.18861,0.0,2023,6,7,17,6,55,390
48.72240,0.03150,0.04165,0.00000,0.03038,0.97661,-0.18861,0.0,2023,6,7,17,6,55,401
48.72250,-0.24850,0.12915,0.00000,0.03087,0.97502,-0.18593,0.0,2023,6,7,17,6,55,412
48.72260,0.11900,-0.02835,0.00000,0.02830,0.97600,-0.18995,0.0,2023,6,7,17,6,55,423
48.72270,0.10150,0.07665,0.00000,0.03331,0.97807,-0.18617,0.0,2023,6,7,17,6,55,434
48.72280,-0.12600,-0.01085,0.00000,0.03087,0.97576,-0.18764,0.0,2023,6,7,17,6,55,445
48.72290,0.03150,-0.06335,0.00000,0.03160,0.97624,-0.19142,0.0,2023,6,7,17,6,55,456
48.72300,-0.03850,-0.13335,0.00000,0.03379,0.97527,-0.18788,0.0,2023,6,7,17,6,55,467
48.72310,-0.24850,-0.09835,0.00000,0.03050,0.97820,-0.19020,0.0,2023,6,7,17,6,55,479
48.72320,0.08400,0.00665,0.00000,0.03331,0.97832,-0.18922,0.0,2023,6,7,17,6,55,490
48.72330,0.10150,0.04165,0.00000,0.03257,0.97515,-0.18873,0.0,2023,6,7,17,6,55,501
48.72340,-0.14350,0.25165,0.00000,0.02684,0.97893,-0.18837,0.0,2023,6,7,17,6,55,512
48.72350,0.18900,0.00665,0.00000,0.03099,0.97515,-0.18788,0.0,2023,6,7,17,6,55,523
48.72360,-0.19600,0.07665,0.00000,0.03270,0.97759,-0.18690,0.0,2023,6,7,17,6,55,534
48.72370,0.08400,0.04165,0.00000,0.03135,0.97722,-0.18959,0.0,2023,6,7,17,6,55,545
48.72380,0.10150,0.16415,0.00000,0.03282,0.97393,-0.18629,0.0,2023,6,7,17,6,55,556
48.72390,-0.17850,0.00665,0.00000,0.03111,0.97624,-0.18934,0.0,2023,6,7,17,6,55,567
48.72400,0.31150,0.05915,0.00000,0.03135,0.97661,-0.18751,0.0,2023,6,7,17,6,55,578
48.72410,-0.19600,0.07665,0.00000,0.03257,0.97612,-0.18605,0.0,2023,6,7,17,6,55,589
48.72420,-0.21350,-0.13335,0.00000,0.03184,0.97502,-0.18800,0.0,2023,6,7,17,6,55,600
48.72430,0.25900,-0.08085,0.00000,0.03123,0.97539,-0.19020,0.0,2023,6,7,17,6,55,611
48.72440,-0.10850,-0.04585,0.00000,0.03074,0.97673,-0.18690,0.0,2023,6,7,17,6,55,622
48.72450,0.13650,0.04165,0.00000,0.03062,0.97368,-0.18825,0.0,2023,6,7,17,6,55,633
48.72460,-0.02100,-0.13335,0.00000,0.03270,0.97551,-0.18751,0.0,2023,6,7,17,6,55,644
48.72470,0.08400,-0.13335,0.00000,0.03355,0.97612,-0.18922,0.0,2023,6,7,17,6,55,655
48.72480,0.17150,-0.11585,0.00000,0.03099,0.97698,-0.18739,0.0,2023,6,7,17,6,55,666
48.72490,0.08400,0.00665,0.00000,0.03245,0.97429,-0.18898,0.0,2023,6,7,17,6,55,677
48.72500,-0.07350,0.11165,0.00000,0.03099,0.97673,-0.19081,0.0,2023,6,7,17,6,55,688
48.72510,0.01400,-0.11585,0.00000,0.03038,0.97771,-0.18995,0.0,2023,6,7,17,6,55,699
48.72520,0.17150,0.07665,0.00000,0.03026,0.98137,-0.19020,0.0,2023,6,7,17,6,55,710
48.72530,0.20650,-0.09835,0.00000,0.03209,0.97612,-0.18837,0.0,2023,6,7,17,6,55,721
48.72540,-0.14350,0.02415,0.00000,0.03209,0.97905,-0.18764,0.0,2023,6,7,17,6,55,732
48.72550,0.06650,0.02415,0.00000,0.02965,0.97576,-0.19020,0.0,2023,6,7,17,6,55,743
48.72560,0.06650,0.23415,0.00000,0.03196,0.97783,-0.18873,0.0,2023,6,7,17,6,55,754
48.72570,-0.00350,0.04165,0.00000,0.02928,0.97710,-0.19166,0.0,2023,6,7,17,6,55,765
48.72580,-0.00350,0.04165,0.00000,0.03087,0.97698,-0.18898,0.0,2023,6,7,17,6,55,776
48.72590,-0.17850,-0.08085,0.00000,0.03257,0.97637,-0.18715,0.0,2023,6,7,17,6,55,787
48.72600,-0.07350,-0.06335,0.00000,0.03172,0.97820,-0.19069,0.0,2023,6,7,17,6,55,798
48.72610,0.20650,-0.11585,0.00000,0.03392,0.97600,-0.18886,0.0,2023,6,7,17,6,55,809
48.72620,-0.02100,-0.06335,0.00000,0.03318,0.97624,-0.19008,0.0,2023,6,7,17,6,55,820
48.72630,-0.05600,0.19915,0.00000,0.03172,0.97539,-0.18715,0.0,2023,6,7,17,6,55,831
48.72640,-0.09100,0.04165,0.00000,0.03123,0.97612,-0.18568,0.0,2023,6,7,17,6,55,843
48.72650,0.10150,0.30415,0.00000,0.03294,0.97539,-0.19020,0.0,2023,6,7,17,6,55,854
48.72660,0.22400,-0.01085,0.00000,0.03013,0.97673,-0.18971,0.0,2023,6,7,17,6,55,865
48.72670,-0.14350,0.00665,0.00000,0.03245,0.97490,-0.18727,0.0,2023,6,7,17,6,55,876
48.72680,-0.09100,0.00665,0.00000,0.03245,0.97710,-0.18837,0.0,2023,6,7,17,6,55,887
48.72690,0.08400,0.07665,0.00000,0.03026,0.97661,-0.19105,0.0,2023,6,7,17,6,55,898
48.72700,-0.05600,0.00665,0.00000,0.03123,0.97588,-0.18690,0.0,2023,6,7,17,6,55,909
48.72710,-0.02100,0.00665,0.00000,0.03172,0.97649,-0.18861,0.0,2023,6,7,17,6,55,920
48.72720,-0.00350,0.14665,0.00000,0.02904,0.97759,-0.18764,0.0,2023,6,7,17,6,55,931
48.72730,-0.21350,-0.09835,0.00000,0.03233,0.97319,-0.18483,0.0,2023,6,7,17,6,55,942
48.72740,0.11900,-0.04585,0.00000,0.03245,0.97637,-0.19142,0.0,2023,6,7,17,6,55,953
48.72750,0.15400,-0.04585,0.00000,0.03294,0.97722,-0.18666,0.0,2023,6,7,17,6,55,964
48.72760,-0.09100,-0.22085,0.00000,0.03184,0.97588,-0.18934,0.0,2023,6,7,17,6,55,975
48.72770,0.29400,-0.08085,0.00000,0.03343,0.97685,-0.19337,0.0,2023,6,7,17,6,55,986
48.72780,0.15400,-0.11585,0.00000,0.03038,0.97673,-0.18544,0.0,2023,6,7,17,6,56,7
48.72790,-0.12600,0.02415,0.00000,0.03172,0.97478,-0.18629,0.0,2023,6,7,17,6,56,18
48.72800,0.13650,0.05915,0.00000,0.03062,0.97771,-0.19069,0.0,2023,6,7,17,6,56,29
48.72810,-0.10850,0.11165,0.00000,0.03209,0.97515,-0.18971,0.0,2023,6,7,17,6,56,40
48.72820,-0.07350,0.14665,0.00000,0.03196,0.97807,-0.19032,0.0,2023,6,7,17,6,56,51
48.72830,0.22400,0.11165,0.00000,0.03062,0.97783,-0.18947,0.0,2023,6,7,17,6,56,62
48.72840,0.15400,-0.20335,0.00000,0.03172,0.97954,-0.18873,0.0,2023,6,7,17,6,56,73
48.72850,0.13650,0.07665,0.00000,0.03355,0.97429,-0.19105,0.0,2023,6,7,17,6,56,84
48.72860,-0.24850,0.09415,0.00000,0.03196,0.97795,-0.18629,0.0,2023,6,7,17,6,56,95
48.72870,-0.05600,-0.09835,0.00000,0.03062,0.97527,-0.19008,0.0,2023,6,7,17,6,56,106
48.72880,0.11900,-0.22085,0.00000,0.03123,0.97637,-0.18886,0.0,2023,6,7,17,6,56,117
48.72890,-0.05600,-0.06335,0.00000,0.03099,0.97576,-0.18898,0.0,2023,6,7,17,6,56,128
48.72900,-0.09100,0.04165,0.00000,0.03294,0.97624,-0.18947,0.0,2023,6,7,17,6,56,139
48.72910,0.18900,-0.16835,0.00000,0.03209,0.97429,-0.18849,0.0,2023,6,7,17,6,56,150
48.72920,-0.07350,0.11165,0.00000,0.03282,0.97600,-0.18764,0.0,2023,6,7,17,6,56,161
48.72930,-0.09100,0.09415,0.00000,0.03087,0.97868,-0.18849,0.0,2023,6,7,17,6,56,172
48.72940,-0.16100,0.18165,0.00000,0.03111,0.97759,-0.18751,0.0,2023,6,7,17,6,56,183
48.72950,-0.00350,-0.11585,0.00000,0.03087,0.97771,-0.18800,0.0,2023,6,7,17,6,56,194
48.72960,0.06650,-0.06335,0.00000,0.03038,0.97661,-0.19142,0.0,2023,6,7,17,6,56,205
48.72970,0.11900,0.00665,0.00000,0.03233,0.97807,-0.19069,0.0,2023,6,7,17,6,56,217
48.72980,-0.10850,-0.02835,0.00000,0.02977,0.97783,-0.18776,0.0,2023,6,7,17,6,56,228
48.72990,0.31150,0.04165,0.00000,0.03087,0.97600,-0.18983,0.0,2023,6,7,17,6,56,239
48.73000,-0.19600,0.32165,0.00000,0.03148,0.97527,-0.18593,0.0,2023,6,7,17,6,56,250
48.73010,-0.16100,-0.02835,0.00000,0.02977,0.97685,-0.18776,0.0,2023,6,7,17,6,56,261
48.73020,0.39900,-0.02835,0.00000,0.03209,0.97746,-0.19008,0.0,2023,6,7,17,6,56,272
48.73030,0.08400,0.02415,0.00000,0.03148,0.97698,-0.18654,0.0,2023,6,7,17,6,56,283
48.73040,0.10150,-0.25585,0.00000,0.03062,0.97685,-0.19020,0.0,2023,6,7,17,6,56,294
48.73050,0.17150,0.00665,0.00000,0.03074,0.97637,-0.18788,0.0,2023,6,7,17,6,56,305
48.73060,0.01400,-0.15085,0.00000,0.03209,0.97795,-0.18739,0.0,2023,6,7,17,6,56,316
48.73070,0.01400,0.23415,0.00000,0.03001,0.97832,-0.18995,0.0,2023,6,7,17,6,56,327
48.73080,-0.16100,-0.09835,0.00000,0.03257,0.97856,-0.18617,0.0,2023,6,7,17,6,56,338
48.73090,0.24150,0.05915,0.00000,0.03282,0.97929,-0.18788,0.0,2023,6,7,17,6,56,349
48.73100,-0.00350,0.12915,0.00000,0.03123,0.97490,-0.18617,0.0,2023,6,7,17,6,56,360
48.73110,-0.10850,-0.13335,0.00000,0.03392,0.97771,-0.18983,0.0,2023,6,7,17,6,56,371
48.73120,0.10150,-0.09835,0.00000,0.03184,0.97563,-0.19081,0.0,2023,6,7,17,6,56,382
48.73130,0.03150,0.04165,0.00000,0.03026,0.97515,-0.18715,0.0,2023,6,7,17,6,56,393
48.73140,-0.00350,0.05915,0.00000,0.03111,0.97649,-0.18751,0.0,2023,6,7,17,6,56,404
48.73150,-0.00350,-0.15085,0.00000,0.03099,0.97795,-0.18934,0.0,2023,6,7,17,6,56,415
48.73160,0.18900,-0.06335,0.00000,0.02818,0.97515,-0.18934,0.0,2023,6,7,17,6,56,426
48.73170,-0.07350,-0.11585,0.00000,0.03160,0.97576,-0.18886,0.0,2023,6,7,17,6,56,437
48.73180,-0.00350,-0.06335,0.00000,0.03318,0.97722,-0.18776,0.0,2023,6,7,17,6,56,448
48.73190,0.08400,-0.06335,0.00000,0.03038,0.97807,-0.19117,0.0,2023,6,7,17,6,56,459
48.73200,-0.17850,0.04165,0.00000,0.03038,0.97710,-0.18934,0.0,2023,6,7,17,6,56,470
48.73210,0.06650,-0.06335,0.00000,0.03331,0.97344,-0.18812,0.0,2023,6,7,17,6,56,481
48.73220,-0.02100,0.18165,0.00000,0.03160,0.97576,-0.18751,0.0,2023,6,7,17,6,56,492
48.73230,0.13650,0.07665,0.00000,0.03196,0.97795,-0.19093,0.0,2023,6,7,17,6,56,503
48.73240,-0.02100,-0.04585,0.00000,0.03111,0.97710,-0.18812,0.0,2023,6,7,17,6,56,514
48.73250,-0.23100,0.02415,0.00000,0.03050,0.97588,-0.18825,0.0,2023,6,7,17,6,56,525
48.73260,0.03150,-0.01085,0.00000,0.03233,0.97905,-0.18873,0.0,2023,6,7,17,6,56,536
48.73270,0.01400,-0.02835,0.00000,0.03062,0.97563,-0.18605,0.0,2023,6,7,17,6,56,547
48.73280,-0.05600,-0.06335,0.00000,0.03233,0.97698,-0.18934,0.0,2023,6,7,17,6,56,558
48.73290,0.10150,0.00665,0.00000,0.03062,0.97783,-0.18873,0.0,2023,6,7,17,6,56,569
48.73300,0.03150,0.32165,0.00000,0.03331,0.97856,-0.18947,0.0,2023,6,7,17,6,56,580
48.73310,0.01400,0.11165,0.00000,0.03245,0.97844,-0.18605,0.0,2023,6,7,17,6,56,592
48.73320,0.03150,-0.13335,0.00000,0.03001,0.97502,-0.18849,0.0,2023,6,7,17,6,56,603
48.73330,0.25900,0.00665,0.00000,0.03111,0.97954,-0.19044,0.0,2023,6,7,17,6,56,614
48.73340,0.08400,0.11165,0.00000,0.03184,0.97600,-0.18959,0.0,2023,6,7,17,6,56,625
48.73350,-0.26600,0.16415,0.00000,0.03318,0.97820,-0.18654,0.0,2023,6,7,17,6,56,636
48.73360,0.32900,0.02415,0.00000,0.03209,0.97856,-0.19081,0.0,2023,6,7,17,6,56,647
48.73370,0.20650,0.04165,0.00000,0.03331,0.97710,-0.18666,0.0,2023,6,7,17,6,56,658
48.73380,-0.14350,0.07665,0.00000,0.02989,0.97612,-0.18861,0.0,2023,6,7,17,6,56,669
48.73390,0.04900,-0.04585,0.00000,0.03135,0.97637,-0.18934,0.0,2023,6,7,17,6,56,680
48.73400,-0.09100,0.04165,0.00000,0.03160,0.97917,-0.18825,0.0,2023,6,7,17,6,56,691
48.73410,0.03150,0.05915,0.00000,0.03233,0.97551,-0.18947,0.0,2023,6,7,17,6,56,702
48.73420,-0.02100,0.02415,0.00000,0.03148,0.97771,-0.18983,0.0,2023,6,7,17,6,56,713
48.73430,0.24150,0.09415,0.00000,0.03160,0.97551,-0.18922,0.0,2023,6,7,17,6,56,724
48.73440,-0.19600,-0.01085,0.00000,0.03123,0.97600,-0.18788,0.0,2023,6,7,17,6,56,735
48.73450,0.08400,-0.09835,0.00000,0.03196,0.97722,-0.18825,0.0,2023,6,7,17,6,56,746
48.73460,0.04900,-0.09835,0.00000,0.03099,0.97856,-0.19178,0.0,2023,6,7,17,6,56,757
48.73470,0.08400,-0.02835,0.00000,0.02867,0.97771,-0.18703,0.0,2023,6,7,17,6,56,768
48.73480,-0.02100,0.00665,0.00000,0.02977,0.97649,-0.18812,0.0,2023,6,7,17,6,56,779
48.73490,0.17150,0.04165,0.00000,0.03099,0.97746,-0.19032,0.0,2023,6,7,17,6,56,790
48.73500,0.36400,-0.06335,0.00000,0.03050,0.97637,-0.18959,0.0,2023,6,7,17,6,56,801
48.73510,-0.02100,0.14665,0.00000,0.03270,0.97478,-0.19008,0.0,2023,6,7,17,6,56,812
48.73520,0.15400,-0.15085,0.00000,0.03074,0.97551,-0.19117,0.0,2023,6,7,17,6,56,823
48.73530,-0.02100,0.00665,0.00000,0.03318,0.97649,-0.18666,0.0,2023,6,7,17,6,56,834
48.73540,-0.16100,0.02415,0.00000,0.03135,0.97612,-0.18605,0.0,2023,6,7,17,6,56,845
48.73550,0.20650,-0.02835,0.00000,0.03062,0.97673,-0.19044,0.0,2023,6,7,17,6,56,856
48.73560,0.18900,-0.04585,0.00000,0.03111,0.97490,-0.18995,0.0,2023,6,7,17,6,56,867
48.73570,0.04900,-0.08085,0.00000,0.03221,0.97637,-0.18751,0.0,2023,6,7,17,6,56,878
48.73580,0.13650,-0.13335,0.00000,0.03294,0.97820,-0.18947,0.0,2023,6,7,17,6,56,889
48.73590,0.11900,0.05915,0.00000,0.03135,0.97600,-0.19020,0.0,2023,6,7,17,6,56,900
48.73600,-0.00350,-0.09835,0.00000,0.03087,0.97515,-0.18873,0.0,2023,6,7,17,6,56,911
48.73610,-0.03850,0.32165,0.00000,0.03050,0.97649,-0.18776,0.0,2023,6,7,17,6,56,922
48.73620,-0.02100,0.02415,0.00000,0.03245,0.97698,-0.18715,0.0,2023,6,7,17,6,56,933
48.73630,0.03150,-0.08085,0.00000,0.03184,0.97588,-0.18983,0.0,2023,6,7,17,6,56,944
48.73640,0.22400,0.02415,0.00000,0.03038,0.97624,-0.18910,0.0,2023,6,7,17,6,56,956
48.73650,-0.19600,0.04165,0.00000,0.03209,0.97612,-0.19069,0.0,2023,6,7,17,6,56,967
48.73660,-0.14350,0.18165,0.00000,0.03172,0.97307,-0.18788,0.0,2023,6,7,17,6,56,978
48.73670,0.08400,0.07665,0.00000,0.03050,0.97649,-0.18690,0.0,2023,6,7,17,6,56,989
48.73680,-0.17850,0.25165,0.00000,0.03123,0.97527,-0.18934,0.0,2023,6,7,17,6,56,0
48.73690,0.04900,0.16415,0.00000,0.03245,0.97441,-0.18983,0.0,2023,6,7,17,6,57,0
48.73700,-0.23100,0.12915,0.00000,0.02977,0.97881,-0.18922,0.0,2023,6,7,17,6,57,11
48.73710,-0.19600,0.09415,0.00000,0.03074,0.97563,-0.18703,0.0,2023,6,7,17,6,57,22
48.73720,-0.05600,-0.09835,0.00000,0.02977,0.97673,-0.18812,0.0,2023,6,7,17,6,57,33
48.73730,0.17150,-0.09835,0.00000,0.03148,0.97624,-0.18886,0.0,2023,6,7,17,6,57,44
48.73740,0.04900,-0.09835,0.00000,0.03221,0.97649,-0.18947,0.0,2023,6,7,17,6,57,55
48.73750,0.08400,-0.08085,0.00000,0.03306,0.97929,-0.18837,0.0,2023,6,7,17,6,57,66
48.73760,-0.05600,-0.04585,0.00000,0.02928,0.97454,-0.18617,0.0,2023,6,7,17,6,57,77
48.73770,0.10150,0.00665,0.00000,0.03038,0.97820,-0.18983,0.0,2023,6,7,17,6,57,88
48.73780,-0.07350,0.07665,0.00000,0.02940,0.97844,-0.18837,0.0,2023,6,7,17,6,57,99
48.73790,-0.12600,0.12915,0.00000,0.02965,0.97490,-0.18886,0.0,2023,6,7,17,6,57,110
48.73800,-0.09100,0.04165,0.00000,0.03392,0.97600,-0.18654,0.0,2023,6,7,17,6,57,121
48.73810,-0.07350,-0.08085,0.00000,0.03245,0.97551,-0.18727,0.0,2023,6,7,17,6,57,132
48.73820,0.08400,0.30415,0.00000,0.02965,0.97539,-0.19105,0.0,2023,6,7,17,6,57,143
48.73830,0.31150,0.04165,0.00000,0.03257,0.97588,-0.18910,0.0,2023,6,7,17,6,57,154
48.73840,-0.00350,-0.15085,0.00000,0.03099,0.97820,-0.19081,0.0,2023,6,7,17,6,57,165
48.73850,-0.07350,0.28665,0.00000,0.03062,0.97759,-0.18995,0.0,2023,6,7,17,6,57,176
48.73860,0.04900,0.07665,0.00000,0.03087,0.97637,-0.19069,0.0,2023,6,7,17,6,57,187
48.73870,0.01400,-0.15085,0.00000,0.03221,0.97698,-0.18788,0.0,2023,6,7,17,6,57,198
48.73880,-0.00350,0.23415,0.00000,0.03343,0.97698,-0.19044,0.0,2023,6,7,17,6,57,209
48.73890,-0.02100,0.12915,0.00000,0.03111,0.97649,-0.18873,0.0,2023,6,7,17,6,57,220
48.73900,0.08400,-0.15085,0.00000,0.03221,0.97722,-0.18690,0.0,2023,6,7,17,6,57,231
48.73910,-0.03850,0.12915,0.00000,0.03160,0.97746,-0.19191,0.0,2023,6,7,17,6,57,242
48.73920,0.11900,-0.06335,0.00000,0.03196,0.97710,-0.19008,0.0,2023,6,7,17,6,57,253
48.73930,-0.10850,0.04165,0.00000,0.03111,0.97759,-0.18690,0.0,2023,6,7,17,6,57,264
48.73940,-0.10850,0.09415,0.00000,0.03233,0.97527,-0.18995,0.0,2023,6,7,17,6,57,275
48.73950,-0.10850,0.00665,0.00000,0.03026,0.97710,-0.18593,0.0,2023,6,7,17,6,57,286
48.73960,-0.03850,0.02415,0.00000,0.02940,0.97393,-0.19069,0.0,2023,6,7,17,6,57,297
48.73970,0.13650,0.00665,0.00000,0.03148,0.97698,-0.18788,0.0,2023,6,7,17,6,57,309
48.73980,-0.12600,-0.08085,0.00000,0.03099,0.97637,-0.18776,0.0,2023,6,7,17,6,57,320
48.73990,-0.02100,-0.04585,0.00000,0.03392,0.97576,-0.18947,0.0,2023,6,7,17,6,57,331
48.74000,0.17150,0.07665,0.00000,0.03062,0.97661,-0.18812,0.0,2023,6,7,17,6,57,342
48.74010,-0.05600,0.04165,0.00000,0.02940,0.97576,-0.18800,0.0,2023,6,7,17,6,57,353
48.74020,0.20650,-0.13335,0.00000,0.03221,0.97624,-0.18739,0.0,2023,6,7,17,6,57,364
48.74030,0.01400,-0.11585,0.00000,0.03099,0.97673,-0.18800,0.0,2023,6,7,17,6,57,375
48.74040,0.08400,-0.15085,0.00000,0.03123,0.97539,-0.19081,0.0,2023,6,7,17,6,57,386
48.74050,0.13650,-0.13335,0.00000,0.02952,0.97539,-0.18959,0.0,2023,6,7,17,6,57,397
48.74060,0.15400,0.00665,0.00000,0.03038,0.97393,-0.18764,0.0,2023,6,7,17,6,57,408
48.74070,0.15400,-0.06335,0.00000,0.03221,0.97612,-0.18788,0.0,2023,6,7,17,6,57,419
48.74080,-0.05600,-0.04585,0.00000,0.02855,0.97698,-0.18825,0.0,2023,6,7,17,6,57,430
48.74090,0.01400,-0.18585,0.00000,0.03282,0.97698,-0.19008,0.0,2023,6,7,17,6,57,441
48.74100,0.10150,-0.06335,0.00000,0.03001,0.97820,-0.18764,0.0,2023,6,7,17,6,57,452
48.74110,-0.31850,0.28665,0.00000,0.03111,0.97478,-0.18678,0.0,2023,6,7,17,6,57,463
48.74120,0.10150,-0.09835,0.00000,0.03111,0.97527,-0.18715,0.0,2023,6,7,17,6,57,474
48.74130,0.22400,-0.02835,0.00000,0.03172,0.97698,-0.18849,0.0,2023,6,7,17,6,57,485
48.74140,-0.14350,0.14665,0.00000,0.02928,0.97759,-0.18861,0.0,2023,6,7,17,6,57,496
48.74150,0.15400,0.00665,0.00000,0.03196,0.97576,-0.18934,0.0,2023,6,7,17,6,57,507
48.74160,-0.02100,0.02415,0.00000,0.03209,0.97624,-0.18739,0.0,2023,6,7,17,6,57,518
48.74170,-0.03850,-0.02835,0.00000,0.03123,0.97771,-0.18947,0.0,2023,6,7,17,6,57,529
48.74180,0.10150,0.19915,0.00000,0.03245,0.97502,-0.19105,0.0,2023,6,7,17,6,57,540
48.74190,-0.10850,0.04165,0.00000,0.03087,0.97441,-0.18825,0.0,2023,6,7,17,6,57,551
48.74200,-0.09100,-0.06335,0.00000,0.02952,0.97820,-0.18739,0.0,2023,6,7,17,6,57,562
48.74210,0.03150,-0.15085,0.00000,0.03111,0.97454,-0.18727,0.0,2023,6,7,17,6,57,573
48.74220,0.11900,-0.13335,0.00000,0.02843,0.97722,-0.18812,0.0,2023,6,7,17,6,57,584
48.74230,-0.09100,0.16415,0.00000,0.03221,0.97942,-0.18739,0.0,2023,6,7,17,6,57,595
48.74240,0.03150,-0.06335,0.00000,0.03416,0.97551,-0.18776,0.0,2023,6,7,17,6,57,606
48.74250,-0.05600,0.12915,0.00000,0.03257,0.97405,-0.18751,0.0,2023,6,7,17,6,57,617
48.74260,-0.02100,0.14665,0.00000,0.03026,0.97746,-0.19203,0.0,2023,6,7,17,6,57,628
48.74270,-0.02100,-0.13335,0.00000,0.03062,0.97563,-0.19032,0.0,2023,6,7,17,6,57,639
48.74280,-0.10850,-0.02835,0.00000,0.03209,0.97783,-0.18520,0.0,2023,6,7,17,6,57,650
48.74290,-0.00350,0.02415,0.00000,0.03233,0.97734,-0.19130,0.0,2023,6,7,17,6,57,661
48.74300,0.11900,0.12915,0.00000,0.03148,0.97478,-0.18776,0.0,2023,6,7,17,6,57,672
48.74310,-0.17850,-0.02835,0.00000,0.02940,0.97527,-0.18678,0.0,2023,6,7,17,6,57,684
48.74320,0.15400,-0.08085,0.00000,0.03135,0.97502,-0.19056,0.0,2023,6,7,17,6,57,695
48.74330,0.18900,0.04165,0.00000,0.03196,0.97783,-0.18690,0.0,2023,6,7,17,6,57,706
48.74340,-0.07350,0.18165,0.00000,0.03026,0.97563,-0.18727,0.0,2023,6,7,17,6,57,717
48.74350,0.03150,0.12915,0.00000,0.02977,0.97929,-0.18764,0.0,2023,6,7,17,6,57,728
48.74360,-0.12600,0.23415,0.00000,0.03196,0.97332,-0.18898,0.0,2023,6,7,17,6,57,739
48.74370,-0.07350,-0.02835,0.00000,0.03306,0.97637,-0.18995,0.0,2023,6,7,17,6,57,750
48.74380,0.08400,0.02415,0.00000,0.03343,0.97515,-0.18776,0.0,2023,6,7,17,6,57,761
48.74390,0.03150,-0.09835,0.00000,0.03172,0.97612,-0.18703,0.0,2023,6,7,17,6,57,772
48.74400,0.11900,-0.02835,0.00000,0.03087,0.97612,-0.19130,0.0,2023,6,7,17,6,57,783
48.74410,0.17150,0.07665,0.00000,0.03233,0.97258,-0.18800,0.0,2023,6,7,17,6,57,794
48.74420,-0.19600,-0.13335,0.00000,0.03331,0.97820,-0.18556,0.0,2023,6,7,17,6,57,805
48.74430,0.06650,0.18165,0.00000,0.03160,0.97759,-0.18983,0.0,2023,6,7,17,6,57,816
48.74440,0.31150,-0.06335,0.00000,0.03062,0.97844,-0.18910,0.0,2023,6,7,17,6,57,827
48.74450,-0.12600,-0.13335,0.00000,0.03087,0.97649,-0.18581,0.0,2023,6,7,17,6,57,838
48.74460,0.03150,-0.04585,0.00000,0.03245,0.97783,-0.18861,0.0,2023,6,7,17,6,57,849
48.74470,0.17150,0.05915,0.00000,0.03026,0.97759,-0.18849,0.0,2023,6,7,17,6,57,860
48.74480,-0.09100,-0.02835,0.00000,0.03196,0.97734,-0.18678,0.0,2023,6,7,17,6,57,871
48.74490,-0.12600,-0.04585,0.00000,0.03282,0.97441,-0.18886,0.0,2023,6,7,17,6,57,882
48.74500,-0.05600,0.07665,0.00000,0.03343,0.97649,-0.18861,0.0,2023,6,7,17,6,57,893
48.74510,-0.02100,-0.11585,0.00000,0.03196,0.97527,-0.18764,0.0,2023,6,7,17,6,57,904
48.74520,-0.02100,-0.13335,0.00000,0.03294,0.97649,-0.18751,0.0,2023,6,7,17,6,57,915
48.74530,0.13650,-0.08085,0.00000,0.03111,0.97673,-0.18861,0.0,2023,6,7,17,6,57,926
48.74540,0.15400,0.18165,0.00000,0.02989,0.97893,-0.18922,0.0,2023,6,7,17,6,57,937
48.74550,-0.10850,0.12915,0.00000,0.03013,0.97698,-0.19020,0.0,2023,6,7,17,6,57,948
48.74560,-0.07350,0.25165,0.00000,0.03123,0.97624,-0.18678,0.0,2023,6,7,17,6,57,959
48.74570,0.04900,0.09415,0.00000,0.03111,0.97868,-0.18849,0.0,2023,6,7,17,6,57,970
48.74580,-0.00350,0.00665,0.00000,0.03172,0.97673,-0.18727,0.0,2023,6,7,17,6,57,981
48.74590,-0.17850,0.00665,0.00000,0.03148,0.97441,-0.19105,0.0,2023,6,7,17,6,57,992
48.74600,-0.02100,-0.01085,0.00000,0.03123,0.97771,-0.18825,0.0,2023,6,7,17,6,58,2
48.74610,-0.14350,0.05915,0.00000,0.03306,0.97551,-0.18654,0.0,2023,6,7,17,6,58,13
48.74620,-0.00350,0.02415,0.00000,0.03184,0.97698,-0.18910,0.0,2023,6,7,17,6,58,24
48.74630,0.13650,0.02415,0.00000,0.03148,0.97588,-0.18727,0.0,2023,6,7,17,6,58,35
48.74640,-0.28350,0.19915,0.00000,0.03416,0.97637,-0.18471,0.0,2023,6,7,17,6,58,47
48.74650,-0.12600,0.16415,0.00000,0.03062,0.97685,-0.18886,0.0,2023,6,7,17,6,58,58
48.74660,0.20650,0.18165,0.00000,0.03074,0.97624,-0.18800,0.0,2023,6,7,17,6,58,69
48.74670,0.15400,-0.08085,0.00000,0.02843,0.97771,-0.19081,0.0,2023,6,7,17,6,58,80
48.74680,0.25900,-0.08085,0.00000,0.03245,0.97539,-0.18666,0.0,2023,6,7,17,6,58,91
48.74690,0.11900,-0.09835,0.00000,0.03172,0.97539,-0.18593,0.0,2023,6,7,17,6,58,102
48.74700,-0.33600,0.16415,0.00000,0.03111,0.97600,-0.18788,0.0,2023,6,7,17,6,58,113
48.74710,0.10150,-0.13335,0.00000,0.03111,0.97698,-0.19032,0.0,2023,6,7,17,6,58,124
48.74720,-0.10850,0.11165,0.00000,0.03160,0.97734,-0.18678,0.0,2023,6,7,17,6,58,135
48.74730,-0.02100,-0.02835,0.00000,0.03245,0.97795,-0.18727,0.0,2023,6,7,17,6,58,146
48.74740,0.17150,0.14665,0.00000,0.03148,0.97856,-0.19056,0.0,2023,6,7,17,6,58,157
48.74750,0.11900,-0.02835,0.00000,0.03026,0.97588,-0.18825,0.0,2023,6,7,17,6,58,168
48.74760,0.04900,0.05915,0.00000,0.03160,0.97661,-0.19191,0.0,2023,6,7,17,6,58,179
48.74770,-0.03850,0.04165,0.00000,0.03306,0.97795,-0.18739,0.0,2023,6,7,17,6,58,190
48.74780,-0.31850,0.26915,0.00000,0.03257,0.97795,-0.18739,0.0,2023,6,7,17,6,58,201
48.74790,0.24150,-0.13335,0.00000,0.02952,0.97807,-0.18727,0.0,2023,6,7,17,6,58,212
48.74800,-0.07350,0.02415,0.00000,0.03123,0.97673,-0.18788,0.0,2023,6,7,17,6,58,223
48.74810,-0.31850,0.05915,0.00000,0.02977,0.97820,-0.18825,0.0,2023,6,7,17,6,58,234
48.74820,0.27650,-0.06335,0.00000,0.03172,0.97612,-0.18934,0.0,2023,6,7,17,6,58,245
48.74830,-0.23100,0.16415,0.00000,0.03099,0.97417,-0.18629,0.0,2023,6,7,17,6,58,256
48.74840,-0.03850,-0.02835,0.00000,0.02989,0.97649,-0.19020,0.0,2023,6,7,17,6,58,267
48.74850,0.24150,-0.15085,0.00000,0.03026,0.97539,-0.18605,0.0,2023,6,7,17,6,58,278
48.74860,-0.19600,0.11165,0.00000,0.03270,0.97490,-0.18507,0.0,2023,6,7,17,6,58,289
48.74870,-0.05600,-0.15085,0.00000,0.03196,0.97698,-0.19044,0.0,2023,6,7,17,6,58,300
48.74880,0.15400,0.07665,0.00000,0.03306,0.97624,-0.18727,0.0,2023,6,7,17,6,58,311
48.74890,-0.19600,-0.06335,0.00000,0.03196,0.97710,-0.18690,0.0,2023,6,7,17,6,58,322
48.74900,-0.09100,0.02415,0.00000,0.02977,0.97722,-0.18812,0.0,2023,6,7,17,6,58,333
48.74910,-0.07350,0.19915,0.00000,0.03477,0.97502,-0.18678,0.0,2023,6,7,17,6,58,344
48.74920,-0.07350,0.14665,0.00000,0.03135,0.97502,-0.19069,0.0,2023,6,7,17,6,58,355
48.74930,0.17150,0.09415,0.00000,0.03367,0.97563,-0.19044,0.0,2023,6,7,17,6,58,366
48.74940,-0.07350,-0.06335,0.00000,0.03160,0.97685,-0.18617,0.0,2023,6,7,17,6,58,377
48.74950,0.06650,-0.13335,0.00000,0.03074,0.97637,-0.18910,0.0,2023,6,7,17,6,58,388
48.74960,-0.00350,-0.13335,0.00000,0.03148,0.97600,-0.18666,0.0,2023,6,7,17,6,58,399
48.74970,0.01400,-0.02835,0.00000,0.03111,0.97771,-0.19069,0.0,2023,6,7,17,6,58,411
48.74980,-0.16100,0.07665,0.00000,0.03038,0.97832,-0.18751,0.0,2023,6,7,17,6,58,422
48.74990,0.13650,-0.04585,0.00000,0.03257,0.97490,-0.18715,0.0,2023,6,7,17,6,58,433
48.75000,-0.16100,0.07665,0.00000,0.03379,0.97454,-0.18776,0.0,2023,6,7,17,6,58,444
48.75010,0.06650,0.00665,0.00000,0.02928,0.97807,-0.18800,0.0,2023,6,7,17,6,58,455
48.75020,-0.02100,0.09415,0.00000,0.03062,0.97344,-0.18825,0.0,2023,6,7,17,6,58,466
48.75030,-0.30100,-0.01085,0.00000,0.03074,0.97551,-0.18776,0.0,2023,6,7,17,6,58,477
48.75040,0.04900,0.18165,0.00000,0.03038,0.97612,-0.18825,0.0,2023,6,7,17,6,58,488
48.75050,0.06650,-0.02835,0.00000,0.03184,0.97332,-0.18727,0.0,2023,6,7,17,6,58,499
48.75060,-0.05600,0.00665,0.00000,0.02965,0.97515,-0.18825,0.0,2023,6,7,17,6,58,510
48.75070,-0.07350,0.14665,0.00000,0.02891,0.97722,-0.18983,0.0,2023,6,7,17,6,58,521
48.75080,0.22400,-0.02835,0.00000,0.03001,0.97771,-0.19008,0.0,2023,6,7,17,6,58,532
48.75090,0.08400,0.02415,0.00000,0.03135,0.97685,-0.18593,0.0,2023,6,7,17,6,58,543
48.75100,-0.26600,0.11165,0.00000,0.03294,0.97454,-0.19117,0.0,2023,6,7,17,6,58,554
48.75110,0.11900,-0.08085,0.00000,0.03123,0.97832,-0.18825,0.0,2023,6,7,17,6,58,565
48.75120,-0.12600,0.02415,0.00000,0.03233,0.97612,-0.18690,0.0,2023,6,7,17,6,58,576
48.75130,-0.16100,-0.04585,0.00000,0.03270,0.97893,-0.18910,0.0,2023,6,7,17,6,58,587
48.75140,0.15400,0.37415,0.00000,0.03331,0.97600,-0.18739,0.0,2023,6,7,17,6,58,598
48.75150,-0.09100,0.21665,0.00000,0.03038,0.97527,-0.18654,0.0,2023,6,7,17,6,58,609
48.75160,-0.02100,0.04165,0.00000,0.03013,0.97795,-0.18959,0.0,2023,6,7,17,6,58,620
48.75170,-0.03850,0.18165,0.00000,0.03013,0.97734,-0.18629,0.0,2023,6,7,17,6,58,631
48.75180,-0.09100,0.19915,0.00000,0.03160,0.97563,-0.18764,0.0,2023,6,7,17,6,58,642
48.75190,0.06650,-0.06335,0.00000,0.03245,0.97905,-0.18812,0.0,2023,6,7,17,6,58,653
48.75200,0.03150,-0.11585,0.00000,0.03135,0.97612,-0.18666,0.0,2023,6,7,17,6,58,664
48.75210,0.08400,-0.01085,0.00000,0.03026,0.97832,-0.19032,0.0,2023,6,7,17,6,58,675
48.75220,0.17150,0.21665,0.00000,0.03209,0.97637,-0.19069,0.0,2023,6,7,17,6,58,686
48.75230,-0.07350,0.19915,0.00000,0.03050,0.97258,-0.18898,0.0,2023,6,7,17,6,58,697
48.75240,0.06650,0.04165,0.00000,0.02891,0.97576,-0.18666,0.0,2023,6,7,17,6,58,708
48.75250,0.03150,-0.09835,0.00000,0.03160,0.97746,-0.18800,0.0,2023,6,7,17,6,58,719
48.75260,-0.07350,0.02415,0.00000,0.03343,0.97515,-0.18410,0.0,2023,6,7,17,6,58,730
48.75270,-0.00350,-0.09835,0.00000,0.03233,0.97698,-0.19081,0.0,2023,6,7,17,6,58,741
48.75280,0.36400,-0.08085,0.00000,0.03135,0.97698,-0.19044,0.0,2023,6,7,17,6,58,752
48.75290,-0.14350,0.05915,0.00000,0.03160,0.97332,-0.18544,0.0,2023,6,7,17,6,58,763
48.75300,-0.40600,0.04165,0.00000,0.03233,0.97612,-0.19105,0.0,2023,6,7,17,6,58,774
48.75310,0.18900,0.04165,0.00000,0.03160,0.97698,-0.18861,0.0,2023,6,7,17,6,58,786
48.75320,-0.17850,0.00665,0.00000,0.03135,0.97685,-0.18812,0.0,2023,6,7,17,6,58,797
48.75330,0.13650,-0.04585,0.00000,0.03257,0.97637,-0.19105,0.0,2023,6,7,17,6,58,808
48.75340,0.01400,0.07665,0.00000,0.03013,0.97527,-0.18568,0.0,2023,6,7,17,6,58,819
48.75350,-0.26600,-0.06335,0.00000,0.03026,0.97807,-0.18520,0.0,2023,6,7,17,6,58,830
48.75360,0.10150,0.23415,0.00000,0.03209,0.97576,-0.19020,0.0,2023,6,7,17,6,58,841
48.75370,0.03150,-0.04585,0.00000,0.03270,0.97478,-0.18617,0.0,2023,6,7,17,6,58,852
48.75380,0.04900,-0.02835,0.00000,0.03148,0.97600,-0.18971,0.0,2023,6,7,17,6,58,863
48.75390,0.25900,-0.23835,0.00000,0.03367,0.97624,-0.18788,0.0,2023,6,7,17,6,58,874
48.75400,-0.31850,0.16415,0.00000,0.03233,0.97490,-0.18446,0.0,2023,6,7,17,6,58,885
48.75410,-0.03850,-0.01085,0.00000,0.03050,0.97881,-0.18825,0.0,2023,6,7,17,6,58,896
48.75420,0.18900,-0.02835,0.00000,0.03099,0.97393,-0.18764,0.0,2023,6,7,17,6,58,907
48.75430,-0.35350,0.12915,0.00000,0.03221,0.97588,-0.18642,0.0,2023,6,7,17,6,58,918
48.75440,0.17150,0.04165,0.00000,0.03233,0.97917,-0.18934,0.0,2023,6,7,17,6,58,929
48.75450,0.15400,0.11165,0.00000,0.03270,0.97478,-0.18678,0.0,2023,6,7,17,6,58,940
48.75460,-0.10850,-0.06335,0.00000,0.03087,0.97649,-0.19020,0.0,2023,6,7,17,6,58,951
48.75470,0.13650,0.07665,0.00000,0.03026,0.97527,-0.19142,0.0,2023,6,7,17,6,58,962
48.75480,0.06650,-0.02835,0.00000,0.03233,0.97942,-0.18520,0.0,2023,6,7,17,6,58,973
48.75490,-0.12600,0.05915,0.00000,0.03270,0.97710,-0.18849,0.0,2023,6,7,17,6,58,984
48.75500,0.20650,0.09415,0.00000,0.03245,0.97759,-0.19142,0.0,2023,6,7,17,6,59,5
48.75510,-0.26600,0.12915,0.00000,0.03282,0.97588,-0.18654,0.0,2023,6,7,17,6,59,16
48.75520,0.04900,0.09415,0.00000,0.03026,0.97832,-0.19069,0.0,2023,6,7,17,6,59,27
48.75530,0.01400,-0.02835,0.00000,0.03135,0.97502,-0.18703,0.0,2023,6,7,17,6,59,38
48.75540,-0.02100,-0.15085,0.00000,0.03282,0.97515,-0.18629,0.0,2023,6,7,17,6,59,49
48.75550,-0.07350,-0.01085,0.00000,0.03148,0.97685,-0.18800,0.0,2023,6,7,17,6,59,60
48.75560,0.24150,-0.02835,0.00000,0.03099,0.97551,-0.18922,0.0,2023,6,7,17,6,59,71
48.75570,-0.14350,0.02415,0.00000,0.03050,0.97637,-0.18971,0.0,2023,6,7,17,6,59,82
48.75580,-0.02100,-0.08085,0.00000,0.03318,0.97673,-0.18788,0.0,2023,6,7,17,6,59,93
48.75590,-0.09100,0.16415,0.00000,0.03270,0.97734,-0.18825,0.0,2023,6,7,17,6,59,104
48.75600,-0.16100,-0.02835,0.00000,0.03184,0.97771,-0.18825,0.0,2023,6,7,17,6,59,115
48.75610,-0.05600,0.05915,0.00000,0.03074,0.97710,-0.18825,0.0,2023,6,7,17,6,59,126
48.75620,0.22400,-0.02835,0.00000,0.03160,0.97710,-0.18703,0.0,2023,6,7,17,6,59,137
48.75630,-0.24850,0.12915,0.00000,0.03379,0.97515,-0.18678,0.0,2023,6,7,17,6,59,148
48.75640,0.11900,-0.15085,0.00000,0.03184,0.97685,-0.18788,0.0,2023,6,7,17,6,59,160
48.75650,-0.12600,-0.13335,0.00000,0.03196,0.97600,-0.18898,0.0,2023,6,7,17,6,59,171
48.75660,0.06650,-0.16835,0.00000,0.03050,0.97502,-0.18910,0.0,2023,6,7,17,6,59,182
48.75670,0.15400,-0.08085,0.00000,0.03172,0.97722,-0.18849,0.0,2023,6,7,17,6,59,193
48.75680,-0.05600,-0.11585,0.00000,0.03099,0.97551,-0.18910,0.0,2023,6,7,17,6,59,204
48.75690,-0.07350,0.23415,0.00000,0.03050,0.97759,-0.18812,0.0,2023,6,7,17,6,59,215
48.75700,0.04900,0.11165,0.00000,0.03233,0.97563,-0.18910,0.0,2023,6,7,17,6,59,226
48.75710,-0.09100,-0.04585,0.00000,0.03172,0.97661,-0.18971,0.0,2023,6,7,17,6,59,237
48.75720,0.10150,0.09415,0.00000,0.03367,0.97600,-0.18849,0.0,2023,6,7,17,6,59,248
48.75730,-0.05600,0.25165,0.00000,0.03099,0.97759,-0.18605,0.0,2023,6,7,17,6,59,259
48.75740,-0.10850,0.11165,0.00000,0.03062,0.97393,-0.18642,0.0,2023,6,7,17,6,59,270
48.75750,0.18900,0.00665,0.00000,0.02952,0.97661,-0.19142,0.0,2023,6,7,17,6,59,281
48.75760,0.15400,0.11165,0.00000,0.02916,0.97820,-0.18849,0.0,2023,6,7,17,6,59,292
48.75770,0.10150,0.19915,0.00000,0.03062,0.97698,-0.18873,0.0,2023,6,7,17,6,59,303
48.75780,-0.00350,-0.11585,0.00000,0.03172,0.97698,-0.19069,0.0,2023,6,7,17,6,59,314
48.75790,0.01400,-0.06335,0.00000,0.03148,0.97661,-0.18629,0.0,2023,6,7,17,6,59,325
48.75800,0.04900,-0.06335,0.00000,0.03343,0.97722,-0.18690,0.0,2023,6,7,17,6,59,336
48.75810,-0.02100,0.28665,0.00000,0.02965,0.97661,-0.18690,0.0,2023,6,7,17,6,59,347
48.75820,-0.02100,-0.15085,0.00000,0.03087,0.97649,-0.18581,0.0,2023,6,7,17,6,59,358
48.75830,-0.17850,0.18165,0.00000,0.03013,0.97722,-0.18666,0.0,2023,6,7,17,6,59,369
48.75840,0.01400,-0.06335,0.00000,0.03440,0.97722,-0.18690,0.0,2023,6,7,17,6,59,380
48.75850,-0.00350,0.18165,0.00000,0.03196,0.97612,-0.19166,0.0,2023,6,7,17,6,59,391
48.75860,-0.03850,0.05915,0.00000,0.02977,0.97600,-0.19020,0.0,2023,6,7,17,6,59,402
48.75870,0.01400,0.04165,0.00000,0.02830,0.97759,-0.19008,0.0,2023,6,7,17,6,59,413
48.75880,-0.16100,0.07665,0.00000,0.03209,0.97368,-0.18886,0.0,2023,6,7,17,6,59,424
48.75890,0.06650,0.21665,0.00000,0.02965,0.97551,-0.19008,0.0,2023,6,7,17,6,59,435
48.75900,-0.09100,0.14665,0.00000,0.03221,0.97624,-0.18886,0.0,2023,6,7,17,6,59,446
48.75910,-0.00350,-0.04585,0.00000,0.03270,0.97661,-0.18593,0.0,2023,6,7,17,6,59,457
48.75920,0.20650,0.09415,0.00000,0.02989,0.97515,-0.18886,0.0,2023,6,7,17,6,59,468
48.75930,-0.10850,0.00665,0.00000,0.03148,0.97746,-0.18788,0.0,2023,6,7,17,6,59,479
48.75940,0.04900,-0.11585,0.00000,0.03245,0.97710,-0.18544,0.0,2023,6,7,17,6,59,490
48.75950,0.20650,-0.09835,0.00000,0.03013,0.97612,-0.18983,0.0,2023,6,7,17,6,59,501
48.75960,0.13650,0.07665,0.00000,0.03270,0.97783,-0.19117,0.0,2023,6,7,17,6,59,512
48.75970,-0.02100,0.02415,0.00000,0.03087,0.97563,-0.18886,0.0,2023,6,7,17,6,59,524
48.75980,-0.07350,0.09415,0.00000,0.03306,0.97783,-0.19020,0.0,2023,6,7,17,6,59,535
48.75990,-0.00350,0.05915,0.00000,0.03221,0.97551,-0.18849,0.0,2023,6,7,17,6,59,546
48.76000,-0.12600,0.05915,0.00000,0.03099,0.97722,-0.18959,0.0,2023,6,7,17,6,59,557
48.76010,-0.07350,-0.02835,0.00000,0.02977,0.97612,-0.18910,0.0,2023,6,7,17,6,59,568
48.76020,-0.09100,-0.08085,0.00000,0.03306,0.97551,-0.18776,0.0,2023,6,7,17,6,59,579
48.76030,0.25900,0.05915,0.00000,0.03257,0.97746,-0.18922,0.0,2023,6,7,17,6,59,590
48.76040,0.04900,0.07665,0.00000,0.03038,0.97466,-0.18739,0.0,2023,6,7,17,6,59,601
48.76050,0.22400,-0.13335,0.00000,0.03074,0.97795,-0.18886,0.0,2023,6,7,17,6,59,612
48.76060,0.01400,-0.20335,0.00000,0.03428,0.97502,-0.19032,0.0,2023,6,7,17,6,59,623
48.76070,-0.00350,0.05915,0.00000,0.02977,0.97710,-0.18983,0.0,2023,6,7,17,6,59,634
48.76080,0.06650,-0.13335,0.00000,0.03160,0.97722,-0.18861,0.0,2023,6,7,17,6,59,645
48.76090,-0.00350,0.19915,0.00000,0.03221,0.97661,-0.18922,0.0,2023,6,7,17,6,59,656
48.76100,-0.00350,-0.11585,0.00000,0.03099,0.97441,-0.18886,0.0,2023,6,7,17,6,59,667
48.76110,-0.03850,0.09415,0.00000,0.03245,0.97612,-0.18959,0.0,2023,6,7,17,6,59,678
48.76120,0.01400,-0.01085,0.00000,0.03026,0.97771,-0.19008,0.0,2023,6,7,17,6,59,689
48.76130,-0.00350,0.04165,0.00000,0.03135,0.97710,-0.18886,0.0,2023,6,7,17,6,59,700
48.76140,0.10150,-0.06335,0.00000,0.03270,0.97551,-0.18617,0.0,2023,6,7,17,6,59,711
48.76150,0.17150,-0.11585,0.00000,0.03209,0.97490,-0.18825,0.0,2023,6,7,17,6,59,722
48.76160,0.01400,-0.15085,0.00000,0.03099,0.97661,-0.18568,0.0,2023,6,7,17,6,59,733
48.76170,-0.03850,-0.04585,0.00000,0.03038,0.97673,-0.19105,0.0,2023,6,7,17,6,59,744
48.76180,-0.02100,-0.01085,0.00000,0.03209,0.97722,-0.18947,0.0,2023,6,7,17,6,59,755
48.76190,-0.07350,0.05915,0.00000,0.03233,0.97588,-0.18739,0.0,2023,6,7,17,6,59,766
48.76200,-0.00350,-0.08085,0.00000,0.03257,0.97490,-0.18947,0.0,2023,6,7,17,6,59,777
48.76210,0.01400,-0.09835,0.00000,0.03270,0.97661,-0.19069,0.0,2023,6,7,17,6,59,788
48.76220,-0.02100,0.07665,0.00000,0.03355,0.97612,-0.18910,0.0,2023,6,7,17,6,59,799
48.76230,-0.07350,0.07665,0.00000,0.03013,0.97795,-0.19056,0.0,2023,6,7,17,6,59,810
48.76240,-0.07350,-0.09835,0.00000,0.03123,0.97429,-0.18727,0.0,2023,6,7,17,6,59,821
48.76250,-0.21350,0.04165,0.00000,0.03062,0.97588,-0.18800,0.0,2023,6,7,17,6,59,832
48.76260,0.11900,0.00665,0.00000,0.03294,0.97881,-0.18593,0.0,2023,6,7,17,6,59,843
48.76270,-0.02100,-0.15085,0.00000,0.03209,0.97759,-0.18837,0.0,2023,6,7,17,6,59,854
48.76280,-0.16100,0.07665,0.00000,0.02928,0.97783,-0.19093,0.0,2023,6,7,17,6,59,865
48.76290,-0.09100,0.12915,0.00000,0.03184,0.97624,-0.18922,0.0,2023,6,7,17,6,59,876
48.76300,0.08400,0.02415,0.00000,0.03270,0.97746,-0.18544,0.0,2023,6,7,17,6,59,887
48.76310,-0.16100,0.00665,0.00000,0.03087,0.97746,-0.18690,0.0,2023,6,7,17,6,59,899
48.76320,0.10150,-0.04585,0.00000,0.03001,0.97661,-0.18812,0.0,2023,6,7,17,6,59,910
48.76330,-0.05600,0.04165,0.00000,0.03172,0.97832,-0.18812,0.0,2023,6,7,17,6,59,921
48.76340,0.17150,-0.08085,0.00000,0.03160,0.97844,-0.19203,0.0,2023,6,7,17,6,59,932
48.76350,-0.26600,0.30415,0.00000,0.03245,0.97478,-0.18666,0.0,2023,6,7,17,6,59,943
48.76360,-0.02100,0.07665,0.00000,0.03123,0.97685,-0.18812,0.0,2023,6,7,17,6,59,954
48.76370,-0.03850,0.02415,0.00000,0.03148,0.97734,-0.18971,0.0,2023,6,7,17,6,59,965
48.76380,-0.10850,0.04165,0.00000,0.02989,0.97637,-0.18825,0.0,2023,6,7,17,6,59,976
48.76390,-0.07350,-0.13335,0.00000,0.03160,0.97746,-0.18959,0.0,2023,6,7,17,7,0,8
48.76400,0.04900,-0.02835,0.00000,0.03245,0.97332,-0.18910,0.0,2023,6,7,17,7,0,19
48.76410,0.06650,0.04165,0.00000,0.03135,0.97771,-0.18934,0.0,2023,6,7,17,7,0,30
48.76420,0.34650,0.21665,0.00000,0.03038,0.97710,-0.18959,0.0,2023,6,7,17,7,0,41
48.76430,-0.03850,0.25165,0.00000,0.03245,0.97771,-0.18922,0.0,2023,6,7,17,7,0,52
48.76440,-0.16100,0.00665,0.00000,0.03099,0.97844,-0.18983,0.0,2023,6,7,17,7,0,63
48.76450,0.01400,-0.13335,0.00000,0.03160,0.97551,-0.18971,0.0,2023,6,7,17,7,0,74
48.76460,-0.16100,-0.16835,0.00000,0.03026,0.97783,-0.18898,0.0,2023,6,7,17,7,0,85
48.76470,-0.00350,0.05915,0.00000,0.02977,0.97698,-0.18715,0.0,2023,6,7,17,7,0,96
48.76480,0.01400,0.18165,0.00000,0.03074,0.97698,-0.19093,0.0,2023,6,7,17,7,0,107
48.76490,-0.12600,0.16415,0.00000,0.03026,0.97710,-0.18825,0.0,2023,6,7,17,7,0,118
48.76500,0.39900,-0.01085,0.00000,0.03245,0.97710,-0.18825,0.0,2023,6,7,17,7,0,129
48.76510,-0.23100,-0.04585,0.00000,0.03257,0.97685,-0.18910,0.0,2023,6,7,17,7,0,140
48.76520,0.17150,0.00665,0.00000,0.03270,0.97612,-0.19117,0.0,2023,6,7,17,7,0,151
48.76530,0.13650,0.04165,0.00000,0.03196,0.97624,-0.19069,0.0,2023,6,7,17,7,0,162
48.76540,-0.12600,0.02415,0.00000,0.03209,0.97576,-0.18922,0.0,2023,6,7,17,7,0,173
48.76550,0.03150,0.28665,0.00000,0.02989,0.97771,-0.19032,0.0,2023,6,7,17,7,0,184
48.76560,-0.02100,0.02415,0.00000,0.03331,0.97612,-0.18788,0.0,2023,6,7,17,7,0,195
48.76570,0.15400,-0.06335,0.00000,0.03087,0.97612,-0.18751,0.0,2023,6,7,17,7,0,206
48.76580,0.18900,-0.15085,0.00000,0.02940,0.97612,-0.19081,0.0,2023,6,7,17,7,0,217
48.76590,-0.02100,0.02415,0.00000,0.03282,0.97527,-0.18934,0.0,2023,6,7,17,7,0,228
48.76600,-0.00350,-0.08085,0.00000,0.03355,0.97881,-0.18922,0.0,2023,6,7,17,7,0,239
48.76610,0.01400,0.11165,0.00000,0.03123,0.97490,-0.19081,0.0,2023,6,7,17,7,0,250
48.76620,0.01400,-0.11585,0.00000,0.03196,0.97551,-0.19044,0.0,2023,6,7,17,7,0,261
48.76630,-0.16100,0.09415,0.00000,0.03233,0.97637,-0.18934,0.0,2023,6,7,17,7,0,272
48.76640,-0.07350,0.05915,0.00000,0.03245,0.97783,-0.18739,0.0,2023,6,7,17,7,0,284
48.76650,0.04900,-0.01085,0.00000,0.03026,0.97734,-0.18617,0.0,2023,6,7,17,7,0,295
48.76660,-0.05600,-0.06335,0.00000,0.03038,0.97539,-0.19056,0.0,2023,6,7,17,7,0,306
48.76670,-0.00350,0.09415,0.00000,0.02940,0.97588,-0.18873,0.0,2023,6,7,17,7,0,317
48.76680,0.01400,-0.01085,0.00000,0.03172,0.97576,-0.18788,0.0,2023,6,7,17,7,0,328
48.76690,-0.17850,-0.09835,0.00000,0.03111,0.97746,-0.18910,0.0,2023,6,7,17,7,0,339
48.76700,0.08400,0.11165,0.00000,0.03038,0.97539,-0.18934,0.0,2023,6,7,17,7,0,350
48.76710,-0.16100,0.04165,0.00000,0.02830,0.97807,-0.18739,0.0,2023,6,7,17,7,0,361
48.76720,-0.00350,0.23415,0.00000,0.02940,0.97283,-0.19044,0.0,2023,6,7,17,7,0,372
48.76730,0.01400,-0.04585,0.00000,0.03111,0.97600,-0.18776,0.0,2023,6,7,17,7,0,383
48.76740,-0.02100,0.00665,0.00000,0.03074,0.97417,-0.18886,0.0,2023,6,7,17,7,0,394
48.76750,0.03150,-0.20335,0.00000,0.03001,0.97771,-0.19020,0.0,2023,6,7,17,7,0,405
48.76760,0.06650,0.02415,0.00000,0.03087,0.97698,-0.19081,0.0,2023,6,7,17,7,0,416
48.76770,-0.07350,0.14665,0.00000,0.03111,0.97795,-0.18910,0.0,2023,6,7,17,7,0,427
48.76780,-0.03850,0.12915,0.00000,0.02830,0.97710,-0.18861,0.0,2023,6,7,17,7,0,438
48.76790,0.01400,-0.09835,0.00000,0.03135,0.97807,-0.18873,0.0,2023,6,7,17,7,0,449
48.76800,-0.10850,0.05915,0.00000,0.03001,0.97661,-0.18886,0.0,2023,6,7,17,7,0,460
48.76810,-0.03850,0.05915,0.00000,0.03209,0.97673,-0.19093,0.0,2023,6,7,17,7,0,471
48.76820,-0.05600,-0.23835,0.00000,0.03209,0.97600,-0.18690,0.0,2023,6,7,17,7,0,482
48.76830,0.10150,0.04165,0.00000,0.03257,0.97771,-0.18934,0.0,2023,6,7,17,7,0,493
48.76840,0.15400,-0.09835,0.00000,0.03050,0.97905,-0.18910,0.0,2023,6,7,17,7,0,504
48.76850,-0.00350,-0.13335,0.00000,0.03123,0.97685,-0.18776,0.0,2023,6,7,17,7,0,515
48.76860,0.06650,0.05915,0.00000,0.02940,0.97844,-0.18886,0.0,2023,6,7,17,7,0,526
48.76870,0.13650,0.09415,0.00000,0.03111,0.97734,-0.18861,0.0,2023,6,7,17,7,0,537
48.76880,0.01400,0.26915,0.00000,0.03160,0.97600,-0.18825,0.0,2023,6,7,17,7,0,548
48.76890,-0.05600,-0.01085,0.00000,0.03233,0.97685,-0.18690,0.0,2023,6,7,17,7,0,559
48.76900,0.04900,0.30415,0.00000,0.03221,0.97649,-0.18971,0.0,2023,6,7,17,7,0,570
48.76910,0.17150,0.11165,0.00000,0.03062,0.97917,-0.18837,0.0,2023,6,7,17,7,0,581
48.76920,-0.02100,-0.09835,0.00000,0.03074,0.97673,-0.18751,0.0,2023,6,7,17,7,0,592
48.76930,0.01400,0.04165,0.00000,0.03172,0.97612,-0.18837,0.0,2023,6,7,17,7,0,603
48.76940,-0.10850,0.14665,0.00000,0.03172,0.97588,-0.18959,0.0,2023,6,7,17,7,0,614
48.76950,-0.10850,0.09415,0.00000,0.03062,0.97734,-0.18751,0.0,2023,6,7,17,7,0,625
48.76960,-0.07350,0.19915,0.00000,0.03148,0.97771,-0.18971,0.0,2023,6,7,17,7,0,636
48.76970,0.03150,0.02415,0.00000,0.03367,0.97576,-0.18654,0.0,2023,6,7,17,7,0,648
48.76980,-0.21350,0.21665,0.00000,0.03245,0.97771,-0.18642,0.0,2023,6,7,17,7,0,659
48.76990,-0.05600,0.02415,0.00000,0.03379,0.97624,-0.18764,0.0,2023,6,7,17,7,0,670
48.77000,-0.05600,-0.08085,0.00000,0.03135,0.97624,-0.18666,0.0,2023,6,7,17,7,0,681
48.77010,-0.00350,0.02415,0.00000,0.03148,0.97466,-0.18703,0.0,2023,6,7,17,7,0,692
48.77020,-0.00350,0.12915,0.00000,0.03123,0.97795,-0.18825,0.0,2023,6,7,17,7,0,703
48.77030,0.10150,-0.06335,0.00000,0.03331,0.97807,-0.18788,0.0,2023,6,7,17,7,0,714
48.77040,0.11900,-0.08085,0.00000,0.03148,0.97685,-0.18959,0.0,2023,6,7,17,7,0,725
48.77050,0.11900,-0.04585,0.00000,0.02830,0.97649,-0.19020,0.0,2023,6,7,17,7,0,736
48.77060,-0.00350,-0.01085,0.00000,0.03099,0.97527,-0.18934,0.0,2023,6,7,17,7,0,747
48.77070,0.06650,-0.04585,0.00000,0.03465,0.97515,-0.18764,0.0,2023,6,7,17,7,0,758
48.77080,-0.00350,-0.08085,0.00000,0.03209,0.97820,-0.18873,0.0,2023,6,7,17,7,0,769
48.77090,0.04900,-0.01085,0.00000,0.03257,0.97466,-0.18898,0.0,2023,6,7,17,7,0,780
48.77100,-0.00350,-0.08085,0.00000,0.03160,0.97624,-0.18886,0.0,2023,6,7,17,7,0,791
48.77110,-0.14350,0.11165,0.00000,0.03184,0.97710,-0.18837,0.0,2023,6,7,17,7,0,802
48.77120,0.01400,-0.01085,0.00000,0.03074,0.97502,-0.18983,0.0,2023,6,7,17,7,0,813
48.77130,-0.10850,0.11165,0.00000,0.03123,0.97576,-0.18642,0.0,2023,6,7,17,7,0,824
48.77140,0.10150,0.00665,0.00000,0.03306,0.97698,-0.18715,0.0,2023,6,7,17,7,0,835
48.77150,-0.07350,0.07665,0.00000,0.03148,0.97807,-0.18837,0.0,2023,6,7,17,7,0,846
48.77160,0.20650,-0.01085,0.00000,0.03257,0.97624,-0.18995,0.0,2023,6,7,17,7,0,857
48.77170,0.20650,-0.16835,0.00000,0.03050,0.97734,-0.18715,0.0,2023,6,7,17,7,0,868
48.77180,-0.10850,0.25165,0.00000,0.03062,0.97795,-0.18959,0.0,2023,6,7,17,7,0,879
48.77190,0.01400,-0.08085,0.00000,0.03111,0.97832,-0.18776,0.0,2023,6,7,17,7,0,890
48.77200,0.18900,-0.01085,0.00000,0.03257,0.97710,-0.18800,0.0,2023,6,7,17,7,0,901
48.77210,0.01400,0.30415,0.00000,0.03306,0.97698,-0.19178,0.0,2023,6,7,17,7,0,912
48.77220,0.20650,-0.01085,0.00000,0.03257,0.97771,-0.18886,0.0,2023,6,7,17,7,0,923
48.77230,-0.05600,-0.18585,0.00000,0.03148,0.97405,-0.18849,0.0,2023,6,7,17,7,0,934
48.77240,-0.07350,0.14665,0.00000,0.03209,0.97563,-0.18959,0.0,2023,6,7,17,7,0,945
48.77250,0.13650,-0.04585,0.00000,0.03196,0.97661,-0.18715,0.0,2023,6,7,17,7,0,956
48.77260,0.10150,-0.02835,0.00000,0.02989,0.97673,-0.18739,0.0,2023,6,7,17,7,0,967
48.77270,-0.07350,0.12915,0.00000,0.03294,0.97502,-0.18825,0.0,2023,6,7,17,7,0,978
48.77280,0.03150,0.05915,0.00000,0.03184,0.97588,-0.18739,0.0,2023,6,7,17,7,0,989
48.77290,-0.26600,0.26915,0.00000,0.03172,0.97710,-0.18751,0.0,2023,6,7,17,7,1,10
48.77300,-0.03850,0.07665,0.00000,0.03184,0.97881,-0.19008,0.0,2023,6,7,17,7,1,21
48.77310,-0.02100,0.07665,0.00000,0.02965,0.97685,-0.18886,0.0,2023,6,7,17,7,1,33
48.77320,-0.16100,0.11165,0.00000,0.03233,0.97490,-0.19044,0.0,2023,6,7,17,7,1,44
48.77330,-0.05600,0.16415,0.00000,0.03221,0.97441,-0.18788,0.0,2023,6,7,17,7,1,55
48.77340,-0.09100,-0.04585,0.00000,0.03318,0.97661,-0.18861,0.0,2023,6,7,17,7,1,66
48.77350,-0.12600,-0.08085,0.00000,0.03038,0.97710,-0.18861,0.0,2023,6,7,17,7,1,77
48.77360,-0.03850,0.23415,0.00000,0.03099,0.97588,-0.18800,0.0,2023,6,7,17,7,1,88
48.77370,0.17150,-0.15085,0.00000,0.03270,0.97624,-0.18788,0.0,2023,6,7,17,7,1,99
48.77380,-0.17850,0.11165,0.00000,0.03148,0.97685,-0.18776,0.0,2023,6,7,17,7,1,110
48.77390,0.03150,-0.13335,0.00000,0.03184,0.97539,-0.18825,0.0,2023,6,7,17,7,1,121
48.77400,0.10150,-0.09835,0.00000,0.03318,0.97551,-0.18910,0.0,2023,6,7,17,7,1,132
48.77410,-0.19600,0.02415,0.00000,0.03221,0.97673,-0.18800,0.0,2023,6,7,17,7,1,143
48.77420,0.01400,0.16415,0.00000,0.02928,0.97759,-0.18910,0.0,2023,6,7,17,7,1,154
48.77430,-0.09100,-0.02835,0.00000,0.03282,0.97722,-0.18947,0.0,2023,6,7,17,7,1,165
48.77440,0.01400,0.07665,0.00000,0.03172,0.97832,-0.18776,0.0,2023,6,7,17,7,1,176
48.77450,0.03150,-0.08085,0.00000,0.03270,0.97820,-0.19032,0.0,2023,6,7,17,7,1,187
48.77460,0.01400,-0.06335,0.00000,0.03221,0.97649,-0.18678,0.0,2023,6,7,17,7,1,198
48.77470,-0.23100,-0.06335,0.00000,0.02904,0.97673,-0.19020,0.0,2023,6,7,17,7,1,209
48.77480,0.15400,-0.09835,0.00000,0.03172,0.97600,-0.18922,0.0,2023,6,7,17,7,1,220
48.77490,0.11900,0.07665,0.00000,0.03282,0.97551,-0.18886,0.0,2023,6,7,17,7,1,231
48.77500,0.11900,-0.11585,0.00000,0.02965,0.97722,-0.18727,0.0,2023,6,7,17,7,1,242
48.77510,0.10150,0.05915,0.00000,0.03331,0.97698,-0.19105,0.0,2023,6,7,17,7,1,253
48.77520,-0.10850,-0.08085,0.00000,0.03001,0.97685,-0.18849,0.0,2023,6,7,17,7,1,264
48.77530,-0.28350,-0.04585,0.00000,0.03123,0.97783,-0.18715,0.0,2023,6,7,17,7,1,275
48.77540,-0.09100,0.02415,0.00000,0.03123,0.97405,-0.18776,0.0,2023,6,7,17,7,1,286
48.77550,0.18900,0.16415,0.00000,0.03282,0.97588,-0.19081,0.0,2023,6,7,17,7,1,297
48.77560,-0.05600,-0.02835,0.00000,0.03099,0.97856,-0.19069,0.0,2023,6,7,17,7,1,308
48.77570,-0.03850,-0.06335,0.00000,0.03270,0.97466,-0.18971,0.0,2023,6,7,17,7,1,319
48.77580,-0.03850,-0.01085,0.00000,0.03233,0.97893,-0.18788,0.0,2023,6,7,17,7,1,330
48.77590,0.06650,0.16415,0.00000,0.03026,0.97856,-0.18751,0.0,2023,6,7,17,7,1,341
48.77600,0.15400,-0.27335,0.00000,0.03209,0.97612,-0.18910,0.0,2023,6,7,17,7,1,352
48.77610,0.11900,0.07665,0.00000,0.03062,0.97795,-0.19056,0.0,2023,6,7,17,7,1,363
48.77620,0.15400,0.02415,0.00000,0.03562,0.97478,-0.18837,0.0,2023,6,7,17,7,1,374
48.77630,-0.02100,0.04165,0.00000,0.03294,0.97722,-0.19008,0.0,2023,6,7,17,7,1,385
48.77640,0.10150,0.07665,0.00000,0.03135,0.97661,-0.19008,0.0,2023,6,7,17,7,1,397
48.77650,0.17150,0.00665,0.00000,0.03087,0.97673,-0.19056,0.0,2023,6,7,17,7,1,408
48.77660,-0.03850,-0.13335,0.00000,0.03135,0.97771,-0.18678,0.0,2023,6,7,17,7,1,419
48.77670,0.03150,0.19915,0.00000,0.03184,0.97698,-0.18983,0.0,2023,6,7,17,7,1,430
48.77680,-0.14350,0.07665,0.00000,0.03026,0.97332,-0.18703,0.0,2023,6,7,17,7,1,441
48.77690,0.36400,-0.08085,0.00000,0.02879,0.97405,-0.19093,0.0,2023,6,7,17,7,1,452
48.77700,0.04900,-0.01085,0.00000,0.03233,0.97515,-0.19069,0.0,2023,6,7,17,7,1,463
48.77710,0.11900,0.07665,0.00000,0.03050,0.97685,-0.18751,0.0,2023,6,7,17,7,1,474
48.77720,0.01400,0.02415,0.00000,0.03233,0.97551,-0.18947,0.0,2023,6,7,17,7,1,485
48.77730,0.06650,0.11165,0.00000,0.03233,0.97527,-0.18934,0.0,2023,6,7,17,7,1,496
48.77740,-0.00350,0.26915,0.00000,0.03050,0.97551,-0.18910,0.0,2023,6,7,17,7,1,507
48.77750,0.04900,0.00665,0.00000,0.03172,0.97502,-0.18947,0.0,2023,6,7,17,7,1,518
48.77760,-0.02100,-0.01085,0.00000,0.03355,0.97466,-0.18898,0.0,2023,6,7,17,7,1,529
48.77770,0.04900,0.09415,0.00000,0.03062,0.97734,-0.18654,0.0,2023,6,7,17,7,1,540
48.77780,-0.00350,-0.01085,0.00000,0.03050,0.97783,-0.18922,0.0,2023,6,7,17,7,1,551
48.77790,0.04900,-0.13335,0.00000,0.03148,0.97698,-0.18971,0.0,2023,6,7,17,7,1,562
48.77800,0.13650,-0.11585,0.00000,0.03038,0.97380,-0.18861,0.0,2023,6,7,17,7,1,573
48.77810,0.10150,0.18165,0.00000,0.03111,0.97759,-0.18873,0.0,2023,6,7,17,7,1,584
48.77820,-0.23100,0.05915,0.00000,0.03221,0.97722,-0.18764,0.0,2023,6,7,17,7,1,595
48.77830,0.03150,-0.11585,0.00000,0.03099,0.97759,-0.18812,0.0,2023,6,7,17,7,1,606
48.77840,-0.02100,0.07665,0.00000,0.03087,0.97576,-0.18788,0.0,2023,6,7,17,7,1,617
48.77850,0.08400,-0.04585,0.00000,0.02965,0.97734,-0.18861,0.0,2023,6,7,17,7,1,628
48.77860,-0.00350,-0.13335,0.00000,0.03245,0.97600,-0.18751,0.0,2023,6,7,17,7,1,639
48.77870,0.06650,-0.02835,0.00000,0.03343,0.97771,-0.18727,0.0,2023,6,7,17,7,1,650
48.77880,0.06650,-0.13335,0.00000,0.02928,0.97502,-0.19105,0.0,2023,6,7,17,7,1,661
48.77890,-0.17850,-0.16835,0.00000,0.03026,0.97673,-0.18947,0.0,2023,6,7,17,7,1,672
48.77900,-0.28350,0.07665,0.00000,0.03392,0.97746,-0.18678,0.0,2023,6,7,17,7,1,683
48.77910,0.11900,-0.04585,0.00000,0.03294,0.97673,-0.18922,0.0,2023,6,7,17,7,1,694
48.77920,-0.00350,-0.06335,0.00000,0.03148,0.97649,-0.19142,0.0,2023,6,7,17,7,1,705
48.77930,-0.05600,0.21665,0.00000,0.03123,0.97710,-0.18947,0.0,2023,6,7,17,7,1,716
48.77940,0.04900,0.05915,0.00000,0.03135,0.97698,-0.19203,0.0,2023,6,7,17,7,1,727
48.77950,0.13650,-0.32585,0.00000,0.03270,0.97917,-0.18703,0.0,2023,6,7,17,7,1,738
48.77960,-0.10850,-0.22085,0.00000,0.02977,0.97734,-0.18739,0.0,2023,6,7,17,7,1,749
48.77970,0.15400,-0.08085,0.00000,0.03160,0.97771,-0.18873,0.0,2023,6,7,17,7,1,761
48.77980,-0.10850,0.11165,0.00000,0.03013,0.97673,-0.18934,0.0,2023,6,7,17,7,1,772
48.77990,0.15400,-0.08085,0.00000,0.03148,0.97746,-0.18947,0.0,2023,6,7,17,7,1,783
48.78000,0.20650,-0.27335,0.00000,0.03233,0.97551,-0.18837,0.0,2023,6,7,17,7,1,794
48.78010,0.08400,-0.11585,0.00000,0.03087,0.97502,-0.18776,0.0,2023,6,7,17,7,1,805
48.78020,-0.02100,-0.02835,0.00000,0.03221,0.97734,-0.18861,0.0,2023,6,7,17,7,1,816
48.78030,-0.00350,-0.09835,0.00000,0.03257,0.97576,-0.19008,0.0,2023,6,7,17,7,1,827
48.78040,-0.02100,-0.01085,0.00000,0.03062,0.97588,-0.18812,0.0,2023,6,7,17,7,1,838
48.78050,0.13650,0.26915,0.00000,0.03026,0.97673,-0.18739,0.0,2023,6,7,17,7,1,849
48.78060,-0.09100,0.07665,0.00000,0.03221,0.97759,-0.18654,0.0,2023,6,7,17,7,1,860
48.78070,0.18900,-0.04585,0.00000,0.03257,0.97698,-0.18800,0.0,2023,6,7,17,7,1,871
48.78080,-0.00350,0.02415,0.00000,0.03001,0.97746,-0.19044,0.0,2023,6,7,17,7,1,882
48.78090,0.03150,0.02415,0.00000,0.03282,0.97624,-0.18959,0.0,2023,6,7,17,7,1,893
48.78100,0.10150,0.04165,0.00000,0.03172,0.97624,-0.18764,0.0,2023,6,7,17,7,1,904
48.78110,0.01400,-0.16835,0.00000,0.03196,0.97685,-0.18825,0.0,2023,6,7,17,7,1,915
48.78120,0.01400,-0.02835,0.00000,0.03087,0.97588,-0.18959,0.0,2023,6,7,17,7,1,926
48.78130,-0.07350,-0.16835,0.00000,0.03062,0.97820,-0.18800,0.0,2023,6,7,17,7,1,937
48.78140,0.10150,-0.20335,0.00000,0.03087,0.97478,-0.18959,0.0,2023,6,7,17,7,1,948
48.78150,-0.02100,-0.04585,0.00000,0.03038,0.97576,-0.18873,0.0,2023,6,7,17,7,1,959
48.78160,0.06650,-0.02835,0.00000,0.03135,0.97502,-0.18861,0.0,2023,6,7,17,7,1,970
48.78170,0.03150,-0.04585,0.00000,0.03367,0.97637,-0.18861,0.0,2023,6,7,17,7,1,981
48.78180,-0.14350,0.04165,0.00000,0.03111,0.97807,-0.18800,0.0,2023,6,7,17,7,2,2
48.78190,0.08400,0.07665,0.00000,0.02952,0.97624,-0.18825,0.0,2023,6,7,17,7,2,13
48.78200,0.04900,0.04165,0.00000,0.03257,0.97576,-0.18983,0.0,2023,6,7,17,7,2,24
48.78210,0.10150,-0.08085,0.00000,0.03013,0.97832,-0.18934,0.0,2023,6,7,17,7,2,35
48.78220,-0.05600,-0.18585,0.00000,0.03135,0.97283,-0.18934,0.0,2023,6,7,17,7,2,46
48.78230,0.01400,0.00665,0.00000,0.03318,0.97734,-0.18800,0.0,2023,6,7,17,7,2,57
48.78240,-0.16100,0.18165,0.00000,0.02965,0.97649,-0.19032,0.0,2023,6,7,17,7,2,68
48.78250,-0.00350,0.28665,0.00000,0.03001,0.97527,-0.18849,0.0,2023,6,7,17,7,2,79
48.78260,0.06650,-0.16835,0.00000,0.03148,0.97771,-0.18703,0.0,2023,6,7,17,7,2,90
48.78270,-0.00350,0.05915,0.00000,0.02977,0.97856,-0.18727,0.0,2023,6,7,17,7,2,101
48.78280,0.01400,0.11165,0.00000,0.03367,0.97698,-0.18642,0.0,2023,6,7,17,7,2,112
48.78290,-0.05600,-0.06335,0.00000,0.03428,0.97563,-0.18886,0.0,2023,6,7,17,7,2,123
48.78300,0.03150,-0.09835,0.00000,0.03135,0.97661,-0.18788,0.0,2023,6,7,17,7,2,134
48.78310,0.06650,-0.02835,0.00000,0.03184,0.97551,-0.18959,0.0,2023,6,7,17,7,2,146
48.78320,0.13650,0.04165,0.00000,0.02879,0.97673,-0.18788,0.0,2023,6,7,17,7,2,157
48.78330,0.04900,-0.02835,0.00000,0.03135,0.97661,-0.18849,0.0,2023,6,7,17,7,2,168
48.78340,0.03150,0.16415,0.00000,0.03233,0.97929,-0.18690,0.0,2023,6,7,17,7,2,179
48.78350,-0.03850,-0.02835,0.00000,0.03294,0.97881,-0.18947,0.0,2023,6,7,17,7,2,190
48.78360,0.17150,0.18165,0.00000,0.03148,0.97820,-0.18898,0.0,2023,6,7,17,7,2,201
48.78370,0.10150,0.04165,0.00000,0.03099,0.97661,-0.18727,0.0,2023,6,7,17,7,2,212
48.78380,-0.02100,-0.04585,0.00000,0.03099,0.97734,-0.19154,0.0,2023,6,7,17,7,2,223
48.78390,-0.02100,-0.18585,0.00000,0.03172,0.97722,-0.18849,0.0,2023,6,7,17,7,2,234
48.78400,0.04900,0.14665,0.00000,0.03135,0.97527,-0.18971,0.0,2023,6,7,17,7,2,245
48.78410,0.11900,-0.15085,0.00000,0.03099,0.97868,-0.19044,0.0,2023,6,7,17,7,2,256
48.78420,-0.00350,0.05915,0.00000,0.02952,0.97624,-0.18812,0.0,2023,6,7,17,7,2,267
48.78430,0.11900,-0.04585,0.00000,0.03172,0.97600,-0.18959,0.0,2023,6,7,17,7,2,278
48.78440,0.18900,0.12915,0.00000,0.03099,0.97637,-0.19069,0.0,2023,6,7,17,7,2,289
48.78450,0.10150,0.04165,0.00000,0.03062,0.97673,-0.18812,0.0,2023,6,7,17,7,2,300
48.78460,0.13650,-0.04585,0.00000,0.03099,0.97722,-0.18898,0.0,2023,6,7,17,7,2,311
48.78470,0.08400,0.11165,0.00000,0.03270,0.97746,-0.18959,0.0,2023,6,7,17,7,2,322
48.78480,-0.12600,-0.15085,0.00000,0.03135,0.97868,-0.18666,0.0,2023,6,7,17,7,2,333
48.78490,0.10150,0.05915,0.00000,0.03026,0.97795,-0.18666,0.0,2023,6,7,17,7,2,344
48.78500,0.15400,-0.09835,0.00000,0.03026,0.97807,-0.18898,0.0,2023,6,7,17,7,2,355
48.78510,0.13650,0.04165,0.00000,0.03099,0.97502,-0.18776,0.0,2023,6,7,17,7,2,366
48.78520,-0.05600,-0.06335,0.00000,0.03148,0.97588,-0.19117,0.0,2023,6,7,17,7,2,377
48.78530,0.06650,0.04165,0.00000,0.03221,0.97917,-0.18837,0.0,2023,6,7,17,7,2,388
48.78540,-0.00350,-0.13335,0.00000,0.02989,0.97746,-0.18947,0.0,2023,6,7,17,7,2,399
48.78550,-0.00350,0.14665,0.00000,0.03050,0.97527,-0.19166,0.0,2023,6,7,17,7,2,410
48.78560,-0.10850,0.14665,0.00000,0.03318,0.97490,-0.18995,0.0,2023,6,7,17,7,2,421
48.78570,-0.09100,0.12915,0.00000,0.03282,0.97649,-0.18959,0.0,2023,6,7,17,7,2,432
48.78580,-0.19600,0.14665,0.00000,0.03135,0.97478,-0.18861,0.0,2023,6,7,17,7,2,443
48.78590,0.13650,0.18165,0.00000,0.03160,0.97868,-0.19056,0.0,2023,6,7,17,7,2,454
48.78600,-0.10850,0.07665,0.00000,0.03233,0.97673,-0.19008,0.0,2023,6,7,17,7,2,465
48.78610,0.04900,0.19915,0.00000,0.03282,0.97588,-0.18898,0.0,2023,6,7,17,7,2,476
48.78620,-0.02100,-0.02835,0.00000,0.02989,0.97783,-0.18825,0.0,2023,6,7,17,7,2,487
48.78630,0.13650,0.04165,0.00000,0.03282,0.97624,-0.18788,0.0,2023,6,7,17,7,2,498
48.78640,-0.14350,0.04165,0.00000,0.03245,0.97588,-0.18532,0.0,2023,6,7,17,7,2,510
48.78650,0.06650,-0.13335,0.00000,0.03245,0.97600,-0.18739,0.0,2023,6,7,17,7,2,521
48.78660,0.13650,-0.09835,0.00000,0.03221,0.97661,-0.18995,0.0,2023,6,7,17,7,2,532
48.78670,0.11900,-0.15085,0.00000,0.02794,0.97539,-0.19020,0.0,2023,6,7,17,7,2,543
48.78680,-0.31850,0.09415,0.00000,0.03172,0.97612,-0.18605,0.0,2023,6,7,17,7,2,554
48.78690,-0.03850,-0.01085,0.00000,0.03233,0.97551,-0.18727,0.0,2023,6,7,17,7,2,565
48.78700,-0.00350,-0.04585,0.00000,0.03233,0.97832,-0.19105,0.0,2023,6,7,17,7,2,576
48.78710,-0.02100,0.02415,0.00000,0.03221,0.97759,-0.18910,0.0,2023,6,7,17,7,2,587
48.78720,0.04900,0.26915,0.00000,0.03282,0.97563,-0.18983,0.0,2023,6,7,17,7,2,598
48.78730,0.08400,-0.11585,0.00000,0.03050,0.97576,-0.19008,0.0,2023,6,7,17,7,2,609
48.78740,-0.12600,0.16415,0.00000,0.03111,0.97637,-0.18642,0.0,2023,6,7,17,7,2,620
48.78750,0.04900,-0.08085,0.00000,0.03282,0.97771,-0.18739,0.0,2023,6,7,17,7,2,631
48.78760,-0.02100,0.05915,0.00000,0.03001,0.97856,-0.19081,0.0,2023,6,7,17,7,2,642
48.78770,-0.02100,0.11165,0.00000,0.02879,0.97454,-0.18922,0.0,2023,6,7,17,7,2,653
48.78780,-0.09100,0.11165,0.00000,0.03270,0.97527,-0.18947,0.0,2023,6,7,17,7,2,664
48.78790,-0.00350,0.04165,0.00000,0.03355,0.97685,-0.19032,0.0,2023,6,7,17,7,2,675
48.78800,-0.00350,-0.09835,0.00000,0.03026,0.97746,-0.18703,0.0,2023,6,7,17,7,2,686
48.78810,-0.07350,0.11165,0.00000,0.02989,0.97429,-0.19081,0.0,2023,6,7,17,7,2,697
48.78820,0.17150,0.07665,0.00000,0.03209,0.97624,-0.18788,0.0,2023,6,7,17,7,2,708
48.78830,-0.00350,-0.06335,0.00000,0.03233,0.97515,-0.18520,0.0,2023,6,7,17,7,2,719
48.78840,0.15400,-0.08085,0.00000,0.03233,0.97746,-0.18934,0.0,2023,6,7,17,7,2,730
48.78850,-0.02100,-0.08085,0.00000,0.03331,0.97783,-0.18715,0.0,2023,6,7,17,7,2,741
48.78860,-0.12600,0.05915,0.00000,0.03099,0.97673,-0.18849,0.0,2023,6,7,17,7,2,752
48.78870,0.03150,0.02415,0.00000,0.02989,0.97734,-0.18947,0.0,2023,6,7,17,7,2,763
48.78880,0.04900,-0.23835,0.00000,0.03257,0.97746,-0.18556,0.0,2023,6,7,17,7,2,774
48.78890,-0.03850,-0.02835,0.00000,0.03087,0.97637,-0.18922,0.0,2023,6,7,17,7,2,785
48.78900,0.32900,0.02415,0.00000,0.02989,0.97661,-0.19069,0.0,2023,6,7,17,7,2,796
48.78910,0.06650,-0.09835,0.00000,0.03221,0.97527,-0.19056,0.0,2023,6,7,17,7,2,807
48.78920,0.04900,0.02415,0.00000,0.03209,0.97539,-0.18886,0.0,2023,6,7,17,7,2,818
48.78930,0.08400,-0.01085,0.00000,0.03111,0.97771,-0.18776,0.0,2023,6,7,17,7,2,829
48.78940,-0.17850,0.04165,0.00000,0.03221,0.97563,-0.18788,0.0,2023,6,7,17,7,2,840
48.78950,-0.03850,0.00665,0.00000,0.03111,0.97624,-0.18910,0.0,2023,6,7,17,7,2,851
48.78960,-0.24850,0.18165,0.00000,0.03294,0.97588,-0.18898,0.0,2023,6,7,17,7,2,862
48.78970,0.01400,0.04165,0.00000,0.03379,0.97783,-0.18642,0.0,2023,6,7,17,7,2,874
48.78980,0.10150,0.11165,0.00000,0.03111,0.97722,-0.18947,0.0,2023,6,7,17,7,2,885
48.78990,-0.21350,0.04165,0.00000,0.03038,0.97698,-0.18495,0.0,2023,6,7,17,7,2,896
48.79000,-0.07350,-0.02835,0.00000,0.03135,0.97795,-0.18812,0.0,2023,6,7,17,7,2,907
48.79010,-0.07350,0.14665,0.00000,0.02977,0.97441,-0.18654,0.0,2023,6,7,17,7,2,918
48.79020,-0.09100,0.02415,0.00000,0.03099,0.97661,-0.18849,0.0,2023,6,7,17,7,2,929
48.79030,-0.00350,-0.08085,0.00000,0.03123,0.97734,-0.19044,0.0,2023,6,7,17,7,2,940
48.79040,0.03150,0.25165,0.00000,0.02965,0.97673,-0.19178,0.0,2023,6,7,17,7,2,951
48.79050,0.20650,-0.25585,0.00000,0.03050,0.97905,-0.19044,0.0,2023,6,7,17,7,2,962
48.79060,-0.02100,-0.04585,0.00000,0.03282,0.97454,-0.19130,0.0,2023,6,7,17,7,2,973
48.79070,0.03150,0.16415,0.00000,0.03050,0.97576,-0.18788,0.0,2023,6,7,17,7,3,5
48.79080,-0.03850,0.00665,0.00000,0.03245,0.97771,-0.18568,0.0,2023,6,7,17,7,3,16
48.79090,-0.02100,0.04165,0.00000,0.03099,0.97624,-0.18995,0.0,2023,6,7,17,7,3,27
48.79100,0.13650,0.21665,0.00000,0.03160,0.97600,-0.18837,0.0,2023,6,7,17,7,3,38
48.79110,0.15400,0.11165,0.00000,0.03001,0.97771,-0.18678,0.0,2023,6,7,17,7,3,49
48.79120,-0.07350,0.00665,0.00000,0.03209,0.97490,-0.18886,0.0,2023,6,7,17,7,3,60
48.79130,0.17150,0.04165,0.00000,0.03209,0.97649,-0.18922,0.0,2023,6,7,17,7,3,71
48.79140,0.06650,-0.13335,0.00000,0.03392,0.97637,-0.18703,0.0,2023,6,7,17,7,3,82
48.79150,0.04900,-0.06335,0.00000,0.03257,0.97551,-0.18776,0.0,2023,6,7,17,7,3,93
48.79160,0.06650,-0.01085,0.00000,0.03074,0.97600,-0.19008,0.0,2023,6,7,17,7,3,104
48.79170,0.06650,-0.09835,0.00000,0.03245,0.97588,-0.18800,0.0,2023,6,7,17,7,3,115
48.79180,-0.02100,0.28665,0.00000,0.03026,0.97746,-0.18556,0.0,2023,6,7,17,7,3,126
48.79190,0.22400,0.11165,0.00000,0.03001,0.97710,-0.19215,0.0,2023,6,7,17,7,3,137
48.79200,0.03150,-0.11585,0.00000,0.03404,0.97637,-0.18922,0.0,2023,6,7,17,7,3,148
48.79210,-0.00350,-0.06335,0.00000,0.03209,0.97551,-0.18800,0.0,2023,6,7,17,7,3,159
48.79220,0.01400,0.18165,0.00000,0.03087,0.97502,-0.18800,0.0,2023,6,7,17,7,3,170
48.79230,-0.10850,0.12915,0.00000,0.03331,0.97783,-0.18934,0.0,2023,6,7,17,7,3,181
48.79240,-0.09100,0.00665,0.00000,0.03233,0.97624,-0.18800,0.0,2023,6,7,17,7,3,192
48.79250,-0.28350,0.14665,0.00000,0.03099,0.97856,-0.18861,0.0,2023,6,7,17,7,3,203
48.79260,0.03150,-0.02835,0.00000,0.03257,0.97746,-0.18764,0.0,2023,6,7,17,7,3,214
48.79270,0.06650,-0.06335,0.00000,0.03257,0.97600,-0.18642,0.0,2023,6,7,17,7,3,225
48.79280,0.18900,-0.13335,0.00000,0.03270,0.97746,-0.18873,0.0,2023,6,7,17,7,3,236
48.79290,-0.03850,0.00665,0.00000,0.03135,0.97795,-0.18812,0.0,2023,6,7,17,7,3,247
48.79300,-0.09100,0.14665,0.00000,0.03221,0.97441,-0.18873,0.0,2023,6,7,17,7,3,258
48.79310,0.01400,-0.09835,0.00000,0.03148,0.97588,-0.18947,0.0,2023,6,7,17,7,3,270
48.79320,-0.12600,0.16415,0.00000,0.03343,0.97576,-0.18800,0.0,2023,6,7,17,7,3,281
48.79330,-0.10850,0.26915,0.00000,0.03209,0.97466,-0.18678,0.0,2023,6,7,17,7,3,292
48.79340,0.15400,0.14665,0.00000,0.02843,0.97478,-0.18983,0.0,2023,6,7,17,7,3,303
48.79350,-0.00350,-0.02835,0.00000,0.03257,0.97502,-0.18886,0.0,2023,6,7,17,7,3,314
48.79360,-0.05600,0.00665,0.00000,0.02940,0.97746,-0.18788,0.0,2023,6,7,17,7,3,325
48.79370,-0.14350,-0.09835,0.00000,0.03148,0.97551,-0.18922,0.0,2023,6,7,17,7,3,336
48.79380,-0.12600,-0.01085,0.00000,0.03196,0.97624,-0.18764,0.0,2023,6,7,17,7,3,347
48.79390,-0.02100,-0.02835,0.00000,0.03050,0.97515,-0.19105,0.0,2023,6,7,17,7,3,358
48.79400,0.03150,0.00665,0.00000,0.03038,0.97673,-0.18825,0.0,2023,6,7,17,7,3,369
48.79410,-0.03850,-0.09835,0.00000,0.03196,0.97783,-0.18507,0.0,2023,6,7,17,7,3,380
48.79420,0.03150,-0.18585,0.00000,0.03074,0.97929,-0.18922,0.0,2023,6,7,17,7,3,391
48.79430,0.18900,0.07665,0.00000,0.03087,0.97649,-0.18593,0.0,2023,6,7,17,7,3,402
48.79440,0.01400,-0.09835,0.00000,0.03099,0.97563,-0.19142,0.0,2023,6,7,17,7,3,413
48.79450,-0.00350,-0.06335,0.00000,0.03233,0.97685,-0.18898,0.0,2023,6,7,17,7,3,424
48.79460,0.04900,-0.13335,0.00000,0.03087,0.97771,-0.18861,0.0,2023,6,7,17,7,3,435
48.79470,-0.09100,-0.01085,0.00000,0.03001,0.97649,-0.18593,0.0,2023,6,7,17,7,3,446
48.79480,0.06650,0.18165,0.00000,0.03111,0.97771,-0.18971,0.0,2023,6,7,17,7,3,457
48.79490,0.03150,-0.23835,0.00000,0.03074,0.97624,-0.18776,0.0,2023,6,7,17,7,3,468
48.79500,0.13650,0.05915,0.00000,0.03050,0.97673,-0.18837,0.0,2023,6,7,17,7,3,479
48.79510,-0.21350,0.11165,0.00000,0.03050,0.97710,-0.18593,0.0,2023,6,7,17,7,3,490
48.79520,-0.03850,0.23415,0.00000,0.03221,0.97454,-0.18825,0.0,2023,6,7,17,7,3,501
48.79530,-0.09100,0.14665,0.00000,0.03306,0.97734,-0.18764,0.0,2023,6,7,17,7,3,512
48.79540,0.24150,0.02415,0.00000,0.02855,0.97588,-0.18764,0.0,2023,6,7,17,7,3,523
48.79550,0.11900,0.02415,0.00000,0.03135,0.97600,-0.18922,0.0,2023,6,7,17,7,3,534
48.79560,-0.02100,0.14665,0.00000,0.03233,0.97502,-0.18678,0.0,2023,6,7,17,7,3,545
48.79570,-0.23100,0.16415,0.00000,0.03343,0.97746,-0.18751,0.0,2023,6,7,17,7,3,556
48.79580,0.10150,0.02415,0.00000,0.03343,0.97905,-0.18971,0.0,2023,6,7,17,7,3,567
48.79590,-0.10850,-0.08085,0.00000,0.03331,0.97978,-0.18776,0.0,2023,6,7,17,7,3,578
#2023/06/07 17:07:03
