#2023/06/07 17:34:47
time,wx,wy,wz,ax,ay,az,yy,MM,dd,hh,mm,ss,ms
50.08400,0.03552,0.02468,0.00000,0.03038,0.97673,-0.19252,0.0,2023,6,7,17,34,48,69
50.08410,-0.10448,0.21718,0.00000,0.02867,0.97710,-0.18934,0.0,2023,6,7,17,34,48,74
50.08420,0.01802,-0.09782,0.00000,0.03209,0.97710,-0.18886,0.0,2023,6,7,17,34,48,80
50.08430,-0.05198,0.00718,0.00000,0.03233,0.97539,-0.18825,0.0,2023,6,7,17,34,48,85
50.08440,-0.05198,0.09468,0.00000,0.03172,0.97710,-0.18983,0.0,2023,6,7,17,34,48,90
50.08450,-0.03448,0.02468,0.00000,0.03062,0.97624,-0.19203,0.0,2023,6,7,17,34,48,96
50.08460,0.12302,-0.20282,0.00000,0.03074,0.97551,-0.18873,0.0,2023,6,7,17,34,48,101
50.08470,-0.13948,0.04218,0.00000,0.03099,0.97637,-0.19093,0.0,2023,6,7,17,34,48,106
50.08480,-0.20948,0.28718,0.00000,0.03001,0.97844,-0.18959,0.0,2023,6,7,17,34,48,112
50.08490,0.14052,-0.18532,0.00000,0.02965,0.97698,-0.18642,0.0,2023,6,7,17,34,48,117
50.08500,-0.15698,-0.06282,0.00000,0.03294,0.97661,-0.18898,0.0,2023,6,7,17,34,48,122
50.08510,0.01802,0.04218,0.00000,0.03148,0.97563,-0.18825,0.0,2023,6,7,17,34,48,128
50.08520,-0.12198,0.09468,0.00000,0.03294,0.97600,-0.18776,0.0,2023,6,7,17,34,48,133
50.08530,-0.08698,0.04218,0.00000,0.03038,0.97661,-0.18825,0.0,2023,6,7,17,34,48,138
50.08540,0.10552,0.02468,0.00000,0.02965,0.97661,-0.19203,0.0,2023,6,7,17,34,48,144
50.08550,0.14052,0.09468,0.00000,0.03001,0.97734,-0.19056,0.0,2023,6,7,17,34,48,149
50.08560,-0.22698,0.07718,0.00000,0.03489,0.97649,-0.19056,0.0,2023,6,7,17,34,48,154
50.08570,0.10552,-0.20282,0.00000,0.03257,0.97502,-0.18886,0.0,2023,6,7,17,34,48,160
50.08580,-0.05198,0.00718,0.00000,0.03111,0.97734,-0.18837,0.0,2023,6,7,17,34,48,165
50.08590,0.07052,-0.06282,0.00000,0.03148,0.97771,-0.18947,0.0,2023,6,7,17,34,48,171
50.08600,0.00052,-0.02782,0.00000,0.03404,0.97661,-0.19117,0.0,2023,6,7,17,34,48,176
50.08610,0.05302,-0.06282,0.00000,0.02965,0.97551,-0.18947,0.0,2023,6,7,17,34,48,181
50.08620,-0.08698,0.14718,0.00000,0.03209,0.97624,-0.18971,0.0,2023,6,7,17,34,48,187
50.08630,-0.01698,0.11218,0.00000,0.02989,0.97673,-0.19069,0.0,2023,6,7,17,34,48,192
50.08640,0.00052,-0.11532,0.00000,0.03294,0.97661,-0.18654,0.0,2023,6,7,17,34,48,197
50.08650,0.03552,-0.01032,0.00000,0.03160,0.97417,-0.18654,0.0,2023,6,7,17,34,48,203
50.08660,0.05302,-0.01032,0.00000,0.03013,0.97612,-0.18910,0.0,2023,6,7,17,34,48,208
50.08670,-0.01698,0.00718,0.00000,0.02965,0.97649,-0.18739,0.0,2023,6,7,17,34,48,213
50.08680,0.10552,0.04218,0.00000,0.03148,0.97600,-0.18788,0.0,2023,6,7,17,34,48,219
50.08690,0.19302,-0.11532,0.00000,0.03135,0.97844,-0.18995,0.0,2023,6,7,17,34,48,224
50.08700,-0.06948,-0.11532,0.00000,0.03074,0.97173,-0.18886,0.0,2023,6,7,17,34,48,229
50.08710,-0.24448,-0.02782,0.00000,0.03148,0.97710,-0.18654,0.0,2023,6,7,17,34,48,235
50.08720,-0.05198,0.02468,0.00000,0.03135,0.97649,-0.18800,0.0,2023,6,7,17,34,48,240
50.08730,0.00052,-0.20282,0.00000,0.03074,0.97929,-0.18983,0.0,2023,6,7,17,34,48,245
50.08740,-0.06948,0.02468,0.00000,0.03087,0.97722,-0.18788,0.0,2023,6,7,17,34,48,251
50.08750,0.10552,0.11218,0.00000,0.03050,0.97637,-0.18886,0.0,2023,6,7,17,34,48,256
50.08760,-0.13948,0.12968,0.00000,0.02928,0.97551,-0.18629,0.0,2023,6,7,17,34,48,261
50.08770,0.05302,0.02468,0.00000,0.03111,0.97612,-0.18837,0.0,2023,6,7,17,34,48,267
50.08780,-0.08698,0.07718,0.00000,0.03074,0.97429,-0.19117,0.0,2023,6,7,17,34,48,272
50.08790,-0.10448,0.09468,0.00000,0.02977,0.97490,-0.18861,0.0,2023,6,7,17,34,48,277
50.08800,-0.22698,-0.06282,0.00000,0.02818,0.97600,-0.18995,0.0,2023,6,7,17,34,48,283
50.08810,-0.06948,0.02468,0.00000,0.03013,0.97612,-0.18764,0.0,2023,6,7,17,34,48,288
50.08820,-0.29698,0.07718,0.00000,0.03294,0.97478,-0.18947,0.0,2023,6,7,17,34,48,293
50.08830,-0.12198,0.14718,0.00000,0.03087,0.97844,-0.18995,0.0,2023,6,7,17,34,48,299
50.08840,-0.03448,0.09468,0.00000,0.03196,0.97759,-0.18898,0.0,2023,6,7,17,34,48,304
50.08850,0.10552,-0.11532,0.00000,0.02989,0.97429,-0.18776,0.0,2023,6,7,17,34,48,309
50.08860,0.05302,-0.08032,0.00000,0.03111,0.97807,-0.18983,0.0,2023,6,7,17,34,48,315
50.08870,-0.01698,-0.08032,0.00000,0.03160,0.97380,-0.18617,0.0,2023,6,7,17,34,48,320
50.08880,-0.01698,-0.16782,0.00000,0.02818,0.97698,-0.18873,0.0,2023,6,7,17,34,48,326
50.08890,-0.24448,0.07718,0.00000,0.03135,0.97588,-0.18995,0.0,2023,6,7,17,34,48,331
50.08900,-0.05198,-0.01032,0.00000,0.03001,0.97624,-0.18983,0.0,2023,6,7,17,34,48,336
50.08910,0.01802,0.02468,0.00000,0.03135,0.97527,-0.18922,0.0,2023,6,7,17,34,48,342
50.08920,0.03552,-0.08032,0.00000,0.03099,0.97637,-0.18873,0.0,2023,6,7,17,34,48,347
50.08930,-0.24448,0.04218,0.00000,0.03209,0.97698,-0.18983,0.0,2023,6,7,17,34,48,352
50.08940,0.10552,0.04218,0.00000,0.03001,0.97649,-0.19008,0.0,2023,6,7,17,34,48,358
50.08950,0.08802,0.04218,0.00000,0.03123,0.97661,-0.18898,0.0,2023,6,7,17,34,48,363
50.08960,-0.01698,-0.09782,0.00000,0.03123,0.97722,-0.18690,0.0,2023,6,7,17,34,48,368
50.08970,-0.08698,0.02468,0.00000,0.03257,0.97600,-0.18947,0.0,2023,6,7,17,34,48,374
50.08980,0.07052,-0.09782,0.00000,0.03038,0.97917,-0.18593,0.0,2023,6,7,17,34,48,379
50.08990,-0.13948,0.09468,0.00000,0.03209,0.97624,-0.18751,0.0,2023,6,7,17,34,49,384
50.09000,-0.15698,-0.06282,0.00000,0.03038,0.97612,-0.18825,0.0,2023,6,7,17,34,49,390
50.09010,-0.01698,0.19968,0.00000,0.03087,0.97759,-0.18873,0.0,2023,6,7,17,34,49,395
50.09020,0.08802,-0.16782,0.00000,0.03013,0.97673,-0.18727,0.0,2023,6,7,17,34,49,400
50.09030,-0.13948,0.12968,0.00000,0.03148,0.97893,-0.18983,0.0,2023,6,7,17,34,49,406
50.09040,0.03552,-0.09782,0.00000,0.02965,0.97698,-0.18898,0.0,2023,6,7,17,34,49,411
50.09050,0.03552,0.07718,0.00000,0.03074,0.97795,-0.18654,0.0,2023,6,7,17,34,49,416
50.09060,-0.10448,0.16468,0.00000,0.03111,0.97771,-0.18776,0.0,2023,6,7,17,34,49,422
50.09070,-0.13948,-0.08032,0.00000,0.03001,0.97710,-0.18812,0.0,2023,6,7,17,34,49,427
50.09080,0.03552,0.05968,0.00000,0.03062,0.97307,-0.19142,0.0,2023,6,7,17,34,49,432
50.09090,-0.03448,-0.06282,0.00000,0.03233,0.97649,-0.18739,0.0,2023,6,7,17,34,49,438
50.09100,0.14052,0.00718,0.00000,0.03184,0.97783,-0.18812,0.0,2023,6,7,17,34,49,443
50.09110,0.07052,0.05968,0.00000,0.03087,0.97661,-0.19117,0.0,2023,6,7,17,34,49,448
50.09120,-0.05198,0.04218,0.00000,0.03099,0.97734,-0.18995,0.0,2023,6,7,17,34,49,454
50.09130,0.14052,0.16468,0.00000,0.03087,0.97539,-0.18764,0.0,2023,6,7,17,34,49,459
50.09140,0.03552,0.00718,0.00000,0.03074,0.97576,-0.18593,0.0,2023,6,7,17,34,49,464
50.09150,0.03552,-0.16782,0.00000,0.03306,0.97722,-0.18922,0.0,2023,6,7,17,34,49,470
50.09160,0.03552,-0.08032,0.00000,0.02989,0.97624,-0.18971,0.0,2023,6,7,17,34,49,475
50.09170,0.14052,-0.01032,0.00000,0.03111,0.97685,-0.18825,0.0,2023,6,7,17,34,49,481
50.09180,0.03552,0.02468,0.00000,0.03148,0.97246,-0.18898,0.0,2023,6,7,17,34,49,486
50.09190,-0.08698,-0.18532,0.00000,0.03135,0.97624,-0.18678,0.0,2023,6,7,17,34,49,491
50.09200,0.03552,0.11218,0.00000,0.03087,0.97881,-0.18739,0.0,2023,6,7,17,34,49,497
50.09210,0.01802,-0.01032,0.00000,0.02977,0.97576,-0.19056,0.0,2023,6,7,17,34,49,502
50.09220,0.08802,-0.06282,0.00000,0.03123,0.97490,-0.18654,0.0,2023,6,7,17,34,49,507
50.09230,-0.10448,-0.09782,0.00000,0.03111,0.97771,-0.18825,0.0,2023,6,7,17,34,49,513
50.09240,-0.01698,-0.18532,0.00000,0.03160,0.97490,-0.18703,0.0,2023,6,7,17,34,49,518
50.09250,0.15802,-0.15032,0.00000,0.03172,0.97722,-0.19020,0.0,2023,6,7,17,34,49,523
50.09260,-0.41948,0.14718,0.00000,0.03074,0.97515,-0.18971,0.0,2023,6,7,17,34,49,529
50.09270,0.03552,-0.08032,0.00000,0.03050,0.97490,-0.18459,0.0,2023,6,7,17,34,49,534
50.09280,0.19302,-0.08032,0.00000,0.03123,0.97710,-0.18629,0.0,2023,6,7,17,34,49,539
50.09290,-0.15698,0.12968,0.00000,0.03087,0.97466,-0.18837,0.0,2023,6,7,17,34,49,545
50.09300,-0.03448,0.05968,0.00000,0.02940,0.97759,-0.18910,0.0,2023,6,7,17,34,49,550
50.09310,0.12302,-0.22032,0.00000,0.03135,0.97319,-0.18703,0.0,2023,6,7,17,34,49,555
50.09320,-0.06948,-0.01032,0.00000,0.03270,0.97929,-0.18703,0.0,2023,6,7,17,34,49,561
50.09330,0.14052,0.11218,0.00000,0.03001,0.97600,-0.18861,0.0,2023,6,7,17,34,49,566
50.09340,-0.01698,0.00718,0.00000,0.03209,0.97527,-0.18617,0.0,2023,6,7,17,34,49,571
50.09350,-0.15698,0.05968,0.00000,0.03172,0.97661,-0.18751,0.0,2023,6,7,17,34,49,577
50.09360,0.05302,-0.11532,0.00000,0.03233,0.97661,-0.18812,0.0,2023,6,7,17,34,49,582
50.09370,0.14052,0.00718,0.00000,0.02879,0.97576,-0.18825,0.0,2023,6,7,17,34,49,587
50.09380,0.05302,-0.04532,0.00000,0.03148,0.97332,-0.18703,0.0,2023,6,7,17,34,49,593
50.09390,0.03552,-0.01032,0.00000,0.03172,0.97783,-0.18739,0.0,2023,6,7,17,34,49,598
50.09400,0.00052,-0.01032,0.00000,0.03233,0.97832,-0.18715,0.0,2023,6,7,17,34,49,603
50.09410,0.01802,-0.02782,0.00000,0.02855,0.97417,-0.18922,0.0,2023,6,7,17,34,49,609
50.09420,0.12302,0.05968,0.00000,0.03074,0.97881,-0.18800,0.0,2023,6,7,17,34,49,614
50.09430,-0.10448,0.02468,0.00000,0.03050,0.97502,-0.18910,0.0,2023,6,7,17,34,49,619
50.09440,0.05302,-0.09782,0.00000,0.03050,0.97502,-0.18837,0.0,2023,6,7,17,34,49,625
50.09450,-0.01698,-0.04532,0.00000,0.03135,0.97551,-0.18581,0.0,2023,6,7,17,34,49,630
50.09460,-0.05198,-0.22032,0.00000,0.02891,0.97661,-0.18910,0.0,2023,6,7,17,34,49,636
50.09470,0.00052,-0.02782,0.00000,0.02830,0.97441,-0.18861,0.0,2023,6,7,17,34,49,641
50.09480,0.21052,0.00718,0.00000,0.03306,0.97563,-0.19056,0.0,2023,6,7,17,34,49,646
50.09490,0.07052,-0.09782,0.00000,0.03282,0.97771,-0.18678,0.0,2023,6,7,17,34,49,652
50.09500,-0.03448,0.14718,0.00000,0.02879,0.97807,-0.18983,0.0,2023,6,7,17,34,49,657
50.09510,0.03552,-0.01032,0.00000,0.03160,0.97807,-0.18934,0.0,2023,6,7,17,34,49,662
50.09520,-0.12198,0.12968,0.00000,0.03245,0.97393,-0.19032,0.0,2023,6,7,17,34,49,668
50.09530,-0.03448,-0.08032,0.00000,0.02952,0.97661,-0.18715,0.0,2023,6,7,17,34,49,673
50.09540,0.22802,0.04218,0.00000,0.03184,0.97673,-0.18617,0.0,2023,6,7,17,34,49,678
50.09550,-0.01698,-0.09782,0.00000,0.03099,0.97588,-0.18642,0.0,2023,6,7,17,34,49,684
50.09560,-0.12198,0.09468,0.00000,0.03074,0.97710,-0.18959,0.0,2023,6,7,17,34,49,689
50.09570,0.08802,0.09468,0.00000,0.03160,0.97649,-0.18788,0.0,2023,6,7,17,34,49,694
50.09580,-0.12198,-0.02782,0.00000,0.02952,0.97576,-0.18605,0.0,2023,6,7,17,34,49,700
50.09590,-0.01698,-0.08032,0.00000,0.03233,0.97673,-0.18703,0.0,2023,6,7,17,34,49,705
50.09600,0.08802,0.09468,0.00000,0.03184,0.97722,-0.18837,0.0,2023,6,7,17,34,49,710
50.09610,0.10552,-0.11532,0.00000,0.03209,0.97649,-0.18788,0.0,2023,6,7,17,34,49,716
50.09620,-0.01698,0.04218,0.00000,0.03135,0.97832,-0.18995,0.0,2023,6,7,17,34,49,721
50.09630,-0.19198,0.14718,0.00000,0.03257,0.97820,-0.18861,0.0,2023,6,7,17,34,49,726
50.09640,-0.19198,-0.16782,0.00000,0.03282,0.97551,-0.18764,0.0,2023,6,7,17,34,49,732
50.09650,0.12302,-0.01032,0.00000,0.02928,0.97576,-0.18886,0.0,2023,6,7,17,34,49,737
50.09660,-0.12198,-0.16782,0.00000,0.03233,0.97576,-0.18556,0.0,2023,6,7,17,34,49,742
50.09670,-0.19198,0.21718,0.00000,0.03001,0.97698,-0.18495,0.0,2023,6,7,17,34,49,748
50.09680,-0.05198,-0.08032,0.00000,0.03087,0.97698,-0.18886,0.0,2023,6,7,17,34,49,753
50.09690,-0.10448,-0.02782,0.00000,0.03074,0.97698,-0.18934,0.0,2023,6,7,17,34,49,758
50.09700,0.05302,-0.04532,0.00000,0.03050,0.97661,-0.18812,0.0,2023,6,7,17,34,49,764
50.09710,0.05302,-0.02782,0.00000,0.02965,0.97990,-0.18654,0.0,2023,6,7,17,34,49,769
50.09720,0.08802,0.21718,0.00000,0.03062,0.97771,-0.18751,0.0,2023,6,7,17,34,49,774
50.09730,-0.10448,0.05968,0.00000,0.03233,0.97478,-0.18886,0.0,2023,6,7,17,34,49,780
50.09740,0.17552,0.09468,0.00000,0.03062,0.97637,-0.18690,0.0,2023,6,7,17,34,49,785
50.09750,-0.08698,0.00718,0.00000,0.03050,0.97710,-0.18947,0.0,2023,6,7,17,34,49,791
50.09760,0.03552,-0.06282,0.00000,0.02879,0.97820,-0.18812,0.0,2023,6,7,17,34,49,796
50.09770,-0.03448,0.21718,0.00000,0.03294,0.97588,-0.18751,0.0,2023,6,7,17,34,49,801
50.09780,0.14052,-0.04532,0.00000,0.03148,0.97612,-0.18910,0.0,2023,6,7,17,34,49,807
50.09790,0.08802,0.05968,0.00000,0.03233,0.97393,-0.18886,0.0,2023,6,7,17,34,49,812
50.09800,0.07052,-0.01032,0.00000,0.03074,0.97246,-0.18544,0.0,2023,6,7,17,34,49,817
50.09810,0.03552,-0.08032,0.00000,0.03221,0.97990,-0.18751,0.0,2023,6,7,17,34,49,823
50.09820,0.10552,0.05968,0.00000,0.03172,0.97759,-0.19056,0.0,2023,6,7,17,34,49,828
50.09830,0.15802,-0.13282,0.00000,0.03294,0.98137,-0.19056,0.0,2023,6,7,17,34,49,833
50.09840,0.00052,0.04218,0.00000,0.03001,0.97917,-0.18959,0.0,2023,6,7,17,34,49,839
50.09850,0.05302,-0.09782,0.00000,0.02916,0.97881,-0.18788,0.0,2023,6,7,17,34,49,844
50.09860,-0.10448,0.14718,0.00000,0.03099,0.97429,-0.18898,0.0,2023,6,7,17,34,49,849
50.09870,-0.05198,0.07718,0.00000,0.03294,0.97673,-0.18727,0.0,2023,6,7,17,34,49,855
50.09880,0.14052,-0.09782,0.00000,0.03148,0.97222,-0.19020,0.0,2023,6,7,17,34,49,860
50.09890,0.03552,0.21718,0.00000,0.03257,0.97759,-0.18666,0.0,2023,6,7,17,34,50,865
50.09900,0.00052,-0.13282,0.00000,0.03062,0.97698,-0.18495,0.0,2023,6,7,17,34,50,871
50.09910,0.05302,-0.13282,0.00000,0.02977,0.97600,-0.18922,0.0,2023,6,7,17,34,50,876
50.09920,0.10552,-0.02782,0.00000,0.03123,0.97515,-0.18715,0.0,2023,6,7,17,34,50,881
50.09930,-0.12198,0.00718,0.00000,0.03331,0.97539,-0.18605,0.0,2023,6,7,17,34,50,887
50.09940,0.12302,0.09468,0.00000,0.03123,0.97905,-0.18812,0.0,2023,6,7,17,34,50,892
50.09950,0.05302,-0.02782,0.00000,0.03026,0.97856,-0.18617,0.0,2023,6,7,17,34,50,897
50.09960,-0.15698,0.09468,0.00000,0.03135,0.97698,-0.18873,0.0,2023,6,7,17,34,50,903
50.09970,0.01802,-0.01032,0.00000,0.03184,0.97771,-0.18788,0.0,2023,6,7,17,34,50,908
50.09980,-0.15698,-0.18532,0.00000,0.03135,0.97600,-0.18629,0.0,2023,6,7,17,34,50,913
50.09990,-0.06948,-0.02782,0.00000,0.02952,0.97722,-0.18812,0.0,2023,6,7,17,34,50,919
50.10000,0.01802,0.09468,0.00000,0.03087,0.97868,-0.18849,0.0,2023,6,7,17,34,50,924
50.10010,-0.19198,0.30468,0.00000,0.02989,0.97405,-0.18678,0.0,2023,6,7,17,34,50,929
50.10020,0.14052,-0.09782,0.00000,0.03013,0.97502,-0.18849,0.0,2023,6,7,17,34,50,935
50.10030,-0.13948,0.28718,0.00000,0.03074,0.97551,-0.18812,0.0,2023,6,7,17,34,50,940
50.10040,-0.22698,0.09468,0.00000,0.03062,0.97942,-0.18654,0.0,2023,6,7,17,34,50,946
50.10050,-0.05198,0.04218,0.00000,0.03160,0.97820,-0.19044,0.0,2023,6,7,17,34,50,951
50.10060,0.08802,0.02468,0.00000,0.03148,0.97563,-0.18837,0.0,2023,6,7,17,34,50,956
50.10070,-0.08698,-0.02782,0.00000,0.03257,0.97478,-0.18690,0.0,2023,6,7,17,34,50,962
50.10080,0.03552,-0.01032,0.00000,0.03038,0.97673,-0.18934,0.0,2023,6,7,17,34,50,967
50.10090,-0.03448,-0.04532,0.00000,0.03099,0.97490,-0.19093,0.0,2023,6,7,17,34,50,972
50.10100,0.14052,-0.06282,0.00000,0.03196,0.97905,-0.18886,0.0,2023,6,7,17,34,50,978
50.10110,-0.01698,-0.18532,0.00000,0.03111,0.97771,-0.18995,0.0,2023,6,7,17,34,50,983
50.10120,0.17552,0.23468,0.00000,0.03343,0.97673,-0.18812,0.0,2023,6,7,17,34,50,988
50.10130,0.15802,-0.13282,0.00000,0.03099,0.97771,-0.18861,0.0,2023,6,7,17,34,50,994
50.10140,-0.13948,0.12968,0.00000,0.03209,0.97576,-0.18715,0.0,2023,6,7,17,34,50,999
50.10150,0.00052,0.04218,0.00000,0.03221,0.97478,-0.18898,0.0,2023,6,7,17,34,50,4
50.10160,0.12302,-0.08032,0.00000,0.03087,0.97820,-0.18593,0.0,2023,6,7,17,34,50,10
50.10170,-0.06948,0.04218,0.00000,0.03099,0.97576,-0.19008,0.0,2023,6,7,17,34,50,15
50.10180,0.03552,0.12968,0.00000,0.03123,0.97771,-0.18971,0.0,2023,6,7,17,34,50,20
50.10190,-0.01698,-0.06282,0.00000,0.03001,0.97466,-0.18983,0.0,2023,6,7,17,34,50,26
50.10200,-0.08698,0.07718,0.00000,0.03026,0.97710,-0.18812,0.0,2023,6,7,17,34,50,31
50.10210,-0.10448,-0.06282,0.00000,0.03172,0.97539,-0.18666,0.0,2023,6,7,17,34,50,36
50.10220,0.08802,-0.08032,0.00000,0.02843,0.97600,-0.18825,0.0,2023,6,7,17,34,50,42
50.10230,0.26302,-0.09782,0.00000,0.03001,0.97710,-0.18861,0.0,2023,6,7,17,34,50,47
50.10240,0.03552,0.18218,0.00000,0.03318,0.97527,-0.18690,0.0,2023,6,7,17,34,50,52
50.10250,-0.26198,0.12968,0.00000,0.03135,0.97454,-0.18471,0.0,2023,6,7,17,34,50,58
50.10260,-0.05198,0.07718,0.00000,0.02977,0.97441,-0.18739,0.0,2023,6,7,17,34,50,63
50.10270,0.10552,-0.02782,0.00000,0.02977,0.97515,-0.18861,0.0,2023,6,7,17,34,50,68
50.10280,-0.05198,0.07718,0.00000,0.03172,0.97478,-0.19032,0.0,2023,6,7,17,34,50,74
50.10290,0.14052,-0.02782,0.00000,0.03550,0.97795,-0.19105,0.0,2023,6,7,17,34,50,79
50.10300,0.05302,-0.01032,0.00000,0.02965,0.97698,-0.18727,0.0,2023,6,7,17,34,50,84
50.10310,-0.13948,0.07718,0.00000,0.03123,0.97698,-0.19020,0.0,2023,6,7,17,34,50,90
50.10320,-0.01698,0.28718,0.00000,0.03306,0.97746,-0.18898,0.0,2023,6,7,17,34,50,95
50.10330,-0.03448,-0.04532,0.00000,0.03148,0.97588,-0.18544,0.0,2023,6,7,17,34,50,101
50.10340,0.08802,0.16468,0.00000,0.03074,0.97649,-0.18788,0.0,2023,6,7,17,34,50,106
50.10350,0.01802,-0.02782,0.00000,0.02855,0.97454,-0.18825,0.0,2023,6,7,17,34,50,111
50.10360,0.01802,-0.04532,0.00000,0.03123,0.97563,-0.18715,0.0,2023,6,7,17,34,50,117
50.10370,-0.08698,0.05968,0.00000,0.03331,0.97600,-0.18703,0.0,2023,6,7,17,34,50,122
50.10380,-0.12198,0.11218,0.00000,0.02904,0.97649,-0.18556,0.0,2023,6,7,17,34,50,127
50.10390,-0.08698,-0.13282,0.00000,0.03221,0.97783,-0.18910,0.0,2023,6,7,17,34,50,133
50.10400,-0.01698,0.26968,0.00000,0.02977,0.97746,-0.18581,0.0,2023,6,7,17,34,50,138
50.10410,0.12302,0.04218,0.00000,0.03196,0.97490,-0.18715,0.0,2023,6,7,17,34,50,143
50.10420,-0.01698,-0.04532,0.00000,0.03331,0.97685,-0.18739,0.0,2023,6,7,17,34,50,149
50.10430,-0.01698,0.09468,0.00000,0.02965,0.97600,-0.19130,0.0,2023,6,7,17,34,50,154
50.10440,0.05302,-0.23782,0.00000,0.03038,0.97734,-0.18629,0.0,2023,6,7,17,34,50,159
50.10450,0.03552,0.07718,0.00000,0.03087,0.97600,-0.18825,0.0,2023,6,7,17,34,50,165
50.10460,0.07052,0.09468,0.00000,0.03038,0.97502,-0.18934,0.0,2023,6,7,17,34,50,170
50.10470,-0.01698,-0.09782,0.00000,0.03123,0.97710,-0.19069,0.0,2023,6,7,17,34,50,175
50.10480,-0.13948,0.12968,0.00000,0.02916,0.97807,-0.18922,0.0,2023,6,7,17,34,50,181
50.10490,0.17552,0.02468,0.00000,0.03111,0.97454,-0.18788,0.0,2023,6,7,17,34,50,186
50.10500,0.03552,0.04218,0.00000,0.03184,0.97698,-0.18690,0.0,2023,6,7,17,34,50,191
50.10510,0.08802,0.00718,0.00000,0.03257,0.97612,-0.18898,0.0,2023,6,7,17,34,50,197
50.10520,0.07052,0.00718,0.00000,0.03294,0.97637,-0.19069,0.0,2023,6,7,17,34,50,202
50.10530,-0.05198,0.09468,0.00000,0.03172,0.97490,-0.18666,0.0,2023,6,7,17,34,50,207
50.10540,-0.05198,-0.08032,0.00000,0.03123,0.97746,-0.18495,0.0,2023,6,7,17,34,50,213
50.10550,0.10552,0.00718,0.00000,0.03087,0.97820,-0.18703,0.0,2023,6,7,17,34,50,218
50.10560,0.26302,0.04218,0.00000,0.03087,0.97673,-0.18617,0.0,2023,6,7,17,34,50,223
50.10570,0.08802,0.02468,0.00000,0.03062,0.97551,-0.18849,0.0,2023,6,7,17,34,50,229
50.10580,-0.19198,0.28718,0.00000,0.03038,0.97649,-0.18666,0.0,2023,6,7,17,34,50,234
50.10590,-0.08698,0.21718,0.00000,0.03221,0.97722,-0.18568,0.0,2023,6,7,17,34,50,239
50.10600,0.17552,-0.16782,0.00000,0.03221,0.97637,-0.18666,0.0,2023,6,7,17,34,50,245
50.10610,-0.03448,-0.08032,0.00000,0.03233,0.97454,-0.18788,0.0,2023,6,7,17,34,50,250
50.10620,-0.13948,0.12968,0.00000,0.03050,0.97820,-0.18764,0.0,2023,6,7,17,34,50,256
50.10630,-0.13948,-0.13282,0.00000,0.03099,0.97539,-0.18873,0.0,2023,6,7,17,34,50,261
50.10640,0.07052,-0.04532,0.00000,0.02745,0.97576,-0.19117,0.0,2023,6,7,17,34,50,266
50.10650,-0.13948,0.18218,0.00000,0.02977,0.97783,-0.18861,0.0,2023,6,7,17,34,50,272
50.10660,-0.17448,0.16468,0.00000,0.03148,0.97637,-0.18715,0.0,2023,6,7,17,34,50,277
50.10670,0.15802,0.05968,0.00000,0.03160,0.97600,-0.18532,0.0,2023,6,7,17,34,50,282
50.10680,0.19302,-0.15032,0.00000,0.03440,0.97490,-0.18959,0.0,2023,6,7,17,34,50,288
50.10690,0.03552,0.11218,0.00000,0.02928,0.97673,-0.18922,0.0,2023,6,7,17,34,50,293
50.10700,0.00052,0.00718,0.00000,0.03209,0.97490,-0.18971,0.0,2023,6,7,17,34,50,298
50.10710,-0.08698,-0.06282,0.00000,0.03026,0.97685,-0.18812,0.0,2023,6,7,17,34,50,304
50.10720,0.21052,0.05968,0.00000,0.03062,0.97783,-0.18739,0.0,2023,6,7,17,34,50,309
50.10730,0.01802,0.02468,0.00000,0.03160,0.97527,-0.18825,0.0,2023,6,7,17,34,50,314
50.10740,-0.19198,0.11218,0.00000,0.02916,0.97759,-0.18629,0.0,2023,6,7,17,34,50,320
50.10750,0.07052,-0.11532,0.00000,0.03331,0.97685,-0.18764,0.0,2023,6,7,17,34,50,325
50.10760,-0.01698,-0.16782,0.00000,0.03184,0.97490,-0.18715,0.0,2023,6,7,17,34,50,330
50.10770,0.22802,-0.01032,0.00000,0.03062,0.97771,-0.18922,0.0,2023,6,7,17,34,50,336
50.10780,0.26302,-0.04532,0.00000,0.03001,0.97539,-0.18825,0.0,2023,6,7,17,34,50,341
50.10790,0.03552,0.11218,0.00000,0.03184,0.97588,-0.18788,0.0,2023,6,7,17,34,51,346
50.10800,0.00052,-0.23782,0.00000,0.03331,0.97551,-0.18434,0.0,2023,6,7,17,34,51,352
50.10810,-0.12198,-0.04532,0.00000,0.02977,0.97661,-0.18812,0.0,2023,6,7,17,34,51,357
50.10820,0.01802,0.00718,0.00000,0.02989,0.97576,-0.18873,0.0,2023,6,7,17,34,51,362
50.10830,-0.20948,0.02468,0.00000,0.03245,0.97685,-0.18642,0.0,2023,6,7,17,34,51,368
50.10840,-0.17448,0.09468,0.00000,0.03135,0.97356,-0.18629,0.0,2023,6,7,17,34,51,373
50.10850,-0.01698,0.18218,0.00000,0.03172,0.97893,-0.18849,0.0,2023,6,7,17,34,51,378
50.10860,0.00052,0.04218,0.00000,0.03123,0.97612,-0.18568,0.0,2023,6,7,17,34,51,384
50.10870,0.00052,-0.13282,0.00000,0.03209,0.97722,-0.18934,0.0,2023,6,7,17,34,51,389
50.10880,-0.05198,0.02468,0.00000,0.03074,0.97527,-0.18483,0.0,2023,6,7,17,34,51,394
50.10890,-0.13948,0.11218,0.00000,0.03013,0.97746,-0.18642,0.0,2023,6,7,17,34,51,400
50.10900,0.03552,0.14718,0.00000,0.03001,0.97539,-0.18678,0.0,2023,6,7,17,34,51,405
50.10910,0.08802,-0.11532,0.00000,0.03062,0.97405,-0.18764,0.0,2023,6,7,17,34,51,411
50.10920,-0.10448,-0.04532,0.00000,0.02952,0.97868,-0.18910,0.0,2023,6,7,17,34,51,416
50.10930,-0.15698,-0.01032,0.00000,0.03062,0.97649,-0.18666,0.0,2023,6,7,17,34,51,421
50.10940,-0.01698,0.21718,0.00000,0.03099,0.97588,-0.18666,0.0,2023,6,7,17,34,51,427
50.10950,0.14052,0.16468,0.00000,0.03001,0.97698,-0.18739,0.0,2023,6,7,17,34,51,432
50.10960,-0.22698,-0.08032,0.00000,0.03184,0.97722,-0.18947,0.0,2023,6,7,17,34,51,437
50.10970,0.00052,-0.01032,0.00000,0.02965,0.97515,-0.18654,0.0,2023,6,7,17,34,51,443
50.10980,0.01802,0.12968,0.00000,0.03184,0.97698,-0.18605,0.0,2023,6,7,17,34,51,448
50.10990,-0.06948,-0.08032,0.00000,0.03331,0.97490,-0.18825,0.0,2023,6,7,17,34,51,453
50.11000,0.08802,-0.11532,0.00000,0.02794,0.97539,-0.18922,0.0,2023,6,7,17,34,51,459
50.11010,0.03552,-0.08032,0.00000,0.03148,0.97820,-0.18983,0.0,2023,6,7,17,34,51,464
50.11020,0.07052,-0.11532,0.00000,0.03209,0.97527,-0.18459,0.0,2023,6,7,17,34,51,469
50.11030,0.07052,0.07718,0.00000,0.03209,0.97844,-0.18788,0.0,2023,6,7,17,34,51,475
50.11040,0.17552,0.09468,0.00000,0.03196,0.97527,-0.19093,0.0,2023,6,7,17,34,51,480
50.11050,-0.08698,-0.08032,0.00000,0.03209,0.97478,-0.18703,0.0,2023,6,7,17,34,51,485
50.11060,0.00052,-0.01032,0.00000,0.03209,0.97588,-0.18629,0.0,2023,6,7,17,34,51,491
50.11070,-0.10448,0.12968,0.00000,0.03245,0.97551,-0.18495,0.0,2023,6,7,17,34,51,496
50.11080,0.01802,-0.11532,0.00000,0.03087,0.97600,-0.18739,0.0,2023,6,7,17,34,51,501
50.11090,0.19302,0.04218,0.00000,0.03245,0.97563,-0.18971,0.0,2023,6,7,17,34,51,507
50.11100,-0.05198,0.00718,0.00000,0.03111,0.97649,-0.18837,0.0,2023,6,7,17,34,51,512
50.11110,-0.15698,0.32218,0.00000,0.02952,0.97478,-0.18520,0.0,2023,6,7,17,34,51,517
50.11120,-0.27948,0.19968,0.00000,0.03148,0.97600,-0.18849,0.0,2023,6,7,17,34,51,523
50.11130,0.01802,0.04218,0.00000,0.03172,0.97612,-0.18849,0.0,2023,6,7,17,34,51,528
50.11140,0.10552,-0.09782,0.00000,0.03148,0.97734,-0.19032,0.0,2023,6,7,17,34,51,533
50.11150,-0.15698,0.18218,0.00000,0.03221,0.97734,-0.18910,0.0,2023,6,7,17,34,51,539
50.11160,0.00052,0.04218,0.00000,0.03038,0.97795,-0.18800,0.0,2023,6,7,17,34,51,544
50.11170,-0.01698,0.00718,0.00000,0.03050,0.97551,-0.18568,0.0,2023,6,7,17,34,51,549
50.11180,0.07052,-0.02782,0.00000,0.03062,0.97783,-0.18678,0.0,2023,6,7,17,34,51,555
50.11190,-0.15698,-0.22032,0.00000,0.03331,0.97612,-0.18910,0.0,2023,6,7,17,34,51,560
50.11200,-0.01698,0.18218,0.00000,0.02977,0.97307,-0.19020,0.0,2023,6,7,17,34,51,566
50.11210,0.26302,-0.09782,0.00000,0.03111,0.97661,-0.18995,0.0,2023,6,7,17,34,51,571
50.11220,-0.08698,-0.15032,0.00000,0.03306,0.97490,-0.18751,0.0,2023,6,7,17,34,51,576
50.11230,0.22802,-0.01032,0.00000,0.02806,0.97637,-0.18690,0.0,2023,6,7,17,34,51,582
50.11240,0.17552,0.04218,0.00000,0.02952,0.97502,-0.18788,0.0,2023,6,7,17,34,51,587
50.11250,0.01802,-0.02782,0.00000,0.02989,0.97624,-0.18861,0.0,2023,6,7,17,34,51,592
50.11260,0.03552,-0.22032,0.00000,0.03245,0.97746,-0.19020,0.0,2023,6,7,17,34,51,598
50.11270,-0.05198,0.02468,0.00000,0.03294,0.97515,-0.18861,0.0,2023,6,7,17,34,51,603
50.11280,-0.13948,0.04218,0.00000,0.03282,0.97698,-0.18983,0.0,2023,6,7,17,34,51,608
50.11290,0.21052,-0.01032,0.00000,0.03074,0.97734,-0.18934,0.0,2023,6,7,17,34,51,614
50.11300,0.08802,-0.08032,0.00000,0.02928,0.97856,-0.18507,0.0,2023,6,7,17,34,51,619
50.11310,0.01802,-0.18532,0.00000,0.02977,0.97746,-0.18739,0.0,2023,6,7,17,34,51,624
50.11320,-0.01698,-0.01032,0.00000,0.03221,0.97478,-0.18959,0.0,2023,6,7,17,34,51,630
50.11330,-0.03448,0.00718,0.00000,0.03196,0.97661,-0.18910,0.0,2023,6,7,17,34,51,635
50.11340,-0.17448,0.14718,0.00000,0.03270,0.97734,-0.19044,0.0,2023,6,7,17,34,51,640
50.11350,0.00052,0.28718,0.00000,0.03148,0.97783,-0.19008,0.0,2023,6,7,17,34,51,646
50.11360,0.03552,-0.11532,0.00000,0.03404,0.97759,-0.19020,0.0,2023,6,7,17,34,51,651
50.11370,0.14052,0.02468,0.00000,0.03099,0.97502,-0.18934,0.0,2023,6,7,17,34,51,656
50.11380,0.08802,0.16468,0.00000,0.03111,0.97746,-0.18837,0.0,2023,6,7,17,34,51,662
50.11390,0.17552,0.12968,0.00000,0.02891,0.97563,-0.18959,0.0,2023,6,7,17,34,51,667
50.11400,-0.01698,0.07718,0.00000,0.02952,0.97515,-0.18544,0.0,2023,6,7,17,34,51,672
50.11410,0.01802,-0.04532,0.00000,0.03135,0.97868,-0.19020,0.0,2023,6,7,17,34,51,678
50.11420,-0.06948,-0.04532,0.00000,0.03465,0.97685,-0.18934,0.0,2023,6,7,17,34,51,683
50.11430,-0.08698,0.02468,0.00000,0.03196,0.97490,-0.18971,0.0,2023,6,7,17,34,51,688
50.11440,0.01802,-0.20282,0.00000,0.03148,0.97490,-0.19044,0.0,2023,6,7,17,34,51,694
50.11450,0.10552,-0.09782,0.00000,0.03074,0.97698,-0.18995,0.0,2023,6,7,17,34,51,699
50.11460,-0.08698,-0.04532,0.00000,0.03062,0.97685,-0.18971,0.0,2023,6,7,17,34,51,704
50.11470,0.01802,-0.09782,0.00000,0.02940,0.97759,-0.19056,0.0,2023,6,7,17,34,51,710
50.11480,-0.13948,0.07718,0.00000,0.03233,0.97624,-0.18849,0.0,2023,6,7,17,34,51,715
50.11490,0.10552,-0.16782,0.00000,0.03074,0.97612,-0.19398,0.0,2023,6,7,17,34,51,721
50.11500,-0.22698,0.09468,0.00000,0.03245,0.97576,-0.18642,0.0,2023,6,7,17,34,51,726
50.11510,-0.01698,-0.13282,0.00000,0.03209,0.97527,-0.18971,0.0,2023,6,7,17,34,51,731
50.11520,0.01802,0.07718,0.00000,0.03209,0.97685,-0.19239,0.0,2023,6,7,17,34,51,737
50.11530,-0.13948,0.00718,0.00000,0.02904,0.97515,-0.19191,0.0,2023,6,7,17,34,51,742
50.11540,0.05302,-0.18532,0.00000,0.02916,0.97502,-0.19117,0.0,2023,6,7,17,34,51,747
50.11550,-0.06948,-0.23782,0.00000,0.03087,0.97881,-0.18776,0.0,2023,6,7,17,34,51,753
50.11560,0.14052,-0.01032,0.00000,0.03209,0.97771,-0.18764,0.0,2023,6,7,17,34,51,758
50.11570,-0.03448,-0.08032,0.00000,0.03184,0.97807,-0.18764,0.0,2023,6,7,17,34,51,763
50.11580,-0.03448,-0.04532,0.00000,0.03062,0.97795,-0.18910,0.0,2023,6,7,17,34,51,769
50.11590,-0.03448,0.09468,0.00000,0.03172,0.97551,-0.19081,0.0,2023,6,7,17,34,51,774
50.11600,-0.03448,-0.15032,0.00000,0.02794,0.97600,-0.18971,0.0,2023,6,7,17,34,51,779
50.11610,0.14052,0.02468,0.00000,0.03355,0.97637,-0.19069,0.0,2023,6,7,17,34,51,785
50.11620,0.01802,0.25218,0.00000,0.03123,0.97807,-0.19032,0.0,2023,6,7,17,34,51,790
50.11630,0.08802,-0.15032,0.00000,0.03111,0.98003,-0.19142,0.0,2023,6,7,17,34,51,795
50.11640,-0.01698,-0.02782,0.00000,0.03135,0.97661,-0.19056,0.0,2023,6,7,17,34,51,801
50.11650,-0.08698,-0.11532,0.00000,0.03257,0.97661,-0.19069,0.0,2023,6,7,17,34,51,806
50.11660,-0.10448,-0.01032,0.00000,0.03184,0.97502,-0.19069,0.0,2023,6,7,17,34,51,811
50.11670,-0.01698,-0.08032,0.00000,0.03135,0.97490,-0.19117,0.0,2023,6,7,17,34,52,817
50.11680,-0.10448,0.00718,0.00000,0.03062,0.97771,-0.19008,0.0,2023,6,7,17,34,52,822
50.11690,-0.17448,0.07718,0.00000,0.03184,0.97551,-0.19020,0.0,2023,6,7,17,34,52,827
50.11700,0.01802,0.00718,0.00000,0.03184,0.97417,-0.19032,0.0,2023,6,7,17,34,52,833
50.11710,-0.22698,0.00718,0.00000,0.03111,0.97856,-0.18898,0.0,2023,6,7,17,34,52,838
50.11720,-0.03448,-0.02782,0.00000,0.03209,0.97527,-0.19032,0.0,2023,6,7,17,34,52,843
50.11730,0.10552,0.02468,0.00000,0.03233,0.97551,-0.19044,0.0,2023,6,7,17,34,52,849
50.11740,-0.10448,-0.11532,0.00000,0.02977,0.97734,-0.19044,0.0,2023,6,7,17,34,52,854
50.11750,-0.15698,-0.08032,0.00000,0.03123,0.97832,-0.18983,0.0,2023,6,7,17,34,52,859
50.11760,-0.08698,0.00718,0.00000,0.03111,0.97722,-0.18642,0.0,2023,6,7,17,34,52,865
50.11770,0.00052,0.02468,0.00000,0.03196,0.97454,-0.19093,0.0,2023,6,7,17,34,52,870
50.11780,0.08802,-0.16782,0.00000,0.02916,0.97490,-0.19020,0.0,2023,6,7,17,34,52,876
50.11790,0.07052,0.02468,0.00000,0.03245,0.97661,-0.19044,0.0,2023,6,7,17,34,52,881
50.11800,0.12302,0.14718,0.00000,0.03074,0.97710,-0.19105,0.0,2023,6,7,17,34,52,886
50.11810,0.14052,0.02468,0.00000,0.03123,0.97637,-0.19056,0.0,2023,6,7,17,34,52,892
50.11820,-0.06948,0.11218,0.00000,0.03087,0.97454,-0.18995,0.0,2023,6,7,17,34,52,897
50.11830,-0.24448,0.19968,0.00000,0.03074,0.97490,-0.18910,0.0,2023,6,7,17,34,52,902
50.11840,0.15802,-0.04532,0.00000,0.03343,0.97612,-0.19117,0.0,2023,6,7,17,34,52,908
50.11850,0.14052,0.12968,0.00000,0.03196,0.97624,-0.19044,0.0,2023,6,7,17,34,52,913
50.11860,-0.05198,0.02468,0.00000,0.03196,0.97649,-0.18837,0.0,2023,6,7,17,34,52,918
50.11870,0.22802,0.00718,0.00000,0.03135,0.97661,-0.18788,0.0,2023,6,7,17,34,52,924
50.11880,0.15802,-0.02782,0.00000,0.03123,0.97612,-0.19020,0.0,2023,6,7,17,34,52,929
50.11890,0.08802,-0.06282,0.00000,0.02891,0.97759,-0.19130,0.0,2023,6,7,17,34,52,934
50.11900,-0.10448,0.11218,0.00000,0.03087,0.97551,-0.18861,0.0,2023,6,7,17,34,52,940
50.11910,0.05302,0.28718,0.00000,0.03038,0.97454,-0.19069,0.0,2023,6,7,17,34,52,945
50.11920,-0.06948,0.11218,0.00000,0.03013,0.97588,-0.18910,0.0,2023,6,7,17,34,52,950
50.11930,-0.01698,0.16468,0.00000,0.03221,0.97563,-0.18971,0.0,2023,6,7,17,34,52,956
50.11940,0.07052,0.16468,0.00000,0.03013,0.97344,-0.18715,0.0,2023,6,7,17,34,52,961
50.11950,-0.20948,-0.02782,0.00000,0.03074,0.97515,-0.19008,0.0,2023,6,7,17,34,52,966
50.11960,-0.12198,0.14718,0.00000,0.03135,0.97795,-0.18825,0.0,2023,6,7,17,34,52,972
50.11970,-0.15698,0.09468,0.00000,0.03184,0.97539,-0.18666,0.0,2023,6,7,17,34,52,977
50.11980,0.15802,-0.09782,0.00000,0.03270,0.97515,-0.18995,0.0,2023,6,7,17,34,52,982
50.11990,-0.24448,-0.08032,0.00000,0.03160,0.97405,-0.19154,0.0,2023,6,7,17,34,52,988
50.12000,0.05302,-0.16782,0.00000,0.03172,0.97624,-0.18898,0.0,2023,6,7,17,34,52,993
50.12010,-0.08698,0.09468,0.00000,0.03221,0.97576,-0.18739,0.0,2023,6,7,17,34,52,998
50.12020,0.08802,0.11218,0.00000,0.03318,0.97722,-0.18971,0.0,2023,6,7,17,34,52,4
50.12030,0.08802,0.00718,0.00000,0.03087,0.97527,-0.18800,0.0,2023,6,7,17,34,52,9
50.12040,-0.29698,0.04218,0.00000,0.03196,0.97563,-0.18910,0.0,2023,6,7,17,34,52,14
50.12050,0.00052,0.12968,0.00000,0.03184,0.97710,-0.18446,0.0,2023,6,7,17,34,52,20
50.12060,0.14052,-0.15032,0.00000,0.03318,0.97637,-0.18642,0.0,2023,6,7,17,34,52,25
50.12070,0.19302,-0.13282,0.00000,0.03111,0.97539,-0.18886,0.0,2023,6,7,17,34,52,31
50.12080,0.03552,0.14718,0.00000,0.03172,0.97539,-0.19008,0.0,2023,6,7,17,34,52,36
50.12090,0.07052,0.14718,0.00000,0.03233,0.97576,-0.18971,0.0,2023,6,7,17,34,52,41
50.12100,-0.15698,0.14718,0.00000,0.03111,0.97844,-0.18727,0.0,2023,6,7,17,34,52,47
50.12110,-0.13948,-0.08032,0.00000,0.03196,0.97624,-0.18812,0.0,2023,6,7,17,34,52,52
50.12120,-0.06948,0.04218,0.00000,0.02965,0.97685,-0.18727,0.0,2023,6,7,17,34,52,57
50.12130,-0.05198,-0.06282,0.00000,0.03050,0.97490,-0.18910,0.0,2023,6,7,17,34,52,63
50.12140,0.10552,0.09468,0.00000,0.03038,0.97417,-0.18861,0.0,2023,6,7,17,34,52,68
50.12150,-0.05198,0.07718,0.00000,0.03062,0.97600,-0.18898,0.0,2023,6,7,17,34,52,73
50.12160,0.03552,0.12968,0.00000,0.03148,0.97685,-0.18507,0.0,2023,6,7,17,34,52,79
50.12170,0.08802,-0.01032,0.00000,0.03074,0.97661,-0.18825,0.0,2023,6,7,17,34,52,84
50.12180,-0.12198,0.00718,0.00000,0.03257,0.97734,-0.19044,0.0,2023,6,7,17,34,52,89
50.12190,0.08802,0.09468,0.00000,0.03172,0.97344,-0.19032,0.0,2023,6,7,17,34,52,95
50.12200,0.15802,0.04218,0.00000,0.02928,0.97746,-0.18776,0.0,2023,6,7,17,34,52,100
50.12210,-0.10448,0.19968,0.00000,0.03135,0.97600,-0.18605,0.0,2023,6,7,17,34,52,105
50.12220,0.10552,-0.09782,0.00000,0.03184,0.97649,-0.18568,0.0,2023,6,7,17,34,52,111
50.12230,0.03552,0.12968,0.00000,0.03001,0.97856,-0.18788,0.0,2023,6,7,17,34,52,116
50.12240,0.10552,-0.16782,0.00000,0.03111,0.97612,-0.18751,0.0,2023,6,7,17,34,52,121
50.12250,0.10552,-0.06282,0.00000,0.03123,0.97551,-0.18812,0.0,2023,6,7,17,34,52,127
50.12260,-0.08698,-0.02782,0.00000,0.03233,0.97393,-0.18727,0.0,2023,6,7,17,34,52,132
50.12270,0.08802,0.00718,0.00000,0.03050,0.97905,-0.18690,0.0,2023,6,7,17,34,52,137
50.12280,0.08802,-0.29032,0.00000,0.02965,0.97734,-0.18837,0.0,2023,6,7,17,34,52,143
50.12290,-0.08698,-0.06282,0.00000,0.02952,0.97673,-0.18922,0.0,2023,6,7,17,34,52,148
50.12300,0.01802,-0.08032,0.00000,0.03221,0.97795,-0.18788,0.0,2023,6,7,17,34,52,153
50.12310,-0.17448,0.09468,0.00000,0.03172,0.97759,-0.18532,0.0,2023,6,7,17,34,52,159
50.12320,0.07052,0.02468,0.00000,0.03111,0.97417,-0.18678,0.0,2023,6,7,17,34,52,164
50.12330,0.03552,0.14718,0.00000,0.03343,0.97820,-0.19020,0.0,2023,6,7,17,34,52,169
50.12340,-0.13948,-0.02782,0.00000,0.03111,0.97661,-0.18715,0.0,2023,6,7,17,34,52,175
50.12350,0.03552,-0.08032,0.00000,0.03099,0.97551,-0.19032,0.0,2023,6,7,17,34,52,180
50.12360,0.08802,-0.08032,0.00000,0.03148,0.97710,-0.18544,0.0,2023,6,7,17,34,52,186
50.12370,-0.10448,0.05968,0.00000,0.02989,0.97466,-0.18861,0.0,2023,6,7,17,34,52,191
50.12380,0.10552,-0.06282,0.00000,0.03172,0.97710,-0.18739,0.0,2023,6,7,17,34,52,196
50.12390,0.05302,0.14718,0.00000,0.03062,0.97698,-0.18861,0.0,2023,6,7,17,34,52,202
50.12400,-0.03448,-0.04532,0.00000,0.03135,0.97490,-0.18849,0.0,2023,6,7,17,34,52,207
50.12410,0.07052,-0.09782,0.00000,0.03318,0.97661,-0.18617,0.0,2023,6,7,17,34,52,212
50.12420,-0.24448,-0.01032,0.00000,0.03196,0.97588,-0.18776,0.0,2023,6,7,17,34,52,218
50.12430,-0.12198,0.19968,0.00000,0.03318,0.97600,-0.18703,0.0,2023,6,7,17,34,52,223
50.12440,-0.05198,-0.02782,0.00000,0.03087,0.97685,-0.18788,0.0,2023,6,7,17,34,52,228
50.12450,0.00052,0.11218,0.00000,0.03087,0.97624,-0.18764,0.0,2023,6,7,17,34,52,234
50.12460,-0.22698,0.11218,0.00000,0.03172,0.97588,-0.18751,0.0,2023,6,7,17,34,52,239
50.12470,0.07052,-0.06282,0.00000,0.03160,0.97551,-0.18812,0.0,2023,6,7,17,34,52,244
50.12480,0.15802,0.05968,0.00000,0.03355,0.97698,-0.18886,0.0,2023,6,7,17,34,52,250
50.12490,0.05302,-0.08032,0.00000,0.03172,0.97600,-0.18739,0.0,2023,6,7,17,34,52,255
50.12500,-0.15698,0.18218,0.00000,0.03270,0.97795,-0.18703,0.0,2023,6,7,17,34,52,260
50.12510,-0.13948,0.09468,0.00000,0.03294,0.97551,-0.18642,0.0,2023,6,7,17,34,52,266
50.12520,0.03552,0.02468,0.00000,0.03428,0.97515,-0.18910,0.0,2023,6,7,17,34,52,271
50.12530,0.14052,0.00718,0.00000,0.03172,0.97539,-0.18751,0.0,2023,6,7,17,34,52,276
50.12540,0.19302,0.16468,0.00000,0.03184,0.97588,-0.18751,0.0,2023,6,7,17,34,52,282
50.12550,-0.19198,0.05968,0.00000,0.03111,0.97734,-0.18800,0.0,2023,6,7,17,34,52,287
50.12560,-0.06948,0.00718,0.00000,0.03111,0.97722,-0.18849,0.0,2023,6,7,17,34,52,292
50.12570,-0.05198,0.14718,0.00000,0.03196,0.97649,-0.19093,0.0,2023,6,7,17,34,52,298
50.12580,-0.10448,0.09468,0.00000,0.03233,0.97588,-0.18947,0.0,2023,6,7,17,34,53,303
50.12590,-0.13948,-0.02782,0.00000,0.03318,0.97868,-0.18751,0.0,2023,6,7,17,34,53,308
50.12600,0.01802,0.12968,0.00000,0.03221,0.97478,-0.18642,0.0,2023,6,7,17,34,53,314
50.12610,0.07052,-0.01032,0.00000,0.03172,0.97612,-0.18776,0.0,2023,6,7,17,34,53,319
50.12620,0.05302,0.02468,0.00000,0.03233,0.97612,-0.18751,0.0,2023,6,7,17,34,53,324
50.12630,-0.13948,-0.02782,0.00000,0.03062,0.97685,-0.18861,0.0,2023,6,7,17,34,53,330
50.12640,0.12302,0.00718,0.00000,0.03038,0.97661,-0.18678,0.0,2023,6,7,17,34,53,335
50.12650,-0.08698,0.18218,0.00000,0.03026,0.97515,-0.18886,0.0,2023,6,7,17,34,53,341
50.12660,-0.10448,-0.04532,0.00000,0.03184,0.97527,-0.18898,0.0,2023,6,7,17,34,53,346
50.12670,0.07052,-0.01032,0.00000,0.02904,0.97563,-0.19166,0.0,2023,6,7,17,34,53,351
50.12680,0.07052,0.00718,0.00000,0.03160,0.97539,-0.18873,0.0,2023,6,7,17,34,53,357
50.12690,-0.03448,-0.04532,0.00000,0.02989,0.97832,-0.18861,0.0,2023,6,7,17,34,53,362
50.12700,0.03552,-0.04532,0.00000,0.03111,0.97820,-0.18727,0.0,2023,6,7,17,34,53,367
50.12710,-0.08698,-0.01032,0.00000,0.03062,0.97698,-0.18446,0.0,2023,6,7,17,34,53,373
50.12720,-0.01698,0.12968,0.00000,0.02916,0.97600,-0.18520,0.0,2023,6,7,17,34,53,378
50.12730,-0.27948,0.16468,0.00000,0.03050,0.97942,-0.18788,0.0,2023,6,7,17,34,53,383
50.12740,-0.06948,-0.22032,0.00000,0.03148,0.97844,-0.18654,0.0,2023,6,7,17,34,53,389
50.12750,0.19302,-0.15032,0.00000,0.03135,0.97478,-0.19008,0.0,2023,6,7,17,34,53,394
50.12760,-0.05198,0.00718,0.00000,0.03172,0.97954,-0.18812,0.0,2023,6,7,17,34,53,399
50.12770,-0.08698,-0.11532,0.00000,0.03135,0.97746,-0.18690,0.0,2023,6,7,17,34,53,405
50.12780,-0.12198,-0.23782,0.00000,0.03392,0.97612,-0.18544,0.0,2023,6,7,17,34,53,410
50.12790,-0.06948,0.05968,0.00000,0.03428,0.97759,-0.18825,0.0,2023,6,7,17,34,53,415
50.12800,-0.01698,0.02468,0.00000,0.03001,0.97637,-0.18922,0.0,2023,6,7,17,34,53,421
50.12810,0.15802,0.05968,0.00000,0.03172,0.97576,-0.18959,0.0,2023,6,7,17,34,53,426
50.12820,0.03552,-0.13282,0.00000,0.03123,0.97795,-0.18544,0.0,2023,6,7,17,34,53,431
50.12830,-0.03448,0.11218,0.00000,0.03172,0.97698,-0.18837,0.0,2023,6,7,17,34,53,437
50.12840,-0.01698,0.11218,0.00000,0.03026,0.97490,-0.18690,0.0,2023,6,7,17,34,53,442
50.12850,-0.15698,-0.06282,0.00000,0.03001,0.97905,-0.18751,0.0,2023,6,7,17,34,53,447
50.12860,-0.03448,0.00718,0.00000,0.03209,0.97759,-0.18690,0.0,2023,6,7,17,34,53,453
50.12870,-0.06948,0.07718,0.00000,0.03001,0.97832,-0.18898,0.0,2023,6,7,17,34,53,458
50.12880,0.19302,-0.23782,0.00000,0.03270,0.97417,-0.18715,0.0,2023,6,7,17,34,53,463
50.12890,-0.15698,0.12968,0.00000,0.03074,0.97807,-0.18776,0.0,2023,6,7,17,34,53,469
50.12900,0.05302,0.09468,0.00000,0.03209,0.97685,-0.18666,0.0,2023,6,7,17,34,53,474
50.12910,-0.10448,0.16468,0.00000,0.02965,0.97576,-0.18934,0.0,2023,6,7,17,34,53,479
50.12920,0.03552,0.12968,0.00000,0.03087,0.97868,-0.18812,0.0,2023,6,7,17,34,53,485
50.12930,-0.13948,-0.06282,0.00000,0.03233,0.97588,-0.18556,0.0,2023,6,7,17,34,53,490
50.12940,-0.08698,0.00718,0.00000,0.03099,0.97637,-0.18764,0.0,2023,6,7,17,34,53,496
50.12950,-0.15698,-0.11532,0.00000,0.03074,0.97832,-0.18812,0.0,2023,6,7,17,34,53,501
50.12960,0.05302,0.00718,0.00000,0.03099,0.97698,-0.18812,0.0,2023,6,7,17,34,53,506
50.12970,0.08802,-0.04532,0.00000,0.03111,0.97820,-0.18690,0.0,2023,6,7,17,34,53,512
50.12980,-0.10448,0.02468,0.00000,0.03221,0.97698,-0.18593,0.0,2023,6,7,17,34,53,517
50.12990,0.07052,0.14718,0.00000,0.03148,0.97490,-0.18800,0.0,2023,6,7,17,34,53,522
50.13000,-0.19198,0.19968,0.00000,0.03233,0.97612,-0.18825,0.0,2023,6,7,17,34,53,528
50.13010,-0.06948,-0.15032,0.00000,0.03172,0.97624,-0.18788,0.0,2023,6,7,17,34,53,533
50.13020,0.19302,-0.16782,0.00000,0.03196,0.97783,-0.18727,0.0,2023,6,7,17,34,53,538
50.13030,0.01802,0.11218,0.00000,0.03245,0.97673,-0.18873,0.0,2023,6,7,17,34,53,544
50.13040,0.00052,-0.02782,0.00000,0.03001,0.97807,-0.18886,0.0,2023,6,7,17,34,53,549
50.13050,0.05302,0.05968,0.00000,0.03148,0.97563,-0.18715,0.0,2023,6,7,17,34,53,554
50.13060,-0.13948,0.25218,0.00000,0.03050,0.97466,-0.18800,0.0,2023,6,7,17,34,53,560
50.13070,-0.08698,-0.04532,0.00000,0.03294,0.97576,-0.18971,0.0,2023,6,7,17,34,53,565
50.13080,0.05302,-0.22032,0.00000,0.02855,0.97698,-0.18934,0.0,2023,6,7,17,34,53,570
50.13090,-0.12198,0.14718,0.00000,0.03196,0.97563,-0.18642,0.0,2023,6,7,17,34,53,576
50.13100,-0.17448,0.16468,0.00000,0.03123,0.97722,-0.18776,0.0,2023,6,7,17,34,53,581
50.13110,0.01802,-0.02782,0.00000,0.03172,0.97539,-0.18751,0.0,2023,6,7,17,34,53,586
50.13120,0.01802,0.02468,0.00000,0.03099,0.97588,-0.18910,0.0,2023,6,7,17,34,53,592
50.13130,-0.05198,-0.08032,0.00000,0.03135,0.97673,-0.18776,0.0,2023,6,7,17,34,53,597
50.13140,0.01802,0.11218,0.00000,0.03233,0.97515,-0.18971,0.0,2023,6,7,17,34,53,602
50.13150,-0.12198,-0.01032,0.00000,0.03257,0.97563,-0.18654,0.0,2023,6,7,17,34,53,608
50.13160,-0.17448,0.11218,0.00000,0.03111,0.97429,-0.18764,0.0,2023,6,7,17,34,53,613
50.13170,0.12302,-0.11532,0.00000,0.03062,0.97868,-0.18886,0.0,2023,6,7,17,34,53,618
50.13180,0.12302,0.09468,0.00000,0.03026,0.97734,-0.18751,0.0,2023,6,7,17,34,53,624
50.13190,0.07052,-0.16782,0.00000,0.03087,0.97685,-0.18898,0.0,2023,6,7,17,34,53,629
50.13200,0.07052,0.02468,0.00000,0.03184,0.97661,-0.18873,0.0,2023,6,7,17,34,53,634
50.13210,0.05302,0.07718,0.00000,0.03184,0.97417,-0.18947,0.0,2023,6,7,17,34,53,640
50.13220,-0.13948,0.16468,0.00000,0.03087,0.97685,-0.18532,0.0,2023,6,7,17,34,53,645
50.13230,-0.10448,0.14718,0.00000,0.03135,0.97637,-0.18776,0.0,2023,6,7,17,34,53,651
50.13240,-0.03448,-0.01032,0.00000,0.02940,0.98003,-0.19093,0.0,2023,6,7,17,34,53,656
50.13250,-0.05198,0.02468,0.00000,0.02940,0.97393,-0.18788,0.0,2023,6,7,17,34,53,661
50.13260,-0.03448,-0.15032,0.00000,0.02952,0.97661,-0.18739,0.0,2023,6,7,17,34,53,667
50.13270,-0.12198,-0.01032,0.00000,0.03062,0.97710,-0.18873,0.0,2023,6,7,17,34,53,672
50.13280,-0.08698,0.05968,0.00000,0.03270,0.97856,-0.18776,0.0,2023,6,7,17,34,53,677
50.13290,-0.08698,0.11218,0.00000,0.03306,0.97624,-0.18678,0.0,2023,6,7,17,34,53,683
50.13300,0.12302,0.02468,0.00000,0.02989,0.97515,-0.18898,0.0,2023,6,7,17,34,53,688
50.13310,0.19302,-0.11532,0.00000,0.03123,0.97441,-0.18825,0.0,2023,6,7,17,34,53,693
50.13320,-0.20948,-0.20282,0.00000,0.03318,0.97563,-0.18678,0.0,2023,6,7,17,34,53,699
50.13330,0.01802,0.00718,0.00000,0.03123,0.97490,-0.18873,0.0,2023,6,7,17,34,53,704
50.13340,-0.08698,0.09468,0.00000,0.03026,0.97734,-0.18751,0.0,2023,6,7,17,34,53,709
50.13350,0.08802,0.04218,0.00000,0.03001,0.97771,-0.18898,0.0,2023,6,7,17,34,53,715
50.13360,0.03552,0.07718,0.00000,0.03209,0.97527,-0.18739,0.0,2023,6,7,17,34,53,720
50.13370,-0.03448,-0.04532,0.00000,0.03306,0.97795,-0.18642,0.0,2023,6,7,17,34,53,725
50.13380,0.12302,-0.09782,0.00000,0.03160,0.97527,-0.18873,0.0,2023,6,7,17,34,53,731
50.13390,0.08802,-0.09782,0.00000,0.03160,0.97588,-0.18788,0.0,2023,6,7,17,34,53,736
50.13400,0.03552,0.11218,0.00000,0.03026,0.97612,-0.18715,0.0,2023,6,7,17,34,53,741
50.13410,0.08802,-0.20282,0.00000,0.02989,0.97710,-0.18764,0.0,2023,6,7,17,34,53,747
50.13420,0.08802,-0.16782,0.00000,0.03135,0.97417,-0.18812,0.0,2023,6,7,17,34,53,752
50.13430,-0.03448,0.00718,0.00000,0.03111,0.97563,-0.18739,0.0,2023,6,7,17,34,53,757
50.13440,0.15802,-0.02782,0.00000,0.03160,0.97734,-0.18678,0.0,2023,6,7,17,34,53,763
50.13450,-0.05198,-0.02782,0.00000,0.02891,0.97576,-0.18471,0.0,2023,6,7,17,34,53,768
50.13460,-0.10448,-0.04532,0.00000,0.03135,0.97515,-0.18703,0.0,2023,6,7,17,34,53,773
50.13470,0.10552,-0.11532,0.00000,0.03148,0.97649,-0.18812,0.0,2023,6,7,17,34,53,779
50.13480,0.24552,-0.06282,0.00000,0.02965,0.97685,-0.18764,0.0,2023,6,7,17,34,54,784
50.13490,-0.10448,0.04218,0.00000,0.03172,0.97722,-0.18776,0.0,2023,6,7,17,34,54,789
50.13500,-0.13948,0.07718,0.00000,0.03087,0.97624,-0.18910,0.0,2023,6,7,17,34,54,795
50.13510,0.21052,0.05968,0.00000,0.03245,0.97563,-0.18764,0.0,2023,6,7,17,34,54,800
50.13520,0.10552,-0.18532,0.00000,0.03135,0.97551,-0.18983,0.0,2023,6,7,17,34,54,806
50.13530,0.01802,0.05968,0.00000,0.03294,0.97637,-0.18947,0.0,2023,6,7,17,34,54,811
50.13540,-0.20948,-0.06282,0.00000,0.03038,0.97807,-0.18910,0.0,2023,6,7,17,34,54,816
50.13550,0.01802,-0.01032,0.00000,0.02879,0.97539,-0.18983,0.0,2023,6,7,17,34,54,822
50.13560,0.03552,0.25218,0.00000,0.03001,0.97746,-0.19008,0.0,2023,6,7,17,34,54,827
50.13570,-0.24448,0.18218,0.00000,0.03160,0.97734,-0.18605,0.0,2023,6,7,17,34,54,832
50.13580,-0.01698,-0.27282,0.00000,0.03172,0.97661,-0.18886,0.0,2023,6,7,17,34,54,838
50.13590,-0.03448,0.11218,0.00000,0.03135,0.97637,-0.18568,0.0,2023,6,7,17,34,54,843
50.13600,0.00052,0.11218,0.00000,0.03221,0.97759,-0.18812,0.0,2023,6,7,17,34,54,848
50.13610,-0.12198,0.02468,0.00000,0.03294,0.97515,-0.18727,0.0,2023,6,7,17,34,54,854
50.13620,-0.06948,0.04218,0.00000,0.03038,0.97710,-0.18495,0.0,2023,6,7,17,34,54,859
50.13630,0.00052,0.09468,0.00000,0.03062,0.97551,-0.18947,0.0,2023,6,7,17,34,54,864
50.13640,-0.05198,0.04218,0.00000,0.02977,0.97612,-0.18849,0.0,2023,6,7,17,34,54,870
50.13650,-0.05198,0.21718,0.00000,0.03428,0.97759,-0.18593,0.0,2023,6,7,17,34,54,875
50.13660,0.08802,0.09468,0.00000,0.03294,0.97759,-0.18605,0.0,2023,6,7,17,34,54,880
50.13670,0.07052,-0.04532,0.00000,0.02965,0.97771,-0.18849,0.0,2023,6,7,17,34,54,886
50.13680,0.00052,-0.01032,0.00000,0.03270,0.97380,-0.18727,0.0,2023,6,7,17,34,54,891
50.13690,0.05302,0.05968,0.00000,0.03074,0.97673,-0.18739,0.0,2023,6,7,17,34,54,896
50.13700,0.12302,0.00718,0.00000,0.03123,0.97624,-0.18446,0.0,2023,6,7,17,34,54,902
50.13710,0.10552,0.04218,0.00000,0.03148,0.97746,-0.18861,0.0,2023,6,7,17,34,54,907
50.13720,-0.01698,0.11218,0.00000,0.03160,0.97576,-0.18861,0.0,2023,6,7,17,34,54,912
50.13730,-0.06948,0.12968,0.00000,0.03270,0.97576,-0.18703,0.0,2023,6,7,17,34,54,918
50.13740,-0.01698,0.05968,0.00000,0.03038,0.97649,-0.18764,0.0,2023,6,7,17,34,54,923
50.13750,0.03552,0.18218,0.00000,0.03001,0.97588,-0.18727,0.0,2023,6,7,17,34,54,928
50.13760,0.01802,0.00718,0.00000,0.03160,0.97795,-0.18483,0.0,2023,6,7,17,34,54,934
50.13770,-0.10448,0.02468,0.00000,0.03367,0.97466,-0.18581,0.0,2023,6,7,17,34,54,939
50.13780,-0.15698,-0.08032,0.00000,0.03160,0.97332,-0.18446,0.0,2023,6,7,17,34,54,944
50.13790,-0.15698,0.19968,0.00000,0.03026,0.97624,-0.18995,0.0,2023,6,7,17,34,54,950
50.13800,-0.06948,0.12968,0.00000,0.03221,0.97673,-0.18751,0.0,2023,6,7,17,34,54,955
50.13810,-0.10448,-0.01032,0.00000,0.03184,0.97698,-0.18703,0.0,2023,6,7,17,34,54,961
50.13820,0.10552,0.00718,0.00000,0.03257,0.97649,-0.19069,0.0,2023,6,7,17,34,54,966
50.13830,0.10552,-0.09782,0.00000,0.03099,0.97734,-0.18690,0.0,2023,6,7,17,34,54,971
50.13840,-0.08698,0.05968,0.00000,0.03172,0.97637,-0.18849,0.0,2023,6,7,17,34,54,977
50.13850,0.03552,0.05968,0.00000,0.03062,0.97576,-0.18471,0.0,2023,6,7,17,34,54,982
50.13860,0.08802,-0.15032,0.00000,0.03050,0.97661,-0.18544,0.0,2023,6,7,17,34,54,987
50.13870,-0.12198,0.09468,0.00000,0.03196,0.97551,-0.18873,0.0,2023,6,7,17,34,54,993
50.13880,-0.12198,0.07718,0.00000,0.03001,0.97637,-0.18812,0.0,2023,6,7,17,34,54,998
50.13890,0.07052,-0.13282,0.00000,0.03135,0.97734,-0.18422,0.0,2023,6,7,17,34,54,3
50.13900,0.14052,0.05968,0.00000,0.03038,0.97807,-0.19081,0.0,2023,6,7,17,34,54,9
50.13910,0.10552,-0.18532,0.00000,0.03209,0.97673,-0.19056,0.0,2023,6,7,17,34,54,14
50.13920,0.03552,0.00718,0.00000,0.03062,0.97551,-0.18898,0.0,2023,6,7,17,34,54,19
50.13930,-0.01698,0.09468,0.00000,0.03074,0.97515,-0.18690,0.0,2023,6,7,17,34,54,25
50.13940,0.08802,0.14718,0.00000,0.03123,0.97783,-0.18703,0.0,2023,6,7,17,34,54,30
50.13950,0.00052,-0.08032,0.00000,0.03245,0.97820,-0.18886,0.0,2023,6,7,17,34,54,35
50.13960,0.15802,0.28718,0.00000,0.02965,0.97722,-0.18581,0.0,2023,6,7,17,34,54,41
50.13970,-0.05198,-0.02782,0.00000,0.03074,0.97783,-0.18764,0.0,2023,6,7,17,34,54,46
50.13980,-0.05198,0.04218,0.00000,0.03038,0.97710,-0.18666,0.0,2023,6,7,17,34,54,51
50.13990,0.05302,-0.06282,0.00000,0.03306,0.97734,-0.18800,0.0,2023,6,7,17,34,54,57
50.14000,0.07052,-0.08032,0.00000,0.03038,0.97637,-0.18922,0.0,2023,6,7,17,34,54,62
50.14010,-0.05198,0.14718,0.00000,0.03050,0.97637,-0.18849,0.0,2023,6,7,17,34,54,67
50.14020,0.05302,0.02468,0.00000,0.03209,0.97612,-0.18812,0.0,2023,6,7,17,34,54,73
50.14030,-0.03448,0.09468,0.00000,0.03343,0.97637,-0.18629,0.0,2023,6,7,17,34,54,78
50.14040,-0.12198,0.05968,0.00000,0.03026,0.97576,-0.18800,0.0,2023,6,7,17,34,54,83
50.14050,-0.10448,0.05968,0.00000,0.02916,0.97673,-0.18678,0.0,2023,6,7,17,34,54,89
50.14060,0.08802,-0.18532,0.00000,0.03343,0.97563,-0.18727,0.0,2023,6,7,17,34,54,94
50.14070,0.03552,0.19968,0.00000,0.03001,0.97832,-0.19044,0.0,2023,6,7,17,34,54,99
50.14080,0.10552,-0.08032,0.00000,0.03111,0.97771,-0.18947,0.0,2023,6,7,17,34,54,105
50.14090,0.03552,0.02468,0.00000,0.03221,0.97746,-0.18751,0.0,2023,6,7,17,34,54,110
50.14100,0.00052,0.00718,0.00000,0.02989,0.97698,-0.18764,0.0,2023,6,7,17,34,54,116
50.14110,-0.06948,0.16468,0.00000,0.03013,0.97466,-0.18690,0.0,2023,6,7,17,34,54,121
50.14120,-0.08698,0.32218,0.00000,0.03196,0.97624,-0.18764,0.0,2023,6,7,17,34,54,126
50.14130,0.00052,0.05968,0.00000,0.03123,0.97624,-0.18629,0.0,2023,6,7,17,34,54,132
50.14140,-0.08698,-0.13282,0.00000,0.03184,0.97515,-0.18629,0.0,2023,6,7,17,34,54,137
50.14150,0.00052,0.02468,0.00000,0.03221,0.97563,-0.18703,0.0,2023,6,7,17,34,54,142
50.14160,0.07052,-0.25532,0.00000,0.03221,0.97539,-0.18947,0.0,2023,6,7,17,34,54,148
50.14170,0.01802,-0.18532,0.00000,0.02989,0.97820,-0.18983,0.0,2023,6,7,17,34,54,153
50.14180,0.17552,-0.16782,0.00000,0.03038,0.97661,-0.18751,0.0,2023,6,7,17,34,54,158
50.14190,0.21052,-0.20282,0.00000,0.03135,0.97661,-0.18886,0.0,2023,6,7,17,34,54,164
50.14200,-0.06948,-0.11532,0.00000,0.02977,0.97612,-0.18764,0.0,2023,6,7,17,34,54,169
50.14210,0.01802,-0.06282,0.00000,0.03099,0.97954,-0.18934,0.0,2023,6,7,17,34,54,174
50.14220,0.08802,-0.08032,0.00000,0.03209,0.97405,-0.18886,0.0,2023,6,7,17,34,54,180
50.14230,0.10552,0.04218,0.00000,0.02940,0.97307,-0.18922,0.0,2023,6,7,17,34,54,185
50.14240,0.10552,-0.06282,0.00000,0.03160,0.97600,-0.18825,0.0,2023,6,7,17,34,54,190
50.14250,-0.08698,0.25218,0.00000,0.03318,0.97624,-0.18886,0.0,2023,6,7,17,34,54,196
50.14260,-0.01698,-0.11532,0.00000,0.03160,0.97417,-0.18825,0.0,2023,6,7,17,34,54,201
50.14270,0.00052,0.19968,0.00000,0.03123,0.97942,-0.18764,0.0,2023,6,7,17,34,54,206
50.14280,0.05302,-0.01032,0.00000,0.03148,0.97783,-0.18776,0.0,2023,6,7,17,34,54,212
50.14290,0.10552,-0.15032,0.00000,0.02989,0.97527,-0.18739,0.0,2023,6,7,17,34,54,217
50.14300,0.10552,0.07718,0.00000,0.03184,0.97881,-0.18849,0.0,2023,6,7,17,34,54,222
50.14310,0.00052,-0.09782,0.00000,0.03050,0.97710,-0.18666,0.0,2023,6,7,17,34,54,228
50.14320,-0.01698,0.02468,0.00000,0.03099,0.97734,-0.19020,0.0,2023,6,7,17,34,54,233
50.14330,-0.17448,0.12968,0.00000,0.03160,0.97576,-0.18800,0.0,2023,6,7,17,34,54,238
50.14340,-0.15698,0.16468,0.00000,0.03087,0.97637,-0.18959,0.0,2023,6,7,17,34,54,244
50.14350,-0.19198,0.12968,0.00000,0.02977,0.97649,-0.18532,0.0,2023,6,7,17,34,54,249
50.14360,0.08802,0.14718,0.00000,0.03038,0.98088,-0.18861,0.0,2023,6,7,17,34,54,254
50.14370,-0.05198,0.00718,0.00000,0.03221,0.97722,-0.18910,0.0,2023,6,7,17,34,54,260
50.14380,-0.08698,-0.04532,0.00000,0.03001,0.97624,-0.18581,0.0,2023,6,7,17,34,55,265
50.14390,-0.03448,0.11218,0.00000,0.02940,0.97771,-0.18812,0.0,2023,6,7,17,34,55,271
50.14400,-0.03448,0.02468,0.00000,0.03050,0.97746,-0.18703,0.0,2023,6,7,17,34,55,276
50.14410,-0.05198,0.00718,0.00000,0.03013,0.97783,-0.18995,0.0,2023,6,7,17,34,55,281
50.14420,-0.06948,0.02468,0.00000,0.03294,0.97673,-0.18629,0.0,2023,6,7,17,34,55,287
50.14430,0.10552,0.04218,0.00000,0.03038,0.97661,-0.18593,0.0,2023,6,7,17,34,55,292
50.14440,0.07052,0.02468,0.00000,0.03209,0.97746,-0.18788,0.0,2023,6,7,17,34,55,297
50.14450,0.05302,0.12968,0.00000,0.03123,0.97795,-0.18983,0.0,2023,6,7,17,34,55,303
50.14460,0.03552,-0.02782,0.00000,0.03245,0.97673,-0.18947,0.0,2023,6,7,17,34,55,308
50.14470,-0.08698,0.00718,0.00000,0.03062,0.97368,-0.18861,0.0,2023,6,7,17,34,55,313
50.14480,-0.13948,0.04218,0.00000,0.02989,0.97612,-0.18800,0.0,2023,6,7,17,34,55,319
50.14490,0.00052,-0.02782,0.00000,0.03282,0.97685,-0.18593,0.0,2023,6,7,17,34,55,324
50.14500,0.05302,-0.16782,0.00000,0.03245,0.97539,-0.18812,0.0,2023,6,7,17,34,55,329
50.14510,-0.24448,0.04218,0.00000,0.03013,0.97673,-0.18812,0.0,2023,6,7,17,34,55,335
50.14520,-0.22698,0.14718,0.00000,0.03135,0.97624,-0.18739,0.0,2023,6,7,17,34,55,340
50.14530,-0.08698,-0.06282,0.00000,0.03148,0.97612,-0.18825,0.0,2023,6,7,17,34,55,345
50.14540,0.07052,-0.01032,0.00000,0.03209,0.97600,-0.19081,0.0,2023,6,7,17,34,55,351
50.14550,-0.17448,0.07718,0.00000,0.03221,0.97612,-0.18947,0.0,2023,6,7,17,34,55,356
50.14560,0.08802,0.11218,0.00000,0.02977,0.97563,-0.19142,0.0,2023,6,7,17,34,55,361
50.14570,0.12302,-0.13282,0.00000,0.03257,0.97588,-0.19130,0.0,2023,6,7,17,34,55,367
50.14580,0.03552,-0.02782,0.00000,0.03245,0.97576,-0.18678,0.0,2023,6,7,17,34,55,372
50.14590,-0.03448,-0.11532,0.00000,0.03148,0.97710,-0.18873,0.0,2023,6,7,17,34,55,377
50.14600,-0.05198,0.11218,0.00000,0.03196,0.97917,-0.19020,0.0,2023,6,7,17,34,55,383
50.14610,-0.10448,0.09468,0.00000,0.03026,0.97722,-0.18788,0.0,2023,6,7,17,34,55,388
50.14620,0.14052,-0.13282,0.00000,0.03013,0.97917,-0.18727,0.0,2023,6,7,17,34,55,393
50.14630,-0.17448,-0.15032,0.00000,0.03148,0.97576,-0.18727,0.0,2023,6,7,17,34,55,399
50.14640,0.07052,0.04218,0.00000,0.03331,0.97649,-0.19142,0.0,2023,6,7,17,34,55,404
50.14650,0.08802,-0.02782,0.00000,0.02989,0.97600,-0.18654,0.0,2023,6,7,17,34,55,409
50.14660,-0.20948,0.11218,0.00000,0.03087,0.97405,-0.18837,0.0,2023,6,7,17,34,55,415
50.14670,0.01802,-0.08032,0.00000,0.02928,0.97637,-0.18959,0.0,2023,6,7,17,34,55,420
50.14680,0.05302,-0.20282,0.00000,0.03038,0.97807,-0.18690,0.0,2023,6,7,17,34,55,426
50.14690,-0.05198,-0.08032,0.00000,0.03087,0.97673,-0.18886,0.0,2023,6,7,17,34,55,431
50.14700,0.01802,-0.16782,0.00000,0.03257,0.97563,-0.19020,0.0,2023,6,7,17,34,55,436
50.14710,-0.12198,-0.13282,0.00000,0.03001,0.97417,-0.18666,0.0,2023,6,7,17,34,55,442
50.14720,-0.01698,-0.11532,0.00000,0.03087,0.97539,-0.18898,0.0,2023,6,7,17,34,55,447
50.14730,-0.05198,-0.06282,0.00000,0.03026,0.98027,-0.18849,0.0,2023,6,7,17,34,55,452
50.14740,-0.19198,0.14718,0.00000,0.02952,0.97759,-0.18837,0.0,2023,6,7,17,34,55,458
50.14750,0.17552,-0.20282,0.00000,0.03160,0.97624,-0.18995,0.0,2023,6,7,17,34,55,463
50.14760,0.00052,-0.13282,0.00000,0.03209,0.97612,-0.18947,0.0,2023,6,7,17,34,55,468
50.14770,0.08802,0.02468,0.00000,0.03026,0.97551,-0.18861,0.0,2023,6,7,17,34,55,474
50.14780,-0.01698,-0.08032,0.00000,0.03148,0.97539,-0.18886,0.0,2023,6,7,17,34,55,479
50.14790,0.08802,0.07718,0.00000,0.03001,0.97685,-0.18983,0.0,2023,6,7,17,34,55,484
50.14800,0.08802,-0.22032,0.00000,0.03184,0.97698,-0.18959,0.0,2023,6,7,17,34,55,490
50.14810,-0.05198,0.11218,0.00000,0.03062,0.97734,-0.18776,0.0,2023,6,7,17,34,55,495
50.14820,0.12302,-0.08032,0.00000,0.03135,0.97807,-0.18959,0.0,2023,6,7,17,34,55,500
50.14830,0.03552,-0.06282,0.00000,0.03172,0.97759,-0.18922,0.0,2023,6,7,17,34,55,506
50.14840,0.10552,0.09468,0.00000,0.02989,0.97710,-0.18861,0.0,2023,6,7,17,34,55,511
50.14850,0.07052,-0.13282,0.00000,0.03209,0.97576,-0.18825,0.0,2023,6,7,17,34,55,516
50.14860,-0.13948,0.14718,0.00000,0.03148,0.97698,-0.18544,0.0,2023,6,7,17,34,55,522
50.14870,0.01802,0.02468,0.00000,0.03160,0.97685,-0.18825,0.0,2023,6,7,17,34,55,527
50.14880,-0.10448,0.05968,0.00000,0.03184,0.97576,-0.18849,0.0,2023,6,7,17,34,55,532
50.14890,-0.29698,0.23468,0.00000,0.03196,0.97576,-0.18739,0.0,2023,6,7,17,34,55,538
50.14900,0.00052,0.09468,0.00000,0.03270,0.97515,-0.18812,0.0,2023,6,7,17,34,55,543
50.14910,0.03552,0.00718,0.00000,0.03233,0.97722,-0.18617,0.0,2023,6,7,17,34,55,548
50.14920,0.00052,-0.02782,0.00000,0.03038,0.97661,-0.18873,0.0,2023,6,7,17,34,55,554
50.14930,-0.06948,-0.01032,0.00000,0.03038,0.98186,-0.18922,0.0,2023,6,7,17,34,55,559
50.14940,-0.06948,-0.02782,0.00000,0.03038,0.97685,-0.18898,0.0,2023,6,7,17,34,55,564
50.14950,-0.27948,0.02468,0.00000,0.03343,0.97539,-0.18898,0.0,2023,6,7,17,34,55,570
50.14960,-0.01698,-0.25532,0.00000,0.03123,0.97527,-0.18629,0.0,2023,6,7,17,34,55,575
50.14970,0.01802,0.09468,0.00000,0.03209,0.97673,-0.18959,0.0,2023,6,7,17,34,55,581
50.14980,0.14052,-0.16782,0.00000,0.03148,0.97588,-0.18825,0.0,2023,6,7,17,34,55,586
50.14990,-0.22698,0.14718,0.00000,0.02843,0.97588,-0.18788,0.0,2023,6,7,17,34,55,591
50.15000,-0.01698,0.14718,0.00000,0.03306,0.97600,-0.18629,0.0,2023,6,7,17,34,55,597
50.15010,0.00052,0.28718,0.00000,0.03135,0.97685,-0.19069,0.0,2023,6,7,17,34,55,602
50.15020,-0.10448,0.00718,0.00000,0.03135,0.97698,-0.18873,0.0,2023,6,7,17,34,55,607
50.15030,0.10552,0.02468,0.00000,0.03001,0.97490,-0.19008,0.0,2023,6,7,17,34,55,613
50.15040,0.17552,0.09468,0.00000,0.03135,0.97673,-0.18910,0.0,2023,6,7,17,34,55,618
50.15050,-0.05198,-0.16782,0.00000,0.03233,0.97710,-0.18886,0.0,2023,6,7,17,34,55,623
50.15060,-0.10448,0.26968,0.00000,0.03282,0.97588,-0.18837,0.0,2023,6,7,17,34,55,629
50.15070,0.01802,0.07718,0.00000,0.03074,0.97490,-0.18910,0.0,2023,6,7,17,34,55,634
50.15080,0.14052,-0.18532,0.00000,0.03087,0.97441,-0.18800,0.0,2023,6,7,17,34,55,639
50.15090,-0.05198,-0.11532,0.00000,0.03099,0.97734,-0.18825,0.0,2023,6,7,17,34,55,645
50.15100,-0.05198,0.16468,0.00000,0.03160,0.97576,-0.18629,0.0,2023,6,7,17,34,55,650
50.15110,-0.12198,-0.01032,0.00000,0.03062,0.97795,-0.18922,0.0,2023,6,7,17,34,55,655
50.15120,0.15802,0.05968,0.00000,0.03343,0.97673,-0.18898,0.0,2023,6,7,17,34,55,661
50.15130,0.10552,-0.09782,0.00000,0.03099,0.97649,-0.19105,0.0,2023,6,7,17,34,55,666
50.15140,-0.01698,-0.18532,0.00000,0.03257,0.97637,-0.18995,0.0,2023,6,7,17,34,55,671
50.15150,0.12302,-0.23782,0.00000,0.03233,0.97588,-0.19008,0.0,2023,6,7,17,34,55,677
50.15160,-0.20948,0.21718,0.00000,0.03257,0.97563,-0.18983,0.0,2023,6,7,17,34,55,682
50.15170,-0.15698,0.21718,0.00000,0.03245,0.97454,-0.18947,0.0,2023,6,7,17,34,55,687
50.15180,-0.01698,-0.06282,0.00000,0.02916,0.97563,-0.19020,0.0,2023,6,7,17,34,55,693
50.15190,-0.06948,0.14718,0.00000,0.03343,0.97685,-0.18776,0.0,2023,6,7,17,34,55,698
50.15200,0.12302,-0.25532,0.00000,0.02855,0.97429,-0.18947,0.0,2023,6,7,17,34,55,703
50.15210,-0.03448,0.11218,0.00000,0.03209,0.97820,-0.18690,0.0,2023,6,7,17,34,55,709
50.15220,0.08802,-0.15032,0.00000,0.03013,0.97759,-0.18910,0.0,2023,6,7,17,34,55,714
50.15230,-0.10448,-0.08032,0.00000,0.02806,0.97710,-0.18886,0.0,2023,6,7,17,34,55,719
50.15240,0.08802,0.16468,0.00000,0.02977,0.97624,-0.18947,0.0,2023,6,7,17,34,55,725
50.15250,-0.08698,0.18218,0.00000,0.03172,0.97527,-0.18751,0.0,2023,6,7,17,34,55,730
50.15260,0.08802,-0.04532,0.00000,0.03074,0.97527,-0.19117,0.0,2023,6,7,17,34,55,736
50.15270,0.01802,-0.06282,0.00000,0.02928,0.97698,-0.19069,0.0,2023,6,7,17,34,55,741
50.15280,-0.05198,-0.13282,0.00000,0.03245,0.97551,-0.18812,0.0,2023,6,7,17,34,56,746
50.15290,-0.06948,-0.08032,0.00000,0.02989,0.97441,-0.18825,0.0,2023,6,7,17,34,56,752
50.15300,-0.12198,-0.15032,0.00000,0.03111,0.97759,-0.18593,0.0,2023,6,7,17,34,56,757
50.15310,-0.05198,0.16468,0.00000,0.03245,0.97734,-0.18825,0.0,2023,6,7,17,34,56,762
50.15320,-0.10448,-0.13282,0.00000,0.03135,0.97710,-0.18825,0.0,2023,6,7,17,34,56,768
50.15330,0.12302,-0.06282,0.00000,0.03196,0.97612,-0.18690,0.0,2023,6,7,17,34,56,773
50.15340,-0.24448,0.09468,0.00000,0.03233,0.97698,-0.18764,0.0,2023,6,7,17,34,56,778
50.15350,-0.10448,0.00718,0.00000,0.02952,0.97661,-0.18995,0.0,2023,6,7,17,34,56,784
50.15360,0.07052,-0.01032,0.00000,0.03245,0.97563,-0.18971,0.0,2023,6,7,17,34,56,789
50.15370,-0.06948,-0.09782,0.00000,0.03062,0.97661,-0.18910,0.0,2023,6,7,17,34,56,794
50.15380,0.10552,-0.11532,0.00000,0.02928,0.97698,-0.18934,0.0,2023,6,7,17,34,56,800
50.15390,0.26302,-0.13282,0.00000,0.03135,0.97527,-0.18581,0.0,2023,6,7,17,34,56,805
50.15400,0.10552,0.02468,0.00000,0.03135,0.97783,-0.18788,0.0,2023,6,7,17,34,56,810
50.15410,0.10552,-0.01032,0.00000,0.03050,0.97661,-0.18959,0.0,2023,6,7,17,34,56,816
50.15420,-0.03448,0.19968,0.00000,0.03233,0.97576,-0.18739,0.0,2023,6,7,17,34,56,821
50.15430,0.00052,0.02468,0.00000,0.03062,0.97563,-0.18581,0.0,2023,6,7,17,34,56,826
50.15440,-0.19198,0.23468,0.00000,0.03013,0.97722,-0.18593,0.0,2023,6,7,17,34,56,832
50.15450,-0.10448,0.04218,0.00000,0.03184,0.97454,-0.18751,0.0,2023,6,7,17,34,56,837
50.15460,-0.15698,0.23468,0.00000,0.03062,0.97454,-0.18678,0.0,2023,6,7,17,34,56,842
50.15470,0.05302,0.00718,0.00000,0.03135,0.97698,-0.19032,0.0,2023,6,7,17,34,56,848
50.15480,0.00052,-0.25532,0.00000,0.03001,0.97746,-0.18825,0.0,2023,6,7,17,34,56,853
50.15490,-0.03448,0.18218,0.00000,0.03111,0.97600,-0.18861,0.0,2023,6,7,17,34,56,858
50.15500,0.05302,-0.08032,0.00000,0.03245,0.97368,-0.18690,0.0,2023,6,7,17,34,56,864
50.15510,0.15802,-0.01032,0.00000,0.03160,0.97698,-0.19081,0.0,2023,6,7,17,34,56,869
50.15520,0.10552,0.14718,0.00000,0.03148,0.97588,-0.19056,0.0,2023,6,7,17,34,56,874
50.15530,0.21052,-0.06282,0.00000,0.02952,0.97539,-0.19093,0.0,2023,6,7,17,34,56,880
50.15540,0.15802,-0.09782,0.00000,0.03331,0.97502,-0.18690,0.0,2023,6,7,17,34,56,885
50.15550,-0.24448,0.21718,0.00000,0.03221,0.97807,-0.18764,0.0,2023,6,7,17,34,56,891
50.15560,-0.10448,-0.01032,0.00000,0.03148,0.97746,-0.18727,0.0,2023,6,7,17,34,56,896
50.15570,0.36802,-0.15032,0.00000,0.03074,0.97576,-0.18739,0.0,2023,6,7,17,34,56,901
50.15580,-0.01698,-0.22032,0.00000,0.03062,0.97649,-0.18678,0.0,2023,6,7,17,34,56,907
50.15590,-0.17448,0.11218,0.00000,0.03196,0.97649,-0.18898,0.0,2023,6,7,17,34,56,912
50.15600,0.03552,-0.02782,0.00000,0.03196,0.97722,-0.18471,0.0,2023,6,7,17,34,56,917
50.15610,-0.05198,-0.02782,0.00000,0.03294,0.97759,-0.18678,0.0,2023,6,7,17,34,56,923
50.15620,-0.08698,-0.04532,0.00000,0.03160,0.97710,-0.18751,0.0,2023,6,7,17,34,56,928
50.15630,0.10552,-0.08032,0.00000,0.03099,0.97563,-0.18764,0.0,2023,6,7,17,34,56,933
50.15640,-0.03448,-0.04532,0.00000,0.03123,0.97771,-0.18678,0.0,2023,6,7,17,34,56,939
50.15650,-0.05198,0.19968,0.00000,0.03209,0.97405,-0.18703,0.0,2023,6,7,17,34,56,944
50.15660,-0.08698,-0.06282,0.00000,0.02940,0.97710,-0.18776,0.0,2023,6,7,17,34,56,949
50.15670,0.10552,-0.25532,0.00000,0.03196,0.97856,-0.18666,0.0,2023,6,7,17,34,56,955
50.15680,0.01802,0.05968,0.00000,0.03221,0.97722,-0.18617,0.0,2023,6,7,17,34,56,960
50.15690,0.03552,0.02468,0.00000,0.03099,0.97783,-0.18800,0.0,2023,6,7,17,34,56,965
50.15700,0.07052,-0.01032,0.00000,0.03135,0.97624,-0.18800,0.0,2023,6,7,17,34,56,971
50.15710,0.15802,-0.01032,0.00000,0.03087,0.97734,-0.18995,0.0,2023,6,7,17,34,56,976
50.15720,-0.03448,0.00718,0.00000,0.02952,0.97624,-0.18861,0.0,2023,6,7,17,34,56,981
50.15730,0.07052,-0.16782,0.00000,0.03318,0.97966,-0.18483,0.0,2023,6,7,17,34,56,987
50.15740,0.00052,0.11218,0.00000,0.03074,0.97661,-0.18861,0.0,2023,6,7,17,34,56,992
50.15750,-0.01698,-0.32532,0.00000,0.03135,0.97734,-0.18764,0.0,2023,6,7,17,34,56,997
50.15760,0.05302,-0.15032,0.00000,0.03135,0.97685,-0.18849,0.0,2023,6,7,17,34,56,3
50.15770,0.17552,0.02468,0.00000,0.03160,0.97771,-0.18629,0.0,2023,6,7,17,34,56,8
50.15780,-0.01698,-0.01032,0.00000,0.03172,0.97868,-0.18910,0.0,2023,6,7,17,34,56,13
50.15790,0.10552,-0.09782,0.00000,0.03257,0.97868,-0.18898,0.0,2023,6,7,17,34,56,19
50.15800,0.10552,0.00718,0.00000,0.03038,0.97661,-0.18861,0.0,2023,6,7,17,34,56,24
50.15810,0.00052,-0.04532,0.00000,0.02904,0.97649,-0.18934,0.0,2023,6,7,17,34,56,29
50.15820,-0.05198,-0.02782,0.00000,0.03221,0.97612,-0.18532,0.0,2023,6,7,17,34,56,35
50.15830,0.10552,0.14718,0.00000,0.03062,0.97502,-0.19008,0.0,2023,6,7,17,34,56,40
50.15840,0.00052,0.16468,0.00000,0.03087,0.97612,-0.19032,0.0,2023,6,7,17,34,56,46
50.15850,0.08802,-0.23782,0.00000,0.03270,0.97527,-0.19130,0.0,2023,6,7,17,34,56,51
50.15860,0.05302,-0.30782,0.00000,0.03257,0.97417,-0.18849,0.0,2023,6,7,17,34,56,56
50.15870,-0.01698,-0.34282,0.00000,0.03038,0.97771,-0.18703,0.0,2023,6,7,17,34,56,62
50.15880,-0.06948,-0.02782,0.00000,0.03221,0.97844,-0.18666,0.0,2023,6,7,17,34,56,67
50.15890,0.15802,0.07718,0.00000,0.03013,0.97698,-0.18788,0.0,2023,6,7,17,34,56,72
50.15900,0.10552,-0.16782,0.00000,0.03221,0.97637,-0.18922,0.0,2023,6,7,17,34,56,78
50.15910,0.19302,-0.11532,0.00000,0.03099,0.97490,-0.19069,0.0,2023,6,7,17,34,56,83
50.15920,-0.05198,0.04218,0.00000,0.03294,0.97563,-0.18678,0.0,2023,6,7,17,34,56,88
50.15930,0.10552,-0.08032,0.00000,0.03172,0.97759,-0.18788,0.0,2023,6,7,17,34,56,94
50.15940,0.19302,0.00718,0.00000,0.03453,0.97685,-0.19020,0.0,2023,6,7,17,34,56,99
50.15950,-0.15698,0.00718,0.00000,0.03099,0.97600,-0.18776,0.0,2023,6,7,17,34,56,104
50.15960,0.03552,-0.11532,0.00000,0.03074,0.97588,-0.18764,0.0,2023,6,7,17,34,56,110
50.15970,0.05302,-0.04532,0.00000,0.03013,0.97539,-0.18837,0.0,2023,6,7,17,34,56,115
50.15980,-0.05198,0.05968,0.00000,0.03233,0.97893,-0.18971,0.0,2023,6,7,17,34,56,120
50.15990,0.07052,-0.06282,0.00000,0.03135,0.97612,-0.18776,0.0,2023,6,7,17,34,56,126
50.16000,0.31552,0.02468,0.00000,0.03135,0.97344,-0.18861,0.0,2023,6,7,17,34,56,131
50.16010,0.01802,-0.13282,0.00000,0.03099,0.97515,-0.18678,0.0,2023,6,7,17,34,56,136
50.16020,-0.08698,-0.15032,0.00000,0.03331,0.97649,-0.18764,0.0,2023,6,7,17,34,56,142
50.16030,0.03552,-0.01032,0.00000,0.03123,0.97710,-0.19069,0.0,2023,6,7,17,34,56,147
50.16040,-0.05198,0.09468,0.00000,0.03013,0.97551,-0.18849,0.0,2023,6,7,17,34,56,152
50.16050,0.00052,0.00718,0.00000,0.03209,0.97746,-0.18739,0.0,2023,6,7,17,34,56,158
50.16060,0.19302,0.04218,0.00000,0.03074,0.97563,-0.18898,0.0,2023,6,7,17,34,56,163
50.16070,-0.13948,0.25218,0.00000,0.03135,0.97722,-0.18690,0.0,2023,6,7,17,34,56,168
50.16080,0.01802,0.07718,0.00000,0.03160,0.97759,-0.18873,0.0,2023,6,7,17,34,56,174
50.16090,0.01802,-0.04532,0.00000,0.03135,0.97844,-0.18959,0.0,2023,6,7,17,34,56,179
50.16100,0.05302,0.21718,0.00000,0.03074,0.97539,-0.18922,0.0,2023,6,7,17,34,56,184
50.16110,0.10552,0.04218,0.00000,0.03196,0.97490,-0.18788,0.0,2023,6,7,17,34,56,190
50.16120,-0.03448,-0.02782,0.00000,0.03306,0.97771,-0.18581,0.0,2023,6,7,17,34,56,195
50.16130,-0.03448,0.30468,0.00000,0.03099,0.97807,-0.18812,0.0,2023,6,7,17,34,56,201
50.16140,0.08802,-0.02782,0.00000,0.03062,0.97502,-0.18861,0.0,2023,6,7,17,34,56,206
50.16150,0.07052,-0.09782,0.00000,0.02940,0.97539,-0.18898,0.0,2023,6,7,17,34,56,211
50.16160,-0.08698,-0.02782,0.00000,0.03233,0.97551,-0.18739,0.0,2023,6,7,17,34,56,217
50.16170,-0.08698,0.25218,0.00000,0.03440,0.97710,-0.18800,0.0,2023,6,7,17,34,57,222
50.16180,0.21052,0.02468,0.00000,0.03355,0.97661,-0.18751,0.0,2023,6,7,17,34,57,227
50.16190,0.07052,0.16468,0.00000,0.03148,0.97820,-0.18971,0.0,2023,6,7,17,34,57,233
50.16200,-0.08698,0.00718,0.00000,0.03184,0.97527,-0.18764,0.0,2023,6,7,17,34,57,238
50.16210,-0.01698,-0.22032,0.00000,0.03160,0.97563,-0.18690,0.0,2023,6,7,17,34,57,243
50.16220,0.01802,-0.02782,0.00000,0.03196,0.97771,-0.18483,0.0,2023,6,7,17,34,57,249
50.16230,-0.05198,-0.15032,0.00000,0.03233,0.97588,-0.18983,0.0,2023,6,7,17,34,57,254
50.16240,-0.13948,0.05968,0.00000,0.03209,0.97527,-0.18910,0.0,2023,6,7,17,34,57,259
50.16250,-0.17448,0.14718,0.00000,0.02916,0.97734,-0.18898,0.0,2023,6,7,17,34,57,265
50.16260,-0.01698,-0.15032,0.00000,0.03099,0.97710,-0.18629,0.0,2023,6,7,17,34,57,270
50.16270,0.00052,-0.04532,0.00000,0.03050,0.97405,-0.18837,0.0,2023,6,7,17,34,57,275
50.16280,0.00052,0.05968,0.00000,0.03013,0.97771,-0.18788,0.0,2023,6,7,17,34,57,281
50.16290,0.00052,-0.02782,0.00000,0.03087,0.97734,-0.18886,0.0,2023,6,7,17,34,57,286
50.16300,-0.01698,0.11218,0.00000,0.02977,0.97722,-0.19020,0.0,2023,6,7,17,34,57,291
50.16310,-0.17448,0.04218,0.00000,0.03050,0.97539,-0.18873,0.0,2023,6,7,17,34,57,297
50.16320,0.01802,-0.09782,0.00000,0.03270,0.97612,-0.18727,0.0,2023,6,7,17,34,57,302
50.16330,0.00052,-0.15032,0.00000,0.02989,0.97771,-0.18910,0.0,2023,6,7,17,34,57,307
50.16340,-0.05198,0.16468,0.00000,0.03160,0.97478,-0.18812,0.0,2023,6,7,17,34,57,313
50.16350,0.03552,-0.04532,0.00000,0.03196,0.97576,-0.18751,0.0,2023,6,7,17,34,57,318
50.16360,0.01802,0.04218,0.00000,0.03184,0.97502,-0.18532,0.0,2023,6,7,17,34,57,323
50.16370,-0.12198,0.05968,0.00000,0.02891,0.97673,-0.18678,0.0,2023,6,7,17,34,57,329
50.16380,0.01802,0.12968,0.00000,0.03050,0.97612,-0.18776,0.0,2023,6,7,17,34,57,334
50.16390,0.12302,-0.01032,0.00000,0.03074,0.97832,-0.18947,0.0,2023,6,7,17,34,57,339
50.16400,-0.24448,0.04218,0.00000,0.03074,0.97685,-0.19032,0.0,2023,6,7,17,34,57,345
50.16410,-0.06948,-0.02782,0.00000,0.03111,0.97515,-0.18800,0.0,2023,6,7,17,34,57,350
50.16420,0.17552,-0.01032,0.00000,0.03111,0.97673,-0.18873,0.0,2023,6,7,17,34,57,356
50.16430,0.01802,0.12968,0.00000,0.03331,0.97649,-0.18910,0.0,2023,6,7,17,34,57,361
50.16440,-0.03448,0.09468,0.00000,0.03148,0.97795,-0.18520,0.0,2023,6,7,17,34,57,366
50.16450,0.03552,-0.11532,0.00000,0.03123,0.97393,-0.18776,0.0,2023,6,7,17,34,57,372
50.16460,-0.03448,-0.01032,0.00000,0.03221,0.97722,-0.18703,0.0,2023,6,7,17,34,57,377
50.16470,0.03552,0.00718,0.00000,0.03148,0.97454,-0.18825,0.0,2023,6,7,17,34,57,382
50.16480,0.21052,-0.16782,0.00000,0.03111,0.97783,-0.18971,0.0,2023,6,7,17,34,57,388
50.16490,-0.03448,-0.04532,0.00000,0.03282,0.97576,-0.18873,0.0,2023,6,7,17,34,57,393
50.16500,0.10552,0.02468,0.00000,0.03026,0.97868,-0.18983,0.0,2023,6,7,17,34,57,398
50.16510,0.14052,-0.20282,0.00000,0.03026,0.97515,-0.18727,0.0,2023,6,7,17,34,57,404
50.16520,0.19302,0.16468,0.00000,0.03123,0.97722,-0.18849,0.0,2023,6,7,17,34,57,409
50.16530,0.07052,0.00718,0.00000,0.03111,0.97990,-0.18947,0.0,2023,6,7,17,34,57,414
50.16540,-0.12198,-0.23782,0.00000,0.03001,0.97966,-0.18751,0.0,2023,6,7,17,34,57,420
50.16550,-0.05198,0.07718,0.00000,0.03050,0.97563,-0.18861,0.0,2023,6,7,17,34,57,425
50.16560,0.10552,-0.13282,0.00000,0.03013,0.97734,-0.18739,0.0,2023,6,7,17,34,57,430
50.16570,0.14052,0.00718,0.00000,0.02904,0.97698,-0.18983,0.0,2023,6,7,17,34,57,436
50.16580,-0.03448,0.12968,0.00000,0.03196,0.97429,-0.18934,0.0,2023,6,7,17,34,57,441
50.16590,0.03552,0.18218,0.00000,0.03294,0.97563,-0.19044,0.0,2023,6,7,17,34,57,446
50.16600,0.07052,-0.06282,0.00000,0.03001,0.97588,-0.18751,0.0,2023,6,7,17,34,57,452
50.16610,0.17552,0.21718,0.00000,0.03062,0.97637,-0.19069,0.0,2023,6,7,17,34,57,457
50.16620,-0.10448,-0.02782,0.00000,0.02952,0.97637,-0.18800,0.0,2023,6,7,17,34,57,462
50.16630,-0.06948,-0.06282,0.00000,0.03196,0.97917,-0.19081,0.0,2023,6,7,17,34,57,468
50.16640,-0.08698,0.04218,0.00000,0.02928,0.97539,-0.18642,0.0,2023,6,7,17,34,57,473
50.16650,-0.01698,-0.09782,0.00000,0.03245,0.97698,-0.18922,0.0,2023,6,7,17,34,57,478
50.16660,-0.06948,0.04218,0.00000,0.03148,0.97673,-0.18947,0.0,2023,6,7,17,34,57,484
50.16670,0.00052,-0.02782,0.00000,0.02965,0.97795,-0.19142,0.0,2023,6,7,17,34,57,489
50.16680,-0.12198,-0.16782,0.00000,0.03221,0.97710,-0.19142,0.0,2023,6,7,17,34,57,494
50.16690,-0.01698,-0.01032,0.00000,0.03221,0.97478,-0.18727,0.0,2023,6,7,17,34,57,500
50.16700,-0.17448,-0.11532,0.00000,0.03148,0.97551,-0.18910,0.0,2023,6,7,17,34,57,505
50.16710,0.01802,-0.18532,0.00000,0.02989,0.97759,-0.18959,0.0,2023,6,7,17,34,57,511
50.16720,-0.01698,0.07718,0.00000,0.03050,0.97722,-0.18739,0.0,2023,6,7,17,34,57,516
50.16730,-0.03448,-0.01032,0.00000,0.03196,0.97661,-0.18800,0.0,2023,6,7,17,34,57,521
50.16740,-0.13948,0.00718,0.00000,0.03087,0.97478,-0.18727,0.0,2023,6,7,17,34,57,527
50.16750,-0.15698,0.04218,0.00000,0.03026,0.97722,-0.18800,0.0,2023,6,7,17,34,57,532
50.16760,0.17552,0.18218,0.00000,0.03160,0.97649,-0.18873,0.0,2023,6,7,17,34,57,537
50.16770,-0.08698,0.14718,0.00000,0.03270,0.97515,-0.19020,0.0,2023,6,7,17,34,57,543
50.16780,-0.03448,0.00718,0.00000,0.02867,0.97771,-0.18873,0.0,2023,6,7,17,34,57,548
50.16790,0.07052,-0.15032,0.00000,0.03062,0.97576,-0.18898,0.0,2023,6,7,17,34,57,553
50.16800,0.05302,0.14718,0.00000,0.03367,0.97551,-0.18776,0.0,2023,6,7,17,34,57,559
50.16810,0.01802,-0.04532,0.00000,0.03038,0.97673,-0.18739,0.0,2023,6,7,17,34,57,564
50.16820,0.05302,-0.18532,0.00000,0.03294,0.97820,-0.18971,0.0,2023,6,7,17,34,57,569
50.16830,-0.15698,0.09468,0.00000,0.03196,0.97563,-0.18788,0.0,2023,6,7,17,34,57,575
50.16840,-0.01698,0.04218,0.00000,0.03233,0.97698,-0.18800,0.0,2023,6,7,17,34,57,580
50.16850,-0.10448,-0.04532,0.00000,0.03428,0.97710,-0.18849,0.0,2023,6,7,17,34,57,585
50.16860,-0.19198,0.14718,0.00000,0.03123,0.97576,-0.18666,0.0,2023,6,7,17,34,57,591
50.16870,0.19302,-0.04532,0.00000,0.03099,0.97624,-0.18751,0.0,2023,6,7,17,34,57,596
50.16880,0.00052,-0.08032,0.00000,0.02904,0.97332,-0.19020,0.0,2023,6,7,17,34,57,601
50.16890,-0.03448,0.21718,0.00000,0.03270,0.97490,-0.18849,0.0,2023,6,7,17,34,57,607
50.16900,-0.13948,0.14718,0.00000,0.03306,0.97563,-0.18703,0.0,2023,6,7,17,34,57,612
50.16910,0.00052,0.07718,0.00000,0.03160,0.97844,-0.18995,0.0,2023,6,7,17,34,57,617
50.16920,0.08802,-0.01032,0.00000,0.03172,0.97600,-0.18922,0.0,2023,6,7,17,34,57,623
50.16930,0.19302,0.04218,0.00000,0.03196,0.97515,-0.19056,0.0,2023,6,7,17,34,57,628
50.16940,0.14052,-0.18532,0.00000,0.03196,0.97588,-0.18873,0.0,2023,6,7,17,34,57,633
50.16950,0.00052,0.12968,0.00000,0.03318,0.97746,-0.18715,0.0,2023,6,7,17,34,57,639
50.16960,-0.13948,0.00718,0.00000,0.03392,0.97685,-0.18861,0.0,2023,6,7,17,34,57,644
50.16970,-0.03448,0.18218,0.00000,0.03367,0.97576,-0.19044,0.0,2023,6,7,17,34,57,649
50.16980,-0.01698,0.04218,0.00000,0.03209,0.97417,-0.18995,0.0,2023,6,7,17,34,57,655
50.16990,-0.05198,-0.09782,0.00000,0.03111,0.97795,-0.18995,0.0,2023,6,7,17,34,57,660
50.17000,0.03552,0.05968,0.00000,0.03233,0.97673,-0.18934,0.0,2023,6,7,17,34,57,666
50.17010,-0.01698,0.11218,0.00000,0.03245,0.97600,-0.18849,0.0,2023,6,7,17,34,57,671
50.17020,0.00052,0.00718,0.00000,0.03038,0.97685,-0.18995,0.0,2023,6,7,17,34,57,676
50.17030,0.05302,-0.01032,0.00000,0.03026,0.97454,-0.19239,0.0,2023,6,7,17,34,57,682
50.17040,0.14052,0.00718,0.00000,0.02952,0.97551,-0.18983,0.0,2023,6,7,17,34,57,687
50.17050,-0.19198,0.18218,0.00000,0.02843,0.97588,-0.18825,0.0,2023,6,7,17,34,57,692
50.17060,0.12302,-0.01032,0.00000,0.03160,0.97612,-0.18898,0.0,2023,6,7,17,34,58,698
50.17070,0.10552,0.02468,0.00000,0.03318,0.97710,-0.19056,0.0,2023,6,7,17,34,58,703
50.17080,0.01802,-0.04532,0.00000,0.03221,0.97624,-0.18751,0.0,2023,6,7,17,34,58,708
50.17090,0.05302,0.07718,0.00000,0.03062,0.97576,-0.18776,0.0,2023,6,7,17,34,58,714
50.17100,-0.15698,0.00718,0.00000,0.03087,0.97746,-0.18751,0.0,2023,6,7,17,34,58,719
50.17110,-0.08698,-0.06282,0.00000,0.03099,0.97771,-0.18971,0.0,2023,6,7,17,34,58,724
50.17120,-0.05198,-0.22032,0.00000,0.02757,0.98039,-0.18837,0.0,2023,6,7,17,34,58,730
50.17130,0.05302,0.02468,0.00000,0.03270,0.97807,-0.19191,0.0,2023,6,7,17,34,58,735
50.17140,0.17552,-0.09782,0.00000,0.03270,0.97405,-0.19044,0.0,2023,6,7,17,34,58,740
50.17150,-0.15698,-0.01032,0.00000,0.03343,0.97600,-0.18605,0.0,2023,6,7,17,34,58,746
50.17160,-0.03448,0.00718,0.00000,0.02977,0.97539,-0.18861,0.0,2023,6,7,17,34,58,751
50.17170,-0.01698,0.00718,0.00000,0.03233,0.97551,-0.19191,0.0,2023,6,7,17,34,58,756
50.17180,-0.05198,-0.04532,0.00000,0.03148,0.97624,-0.18959,0.0,2023,6,7,17,34,58,762
50.17190,-0.17448,0.02468,0.00000,0.03111,0.97856,-0.18727,0.0,2023,6,7,17,34,58,767
50.17200,0.01802,-0.13282,0.00000,0.03026,0.97539,-0.18861,0.0,2023,6,7,17,34,58,772
50.17210,-0.13948,-0.01032,0.00000,0.03233,0.97454,-0.18947,0.0,2023,6,7,17,34,58,778
50.17220,0.08802,-0.18532,0.00000,0.03245,0.97588,-0.18861,0.0,2023,6,7,17,34,58,783
50.17230,-0.08698,-0.02782,0.00000,0.03148,0.97685,-0.18861,0.0,2023,6,7,17,34,58,788
50.17240,0.03552,0.14718,0.00000,0.03123,0.97673,-0.18886,0.0,2023,6,7,17,34,58,794
50.17250,0.07052,0.12968,0.00000,0.03099,0.97478,-0.18764,0.0,2023,6,7,17,34,58,799
50.17260,-0.06948,0.02468,0.00000,0.02989,0.97698,-0.19032,0.0,2023,6,7,17,34,58,804
50.17270,0.07052,-0.02782,0.00000,0.03099,0.97661,-0.19008,0.0,2023,6,7,17,34,58,810
50.17280,0.10552,0.02468,0.00000,0.03001,0.97710,-0.18776,0.0,2023,6,7,17,34,58,815
50.17290,0.01802,0.04218,0.00000,0.03038,0.97905,-0.19154,0.0,2023,6,7,17,34,58,821
50.17300,-0.06948,0.05968,0.00000,0.03270,0.97722,-0.18715,0.0,2023,6,7,17,34,58,826
50.17310,-0.15698,0.05968,0.00000,0.03196,0.97576,-0.18800,0.0,2023,6,7,17,34,58,831
50.17320,-0.15698,0.25218,0.00000,0.03111,0.97368,-0.18812,0.0,2023,6,7,17,34,58,837
50.17330,-0.01698,0.05968,0.00000,0.03172,0.97698,-0.18849,0.0,2023,6,7,17,34,58,842
50.17340,-0.13948,0.18218,0.00000,0.03135,0.97710,-0.18642,0.0,2023,6,7,17,34,58,847
50.17350,0.07052,-0.11532,0.00000,0.03135,0.97746,-0.18788,0.0,2023,6,7,17,34,58,853
50.17360,0.00052,-0.09782,0.00000,0.03160,0.97698,-0.18947,0.0,2023,6,7,17,34,58,858
50.17370,-0.03448,-0.01032,0.00000,0.02977,0.97612,-0.18861,0.0,2023,6,7,17,34,58,863
50.17380,-0.05198,0.12968,0.00000,0.02916,0.97563,-0.18983,0.0,2023,6,7,17,34,58,869
50.17390,0.08802,-0.11532,0.00000,0.03233,0.97832,-0.18983,0.0,2023,6,7,17,34,58,874
50.17400,-0.15698,0.02468,0.00000,0.03111,0.97954,-0.18922,0.0,2023,6,7,17,34,58,879
50.17410,0.05302,0.28718,0.00000,0.03135,0.97563,-0.18947,0.0,2023,6,7,17,34,58,885
50.17420,-0.12198,-0.18532,0.00000,0.03123,0.97441,-0.18776,0.0,2023,6,7,17,34,58,890
50.17430,0.03552,0.12968,0.00000,0.03062,0.97856,-0.19008,0.0,2023,6,7,17,34,58,895
50.17440,0.26302,0.09468,0.00000,0.03074,0.97612,-0.18910,0.0,2023,6,7,17,34,58,901
50.17450,-0.06948,0.11218,0.00000,0.03135,0.97759,-0.18959,0.0,2023,6,7,17,34,58,906
50.17460,-0.03448,-0.09782,0.00000,0.03416,0.97698,-0.18861,0.0,2023,6,7,17,34,58,911
50.17470,-0.10448,-0.06282,0.00000,0.03294,0.97624,-0.18995,0.0,2023,6,7,17,34,58,917
50.17480,-0.12198,-0.02782,0.00000,0.03087,0.97624,-0.18934,0.0,2023,6,7,17,34,58,922
50.17490,0.03552,0.16468,0.00000,0.02989,0.97673,-0.19203,0.0,2023,6,7,17,34,58,927
50.17500,0.03552,-0.16782,0.00000,0.03123,0.97783,-0.18751,0.0,2023,6,7,17,34,58,933
50.17510,-0.27948,0.12968,0.00000,0.03196,0.97710,-0.18934,0.0,2023,6,7,17,34,58,938
50.17520,0.08802,-0.04532,0.00000,0.02952,0.97490,-0.18825,0.0,2023,6,7,17,34,58,943
50.17530,0.14052,-0.09782,0.00000,0.03099,0.97576,-0.18910,0.0,2023,6,7,17,34,58,949
50.17540,-0.06948,-0.11532,0.00000,0.03001,0.97624,-0.19093,0.0,2023,6,7,17,34,58,954
50.17550,0.07052,-0.11532,0.00000,0.03050,0.97588,-0.18727,0.0,2023,6,7,17,34,58,959
50.17560,-0.06948,0.00718,0.00000,0.03062,0.97734,-0.18922,0.0,2023,6,7,17,34,58,965
50.17570,-0.05198,-0.02782,0.00000,0.02989,0.97637,-0.18715,0.0,2023,6,7,17,34,58,970
50.17580,0.17552,0.00718,0.00000,0.03196,0.97478,-0.18910,0.0,2023,6,7,17,34,58,976
50.17590,0.00052,0.11218,0.00000,0.03099,0.97637,-0.19105,0.0,2023,6,7,17,34,58,981
50.17600,0.03552,-0.02782,0.00000,0.03257,0.97722,-0.18873,0.0,2023,6,7,17,34,58,986
50.17610,-0.05198,-0.18532,0.00000,0.03050,0.97661,-0.18947,0.0,2023,6,7,17,34,58,992
50.17620,-0.01698,-0.11532,0.00000,0.03050,0.97588,-0.19008,0.0,2023,6,7,17,34,58,997
50.17630,0.24552,-0.08032,0.00000,0.03099,0.97771,-0.18971,0.0,2023,6,7,17,34,58,2
50.17640,-0.12198,0.11218,0.00000,0.03160,0.97588,-0.18910,0.0,2023,6,7,17,34,58,8
50.17650,0.08802,-0.01032,0.00000,0.03099,0.97576,-0.18800,0.0,2023,6,7,17,34,58,13
50.17660,0.17552,0.07718,0.00000,0.03099,0.97807,-0.18959,0.0,2023,6,7,17,34,58,18
50.17670,0.05302,-0.04532,0.00000,0.03221,0.97600,-0.19044,0.0,2023,6,7,17,34,58,24
50.17680,-0.13948,0.04218,0.00000,0.03221,0.97746,-0.18800,0.0,2023,6,7,17,34,58,29
50.17690,0.03552,-0.08032,0.00000,0.03343,0.97746,-0.18886,0.0,2023,6,7,17,34,58,34
50.17700,-0.06948,-0.06282,0.00000,0.03221,0.97673,-0.18751,0.0,2023,6,7,17,34,58,40
50.17710,0.03552,-0.15032,0.00000,0.03062,0.97746,-0.18800,0.0,2023,6,7,17,34,58,45
50.17720,-0.05198,0.07718,0.00000,0.03087,0.97783,-0.19008,0.0,2023,6,7,17,34,58,50
50.17730,0.05302,-0.25532,0.00000,0.03196,0.97417,-0.18947,0.0,2023,6,7,17,34,58,56
50.17740,0.05302,-0.06282,0.00000,0.03087,0.97624,-0.18910,0.0,2023,6,7,17,34,58,61
50.17750,0.00052,0.00718,0.00000,0.03306,0.97698,-0.19020,0.0,2023,6,7,17,34,58,66
50.17760,0.19302,0.02468,0.00000,0.03148,0.97990,-0.19325,0.0,2023,6,7,17,34,58,72
50.17770,0.01802,0.14718,0.00000,0.03026,0.97771,-0.18934,0.0,2023,6,7,17,34,58,77
50.17780,0.05302,0.05968,0.00000,0.03087,0.97710,-0.18995,0.0,2023,6,7,17,34,58,82
50.17790,-0.20948,-0.01032,0.00000,0.03270,0.97710,-0.18800,0.0,2023,6,7,17,34,58,88
50.17800,0.03552,-0.02782,0.00000,0.03087,0.97673,-0.19056,0.0,2023,6,7,17,34,58,93
50.17810,-0.13948,0.00718,0.00000,0.03038,0.97637,-0.19081,0.0,2023,6,7,17,34,58,98
50.17820,-0.01698,0.11218,0.00000,0.03172,0.97844,-0.18922,0.0,2023,6,7,17,34,58,104
50.17830,-0.13948,0.00718,0.00000,0.03148,0.97490,-0.19142,0.0,2023,6,7,17,34,58,109
50.17840,-0.12198,0.11218,0.00000,0.03123,0.97539,-0.19105,0.0,2023,6,7,17,34,58,114
50.17850,0.10552,-0.01032,0.00000,0.03013,0.97551,-0.19008,0.0,2023,6,7,17,34,58,120
50.17860,0.00052,0.07718,0.00000,0.03172,0.97637,-0.19154,0.0,2023,6,7,17,34,58,125
50.17870,-0.01698,0.00718,0.00000,0.03111,0.97624,-0.18898,0.0,2023,6,7,17,34,58,131
50.17880,0.10552,-0.08032,0.00000,0.03233,0.97649,-0.19056,0.0,2023,6,7,17,34,58,136
50.17890,0.10552,0.11218,0.00000,0.03184,0.97502,-0.18886,0.0,2023,6,7,17,34,58,141
50.17900,-0.10448,0.00718,0.00000,0.03062,0.97612,-0.18983,0.0,2023,6,7,17,34,58,147
50.17910,-0.17448,0.04218,0.00000,0.03184,0.97710,-0.19032,0.0,2023,6,7,17,34,58,152
50.17920,0.08802,0.16468,0.00000,0.03087,0.97588,-0.18947,0.0,2023,6,7,17,34,58,157
50.17930,0.05302,-0.06282,0.00000,0.03062,0.97588,-0.18873,0.0,2023,6,7,17,34,58,163
50.17940,-0.03448,-0.06282,0.00000,0.03172,0.97539,-0.18947,0.0,2023,6,7,17,34,58,168
50.17950,-0.15698,0.09468,0.00000,0.03026,0.97637,-0.19117,0.0,2023,6,7,17,34,58,173
50.17960,-0.20948,0.09468,0.00000,0.03135,0.97637,-0.18898,0.0,2023,6,7,17,34,59,179
50.17970,-0.15698,0.12968,0.00000,0.03270,0.97588,-0.18983,0.0,2023,6,7,17,34,59,184
50.17980,0.10552,0.04218,0.00000,0.03294,0.97698,-0.19044,0.0,2023,6,7,17,34,59,189
50.17990,-0.10448,-0.01032,0.00000,0.03135,0.97832,-0.18837,0.0,2023,6,7,17,34,59,195
50.18000,0.08802,-0.08032,0.00000,0.03001,0.97502,-0.18995,0.0,2023,6,7,17,34,59,200
50.18010,0.10552,-0.02782,0.00000,0.03306,0.97527,-0.18959,0.0,2023,6,7,17,34,59,205
50.18020,0.00052,-0.25532,0.00000,0.03013,0.97783,-0.18861,0.0,2023,6,7,17,34,59,211
50.18030,0.14052,0.02468,0.00000,0.02891,0.97722,-0.18971,0.0,2023,6,7,17,34,59,216
50.18040,0.05302,-0.23782,0.00000,0.02952,0.97820,-0.18995,0.0,2023,6,7,17,34,59,221
50.18050,-0.05198,-0.13282,0.00000,0.03184,0.97649,-0.19203,0.0,2023,6,7,17,34,59,227
50.18060,-0.06948,-0.06282,0.00000,0.03404,0.97698,-0.18971,0.0,2023,6,7,17,34,59,232
50.18070,0.07052,0.00718,0.00000,0.03123,0.97807,-0.18922,0.0,2023,6,7,17,34,59,237
50.18080,-0.10448,0.04218,0.00000,0.03013,0.97783,-0.19069,0.0,2023,6,7,17,34,59,243
50.18090,-0.01698,0.25218,0.00000,0.03172,0.97612,-0.18873,0.0,2023,6,7,17,34,59,248
50.18100,0.03552,0.11218,0.00000,0.03099,0.97624,-0.19008,0.0,2023,6,7,17,34,59,253
50.18110,0.28052,-0.08032,0.00000,0.03135,0.97502,-0.18971,0.0,2023,6,7,17,34,59,259
50.18120,0.08802,-0.01032,0.00000,0.03026,0.97795,-0.18849,0.0,2023,6,7,17,34,59,264
50.18130,0.03552,-0.09782,0.00000,0.03026,0.97759,-0.19020,0.0,2023,6,7,17,34,59,269
50.18140,0.08802,-0.01032,0.00000,0.03038,0.97478,-0.18861,0.0,2023,6,7,17,34,59,275
50.18150,-0.20948,0.04218,0.00000,0.03257,0.97637,-0.18995,0.0,2023,6,7,17,34,59,280
50.18160,-0.26198,0.02468,0.00000,0.03416,0.97795,-0.18934,0.0,2023,6,7,17,34,59,286
50.18170,0.01802,-0.08032,0.00000,0.03123,0.98186,-0.18873,0.0,2023,6,7,17,34,59,291
50.18180,0.00052,-0.16782,0.00000,0.03270,0.97490,-0.18910,0.0,2023,6,7,17,34,59,296
50.18190,-0.06948,-0.11532,0.00000,0.02977,0.97515,-0.18959,0.0,2023,6,7,17,34,59,302
50.18200,-0.06948,0.07718,0.00000,0.03123,0.97685,-0.19044,0.0,2023,6,7,17,34,59,307
50.18210,-0.06948,-0.02782,0.00000,0.03245,0.97673,-0.18678,0.0,2023,6,7,17,34,59,312
50.18220,0.05302,0.02468,0.00000,0.03013,0.97795,-0.19093,0.0,2023,6,7,17,34,59,318
50.18230,0.05302,-0.04532,0.00000,0.03257,0.97722,-0.18800,0.0,2023,6,7,17,34,59,323
50.18240,0.19302,-0.34282,0.00000,0.03062,0.97771,-0.18922,0.0,2023,6,7,17,34,59,328
50.18250,-0.13948,0.00718,0.00000,0.03184,0.97490,-0.18959,0.0,2023,6,7,17,34,59,334
50.18260,0.01802,0.00718,0.00000,0.03209,0.97807,-0.18959,0.0,2023,6,7,17,34,59,339
50.18270,0.01802,0.05968,0.00000,0.03196,0.97466,-0.19117,0.0,2023,6,7,17,34,59,344
50.18280,-0.10448,0.09468,0.00000,0.03257,0.97551,-0.18837,0.0,2023,6,7,17,34,59,350
50.18290,-0.06948,-0.04532,0.00000,0.03294,0.97734,-0.18678,0.0,2023,6,7,17,34,59,355
50.18300,0.01802,-0.08032,0.00000,0.03087,0.97637,-0.18886,0.0,2023,6,7,17,34,59,360
50.18310,0.05302,-0.04532,0.00000,0.03111,0.97783,-0.18934,0.0,2023,6,7,17,34,59,366
50.18320,-0.03448,-0.16782,0.00000,0.03123,0.97673,-0.18886,0.0,2023,6,7,17,34,59,371
50.18330,-0.12198,-0.16782,0.00000,0.03087,0.97551,-0.18727,0.0,2023,6,7,17,34,59,376
50.18340,0.24552,-0.15032,0.00000,0.03318,0.97661,-0.18764,0.0,2023,6,7,17,34,59,382
50.18350,0.24552,0.12968,0.00000,0.03270,0.97539,-0.18995,0.0,2023,6,7,17,34,59,387
50.18360,-0.03448,-0.09782,0.00000,0.03123,0.97649,-0.18715,0.0,2023,6,7,17,34,59,392
50.18370,0.03552,-0.08032,0.00000,0.02879,0.97600,-0.18678,0.0,2023,6,7,17,34,59,398
50.18380,-0.10448,-0.04532,0.00000,0.03050,0.97454,-0.18849,0.0,2023,6,7,17,34,59,403
50.18390,0.14052,-0.02782,0.00000,0.03148,0.97710,-0.18739,0.0,2023,6,7,17,34,59,408
50.18400,-0.20948,0.07718,0.00000,0.03111,0.97576,-0.18776,0.0,2023,6,7,17,34,59,414
50.18410,-0.01698,0.05968,0.00000,0.03001,0.97624,-0.18947,0.0,2023,6,7,17,34,59,419
50.18420,0.12302,0.21718,0.00000,0.03074,0.97710,-0.18886,0.0,2023,6,7,17,34,59,424
50.18430,-0.17448,0.02468,0.00000,0.03135,0.97722,-0.18873,0.0,2023,6,7,17,34,59,430
50.18440,0.00052,0.00718,0.00000,0.03062,0.97746,-0.18886,0.0,2023,6,7,17,34,59,435
50.18450,0.15802,0.07718,0.00000,0.03111,0.97844,-0.18739,0.0,2023,6,7,17,34,59,441
50.18460,0.08802,0.21718,0.00000,0.03172,0.97600,-0.18910,0.0,2023,6,7,17,34,59,446
50.18470,-0.13948,0.14718,0.00000,0.03245,0.97612,-0.18886,0.0,2023,6,7,17,34,59,451
50.18480,0.10552,-0.06282,0.00000,0.03038,0.97624,-0.18715,0.0,2023,6,7,17,34,59,457
50.18490,-0.03448,-0.25532,0.00000,0.03172,0.97698,-0.18788,0.0,2023,6,7,17,34,59,462
50.18500,-0.12198,-0.02782,0.00000,0.03038,0.97698,-0.18995,0.0,2023,6,7,17,34,59,467
50.18510,0.03552,-0.09782,0.00000,0.03209,0.97844,-0.18886,0.0,2023,6,7,17,34,59,473
50.18520,0.14052,-0.04532,0.00000,0.03123,0.97612,-0.18788,0.0,2023,6,7,17,34,59,478
50.18530,0.10552,0.04218,0.00000,0.03074,0.97539,-0.18776,0.0,2023,6,7,17,34,59,483
50.18540,0.01802,-0.02782,0.00000,0.03160,0.97661,-0.18898,0.0,2023,6,7,17,34,59,489
50.18550,0.24552,-0.08032,0.00000,0.02989,0.97710,-0.18788,0.0,2023,6,7,17,34,59,494
50.18560,0.01802,0.04218,0.00000,0.03172,0.97820,-0.18861,0.0,2023,6,7,17,34,59,499
50.18570,0.01802,-0.18532,0.00000,0.03123,0.97515,-0.18947,0.0,2023,6,7,17,34,59,505
50.18580,0.05302,0.02468,0.00000,0.03074,0.97417,-0.19154,0.0,2023,6,7,17,34,59,510
50.18590,-0.26198,0.00718,0.00000,0.03331,0.97807,-0.19056,0.0,2023,6,7,17,34,59,515
50.18600,-0.01698,0.11218,0.00000,0.03160,0.97734,-0.18898,0.0,2023,6,7,17,34,59,521
50.18610,0.03552,0.05968,0.00000,0.03196,0.97637,-0.18959,0.0,2023,6,7,17,34,59,526
50.18620,0.28052,0.14718,0.00000,0.03172,0.97600,-0.18556,0.0,2023,6,7,17,34,59,531
50.18630,-0.05198,-0.29032,0.00000,0.03209,0.97807,-0.18849,0.0,2023,6,7,17,34,59,537
50.18640,0.00052,0.00718,0.00000,0.03135,0.97783,-0.18922,0.0,2023,6,7,17,34,59,542
50.18650,-0.08698,-0.01032,0.00000,0.03050,0.97563,-0.18934,0.0,2023,6,7,17,34,59,547
50.18660,-0.27948,0.02468,0.00000,0.03099,0.97563,-0.18922,0.0,2023,6,7,17,34,59,553
50.18670,0.24552,-0.25532,0.00000,0.03111,0.97588,-0.18715,0.0,2023,6,7,17,34,59,558
50.18680,-0.06948,0.00718,0.00000,0.03099,0.97661,-0.18812,0.0,2023,6,7,17,34,59,563
50.18690,0.08802,0.07718,0.00000,0.03148,0.97783,-0.18800,0.0,2023,6,7,17,34,59,569
50.18700,0.01802,-0.25532,0.00000,0.03123,0.97588,-0.18983,0.0,2023,6,7,17,34,59,574
50.18710,-0.10448,-0.01032,0.00000,0.03160,0.97588,-0.18861,0.0,2023,6,7,17,34,59,579
50.18720,0.08802,-0.15032,0.00000,0.02843,0.97746,-0.19178,0.0,2023,6,7,17,34,59,585
50.18730,0.15802,0.07718,0.00000,0.03184,0.97490,-0.18751,0.0,2023,6,7,17,34,59,590
50.18740,0.03552,0.09468,0.00000,0.03184,0.97405,-0.18983,0.0,2023,6,7,17,34,59,596
50.18750,-0.03448,0.09468,0.00000,0.03148,0.97576,-0.18947,0.0,2023,6,7,17,34,59,601
50.18760,0.08802,-0.02782,0.00000,0.03245,0.97624,-0.18849,0.0,2023,6,7,17,34,59,606
50.18770,0.14052,0.00718,0.00000,0.02989,0.97722,-0.18690,0.0,2023,6,7,17,34,59,612
50.18780,0.21052,0.04218,0.00000,0.03074,0.97466,-0.19020,0.0,2023,6,7,17,34,59,617
50.18790,-0.08698,0.12968,0.00000,0.02928,0.97637,-0.18727,0.0,2023,6,7,17,34,59,622
50.18800,0.00052,0.04218,0.00000,0.03074,0.97734,-0.19117,0.0,2023,6,7,17,34,59,628
50.18810,0.15802,-0.34282,0.00000,0.03172,0.97441,-0.19093,0.0,2023,6,7,17,34,59,633
50.18820,0.12302,-0.06282,0.00000,0.03184,0.97759,-0.19032,0.0,2023,6,7,17,34,59,638
50.18830,0.00052,0.04218,0.00000,0.03050,0.97795,-0.18703,0.0,2023,6,7,17,34,59,644
50.18840,0.00052,0.09468,0.00000,0.03331,0.97771,-0.19069,0.0,2023,6,7,17,34,59,649
50.18850,-0.12198,0.09468,0.00000,0.03245,0.97563,-0.19117,0.0,2023,6,7,17,34,59,654
50.18860,0.05302,-0.06282,0.00000,0.03026,0.97844,-0.18788,0.0,2023,6,7,17,35,0,660
50.18870,-0.05198,0.18218,0.00000,0.03160,0.97539,-0.18983,0.0,2023,6,7,17,35,0,665
50.18880,-0.03448,-0.02782,0.00000,0.03318,0.97807,-0.18873,0.0,2023,6,7,17,35,0,670
50.18890,0.07052,-0.11532,0.00000,0.03160,0.97515,-0.18751,0.0,2023,6,7,17,35,0,676
50.18900,-0.22698,0.12968,0.00000,0.02916,0.97685,-0.18776,0.0,2023,6,7,17,35,0,681
50.18910,0.19302,0.16468,0.00000,0.03087,0.97624,-0.18898,0.0,2023,6,7,17,35,0,686
50.18920,-0.13948,-0.06282,0.00000,0.03026,0.97539,-0.18971,0.0,2023,6,7,17,35,0,692
50.18930,0.10552,0.07718,0.00000,0.03196,0.97759,-0.19020,0.0,2023,6,7,17,35,0,697
50.18940,0.03552,-0.11532,0.00000,0.03209,0.97490,-0.18898,0.0,2023,6,7,17,35,0,702
50.18950,-0.01698,-0.01032,0.00000,0.03013,0.97612,-0.18898,0.0,2023,6,7,17,35,0,708
50.18960,-0.01698,0.16468,0.00000,0.03172,0.97576,-0.18776,0.0,2023,6,7,17,35,0,713
50.18970,-0.10448,0.04218,0.00000,0.03111,0.97576,-0.18825,0.0,2023,6,7,17,35,0,718
50.18980,-0.12198,0.04218,0.00000,0.03245,0.97685,-0.18873,0.0,2023,6,7,17,35,0,724
50.18990,0.00052,-0.11532,0.00000,0.03270,0.97771,-0.18776,0.0,2023,6,7,17,35,0,729
50.19000,-0.03448,-0.09782,0.00000,0.03111,0.97637,-0.18703,0.0,2023,6,7,17,35,0,734
50.19010,0.14052,0.11218,0.00000,0.03282,0.97844,-0.18861,0.0,2023,6,7,17,35,0,740
50.19020,-0.03448,-0.18532,0.00000,0.03172,0.97551,-0.18947,0.0,2023,6,7,17,35,0,745
50.19030,0.00052,-0.01032,0.00000,0.03123,0.97576,-0.18861,0.0,2023,6,7,17,35,0,751
50.19040,-0.01698,-0.08032,0.00000,0.03172,0.97624,-0.18751,0.0,2023,6,7,17,35,0,756
50.19050,0.08802,-0.15032,0.00000,0.03123,0.97649,-0.18800,0.0,2023,6,7,17,35,0,761
50.19060,-0.08698,0.16468,0.00000,0.03196,0.97466,-0.18800,0.0,2023,6,7,17,35,0,767
50.19070,-0.08698,0.35718,0.00000,0.03013,0.97600,-0.19142,0.0,2023,6,7,17,35,0,772
50.19080,0.10552,0.05968,0.00000,0.03038,0.97588,-0.18812,0.0,2023,6,7,17,35,0,777
50.19090,0.05302,0.16468,0.00000,0.03209,0.97539,-0.19069,0.0,2023,6,7,17,35,0,783
50.19100,0.05302,-0.04532,0.00000,0.03087,0.97661,-0.18983,0.0,2023,6,7,17,35,0,788
50.19110,0.07052,0.19968,0.00000,0.03270,0.97612,-0.19020,0.0,2023,6,7,17,35,0,793
50.19120,-0.05198,-0.04532,0.00000,0.03160,0.97673,-0.18727,0.0,2023,6,7,17,35,0,799
50.19130,-0.12198,-0.06282,0.00000,0.03062,0.97612,-0.19069,0.0,2023,6,7,17,35,0,804
50.19140,0.12302,-0.11532,0.00000,0.03148,0.97563,-0.18654,0.0,2023,6,7,17,35,0,809
50.19150,0.10552,0.19968,0.00000,0.03038,0.97576,-0.19008,0.0,2023,6,7,17,35,0,815
50.19160,-0.19198,-0.09782,0.00000,0.02940,0.97710,-0.18959,0.0,2023,6,7,17,35,0,820
50.19170,-0.06948,0.18218,0.00000,0.03172,0.97588,-0.18898,0.0,2023,6,7,17,35,0,825
50.19180,-0.13948,0.16468,0.00000,0.03013,0.97405,-0.19142,0.0,2023,6,7,17,35,0,831
50.19190,-0.12198,0.02468,0.00000,0.03245,0.97515,-0.18934,0.0,2023,6,7,17,35,0,836
50.19200,-0.06948,-0.20282,0.00000,0.03294,0.97673,-0.18837,0.0,2023,6,7,17,35,0,841
50.19210,-0.05198,0.07718,0.00000,0.03135,0.97795,-0.18825,0.0,2023,6,7,17,35,0,847
50.19220,0.01802,-0.08032,0.00000,0.03184,0.97612,-0.18910,0.0,2023,6,7,17,35,0,852
50.19230,-0.08698,0.04218,0.00000,0.03148,0.97612,-0.18678,0.0,2023,6,7,17,35,0,857
50.19240,-0.05198,0.04218,0.00000,0.03050,0.97551,-0.18629,0.0,2023,6,7,17,35,0,863
50.19250,-0.15698,0.04218,0.00000,0.03196,0.97929,-0.18837,0.0,2023,6,7,17,35,0,868
50.19260,-0.01698,0.02468,0.00000,0.03013,0.97551,-0.18959,0.0,2023,6,7,17,35,0,873
50.19270,-0.03448,-0.09782,0.00000,0.03013,0.97710,-0.18959,0.0,2023,6,7,17,35,0,879
50.19280,0.07052,0.04218,0.00000,0.03074,0.97807,-0.18934,0.0,2023,6,7,17,35,0,884
50.19290,-0.05198,0.04218,0.00000,0.03013,0.97478,-0.18898,0.0,2023,6,7,17,35,0,889
50.19300,-0.03448,-0.11532,0.00000,0.03013,0.97576,-0.18825,0.0,2023,6,7,17,35,0,895
50.19310,0.00052,-0.02782,0.00000,0.03111,0.97698,-0.18788,0.0,2023,6,7,17,35,0,900
50.19320,-0.01698,0.07718,0.00000,0.02952,0.97637,-0.19203,0.0,2023,6,7,17,35,0,906
50.19330,0.17552,0.02468,0.00000,0.03172,0.97746,-0.19117,0.0,2023,6,7,17,35,0,911
50.19340,0.00052,-0.02782,0.00000,0.03196,0.97746,-0.18812,0.0,2023,6,7,17,35,0,916
50.19350,-0.19198,-0.06282,0.00000,0.03318,0.97759,-0.18812,0.0,2023,6,7,17,35,0,922
50.19360,-0.10448,0.12968,0.00000,0.03013,0.97649,-0.18812,0.0,2023,6,7,17,35,0,927
50.19370,-0.01698,0.04218,0.00000,0.02830,0.97661,-0.19069,0.0,2023,6,7,17,35,0,932
50.19380,-0.10448,0.25218,0.00000,0.03062,0.97722,-0.18776,0.0,2023,6,7,17,35,0,938
50.19390,0.07052,0.14718,0.00000,0.03160,0.97563,-0.18898,0.0,2023,6,7,17,35,0,943
50.19400,-0.01698,-0.09782,0.00000,0.03233,0.97624,-0.18825,0.0,2023,6,7,17,35,0,948
50.19410,-0.01698,0.28718,0.00000,0.03404,0.97649,-0.18764,0.0,2023,6,7,17,35,0,954
50.19420,0.01802,-0.11532,0.00000,0.03294,0.97490,-0.19252,0.0,2023,6,7,17,35,0,959
50.19430,-0.01698,-0.08032,0.00000,0.03270,0.97527,-0.18995,0.0,2023,6,7,17,35,0,964
50.19440,0.01802,-0.02782,0.00000,0.03123,0.97673,-0.18812,0.0,2023,6,7,17,35,0,970
50.19450,-0.05198,0.12968,0.00000,0.03074,0.97710,-0.18776,0.0,2023,6,7,17,35,0,975
50.19460,-0.08698,0.16468,0.00000,0.03172,0.97563,-0.19032,0.0,2023,6,7,17,35,0,980
50.19470,-0.15698,0.02468,0.00000,0.03050,0.97551,-0.18849,0.0,2023,6,7,17,35,0,986
50.19480,0.07052,-0.18532,0.00000,0.03123,0.97746,-0.18788,0.0,2023,6,7,17,35,0,991
50.19490,-0.05198,0.14718,0.00000,0.03111,0.97844,-0.18715,0.0,2023,6,7,17,35,0,996
50.19500,0.10552,0.02468,0.00000,0.03184,0.97844,-0.18764,0.0,2023,6,7,17,35,0,2
50.19510,0.14052,-0.01032,0.00000,0.03087,0.97734,-0.18715,0.0,2023,6,7,17,35,0,7
50.19520,0.07052,-0.09782,0.00000,0.03245,0.97405,-0.18764,0.0,2023,6,7,17,35,0,12
50.19530,0.10552,-0.01032,0.00000,0.02965,0.97454,-0.18910,0.0,2023,6,7,17,35,0,18
50.19540,0.05302,0.09468,0.00000,0.03196,0.97685,-0.18825,0.0,2023,6,7,17,35,0,23
50.19550,-0.03448,-0.18532,0.00000,0.02965,0.97624,-0.18861,0.0,2023,6,7,17,35,0,28
50.19560,-0.01698,-0.06282,0.00000,0.03160,0.97685,-0.19008,0.0,2023,6,7,17,35,0,34
50.19570,0.00052,0.19968,0.00000,0.03172,0.97454,-0.18678,0.0,2023,6,7,17,35,0,39
50.19580,0.08802,0.05968,0.00000,0.03160,0.97612,-0.18873,0.0,2023,6,7,17,35,0,44
50.19590,-0.12198,0.18218,0.00000,0.03160,0.97466,-0.18959,0.0,2023,6,7,17,35,0,50
50.19600,-0.10448,0.16468,0.00000,0.03172,0.97795,-0.18812,0.0,2023,6,7,17,35,0,55
50.19610,-0.01698,-0.01032,0.00000,0.02891,0.97563,-0.19020,0.0,2023,6,7,17,35,0,61
50.19620,-0.08698,-0.08032,0.00000,0.03318,0.97746,-0.18629,0.0,2023,6,7,17,35,0,66
50.19630,0.10552,0.04218,0.00000,0.03270,0.97722,-0.19008,0.0,2023,6,7,17,35,0,71
50.19640,-0.03448,0.05968,0.00000,0.03331,0.97624,-0.18861,0.0,2023,6,7,17,35,0,77
50.19650,0.00052,0.18218,0.00000,0.03135,0.97502,-0.18910,0.0,2023,6,7,17,35,0,82
50.19660,-0.03448,-0.01032,0.00000,0.03111,0.97429,-0.18812,0.0,2023,6,7,17,35,0,87
50.19670,-0.01698,0.16468,0.00000,0.03233,0.97576,-0.18654,0.0,2023,6,7,17,35,0,93
50.19680,0.15802,-0.08032,0.00000,0.03343,0.97795,-0.18605,0.0,2023,6,7,17,35,0,98
50.19690,-0.13948,-0.13282,0.00000,0.03111,0.97759,-0.18788,0.0,2023,6,7,17,35,0,103
50.19700,0.03552,-0.11532,0.00000,0.03465,0.97783,-0.18825,0.0,2023,6,7,17,35,0,109
50.19710,-0.17448,0.21718,0.00000,0.03148,0.97637,-0.18825,0.0,2023,6,7,17,35,0,114
50.19720,0.03552,-0.02782,0.00000,0.03221,0.97661,-0.19105,0.0,2023,6,7,17,35,0,119
50.19730,-0.08698,0.23468,0.00000,0.03038,0.97771,-0.18947,0.0,2023,6,7,17,35,0,125
50.19740,-0.08698,0.05968,0.00000,0.03135,0.97515,-0.18995,0.0,2023,6,7,17,35,0,130
50.19750,0.05302,-0.15032,0.00000,0.03123,0.97661,-0.18544,0.0,2023,6,7,17,35,1,135
50.19760,-0.12198,-0.15032,0.00000,0.03184,0.97490,-0.18837,0.0,2023,6,7,17,35,1,141
50.19770,0.07052,-0.11532,0.00000,0.03074,0.97832,-0.18934,0.0,2023,6,7,17,35,1,146
50.19780,0.07052,-0.04532,0.00000,0.02916,0.97710,-0.18971,0.0,2023,6,7,17,35,1,151
50.19790,0.08802,-0.06282,0.00000,0.03050,0.97417,-0.18690,0.0,2023,6,7,17,35,1,157
50.19800,0.00052,0.07718,0.00000,0.03257,0.97527,-0.18788,0.0,2023,6,7,17,35,1,162
50.19810,-0.01698,-0.02782,0.00000,0.02891,0.97551,-0.18764,0.0,2023,6,7,17,35,1,167
50.19820,-0.05198,0.00718,0.00000,0.03209,0.97515,-0.18922,0.0,2023,6,7,17,35,1,173
50.19830,0.22802,-0.29032,0.00000,0.03172,0.97710,-0.18654,0.0,2023,6,7,17,35,1,178
50.19840,-0.03448,-0.13282,0.00000,0.02977,0.97759,-0.18642,0.0,2023,6,7,17,35,1,183
50.19850,-0.03448,-0.06282,0.00000,0.03099,0.97685,-0.18886,0.0,2023,6,7,17,35,1,189
50.19860,0.15802,-0.13282,0.00000,0.03160,0.97649,-0.19008,0.0,2023,6,7,17,35,1,194
50.19870,-0.33198,0.14718,0.00000,0.03233,0.97393,-0.18751,0.0,2023,6,7,17,35,1,199
50.19880,-0.03448,0.04218,0.00000,0.02977,0.97649,-0.18898,0.0,2023,6,7,17,35,1,205
50.19890,-0.24448,0.21718,0.00000,0.02965,0.97466,-0.18873,0.0,2023,6,7,17,35,1,210
50.19900,-0.15698,-0.16782,0.00000,0.03135,0.97673,-0.18739,0.0,2023,6,7,17,35,1,216
50.19910,0.17552,-0.16782,0.00000,0.02989,0.97515,-0.18995,0.0,2023,6,7,17,35,1,221
50.19920,-0.05198,0.09468,0.00000,0.03392,0.97759,-0.18934,0.0,2023,6,7,17,35,1,226
50.19930,-0.05198,-0.02782,0.00000,0.03160,0.97417,-0.18861,0.0,2023,6,7,17,35,1,232
50.19940,0.24552,0.04218,0.00000,0.03306,0.97746,-0.18947,0.0,2023,6,7,17,35,1,237
50.19950,-0.08698,0.11218,0.00000,0.03099,0.97612,-0.18812,0.0,2023,6,7,17,35,1,242
50.19960,-0.06948,0.09468,0.00000,0.03123,0.97637,-0.19008,0.0,2023,6,7,17,35,1,248
50.19970,0.05302,0.18218,0.00000,0.03026,0.97588,-0.18922,0.0,2023,6,7,17,35,1,253
50.19980,-0.10448,0.00718,0.00000,0.03135,0.97527,-0.18703,0.0,2023,6,7,17,35,1,258
50.19990,0.12302,-0.04532,0.00000,0.03245,0.97478,-0.18971,0.0,2023,6,7,17,35,1,264
50.20000,-0.08698,0.02468,0.00000,0.02940,0.97722,-0.18983,0.0,2023,6,7,17,35,1,269
50.20010,-0.10448,-0.08032,0.00000,0.03074,0.97600,-0.18751,0.0,2023,6,7,17,35,1,274
50.20020,0.12302,0.14718,0.00000,0.03221,0.97600,-0.18812,0.0,2023,6,7,17,35,1,280
50.20030,-0.01698,-0.09782,0.00000,0.03148,0.97624,-0.18666,0.0,2023,6,7,17,35,1,285
50.20040,0.00052,-0.13282,0.00000,0.03111,0.97710,-0.18873,0.0,2023,6,7,17,35,1,290
50.20050,0.00052,0.02468,0.00000,0.03062,0.97954,-0.18922,0.0,2023,6,7,17,35,1,296
50.20060,-0.10448,0.05968,0.00000,0.03196,0.97612,-0.18837,0.0,2023,6,7,17,35,1,301
50.20070,-0.12198,0.00718,0.00000,0.03172,0.97539,-0.18886,0.0,2023,6,7,17,35,1,306
50.20080,0.01802,-0.06282,0.00000,0.03123,0.97673,-0.19044,0.0,2023,6,7,17,35,1,312
50.20090,0.05302,-0.04532,0.00000,0.03184,0.97649,-0.19117,0.0,2023,6,7,17,35,1,317
50.20100,-0.13948,0.19968,0.00000,0.03257,0.97551,-0.18727,0.0,2023,6,7,17,35,1,322
50.20110,-0.15698,0.04218,0.00000,0.03160,0.97563,-0.18764,0.0,2023,6,7,17,35,1,328
50.20120,0.01802,-0.09782,0.00000,0.03184,0.97515,-0.18812,0.0,2023,6,7,17,35,1,333
50.20130,-0.01698,0.12968,0.00000,0.02928,0.97685,-0.19081,0.0,2023,6,7,17,35,1,338
50.20140,0.19302,-0.01032,0.00000,0.03148,0.97551,-0.18849,0.0,2023,6,7,17,35,1,344
50.20150,-0.17448,-0.01032,0.00000,0.02879,0.97624,-0.18800,0.0,2023,6,7,17,35,1,349
50.20160,-0.12198,0.04218,0.00000,0.03282,0.97612,-0.18739,0.0,2023,6,7,17,35,1,354
50.20170,0.05302,0.07718,0.00000,0.03038,0.97673,-0.19008,0.0,2023,6,7,17,35,1,360
50.20180,-0.12198,0.04218,0.00000,0.03123,0.97612,-0.18837,0.0,2023,6,7,17,35,1,365
50.20190,0.17552,-0.09782,0.00000,0.03160,0.97771,-0.18788,0.0,2023,6,7,17,35,1,371
50.20200,-0.05198,0.09468,0.00000,0.03001,0.97893,-0.18617,0.0,2023,6,7,17,35,1,376
50.20210,-0.05198,-0.04532,0.00000,0.03062,0.97441,-0.18690,0.0,2023,6,7,17,35,1,381
50.20220,0.14052,-0.15032,0.00000,0.03087,0.97698,-0.19117,0.0,2023,6,7,17,35,1,387
50.20230,0.01802,-0.11532,0.00000,0.03331,0.97380,-0.18910,0.0,2023,6,7,17,35,1,392
50.20240,-0.27948,-0.13282,0.00000,0.03233,0.97820,-0.18776,0.0,2023,6,7,17,35,1,397
50.20250,-0.05198,-0.15032,0.00000,0.03135,0.97698,-0.18751,0.0,2023,6,7,17,35,1,403
50.20260,0.15802,-0.09782,0.00000,0.02916,0.97502,-0.19093,0.0,2023,6,7,17,35,1,408
50.20270,-0.01698,-0.04532,0.00000,0.03050,0.97734,-0.18861,0.0,2023,6,7,17,35,1,413
50.20280,-0.10448,0.14718,0.00000,0.03160,0.97612,-0.18593,0.0,2023,6,7,17,35,1,419
50.20290,-0.10448,-0.09782,0.00000,0.03087,0.97759,-0.18873,0.0,2023,6,7,17,35,1,424
50.20300,-0.03448,0.09468,0.00000,0.03184,0.97661,-0.18690,0.0,2023,6,7,17,35,1,429
50.20310,0.03552,0.09468,0.00000,0.03001,0.97856,-0.19044,0.0,2023,6,7,17,35,1,435
50.20320,-0.06948,0.11218,0.00000,0.02904,0.97588,-0.18812,0.0,2023,6,7,17,35,1,440
50.20330,0.07052,0.18218,0.00000,0.03099,0.97698,-0.18800,0.0,2023,6,7,17,35,1,445
50.20340,-0.22698,0.16468,0.00000,0.03172,0.97698,-0.18593,0.0,2023,6,7,17,35,1,451
50.20350,0.19302,-0.16782,0.00000,0.03038,0.97441,-0.18764,0.0,2023,6,7,17,35,1,456
50.20360,0.12302,0.05968,0.00000,0.02891,0.97637,-0.18715,0.0,2023,6,7,17,35,1,461
50.20370,-0.03448,0.23468,0.00000,0.03038,0.97600,-0.18873,0.0,2023,6,7,17,35,1,467
50.20380,0.05302,-0.09782,0.00000,0.03331,0.97368,-0.18886,0.0,2023,6,7,17,35,1,472
50.20390,-0.13948,0.32218,0.00000,0.03099,0.97893,-0.19081,0.0,2023,6,7,17,35,1,477
50.20400,-0.22698,0.11218,0.00000,0.02989,0.97563,-0.18581,0.0,2023,6,7,17,35,1,483
50.20410,-0.05198,0.14718,0.00000,0.03343,0.97478,-0.19008,0.0,2023,6,7,17,35,1,488
50.20420,-0.24448,0.09468,0.00000,0.03111,0.97576,-0.18788,0.0,2023,6,7,17,35,1,493
50.20430,-0.12198,0.05968,0.00000,0.02818,0.97600,-0.18788,0.0,2023,6,7,17,35,1,499
50.20440,0.14052,0.00718,0.00000,0.03221,0.97734,-0.18544,0.0,2023,6,7,17,35,1,504
50.20450,-0.06948,0.05968,0.00000,0.03196,0.97563,-0.18995,0.0,2023,6,7,17,35,1,509
50.20460,-0.03448,0.04218,0.00000,0.03111,0.97600,-0.18849,0.0,2023,6,7,17,35,1,515
50.20470,0.03552,0.05968,0.00000,0.02916,0.97551,-0.18812,0.0,2023,6,7,17,35,1,520
50.20480,-0.08698,-0.01032,0.00000,0.03074,0.97490,-0.18886,0.0,2023,6,7,17,35,1,526
50.20490,0.05302,-0.02782,0.00000,0.03038,0.97563,-0.18776,0.0,2023,6,7,17,35,1,531
50.20500,-0.06948,0.04218,0.00000,0.03050,0.97600,-0.18727,0.0,2023,6,7,17,35,1,536
50.20510,-0.05198,-0.23782,0.00000,0.02904,0.97612,-0.18568,0.0,2023,6,7,17,35,1,542
50.20520,0.03552,-0.01032,0.00000,0.03160,0.97551,-0.18764,0.0,2023,6,7,17,35,1,547
50.20530,-0.13948,0.23468,0.00000,0.03074,0.97734,-0.18727,0.0,2023,6,7,17,35,1,552
50.20540,0.14052,0.07718,0.00000,0.03050,0.97637,-0.18934,0.0,2023,6,7,17,35,1,558
50.20550,0.08802,0.05968,0.00000,0.03111,0.97551,-0.19020,0.0,2023,6,7,17,35,1,563
50.20560,0.03552,-0.18532,0.00000,0.03099,0.97600,-0.18532,0.0,2023,6,7,17,35,1,568
50.20570,0.22802,-0.18532,0.00000,0.03001,0.97502,-0.18886,0.0,2023,6,7,17,35,1,574
50.20580,0.15802,-0.09782,0.00000,0.03233,0.97734,-0.18922,0.0,2023,6,7,17,35,1,579
50.20590,-0.12198,0.07718,0.00000,0.03160,0.97515,-0.18849,0.0,2023,6,7,17,35,1,584
50.20600,-0.13948,-0.01032,0.00000,0.02916,0.97954,-0.18776,0.0,2023,6,7,17,35,1,590
50.20610,-0.05198,-0.06282,0.00000,0.03257,0.97746,-0.19044,0.0,2023,6,7,17,35,1,595
50.20620,-0.20948,0.07718,0.00000,0.03172,0.97588,-0.18983,0.0,2023,6,7,17,35,1,600
50.20630,0.05302,0.04218,0.00000,0.03050,0.97771,-0.18922,0.0,2023,6,7,17,35,1,606
50.20640,-0.15698,0.02468,0.00000,0.03404,0.97844,-0.18898,0.0,2023,6,7,17,35,1,611
50.20650,0.01802,-0.02782,0.00000,0.03111,0.97454,-0.18922,0.0,2023,6,7,17,35,1,616
50.20660,-0.05198,-0.04532,0.00000,0.03245,0.97393,-0.19081,0.0,2023,6,7,17,35,1,622
50.20670,0.07052,-0.16782,0.00000,0.03184,0.97624,-0.18764,0.0,2023,6,7,17,35,2,627
50.20680,0.14052,0.07718,0.00000,0.02977,0.97698,-0.18654,0.0,2023,6,7,17,35,2,632
50.20690,0.10552,-0.18532,0.00000,0.03001,0.97807,-0.19105,0.0,2023,6,7,17,35,2,638
50.20700,0.03552,0.07718,0.00000,0.03148,0.97527,-0.18959,0.0,2023,6,7,17,35,2,643
50.20710,-0.17448,0.30468,0.00000,0.03111,0.97710,-0.18983,0.0,2023,6,7,17,35,2,648
50.20720,0.03552,-0.20282,0.00000,0.03209,0.97637,-0.18788,0.0,2023,6,7,17,35,2,654
50.20730,-0.03448,0.00718,0.00000,0.03270,0.97661,-0.18727,0.0,2023,6,7,17,35,2,659
50.20740,-0.12198,0.09468,0.00000,0.03123,0.97466,-0.18739,0.0,2023,6,7,17,35,2,664
50.20750,-0.06948,0.02468,0.00000,0.03074,0.97881,-0.19032,0.0,2023,6,7,17,35,2,670
50.20760,-0.01698,0.12968,0.00000,0.02952,0.97344,-0.18507,0.0,2023,6,7,17,35,2,675
50.20770,0.08802,-0.01032,0.00000,0.03135,0.97807,-0.18776,0.0,2023,6,7,17,35,2,681
50.20780,-0.01698,0.12968,0.00000,0.03062,0.97661,-0.18727,0.0,2023,6,7,17,35,2,686
50.20790,-0.12198,0.04218,0.00000,0.03135,0.97405,-0.18898,0.0,2023,6,7,17,35,2,691
50.20800,0.05302,0.05968,0.00000,0.03221,0.97868,-0.18690,0.0,2023,6,7,17,35,2,697
50.20810,-0.27948,0.04218,0.00000,0.03209,0.97710,-0.18654,0.0,2023,6,7,17,35,2,702
50.20820,-0.06948,0.16468,0.00000,0.03343,0.97637,-0.18898,0.0,2023,6,7,17,35,2,707
50.20830,-0.12198,0.11218,0.00000,0.03331,0.97661,-0.18995,0.0,2023,6,7,17,35,2,713
50.20840,-0.08698,-0.02782,0.00000,0.02940,0.97722,-0.18886,0.0,2023,6,7,17,35,2,718
50.20850,0.14052,0.11218,0.00000,0.03233,0.97576,-0.18947,0.0,2023,6,7,17,35,2,723
50.20860,-0.01698,-0.29032,0.00000,0.03172,0.97527,-0.18873,0.0,2023,6,7,17,35,2,729
50.20870,-0.03448,-0.06282,0.00000,0.03184,0.97539,-0.18788,0.0,2023,6,7,17,35,2,734
50.20880,-0.13948,0.16468,0.00000,0.03172,0.97393,-0.18959,0.0,2023,6,7,17,35,2,739
50.20890,-0.01698,-0.23782,0.00000,0.02952,0.97539,-0.18849,0.0,2023,6,7,17,35,2,745
50.20900,-0.06948,0.02468,0.00000,0.03013,0.97722,-0.18812,0.0,2023,6,7,17,35,2,750
50.20910,-0.17448,0.02468,0.00000,0.03074,0.97527,-0.18873,0.0,2023,6,7,17,35,2,755
50.20920,0.08802,0.04218,0.00000,0.03050,0.97685,-0.18654,0.0,2023,6,7,17,35,2,761
50.20930,-0.06948,0.05968,0.00000,0.03172,0.97490,-0.18605,0.0,2023,6,7,17,35,2,766
50.20940,0.19302,-0.09782,0.00000,0.02952,0.97771,-0.19044,0.0,2023,6,7,17,35,2,771
50.20950,-0.10448,-0.11532,0.00000,0.03050,0.97624,-0.18690,0.0,2023,6,7,17,35,2,777
50.20960,-0.05198,-0.02782,0.00000,0.03135,0.97624,-0.18971,0.0,2023,6,7,17,35,2,782
50.20970,0.03552,-0.23782,0.00000,0.02977,0.97722,-0.18678,0.0,2023,6,7,17,35,2,787
50.20980,-0.06948,-0.02782,0.00000,0.03148,0.97698,-0.18776,0.0,2023,6,7,17,35,2,793
50.20990,-0.05198,0.04218,0.00000,0.03148,0.97649,-0.19154,0.0,2023,6,7,17,35,2,798
50.21000,0.14052,0.05968,0.00000,0.03160,0.97759,-0.19093,0.0,2023,6,7,17,35,2,803
50.21010,-0.24448,0.25218,0.00000,0.03074,0.97759,-0.18995,0.0,2023,6,7,17,35,2,809
50.21020,0.10552,0.09468,0.00000,0.03038,0.97917,-0.18715,0.0,2023,6,7,17,35,2,814
50.21030,-0.10448,0.04218,0.00000,0.03148,0.97966,-0.18568,0.0,2023,6,7,17,35,2,819
50.21040,0.08802,-0.11532,0.00000,0.03196,0.97649,-0.18800,0.0,2023,6,7,17,35,2,825
50.21050,0.00052,-0.22032,0.00000,0.02916,0.97624,-0.18995,0.0,2023,6,7,17,35,2,830
50.21060,0.14052,-0.02782,0.00000,0.02843,0.97527,-0.18983,0.0,2023,6,7,17,35,2,836
50.21070,-0.22698,0.11218,0.00000,0.03013,0.97649,-0.18825,0.0,2023,6,7,17,35,2,841
50.21080,0.10552,-0.29032,0.00000,0.02989,0.97539,-0.18934,0.0,2023,6,7,17,35,2,846
50.21090,0.07052,0.04218,0.00000,0.02965,0.97588,-0.18800,0.0,2023,6,7,17,35,2,852
50.21100,-0.15698,0.12968,0.00000,0.03111,0.97441,-0.18642,0.0,2023,6,7,17,35,2,857
50.21110,-0.06948,-0.02782,0.00000,0.03050,0.97929,-0.18751,0.0,2023,6,7,17,35,2,862
50.21120,0.08802,0.02468,0.00000,0.03233,0.97429,-0.18825,0.0,2023,6,7,17,35,2,868
50.21130,-0.06948,-0.04532,0.00000,0.03013,0.97771,-0.18995,0.0,2023,6,7,17,35,2,873
50.21140,0.08802,-0.11532,0.00000,0.02977,0.97759,-0.18995,0.0,2023,6,7,17,35,2,878
50.21150,0.07052,0.18218,0.00000,0.03062,0.97515,-0.18886,0.0,2023,6,7,17,35,2,884
50.21160,0.15802,-0.08032,0.00000,0.03172,0.97588,-0.18751,0.0,2023,6,7,17,35,2,889
50.21170,0.01802,-0.20282,0.00000,0.03160,0.97722,-0.19069,0.0,2023,6,7,17,35,2,894
50.21180,-0.08698,-0.30782,0.00000,0.03270,0.97612,-0.18703,0.0,2023,6,7,17,35,2,900
50.21190,0.00052,0.04218,0.00000,0.03087,0.97539,-0.19081,0.0,2023,6,7,17,35,2,905
50.21200,-0.01698,0.05968,0.00000,0.03172,0.97649,-0.18886,0.0,2023,6,7,17,35,2,910
50.21210,-0.05198,-0.11532,0.00000,0.03160,0.97820,-0.18825,0.0,2023,6,7,17,35,2,916
50.21220,0.26302,0.05968,0.00000,0.03123,0.97673,-0.18886,0.0,2023,6,7,17,35,2,921
50.21230,0.17552,-0.08032,0.00000,0.03270,0.97649,-0.18849,0.0,2023,6,7,17,35,2,926
50.21240,-0.05198,0.11218,0.00000,0.03270,0.97576,-0.18715,0.0,2023,6,7,17,35,2,932
50.21250,-0.03448,0.05968,0.00000,0.02928,0.97698,-0.19044,0.0,2023,6,7,17,35,2,937
50.21260,0.08802,-0.04532,0.00000,0.03343,0.97881,-0.18483,0.0,2023,6,7,17,35,2,942
50.21270,-0.13948,0.07718,0.00000,0.03209,0.97539,-0.18898,0.0,2023,6,7,17,35,2,948
50.21280,0.05302,0.14718,0.00000,0.03221,0.97795,-0.18898,0.0,2023,6,7,17,35,2,953
50.21290,0.00052,-0.02782,0.00000,0.03013,0.97429,-0.18654,0.0,2023,6,7,17,35,2,958
50.21300,0.03552,-0.01032,0.00000,0.03013,0.97600,-0.18764,0.0,2023,6,7,17,35,2,964
50.21310,-0.10448,0.14718,0.00000,0.03062,0.97673,-0.18825,0.0,2023,6,7,17,35,2,969
50.21320,-0.03448,0.04218,0.00000,0.02989,0.97649,-0.18739,0.0,2023,6,7,17,35,2,974
50.21330,0.08802,0.09468,0.00000,0.03257,0.97673,-0.18642,0.0,2023,6,7,17,35,2,980
50.21340,-0.01698,-0.18532,0.00000,0.03209,0.97734,-0.18654,0.0,2023,6,7,17,35,2,985
50.21350,-0.01698,-0.02782,0.00000,0.03026,0.97502,-0.18995,0.0,2023,6,7,17,35,2,991
50.21360,0.21052,-0.23782,0.00000,0.02818,0.97710,-0.19069,0.0,2023,6,7,17,35,2,996
50.21370,0.03552,-0.16782,0.00000,0.03294,0.97539,-0.18825,0.0,2023,6,7,17,35,2,1
50.21380,0.08802,0.11218,0.00000,0.03099,0.97624,-0.18873,0.0,2023,6,7,17,35,2,7
50.21390,-0.01698,-0.04532,0.00000,0.03245,0.97710,-0.18690,0.0,2023,6,7,17,35,2,12
50.21400,0.00052,-0.13282,0.00000,0.02708,0.97698,-0.18727,0.0,2023,6,7,17,35,2,17
50.21410,0.26302,0.05968,0.00000,0.03172,0.97576,-0.18666,0.0,2023,6,7,17,35,2,23
50.21420,0.08802,0.07718,0.00000,0.03001,0.97527,-0.18678,0.0,2023,6,7,17,35,2,28
50.21430,-0.01698,0.05968,0.00000,0.03013,0.97893,-0.19008,0.0,2023,6,7,17,35,2,33
50.21440,0.07052,-0.02782,0.00000,0.02952,0.97588,-0.19264,0.0,2023,6,7,17,35,2,39
50.21450,0.17552,-0.15032,0.00000,0.03087,0.97551,-0.18886,0.0,2023,6,7,17,35,2,44
50.21460,-0.08698,-0.06282,0.00000,0.03062,0.97624,-0.18703,0.0,2023,6,7,17,35,2,49
50.21470,0.01802,0.07718,0.00000,0.03135,0.97759,-0.18727,0.0,2023,6,7,17,35,2,55
50.21480,0.00052,0.07718,0.00000,0.03245,0.97759,-0.18642,0.0,2023,6,7,17,35,2,60
50.21490,-0.03448,0.02468,0.00000,0.03026,0.97795,-0.18666,0.0,2023,6,7,17,35,2,65
50.21500,-0.01698,-0.15032,0.00000,0.03172,0.97673,-0.18593,0.0,2023,6,7,17,35,2,71
50.21510,0.07052,0.09468,0.00000,0.03160,0.97832,-0.18873,0.0,2023,6,7,17,35,2,76
50.21520,0.21052,-0.02782,0.00000,0.03001,0.97576,-0.18812,0.0,2023,6,7,17,35,2,81
50.21530,-0.05198,0.12968,0.00000,0.03306,0.97612,-0.18947,0.0,2023,6,7,17,35,2,87
50.21540,-0.03448,0.05968,0.00000,0.03343,0.97637,-0.18776,0.0,2023,6,7,17,35,2,92
50.21550,-0.10448,-0.18532,0.00000,0.03148,0.97563,-0.18556,0.0,2023,6,7,17,35,2,97
50.21560,-0.05198,0.04218,0.00000,0.02952,0.97649,-0.18739,0.0,2023,6,7,17,35,3,103
50.21570,-0.05198,0.00718,0.00000,0.03013,0.97698,-0.18873,0.0,2023,6,7,17,35,3,108
50.21580,0.15802,-0.18532,0.00000,0.03160,0.97746,-0.18788,0.0,2023,6,7,17,35,3,113
50.21590,-0.19198,0.09468,0.00000,0.02965,0.97649,-0.18690,0.0,2023,6,7,17,35,3,119
50.21600,0.12302,-0.15032,0.00000,0.03038,0.97515,-0.18751,0.0,2023,6,7,17,35,3,124
50.21610,-0.15698,-0.11532,0.00000,0.03184,0.97612,-0.18629,0.0,2023,6,7,17,35,3,129
50.21620,0.05302,0.02468,0.00000,0.03184,0.97673,-0.18703,0.0,2023,6,7,17,35,3,135
50.21630,-0.06948,0.05968,0.00000,0.03087,0.97551,-0.18788,0.0,2023,6,7,17,35,3,140
50.21640,0.00052,0.02468,0.00000,0.02989,0.97783,-0.18654,0.0,2023,6,7,17,35,3,146
50.21650,-0.05198,-0.11532,0.00000,0.03160,0.97515,-0.18715,0.0,2023,6,7,17,35,3,151
50.21660,-0.05198,-0.09782,0.00000,0.03209,0.97624,-0.18971,0.0,2023,6,7,17,35,3,156
50.21670,-0.05198,-0.02782,0.00000,0.03062,0.97734,-0.18629,0.0,2023,6,7,17,35,3,162
50.21680,-0.19198,-0.09782,0.00000,0.03453,0.97783,-0.18739,0.0,2023,6,7,17,35,3,167
50.21690,0.07052,0.25218,0.00000,0.03172,0.97661,-0.18837,0.0,2023,6,7,17,35,3,172
50.21700,0.05302,0.09468,0.00000,0.03050,0.97649,-0.18861,0.0,2023,6,7,17,35,3,178
50.21710,-0.06948,0.19968,0.00000,0.03160,0.97868,-0.18715,0.0,2023,6,7,17,35,3,183
50.21720,-0.01698,-0.25532,0.00000,0.02965,0.97698,-0.18678,0.0,2023,6,7,17,35,3,188
50.21730,-0.05198,0.12968,0.00000,0.03184,0.97783,-0.18556,0.0,2023,6,7,17,35,3,194
50.21740,0.00052,0.02468,0.00000,0.03099,0.97563,-0.18617,0.0,2023,6,7,17,35,3,199
50.21750,0.05302,0.07718,0.00000,0.03135,0.97624,-0.18788,0.0,2023,6,7,17,35,3,204
50.21760,-0.05198,-0.15032,0.00000,0.03282,0.97820,-0.18703,0.0,2023,6,7,17,35,3,210
50.21770,-0.15698,0.07718,0.00000,0.02928,0.97588,-0.18837,0.0,2023,6,7,17,35,3,215
50.21780,-0.01698,0.04218,0.00000,0.03087,0.97588,-0.18751,0.0,2023,6,7,17,35,3,220
50.21790,0.01802,-0.04532,0.00000,0.03148,0.97490,-0.18873,0.0,2023,6,7,17,35,3,226
50.21800,0.00052,0.19968,0.00000,0.03270,0.97771,-0.18605,0.0,2023,6,7,17,35,3,231
50.21810,0.01802,-0.11532,0.00000,0.03172,0.97698,-0.18666,0.0,2023,6,7,17,35,3,236
50.21820,0.08802,0.05968,0.00000,0.02928,0.97746,-0.18849,0.0,2023,6,7,17,35,3,242
50.21830,0.10552,0.04218,0.00000,0.02977,0.97539,-0.18788,0.0,2023,6,7,17,35,3,247
50.21840,0.00052,-0.04532,0.00000,0.03135,0.97600,-0.18617,0.0,2023,6,7,17,35,3,252
50.21850,-0.17448,0.05968,0.00000,0.03111,0.97759,-0.18703,0.0,2023,6,7,17,35,3,258
50.21860,0.12302,-0.08032,0.00000,0.03123,0.97673,-0.18934,0.0,2023,6,7,17,35,3,263
50.21870,-0.08698,0.02468,0.00000,0.03074,0.97283,-0.18715,0.0,2023,6,7,17,35,3,268
50.21880,-0.13948,0.07718,0.00000,0.03038,0.97612,-0.18788,0.0,2023,6,7,17,35,3,274
50.21890,0.07052,0.33968,0.00000,0.03062,0.97685,-0.18654,0.0,2023,6,7,17,35,3,279
50.21900,-0.15698,-0.01032,0.00000,0.03099,0.97722,-0.18690,0.0,2023,6,7,17,35,3,284
50.21910,0.14052,-0.04532,0.00000,0.03099,0.97759,-0.18886,0.0,2023,6,7,17,35,3,290
50.21920,0.08802,-0.13282,0.00000,0.03123,0.97734,-0.18581,0.0,2023,6,7,17,35,3,295
50.21930,-0.10448,0.14718,0.00000,0.03026,0.97454,-0.18642,0.0,2023,6,7,17,35,3,301
50.21940,0.12302,-0.13282,0.00000,0.03233,0.97807,-0.18910,0.0,2023,6,7,17,35,3,306
50.21950,0.07052,-0.02782,0.00000,0.03233,0.97624,-0.18715,0.0,2023,6,7,17,35,3,311
50.21960,0.19302,-0.11532,0.00000,0.03013,0.97576,-0.18727,0.0,2023,6,7,17,35,3,317
50.21970,0.07052,-0.01032,0.00000,0.02952,0.97698,-0.18873,0.0,2023,6,7,17,35,3,322
50.21980,0.00052,-0.02782,0.00000,0.03099,0.97600,-0.19056,0.0,2023,6,7,17,35,3,327
50.21990,-0.13948,0.04218,0.00000,0.03257,0.97820,-0.18812,0.0,2023,6,7,17,35,3,333
50.22000,-0.06948,0.11218,0.00000,0.03062,0.97698,-0.18520,0.0,2023,6,7,17,35,3,338
50.22010,-0.26198,0.12968,0.00000,0.03245,0.97649,-0.18727,0.0,2023,6,7,17,35,3,343
50.22020,0.01802,-0.15032,0.00000,0.03209,0.97600,-0.18727,0.0,2023,6,7,17,35,3,349
50.22030,-0.03448,-0.01032,0.00000,0.03257,0.97405,-0.18959,0.0,2023,6,7,17,35,3,354
50.22040,-0.03448,0.18218,0.00000,0.03062,0.97515,-0.18642,0.0,2023,6,7,17,35,3,359
50.22050,-0.01698,0.02468,0.00000,0.03123,0.97856,-0.18751,0.0,2023,6,7,17,35,3,365
50.22060,0.05302,-0.16782,0.00000,0.03074,0.97454,-0.18788,0.0,2023,6,7,17,35,3,370
50.22070,-0.05198,-0.09782,0.00000,0.03062,0.97820,-0.18934,0.0,2023,6,7,17,35,3,375
50.22080,-0.17448,0.00718,0.00000,0.03196,0.97502,-0.18861,0.0,2023,6,7,17,35,3,381
50.22090,-0.17448,-0.06282,0.00000,0.03416,0.97759,-0.18886,0.0,2023,6,7,17,35,3,386
50.22100,-0.03448,0.09468,0.00000,0.03233,0.97624,-0.18861,0.0,2023,6,7,17,35,3,391
50.22110,-0.10448,0.12968,0.00000,0.03257,0.97612,-0.18715,0.0,2023,6,7,17,35,3,397
50.22120,-0.06948,-0.08032,0.00000,0.02916,0.97759,-0.18666,0.0,2023,6,7,17,35,3,402
50.22130,-0.01698,0.16468,0.00000,0.03160,0.97576,-0.18739,0.0,2023,6,7,17,35,3,407
50.22140,0.19302,0.04218,0.00000,0.03355,0.97905,-0.18971,0.0,2023,6,7,17,35,3,413
50.22150,-0.03448,0.07718,0.00000,0.02891,0.97698,-0.18849,0.0,2023,6,7,17,35,3,418
50.22160,-0.03448,-0.09782,0.00000,0.03026,0.97710,-0.18751,0.0,2023,6,7,17,35,3,423
50.22170,-0.01698,-0.11532,0.00000,0.03233,0.97673,-0.18617,0.0,2023,6,7,17,35,3,429
50.22180,0.14052,-0.08032,0.00000,0.03038,0.97746,-0.18715,0.0,2023,6,7,17,35,3,434
50.22190,0.07052,0.02468,0.00000,0.03221,0.97673,-0.19105,0.0,2023,6,7,17,35,3,439
50.22200,0.00052,-0.01032,0.00000,0.03245,0.97698,-0.18971,0.0,2023,6,7,17,35,3,445
50.22210,-0.15698,0.33968,0.00000,0.03062,0.97734,-0.18715,0.0,2023,6,7,17,35,3,450
50.22220,-0.01698,-0.04532,0.00000,0.03062,0.97649,-0.19008,0.0,2023,6,7,17,35,3,456
50.22230,0.14052,-0.18532,0.00000,0.03135,0.97832,-0.19069,0.0,2023,6,7,17,35,3,461
50.22240,-0.17448,0.16468,0.00000,0.03013,0.97673,-0.18764,0.0,2023,6,7,17,35,3,466
50.22250,0.00052,0.05968,0.00000,0.03050,0.97612,-0.18898,0.0,2023,6,7,17,35,3,472
50.22260,-0.10448,-0.11532,0.00000,0.03233,0.97563,-0.18995,0.0,2023,6,7,17,35,3,477
50.22270,-0.01698,0.04218,0.00000,0.03074,0.97661,-0.18812,0.0,2023,6,7,17,35,3,482
50.22280,-0.10448,0.26968,0.00000,0.02977,0.97515,-0.19081,0.0,2023,6,7,17,35,3,488
50.22290,-0.03448,0.33968,0.00000,0.03050,0.97563,-0.18678,0.0,2023,6,7,17,35,3,493
50.22300,0.19302,-0.04532,0.00000,0.02916,0.97539,-0.18983,0.0,2023,6,7,17,35,3,498
50.22310,-0.03448,0.04218,0.00000,0.02879,0.97588,-0.18715,0.0,2023,6,7,17,35,3,504
50.22320,0.03552,0.40968,0.00000,0.03111,0.97637,-0.18922,0.0,2023,6,7,17,35,3,509
50.22330,-0.08698,0.04218,0.00000,0.03270,0.97722,-0.18666,0.0,2023,6,7,17,35,3,514
50.22340,0.17552,-0.11532,0.00000,0.03135,0.97295,-0.18593,0.0,2023,6,7,17,35,3,520
50.22350,0.10552,0.14718,0.00000,0.03038,0.97563,-0.19032,0.0,2023,6,7,17,35,3,525
50.22360,0.17552,-0.18532,0.00000,0.03099,0.97612,-0.19069,0.0,2023,6,7,17,35,3,530
50.22370,0.01802,-0.04532,0.00000,0.03318,0.97515,-0.19008,0.0,2023,6,7,17,35,3,536
50.22380,-0.01698,-0.15032,0.00000,0.03294,0.97820,-0.18544,0.0,2023,6,7,17,35,3,541
50.22390,-0.05198,0.09468,0.00000,0.03245,0.97637,-0.18873,0.0,2023,6,7,17,35,3,546
50.22400,0.03552,0.14718,0.00000,0.03099,0.97600,-0.18861,0.0,2023,6,7,17,35,3,552
50.22410,0.05302,-0.09782,0.00000,0.03233,0.97795,-0.18727,0.0,2023,6,7,17,35,3,557
50.22420,0.05302,-0.06282,0.00000,0.03160,0.97661,-0.18910,0.0,2023,6,7,17,35,3,562
50.22430,-0.22698,-0.02782,0.00000,0.03160,0.97734,-0.18922,0.0,2023,6,7,17,35,3,568
50.22440,-0.03448,-0.08032,0.00000,0.03245,0.97649,-0.18751,0.0,2023,6,7,17,35,3,573
50.22450,-0.05198,-0.09782,0.00000,0.03026,0.97783,-0.18861,0.0,2023,6,7,17,35,3,578
50.22460,-0.13948,0.16468,0.00000,0.03148,0.97502,-0.18495,0.0,2023,6,7,17,35,3,584
50.22470,-0.05198,-0.06282,0.00000,0.03245,0.97649,-0.18544,0.0,2023,6,7,17,35,4,589
50.22480,0.10552,-0.01032,0.00000,0.02989,0.97881,-0.19032,0.0,2023,6,7,17,35,4,594
50.22490,0.01802,-0.01032,0.00000,0.03087,0.97771,-0.18959,0.0,2023,6,7,17,35,4,600
50.22500,-0.10448,0.21718,0.00000,0.03074,0.97588,-0.18837,0.0,2023,6,7,17,35,4,605
50.22510,-0.01698,-0.08032,0.00000,0.03148,0.97832,-0.18849,0.0,2023,6,7,17,35,4,611
50.22520,-0.12198,0.14718,0.00000,0.03148,0.97783,-0.18751,0.0,2023,6,7,17,35,4,616
50.22530,-0.12198,-0.04532,0.00000,0.03135,0.97502,-0.18971,0.0,2023,6,7,17,35,4,621
50.22540,0.08802,0.04218,0.00000,0.03062,0.97698,-0.18703,0.0,2023,6,7,17,35,4,627
50.22550,-0.12198,-0.11532,0.00000,0.03172,0.97637,-0.18617,0.0,2023,6,7,17,35,4,632
50.22560,-0.06948,-0.15032,0.00000,0.03172,0.97771,-0.18788,0.0,2023,6,7,17,35,4,637
