#2023/06/07 17:08:00
time,wx,wy,wz,ax,ay,az,yy,MM,dd,hh,mm,ss,ms
48.80790,-0.08995,0.15750,0.00000,0.03184,0.97649,-0.18922,0.0,2023,6,7,17,8,1,620
48.80800,0.22505,-0.07000,0.00000,0.03294,0.97771,-0.18910,0.0,2023,6,7,17,8,1,632
48.80810,-0.12495,-0.01750,0.00000,0.03282,0.97795,-0.18727,0.0,2023,6,7,17,8,1,643
48.80820,-0.05495,0.00000,0.00000,0.03087,0.97844,-0.18800,0.0,2023,6,7,17,8,1,654
48.80830,0.05005,0.07000,0.00000,0.03184,0.97661,-0.19093,0.0,2023,6,7,17,8,1,665
48.80840,-0.19495,-0.05250,0.00000,0.03099,0.97771,-0.18922,0.0,2023,6,7,17,8,1,676
48.80850,0.15505,0.07000,0.00000,0.03294,0.97698,-0.18861,0.0,2023,6,7,17,8,1,687
48.80860,-0.08995,0.05250,0.00000,0.03221,0.97539,-0.18788,0.0,2023,6,7,17,8,1,699
48.80870,-0.17745,-0.01750,0.00000,0.03196,0.97624,-0.18800,0.0,2023,6,7,17,8,1,710
48.80880,0.01505,0.12250,0.00000,0.03209,0.97649,-0.19130,0.0,2023,6,7,17,8,1,721
48.80890,0.01505,-0.24500,0.00000,0.03172,0.97539,-0.19044,0.0,2023,6,7,17,8,1,732
48.80900,0.12005,0.17500,0.00000,0.03135,0.97698,-0.18654,0.0,2023,6,7,17,8,1,743
48.80910,-0.26495,0.01750,0.00000,0.03160,0.97649,-0.18849,0.0,2023,6,7,17,8,1,754
48.80920,-0.08995,0.10500,0.00000,0.03196,0.97588,-0.19069,0.0,2023,6,7,17,8,1,765
48.80930,-0.00245,0.08750,0.00000,0.02989,0.97576,-0.19130,0.0,2023,6,7,17,8,1,777
48.80940,-0.10745,0.36750,0.00000,0.03074,0.97893,-0.19081,0.0,2023,6,7,17,8,1,788
48.80950,-0.12495,0.14000,0.00000,0.03245,0.97539,-0.18812,0.0,2023,6,7,17,8,1,799
48.80960,0.13755,0.00000,0.00000,0.02867,0.97771,-0.19154,0.0,2023,6,7,17,8,1,810
48.80970,-0.00245,0.12250,0.00000,0.03074,0.97710,-0.19093,0.0,2023,6,7,17,8,1,821
48.80980,0.06755,-0.07000,0.00000,0.03282,0.97441,-0.19191,0.0,2023,6,7,17,8,1,832
48.80990,-0.12495,-0.07000,0.00000,0.03245,0.97698,-0.18654,0.0,2023,6,7,17,8,1,843
48.81000,-0.07245,0.05250,0.00000,0.03148,0.97893,-0.18739,0.0,2023,6,7,17,8,1,855
48.81010,0.20755,-0.14000,0.00000,0.03172,0.97490,-0.18959,0.0,2023,6,7,17,8,1,866
48.81020,0.12005,-0.08750,0.00000,0.03111,0.97637,-0.19252,0.0,2023,6,7,17,8,1,877
48.81030,0.03255,0.05250,0.00000,0.03135,0.97649,-0.18910,0.0,2023,6,7,17,8,1,888
48.81040,-0.14245,0.22750,0.00000,0.03233,0.97539,-0.18959,0.0,2023,6,7,17,8,1,899
48.81050,0.15505,-0.01750,0.00000,0.03160,0.97771,-0.18776,0.0,2023,6,7,17,8,1,910
48.81060,-0.00245,-0.08750,0.00000,0.03184,0.97905,-0.18764,0.0,2023,6,7,17,8,1,922
48.81070,0.05005,-0.03500,0.00000,0.03257,0.97588,-0.19008,0.0,2023,6,7,17,8,1,933
48.81080,-0.05495,0.07000,0.00000,0.03331,0.97612,-0.18837,0.0,2023,6,7,17,8,1,944
48.81090,-0.10745,0.10500,0.00000,0.03453,0.97685,-0.18764,0.0,2023,6,7,17,8,1,955
48.81100,-0.12495,0.07000,0.00000,0.03050,0.97624,-0.18556,0.0,2023,6,7,17,8,1,966
48.81110,-0.10745,-0.01750,0.00000,0.03038,0.97710,-0.19056,0.0,2023,6,7,17,8,1,977
48.81120,-0.07245,0.00000,0.00000,0.03221,0.97820,-0.19081,0.0,2023,6,7,17,8,1,988
48.81130,0.12005,0.08750,0.00000,0.03062,0.97624,-0.18629,0.0,2023,6,7,17,8,2,10
48.81140,0.17255,-0.17500,0.00000,0.03257,0.97710,-0.18715,0.0,2023,6,7,17,8,2,21
48.81150,-0.00245,-0.03500,0.00000,0.03355,0.97783,-0.18751,0.0,2023,6,7,17,8,2,32
48.81160,-0.01995,0.03500,0.00000,0.03257,0.97685,-0.18898,0.0,2023,6,7,17,8,2,43
48.81170,-0.10745,0.08750,0.00000,0.03148,0.97637,-0.19117,0.0,2023,6,7,17,8,2,54
48.81180,-0.05495,0.10500,0.00000,0.03294,0.97820,-0.18788,0.0,2023,6,7,17,8,2,65
48.81190,-0.17745,-0.12250,0.00000,0.03282,0.97685,-0.18617,0.0,2023,6,7,17,8,2,76
48.81200,-0.01995,-0.07000,0.00000,0.03233,0.97393,-0.18886,0.0,2023,6,7,17,8,2,88
48.81210,-0.05495,0.05250,0.00000,0.03196,0.97832,-0.18934,0.0,2023,6,7,17,8,2,99
48.81220,0.06755,-0.26250,0.00000,0.03026,0.97563,-0.19166,0.0,2023,6,7,17,8,2,110
48.81230,-0.08995,0.12250,0.00000,0.03099,0.97710,-0.18837,0.0,2023,6,7,17,8,2,121
48.81240,-0.21245,0.00000,0.00000,0.03245,0.97515,-0.18947,0.0,2023,6,7,17,8,2,132
48.81250,0.08505,0.00000,0.00000,0.03050,0.97881,-0.19081,0.0,2023,6,7,17,8,2,143
48.81260,-0.07245,-0.15750,0.00000,0.03123,0.97673,-0.18922,0.0,2023,6,7,17,8,2,155
48.81270,0.13755,-0.15750,0.00000,0.03111,0.97832,-0.18959,0.0,2023,6,7,17,8,2,166
48.81280,0.05005,-0.12250,0.00000,0.03123,0.97661,-0.19008,0.0,2023,6,7,17,8,2,177
48.81290,0.08505,0.08750,0.00000,0.03270,0.97332,-0.18739,0.0,2023,6,7,17,8,2,188
48.81300,-0.08995,-0.03500,0.00000,0.03123,0.97539,-0.18995,0.0,2023,6,7,17,8,2,199
48.81310,0.03255,-0.17500,0.00000,0.03062,0.97661,-0.19117,0.0,2023,6,7,17,8,2,210
48.81320,0.05005,0.05250,0.00000,0.03087,0.97576,-0.18983,0.0,2023,6,7,17,8,2,221
48.81330,0.03255,-0.08750,0.00000,0.03343,0.97588,-0.18727,0.0,2023,6,7,17,8,2,233
48.81340,0.27755,-0.22750,0.00000,0.03209,0.97673,-0.18751,0.0,2023,6,7,17,8,2,244
48.81350,0.06755,0.17500,0.00000,0.02806,0.97673,-0.19069,0.0,2023,6,7,17,8,2,255
48.81360,0.20755,-0.17500,0.00000,0.03111,0.97600,-0.18995,0.0,2023,6,7,17,8,2,266
48.81370,-0.03745,0.05250,0.00000,0.03172,0.97588,-0.19044,0.0,2023,6,7,17,8,2,277
48.81380,-0.19495,0.31500,0.00000,0.03318,0.97820,-0.18983,0.0,2023,6,7,17,8,2,288
48.81390,-0.03745,-0.01750,0.00000,0.03233,0.97673,-0.18959,0.0,2023,6,7,17,8,2,299
48.81400,0.10255,-0.07000,0.00000,0.03257,0.97478,-0.18959,0.0,2023,6,7,17,8,2,311
48.81410,-0.10745,-0.14000,0.00000,0.03026,0.97673,-0.18886,0.0,2023,6,7,17,8,2,322
48.81420,-0.05495,-0.05250,0.00000,0.02965,0.97588,-0.19154,0.0,2023,6,7,17,8,2,333
48.81430,0.10255,0.01750,0.00000,0.03209,0.97563,-0.18861,0.0,2023,6,7,17,8,2,344
48.81440,0.22505,-0.14000,0.00000,0.03245,0.97466,-0.18959,0.0,2023,6,7,17,8,2,355
48.81450,-0.14245,0.07000,0.00000,0.02721,0.97661,-0.19069,0.0,2023,6,7,17,8,2,366
48.81460,0.03255,-0.05250,0.00000,0.03111,0.97600,-0.19349,0.0,2023,6,7,17,8,2,378
48.81470,-0.19495,0.10500,0.00000,0.03196,0.97612,-0.18861,0.0,2023,6,7,17,8,2,389
48.81480,-0.14245,0.07000,0.00000,0.03270,0.98003,-0.18922,0.0,2023,6,7,17,8,2,400
48.81490,-0.10745,0.05250,0.00000,0.03184,0.97868,-0.19044,0.0,2023,6,7,17,8,2,411
48.81500,0.08505,-0.14000,0.00000,0.02965,0.97685,-0.19264,0.0,2023,6,7,17,8,2,422
48.81510,0.06755,-0.19250,0.00000,0.02940,0.97515,-0.19020,0.0,2023,6,7,17,8,2,433
48.81520,-0.03745,0.03500,0.00000,0.03318,0.97771,-0.19032,0.0,2023,6,7,17,8,2,444
48.81530,0.05005,-0.17500,0.00000,0.03233,0.97527,-0.18995,0.0,2023,6,7,17,8,2,456
48.81540,0.06755,0.12250,0.00000,0.03160,0.97710,-0.19166,0.0,2023,6,7,17,8,2,467
48.81550,-0.26495,-0.03500,0.00000,0.03087,0.97856,-0.19069,0.0,2023,6,7,17,8,2,478
48.81560,-0.21245,0.07000,0.00000,0.03257,0.97759,-0.18873,0.0,2023,6,7,17,8,2,489
48.81570,-0.07245,0.01750,0.00000,0.03257,0.97466,-0.19081,0.0,2023,6,7,17,8,2,500
48.81580,0.03255,0.03500,0.00000,0.03135,0.97527,-0.18898,0.0,2023,6,7,17,8,2,511
48.81590,-0.14245,-0.03500,0.00000,0.02952,0.97429,-0.18947,0.0,2023,6,7,17,8,2,522
48.81600,-0.01995,-0.17500,0.00000,0.03245,0.97490,-0.18812,0.0,2023,6,7,17,8,2,534
48.81610,-0.01995,-0.10500,0.00000,0.03245,0.97466,-0.19032,0.0,2023,6,7,17,8,2,545
48.81620,-0.08995,-0.17500,0.00000,0.03294,0.97612,-0.18800,0.0,2023,6,7,17,8,2,556
48.81630,0.27755,-0.10500,0.00000,0.03172,0.97637,-0.19239,0.0,2023,6,7,17,8,2,567
48.81640,-0.10745,0.12250,0.00000,0.03087,0.97661,-0.19105,0.0,2023,6,7,17,8,2,578
48.81650,-0.03745,0.03500,0.00000,0.03050,0.97637,-0.18983,0.0,2023,6,7,17,8,2,589
48.81660,0.10255,-0.14000,0.00000,0.03038,0.97722,-0.18983,0.0,2023,6,7,17,8,2,601
48.81670,-0.10745,0.12250,0.00000,0.03318,0.97563,-0.19032,0.0,2023,6,7,17,8,2,612
48.81680,-0.07245,0.07000,0.00000,0.03184,0.97563,-0.18959,0.0,2023,6,7,17,8,2,623
48.81690,0.08505,-0.17500,0.00000,0.03270,0.97588,-0.19325,0.0,2023,6,7,17,8,2,634
48.81700,0.03255,-0.12250,0.00000,0.03209,0.97502,-0.18983,0.0,2023,6,7,17,8,2,645
48.81710,0.13755,-0.14000,0.00000,0.03123,0.97563,-0.18873,0.0,2023,6,7,17,8,2,656
48.81720,-0.07245,-0.10500,0.00000,0.03209,0.97490,-0.19227,0.0,2023,6,7,17,8,2,667
48.81730,0.01505,-0.07000,0.00000,0.03099,0.97673,-0.19142,0.0,2023,6,7,17,8,2,679
48.81740,-0.01995,0.14000,0.00000,0.03074,0.97502,-0.19154,0.0,2023,6,7,17,8,2,690
48.81750,0.05005,0.01750,0.00000,0.03184,0.97783,-0.19081,0.0,2023,6,7,17,8,2,701
48.81760,-0.03745,0.22750,0.00000,0.03221,0.97710,-0.19313,0.0,2023,6,7,17,8,2,712
48.81770,-0.10745,0.03500,0.00000,0.03294,0.97502,-0.19056,0.0,2023,6,7,17,8,2,723
48.81780,-0.07245,0.08750,0.00000,0.03221,0.97612,-0.19386,0.0,2023,6,7,17,8,2,734
48.81790,0.01505,0.07000,0.00000,0.02891,0.97624,-0.19398,0.0,2023,6,7,17,8,2,745
48.81800,0.08505,-0.07000,0.00000,0.03111,0.97722,-0.19093,0.0,2023,6,7,17,8,2,757
48.81810,-0.03745,-0.03500,0.00000,0.02989,0.97722,-0.19264,0.0,2023,6,7,17,8,2,768
48.81820,0.01505,0.26250,0.00000,0.03123,0.97722,-0.19422,0.0,2023,6,7,17,8,2,779
48.81830,0.13755,0.10500,0.00000,0.03343,0.98003,-0.19264,0.0,2023,6,7,17,8,2,790
48.81840,-0.07245,0.10500,0.00000,0.02965,0.97563,-0.19032,0.0,2023,6,7,17,8,2,801
48.81850,0.05005,0.08750,0.00000,0.03160,0.97515,-0.18983,0.0,2023,6,7,17,8,2,812
48.81860,-0.14245,0.10500,0.00000,0.03111,0.97844,-0.18959,0.0,2023,6,7,17,8,2,824
48.81870,0.08505,0.01750,0.00000,0.02965,0.97783,-0.19105,0.0,2023,6,7,17,8,2,835
48.81880,0.12005,-0.24500,0.00000,0.03270,0.97563,-0.19069,0.0,2023,6,7,17,8,2,846
48.81890,-0.15995,-0.01750,0.00000,0.03331,0.97759,-0.19117,0.0,2023,6,7,17,8,2,857
48.81900,0.17255,-0.28000,0.00000,0.02989,0.97734,-0.19008,0.0,2023,6,7,17,8,2,868
48.81910,0.08505,-0.05250,0.00000,0.02977,0.97820,-0.19056,0.0,2023,6,7,17,8,2,879
48.81920,0.08505,0.01750,0.00000,0.03038,0.97929,-0.19032,0.0,2023,6,7,17,8,2,890
48.81930,-0.07245,0.17500,0.00000,0.03318,0.97551,-0.18703,0.0,2023,6,7,17,8,2,902
48.81940,0.01505,-0.07000,0.00000,0.03245,0.97368,-0.19081,0.0,2023,6,7,17,8,2,913
48.81950,0.01505,-0.15750,0.00000,0.03196,0.97661,-0.18898,0.0,2023,6,7,17,8,2,924
48.81960,0.08505,-0.08750,0.00000,0.03074,0.97637,-0.19215,0.0,2023,6,7,17,8,2,935
48.81970,0.06755,-0.08750,0.00000,0.03172,0.97661,-0.18959,0.0,2023,6,7,17,8,2,946
48.81980,-0.08995,-0.24500,0.00000,0.03392,0.97576,-0.19020,0.0,2023,6,7,17,8,2,957
48.81990,-0.17745,-0.07000,0.00000,0.03099,0.97844,-0.18800,0.0,2023,6,7,17,8,2,968
48.82000,0.24255,-0.10500,0.00000,0.03001,0.97539,-0.19020,0.0,2023,6,7,17,8,2,980
48.82010,0.01505,-0.08750,0.00000,0.03087,0.97759,-0.19056,0.0,2023,6,7,17,8,2,991
48.82020,0.27755,-0.17500,0.00000,0.03135,0.97478,-0.18934,0.0,2023,6,7,17,8,3,1
48.82030,-0.12495,0.01750,0.00000,0.03343,0.97600,-0.18642,0.0,2023,6,7,17,8,3,12
48.82040,-0.01995,-0.01750,0.00000,0.03172,0.97429,-0.19203,0.0,2023,6,7,17,8,3,23
48.82050,0.17255,-0.05250,0.00000,0.02977,0.97673,-0.19081,0.0,2023,6,7,17,8,3,34
48.82060,-0.01995,-0.15750,0.00000,0.03038,0.97478,-0.18995,0.0,2023,6,7,17,8,3,46
48.82070,-0.21245,0.10500,0.00000,0.03074,0.97478,-0.19056,0.0,2023,6,7,17,8,3,57
48.82080,0.03255,-0.21000,0.00000,0.03233,0.97759,-0.18690,0.0,2023,6,7,17,8,3,68
48.82090,-0.08995,0.10500,0.00000,0.03087,0.97661,-0.18995,0.0,2023,6,7,17,8,3,79
48.82100,0.12005,-0.14000,0.00000,0.03233,0.97588,-0.19252,0.0,2023,6,7,17,8,3,90
48.82110,-0.00245,0.01750,0.00000,0.03111,0.97771,-0.19032,0.0,2023,6,7,17,8,3,101
48.82120,0.03255,-0.05250,0.00000,0.03050,0.97478,-0.18788,0.0,2023,6,7,17,8,3,112
48.82130,-0.00245,0.08750,0.00000,0.03123,0.97905,-0.18959,0.0,2023,6,7,17,8,3,124
48.82140,-0.05495,-0.07000,0.00000,0.02965,0.97429,-0.19117,0.0,2023,6,7,17,8,3,135
48.82150,0.03255,0.07000,0.00000,0.02928,0.97685,-0.19215,0.0,2023,6,7,17,8,3,146
48.82160,-0.05495,0.12250,0.00000,0.03282,0.97417,-0.18788,0.0,2023,6,7,17,8,3,157
48.82170,-0.19495,0.14000,0.00000,0.03245,0.97917,-0.18837,0.0,2023,6,7,17,8,3,168
48.82180,-0.08995,0.08750,0.00000,0.03233,0.97746,-0.18739,0.0,2023,6,7,17,8,3,179
48.82190,-0.21245,0.10500,0.00000,0.03026,0.97637,-0.18947,0.0,2023,6,7,17,8,3,190
48.82200,0.01505,-0.08750,0.00000,0.03209,0.97563,-0.18800,0.0,2023,6,7,17,8,3,202
48.82210,-0.12495,0.00000,0.00000,0.03184,0.97478,-0.18678,0.0,2023,6,7,17,8,3,213
48.82220,-0.12495,-0.10500,0.00000,0.03318,0.97539,-0.19056,0.0,2023,6,7,17,8,3,224
48.82230,-0.01995,-0.14000,0.00000,0.03148,0.97551,-0.18800,0.0,2023,6,7,17,8,3,235
48.82240,0.01505,-0.07000,0.00000,0.02952,0.97539,-0.19154,0.0,2023,6,7,17,8,3,246
48.82250,-0.05495,-0.12250,0.00000,0.03245,0.97783,-0.18947,0.0,2023,6,7,17,8,3,257
48.82260,0.01505,0.00000,0.00000,0.02977,0.97746,-0.18739,0.0,2023,6,7,17,8,3,269
48.82270,0.03255,-0.07000,0.00000,0.03331,0.97624,-0.18593,0.0,2023,6,7,17,8,3,280
48.82280,0.12005,0.14000,0.00000,0.03074,0.97783,-0.18971,0.0,2023,6,7,17,8,3,291
48.82290,-0.08995,-0.08750,0.00000,0.03135,0.97637,-0.19069,0.0,2023,6,7,17,8,3,302
48.82300,0.06755,-0.24500,0.00000,0.03416,0.97673,-0.19142,0.0,2023,6,7,17,8,3,313
48.82310,-0.00245,0.03500,0.00000,0.03111,0.97600,-0.18922,0.0,2023,6,7,17,8,3,324
48.82320,-0.00245,-0.07000,0.00000,0.03074,0.97576,-0.18947,0.0,2023,6,7,17,8,3,335
48.82330,0.13755,0.05250,0.00000,0.03148,0.97673,-0.18983,0.0,2023,6,7,17,8,3,347
48.82340,0.10255,-0.14000,0.00000,0.02830,0.97673,-0.18934,0.0,2023,6,7,17,8,3,358
48.82350,0.13755,-0.01750,0.00000,0.03160,0.97441,-0.18800,0.0,2023,6,7,17,8,3,369
48.82360,-0.10745,0.03500,0.00000,0.02989,0.97563,-0.18873,0.0,2023,6,7,17,8,3,380
48.82370,-0.01995,-0.01750,0.00000,0.02977,0.97722,-0.18910,0.0,2023,6,7,17,8,3,391
48.82380,0.10255,-0.10500,0.00000,0.03087,0.97637,-0.18983,0.0,2023,6,7,17,8,3,402
48.82390,-0.14245,-0.01750,0.00000,0.03318,0.97600,-0.18922,0.0,2023,6,7,17,8,3,413
48.82400,0.06755,-0.10500,0.00000,0.03123,0.97563,-0.18739,0.0,2023,6,7,17,8,3,425
48.82410,0.01505,0.08750,0.00000,0.03440,0.97588,-0.18959,0.0,2023,6,7,17,8,3,436
48.82420,0.12005,-0.08750,0.00000,0.03135,0.97661,-0.18995,0.0,2023,6,7,17,8,3,447
48.82430,-0.05495,0.24500,0.00000,0.03087,0.97624,-0.18934,0.0,2023,6,7,17,8,3,458
48.82440,-0.00245,0.03500,0.00000,0.03111,0.97502,-0.18788,0.0,2023,6,7,17,8,3,469
48.82450,0.20755,0.03500,0.00000,0.03135,0.97576,-0.18861,0.0,2023,6,7,17,8,3,480
48.82460,0.03255,-0.07000,0.00000,0.03013,0.97844,-0.18617,0.0,2023,6,7,17,8,3,492
48.82470,-0.07245,-0.07000,0.00000,0.03196,0.97551,-0.19093,0.0,2023,6,7,17,8,3,503
48.82480,0.27755,0.00000,0.00000,0.03160,0.97624,-0.18995,0.0,2023,6,7,17,8,3,514
48.82490,-0.05495,0.12250,0.00000,0.03148,0.97454,-0.18898,0.0,2023,6,7,17,8,3,525
48.82500,-0.01995,-0.07000,0.00000,0.03074,0.97563,-0.18812,0.0,2023,6,7,17,8,3,536
48.82510,0.08505,0.08750,0.00000,0.03123,0.97527,-0.19093,0.0,2023,6,7,17,8,3,547
48.82520,-0.14245,0.21000,0.00000,0.03099,0.97746,-0.19215,0.0,2023,6,7,17,8,3,558
48.82530,-0.26495,0.21000,0.00000,0.03148,0.97612,-0.19264,0.0,2023,6,7,17,8,3,570
48.82540,0.12005,-0.12250,0.00000,0.03099,0.97527,-0.19081,0.0,2023,6,7,17,8,3,581
48.82550,0.03255,-0.08750,0.00000,0.03306,0.97661,-0.19142,0.0,2023,6,7,17,8,3,592
48.82560,-0.14245,-0.14000,0.00000,0.03135,0.97563,-0.19313,0.0,2023,6,7,17,8,3,603
48.82570,0.12005,-0.08750,0.00000,0.03270,0.97844,-0.18983,0.0,2023,6,7,17,8,3,614
48.82580,-0.07245,-0.12250,0.00000,0.03087,0.97661,-0.18983,0.0,2023,6,7,17,8,3,625
48.82590,-0.05495,-0.17500,0.00000,0.03172,0.97576,-0.18825,0.0,2023,6,7,17,8,3,636
48.82600,-0.21245,0.19250,0.00000,0.03294,0.97441,-0.18983,0.0,2023,6,7,17,8,3,648
48.82610,0.12005,-0.03500,0.00000,0.03196,0.97600,-0.18983,0.0,2023,6,7,17,8,3,659
48.82620,-0.01995,0.03500,0.00000,0.03172,0.97588,-0.18861,0.0,2023,6,7,17,8,3,670
48.82630,-0.01995,-0.03500,0.00000,0.03099,0.97466,-0.19154,0.0,2023,6,7,17,8,3,681
48.82640,-0.03745,-0.15750,0.00000,0.03135,0.97515,-0.18837,0.0,2023,6,7,17,8,3,692
48.82650,-0.10745,-0.05250,0.00000,0.03050,0.97710,-0.19044,0.0,2023,6,7,17,8,3,703
48.82660,-0.10745,0.07000,0.00000,0.03074,0.97710,-0.19178,0.0,2023,6,7,17,8,3,715
48.82670,-0.07245,0.19250,0.00000,0.03026,0.97661,-0.19056,0.0,2023,6,7,17,8,3,726
48.82680,-0.19495,-0.14000,0.00000,0.03184,0.97649,-0.18825,0.0,2023,6,7,17,8,3,737
48.82690,-0.01995,-0.01750,0.00000,0.03062,0.97710,-0.19032,0.0,2023,6,7,17,8,3,748
48.82700,-0.00245,-0.05250,0.00000,0.03026,0.97637,-0.18861,0.0,2023,6,7,17,8,3,759
48.82710,0.01505,0.01750,0.00000,0.03135,0.97649,-0.18971,0.0,2023,6,7,17,8,3,770
48.82720,-0.01995,0.14000,0.00000,0.03038,0.97795,-0.18666,0.0,2023,6,7,17,8,3,781
48.82730,0.06755,-0.05250,0.00000,0.03148,0.97820,-0.18971,0.0,2023,6,7,17,8,3,793
48.82740,0.08505,-0.03500,0.00000,0.03331,0.97624,-0.18922,0.0,2023,6,7,17,8,3,804
48.82750,0.03255,-0.28000,0.00000,0.03245,0.97661,-0.19020,0.0,2023,6,7,17,8,3,815
48.82760,-0.10745,-0.07000,0.00000,0.02952,0.97661,-0.19032,0.0,2023,6,7,17,8,3,826
48.82770,0.05005,-0.15750,0.00000,0.03123,0.97698,-0.19093,0.0,2023,6,7,17,8,3,837
48.82780,-0.05495,-0.12250,0.00000,0.03184,0.97722,-0.18934,0.0,2023,6,7,17,8,3,848
48.82790,0.01505,-0.05250,0.00000,0.03099,0.97490,-0.18727,0.0,2023,6,7,17,8,3,859
48.82800,0.01505,0.03500,0.00000,0.02940,0.97698,-0.18995,0.0,2023,6,7,17,8,3,871
48.82810,-0.08995,0.12250,0.00000,0.03172,0.97771,-0.19142,0.0,2023,6,7,17,8,3,882
48.82820,-0.10745,-0.10500,0.00000,0.03221,0.97710,-0.18788,0.0,2023,6,7,17,8,3,893
48.82830,-0.00245,-0.01750,0.00000,0.03245,0.97637,-0.18947,0.0,2023,6,7,17,8,3,904
48.82840,-0.05495,-0.05250,0.00000,0.03099,0.97661,-0.18825,0.0,2023,6,7,17,8,3,915
48.82850,0.08505,-0.17500,0.00000,0.03209,0.97820,-0.18800,0.0,2023,6,7,17,8,3,926
48.82860,-0.14245,-0.08750,0.00000,0.03160,0.97771,-0.18898,0.0,2023,6,7,17,8,3,938
48.82870,0.20755,0.05250,0.00000,0.03087,0.97637,-0.18873,0.0,2023,6,7,17,8,3,949
48.82880,0.03255,-0.07000,0.00000,0.03160,0.97478,-0.18959,0.0,2023,6,7,17,8,3,960
48.82890,-0.14245,0.14000,0.00000,0.03074,0.97685,-0.18886,0.0,2023,6,7,17,8,3,971
48.82900,0.15505,0.08750,0.00000,0.03343,0.97807,-0.18910,0.0,2023,6,7,17,8,3,982
48.82910,-0.00245,-0.03500,0.00000,0.03233,0.97795,-0.18922,0.0,2023,6,7,17,8,3,993
48.82920,-0.01995,-0.07000,0.00000,0.03294,0.97563,-0.19044,0.0,2023,6,7,17,8,4,3
48.82930,-0.17745,0.21000,0.00000,0.03160,0.97551,-0.18947,0.0,2023,6,7,17,8,4,15
48.82940,0.06755,0.03500,0.00000,0.03135,0.97771,-0.18849,0.0,2023,6,7,17,8,4,26
48.82950,0.06755,-0.05250,0.00000,0.03135,0.97673,-0.18995,0.0,2023,6,7,17,8,4,37
48.82960,-0.03745,0.07000,0.00000,0.03026,0.97710,-0.19081,0.0,2023,6,7,17,8,4,48
48.82970,0.01505,0.03500,0.00000,0.03087,0.97454,-0.18922,0.0,2023,6,7,17,8,4,59
48.82980,0.05005,-0.07000,0.00000,0.03196,0.97551,-0.19264,0.0,2023,6,7,17,8,4,70
48.82990,-0.00245,0.07000,0.00000,0.03026,0.97759,-0.18873,0.0,2023,6,7,17,8,4,81
48.83000,0.01505,-0.24500,0.00000,0.03111,0.97356,-0.18910,0.0,2023,6,7,17,8,4,93
48.83010,-0.03745,0.12250,0.00000,0.02965,0.97734,-0.18849,0.0,2023,6,7,17,8,4,104
48.83020,-0.03745,-0.03500,0.00000,0.03111,0.97746,-0.18922,0.0,2023,6,7,17,8,4,115
48.83030,0.10255,-0.24500,0.00000,0.03172,0.97490,-0.19032,0.0,2023,6,7,17,8,4,126
48.83040,0.19005,-0.14000,0.00000,0.03148,0.97661,-0.19056,0.0,2023,6,7,17,8,4,137
48.83050,-0.01995,-0.10500,0.00000,0.03221,0.97673,-0.19081,0.0,2023,6,7,17,8,4,148
48.83060,0.17255,-0.22750,0.00000,0.02904,0.97637,-0.19178,0.0,2023,6,7,17,8,4,160
48.83070,-0.07245,0.01750,0.00000,0.03111,0.97722,-0.19056,0.0,2023,6,7,17,8,4,171
48.83080,0.05005,-0.01750,0.00000,0.03148,0.97466,-0.19093,0.0,2023,6,7,17,8,4,182
48.83090,-0.10745,0.12250,0.00000,0.03343,0.97649,-0.19105,0.0,2023,6,7,17,8,4,193
48.83100,-0.01995,0.01750,0.00000,0.03172,0.97612,-0.18812,0.0,2023,6,7,17,8,4,204
48.83110,-0.10745,0.15750,0.00000,0.03209,0.97588,-0.19374,0.0,2023,6,7,17,8,4,215
48.83120,-0.01995,0.03500,0.00000,0.03148,0.97685,-0.19032,0.0,2023,6,7,17,8,4,226
48.83130,0.05005,0.15750,0.00000,0.03196,0.97771,-0.19154,0.0,2023,6,7,17,8,4,238
48.83140,0.12005,0.01750,0.00000,0.02989,0.97734,-0.18812,0.0,2023,6,7,17,8,4,249
48.83150,-0.12495,0.15750,0.00000,0.03221,0.97820,-0.18654,0.0,2023,6,7,17,8,4,260
48.83160,0.03255,0.05250,0.00000,0.03184,0.97588,-0.18849,0.0,2023,6,7,17,8,4,271
48.83170,0.01505,-0.07000,0.00000,0.03135,0.97685,-0.18873,0.0,2023,6,7,17,8,4,282
48.83180,-0.05495,-0.07000,0.00000,0.03160,0.97478,-0.18812,0.0,2023,6,7,17,8,4,293
48.83190,0.06755,-0.07000,0.00000,0.03074,0.97624,-0.18971,0.0,2023,6,7,17,8,4,304
48.83200,-0.12495,0.17500,0.00000,0.03135,0.97746,-0.18861,0.0,2023,6,7,17,8,4,316
48.83210,0.03255,-0.10500,0.00000,0.03245,0.97368,-0.18837,0.0,2023,6,7,17,8,4,327
48.83220,0.01505,-0.03500,0.00000,0.03221,0.97685,-0.18873,0.0,2023,6,7,17,8,4,338
48.83230,0.20755,-0.10500,0.00000,0.03062,0.97441,-0.19081,0.0,2023,6,7,17,8,4,349
48.83240,-0.07245,0.12250,0.00000,0.03160,0.97515,-0.18934,0.0,2023,6,7,17,8,4,360
48.83250,0.05005,0.15750,0.00000,0.03184,0.97502,-0.19166,0.0,2023,6,7,17,8,4,371
48.83260,0.10255,-0.10500,0.00000,0.03111,0.97698,-0.18800,0.0,2023,6,7,17,8,4,383
48.83270,-0.00245,0.00000,0.00000,0.03123,0.97685,-0.18971,0.0,2023,6,7,17,8,4,394
48.83280,0.15505,-0.08750,0.00000,0.03196,0.97771,-0.19020,0.0,2023,6,7,17,8,4,405
48.83290,-0.19495,0.01750,0.00000,0.03111,0.97612,-0.19008,0.0,2023,6,7,17,8,4,416
48.83300,-0.03745,0.01750,0.00000,0.03148,0.97795,-0.18934,0.0,2023,6,7,17,8,4,427
48.83310,-0.05495,0.01750,0.00000,0.03087,0.97698,-0.19300,0.0,2023,6,7,17,8,4,438
48.83320,0.19005,0.07000,0.00000,0.03087,0.97734,-0.19166,0.0,2023,6,7,17,8,4,449
48.83330,0.01505,-0.01750,0.00000,0.03184,0.97515,-0.19337,0.0,2023,6,7,17,8,4,461
48.83340,-0.10745,-0.12250,0.00000,0.03209,0.97722,-0.19044,0.0,2023,6,7,17,8,4,472
48.83350,-0.05495,0.24500,0.00000,0.03453,0.97600,-0.18861,0.0,2023,6,7,17,8,4,483
48.83360,-0.19495,-0.07000,0.00000,0.03477,0.97490,-0.19020,0.0,2023,6,7,17,8,4,494
48.83370,-0.01995,-0.05250,0.00000,0.03087,0.97685,-0.19203,0.0,2023,6,7,17,8,4,505
48.83380,0.06755,-0.05250,0.00000,0.03294,0.97759,-0.19032,0.0,2023,6,7,17,8,4,516
48.83390,-0.03745,-0.15750,0.00000,0.02904,0.97588,-0.19093,0.0,2023,6,7,17,8,4,527
48.83400,0.10255,-0.08750,0.00000,0.03001,0.97600,-0.19056,0.0,2023,6,7,17,8,4,539
48.83410,-0.17745,0.01750,0.00000,0.03184,0.97685,-0.19166,0.0,2023,6,7,17,8,4,550
48.83420,-0.00245,-0.14000,0.00000,0.03172,0.97515,-0.18886,0.0,2023,6,7,17,8,4,561
48.83430,0.01505,0.01750,0.00000,0.03099,0.97624,-0.18971,0.0,2023,6,7,17,8,4,572
48.83440,-0.03745,-0.01750,0.00000,0.02940,0.97807,-0.18983,0.0,2023,6,7,17,8,4,583
48.83450,-0.10745,-0.08750,0.00000,0.03233,0.97734,-0.19288,0.0,2023,6,7,17,8,4,594
48.83460,-0.00245,-0.01750,0.00000,0.03148,0.97795,-0.18995,0.0,2023,6,7,17,8,4,606
48.83470,-0.00245,0.03500,0.00000,0.02989,0.97612,-0.19069,0.0,2023,6,7,17,8,4,617
48.83480,0.13755,-0.10500,0.00000,0.03172,0.97576,-0.19178,0.0,2023,6,7,17,8,4,628
48.83490,0.08505,-0.01750,0.00000,0.03257,0.97624,-0.19020,0.0,2023,6,7,17,8,4,639
48.83500,-0.10745,0.24500,0.00000,0.03257,0.97844,-0.18934,0.0,2023,6,7,17,8,4,650
48.83510,-0.00245,0.10500,0.00000,0.03001,0.97661,-0.19361,0.0,2023,6,7,17,8,4,661
48.83520,-0.22995,0.19250,0.00000,0.03209,0.97576,-0.18983,0.0,2023,6,7,17,8,4,672
48.83530,-0.15995,0.01750,0.00000,0.03001,0.97576,-0.18947,0.0,2023,6,7,17,8,4,684
48.83540,-0.15995,-0.01750,0.00000,0.03148,0.97734,-0.18995,0.0,2023,6,7,17,8,4,695
48.83550,-0.01995,0.05250,0.00000,0.03465,0.97820,-0.18849,0.0,2023,6,7,17,8,4,706
48.83560,0.22505,-0.14000,0.00000,0.03245,0.97527,-0.18983,0.0,2023,6,7,17,8,4,717
48.83570,0.01505,-0.14000,0.00000,0.03013,0.97978,-0.19008,0.0,2023,6,7,17,8,4,728
48.83580,0.01505,-0.19250,0.00000,0.03245,0.97539,-0.19178,0.0,2023,6,7,17,8,4,739
48.83590,-0.03745,0.10500,0.00000,0.03209,0.97722,-0.18959,0.0,2023,6,7,17,8,4,750
48.83600,0.15505,0.01750,0.00000,0.03294,0.97637,-0.19215,0.0,2023,6,7,17,8,4,762
48.83610,0.27755,-0.10500,0.00000,0.03184,0.97649,-0.19020,0.0,2023,6,7,17,8,4,773
48.83620,-0.00245,-0.10500,0.00000,0.03233,0.97600,-0.18739,0.0,2023,6,7,17,8,4,784
48.83630,-0.05495,0.12250,0.00000,0.03282,0.97588,-0.18861,0.0,2023,6,7,17,8,4,795
48.83640,-0.01995,0.17500,0.00000,0.03306,0.97917,-0.18764,0.0,2023,6,7,17,8,4,806
48.83650,0.06755,-0.01750,0.00000,0.03087,0.97490,-0.19178,0.0,2023,6,7,17,8,4,817
48.83660,-0.03745,-0.15750,0.00000,0.03160,0.97490,-0.18873,0.0,2023,6,7,17,8,4,829
48.83670,0.01505,-0.15750,0.00000,0.02647,0.97661,-0.19044,0.0,2023,6,7,17,8,4,840
48.83680,0.55755,0.07000,0.00000,0.03392,0.97820,-0.18922,0.0,2023,6,7,17,8,4,851
48.83690,0.29505,-0.19250,0.00000,0.03514,0.97515,-0.19313,0.0,2023,6,7,17,8,4,862
48.83700,0.22505,-0.12250,0.00000,0.03184,0.97502,-0.19642,0.0,2023,6,7,17,8,4,873
48.83710,-0.15995,-0.15750,0.00000,0.02952,0.97576,-0.19166,0.0,2023,6,7,17,8,4,884
48.83720,0.05005,0.12250,0.00000,0.03514,0.97807,-0.18739,0.0,2023,6,7,17,8,4,895
48.83730,-0.36995,-0.01750,0.00000,0.03245,0.97722,-0.18520,0.0,2023,6,7,17,8,4,907
48.83740,0.15505,-0.12250,0.00000,0.03026,0.98051,-0.19300,0.0,2023,6,7,17,8,4,918
48.83750,0.13755,-0.05250,0.00000,0.03196,0.97624,-0.18910,0.0,2023,6,7,17,8,4,929
48.83760,-0.40495,-0.19250,0.00000,0.02904,0.97710,-0.19081,0.0,2023,6,7,17,8,4,940
48.83770,0.10255,-0.24500,0.00000,0.03172,0.97710,-0.18959,0.0,2023,6,7,17,8,4,951
48.83780,-0.15995,0.00000,0.00000,0.03245,0.97734,-0.18849,0.0,2023,6,7,17,8,4,962
48.83790,0.15505,-0.21000,0.00000,0.03318,0.97380,-0.18690,0.0,2023,6,7,17,8,4,973
48.83800,-0.14245,0.10500,0.00000,0.03160,0.97856,-0.18861,0.0,2023,6,7,17,8,4,985
48.83810,0.10255,-0.05250,0.00000,0.03196,0.97441,-0.19093,0.0,2023,6,7,17,8,4,996
48.83820,-0.08995,-0.10500,0.00000,0.03099,0.97734,-0.18886,0.0,2023,6,7,17,8,5,6
48.83830,-0.08995,-0.03500,0.00000,0.03135,0.97637,-0.18703,0.0,2023,6,7,17,8,5,17
48.83840,-0.00245,-0.35000,0.00000,0.03123,0.97685,-0.18873,0.0,2023,6,7,17,8,5,28
48.83850,0.06755,-0.07000,0.00000,0.02989,0.97710,-0.18727,0.0,2023,6,7,17,8,5,39
48.83860,0.08505,-0.01750,0.00000,0.03111,0.97685,-0.18788,0.0,2023,6,7,17,8,5,51
48.83870,-0.29995,0.28000,0.00000,0.03245,0.97612,-0.19178,0.0,2023,6,7,17,8,5,62
48.83880,0.06755,0.31500,0.00000,0.03257,0.97588,-0.19020,0.0,2023,6,7,17,8,5,73
48.83890,0.12005,-0.08750,0.00000,0.03160,0.97722,-0.18861,0.0,2023,6,7,17,8,5,84
48.83900,0.03255,0.08750,0.00000,0.03001,0.97539,-0.19044,0.0,2023,6,7,17,8,5,95
48.83910,0.05005,0.12250,0.00000,0.03074,0.97710,-0.19020,0.0,2023,6,7,17,8,5,106
48.83920,0.01505,0.10500,0.00000,0.03184,0.97539,-0.19056,0.0,2023,6,7,17,8,5,117
48.83930,-0.17745,-0.08750,0.00000,0.03062,0.97820,-0.18727,0.0,2023,6,7,17,8,5,129
48.83940,0.01505,0.05250,0.00000,0.03172,0.97515,-0.18678,0.0,2023,6,7,17,8,5,140
48.83950,0.12005,0.14000,0.00000,0.03367,0.97551,-0.18812,0.0,2023,6,7,17,8,5,151
48.83960,-0.00245,0.07000,0.00000,0.03050,0.97588,-0.18776,0.0,2023,6,7,17,8,5,162
48.83970,-0.08995,0.12250,0.00000,0.03257,0.97637,-0.18971,0.0,2023,6,7,17,8,5,173
48.83980,-0.08995,0.07000,0.00000,0.03440,0.97759,-0.18873,0.0,2023,6,7,17,8,5,184
48.83990,-0.07245,0.03500,0.00000,0.03099,0.97637,-0.18849,0.0,2023,6,7,17,8,5,195
48.84000,-0.17745,-0.03500,0.00000,0.03148,0.97771,-0.18849,0.0,2023,6,7,17,8,5,207
48.84010,-0.03745,-0.07000,0.00000,0.03318,0.97673,-0.19020,0.0,2023,6,7,17,8,5,218
48.84020,0.01505,-0.10500,0.00000,0.03074,0.97624,-0.18886,0.0,2023,6,7,17,8,5,229
48.84030,-0.03745,-0.01750,0.00000,0.03099,0.97417,-0.18776,0.0,2023,6,7,17,8,5,240
48.84040,-0.00245,-0.21000,0.00000,0.03111,0.97844,-0.18910,0.0,2023,6,7,17,8,5,251
48.84050,0.03255,-0.17500,0.00000,0.03221,0.97673,-0.19105,0.0,2023,6,7,17,8,5,262
48.84060,-0.07245,-0.07000,0.00000,0.03257,0.97637,-0.19044,0.0,2023,6,7,17,8,5,274
48.84070,-0.10745,0.07000,0.00000,0.03087,0.97502,-0.18788,0.0,2023,6,7,17,8,5,285
48.84080,-0.07245,0.05250,0.00000,0.03172,0.97624,-0.18886,0.0,2023,6,7,17,8,5,296
48.84090,-0.05495,0.21000,0.00000,0.03282,0.97393,-0.18678,0.0,2023,6,7,17,8,5,307
48.84100,-0.19495,0.10500,0.00000,0.03379,0.97563,-0.18947,0.0,2023,6,7,17,8,5,318
48.84110,-0.07245,0.00000,0.00000,0.03209,0.97466,-0.19264,0.0,2023,6,7,17,8,5,329
48.84120,-0.14245,-0.14000,0.00000,0.03221,0.97637,-0.18764,0.0,2023,6,7,17,8,5,340
48.84130,-0.15995,-0.10500,0.00000,0.02952,0.97612,-0.19093,0.0,2023,6,7,17,8,5,352
48.84140,0.12005,0.14000,0.00000,0.03111,0.97832,-0.18971,0.0,2023,6,7,17,8,5,363
48.84150,-0.12495,-0.08750,0.00000,0.03026,0.97746,-0.19044,0.0,2023,6,7,17,8,5,374
48.84160,0.12005,0.10500,0.00000,0.03245,0.97820,-0.18934,0.0,2023,6,7,17,8,5,385
48.84170,0.08505,0.07000,0.00000,0.03184,0.97344,-0.18910,0.0,2023,6,7,17,8,5,396
48.84180,-0.03745,0.03500,0.00000,0.03099,0.97649,-0.18837,0.0,2023,6,7,17,8,5,407
48.84190,0.08505,0.12250,0.00000,0.03135,0.97466,-0.18971,0.0,2023,6,7,17,8,5,418
48.84200,-0.01995,0.00000,0.00000,0.03135,0.97527,-0.18690,0.0,2023,6,7,17,8,5,430
48.84210,-0.08995,-0.03500,0.00000,0.03392,0.97746,-0.18873,0.0,2023,6,7,17,8,5,441
48.84220,0.17255,0.01750,0.00000,0.03184,0.97722,-0.18642,0.0,2023,6,7,17,8,5,452
48.84230,0.01505,0.05250,0.00000,0.03001,0.97759,-0.18983,0.0,2023,6,7,17,8,5,463
48.84240,-0.10745,0.22750,0.00000,0.03123,0.97515,-0.18995,0.0,2023,6,7,17,8,5,474
48.84250,0.03255,0.05250,0.00000,0.03111,0.97673,-0.18898,0.0,2023,6,7,17,8,5,485
48.84260,-0.10745,-0.12250,0.00000,0.03148,0.97624,-0.18947,0.0,2023,6,7,17,8,5,497
48.84270,0.03255,-0.08750,0.00000,0.03123,0.97820,-0.18825,0.0,2023,6,7,17,8,5,508
48.84280,0.08505,0.01750,0.00000,0.02977,0.97771,-0.19178,0.0,2023,6,7,17,8,5,519
48.84290,-0.03745,0.03500,0.00000,0.03123,0.97881,-0.19203,0.0,2023,6,7,17,8,5,530
48.84300,-0.10745,-0.12250,0.00000,0.03074,0.97527,-0.18593,0.0,2023,6,7,17,8,5,541
48.84310,-0.03745,-0.07000,0.00000,0.03184,0.97844,-0.18837,0.0,2023,6,7,17,8,5,552
48.84320,-0.00245,0.05250,0.00000,0.03221,0.97734,-0.19056,0.0,2023,6,7,17,8,5,563
48.84330,0.12005,0.00000,0.00000,0.03148,0.97393,-0.18922,0.0,2023,6,7,17,8,5,575
48.84340,0.19005,-0.05250,0.00000,0.03148,0.97466,-0.19093,0.0,2023,6,7,17,8,5,586
48.84350,-0.00245,-0.01750,0.00000,0.03050,0.97490,-0.18910,0.0,2023,6,7,17,8,5,597
48.84360,-0.00245,0.08750,0.00000,0.03148,0.97649,-0.19239,0.0,2023,6,7,17,8,5,608
48.84370,0.19005,0.00000,0.00000,0.03257,0.97600,-0.18971,0.0,2023,6,7,17,8,5,619
48.84380,0.05005,-0.12250,0.00000,0.03062,0.97673,-0.18886,0.0,2023,6,7,17,8,5,630
48.84390,-0.10745,0.17500,0.00000,0.02830,0.97551,-0.18922,0.0,2023,6,7,17,8,5,641
48.84400,0.01505,0.00000,0.00000,0.03209,0.97795,-0.18751,0.0,2023,6,7,17,8,5,653
48.84410,-0.15995,0.24500,0.00000,0.03050,0.97795,-0.18898,0.0,2023,6,7,17,8,5,664
48.84420,0.06755,0.00000,0.00000,0.03038,0.97673,-0.18995,0.0,2023,6,7,17,8,5,675
48.84430,0.01505,0.14000,0.00000,0.03209,0.97527,-0.18947,0.0,2023,6,7,17,8,5,686
48.84440,0.06755,-0.17500,0.00000,0.03172,0.97393,-0.18642,0.0,2023,6,7,17,8,5,697
48.84450,-0.01995,0.24500,0.00000,0.02904,0.97490,-0.18812,0.0,2023,6,7,17,8,5,708
48.84460,0.03255,0.07000,0.00000,0.03306,0.97515,-0.19020,0.0,2023,6,7,17,8,5,720
48.84470,0.13755,-0.19250,0.00000,0.03245,0.97527,-0.19117,0.0,2023,6,7,17,8,5,731
48.84480,-0.08995,0.26250,0.00000,0.03099,0.97661,-0.18690,0.0,2023,6,7,17,8,5,742
48.84490,0.15505,-0.14000,0.00000,0.03318,0.97783,-0.18861,0.0,2023,6,7,17,8,5,753
48.84500,0.15505,0.07000,0.00000,0.03392,0.97576,-0.18800,0.0,2023,6,7,17,8,5,764
48.84510,-0.10745,0.03500,0.00000,0.03135,0.97685,-0.18727,0.0,2023,6,7,17,8,5,775
48.84520,-0.07245,0.29750,0.00000,0.03270,0.97637,-0.18800,0.0,2023,6,7,17,8,5,786
48.84530,0.01505,0.00000,0.00000,0.03013,0.97624,-0.19008,0.0,2023,6,7,17,8,5,798
48.84540,0.01505,-0.14000,0.00000,0.03270,0.97661,-0.18922,0.0,2023,6,7,17,8,5,809
48.84550,-0.10745,-0.01750,0.00000,0.03087,0.97612,-0.18898,0.0,2023,6,7,17,8,5,820
48.84560,-0.00245,0.08750,0.00000,0.03196,0.97795,-0.19093,0.0,2023,6,7,17,8,5,831
48.84570,0.08505,0.03500,0.00000,0.03209,0.97624,-0.19069,0.0,2023,6,7,17,8,5,842
48.84580,-0.07245,-0.21000,0.00000,0.03318,0.97820,-0.19117,0.0,2023,6,7,17,8,5,853
48.84590,0.05005,-0.05250,0.00000,0.03074,0.97478,-0.18727,0.0,2023,6,7,17,8,5,864
48.84600,-0.08995,0.12250,0.00000,0.03379,0.97551,-0.18910,0.0,2023,6,7,17,8,5,876
48.84610,-0.12495,-0.10500,0.00000,0.03184,0.97734,-0.18910,0.0,2023,6,7,17,8,5,887
48.84620,0.20755,-0.03500,0.00000,0.03038,0.97661,-0.18751,0.0,2023,6,7,17,8,5,898
48.84630,0.08505,0.17500,0.00000,0.02940,0.97734,-0.18959,0.0,2023,6,7,17,8,5,909
48.84640,0.20755,-0.14000,0.00000,0.03111,0.97746,-0.18837,0.0,2023,6,7,17,8,5,920
48.84650,0.01505,0.17500,0.00000,0.03038,0.97649,-0.18739,0.0,2023,6,7,17,8,5,931
48.84660,-0.17745,0.14000,0.00000,0.02977,0.97624,-0.19166,0.0,2023,6,7,17,8,5,943
48.84670,0.17255,0.07000,0.00000,0.03172,0.97624,-0.18800,0.0,2023,6,7,17,8,5,954
48.84680,0.24255,-0.05250,0.00000,0.03074,0.97771,-0.19130,0.0,2023,6,7,17,8,5,965
48.84690,0.10255,0.00000,0.00000,0.03160,0.97771,-0.18727,0.0,2023,6,7,17,8,5,976
48.84700,0.08505,-0.05250,0.00000,0.03013,0.97551,-0.19142,0.0,2023,6,7,17,8,5,987
48.84710,0.01505,-0.24500,0.00000,0.03209,0.97429,-0.18812,0.0,2023,6,7,17,8,5,998
48.84720,-0.08995,0.08750,0.00000,0.03050,0.97856,-0.18898,0.0,2023,6,7,17,8,6,8
48.84730,-0.12495,0.01750,0.00000,0.03135,0.97710,-0.19069,0.0,2023,6,7,17,8,6,20
48.84740,-0.07245,-0.03500,0.00000,0.03184,0.97759,-0.19008,0.0,2023,6,7,17,8,6,31
48.84750,-0.01995,0.10500,0.00000,0.03001,0.97771,-0.19215,0.0,2023,6,7,17,8,6,42
48.84760,-0.00245,0.12250,0.00000,0.03172,0.97429,-0.19239,0.0,2023,6,7,17,8,6,53
48.84770,-0.07245,-0.08750,0.00000,0.03184,0.97661,-0.18971,0.0,2023,6,7,17,8,6,64
48.84780,-0.03745,-0.10500,0.00000,0.03160,0.97685,-0.18751,0.0,2023,6,7,17,8,6,75
48.84790,0.03255,-0.01750,0.00000,0.03148,0.97649,-0.18898,0.0,2023,6,7,17,8,6,86
48.84800,-0.14245,0.24500,0.00000,0.03123,0.97685,-0.18898,0.0,2023,6,7,17,8,6,98
48.84810,0.15505,0.07000,0.00000,0.03099,0.97649,-0.19044,0.0,2023,6,7,17,8,6,109
48.84820,0.10255,0.15750,0.00000,0.03270,0.97600,-0.18898,0.0,2023,6,7,17,8,6,120
48.84830,-0.03745,-0.15750,0.00000,0.03233,0.97649,-0.19008,0.0,2023,6,7,17,8,6,131
48.84840,-0.08995,0.00000,0.00000,0.03111,0.97527,-0.19130,0.0,2023,6,7,17,8,6,142
48.84850,0.19005,0.00000,0.00000,0.03172,0.97661,-0.18776,0.0,2023,6,7,17,8,6,153
48.84860,-0.15995,-0.22750,0.00000,0.03013,0.97856,-0.18727,0.0,2023,6,7,17,8,6,165
48.84870,-0.01995,-0.17500,0.00000,0.02977,0.97746,-0.18983,0.0,2023,6,7,17,8,6,176
48.84880,-0.01995,0.00000,0.00000,0.03111,0.97710,-0.18629,0.0,2023,6,7,17,8,6,187
48.84890,-0.05495,0.08750,0.00000,0.03123,0.97685,-0.18788,0.0,2023,6,7,17,8,6,198
48.84900,-0.03745,-0.05250,0.00000,0.03087,0.97661,-0.19105,0.0,2023,6,7,17,8,6,209
48.84910,0.15505,-0.05250,0.00000,0.03367,0.97771,-0.18690,0.0,2023,6,7,17,8,6,220
48.84920,0.01505,0.12250,0.00000,0.03038,0.97807,-0.19081,0.0,2023,6,7,17,8,6,231
48.84930,0.03255,-0.19250,0.00000,0.03331,0.97539,-0.18654,0.0,2023,6,7,17,8,6,243
48.84940,-0.15995,-0.14000,0.00000,0.03160,0.97734,-0.18812,0.0,2023,6,7,17,8,6,254
48.84950,0.12005,0.01750,0.00000,0.03050,0.97527,-0.18800,0.0,2023,6,7,17,8,6,265
48.84960,-0.01995,-0.15750,0.00000,0.03099,0.97454,-0.19032,0.0,2023,6,7,17,8,6,276
48.84970,0.06755,-0.08750,0.00000,0.03245,0.97844,-0.19227,0.0,2023,6,7,17,8,6,287
48.84980,-0.08995,0.12250,0.00000,0.03233,0.97539,-0.18983,0.0,2023,6,7,17,8,6,298
48.84990,-0.07245,-0.10500,0.00000,0.03245,0.97917,-0.18898,0.0,2023,6,7,17,8,6,309
48.85000,-0.03745,0.01750,0.00000,0.03013,0.97600,-0.18922,0.0,2023,6,7,17,8,6,321
48.85010,-0.08995,0.00000,0.00000,0.03294,0.97600,-0.19020,0.0,2023,6,7,17,8,6,332
48.85020,-0.01995,-0.07000,0.00000,0.03160,0.97502,-0.18617,0.0,2023,6,7,17,8,6,343
48.85030,-0.14245,-0.05250,0.00000,0.03050,0.97746,-0.18678,0.0,2023,6,7,17,8,6,354
48.85040,-0.15995,-0.05250,0.00000,0.02940,0.97454,-0.18886,0.0,2023,6,7,17,8,6,365
48.85050,0.17255,-0.10500,0.00000,0.03184,0.97673,-0.18971,0.0,2023,6,7,17,8,6,376
48.85060,-0.10745,0.07000,0.00000,0.03087,0.97685,-0.18886,0.0,2023,6,7,17,8,6,388
48.85070,-0.10745,-0.03500,0.00000,0.03245,0.97637,-0.18764,0.0,2023,6,7,17,8,6,399
48.85080,0.03255,-0.08750,0.00000,0.03172,0.97698,-0.18934,0.0,2023,6,7,17,8,6,410
48.85090,-0.03745,0.10500,0.00000,0.02928,0.97637,-0.18971,0.0,2023,6,7,17,8,6,421
48.85100,0.05005,-0.10500,0.00000,0.03013,0.97637,-0.19227,0.0,2023,6,7,17,8,6,432
48.85110,0.03255,0.14000,0.00000,0.03233,0.97527,-0.18825,0.0,2023,6,7,17,8,6,443
48.85120,0.03255,0.08750,0.00000,0.03270,0.97649,-0.18751,0.0,2023,6,7,17,8,6,454
48.85130,0.24255,0.01750,0.00000,0.03123,0.97673,-0.18861,0.0,2023,6,7,17,8,6,466
48.85140,-0.08995,-0.03500,0.00000,0.03221,0.97515,-0.18593,0.0,2023,6,7,17,8,6,477
48.85150,-0.00245,-0.17500,0.00000,0.03245,0.97612,-0.18825,0.0,2023,6,7,17,8,6,488
48.85160,0.03255,0.00000,0.00000,0.03209,0.97783,-0.19154,0.0,2023,6,7,17,8,6,499
48.85170,-0.03745,0.01750,0.00000,0.03245,0.97551,-0.19020,0.0,2023,6,7,17,8,6,510
48.85180,0.03255,-0.01750,0.00000,0.03148,0.97551,-0.18825,0.0,2023,6,7,17,8,6,521
48.85190,-0.07245,-0.17500,0.00000,0.03172,0.97380,-0.18678,0.0,2023,6,7,17,8,6,532
48.85200,0.05005,-0.14000,0.00000,0.03026,0.97710,-0.18825,0.0,2023,6,7,17,8,6,544
48.85210,0.06755,0.05250,0.00000,0.02952,0.97624,-0.18861,0.0,2023,6,7,17,8,6,555
48.85220,0.03255,0.26250,0.00000,0.03074,0.97710,-0.18703,0.0,2023,6,7,17,8,6,566
48.85230,-0.10745,0.07000,0.00000,0.03087,0.97539,-0.18617,0.0,2023,6,7,17,8,6,577
48.85240,0.03255,0.01750,0.00000,0.03111,0.97673,-0.18947,0.0,2023,6,7,17,8,6,588
48.85250,0.12005,-0.03500,0.00000,0.03257,0.97685,-0.18934,0.0,2023,6,7,17,8,6,599
48.85260,0.01505,-0.12250,0.00000,0.03026,0.97563,-0.18947,0.0,2023,6,7,17,8,6,611
48.85270,0.12005,-0.19250,0.00000,0.03282,0.97685,-0.19142,0.0,2023,6,7,17,8,6,622
48.85280,0.01505,-0.03500,0.00000,0.03172,0.97734,-0.18739,0.0,2023,6,7,17,8,6,633
48.85290,-0.01995,0.10500,0.00000,0.03172,0.97490,-0.18995,0.0,2023,6,7,17,8,6,644
48.85300,0.05005,-0.05250,0.00000,0.03123,0.97563,-0.18715,0.0,2023,6,7,17,8,6,655
48.85310,-0.12495,0.07000,0.00000,0.03111,0.97624,-0.19032,0.0,2023,6,7,17,8,6,666
48.85320,-0.12495,-0.14000,0.00000,0.03233,0.97685,-0.18690,0.0,2023,6,7,17,8,6,677
48.85330,-0.03745,0.05250,0.00000,0.03123,0.97746,-0.19069,0.0,2023,6,7,17,8,6,689
48.85340,-0.26495,0.19250,0.00000,0.03148,0.97441,-0.18910,0.0,2023,6,7,17,8,6,700
48.85350,-0.07245,-0.10500,0.00000,0.03257,0.97661,-0.19032,0.0,2023,6,7,17,8,6,711
48.85360,-0.14245,0.10500,0.00000,0.03148,0.97783,-0.18812,0.0,2023,6,7,17,8,6,722
48.85370,-0.07245,0.05250,0.00000,0.03148,0.97637,-0.19117,0.0,2023,6,7,17,8,6,733
48.85380,0.17255,-0.17500,0.00000,0.02977,0.97722,-0.19178,0.0,2023,6,7,17,8,6,744
48.85390,0.10255,-0.08750,0.00000,0.03099,0.97759,-0.18837,0.0,2023,6,7,17,8,6,755
48.85400,-0.05495,0.05250,0.00000,0.03013,0.97698,-0.18825,0.0,2023,6,7,17,8,6,767
48.85410,0.05005,-0.08750,0.00000,0.03123,0.97771,-0.18947,0.0,2023,6,7,17,8,6,778
48.85420,0.01505,-0.01750,0.00000,0.03074,0.97478,-0.19008,0.0,2023,6,7,17,8,6,789
48.85430,-0.08995,0.12250,0.00000,0.03196,0.97624,-0.19032,0.0,2023,6,7,17,8,6,800
48.85440,-0.19495,0.03500,0.00000,0.03074,0.97600,-0.18739,0.0,2023,6,7,17,8,6,811
48.85450,-0.17745,0.05250,0.00000,0.03111,0.97466,-0.19044,0.0,2023,6,7,17,8,6,822
48.85460,-0.03745,0.03500,0.00000,0.03160,0.97673,-0.19093,0.0,2023,6,7,17,8,6,834
48.85470,-0.03745,0.12250,0.00000,0.03331,0.97722,-0.18922,0.0,2023,6,7,17,8,6,845
48.85480,0.03255,0.08750,0.00000,0.03257,0.97612,-0.19130,0.0,2023,6,7,17,8,6,856
48.85490,0.05005,0.17500,0.00000,0.02977,0.97612,-0.18873,0.0,2023,6,7,17,8,6,867
48.85500,-0.01995,0.01750,0.00000,0.03233,0.97722,-0.18861,0.0,2023,6,7,17,8,6,878
48.85510,-0.08995,0.05250,0.00000,0.03221,0.97759,-0.18922,0.0,2023,6,7,17,8,6,889
48.85520,-0.07245,0.15750,0.00000,0.03221,0.97576,-0.19044,0.0,2023,6,7,17,8,6,900
48.85530,0.06755,-0.01750,0.00000,0.03257,0.97746,-0.18751,0.0,2023,6,7,17,8,6,912
48.85540,-0.08995,-0.07000,0.00000,0.03172,0.97698,-0.18995,0.0,2023,6,7,17,8,6,923
48.85550,-0.00245,0.14000,0.00000,0.03099,0.97490,-0.19191,0.0,2023,6,7,17,8,6,934
48.85560,0.17255,0.01750,0.00000,0.02952,0.97576,-0.19203,0.0,2023,6,7,17,8,6,945
48.85570,0.13755,-0.08750,0.00000,0.03123,0.97795,-0.18703,0.0,2023,6,7,17,8,6,956
48.85580,-0.19495,0.07000,0.00000,0.03465,0.97624,-0.18873,0.0,2023,6,7,17,8,6,967
48.85590,-0.10745,0.08750,0.00000,0.03257,0.97551,-0.18861,0.0,2023,6,7,17,8,6,978
48.85600,-0.17745,0.19250,0.00000,0.03282,0.97844,-0.18983,0.0,2023,6,7,17,8,6,990
48.85610,0.10255,0.19250,0.00000,0.03099,0.97661,-0.18715,0.0,2023,6,7,17,8,6,1
48.85620,-0.10745,0.15750,0.00000,0.03184,0.97856,-0.18751,0.0,2023,6,7,17,8,7,1
48.85630,0.17255,-0.05250,0.00000,0.03221,0.97710,-0.18898,0.0,2023,6,7,17,8,7,12
48.85640,-0.00245,0.07000,0.00000,0.03038,0.97734,-0.19130,0.0,2023,6,7,17,8,7,23
48.85650,0.17255,-0.14000,0.00000,0.02977,0.97722,-0.18922,0.0,2023,6,7,17,8,7,34
48.85660,-0.03745,0.01750,0.00000,0.03209,0.97576,-0.18898,0.0,2023,6,7,17,8,7,46
48.85670,0.12005,-0.01750,0.00000,0.03135,0.97624,-0.19020,0.0,2023,6,7,17,8,7,57
48.85680,0.06755,0.07000,0.00000,0.03135,0.97722,-0.18910,0.0,2023,6,7,17,8,7,68
48.85690,0.05005,-0.22750,0.00000,0.03135,0.97551,-0.18947,0.0,2023,6,7,17,8,7,79
48.85700,0.08505,0.14000,0.00000,0.03257,0.97490,-0.18886,0.0,2023,6,7,17,8,7,90
48.85710,-0.07245,0.24500,0.00000,0.02879,0.97563,-0.18605,0.0,2023,6,7,17,8,7,101
48.85720,-0.07245,-0.07000,0.00000,0.03367,0.97637,-0.19032,0.0,2023,6,7,17,8,7,112
48.85730,0.12005,0.05250,0.00000,0.03074,0.97698,-0.19008,0.0,2023,6,7,17,8,7,124
48.85740,-0.05495,0.03500,0.00000,0.03184,0.97722,-0.19056,0.0,2023,6,7,17,8,7,135
48.85750,-0.01995,0.10500,0.00000,0.03184,0.97527,-0.18959,0.0,2023,6,7,17,8,7,146
48.85760,-0.07245,-0.07000,0.00000,0.03099,0.97698,-0.19032,0.0,2023,6,7,17,8,7,157
48.85770,-0.01995,0.19250,0.00000,0.02952,0.97820,-0.19361,0.0,2023,6,7,17,8,7,168
48.85780,-0.10745,-0.14000,0.00000,0.03306,0.97649,-0.18703,0.0,2023,6,7,17,8,7,179
48.85790,-0.15995,0.14000,0.00000,0.03184,0.97710,-0.18910,0.0,2023,6,7,17,8,7,190
48.85800,-0.00245,-0.01750,0.00000,0.03148,0.97734,-0.18934,0.0,2023,6,7,17,8,7,202
48.85810,0.06755,0.01750,0.00000,0.03440,0.97710,-0.19191,0.0,2023,6,7,17,8,7,213
48.85820,0.08505,-0.03500,0.00000,0.03062,0.97783,-0.18873,0.0,2023,6,7,17,8,7,224
48.85830,0.01505,0.03500,0.00000,0.03123,0.97771,-0.18751,0.0,2023,6,7,17,8,7,235
48.85840,-0.05495,-0.14000,0.00000,0.03001,0.97710,-0.18873,0.0,2023,6,7,17,8,7,246
48.85850,0.06755,0.05250,0.00000,0.03026,0.97893,-0.18922,0.0,2023,6,7,17,8,7,257
48.85860,0.19005,-0.01750,0.00000,0.03172,0.97820,-0.18971,0.0,2023,6,7,17,8,7,269
48.85870,-0.01995,0.05250,0.00000,0.03172,0.97502,-0.18837,0.0,2023,6,7,17,8,7,280
48.85880,-0.05495,0.28000,0.00000,0.03172,0.97685,-0.18971,0.0,2023,6,7,17,8,7,291
48.85890,0.01505,0.05250,0.00000,0.03160,0.97844,-0.18861,0.0,2023,6,7,17,8,7,302
48.85900,0.26005,-0.01750,0.00000,0.03184,0.97515,-0.19069,0.0,2023,6,7,17,8,7,313
48.85910,0.26005,-0.07000,0.00000,0.03184,0.97771,-0.18825,0.0,2023,6,7,17,8,7,324
48.85920,-0.08995,0.10500,0.00000,0.02940,0.97759,-0.18812,0.0,2023,6,7,17,8,7,335
48.85930,-0.03745,0.14000,0.00000,0.03343,0.97795,-0.18825,0.0,2023,6,7,17,8,7,347
48.85940,-0.07245,0.05250,0.00000,0.03209,0.97527,-0.18947,0.0,2023,6,7,17,8,7,358
48.85950,-0.07245,-0.03500,0.00000,0.03245,0.97685,-0.18947,0.0,2023,6,7,17,8,7,369
48.85960,-0.01995,-0.01750,0.00000,0.03172,0.97710,-0.18898,0.0,2023,6,7,17,8,7,380
48.85970,0.03255,0.08750,0.00000,0.03148,0.97698,-0.18947,0.0,2023,6,7,17,8,7,391
48.85980,0.19005,-0.14000,0.00000,0.03331,0.97942,-0.18825,0.0,2023,6,7,17,8,7,402
48.85990,-0.00245,0.03500,0.00000,0.03257,0.97856,-0.18837,0.0,2023,6,7,17,8,7,413
48.86000,-0.12495,-0.10500,0.00000,0.03038,0.97612,-0.18703,0.0,2023,6,7,17,8,7,425
48.86010,-0.14245,-0.10500,0.00000,0.03257,0.97563,-0.18947,0.0,2023,6,7,17,8,7,436
48.86020,0.03255,0.03500,0.00000,0.03038,0.97746,-0.18947,0.0,2023,6,7,17,8,7,447
48.86030,-0.01995,0.17500,0.00000,0.03172,0.97698,-0.18788,0.0,2023,6,7,17,8,7,458
48.86040,-0.24745,-0.03500,0.00000,0.03123,0.97612,-0.18776,0.0,2023,6,7,17,8,7,469
48.86050,-0.10745,0.12250,0.00000,0.03221,0.97466,-0.18873,0.0,2023,6,7,17,8,7,480
48.86060,0.08505,-0.05250,0.00000,0.03196,0.97624,-0.18861,0.0,2023,6,7,17,8,7,492
48.86070,-0.07245,-0.22750,0.00000,0.03172,0.97368,-0.18886,0.0,2023,6,7,17,8,7,503
48.86080,-0.03745,-0.12250,0.00000,0.03026,0.97820,-0.18666,0.0,2023,6,7,17,8,7,514
48.86090,0.01505,-0.14000,0.00000,0.03013,0.97637,-0.18971,0.0,2023,6,7,17,8,7,525
48.86100,0.15505,0.00000,0.00000,0.03001,0.97478,-0.18971,0.0,2023,6,7,17,8,7,536
48.86110,0.03255,0.08750,0.00000,0.03172,0.97698,-0.18922,0.0,2023,6,7,17,8,7,547
48.86120,0.06755,-0.05250,0.00000,0.03465,0.97551,-0.18825,0.0,2023,6,7,17,8,7,558
48.86130,-0.08995,0.05250,0.00000,0.03209,0.97722,-0.18764,0.0,2023,6,7,17,8,7,570
48.86140,0.06755,0.03500,0.00000,0.03196,0.97698,-0.19020,0.0,2023,6,7,17,8,7,581
48.86150,-0.10745,0.17500,0.00000,0.03196,0.97563,-0.19081,0.0,2023,6,7,17,8,7,592
48.86160,0.01505,-0.12250,0.00000,0.02879,0.97600,-0.18849,0.0,2023,6,7,17,8,7,603
48.86170,-0.05495,0.05250,0.00000,0.02977,0.97759,-0.18971,0.0,2023,6,7,17,8,7,614
48.86180,-0.14245,0.12250,0.00000,0.03148,0.97210,-0.18812,0.0,2023,6,7,17,8,7,625
48.86190,-0.03745,-0.07000,0.00000,0.03062,0.97612,-0.19130,0.0,2023,6,7,17,8,7,636
48.86200,-0.19495,-0.08750,0.00000,0.03477,0.97698,-0.18703,0.0,2023,6,7,17,8,7,648
48.86210,0.05005,0.12250,0.00000,0.03367,0.97405,-0.19032,0.0,2023,6,7,17,8,7,659
48.86220,0.33005,-0.38500,0.00000,0.03270,0.97661,-0.18764,0.0,2023,6,7,17,8,7,670
48.86230,-0.14245,0.07000,0.00000,0.03148,0.97612,-0.18800,0.0,2023,6,7,17,8,7,681
48.86240,-0.07245,0.07000,0.00000,0.03050,0.97600,-0.18703,0.0,2023,6,7,17,8,7,692
48.86250,-0.07245,0.01750,0.00000,0.03111,0.97820,-0.18959,0.0,2023,6,7,17,8,7,703
48.86260,-0.08995,-0.03500,0.00000,0.03257,0.97820,-0.18971,0.0,2023,6,7,17,8,7,715
48.86270,-0.07245,0.00000,0.00000,0.03013,0.97624,-0.19081,0.0,2023,6,7,17,8,7,726
48.86280,-0.03745,0.01750,0.00000,0.03172,0.97807,-0.18751,0.0,2023,6,7,17,8,7,737
48.86290,-0.00245,-0.17500,0.00000,0.02940,0.97917,-0.19117,0.0,2023,6,7,17,8,7,748
48.86300,-0.07245,0.22750,0.00000,0.03172,0.97966,-0.18812,0.0,2023,6,7,17,8,7,759
48.86310,-0.07245,-0.14000,0.00000,0.03148,0.97685,-0.18898,0.0,2023,6,7,17,8,7,770
48.86320,0.01505,-0.17500,0.00000,0.03160,0.97759,-0.19008,0.0,2023,6,7,17,8,7,781
48.86330,-0.22995,0.05250,0.00000,0.03135,0.97502,-0.18825,0.0,2023,6,7,17,8,7,793
48.86340,-0.14245,0.12250,0.00000,0.03074,0.97649,-0.19044,0.0,2023,6,7,17,8,7,804
48.86350,-0.05495,0.08750,0.00000,0.03270,0.97698,-0.18934,0.0,2023,6,7,17,8,7,815
48.86360,0.01505,0.03500,0.00000,0.03148,0.97588,-0.18727,0.0,2023,6,7,17,8,7,826
48.86370,0.03255,-0.10500,0.00000,0.02928,0.97673,-0.18959,0.0,2023,6,7,17,8,7,837
48.86380,-0.07245,0.10500,0.00000,0.03257,0.98100,-0.18764,0.0,2023,6,7,17,8,7,848
48.86390,0.03255,0.00000,0.00000,0.02977,0.98015,-0.18959,0.0,2023,6,7,17,8,7,859
48.86400,-0.07245,0.10500,0.00000,0.03270,0.97746,-0.18886,0.0,2023,6,7,17,8,7,871
48.86410,-0.08995,0.15750,0.00000,0.03148,0.97710,-0.18971,0.0,2023,6,7,17,8,7,882
48.86420,-0.00245,-0.03500,0.00000,0.03160,0.97844,-0.18703,0.0,2023,6,7,17,8,7,893
48.86430,-0.01995,0.07000,0.00000,0.02782,0.97661,-0.18898,0.0,2023,6,7,17,8,7,904
48.86440,0.03255,0.19250,0.00000,0.03209,0.97246,-0.18934,0.0,2023,6,7,17,8,7,915
48.86450,0.01505,0.12250,0.00000,0.03160,0.97307,-0.18898,0.0,2023,6,7,17,8,7,926
48.86460,-0.15995,-0.12250,0.00000,0.03196,0.97539,-0.19056,0.0,2023,6,7,17,8,7,938
48.86470,0.03255,0.24500,0.00000,0.03318,0.97649,-0.18971,0.0,2023,6,7,17,8,7,949
48.86480,-0.10745,-0.24500,0.00000,0.03184,0.97637,-0.18898,0.0,2023,6,7,17,8,7,960
48.86490,0.05005,-0.07000,0.00000,0.03160,0.97563,-0.19081,0.0,2023,6,7,17,8,7,971
48.86500,-0.10745,0.00000,0.00000,0.03294,0.97478,-0.19032,0.0,2023,6,7,17,8,7,982
48.86510,-0.07245,-0.01750,0.00000,0.03209,0.97929,-0.18764,0.0,2023,6,7,17,8,7,993
48.86520,-0.03745,-0.05250,0.00000,0.03172,0.97454,-0.18849,0.0,2023,6,7,17,8,7,4
48.86530,-0.14245,0.07000,0.00000,0.02940,0.97685,-0.18739,0.0,2023,6,7,17,8,8,5
48.86540,-0.08995,0.15750,0.00000,0.03270,0.97466,-0.18849,0.0,2023,6,7,17,8,8,16
48.86550,-0.07245,-0.01750,0.00000,0.03062,0.97807,-0.18788,0.0,2023,6,7,17,8,8,27
48.86560,-0.05495,0.05250,0.00000,0.03038,0.97759,-0.18507,0.0,2023,6,7,17,8,8,38
48.86570,-0.00245,0.12250,0.00000,0.03111,0.97881,-0.18873,0.0,2023,6,7,17,8,8,49
48.86580,-0.03745,0.07000,0.00000,0.02891,0.97600,-0.19008,0.0,2023,6,7,17,8,8,60
48.86590,-0.14245,0.12250,0.00000,0.03148,0.97588,-0.19056,0.0,2023,6,7,17,8,8,71
48.86600,0.01505,-0.05250,0.00000,0.03184,0.97807,-0.19008,0.0,2023,6,7,17,8,8,83
48.86610,-0.05495,-0.08750,0.00000,0.03135,0.97539,-0.18776,0.0,2023,6,7,17,8,8,94
48.86620,-0.07245,0.10500,0.00000,0.03135,0.97698,-0.19215,0.0,2023,6,7,17,8,8,105
48.86630,0.06755,0.15750,0.00000,0.03050,0.97478,-0.18922,0.0,2023,6,7,17,8,8,116
48.86640,-0.00245,0.07000,0.00000,0.03196,0.97551,-0.19008,0.0,2023,6,7,17,8,8,127
48.86650,0.08505,-0.15750,0.00000,0.03148,0.97746,-0.18788,0.0,2023,6,7,17,8,8,138
48.86660,-0.19495,-0.07000,0.00000,0.03026,0.97429,-0.18971,0.0,2023,6,7,17,8,8,150
48.86670,0.24255,0.26250,0.00000,0.02928,0.97746,-0.19178,0.0,2023,6,7,17,8,8,161
48.86680,-0.07245,0.08750,0.00000,0.03270,0.97466,-0.18971,0.0,2023,6,7,17,8,8,172
48.86690,-0.15995,-0.10500,0.00000,0.03087,0.97576,-0.19105,0.0,2023,6,7,17,8,8,183
48.86700,0.08505,0.05250,0.00000,0.03221,0.97515,-0.19032,0.0,2023,6,7,17,8,8,194
48.86710,-0.28245,0.14000,0.00000,0.03270,0.97698,-0.19093,0.0,2023,6,7,17,8,8,205
48.86720,0.01505,-0.08750,0.00000,0.03379,0.97685,-0.19239,0.0,2023,6,7,17,8,8,216
48.86730,0.27755,-0.15750,0.00000,0.03038,0.97856,-0.19215,0.0,2023,6,7,17,8,8,228
48.86740,-0.26495,0.08750,0.00000,0.03148,0.97673,-0.18922,0.0,2023,6,7,17,8,8,239
48.86750,-0.08995,-0.07000,0.00000,0.03087,0.97759,-0.18959,0.0,2023,6,7,17,8,8,250
48.86760,-0.15995,0.12250,0.00000,0.03148,0.97685,-0.18995,0.0,2023,6,7,17,8,8,261
48.86770,-0.05495,-0.10500,0.00000,0.03062,0.97600,-0.18995,0.0,2023,6,7,17,8,8,272
48.86780,-0.03745,-0.14000,0.00000,0.03038,0.97661,-0.18995,0.0,2023,6,7,17,8,8,283
48.86790,-0.07245,-0.05250,0.00000,0.03172,0.97429,-0.18788,0.0,2023,6,7,17,8,8,294
48.86800,0.06755,-0.05250,0.00000,0.03172,0.97673,-0.18983,0.0,2023,6,7,17,8,8,306
48.86810,0.22505,-0.08750,0.00000,0.03038,0.97954,-0.18910,0.0,2023,6,7,17,8,8,317
48.86820,-0.12495,0.01750,0.00000,0.03148,0.97576,-0.18959,0.0,2023,6,7,17,8,8,328
48.86830,-0.14245,0.07000,0.00000,0.03245,0.97746,-0.18922,0.0,2023,6,7,17,8,8,339
48.86840,-0.05495,-0.05250,0.00000,0.03062,0.97783,-0.18666,0.0,2023,6,7,17,8,8,350
48.86850,-0.19495,0.03500,0.00000,0.03209,0.97673,-0.18971,0.0,2023,6,7,17,8,8,361
48.86860,-0.10745,0.17500,0.00000,0.03148,0.97539,-0.19215,0.0,2023,6,7,17,8,8,373
48.86870,-0.01995,0.15750,0.00000,0.03050,0.97734,-0.19264,0.0,2023,6,7,17,8,8,384
48.86880,-0.07245,0.07000,0.00000,0.03331,0.97710,-0.19008,0.0,2023,6,7,17,8,8,395
48.86890,0.13755,-0.08750,0.00000,0.03355,0.97698,-0.19166,0.0,2023,6,7,17,8,8,406
48.86900,-0.00245,-0.10500,0.00000,0.03135,0.97649,-0.19105,0.0,2023,6,7,17,8,8,417
48.86910,0.15505,0.07000,0.00000,0.03062,0.97783,-0.18776,0.0,2023,6,7,17,8,8,428
48.86920,-0.10745,0.05250,0.00000,0.03233,0.97588,-0.18934,0.0,2023,6,7,17,8,8,439
48.86930,0.06755,0.15750,0.00000,0.02977,0.97710,-0.18971,0.0,2023,6,7,17,8,8,451
48.86940,-0.05495,-0.14000,0.00000,0.03184,0.97795,-0.18861,0.0,2023,6,7,17,8,8,462
48.86950,0.12005,-0.12250,0.00000,0.03282,0.97624,-0.19081,0.0,2023,6,7,17,8,8,473
48.86960,-0.05495,0.07000,0.00000,0.03282,0.97783,-0.18971,0.0,2023,6,7,17,8,8,484
48.86970,-0.05495,0.24500,0.00000,0.03257,0.97441,-0.18995,0.0,2023,6,7,17,8,8,495
48.86980,0.01505,0.00000,0.00000,0.03379,0.97710,-0.18995,0.0,2023,6,7,17,8,8,506
48.86990,0.13755,-0.10500,0.00000,0.03318,0.97539,-0.18910,0.0,2023,6,7,17,8,8,517
48.87000,-0.07245,0.12250,0.00000,0.03318,0.97441,-0.19081,0.0,2023,6,7,17,8,8,529
48.87010,0.03255,0.08750,0.00000,0.03160,0.97454,-0.18959,0.0,2023,6,7,17,8,8,540
48.87020,0.15505,-0.03500,0.00000,0.03087,0.97759,-0.19056,0.0,2023,6,7,17,8,8,551
48.87030,-0.10745,0.05250,0.00000,0.03172,0.97746,-0.18764,0.0,2023,6,7,17,8,8,562
48.87040,0.03255,0.07000,0.00000,0.02940,0.97685,-0.18959,0.0,2023,6,7,17,8,8,573
48.87050,0.03255,0.19250,0.00000,0.03050,0.97649,-0.18861,0.0,2023,6,7,17,8,8,584
48.87060,0.15505,-0.15750,0.00000,0.02965,0.97649,-0.18873,0.0,2023,6,7,17,8,8,596
48.87070,-0.03745,-0.01750,0.00000,0.03306,0.97515,-0.18764,0.0,2023,6,7,17,8,8,607
48.87080,-0.10745,0.00000,0.00000,0.03282,0.97551,-0.18959,0.0,2023,6,7,17,8,8,618
48.87090,0.08505,0.12250,0.00000,0.03270,0.97734,-0.18947,0.0,2023,6,7,17,8,8,629
48.87100,0.01505,0.19250,0.00000,0.03123,0.97673,-0.18947,0.0,2023,6,7,17,8,8,640
48.87110,-0.07245,0.14000,0.00000,0.02977,0.97661,-0.18910,0.0,2023,6,7,17,8,8,651
48.87120,-0.01995,0.22750,0.00000,0.03123,0.97759,-0.18715,0.0,2023,6,7,17,8,8,662
48.87130,0.03255,0.00000,0.00000,0.03062,0.97722,-0.18800,0.0,2023,6,7,17,8,8,674
48.87140,0.13755,-0.01750,0.00000,0.02855,0.97832,-0.18776,0.0,2023,6,7,17,8,8,685
48.87150,-0.03745,-0.17500,0.00000,0.03135,0.97637,-0.18837,0.0,2023,6,7,17,8,8,696
48.87160,0.05005,-0.01750,0.00000,0.03331,0.97795,-0.18654,0.0,2023,6,7,17,8,8,707
48.87170,0.01505,-0.15750,0.00000,0.03172,0.97661,-0.18776,0.0,2023,6,7,17,8,8,718
48.87180,-0.12495,-0.10500,0.00000,0.03148,0.97612,-0.19020,0.0,2023,6,7,17,8,8,729
48.87190,-0.05495,0.19250,0.00000,0.03123,0.97527,-0.18812,0.0,2023,6,7,17,8,8,740
48.87200,0.12005,-0.07000,0.00000,0.03184,0.97502,-0.18971,0.0,2023,6,7,17,8,8,752
48.87210,0.15505,-0.01750,0.00000,0.03038,0.97588,-0.18861,0.0,2023,6,7,17,8,8,763
48.87220,-0.08995,0.07000,0.00000,0.03355,0.97563,-0.18788,0.0,2023,6,7,17,8,8,774
48.87230,-0.05495,0.15750,0.00000,0.02891,0.97783,-0.18788,0.0,2023,6,7,17,8,8,785
48.87240,-0.03745,0.07000,0.00000,0.03257,0.97661,-0.18568,0.0,2023,6,7,17,8,8,796
48.87250,-0.10745,-0.17500,0.00000,0.03148,0.97746,-0.18959,0.0,2023,6,7,17,8,8,807
48.87260,0.08505,0.03500,0.00000,0.03282,0.97478,-0.19032,0.0,2023,6,7,17,8,8,819
48.87270,-0.12495,0.00000,0.00000,0.02904,0.97588,-0.18873,0.0,2023,6,7,17,8,8,830
48.87280,0.05005,0.10500,0.00000,0.03379,0.97746,-0.19069,0.0,2023,6,7,17,8,8,841
48.87290,0.03255,-0.03500,0.00000,0.03318,0.97771,-0.18703,0.0,2023,6,7,17,8,8,852
48.87300,0.08505,-0.12250,0.00000,0.03331,0.97795,-0.18922,0.0,2023,6,7,17,8,8,863
48.87310,-0.07245,0.12250,0.00000,0.02879,0.97637,-0.19154,0.0,2023,6,7,17,8,8,874
48.87320,-0.01995,0.00000,0.00000,0.03453,0.97502,-0.18886,0.0,2023,6,7,17,8,8,885
48.87330,-0.07245,-0.03500,0.00000,0.03318,0.97539,-0.18800,0.0,2023,6,7,17,8,8,897
48.87340,0.03255,-0.07000,0.00000,0.03196,0.97600,-0.18947,0.0,2023,6,7,17,8,8,908
48.87350,0.05005,0.10500,0.00000,0.03160,0.97710,-0.18886,0.0,2023,6,7,17,8,8,919
48.87360,0.06755,-0.05250,0.00000,0.03013,0.97649,-0.18788,0.0,2023,6,7,17,8,8,930
48.87370,-0.08995,0.08750,0.00000,0.03270,0.97600,-0.18690,0.0,2023,6,7,17,8,8,941
48.87380,-0.12495,-0.10500,0.00000,0.03306,0.97551,-0.18776,0.0,2023,6,7,17,8,8,952
48.87390,-0.10745,0.12250,0.00000,0.03026,0.97673,-0.18886,0.0,2023,6,7,17,8,8,963
48.87400,0.10255,-0.19250,0.00000,0.03209,0.97637,-0.19069,0.0,2023,6,7,17,8,8,975
48.87410,-0.17745,0.15750,0.00000,0.03233,0.97576,-0.18776,0.0,2023,6,7,17,8,8,986
48.87420,-0.10745,0.21000,0.00000,0.03184,0.97698,-0.18751,0.0,2023,6,7,17,8,8,997
48.87430,0.10255,0.07000,0.00000,0.03160,0.97929,-0.18934,0.0,2023,6,7,17,8,9,7
48.87440,0.10255,0.00000,0.00000,0.03001,0.97698,-0.19178,0.0,2023,6,7,17,8,9,18
48.87450,-0.10745,-0.01750,0.00000,0.03074,0.97710,-0.18751,0.0,2023,6,7,17,8,9,29
48.87460,0.15505,-0.05250,0.00000,0.03148,0.97722,-0.18776,0.0,2023,6,7,17,8,9,41
48.87470,-0.10745,0.01750,0.00000,0.03062,0.97783,-0.18800,0.0,2023,6,7,17,8,9,52
48.87480,-0.12495,-0.15750,0.00000,0.02989,0.97637,-0.19081,0.0,2023,6,7,17,8,9,63
48.87490,-0.08995,0.14000,0.00000,0.03209,0.97429,-0.18849,0.0,2023,6,7,17,8,9,74
48.87500,-0.19495,0.05250,0.00000,0.03257,0.97649,-0.18898,0.0,2023,6,7,17,8,9,85
48.87510,-0.19495,0.03500,0.00000,0.03074,0.97698,-0.19032,0.0,2023,6,7,17,8,9,96
48.87520,-0.00245,-0.08750,0.00000,0.03331,0.97624,-0.19008,0.0,2023,6,7,17,8,9,107
48.87530,0.08505,-0.19250,0.00000,0.03209,0.97454,-0.18873,0.0,2023,6,7,17,8,9,119
48.87540,0.17255,0.03500,0.00000,0.03087,0.97820,-0.18922,0.0,2023,6,7,17,8,9,130
48.87550,0.13755,-0.03500,0.00000,0.03282,0.97576,-0.18739,0.0,2023,6,7,17,8,9,141
48.87560,-0.07245,-0.01750,0.00000,0.03209,0.97612,-0.18959,0.0,2023,6,7,17,8,9,152
48.87570,-0.01995,0.12250,0.00000,0.03172,0.97685,-0.18825,0.0,2023,6,7,17,8,9,163
48.87580,-0.08995,0.05250,0.00000,0.03245,0.97795,-0.18837,0.0,2023,6,7,17,8,9,174
48.87590,-0.15995,0.03500,0.00000,0.03123,0.97710,-0.18666,0.0,2023,6,7,17,8,9,185
48.87600,0.06755,-0.03500,0.00000,0.03123,0.97454,-0.18825,0.0,2023,6,7,17,8,9,197
48.87610,0.05005,-0.10500,0.00000,0.03245,0.97698,-0.19008,0.0,2023,6,7,17,8,9,208
48.87620,-0.03745,0.07000,0.00000,0.03270,0.97612,-0.18800,0.0,2023,6,7,17,8,9,219
48.87630,-0.07245,0.24500,0.00000,0.03148,0.97759,-0.18825,0.0,2023,6,7,17,8,9,230
48.87640,0.12005,-0.19250,0.00000,0.02952,0.97844,-0.18910,0.0,2023,6,7,17,8,9,241
48.87650,-0.07245,-0.08750,0.00000,0.02989,0.97551,-0.19056,0.0,2023,6,7,17,8,9,252
48.87660,-0.10745,-0.08750,0.00000,0.03160,0.97710,-0.18861,0.0,2023,6,7,17,8,9,264
48.87670,-0.05495,0.00000,0.00000,0.03050,0.97783,-0.18861,0.0,2023,6,7,17,8,9,275
48.87680,-0.01995,-0.07000,0.00000,0.03294,0.97490,-0.18544,0.0,2023,6,7,17,8,9,286
48.87690,-0.00245,-0.14000,0.00000,0.03160,0.97417,-0.18739,0.0,2023,6,7,17,8,9,297
48.87700,-0.08995,-0.10500,0.00000,0.03050,0.97637,-0.18837,0.0,2023,6,7,17,8,9,308
48.87710,-0.05495,0.00000,0.00000,0.03209,0.97893,-0.19044,0.0,2023,6,7,17,8,9,319
48.87720,-0.15995,-0.07000,0.00000,0.03001,0.97722,-0.18800,0.0,2023,6,7,17,8,9,330
48.87730,0.01505,0.00000,0.00000,0.03038,0.97807,-0.18995,0.0,2023,6,7,17,8,9,342
48.87740,0.03255,-0.01750,0.00000,0.03050,0.97929,-0.18922,0.0,2023,6,7,17,8,9,353
48.87750,-0.03745,-0.12250,0.00000,0.02977,0.97722,-0.18849,0.0,2023,6,7,17,8,9,364
48.87760,0.08505,0.10500,0.00000,0.03148,0.97466,-0.18654,0.0,2023,6,7,17,8,9,375
48.87770,-0.15995,0.24500,0.00000,0.03123,0.97722,-0.18654,0.0,2023,6,7,17,8,9,386
48.87780,-0.08995,0.03500,0.00000,0.03355,0.97698,-0.18934,0.0,2023,6,7,17,8,9,397
48.87790,0.03255,-0.15750,0.00000,0.03013,0.97502,-0.18764,0.0,2023,6,7,17,8,9,408
48.87800,0.03255,-0.12250,0.00000,0.03087,0.97490,-0.18812,0.0,2023,6,7,17,8,9,420
48.87810,-0.05495,0.01750,0.00000,0.03148,0.97551,-0.18971,0.0,2023,6,7,17,8,9,431
48.87820,0.10255,0.07000,0.00000,0.03221,0.97380,-0.18959,0.0,2023,6,7,17,8,9,442
48.87830,0.12005,0.07000,0.00000,0.03209,0.97783,-0.18922,0.0,2023,6,7,17,8,9,453
48.87840,-0.00245,-0.15750,0.00000,0.03001,0.97600,-0.18788,0.0,2023,6,7,17,8,9,464
48.87850,-0.08995,0.15750,0.00000,0.03318,0.97551,-0.18825,0.0,2023,6,7,17,8,9,475
48.87860,-0.19495,-0.01750,0.00000,0.03318,0.97698,-0.18532,0.0,2023,6,7,17,8,9,487
48.87870,0.17255,-0.17500,0.00000,0.03062,0.97746,-0.18922,0.0,2023,6,7,17,8,9,498
48.87880,0.06755,-0.05250,0.00000,0.03331,0.97624,-0.18971,0.0,2023,6,7,17,8,9,509
48.87890,0.01505,-0.05250,0.00000,0.03087,0.97685,-0.18995,0.0,2023,6,7,17,8,9,520
48.87900,0.13755,0.07000,0.00000,0.03233,0.97576,-0.19056,0.0,2023,6,7,17,8,9,531
48.87910,0.10255,0.01750,0.00000,0.02952,0.97881,-0.18910,0.0,2023,6,7,17,8,9,542
48.87920,-0.08995,-0.05250,0.00000,0.03062,0.97795,-0.19020,0.0,2023,6,7,17,8,9,553
48.87930,-0.10745,0.21000,0.00000,0.03209,0.97820,-0.18556,0.0,2023,6,7,17,8,9,565
48.87940,0.03255,-0.24500,0.00000,0.03440,0.97429,-0.18678,0.0,2023,6,7,17,8,9,576
48.87950,-0.01995,-0.14000,0.00000,0.03062,0.97441,-0.18568,0.0,2023,6,7,17,8,9,587
48.87960,0.13755,-0.08750,0.00000,0.03135,0.97722,-0.18837,0.0,2023,6,7,17,8,9,598
48.87970,-0.01995,-0.21000,0.00000,0.03123,0.97698,-0.18788,0.0,2023,6,7,17,8,9,609
48.87980,0.01505,-0.01750,0.00000,0.03294,0.97515,-0.19081,0.0,2023,6,7,17,8,9,620
48.87990,0.13755,0.00000,0.00000,0.03111,0.97844,-0.18605,0.0,2023,6,7,17,8,9,631
48.88000,-0.14245,-0.05250,0.00000,0.03294,0.97844,-0.18922,0.0,2023,6,7,17,8,9,643
48.88010,-0.10745,-0.12250,0.00000,0.03270,0.97698,-0.18922,0.0,2023,6,7,17,8,9,654
48.88020,-0.01995,0.00000,0.00000,0.03172,0.97685,-0.18825,0.0,2023,6,7,17,8,9,665
48.88030,-0.24745,-0.10500,0.00000,0.03099,0.97478,-0.18727,0.0,2023,6,7,17,8,9,676
48.88040,-0.00245,-0.01750,0.00000,0.03135,0.97563,-0.18825,0.0,2023,6,7,17,8,9,687
48.88050,-0.03745,-0.10500,0.00000,0.03221,0.97649,-0.18642,0.0,2023,6,7,17,8,9,698
48.88060,-0.07245,-0.07000,0.00000,0.03087,0.97454,-0.19142,0.0,2023,6,7,17,8,9,710
48.88070,0.03255,0.03500,0.00000,0.03257,0.97746,-0.19056,0.0,2023,6,7,17,8,9,721
48.88080,0.06755,0.00000,0.00000,0.03270,0.97722,-0.18910,0.0,2023,6,7,17,8,9,732
48.88090,0.08505,-0.07000,0.00000,0.03379,0.97759,-0.19130,0.0,2023,6,7,17,8,9,743
48.88100,-0.00245,-0.10500,0.00000,0.03038,0.97673,-0.18983,0.0,2023,6,7,17,8,9,754
48.88110,-0.12495,-0.15750,0.00000,0.03013,0.97795,-0.18727,0.0,2023,6,7,17,8,9,765
48.88120,-0.12495,-0.08750,0.00000,0.02977,0.97637,-0.18812,0.0,2023,6,7,17,8,9,776
48.88130,-0.01995,0.12250,0.00000,0.03343,0.97698,-0.18837,0.0,2023,6,7,17,8,9,788
48.88140,-0.17745,0.10500,0.00000,0.03135,0.97624,-0.18861,0.0,2023,6,7,17,8,9,799
48.88150,0.20755,0.07000,0.00000,0.03196,0.97466,-0.18678,0.0,2023,6,7,17,8,9,810
48.88160,0.10255,-0.15750,0.00000,0.03013,0.97612,-0.18910,0.0,2023,6,7,17,8,9,821
48.88170,-0.14245,0.07000,0.00000,0.03257,0.97698,-0.18959,0.0,2023,6,7,17,8,9,832
48.88180,0.05005,0.00000,0.00000,0.03160,0.97710,-0.18873,0.0,2023,6,7,17,8,9,843
48.88190,0.06755,-0.01750,0.00000,0.03160,0.97795,-0.18837,0.0,2023,6,7,17,8,9,854
48.88200,-0.03745,0.10500,0.00000,0.03318,0.97624,-0.18727,0.0,2023,6,7,17,8,9,866
48.88210,-0.10745,0.14000,0.00000,0.03306,0.97771,-0.18959,0.0,2023,6,7,17,8,9,877
48.88220,-0.03745,-0.24500,0.00000,0.03294,0.97710,-0.18861,0.0,2023,6,7,17,8,9,888
48.88230,0.03255,-0.01750,0.00000,0.03013,0.97673,-0.18849,0.0,2023,6,7,17,8,9,899
48.88240,-0.05495,-0.07000,0.00000,0.03282,0.97588,-0.18800,0.0,2023,6,7,17,8,9,910
48.88250,0.10255,-0.10500,0.00000,0.03355,0.97807,-0.18764,0.0,2023,6,7,17,8,9,921
48.88260,-0.29995,0.21000,0.00000,0.03160,0.97600,-0.18739,0.0,2023,6,7,17,8,9,933
48.88270,-0.07245,0.03500,0.00000,0.03111,0.97759,-0.19069,0.0,2023,6,7,17,8,9,944
48.88280,-0.08995,-0.03500,0.00000,0.03038,0.97673,-0.18873,0.0,2023,6,7,17,8,9,955
48.88290,0.06755,0.03500,0.00000,0.03111,0.97515,-0.19215,0.0,2023,6,7,17,8,9,966
48.88300,-0.24745,0.00000,0.00000,0.03221,0.97673,-0.18642,0.0,2023,6,7,17,8,9,977
48.88310,-0.05495,-0.03500,0.00000,0.03001,0.97746,-0.18812,0.0,2023,6,7,17,8,9,988
48.88320,-0.05495,-0.08750,0.00000,0.03135,0.97783,-0.18727,0.0,2023,6,7,17,8,9,999
48.88330,0.01505,-0.05250,0.00000,0.03196,0.97380,-0.18825,0.0,2023,6,7,17,8,10,10
48.88340,-0.12495,0.05250,0.00000,0.03196,0.97649,-0.18910,0.0,2023,6,7,17,8,10,21
48.88350,-0.10745,0.19250,0.00000,0.03123,0.97649,-0.18593,0.0,2023,6,7,17,8,10,32
48.88360,-0.08995,0.03500,0.00000,0.03184,0.97588,-0.19020,0.0,2023,6,7,17,8,10,43
48.88370,-0.08995,0.08750,0.00000,0.02965,0.97563,-0.18812,0.0,2023,6,7,17,8,10,54
48.88380,-0.01995,-0.10500,0.00000,0.03245,0.97710,-0.18983,0.0,2023,6,7,17,8,10,65
48.88390,-0.05495,-0.07000,0.00000,0.03343,0.97649,-0.18715,0.0,2023,6,7,17,8,10,76
48.88400,-0.17745,0.05250,0.00000,0.02989,0.97771,-0.18825,0.0,2023,6,7,17,8,10,88
48.88410,-0.00245,0.01750,0.00000,0.03270,0.97893,-0.18849,0.0,2023,6,7,17,8,10,99
48.88420,0.19005,-0.15750,0.00000,0.03160,0.97637,-0.19105,0.0,2023,6,7,17,8,10,110
48.88430,-0.17745,0.03500,0.00000,0.03148,0.97502,-0.18666,0.0,2023,6,7,17,8,10,121
48.88440,-0.08995,-0.19250,0.00000,0.03038,0.97637,-0.18861,0.0,2023,6,7,17,8,10,132
48.88450,0.08505,0.07000,0.00000,0.03221,0.97649,-0.18678,0.0,2023,6,7,17,8,10,143
48.88460,-0.10745,-0.33250,0.00000,0.03099,0.97685,-0.18800,0.0,2023,6,7,17,8,10,155
48.88470,0.01505,-0.05250,0.00000,0.03196,0.97368,-0.19056,0.0,2023,6,7,17,8,10,166
48.88480,-0.21245,0.00000,0.00000,0.03233,0.97685,-0.18764,0.0,2023,6,7,17,8,10,177
48.88490,-0.10745,0.08750,0.00000,0.02965,0.97600,-0.18849,0.0,2023,6,7,17,8,10,188
48.88500,-0.05495,0.00000,0.00000,0.03404,0.97551,-0.18678,0.0,2023,6,7,17,8,10,199
48.88510,-0.12495,-0.01750,0.00000,0.03087,0.97807,-0.18642,0.0,2023,6,7,17,8,10,210
48.88520,-0.00245,0.05250,0.00000,0.03282,0.97649,-0.18898,0.0,2023,6,7,17,8,10,221
48.88530,0.05005,0.03500,0.00000,0.03294,0.97502,-0.18873,0.0,2023,6,7,17,8,10,233
48.88540,0.08505,-0.17500,0.00000,0.03062,0.97563,-0.18751,0.0,2023,6,7,17,8,10,244
48.88550,0.08505,-0.07000,0.00000,0.03013,0.97734,-0.18776,0.0,2023,6,7,17,8,10,255
48.88560,-0.17745,0.00000,0.00000,0.03026,0.97856,-0.18947,0.0,2023,6,7,17,8,10,266
48.88570,-0.05495,0.15750,0.00000,0.03160,0.97820,-0.18922,0.0,2023,6,7,17,8,10,277
48.88580,0.05005,-0.12250,0.00000,0.03050,0.97588,-0.18898,0.0,2023,6,7,17,8,10,288
48.88590,0.22505,-0.03500,0.00000,0.02977,0.97588,-0.18934,0.0,2023,6,7,17,8,10,299
48.88600,-0.05495,0.15750,0.00000,0.03026,0.97734,-0.18849,0.0,2023,6,7,17,8,10,311
48.88610,0.08505,0.05250,0.00000,0.03196,0.97612,-0.18873,0.0,2023,6,7,17,8,10,322
48.88620,-0.03745,-0.05250,0.00000,0.03001,0.97624,-0.18849,0.0,2023,6,7,17,8,10,333
48.88630,0.12005,0.03500,0.00000,0.03282,0.97734,-0.18837,0.0,2023,6,7,17,8,10,344
48.88640,-0.10745,-0.14000,0.00000,0.03221,0.97637,-0.18715,0.0,2023,6,7,17,8,10,355
48.88650,0.01505,0.15750,0.00000,0.03087,0.97551,-0.18776,0.0,2023,6,7,17,8,10,366
48.88660,0.08505,-0.19250,0.00000,0.03074,0.97820,-0.18837,0.0,2023,6,7,17,8,10,378
48.88670,-0.14245,0.14000,0.00000,0.03099,0.97722,-0.18812,0.0,2023,6,7,17,8,10,389
48.88680,-0.07245,-0.10500,0.00000,0.02977,0.97527,-0.18617,0.0,2023,6,7,17,8,10,400
48.88690,-0.24745,0.10500,0.00000,0.03343,0.97454,-0.18922,0.0,2023,6,7,17,8,10,411
48.88700,0.10255,0.00000,0.00000,0.03392,0.97771,-0.18483,0.0,2023,6,7,17,8,10,422
48.88710,-0.05495,-0.19250,0.00000,0.03123,0.97624,-0.18934,0.0,2023,6,7,17,8,10,433
48.88720,-0.03745,-0.05250,0.00000,0.03196,0.97563,-0.18800,0.0,2023,6,7,17,8,10,444
48.88730,-0.03745,0.17500,0.00000,0.03123,0.97515,-0.18922,0.0,2023,6,7,17,8,10,456
48.88740,0.06755,-0.12250,0.00000,0.03184,0.97734,-0.18886,0.0,2023,6,7,17,8,10,467
48.88750,-0.01995,0.22750,0.00000,0.03160,0.97795,-0.18934,0.0,2023,6,7,17,8,10,478
48.88760,-0.03745,0.05250,0.00000,0.03135,0.97588,-0.18971,0.0,2023,6,7,17,8,10,489
48.88770,-0.08995,-0.12250,0.00000,0.03135,0.97612,-0.18898,0.0,2023,6,7,17,8,10,500
48.88780,0.08505,-0.10500,0.00000,0.03221,0.97856,-0.18825,0.0,2023,6,7,17,8,10,511
48.88790,-0.08995,0.15750,0.00000,0.03087,0.97527,-0.18568,0.0,2023,6,7,17,8,10,522
48.88800,-0.17745,0.24500,0.00000,0.03209,0.97856,-0.18812,0.0,2023,6,7,17,8,10,534
48.88810,0.08505,-0.22750,0.00000,0.02977,0.97661,-0.18788,0.0,2023,6,7,17,8,10,545
48.88820,-0.19495,0.28000,0.00000,0.03184,0.97673,-0.18812,0.0,2023,6,7,17,8,10,556
48.88830,-0.10745,0.07000,0.00000,0.03074,0.97698,-0.18837,0.0,2023,6,7,17,8,10,567
48.88840,0.08505,-0.10500,0.00000,0.03294,0.97563,-0.18873,0.0,2023,6,7,17,8,10,578
48.88850,-0.07245,-0.05250,0.00000,0.02940,0.97771,-0.18800,0.0,2023,6,7,17,8,10,589
48.88860,0.20755,0.00000,0.00000,0.03184,0.97600,-0.18886,0.0,2023,6,7,17,8,10,601
48.88870,-0.19495,-0.01750,0.00000,0.02952,0.97563,-0.18959,0.0,2023,6,7,17,8,10,612
48.88880,-0.05495,0.12250,0.00000,0.03160,0.97612,-0.18739,0.0,2023,6,7,17,8,10,623
48.88890,-0.01995,0.01750,0.00000,0.03111,0.97673,-0.18849,0.0,2023,6,7,17,8,10,634
48.88900,0.19005,0.03500,0.00000,0.03050,0.97746,-0.18642,0.0,2023,6,7,17,8,10,645
48.88910,-0.05495,0.14000,0.00000,0.03160,0.97722,-0.18861,0.0,2023,6,7,17,8,10,656
48.88920,0.03255,-0.19250,0.00000,0.03270,0.97600,-0.18629,0.0,2023,6,7,17,8,10,667
48.88930,0.05005,-0.10500,0.00000,0.03123,0.97893,-0.18642,0.0,2023,6,7,17,8,10,679
48.88940,0.06755,0.14000,0.00000,0.02989,0.97685,-0.18995,0.0,2023,6,7,17,8,10,690
48.88950,-0.12495,0.17500,0.00000,0.03196,0.97515,-0.18764,0.0,2023,6,7,17,8,10,701
48.88960,0.05005,-0.12250,0.00000,0.03135,0.97771,-0.18751,0.0,2023,6,7,17,8,10,712
48.88970,-0.01995,-0.05250,0.00000,0.03074,0.97649,-0.18764,0.0,2023,6,7,17,8,10,723
48.88980,-0.03745,-0.12250,0.00000,0.03184,0.97868,-0.19056,0.0,2023,6,7,17,8,10,734
48.88990,-0.00245,-0.14000,0.00000,0.03074,0.97624,-0.18959,0.0,2023,6,7,17,8,10,745
48.89000,0.03255,0.05250,0.00000,0.03038,0.98161,-0.18959,0.0,2023,6,7,17,8,10,757
48.89010,0.12005,0.26250,0.00000,0.03196,0.97722,-0.18886,0.0,2023,6,7,17,8,10,768
48.89020,0.05005,-0.01750,0.00000,0.02977,0.97710,-0.18751,0.0,2023,6,7,17,8,10,779
48.89030,0.05005,0.05250,0.00000,0.03184,0.97807,-0.18971,0.0,2023,6,7,17,8,10,790
48.89040,0.17255,-0.15750,0.00000,0.03245,0.97612,-0.18800,0.0,2023,6,7,17,8,10,801
48.89050,-0.19495,0.12250,0.00000,0.03026,0.97637,-0.18544,0.0,2023,6,7,17,8,10,812
48.89060,0.12005,0.14000,0.00000,0.03050,0.97490,-0.18776,0.0,2023,6,7,17,8,10,824
48.89070,0.10255,0.07000,0.00000,0.03135,0.97515,-0.18959,0.0,2023,6,7,17,8,10,835
48.89080,-0.15995,0.21000,0.00000,0.03111,0.97771,-0.18727,0.0,2023,6,7,17,8,10,846
48.89090,-0.14245,0.05250,0.00000,0.03099,0.97222,-0.18971,0.0,2023,6,7,17,8,10,857
48.89100,-0.07245,-0.03500,0.00000,0.03209,0.97490,-0.18642,0.0,2023,6,7,17,8,10,868
48.89110,-0.08995,-0.14000,0.00000,0.03172,0.97588,-0.18776,0.0,2023,6,7,17,8,10,879
48.89120,-0.03745,-0.01750,0.00000,0.03318,0.97673,-0.18886,0.0,2023,6,7,17,8,10,890
48.89130,0.15505,0.21000,0.00000,0.02989,0.97783,-0.19008,0.0,2023,6,7,17,8,10,902
48.89140,0.01505,-0.05250,0.00000,0.03160,0.97600,-0.18800,0.0,2023,6,7,17,8,10,913
48.89150,0.08505,0.03500,0.00000,0.03050,0.97734,-0.18812,0.0,2023,6,7,17,8,10,924
48.89160,-0.01995,-0.14000,0.00000,0.03306,0.97563,-0.18971,0.0,2023,6,7,17,8,10,935
48.89170,-0.01995,-0.14000,0.00000,0.03062,0.97844,-0.18873,0.0,2023,6,7,17,8,10,946
48.89180,-0.10745,0.03500,0.00000,0.03111,0.97673,-0.18934,0.0,2023,6,7,17,8,10,957
48.89190,0.03255,0.03500,0.00000,0.03026,0.97454,-0.19020,0.0,2023,6,7,17,8,10,968
48.89200,-0.00245,-0.17500,0.00000,0.03184,0.97515,-0.18703,0.0,2023,6,7,17,8,10,980
48.89210,0.01505,-0.01750,0.00000,0.02977,0.97685,-0.18776,0.0,2023,6,7,17,8,10,991
48.89220,0.13755,-0.03500,0.00000,0.03257,0.97759,-0.18971,0.0,2023,6,7,17,8,11,1
48.89230,-0.14245,0.03500,0.00000,0.03270,0.97612,-0.18959,0.0,2023,6,7,17,8,11,12
48.89240,0.08505,-0.05250,0.00000,0.03196,0.97612,-0.18995,0.0,2023,6,7,17,8,11,23
48.89250,-0.00245,0.03500,0.00000,0.03294,0.97478,-0.18849,0.0,2023,6,7,17,8,11,34
48.89260,0.06755,-0.33250,0.00000,0.03038,0.97771,-0.18703,0.0,2023,6,7,17,8,11,46
48.89270,-0.01995,-0.14000,0.00000,0.03196,0.97832,-0.18983,0.0,2023,6,7,17,8,11,57
48.89280,0.06755,0.15750,0.00000,0.03209,0.97624,-0.19020,0.0,2023,6,7,17,8,11,68
48.89290,-0.00245,-0.01750,0.00000,0.03245,0.97917,-0.18947,0.0,2023,6,7,17,8,11,79
48.89300,0.20755,0.03500,0.00000,0.03294,0.97722,-0.18825,0.0,2023,6,7,17,8,11,90
48.89310,-0.17745,-0.01750,0.00000,0.03160,0.97771,-0.19069,0.0,2023,6,7,17,8,11,101
48.89320,-0.00245,-0.21000,0.00000,0.03148,0.97637,-0.18947,0.0,2023,6,7,17,8,11,112
48.89330,-0.05495,0.10500,0.00000,0.03209,0.97698,-0.18910,0.0,2023,6,7,17,8,11,124
48.89340,0.12005,0.01750,0.00000,0.03074,0.97429,-0.18678,0.0,2023,6,7,17,8,11,135
48.89350,0.05005,-0.12250,0.00000,0.03184,0.97515,-0.18727,0.0,2023,6,7,17,8,11,146
48.89360,-0.12495,-0.01750,0.00000,0.03123,0.97698,-0.18727,0.0,2023,6,7,17,8,11,157
48.89370,-0.14245,-0.05250,0.00000,0.03074,0.97600,-0.18886,0.0,2023,6,7,17,8,11,168
48.89380,0.12005,-0.07000,0.00000,0.03282,0.97527,-0.18703,0.0,2023,6,7,17,8,11,179
48.89390,0.05005,-0.05250,0.00000,0.03160,0.97600,-0.18959,0.0,2023,6,7,17,8,11,190
48.89400,-0.08995,0.05250,0.00000,0.03099,0.97576,-0.18825,0.0,2023,6,7,17,8,11,202
48.89410,0.05005,-0.03500,0.00000,0.03294,0.97612,-0.18995,0.0,2023,6,7,17,8,11,213
48.89420,0.17255,-0.14000,0.00000,0.03257,0.97588,-0.19105,0.0,2023,6,7,17,8,11,224
48.89430,-0.10745,-0.07000,0.00000,0.03404,0.97649,-0.19069,0.0,2023,6,7,17,8,11,235
48.89440,0.24255,-0.12250,0.00000,0.03306,0.97722,-0.18898,0.0,2023,6,7,17,8,11,246
48.89450,-0.05495,0.03500,0.00000,0.03221,0.97673,-0.18654,0.0,2023,6,7,17,8,11,257
48.89460,-0.08995,-0.10500,0.00000,0.03123,0.97698,-0.18642,0.0,2023,6,7,17,8,11,269
48.89470,-0.15995,0.00000,0.00000,0.02940,0.97405,-0.18715,0.0,2023,6,7,17,8,11,280
48.89480,-0.10745,0.07000,0.00000,0.03209,0.97551,-0.18849,0.0,2023,6,7,17,8,11,291
48.89490,0.05005,-0.03500,0.00000,0.03343,0.97734,-0.18873,0.0,2023,6,7,17,8,11,302
48.89500,-0.10745,0.10500,0.00000,0.03160,0.97551,-0.19032,0.0,2023,6,7,17,8,11,313
48.89510,0.10255,-0.15750,0.00000,0.03135,0.97710,-0.18849,0.0,2023,6,7,17,8,11,324
48.89520,0.12005,-0.07000,0.00000,0.03074,0.97844,-0.18666,0.0,2023,6,7,17,8,11,335
48.89530,-0.10745,0.22750,0.00000,0.03074,0.97539,-0.18837,0.0,2023,6,7,17,8,11,347
48.89540,0.19005,-0.08750,0.00000,0.02989,0.97612,-0.18922,0.0,2023,6,7,17,8,11,358
48.89550,-0.01995,-0.15750,0.00000,0.03196,0.97637,-0.18898,0.0,2023,6,7,17,8,11,369
48.89560,0.01505,0.15750,0.00000,0.03148,0.97600,-0.18873,0.0,2023,6,7,17,8,11,380
48.89570,-0.21245,0.05250,0.00000,0.02989,0.97722,-0.18593,0.0,2023,6,7,17,8,11,391
48.89580,-0.12495,-0.03500,0.00000,0.03453,0.97502,-0.19056,0.0,2023,6,7,17,8,11,402
48.89590,-0.03745,-0.07000,0.00000,0.03001,0.97576,-0.18812,0.0,2023,6,7,17,8,11,413
48.89600,0.13755,-0.01750,0.00000,0.02977,0.97783,-0.18861,0.0,2023,6,7,17,8,11,425
48.89610,0.01505,0.08750,0.00000,0.03184,0.97612,-0.18886,0.0,2023,6,7,17,8,11,436
48.89620,-0.05495,0.05250,0.00000,0.03123,0.97746,-0.18886,0.0,2023,6,7,17,8,11,447
48.89630,0.20755,0.05250,0.00000,0.03160,0.97771,-0.18605,0.0,2023,6,7,17,8,11,458
48.89640,-0.08995,0.03500,0.00000,0.03062,0.97710,-0.18812,0.0,2023,6,7,17,8,11,469
48.89650,0.06755,-0.01750,0.00000,0.03379,0.97600,-0.18873,0.0,2023,6,7,17,8,11,480
48.89660,0.03255,-0.26250,0.00000,0.03160,0.97771,-0.18629,0.0,2023,6,7,17,8,11,492
48.89670,-0.21245,0.07000,0.00000,0.03123,0.97551,-0.18642,0.0,2023,6,7,17,8,11,503
48.89680,-0.12495,0.17500,0.00000,0.03245,0.97661,-0.18995,0.0,2023,6,7,17,8,11,514
48.89690,0.06755,0.15750,0.00000,0.03221,0.97637,-0.18849,0.0,2023,6,7,17,8,11,525
48.89700,-0.01995,-0.15750,0.00000,0.03111,0.97551,-0.18788,0.0,2023,6,7,17,8,11,536
48.89710,0.01505,-0.17500,0.00000,0.03050,0.97710,-0.19093,0.0,2023,6,7,17,8,11,547
48.89720,0.12005,-0.08750,0.00000,0.03306,0.97563,-0.19008,0.0,2023,6,7,17,8,11,558
48.89730,-0.21245,0.07000,0.00000,0.03172,0.97771,-0.18776,0.0,2023,6,7,17,8,11,570
48.89740,0.03255,-0.12250,0.00000,0.03196,0.97905,-0.18849,0.0,2023,6,7,17,8,11,581
48.89750,-0.15995,-0.07000,0.00000,0.02696,0.97734,-0.19069,0.0,2023,6,7,17,8,11,592
48.89760,-0.14245,0.08750,0.00000,0.02952,0.97588,-0.18703,0.0,2023,6,7,17,8,11,603
48.89770,-0.21245,0.01750,0.00000,0.03282,0.97637,-0.18617,0.0,2023,6,7,17,8,11,614
48.89780,-0.10745,0.26250,0.00000,0.02977,0.97600,-0.18776,0.0,2023,6,7,17,8,11,625
48.89790,-0.00245,-0.03500,0.00000,0.03306,0.97771,-0.18837,0.0,2023,6,7,17,8,11,636
48.89800,0.13755,-0.12250,0.00000,0.03099,0.97722,-0.19178,0.0,2023,6,7,17,8,11,648
48.89810,-0.10745,-0.03500,0.00000,0.02989,0.97576,-0.19142,0.0,2023,6,7,17,8,11,659
48.89820,0.15505,-0.05250,0.00000,0.03184,0.97576,-0.18959,0.0,2023,6,7,17,8,11,670
48.89830,-0.07245,0.12250,0.00000,0.02904,0.97637,-0.18934,0.0,2023,6,7,17,8,11,681
48.89840,-0.00245,0.00000,0.00000,0.02904,0.97771,-0.18861,0.0,2023,6,7,17,8,11,692
48.89850,-0.01995,-0.21000,0.00000,0.02830,0.97661,-0.19056,0.0,2023,6,7,17,8,11,703
48.89860,-0.01995,-0.08750,0.00000,0.03196,0.97490,-0.18812,0.0,2023,6,7,17,8,11,715
48.89870,-0.00245,0.22750,0.00000,0.03306,0.97759,-0.19020,0.0,2023,6,7,17,8,11,726
48.89880,-0.14245,-0.03500,0.00000,0.03001,0.97612,-0.19142,0.0,2023,6,7,17,8,11,737
48.89890,0.15505,-0.12250,0.00000,0.03233,0.97380,-0.18922,0.0,2023,6,7,17,8,11,748
48.89900,0.05005,0.00000,0.00000,0.03282,0.97624,-0.18995,0.0,2023,6,7,17,8,11,759
48.89910,0.03255,-0.01750,0.00000,0.03160,0.97698,-0.19130,0.0,2023,6,7,17,8,11,770
48.89920,0.01505,0.00000,0.00000,0.03062,0.97673,-0.18934,0.0,2023,6,7,17,8,11,781
48.89930,-0.19495,0.05250,0.00000,0.03306,0.97771,-0.19178,0.0,2023,6,7,17,8,11,793
48.89940,0.05005,-0.15750,0.00000,0.03233,0.97637,-0.18995,0.0,2023,6,7,17,8,11,804
48.89950,0.08505,0.05250,0.00000,0.03355,0.97624,-0.19056,0.0,2023,6,7,17,8,11,815
48.89960,-0.01995,-0.12250,0.00000,0.02940,0.97417,-0.18690,0.0,2023,6,7,17,8,11,826
48.89970,-0.07245,0.08750,0.00000,0.03123,0.97551,-0.19044,0.0,2023,6,7,17,8,11,837
48.89980,0.05005,-0.19250,0.00000,0.03221,0.98015,-0.18764,0.0,2023,6,7,17,8,11,848
48.89990,-0.22995,0.24500,0.00000,0.03087,0.97856,-0.18995,0.0,2023,6,7,17,8,11,859
48.90000,0.06755,-0.03500,0.00000,0.03160,0.97722,-0.18825,0.0,2023,6,7,17,8,11,871
48.90010,-0.05495,-0.10500,0.00000,0.02989,0.97722,-0.19044,0.0,2023,6,7,17,8,11,882
48.90020,-0.05495,-0.12250,0.00000,0.03257,0.97722,-0.18544,0.0,2023,6,7,17,8,11,893
48.90030,0.22505,0.05250,0.00000,0.03160,0.97515,-0.18849,0.0,2023,6,7,17,8,11,904
48.90040,-0.28245,0.00000,0.00000,0.03282,0.97746,-0.18934,0.0,2023,6,7,17,8,11,915
48.90050,-0.08995,0.36750,0.00000,0.03135,0.97710,-0.18971,0.0,2023,6,7,17,8,11,926
48.90060,-0.03745,-0.14000,0.00000,0.03074,0.97600,-0.18739,0.0,2023,6,7,17,8,11,938
48.90070,0.13755,0.19250,0.00000,0.03245,0.97856,-0.18825,0.0,2023,6,7,17,8,11,949
48.90080,-0.10745,-0.05250,0.00000,0.03453,0.97527,-0.18873,0.0,2023,6,7,17,8,11,960
48.90090,0.10255,-0.08750,0.00000,0.03233,0.97807,-0.18983,0.0,2023,6,7,17,8,11,971
48.90100,0.24255,0.05250,0.00000,0.03074,0.97685,-0.18812,0.0,2023,6,7,17,8,11,982
48.90110,-0.01995,0.05250,0.00000,0.03221,0.97734,-0.18678,0.0,2023,6,7,17,8,11,993
48.90120,0.05005,0.10500,0.00000,0.03294,0.97771,-0.18666,0.0,2023,6,7,17,8,12,3
48.90130,-0.03745,-0.12250,0.00000,0.03013,0.97429,-0.18751,0.0,2023,6,7,17,8,12,15
48.90140,-0.01995,0.05250,0.00000,0.03135,0.98003,-0.19288,0.0,2023,6,7,17,8,12,26
48.90150,0.01505,-0.05250,0.00000,0.03123,0.97759,-0.19032,0.0,2023,6,7,17,8,12,37
48.90160,-0.14245,-0.03500,0.00000,0.02977,0.97649,-0.18873,0.0,2023,6,7,17,8,12,48
48.90170,-0.01995,-0.03500,0.00000,0.03099,0.97624,-0.18800,0.0,2023,6,7,17,8,12,59
48.90180,0.08505,0.03500,0.00000,0.03184,0.97746,-0.18788,0.0,2023,6,7,17,8,12,70
48.90190,0.10255,-0.14000,0.00000,0.03172,0.97771,-0.19044,0.0,2023,6,7,17,8,12,81
48.90200,-0.03745,0.00000,0.00000,0.02916,0.97710,-0.19239,0.0,2023,6,7,17,8,12,93
48.90210,0.10255,0.01750,0.00000,0.02965,0.97820,-0.18849,0.0,2023,6,7,17,8,12,104
48.90220,-0.05495,-0.08750,0.00000,0.03294,0.97527,-0.18995,0.0,2023,6,7,17,8,12,115
48.90230,-0.10745,0.10500,0.00000,0.02952,0.97710,-0.18983,0.0,2023,6,7,17,8,12,126
48.90240,0.10255,-0.21000,0.00000,0.03148,0.97685,-0.18934,0.0,2023,6,7,17,8,12,137
48.90250,0.10255,0.17500,0.00000,0.03331,0.97722,-0.18971,0.0,2023,6,7,17,8,12,148
48.90260,-0.01995,-0.08750,0.00000,0.03050,0.97771,-0.18800,0.0,2023,6,7,17,8,12,160
48.90270,-0.17745,-0.03500,0.00000,0.03074,0.97673,-0.18544,0.0,2023,6,7,17,8,12,171
48.90280,0.08505,0.10500,0.00000,0.03050,0.97515,-0.18934,0.0,2023,6,7,17,8,12,182
48.90290,-0.03745,-0.07000,0.00000,0.03209,0.97624,-0.18947,0.0,2023,6,7,17,8,12,193
48.90300,-0.22995,0.05250,0.00000,0.03209,0.97807,-0.18849,0.0,2023,6,7,17,8,12,204
48.90310,0.17255,-0.01750,0.00000,0.03343,0.97844,-0.18849,0.0,2023,6,7,17,8,12,215
48.90320,-0.24745,0.08750,0.00000,0.03245,0.97746,-0.19093,0.0,2023,6,7,17,8,12,226
48.90330,-0.07245,-0.05250,0.00000,0.03099,0.97759,-0.18971,0.0,2023,6,7,17,8,12,238
48.90340,0.13755,-0.07000,0.00000,0.03257,0.97612,-0.19044,0.0,2023,6,7,17,8,12,249
48.90350,-0.08995,-0.36750,0.00000,0.03135,0.97624,-0.18849,0.0,2023,6,7,17,8,12,260
48.90360,-0.14245,0.01750,0.00000,0.03135,0.97612,-0.18788,0.0,2023,6,7,17,8,12,271
48.90370,-0.07245,-0.01750,0.00000,0.03233,0.97759,-0.18776,0.0,2023,6,7,17,8,12,282
48.90380,0.03255,-0.03500,0.00000,0.03209,0.97710,-0.18983,0.0,2023,6,7,17,8,12,293
48.90390,-0.15995,0.31500,0.00000,0.03184,0.97539,-0.19081,0.0,2023,6,7,17,8,12,304
48.90400,-0.24745,0.07000,0.00000,0.03343,0.97429,-0.18800,0.0,2023,6,7,17,8,12,316
48.90410,-0.14245,-0.01750,0.00000,0.03184,0.97368,-0.18910,0.0,2023,6,7,17,8,12,327
48.90420,-0.07245,-0.01750,0.00000,0.03123,0.97637,-0.19008,0.0,2023,6,7,17,8,12,338
48.90430,0.24255,-0.07000,0.00000,0.03221,0.97563,-0.18922,0.0,2023,6,7,17,8,12,349
48.90440,-0.08995,0.05250,0.00000,0.03111,0.97954,-0.18983,0.0,2023,6,7,17,8,12,360
48.90450,0.17255,-0.21000,0.00000,0.03233,0.97917,-0.18727,0.0,2023,6,7,17,8,12,371
48.90460,0.08505,0.03500,0.00000,0.03282,0.97698,-0.19032,0.0,2023,6,7,17,8,12,383
48.90470,0.22505,-0.07000,0.00000,0.03050,0.97771,-0.19215,0.0,2023,6,7,17,8,12,394
48.90480,-0.07245,0.12250,0.00000,0.03123,0.97637,-0.19056,0.0,2023,6,7,17,8,12,405
48.90490,0.06755,-0.03500,0.00000,0.03184,0.97490,-0.18764,0.0,2023,6,7,17,8,12,416
48.90500,-0.14245,0.21000,0.00000,0.03318,0.97612,-0.18959,0.0,2023,6,7,17,8,12,427
48.90510,-0.00245,0.12250,0.00000,0.03343,0.97612,-0.18934,0.0,2023,6,7,17,8,12,438
48.90520,0.12005,-0.19250,0.00000,0.03172,0.97551,-0.18837,0.0,2023,6,7,17,8,12,449
48.90530,-0.19495,0.07000,0.00000,0.03270,0.97807,-0.18727,0.0,2023,6,7,17,8,12,461
48.90540,0.03255,-0.08750,0.00000,0.03221,0.97637,-0.18788,0.0,2023,6,7,17,8,12,472
48.90550,0.03255,0.10500,0.00000,0.02977,0.97783,-0.19154,0.0,2023,6,7,17,8,12,483
48.90560,-0.14245,-0.05250,0.00000,0.03123,0.97783,-0.19325,0.0,2023,6,7,17,8,12,494
48.90570,-0.00245,-0.17500,0.00000,0.03038,0.97563,-0.19191,0.0,2023,6,7,17,8,12,505
48.90580,0.15505,-0.14000,0.00000,0.03123,0.97600,-0.18971,0.0,2023,6,7,17,8,12,516
48.90590,-0.12495,0.24500,0.00000,0.03123,0.97588,-0.18959,0.0,2023,6,7,17,8,12,527
48.90600,-0.01995,-0.05250,0.00000,0.03270,0.97649,-0.19093,0.0,2023,6,7,17,8,12,539
48.90610,0.13755,-0.10500,0.00000,0.03026,0.97600,-0.19215,0.0,2023,6,7,17,8,12,550
48.90620,-0.01995,0.12250,0.00000,0.03282,0.97527,-0.18873,0.0,2023,6,7,17,8,12,561
48.90630,0.13755,0.05250,0.00000,0.03294,0.97637,-0.18983,0.0,2023,6,7,17,8,12,572
48.90640,0.06755,-0.14000,0.00000,0.02940,0.97673,-0.18788,0.0,2023,6,7,17,8,12,583
48.90650,-0.07245,-0.08750,0.00000,0.03196,0.97588,-0.19044,0.0,2023,6,7,17,8,12,594
48.90660,0.13755,-0.05250,0.00000,0.03087,0.97515,-0.19008,0.0,2023,6,7,17,8,12,606
48.90670,-0.07245,-0.03500,0.00000,0.03013,0.97600,-0.18666,0.0,2023,6,7,17,8,12,617
48.90680,-0.12495,0.10500,0.00000,0.03318,0.97637,-0.18959,0.0,2023,6,7,17,8,12,628
48.90690,0.01505,-0.19250,0.00000,0.03221,0.97649,-0.18751,0.0,2023,6,7,17,8,12,639
48.90700,-0.14245,0.12250,0.00000,0.03209,0.97795,-0.18812,0.0,2023,6,7,17,8,12,650
48.90710,0.03255,-0.21000,0.00000,0.02989,0.97722,-0.18983,0.0,2023,6,7,17,8,12,661
48.90720,0.10255,-0.01750,0.00000,0.03135,0.97624,-0.19044,0.0,2023,6,7,17,8,12,672
48.90730,-0.00245,-0.07000,0.00000,0.03111,0.97551,-0.18873,0.0,2023,6,7,17,8,12,684
48.90740,0.05005,-0.08750,0.00000,0.03160,0.97368,-0.18849,0.0,2023,6,7,17,8,12,695
48.90750,0.17255,0.08750,0.00000,0.03111,0.97661,-0.19069,0.0,2023,6,7,17,8,12,706
48.90760,0.13755,-0.10500,0.00000,0.03099,0.97673,-0.19081,0.0,2023,6,7,17,8,12,717
48.90770,-0.00245,0.10500,0.00000,0.03087,0.97820,-0.18837,0.0,2023,6,7,17,8,12,728
48.90780,0.03255,-0.14000,0.00000,0.03160,0.97783,-0.19020,0.0,2023,6,7,17,8,12,739
48.90790,-0.14245,0.07000,0.00000,0.03221,0.97380,-0.18873,0.0,2023,6,7,17,8,12,750
48.90800,0.03255,0.01750,0.00000,0.03123,0.97685,-0.18995,0.0,2023,6,7,17,8,12,762
48.90810,-0.10745,0.01750,0.00000,0.03074,0.97527,-0.19069,0.0,2023,6,7,17,8,12,773
48.90820,0.10255,0.05250,0.00000,0.03123,0.97722,-0.18861,0.0,2023,6,7,17,8,12,784
48.90830,0.15505,-0.21000,0.00000,0.03172,0.97637,-0.18873,0.0,2023,6,7,17,8,12,795
48.90840,0.05005,-0.07000,0.00000,0.03270,0.97637,-0.18776,0.0,2023,6,7,17,8,12,806
48.90850,0.12005,-0.08750,0.00000,0.03306,0.97576,-0.18971,0.0,2023,6,7,17,8,12,817
48.90860,0.10255,-0.01750,0.00000,0.02879,0.97661,-0.19239,0.0,2023,6,7,17,8,12,829
48.90870,-0.15995,-0.14000,0.00000,0.03074,0.97551,-0.18727,0.0,2023,6,7,17,8,12,840
48.90880,-0.17745,0.14000,0.00000,0.03331,0.97624,-0.18861,0.0,2023,6,7,17,8,12,851
48.90890,-0.07245,-0.05250,0.00000,0.03135,0.97759,-0.18837,0.0,2023,6,7,17,8,12,862
48.90900,0.08505,0.15750,0.00000,0.03282,0.97380,-0.19008,0.0,2023,6,7,17,8,12,873
48.90910,-0.26495,-0.08750,0.00000,0.03050,0.97466,-0.19020,0.0,2023,6,7,17,8,12,884
48.90920,0.13755,-0.12250,0.00000,0.03367,0.97478,-0.19008,0.0,2023,6,7,17,8,12,895
48.90930,0.01505,0.14000,0.00000,0.03367,0.97490,-0.18886,0.0,2023,6,7,17,8,12,907
48.90940,-0.03745,-0.14000,0.00000,0.03318,0.97722,-0.18873,0.0,2023,6,7,17,8,12,918
48.90950,0.19005,0.08750,0.00000,0.02843,0.97917,-0.19117,0.0,2023,6,7,17,8,12,929
48.90960,-0.17745,0.24500,0.00000,0.03270,0.97710,-0.19020,0.0,2023,6,7,17,8,12,940
48.90970,-0.15995,0.10500,0.00000,0.03233,0.97673,-0.18995,0.0,2023,6,7,17,8,12,951
48.90980,-0.00245,0.03500,0.00000,0.03221,0.97661,-0.19105,0.0,2023,6,7,17,8,12,962
48.90990,0.08505,0.00000,0.00000,0.03099,0.97490,-0.18727,0.0,2023,6,7,17,8,12,973
48.91000,-0.00245,0.00000,0.00000,0.03184,0.97515,-0.19008,0.0,2023,6,7,17,8,12,985
48.91010,-0.07245,-0.03500,0.00000,0.03270,0.97661,-0.19032,0.0,2023,6,7,17,8,12,996
48.91020,0.08505,0.10500,0.00000,0.03160,0.97868,-0.18886,0.0,2023,6,7,17,8,13,6
48.91030,-0.08995,0.10500,0.00000,0.03221,0.97429,-0.18837,0.0,2023,6,7,17,8,13,17
48.91040,0.01505,0.05250,0.00000,0.03306,0.97588,-0.18910,0.0,2023,6,7,17,8,13,28
48.91050,-0.05495,-0.14000,0.00000,0.03184,0.97466,-0.19008,0.0,2023,6,7,17,8,13,39
48.91060,-0.01995,-0.15750,0.00000,0.02904,0.97734,-0.19020,0.0,2023,6,7,17,8,13,51
48.91070,0.12005,0.08750,0.00000,0.03062,0.97539,-0.18934,0.0,2023,6,7,17,8,13,62
48.91080,-0.21245,-0.01750,0.00000,0.02989,0.97502,-0.18666,0.0,2023,6,7,17,8,13,73
48.91090,-0.21245,0.08750,0.00000,0.03196,0.97539,-0.18715,0.0,2023,6,7,17,8,13,84
48.91100,0.03255,-0.15750,0.00000,0.03379,0.97637,-0.18788,0.0,2023,6,7,17,8,13,95
48.91110,-0.15995,-0.03500,0.00000,0.02891,0.97637,-0.19069,0.0,2023,6,7,17,8,13,106
48.91120,0.06755,-0.01750,0.00000,0.03087,0.97539,-0.18922,0.0,2023,6,7,17,8,13,117
48.91130,-0.01995,-0.15750,0.00000,0.03233,0.97722,-0.18727,0.0,2023,6,7,17,8,13,129
48.91140,-0.03745,0.14000,0.00000,0.03099,0.97551,-0.18959,0.0,2023,6,7,17,8,13,140
48.91150,0.20755,0.05250,0.00000,0.03270,0.97722,-0.19020,0.0,2023,6,7,17,8,13,151
48.91160,0.05005,0.00000,0.00000,0.03282,0.97844,-0.18971,0.0,2023,6,7,17,8,13,162
48.91170,-0.17745,0.03500,0.00000,0.03257,0.97698,-0.18825,0.0,2023,6,7,17,8,13,173
48.91180,0.05005,-0.01750,0.00000,0.03135,0.97502,-0.18471,0.0,2023,6,7,17,8,13,184
48.91190,-0.01995,-0.08750,0.00000,0.03148,0.97807,-0.18617,0.0,2023,6,7,17,8,13,195
48.91200,0.17255,-0.14000,0.00000,0.03062,0.97722,-0.19056,0.0,2023,6,7,17,8,13,207
48.91210,-0.00245,0.01750,0.00000,0.03245,0.97576,-0.18849,0.0,2023,6,7,17,8,13,218
48.91220,-0.10745,-0.12250,0.00000,0.03026,0.97502,-0.18739,0.0,2023,6,7,17,8,13,229
48.91230,-0.08995,0.22750,0.00000,0.03318,0.97710,-0.19117,0.0,2023,6,7,17,8,13,240
48.91240,-0.10745,-0.07000,0.00000,0.03111,0.97771,-0.18764,0.0,2023,6,7,17,8,13,251
48.91250,0.06755,-0.12250,0.00000,0.03123,0.97722,-0.19081,0.0,2023,6,7,17,8,13,262
48.91260,0.03255,0.15750,0.00000,0.03099,0.97844,-0.19081,0.0,2023,6,7,17,8,13,274
48.91270,-0.12495,-0.17500,0.00000,0.03148,0.97624,-0.18764,0.0,2023,6,7,17,8,13,285
48.91280,-0.00245,0.10500,0.00000,0.03172,0.97515,-0.18629,0.0,2023,6,7,17,8,13,296
48.91290,-0.12495,0.07000,0.00000,0.03148,0.97527,-0.18581,0.0,2023,6,7,17,8,13,307
48.91300,-0.01995,-0.07000,0.00000,0.03233,0.97685,-0.18812,0.0,2023,6,7,17,8,13,318
48.91310,-0.14245,0.08750,0.00000,0.03172,0.97576,-0.18849,0.0,2023,6,7,17,8,13,329
48.91320,-0.07245,0.08750,0.00000,0.03087,0.97820,-0.18983,0.0,2023,6,7,17,8,13,340
48.91330,-0.01995,-0.21000,0.00000,0.03050,0.97515,-0.18934,0.0,2023,6,7,17,8,13,352
48.91340,0.08505,-0.01750,0.00000,0.03245,0.97356,-0.18934,0.0,2023,6,7,17,8,13,363
48.91350,-0.03745,0.05250,0.00000,0.03087,0.97332,-0.18873,0.0,2023,6,7,17,8,13,374
48.91360,-0.12495,0.00000,0.00000,0.03087,0.97710,-0.18812,0.0,2023,6,7,17,8,13,385
48.91370,-0.00245,0.03500,0.00000,0.03062,0.97576,-0.19178,0.0,2023,6,7,17,8,13,396
48.91380,-0.08995,-0.14000,0.00000,0.02952,0.97563,-0.19081,0.0,2023,6,7,17,8,13,407
48.91390,0.01505,0.08750,0.00000,0.03184,0.97502,-0.18910,0.0,2023,6,7,17,8,13,418
48.91400,-0.03745,0.05250,0.00000,0.03160,0.97539,-0.18812,0.0,2023,6,7,17,8,13,430
48.91410,-0.05495,0.05250,0.00000,0.03062,0.97771,-0.18971,0.0,2023,6,7,17,8,13,441
48.91420,0.05005,-0.10500,0.00000,0.03001,0.97466,-0.19020,0.0,2023,6,7,17,8,13,452
48.91430,0.38255,-0.12250,0.00000,0.03099,0.97612,-0.18886,0.0,2023,6,7,17,8,13,463
48.91440,-0.10745,0.00000,0.00000,0.03135,0.97673,-0.18788,0.0,2023,6,7,17,8,13,474
48.91450,-0.15995,0.05250,0.00000,0.03282,0.97490,-0.18983,0.0,2023,6,7,17,8,13,485
48.91460,0.06755,-0.05250,0.00000,0.03135,0.98015,-0.19020,0.0,2023,6,7,17,8,13,497
48.91470,-0.12495,0.22750,0.00000,0.03294,0.97868,-0.18959,0.0,2023,6,7,17,8,13,508
48.91480,-0.00245,0.07000,0.00000,0.03172,0.97551,-0.18800,0.0,2023,6,7,17,8,13,519
48.91490,0.03255,-0.14000,0.00000,0.02879,0.97698,-0.19020,0.0,2023,6,7,17,8,13,530
48.91500,-0.07245,-0.05250,0.00000,0.03318,0.97405,-0.18776,0.0,2023,6,7,17,8,13,541
48.91510,-0.05495,-0.12250,0.00000,0.03013,0.97515,-0.18788,0.0,2023,6,7,17,8,13,552
48.91520,-0.07245,-0.01750,0.00000,0.03355,0.97710,-0.19105,0.0,2023,6,7,17,8,13,563
48.91530,0.06755,0.19250,0.00000,0.03074,0.97673,-0.18727,0.0,2023,6,7,17,8,13,575
48.91540,-0.00245,-0.07000,0.00000,0.03196,0.97917,-0.19093,0.0,2023,6,7,17,8,13,586
48.91550,0.01505,0.05250,0.00000,0.03257,0.97612,-0.18934,0.0,2023,6,7,17,8,13,597
48.91560,-0.03745,-0.01750,0.00000,0.02843,0.97563,-0.18837,0.0,2023,6,7,17,8,13,608
48.91570,-0.19495,-0.12250,0.00000,0.03282,0.97539,-0.19069,0.0,2023,6,7,17,8,13,619
48.91580,0.19005,0.15750,0.00000,0.03050,0.97685,-0.19032,0.0,2023,6,7,17,8,13,630
48.91590,-0.14245,0.19250,0.00000,0.03392,0.97637,-0.18947,0.0,2023,6,7,17,8,13,641
48.91600,0.06755,-0.07000,0.00000,0.03099,0.97502,-0.18971,0.0,2023,6,7,17,8,13,653
48.91610,-0.03745,-0.07000,0.00000,0.03245,0.97576,-0.18715,0.0,2023,6,7,17,8,13,664
48.91620,-0.17745,-0.17500,0.00000,0.03026,0.97759,-0.18934,0.0,2023,6,7,17,8,13,675
48.91630,-0.08995,0.00000,0.00000,0.03270,0.97637,-0.18959,0.0,2023,6,7,17,8,13,686
48.91640,-0.10745,-0.03500,0.00000,0.03270,0.97820,-0.19008,0.0,2023,6,7,17,8,13,697
48.91650,-0.12495,-0.05250,0.00000,0.03245,0.97673,-0.18678,0.0,2023,6,7,17,8,13,708
48.91660,-0.19495,0.21000,0.00000,0.03257,0.97551,-0.18471,0.0,2023,6,7,17,8,13,720
48.91670,0.01505,-0.05250,0.00000,0.03074,0.97527,-0.19093,0.0,2023,6,7,17,8,13,731
48.91680,-0.00245,-0.12250,0.00000,0.03099,0.97637,-0.18776,0.0,2023,6,7,17,8,13,742
48.91690,0.01505,0.08750,0.00000,0.03135,0.97527,-0.18849,0.0,2023,6,7,17,8,13,753
48.91700,0.06755,-0.19250,0.00000,0.03111,0.97759,-0.18910,0.0,2023,6,7,17,8,13,764
48.91710,-0.21245,-0.01750,0.00000,0.03343,0.97624,-0.18922,0.0,2023,6,7,17,8,13,775
48.91720,-0.05495,0.07000,0.00000,0.03294,0.97685,-0.18764,0.0,2023,6,7,17,8,13,786
48.91730,-0.14245,-0.08750,0.00000,0.02928,0.97734,-0.19081,0.0,2023,6,7,17,8,13,798
48.91740,-0.05495,-0.01750,0.00000,0.03135,0.97429,-0.19081,0.0,2023,6,7,17,8,13,809
48.91750,0.10255,-0.10500,0.00000,0.03160,0.97551,-0.18873,0.0,2023,6,7,17,8,13,820
48.91760,0.01505,0.05250,0.00000,0.03001,0.97771,-0.18898,0.0,2023,6,7,17,8,13,831
48.91770,-0.15995,0.01750,0.00000,0.03160,0.97783,-0.18739,0.0,2023,6,7,17,8,13,842
48.91780,0.03255,0.00000,0.00000,0.03221,0.97929,-0.19032,0.0,2023,6,7,17,8,13,853
48.91790,0.19005,-0.03500,0.00000,0.03306,0.97734,-0.18837,0.0,2023,6,7,17,8,13,864
48.91800,-0.00245,0.03500,0.00000,0.03184,0.97527,-0.18861,0.0,2023,6,7,17,8,13,876
48.91810,-0.03745,0.10500,0.00000,0.03270,0.97722,-0.18837,0.0,2023,6,7,17,8,13,887
48.91820,0.01505,-0.03500,0.00000,0.03074,0.97661,-0.19008,0.0,2023,6,7,17,8,13,898
48.91830,-0.10745,0.17500,0.00000,0.03148,0.97698,-0.19081,0.0,2023,6,7,17,8,13,909
48.91840,0.08505,-0.26250,0.00000,0.03184,0.97734,-0.18764,0.0,2023,6,7,17,8,13,920
48.91850,-0.22995,0.03500,0.00000,0.03343,0.97807,-0.18764,0.0,2023,6,7,17,8,13,931
48.91860,-0.28245,-0.08750,0.00000,0.03013,0.97490,-0.18898,0.0,2023,6,7,17,8,13,943
48.91870,-0.05495,0.10500,0.00000,0.03270,0.97661,-0.19020,0.0,2023,6,7,17,8,13,954
48.91880,-0.01995,-0.26250,0.00000,0.03062,0.97698,-0.19069,0.0,2023,6,7,17,8,13,965
48.91890,0.03255,0.21000,0.00000,0.03379,0.97759,-0.18849,0.0,2023,6,7,17,8,13,976
48.91900,-0.00245,0.07000,0.00000,0.03233,0.97515,-0.18983,0.0,2023,6,7,17,8,14,8
48.91910,-0.05495,-0.08750,0.00000,0.02928,0.97734,-0.18971,0.0,2023,6,7,17,8,14,19
48.91920,-0.10745,0.10500,0.00000,0.03099,0.97722,-0.18788,0.0,2023,6,7,17,8,14,30
48.91930,0.08505,0.22750,0.00000,0.03135,0.97783,-0.19239,0.0,2023,6,7,17,8,14,42
48.91940,-0.14245,-0.10500,0.00000,0.02940,0.97588,-0.18739,0.0,2023,6,7,17,8,14,53
48.91950,-0.26495,0.01750,0.00000,0.02940,0.97807,-0.18971,0.0,2023,6,7,17,8,14,64
48.91960,0.15505,-0.07000,0.00000,0.03099,0.97588,-0.18898,0.0,2023,6,7,17,8,14,75
48.91970,-0.07245,-0.01750,0.00000,0.03123,0.97832,-0.18971,0.0,2023,6,7,17,8,14,86
48.91980,-0.05495,0.08750,0.00000,0.03123,0.97588,-0.19008,0.0,2023,6,7,17,8,14,97
48.91990,0.13755,-0.14000,0.00000,0.03099,0.97600,-0.18800,0.0,2023,6,7,17,8,14,108
48.92000,-0.05495,-0.01750,0.00000,0.03196,0.97502,-0.18812,0.0,2023,6,7,17,8,14,120
48.92010,-0.01995,0.19250,0.00000,0.02928,0.97661,-0.19178,0.0,2023,6,7,17,8,14,131
48.92020,0.08505,0.05250,0.00000,0.03062,0.97673,-0.18861,0.0,2023,6,7,17,8,14,142
48.92030,-0.21245,-0.12250,0.00000,0.03062,0.97527,-0.18776,0.0,2023,6,7,17,8,14,153
48.92040,0.05005,-0.17500,0.00000,0.03172,0.97759,-0.18971,0.0,2023,6,7,17,8,14,164
48.92050,-0.10745,0.03500,0.00000,0.03135,0.97685,-0.18812,0.0,2023,6,7,17,8,14,175
48.92060,-0.31745,0.03500,0.00000,0.03013,0.97637,-0.18873,0.0,2023,6,7,17,8,14,187
48.92070,-0.12495,0.07000,0.00000,0.03013,0.97685,-0.18776,0.0,2023,6,7,17,8,14,198
48.92080,-0.19495,-0.01750,0.00000,0.03343,0.97478,-0.18849,0.0,2023,6,7,17,8,14,209
48.92090,0.01505,-0.10500,0.00000,0.03050,0.97966,-0.18898,0.0,2023,6,7,17,8,14,220
48.92100,0.06755,-0.10500,0.00000,0.03172,0.97759,-0.18934,0.0,2023,6,7,17,8,14,231
48.92110,-0.17745,0.03500,0.00000,0.03257,0.97441,-0.18922,0.0,2023,6,7,17,8,14,242
48.92120,0.01505,-0.01750,0.00000,0.03013,0.97844,-0.18910,0.0,2023,6,7,17,8,14,253
48.92130,-0.10745,0.05250,0.00000,0.03087,0.97624,-0.18776,0.0,2023,6,7,17,8,14,265
48.92140,0.13755,0.05250,0.00000,0.03148,0.97600,-0.18959,0.0,2023,6,7,17,8,14,276
48.92150,0.13755,-0.12250,0.00000,0.02989,0.97588,-0.18520,0.0,2023,6,7,17,8,14,287
48.92160,-0.07245,-0.12250,0.00000,0.03148,0.97563,-0.18886,0.0,2023,6,7,17,8,14,298
48.92170,-0.05495,0.07000,0.00000,0.03245,0.97783,-0.19044,0.0,2023,6,7,17,8,14,309
48.92180,0.17255,-0.07000,0.00000,0.03026,0.97624,-0.18703,0.0,2023,6,7,17,8,14,320
48.92190,0.06755,-0.10500,0.00000,0.03099,0.97698,-0.18910,0.0,2023,6,7,17,8,14,331
48.92200,-0.10745,0.07000,0.00000,0.03233,0.97612,-0.18788,0.0,2023,6,7,17,8,14,343
48.92210,0.08505,0.07000,0.00000,0.03257,0.97832,-0.18886,0.0,2023,6,7,17,8,14,354
48.92220,-0.05495,0.24500,0.00000,0.03270,0.97563,-0.18910,0.0,2023,6,7,17,8,14,365
48.92230,0.06755,0.07000,0.00000,0.03184,0.97612,-0.18971,0.0,2023,6,7,17,8,14,376
48.92240,-0.08995,-0.05250,0.00000,0.03050,0.97600,-0.18886,0.0,2023,6,7,17,8,14,387
48.92250,-0.12495,-0.07000,0.00000,0.03099,0.97673,-0.18837,0.0,2023,6,7,17,8,14,398
48.92260,0.05005,-0.07000,0.00000,0.03074,0.97807,-0.19166,0.0,2023,6,7,17,8,14,410
48.92270,0.05005,0.14000,0.00000,0.03172,0.97807,-0.19142,0.0,2023,6,7,17,8,14,421
48.92280,0.03255,-0.14000,0.00000,0.03282,0.97478,-0.18751,0.0,2023,6,7,17,8,14,432
48.92290,0.03255,0.07000,0.00000,0.03135,0.97795,-0.18849,0.0,2023,6,7,17,8,14,443
48.92300,-0.10745,0.00000,0.00000,0.03087,0.97746,-0.19069,0.0,2023,6,7,17,8,14,454
48.92310,0.01505,-0.15750,0.00000,0.03331,0.97759,-0.19069,0.0,2023,6,7,17,8,14,465
48.92320,0.15505,-0.22750,0.00000,0.03050,0.97771,-0.18849,0.0,2023,6,7,17,8,14,476
48.92330,0.03255,-0.08750,0.00000,0.03160,0.97661,-0.18959,0.0,2023,6,7,17,8,14,488
48.92340,0.17255,-0.01750,0.00000,0.02928,0.97783,-0.18934,0.0,2023,6,7,17,8,14,499
48.92350,0.01505,-0.10500,0.00000,0.03001,0.97576,-0.18922,0.0,2023,6,7,17,8,14,510
48.92360,0.05005,-0.07000,0.00000,0.03221,0.97746,-0.18690,0.0,2023,6,7,17,8,14,521
48.92370,0.03255,0.08750,0.00000,0.03245,0.97515,-0.18776,0.0,2023,6,7,17,8,14,532
48.92380,-0.10745,0.05250,0.00000,0.03209,0.97502,-0.18886,0.0,2023,6,7,17,8,14,543
48.92390,-0.01995,0.00000,0.00000,0.03196,0.97722,-0.19032,0.0,2023,6,7,17,8,14,554
48.92400,0.06755,-0.01750,0.00000,0.03135,0.97624,-0.18995,0.0,2023,6,7,17,8,14,566
48.92410,-0.08995,-0.03500,0.00000,0.03282,0.97771,-0.18934,0.0,2023,6,7,17,8,14,577
48.92420,-0.10745,0.03500,0.00000,0.03355,0.97759,-0.18727,0.0,2023,6,7,17,8,14,588
48.92430,-0.07245,0.10500,0.00000,0.03172,0.97856,-0.18776,0.0,2023,6,7,17,8,14,599
48.92440,-0.05495,-0.12250,0.00000,0.03026,0.98027,-0.18983,0.0,2023,6,7,17,8,14,610
48.92450,0.06755,-0.01750,0.00000,0.03148,0.97722,-0.18971,0.0,2023,6,7,17,8,14,621
48.92460,-0.12495,0.19250,0.00000,0.03209,0.97832,-0.18642,0.0,2023,6,7,17,8,14,633
48.92470,-0.00245,-0.03500,0.00000,0.03062,0.97722,-0.18861,0.0,2023,6,7,17,8,14,644
48.92480,0.06755,-0.17500,0.00000,0.03148,0.97624,-0.18934,0.0,2023,6,7,17,8,14,655
48.92490,-0.10745,-0.05250,0.00000,0.02830,0.97746,-0.19227,0.0,2023,6,7,17,8,14,666
48.92500,0.06755,0.14000,0.00000,0.02965,0.97685,-0.19020,0.0,2023,6,7,17,8,14,677
48.92510,0.24255,-0.19250,0.00000,0.03123,0.97539,-0.18764,0.0,2023,6,7,17,8,14,688
48.92520,0.08505,-0.08750,0.00000,0.03148,0.97576,-0.18727,0.0,2023,6,7,17,8,14,699
48.92530,0.06755,0.08750,0.00000,0.03294,0.97612,-0.18837,0.0,2023,6,7,17,8,14,711
48.92540,0.01505,0.01750,0.00000,0.03062,0.97832,-0.19008,0.0,2023,6,7,17,8,14,722
48.92550,0.10255,0.05250,0.00000,0.03050,0.97710,-0.19032,0.0,2023,6,7,17,8,14,733
48.92560,-0.12495,0.07000,0.00000,0.03135,0.97417,-0.18886,0.0,2023,6,7,17,8,14,744
48.92570,0.01505,0.01750,0.00000,0.03367,0.97673,-0.18910,0.0,2023,6,7,17,8,14,755
48.92580,-0.22995,0.03500,0.00000,0.02806,0.97539,-0.18898,0.0,2023,6,7,17,8,14,766
48.92590,0.13755,0.05250,0.00000,0.03026,0.97844,-0.18934,0.0,2023,6,7,17,8,14,777
48.92600,0.06755,-0.08750,0.00000,0.03038,0.97698,-0.19166,0.0,2023,6,7,17,8,14,789
48.92610,-0.14245,0.03500,0.00000,0.03282,0.97783,-0.18922,0.0,2023,6,7,17,8,14,800
48.92620,-0.03745,-0.24500,0.00000,0.03221,0.97637,-0.18971,0.0,2023,6,7,17,8,14,811
48.92630,-0.03745,0.00000,0.00000,0.03135,0.97844,-0.19081,0.0,2023,6,7,17,8,14,822
48.92640,-0.03745,0.03500,0.00000,0.03038,0.97783,-0.18947,0.0,2023,6,7,17,8,14,833
48.92650,0.03255,0.15750,0.00000,0.03270,0.97649,-0.18776,0.0,2023,6,7,17,8,14,844
48.92660,0.01505,-0.07000,0.00000,0.02977,0.97942,-0.18764,0.0,2023,6,7,17,8,14,856
48.92670,-0.19495,-0.07000,0.00000,0.03221,0.97551,-0.18837,0.0,2023,6,7,17,8,14,867
48.92680,0.05005,0.12250,0.00000,0.03257,0.97649,-0.18995,0.0,2023,6,7,17,8,14,878
48.92690,-0.12495,0.17500,0.00000,0.03209,0.97454,-0.18886,0.0,2023,6,7,17,8,14,889
48.92700,-0.12495,0.12250,0.00000,0.03257,0.97698,-0.18751,0.0,2023,6,7,17,8,14,900
48.92710,-0.29995,-0.10500,0.00000,0.03245,0.97673,-0.18837,0.0,2023,6,7,17,8,14,911
48.92720,-0.26495,0.00000,0.00000,0.03209,0.97515,-0.18947,0.0,2023,6,7,17,8,14,922
48.92730,0.01505,0.01750,0.00000,0.02904,0.97600,-0.19203,0.0,2023,6,7,17,8,14,934
48.92740,-0.01995,0.07000,0.00000,0.02965,0.97868,-0.19069,0.0,2023,6,7,17,8,14,945
48.92750,-0.17745,0.05250,0.00000,0.03172,0.97441,-0.18886,0.0,2023,6,7,17,8,14,956
48.92760,0.12005,-0.07000,0.00000,0.03099,0.97563,-0.18776,0.0,2023,6,7,17,8,14,967
48.92770,-0.07245,-0.07000,0.00000,0.03270,0.97588,-0.18800,0.0,2023,6,7,17,8,14,978
48.92780,-0.00245,-0.24500,0.00000,0.03099,0.97698,-0.18849,0.0,2023,6,7,17,8,14,989
48.92790,0.08505,0.12250,0.00000,0.03318,0.97600,-0.18959,0.0,2023,6,7,17,8,14,0
48.92800,0.26005,-0.24500,0.00000,0.02952,0.97710,-0.19093,0.0,2023,6,7,17,8,15,1
48.92810,-0.00245,0.28000,0.00000,0.03196,0.97893,-0.18837,0.0,2023,6,7,17,8,15,12
48.92820,0.17255,-0.10500,0.00000,0.03123,0.97637,-0.18849,0.0,2023,6,7,17,8,15,23
48.92830,0.05005,-0.10500,0.00000,0.02965,0.97771,-0.19008,0.0,2023,6,7,17,8,15,34
48.92840,0.05005,-0.07000,0.00000,0.03221,0.97624,-0.18812,0.0,2023,6,7,17,8,15,45
48.92850,-0.17745,0.01750,0.00000,0.02879,0.97807,-0.18886,0.0,2023,6,7,17,8,15,56
48.92860,-0.08995,-0.03500,0.00000,0.03026,0.97612,-0.18764,0.0,2023,6,7,17,8,15,68
48.92870,0.06755,0.03500,0.00000,0.03087,0.97746,-0.18947,0.0,2023,6,7,17,8,15,79
48.92880,0.19005,-0.22750,0.00000,0.03160,0.97502,-0.18788,0.0,2023,6,7,17,8,15,90
48.92890,0.03255,-0.33250,0.00000,0.03160,0.97576,-0.19093,0.0,2023,6,7,17,8,15,101
48.92900,-0.01995,-0.22750,0.00000,0.03087,0.97795,-0.18800,0.0,2023,6,7,17,8,15,112
48.92910,-0.17745,0.15750,0.00000,0.03160,0.97820,-0.18764,0.0,2023,6,7,17,8,15,123
48.92920,0.01505,-0.29750,0.00000,0.02843,0.97612,-0.18947,0.0,2023,6,7,17,8,15,134
48.92930,-0.12495,0.14000,0.00000,0.03209,0.97673,-0.18800,0.0,2023,6,7,17,8,15,146
48.92940,-0.21245,-0.07000,0.00000,0.03233,0.97685,-0.18922,0.0,2023,6,7,17,8,15,157
48.92950,-0.00245,-0.07000,0.00000,0.03062,0.97661,-0.18934,0.0,2023,6,7,17,8,15,168
48.92960,0.12005,-0.14000,0.00000,0.03172,0.97783,-0.18959,0.0,2023,6,7,17,8,15,179
48.92970,-0.07245,0.00000,0.00000,0.03050,0.97881,-0.19032,0.0,2023,6,7,17,8,15,190
48.92980,-0.08995,0.26250,0.00000,0.03270,0.97637,-0.18873,0.0,2023,6,7,17,8,15,201
48.92990,0.05005,0.15750,0.00000,0.03331,0.97710,-0.19069,0.0,2023,6,7,17,8,15,212
48.93000,-0.26495,-0.05250,0.00000,0.03184,0.97527,-0.18751,0.0,2023,6,7,17,8,15,224
48.93010,-0.15995,0.21000,0.00000,0.02965,0.97759,-0.18886,0.0,2023,6,7,17,8,15,235
48.93020,-0.00245,-0.22750,0.00000,0.03026,0.97746,-0.18837,0.0,2023,6,7,17,8,15,246
48.93030,-0.07245,-0.10500,0.00000,0.03184,0.97746,-0.19227,0.0,2023,6,7,17,8,15,257
48.93040,0.15505,0.15750,0.00000,0.03013,0.97746,-0.18837,0.0,2023,6,7,17,8,15,268
48.93050,-0.26495,0.19250,0.00000,0.03087,0.97588,-0.18898,0.0,2023,6,7,17,8,15,279
48.93060,-0.17745,0.07000,0.00000,0.03233,0.97624,-0.18959,0.0,2023,6,7,17,8,15,291
48.93070,0.06755,-0.17500,0.00000,0.03428,0.97563,-0.18703,0.0,2023,6,7,17,8,15,302
48.93080,-0.12495,-0.01750,0.00000,0.03074,0.97807,-0.18629,0.0,2023,6,7,17,8,15,313
48.93090,-0.10745,0.00000,0.00000,0.02989,0.97588,-0.18947,0.0,2023,6,7,17,8,15,324
48.93100,0.22505,-0.08750,0.00000,0.03257,0.97539,-0.18715,0.0,2023,6,7,17,8,15,335
48.93110,-0.21245,0.05250,0.00000,0.03013,0.97600,-0.18886,0.0,2023,6,7,17,8,15,346
48.93120,0.13755,-0.05250,0.00000,0.03257,0.97685,-0.18812,0.0,2023,6,7,17,8,15,357
48.93130,-0.05495,-0.01750,0.00000,0.02952,0.97637,-0.18825,0.0,2023,6,7,17,8,15,369
48.93140,0.13755,-0.01750,0.00000,0.03233,0.97844,-0.18776,0.0,2023,6,7,17,8,15,380
48.93150,-0.12495,-0.01750,0.00000,0.03172,0.97612,-0.18666,0.0,2023,6,7,17,8,15,391
48.93160,0.10255,0.00000,0.00000,0.02818,0.97624,-0.18800,0.0,2023,6,7,17,8,15,402
48.93170,-0.05495,0.19250,0.00000,0.03087,0.97600,-0.18910,0.0,2023,6,7,17,8,15,413
48.93180,0.22505,-0.10500,0.00000,0.03160,0.97820,-0.19130,0.0,2023,6,7,17,8,15,424
48.93190,0.17255,-0.03500,0.00000,0.03074,0.97637,-0.18788,0.0,2023,6,7,17,8,15,435
48.93200,-0.01995,-0.14000,0.00000,0.03160,0.97612,-0.18971,0.0,2023,6,7,17,8,15,447
48.93210,-0.01995,0.24500,0.00000,0.03123,0.97612,-0.18764,0.0,2023,6,7,17,8,15,458
48.93220,0.20755,-0.15750,0.00000,0.03099,0.97478,-0.18873,0.0,2023,6,7,17,8,15,469
48.93230,-0.10745,0.01750,0.00000,0.03099,0.97673,-0.18776,0.0,2023,6,7,17,8,15,480
48.93240,0.01505,0.10500,0.00000,0.03306,0.97661,-0.18690,0.0,2023,6,7,17,8,15,491
48.93250,0.01505,-0.05250,0.00000,0.03233,0.97746,-0.18861,0.0,2023,6,7,17,8,15,502
48.93260,-0.05495,-0.08750,0.00000,0.03270,0.97612,-0.18849,0.0,2023,6,7,17,8,15,514
48.93270,-0.14245,-0.07000,0.00000,0.03123,0.97563,-0.18690,0.0,2023,6,7,17,8,15,525
48.93280,0.05005,-0.29750,0.00000,0.03123,0.97624,-0.18898,0.0,2023,6,7,17,8,15,536
48.93290,0.03255,-0.05250,0.00000,0.03038,0.97454,-0.18959,0.0,2023,6,7,17,8,15,547
48.93300,-0.01995,0.14000,0.00000,0.03209,0.97539,-0.18971,0.0,2023,6,7,17,8,15,558
48.93310,0.01505,-0.05250,0.00000,0.03062,0.97539,-0.18983,0.0,2023,6,7,17,8,15,569
48.93320,-0.17745,0.05250,0.00000,0.03172,0.97722,-0.18800,0.0,2023,6,7,17,8,15,580
48.93330,0.01505,0.01750,0.00000,0.03172,0.97612,-0.18934,0.0,2023,6,7,17,8,15,592
48.93340,-0.10745,-0.19250,0.00000,0.03379,0.97685,-0.18922,0.0,2023,6,7,17,8,15,603
48.93350,-0.00245,-0.14000,0.00000,0.03184,0.97807,-0.19105,0.0,2023,6,7,17,8,15,614
48.93360,0.03255,-0.19250,0.00000,0.03306,0.97515,-0.19032,0.0,2023,6,7,17,8,15,625
48.93370,-0.01995,0.01750,0.00000,0.03245,0.97637,-0.18959,0.0,2023,6,7,17,8,15,636
48.93380,0.12005,0.08750,0.00000,0.03172,0.97624,-0.19093,0.0,2023,6,7,17,8,15,647
48.93390,-0.05495,0.14000,0.00000,0.03404,0.97844,-0.19069,0.0,2023,6,7,17,8,15,658
48.93400,0.26005,0.00000,0.00000,0.03245,0.97795,-0.18934,0.0,2023,6,7,17,8,15,670
48.93410,0.08505,0.07000,0.00000,0.03123,0.97673,-0.19154,0.0,2023,6,7,17,8,15,681
48.93420,-0.08995,0.12250,0.00000,0.03050,0.97612,-0.18983,0.0,2023,6,7,17,8,15,692
48.93430,-0.10745,-0.08750,0.00000,0.03404,0.97515,-0.18886,0.0,2023,6,7,17,8,15,703
48.93440,-0.19495,0.17500,0.00000,0.03196,0.97490,-0.18703,0.0,2023,6,7,17,8,15,714
48.93450,-0.05495,0.10500,0.00000,0.03123,0.97710,-0.19081,0.0,2023,6,7,17,8,15,725
48.93460,-0.12495,0.03500,0.00000,0.03257,0.97478,-0.19191,0.0,2023,6,7,17,8,15,737
48.93470,-0.03745,0.07000,0.00000,0.03160,0.97588,-0.18825,0.0,2023,6,7,17,8,15,748
48.93480,-0.17745,0.17500,0.00000,0.03184,0.97612,-0.19325,0.0,2023,6,7,17,8,15,759
48.93490,-0.17745,0.00000,0.00000,0.03062,0.97637,-0.18629,0.0,2023,6,7,17,8,15,770
48.93500,-0.01995,-0.08750,0.00000,0.03123,0.97637,-0.18861,0.0,2023,6,7,17,8,15,781
48.93510,-0.01995,-0.15750,0.00000,0.03087,0.97405,-0.18776,0.0,2023,6,7,17,8,15,792
48.93520,-0.14245,-0.21000,0.00000,0.03282,0.97746,-0.19044,0.0,2023,6,7,17,8,15,803
48.93530,0.13755,-0.08750,0.00000,0.03184,0.97661,-0.19239,0.0,2023,6,7,17,8,15,815
48.93540,0.08505,-0.01750,0.00000,0.03123,0.97588,-0.19105,0.0,2023,6,7,17,8,15,826
48.93550,-0.05495,-0.01750,0.00000,0.03184,0.97600,-0.19020,0.0,2023,6,7,17,8,15,837
48.93560,-0.15995,0.01750,0.00000,0.03123,0.97673,-0.18800,0.0,2023,6,7,17,8,15,848
48.93570,-0.07245,-0.14000,0.00000,0.03196,0.97588,-0.19008,0.0,2023,6,7,17,8,15,859
48.93580,0.03255,0.01750,0.00000,0.03416,0.97832,-0.18910,0.0,2023,6,7,17,8,15,870
48.93590,-0.12495,-0.12250,0.00000,0.03001,0.97515,-0.18532,0.0,2023,6,7,17,8,15,881
48.93600,-0.08995,0.01750,0.00000,0.03001,0.97759,-0.18812,0.0,2023,6,7,17,8,15,893
48.93610,0.03255,0.07000,0.00000,0.03233,0.97771,-0.19227,0.0,2023,6,7,17,8,15,904
48.93620,0.06755,-0.05250,0.00000,0.03355,0.97502,-0.18812,0.0,2023,6,7,17,8,15,915
48.93630,-0.05495,0.14000,0.00000,0.03196,0.97783,-0.19081,0.0,2023,6,7,17,8,15,926
48.93640,-0.17745,0.08750,0.00000,0.03392,0.97576,-0.18715,0.0,2023,6,7,17,8,15,937
48.93650,-0.15995,0.19250,0.00000,0.03306,0.97881,-0.18910,0.0,2023,6,7,17,8,15,948
48.93660,0.06755,0.03500,0.00000,0.02989,0.97710,-0.19081,0.0,2023,6,7,17,8,15,960
48.93670,0.06755,0.05250,0.00000,0.03099,0.97576,-0.19008,0.0,2023,6,7,17,8,15,971
48.93680,-0.08995,0.00000,0.00000,0.02965,0.97673,-0.18886,0.0,2023,6,7,17,8,15,982
48.93690,0.01505,-0.14000,0.00000,0.03074,0.97466,-0.18812,0.0,2023,6,7,17,8,15,993
48.93700,0.06755,0.05250,0.00000,0.03282,0.97734,-0.18776,0.0,2023,6,7,17,8,15,4
48.93710,0.01505,-0.01750,0.00000,0.03196,0.97624,-0.18922,0.0,2023,6,7,17,8,15,15
48.93720,0.20755,-0.14000,0.00000,0.03184,0.97576,-0.18971,0.0,2023,6,7,17,8,16,4
48.93730,-0.12495,-0.07000,0.00000,0.02977,0.97795,-0.18727,0.0,2023,6,7,17,8,16,16
48.93740,-0.03745,0.03500,0.00000,0.03038,0.97820,-0.18812,0.0,2023,6,7,17,8,16,27
48.93750,0.05005,0.08750,0.00000,0.03257,0.97612,-0.19191,0.0,2023,6,7,17,8,16,38
48.93760,-0.10745,-0.07000,0.00000,0.03209,0.97783,-0.18873,0.0,2023,6,7,17,8,16,49
48.93770,0.17255,-0.10500,0.00000,0.03184,0.97612,-0.18800,0.0,2023,6,7,17,8,16,60
48.93780,-0.15995,-0.12250,0.00000,0.03123,0.97685,-0.18715,0.0,2023,6,7,17,8,16,71
48.93790,-0.08995,0.00000,0.00000,0.03257,0.97759,-0.18934,0.0,2023,6,7,17,8,16,82
48.93800,-0.05495,-0.07000,0.00000,0.03087,0.97490,-0.18837,0.0,2023,6,7,17,8,16,94
48.93810,-0.05495,-0.14000,0.00000,0.03282,0.97795,-0.18483,0.0,2023,6,7,17,8,16,105
48.93820,-0.08995,0.08750,0.00000,0.03001,0.97551,-0.18934,0.0,2023,6,7,17,8,16,116
48.93830,0.13755,-0.08750,0.00000,0.03135,0.97698,-0.19008,0.0,2023,6,7,17,8,16,127
48.93840,-0.24745,0.10500,0.00000,0.03209,0.97454,-0.18910,0.0,2023,6,7,17,8,16,138
48.93850,0.03255,0.00000,0.00000,0.03050,0.97612,-0.19203,0.0,2023,6,7,17,8,16,149
48.93860,0.06755,-0.12250,0.00000,0.03148,0.97490,-0.18861,0.0,2023,6,7,17,8,16,161
48.93870,-0.29995,-0.10500,0.00000,0.03038,0.97502,-0.18605,0.0,2023,6,7,17,8,16,172
48.93880,-0.15995,0.08750,0.00000,0.03099,0.97612,-0.19252,0.0,2023,6,7,17,8,16,183
48.93890,-0.05495,0.14000,0.00000,0.02928,0.97588,-0.18995,0.0,2023,6,7,17,8,16,194
48.93900,-0.19495,0.14000,0.00000,0.03148,0.97722,-0.18703,0.0,2023,6,7,17,8,16,205
48.93910,0.05005,-0.03500,0.00000,0.03001,0.97563,-0.18800,0.0,2023,6,7,17,8,16,216
48.93920,0.08505,-0.15750,0.00000,0.03233,0.97612,-0.18800,0.0,2023,6,7,17,8,16,227
48.93930,-0.05495,0.03500,0.00000,0.03257,0.97856,-0.19227,0.0,2023,6,7,17,8,16,239
48.93940,-0.03745,-0.05250,0.00000,0.03245,0.97771,-0.18934,0.0,2023,6,7,17,8,16,250
48.93950,-0.05495,0.08750,0.00000,0.03257,0.97661,-0.18690,0.0,2023,6,7,17,8,16,261
48.93960,0.03255,0.05250,0.00000,0.03257,0.97710,-0.18825,0.0,2023,6,7,17,8,16,272
48.93970,0.01505,-0.05250,0.00000,0.02952,0.97637,-0.18898,0.0,2023,6,7,17,8,16,283
48.93980,-0.12495,-0.05250,0.00000,0.03001,0.97685,-0.18910,0.0,2023,6,7,17,8,16,294
48.93990,0.12005,-0.17500,0.00000,0.03148,0.97661,-0.18861,0.0,2023,6,7,17,8,16,305
48.94000,0.01505,0.00000,0.00000,0.03172,0.97759,-0.18800,0.0,2023,6,7,17,8,16,317
48.94010,-0.00245,0.01750,0.00000,0.03111,0.97527,-0.18776,0.0,2023,6,7,17,8,16,328
48.94020,0.15505,0.15750,0.00000,0.02806,0.97515,-0.18934,0.0,2023,6,7,17,8,16,339
48.94030,0.06755,-0.03500,0.00000,0.03074,0.97563,-0.18776,0.0,2023,6,7,17,8,16,350
48.94040,0.05005,-0.17500,0.00000,0.03050,0.97661,-0.18751,0.0,2023,6,7,17,8,16,361
48.94050,-0.12495,-0.03500,0.00000,0.03087,0.97795,-0.18861,0.0,2023,6,7,17,8,16,372
48.94060,0.10255,-0.08750,0.00000,0.03001,0.97600,-0.18995,0.0,2023,6,7,17,8,16,384
48.94070,-0.15995,0.15750,0.00000,0.03111,0.97588,-0.18971,0.0,2023,6,7,17,8,16,395
48.94080,0.05005,0.01750,0.00000,0.03013,0.97466,-0.18861,0.0,2023,6,7,17,8,16,406
48.94090,-0.00245,0.05250,0.00000,0.03233,0.97807,-0.18861,0.0,2023,6,7,17,8,16,417
48.94100,-0.08995,-0.22750,0.00000,0.03306,0.97832,-0.18873,0.0,2023,6,7,17,8,16,428
48.94110,-0.10745,0.22750,0.00000,0.03270,0.97527,-0.19008,0.0,2023,6,7,17,8,16,439
48.94120,0.10255,0.12250,0.00000,0.03245,0.97478,-0.18959,0.0,2023,6,7,17,8,16,450
48.94130,-0.05495,0.01750,0.00000,0.02977,0.97478,-0.18788,0.0,2023,6,7,17,8,16,462
48.94140,-0.01995,0.19250,0.00000,0.03294,0.97624,-0.18666,0.0,2023,6,7,17,8,16,473
48.94150,0.05005,-0.12250,0.00000,0.03209,0.97722,-0.18959,0.0,2023,6,7,17,8,16,484
48.94160,0.06755,-0.10500,0.00000,0.02879,0.97637,-0.18934,0.0,2023,6,7,17,8,16,495
48.94170,-0.12495,0.21000,0.00000,0.02952,0.97783,-0.18642,0.0,2023,6,7,17,8,16,506
48.94180,-0.00245,0.07000,0.00000,0.03099,0.97783,-0.18910,0.0,2023,6,7,17,8,16,517
48.94190,0.10255,-0.12250,0.00000,0.03026,0.97637,-0.18568,0.0,2023,6,7,17,8,16,528
48.94200,0.13755,-0.07000,0.00000,0.03331,0.97795,-0.18690,0.0,2023,6,7,17,8,16,540
48.94210,0.05005,-0.15750,0.00000,0.03257,0.97551,-0.19191,0.0,2023,6,7,17,8,16,551
48.94220,0.10255,0.10500,0.00000,0.03245,0.97661,-0.18898,0.0,2023,6,7,17,8,16,562
48.94230,-0.03745,-0.08750,0.00000,0.03318,0.97698,-0.18910,0.0,2023,6,7,17,8,16,573
48.94240,0.08505,-0.10500,0.00000,0.03087,0.97563,-0.18947,0.0,2023,6,7,17,8,16,584
48.94250,0.05005,-0.01750,0.00000,0.03160,0.97722,-0.19020,0.0,2023,6,7,17,8,16,595
48.94260,-0.14245,0.08750,0.00000,0.02916,0.97649,-0.18861,0.0,2023,6,7,17,8,16,607
48.94270,0.10255,-0.01750,0.00000,0.03245,0.97881,-0.18825,0.0,2023,6,7,17,8,16,618
48.94280,-0.01995,-0.01750,0.00000,0.03184,0.97588,-0.18910,0.0,2023,6,7,17,8,16,629
48.94290,-0.05495,0.08750,0.00000,0.02977,0.97807,-0.18690,0.0,2023,6,7,17,8,16,640
48.94300,0.10255,0.07000,0.00000,0.02940,0.97820,-0.18800,0.0,2023,6,7,17,8,16,651
48.94310,0.01505,-0.19250,0.00000,0.03245,0.97393,-0.18788,0.0,2023,6,7,17,8,16,662
48.94320,0.06755,0.00000,0.00000,0.03184,0.97698,-0.18520,0.0,2023,6,7,17,8,16,673
48.94330,0.12005,-0.03500,0.00000,0.03270,0.97807,-0.18922,0.0,2023,6,7,17,8,16,685
48.94340,0.05005,0.00000,0.00000,0.03318,0.97612,-0.19020,0.0,2023,6,7,17,8,16,696
48.94350,-0.28245,0.03500,0.00000,0.03184,0.97771,-0.18690,0.0,2023,6,7,17,8,16,707
48.94360,-0.07245,0.07000,0.00000,0.03148,0.97722,-0.18959,0.0,2023,6,7,17,8,16,718
48.94370,-0.00245,0.08750,0.00000,0.03257,0.97710,-0.18727,0.0,2023,6,7,17,8,16,729
48.94380,-0.00245,-0.07000,0.00000,0.03184,0.97588,-0.19203,0.0,2023,6,7,17,8,16,740
48.94390,0.08505,0.15750,0.00000,0.03294,0.97539,-0.18812,0.0,2023,6,7,17,8,16,751
48.94400,-0.03745,-0.01750,0.00000,0.03233,0.97795,-0.18825,0.0,2023,6,7,17,8,16,763
48.94410,-0.01995,-0.14000,0.00000,0.03087,0.97734,-0.18922,0.0,2023,6,7,17,8,16,774
48.94420,0.08505,0.10500,0.00000,0.03099,0.97673,-0.18788,0.0,2023,6,7,17,8,16,785
48.94430,-0.10745,-0.19250,0.00000,0.03221,0.97637,-0.18751,0.0,2023,6,7,17,8,16,796
48.94440,0.08505,0.01750,0.00000,0.03404,0.97624,-0.19020,0.0,2023,6,7,17,8,16,807
48.94450,0.22505,-0.07000,0.00000,0.03099,0.97807,-0.18837,0.0,2023,6,7,17,8,16,818
48.94460,0.05005,-0.03500,0.00000,0.02904,0.97466,-0.18739,0.0,2023,6,7,17,8,16,830
48.94470,0.26005,0.01750,0.00000,0.03038,0.97685,-0.18947,0.0,2023,6,7,17,8,16,841
48.94480,0.01505,-0.01750,0.00000,0.03306,0.97515,-0.18947,0.0,2023,6,7,17,8,16,852
48.94490,-0.08995,-0.01750,0.00000,0.02965,0.97759,-0.18959,0.0,2023,6,7,17,8,16,863
48.94500,-0.17745,0.14000,0.00000,0.03123,0.97832,-0.19117,0.0,2023,6,7,17,8,16,874
48.94510,-0.03745,-0.15750,0.00000,0.03099,0.97539,-0.19093,0.0,2023,6,7,17,8,16,885
48.94520,-0.01995,0.07000,0.00000,0.03111,0.97661,-0.18678,0.0,2023,6,7,17,8,16,896
48.94530,0.10255,-0.15750,0.00000,0.03148,0.97576,-0.18703,0.0,2023,6,7,17,8,16,908
48.94540,-0.05495,-0.03500,0.00000,0.03062,0.97783,-0.19020,0.0,2023,6,7,17,8,16,919
48.94550,0.10255,-0.05250,0.00000,0.03392,0.97490,-0.19203,0.0,2023,6,7,17,8,16,930
48.94560,0.17255,-0.08750,0.00000,0.03184,0.97807,-0.19008,0.0,2023,6,7,17,8,16,941
48.94570,-0.17745,0.12250,0.00000,0.03123,0.97551,-0.18837,0.0,2023,6,7,17,8,16,952
48.94580,0.03255,0.00000,0.00000,0.03270,0.97624,-0.18922,0.0,2023,6,7,17,8,16,963
48.94590,-0.10745,0.10500,0.00000,0.03148,0.97600,-0.19130,0.0,2023,6,7,17,8,16,974
48.94600,-0.17745,-0.10500,0.00000,0.03233,0.97905,-0.19032,0.0,2023,6,7,17,8,16,986
48.94610,-0.12495,-0.07000,0.00000,0.03318,0.97734,-0.19093,0.0,2023,6,7,17,8,16,997
48.94620,-0.07245,-0.03500,0.00000,0.03196,0.97722,-0.18800,0.0,2023,6,7,17,8,16,8
48.94630,0.08505,-0.22750,0.00000,0.03282,0.97637,-0.18873,0.0,2023,6,7,17,8,17,8
48.94640,-0.07245,0.22750,0.00000,0.03087,0.97466,-0.18983,0.0,2023,6,7,17,8,17,19
48.94650,-0.00245,-0.15750,0.00000,0.03074,0.97515,-0.18849,0.0,2023,6,7,17,8,17,30
48.94660,0.17255,-0.08750,0.00000,0.03050,0.97673,-0.18861,0.0,2023,6,7,17,8,17,42
48.94670,-0.19495,0.01750,0.00000,0.03379,0.97807,-0.18629,0.0,2023,6,7,17,8,17,53
48.94680,-0.28245,-0.01750,0.00000,0.03099,0.97722,-0.18581,0.0,2023,6,7,17,8,17,64
48.94690,-0.00245,-0.01750,0.00000,0.03221,0.97490,-0.18971,0.0,2023,6,7,17,8,17,75
48.94700,-0.01995,-0.01750,0.00000,0.03050,0.97746,-0.18873,0.0,2023,6,7,17,8,17,86
48.94710,-0.00245,0.12250,0.00000,0.03123,0.97783,-0.19032,0.0,2023,6,7,17,8,17,97
48.94720,0.13755,0.00000,0.00000,0.03221,0.97698,-0.19227,0.0,2023,6,7,17,8,17,108
48.94730,0.17255,-0.08750,0.00000,0.03123,0.97710,-0.18886,0.0,2023,6,7,17,8,17,120
48.94740,-0.01995,-0.19250,0.00000,0.03123,0.97637,-0.18739,0.0,2023,6,7,17,8,17,131
48.94750,0.06755,0.00000,0.00000,0.03135,0.97820,-0.18873,0.0,2023,6,7,17,8,17,142
48.94760,0.03255,0.07000,0.00000,0.03111,0.97771,-0.19154,0.0,2023,6,7,17,8,17,153
48.94770,0.05005,0.10500,0.00000,0.03013,0.97441,-0.18861,0.0,2023,6,7,17,8,17,164
48.94780,-0.00245,0.00000,0.00000,0.02977,0.97734,-0.18959,0.0,2023,6,7,17,8,17,175
48.94790,-0.01995,-0.08750,0.00000,0.03245,0.97966,-0.18934,0.0,2023,6,7,17,8,17,186
48.94800,-0.10745,-0.08750,0.00000,0.03282,0.97673,-0.18934,0.0,2023,6,7,17,8,17,198
48.94810,-0.01995,0.12250,0.00000,0.03172,0.97710,-0.18678,0.0,2023,6,7,17,8,17,209
48.94820,0.20755,-0.14000,0.00000,0.03270,0.97637,-0.18995,0.0,2023,6,7,17,8,17,220
48.94830,0.13755,-0.03500,0.00000,0.03196,0.97515,-0.18642,0.0,2023,6,7,17,8,17,231
48.94840,-0.10745,0.00000,0.00000,0.03135,0.97661,-0.18812,0.0,2023,6,7,17,8,17,242
48.94850,-0.24745,0.21000,0.00000,0.03233,0.97368,-0.18983,0.0,2023,6,7,17,8,17,253
48.94860,0.01505,-0.07000,0.00000,0.03221,0.97490,-0.18995,0.0,2023,6,7,17,8,17,265
48.94870,-0.08995,-0.07000,0.00000,0.02916,0.97527,-0.18861,0.0,2023,6,7,17,8,17,276
48.94880,-0.07245,0.08750,0.00000,0.03282,0.97600,-0.18678,0.0,2023,6,7,17,8,17,287
48.94890,-0.03745,-0.21000,0.00000,0.03233,0.97832,-0.18861,0.0,2023,6,7,17,8,17,298
48.94900,0.01505,-0.05250,0.00000,0.03257,0.97746,-0.19117,0.0,2023,6,7,17,8,17,309
48.94910,-0.03745,-0.14000,0.00000,0.03050,0.97539,-0.18739,0.0,2023,6,7,17,8,17,320
48.94920,0.03255,-0.24500,0.00000,0.03087,0.97502,-0.18654,0.0,2023,6,7,17,8,17,331
48.94930,0.06755,-0.05250,0.00000,0.03245,0.97539,-0.19008,0.0,2023,6,7,17,8,17,343
48.94940,-0.12495,0.15750,0.00000,0.03196,0.97600,-0.18715,0.0,2023,6,7,17,8,17,354
48.94950,-0.03745,0.00000,0.00000,0.03135,0.97759,-0.19044,0.0,2023,6,7,17,8,17,365
48.94960,-0.05495,0.05250,0.00000,0.03245,0.97771,-0.18739,0.0,2023,6,7,17,8,17,376
48.94970,0.08505,-0.22750,0.00000,0.03294,0.97771,-0.18886,0.0,2023,6,7,17,8,17,387
48.94980,0.01505,0.24500,0.00000,0.03001,0.97734,-0.18666,0.0,2023,6,7,17,8,17,398
48.94990,0.20755,-0.21000,0.00000,0.03196,0.97783,-0.19056,0.0,2023,6,7,17,8,17,409
48.95000,-0.14245,-0.10500,0.00000,0.02952,0.97612,-0.18971,0.0,2023,6,7,17,8,17,421
48.95010,0.06755,-0.01750,0.00000,0.03172,0.97539,-0.18703,0.0,2023,6,7,17,8,17,432
48.95020,-0.07245,-0.19250,0.00000,0.03294,0.97612,-0.18727,0.0,2023,6,7,17,8,17,443
48.95030,0.03255,-0.01750,0.00000,0.03306,0.97600,-0.18959,0.0,2023,6,7,17,8,17,454
48.95040,0.06755,-0.05250,0.00000,0.03111,0.97515,-0.19044,0.0,2023,6,7,17,8,17,465
48.95050,-0.24745,-0.12250,0.00000,0.03209,0.97649,-0.18678,0.0,2023,6,7,17,8,17,476
48.95060,-0.00245,0.12250,0.00000,0.03038,0.97588,-0.19008,0.0,2023,6,7,17,8,17,488
48.95070,0.10255,0.08750,0.00000,0.03062,0.97649,-0.18690,0.0,2023,6,7,17,8,17,499
48.95080,0.03255,0.01750,0.00000,0.03135,0.97734,-0.18849,0.0,2023,6,7,17,8,17,510
48.95090,-0.08995,-0.12250,0.00000,0.03294,0.97380,-0.18800,0.0,2023,6,7,17,8,17,521
48.95100,-0.08995,0.03500,0.00000,0.03123,0.97807,-0.18544,0.0,2023,6,7,17,8,17,532
48.95110,0.17255,-0.10500,0.00000,0.03160,0.97685,-0.18910,0.0,2023,6,7,17,8,17,543
48.95120,-0.07245,-0.15750,0.00000,0.03184,0.97637,-0.18849,0.0,2023,6,7,17,8,17,554
48.95130,-0.12495,0.12250,0.00000,0.03062,0.97515,-0.18666,0.0,2023,6,7,17,8,17,566
48.95140,-0.15995,-0.26250,0.00000,0.03148,0.97917,-0.18898,0.0,2023,6,7,17,8,17,577
48.95150,0.12005,0.17500,0.00000,0.03038,0.97417,-0.18898,0.0,2023,6,7,17,8,17,588
