#2023/06/07 16:57:03
time,wx,wy,wz,ax,ay,az,yy,MM,dd,hh,mm,ss,ms
47.65850,-0.05005,0.02555,0.00000,0.03062,0.97637,-0.18642,0.0,2023,6,7,16,57,4,449
47.65860,0.10745,0.04305,0.00000,0.03184,0.97868,-0.18825,0.0,2023,6,7,16,57,4,461
47.65870,0.24745,-0.28945,0.00000,0.03099,0.97807,-0.18861,0.0,2023,6,7,16,57,4,472
47.65880,-0.06755,0.02555,0.00000,0.03099,0.97490,-0.18837,0.0,2023,6,7,16,57,4,483
47.65890,-0.20755,0.00805,0.00000,0.03135,0.97746,-0.18861,0.0,2023,6,7,16,57,4,494
47.65900,0.12495,-0.06195,0.00000,0.03135,0.97685,-0.18886,0.0,2023,6,7,16,57,4,505
47.65910,-0.13755,-0.09695,0.00000,0.03135,0.97710,-0.18654,0.0,2023,6,7,16,57,4,516
47.65920,-0.19005,0.20055,0.00000,0.03221,0.97673,-0.18776,0.0,2023,6,7,16,57,4,527
47.65930,0.00245,-0.16695,0.00000,0.02989,0.97600,-0.18959,0.0,2023,6,7,16,57,4,538
47.65940,-0.17255,-0.02695,0.00000,0.03160,0.97759,-0.18959,0.0,2023,6,7,16,57,4,549
47.65950,-0.05005,-0.07945,0.00000,0.03245,0.97551,-0.18739,0.0,2023,6,7,16,57,4,560
47.65960,-0.06755,0.06055,0.00000,0.03111,0.97490,-0.18751,0.0,2023,6,7,16,57,4,571
47.65970,-0.08505,-0.13195,0.00000,0.03318,0.97661,-0.18788,0.0,2023,6,7,16,57,4,582
47.65980,-0.17255,0.18305,0.00000,0.03111,0.97612,-0.18983,0.0,2023,6,7,16,57,4,593
47.65990,0.01995,0.06055,0.00000,0.03148,0.97576,-0.18886,0.0,2023,6,7,16,57,4,604
47.66000,-0.06755,0.16555,0.00000,0.03001,0.97661,-0.19056,0.0,2023,6,7,16,57,4,615
47.66010,-0.05005,-0.06195,0.00000,0.03233,0.97710,-0.18837,0.0,2023,6,7,16,57,4,626
47.66020,0.00245,-0.00945,0.00000,0.03245,0.97600,-0.18800,0.0,2023,6,7,16,57,4,637
47.66030,-0.08505,-0.06195,0.00000,0.03135,0.97624,-0.18690,0.0,2023,6,7,16,57,4,648
47.66040,-0.06755,0.20055,0.00000,0.03026,0.97795,-0.18873,0.0,2023,6,7,16,57,4,659
47.66050,-0.01505,-0.07945,0.00000,0.03172,0.97746,-0.18751,0.0,2023,6,7,16,57,4,670
47.66060,-0.20755,0.11305,0.00000,0.03013,0.97344,-0.18898,0.0,2023,6,7,16,57,4,682
47.66070,-0.01505,-0.00945,0.00000,0.03160,0.97527,-0.19044,0.0,2023,6,7,16,57,4,693
47.66080,0.03745,0.06055,0.00000,0.03160,0.97515,-0.18910,0.0,2023,6,7,16,57,4,704
47.66090,0.01995,0.00805,0.00000,0.03013,0.97563,-0.18617,0.0,2023,6,7,16,57,4,715
47.66100,-0.19005,0.13055,0.00000,0.02904,0.97527,-0.18715,0.0,2023,6,7,16,57,4,726
47.66110,-0.17255,0.06055,0.00000,0.03062,0.97393,-0.18703,0.0,2023,6,7,16,57,4,737
47.66120,0.19495,-0.04445,0.00000,0.03148,0.97868,-0.18825,0.0,2023,6,7,16,57,4,748
47.66130,0.24745,-0.18445,0.00000,0.03111,0.97502,-0.18751,0.0,2023,6,7,16,57,4,759
47.66140,-0.10255,-0.02695,0.00000,0.03318,0.97649,-0.18629,0.0,2023,6,7,16,57,4,770
47.66150,0.03745,0.11305,0.00000,0.03209,0.97441,-0.18922,0.0,2023,6,7,16,57,4,781
47.66160,0.10745,0.02555,0.00000,0.02952,0.97478,-0.18605,0.0,2023,6,7,16,57,4,792
47.66170,-0.13755,0.04305,0.00000,0.02977,0.97612,-0.18886,0.0,2023,6,7,16,57,4,803
47.66180,-0.06755,-0.07945,0.00000,0.03209,0.97673,-0.18971,0.0,2023,6,7,16,57,4,814
47.66190,-0.01505,0.23555,0.00000,0.03172,0.97661,-0.18544,0.0,2023,6,7,16,57,4,825
47.66200,-0.10255,0.14805,0.00000,0.03221,0.97771,-0.18812,0.0,2023,6,7,16,57,4,836
47.66210,0.05495,-0.14945,0.00000,0.03196,0.97527,-0.18837,0.0,2023,6,7,16,57,4,847
47.66220,-0.10255,0.04305,0.00000,0.03123,0.97649,-0.18825,0.0,2023,6,7,16,57,4,858
47.66230,0.10745,0.06055,0.00000,0.03184,0.97649,-0.18825,0.0,2023,6,7,16,57,4,869
47.66240,0.00245,0.00805,0.00000,0.03306,0.97637,-0.18703,0.0,2023,6,7,16,57,4,880
47.66250,-0.08505,0.09555,0.00000,0.03111,0.97698,-0.18703,0.0,2023,6,7,16,57,4,891
47.66260,0.03745,0.04305,0.00000,0.03026,0.97563,-0.18459,0.0,2023,6,7,16,57,4,903
47.66270,0.01995,0.02555,0.00000,0.03160,0.97734,-0.18837,0.0,2023,6,7,16,57,4,914
47.66280,0.07245,0.18305,0.00000,0.03172,0.97576,-0.18483,0.0,2023,6,7,16,57,4,925
47.66290,-0.01505,-0.07945,0.00000,0.03209,0.97734,-0.18678,0.0,2023,6,7,16,57,4,936
47.66300,0.08995,-0.00945,0.00000,0.03196,0.97515,-0.18739,0.0,2023,6,7,16,57,4,947
47.66310,0.08995,0.00805,0.00000,0.03184,0.97893,-0.18703,0.0,2023,6,7,16,57,4,958
47.66320,0.03745,-0.00945,0.00000,0.03221,0.97807,-0.18995,0.0,2023,6,7,16,57,4,969
47.66330,0.10745,-0.20195,0.00000,0.03233,0.97673,-0.18947,0.0,2023,6,7,16,57,5,0
47.66340,-0.03255,0.28805,0.00000,0.03062,0.97563,-0.18825,0.0,2023,6,7,16,57,5,11
47.66350,0.05495,0.11305,0.00000,0.03062,0.97478,-0.18837,0.0,2023,6,7,16,57,5,22
47.66360,-0.15505,0.02555,0.00000,0.03123,0.97539,-0.18715,0.0,2023,6,7,16,57,5,33
47.66370,0.14245,0.00805,0.00000,0.03257,0.97929,-0.18690,0.0,2023,6,7,16,57,5,44
47.66380,0.00245,-0.04445,0.00000,0.03221,0.97332,-0.18837,0.0,2023,6,7,16,57,5,55
47.66390,-0.12005,0.07805,0.00000,0.03111,0.98112,-0.18581,0.0,2023,6,7,16,57,5,66
47.66400,-0.05005,-0.06195,0.00000,0.03172,0.97344,-0.18751,0.0,2023,6,7,16,57,5,77
47.66410,0.01995,0.07805,0.00000,0.03026,0.97698,-0.18983,0.0,2023,6,7,16,57,5,88
47.66420,0.00245,-0.14945,0.00000,0.03099,0.97319,-0.18642,0.0,2023,6,7,16,57,5,99
47.66430,-0.17255,-0.21945,0.00000,0.03184,0.97490,-0.19020,0.0,2023,6,7,16,57,5,110
47.66440,0.10745,-0.34195,0.00000,0.02977,0.97759,-0.18812,0.0,2023,6,7,16,57,5,121
47.66450,-0.12005,0.13055,0.00000,0.03172,0.97612,-0.18971,0.0,2023,6,7,16,57,5,132
47.66460,0.15995,-0.39445,0.00000,0.03099,0.97515,-0.18947,0.0,2023,6,7,16,57,5,144
47.66470,-0.06755,0.32305,0.00000,0.03270,0.97624,-0.18703,0.0,2023,6,7,16,57,5,155
47.66480,-0.12005,-0.27195,0.00000,0.03282,0.97710,-0.18556,0.0,2023,6,7,16,57,5,166
47.66490,0.07245,-0.00945,0.00000,0.02989,0.97771,-0.18910,0.0,2023,6,7,16,57,5,177
47.66500,0.10745,-0.09695,0.00000,0.03184,0.97698,-0.18886,0.0,2023,6,7,16,57,5,188
47.66510,-0.34755,0.13055,0.00000,0.03001,0.97734,-0.18703,0.0,2023,6,7,16,57,5,199
47.66520,0.07245,0.18305,0.00000,0.03074,0.97917,-0.19093,0.0,2023,6,7,16,57,5,210
47.66530,-0.03255,-0.00945,0.00000,0.03099,0.97502,-0.18947,0.0,2023,6,7,16,57,5,221
47.66540,0.01995,0.04305,0.00000,0.03135,0.97807,-0.18776,0.0,2023,6,7,16,57,5,232
47.66550,-0.10255,0.35805,0.00000,0.03123,0.97624,-0.18959,0.0,2023,6,7,16,57,5,243
47.66560,-0.17255,-0.16695,0.00000,0.03160,0.97649,-0.18800,0.0,2023,6,7,16,57,5,254
47.66570,0.07245,0.09555,0.00000,0.03074,0.97612,-0.18581,0.0,2023,6,7,16,57,5,265
47.66580,0.15995,-0.07945,0.00000,0.03123,0.97685,-0.18861,0.0,2023,6,7,16,57,5,276
47.66590,0.01995,-0.18445,0.00000,0.03245,0.97783,-0.18837,0.0,2023,6,7,16,57,5,287
47.66600,0.07245,-0.02695,0.00000,0.03184,0.97466,-0.18898,0.0,2023,6,7,16,57,5,298
47.66610,0.01995,-0.04445,0.00000,0.03111,0.97563,-0.18715,0.0,2023,6,7,16,57,5,309
47.66620,0.01995,-0.09695,0.00000,0.02940,0.97576,-0.18873,0.0,2023,6,7,16,57,5,320
47.66630,-0.10255,-0.02695,0.00000,0.03148,0.97673,-0.18849,0.0,2023,6,7,16,57,5,331
47.66640,0.00245,-0.13195,0.00000,0.03111,0.97868,-0.18861,0.0,2023,6,7,16,57,5,342
47.66650,-0.17255,-0.00945,0.00000,0.03135,0.97588,-0.18727,0.0,2023,6,7,16,57,5,353
47.66660,0.12495,0.02555,0.00000,0.03172,0.97832,-0.18934,0.0,2023,6,7,16,57,5,365
47.66670,-0.12005,0.06055,0.00000,0.03184,0.97710,-0.18995,0.0,2023,6,7,16,57,5,376
47.66680,-0.08505,-0.06195,0.00000,0.03123,0.97405,-0.18764,0.0,2023,6,7,16,57,5,387
47.66690,-0.12005,-0.11445,0.00000,0.02989,0.97502,-0.18764,0.0,2023,6,7,16,57,5,398
47.66700,-0.08505,-0.13195,0.00000,0.03318,0.97673,-0.18764,0.0,2023,6,7,16,57,5,409
47.66710,0.24745,-0.30695,0.00000,0.03123,0.97490,-0.18666,0.0,2023,6,7,16,57,5,420
47.66720,-0.03255,0.20055,0.00000,0.03111,0.97746,-0.18837,0.0,2023,6,7,16,57,5,431
47.66730,-0.01505,0.06055,0.00000,0.03318,0.97771,-0.18861,0.0,2023,6,7,16,57,5,442
47.66740,0.19495,0.04305,0.00000,0.03160,0.97624,-0.18532,0.0,2023,6,7,16,57,5,453
47.66750,0.01995,0.00805,0.00000,0.03050,0.97832,-0.18947,0.0,2023,6,7,16,57,5,464
47.66760,0.00245,0.07805,0.00000,0.03099,0.97673,-0.18776,0.0,2023,6,7,16,57,5,475
47.66770,-0.06755,-0.16695,0.00000,0.03038,0.97588,-0.18861,0.0,2023,6,7,16,57,5,486
47.66780,0.07245,-0.00945,0.00000,0.03160,0.97673,-0.19008,0.0,2023,6,7,16,57,5,497
47.66790,-0.05005,-0.00945,0.00000,0.03123,0.97539,-0.19069,0.0,2023,6,7,16,57,5,508
47.66800,0.17745,-0.04445,0.00000,0.03172,0.97624,-0.19008,0.0,2023,6,7,16,57,5,519
47.66810,-0.03255,-0.00945,0.00000,0.03282,0.97783,-0.18654,0.0,2023,6,7,16,57,5,530
47.66820,0.00245,0.13055,0.00000,0.03221,0.97710,-0.18934,0.0,2023,6,7,16,57,5,541
47.66830,0.08995,-0.04445,0.00000,0.03172,0.97624,-0.18934,0.0,2023,6,7,16,57,5,552
47.66840,0.03745,0.09555,0.00000,0.03221,0.97673,-0.18812,0.0,2023,6,7,16,57,5,563
47.66850,-0.17255,-0.11445,0.00000,0.03148,0.97478,-0.19203,0.0,2023,6,7,16,57,5,574
47.66860,-0.15505,-0.02695,0.00000,0.02904,0.97551,-0.18751,0.0,2023,6,7,16,57,5,586
47.66870,0.15995,-0.02695,0.00000,0.03148,0.97734,-0.18886,0.0,2023,6,7,16,57,5,597
47.66880,0.07245,-0.09695,0.00000,0.03172,0.97868,-0.18983,0.0,2023,6,7,16,57,5,608
47.66890,-0.19005,-0.11445,0.00000,0.03270,0.97624,-0.18703,0.0,2023,6,7,16,57,5,619
47.66900,-0.03255,0.18305,0.00000,0.03099,0.97783,-0.18654,0.0,2023,6,7,16,57,5,630
47.66910,-0.05005,-0.09695,0.00000,0.03196,0.97405,-0.18532,0.0,2023,6,7,16,57,5,641
47.66920,-0.01505,-0.04445,0.00000,0.03160,0.97551,-0.18886,0.0,2023,6,7,16,57,5,652
47.66930,-0.20755,0.21805,0.00000,0.03062,0.97685,-0.18764,0.0,2023,6,7,16,57,5,663
47.66940,0.08995,0.09555,0.00000,0.03221,0.97746,-0.18837,0.0,2023,6,7,16,57,5,674
47.66950,-0.13755,0.14805,0.00000,0.03404,0.97734,-0.19069,0.0,2023,6,7,16,57,5,685
47.66960,0.01995,-0.18445,0.00000,0.03294,0.97502,-0.19056,0.0,2023,6,7,16,57,5,696
47.66970,0.12495,-0.16695,0.00000,0.03111,0.97454,-0.18788,0.0,2023,6,7,16,57,5,707
47.66980,-0.20755,-0.02695,0.00000,0.03123,0.97637,-0.18825,0.0,2023,6,7,16,57,5,718
47.66990,-0.17255,0.18305,0.00000,0.03160,0.97698,-0.18666,0.0,2023,6,7,16,57,5,729
47.67000,0.08995,-0.00945,0.00000,0.02952,0.97600,-0.18959,0.0,2023,6,7,16,57,5,740
47.67010,-0.05005,0.09555,0.00000,0.02977,0.97380,-0.18764,0.0,2023,6,7,16,57,5,751
47.67020,-0.08505,-0.06195,0.00000,0.03099,0.97734,-0.18764,0.0,2023,6,7,16,57,5,762
47.67030,-0.10255,-0.07945,0.00000,0.02965,0.97710,-0.18934,0.0,2023,6,7,16,57,5,773
47.67040,0.05495,-0.11445,0.00000,0.03257,0.97612,-0.18825,0.0,2023,6,7,16,57,5,784
47.67050,0.01995,-0.09695,0.00000,0.03148,0.97661,-0.18642,0.0,2023,6,7,16,57,5,795
47.67060,0.01995,-0.11445,0.00000,0.03184,0.97722,-0.18507,0.0,2023,6,7,16,57,5,807
47.67070,-0.08505,0.06055,0.00000,0.02891,0.97441,-0.18971,0.0,2023,6,7,16,57,5,818
47.67080,0.05495,0.04305,0.00000,0.02916,0.97563,-0.18849,0.0,2023,6,7,16,57,5,829
47.67090,0.07245,0.04305,0.00000,0.03099,0.97771,-0.18983,0.0,2023,6,7,16,57,5,840
47.67100,0.07245,0.13055,0.00000,0.03026,0.97820,-0.18837,0.0,2023,6,7,16,57,5,851
47.67110,0.00245,-0.00945,0.00000,0.03062,0.97637,-0.18617,0.0,2023,6,7,16,57,5,862
47.67120,0.10745,-0.07945,0.00000,0.03172,0.97527,-0.18873,0.0,2023,6,7,16,57,5,873
47.67130,0.07245,-0.14945,0.00000,0.03160,0.97588,-0.18886,0.0,2023,6,7,16,57,5,884
47.67140,0.00245,-0.04445,0.00000,0.03001,0.97722,-0.18800,0.0,2023,6,7,16,57,5,895
47.67150,0.05495,-0.00945,0.00000,0.03270,0.97563,-0.18690,0.0,2023,6,7,16,57,5,906
47.67160,-0.01505,-0.07945,0.00000,0.03001,0.97844,-0.18873,0.0,2023,6,7,16,57,5,917
47.67170,0.05495,-0.11445,0.00000,0.03172,0.97624,-0.18898,0.0,2023,6,7,16,57,5,928
47.67180,0.05495,-0.02695,0.00000,0.03026,0.97685,-0.18581,0.0,2023,6,7,16,57,5,939
47.67190,0.07245,-0.06195,0.00000,0.03074,0.97942,-0.18715,0.0,2023,6,7,16,57,5,950
47.67200,-0.03255,-0.02695,0.00000,0.03172,0.97722,-0.18690,0.0,2023,6,7,16,57,5,961
47.67210,0.00245,-0.20195,0.00000,0.03111,0.97551,-0.18715,0.0,2023,6,7,16,57,5,972
47.67220,-0.03255,-0.00945,0.00000,0.03245,0.97466,-0.18800,0.0,2023,6,7,16,57,5,983
47.67230,-0.15505,-0.11445,0.00000,0.02965,0.97685,-0.18471,0.0,2023,6,7,16,57,5,994
47.67240,0.10745,0.09555,0.00000,0.03367,0.97661,-0.19081,0.0,2023,6,7,16,57,5,5
47.67250,-0.10255,0.07805,0.00000,0.02904,0.97588,-0.18837,0.0,2023,6,7,16,57,6,6
47.67260,0.19495,-0.02695,0.00000,0.03111,0.97795,-0.18898,0.0,2023,6,7,16,57,6,18
47.67270,-0.17255,-0.02695,0.00000,0.03148,0.97600,-0.18922,0.0,2023,6,7,16,57,6,29
47.67280,0.01995,0.04305,0.00000,0.03111,0.97649,-0.18837,0.0,2023,6,7,16,57,6,40
47.67290,0.10745,0.02555,0.00000,0.03148,0.97771,-0.18861,0.0,2023,6,7,16,57,6,51
47.67300,0.12495,-0.11445,0.00000,0.03062,0.97527,-0.18690,0.0,2023,6,7,16,57,6,62
47.67310,-0.05005,0.16555,0.00000,0.03501,0.97429,-0.18934,0.0,2023,6,7,16,57,6,73
47.67320,0.03745,-0.00945,0.00000,0.02940,0.97759,-0.18520,0.0,2023,6,7,16,57,6,84
47.67330,0.01995,-0.02695,0.00000,0.03233,0.97722,-0.18886,0.0,2023,6,7,16,57,6,95
47.67340,0.00245,0.07805,0.00000,0.03148,0.97734,-0.18629,0.0,2023,6,7,16,57,6,106
47.67350,-0.10255,0.20055,0.00000,0.03062,0.97746,-0.18800,0.0,2023,6,7,16,57,6,117
47.67360,-0.05005,-0.06195,0.00000,0.03392,0.97600,-0.18715,0.0,2023,6,7,16,57,6,128
47.67370,0.05495,-0.13195,0.00000,0.03135,0.97624,-0.18861,0.0,2023,6,7,16,57,6,139
47.67380,0.05495,-0.00945,0.00000,0.03099,0.97746,-0.18837,0.0,2023,6,7,16,57,6,150
47.67390,-0.12005,0.06055,0.00000,0.03184,0.97759,-0.18703,0.0,2023,6,7,16,57,6,161
47.67400,-0.03255,0.04305,0.00000,0.02928,0.97722,-0.18971,0.0,2023,6,7,16,57,6,172
47.67410,0.17745,0.07805,0.00000,0.03050,0.97698,-0.18715,0.0,2023,6,7,16,57,6,183
47.67420,-0.08505,0.14805,0.00000,0.03392,0.97649,-0.18873,0.0,2023,6,7,16,57,6,194
47.67430,0.07245,0.30555,0.00000,0.03196,0.97685,-0.18666,0.0,2023,6,7,16,57,6,205
47.67440,-0.08505,-0.06195,0.00000,0.03160,0.97502,-0.18690,0.0,2023,6,7,16,57,6,216
47.67450,-0.06755,0.07805,0.00000,0.03172,0.97783,-0.18678,0.0,2023,6,7,16,57,6,227
47.67460,-0.01505,-0.04445,0.00000,0.03074,0.97698,-0.18703,0.0,2023,6,7,16,57,6,239
47.67470,0.03745,-0.16695,0.00000,0.03245,0.97551,-0.18812,0.0,2023,6,7,16,57,6,250
47.67480,0.03745,-0.11445,0.00000,0.03184,0.97576,-0.18642,0.0,2023,6,7,16,57,6,261
47.67490,-0.03255,0.04305,0.00000,0.02952,0.97783,-0.18971,0.0,2023,6,7,16,57,6,272
47.67500,0.14245,0.06055,0.00000,0.03087,0.97746,-0.18922,0.0,2023,6,7,16,57,6,283
47.67510,-0.01505,0.23555,0.00000,0.03123,0.97600,-0.18898,0.0,2023,6,7,16,57,6,294
47.67520,-0.08505,-0.02695,0.00000,0.03318,0.97649,-0.18898,0.0,2023,6,7,16,57,6,305
47.67530,-0.10255,0.37555,0.00000,0.03209,0.97624,-0.18776,0.0,2023,6,7,16,57,6,316
47.67540,-0.13755,0.07805,0.00000,0.03026,0.97673,-0.18873,0.0,2023,6,7,16,57,6,327
47.67550,-0.17255,0.00805,0.00000,0.03172,0.97576,-0.19008,0.0,2023,6,7,16,57,6,338
47.67560,0.19495,-0.02695,0.00000,0.03062,0.97917,-0.18727,0.0,2023,6,7,16,57,6,349
47.67570,-0.24255,0.11305,0.00000,0.03233,0.97368,-0.18495,0.0,2023,6,7,16,57,6,360
47.67580,0.08995,-0.07945,0.00000,0.03331,0.97600,-0.18959,0.0,2023,6,7,16,57,6,371
47.67590,-0.17255,0.23555,0.00000,0.03087,0.97795,-0.18934,0.0,2023,6,7,16,57,6,382
47.67600,-0.20755,0.11305,0.00000,0.03074,0.97954,-0.18751,0.0,2023,6,7,16,57,6,393
47.67610,-0.15505,-0.07945,0.00000,0.03294,0.97551,-0.18520,0.0,2023,6,7,16,57,6,404
47.67620,0.07245,-0.04445,0.00000,0.03160,0.97685,-0.18703,0.0,2023,6,7,16,57,6,415
47.67630,0.15995,0.09555,0.00000,0.03306,0.97539,-0.18959,0.0,2023,6,7,16,57,6,426
47.67640,-0.33005,0.25305,0.00000,0.02989,0.97539,-0.18703,0.0,2023,6,7,16,57,6,437
47.67650,-0.03255,-0.14945,0.00000,0.03001,0.97722,-0.18898,0.0,2023,6,7,16,57,6,448
47.67660,0.01995,0.00805,0.00000,0.03392,0.97515,-0.18593,0.0,2023,6,7,16,57,6,460
47.67670,-0.13755,0.20055,0.00000,0.03135,0.97746,-0.19056,0.0,2023,6,7,16,57,6,471
47.67680,0.22995,-0.18445,0.00000,0.03172,0.97698,-0.19227,0.0,2023,6,7,16,57,6,482
47.67690,-0.13755,0.02555,0.00000,0.03221,0.97771,-0.18861,0.0,2023,6,7,16,57,6,493
47.67700,-0.26005,0.16555,0.00000,0.03038,0.97856,-0.18849,0.0,2023,6,7,16,57,6,504
47.67710,0.01995,0.18305,0.00000,0.03404,0.97771,-0.18703,0.0,2023,6,7,16,57,6,515
47.67720,-0.05005,0.21805,0.00000,0.03331,0.97441,-0.18715,0.0,2023,6,7,16,57,6,526
47.67730,-0.20755,0.21805,0.00000,0.03135,0.97563,-0.19130,0.0,2023,6,7,16,57,6,537
47.67740,0.17745,-0.02695,0.00000,0.03343,0.97466,-0.18849,0.0,2023,6,7,16,57,6,548
47.67750,-0.05005,-0.21945,0.00000,0.02952,0.97771,-0.18507,0.0,2023,6,7,16,57,6,559
47.67760,-0.13755,-0.16695,0.00000,0.03392,0.97588,-0.18715,0.0,2023,6,7,16,57,6,570
47.67770,0.07245,-0.02695,0.00000,0.03111,0.97783,-0.18690,0.0,2023,6,7,16,57,6,581
47.67780,-0.13755,0.02555,0.00000,0.03282,0.97746,-0.18764,0.0,2023,6,7,16,57,6,592
47.67790,0.12495,0.07805,0.00000,0.03099,0.97454,-0.19349,0.0,2023,6,7,16,57,6,603
47.67800,-0.15505,0.00805,0.00000,0.03123,0.97466,-0.18507,0.0,2023,6,7,16,57,6,614
47.67810,-0.12005,-0.02695,0.00000,0.02904,0.97649,-0.18800,0.0,2023,6,7,16,57,6,625
47.67820,0.05495,0.02555,0.00000,0.03123,0.97746,-0.18776,0.0,2023,6,7,16,57,6,636
47.67830,0.10745,0.06055,0.00000,0.03001,0.97588,-0.18910,0.0,2023,6,7,16,57,6,647
47.67840,0.07245,0.00805,0.00000,0.02891,0.97539,-0.18861,0.0,2023,6,7,16,57,6,658
47.67850,0.17745,-0.00945,0.00000,0.02879,0.97405,-0.18849,0.0,2023,6,7,16,57,6,669
47.67860,0.00245,-0.16695,0.00000,0.03245,0.97600,-0.18605,0.0,2023,6,7,16,57,6,681
47.67870,-0.01505,-0.14945,0.00000,0.03196,0.97612,-0.18751,0.0,2023,6,7,16,57,6,692
47.67880,0.17745,-0.06195,0.00000,0.03001,0.97661,-0.18959,0.0,2023,6,7,16,57,6,703
47.67890,0.03745,-0.23695,0.00000,0.03038,0.97624,-0.18605,0.0,2023,6,7,16,57,6,714
47.67900,-0.01505,-0.27195,0.00000,0.03074,0.97661,-0.18703,0.0,2023,6,7,16,57,6,725
47.67910,0.15995,-0.06195,0.00000,0.03196,0.97454,-0.18971,0.0,2023,6,7,16,57,6,736
47.67920,-0.08505,0.09555,0.00000,0.03135,0.97515,-0.18825,0.0,2023,6,7,16,57,6,747
47.67930,-0.10255,-0.06195,0.00000,0.03135,0.97612,-0.18727,0.0,2023,6,7,16,57,6,758
47.67940,-0.08505,0.07805,0.00000,0.03404,0.97637,-0.18471,0.0,2023,6,7,16,57,6,769
47.67950,0.07245,-0.11445,0.00000,0.03282,0.97746,-0.18654,0.0,2023,6,7,16,57,6,780
47.67960,-0.05005,0.02555,0.00000,0.03087,0.97954,-0.18727,0.0,2023,6,7,16,57,6,791
47.67970,0.01995,0.13055,0.00000,0.02965,0.97576,-0.18947,0.0,2023,6,7,16,57,6,802
47.67980,-0.08505,-0.02695,0.00000,0.03172,0.97759,-0.18666,0.0,2023,6,7,16,57,6,813
47.67990,0.01995,0.06055,0.00000,0.03123,0.97661,-0.18666,0.0,2023,6,7,16,57,6,824
47.68000,0.07245,-0.13195,0.00000,0.02965,0.97539,-0.18800,0.0,2023,6,7,16,57,6,835
47.68010,0.00245,0.09555,0.00000,0.03233,0.97637,-0.18873,0.0,2023,6,7,16,57,6,846
47.68020,-0.12005,0.13055,0.00000,0.03270,0.97527,-0.18922,0.0,2023,6,7,16,57,6,857
47.68030,-0.13755,0.07805,0.00000,0.03123,0.97624,-0.18666,0.0,2023,6,7,16,57,6,868
47.68040,0.01995,-0.06195,0.00000,0.03111,0.97502,-0.18629,0.0,2023,6,7,16,57,6,879
47.68050,-0.08505,0.06055,0.00000,0.03367,0.97710,-0.18910,0.0,2023,6,7,16,57,6,890
47.68060,-0.17255,0.13055,0.00000,0.03221,0.97734,-0.18739,0.0,2023,6,7,16,57,6,902
47.68070,0.00245,-0.20195,0.00000,0.02965,0.97673,-0.18886,0.0,2023,6,7,16,57,6,913
47.68080,0.01995,0.00805,0.00000,0.03440,0.97637,-0.18995,0.0,2023,6,7,16,57,6,924
47.68090,-0.01505,0.14805,0.00000,0.03416,0.97478,-0.18776,0.0,2023,6,7,16,57,6,935
47.68100,-0.01505,-0.02695,0.00000,0.03343,0.97844,-0.18825,0.0,2023,6,7,16,57,6,946
47.68110,0.00245,0.06055,0.00000,0.03257,0.97551,-0.18873,0.0,2023,6,7,16,57,6,957
47.68120,-0.15505,-0.07945,0.00000,0.03282,0.97771,-0.18776,0.0,2023,6,7,16,57,6,968
47.68130,-0.08505,-0.13195,0.00000,0.03050,0.97515,-0.18690,0.0,2023,6,7,16,57,6,979
47.68140,-0.03255,-0.21945,0.00000,0.02989,0.97429,-0.18446,0.0,2023,6,7,16,57,7,0
47.68150,0.10745,0.00805,0.00000,0.03013,0.97637,-0.18837,0.0,2023,6,7,16,57,7,11
47.68160,-0.05005,0.09555,0.00000,0.03123,0.97429,-0.18800,0.0,2023,6,7,16,57,7,22
47.68170,0.21245,-0.16695,0.00000,0.03087,0.97612,-0.18532,0.0,2023,6,7,16,57,7,33
47.68180,0.01995,0.07805,0.00000,0.03001,0.97600,-0.18764,0.0,2023,6,7,16,57,7,44
47.68190,0.00245,0.27055,0.00000,0.03343,0.97649,-0.18495,0.0,2023,6,7,16,57,7,55
47.68200,0.07245,-0.09695,0.00000,0.03233,0.97759,-0.18947,0.0,2023,6,7,16,57,7,66
47.68210,-0.03255,0.00805,0.00000,0.03074,0.97612,-0.18617,0.0,2023,6,7,16,57,7,77
47.68220,-0.15505,0.11305,0.00000,0.03050,0.97588,-0.18959,0.0,2023,6,7,16,57,7,88
47.68230,-0.06755,-0.11445,0.00000,0.03099,0.97759,-0.18678,0.0,2023,6,7,16,57,7,99
47.68240,-0.01505,-0.07945,0.00000,0.03196,0.97551,-0.18544,0.0,2023,6,7,16,57,7,110
47.68250,0.07245,0.09555,0.00000,0.02952,0.97563,-0.18983,0.0,2023,6,7,16,57,7,121
47.68260,-0.12005,0.20055,0.00000,0.03282,0.97649,-0.18739,0.0,2023,6,7,16,57,7,133
47.68270,-0.17255,0.13055,0.00000,0.03184,0.97820,-0.18568,0.0,2023,6,7,16,57,7,144
47.68280,0.17745,0.09555,0.00000,0.03160,0.97698,-0.18678,0.0,2023,6,7,16,57,7,155
47.68290,0.00245,-0.02695,0.00000,0.03245,0.97746,-0.18764,0.0,2023,6,7,16,57,7,166
47.68300,0.01995,0.06055,0.00000,0.03087,0.97624,-0.18934,0.0,2023,6,7,16,57,7,177
47.68310,0.10745,0.02555,0.00000,0.03306,0.97661,-0.18886,0.0,2023,6,7,16,57,7,188
47.68320,-0.19005,0.06055,0.00000,0.03135,0.97771,-0.18642,0.0,2023,6,7,16,57,7,199
47.68330,-0.01505,0.06055,0.00000,0.03172,0.97527,-0.18837,0.0,2023,6,7,16,57,7,210
47.68340,-0.20755,0.11305,0.00000,0.03148,0.97722,-0.18898,0.0,2023,6,7,16,57,7,221
47.68350,0.00245,0.06055,0.00000,0.03318,0.97649,-0.18861,0.0,2023,6,7,16,57,7,232
47.68360,0.07245,0.09555,0.00000,0.03160,0.97478,-0.18825,0.0,2023,6,7,16,57,7,243
47.68370,-0.12005,0.02555,0.00000,0.03270,0.97637,-0.18617,0.0,2023,6,7,16,57,7,254
47.68380,-0.06755,0.30555,0.00000,0.03294,0.97673,-0.18715,0.0,2023,6,7,16,57,7,265
47.68390,-0.08505,-0.07945,0.00000,0.03135,0.97673,-0.18666,0.0,2023,6,7,16,57,7,276
47.68400,0.19495,-0.20195,0.00000,0.03074,0.97673,-0.18776,0.0,2023,6,7,16,57,7,287
47.68410,0.08995,0.13055,0.00000,0.03087,0.97722,-0.18861,0.0,2023,6,7,16,57,7,298
47.68420,0.01995,-0.16695,0.00000,0.03209,0.97405,-0.18922,0.0,2023,6,7,16,57,7,309
47.68430,-0.01505,-0.06195,0.00000,0.03038,0.97820,-0.18764,0.0,2023,6,7,16,57,7,320
47.68440,-0.17255,-0.02695,0.00000,0.03001,0.97600,-0.18776,0.0,2023,6,7,16,57,7,331
47.68450,0.10745,-0.00945,0.00000,0.02940,0.97698,-0.18654,0.0,2023,6,7,16,57,7,342
47.68460,0.05495,0.11305,0.00000,0.03111,0.97563,-0.18629,0.0,2023,6,7,16,57,7,354
47.68470,-0.08505,-0.00945,0.00000,0.03074,0.97685,-0.18690,0.0,2023,6,7,16,57,7,365
47.68480,-0.06755,-0.04445,0.00000,0.03099,0.97649,-0.18666,0.0,2023,6,7,16,57,7,376
47.68490,0.12495,-0.13195,0.00000,0.03111,0.97624,-0.18849,0.0,2023,6,7,16,57,7,387
47.68500,-0.08505,-0.02695,0.00000,0.03160,0.97661,-0.18727,0.0,2023,6,7,16,57,7,398
47.68510,0.08995,-0.02695,0.00000,0.03221,0.97783,-0.18947,0.0,2023,6,7,16,57,7,409
47.68520,0.14245,-0.02695,0.00000,0.03123,0.97624,-0.18654,0.0,2023,6,7,16,57,7,420
47.68530,-0.06755,-0.02695,0.00000,0.03257,0.97820,-0.18800,0.0,2023,6,7,16,57,7,431
47.68540,0.14245,-0.00945,0.00000,0.03306,0.97405,-0.18861,0.0,2023,6,7,16,57,7,442
47.68550,0.03745,-0.06195,0.00000,0.03062,0.97490,-0.18861,0.0,2023,6,7,16,57,7,453
47.68560,0.03745,0.00805,0.00000,0.03416,0.97832,-0.18751,0.0,2023,6,7,16,57,7,464
47.68570,0.07245,0.09555,0.00000,0.03160,0.97624,-0.18800,0.0,2023,6,7,16,57,7,475
47.68580,-0.24255,-0.04445,0.00000,0.03050,0.97624,-0.18934,0.0,2023,6,7,16,57,7,486
47.68590,0.01995,-0.06195,0.00000,0.03050,0.97612,-0.18934,0.0,2023,6,7,16,57,7,497
47.68600,0.15995,-0.06195,0.00000,0.03038,0.97612,-0.18788,0.0,2023,6,7,16,57,7,508
47.68610,-0.08505,-0.09695,0.00000,0.03062,0.97563,-0.18751,0.0,2023,6,7,16,57,7,519
47.68620,0.15995,0.02555,0.00000,0.02867,0.97673,-0.18849,0.0,2023,6,7,16,57,7,530
47.68630,0.00245,0.09555,0.00000,0.03087,0.97637,-0.18678,0.0,2023,6,7,16,57,7,541
47.68640,-0.13755,-0.00945,0.00000,0.03050,0.97905,-0.18532,0.0,2023,6,7,16,57,7,552
47.68650,0.24745,-0.07945,0.00000,0.03233,0.97673,-0.18581,0.0,2023,6,7,16,57,7,563
47.68660,-0.08505,0.07805,0.00000,0.03172,0.97612,-0.18837,0.0,2023,6,7,16,57,7,575
47.68670,-0.20755,0.11305,0.00000,0.03062,0.97746,-0.18922,0.0,2023,6,7,16,57,7,586
47.68680,-0.06755,-0.04445,0.00000,0.03123,0.97661,-0.18934,0.0,2023,6,7,16,57,7,597
47.68690,0.15995,-0.13195,0.00000,0.03379,0.97734,-0.18581,0.0,2023,6,7,16,57,7,608
47.68700,-0.22505,-0.18445,0.00000,0.03294,0.97722,-0.18849,0.0,2023,6,7,16,57,7,619
47.68710,0.14245,0.07805,0.00000,0.03160,0.97844,-0.18910,0.0,2023,6,7,16,57,7,630
47.68720,-0.03255,-0.02695,0.00000,0.03087,0.97588,-0.18593,0.0,2023,6,7,16,57,7,641
47.68730,-0.03255,0.06055,0.00000,0.03148,0.97551,-0.18617,0.0,2023,6,7,16,57,7,652
47.68740,0.05495,0.00805,0.00000,0.03184,0.97612,-0.18751,0.0,2023,6,7,16,57,7,663
47.68750,-0.05005,0.20055,0.00000,0.03050,0.97746,-0.18776,0.0,2023,6,7,16,57,7,674
47.68760,0.08995,-0.14945,0.00000,0.03477,0.97685,-0.18776,0.0,2023,6,7,16,57,7,685
47.68770,-0.15505,-0.04445,0.00000,0.03196,0.97563,-0.18581,0.0,2023,6,7,16,57,7,696
47.68780,-0.06755,-0.13195,0.00000,0.03282,0.97771,-0.18849,0.0,2023,6,7,16,57,7,707
47.68790,0.17745,-0.07945,0.00000,0.03184,0.97649,-0.18995,0.0,2023,6,7,16,57,7,718
47.68800,-0.10255,0.18305,0.00000,0.03282,0.97612,-0.18959,0.0,2023,6,7,16,57,7,729
47.68810,-0.20755,0.02555,0.00000,0.03160,0.97844,-0.18690,0.0,2023,6,7,16,57,7,740
47.68820,0.07245,-0.06195,0.00000,0.03135,0.97502,-0.19093,0.0,2023,6,7,16,57,7,751
47.68830,0.01995,-0.07945,0.00000,0.03245,0.97624,-0.18825,0.0,2023,6,7,16,57,7,762
47.68840,0.03745,-0.11445,0.00000,0.03123,0.97344,-0.18751,0.0,2023,6,7,16,57,7,773
47.68850,-0.08505,-0.06195,0.00000,0.03184,0.97771,-0.18739,0.0,2023,6,7,16,57,7,784
47.68860,0.01995,-0.14945,0.00000,0.03087,0.97515,-0.18898,0.0,2023,6,7,16,57,7,796
47.68870,-0.03255,-0.00945,0.00000,0.03148,0.97563,-0.18837,0.0,2023,6,7,16,57,7,807
47.68880,0.10745,-0.09695,0.00000,0.03111,0.97624,-0.19044,0.0,2023,6,7,16,57,7,818
47.68890,0.00245,-0.00945,0.00000,0.03172,0.97600,-0.18971,0.0,2023,6,7,16,57,7,829
47.68900,-0.15505,0.09555,0.00000,0.03087,0.97673,-0.18898,0.0,2023,6,7,16,57,7,840
47.68910,0.22995,-0.09695,0.00000,0.03184,0.97612,-0.18764,0.0,2023,6,7,16,57,7,851
47.68920,-0.20755,0.18305,0.00000,0.03270,0.97551,-0.18751,0.0,2023,6,7,16,57,7,862
47.68930,0.10745,0.02555,0.00000,0.02989,0.97759,-0.18776,0.0,2023,6,7,16,57,7,873
47.68940,-0.08505,0.14805,0.00000,0.03123,0.97502,-0.18739,0.0,2023,6,7,16,57,7,884
47.68950,-0.13755,-0.00945,0.00000,0.03087,0.97673,-0.18483,0.0,2023,6,7,16,57,7,895
47.68960,0.21245,-0.13195,0.00000,0.03038,0.97746,-0.18727,0.0,2023,6,7,16,57,7,906
47.68970,-0.01505,0.14805,0.00000,0.03184,0.97673,-0.18861,0.0,2023,6,7,16,57,7,917
47.68980,0.05495,0.11305,0.00000,0.03257,0.97551,-0.18825,0.0,2023,6,7,16,57,7,928
47.68990,-0.01505,-0.09695,0.00000,0.03306,0.97673,-0.18861,0.0,2023,6,7,16,57,7,939
47.69000,0.00245,-0.11445,0.00000,0.03087,0.97441,-0.18727,0.0,2023,6,7,16,57,7,950
47.69010,0.00245,-0.07945,0.00000,0.03245,0.97429,-0.18898,0.0,2023,6,7,16,57,7,961
47.69020,-0.12005,0.06055,0.00000,0.03074,0.97649,-0.18886,0.0,2023,6,7,16,57,7,972
47.69030,0.03745,-0.09695,0.00000,0.03196,0.97722,-0.18678,0.0,2023,6,7,16,57,7,983
47.69040,0.12495,0.09555,0.00000,0.03050,0.97807,-0.18617,0.0,2023,6,7,16,57,8,4
47.69050,0.15995,-0.13195,0.00000,0.03172,0.97698,-0.18800,0.0,2023,6,7,16,57,8,15
47.69060,-0.15505,0.14805,0.00000,0.03172,0.97868,-0.18727,0.0,2023,6,7,16,57,8,27
47.69070,-0.26005,-0.00945,0.00000,0.03013,0.97612,-0.18642,0.0,2023,6,7,16,57,8,38
47.69080,-0.15505,0.00805,0.00000,0.03160,0.97710,-0.19008,0.0,2023,6,7,16,57,8,49
47.69090,0.01995,0.11305,0.00000,0.03209,0.97307,-0.18898,0.0,2023,6,7,16,57,8,60
47.69100,-0.08505,0.02555,0.00000,0.03318,0.97710,-0.18642,0.0,2023,6,7,16,57,8,71
47.69110,0.03745,0.04305,0.00000,0.03062,0.97393,-0.18788,0.0,2023,6,7,16,57,8,82
47.69120,0.14245,-0.14945,0.00000,0.03196,0.97746,-0.18764,0.0,2023,6,7,16,57,8,93
47.69130,0.14245,-0.27195,0.00000,0.03087,0.97637,-0.18971,0.0,2023,6,7,16,57,8,104
47.69140,0.08995,-0.00945,0.00000,0.03160,0.97600,-0.18873,0.0,2023,6,7,16,57,8,115
47.69150,-0.03255,-0.23695,0.00000,0.03038,0.97905,-0.18812,0.0,2023,6,7,16,57,8,126
47.69160,-0.10255,0.07805,0.00000,0.03184,0.97576,-0.18971,0.0,2023,6,7,16,57,8,137
47.69170,-0.10255,0.00805,0.00000,0.03050,0.97685,-0.18666,0.0,2023,6,7,16,57,8,148
47.69180,0.00245,0.13055,0.00000,0.03355,0.97673,-0.18764,0.0,2023,6,7,16,57,8,159
47.69190,0.00245,0.07805,0.00000,0.03392,0.97637,-0.18764,0.0,2023,6,7,16,57,8,170
47.69200,-0.10255,-0.25445,0.00000,0.03099,0.97722,-0.18800,0.0,2023,6,7,16,57,8,181
47.69210,0.03745,-0.00945,0.00000,0.03123,0.97685,-0.18812,0.0,2023,6,7,16,57,8,192
47.69220,-0.01505,-0.28945,0.00000,0.03087,0.97698,-0.18983,0.0,2023,6,7,16,57,8,203
47.69230,0.12495,-0.09695,0.00000,0.03184,0.97356,-0.18764,0.0,2023,6,7,16,57,8,214
47.69240,0.01995,0.06055,0.00000,0.02989,0.98015,-0.18520,0.0,2023,6,7,16,57,8,225
47.69250,-0.10255,0.09555,0.00000,0.03123,0.97685,-0.18776,0.0,2023,6,7,16,57,8,236
47.69260,0.05495,0.00805,0.00000,0.02879,0.97698,-0.18642,0.0,2023,6,7,16,57,8,248
47.69270,-0.08505,0.02555,0.00000,0.03026,0.97429,-0.19020,0.0,2023,6,7,16,57,8,259
47.69280,-0.13755,0.02555,0.00000,0.03074,0.97563,-0.18727,0.0,2023,6,7,16,57,8,270
47.69290,-0.05005,-0.02695,0.00000,0.03196,0.97685,-0.18715,0.0,2023,6,7,16,57,8,281
47.69300,0.03745,0.06055,0.00000,0.03123,0.97771,-0.18678,0.0,2023,6,7,16,57,8,292
47.69310,0.00245,-0.04445,0.00000,0.03038,0.97515,-0.18886,0.0,2023,6,7,16,57,8,303
47.69320,-0.06755,-0.00945,0.00000,0.03233,0.97637,-0.18727,0.0,2023,6,7,16,57,8,314
47.69330,-0.03255,-0.00945,0.00000,0.03135,0.97722,-0.18715,0.0,2023,6,7,16,57,8,325
47.69340,0.00245,-0.06195,0.00000,0.03221,0.97490,-0.18788,0.0,2023,6,7,16,57,8,336
47.69350,-0.08505,-0.04445,0.00000,0.03209,0.97795,-0.18861,0.0,2023,6,7,16,57,8,347
47.69360,0.12495,-0.14945,0.00000,0.03013,0.97429,-0.18764,0.0,2023,6,7,16,57,8,358
47.69370,0.08995,-0.09695,0.00000,0.03135,0.97478,-0.18727,0.0,2023,6,7,16,57,8,369
47.69380,-0.12005,-0.11445,0.00000,0.02977,0.97539,-0.18776,0.0,2023,6,7,16,57,8,380
47.69390,-0.01505,0.09555,0.00000,0.03001,0.97624,-0.18959,0.0,2023,6,7,16,57,8,391
47.69400,0.07245,-0.21945,0.00000,0.03013,0.97661,-0.19069,0.0,2023,6,7,16,57,8,402
47.69410,-0.13755,0.04305,0.00000,0.03282,0.97685,-0.18483,0.0,2023,6,7,16,57,8,413
47.69420,-0.05005,-0.13195,0.00000,0.03160,0.97588,-0.18837,0.0,2023,6,7,16,57,8,424
47.69430,0.01995,0.02555,0.00000,0.03270,0.97685,-0.18727,0.0,2023,6,7,16,57,8,435
47.69440,-0.24255,-0.07945,0.00000,0.02989,0.97771,-0.18556,0.0,2023,6,7,16,57,8,446
47.69450,0.05495,-0.23695,0.00000,0.03099,0.97734,-0.18837,0.0,2023,6,7,16,57,8,457
47.69460,0.10745,0.02555,0.00000,0.03135,0.97868,-0.18739,0.0,2023,6,7,16,57,8,469
47.69470,-0.06755,-0.00945,0.00000,0.03184,0.97783,-0.18764,0.0,2023,6,7,16,57,8,480
47.69480,0.15995,0.09555,0.00000,0.03148,0.97612,-0.18959,0.0,2023,6,7,16,57,8,491
47.69490,0.01995,0.09555,0.00000,0.02940,0.97673,-0.18922,0.0,2023,6,7,16,57,8,502
47.69500,-0.08505,-0.00945,0.00000,0.03367,0.97393,-0.18690,0.0,2023,6,7,16,57,8,513
47.69510,0.15995,-0.14945,0.00000,0.03099,0.97661,-0.18861,0.0,2023,6,7,16,57,8,524
47.69520,-0.19005,0.16555,0.00000,0.03148,0.97759,-0.18788,0.0,2023,6,7,16,57,8,535
47.69530,-0.05005,-0.13195,0.00000,0.03196,0.97722,-0.18690,0.0,2023,6,7,16,57,8,546
47.69540,-0.05005,-0.07945,0.00000,0.03160,0.97637,-0.18568,0.0,2023,6,7,16,57,8,557
47.69550,-0.13755,0.09555,0.00000,0.03160,0.97551,-0.18666,0.0,2023,6,7,16,57,8,568
47.69560,-0.15505,0.09555,0.00000,0.02977,0.97624,-0.19044,0.0,2023,6,7,16,57,8,579
47.69570,0.12495,-0.13195,0.00000,0.03050,0.97832,-0.18983,0.0,2023,6,7,16,57,8,590
47.69580,0.14245,-0.13195,0.00000,0.03209,0.97710,-0.18727,0.0,2023,6,7,16,57,8,601
47.69590,0.08995,0.04305,0.00000,0.03038,0.97649,-0.18727,0.0,2023,6,7,16,57,8,612
47.69600,0.07245,-0.04445,0.00000,0.03196,0.97612,-0.18715,0.0,2023,6,7,16,57,8,623
47.69610,0.03745,-0.13195,0.00000,0.03050,0.97600,-0.18934,0.0,2023,6,7,16,57,8,634
47.69620,0.03745,-0.20195,0.00000,0.03013,0.97710,-0.18995,0.0,2023,6,7,16,57,8,645
47.69630,-0.03255,0.02555,0.00000,0.03367,0.97441,-0.18837,0.0,2023,6,7,16,57,8,656
47.69640,0.07245,-0.07945,0.00000,0.03038,0.97344,-0.19020,0.0,2023,6,7,16,57,8,667
47.69650,0.07245,0.11305,0.00000,0.03026,0.97917,-0.18776,0.0,2023,6,7,16,57,8,678
47.69660,0.10745,0.04305,0.00000,0.03111,0.97624,-0.18727,0.0,2023,6,7,16,57,8,690
47.69670,0.12495,0.00805,0.00000,0.02855,0.97551,-0.18617,0.0,2023,6,7,16,57,8,701
47.69680,-0.08505,0.09555,0.00000,0.03245,0.97637,-0.18947,0.0,2023,6,7,16,57,8,712
47.69690,0.05495,-0.04445,0.00000,0.03099,0.97563,-0.19008,0.0,2023,6,7,16,57,8,723
47.69700,-0.06755,-0.04445,0.00000,0.03099,0.97454,-0.18910,0.0,2023,6,7,16,57,8,734
47.69710,0.03745,-0.06195,0.00000,0.03038,0.97441,-0.18751,0.0,2023,6,7,16,57,8,745
47.69720,-0.15505,0.02555,0.00000,0.03233,0.97600,-0.18922,0.0,2023,6,7,16,57,8,756
47.69730,0.00245,0.20055,0.00000,0.03001,0.97844,-0.19008,0.0,2023,6,7,16,57,8,767
47.69740,0.10745,0.00805,0.00000,0.03306,0.97600,-0.18849,0.0,2023,6,7,16,57,8,778
47.69750,-0.22505,-0.02695,0.00000,0.03099,0.97685,-0.18703,0.0,2023,6,7,16,57,8,789
47.69760,0.12495,-0.14945,0.00000,0.03282,0.97576,-0.19008,0.0,2023,6,7,16,57,8,800
47.69770,0.12495,-0.07945,0.00000,0.03111,0.97600,-0.19032,0.0,2023,6,7,16,57,8,811
47.69780,0.01995,0.23555,0.00000,0.02940,0.97527,-0.18886,0.0,2023,6,7,16,57,8,822
47.69790,-0.13755,-0.07945,0.00000,0.02977,0.97393,-0.18922,0.0,2023,6,7,16,57,8,833
47.69800,-0.08505,0.07805,0.00000,0.02916,0.97649,-0.18751,0.0,2023,6,7,16,57,8,844
47.69810,0.14245,-0.06195,0.00000,0.03001,0.97759,-0.19008,0.0,2023,6,7,16,57,8,855
47.69820,0.01995,-0.16695,0.00000,0.03184,0.97881,-0.18971,0.0,2023,6,7,16,57,8,866
47.69830,0.05495,0.04305,0.00000,0.03221,0.97759,-0.18861,0.0,2023,6,7,16,57,8,877
47.69840,-0.03255,-0.00945,0.00000,0.03087,0.97661,-0.18544,0.0,2023,6,7,16,57,8,888
47.69850,0.14245,-0.20195,0.00000,0.03209,0.97759,-0.19020,0.0,2023,6,7,16,57,8,899
47.69860,0.08995,-0.04445,0.00000,0.03111,0.97502,-0.18959,0.0,2023,6,7,16,57,8,911
47.69870,-0.03255,0.02555,0.00000,0.03343,0.97637,-0.18898,0.0,2023,6,7,16,57,8,922
47.69880,-0.05005,-0.00945,0.00000,0.03087,0.97685,-0.18544,0.0,2023,6,7,16,57,8,933
47.69890,0.07245,0.09555,0.00000,0.03087,0.97698,-0.18861,0.0,2023,6,7,16,57,8,944
47.69900,-0.03255,0.06055,0.00000,0.03135,0.97771,-0.18934,0.0,2023,6,7,16,57,8,955
47.69910,0.17745,-0.00945,0.00000,0.03160,0.97746,-0.19069,0.0,2023,6,7,16,57,8,966
47.69920,-0.03255,-0.06195,0.00000,0.02940,0.97734,-0.18739,0.0,2023,6,7,16,57,8,977
47.69930,-0.15505,0.18305,0.00000,0.03001,0.97710,-0.18861,0.0,2023,6,7,16,57,8,988
47.69940,0.08995,-0.21945,0.00000,0.03367,0.97746,-0.18727,0.0,2023,6,7,16,57,8,999
47.69950,-0.05005,-0.09695,0.00000,0.03160,0.97673,-0.18581,0.0,2023,6,7,16,57,9,0
47.69960,-0.10255,-0.06195,0.00000,0.03209,0.97722,-0.18800,0.0,2023,6,7,16,57,9,11
47.69970,-0.05005,-0.11445,0.00000,0.03184,0.97746,-0.18666,0.0,2023,6,7,16,57,9,22
47.69980,0.08995,0.14805,0.00000,0.03343,0.97795,-0.18544,0.0,2023,6,7,16,57,9,33
47.69990,-0.05005,0.07805,0.00000,0.03001,0.97661,-0.18764,0.0,2023,6,7,16,57,9,44
47.70000,0.07245,0.04305,0.00000,0.03087,0.97563,-0.18861,0.0,2023,6,7,16,57,9,55
47.70010,0.03745,-0.16695,0.00000,0.03062,0.97661,-0.18861,0.0,2023,6,7,16,57,9,66
47.70020,0.08995,-0.32445,0.00000,0.03355,0.97820,-0.18642,0.0,2023,6,7,16,57,9,77
47.70030,-0.06755,-0.07945,0.00000,0.03196,0.97820,-0.18971,0.0,2023,6,7,16,57,9,88
47.70040,0.14245,-0.09695,0.00000,0.03196,0.97539,-0.18703,0.0,2023,6,7,16,57,9,99
47.70050,0.10745,-0.11445,0.00000,0.02989,0.97612,-0.18959,0.0,2023,6,7,16,57,9,110
47.70060,-0.06755,-0.16695,0.00000,0.02916,0.97637,-0.19020,0.0,2023,6,7,16,57,9,122
47.70070,-0.06755,-0.04445,0.00000,0.03160,0.97527,-0.18825,0.0,2023,6,7,16,57,9,133
47.70080,-0.15505,0.06055,0.00000,0.03026,0.97466,-0.18690,0.0,2023,6,7,16,57,9,144
47.70090,-0.08505,-0.04445,0.00000,0.03026,0.97466,-0.18873,0.0,2023,6,7,16,57,9,155
47.70100,-0.06755,0.04305,0.00000,0.03282,0.97624,-0.18898,0.0,2023,6,7,16,57,9,166
47.70110,-0.17255,0.04305,0.00000,0.03294,0.97417,-0.18837,0.0,2023,6,7,16,57,9,177
47.70120,-0.10255,0.02555,0.00000,0.03294,0.97649,-0.19008,0.0,2023,6,7,16,57,9,188
47.70130,0.08995,0.07805,0.00000,0.03123,0.97588,-0.18556,0.0,2023,6,7,16,57,9,199
47.70140,0.00245,0.04305,0.00000,0.03001,0.97832,-0.18959,0.0,2023,6,7,16,57,9,210
47.70150,0.10745,-0.25445,0.00000,0.03001,0.97734,-0.19093,0.0,2023,6,7,16,57,9,221
47.70160,0.19495,0.23555,0.00000,0.03343,0.97637,-0.18849,0.0,2023,6,7,16,57,9,232
47.70170,-0.03255,-0.13195,0.00000,0.03026,0.97685,-0.18764,0.0,2023,6,7,16,57,9,243
47.70180,-0.15505,0.20055,0.00000,0.03282,0.97685,-0.18800,0.0,2023,6,7,16,57,9,254
47.70190,-0.06755,-0.09695,0.00000,0.03270,0.97832,-0.18959,0.0,2023,6,7,16,57,9,265
47.70200,0.10745,-0.20195,0.00000,0.03013,0.97722,-0.18666,0.0,2023,6,7,16,57,9,276
47.70210,-0.19005,-0.16695,0.00000,0.03074,0.97502,-0.18678,0.0,2023,6,7,16,57,9,287
47.70220,0.00245,-0.28945,0.00000,0.03172,0.97417,-0.18971,0.0,2023,6,7,16,57,9,298
47.70230,-0.12005,0.14805,0.00000,0.03318,0.98015,-0.18593,0.0,2023,6,7,16,57,9,309
47.70240,-0.05005,-0.00945,0.00000,0.03245,0.97807,-0.19093,0.0,2023,6,7,16,57,9,320
47.70250,0.01995,-0.04445,0.00000,0.03087,0.97734,-0.18886,0.0,2023,6,7,16,57,9,331
47.70260,0.07245,-0.06195,0.00000,0.03001,0.97661,-0.18703,0.0,2023,6,7,16,57,9,343
47.70270,0.03745,-0.04445,0.00000,0.03111,0.97661,-0.18666,0.0,2023,6,7,16,57,9,354
47.70280,-0.13755,0.02555,0.00000,0.03282,0.97685,-0.18861,0.0,2023,6,7,16,57,9,365
47.70290,-0.06755,-0.06195,0.00000,0.03087,0.97441,-0.19117,0.0,2023,6,7,16,57,9,376
47.70300,-0.06755,0.04305,0.00000,0.03184,0.97600,-0.18886,0.0,2023,6,7,16,57,9,387
47.70310,0.08995,-0.04445,0.00000,0.03111,0.97502,-0.19008,0.0,2023,6,7,16,57,9,398
47.70320,-0.01505,-0.14945,0.00000,0.03184,0.97527,-0.18983,0.0,2023,6,7,16,57,9,409
47.70330,-0.03255,-0.02695,0.00000,0.03038,0.97710,-0.18971,0.0,2023,6,7,16,57,9,420
47.70340,0.07245,-0.21945,0.00000,0.02928,0.97429,-0.18690,0.0,2023,6,7,16,57,9,431
47.70350,0.01995,0.32305,0.00000,0.03148,0.97783,-0.18947,0.0,2023,6,7,16,57,9,442
47.70360,-0.01505,0.11305,0.00000,0.03123,0.97783,-0.18727,0.0,2023,6,7,16,57,9,453
47.70370,-0.10255,0.02555,0.00000,0.03099,0.97795,-0.19008,0.0,2023,6,7,16,57,9,464
47.70380,0.08995,-0.16695,0.00000,0.03233,0.97588,-0.18776,0.0,2023,6,7,16,57,9,475
47.70390,0.01995,0.07805,0.00000,0.03050,0.97563,-0.19056,0.0,2023,6,7,16,57,9,486
47.70400,0.01995,0.16555,0.00000,0.03123,0.97624,-0.18861,0.0,2023,6,7,16,57,9,497
47.70410,-0.05005,0.20055,0.00000,0.03282,0.97734,-0.18739,0.0,2023,6,7,16,57,9,508
47.70420,0.15995,-0.21945,0.00000,0.03160,0.97490,-0.18873,0.0,2023,6,7,16,57,9,519
47.70430,-0.08505,0.02555,0.00000,0.03013,0.97868,-0.18825,0.0,2023,6,7,16,57,9,530
47.70440,-0.08505,0.00805,0.00000,0.02965,0.97588,-0.18934,0.0,2023,6,7,16,57,9,541
47.70450,0.01995,-0.04445,0.00000,0.03245,0.97576,-0.18788,0.0,2023,6,7,16,57,9,552
47.70460,-0.17255,0.09555,0.00000,0.03233,0.97515,-0.18642,0.0,2023,6,7,16,57,9,564
47.70470,-0.24255,-0.16695,0.00000,0.03050,0.97612,-0.18581,0.0,2023,6,7,16,57,9,575
47.70480,0.03745,-0.20195,0.00000,0.03111,0.97637,-0.18910,0.0,2023,6,7,16,57,9,586
47.70490,-0.12005,0.18305,0.00000,0.03282,0.97502,-0.18861,0.0,2023,6,7,16,57,9,597
47.70500,0.03745,-0.02695,0.00000,0.03062,0.97807,-0.19020,0.0,2023,6,7,16,57,9,608
47.70510,-0.08505,0.14805,0.00000,0.03062,0.97551,-0.18642,0.0,2023,6,7,16,57,9,619
47.70520,-0.15505,-0.06195,0.00000,0.03257,0.97929,-0.18812,0.0,2023,6,7,16,57,9,630
47.70530,-0.13755,0.13055,0.00000,0.02965,0.97722,-0.18898,0.0,2023,6,7,16,57,9,641
47.70540,-0.10255,0.00805,0.00000,0.02757,0.97624,-0.18751,0.0,2023,6,7,16,57,9,652
47.70550,0.03745,0.06055,0.00000,0.03209,0.97673,-0.19142,0.0,2023,6,7,16,57,9,663
47.70560,-0.03255,-0.13195,0.00000,0.03148,0.97673,-0.18837,0.0,2023,6,7,16,57,9,674
47.70570,-0.17255,-0.20195,0.00000,0.03331,0.97856,-0.18849,0.0,2023,6,7,16,57,9,685
47.70580,-0.01505,0.09555,0.00000,0.03245,0.97746,-0.18471,0.0,2023,6,7,16,57,9,696
47.70590,-0.17255,-0.14945,0.00000,0.03050,0.97551,-0.18947,0.0,2023,6,7,16,57,9,707
47.70600,0.14245,-0.06195,0.00000,0.03172,0.97807,-0.18800,0.0,2023,6,7,16,57,9,718
47.70610,-0.03255,0.02555,0.00000,0.03245,0.97612,-0.18764,0.0,2023,6,7,16,57,9,729
47.70620,0.00245,-0.00945,0.00000,0.03099,0.97820,-0.18764,0.0,2023,6,7,16,57,9,740
47.70630,-0.01505,-0.07945,0.00000,0.02965,0.97868,-0.18837,0.0,2023,6,7,16,57,9,751
47.70640,0.08995,-0.14945,0.00000,0.02940,0.97698,-0.18947,0.0,2023,6,7,16,57,9,762
47.70650,-0.08505,0.04305,0.00000,0.03026,0.97673,-0.19105,0.0,2023,6,7,16,57,9,773
47.70660,0.05495,0.00805,0.00000,0.03148,0.97502,-0.19056,0.0,2023,6,7,16,57,9,785
47.70670,0.01995,0.20055,0.00000,0.02977,0.97734,-0.18532,0.0,2023,6,7,16,57,9,796
47.70680,0.17745,0.11305,0.00000,0.03135,0.97588,-0.18751,0.0,2023,6,7,16,57,9,807
47.70690,-0.12005,0.02555,0.00000,0.03148,0.97661,-0.18776,0.0,2023,6,7,16,57,9,818
47.70700,-0.05005,0.06055,0.00000,0.03160,0.97710,-0.19008,0.0,2023,6,7,16,57,9,829
47.70710,-0.06755,-0.20195,0.00000,0.03428,0.97478,-0.18861,0.0,2023,6,7,16,57,9,840
47.70720,-0.10255,0.09555,0.00000,0.03160,0.97820,-0.18800,0.0,2023,6,7,16,57,9,851
47.70730,-0.01505,0.07805,0.00000,0.03294,0.97612,-0.18788,0.0,2023,6,7,16,57,9,862
47.70740,-0.10255,0.00805,0.00000,0.03038,0.97795,-0.18800,0.0,2023,6,7,16,57,9,873
47.70750,-0.20755,-0.00945,0.00000,0.03245,0.97734,-0.18959,0.0,2023,6,7,16,57,9,884
47.70760,-0.06755,0.14805,0.00000,0.03123,0.97600,-0.18812,0.0,2023,6,7,16,57,9,895
47.70770,-0.12005,0.04305,0.00000,0.03221,0.97661,-0.18751,0.0,2023,6,7,16,57,9,906
47.70780,0.01995,0.09555,0.00000,0.03184,0.97673,-0.18605,0.0,2023,6,7,16,57,9,917
47.70790,0.00245,0.21805,0.00000,0.03196,0.97637,-0.18666,0.0,2023,6,7,16,57,9,928
47.70800,0.00245,0.04305,0.00000,0.03160,0.97490,-0.18898,0.0,2023,6,7,16,57,9,939
47.70810,0.03745,0.06055,0.00000,0.03111,0.97612,-0.19044,0.0,2023,6,7,16,57,9,950
47.70820,0.05495,-0.02695,0.00000,0.03245,0.97942,-0.18849,0.0,2023,6,7,16,57,9,961
47.70830,0.19495,-0.07945,0.00000,0.03209,0.97942,-0.18764,0.0,2023,6,7,16,57,10,2
47.70840,0.07245,-0.13195,0.00000,0.03209,0.97698,-0.18910,0.0,2023,6,7,16,57,10,13
47.70850,0.12495,0.06055,0.00000,0.02952,0.97588,-0.18788,0.0,2023,6,7,16,57,10,24
47.70860,0.10745,-0.04445,0.00000,0.03099,0.97551,-0.18886,0.0,2023,6,7,16,57,10,36
47.70870,0.05495,0.13055,0.00000,0.03196,0.97368,-0.18532,0.0,2023,6,7,16,57,10,47
47.70880,0.00245,-0.00945,0.00000,0.03123,0.97393,-0.18715,0.0,2023,6,7,16,57,10,58
47.70890,0.08995,-0.00945,0.00000,0.03221,0.97685,-0.18825,0.0,2023,6,7,16,57,10,69
47.70900,-0.08505,-0.02695,0.00000,0.03087,0.97454,-0.18910,0.0,2023,6,7,16,57,10,80
47.70910,0.03745,0.04305,0.00000,0.03001,0.97722,-0.18703,0.0,2023,6,7,16,57,10,91
47.70920,0.03745,0.13055,0.00000,0.03233,0.97588,-0.18788,0.0,2023,6,7,16,57,10,102
47.70930,0.08995,0.02555,0.00000,0.03184,0.97710,-0.18715,0.0,2023,6,7,16,57,10,113
47.70940,0.12495,-0.23695,0.00000,0.03123,0.97600,-0.18983,0.0,2023,6,7,16,57,10,124
47.70950,-0.01505,-0.07945,0.00000,0.03257,0.97551,-0.18959,0.0,2023,6,7,16,57,10,135
47.70960,0.12495,-0.02695,0.00000,0.03099,0.97368,-0.18739,0.0,2023,6,7,16,57,10,146
47.70970,-0.01505,-0.04445,0.00000,0.03270,0.97649,-0.19044,0.0,2023,6,7,16,57,10,157
47.70980,-0.05005,0.18305,0.00000,0.03282,0.97637,-0.18776,0.0,2023,6,7,16,57,10,168
47.70990,-0.01505,-0.09695,0.00000,0.03111,0.97624,-0.18861,0.0,2023,6,7,16,57,10,179
47.71000,-0.01505,0.06055,0.00000,0.03257,0.97441,-0.18995,0.0,2023,6,7,16,57,10,190
47.71010,0.07245,-0.09695,0.00000,0.03318,0.97588,-0.18520,0.0,2023,6,7,16,57,10,201
47.71020,-0.10255,0.02555,0.00000,0.03318,0.97624,-0.18666,0.0,2023,6,7,16,57,10,212
47.71030,-0.13755,-0.04445,0.00000,0.03148,0.97600,-0.18764,0.0,2023,6,7,16,57,10,223
47.71040,0.00245,0.16555,0.00000,0.03013,0.97588,-0.18727,0.0,2023,6,7,16,57,10,234
47.71050,-0.20755,-0.13195,0.00000,0.03331,0.97673,-0.18581,0.0,2023,6,7,16,57,10,245
47.71060,-0.05005,-0.00945,0.00000,0.03160,0.97710,-0.18617,0.0,2023,6,7,16,57,10,257
47.71070,-0.05005,-0.09695,0.00000,0.03282,0.97661,-0.18459,0.0,2023,6,7,16,57,10,268
47.71080,0.14245,-0.20195,0.00000,0.03172,0.97527,-0.18788,0.0,2023,6,7,16,57,10,279
47.71090,-0.15505,0.02555,0.00000,0.02928,0.97563,-0.19032,0.0,2023,6,7,16,57,10,290
47.71100,-0.13755,0.07805,0.00000,0.03099,0.97393,-0.18898,0.0,2023,6,7,16,57,10,301
47.71110,0.10745,-0.06195,0.00000,0.03087,0.97710,-0.18898,0.0,2023,6,7,16,57,10,312
47.71120,-0.05005,0.07805,0.00000,0.03123,0.97844,-0.18910,0.0,2023,6,7,16,57,10,323
47.71130,0.14245,-0.00945,0.00000,0.03026,0.97649,-0.18910,0.0,2023,6,7,16,57,10,334
47.71140,-0.19005,-0.09695,0.00000,0.03026,0.97685,-0.18642,0.0,2023,6,7,16,57,10,345
47.71150,-0.12005,0.06055,0.00000,0.03050,0.97722,-0.18715,0.0,2023,6,7,16,57,10,356
47.71160,-0.01505,0.09555,0.00000,0.03233,0.97820,-0.18703,0.0,2023,6,7,16,57,10,367
47.71170,0.05495,-0.04445,0.00000,0.03221,0.97539,-0.18678,0.0,2023,6,7,16,57,10,378
47.71180,-0.08505,0.09555,0.00000,0.03001,0.97527,-0.18825,0.0,2023,6,7,16,57,10,389
47.71190,-0.05005,0.25305,0.00000,0.03123,0.97600,-0.18629,0.0,2023,6,7,16,57,10,400
47.71200,-0.08505,0.16555,0.00000,0.02708,0.97649,-0.18812,0.0,2023,6,7,16,57,10,411
47.71210,0.10745,-0.06195,0.00000,0.03050,0.97600,-0.18861,0.0,2023,6,7,16,57,10,422
47.71220,-0.01505,-0.09695,0.00000,0.03196,0.97624,-0.18849,0.0,2023,6,7,16,57,10,433
47.71230,0.03745,0.02555,0.00000,0.03318,0.97539,-0.18654,0.0,2023,6,7,16,57,10,444
47.71240,0.00245,0.06055,0.00000,0.03148,0.97649,-0.18776,0.0,2023,6,7,16,57,10,455
47.71250,-0.05005,0.18305,0.00000,0.03233,0.97661,-0.18605,0.0,2023,6,7,16,57,10,466
47.71260,-0.12005,0.13055,0.00000,0.03160,0.97673,-0.18861,0.0,2023,6,7,16,57,10,478
47.71270,-0.12005,0.16555,0.00000,0.03196,0.97515,-0.18995,0.0,2023,6,7,16,57,10,489
47.71280,-0.08505,0.02555,0.00000,0.03160,0.97637,-0.18861,0.0,2023,6,7,16,57,10,500
47.71290,0.08995,0.18305,0.00000,0.03196,0.97624,-0.18800,0.0,2023,6,7,16,57,10,511
47.71300,-0.13755,-0.00945,0.00000,0.02965,0.97710,-0.18581,0.0,2023,6,7,16,57,10,522
47.71310,0.00245,0.02555,0.00000,0.02977,0.97515,-0.18788,0.0,2023,6,7,16,57,10,533
47.71320,0.00245,-0.02695,0.00000,0.03062,0.97771,-0.18886,0.0,2023,6,7,16,57,10,544
47.71330,-0.06755,0.21805,0.00000,0.03379,0.97710,-0.18703,0.0,2023,6,7,16,57,10,555
47.71340,0.10745,-0.23695,0.00000,0.03026,0.97661,-0.18690,0.0,2023,6,7,16,57,10,566
47.71350,0.19495,0.13055,0.00000,0.03233,0.97563,-0.19093,0.0,2023,6,7,16,57,10,577
47.71360,-0.15505,0.11305,0.00000,0.03245,0.97405,-0.18556,0.0,2023,6,7,16,57,10,588
47.71370,-0.10255,0.02555,0.00000,0.03111,0.97612,-0.18605,0.0,2023,6,7,16,57,10,599
47.71380,-0.06755,0.00805,0.00000,0.03245,0.97734,-0.18715,0.0,2023,6,7,16,57,10,610
47.71390,0.00245,-0.00945,0.00000,0.03282,0.97612,-0.19032,0.0,2023,6,7,16,57,10,621
47.71400,-0.24255,0.07805,0.00000,0.03050,0.97429,-0.18886,0.0,2023,6,7,16,57,10,632
47.71410,0.21245,-0.20195,0.00000,0.03123,0.97722,-0.19008,0.0,2023,6,7,16,57,10,643
47.71420,0.05495,-0.07945,0.00000,0.03196,0.97637,-0.18776,0.0,2023,6,7,16,57,10,654
47.71430,-0.15505,0.07805,0.00000,0.03099,0.97685,-0.18995,0.0,2023,6,7,16,57,10,665
47.71440,0.00245,0.09555,0.00000,0.02989,0.97441,-0.19264,0.0,2023,6,7,16,57,10,676
47.71450,-0.19005,0.06055,0.00000,0.03160,0.97588,-0.19093,0.0,2023,6,7,16,57,10,687
47.71460,0.03745,-0.09695,0.00000,0.03221,0.97502,-0.18898,0.0,2023,6,7,16,57,10,699
47.71470,0.12495,-0.14945,0.00000,0.03270,0.97637,-0.18947,0.0,2023,6,7,16,57,10,710
47.71480,-0.15505,0.04305,0.00000,0.03135,0.97637,-0.18898,0.0,2023,6,7,16,57,10,721
47.71490,0.05495,-0.06195,0.00000,0.03148,0.97527,-0.19081,0.0,2023,6,7,16,57,10,732
47.71500,0.08995,0.04305,0.00000,0.03209,0.97759,-0.18898,0.0,2023,6,7,16,57,10,743
47.71510,-0.12005,0.11305,0.00000,0.02989,0.97685,-0.18800,0.0,2023,6,7,16,57,10,754
47.71520,-0.13755,0.06055,0.00000,0.03038,0.97685,-0.19008,0.0,2023,6,7,16,57,10,765
47.71530,0.12495,-0.02695,0.00000,0.03355,0.97539,-0.19105,0.0,2023,6,7,16,57,10,776
47.71540,0.00245,-0.09695,0.00000,0.03233,0.97478,-0.18995,0.0,2023,6,7,16,57,10,787
47.71550,0.00245,-0.13195,0.00000,0.03099,0.97624,-0.18947,0.0,2023,6,7,16,57,10,798
47.71560,0.03745,-0.11445,0.00000,0.03123,0.97832,-0.19020,0.0,2023,6,7,16,57,10,809
47.71570,0.00245,-0.04445,0.00000,0.03050,0.97893,-0.18934,0.0,2023,6,7,16,57,10,820
47.71580,0.01995,0.00805,0.00000,0.03087,0.97673,-0.19044,0.0,2023,6,7,16,57,10,831
47.71590,-0.08505,-0.06195,0.00000,0.03245,0.97600,-0.18995,0.0,2023,6,7,16,57,10,842
47.71600,-0.19005,0.14805,0.00000,0.03172,0.97661,-0.18837,0.0,2023,6,7,16,57,10,853
47.71610,0.03745,-0.04445,0.00000,0.03135,0.97881,-0.18934,0.0,2023,6,7,16,57,10,864
47.71620,0.05495,-0.06195,0.00000,0.03099,0.97563,-0.19178,0.0,2023,6,7,16,57,10,875
47.71630,0.00245,0.02555,0.00000,0.02965,0.97527,-0.18678,0.0,2023,6,7,16,57,10,886
47.71640,-0.05005,0.02555,0.00000,0.03050,0.97576,-0.18934,0.0,2023,6,7,16,57,10,897
47.71650,0.08995,-0.04445,0.00000,0.03111,0.97588,-0.19154,0.0,2023,6,7,16,57,10,908
47.71660,0.01995,-0.00945,0.00000,0.03233,0.97661,-0.19020,0.0,2023,6,7,16,57,10,920
47.71670,-0.12005,0.20055,0.00000,0.03038,0.97624,-0.19300,0.0,2023,6,7,16,57,10,931
47.71680,0.14245,-0.23695,0.00000,0.03062,0.97649,-0.19093,0.0,2023,6,7,16,57,10,942
47.71690,-0.12005,-0.11445,0.00000,0.03282,0.97771,-0.18837,0.0,2023,6,7,16,57,10,953
47.71700,0.01995,0.20055,0.00000,0.02916,0.97710,-0.19056,0.0,2023,6,7,16,57,10,964
47.71710,0.03745,0.00805,0.00000,0.03184,0.97685,-0.18837,0.0,2023,6,7,16,57,10,975
47.71720,0.03745,-0.04445,0.00000,0.03318,0.97405,-0.18959,0.0,2023,6,7,16,57,10,986
47.71730,-0.05005,0.07805,0.00000,0.03184,0.97551,-0.18690,0.0,2023,6,7,16,57,11,7
47.71740,-0.12005,0.11305,0.00000,0.03062,0.97539,-0.19154,0.0,2023,6,7,16,57,11,18
47.71750,0.10745,0.04305,0.00000,0.03087,0.97612,-0.19239,0.0,2023,6,7,16,57,11,29
47.71760,-0.08505,0.07805,0.00000,0.03026,0.97637,-0.19300,0.0,2023,6,7,16,57,11,40
47.71770,0.08995,-0.21945,0.00000,0.03148,0.97551,-0.18910,0.0,2023,6,7,16,57,11,51
47.71780,0.00245,0.00805,0.00000,0.03062,0.97539,-0.19105,0.0,2023,6,7,16,57,11,62
47.71790,-0.08505,0.20055,0.00000,0.03074,0.97441,-0.18898,0.0,2023,6,7,16,57,11,73
47.71800,0.00245,0.13055,0.00000,0.02916,0.97515,-0.19081,0.0,2023,6,7,16,57,11,84
47.71810,0.17745,0.00805,0.00000,0.02904,0.97380,-0.18873,0.0,2023,6,7,16,57,11,95
47.71820,0.03745,0.02555,0.00000,0.03099,0.97868,-0.19093,0.0,2023,6,7,16,57,11,106
47.71830,-0.01505,-0.07945,0.00000,0.03184,0.97710,-0.19069,0.0,2023,6,7,16,57,11,117
47.71840,0.00245,-0.20195,0.00000,0.03233,0.97722,-0.18995,0.0,2023,6,7,16,57,11,128
47.71850,-0.03255,0.04305,0.00000,0.02965,0.97710,-0.19008,0.0,2023,6,7,16,57,11,139
47.71860,-0.05005,0.14805,0.00000,0.03050,0.97600,-0.19008,0.0,2023,6,7,16,57,11,151
47.71870,0.12495,-0.06195,0.00000,0.03123,0.97685,-0.19264,0.0,2023,6,7,16,57,11,162
47.71880,-0.20755,-0.00945,0.00000,0.03111,0.97441,-0.18910,0.0,2023,6,7,16,57,11,173
47.71890,0.12495,-0.04445,0.00000,0.03221,0.97722,-0.18971,0.0,2023,6,7,16,57,11,184
47.71900,-0.05005,-0.20195,0.00000,0.03331,0.97710,-0.18959,0.0,2023,6,7,16,57,11,195
47.71910,0.03745,0.09555,0.00000,0.03123,0.97563,-0.19044,0.0,2023,6,7,16,57,11,206
47.71920,0.00245,-0.07945,0.00000,0.03111,0.97795,-0.19276,0.0,2023,6,7,16,57,11,217
47.71930,0.00245,0.09555,0.00000,0.03026,0.97283,-0.18934,0.0,2023,6,7,16,57,11,228
47.71940,-0.01505,-0.11445,0.00000,0.03160,0.97856,-0.18959,0.0,2023,6,7,16,57,11,239
47.71950,0.10745,-0.06195,0.00000,0.02843,0.97515,-0.19032,0.0,2023,6,7,16,57,11,250
47.71960,-0.01505,-0.06195,0.00000,0.03123,0.97673,-0.18922,0.0,2023,6,7,16,57,11,261
47.71970,0.03745,0.00805,0.00000,0.02965,0.97807,-0.18837,0.0,2023,6,7,16,57,11,272
47.71980,-0.03255,-0.07945,0.00000,0.02989,0.97563,-0.18788,0.0,2023,6,7,16,57,11,283
47.71990,-0.05005,-0.02695,0.00000,0.03294,0.97881,-0.18495,0.0,2023,6,7,16,57,11,294
47.72000,0.07245,-0.11445,0.00000,0.03343,0.97710,-0.19105,0.0,2023,6,7,16,57,11,305
47.72010,0.00245,-0.04445,0.00000,0.02989,0.97417,-0.18910,0.0,2023,6,7,16,57,11,316
47.72020,0.19495,-0.06195,0.00000,0.03001,0.97612,-0.19093,0.0,2023,6,7,16,57,11,327
47.72030,-0.08505,0.02555,0.00000,0.03184,0.97710,-0.19166,0.0,2023,6,7,16,57,11,338
47.72040,0.03745,-0.13195,0.00000,0.03026,0.97515,-0.18971,0.0,2023,6,7,16,57,11,349
47.72050,-0.06755,-0.04445,0.00000,0.03184,0.97673,-0.19056,0.0,2023,6,7,16,57,11,360
47.72060,0.19495,0.23555,0.00000,0.03367,0.97637,-0.19093,0.0,2023,6,7,16,57,11,372
47.72070,-0.17255,-0.28945,0.00000,0.03233,0.97612,-0.18727,0.0,2023,6,7,16,57,11,383
47.72080,-0.01505,0.11305,0.00000,0.03111,0.97661,-0.18788,0.0,2023,6,7,16,57,11,394
47.72090,-0.20755,-0.00945,0.00000,0.02940,0.97563,-0.18861,0.0,2023,6,7,16,57,11,405
47.72100,-0.01505,0.06055,0.00000,0.03013,0.97600,-0.19239,0.0,2023,6,7,16,57,11,416
47.72110,0.14245,-0.07945,0.00000,0.03123,0.97551,-0.19008,0.0,2023,6,7,16,57,11,427
47.72120,0.14245,-0.16695,0.00000,0.03148,0.97612,-0.18971,0.0,2023,6,7,16,57,11,438
47.72130,0.00245,0.02555,0.00000,0.03294,0.97759,-0.18849,0.0,2023,6,7,16,57,11,449
47.72140,0.08995,-0.09695,0.00000,0.03099,0.97685,-0.19056,0.0,2023,6,7,16,57,11,460
47.72150,-0.15505,-0.00945,0.00000,0.03050,0.97710,-0.19008,0.0,2023,6,7,16,57,11,471
47.72160,0.14245,-0.11445,0.00000,0.03233,0.97417,-0.18898,0.0,2023,6,7,16,57,11,482
47.72170,0.03745,-0.25445,0.00000,0.03355,0.97661,-0.18581,0.0,2023,6,7,16,57,11,493
47.72180,0.05495,-0.16695,0.00000,0.03184,0.97698,-0.18910,0.0,2023,6,7,16,57,11,504
47.72190,0.12495,-0.13195,0.00000,0.03111,0.97490,-0.19105,0.0,2023,6,7,16,57,11,515
47.72200,-0.06755,-0.09695,0.00000,0.03172,0.97612,-0.18873,0.0,2023,6,7,16,57,11,526
47.72210,-0.01505,0.07805,0.00000,0.03026,0.97698,-0.18886,0.0,2023,6,7,16,57,11,537
47.72220,-0.13755,0.14805,0.00000,0.03331,0.97795,-0.18568,0.0,2023,6,7,16,57,11,548
47.72230,-0.01505,-0.09695,0.00000,0.03123,0.97588,-0.18971,0.0,2023,6,7,16,57,11,559
47.72240,0.12495,0.06055,0.00000,0.02977,0.97588,-0.18654,0.0,2023,6,7,16,57,11,570
47.72250,0.12495,0.18305,0.00000,0.03148,0.97844,-0.18837,0.0,2023,6,7,16,57,11,581
47.72260,0.05495,0.18305,0.00000,0.03050,0.97722,-0.18910,0.0,2023,6,7,16,57,11,593
47.72270,0.10745,0.06055,0.00000,0.03172,0.97490,-0.18727,0.0,2023,6,7,16,57,11,604
47.72280,-0.08505,0.04305,0.00000,0.03172,0.97844,-0.19056,0.0,2023,6,7,16,57,11,615
47.72290,-0.05005,-0.02695,0.00000,0.03282,0.97624,-0.19056,0.0,2023,6,7,16,57,11,626
47.72300,-0.17255,-0.06195,0.00000,0.03001,0.97612,-0.18995,0.0,2023,6,7,16,57,11,637
47.72310,0.19495,0.04305,0.00000,0.03087,0.97551,-0.18800,0.0,2023,6,7,16,57,11,648
47.72320,-0.12005,-0.00945,0.00000,0.03270,0.97612,-0.18654,0.0,2023,6,7,16,57,11,659
47.72330,0.00245,0.04305,0.00000,0.03221,0.97576,-0.18715,0.0,2023,6,7,16,57,11,670
47.72340,-0.03255,0.18305,0.00000,0.03331,0.97551,-0.18764,0.0,2023,6,7,16,57,11,681
47.72350,-0.22505,0.11305,0.00000,0.03233,0.97612,-0.18873,0.0,2023,6,7,16,57,11,692
47.72360,-0.01505,-0.02695,0.00000,0.03123,0.97624,-0.18812,0.0,2023,6,7,16,57,11,703
47.72370,-0.06755,0.16555,0.00000,0.03160,0.97771,-0.19032,0.0,2023,6,7,16,57,11,714
47.72380,0.07245,-0.04445,0.00000,0.03135,0.97698,-0.19142,0.0,2023,6,7,16,57,11,725
47.72390,0.07245,-0.18445,0.00000,0.03062,0.97551,-0.18983,0.0,2023,6,7,16,57,11,736
47.72400,-0.05005,0.00805,0.00000,0.03038,0.97661,-0.18873,0.0,2023,6,7,16,57,11,747
47.72410,-0.10255,-0.18445,0.00000,0.03099,0.97722,-0.18727,0.0,2023,6,7,16,57,11,758
47.72420,0.01995,0.09555,0.00000,0.03001,0.97661,-0.18776,0.0,2023,6,7,16,57,11,769
47.72430,0.01995,0.14805,0.00000,0.03245,0.97612,-0.18922,0.0,2023,6,7,16,57,11,780
47.72440,-0.20755,-0.07945,0.00000,0.03160,0.97527,-0.18715,0.0,2023,6,7,16,57,11,791
47.72450,-0.06755,0.00805,0.00000,0.03050,0.97661,-0.18703,0.0,2023,6,7,16,57,11,802
47.72460,-0.05005,0.14805,0.00000,0.03257,0.97624,-0.18886,0.0,2023,6,7,16,57,11,814
47.72470,0.00245,-0.07945,0.00000,0.03184,0.97673,-0.18898,0.0,2023,6,7,16,57,11,825
47.72480,0.05495,0.13055,0.00000,0.03050,0.97588,-0.19008,0.0,2023,6,7,16,57,11,836
47.72490,-0.01505,-0.04445,0.00000,0.03050,0.97637,-0.18995,0.0,2023,6,7,16,57,11,847
47.72500,-0.01505,0.04305,0.00000,0.03074,0.97405,-0.18727,0.0,2023,6,7,16,57,11,858
47.72510,0.15995,-0.04445,0.00000,0.03013,0.97698,-0.18837,0.0,2023,6,7,16,57,11,869
47.72520,0.15995,0.13055,0.00000,0.02940,0.97661,-0.19044,0.0,2023,6,7,16,57,11,880
47.72530,0.01995,0.04305,0.00000,0.03233,0.97759,-0.18471,0.0,2023,6,7,16,57,11,891
47.72540,-0.03255,-0.00945,0.00000,0.03367,0.97649,-0.18837,0.0,2023,6,7,16,57,11,902
47.72550,-0.19005,-0.02695,0.00000,0.03245,0.97734,-0.18837,0.0,2023,6,7,16,57,11,913
47.72560,0.17745,0.04305,0.00000,0.03050,0.97551,-0.18739,0.0,2023,6,7,16,57,11,924
47.72570,0.10745,-0.02695,0.00000,0.03038,0.97649,-0.18922,0.0,2023,6,7,16,57,11,935
47.72580,0.01995,-0.04445,0.00000,0.03172,0.97673,-0.18788,0.0,2023,6,7,16,57,11,946
47.72590,0.08995,0.06055,0.00000,0.02940,0.97673,-0.18947,0.0,2023,6,7,16,57,11,957
47.72600,0.14245,0.04305,0.00000,0.02891,0.97832,-0.18800,0.0,2023,6,7,16,57,11,968
47.72610,0.10745,-0.04445,0.00000,0.03172,0.97441,-0.18825,0.0,2023,6,7,16,57,11,979
47.72620,-0.10255,0.16555,0.00000,0.03367,0.97551,-0.18983,0.0,2023,6,7,16,57,11,990
47.72630,0.08995,-0.02695,0.00000,0.03209,0.97588,-0.18837,0.0,2023,6,7,16,57,11,1
47.72640,-0.10255,-0.09695,0.00000,0.03148,0.97551,-0.18739,0.0,2023,6,7,16,57,12,2
47.72650,0.10745,-0.13195,0.00000,0.03270,0.97576,-0.18849,0.0,2023,6,7,16,57,12,13
47.72660,-0.03255,-0.13195,0.00000,0.03062,0.97600,-0.18471,0.0,2023,6,7,16,57,12,25
47.72670,-0.24255,0.23555,0.00000,0.03172,0.97649,-0.18910,0.0,2023,6,7,16,57,12,36
47.72680,-0.03255,0.06055,0.00000,0.03257,0.97722,-0.18971,0.0,2023,6,7,16,57,12,47
47.72690,-0.05005,0.13055,0.00000,0.03099,0.97746,-0.18776,0.0,2023,6,7,16,57,12,58
47.72700,-0.15505,0.14805,0.00000,0.03074,0.97710,-0.18861,0.0,2023,6,7,16,57,12,69
47.72710,0.05495,0.04305,0.00000,0.03050,0.97490,-0.18739,0.0,2023,6,7,16,57,12,80
47.72720,0.05495,-0.14945,0.00000,0.02806,0.97441,-0.18983,0.0,2023,6,7,16,57,12,91
47.72730,0.15995,-0.16695,0.00000,0.03038,0.97527,-0.18861,0.0,2023,6,7,16,57,12,102
47.72740,-0.17255,0.16555,0.00000,0.03257,0.97771,-0.18715,0.0,2023,6,7,16,57,12,113
47.72750,-0.01505,-0.06195,0.00000,0.03331,0.97771,-0.18568,0.0,2023,6,7,16,57,12,124
47.72760,-0.05005,-0.00945,0.00000,0.03123,0.97649,-0.18898,0.0,2023,6,7,16,57,12,135
47.72770,0.07245,-0.06195,0.00000,0.03074,0.97624,-0.19020,0.0,2023,6,7,16,57,12,146
47.72780,-0.01505,-0.02695,0.00000,0.03294,0.97490,-0.18886,0.0,2023,6,7,16,57,12,157
47.72790,0.28245,-0.06195,0.00000,0.03172,0.97746,-0.19081,0.0,2023,6,7,16,57,12,168
47.72800,0.03745,0.04305,0.00000,0.03257,0.97698,-0.18898,0.0,2023,6,7,16,57,12,179
47.72810,-0.06755,0.04305,0.00000,0.03233,0.97539,-0.19081,0.0,2023,6,7,16,57,12,190
47.72820,0.10745,0.00805,0.00000,0.03111,0.97551,-0.18739,0.0,2023,6,7,16,57,12,201
47.72830,-0.20755,-0.00945,0.00000,0.03087,0.97612,-0.18715,0.0,2023,6,7,16,57,12,212
47.72840,-0.17255,0.13055,0.00000,0.03294,0.97649,-0.18983,0.0,2023,6,7,16,57,12,223
47.72850,0.05495,0.00805,0.00000,0.03038,0.97698,-0.19032,0.0,2023,6,7,16,57,12,234
47.72860,-0.05005,0.09555,0.00000,0.03221,0.97820,-0.18715,0.0,2023,6,7,16,57,12,246
47.72870,-0.26005,0.21805,0.00000,0.02989,0.97820,-0.18751,0.0,2023,6,7,16,57,12,257
47.72880,-0.03255,0.07805,0.00000,0.03087,0.97637,-0.18959,0.0,2023,6,7,16,57,12,268
47.72890,-0.06755,0.02555,0.00000,0.03099,0.97527,-0.18947,0.0,2023,6,7,16,57,12,279
47.72900,0.08995,0.13055,0.00000,0.03050,0.97673,-0.18922,0.0,2023,6,7,16,57,12,290
47.72910,-0.22505,-0.07945,0.00000,0.03355,0.97685,-0.18703,0.0,2023,6,7,16,57,12,301
47.72920,0.01995,-0.13195,0.00000,0.03074,0.97685,-0.18910,0.0,2023,6,7,16,57,12,312
47.72930,0.24745,-0.14945,0.00000,0.03001,0.97490,-0.18934,0.0,2023,6,7,16,57,12,323
47.72940,-0.06755,-0.09695,0.00000,0.03123,0.97624,-0.18971,0.0,2023,6,7,16,57,12,334
47.72950,-0.06755,0.07805,0.00000,0.02928,0.97661,-0.18971,0.0,2023,6,7,16,57,12,345
47.72960,0.10745,0.02555,0.00000,0.03184,0.97661,-0.19020,0.0,2023,6,7,16,57,12,356
47.72970,-0.17255,0.00805,0.00000,0.03257,0.97515,-0.18849,0.0,2023,6,7,16,57,12,367
47.72980,0.24745,0.00805,0.00000,0.03148,0.97539,-0.18776,0.0,2023,6,7,16,57,12,378
47.72990,-0.06755,0.09555,0.00000,0.03135,0.97466,-0.18788,0.0,2023,6,7,16,57,12,389
47.73000,-0.10255,-0.07945,0.00000,0.03245,0.97673,-0.18751,0.0,2023,6,7,16,57,12,400
47.73010,0.26495,-0.23695,0.00000,0.02782,0.97673,-0.19081,0.0,2023,6,7,16,57,12,411
47.73020,0.15995,-0.23695,0.00000,0.03294,0.97698,-0.18922,0.0,2023,6,7,16,57,12,422
47.73030,-0.17255,0.13055,0.00000,0.03221,0.97685,-0.18825,0.0,2023,6,7,16,57,12,433
47.73040,0.03745,-0.09695,0.00000,0.03123,0.97588,-0.18825,0.0,2023,6,7,16,57,12,444
47.73050,-0.17255,0.11305,0.00000,0.03306,0.97576,-0.18788,0.0,2023,6,7,16,57,12,455
47.73060,0.10745,-0.07945,0.00000,0.03013,0.97344,-0.18910,0.0,2023,6,7,16,57,12,467
47.73070,-0.13755,0.09555,0.00000,0.03245,0.97746,-0.18776,0.0,2023,6,7,16,57,12,478
47.73080,-0.06755,-0.06195,0.00000,0.03331,0.97588,-0.18727,0.0,2023,6,7,16,57,12,489
47.73090,0.00245,0.07805,0.00000,0.03062,0.97759,-0.18983,0.0,2023,6,7,16,57,12,500
47.73100,0.10745,-0.06195,0.00000,0.03026,0.97551,-0.19105,0.0,2023,6,7,16,57,12,511
47.73110,-0.05005,-0.11445,0.00000,0.02952,0.97820,-0.18959,0.0,2023,6,7,16,57,12,522
47.73120,0.03745,0.00805,0.00000,0.03196,0.97722,-0.19020,0.0,2023,6,7,16,57,12,533
47.73130,0.01995,0.09555,0.00000,0.03160,0.97539,-0.18703,0.0,2023,6,7,16,57,12,544
47.73140,-0.20755,0.37555,0.00000,0.03172,0.97954,-0.18568,0.0,2023,6,7,16,57,12,555
47.73150,0.15995,-0.20195,0.00000,0.03148,0.97490,-0.19093,0.0,2023,6,7,16,57,12,566
47.73160,-0.01505,0.11305,0.00000,0.03038,0.97746,-0.18861,0.0,2023,6,7,16,57,12,577
47.73170,-0.27755,0.21805,0.00000,0.03038,0.97307,-0.18776,0.0,2023,6,7,16,57,12,588
47.73180,0.14245,-0.13195,0.00000,0.03135,0.97637,-0.18934,0.0,2023,6,7,16,57,12,599
47.73190,-0.06755,0.04305,0.00000,0.03135,0.97527,-0.18654,0.0,2023,6,7,16,57,12,610
47.73200,0.10745,-0.07945,0.00000,0.03123,0.97746,-0.18886,0.0,2023,6,7,16,57,12,621
47.73210,0.21245,0.04305,0.00000,0.03209,0.97527,-0.18825,0.0,2023,6,7,16,57,12,632
47.73220,-0.10255,0.00805,0.00000,0.03087,0.97454,-0.18666,0.0,2023,6,7,16,57,12,643
47.73230,0.01995,-0.00945,0.00000,0.02952,0.97441,-0.18886,0.0,2023,6,7,16,57,12,654
47.73240,0.08995,-0.14945,0.00000,0.03331,0.97466,-0.18727,0.0,2023,6,7,16,57,12,665
47.73250,-0.22505,0.07805,0.00000,0.03074,0.97539,-0.18800,0.0,2023,6,7,16,57,12,676
47.73260,0.05495,0.09555,0.00000,0.03245,0.97441,-0.18959,0.0,2023,6,7,16,57,12,688
47.73270,-0.03255,0.11305,0.00000,0.03343,0.97771,-0.18812,0.0,2023,6,7,16,57,12,699
47.73280,0.15995,0.07805,0.00000,0.03318,0.97588,-0.18581,0.0,2023,6,7,16,57,12,710
47.73290,-0.15505,-0.23695,0.00000,0.03013,0.97539,-0.19056,0.0,2023,6,7,16,57,12,721
47.73300,-0.12005,0.11305,0.00000,0.03221,0.97759,-0.18995,0.0,2023,6,7,16,57,12,732
47.73310,-0.10255,0.07805,0.00000,0.03233,0.97759,-0.18873,0.0,2023,6,7,16,57,12,743
47.73320,-0.08505,0.00805,0.00000,0.02952,0.97576,-0.18800,0.0,2023,6,7,16,57,12,754
47.73330,-0.06755,0.11305,0.00000,0.03343,0.97612,-0.18873,0.0,2023,6,7,16,57,12,765
47.73340,0.14245,-0.04445,0.00000,0.03013,0.97515,-0.18947,0.0,2023,6,7,16,57,12,776
47.73350,0.03745,0.13055,0.00000,0.03172,0.97612,-0.18995,0.0,2023,6,7,16,57,12,787
47.73360,0.07245,-0.13195,0.00000,0.03135,0.97551,-0.18971,0.0,2023,6,7,16,57,12,798
47.73370,0.01995,-0.07945,0.00000,0.03111,0.97771,-0.19069,0.0,2023,6,7,16,57,12,809
47.73380,-0.03255,0.06055,0.00000,0.03294,0.97478,-0.18947,0.0,2023,6,7,16,57,12,820
47.73390,0.07245,-0.02695,0.00000,0.03123,0.97710,-0.18849,0.0,2023,6,7,16,57,12,831
47.73400,-0.22505,0.14805,0.00000,0.03172,0.97515,-0.18910,0.0,2023,6,7,16,57,12,842
47.73410,-0.08505,-0.09695,0.00000,0.03196,0.97698,-0.18910,0.0,2023,6,7,16,57,12,853
47.73420,-0.05005,-0.09695,0.00000,0.03038,0.97795,-0.18776,0.0,2023,6,7,16,57,12,864
47.73430,0.15995,0.00805,0.00000,0.03026,0.97661,-0.18886,0.0,2023,6,7,16,57,12,875
47.73440,0.10745,-0.06195,0.00000,0.03087,0.97515,-0.18849,0.0,2023,6,7,16,57,12,886
47.73450,-0.06755,0.02555,0.00000,0.02928,0.97466,-0.18886,0.0,2023,6,7,16,57,12,897
47.73460,0.07245,0.09555,0.00000,0.03001,0.97612,-0.18922,0.0,2023,6,7,16,57,12,909
47.73470,-0.08505,0.13055,0.00000,0.03050,0.97820,-0.19020,0.0,2023,6,7,16,57,12,920
47.73480,-0.17255,-0.04445,0.00000,0.03379,0.97685,-0.19093,0.0,2023,6,7,16,57,12,931
47.73490,0.14245,-0.02695,0.00000,0.02818,0.97783,-0.19008,0.0,2023,6,7,16,57,12,942
47.73500,0.00245,-0.14945,0.00000,0.03087,0.97649,-0.19020,0.0,2023,6,7,16,57,12,953
47.73510,-0.06755,0.04305,0.00000,0.03038,0.97600,-0.18776,0.0,2023,6,7,16,57,12,964
47.73520,-0.19005,0.00805,0.00000,0.03331,0.97905,-0.18812,0.0,2023,6,7,16,57,12,975
47.73530,0.10745,0.06055,0.00000,0.03026,0.97649,-0.19008,0.0,2023,6,7,16,57,12,986
47.73540,0.03745,-0.09695,0.00000,0.03184,0.97661,-0.18971,0.0,2023,6,7,16,57,13,7
47.73550,0.10745,-0.14945,0.00000,0.03184,0.97698,-0.19032,0.0,2023,6,7,16,57,13,18
47.73560,-0.03255,-0.32445,0.00000,0.02928,0.97478,-0.18605,0.0,2023,6,7,16,57,13,29
47.73570,-0.03255,-0.16695,0.00000,0.03282,0.97734,-0.18898,0.0,2023,6,7,16,57,13,40
47.73580,-0.05005,0.16555,0.00000,0.03209,0.97624,-0.18849,0.0,2023,6,7,16,57,13,51
47.73590,0.05495,-0.07945,0.00000,0.03221,0.97820,-0.18910,0.0,2023,6,7,16,57,13,62
47.73600,-0.13755,0.02555,0.00000,0.03038,0.97807,-0.18605,0.0,2023,6,7,16,57,13,73
47.73610,0.05495,-0.13195,0.00000,0.02830,0.97734,-0.18739,0.0,2023,6,7,16,57,13,84
47.73620,0.08995,-0.14945,0.00000,0.03135,0.97661,-0.18849,0.0,2023,6,7,16,57,13,95
47.73630,0.08995,0.18305,0.00000,0.03111,0.97661,-0.19081,0.0,2023,6,7,16,57,13,106
47.73640,-0.10255,0.09555,0.00000,0.03245,0.97734,-0.18751,0.0,2023,6,7,16,57,13,117
47.73650,-0.10255,-0.11445,0.00000,0.03099,0.97527,-0.18764,0.0,2023,6,7,16,57,13,128
47.73660,-0.24255,0.07805,0.00000,0.03184,0.97612,-0.18910,0.0,2023,6,7,16,57,13,140
47.73670,0.12495,-0.27195,0.00000,0.02928,0.97661,-0.19008,0.0,2023,6,7,16,57,13,151
47.73680,-0.26005,0.14805,0.00000,0.03233,0.97673,-0.19130,0.0,2023,6,7,16,57,13,162
47.73690,-0.36505,0.14805,0.00000,0.03099,0.97527,-0.18837,0.0,2023,6,7,16,57,13,173
47.73700,0.21245,-0.04445,0.00000,0.03135,0.97759,-0.18825,0.0,2023,6,7,16,57,13,184
47.73710,0.19495,0.04305,0.00000,0.03013,0.97478,-0.18873,0.0,2023,6,7,16,57,13,195
47.73720,0.17745,0.00805,0.00000,0.03160,0.97673,-0.19008,0.0,2023,6,7,16,57,13,206
47.73730,0.15995,-0.06195,0.00000,0.03148,0.97551,-0.18776,0.0,2023,6,7,16,57,13,217
47.73740,0.14245,-0.09695,0.00000,0.03367,0.97710,-0.18617,0.0,2023,6,7,16,57,13,228
47.73750,0.00245,0.07805,0.00000,0.03245,0.97527,-0.18983,0.0,2023,6,7,16,57,13,239
47.73760,0.07245,-0.13195,0.00000,0.03099,0.97685,-0.19105,0.0,2023,6,7,16,57,13,250
47.73770,-0.10255,0.02555,0.00000,0.02989,0.97673,-0.18776,0.0,2023,6,7,16,57,13,261
47.73780,-0.01505,-0.13195,0.00000,0.03135,0.97649,-0.18812,0.0,2023,6,7,16,57,13,272
47.73790,-0.13755,0.09555,0.00000,0.03294,0.97771,-0.18703,0.0,2023,6,7,16,57,13,283
47.73800,-0.10255,0.07805,0.00000,0.03392,0.97576,-0.18861,0.0,2023,6,7,16,57,13,294
47.73810,0.07245,-0.14945,0.00000,0.03209,0.97661,-0.18837,0.0,2023,6,7,16,57,13,305
47.73820,0.05495,-0.11445,0.00000,0.03160,0.97600,-0.18776,0.0,2023,6,7,16,57,13,316
47.73830,0.22995,-0.20195,0.00000,0.03111,0.97637,-0.18654,0.0,2023,6,7,16,57,13,327
47.73840,0.17745,-0.04445,0.00000,0.02989,0.97454,-0.18971,0.0,2023,6,7,16,57,13,338
47.73850,-0.01505,-0.04445,0.00000,0.02989,0.97502,-0.18861,0.0,2023,6,7,16,57,13,349
47.73860,-0.01505,-0.02695,0.00000,0.02904,0.97600,-0.18776,0.0,2023,6,7,16,57,13,361
47.73870,0.08995,-0.13195,0.00000,0.03282,0.97563,-0.19020,0.0,2023,6,7,16,57,13,372
47.73880,-0.08505,0.16555,0.00000,0.03221,0.97746,-0.18507,0.0,2023,6,7,16,57,13,383
47.73890,-0.03255,-0.00945,0.00000,0.03001,0.97820,-0.18788,0.0,2023,6,7,16,57,13,394
47.73900,0.05495,-0.02695,0.00000,0.03282,0.97856,-0.18995,0.0,2023,6,7,16,57,13,405
47.73910,-0.06755,0.11305,0.00000,0.03099,0.97820,-0.18886,0.0,2023,6,7,16,57,13,416
47.73920,-0.17255,-0.00945,0.00000,0.03038,0.97673,-0.18556,0.0,2023,6,7,16,57,13,427
47.73930,0.07245,-0.06195,0.00000,0.03160,0.97502,-0.18751,0.0,2023,6,7,16,57,13,438
47.73940,0.12495,0.00805,0.00000,0.03087,0.97795,-0.18715,0.0,2023,6,7,16,57,13,449
47.73950,0.05495,0.04305,0.00000,0.02867,0.97624,-0.18751,0.0,2023,6,7,16,57,13,460
47.73960,-0.06755,-0.09695,0.00000,0.03074,0.97698,-0.18764,0.0,2023,6,7,16,57,13,471
47.73970,-0.06755,-0.00945,0.00000,0.03148,0.97661,-0.18666,0.0,2023,6,7,16,57,13,482
47.73980,0.00245,0.04305,0.00000,0.03209,0.97771,-0.19105,0.0,2023,6,7,16,57,13,493
47.73990,0.17745,-0.04445,0.00000,0.03087,0.97771,-0.18910,0.0,2023,6,7,16,57,13,504
47.74000,0.14245,0.14805,0.00000,0.03038,0.97661,-0.18751,0.0,2023,6,7,16,57,13,515
47.74010,0.00245,-0.16695,0.00000,0.03257,0.97588,-0.18849,0.0,2023,6,7,16,57,13,526
47.74020,0.01995,-0.06195,0.00000,0.03245,0.97807,-0.18934,0.0,2023,6,7,16,57,13,537
47.74030,-0.15505,-0.20195,0.00000,0.02916,0.97795,-0.18800,0.0,2023,6,7,16,57,13,548
47.74040,-0.01505,0.04305,0.00000,0.03087,0.97661,-0.18666,0.0,2023,6,7,16,57,13,559
47.74050,0.12495,-0.09695,0.00000,0.02965,0.97454,-0.18654,0.0,2023,6,7,16,57,13,570
47.74060,-0.08505,0.06055,0.00000,0.02928,0.97576,-0.18788,0.0,2023,6,7,16,57,13,582
47.74070,0.28245,-0.06195,0.00000,0.03001,0.97588,-0.19093,0.0,2023,6,7,16,57,13,593
47.74080,-0.06755,0.16555,0.00000,0.03062,0.97539,-0.18837,0.0,2023,6,7,16,57,13,604
47.74090,-0.05005,-0.06195,0.00000,0.03062,0.97637,-0.18739,0.0,2023,6,7,16,57,13,615
47.74100,0.22995,-0.02695,0.00000,0.02989,0.97881,-0.18703,0.0,2023,6,7,16,57,13,626
47.74110,0.00245,-0.09695,0.00000,0.03123,0.97722,-0.18703,0.0,2023,6,7,16,57,13,637
47.74120,0.14245,-0.23695,0.00000,0.03196,0.97807,-0.18959,0.0,2023,6,7,16,57,13,648
47.74130,0.00245,-0.14945,0.00000,0.03038,0.97844,-0.19008,0.0,2023,6,7,16,57,13,659
47.74140,-0.24255,-0.04445,0.00000,0.03123,0.97722,-0.18654,0.0,2023,6,7,16,57,13,670
47.74150,0.10745,-0.09695,0.00000,0.03245,0.97490,-0.18727,0.0,2023,6,7,16,57,13,681
47.74160,0.05495,-0.02695,0.00000,0.03135,0.97637,-0.18690,0.0,2023,6,7,16,57,13,692
47.74170,0.00245,-0.02695,0.00000,0.02952,0.97649,-0.18873,0.0,2023,6,7,16,57,13,703
47.74180,0.00245,-0.23695,0.00000,0.02989,0.97698,-0.18776,0.0,2023,6,7,16,57,13,714
47.74190,0.03745,-0.07945,0.00000,0.03026,0.97502,-0.18788,0.0,2023,6,7,16,57,13,725
47.74200,-0.05005,-0.02695,0.00000,0.03038,0.97734,-0.18507,0.0,2023,6,7,16,57,13,736
47.74210,-0.13755,0.14805,0.00000,0.03270,0.97588,-0.18959,0.0,2023,6,7,16,57,13,747
47.74220,0.05495,-0.02695,0.00000,0.03270,0.97759,-0.18934,0.0,2023,6,7,16,57,13,758
47.74230,0.07245,-0.00945,0.00000,0.03111,0.97490,-0.18922,0.0,2023,6,7,16,57,13,769
47.74240,-0.08505,0.14805,0.00000,0.03184,0.97551,-0.18751,0.0,2023,6,7,16,57,13,780
47.74250,0.00245,-0.13195,0.00000,0.03172,0.97588,-0.18898,0.0,2023,6,7,16,57,13,791
47.74260,-0.03255,0.09555,0.00000,0.03050,0.97637,-0.18788,0.0,2023,6,7,16,57,13,803
47.74270,0.00245,0.16555,0.00000,0.03038,0.97649,-0.18934,0.0,2023,6,7,16,57,13,814
47.74280,0.01995,-0.23695,0.00000,0.03294,0.98125,-0.18764,0.0,2023,6,7,16,57,13,825
47.74290,-0.01505,0.11305,0.00000,0.03026,0.97746,-0.18678,0.0,2023,6,7,16,57,13,836
47.74300,0.07245,0.06055,0.00000,0.03038,0.97429,-0.19020,0.0,2023,6,7,16,57,13,847
47.74310,-0.06755,-0.25445,0.00000,0.03148,0.97685,-0.18934,0.0,2023,6,7,16,57,13,858
47.74320,0.15995,-0.06195,0.00000,0.02879,0.97820,-0.18739,0.0,2023,6,7,16,57,13,869
47.74330,0.00245,0.11305,0.00000,0.02916,0.97551,-0.18788,0.0,2023,6,7,16,57,13,880
47.74340,-0.08505,-0.02695,0.00000,0.03245,0.97844,-0.18678,0.0,2023,6,7,16,57,13,891
47.74350,0.12495,-0.06195,0.00000,0.03282,0.97441,-0.18971,0.0,2023,6,7,16,57,13,902
47.74360,-0.03255,-0.07945,0.00000,0.03172,0.97612,-0.18642,0.0,2023,6,7,16,57,13,913
47.74370,-0.29505,-0.23695,0.00000,0.03148,0.97746,-0.18556,0.0,2023,6,7,16,57,13,924
47.74380,0.05495,-0.14945,0.00000,0.02965,0.97771,-0.18751,0.0,2023,6,7,16,57,13,935
47.74390,0.12495,0.23555,0.00000,0.03160,0.97563,-0.19008,0.0,2023,6,7,16,57,13,946
47.74400,0.14245,0.09555,0.00000,0.03062,0.97649,-0.18812,0.0,2023,6,7,16,57,13,957
47.74410,-0.03255,0.11305,0.00000,0.03038,0.97685,-0.18886,0.0,2023,6,7,16,57,13,968
47.74420,0.01995,0.07805,0.00000,0.03367,0.97576,-0.18629,0.0,2023,6,7,16,57,13,979
47.74430,-0.03255,-0.06195,0.00000,0.03233,0.97685,-0.18849,0.0,2023,6,7,16,57,14,0
47.74440,0.05495,-0.00945,0.00000,0.03123,0.97515,-0.18873,0.0,2023,6,7,16,57,14,11
47.74450,-0.13755,0.14805,0.00000,0.03331,0.97527,-0.18837,0.0,2023,6,7,16,57,14,22
47.74460,-0.03255,0.02555,0.00000,0.03087,0.97905,-0.18800,0.0,2023,6,7,16,57,14,34
47.74470,0.10745,0.13055,0.00000,0.03355,0.97600,-0.18812,0.0,2023,6,7,16,57,14,45
47.74480,-0.03255,0.00805,0.00000,0.03233,0.97368,-0.18849,0.0,2023,6,7,16,57,14,56
47.74490,-0.06755,-0.06195,0.00000,0.03123,0.97356,-0.18825,0.0,2023,6,7,16,57,14,67
47.74500,-0.26005,-0.00945,0.00000,0.03062,0.97844,-0.18886,0.0,2023,6,7,16,57,14,78
47.74510,0.08995,-0.00945,0.00000,0.03001,0.97624,-0.18922,0.0,2023,6,7,16,57,14,89
47.74520,0.00245,0.07805,0.00000,0.03270,0.97502,-0.18837,0.0,2023,6,7,16,57,14,100
47.74530,-0.05005,-0.06195,0.00000,0.03148,0.97624,-0.18983,0.0,2023,6,7,16,57,14,111
47.74540,0.03745,-0.11445,0.00000,0.03196,0.97698,-0.18654,0.0,2023,6,7,16,57,14,122
47.74550,-0.12005,-0.07945,0.00000,0.03099,0.97466,-0.18898,0.0,2023,6,7,16,57,14,133
47.74560,-0.19005,0.02555,0.00000,0.03282,0.97490,-0.18983,0.0,2023,6,7,16,57,14,144
47.74570,0.08995,-0.06195,0.00000,0.03221,0.97466,-0.18678,0.0,2023,6,7,16,57,14,155
47.74580,-0.01505,-0.07945,0.00000,0.03379,0.97807,-0.19020,0.0,2023,6,7,16,57,14,166
47.74590,-0.06755,0.06055,0.00000,0.02952,0.97990,-0.18959,0.0,2023,6,7,16,57,14,177
47.74600,0.00245,0.04305,0.00000,0.03111,0.97563,-0.18898,0.0,2023,6,7,16,57,14,188
47.74610,0.28245,-0.18445,0.00000,0.03294,0.97685,-0.19032,0.0,2023,6,7,16,57,14,199
47.74620,-0.05005,-0.07945,0.00000,0.03135,0.97698,-0.19142,0.0,2023,6,7,16,57,14,210
47.74630,0.00245,0.07805,0.00000,0.03062,0.97649,-0.18971,0.0,2023,6,7,16,57,14,221
47.74640,0.05495,0.13055,0.00000,0.03355,0.97637,-0.19008,0.0,2023,6,7,16,57,14,232
47.74650,-0.06755,-0.06195,0.00000,0.03257,0.97576,-0.19044,0.0,2023,6,7,16,57,14,243
47.74660,0.00245,0.06055,0.00000,0.03001,0.97844,-0.19044,0.0,2023,6,7,16,57,14,255
47.74670,0.10745,-0.23695,0.00000,0.03233,0.97600,-0.19093,0.0,2023,6,7,16,57,14,266
47.74680,0.01995,-0.11445,0.00000,0.03245,0.97563,-0.18825,0.0,2023,6,7,16,57,14,277
47.74690,-0.08505,-0.09695,0.00000,0.03062,0.97661,-0.18971,0.0,2023,6,7,16,57,14,288
47.74700,0.12495,-0.11445,0.00000,0.03074,0.97466,-0.19142,0.0,2023,6,7,16,57,14,299
47.74710,0.10745,-0.06195,0.00000,0.03355,0.97441,-0.18800,0.0,2023,6,7,16,57,14,310
47.74720,0.05495,-0.18445,0.00000,0.02916,0.97759,-0.19093,0.0,2023,6,7,16,57,14,321
47.74730,0.15995,-0.09695,0.00000,0.03001,0.97612,-0.18764,0.0,2023,6,7,16,57,14,332
47.74740,-0.06755,0.20055,0.00000,0.03160,0.97673,-0.19020,0.0,2023,6,7,16,57,14,343
47.74750,-0.10255,0.00805,0.00000,0.03074,0.97612,-0.19105,0.0,2023,6,7,16,57,14,354
47.74760,0.00245,-0.11445,0.00000,0.03184,0.97563,-0.18995,0.0,2023,6,7,16,57,14,365
47.74770,0.01995,0.00805,0.00000,0.03148,0.97698,-0.19032,0.0,2023,6,7,16,57,14,376
47.74780,0.07245,-0.06195,0.00000,0.03257,0.97527,-0.19154,0.0,2023,6,7,16,57,14,387
47.74790,-0.17255,0.09555,0.00000,0.03050,0.97771,-0.18983,0.0,2023,6,7,16,57,14,398
47.74800,0.01995,-0.06195,0.00000,0.03270,0.97795,-0.18703,0.0,2023,6,7,16,57,14,409
47.74810,-0.06755,-0.02695,0.00000,0.03209,0.97722,-0.18861,0.0,2023,6,7,16,57,14,420
47.74820,-0.13755,0.00805,0.00000,0.03050,0.97563,-0.19008,0.0,2023,6,7,16,57,14,431
47.74830,0.14245,-0.00945,0.00000,0.03087,0.97698,-0.18934,0.0,2023,6,7,16,57,14,442
47.74840,0.01995,-0.04445,0.00000,0.03074,0.97332,-0.18764,0.0,2023,6,7,16,57,14,453
47.74850,-0.10255,0.21805,0.00000,0.03087,0.97478,-0.18922,0.0,2023,6,7,16,57,14,464
47.74860,-0.01505,-0.07945,0.00000,0.03148,0.97624,-0.18983,0.0,2023,6,7,16,57,14,476
47.74870,0.10745,0.02555,0.00000,0.03135,0.97746,-0.18812,0.0,2023,6,7,16,57,14,487
47.74880,0.00245,0.02555,0.00000,0.03111,0.97624,-0.19239,0.0,2023,6,7,16,57,14,498
47.74890,0.00245,-0.00945,0.00000,0.03160,0.97551,-0.18922,0.0,2023,6,7,16,57,14,509
47.74900,-0.13755,0.07805,0.00000,0.03355,0.97588,-0.18898,0.0,2023,6,7,16,57,14,520
47.74910,-0.03255,-0.04445,0.00000,0.03160,0.97710,-0.19044,0.0,2023,6,7,16,57,14,531
47.74920,0.17745,0.04305,0.00000,0.03111,0.97698,-0.19044,0.0,2023,6,7,16,57,14,542
47.74930,-0.01505,-0.04445,0.00000,0.03209,0.97417,-0.19008,0.0,2023,6,7,16,57,14,553
47.74940,0.19495,-0.21945,0.00000,0.03087,0.97454,-0.18776,0.0,2023,6,7,16,57,14,564
47.74950,-0.10255,-0.04445,0.00000,0.03160,0.97563,-0.18983,0.0,2023,6,7,16,57,14,575
47.74960,-0.15505,0.21805,0.00000,0.03282,0.97832,-0.18947,0.0,2023,6,7,16,57,14,586
47.74970,0.12495,-0.04445,0.00000,0.02916,0.97820,-0.18922,0.0,2023,6,7,16,57,14,597
47.74980,0.15995,-0.04445,0.00000,0.03196,0.97527,-0.18825,0.0,2023,6,7,16,57,14,608
47.74990,-0.08505,-0.11445,0.00000,0.03123,0.97502,-0.18947,0.0,2023,6,7,16,57,14,619
47.75000,0.14245,-0.04445,0.00000,0.03135,0.97551,-0.18922,0.0,2023,6,7,16,57,14,630
47.75010,0.00245,0.04305,0.00000,0.03087,0.97624,-0.18959,0.0,2023,6,7,16,57,14,641
47.75020,0.12495,-0.06195,0.00000,0.03355,0.97600,-0.19044,0.0,2023,6,7,16,57,14,652
47.75030,-0.13755,0.02555,0.00000,0.03367,0.97710,-0.19117,0.0,2023,6,7,16,57,14,663
47.75040,-0.24255,0.07805,0.00000,0.03184,0.97588,-0.18959,0.0,2023,6,7,16,57,14,674
47.75050,-0.33005,0.04305,0.00000,0.03184,0.97746,-0.19069,0.0,2023,6,7,16,57,14,685
47.75060,-0.06755,-0.07945,0.00000,0.03050,0.97307,-0.19093,0.0,2023,6,7,16,57,14,697
47.75070,-0.01505,-0.06195,0.00000,0.03209,0.97624,-0.18788,0.0,2023,6,7,16,57,14,708
47.75080,-0.05005,-0.00945,0.00000,0.02904,0.97600,-0.18959,0.0,2023,6,7,16,57,14,719
47.75090,-0.13755,0.11305,0.00000,0.02989,0.97795,-0.19008,0.0,2023,6,7,16,57,14,730
47.75100,0.28245,-0.16695,0.00000,0.03026,0.97771,-0.19008,0.0,2023,6,7,16,57,14,741
47.75110,-0.19005,-0.00945,0.00000,0.03013,0.97429,-0.19117,0.0,2023,6,7,16,57,14,752
47.75120,-0.26005,0.00805,0.00000,0.03099,0.97710,-0.18886,0.0,2023,6,7,16,57,14,763
47.75130,-0.13755,-0.21945,0.00000,0.03184,0.97661,-0.18776,0.0,2023,6,7,16,57,14,774
47.75140,-0.01505,0.18305,0.00000,0.03221,0.97637,-0.18861,0.0,2023,6,7,16,57,14,785
47.75150,0.00245,0.04305,0.00000,0.02928,0.97612,-0.18934,0.0,2023,6,7,16,57,14,796
47.75160,-0.22505,0.13055,0.00000,0.03379,0.97624,-0.18739,0.0,2023,6,7,16,57,14,807
47.75170,-0.12005,-0.04445,0.00000,0.03209,0.97637,-0.18715,0.0,2023,6,7,16,57,14,818
47.75180,-0.03255,0.27055,0.00000,0.03367,0.97344,-0.18910,0.0,2023,6,7,16,57,14,829
47.75190,0.03745,0.02555,0.00000,0.03184,0.97490,-0.18971,0.0,2023,6,7,16,57,14,840
47.75200,0.05495,-0.18445,0.00000,0.02879,0.97673,-0.18983,0.0,2023,6,7,16,57,14,851
47.75210,0.05495,-0.41195,0.00000,0.02952,0.97673,-0.19008,0.0,2023,6,7,16,57,14,862
47.75220,-0.08505,-0.16695,0.00000,0.03318,0.97551,-0.18886,0.0,2023,6,7,16,57,14,873
47.75230,-0.05005,0.02555,0.00000,0.03001,0.97649,-0.18898,0.0,2023,6,7,16,57,14,884
47.75240,-0.10255,0.06055,0.00000,0.02952,0.97612,-0.18886,0.0,2023,6,7,16,57,14,895
47.75250,0.03745,-0.00945,0.00000,0.03184,0.97649,-0.18715,0.0,2023,6,7,16,57,14,906
47.75260,0.05495,0.04305,0.00000,0.03062,0.97771,-0.18959,0.0,2023,6,7,16,57,14,918
47.75270,-0.13755,0.09555,0.00000,0.03099,0.97539,-0.18593,0.0,2023,6,7,16,57,14,929
47.75280,0.10745,0.00805,0.00000,0.02916,0.97515,-0.19191,0.0,2023,6,7,16,57,14,940
47.75290,-0.03255,-0.21945,0.00000,0.03172,0.97722,-0.18886,0.0,2023,6,7,16,57,14,951
47.75300,-0.03255,-0.04445,0.00000,0.02928,0.97661,-0.19117,0.0,2023,6,7,16,57,14,962
47.75310,-0.15505,-0.07945,0.00000,0.03160,0.97722,-0.18654,0.0,2023,6,7,16,57,14,973
47.75320,0.05495,0.09555,0.00000,0.03074,0.97759,-0.18898,0.0,2023,6,7,16,57,14,984
47.75330,-0.10255,0.14805,0.00000,0.03209,0.97624,-0.18825,0.0,2023,6,7,16,57,14,995
47.75340,0.07245,-0.04445,0.00000,0.03123,0.97698,-0.19117,0.0,2023,6,7,16,57,15,6
47.75350,0.01995,-0.14945,0.00000,0.03111,0.97588,-0.19154,0.0,2023,6,7,16,57,15,17
47.75360,-0.08505,-0.25445,0.00000,0.03050,0.97637,-0.18837,0.0,2023,6,7,16,57,15,28
47.75370,-0.06755,0.16555,0.00000,0.03196,0.97722,-0.18666,0.0,2023,6,7,16,57,15,39
47.75380,-0.01505,-0.04445,0.00000,0.02940,0.97612,-0.18727,0.0,2023,6,7,16,57,15,50
47.75390,0.05495,0.02555,0.00000,0.03111,0.97685,-0.18910,0.0,2023,6,7,16,57,15,61
47.75400,-0.05005,-0.04445,0.00000,0.03111,0.97551,-0.19081,0.0,2023,6,7,16,57,15,72
47.75410,0.03745,0.07805,0.00000,0.03087,0.97783,-0.19032,0.0,2023,6,7,16,57,15,83
47.75420,-0.10255,0.23555,0.00000,0.03135,0.97649,-0.18959,0.0,2023,6,7,16,57,15,94
47.75430,0.01995,-0.02695,0.00000,0.03270,0.97624,-0.18959,0.0,2023,6,7,16,57,15,105
47.75440,0.05495,-0.02695,0.00000,0.03160,0.97600,-0.18764,0.0,2023,6,7,16,57,15,116
47.75450,-0.05005,0.02555,0.00000,0.03270,0.97588,-0.18849,0.0,2023,6,7,16,57,15,127
47.75460,0.14245,0.04305,0.00000,0.02977,0.97527,-0.19093,0.0,2023,6,7,16,57,15,139
47.75470,-0.08505,0.09555,0.00000,0.03026,0.97783,-0.18959,0.0,2023,6,7,16,57,15,150
47.75480,0.00245,-0.06195,0.00000,0.02965,0.97588,-0.18983,0.0,2023,6,7,16,57,15,161
47.75490,-0.08505,0.02555,0.00000,0.03172,0.97673,-0.18910,0.0,2023,6,7,16,57,15,172
47.75500,-0.10255,0.09555,0.00000,0.03062,0.97539,-0.18678,0.0,2023,6,7,16,57,15,183
47.75510,-0.20755,-0.04445,0.00000,0.03074,0.97600,-0.18971,0.0,2023,6,7,16,57,15,194
47.75520,0.15995,-0.09695,0.00000,0.03196,0.97673,-0.19032,0.0,2023,6,7,16,57,15,205
47.75530,-0.13755,-0.02695,0.00000,0.03074,0.97673,-0.19081,0.0,2023,6,7,16,57,15,216
47.75540,0.00245,0.11305,0.00000,0.03209,0.97649,-0.19020,0.0,2023,6,7,16,57,15,227
47.75550,0.17745,-0.16695,0.00000,0.03160,0.97893,-0.18751,0.0,2023,6,7,16,57,15,238
47.75560,0.12495,0.04305,0.00000,0.03111,0.97490,-0.18642,0.0,2023,6,7,16,57,15,249
47.75570,0.14245,0.20055,0.00000,0.02965,0.97380,-0.19252,0.0,2023,6,7,16,57,15,260
47.75580,-0.13755,0.11305,0.00000,0.03038,0.97576,-0.18703,0.0,2023,6,7,16,57,15,271
47.75590,-0.05005,-0.14945,0.00000,0.03135,0.97649,-0.18922,0.0,2023,6,7,16,57,15,282
47.75600,0.12495,-0.35945,0.00000,0.03074,0.97624,-0.18959,0.0,2023,6,7,16,57,15,293
47.75610,-0.08505,0.02555,0.00000,0.03245,0.97502,-0.18995,0.0,2023,6,7,16,57,15,304
47.75620,0.00245,-0.06195,0.00000,0.03013,0.97771,-0.19008,0.0,2023,6,7,16,57,15,315
47.75630,-0.01505,0.02555,0.00000,0.03050,0.97441,-0.19044,0.0,2023,6,7,16,57,15,326
47.75640,-0.05005,-0.06195,0.00000,0.03172,0.97624,-0.18947,0.0,2023,6,7,16,57,15,337
47.75650,-0.12005,0.16555,0.00000,0.03111,0.97673,-0.18898,0.0,2023,6,7,16,57,15,348
47.75660,-0.05005,0.09555,0.00000,0.03050,0.97612,-0.19203,0.0,2023,6,7,16,57,15,360
47.75670,-0.08505,-0.00945,0.00000,0.03221,0.97698,-0.18642,0.0,2023,6,7,16,57,15,371
47.75680,-0.03255,-0.13195,0.00000,0.03123,0.97588,-0.18690,0.0,2023,6,7,16,57,15,382
47.75690,-0.03255,0.06055,0.00000,0.03050,0.97454,-0.18934,0.0,2023,6,7,16,57,15,393
47.75700,-0.12005,0.06055,0.00000,0.02989,0.97612,-0.19130,0.0,2023,6,7,16,57,15,404
47.75710,0.00245,0.16555,0.00000,0.02989,0.97502,-0.19020,0.0,2023,6,7,16,57,15,415
47.75720,0.05495,-0.04445,0.00000,0.03294,0.97844,-0.18898,0.0,2023,6,7,16,57,15,426
47.75730,-0.15505,0.07805,0.00000,0.03343,0.97563,-0.18800,0.0,2023,6,7,16,57,15,437
47.75740,0.07245,0.04305,0.00000,0.03209,0.97539,-0.19008,0.0,2023,6,7,16,57,15,448
47.75750,0.07245,-0.00945,0.00000,0.03294,0.97673,-0.19056,0.0,2023,6,7,16,57,15,459
47.75760,-0.10255,-0.02695,0.00000,0.03050,0.97502,-0.18959,0.0,2023,6,7,16,57,15,470
47.75770,-0.01505,0.20055,0.00000,0.03172,0.97637,-0.18849,0.0,2023,6,7,16,57,15,481
47.75780,-0.13755,0.13055,0.00000,0.03172,0.97783,-0.18788,0.0,2023,6,7,16,57,15,492
47.75790,-0.06755,-0.02695,0.00000,0.02745,0.97649,-0.18971,0.0,2023,6,7,16,57,15,503
47.75800,0.00245,-0.04445,0.00000,0.03050,0.97734,-0.19130,0.0,2023,6,7,16,57,15,514
47.75810,-0.03255,-0.13195,0.00000,0.03001,0.97820,-0.18910,0.0,2023,6,7,16,57,15,525
47.75820,-0.08505,0.02555,0.00000,0.03160,0.97624,-0.18776,0.0,2023,6,7,16,57,15,536
47.75830,-0.01505,0.16555,0.00000,0.03160,0.97490,-0.19154,0.0,2023,6,7,16,57,15,547
47.75840,-0.01505,-0.02695,0.00000,0.03306,0.97576,-0.18715,0.0,2023,6,7,16,57,15,558
47.75850,0.03745,-0.20195,0.00000,0.03062,0.97624,-0.18922,0.0,2023,6,7,16,57,15,569
47.75860,-0.15505,0.06055,0.00000,0.03062,0.97502,-0.18825,0.0,2023,6,7,16,57,15,581
47.75870,-0.20755,-0.04445,0.00000,0.03148,0.97637,-0.18861,0.0,2023,6,7,16,57,15,592
47.75880,0.17745,-0.07945,0.00000,0.03257,0.97393,-0.18764,0.0,2023,6,7,16,57,15,603
47.75890,-0.03255,-0.06195,0.00000,0.03001,0.97649,-0.19069,0.0,2023,6,7,16,57,15,614
47.75900,-0.20755,0.02555,0.00000,0.03013,0.97661,-0.18837,0.0,2023,6,7,16,57,15,625
47.75910,0.15995,0.14805,0.00000,0.03123,0.97624,-0.18922,0.0,2023,6,7,16,57,15,636
47.75920,0.00245,-0.00945,0.00000,0.03026,0.97771,-0.19020,0.0,2023,6,7,16,57,15,647
47.75930,-0.05005,-0.14945,0.00000,0.03221,0.97551,-0.18971,0.0,2023,6,7,16,57,15,658
47.75940,-0.10255,0.07805,0.00000,0.03026,0.97795,-0.18886,0.0,2023,6,7,16,57,15,669
47.75950,0.15995,0.00805,0.00000,0.03282,0.97698,-0.18898,0.0,2023,6,7,16,57,15,680
47.75960,-0.06755,-0.18445,0.00000,0.03123,0.97649,-0.18666,0.0,2023,6,7,16,57,15,691
47.75970,0.07245,-0.04445,0.00000,0.03221,0.97746,-0.19093,0.0,2023,6,7,16,57,15,702
47.75980,-0.13755,0.18305,0.00000,0.02989,0.97673,-0.18873,0.0,2023,6,7,16,57,15,713
47.75990,0.07245,-0.13195,0.00000,0.03087,0.97393,-0.18947,0.0,2023,6,7,16,57,15,724
47.76000,0.01995,-0.02695,0.00000,0.03440,0.97454,-0.18861,0.0,2023,6,7,16,57,15,735
47.76010,0.08995,-0.04445,0.00000,0.03123,0.97600,-0.18617,0.0,2023,6,7,16,57,15,746
47.76020,-0.22505,-0.11445,0.00000,0.03013,0.97881,-0.18739,0.0,2023,6,7,16,57,15,757
47.76030,0.03745,0.13055,0.00000,0.02989,0.97978,-0.18873,0.0,2023,6,7,16,57,15,768
47.76040,0.01995,0.06055,0.00000,0.03209,0.97795,-0.19020,0.0,2023,6,7,16,57,15,779
47.76050,-0.01505,-0.02695,0.00000,0.03221,0.97246,-0.18922,0.0,2023,6,7,16,57,15,790
47.76060,0.14245,-0.06195,0.00000,0.02879,0.97673,-0.18849,0.0,2023,6,7,16,57,15,802
47.76070,0.08995,0.00805,0.00000,0.03026,0.97502,-0.18861,0.0,2023,6,7,16,57,15,813
47.76080,0.26495,0.09555,0.00000,0.03123,0.97698,-0.18886,0.0,2023,6,7,16,57,15,824
47.76090,-0.01505,0.02555,0.00000,0.03172,0.97576,-0.18556,0.0,2023,6,7,16,57,15,835
47.76100,-0.03255,-0.02695,0.00000,0.03172,0.97563,-0.18703,0.0,2023,6,7,16,57,15,846
47.76110,0.00245,0.02555,0.00000,0.03160,0.97649,-0.18971,0.0,2023,6,7,16,57,15,857
47.76120,-0.06755,0.11305,0.00000,0.03038,0.97539,-0.18849,0.0,2023,6,7,16,57,15,868
47.76130,-0.20755,0.13055,0.00000,0.03111,0.97698,-0.18629,0.0,2023,6,7,16,57,15,879
47.76140,-0.05005,0.13055,0.00000,0.03050,0.97722,-0.18764,0.0,2023,6,7,16,57,15,890
47.76150,0.00245,-0.18445,0.00000,0.03050,0.97649,-0.19081,0.0,2023,6,7,16,57,15,901
47.76160,0.01995,-0.04445,0.00000,0.03087,0.97698,-0.18849,0.0,2023,6,7,16,57,15,912
47.76170,0.10745,-0.14945,0.00000,0.03135,0.97722,-0.19154,0.0,2023,6,7,16,57,15,923
47.76180,0.00245,0.09555,0.00000,0.03184,0.97649,-0.18715,0.0,2023,6,7,16,57,15,934
47.76190,-0.03255,-0.11445,0.00000,0.03148,0.97624,-0.18751,0.0,2023,6,7,16,57,15,945
47.76200,0.05495,0.07805,0.00000,0.03123,0.97637,-0.18959,0.0,2023,6,7,16,57,15,956
47.76210,-0.22505,-0.07945,0.00000,0.03013,0.97661,-0.18825,0.0,2023,6,7,16,57,15,967
47.76220,-0.13755,0.07805,0.00000,0.03160,0.97539,-0.18934,0.0,2023,6,7,16,57,15,978
47.76230,-0.08505,-0.16695,0.00000,0.03013,0.97795,-0.18776,0.0,2023,6,7,16,57,16,9
47.76240,0.07245,0.06055,0.00000,0.03209,0.97600,-0.18849,0.0,2023,6,7,16,57,16,20
47.76250,0.00245,-0.07945,0.00000,0.03087,0.97637,-0.18922,0.0,2023,6,7,16,57,16,31
47.76260,0.01995,0.20055,0.00000,0.03111,0.97746,-0.18678,0.0,2023,6,7,16,57,16,43
47.76270,0.12495,-0.02695,0.00000,0.03184,0.97637,-0.18666,0.0,2023,6,7,16,57,16,54
47.76280,-0.10255,0.04305,0.00000,0.03062,0.97588,-0.19020,0.0,2023,6,7,16,57,16,65
47.76290,-0.10255,0.07805,0.00000,0.03148,0.97685,-0.18910,0.0,2023,6,7,16,57,16,76
47.76300,0.00245,-0.14945,0.00000,0.02977,0.97771,-0.19081,0.0,2023,6,7,16,57,16,87
47.76310,0.15995,-0.16695,0.00000,0.02855,0.97393,-0.19032,0.0,2023,6,7,16,57,16,98
47.76320,-0.05005,0.23555,0.00000,0.03221,0.97783,-0.18751,0.0,2023,6,7,16,57,16,109
47.76330,-0.06755,-0.06195,0.00000,0.03026,0.97746,-0.18690,0.0,2023,6,7,16,57,16,120
47.76340,-0.05005,0.09555,0.00000,0.03038,0.97856,-0.18825,0.0,2023,6,7,16,57,16,131
47.76350,0.12495,-0.11445,0.00000,0.03123,0.97734,-0.19044,0.0,2023,6,7,16,57,16,142
47.76360,0.08995,-0.16695,0.00000,0.03050,0.97576,-0.18861,0.0,2023,6,7,16,57,16,153
47.76370,0.03745,0.07805,0.00000,0.03160,0.97783,-0.18959,0.0,2023,6,7,16,57,16,164
47.76380,-0.10255,-0.09695,0.00000,0.03184,0.97551,-0.18629,0.0,2023,6,7,16,57,16,175
47.76390,0.15995,-0.07945,0.00000,0.03172,0.97649,-0.18898,0.0,2023,6,7,16,57,16,186
47.76400,0.14245,0.13055,0.00000,0.03148,0.97490,-0.18861,0.0,2023,6,7,16,57,16,197
47.76410,-0.01505,-0.20195,0.00000,0.03196,0.97783,-0.18544,0.0,2023,6,7,16,57,16,208
47.76420,0.12495,-0.02695,0.00000,0.03062,0.97551,-0.18886,0.0,2023,6,7,16,57,16,219
47.76430,0.10745,-0.04445,0.00000,0.03111,0.97527,-0.18959,0.0,2023,6,7,16,57,16,230
47.76440,0.05495,0.06055,0.00000,0.03245,0.97661,-0.18910,0.0,2023,6,7,16,57,16,241
47.76450,-0.08505,0.02555,0.00000,0.03026,0.97783,-0.18642,0.0,2023,6,7,16,57,16,252
47.76460,-0.12005,-0.42945,0.00000,0.03306,0.97637,-0.18654,0.0,2023,6,7,16,57,16,264
47.76470,0.08995,0.28805,0.00000,0.02940,0.97661,-0.18898,0.0,2023,6,7,16,57,16,275
47.76480,0.00245,0.06055,0.00000,0.03123,0.97661,-0.18642,0.0,2023,6,7,16,57,16,286
47.76490,-0.03255,-0.04445,0.00000,0.03099,0.97771,-0.18678,0.0,2023,6,7,16,57,16,297
47.76500,0.10745,0.06055,0.00000,0.03379,0.97673,-0.18581,0.0,2023,6,7,16,57,16,308
47.76510,-0.12005,0.21805,0.00000,0.03392,0.97515,-0.18568,0.0,2023,6,7,16,57,16,319
47.76520,0.24745,-0.07945,0.00000,0.03221,0.97502,-0.18959,0.0,2023,6,7,16,57,16,330
47.76530,0.10745,0.21805,0.00000,0.03038,0.97759,-0.18788,0.0,2023,6,7,16,57,16,341
47.76540,-0.08505,0.18305,0.00000,0.02940,0.97759,-0.18922,0.0,2023,6,7,16,57,16,352
47.76550,0.14245,0.06055,0.00000,0.03172,0.97722,-0.19044,0.0,2023,6,7,16,57,16,363
47.76560,0.10745,0.11305,0.00000,0.03331,0.97466,-0.18617,0.0,2023,6,7,16,57,16,374
47.76570,-0.05005,0.09555,0.00000,0.03074,0.97759,-0.18654,0.0,2023,6,7,16,57,16,385
47.76580,-0.05005,-0.02695,0.00000,0.03245,0.98088,-0.18910,0.0,2023,6,7,16,57,16,396
47.76590,-0.24255,0.06055,0.00000,0.03123,0.97612,-0.18837,0.0,2023,6,7,16,57,16,407
47.76600,-0.08505,0.04305,0.00000,0.03184,0.97502,-0.18837,0.0,2023,6,7,16,57,16,418
47.76610,0.03745,0.18305,0.00000,0.03343,0.97661,-0.18873,0.0,2023,6,7,16,57,16,429
47.76620,-0.03255,-0.20195,0.00000,0.03184,0.97759,-0.18861,0.0,2023,6,7,16,57,16,440
47.76630,0.01995,-0.02695,0.00000,0.03196,0.97661,-0.18910,0.0,2023,6,7,16,57,16,451
47.76640,0.01995,-0.13195,0.00000,0.02989,0.97454,-0.18922,0.0,2023,6,7,16,57,16,462
47.76650,0.07245,0.09555,0.00000,0.03221,0.97551,-0.18898,0.0,2023,6,7,16,57,16,473
47.76660,-0.06755,0.07805,0.00000,0.03087,0.97759,-0.18629,0.0,2023,6,7,16,57,16,485
47.76670,0.21245,-0.21945,0.00000,0.03172,0.97685,-0.18776,0.0,2023,6,7,16,57,16,496
47.76680,0.01995,0.06055,0.00000,0.03099,0.97734,-0.19105,0.0,2023,6,7,16,57,16,507
47.76690,0.03745,-0.20195,0.00000,0.03148,0.97710,-0.18812,0.0,2023,6,7,16,57,16,518
47.76700,0.01995,-0.23695,0.00000,0.02989,0.97881,-0.18642,0.0,2023,6,7,16,57,16,529
47.76710,-0.10255,0.18305,0.00000,0.03245,0.97893,-0.18776,0.0,2023,6,7,16,57,16,540
47.76720,-0.05005,-0.14945,0.00000,0.03050,0.97612,-0.18873,0.0,2023,6,7,16,57,16,551
47.76730,-0.03255,0.02555,0.00000,0.03099,0.97807,-0.18983,0.0,2023,6,7,16,57,16,562
47.76740,0.05495,-0.14945,0.00000,0.03074,0.97576,-0.18715,0.0,2023,6,7,16,57,16,573
47.76750,-0.06755,0.00805,0.00000,0.03123,0.97588,-0.18593,0.0,2023,6,7,16,57,16,584
47.76760,0.03745,0.04305,0.00000,0.03050,0.97807,-0.18556,0.0,2023,6,7,16,57,16,595
47.76770,0.17745,0.00805,0.00000,0.03062,0.97588,-0.18776,0.0,2023,6,7,16,57,16,606
47.76780,0.08995,-0.20195,0.00000,0.03282,0.97380,-0.18678,0.0,2023,6,7,16,57,16,617
47.76790,-0.03255,0.09555,0.00000,0.03001,0.97600,-0.18959,0.0,2023,6,7,16,57,16,628
47.76800,0.01995,0.04305,0.00000,0.03038,0.97746,-0.18812,0.0,2023,6,7,16,57,16,639
47.76810,0.00245,0.11305,0.00000,0.03245,0.97661,-0.18971,0.0,2023,6,7,16,57,16,650
47.76820,-0.08505,0.11305,0.00000,0.03062,0.97868,-0.18983,0.0,2023,6,7,16,57,16,661
47.76830,-0.10255,0.00805,0.00000,0.03074,0.97710,-0.19044,0.0,2023,6,7,16,57,16,672
47.76840,-0.12005,-0.11445,0.00000,0.03172,0.97673,-0.18837,0.0,2023,6,7,16,57,16,683
47.76850,-0.22505,-0.11445,0.00000,0.03160,0.97685,-0.18910,0.0,2023,6,7,16,57,16,694
47.76860,-0.10255,0.00805,0.00000,0.03160,0.97698,-0.18861,0.0,2023,6,7,16,57,16,706
47.76870,-0.03255,0.13055,0.00000,0.03135,0.97673,-0.18959,0.0,2023,6,7,16,57,16,717
47.76880,0.01995,0.07805,0.00000,0.03123,0.97490,-0.18837,0.0,2023,6,7,16,57,16,728
47.76890,0.03745,0.06055,0.00000,0.03148,0.97661,-0.19117,0.0,2023,6,7,16,57,16,739
47.76900,0.17745,-0.25445,0.00000,0.02928,0.97710,-0.18837,0.0,2023,6,7,16,57,16,750
47.76910,-0.06755,-0.13195,0.00000,0.03123,0.97649,-0.19008,0.0,2023,6,7,16,57,16,761
47.76920,-0.01505,0.13055,0.00000,0.03038,0.97539,-0.18764,0.0,2023,6,7,16,57,16,772
47.76930,0.00245,-0.04445,0.00000,0.03062,0.97673,-0.18703,0.0,2023,6,7,16,57,16,783
47.76940,0.28245,0.00805,0.00000,0.03245,0.97576,-0.18995,0.0,2023,6,7,16,57,16,794
47.76950,0.12495,0.07805,0.00000,0.03367,0.97807,-0.18812,0.0,2023,6,7,16,57,16,805
47.76960,-0.15505,-0.25445,0.00000,0.03148,0.97539,-0.18605,0.0,2023,6,7,16,57,16,816
47.76970,-0.03255,-0.09695,0.00000,0.03270,0.97515,-0.18751,0.0,2023,6,7,16,57,16,827
47.76980,-0.19005,0.00805,0.00000,0.03135,0.97661,-0.18849,0.0,2023,6,7,16,57,16,838
47.76990,-0.08505,-0.09695,0.00000,0.03257,0.97405,-0.18934,0.0,2023,6,7,16,57,16,849
47.77000,0.21245,-0.04445,0.00000,0.02977,0.97527,-0.18947,0.0,2023,6,7,16,57,16,860
47.77010,-0.17255,0.13055,0.00000,0.03099,0.97673,-0.18934,0.0,2023,6,7,16,57,16,871
47.77020,-0.13755,0.21805,0.00000,0.03062,0.97832,-0.18910,0.0,2023,6,7,16,57,16,882
47.77030,0.10745,-0.11445,0.00000,0.02965,0.97588,-0.18788,0.0,2023,6,7,16,57,16,893
47.77040,0.05495,-0.20195,0.00000,0.02928,0.97649,-0.18800,0.0,2023,6,7,16,57,16,904
47.77050,-0.08505,0.16555,0.00000,0.03270,0.97466,-0.18837,0.0,2023,6,7,16,57,16,915
47.77060,-0.03255,-0.02695,0.00000,0.03257,0.97502,-0.18873,0.0,2023,6,7,16,57,16,927
47.77070,-0.01505,-0.04445,0.00000,0.03379,0.97624,-0.18812,0.0,2023,6,7,16,57,16,938
47.77080,0.10745,0.06055,0.00000,0.03160,0.97783,-0.18800,0.0,2023,6,7,16,57,16,949
47.77090,-0.03255,-0.02695,0.00000,0.03294,0.97454,-0.18568,0.0,2023,6,7,16,57,16,960
47.77100,0.07245,-0.04445,0.00000,0.03074,0.97502,-0.19105,0.0,2023,6,7,16,57,16,971
47.77110,-0.01505,-0.06195,0.00000,0.02977,0.97393,-0.18764,0.0,2023,6,7,16,57,16,982
47.77120,0.10745,-0.07945,0.00000,0.03392,0.97588,-0.18849,0.0,2023,6,7,16,57,16,993
47.77130,0.08995,-0.00945,0.00000,0.03184,0.97637,-0.18690,0.0,2023,6,7,16,57,17,4
47.77140,0.17745,-0.14945,0.00000,0.03050,0.97893,-0.18715,0.0,2023,6,7,16,57,17,15
47.77150,0.05495,0.14805,0.00000,0.03111,0.97759,-0.19020,0.0,2023,6,7,16,57,17,26
47.77160,-0.10255,0.07805,0.00000,0.03294,0.97783,-0.18690,0.0,2023,6,7,16,57,17,37
47.77170,-0.12005,-0.02695,0.00000,0.03160,0.97893,-0.18825,0.0,2023,6,7,16,57,17,48
47.77180,-0.06755,0.11305,0.00000,0.03270,0.97637,-0.18873,0.0,2023,6,7,16,57,17,59
47.77190,-0.12005,0.04305,0.00000,0.03209,0.97576,-0.19081,0.0,2023,6,7,16,57,17,70
47.77200,0.05495,0.06055,0.00000,0.03172,0.97466,-0.18971,0.0,2023,6,7,16,57,17,81
47.77210,0.01995,0.07805,0.00000,0.03221,0.97722,-0.18690,0.0,2023,6,7,16,57,17,92
47.77220,0.00245,-0.00945,0.00000,0.03038,0.97698,-0.18898,0.0,2023,6,7,16,57,17,103
47.77230,-0.01505,-0.00945,0.00000,0.02940,0.97588,-0.18995,0.0,2023,6,7,16,57,17,114
47.77240,0.15995,-0.00945,0.00000,0.02855,0.97637,-0.19069,0.0,2023,6,7,16,57,17,125
47.77250,-0.03255,0.11305,0.00000,0.02916,0.97600,-0.18983,0.0,2023,6,7,16,57,17,136
47.77260,-0.03255,-0.06195,0.00000,0.03257,0.97673,-0.18776,0.0,2023,6,7,16,57,17,148
47.77270,-0.22505,0.09555,0.00000,0.03270,0.97673,-0.18825,0.0,2023,6,7,16,57,17,159
47.77280,-0.05005,-0.06195,0.00000,0.03221,0.97637,-0.18959,0.0,2023,6,7,16,57,17,170
47.77290,0.01995,-0.18445,0.00000,0.03123,0.97441,-0.18886,0.0,2023,6,7,16,57,17,181
47.77300,0.08995,0.00805,0.00000,0.03196,0.97490,-0.18739,0.0,2023,6,7,16,57,17,192
47.77310,0.01995,-0.06195,0.00000,0.03062,0.97588,-0.18690,0.0,2023,6,7,16,57,17,203
47.77320,-0.10255,0.04305,0.00000,0.03123,0.97502,-0.18910,0.0,2023,6,7,16,57,17,214
47.77330,0.24745,-0.09695,0.00000,0.03013,0.97759,-0.18934,0.0,2023,6,7,16,57,17,225
47.77340,0.03745,0.13055,0.00000,0.03367,0.97722,-0.18873,0.0,2023,6,7,16,57,17,236
47.77350,0.07245,-0.21945,0.00000,0.03038,0.97661,-0.18922,0.0,2023,6,7,16,57,17,247
47.77360,-0.08505,0.13055,0.00000,0.03001,0.97576,-0.18983,0.0,2023,6,7,16,57,17,258
47.77370,0.10745,0.07805,0.00000,0.03282,0.97612,-0.18837,0.0,2023,6,7,16,57,17,269
47.77380,0.07245,-0.14945,0.00000,0.03026,0.97502,-0.18715,0.0,2023,6,7,16,57,17,280
47.77390,-0.01505,-0.09695,0.00000,0.03270,0.97698,-0.18776,0.0,2023,6,7,16,57,17,291
47.77400,-0.03255,0.06055,0.00000,0.03111,0.97490,-0.18776,0.0,2023,6,7,16,57,17,302
47.77410,-0.24255,0.11305,0.00000,0.03196,0.97710,-0.18764,0.0,2023,6,7,16,57,17,313
47.77420,-0.10255,0.16555,0.00000,0.03099,0.97454,-0.18922,0.0,2023,6,7,16,57,17,324
47.77430,-0.06755,-0.00945,0.00000,0.03001,0.97502,-0.18971,0.0,2023,6,7,16,57,17,335
47.77440,-0.05005,-0.02695,0.00000,0.02989,0.97563,-0.18922,0.0,2023,6,7,16,57,17,346
47.77450,0.08995,0.07805,0.00000,0.03123,0.97527,-0.18776,0.0,2023,6,7,16,57,17,357
47.77460,-0.10255,0.04305,0.00000,0.03209,0.97710,-0.18715,0.0,2023,6,7,16,57,17,369
47.77470,0.14245,-0.21945,0.00000,0.03087,0.97722,-0.18861,0.0,2023,6,7,16,57,17,380
47.77480,0.26495,-0.21945,0.00000,0.03196,0.97649,-0.18776,0.0,2023,6,7,16,57,17,391
47.77490,-0.19005,0.13055,0.00000,0.02989,0.97563,-0.18764,0.0,2023,6,7,16,57,17,402
47.77500,0.00245,-0.20195,0.00000,0.03099,0.97429,-0.18971,0.0,2023,6,7,16,57,17,413
47.77510,0.03745,0.02555,0.00000,0.03306,0.97734,-0.18800,0.0,2023,6,7,16,57,17,424
47.77520,0.03745,-0.14945,0.00000,0.03172,0.97673,-0.18849,0.0,2023,6,7,16,57,17,435
47.77530,-0.12005,0.14805,0.00000,0.03099,0.97515,-0.18983,0.0,2023,6,7,16,57,17,446
47.77540,0.07245,-0.02695,0.00000,0.03282,0.97612,-0.18983,0.0,2023,6,7,16,57,17,457
47.77550,-0.15505,0.02555,0.00000,0.02965,0.97527,-0.18812,0.0,2023,6,7,16,57,17,468
47.77560,0.26495,-0.06195,0.00000,0.03062,0.97783,-0.19069,0.0,2023,6,7,16,57,17,479
47.77570,-0.03255,0.02555,0.00000,0.03087,0.97832,-0.19020,0.0,2023,6,7,16,57,17,490
47.77580,0.03745,-0.02695,0.00000,0.03245,0.97466,-0.18715,0.0,2023,6,7,16,57,17,501
47.77590,-0.03255,-0.20195,0.00000,0.03050,0.97539,-0.18764,0.0,2023,6,7,16,57,17,512
47.77600,-0.06755,-0.18445,0.00000,0.03233,0.97576,-0.19117,0.0,2023,6,7,16,57,17,523
47.77610,0.01995,-0.11445,0.00000,0.03074,0.97698,-0.18910,0.0,2023,6,7,16,57,17,534
47.77620,-0.17255,-0.09695,0.00000,0.03209,0.97600,-0.18544,0.0,2023,6,7,16,57,17,545
47.77630,-0.06755,-0.13195,0.00000,0.03050,0.97515,-0.18825,0.0,2023,6,7,16,57,17,556
47.77640,0.03745,-0.11445,0.00000,0.03196,0.97600,-0.18849,0.0,2023,6,7,16,57,17,567
47.77650,-0.27755,0.18305,0.00000,0.03099,0.97319,-0.18995,0.0,2023,6,7,16,57,17,578
47.77660,-0.05005,-0.07945,0.00000,0.03196,0.97527,-0.19069,0.0,2023,6,7,16,57,17,590
47.77670,-0.08505,0.02555,0.00000,0.03087,0.97783,-0.18825,0.0,2023,6,7,16,57,17,601
47.77680,-0.03255,-0.02695,0.00000,0.03074,0.97563,-0.18764,0.0,2023,6,7,16,57,17,612
47.77690,-0.01505,0.02555,0.00000,0.03172,0.97637,-0.18898,0.0,2023,6,7,16,57,17,623
47.77700,-0.12005,0.04305,0.00000,0.03038,0.97771,-0.18959,0.0,2023,6,7,16,57,17,634
47.77710,-0.12005,0.20055,0.00000,0.03355,0.97856,-0.18959,0.0,2023,6,7,16,57,17,645
47.77720,0.00245,-0.11445,0.00000,0.03477,0.97624,-0.18544,0.0,2023,6,7,16,57,17,656
47.77730,-0.03255,-0.18445,0.00000,0.03074,0.97576,-0.18971,0.0,2023,6,7,16,57,17,667
47.77740,-0.12005,-0.00945,0.00000,0.03184,0.97539,-0.18898,0.0,2023,6,7,16,57,17,678
47.77750,-0.06755,0.04305,0.00000,0.02916,0.97722,-0.18873,0.0,2023,6,7,16,57,17,689
47.77760,0.15995,-0.02695,0.00000,0.03148,0.97698,-0.18971,0.0,2023,6,7,16,57,17,700
47.77770,0.15995,0.07805,0.00000,0.03270,0.97551,-0.18642,0.0,2023,6,7,16,57,17,711
47.77780,0.12495,0.13055,0.00000,0.03148,0.97502,-0.19215,0.0,2023,6,7,16,57,17,722
47.77790,0.24745,0.09555,0.00000,0.03038,0.97624,-0.18922,0.0,2023,6,7,16,57,17,733
47.77800,0.05495,0.06055,0.00000,0.03074,0.97722,-0.18764,0.0,2023,6,7,16,57,17,744
47.77810,0.19495,-0.14945,0.00000,0.03087,0.97783,-0.18739,0.0,2023,6,7,16,57,17,755
47.77820,-0.12005,-0.00945,0.00000,0.03172,0.97563,-0.18776,0.0,2023,6,7,16,57,17,766
47.77830,-0.10255,-0.20195,0.00000,0.03367,0.97722,-0.18886,0.0,2023,6,7,16,57,17,777
47.77840,-0.12005,-0.02695,0.00000,0.03111,0.97734,-0.18873,0.0,2023,6,7,16,57,17,788
47.77850,-0.06755,-0.00945,0.00000,0.02904,0.97783,-0.18825,0.0,2023,6,7,16,57,17,799
47.77860,0.00245,-0.06195,0.00000,0.03270,0.97588,-0.18886,0.0,2023,6,7,16,57,17,811
47.77870,-0.08505,-0.00945,0.00000,0.03257,0.97722,-0.18776,0.0,2023,6,7,16,57,17,822
47.77880,-0.13755,-0.07945,0.00000,0.02916,0.97588,-0.18764,0.0,2023,6,7,16,57,17,833
47.77890,-0.03255,0.13055,0.00000,0.03087,0.97539,-0.19081,0.0,2023,6,7,16,57,17,844
47.77900,0.00245,-0.11445,0.00000,0.03099,0.97795,-0.18922,0.0,2023,6,7,16,57,17,855
47.77910,-0.12005,-0.00945,0.00000,0.03038,0.97393,-0.18727,0.0,2023,6,7,16,57,17,866
47.77920,-0.03255,-0.07945,0.00000,0.03135,0.97539,-0.18922,0.0,2023,6,7,16,57,17,877
47.77930,0.10745,0.21805,0.00000,0.03099,0.97576,-0.18739,0.0,2023,6,7,16,57,17,888
47.77940,-0.03255,-0.06195,0.00000,0.03099,0.97490,-0.18959,0.0,2023,6,7,16,57,17,899
47.77950,-0.01505,-0.09695,0.00000,0.03172,0.97515,-0.19069,0.0,2023,6,7,16,57,17,910
47.77960,-0.08505,0.06055,0.00000,0.03270,0.97844,-0.18568,0.0,2023,6,7,16,57,17,921
47.77970,-0.08505,0.07805,0.00000,0.03062,0.97710,-0.18837,0.0,2023,6,7,16,57,17,932
47.77980,0.17745,0.04305,0.00000,0.03038,0.97685,-0.19142,0.0,2023,6,7,16,57,17,943
47.77990,-0.10255,-0.11445,0.00000,0.03038,0.97600,-0.18910,0.0,2023,6,7,16,57,17,954
47.78000,-0.10255,0.16555,0.00000,0.03148,0.97380,-0.18934,0.0,2023,6,7,16,57,17,965
47.78010,0.17745,-0.02695,0.00000,0.03074,0.97612,-0.18861,0.0,2023,6,7,16,57,17,976
47.78020,-0.03255,-0.00945,0.00000,0.03245,0.97807,-0.18861,0.0,2023,6,7,16,57,18,7
47.78030,0.08995,0.14805,0.00000,0.03196,0.97368,-0.19130,0.0,2023,6,7,16,57,18,18
47.78040,-0.20755,0.02555,0.00000,0.03257,0.97527,-0.18849,0.0,2023,6,7,16,57,18,29
47.78050,-0.12005,-0.06195,0.00000,0.03257,0.97649,-0.18898,0.0,2023,6,7,16,57,18,40
47.78060,-0.03255,-0.06195,0.00000,0.03099,0.97612,-0.18800,0.0,2023,6,7,16,57,18,52
47.78070,0.01995,-0.18445,0.00000,0.03038,0.97759,-0.18873,0.0,2023,6,7,16,57,18,63
47.78080,0.03745,-0.09695,0.00000,0.03184,0.97551,-0.19056,0.0,2023,6,7,16,57,18,74
47.78090,-0.13755,-0.09695,0.00000,0.03123,0.97771,-0.18873,0.0,2023,6,7,16,57,18,85
47.78100,0.17745,0.04305,0.00000,0.03160,0.97710,-0.18934,0.0,2023,6,7,16,57,18,96
47.78110,-0.01505,0.30555,0.00000,0.03282,0.97746,-0.18690,0.0,2023,6,7,16,57,18,107
47.78120,-0.12005,-0.06195,0.00000,0.03148,0.97746,-0.18715,0.0,2023,6,7,16,57,18,118
47.78130,0.05495,0.06055,0.00000,0.02977,0.97600,-0.18849,0.0,2023,6,7,16,57,18,129
47.78140,-0.06755,-0.09695,0.00000,0.03062,0.97722,-0.18715,0.0,2023,6,7,16,57,18,140
47.78150,0.01995,0.07805,0.00000,0.03209,0.97649,-0.18922,0.0,2023,6,7,16,57,18,151
47.78160,0.07245,0.20055,0.00000,0.03135,0.97673,-0.18910,0.0,2023,6,7,16,57,18,162
47.78170,0.00245,-0.00945,0.00000,0.03318,0.97844,-0.18617,0.0,2023,6,7,16,57,18,173
47.78180,0.05495,-0.09695,0.00000,0.02989,0.97966,-0.18983,0.0,2023,6,7,16,57,18,184
47.78190,-0.06755,0.09555,0.00000,0.02977,0.97624,-0.18849,0.0,2023,6,7,16,57,18,195
47.78200,-0.13755,-0.06195,0.00000,0.03026,0.97649,-0.18873,0.0,2023,6,7,16,57,18,206
47.78210,-0.03255,-0.04445,0.00000,0.03355,0.97685,-0.18849,0.0,2023,6,7,16,57,18,217
47.78220,-0.08505,0.04305,0.00000,0.03123,0.97820,-0.18642,0.0,2023,6,7,16,57,18,228
47.78230,0.00245,-0.20195,0.00000,0.03099,0.97856,-0.18861,0.0,2023,6,7,16,57,18,239
47.78240,0.00245,0.00805,0.00000,0.03062,0.97588,-0.18861,0.0,2023,6,7,16,57,18,250
47.78250,-0.01505,-0.00945,0.00000,0.03184,0.97405,-0.18886,0.0,2023,6,7,16,57,18,261
47.78260,-0.01505,0.04305,0.00000,0.03099,0.97502,-0.19008,0.0,2023,6,7,16,57,18,273
47.78270,-0.12005,-0.02695,0.00000,0.03050,0.97710,-0.18910,0.0,2023,6,7,16,57,18,284
47.78280,0.12495,-0.06195,0.00000,0.03135,0.97649,-0.18971,0.0,2023,6,7,16,57,18,295
47.78290,-0.06755,-0.14945,0.00000,0.03087,0.97588,-0.18886,0.0,2023,6,7,16,57,18,306
47.78300,0.05495,-0.06195,0.00000,0.03209,0.97576,-0.19020,0.0,2023,6,7,16,57,18,317
47.78310,0.03745,-0.20195,0.00000,0.02830,0.97673,-0.18959,0.0,2023,6,7,16,57,18,328
47.78320,0.00245,0.06055,0.00000,0.03184,0.97624,-0.19093,0.0,2023,6,7,16,57,18,339
47.78330,-0.20755,0.32305,0.00000,0.03233,0.97661,-0.18800,0.0,2023,6,7,16,57,18,350
47.78340,0.07245,0.00805,0.00000,0.03026,0.97417,-0.18751,0.0,2023,6,7,16,57,18,361
47.78350,-0.01505,-0.13195,0.00000,0.03087,0.97673,-0.18776,0.0,2023,6,7,16,57,18,372
47.78360,0.01995,-0.07945,0.00000,0.02916,0.97576,-0.19008,0.0,2023,6,7,16,57,18,383
47.78370,-0.03255,0.06055,0.00000,0.03318,0.97502,-0.18971,0.0,2023,6,7,16,57,18,394
47.78380,-0.03255,0.11305,0.00000,0.03148,0.97515,-0.18739,0.0,2023,6,7,16,57,18,405
47.78390,-0.12005,-0.13195,0.00000,0.03221,0.97820,-0.18825,0.0,2023,6,7,16,57,18,416
47.78400,0.00245,-0.11445,0.00000,0.03196,0.97661,-0.19056,0.0,2023,6,7,16,57,18,427
47.78410,0.01995,-0.02695,0.00000,0.02867,0.97466,-0.18800,0.0,2023,6,7,16,57,18,438
47.78420,-0.15505,0.07805,0.00000,0.03343,0.97661,-0.18849,0.0,2023,6,7,16,57,18,449
47.78430,-0.06755,0.00805,0.00000,0.03062,0.97698,-0.18886,0.0,2023,6,7,16,57,18,460
47.78440,0.00245,-0.13195,0.00000,0.02977,0.97771,-0.18764,0.0,2023,6,7,16,57,18,471
47.78450,0.10745,-0.06195,0.00000,0.03221,0.97698,-0.18861,0.0,2023,6,7,16,57,18,482
47.78460,0.03745,0.16555,0.00000,0.03074,0.97332,-0.18971,0.0,2023,6,7,16,57,18,494
47.78470,-0.01505,-0.25445,0.00000,0.03050,0.97405,-0.19130,0.0,2023,6,7,16,57,18,505
47.78480,0.00245,0.07805,0.00000,0.03196,0.97502,-0.18934,0.0,2023,6,7,16,57,18,516
47.78490,0.03745,-0.09695,0.00000,0.03367,0.97746,-0.18654,0.0,2023,6,7,16,57,18,527
47.78500,-0.27755,-0.04445,0.00000,0.03062,0.97795,-0.18959,0.0,2023,6,7,16,57,18,538
47.78510,-0.05005,-0.11445,0.00000,0.03135,0.97649,-0.18886,0.0,2023,6,7,16,57,18,549
47.78520,0.01995,0.27055,0.00000,0.03392,0.97759,-0.18715,0.0,2023,6,7,16,57,18,560
47.78530,0.19495,-0.21945,0.00000,0.03074,0.97844,-0.18983,0.0,2023,6,7,16,57,18,571
47.78540,-0.01505,0.14805,0.00000,0.03087,0.97820,-0.19081,0.0,2023,6,7,16,57,18,582
47.78550,0.10745,-0.04445,0.00000,0.03099,0.97734,-0.18898,0.0,2023,6,7,16,57,18,593
47.78560,0.05495,0.02555,0.00000,0.03221,0.97698,-0.18910,0.0,2023,6,7,16,57,18,604
47.78570,0.12495,-0.18445,0.00000,0.03184,0.97368,-0.19008,0.0,2023,6,7,16,57,18,615
47.78580,-0.15505,0.00805,0.00000,0.03233,0.97563,-0.18581,0.0,2023,6,7,16,57,18,626
47.78590,0.10745,0.21805,0.00000,0.03099,0.97539,-0.19239,0.0,2023,6,7,16,57,18,637
47.78600,0.03745,-0.07945,0.00000,0.03074,0.97624,-0.18983,0.0,2023,6,7,16,57,18,648
47.78610,0.14245,-0.00945,0.00000,0.03209,0.97624,-0.18861,0.0,2023,6,7,16,57,18,659
47.78620,-0.01505,0.06055,0.00000,0.03062,0.97539,-0.18825,0.0,2023,6,7,16,57,18,670
47.78630,0.01995,0.02555,0.00000,0.03160,0.97649,-0.18788,0.0,2023,6,7,16,57,18,681
47.78640,-0.03255,-0.16695,0.00000,0.03099,0.97771,-0.19008,0.0,2023,6,7,16,57,18,692
47.78650,0.29995,-0.13195,0.00000,0.03160,0.97405,-0.18995,0.0,2023,6,7,16,57,18,703
47.78660,-0.17255,0.06055,0.00000,0.03355,0.97344,-0.19032,0.0,2023,6,7,16,57,18,715
47.78670,-0.03255,0.07805,0.00000,0.03172,0.97624,-0.18971,0.0,2023,6,7,16,57,18,726
47.78680,-0.06755,-0.07945,0.00000,0.03135,0.97624,-0.18849,0.0,2023,6,7,16,57,18,737
47.78690,-0.08505,-0.04445,0.00000,0.03062,0.97563,-0.19154,0.0,2023,6,7,16,57,18,748
47.78700,-0.03255,0.04305,0.00000,0.03099,0.97637,-0.18971,0.0,2023,6,7,16,57,18,759
47.78710,-0.01505,-0.14945,0.00000,0.03123,0.97624,-0.19008,0.0,2023,6,7,16,57,18,770
47.78720,-0.10255,0.13055,0.00000,0.03026,0.97710,-0.18776,0.0,2023,6,7,16,57,18,781
47.78730,-0.03255,-0.11445,0.00000,0.03135,0.97771,-0.18898,0.0,2023,6,7,16,57,18,792
47.78740,0.07245,-0.16695,0.00000,0.03270,0.97661,-0.18947,0.0,2023,6,7,16,57,18,803
47.78750,0.12495,0.06055,0.00000,0.03196,0.97405,-0.19032,0.0,2023,6,7,16,57,18,814
47.78760,-0.01505,0.11305,0.00000,0.03123,0.97563,-0.18886,0.0,2023,6,7,16,57,18,825
47.78770,-0.01505,-0.02695,0.00000,0.03099,0.97795,-0.18849,0.0,2023,6,7,16,57,18,836
47.78780,-0.01505,-0.00945,0.00000,0.03062,0.97588,-0.18581,0.0,2023,6,7,16,57,18,847
47.78790,-0.05005,-0.07945,0.00000,0.03001,0.97673,-0.19069,0.0,2023,6,7,16,57,18,858
47.78800,-0.01505,-0.23695,0.00000,0.03270,0.97868,-0.19056,0.0,2023,6,7,16,57,18,869
47.78810,-0.03255,0.21805,0.00000,0.02952,0.97624,-0.18922,0.0,2023,6,7,16,57,18,880
47.78820,0.24745,-0.18445,0.00000,0.03111,0.97612,-0.18959,0.0,2023,6,7,16,57,18,891
47.78830,-0.03255,-0.11445,0.00000,0.03331,0.97612,-0.18947,0.0,2023,6,7,16,57,18,902
47.78840,0.05495,-0.21945,0.00000,0.03209,0.97441,-0.18995,0.0,2023,6,7,16,57,18,913
47.78850,0.21245,0.20055,0.00000,0.03123,0.97685,-0.18922,0.0,2023,6,7,16,57,18,924
47.78860,0.14245,-0.06195,0.00000,0.03343,0.97832,-0.18825,0.0,2023,6,7,16,57,18,936
47.78870,-0.03255,0.00805,0.00000,0.03160,0.97722,-0.18886,0.0,2023,6,7,16,57,18,947
47.78880,0.10745,-0.14945,0.00000,0.03294,0.97868,-0.19044,0.0,2023,6,7,16,57,18,958
47.78890,0.00245,-0.07945,0.00000,0.02977,0.97649,-0.18934,0.0,2023,6,7,16,57,18,969
47.78900,0.03745,-0.11445,0.00000,0.03148,0.97368,-0.18727,0.0,2023,6,7,16,57,18,980
47.78910,0.10745,-0.20195,0.00000,0.03245,0.97612,-0.18739,0.0,2023,6,7,16,57,18,991
47.78920,0.15995,-0.09695,0.00000,0.03087,0.97722,-0.19117,0.0,2023,6,7,16,57,19,2
47.78930,0.01995,-0.02695,0.00000,0.03221,0.97673,-0.18886,0.0,2023,6,7,16,57,19,13
47.78940,-0.06755,-0.07945,0.00000,0.03294,0.97759,-0.18910,0.0,2023,6,7,16,57,19,24
47.78950,0.10745,-0.16695,0.00000,0.03050,0.97661,-0.18703,0.0,2023,6,7,16,57,19,35
47.78960,0.08995,-0.07945,0.00000,0.03050,0.97832,-0.18959,0.0,2023,6,7,16,57,19,46
47.78970,0.01995,-0.13195,0.00000,0.03026,0.97881,-0.19069,0.0,2023,6,7,16,57,19,57
47.78980,-0.03255,0.04305,0.00000,0.03221,0.97624,-0.18873,0.0,2023,6,7,16,57,19,68
47.78990,0.10745,0.07805,0.00000,0.02989,0.97588,-0.18861,0.0,2023,6,7,16,57,19,79
47.79000,0.00245,-0.02695,0.00000,0.02952,0.97478,-0.18751,0.0,2023,6,7,16,57,19,90
47.79010,-0.08505,-0.04445,0.00000,0.03074,0.97588,-0.19093,0.0,2023,6,7,16,57,19,101
47.79020,-0.05005,-0.06195,0.00000,0.02952,0.97588,-0.18983,0.0,2023,6,7,16,57,19,112
47.79030,-0.13755,-0.04445,0.00000,0.02965,0.97563,-0.18825,0.0,2023,6,7,16,57,19,123
47.79040,-0.05005,-0.11445,0.00000,0.03074,0.97588,-0.18873,0.0,2023,6,7,16,57,19,134
47.79050,0.00245,-0.13195,0.00000,0.03111,0.97600,-0.18739,0.0,2023,6,7,16,57,19,145
47.79060,-0.01505,0.11305,0.00000,0.03001,0.97759,-0.18788,0.0,2023,6,7,16,57,19,157
47.79070,0.12495,-0.07945,0.00000,0.03184,0.97502,-0.19020,0.0,2023,6,7,16,57,19,168
47.79080,-0.01505,-0.11445,0.00000,0.03148,0.97600,-0.18642,0.0,2023,6,7,16,57,19,179
47.79090,0.08995,-0.06195,0.00000,0.03209,0.97746,-0.18959,0.0,2023,6,7,16,57,19,190
47.79100,-0.05005,0.00805,0.00000,0.03172,0.97856,-0.18873,0.0,2023,6,7,16,57,19,201
47.79110,-0.06755,0.27055,0.00000,0.03245,0.97466,-0.18947,0.0,2023,6,7,16,57,19,212
47.79120,0.01995,0.02555,0.00000,0.03221,0.97893,-0.18898,0.0,2023,6,7,16,57,19,223
47.79130,-0.03255,0.09555,0.00000,0.03013,0.97649,-0.18727,0.0,2023,6,7,16,57,19,234
47.79140,-0.12005,-0.02695,0.00000,0.03099,0.97600,-0.18776,0.0,2023,6,7,16,57,19,245
47.79150,0.07245,-0.04445,0.00000,0.03379,0.97820,-0.18995,0.0,2023,6,7,16,57,19,256
47.79160,0.00245,-0.04445,0.00000,0.03123,0.98027,-0.18849,0.0,2023,6,7,16,57,19,267
47.79170,-0.27755,-0.04445,0.00000,0.03050,0.97637,-0.18886,0.0,2023,6,7,16,57,19,278
47.79180,0.22995,-0.07945,0.00000,0.03111,0.97600,-0.18983,0.0,2023,6,7,16,57,19,289
47.79190,-0.03255,-0.06195,0.00000,0.03074,0.97539,-0.18800,0.0,2023,6,7,16,57,19,300
47.79200,-0.13755,-0.18445,0.00000,0.02916,0.97710,-0.18934,0.0,2023,6,7,16,57,19,311
47.79210,-0.03255,0.16555,0.00000,0.03099,0.97759,-0.18849,0.0,2023,6,7,16,57,19,322
47.79220,-0.29505,-0.09695,0.00000,0.03196,0.97539,-0.18739,0.0,2023,6,7,16,57,19,333
47.79230,-0.13755,0.14805,0.00000,0.03087,0.97527,-0.18764,0.0,2023,6,7,16,57,19,344
47.79240,-0.06755,-0.00945,0.00000,0.03123,0.97490,-0.18556,0.0,2023,6,7,16,57,19,355
47.79250,0.15995,-0.09695,0.00000,0.02977,0.97771,-0.18861,0.0,2023,6,7,16,57,19,366
47.79260,-0.06755,-0.04445,0.00000,0.03245,0.97515,-0.18776,0.0,2023,6,7,16,57,19,378
47.79270,0.08995,-0.00945,0.00000,0.03099,0.97368,-0.18934,0.0,2023,6,7,16,57,19,389
47.79280,-0.06755,-0.09695,0.00000,0.03196,0.97502,-0.18715,0.0,2023,6,7,16,57,19,400
47.79290,0.08995,-0.16695,0.00000,0.03160,0.97393,-0.18886,0.0,2023,6,7,16,57,19,411
47.79300,-0.20755,0.14805,0.00000,0.03123,0.97649,-0.18690,0.0,2023,6,7,16,57,19,422
47.79310,-0.19005,-0.02695,0.00000,0.03184,0.97600,-0.18776,0.0,2023,6,7,16,57,19,433
47.79320,-0.19005,0.11305,0.00000,0.02940,0.97710,-0.18715,0.0,2023,6,7,16,57,19,444
47.79330,0.12495,0.06055,0.00000,0.03135,0.97929,-0.18886,0.0,2023,6,7,16,57,19,455
47.79340,0.01995,-0.13195,0.00000,0.03087,0.97490,-0.18727,0.0,2023,6,7,16,57,19,466
47.79350,0.17745,-0.25445,0.00000,0.02843,0.97466,-0.19117,0.0,2023,6,7,16,57,19,477
47.79360,-0.26005,-0.04445,0.00000,0.03038,0.97539,-0.18739,0.0,2023,6,7,16,57,19,488
47.79370,0.00245,-0.00945,0.00000,0.03038,0.97393,-0.18776,0.0,2023,6,7,16,57,19,499
47.79380,0.21245,-0.07945,0.00000,0.03062,0.97417,-0.18751,0.0,2023,6,7,16,57,19,510
47.79390,0.01995,-0.00945,0.00000,0.03099,0.97637,-0.18776,0.0,2023,6,7,16,57,19,521
47.79400,-0.15505,0.18305,0.00000,0.03233,0.97722,-0.18886,0.0,2023,6,7,16,57,19,532
47.79410,-0.01505,-0.00945,0.00000,0.03294,0.97673,-0.19008,0.0,2023,6,7,16,57,19,543
47.79420,0.03745,-0.04445,0.00000,0.03013,0.97698,-0.18983,0.0,2023,6,7,16,57,19,554
47.79430,0.00245,0.11305,0.00000,0.03270,0.97527,-0.18825,0.0,2023,6,7,16,57,19,565
47.79440,0.12495,0.04305,0.00000,0.03318,0.97661,-0.18849,0.0,2023,6,7,16,57,19,576
47.79450,0.01995,-0.20195,0.00000,0.03172,0.97563,-0.18812,0.0,2023,6,7,16,57,19,587
47.79460,-0.08505,-0.18445,0.00000,0.02965,0.97539,-0.18837,0.0,2023,6,7,16,57,19,599
47.79470,-0.17255,0.06055,0.00000,0.03135,0.97600,-0.18690,0.0,2023,6,7,16,57,19,610
47.79480,-0.12005,0.21805,0.00000,0.02989,0.97710,-0.18825,0.0,2023,6,7,16,57,19,621
47.79490,-0.03255,-0.07945,0.00000,0.03001,0.97734,-0.18971,0.0,2023,6,7,16,57,19,632
47.79500,-0.01505,0.02555,0.00000,0.03062,0.97502,-0.18947,0.0,2023,6,7,16,57,19,643
47.79510,-0.03255,-0.20195,0.00000,0.03087,0.97649,-0.18983,0.0,2023,6,7,16,57,19,654
47.79520,-0.08505,0.02555,0.00000,0.03087,0.97612,-0.18812,0.0,2023,6,7,16,57,19,665
47.79530,0.08995,0.18305,0.00000,0.03123,0.97624,-0.18715,0.0,2023,6,7,16,57,19,676
47.79540,-0.10255,-0.27195,0.00000,0.03001,0.97771,-0.19056,0.0,2023,6,7,16,57,19,687
47.79550,-0.03255,0.00805,0.00000,0.03257,0.97527,-0.18764,0.0,2023,6,7,16,57,19,698
47.79560,0.19495,-0.11445,0.00000,0.03245,0.97820,-0.18776,0.0,2023,6,7,16,57,19,709
47.79570,0.01995,0.07805,0.00000,0.03099,0.97417,-0.18520,0.0,2023,6,7,16,57,19,720
47.79580,-0.03255,-0.06195,0.00000,0.02965,0.97746,-0.19081,0.0,2023,6,7,16,57,19,731
47.79590,-0.06755,0.09555,0.00000,0.03270,0.97698,-0.18849,0.0,2023,6,7,16,57,19,742
47.79600,-0.03255,-0.11445,0.00000,0.03209,0.97795,-0.18593,0.0,2023,6,7,16,57,19,753
47.79610,0.07245,-0.23695,0.00000,0.03001,0.97624,-0.18703,0.0,2023,6,7,16,57,19,764
47.79620,-0.13755,0.06055,0.00000,0.03026,0.97637,-0.18922,0.0,2023,6,7,16,57,19,775
47.79630,-0.01505,0.16555,0.00000,0.03270,0.97685,-0.18776,0.0,2023,6,7,16,57,19,786
47.79640,0.12495,0.14805,0.00000,0.03135,0.97685,-0.18922,0.0,2023,6,7,16,57,19,797
47.79650,-0.03255,0.09555,0.00000,0.03160,0.97698,-0.18715,0.0,2023,6,7,16,57,19,808
47.79660,-0.08505,-0.13195,0.00000,0.03172,0.97539,-0.18825,0.0,2023,6,7,16,57,19,820
47.79670,0.00245,-0.02695,0.00000,0.03184,0.97624,-0.18703,0.0,2023,6,7,16,57,19,831
47.79680,-0.05005,-0.09695,0.00000,0.03209,0.97563,-0.19020,0.0,2023,6,7,16,57,19,842
47.79690,0.07245,-0.21945,0.00000,0.02916,0.97734,-0.18910,0.0,2023,6,7,16,57,19,853
47.79700,-0.03255,-0.20195,0.00000,0.02904,0.97551,-0.18788,0.0,2023,6,7,16,57,19,864
47.79710,-0.10255,-0.02695,0.00000,0.03160,0.97820,-0.18703,0.0,2023,6,7,16,57,19,875
47.79720,-0.03255,-0.06195,0.00000,0.03160,0.97881,-0.18678,0.0,2023,6,7,16,57,19,886
47.79730,0.00245,-0.07945,0.00000,0.03270,0.97807,-0.18861,0.0,2023,6,7,16,57,19,897
47.79740,0.12495,0.00805,0.00000,0.03087,0.97417,-0.18947,0.0,2023,6,7,16,57,19,908
47.79750,0.00245,-0.04445,0.00000,0.03270,0.97710,-0.18751,0.0,2023,6,7,16,57,19,919
47.79760,-0.01505,-0.27195,0.00000,0.03087,0.97990,-0.18629,0.0,2023,6,7,16,57,19,930
47.79770,0.21245,-0.04445,0.00000,0.03148,0.97661,-0.18715,0.0,2023,6,7,16,57,19,941
47.79780,-0.03255,0.20055,0.00000,0.03245,0.97454,-0.18898,0.0,2023,6,7,16,57,19,952
47.79790,0.05495,0.02555,0.00000,0.02977,0.97795,-0.18959,0.0,2023,6,7,16,57,19,963
47.79800,-0.06755,-0.07945,0.00000,0.02977,0.97734,-0.18861,0.0,2023,6,7,16,57,19,974
47.79810,0.14245,-0.02695,0.00000,0.02977,0.97856,-0.18776,0.0,2023,6,7,16,57,19,985
47.79820,0.05495,-0.02695,0.00000,0.02989,0.97807,-0.18898,0.0,2023,6,7,16,57,20,6
47.79830,-0.10255,-0.18445,0.00000,0.03074,0.97649,-0.18898,0.0,2023,6,7,16,57,20,17
47.79840,-0.17255,0.27055,0.00000,0.03196,0.97820,-0.19081,0.0,2023,6,7,16,57,20,28
47.79850,0.10745,0.06055,0.00000,0.03074,0.97527,-0.18983,0.0,2023,6,7,16,57,20,39
47.79860,-0.05005,0.00805,0.00000,0.03135,0.97710,-0.19008,0.0,2023,6,7,16,57,20,51
47.79870,-0.01505,-0.02695,0.00000,0.03294,0.97844,-0.18898,0.0,2023,6,7,16,57,20,62
47.79880,0.03745,0.00805,0.00000,0.03257,0.97551,-0.19032,0.0,2023,6,7,16,57,20,73
47.79890,0.01995,-0.13195,0.00000,0.02977,0.97637,-0.18886,0.0,2023,6,7,16,57,20,84
47.79900,-0.01505,-0.02695,0.00000,0.03001,0.97649,-0.18922,0.0,2023,6,7,16,57,20,95
47.79910,-0.01505,0.09555,0.00000,0.03038,0.97783,-0.18849,0.0,2023,6,7,16,57,20,106
47.79920,0.17745,-0.13195,0.00000,0.03209,0.97624,-0.18825,0.0,2023,6,7,16,57,20,117
47.79930,-0.06755,-0.09695,0.00000,0.03318,0.97624,-0.18739,0.0,2023,6,7,16,57,20,128
47.79940,0.10745,0.06055,0.00000,0.03270,0.97563,-0.19081,0.0,2023,6,7,16,57,20,139
47.79950,0.00245,-0.11445,0.00000,0.02965,0.97588,-0.19337,0.0,2023,6,7,16,57,20,150
47.79960,-0.29505,0.23555,0.00000,0.03221,0.97637,-0.18934,0.0,2023,6,7,16,57,20,161
47.79970,-0.19005,0.21805,0.00000,0.03209,0.97722,-0.18898,0.0,2023,6,7,16,57,20,172
47.79980,0.05495,-0.14945,0.00000,0.03209,0.97685,-0.18898,0.0,2023,6,7,16,57,20,183
47.79990,-0.06755,0.14805,0.00000,0.03099,0.97551,-0.19032,0.0,2023,6,7,16,57,20,194
47.80000,0.01995,-0.07945,0.00000,0.03172,0.97624,-0.19264,0.0,2023,6,7,16,57,20,205
47.80010,0.01995,0.06055,0.00000,0.03148,0.97673,-0.18873,0.0,2023,6,7,16,57,20,216
47.80020,-0.08505,0.11305,0.00000,0.03282,0.97685,-0.18995,0.0,2023,6,7,16,57,20,227
