#2023/06/07 12:00:47
time,wx,wy,wz,ax,ay,az,yy,MM,dd,hh,mm,ss,ms
38.35280,-0.01435,0.04147,0.00000,0.02928,0.97539,-0.19532,0.0,2023,6,7,12,0,47,1000
38.35290,0.00315,0.16397,0.00000,0.02684,0.97478,-0.19788,0.0,2023,6,7,12,0,47,10
38.35300,0.05565,-0.20353,0.00000,0.02647,0.97502,-0.19605,0.0,2023,6,7,12,0,47,20
38.35310,0.03815,-0.06353,0.00000,0.02855,0.97551,-0.19740,0.0,2023,6,7,12,0,47,30
38.35320,-0.24185,0.04147,0.00000,0.02916,0.97527,-0.19325,0.0,2023,6,7,12,0,47,40
38.35330,-0.18935,0.07647,0.00000,0.02757,0.97600,-0.19532,0.0,2023,6,7,12,0,47,50
38.35340,0.09065,-0.01103,0.00000,0.03013,0.97624,-0.19666,0.0,2023,6,7,12,0,47,60
38.35350,-0.13685,-0.02853,0.00000,0.02782,0.97429,-0.19642,0.0,2023,6,7,12,0,47,70
38.35360,0.05565,-0.08103,0.00000,0.02940,0.97771,-0.19349,0.0,2023,6,7,12,0,47,80
38.35370,0.10815,-0.18603,0.00000,0.02696,0.97441,-0.19569,0.0,2023,6,7,12,0,47,90
38.35380,0.14315,0.00647,0.00000,0.03013,0.97624,-0.19374,0.0,2023,6,7,12,0,47,100
38.35390,0.10815,0.11147,0.00000,0.02708,0.97637,-0.19435,0.0,2023,6,7,12,0,47,110
38.35400,-0.01435,0.07647,0.00000,0.02843,0.97527,-0.19483,0.0,2023,6,7,12,0,47,120
38.35410,0.19565,-0.13353,0.00000,0.03001,0.97527,-0.19508,0.0,2023,6,7,12,0,47,130
38.35420,-0.06685,0.14647,0.00000,0.02855,0.97637,-0.19483,0.0,2023,6,7,12,0,47,140
38.35430,0.05565,0.09397,0.00000,0.03087,0.97612,-0.19435,0.0,2023,6,7,12,0,47,150
38.35440,0.02065,0.02397,0.00000,0.02965,0.97698,-0.19605,0.0,2023,6,7,12,0,47,160
38.35450,0.14315,-0.01103,0.00000,0.02879,0.97698,-0.19605,0.0,2023,6,7,12,0,47,170
38.35460,-0.01435,-0.06353,0.00000,0.02867,0.97746,-0.19447,0.0,2023,6,7,12,0,47,180
38.35470,-0.04935,0.02397,0.00000,0.02830,0.97624,-0.19496,0.0,2023,6,7,12,0,47,190
38.35480,0.09065,0.05897,0.00000,0.02916,0.97417,-0.19532,0.0,2023,6,7,12,0,47,200
38.35490,-0.10185,-0.06353,0.00000,0.02745,0.97502,-0.19532,0.0,2023,6,7,12,0,47,210
38.35500,-0.08435,0.00647,0.00000,0.02855,0.97417,-0.19252,0.0,2023,6,7,12,0,47,220
38.35510,0.00315,-0.20353,0.00000,0.02952,0.97527,-0.19178,0.0,2023,6,7,12,0,47,230
38.35520,-0.03185,0.04147,0.00000,0.02696,0.97527,-0.19654,0.0,2023,6,7,12,0,47,240
38.35530,0.02065,-0.01103,0.00000,0.02879,0.97441,-0.19544,0.0,2023,6,7,12,0,47,250
38.35540,-0.11935,0.11147,0.00000,0.02879,0.97576,-0.19496,0.0,2023,6,7,12,0,47,260
38.35550,-0.08435,0.12897,0.00000,0.03087,0.97783,-0.19593,0.0,2023,6,7,12,0,47,270
38.35560,0.02065,-0.06353,0.00000,0.02708,0.97637,-0.19605,0.0,2023,6,7,12,0,47,280
38.35570,-0.13685,0.23397,0.00000,0.02989,0.97356,-0.19569,0.0,2023,6,7,12,0,47,290
38.35580,0.10815,-0.02853,0.00000,0.02879,0.97807,-0.19264,0.0,2023,6,7,12,0,47,300
38.35590,0.07315,0.02397,0.00000,0.02696,0.97576,-0.19593,0.0,2023,6,7,12,0,47,310
38.35600,0.02065,-0.02853,0.00000,0.02782,0.97502,-0.19532,0.0,2023,6,7,12,0,47,320
38.35610,0.09065,0.00647,0.00000,0.02867,0.97393,-0.19593,0.0,2023,6,7,12,0,47,330
38.35620,-0.04935,0.07647,0.00000,0.02843,0.97563,-0.19727,0.0,2023,6,7,12,0,47,340
38.35630,0.00315,0.09397,0.00000,0.02830,0.97527,-0.19666,0.0,2023,6,7,12,0,47,350
38.35640,-0.18935,0.00647,0.00000,0.02843,0.97502,-0.19276,0.0,2023,6,7,12,0,47,360
38.35650,-0.24185,-0.09853,0.00000,0.02794,0.97539,-0.19532,0.0,2023,6,7,12,0,47,370
38.35660,-0.04935,-0.06353,0.00000,0.02989,0.97417,-0.19508,0.0,2023,6,7,12,0,47,380
38.35670,-0.22435,0.02397,0.00000,0.03123,0.97893,-0.19520,0.0,2023,6,7,12,0,47,390
38.35680,0.21315,-0.11603,0.00000,0.02940,0.97832,-0.19666,0.0,2023,6,7,12,0,47,400
38.35690,-0.08435,0.07647,0.00000,0.02891,0.97685,-0.19776,0.0,2023,6,7,12,0,47,410
38.35700,-0.10185,0.18147,0.00000,0.02989,0.97698,-0.19618,0.0,2023,6,7,12,0,47,420
38.35710,-0.01435,0.00647,0.00000,0.02818,0.97307,-0.19386,0.0,2023,6,7,12,0,47,430
38.35720,0.03815,0.21647,0.00000,0.02782,0.97698,-0.19471,0.0,2023,6,7,12,0,47,440
38.35730,-0.18935,-0.08103,0.00000,0.02891,0.97551,-0.19459,0.0,2023,6,7,12,0,47,450
38.35740,-0.03185,-0.18603,0.00000,0.02708,0.97356,-0.19386,0.0,2023,6,7,12,0,47,460
38.35750,0.05565,-0.16853,0.00000,0.02977,0.97661,-0.19630,0.0,2023,6,7,12,0,47,470
38.35760,-0.03185,-0.06353,0.00000,0.02879,0.97490,-0.19532,0.0,2023,6,7,12,0,47,480
38.35770,0.10815,-0.11603,0.00000,0.02867,0.97515,-0.19471,0.0,2023,6,7,12,0,47,490
38.35780,0.02065,0.00647,0.00000,0.02928,0.97685,-0.19691,0.0,2023,6,7,12,0,47,500
38.35790,0.03815,0.09397,0.00000,0.02916,0.97673,-0.19715,0.0,2023,6,7,12,0,47,510
38.35800,0.05565,0.00647,0.00000,0.02904,0.97685,-0.19593,0.0,2023,6,7,12,0,47,520
38.35810,-0.04935,-0.01103,0.00000,0.02806,0.97539,-0.19666,0.0,2023,6,7,12,0,47,530
38.35820,0.02065,-0.13353,0.00000,0.03013,0.97356,-0.19654,0.0,2023,6,7,12,0,47,540
38.35830,0.09065,-0.11603,0.00000,0.02867,0.97368,-0.19642,0.0,2023,6,7,12,0,47,550
38.35840,-0.15435,0.05897,0.00000,0.02879,0.97600,-0.19447,0.0,2023,6,7,12,0,47,560
38.35850,-0.10185,0.07647,0.00000,0.02623,0.97539,-0.19581,0.0,2023,6,7,12,0,47,570
38.35860,-0.04935,0.09397,0.00000,0.02745,0.97637,-0.19532,0.0,2023,6,7,12,0,47,580
38.35870,0.02065,0.16397,0.00000,0.02794,0.97551,-0.19410,0.0,2023,6,7,12,0,47,590
38.35880,-0.11935,-0.09853,0.00000,0.02660,0.97551,-0.19532,0.0,2023,6,7,12,0,47,600
38.35890,0.02065,0.05897,0.00000,0.02965,0.97698,-0.19544,0.0,2023,6,7,12,0,47,610
38.35900,-0.01435,-0.08103,0.00000,0.02708,0.97551,-0.19666,0.0,2023,6,7,12,0,47,620
38.35910,-0.06685,-0.06353,0.00000,0.02635,0.97746,-0.19581,0.0,2023,6,7,12,0,47,630
38.35920,-0.15435,0.05897,0.00000,0.02708,0.97539,-0.19788,0.0,2023,6,7,12,0,47,640
38.35930,0.02065,0.09397,0.00000,0.03074,0.97539,-0.19764,0.0,2023,6,7,12,0,47,650
38.35940,-0.17185,-0.04603,0.00000,0.02794,0.97515,-0.19605,0.0,2023,6,7,12,0,47,660
38.35950,0.05565,-0.01103,0.00000,0.02940,0.97612,-0.19544,0.0,2023,6,7,12,0,47,670
38.35960,-0.06685,0.00647,0.00000,0.02806,0.97576,-0.19618,0.0,2023,6,7,12,0,47,680
38.35970,0.07315,0.09397,0.00000,0.02721,0.97637,-0.19788,0.0,2023,6,7,12,0,47,690
38.35980,-0.10185,-0.01103,0.00000,0.02782,0.97527,-0.19752,0.0,2023,6,7,12,0,47,700
38.35990,0.16065,0.14647,0.00000,0.02660,0.97551,-0.19447,0.0,2023,6,7,12,0,47,710
38.36000,0.07315,-0.15103,0.00000,0.02708,0.97515,-0.19386,0.0,2023,6,7,12,0,47,720
38.36010,-0.01435,0.19897,0.00000,0.02708,0.97466,-0.19398,0.0,2023,6,7,12,0,47,730
38.36020,-0.08435,0.05897,0.00000,0.02965,0.97478,-0.19459,0.0,2023,6,7,12,0,47,740
38.36030,0.02065,0.09397,0.00000,0.02916,0.97649,-0.19593,0.0,2023,6,7,12,0,47,750
38.36040,-0.10185,0.12897,0.00000,0.03013,0.97466,-0.19666,0.0,2023,6,7,12,0,47,760
38.36050,0.02065,0.07647,0.00000,0.02965,0.97527,-0.19386,0.0,2023,6,7,12,0,47,770
38.36060,-0.13685,0.21647,0.00000,0.02879,0.97466,-0.19581,0.0,2023,6,7,12,0,47,780
38.36070,-0.08435,0.12897,0.00000,0.02647,0.97649,-0.19386,0.0,2023,6,7,12,0,47,790
38.36080,-0.04935,-0.13353,0.00000,0.02891,0.97637,-0.19593,0.0,2023,6,7,12,0,47,800
38.36090,-0.18935,0.04147,0.00000,0.03013,0.97441,-0.19508,0.0,2023,6,7,12,0,47,810
38.36100,-0.01435,-0.27353,0.00000,0.03026,0.97746,-0.19361,0.0,2023,6,7,12,0,47,820
38.36110,0.05565,-0.15103,0.00000,0.02940,0.97515,-0.19715,0.0,2023,6,7,12,0,47,830
38.36120,-0.15435,0.00647,0.00000,0.02879,0.97576,-0.19459,0.0,2023,6,7,12,0,47,840
38.36130,-0.01435,0.00647,0.00000,0.02782,0.97380,-0.19740,0.0,2023,6,7,12,0,47,850
38.36140,-0.04935,0.00647,0.00000,0.02928,0.97527,-0.19435,0.0,2023,6,7,12,0,47,860
38.36150,0.12565,-0.04603,0.00000,0.02769,0.97588,-0.19398,0.0,2023,6,7,12,0,47,870
38.36160,0.26565,-0.08103,0.00000,0.02757,0.97783,-0.19471,0.0,2023,6,7,12,0,48,880
38.36170,0.17815,-0.02853,0.00000,0.02660,0.97539,-0.19605,0.0,2023,6,7,12,0,48,890
38.36180,-0.11935,0.16397,0.00000,0.02721,0.97734,-0.19386,0.0,2023,6,7,12,0,48,900
38.36190,-0.06685,0.12897,0.00000,0.03013,0.97551,-0.19386,0.0,2023,6,7,12,0,48,910
38.36200,-0.13685,-0.13353,0.00000,0.02891,0.97380,-0.19288,0.0,2023,6,7,12,0,48,920
38.36210,0.00315,0.05897,0.00000,0.02745,0.97637,-0.19264,0.0,2023,6,7,12,0,48,930
38.36220,-0.25935,-0.15103,0.00000,0.02989,0.97515,-0.19471,0.0,2023,6,7,12,0,48,940
38.36230,-0.06685,0.05897,0.00000,0.03013,0.97685,-0.19593,0.0,2023,6,7,12,0,48,950
38.36240,-0.03185,0.05897,0.00000,0.02672,0.97722,-0.19618,0.0,2023,6,7,12,0,48,960
38.36250,-0.06685,0.28647,0.00000,0.02696,0.97332,-0.19459,0.0,2023,6,7,12,0,48,970
38.36260,-0.25935,0.09397,0.00000,0.02928,0.97405,-0.19532,0.0,2023,6,7,12,0,48,980
38.36270,-0.03185,-0.06353,0.00000,0.02660,0.97515,-0.19837,0.0,2023,6,7,12,0,48,990
38.36280,-0.04935,0.02397,0.00000,0.02672,0.97454,-0.19605,0.0,2023,6,7,12,0,48,1000
38.36290,0.14315,-0.11603,0.00000,0.02733,0.97624,-0.19532,0.0,2023,6,7,12,0,48,10
38.36300,-0.04935,-0.04603,0.00000,0.02843,0.97661,-0.19569,0.0,2023,6,7,12,0,48,20
38.36310,-0.04935,-0.06353,0.00000,0.02940,0.97783,-0.19630,0.0,2023,6,7,12,0,48,30
38.36320,0.05565,-0.09853,0.00000,0.02928,0.97539,-0.19447,0.0,2023,6,7,12,0,48,40
38.36330,-0.06685,-0.08103,0.00000,0.02757,0.97612,-0.19459,0.0,2023,6,7,12,0,48,50
38.36340,-0.10185,-0.11603,0.00000,0.02586,0.97698,-0.19581,0.0,2023,6,7,12,0,48,60
38.36350,0.16065,-0.09853,0.00000,0.02830,0.97405,-0.19422,0.0,2023,6,7,12,0,48,70
38.36360,-0.10185,-0.16853,0.00000,0.02660,0.97466,-0.19422,0.0,2023,6,7,12,0,48,80
38.36370,0.09065,0.02397,0.00000,0.02916,0.97515,-0.19398,0.0,2023,6,7,12,0,48,90
38.36380,0.03815,0.11147,0.00000,0.02562,0.97661,-0.19593,0.0,2023,6,7,12,0,48,100
38.36390,-0.04935,-0.04603,0.00000,0.02769,0.97576,-0.19252,0.0,2023,6,7,12,0,48,110
38.36400,-0.24185,-0.01103,0.00000,0.02708,0.97624,-0.19459,0.0,2023,6,7,12,0,48,120
38.36410,0.14315,0.04147,0.00000,0.02782,0.97393,-0.19654,0.0,2023,6,7,12,0,48,130
38.36420,-0.20685,-0.13353,0.00000,0.03111,0.97515,-0.19361,0.0,2023,6,7,12,0,48,140
38.36430,-0.06685,-0.09853,0.00000,0.02818,0.97612,-0.19361,0.0,2023,6,7,12,0,48,150
38.36440,-0.13685,0.04147,0.00000,0.02757,0.97612,-0.19605,0.0,2023,6,7,12,0,48,160
38.36450,0.02065,-0.04603,0.00000,0.02843,0.97624,-0.19252,0.0,2023,6,7,12,0,48,170
38.36460,-0.01435,-0.09853,0.00000,0.02782,0.97246,-0.19215,0.0,2023,6,7,12,0,48,180
38.36470,0.05565,-0.13353,0.00000,0.02916,0.97490,-0.19593,0.0,2023,6,7,12,0,48,190
38.36480,0.12565,-0.04603,0.00000,0.02916,0.97844,-0.19618,0.0,2023,6,7,12,0,48,200
38.36490,0.02065,-0.11603,0.00000,0.02745,0.97637,-0.19630,0.0,2023,6,7,12,0,48,210
38.36500,-0.15435,-0.11603,0.00000,0.02769,0.97527,-0.19435,0.0,2023,6,7,12,0,48,220
38.36510,-0.01435,0.11147,0.00000,0.02904,0.97441,-0.19386,0.0,2023,6,7,12,0,48,230
38.36520,0.00315,0.16397,0.00000,0.02855,0.97527,-0.19593,0.0,2023,6,7,12,0,48,240
38.36530,-0.06685,-0.08103,0.00000,0.02708,0.97698,-0.19337,0.0,2023,6,7,12,0,48,250
38.36540,-0.18935,0.07647,0.00000,0.02904,0.97685,-0.19557,0.0,2023,6,7,12,0,48,260
38.36550,-0.03185,-0.22103,0.00000,0.02818,0.97466,-0.19361,0.0,2023,6,7,12,0,48,270
38.36560,0.09065,-0.29103,0.00000,0.02708,0.97722,-0.19508,0.0,2023,6,7,12,0,48,280
38.36570,0.10815,0.14647,0.00000,0.02794,0.97490,-0.19703,0.0,2023,6,7,12,0,48,290
38.36580,-0.22435,-0.01103,0.00000,0.02891,0.97563,-0.19483,0.0,2023,6,7,12,0,48,300
38.36590,0.17815,-0.13353,0.00000,0.02989,0.97551,-0.19422,0.0,2023,6,7,12,0,48,310
38.36600,0.05565,-0.02853,0.00000,0.02611,0.97661,-0.19471,0.0,2023,6,7,12,0,48,320
38.36610,-0.04935,0.00647,0.00000,0.02733,0.97515,-0.19398,0.0,2023,6,7,12,0,48,330
38.36620,-0.01435,-0.01103,0.00000,0.02733,0.97368,-0.19349,0.0,2023,6,7,12,0,48,340
38.36630,0.03815,-0.18603,0.00000,0.02794,0.97600,-0.19483,0.0,2023,6,7,12,0,48,350
38.36640,0.02065,-0.02853,0.00000,0.02855,0.97527,-0.19630,0.0,2023,6,7,12,0,48,360
38.36650,0.02065,-0.23853,0.00000,0.02562,0.97600,-0.19544,0.0,2023,6,7,12,0,48,370
38.36660,0.17815,0.09397,0.00000,0.02672,0.97600,-0.19605,0.0,2023,6,7,12,0,48,380
38.36670,-0.03185,-0.11603,0.00000,0.02757,0.97441,-0.19227,0.0,2023,6,7,12,0,48,390
38.36680,0.12565,-0.01103,0.00000,0.02855,0.97502,-0.19496,0.0,2023,6,7,12,0,48,400
38.36690,-0.08435,0.18147,0.00000,0.02843,0.97380,-0.19508,0.0,2023,6,7,12,0,48,410
38.36700,-0.13685,0.12897,0.00000,0.02818,0.97332,-0.19483,0.0,2023,6,7,12,0,48,420
38.36710,0.14315,-0.13353,0.00000,0.03062,0.97624,-0.19569,0.0,2023,6,7,12,0,48,430
38.36720,-0.11935,0.18147,0.00000,0.02952,0.97454,-0.19679,0.0,2023,6,7,12,0,48,440
38.36730,0.09065,-0.23853,0.00000,0.02794,0.97478,-0.19569,0.0,2023,6,7,12,0,48,450
38.36740,0.03815,-0.06353,0.00000,0.02745,0.97722,-0.19569,0.0,2023,6,7,12,0,48,460
38.36750,0.09065,-0.01103,0.00000,0.02928,0.97600,-0.19264,0.0,2023,6,7,12,0,48,470
38.36760,0.10815,-0.04603,0.00000,0.02952,0.97344,-0.19483,0.0,2023,6,7,12,0,48,480
38.36770,0.16065,-0.08103,0.00000,0.02684,0.97649,-0.19422,0.0,2023,6,7,12,0,48,490
38.36780,0.02065,-0.22103,0.00000,0.02757,0.97771,-0.19447,0.0,2023,6,7,12,0,48,500
38.36790,-0.31185,-0.04603,0.00000,0.02769,0.97429,-0.19300,0.0,2023,6,7,12,0,48,510
38.36800,-0.03185,-0.01103,0.00000,0.02855,0.97624,-0.19361,0.0,2023,6,7,12,0,48,520
38.36810,-0.04935,0.12897,0.00000,0.02769,0.97527,-0.19532,0.0,2023,6,7,12,0,48,530
38.36820,0.10815,-0.15103,0.00000,0.02891,0.97771,-0.19471,0.0,2023,6,7,12,0,48,540
38.36830,0.10815,0.12897,0.00000,0.02855,0.97588,-0.19300,0.0,2023,6,7,12,0,48,550
38.36840,0.17815,-0.13353,0.00000,0.02952,0.97454,-0.19422,0.0,2023,6,7,12,0,48,560
38.36850,0.00315,-0.02853,0.00000,0.02952,0.97539,-0.19337,0.0,2023,6,7,12,0,48,570
38.36860,-0.08435,0.12897,0.00000,0.02952,0.97612,-0.19593,0.0,2023,6,7,12,0,48,580
38.36870,0.05565,-0.09853,0.00000,0.02696,0.97539,-0.19581,0.0,2023,6,7,12,0,48,590
38.36880,-0.04935,0.00647,0.00000,0.02952,0.97405,-0.19544,0.0,2023,6,7,12,0,48,600
38.36890,-0.04935,0.02397,0.00000,0.02904,0.97673,-0.19459,0.0,2023,6,7,12,0,48,610
38.36900,0.03815,-0.15103,0.00000,0.02672,0.97283,-0.19666,0.0,2023,6,7,12,0,48,620
38.36910,-0.04935,0.09397,0.00000,0.02867,0.97710,-0.19544,0.0,2023,6,7,12,0,48,630
38.36920,-0.15435,0.05897,0.00000,0.02855,0.97527,-0.19410,0.0,2023,6,7,12,0,48,640
38.36930,0.03815,-0.13353,0.00000,0.03123,0.97893,-0.19557,0.0,2023,6,7,12,0,48,650
38.36940,-0.13685,0.09397,0.00000,0.02855,0.97795,-0.19569,0.0,2023,6,7,12,0,48,660
38.36950,0.07315,-0.04603,0.00000,0.02794,0.97454,-0.19727,0.0,2023,6,7,12,0,48,670
38.36960,-0.08435,0.09397,0.00000,0.02708,0.97698,-0.19422,0.0,2023,6,7,12,0,48,680
38.36970,-0.06685,0.11147,0.00000,0.02855,0.97515,-0.19581,0.0,2023,6,7,12,0,48,690
38.36980,-0.01435,-0.06353,0.00000,0.02745,0.97600,-0.19325,0.0,2023,6,7,12,0,48,700
38.36990,-0.10185,-0.13353,0.00000,0.02989,0.97734,-0.19630,0.0,2023,6,7,12,0,48,710
38.37000,0.09065,-0.13353,0.00000,0.03026,0.97490,-0.19557,0.0,2023,6,7,12,0,48,720
38.37010,0.09065,-0.06353,0.00000,0.02830,0.97881,-0.19532,0.0,2023,6,7,12,0,48,730
38.37020,-0.01435,-0.04603,0.00000,0.02977,0.97588,-0.19422,0.0,2023,6,7,12,0,48,740
38.37030,-0.04935,-0.04603,0.00000,0.02867,0.97563,-0.19727,0.0,2023,6,7,12,0,48,750
38.37040,-0.13685,0.02397,0.00000,0.02867,0.97527,-0.19666,0.0,2023,6,7,12,0,48,760
38.37050,0.03815,-0.13353,0.00000,0.03026,0.97759,-0.19349,0.0,2023,6,7,12,0,48,770
38.37060,-0.08435,0.09397,0.00000,0.02977,0.97490,-0.19593,0.0,2023,6,7,12,0,48,780
38.37070,-0.10185,0.07647,0.00000,0.02916,0.97319,-0.19435,0.0,2023,6,7,12,0,48,790
38.37080,-0.08435,0.12897,0.00000,0.02672,0.97539,-0.19459,0.0,2023,6,7,12,0,48,800
38.37090,0.03815,-0.18603,0.00000,0.02855,0.97612,-0.19691,0.0,2023,6,7,12,0,48,810
38.37100,-0.01435,0.12897,0.00000,0.02635,0.97551,-0.19386,0.0,2023,6,7,12,0,48,820
38.37110,-0.01435,-0.09853,0.00000,0.02916,0.97502,-0.19435,0.0,2023,6,7,12,0,48,830
38.37120,-0.13685,-0.06353,0.00000,0.02672,0.97563,-0.19666,0.0,2023,6,7,12,0,48,840
38.37130,0.00315,-0.06353,0.00000,0.02855,0.97551,-0.19532,0.0,2023,6,7,12,0,48,850
38.37140,0.05565,0.02397,0.00000,0.03026,0.97612,-0.19581,0.0,2023,6,7,12,0,48,860
38.37150,0.00315,0.05897,0.00000,0.02855,0.97722,-0.19618,0.0,2023,6,7,12,0,48,870
38.37160,-0.03185,0.14647,0.00000,0.02721,0.97502,-0.19496,0.0,2023,6,7,12,0,48,880
38.37170,0.09065,-0.02853,0.00000,0.02501,0.97527,-0.19349,0.0,2023,6,7,12,0,48,890
38.37180,0.12565,-0.02853,0.00000,0.02647,0.97429,-0.19435,0.0,2023,6,7,12,0,48,900
38.37190,0.07315,-0.09853,0.00000,0.02916,0.97600,-0.19557,0.0,2023,6,7,12,0,48,910
38.37200,0.16065,-0.11603,0.00000,0.03062,0.97441,-0.19483,0.0,2023,6,7,12,0,48,920
38.37210,0.05565,-0.02853,0.00000,0.02916,0.97393,-0.19374,0.0,2023,6,7,12,0,48,930
38.37220,0.07315,0.02397,0.00000,0.02733,0.97502,-0.19593,0.0,2023,6,7,12,0,48,940
38.37230,-0.08435,-0.09853,0.00000,0.02818,0.97515,-0.19593,0.0,2023,6,7,12,0,48,950
38.37240,-0.03185,-0.09853,0.00000,0.02769,0.97710,-0.19459,0.0,2023,6,7,12,0,48,960
38.37250,-0.10185,-0.01103,0.00000,0.02794,0.97685,-0.19422,0.0,2023,6,7,12,0,48,970
38.37260,0.02065,-0.01103,0.00000,0.02806,0.97368,-0.19496,0.0,2023,6,7,12,0,48,980
38.37270,0.09065,0.00647,0.00000,0.02940,0.97502,-0.19386,0.0,2023,6,7,12,0,48,990
38.37280,-0.03185,0.04147,0.00000,0.02843,0.97539,-0.19679,0.0,2023,6,7,12,0,48,1000
38.37290,0.21315,0.02397,0.00000,0.02940,0.97368,-0.19593,0.0,2023,6,7,12,0,48,10
38.37300,-0.03185,-0.06353,0.00000,0.02965,0.97637,-0.19508,0.0,2023,6,7,12,0,48,20
38.37310,-0.13685,0.07647,0.00000,0.02952,0.97527,-0.19544,0.0,2023,6,7,12,0,48,30
38.37320,0.00315,0.02397,0.00000,0.02940,0.97710,-0.19337,0.0,2023,6,7,12,0,48,40
38.37330,-0.08435,0.00647,0.00000,0.02684,0.97624,-0.19398,0.0,2023,6,7,12,0,48,50
38.37340,-0.20685,-0.08103,0.00000,0.02538,0.97600,-0.19496,0.0,2023,6,7,12,0,48,60
38.37350,0.02065,0.00647,0.00000,0.02891,0.97759,-0.19459,0.0,2023,6,7,12,0,48,70
38.37360,-0.01435,-0.11603,0.00000,0.02806,0.97368,-0.19483,0.0,2023,6,7,12,0,48,80
38.37370,0.12565,-0.09853,0.00000,0.02940,0.97710,-0.19618,0.0,2023,6,7,12,0,48,90
38.37380,-0.20685,0.12897,0.00000,0.03062,0.97698,-0.19447,0.0,2023,6,7,12,0,48,100
38.37390,-0.10185,0.05897,0.00000,0.02940,0.97551,-0.19300,0.0,2023,6,7,12,0,48,110
38.37400,0.05565,-0.13353,0.00000,0.02916,0.97588,-0.19410,0.0,2023,6,7,12,0,48,120
38.37410,-0.10185,-0.04603,0.00000,0.02745,0.97515,-0.19386,0.0,2023,6,7,12,0,48,130
38.37420,-0.01435,-0.09853,0.00000,0.02513,0.97502,-0.19557,0.0,2023,6,7,12,0,48,140
38.37430,-0.13685,0.07647,0.00000,0.02855,0.97429,-0.19508,0.0,2023,6,7,12,0,48,150
38.37440,-0.10185,-0.08103,0.00000,0.02696,0.97600,-0.19398,0.0,2023,6,7,12,0,48,160
38.37450,0.09065,-0.09853,0.00000,0.02940,0.97612,-0.19374,0.0,2023,6,7,12,0,48,170
38.37460,-0.03185,0.02397,0.00000,0.02830,0.97722,-0.19496,0.0,2023,6,7,12,0,48,180
38.37470,-0.01435,0.04147,0.00000,0.02574,0.97661,-0.19471,0.0,2023,6,7,12,0,48,190
38.37480,-0.08435,-0.04603,0.00000,0.02879,0.97624,-0.19300,0.0,2023,6,7,12,0,48,200
38.37490,-0.11935,-0.16853,0.00000,0.02891,0.97441,-0.19313,0.0,2023,6,7,12,0,48,210
38.37500,0.09065,0.04147,0.00000,0.02745,0.97698,-0.19435,0.0,2023,6,7,12,0,48,220
38.37510,0.16065,0.07647,0.00000,0.02891,0.97685,-0.19252,0.0,2023,6,7,12,0,48,230
38.37520,-0.01435,-0.18603,0.00000,0.03013,0.97368,-0.19349,0.0,2023,6,7,12,0,48,240
38.37530,0.14315,-0.13353,0.00000,0.02806,0.97490,-0.19435,0.0,2023,6,7,12,0,48,250
38.37540,0.10815,0.21647,0.00000,0.02806,0.97820,-0.19593,0.0,2023,6,7,12,0,48,260
38.37550,0.05565,-0.09853,0.00000,0.02806,0.97319,-0.19313,0.0,2023,6,7,12,0,48,270
38.37560,-0.20685,0.02397,0.00000,0.02830,0.97515,-0.19532,0.0,2023,6,7,12,0,48,280
38.37570,-0.01435,-0.15103,0.00000,0.02867,0.97490,-0.19715,0.0,2023,6,7,12,0,48,290
38.37580,-0.08435,-0.04603,0.00000,0.02904,0.97515,-0.19508,0.0,2023,6,7,12,0,48,300
38.37590,-0.04935,0.05897,0.00000,0.02928,0.97441,-0.19508,0.0,2023,6,7,12,0,48,310
38.37600,0.10815,-0.11603,0.00000,0.02977,0.97271,-0.19435,0.0,2023,6,7,12,0,48,320
38.37610,0.00315,0.05897,0.00000,0.02952,0.97393,-0.19361,0.0,2023,6,7,12,0,48,330
38.37620,0.10815,0.05897,0.00000,0.02928,0.97441,-0.19727,0.0,2023,6,7,12,0,48,340
38.37630,0.12565,0.04147,0.00000,0.02904,0.97502,-0.19325,0.0,2023,6,7,12,0,48,350
38.37640,0.10815,-0.04603,0.00000,0.02855,0.97515,-0.19605,0.0,2023,6,7,12,0,48,360
38.37650,-0.01435,0.14647,0.00000,0.02830,0.97527,-0.19520,0.0,2023,6,7,12,0,48,370
38.37660,-0.06685,0.09397,0.00000,0.02782,0.97515,-0.19410,0.0,2023,6,7,12,0,48,380
38.37670,-0.01435,-0.08103,0.00000,0.02891,0.97429,-0.19703,0.0,2023,6,7,12,0,48,390
38.37680,0.05565,-0.01103,0.00000,0.03013,0.97393,-0.19483,0.0,2023,6,7,12,0,48,400
38.37690,-0.08435,-0.16853,0.00000,0.02965,0.97478,-0.19361,0.0,2023,6,7,12,0,48,410
38.37700,0.02065,-0.06353,0.00000,0.02757,0.97624,-0.19313,0.0,2023,6,7,12,0,48,420
38.37710,0.07315,0.02397,0.00000,0.02818,0.97380,-0.19435,0.0,2023,6,7,12,0,48,430
38.37720,0.17815,-0.04603,0.00000,0.02916,0.97698,-0.19337,0.0,2023,6,7,12,0,48,440
38.37730,-0.04935,-0.13353,0.00000,0.02757,0.97551,-0.19349,0.0,2023,6,7,12,0,48,450
38.37740,0.03815,-0.18603,0.00000,0.02782,0.97454,-0.19679,0.0,2023,6,7,12,0,48,460
38.37750,-0.06685,0.14647,0.00000,0.02696,0.97441,-0.19593,0.0,2023,6,7,12,0,48,470
38.37760,-0.01435,-0.04603,0.00000,0.02965,0.97783,-0.19544,0.0,2023,6,7,12,0,48,480
38.37770,-0.15435,0.07647,0.00000,0.02818,0.97441,-0.19544,0.0,2023,6,7,12,0,48,490
38.37780,-0.04935,-0.06353,0.00000,0.02855,0.97441,-0.19569,0.0,2023,6,7,12,0,48,500
38.37790,-0.10185,-0.06353,0.00000,0.02843,0.97490,-0.19374,0.0,2023,6,7,12,0,48,510
38.37800,0.19565,-0.22103,0.00000,0.02782,0.97612,-0.19386,0.0,2023,6,7,12,0,48,520
38.37810,0.00315,-0.11603,0.00000,0.02843,0.97417,-0.19496,0.0,2023,6,7,12,0,48,530
38.37820,-0.13685,0.11147,0.00000,0.02769,0.97673,-0.19483,0.0,2023,6,7,12,0,48,540
38.37830,0.12565,-0.22103,0.00000,0.02684,0.97600,-0.19569,0.0,2023,6,7,12,0,48,550
38.37840,-0.22435,0.14647,0.00000,0.02830,0.97283,-0.19605,0.0,2023,6,7,12,0,48,560
38.37850,0.00315,0.02397,0.00000,0.02977,0.97417,-0.19666,0.0,2023,6,7,12,0,48,570
38.37860,0.14315,0.09397,0.00000,0.03013,0.97380,-0.19447,0.0,2023,6,7,12,0,48,580
38.37870,-0.03185,0.05897,0.00000,0.03050,0.97246,-0.19483,0.0,2023,6,7,12,0,48,590
38.37880,0.12565,-0.02853,0.00000,0.02830,0.97307,-0.19337,0.0,2023,6,7,12,0,48,600
38.37890,-0.06685,-0.20353,0.00000,0.02879,0.97649,-0.19520,0.0,2023,6,7,12,0,48,610
38.37900,0.05565,-0.06353,0.00000,0.03013,0.97539,-0.19520,0.0,2023,6,7,12,0,48,620
38.37910,0.05565,0.14647,0.00000,0.02891,0.97661,-0.19471,0.0,2023,6,7,12,0,48,630
38.37920,0.16065,-0.25603,0.00000,0.02952,0.97807,-0.19361,0.0,2023,6,7,12,0,48,640
38.37930,-0.17185,0.07647,0.00000,0.02769,0.97649,-0.19435,0.0,2023,6,7,12,0,48,650
38.37940,-0.11935,0.02397,0.00000,0.02769,0.97417,-0.19630,0.0,2023,6,7,12,0,48,660
38.37950,0.02065,-0.01103,0.00000,0.02830,0.97661,-0.19386,0.0,2023,6,7,12,0,48,670
38.37960,-0.03185,0.02397,0.00000,0.02782,0.97563,-0.19630,0.0,2023,6,7,12,0,48,680
38.37970,-0.11935,0.05897,0.00000,0.02550,0.97502,-0.19435,0.0,2023,6,7,12,0,48,690
38.37980,-0.08435,-0.04603,0.00000,0.02977,0.97539,-0.19300,0.0,2023,6,7,12,0,48,700
38.37990,0.03815,-0.09853,0.00000,0.02891,0.97600,-0.19422,0.0,2023,6,7,12,0,48,710
38.38000,-0.08435,0.05897,0.00000,0.03038,0.97905,-0.19447,0.0,2023,6,7,12,0,48,720
38.38010,-0.10185,0.05897,0.00000,0.02843,0.97624,-0.19374,0.0,2023,6,7,12,0,48,730
38.38020,0.00315,0.11147,0.00000,0.02940,0.97356,-0.19483,0.0,2023,6,7,12,0,48,740
38.38030,0.10815,0.21647,0.00000,0.02830,0.97441,-0.19483,0.0,2023,6,7,12,0,48,750
38.38040,-0.11935,0.11147,0.00000,0.02623,0.97661,-0.19349,0.0,2023,6,7,12,0,48,760
38.38050,-0.10185,0.25147,0.00000,0.02721,0.97515,-0.19435,0.0,2023,6,7,12,0,48,770
38.38060,0.30065,-0.16853,0.00000,0.02794,0.97527,-0.19227,0.0,2023,6,7,12,0,48,780
38.38070,-0.01435,-0.06353,0.00000,0.02806,0.97441,-0.19227,0.0,2023,6,7,12,0,48,790
38.38080,0.21315,-0.09853,0.00000,0.02891,0.97637,-0.19398,0.0,2023,6,7,12,0,48,800
38.38090,0.09065,-0.15103,0.00000,0.02891,0.97527,-0.19654,0.0,2023,6,7,12,0,48,810
38.38100,-0.03185,-0.01103,0.00000,0.03038,0.97563,-0.19374,0.0,2023,6,7,12,0,48,820
38.38110,-0.04935,-0.06353,0.00000,0.02952,0.97771,-0.19349,0.0,2023,6,7,12,0,48,830
38.38120,0.03815,0.12897,0.00000,0.02867,0.97283,-0.19459,0.0,2023,6,7,12,0,48,840
38.38130,0.03815,-0.02853,0.00000,0.02806,0.97588,-0.19532,0.0,2023,6,7,12,0,48,850
38.38140,0.09065,-0.02853,0.00000,0.02965,0.97405,-0.19679,0.0,2023,6,7,12,0,48,860
38.38150,0.03815,0.05897,0.00000,0.02891,0.97624,-0.19471,0.0,2023,6,7,12,0,48,870
38.38160,0.02065,-0.04603,0.00000,0.02855,0.97685,-0.19593,0.0,2023,6,7,12,0,48,880
38.38170,-0.06685,0.16397,0.00000,0.02952,0.97344,-0.19703,0.0,2023,6,7,12,0,48,890
38.38180,0.17815,0.04147,0.00000,0.03087,0.97673,-0.19569,0.0,2023,6,7,12,0,48,900
38.38190,0.09065,-0.18603,0.00000,0.02989,0.97637,-0.19532,0.0,2023,6,7,12,0,48,910
38.38200,-0.11935,0.07647,0.00000,0.02879,0.97344,-0.19496,0.0,2023,6,7,12,0,48,920
38.38210,-0.15435,0.14647,0.00000,0.02879,0.97576,-0.19483,0.0,2023,6,7,12,0,48,930
38.38220,-0.29435,0.00647,0.00000,0.02708,0.97417,-0.19471,0.0,2023,6,7,12,0,48,940
38.38230,0.00315,0.09397,0.00000,0.03038,0.97685,-0.19581,0.0,2023,6,7,12,0,48,950
38.38240,-0.11935,-0.01103,0.00000,0.02660,0.97515,-0.19691,0.0,2023,6,7,12,0,48,960
38.38250,0.23065,0.00647,0.00000,0.02867,0.97576,-0.19483,0.0,2023,6,7,12,0,48,970
38.38260,-0.08435,-0.04603,0.00000,0.02952,0.97661,-0.19691,0.0,2023,6,7,12,0,48,980
38.38270,0.00315,-0.02853,0.00000,0.02855,0.97197,-0.19557,0.0,2023,6,7,12,0,48,990
38.38280,0.00315,0.04147,0.00000,0.02782,0.97710,-0.19361,0.0,2023,6,7,12,0,48,1000
38.38290,0.02065,-0.13353,0.00000,0.02745,0.97783,-0.19459,0.0,2023,6,7,12,0,48,10
38.38300,0.05565,-0.09853,0.00000,0.02806,0.97478,-0.19447,0.0,2023,6,7,12,0,48,20
38.38310,0.14315,-0.13353,0.00000,0.02952,0.97515,-0.19727,0.0,2023,6,7,12,0,48,30
38.38320,-0.04935,-0.04603,0.00000,0.02916,0.98003,-0.19788,0.0,2023,6,7,12,0,48,40
38.38330,-0.10185,-0.02853,0.00000,0.02696,0.97319,-0.19520,0.0,2023,6,7,12,0,48,50
38.38340,0.03815,-0.25603,0.00000,0.02891,0.97588,-0.19337,0.0,2023,6,7,12,0,48,60
38.38350,0.03815,0.07647,0.00000,0.02867,0.97685,-0.19483,0.0,2023,6,7,12,0,48,70
38.38360,-0.03185,0.04147,0.00000,0.02904,0.97210,-0.19630,0.0,2023,6,7,12,0,48,80
38.38370,0.00315,0.07647,0.00000,0.02635,0.97588,-0.19252,0.0,2023,6,7,12,0,48,90
38.38380,-0.01435,0.12897,0.00000,0.02952,0.97551,-0.19313,0.0,2023,6,7,12,0,48,100
38.38390,0.07315,0.02397,0.00000,0.02928,0.97637,-0.19605,0.0,2023,6,7,12,0,48,110
38.38400,-0.13685,-0.01103,0.00000,0.02782,0.97344,-0.19300,0.0,2023,6,7,12,0,48,120
38.38410,0.10815,0.16397,0.00000,0.02647,0.97783,-0.19508,0.0,2023,6,7,12,0,48,130
38.38420,0.05565,-0.13353,0.00000,0.02952,0.97527,-0.19361,0.0,2023,6,7,12,0,48,140
38.38430,0.00315,-0.30853,0.00000,0.02708,0.97466,-0.19581,0.0,2023,6,7,12,0,48,150
38.38440,0.12565,0.21647,0.00000,0.02855,0.97844,-0.19252,0.0,2023,6,7,12,0,48,160
38.38450,0.09065,-0.15103,0.00000,0.02782,0.97710,-0.19532,0.0,2023,6,7,12,0,48,170
38.38460,0.05565,-0.01103,0.00000,0.02818,0.97368,-0.19630,0.0,2023,6,7,12,0,48,180
38.38470,0.12565,0.00647,0.00000,0.02989,0.97832,-0.19740,0.0,2023,6,7,12,0,48,190
38.38480,-0.04935,0.05897,0.00000,0.02721,0.97490,-0.19557,0.0,2023,6,7,12,0,48,200
38.38490,0.05565,-0.18603,0.00000,0.02635,0.97429,-0.19618,0.0,2023,6,7,12,0,48,210
38.38500,0.14315,-0.11603,0.00000,0.02891,0.97368,-0.19715,0.0,2023,6,7,12,0,48,220
38.38510,0.19565,0.00647,0.00000,0.02806,0.97380,-0.19581,0.0,2023,6,7,12,0,48,230
38.38520,-0.03185,0.11147,0.00000,0.02867,0.97600,-0.19532,0.0,2023,6,7,12,0,48,240
38.38530,0.00315,-0.01103,0.00000,0.02818,0.97649,-0.19557,0.0,2023,6,7,12,0,48,250
38.38540,0.00315,-0.08103,0.00000,0.02745,0.97441,-0.19532,0.0,2023,6,7,12,0,48,260
38.38550,-0.03185,-0.02853,0.00000,0.02891,0.97478,-0.19422,0.0,2023,6,7,12,0,48,270
38.38560,0.05565,-0.02853,0.00000,0.02843,0.97588,-0.19605,0.0,2023,6,7,12,0,48,280
38.38570,0.05565,0.05897,0.00000,0.02733,0.97380,-0.19520,0.0,2023,6,7,12,0,48,290
38.38580,0.00315,-0.08103,0.00000,0.02879,0.97563,-0.19679,0.0,2023,6,7,12,0,48,300
38.38590,-0.11935,-0.04603,0.00000,0.02904,0.97563,-0.19691,0.0,2023,6,7,12,0,48,310
38.38600,-0.01435,-0.02853,0.00000,0.02891,0.97441,-0.19776,0.0,2023,6,7,12,0,48,320
38.38610,-0.04935,0.11147,0.00000,0.03087,0.97344,-0.19654,0.0,2023,6,7,12,0,48,330
38.38620,-0.15435,0.35647,0.00000,0.03074,0.97722,-0.19605,0.0,2023,6,7,12,0,48,340
38.38630,-0.04935,0.11147,0.00000,0.02733,0.97539,-0.19325,0.0,2023,6,7,12,0,48,350
38.38640,-0.13685,-0.09853,0.00000,0.02574,0.97368,-0.19508,0.0,2023,6,7,12,0,48,360
38.38650,-0.08435,0.05897,0.00000,0.02806,0.97649,-0.19593,0.0,2023,6,7,12,0,48,370
38.38660,0.16065,-0.06353,0.00000,0.02843,0.97502,-0.19605,0.0,2023,6,7,12,0,48,380
38.38670,-0.01435,0.18147,0.00000,0.02867,0.97759,-0.19471,0.0,2023,6,7,12,0,48,390
38.38680,0.03815,0.09397,0.00000,0.02879,0.97624,-0.19569,0.0,2023,6,7,12,0,48,400
38.38690,0.05565,0.12897,0.00000,0.02904,0.97685,-0.19410,0.0,2023,6,7,12,0,48,410
38.38700,0.17815,0.07647,0.00000,0.02977,0.97502,-0.19679,0.0,2023,6,7,12,0,48,420
38.38710,-0.20685,0.09397,0.00000,0.03026,0.97185,-0.19679,0.0,2023,6,7,12,0,48,430
38.38720,0.00315,-0.16853,0.00000,0.02855,0.97368,-0.19361,0.0,2023,6,7,12,0,48,440
38.38730,0.12565,-0.13353,0.00000,0.02623,0.97795,-0.19581,0.0,2023,6,7,12,0,48,450
38.38740,-0.04935,0.00647,0.00000,0.02818,0.97454,-0.19386,0.0,2023,6,7,12,0,48,460
38.38750,0.00315,0.04147,0.00000,0.02855,0.97466,-0.19325,0.0,2023,6,7,12,0,48,470
38.38760,-0.01435,-0.25603,0.00000,0.02818,0.97539,-0.19618,0.0,2023,6,7,12,0,48,480
38.38770,-0.11935,-0.06353,0.00000,0.02538,0.97722,-0.19605,0.0,2023,6,7,12,0,48,490
38.38780,-0.13685,0.05897,0.00000,0.02965,0.97722,-0.19447,0.0,2023,6,7,12,0,48,500
38.38790,0.03815,-0.08103,0.00000,0.02989,0.97576,-0.19483,0.0,2023,6,7,12,0,48,510
38.38800,0.09065,-0.09853,0.00000,0.02867,0.97490,-0.19569,0.0,2023,6,7,12,0,48,520
38.38810,-0.18935,0.04147,0.00000,0.02635,0.97502,-0.19581,0.0,2023,6,7,12,0,48,530
38.38820,-0.01435,0.05897,0.00000,0.02879,0.97563,-0.19471,0.0,2023,6,7,12,0,48,540
38.38830,0.02065,0.02397,0.00000,0.02586,0.97795,-0.19483,0.0,2023,6,7,12,0,48,550
38.38840,0.09065,-0.02853,0.00000,0.02818,0.97722,-0.19837,0.0,2023,6,7,12,0,48,560
38.38850,0.10815,-0.11603,0.00000,0.02830,0.97722,-0.19605,0.0,2023,6,7,12,0,48,570
38.38860,0.09065,-0.18603,0.00000,0.02916,0.97576,-0.19618,0.0,2023,6,7,12,0,48,580
38.38870,0.17815,0.02397,0.00000,0.02733,0.97515,-0.19715,0.0,2023,6,7,12,0,48,590
38.38880,-0.36435,-0.06353,0.00000,0.02574,0.97332,-0.19886,0.0,2023,6,7,12,0,48,600
38.38890,0.09065,-0.22103,0.00000,0.02879,0.97490,-0.19825,0.0,2023,6,7,12,0,48,610
38.38900,0.00315,0.04147,0.00000,0.02843,0.97466,-0.19752,0.0,2023,6,7,12,0,48,620
38.38910,-0.01435,0.11147,0.00000,0.02782,0.97698,-0.19447,0.0,2023,6,7,12,0,48,630
38.38920,0.05565,-0.11603,0.00000,0.02989,0.97344,-0.19520,0.0,2023,6,7,12,0,48,640
38.38930,0.00315,-0.23853,0.00000,0.02855,0.97515,-0.19727,0.0,2023,6,7,12,0,48,650
38.38940,0.05565,-0.18603,0.00000,0.02745,0.97685,-0.19727,0.0,2023,6,7,12,0,48,660
38.38950,-0.03185,0.11147,0.00000,0.02721,0.97563,-0.19569,0.0,2023,6,7,12,0,48,670
38.38960,0.12565,-0.23853,0.00000,0.02769,0.97393,-0.19788,0.0,2023,6,7,12,0,48,680
38.38970,-0.04935,-0.01103,0.00000,0.02891,0.97673,-0.19801,0.0,2023,6,7,12,0,48,690
38.38980,0.09065,-0.15103,0.00000,0.02891,0.97502,-0.19630,0.0,2023,6,7,12,0,48,700
38.38990,-0.08435,0.00647,0.00000,0.02867,0.97563,-0.19862,0.0,2023,6,7,12,0,48,710
38.39000,-0.17185,0.11147,0.00000,0.02782,0.97673,-0.19398,0.0,2023,6,7,12,0,48,720
38.39010,-0.03185,-0.15103,0.00000,0.03111,0.97600,-0.19471,0.0,2023,6,7,12,0,48,730
38.39020,-0.06685,0.00647,0.00000,0.02721,0.97637,-0.19788,0.0,2023,6,7,12,0,48,740
38.39030,-0.01435,0.19897,0.00000,0.02684,0.97661,-0.19642,0.0,2023,6,7,12,0,48,750
38.39040,0.10815,-0.01103,0.00000,0.02806,0.97441,-0.19593,0.0,2023,6,7,12,0,48,760
38.39050,-0.04935,0.02397,0.00000,0.02843,0.97588,-0.19593,0.0,2023,6,7,12,0,48,770
38.39060,-0.11935,-0.08103,0.00000,0.02879,0.97527,-0.19813,0.0,2023,6,7,12,0,48,780
38.39070,-0.25935,-0.02853,0.00000,0.02794,0.97380,-0.19520,0.0,2023,6,7,12,0,48,790
38.39080,-0.08435,-0.20353,0.00000,0.02757,0.97612,-0.19447,0.0,2023,6,7,12,0,48,800
38.39090,0.10815,-0.08103,0.00000,0.02769,0.97637,-0.19630,0.0,2023,6,7,12,0,48,810
38.39100,0.00315,-0.06353,0.00000,0.02745,0.97441,-0.19398,0.0,2023,6,7,12,0,48,820
38.39110,0.14315,-0.08103,0.00000,0.02806,0.97515,-0.19788,0.0,2023,6,7,12,0,48,830
38.39120,0.10815,-0.01103,0.00000,0.02879,0.97502,-0.19703,0.0,2023,6,7,12,0,48,840
38.39130,0.09065,-0.04603,0.00000,0.02904,0.97380,-0.19752,0.0,2023,6,7,12,0,48,850
38.39140,-0.15435,-0.01103,0.00000,0.02952,0.97405,-0.19740,0.0,2023,6,7,12,0,48,860
38.39150,-0.03185,-0.13353,0.00000,0.02672,0.97759,-0.19471,0.0,2023,6,7,12,0,48,870
38.39160,-0.10185,0.09397,0.00000,0.02977,0.97490,-0.19788,0.0,2023,6,7,12,0,48,880
38.39170,0.17815,-0.09853,0.00000,0.02794,0.97551,-0.19496,0.0,2023,6,7,12,0,48,890
38.39180,-0.08435,-0.11603,0.00000,0.02721,0.97539,-0.19654,0.0,2023,6,7,12,0,48,900
38.39190,0.21315,0.04147,0.00000,0.02855,0.97502,-0.19740,0.0,2023,6,7,12,0,48,910
38.39200,-0.01435,0.11147,0.00000,0.02867,0.97551,-0.19740,0.0,2023,6,7,12,0,48,920
38.39210,-0.08435,-0.04603,0.00000,0.02830,0.97490,-0.19544,0.0,2023,6,7,12,0,48,930
38.39220,-0.03185,-0.01103,0.00000,0.02782,0.97576,-0.19532,0.0,2023,6,7,12,0,48,940
38.39230,0.09065,-0.11603,0.00000,0.02721,0.97832,-0.19557,0.0,2023,6,7,12,0,48,950
38.39240,-0.13685,0.25147,0.00000,0.02855,0.97685,-0.19727,0.0,2023,6,7,12,0,48,960
38.39250,-0.04935,0.02397,0.00000,0.02855,0.97600,-0.19508,0.0,2023,6,7,12,0,48,970
38.39260,-0.18935,0.07647,0.00000,0.02696,0.97563,-0.19788,0.0,2023,6,7,12,0,48,980
38.39270,-0.04935,0.04147,0.00000,0.02794,0.97551,-0.19508,0.0,2023,6,7,12,0,48,990
38.39280,-0.17185,0.18147,0.00000,0.02977,0.97490,-0.19825,0.0,2023,6,7,12,0,48,1000
38.39290,-0.04935,-0.16853,0.00000,0.02904,0.97637,-0.19788,0.0,2023,6,7,12,0,48,10
38.39300,-0.01435,0.02397,0.00000,0.02830,0.97612,-0.19642,0.0,2023,6,7,12,0,48,20
38.39310,-0.10185,-0.15103,0.00000,0.02830,0.97710,-0.19679,0.0,2023,6,7,12,0,48,30
38.39320,0.07315,-0.13353,0.00000,0.02708,0.97820,-0.19618,0.0,2023,6,7,12,0,48,40
38.39330,-0.01435,0.12897,0.00000,0.02660,0.97612,-0.19727,0.0,2023,6,7,12,0,48,50
38.39340,0.03815,-0.20353,0.00000,0.02782,0.97807,-0.19386,0.0,2023,6,7,12,0,48,60
38.39350,-0.01435,-0.08103,0.00000,0.02928,0.97429,-0.19691,0.0,2023,6,7,12,0,48,70
38.39360,-0.06685,-0.02853,0.00000,0.02708,0.97649,-0.19557,0.0,2023,6,7,12,0,48,80
38.39370,-0.13685,-0.09853,0.00000,0.02806,0.97380,-0.19544,0.0,2023,6,7,12,0,48,90
38.39380,0.05565,-0.02853,0.00000,0.03013,0.97576,-0.19776,0.0,2023,6,7,12,0,48,100
38.39390,-0.01435,-0.08103,0.00000,0.02940,0.97563,-0.19276,0.0,2023,6,7,12,0,48,110
38.39400,0.12565,0.02397,0.00000,0.02769,0.97649,-0.19679,0.0,2023,6,7,12,0,48,120
38.39410,0.17815,-0.01103,0.00000,0.02843,0.97746,-0.19532,0.0,2023,6,7,12,0,48,130
38.39420,-0.11935,-0.04603,0.00000,0.02916,0.97527,-0.19788,0.0,2023,6,7,12,0,48,140
38.39430,0.03815,0.25147,0.00000,0.02623,0.97490,-0.19618,0.0,2023,6,7,12,0,48,150
38.39440,0.02065,0.05897,0.00000,0.02830,0.97380,-0.19593,0.0,2023,6,7,12,0,48,160
38.39450,0.12565,-0.01103,0.00000,0.02830,0.97478,-0.19581,0.0,2023,6,7,12,0,48,170
38.39460,0.07315,-0.06353,0.00000,0.02891,0.97515,-0.19471,0.0,2023,6,7,12,0,48,180
38.39470,-0.17185,0.21647,0.00000,0.02721,0.97490,-0.19679,0.0,2023,6,7,12,0,48,190
38.39480,-0.11935,0.09397,0.00000,0.02806,0.97649,-0.19532,0.0,2023,6,7,12,0,48,200
38.39490,0.00315,0.11147,0.00000,0.02818,0.97515,-0.19581,0.0,2023,6,7,12,0,48,210
38.39500,-0.06685,0.09397,0.00000,0.02574,0.97454,-0.19215,0.0,2023,6,7,12,0,48,220
38.39510,-0.13685,0.14647,0.00000,0.02708,0.97673,-0.19337,0.0,2023,6,7,12,0,48,230
38.39520,-0.03185,-0.13353,0.00000,0.03026,0.97539,-0.19557,0.0,2023,6,7,12,0,48,240
38.39530,-0.01435,-0.01103,0.00000,0.03062,0.97698,-0.19520,0.0,2023,6,7,12,0,48,250
38.39540,0.00315,-0.11603,0.00000,0.03001,0.97441,-0.19752,0.0,2023,6,7,12,0,48,260
38.39550,-0.04935,0.14647,0.00000,0.02696,0.97368,-0.19630,0.0,2023,6,7,12,0,48,270
38.39560,-0.11935,0.04147,0.00000,0.02525,0.97588,-0.19581,0.0,2023,6,7,12,0,48,280
38.39570,-0.20685,0.16397,0.00000,0.03001,0.97368,-0.19532,0.0,2023,6,7,12,0,48,290
38.39580,0.12565,-0.13353,0.00000,0.02745,0.97807,-0.19435,0.0,2023,6,7,12,0,48,300
38.39590,0.02065,-0.27353,0.00000,0.02660,0.97515,-0.19557,0.0,2023,6,7,12,0,48,310
38.39600,-0.06685,0.09397,0.00000,0.02928,0.97454,-0.19544,0.0,2023,6,7,12,0,48,320
38.39610,-0.06685,-0.16853,0.00000,0.02769,0.97649,-0.19300,0.0,2023,6,7,12,0,48,330
38.39620,-0.11935,0.11147,0.00000,0.03111,0.97490,-0.19422,0.0,2023,6,7,12,0,48,340
38.39630,0.19565,-0.13353,0.00000,0.02891,0.97588,-0.19483,0.0,2023,6,7,12,0,48,350
38.39640,-0.13685,0.09397,0.00000,0.02769,0.97551,-0.19679,0.0,2023,6,7,12,0,48,360
38.39650,0.03815,-0.06353,0.00000,0.02684,0.97393,-0.19496,0.0,2023,6,7,12,0,48,370
38.39660,-0.04935,-0.01103,0.00000,0.02830,0.97649,-0.19630,0.0,2023,6,7,12,0,48,380
38.39670,0.05565,0.04147,0.00000,0.02891,0.97527,-0.19618,0.0,2023,6,7,12,0,48,390
38.39680,0.03815,-0.06353,0.00000,0.03026,0.97612,-0.19605,0.0,2023,6,7,12,0,48,400
38.39690,0.10815,-0.04603,0.00000,0.02745,0.97563,-0.19544,0.0,2023,6,7,12,0,48,410
38.39700,-0.03185,0.04147,0.00000,0.02745,0.97405,-0.19642,0.0,2023,6,7,12,0,48,420
38.39710,0.16065,-0.04603,0.00000,0.02879,0.97685,-0.19801,0.0,2023,6,7,12,0,48,430
38.39720,-0.03185,0.16397,0.00000,0.02769,0.97490,-0.19654,0.0,2023,6,7,12,0,48,440
38.39730,0.02065,0.02397,0.00000,0.02965,0.97576,-0.19544,0.0,2023,6,7,12,0,48,450
38.39740,0.07315,-0.04603,0.00000,0.02830,0.97515,-0.19569,0.0,2023,6,7,12,0,48,460
38.39750,0.03815,-0.11603,0.00000,0.02855,0.97417,-0.19264,0.0,2023,6,7,12,0,48,470
38.39760,-0.08435,0.11147,0.00000,0.02928,0.97490,-0.19325,0.0,2023,6,7,12,0,48,480
38.39770,-0.01435,0.02397,0.00000,0.02794,0.97393,-0.19520,0.0,2023,6,7,12,0,48,490
38.39780,-0.11935,-0.11603,0.00000,0.03087,0.97344,-0.19374,0.0,2023,6,7,12,0,48,500
38.39790,-0.15435,0.05897,0.00000,0.02623,0.97527,-0.19520,0.0,2023,6,7,12,0,48,510
38.39800,0.14315,0.07647,0.00000,0.02550,0.97649,-0.19459,0.0,2023,6,7,12,0,48,520
38.39810,0.05565,-0.01103,0.00000,0.02818,0.97527,-0.19532,0.0,2023,6,7,12,0,48,530
38.39820,-0.20685,0.04147,0.00000,0.02623,0.97649,-0.19398,0.0,2023,6,7,12,0,48,540
38.39830,0.05565,-0.16853,0.00000,0.02660,0.97393,-0.19630,0.0,2023,6,7,12,0,48,550
38.39840,-0.01435,0.12897,0.00000,0.02818,0.97478,-0.19642,0.0,2023,6,7,12,0,48,560
38.39850,0.09065,-0.09853,0.00000,0.02867,0.97673,-0.19691,0.0,2023,6,7,12,0,48,570
38.39860,0.28315,0.14647,0.00000,0.03001,0.97466,-0.19557,0.0,2023,6,7,12,0,48,580
38.39870,-0.06685,0.09397,0.00000,0.02830,0.97612,-0.19398,0.0,2023,6,7,12,0,48,590
38.39880,-0.01435,0.11147,0.00000,0.02818,0.97332,-0.19398,0.0,2023,6,7,12,0,48,600
38.39890,-0.01435,0.07647,0.00000,0.02745,0.97685,-0.19459,0.0,2023,6,7,12,0,48,610
38.39900,0.02065,-0.13353,0.00000,0.02867,0.97502,-0.19422,0.0,2023,6,7,12,0,48,620
38.39910,0.12565,-0.06353,0.00000,0.02550,0.97612,-0.19520,0.0,2023,6,7,12,0,48,630
38.39920,-0.04935,0.07647,0.00000,0.02891,0.97600,-0.19618,0.0,2023,6,7,12,0,48,640
38.39930,0.12565,-0.06353,0.00000,0.02721,0.97222,-0.19276,0.0,2023,6,7,12,0,48,650
38.39940,0.02065,-0.15103,0.00000,0.02977,0.97441,-0.19557,0.0,2023,6,7,12,0,48,660
38.39950,-0.17185,0.11147,0.00000,0.02843,0.97637,-0.19483,0.0,2023,6,7,12,0,48,670
38.39960,-0.06685,0.05897,0.00000,0.02806,0.97490,-0.19532,0.0,2023,6,7,12,0,48,680
38.39970,0.10815,-0.13353,0.00000,0.02769,0.97588,-0.19459,0.0,2023,6,7,12,0,48,690
38.39980,0.09065,-0.02853,0.00000,0.02782,0.97588,-0.19666,0.0,2023,6,7,12,0,48,700
38.39990,-0.04935,-0.09853,0.00000,0.02721,0.97600,-0.19349,0.0,2023,6,7,12,0,48,710
38.40000,0.09065,0.02397,0.00000,0.02806,0.97417,-0.19483,0.0,2023,6,7,12,0,48,720
38.40010,0.09065,0.14647,0.00000,0.02916,0.97393,-0.19313,0.0,2023,6,7,12,0,48,730
38.40020,-0.01435,-0.13353,0.00000,0.02708,0.97515,-0.19496,0.0,2023,6,7,12,0,48,740
38.40030,-0.04935,-0.01103,0.00000,0.02806,0.97454,-0.19679,0.0,2023,6,7,12,0,48,750
38.40040,-0.04935,-0.04603,0.00000,0.02769,0.97649,-0.19349,0.0,2023,6,7,12,0,48,760
38.40050,-0.13685,-0.01103,0.00000,0.02879,0.97588,-0.19508,0.0,2023,6,7,12,0,48,770
38.40060,-0.17185,-0.01103,0.00000,0.02977,0.97832,-0.19386,0.0,2023,6,7,12,0,48,780
38.40070,0.05565,-0.09853,0.00000,0.02721,0.97210,-0.19557,0.0,2023,6,7,12,0,48,790
38.40080,0.21315,0.16397,0.00000,0.02647,0.97539,-0.19459,0.0,2023,6,7,12,0,48,800
38.40090,0.02065,-0.06353,0.00000,0.02940,0.97649,-0.19569,0.0,2023,6,7,12,0,48,810
38.40100,-0.08435,-0.04603,0.00000,0.02757,0.97515,-0.19544,0.0,2023,6,7,12,0,48,820
38.40110,0.10815,0.25147,0.00000,0.02611,0.97673,-0.19544,0.0,2023,6,7,12,0,48,830
38.40120,-0.08435,-0.13353,0.00000,0.02855,0.97502,-0.19398,0.0,2023,6,7,12,0,48,840
38.40130,0.02065,-0.08103,0.00000,0.02879,0.97417,-0.19337,0.0,2023,6,7,12,0,48,850
38.40140,0.10815,-0.04603,0.00000,0.02879,0.97685,-0.19532,0.0,2023,6,7,12,0,48,860
38.40150,0.24815,-0.02853,0.00000,0.02574,0.97612,-0.19788,0.0,2023,6,7,12,0,48,870
38.40160,0.02065,-0.18603,0.00000,0.03038,0.97759,-0.19227,0.0,2023,6,7,12,0,48,880
38.40170,-0.11935,0.00647,0.00000,0.02782,0.97502,-0.19276,0.0,2023,6,7,12,0,48,890
38.40180,-0.04935,0.09397,0.00000,0.02843,0.97612,-0.19410,0.0,2023,6,7,12,0,48,900
38.40190,0.19565,-0.15103,0.00000,0.02586,0.97685,-0.19459,0.0,2023,6,7,12,0,48,910
38.40200,-0.06685,-0.01103,0.00000,0.02952,0.97319,-0.19447,0.0,2023,6,7,12,0,48,920
38.40210,-0.06685,0.11147,0.00000,0.03013,0.97746,-0.19459,0.0,2023,6,7,12,0,48,930
38.40220,0.09065,-0.08103,0.00000,0.02513,0.97344,-0.19593,0.0,2023,6,7,12,0,48,940
38.40230,0.07315,0.00647,0.00000,0.02940,0.97734,-0.19252,0.0,2023,6,7,12,0,48,950
38.40240,0.02065,-0.06353,0.00000,0.02708,0.97576,-0.19361,0.0,2023,6,7,12,0,48,960
38.40250,0.16065,-0.11603,0.00000,0.03013,0.97600,-0.19496,0.0,2023,6,7,12,0,48,970
38.40260,-0.17185,-0.16853,0.00000,0.02696,0.97576,-0.19642,0.0,2023,6,7,12,0,48,980
38.40270,-0.01435,-0.06353,0.00000,0.02782,0.97356,-0.19569,0.0,2023,6,7,12,0,48,990
38.40280,0.09065,-0.04603,0.00000,0.02965,0.97624,-0.19508,0.0,2023,6,7,12,0,48,1000
38.40290,0.12565,0.04147,0.00000,0.02818,0.97527,-0.19593,0.0,2023,6,7,12,0,48,10
38.40300,-0.06685,0.04147,0.00000,0.02806,0.97673,-0.19459,0.0,2023,6,7,12,0,48,20
38.40310,0.02065,-0.11603,0.00000,0.02989,0.97356,-0.19398,0.0,2023,6,7,12,0,48,30
38.40320,0.00315,-0.02853,0.00000,0.02916,0.97759,-0.19544,0.0,2023,6,7,12,0,48,40
38.40330,-0.01435,-0.16853,0.00000,0.02940,0.97624,-0.19520,0.0,2023,6,7,12,0,48,50
38.40340,0.03815,-0.06353,0.00000,0.02733,0.97368,-0.19483,0.0,2023,6,7,12,0,48,60
38.40350,0.05565,0.02397,0.00000,0.02879,0.97600,-0.19508,0.0,2023,6,7,12,0,48,70
38.40360,0.10815,0.16397,0.00000,0.02806,0.97283,-0.19361,0.0,2023,6,7,12,0,48,80
38.40370,-0.15435,0.09397,0.00000,0.02757,0.97429,-0.19447,0.0,2023,6,7,12,0,48,90
38.40380,0.03815,0.12897,0.00000,0.03001,0.97649,-0.19557,0.0,2023,6,7,12,0,48,100
38.40390,-0.24185,0.09397,0.00000,0.02818,0.97588,-0.19557,0.0,2023,6,7,12,0,49,110
38.40400,-0.06685,0.02397,0.00000,0.02867,0.97478,-0.19398,0.0,2023,6,7,12,0,49,120
38.40410,0.10815,-0.13353,0.00000,0.02843,0.97539,-0.19386,0.0,2023,6,7,12,0,49,130
38.40420,-0.01435,-0.22103,0.00000,0.02843,0.97612,-0.19532,0.0,2023,6,7,12,0,49,140
38.40430,0.00315,0.04147,0.00000,0.02928,0.97454,-0.19435,0.0,2023,6,7,12,0,49,150
38.40440,-0.10185,-0.02853,0.00000,0.02916,0.97698,-0.19520,0.0,2023,6,7,12,0,49,160
38.40450,-0.10185,0.19897,0.00000,0.02757,0.97661,-0.19471,0.0,2023,6,7,12,0,49,170
38.40460,-0.08435,-0.06353,0.00000,0.02745,0.97478,-0.19691,0.0,2023,6,7,12,0,49,180
38.40470,-0.06685,0.00647,0.00000,0.02818,0.97722,-0.19471,0.0,2023,6,7,12,0,49,190
38.40480,-0.10185,-0.04603,0.00000,0.02794,0.97795,-0.19252,0.0,2023,6,7,12,0,49,200
38.40490,0.05565,-0.01103,0.00000,0.02745,0.97563,-0.19520,0.0,2023,6,7,12,0,49,210
38.40500,0.21315,-0.08103,0.00000,0.03050,0.97612,-0.19483,0.0,2023,6,7,12,0,49,220
38.40510,0.17815,0.02397,0.00000,0.02952,0.97551,-0.19715,0.0,2023,6,7,12,0,49,230
38.40520,0.09065,-0.09853,0.00000,0.02586,0.97502,-0.19508,0.0,2023,6,7,12,0,49,240
38.40530,-0.17185,0.04147,0.00000,0.02684,0.97588,-0.19386,0.0,2023,6,7,12,0,49,250
38.40540,-0.03185,0.19897,0.00000,0.02843,0.97746,-0.19532,0.0,2023,6,7,12,0,49,260
38.40550,0.07315,0.02397,0.00000,0.02672,0.97417,-0.19447,0.0,2023,6,7,12,0,49,270
38.40560,0.00315,0.09397,0.00000,0.02733,0.97515,-0.19532,0.0,2023,6,7,12,0,49,280
38.40570,-0.03185,-0.13353,0.00000,0.02940,0.97527,-0.19520,0.0,2023,6,7,12,0,49,290
38.40580,0.00315,-0.11603,0.00000,0.02965,0.97722,-0.19496,0.0,2023,6,7,12,0,49,300
38.40590,-0.13685,0.19897,0.00000,0.03001,0.97600,-0.19300,0.0,2023,6,7,12,0,49,310
38.40600,-0.03185,0.00647,0.00000,0.02952,0.97795,-0.19654,0.0,2023,6,7,12,0,49,320
38.40610,0.02065,-0.16853,0.00000,0.02977,0.97795,-0.19398,0.0,2023,6,7,12,0,49,330
38.40620,0.00315,-0.09853,0.00000,0.03001,0.97698,-0.19532,0.0,2023,6,7,12,0,49,340
38.40630,0.02065,0.11147,0.00000,0.02867,0.97856,-0.19605,0.0,2023,6,7,12,0,49,350
38.40640,0.14315,-0.15103,0.00000,0.03013,0.97576,-0.19422,0.0,2023,6,7,12,0,49,360
38.40650,0.10815,0.19897,0.00000,0.02855,0.97441,-0.19447,0.0,2023,6,7,12,0,49,370
38.40660,-0.10185,-0.11603,0.00000,0.02684,0.97332,-0.19691,0.0,2023,6,7,12,0,49,380
38.40670,0.09065,0.00647,0.00000,0.03001,0.97344,-0.19386,0.0,2023,6,7,12,0,49,390
38.40680,0.07315,-0.04603,0.00000,0.02879,0.97551,-0.19313,0.0,2023,6,7,12,0,49,400
38.40690,-0.04935,0.07647,0.00000,0.02794,0.97637,-0.19386,0.0,2023,6,7,12,0,49,410
38.40700,0.09065,0.16397,0.00000,0.02879,0.97759,-0.19557,0.0,2023,6,7,12,0,49,420
38.40710,-0.13685,0.05897,0.00000,0.02708,0.97551,-0.19666,0.0,2023,6,7,12,0,49,430
38.40720,-0.10185,-0.11603,0.00000,0.02904,0.97759,-0.19300,0.0,2023,6,7,12,0,49,440
38.40730,-0.15435,-0.04603,0.00000,0.02965,0.97527,-0.19471,0.0,2023,6,7,12,0,49,450
38.40740,-0.10185,0.09397,0.00000,0.02855,0.97576,-0.19435,0.0,2023,6,7,12,0,49,460
38.40750,-0.03185,-0.02853,0.00000,0.02562,0.97527,-0.19642,0.0,2023,6,7,12,0,49,470
38.40760,-0.15435,0.04147,0.00000,0.02916,0.97539,-0.19752,0.0,2023,6,7,12,0,49,480
38.40770,0.26565,-0.02853,0.00000,0.02733,0.97502,-0.19715,0.0,2023,6,7,12,0,49,490
38.40780,0.00315,0.02397,0.00000,0.02989,0.97685,-0.19422,0.0,2023,6,7,12,0,49,500
38.40790,0.19565,-0.32603,0.00000,0.02696,0.97332,-0.19471,0.0,2023,6,7,12,0,49,510
38.40800,0.12565,0.04147,0.00000,0.03099,0.97588,-0.19313,0.0,2023,6,7,12,0,49,520
38.40810,0.14315,-0.01103,0.00000,0.02940,0.97710,-0.19520,0.0,2023,6,7,12,0,49,530
38.40820,-0.08435,-0.06353,0.00000,0.02574,0.97466,-0.19264,0.0,2023,6,7,12,0,49,540
38.40830,-0.10185,-0.01103,0.00000,0.02733,0.97356,-0.19459,0.0,2023,6,7,12,0,49,550
38.40840,0.05565,-0.25603,0.00000,0.02952,0.97527,-0.19691,0.0,2023,6,7,12,0,49,560
38.40850,0.02065,-0.16853,0.00000,0.02782,0.97551,-0.19654,0.0,2023,6,7,12,0,49,570
38.40860,0.00315,0.12897,0.00000,0.03148,0.97539,-0.19422,0.0,2023,6,7,12,0,49,580
38.40870,-0.10185,-0.02853,0.00000,0.02916,0.97698,-0.19239,0.0,2023,6,7,12,0,49,590
38.40880,0.00315,0.09397,0.00000,0.02977,0.97454,-0.19483,0.0,2023,6,7,12,0,49,600
38.40890,0.05565,-0.37853,0.00000,0.02867,0.97771,-0.19520,0.0,2023,6,7,12,0,49,610
38.40900,0.00315,-0.01103,0.00000,0.02806,0.97624,-0.19483,0.0,2023,6,7,12,0,49,620
38.40910,-0.13685,0.04147,0.00000,0.02794,0.97637,-0.19496,0.0,2023,6,7,12,0,49,630
38.40920,0.16065,-0.04603,0.00000,0.02855,0.97319,-0.19337,0.0,2023,6,7,12,0,49,640
38.40930,0.00315,0.02397,0.00000,0.02611,0.97588,-0.19520,0.0,2023,6,7,12,0,49,650
38.40940,0.03815,-0.04603,0.00000,0.02928,0.97515,-0.19654,0.0,2023,6,7,12,0,49,660
38.40950,0.14315,-0.13353,0.00000,0.03111,0.97332,-0.19349,0.0,2023,6,7,12,0,49,670
38.40960,0.07315,-0.06353,0.00000,0.02769,0.97515,-0.19349,0.0,2023,6,7,12,0,49,680
38.40970,-0.06685,0.23397,0.00000,0.02940,0.97454,-0.19361,0.0,2023,6,7,12,0,49,690
38.40980,0.07315,0.12897,0.00000,0.02696,0.97393,-0.19471,0.0,2023,6,7,12,0,49,700
38.40990,0.03815,-0.27353,0.00000,0.02965,0.97649,-0.19422,0.0,2023,6,7,12,0,49,710
38.41000,-0.04935,0.05897,0.00000,0.02965,0.97746,-0.19325,0.0,2023,6,7,12,0,49,720
38.41010,0.02065,0.02397,0.00000,0.02855,0.97698,-0.19374,0.0,2023,6,7,12,0,49,730
38.41020,-0.15435,0.05897,0.00000,0.02977,0.97600,-0.19325,0.0,2023,6,7,12,0,49,740
38.41030,-0.11935,0.11147,0.00000,0.02989,0.97649,-0.19374,0.0,2023,6,7,12,0,49,750
38.41040,0.02065,0.11147,0.00000,0.02904,0.97637,-0.19471,0.0,2023,6,7,12,0,49,760
38.41050,0.09065,-0.08103,0.00000,0.02916,0.97539,-0.19361,0.0,2023,6,7,12,0,49,770
38.41060,0.00315,0.07647,0.00000,0.02757,0.97502,-0.19642,0.0,2023,6,7,12,0,49,780
38.41070,0.10815,-0.04603,0.00000,0.02782,0.97600,-0.19605,0.0,2023,6,7,12,0,49,790
38.41080,-0.06685,0.16397,0.00000,0.02928,0.97588,-0.19447,0.0,2023,6,7,12,0,49,800
38.41090,-0.03185,0.04147,0.00000,0.02867,0.97490,-0.19569,0.0,2023,6,7,12,0,49,810
38.41100,0.12565,-0.15103,0.00000,0.02818,0.97527,-0.19191,0.0,2023,6,7,12,0,49,820
38.41110,-0.15435,0.18147,0.00000,0.02782,0.97563,-0.19508,0.0,2023,6,7,12,0,49,830
38.41120,-0.03185,0.04147,0.00000,0.03026,0.97466,-0.19264,0.0,2023,6,7,12,0,49,840
38.41130,0.16065,-0.08103,0.00000,0.02647,0.97588,-0.19618,0.0,2023,6,7,12,0,49,850
38.41140,-0.15435,-0.01103,0.00000,0.02599,0.97515,-0.19337,0.0,2023,6,7,12,0,49,860
38.41150,-0.24185,0.18147,0.00000,0.02757,0.97454,-0.19227,0.0,2023,6,7,12,0,49,870
38.41160,-0.03185,-0.02853,0.00000,0.03026,0.97502,-0.19557,0.0,2023,6,7,12,0,49,880
38.41170,-0.11935,-0.01103,0.00000,0.02891,0.97795,-0.19422,0.0,2023,6,7,12,0,49,890
38.41180,-0.20685,0.11147,0.00000,0.03050,0.97527,-0.19740,0.0,2023,6,7,12,0,49,900
38.41190,-0.13685,0.12897,0.00000,0.03026,0.97405,-0.19459,0.0,2023,6,7,12,0,49,910
38.41200,0.23065,0.14647,0.00000,0.02952,0.97685,-0.19666,0.0,2023,6,7,12,0,49,920
38.41210,0.09065,-0.08103,0.00000,0.02599,0.97734,-0.19520,0.0,2023,6,7,12,0,49,930
38.41220,0.03815,0.21647,0.00000,0.02928,0.97393,-0.19715,0.0,2023,6,7,12,0,49,940
38.41230,-0.10185,0.00647,0.00000,0.02904,0.97551,-0.19191,0.0,2023,6,7,12,0,49,950
38.41240,-0.03185,0.00647,0.00000,0.02708,0.97600,-0.19471,0.0,2023,6,7,12,0,49,960
38.41250,-0.03185,-0.01103,0.00000,0.02891,0.97600,-0.19422,0.0,2023,6,7,12,0,49,970
38.41260,-0.08435,-0.15103,0.00000,0.02745,0.97527,-0.19569,0.0,2023,6,7,12,0,49,980
38.41270,0.07315,-0.01103,0.00000,0.02855,0.97612,-0.19410,0.0,2023,6,7,12,0,49,990
38.41280,-0.17185,0.07647,0.00000,0.02757,0.97539,-0.19520,0.0,2023,6,7,12,0,49,1000
38.41290,0.03815,-0.06353,0.00000,0.02794,0.97466,-0.19422,0.0,2023,6,7,12,0,49,10
38.41300,0.14315,-0.06353,0.00000,0.02855,0.97441,-0.19398,0.0,2023,6,7,12,0,49,20
38.41310,0.05565,-0.02853,0.00000,0.02757,0.97478,-0.19227,0.0,2023,6,7,12,0,49,30
38.41320,-0.20685,-0.09853,0.00000,0.02623,0.97405,-0.19447,0.0,2023,6,7,12,0,49,40
38.41330,0.12565,0.05897,0.00000,0.02867,0.97759,-0.19679,0.0,2023,6,7,12,0,49,50
38.41340,-0.08435,0.16397,0.00000,0.02794,0.97576,-0.19471,0.0,2023,6,7,12,0,49,60
38.41350,0.05565,-0.06353,0.00000,0.03099,0.97454,-0.19471,0.0,2023,6,7,12,0,49,70
38.41360,0.09065,-0.02853,0.00000,0.02916,0.97722,-0.19483,0.0,2023,6,7,12,0,49,80
38.41370,0.00315,0.16397,0.00000,0.02830,0.97466,-0.19459,0.0,2023,6,7,12,0,49,90
38.41380,-0.03185,-0.16853,0.00000,0.02855,0.97588,-0.19459,0.0,2023,6,7,12,0,49,100
38.41390,0.05565,-0.02853,0.00000,0.02672,0.97649,-0.19459,0.0,2023,6,7,12,0,49,110
38.41400,0.05565,-0.06353,0.00000,0.02965,0.97624,-0.19544,0.0,2023,6,7,12,0,49,120
38.41410,0.02065,0.11147,0.00000,0.03148,0.97649,-0.19471,0.0,2023,6,7,12,0,49,130
38.41420,0.02065,-0.18603,0.00000,0.03038,0.97527,-0.19422,0.0,2023,6,7,12,0,49,140
38.41430,0.05565,0.02397,0.00000,0.02830,0.97649,-0.19435,0.0,2023,6,7,12,0,49,150
38.41440,0.14315,-0.01103,0.00000,0.02794,0.97612,-0.19752,0.0,2023,6,7,12,0,49,160
38.41450,0.26565,0.04147,0.00000,0.02904,0.97271,-0.19496,0.0,2023,6,7,12,0,49,170
38.41460,-0.08435,0.07647,0.00000,0.02635,0.97466,-0.19557,0.0,2023,6,7,12,0,49,180
38.41470,0.02065,-0.09853,0.00000,0.02696,0.97624,-0.19496,0.0,2023,6,7,12,0,49,190
38.41480,-0.06685,0.09397,0.00000,0.02782,0.97515,-0.19374,0.0,2023,6,7,12,0,49,200
38.41490,0.05565,-0.11603,0.00000,0.03001,0.97649,-0.19471,0.0,2023,6,7,12,0,49,210
38.41500,-0.17185,0.04147,0.00000,0.02867,0.97685,-0.19727,0.0,2023,6,7,12,0,49,220
38.41510,0.09065,0.00647,0.00000,0.02904,0.97466,-0.19325,0.0,2023,6,7,12,0,49,230
38.41520,-0.25935,-0.01103,0.00000,0.02843,0.97258,-0.19386,0.0,2023,6,7,12,0,49,240
38.41530,-0.10185,-0.27353,0.00000,0.02721,0.97332,-0.19410,0.0,2023,6,7,12,0,49,250
38.41540,-0.13685,-0.09853,0.00000,0.02745,0.97490,-0.19386,0.0,2023,6,7,12,0,49,260
38.41550,0.05565,-0.13353,0.00000,0.02782,0.97478,-0.19483,0.0,2023,6,7,12,0,49,270
38.41560,0.00315,-0.09853,0.00000,0.02782,0.97307,-0.19313,0.0,2023,6,7,12,0,49,280
38.41570,0.00315,-0.06353,0.00000,0.02830,0.97368,-0.19471,0.0,2023,6,7,12,0,49,290
38.41580,-0.06685,0.14647,0.00000,0.02782,0.97698,-0.19374,0.0,2023,6,7,12,0,49,300
38.41590,0.07315,0.00647,0.00000,0.02904,0.97624,-0.19422,0.0,2023,6,7,12,0,49,310
38.41600,-0.04935,-0.27353,0.00000,0.02782,0.97539,-0.19410,0.0,2023,6,7,12,0,49,320
38.41610,0.09065,-0.01103,0.00000,0.02977,0.97783,-0.19618,0.0,2023,6,7,12,0,49,330
38.41620,-0.06685,0.05897,0.00000,0.02977,0.97698,-0.19337,0.0,2023,6,7,12,0,49,340
38.41630,-0.13685,0.12897,0.00000,0.02952,0.97527,-0.19532,0.0,2023,6,7,12,0,49,350
38.41640,0.05565,0.00647,0.00000,0.02769,0.97283,-0.19386,0.0,2023,6,7,12,0,49,360
38.41650,-0.03185,-0.02853,0.00000,0.02940,0.97612,-0.19398,0.0,2023,6,7,12,0,49,370
38.41660,0.03815,-0.16853,0.00000,0.02611,0.97576,-0.19666,0.0,2023,6,7,12,0,49,380
38.41670,-0.17185,-0.02853,0.00000,0.02904,0.97539,-0.19642,0.0,2023,6,7,12,0,49,390
38.41680,-0.06685,-0.06353,0.00000,0.02965,0.97698,-0.19447,0.0,2023,6,7,12,0,49,400
38.41690,-0.03185,0.05897,0.00000,0.02769,0.97698,-0.19544,0.0,2023,6,7,12,0,49,410
38.41700,-0.13685,0.00647,0.00000,0.02879,0.97685,-0.19618,0.0,2023,6,7,12,0,49,420
38.41710,0.00315,-0.16853,0.00000,0.03062,0.97722,-0.19801,0.0,2023,6,7,12,0,49,430
38.41720,0.10815,-0.13353,0.00000,0.02696,0.97637,-0.19447,0.0,2023,6,7,12,0,49,440
38.41730,0.05565,-0.18603,0.00000,0.02586,0.97380,-0.19532,0.0,2023,6,7,12,0,49,450
38.41740,0.02065,0.05897,0.00000,0.02794,0.97649,-0.19618,0.0,2023,6,7,12,0,49,460
38.41750,-0.04935,-0.11603,0.00000,0.02928,0.97698,-0.19569,0.0,2023,6,7,12,0,49,470
38.41760,0.09065,-0.08103,0.00000,0.02830,0.97405,-0.19520,0.0,2023,6,7,12,0,49,480
38.41770,-0.03185,0.00647,0.00000,0.02843,0.97576,-0.19410,0.0,2023,6,7,12,0,49,490
38.41780,-0.10185,0.16397,0.00000,0.02940,0.97698,-0.19544,0.0,2023,6,7,12,0,49,500
38.41790,-0.10185,-0.08103,0.00000,0.03001,0.97563,-0.19435,0.0,2023,6,7,12,0,49,510
38.41800,-0.10185,-0.01103,0.00000,0.02904,0.97661,-0.19557,0.0,2023,6,7,12,0,49,520
38.41810,-0.13685,-0.09853,0.00000,0.02952,0.97612,-0.19422,0.0,2023,6,7,12,0,49,530
38.41820,-0.10185,-0.16853,0.00000,0.02660,0.97673,-0.19435,0.0,2023,6,7,12,0,49,540
38.41830,0.17815,0.09397,0.00000,0.02989,0.97649,-0.19654,0.0,2023,6,7,12,0,49,550
38.41840,0.00315,-0.13353,0.00000,0.02867,0.97661,-0.19374,0.0,2023,6,7,12,0,49,560
38.41850,0.10815,-0.09853,0.00000,0.02586,0.97502,-0.19422,0.0,2023,6,7,12,0,49,570
38.41860,0.05565,0.05897,0.00000,0.02721,0.97600,-0.19361,0.0,2023,6,7,12,0,49,580
38.41870,-0.08435,-0.09853,0.00000,0.02904,0.97698,-0.19569,0.0,2023,6,7,12,0,49,590
38.41880,0.09065,0.07647,0.00000,0.02965,0.97807,-0.19215,0.0,2023,6,7,12,0,49,600
38.41890,-0.10185,-0.02853,0.00000,0.02538,0.97685,-0.19435,0.0,2023,6,7,12,0,49,610
38.41900,0.10815,0.05897,0.00000,0.02891,0.97405,-0.19581,0.0,2023,6,7,12,0,49,620
38.41910,-0.01435,-0.02853,0.00000,0.02891,0.97466,-0.19593,0.0,2023,6,7,12,0,49,630
38.41920,0.02065,-0.04603,0.00000,0.02647,0.97417,-0.19508,0.0,2023,6,7,12,0,49,640
38.41930,0.03815,-0.11603,0.00000,0.02916,0.97600,-0.19520,0.0,2023,6,7,12,0,49,650
38.41940,-0.11935,-0.08103,0.00000,0.02855,0.97576,-0.19483,0.0,2023,6,7,12,0,49,660
38.41950,0.10815,0.04147,0.00000,0.02891,0.97600,-0.19618,0.0,2023,6,7,12,0,49,670
38.41960,-0.11935,-0.06353,0.00000,0.02965,0.97588,-0.19447,0.0,2023,6,7,12,0,49,680
38.41970,0.00315,-0.01103,0.00000,0.02672,0.97661,-0.19630,0.0,2023,6,7,12,0,49,690
38.41980,0.10815,0.02397,0.00000,0.02891,0.97624,-0.19374,0.0,2023,6,7,12,0,49,700
38.41990,-0.04935,0.02397,0.00000,0.02916,0.97563,-0.19593,0.0,2023,6,7,12,0,49,710
38.42000,0.03815,-0.16853,0.00000,0.02904,0.97356,-0.19337,0.0,2023,6,7,12,0,49,720
38.42010,-0.17185,0.05897,0.00000,0.03001,0.97649,-0.19459,0.0,2023,6,7,12,0,49,730
38.42020,0.14315,0.09397,0.00000,0.03026,0.97466,-0.19752,0.0,2023,6,7,12,0,49,740
38.42030,0.07315,-0.09853,0.00000,0.02782,0.97527,-0.19557,0.0,2023,6,7,12,0,49,750
38.42040,0.10815,0.05897,0.00000,0.03099,0.97539,-0.19776,0.0,2023,6,7,12,0,49,760
38.42050,0.07315,0.02397,0.00000,0.03074,0.97673,-0.19520,0.0,2023,6,7,12,0,49,770
38.42060,0.00315,-0.13353,0.00000,0.03038,0.97698,-0.19569,0.0,2023,6,7,12,0,49,780
38.42070,-0.01435,-0.13353,0.00000,0.02843,0.97454,-0.19361,0.0,2023,6,7,12,0,49,790
38.42080,-0.27685,-0.02853,0.00000,0.02940,0.97698,-0.19569,0.0,2023,6,7,12,0,49,800
38.42090,0.09065,-0.13353,0.00000,0.02769,0.97832,-0.19398,0.0,2023,6,7,12,0,49,810
38.42100,-0.03185,0.09397,0.00000,0.03026,0.97698,-0.19398,0.0,2023,6,7,12,0,49,820
38.42110,-0.25935,0.07647,0.00000,0.03050,0.97673,-0.19666,0.0,2023,6,7,12,0,49,830
38.42120,-0.24185,0.00647,0.00000,0.02708,0.97563,-0.19691,0.0,2023,6,7,12,0,49,840
38.42130,-0.06685,-0.02853,0.00000,0.02916,0.97673,-0.19349,0.0,2023,6,7,12,0,49,850
38.42140,0.02065,-0.04603,0.00000,0.02977,0.97551,-0.19398,0.0,2023,6,7,12,0,49,860
38.42150,0.02065,-0.15103,0.00000,0.02952,0.97478,-0.19642,0.0,2023,6,7,12,0,49,870
38.42160,0.09065,-0.16853,0.00000,0.02623,0.97637,-0.19508,0.0,2023,6,7,12,0,49,880
38.42170,0.07315,0.02397,0.00000,0.02965,0.97612,-0.19483,0.0,2023,6,7,12,0,49,890
38.42180,-0.08435,0.07647,0.00000,0.03123,0.97429,-0.19496,0.0,2023,6,7,12,0,49,900
38.42190,-0.08435,0.09397,0.00000,0.02672,0.97551,-0.19581,0.0,2023,6,7,12,0,49,910
38.42200,-0.04935,0.05897,0.00000,0.02904,0.97673,-0.19508,0.0,2023,6,7,12,0,49,920
38.42210,0.10815,0.12897,0.00000,0.02855,0.97661,-0.19483,0.0,2023,6,7,12,0,49,930
38.42220,0.12565,0.04147,0.00000,0.02794,0.97490,-0.19630,0.0,2023,6,7,12,0,49,940
38.42230,0.09065,0.28647,0.00000,0.02891,0.97746,-0.19618,0.0,2023,6,7,12,0,49,950
38.42240,0.00315,0.00647,0.00000,0.02647,0.97576,-0.19557,0.0,2023,6,7,12,0,49,960
38.42250,-0.03185,-0.13353,0.00000,0.02733,0.97576,-0.19447,0.0,2023,6,7,12,0,49,970
38.42260,-0.01435,-0.01103,0.00000,0.02843,0.97600,-0.19666,0.0,2023,6,7,12,0,49,980
38.42270,-0.17185,-0.15103,0.00000,0.02733,0.97441,-0.19471,0.0,2023,6,7,12,0,49,990
38.42280,0.10815,-0.11603,0.00000,0.02989,0.97490,-0.19349,0.0,2023,6,7,12,0,49,1000
38.42290,-0.01435,-0.22103,0.00000,0.02989,0.97527,-0.19569,0.0,2023,6,7,12,0,49,10
38.42300,-0.15435,0.23397,0.00000,0.02928,0.97466,-0.19679,0.0,2023,6,7,12,0,49,20
38.42310,0.03815,-0.02853,0.00000,0.02904,0.97551,-0.19740,0.0,2023,6,7,12,0,49,30
38.42320,-0.11935,0.12897,0.00000,0.02806,0.97417,-0.19569,0.0,2023,6,7,12,0,49,40
38.42330,-0.04935,0.07647,0.00000,0.02806,0.97368,-0.19435,0.0,2023,6,7,12,0,49,50
38.42340,-0.04935,0.19897,0.00000,0.03099,0.97527,-0.19496,0.0,2023,6,7,12,0,49,60
38.42350,-0.01435,-0.06353,0.00000,0.02843,0.97417,-0.19581,0.0,2023,6,7,12,0,49,70
38.42360,0.03815,0.02397,0.00000,0.02867,0.97344,-0.19483,0.0,2023,6,7,12,0,49,80
38.42370,-0.22435,0.09397,0.00000,0.02891,0.97454,-0.19593,0.0,2023,6,7,12,0,49,90
38.42380,0.07315,-0.09853,0.00000,0.02782,0.97624,-0.19520,0.0,2023,6,7,12,0,49,100
38.42390,0.14315,0.05897,0.00000,0.03001,0.97600,-0.19520,0.0,2023,6,7,12,0,49,110
38.42400,0.00315,0.00647,0.00000,0.03087,0.97637,-0.19496,0.0,2023,6,7,12,0,49,120
38.42410,0.05565,-0.02853,0.00000,0.02977,0.97527,-0.19679,0.0,2023,6,7,12,0,49,130
38.42420,0.07315,0.19897,0.00000,0.02769,0.97258,-0.19325,0.0,2023,6,7,12,0,49,140
38.42430,0.02065,-0.13353,0.00000,0.02733,0.97454,-0.19398,0.0,2023,6,7,12,0,49,150
38.42440,-0.17185,0.04147,0.00000,0.02855,0.97576,-0.19544,0.0,2023,6,7,12,0,49,160
38.42450,0.12565,-0.01103,0.00000,0.02757,0.97612,-0.19752,0.0,2023,6,7,12,0,49,170
38.42460,-0.03185,-0.15103,0.00000,0.03013,0.97734,-0.19801,0.0,2023,6,7,12,0,49,180
38.42470,0.05565,0.04147,0.00000,0.03087,0.97502,-0.19532,0.0,2023,6,7,12,0,49,190
38.42480,-0.10185,0.04147,0.00000,0.02940,0.97551,-0.19459,0.0,2023,6,7,12,0,49,200
38.42490,-0.04935,0.04147,0.00000,0.02867,0.97563,-0.19752,0.0,2023,6,7,12,0,49,210
38.42500,0.05565,-0.08103,0.00000,0.02721,0.97429,-0.19410,0.0,2023,6,7,12,0,49,220
38.42510,0.19565,-0.09853,0.00000,0.02660,0.97722,-0.19654,0.0,2023,6,7,12,0,49,230
38.42520,0.00315,-0.09853,0.00000,0.02855,0.97527,-0.19630,0.0,2023,6,7,12,0,49,240
38.42530,-0.08435,-0.02853,0.00000,0.02550,0.97515,-0.19727,0.0,2023,6,7,12,0,49,250
38.42540,-0.01435,-0.13353,0.00000,0.02769,0.97454,-0.19654,0.0,2023,6,7,12,0,49,260
38.42550,0.03815,0.09397,0.00000,0.03038,0.97685,-0.19605,0.0,2023,6,7,12,0,49,270
38.42560,-0.03185,-0.06353,0.00000,0.02916,0.97380,-0.19471,0.0,2023,6,7,12,0,49,280
38.42570,0.02065,-0.04603,0.00000,0.02501,0.97417,-0.19557,0.0,2023,6,7,12,0,49,290
38.42580,0.07315,0.04147,0.00000,0.02733,0.97685,-0.19618,0.0,2023,6,7,12,0,49,300
38.42590,0.09065,-0.11603,0.00000,0.02806,0.97844,-0.19276,0.0,2023,6,7,12,0,49,310
38.42600,-0.11935,-0.02853,0.00000,0.02891,0.97649,-0.19618,0.0,2023,6,7,12,0,49,320
38.42610,-0.08435,0.18147,0.00000,0.02721,0.97112,-0.19130,0.0,2023,6,7,12,0,49,330
38.42620,-0.04935,-0.13353,0.00000,0.02782,0.97588,-0.19654,0.0,2023,6,7,12,0,49,340
38.42630,-0.27685,0.19897,0.00000,0.02623,0.97637,-0.19593,0.0,2023,6,7,12,0,49,350
38.42640,0.21315,-0.13353,0.00000,0.02830,0.97783,-0.19532,0.0,2023,6,7,12,0,49,360
38.42650,-0.17185,0.23397,0.00000,0.02928,0.97624,-0.19618,0.0,2023,6,7,12,0,49,370
38.42660,0.12565,0.12897,0.00000,0.02830,0.97539,-0.19496,0.0,2023,6,7,12,0,49,380
38.42670,0.12565,0.12897,0.00000,0.02745,0.97856,-0.19813,0.0,2023,6,7,12,0,49,390
38.42680,-0.11935,0.11147,0.00000,0.02952,0.97527,-0.19410,0.0,2023,6,7,12,0,49,400
38.42690,-0.04935,-0.18603,0.00000,0.02891,0.97661,-0.19471,0.0,2023,6,7,12,0,49,410
38.42700,0.16065,0.07647,0.00000,0.02952,0.97502,-0.19435,0.0,2023,6,7,12,0,49,420
38.42710,0.03815,0.00647,0.00000,0.02830,0.97502,-0.19618,0.0,2023,6,7,12,0,49,430
38.42720,0.19565,-0.13353,0.00000,0.02660,0.97637,-0.19679,0.0,2023,6,7,12,0,49,440
38.42730,-0.03185,-0.20353,0.00000,0.02830,0.97600,-0.19740,0.0,2023,6,7,12,0,49,450
38.42740,0.00315,0.00647,0.00000,0.02940,0.97405,-0.19215,0.0,2023,6,7,12,0,49,460
38.42750,-0.04935,-0.11603,0.00000,0.02879,0.97478,-0.19557,0.0,2023,6,7,12,0,49,470
38.42760,0.02065,0.11147,0.00000,0.02757,0.97466,-0.19715,0.0,2023,6,7,12,0,49,480
38.42770,0.05565,0.02397,0.00000,0.02904,0.97551,-0.19715,0.0,2023,6,7,12,0,49,490
38.42780,0.07315,0.23397,0.00000,0.02538,0.97600,-0.19788,0.0,2023,6,7,12,0,49,500
38.42790,0.05565,-0.15103,0.00000,0.03038,0.97746,-0.19459,0.0,2023,6,7,12,0,49,510
38.42800,-0.04935,-0.11603,0.00000,0.02794,0.97405,-0.19532,0.0,2023,6,7,12,0,49,520
38.42810,0.12565,-0.11603,0.00000,0.02940,0.97454,-0.19618,0.0,2023,6,7,12,0,49,530
38.42820,0.00315,0.11147,0.00000,0.02672,0.97673,-0.19581,0.0,2023,6,7,12,0,49,540
38.42830,-0.08435,-0.02853,0.00000,0.02562,0.97502,-0.19691,0.0,2023,6,7,12,0,49,550
38.42840,0.07315,-0.11603,0.00000,0.02818,0.97551,-0.19557,0.0,2023,6,7,12,0,49,560
38.42850,0.07315,-0.02853,0.00000,0.02721,0.97478,-0.19435,0.0,2023,6,7,12,0,49,570
38.42860,-0.06685,-0.01103,0.00000,0.02721,0.97856,-0.19557,0.0,2023,6,7,12,0,49,580
38.42870,0.07315,-0.18603,0.00000,0.02806,0.97539,-0.19581,0.0,2023,6,7,12,0,49,590
38.42880,0.14315,-0.08103,0.00000,0.02928,0.97563,-0.19703,0.0,2023,6,7,12,0,49,600
38.42890,-0.13685,-0.01103,0.00000,0.02818,0.97539,-0.19483,0.0,2023,6,7,12,0,49,610
38.42900,0.02065,-0.18603,0.00000,0.02830,0.97454,-0.19410,0.0,2023,6,7,12,0,49,620
38.42910,-0.04935,-0.16853,0.00000,0.02855,0.97502,-0.19727,0.0,2023,6,7,12,0,49,630
38.42920,-0.10185,0.28647,0.00000,0.02855,0.97576,-0.19520,0.0,2023,6,7,12,0,49,640
38.42930,-0.08435,0.18147,0.00000,0.02647,0.97637,-0.19593,0.0,2023,6,7,12,0,49,650
38.42940,-0.10185,0.04147,0.00000,0.02855,0.97502,-0.19642,0.0,2023,6,7,12,0,49,660
38.42950,-0.06685,0.04147,0.00000,0.02769,0.97551,-0.19630,0.0,2023,6,7,12,0,49,670
38.42960,0.12565,0.30397,0.00000,0.02806,0.97576,-0.19691,0.0,2023,6,7,12,0,49,680
38.42970,0.07315,0.28647,0.00000,0.02818,0.97661,-0.19544,0.0,2023,6,7,12,0,49,690
38.42980,-0.08435,0.09397,0.00000,0.03062,0.97624,-0.19776,0.0,2023,6,7,12,0,49,700
38.42990,0.00315,0.30397,0.00000,0.02745,0.97624,-0.19569,0.0,2023,6,7,12,0,49,710
38.43000,-0.06685,0.04147,0.00000,0.02794,0.97563,-0.19764,0.0,2023,6,7,12,0,49,720
38.43010,0.24815,-0.02853,0.00000,0.03087,0.97454,-0.19788,0.0,2023,6,7,12,0,49,730
38.43020,-0.01435,0.04147,0.00000,0.02794,0.97588,-0.19557,0.0,2023,6,7,12,0,49,740
38.43030,-0.17185,-0.02853,0.00000,0.02757,0.97600,-0.19508,0.0,2023,6,7,12,0,49,750
38.43040,0.17815,-0.20353,0.00000,0.02977,0.97441,-0.19764,0.0,2023,6,7,12,0,49,760
38.43050,0.07315,-0.01103,0.00000,0.02806,0.97417,-0.19605,0.0,2023,6,7,12,0,49,770
38.43060,0.12565,0.00647,0.00000,0.02843,0.97502,-0.19654,0.0,2023,6,7,12,0,49,780
38.43070,-0.01435,-0.01103,0.00000,0.02757,0.97588,-0.19752,0.0,2023,6,7,12,0,49,790
38.43080,-0.01435,0.18147,0.00000,0.03038,0.97673,-0.19654,0.0,2023,6,7,12,0,49,800
38.43090,0.07315,0.05897,0.00000,0.02855,0.97624,-0.19337,0.0,2023,6,7,12,0,49,810
38.43100,-0.20685,0.04147,0.00000,0.02940,0.97527,-0.19788,0.0,2023,6,7,12,0,49,820
38.43110,0.10815,-0.36103,0.00000,0.02891,0.97576,-0.19593,0.0,2023,6,7,12,0,49,830
38.43120,-0.08435,0.25147,0.00000,0.02721,0.97673,-0.19422,0.0,2023,6,7,12,0,49,840
38.43130,-0.01435,0.14647,0.00000,0.02806,0.97612,-0.19398,0.0,2023,6,7,12,0,49,850
38.43140,0.12565,-0.18603,0.00000,0.02733,0.97441,-0.19544,0.0,2023,6,7,12,0,49,860
38.43150,-0.04935,0.00647,0.00000,0.02843,0.97551,-0.19801,0.0,2023,6,7,12,0,49,870
38.43160,0.07315,-0.13353,0.00000,0.03038,0.97417,-0.19520,0.0,2023,6,7,12,0,49,880
38.43170,0.10815,-0.27353,0.00000,0.02794,0.97539,-0.19630,0.0,2023,6,7,12,0,49,890
38.43180,-0.22435,-0.09853,0.00000,0.02855,0.97832,-0.19410,0.0,2023,6,7,12,0,49,900
38.43190,0.09065,-0.08103,0.00000,0.02904,0.97710,-0.19532,0.0,2023,6,7,12,0,49,910
38.43200,0.10815,-0.20353,0.00000,0.02696,0.97380,-0.19410,0.0,2023,6,7,12,0,49,920
38.43210,0.07315,0.12897,0.00000,0.02818,0.97454,-0.19520,0.0,2023,6,7,12,0,49,930
38.43220,0.00315,0.12897,0.00000,0.02940,0.97502,-0.19496,0.0,2023,6,7,12,0,49,940
38.43230,0.02065,0.05897,0.00000,0.02806,0.97454,-0.19605,0.0,2023,6,7,12,0,49,950
38.43240,0.03815,-0.11603,0.00000,0.02879,0.97527,-0.19813,0.0,2023,6,7,12,0,49,960
38.43250,-0.01435,-0.06353,0.00000,0.02879,0.97405,-0.19557,0.0,2023,6,7,12,0,49,970
38.43260,0.19565,-0.01103,0.00000,0.02745,0.97929,-0.19300,0.0,2023,6,7,12,0,49,980
38.43270,0.07315,-0.06353,0.00000,0.02891,0.97588,-0.19727,0.0,2023,6,7,12,0,49,990
38.43280,-0.17185,-0.06353,0.00000,0.02794,0.97478,-0.19483,0.0,2023,6,7,12,0,49,1000
38.43290,-0.04935,-0.08103,0.00000,0.02830,0.97527,-0.19618,0.0,2023,6,7,12,0,49,10
38.43300,0.00315,-0.09853,0.00000,0.03050,0.97563,-0.19483,0.0,2023,6,7,12,0,49,20
38.43310,-0.08435,-0.06353,0.00000,0.02745,0.97710,-0.19874,0.0,2023,6,7,12,0,49,30
38.43320,0.05565,0.00647,0.00000,0.02879,0.97515,-0.19923,0.0,2023,6,7,12,0,49,40
38.43330,0.12565,0.04147,0.00000,0.02977,0.97441,-0.19654,0.0,2023,6,7,12,0,49,50
38.43340,-0.01435,-0.09853,0.00000,0.02830,0.97502,-0.19703,0.0,2023,6,7,12,0,49,60
38.43350,-0.03185,0.04147,0.00000,0.02806,0.97417,-0.19532,0.0,2023,6,7,12,0,49,70
38.43360,-0.08435,0.11147,0.00000,0.02794,0.97795,-0.19813,0.0,2023,6,7,12,0,49,80
38.43370,-0.11935,0.05897,0.00000,0.02843,0.97673,-0.19630,0.0,2023,6,7,12,0,49,90
38.43380,0.17815,-0.08103,0.00000,0.02843,0.97307,-0.19605,0.0,2023,6,7,12,0,49,100
38.43390,-0.03185,0.05897,0.00000,0.03050,0.97795,-0.19642,0.0,2023,6,7,12,0,49,110
38.43400,0.19565,0.11147,0.00000,0.02721,0.97649,-0.19508,0.0,2023,6,7,12,0,49,120
38.43410,-0.15435,0.04147,0.00000,0.02928,0.97649,-0.19496,0.0,2023,6,7,12,0,49,130
38.43420,-0.01435,-0.09853,0.00000,0.02745,0.97429,-0.19703,0.0,2023,6,7,12,0,49,140
38.43430,0.02065,0.05897,0.00000,0.02708,0.97746,-0.19679,0.0,2023,6,7,12,0,49,150
38.43440,0.02065,0.14647,0.00000,0.02879,0.97649,-0.19593,0.0,2023,6,7,12,0,49,160
38.43450,-0.01435,-0.04603,0.00000,0.02940,0.97295,-0.19605,0.0,2023,6,7,12,0,49,170
38.43460,-0.06685,0.00647,0.00000,0.02611,0.97637,-0.19569,0.0,2023,6,7,12,0,49,180
38.43470,-0.17185,-0.01103,0.00000,0.02708,0.97515,-0.19508,0.0,2023,6,7,12,0,49,190
38.43480,0.09065,-0.23853,0.00000,0.02794,0.97319,-0.19520,0.0,2023,6,7,12,0,49,200
38.43490,0.12565,-0.02853,0.00000,0.02525,0.97502,-0.19788,0.0,2023,6,7,12,0,49,210
38.43500,-0.13685,0.00647,0.00000,0.03013,0.97502,-0.19593,0.0,2023,6,7,12,0,49,220
38.43510,0.05565,-0.08103,0.00000,0.02647,0.97649,-0.19483,0.0,2023,6,7,12,0,49,230
38.43520,-0.11935,0.00647,0.00000,0.02916,0.97539,-0.19740,0.0,2023,6,7,12,0,49,240
38.43530,0.02065,0.02397,0.00000,0.02977,0.97771,-0.19569,0.0,2023,6,7,12,0,49,250
38.43540,-0.22435,0.19897,0.00000,0.02721,0.97649,-0.19679,0.0,2023,6,7,12,0,49,260
38.43550,-0.13685,-0.16853,0.00000,0.02745,0.97393,-0.19544,0.0,2023,6,7,12,0,49,270
38.43560,-0.10185,-0.01103,0.00000,0.02794,0.97624,-0.19947,0.0,2023,6,7,12,0,49,280
38.43570,0.10815,-0.13353,0.00000,0.02940,0.97478,-0.19557,0.0,2023,6,7,12,0,49,290
38.43580,-0.10185,-0.01103,0.00000,0.02574,0.97600,-0.19581,0.0,2023,6,7,12,0,49,300
38.43590,0.19565,0.19897,0.00000,0.02757,0.97551,-0.19520,0.0,2023,6,7,12,0,49,310
38.43600,-0.01435,-0.22103,0.00000,0.03001,0.97576,-0.19593,0.0,2023,6,7,12,0,49,320
38.43610,-0.11935,-0.06353,0.00000,0.02965,0.97734,-0.19752,0.0,2023,6,7,12,0,49,330
38.43620,-0.11935,0.11147,0.00000,0.02806,0.97502,-0.19386,0.0,2023,6,7,12,0,49,340
38.43630,-0.04935,-0.11603,0.00000,0.03013,0.97466,-0.19691,0.0,2023,6,7,12,0,49,350
38.43640,-0.11935,0.04147,0.00000,0.02843,0.97661,-0.19374,0.0,2023,6,7,12,0,49,360
38.43650,-0.03185,0.00647,0.00000,0.02867,0.97441,-0.19630,0.0,2023,6,7,12,0,49,370
38.43660,0.02065,-0.04603,0.00000,0.02879,0.97466,-0.19325,0.0,2023,6,7,12,0,49,380
38.43670,-0.15435,-0.11603,0.00000,0.02806,0.97441,-0.19752,0.0,2023,6,7,12,0,49,390
38.43680,-0.04935,0.07647,0.00000,0.02733,0.97380,-0.19361,0.0,2023,6,7,12,0,49,400
38.43690,-0.10185,-0.11603,0.00000,0.02916,0.97405,-0.19654,0.0,2023,6,7,12,0,49,410
38.43700,-0.01435,-0.02853,0.00000,0.02696,0.97539,-0.19544,0.0,2023,6,7,12,0,49,420
38.43710,0.10815,-0.16853,0.00000,0.02769,0.97197,-0.19544,0.0,2023,6,7,12,0,49,430
38.43720,0.03815,-0.23853,0.00000,0.03038,0.97710,-0.19496,0.0,2023,6,7,12,0,49,440
38.43730,-0.06685,0.07647,0.00000,0.02916,0.97466,-0.19605,0.0,2023,6,7,12,0,49,450
38.43740,-0.10185,-0.09853,0.00000,0.02843,0.97502,-0.19361,0.0,2023,6,7,12,0,49,460
38.43750,-0.17185,0.14647,0.00000,0.02672,0.97734,-0.19544,0.0,2023,6,7,12,0,49,470
38.43760,-0.18935,0.05897,0.00000,0.02794,0.97502,-0.19715,0.0,2023,6,7,12,0,49,480
38.43770,0.00315,-0.18603,0.00000,0.02733,0.97600,-0.19776,0.0,2023,6,7,12,0,49,490
38.43780,-0.13685,-0.18603,0.00000,0.02794,0.97539,-0.19593,0.0,2023,6,7,12,0,49,500
38.43790,0.03815,-0.01103,0.00000,0.02794,0.97539,-0.19496,0.0,2023,6,7,12,0,49,510
38.43800,-0.08435,-0.09853,0.00000,0.02879,0.97783,-0.19435,0.0,2023,6,7,12,0,49,520
38.43810,0.02065,-0.20353,0.00000,0.02867,0.97771,-0.19471,0.0,2023,6,7,12,0,49,530
38.43820,0.05565,-0.11603,0.00000,0.02879,0.97502,-0.19520,0.0,2023,6,7,12,0,49,540
38.43830,0.14315,-0.23853,0.00000,0.02879,0.97588,-0.19557,0.0,2023,6,7,12,0,49,550
38.43840,-0.03185,-0.06353,0.00000,0.02708,0.97673,-0.19630,0.0,2023,6,7,12,0,49,560
38.43850,0.05565,0.09397,0.00000,0.02757,0.97527,-0.19642,0.0,2023,6,7,12,0,49,570
38.43860,-0.11935,0.23397,0.00000,0.03196,0.97673,-0.19349,0.0,2023,6,7,12,0,49,580
38.43870,-0.03185,-0.01103,0.00000,0.02928,0.97380,-0.19618,0.0,2023,6,7,12,0,49,590
38.43880,-0.17185,-0.04603,0.00000,0.03123,0.97429,-0.19447,0.0,2023,6,7,12,0,49,600
38.43890,-0.04935,-0.15103,0.00000,0.02794,0.97600,-0.19654,0.0,2023,6,7,12,0,49,610
38.43900,0.12565,0.00647,0.00000,0.02599,0.97783,-0.19666,0.0,2023,6,7,12,0,49,620
38.43910,0.23065,0.09397,0.00000,0.02769,0.97685,-0.19288,0.0,2023,6,7,12,0,49,630
38.43920,0.02065,-0.01103,0.00000,0.02672,0.97673,-0.19666,0.0,2023,6,7,12,0,49,640
38.43930,-0.24185,-0.23853,0.00000,0.02965,0.97698,-0.19642,0.0,2023,6,7,12,0,49,650
38.43940,0.10815,-0.08103,0.00000,0.02867,0.97466,-0.19544,0.0,2023,6,7,12,0,49,660
38.43950,0.07315,0.16397,0.00000,0.02843,0.97478,-0.19508,0.0,2023,6,7,12,0,49,670
38.43960,0.00315,-0.22103,0.00000,0.02940,0.97478,-0.19361,0.0,2023,6,7,12,0,49,680
38.43970,-0.03185,0.05897,0.00000,0.02635,0.97576,-0.19471,0.0,2023,6,7,12,0,49,690
38.43980,0.14315,-0.11603,0.00000,0.02867,0.97563,-0.19569,0.0,2023,6,7,12,0,49,700
38.43990,-0.01435,-0.11603,0.00000,0.02916,0.97466,-0.19398,0.0,2023,6,7,12,0,49,710
38.44000,0.40565,-0.39603,0.00000,0.03001,0.97588,-0.19654,0.0,2023,6,7,12,0,49,720
38.44010,-0.06685,0.07647,0.00000,0.03038,0.97698,-0.19618,0.0,2023,6,7,12,0,49,730
38.44020,-0.20685,0.16397,0.00000,0.02708,0.97722,-0.19776,0.0,2023,6,7,12,0,49,740
38.44030,-0.11935,0.12897,0.00000,0.02757,0.97612,-0.19471,0.0,2023,6,7,12,0,49,750
38.44040,-0.06685,-0.08103,0.00000,0.02965,0.97466,-0.19361,0.0,2023,6,7,12,0,49,760
38.44050,-0.01435,0.04147,0.00000,0.02696,0.97405,-0.19361,0.0,2023,6,7,12,0,49,770
38.44060,0.02065,0.07647,0.00000,0.02757,0.97551,-0.19496,0.0,2023,6,7,12,0,49,780
38.44070,0.14315,-0.23853,0.00000,0.03001,0.97844,-0.19569,0.0,2023,6,7,12,0,49,790
38.44080,-0.08435,0.07647,0.00000,0.02879,0.97624,-0.19496,0.0,2023,6,7,12,0,49,800
38.44090,-0.20685,0.23397,0.00000,0.02952,0.97417,-0.19496,0.0,2023,6,7,12,0,49,810
38.44100,-0.10185,-0.29103,0.00000,0.02904,0.97576,-0.19727,0.0,2023,6,7,12,0,49,820
38.44110,0.00315,-0.09853,0.00000,0.02965,0.97637,-0.19532,0.0,2023,6,7,12,0,49,830
38.44120,0.03815,0.12897,0.00000,0.02794,0.97698,-0.19618,0.0,2023,6,7,12,0,49,840
38.44130,-0.03185,0.04147,0.00000,0.02599,0.97502,-0.19715,0.0,2023,6,7,12,0,49,850
38.44140,-0.25935,-0.01103,0.00000,0.02769,0.97551,-0.19459,0.0,2023,6,7,12,0,49,860
38.44150,-0.18935,0.11147,0.00000,0.02879,0.97527,-0.19264,0.0,2023,6,7,12,0,49,870
38.44160,-0.08435,0.12897,0.00000,0.02794,0.97661,-0.19618,0.0,2023,6,7,12,0,49,880
38.44170,-0.10185,-0.01103,0.00000,0.02599,0.97722,-0.19813,0.0,2023,6,7,12,0,49,890
38.44180,-0.03185,-0.04603,0.00000,0.02684,0.97649,-0.19630,0.0,2023,6,7,12,0,49,900
38.44190,0.26565,-0.09853,0.00000,0.02721,0.97417,-0.19544,0.0,2023,6,7,12,0,49,910
38.44200,-0.06685,-0.09853,0.00000,0.02818,0.97368,-0.19520,0.0,2023,6,7,12,0,49,920
38.44210,-0.08435,0.05897,0.00000,0.02769,0.97600,-0.19520,0.0,2023,6,7,12,0,49,930
38.44220,0.17815,-0.06353,0.00000,0.02782,0.97356,-0.19593,0.0,2023,6,7,12,0,49,940
38.44230,-0.08435,0.07647,0.00000,0.02891,0.97332,-0.19605,0.0,2023,6,7,12,0,49,950
38.44240,-0.06685,0.19897,0.00000,0.02965,0.97685,-0.19435,0.0,2023,6,7,12,0,49,960
38.44250,-0.20685,0.04147,0.00000,0.02879,0.97612,-0.19520,0.0,2023,6,7,12,0,49,970
38.44260,-0.03185,-0.01103,0.00000,0.02965,0.97698,-0.19618,0.0,2023,6,7,12,0,49,980
38.44270,-0.08435,0.04147,0.00000,0.02782,0.97441,-0.19313,0.0,2023,6,7,12,0,49,990
38.44280,-0.10185,0.05897,0.00000,0.02806,0.97685,-0.19874,0.0,2023,6,7,12,0,49,1000
38.44290,-0.01435,-0.04603,0.00000,0.02843,0.97356,-0.19666,0.0,2023,6,7,12,0,49,10
38.44300,0.02065,-0.06353,0.00000,0.03050,0.97478,-0.19874,0.0,2023,6,7,12,0,49,20
38.44310,-0.10185,0.04147,0.00000,0.02782,0.97771,-0.19532,0.0,2023,6,7,12,0,49,30
38.44320,0.05565,-0.20353,0.00000,0.02562,0.97624,-0.19764,0.0,2023,6,7,12,0,49,40
38.44330,0.09065,-0.15103,0.00000,0.02952,0.97527,-0.19691,0.0,2023,6,7,12,0,49,50
38.44340,-0.10185,0.02397,0.00000,0.02830,0.97563,-0.19557,0.0,2023,6,7,12,0,49,60
38.44350,-0.03185,-0.06353,0.00000,0.02769,0.97307,-0.19374,0.0,2023,6,7,12,0,49,70
38.44360,-0.15435,0.02397,0.00000,0.02635,0.97795,-0.19435,0.0,2023,6,7,12,0,49,80
38.44370,-0.06685,-0.09853,0.00000,0.02708,0.97600,-0.19764,0.0,2023,6,7,12,0,49,90
38.44380,0.10815,-0.16853,0.00000,0.02757,0.97661,-0.19642,0.0,2023,6,7,12,0,49,100
38.44390,-0.15435,-0.11603,0.00000,0.02806,0.97454,-0.19349,0.0,2023,6,7,12,0,49,110
38.44400,-0.08435,0.04147,0.00000,0.02806,0.97600,-0.19435,0.0,2023,6,7,12,0,49,120
38.44410,0.10815,-0.08103,0.00000,0.02940,0.97563,-0.19642,0.0,2023,6,7,12,0,49,130
38.44420,-0.01435,0.02397,0.00000,0.03001,0.97649,-0.19520,0.0,2023,6,7,12,0,49,140
38.44430,0.07315,0.07647,0.00000,0.02696,0.97661,-0.19679,0.0,2023,6,7,12,0,49,150
38.44440,-0.04935,-0.23853,0.00000,0.02647,0.97185,-0.19044,0.0,2023,6,7,12,0,49,160
38.44450,-0.03185,0.02397,0.00000,0.02794,0.97600,-0.19496,0.0,2023,6,7,12,0,49,170
38.44460,0.05565,0.14647,0.00000,0.02843,0.97685,-0.19496,0.0,2023,6,7,12,0,49,180
38.44470,-0.03185,-0.30853,0.00000,0.02891,0.97539,-0.19740,0.0,2023,6,7,12,0,49,190
38.44480,0.05565,-0.08103,0.00000,0.02989,0.97722,-0.19605,0.0,2023,6,7,12,0,49,200
38.44490,0.12565,0.14647,0.00000,0.02843,0.97466,-0.19581,0.0,2023,6,7,12,0,49,210
38.44500,0.02065,0.11147,0.00000,0.02904,0.97466,-0.19642,0.0,2023,6,7,12,0,49,220
38.44510,-0.08435,0.09397,0.00000,0.02757,0.97551,-0.19630,0.0,2023,6,7,12,0,49,230
38.44520,0.12565,0.00647,0.00000,0.02782,0.97490,-0.19898,0.0,2023,6,7,12,0,49,240
38.44530,-0.13685,0.28647,0.00000,0.02782,0.97222,-0.19422,0.0,2023,6,7,12,0,49,250
38.44540,0.07315,-0.09853,0.00000,0.02855,0.97746,-0.19642,0.0,2023,6,7,12,0,49,260
38.44550,0.12565,-0.04603,0.00000,0.02855,0.97478,-0.19788,0.0,2023,6,7,12,0,49,270
38.44560,0.10815,-0.06353,0.00000,0.02916,0.97454,-0.19679,0.0,2023,6,7,12,0,49,280
38.44570,0.03815,-0.02853,0.00000,0.02769,0.97527,-0.19544,0.0,2023,6,7,12,0,49,290
38.44580,0.10815,-0.11603,0.00000,0.03026,0.97344,-0.19459,0.0,2023,6,7,12,0,49,300
38.44590,-0.13685,0.02397,0.00000,0.02940,0.97551,-0.19557,0.0,2023,6,7,12,0,49,310
38.44600,-0.01435,0.00647,0.00000,0.02879,0.97685,-0.19520,0.0,2023,6,7,12,0,49,320
38.44610,0.09065,-0.01103,0.00000,0.02550,0.97454,-0.19508,0.0,2023,6,7,12,0,49,330
38.44620,0.07315,-0.01103,0.00000,0.02916,0.97515,-0.19630,0.0,2023,6,7,12,0,49,340
38.44630,0.03815,-0.02853,0.00000,0.02952,0.97649,-0.19752,0.0,2023,6,7,12,0,49,350
38.44640,0.24815,-0.11603,0.00000,0.02684,0.97588,-0.19642,0.0,2023,6,7,12,0,49,360
38.44650,0.17815,0.09397,0.00000,0.03099,0.97820,-0.19666,0.0,2023,6,7,12,0,49,370
38.44660,0.16065,-0.11603,0.00000,0.02940,0.97417,-0.19374,0.0,2023,6,7,12,0,49,380
38.44670,0.03815,0.04147,0.00000,0.02818,0.97417,-0.19483,0.0,2023,6,7,12,0,49,390
38.44680,0.10815,-0.20353,0.00000,0.02623,0.97551,-0.19544,0.0,2023,6,7,12,0,49,400
38.44690,0.09065,-0.06353,0.00000,0.02818,0.97734,-0.19691,0.0,2023,6,7,12,0,49,410
38.44700,-0.01435,-0.09853,0.00000,0.02806,0.97698,-0.19557,0.0,2023,6,7,12,0,49,420
38.44710,-0.04935,0.07647,0.00000,0.02830,0.97466,-0.19569,0.0,2023,6,7,12,0,49,430
38.44720,-0.22435,0.19897,0.00000,0.02830,0.97539,-0.19593,0.0,2023,6,7,12,0,49,440
38.44730,-0.08435,-0.09853,0.00000,0.02769,0.97637,-0.19764,0.0,2023,6,7,12,0,49,450
38.44740,0.03815,0.19897,0.00000,0.03062,0.97685,-0.19605,0.0,2023,6,7,12,0,49,460
38.44750,-0.10185,-0.06353,0.00000,0.02843,0.97698,-0.19483,0.0,2023,6,7,12,0,49,470
38.44760,0.12565,0.07647,0.00000,0.02879,0.97490,-0.19459,0.0,2023,6,7,12,0,49,480
38.44770,0.02065,0.00647,0.00000,0.02733,0.97307,-0.19557,0.0,2023,6,7,12,0,49,490
38.44780,-0.13685,0.04147,0.00000,0.02757,0.97539,-0.19666,0.0,2023,6,7,12,0,49,500
38.44790,-0.15435,0.12897,0.00000,0.02989,0.97441,-0.19337,0.0,2023,6,7,12,0,49,510
38.44800,-0.18935,0.21647,0.00000,0.02660,0.97649,-0.19374,0.0,2023,6,7,12,0,49,520
38.44810,-0.17185,-0.11603,0.00000,0.02891,0.97746,-0.19544,0.0,2023,6,7,12,0,49,530
38.44820,0.09065,0.16397,0.00000,0.02867,0.97332,-0.19532,0.0,2023,6,7,12,0,49,540
38.44830,-0.13685,0.02397,0.00000,0.03050,0.97502,-0.19422,0.0,2023,6,7,12,0,49,550
38.44840,-0.11935,-0.13353,0.00000,0.02769,0.97576,-0.19666,0.0,2023,6,7,12,0,49,560
38.44850,-0.03185,0.18147,0.00000,0.02879,0.97722,-0.19520,0.0,2023,6,7,12,0,49,570
38.44860,0.09065,-0.08103,0.00000,0.03038,0.97454,-0.19496,0.0,2023,6,7,12,0,49,580
38.44870,-0.11935,0.00647,0.00000,0.02733,0.97478,-0.19593,0.0,2023,6,7,12,0,49,590
38.44880,-0.10185,0.14647,0.00000,0.02562,0.97417,-0.19374,0.0,2023,6,7,12,0,49,600
38.44890,-0.06685,-0.09853,0.00000,0.02696,0.97734,-0.19471,0.0,2023,6,7,12,0,49,610
38.44900,0.17815,0.04147,0.00000,0.02733,0.97539,-0.19618,0.0,2023,6,7,12,0,49,620
38.44910,-0.03185,-0.02853,0.00000,0.02843,0.97673,-0.19508,0.0,2023,6,7,12,0,49,630
38.44920,0.03815,-0.09853,0.00000,0.02965,0.97600,-0.19386,0.0,2023,6,7,12,0,49,640
38.44930,-0.22435,0.11147,0.00000,0.03050,0.97527,-0.19386,0.0,2023,6,7,12,0,49,650
38.44940,-0.15435,-0.08103,0.00000,0.02879,0.97771,-0.19508,0.0,2023,6,7,12,0,49,660
38.44950,0.05565,-0.04603,0.00000,0.02708,0.97478,-0.19593,0.0,2023,6,7,12,0,49,670
38.44960,0.02065,0.07647,0.00000,0.02660,0.97576,-0.19630,0.0,2023,6,7,12,0,49,680
38.44970,-0.04935,0.16397,0.00000,0.02830,0.97563,-0.19569,0.0,2023,6,7,12,0,49,690
38.44980,-0.11935,0.00647,0.00000,0.03050,0.97454,-0.19483,0.0,2023,6,7,12,0,49,700
38.44990,0.07315,-0.18603,0.00000,0.02989,0.97624,-0.19447,0.0,2023,6,7,12,0,49,710
38.45000,0.21315,-0.02853,0.00000,0.03038,0.97868,-0.19447,0.0,2023,6,7,12,0,49,720
38.45010,0.10815,0.09397,0.00000,0.02867,0.97661,-0.19764,0.0,2023,6,7,12,0,49,730
38.45020,-0.01435,-0.04603,0.00000,0.02904,0.97832,-0.19349,0.0,2023,6,7,12,0,49,740
38.45030,0.17815,-0.01103,0.00000,0.02794,0.97563,-0.19410,0.0,2023,6,7,12,0,49,750
38.45040,-0.13685,-0.04603,0.00000,0.02794,0.97551,-0.19557,0.0,2023,6,7,12,0,49,760
38.45050,0.00315,-0.11603,0.00000,0.02611,0.97319,-0.19410,0.0,2023,6,7,12,0,50,770
38.45060,0.03815,0.02397,0.00000,0.02843,0.97441,-0.19581,0.0,2023,6,7,12,0,50,780
38.45070,-0.08435,-0.08103,0.00000,0.02769,0.97551,-0.19496,0.0,2023,6,7,12,0,50,790
38.45080,0.02065,-0.08103,0.00000,0.02928,0.97429,-0.19618,0.0,2023,6,7,12,0,50,800
38.45090,-0.06685,-0.06353,0.00000,0.02879,0.97478,-0.19166,0.0,2023,6,7,12,0,50,810
38.45100,0.05565,0.05897,0.00000,0.02769,0.97490,-0.19422,0.0,2023,6,7,12,0,50,820
38.45110,-0.01435,-0.01103,0.00000,0.02672,0.97795,-0.19398,0.0,2023,6,7,12,0,50,830
38.45120,-0.04935,-0.09853,0.00000,0.02757,0.97356,-0.19630,0.0,2023,6,7,12,0,50,840
38.45130,-0.15435,0.25147,0.00000,0.03111,0.97722,-0.19593,0.0,2023,6,7,12,0,50,850
38.45140,-0.13685,0.05897,0.00000,0.03026,0.97466,-0.19374,0.0,2023,6,7,12,0,50,860
38.45150,-0.11935,-0.09853,0.00000,0.02769,0.97685,-0.19520,0.0,2023,6,7,12,0,50,870
38.45160,0.03815,0.02397,0.00000,0.02696,0.97710,-0.19447,0.0,2023,6,7,12,0,50,880
38.45170,-0.03185,-0.02853,0.00000,0.02769,0.97637,-0.19410,0.0,2023,6,7,12,0,50,890
38.45180,0.05565,-0.09853,0.00000,0.02708,0.97649,-0.19459,0.0,2023,6,7,12,0,50,900
38.45190,0.07315,-0.22103,0.00000,0.02830,0.97661,-0.19581,0.0,2023,6,7,12,0,50,910
38.45200,-0.13685,-0.09853,0.00000,0.02904,0.97734,-0.19618,0.0,2023,6,7,12,0,50,920
38.45210,-0.01435,0.14647,0.00000,0.03013,0.97624,-0.19361,0.0,2023,6,7,12,0,50,930
38.45220,-0.06685,-0.09853,0.00000,0.02843,0.97441,-0.19508,0.0,2023,6,7,12,0,50,940
38.45230,-0.06685,0.02397,0.00000,0.02843,0.97685,-0.19593,0.0,2023,6,7,12,0,50,950
38.45240,-0.03185,-0.02853,0.00000,0.03013,0.97624,-0.19313,0.0,2023,6,7,12,0,50,960
38.45250,0.03815,0.14647,0.00000,0.02879,0.97466,-0.19496,0.0,2023,6,7,12,0,50,970
38.45260,0.14315,0.02397,0.00000,0.02855,0.97649,-0.19666,0.0,2023,6,7,12,0,50,980
38.45270,0.03815,-0.13353,0.00000,0.02708,0.97454,-0.19593,0.0,2023,6,7,12,0,50,990
38.45280,0.02065,-0.20353,0.00000,0.02843,0.97551,-0.19398,0.0,2023,6,7,12,0,50,1000
38.45290,0.24815,-0.39603,0.00000,0.02952,0.97576,-0.19398,0.0,2023,6,7,12,0,50,10
38.45300,0.03815,-0.11603,0.00000,0.02599,0.97649,-0.19349,0.0,2023,6,7,12,0,50,20
38.45310,-0.01435,0.00647,0.00000,0.02684,0.97466,-0.19764,0.0,2023,6,7,12,0,50,30
38.45320,-0.04935,0.04147,0.00000,0.02867,0.97478,-0.19410,0.0,2023,6,7,12,0,50,40
38.45330,0.02065,0.07647,0.00000,0.03074,0.97551,-0.19349,0.0,2023,6,7,12,0,50,50
38.45340,-0.04935,0.05897,0.00000,0.02818,0.97478,-0.19483,0.0,2023,6,7,12,0,50,60
38.45350,0.03815,0.02397,0.00000,0.02843,0.97759,-0.19459,0.0,2023,6,7,12,0,50,70
38.45360,0.12565,-0.06353,0.00000,0.02574,0.97588,-0.19386,0.0,2023,6,7,12,0,50,80
38.45370,0.02065,0.00647,0.00000,0.02708,0.97539,-0.19361,0.0,2023,6,7,12,0,50,90
38.45380,0.05565,0.07647,0.00000,0.02855,0.97576,-0.19471,0.0,2023,6,7,12,0,50,100
38.45390,0.09065,-0.11603,0.00000,0.02757,0.97393,-0.19605,0.0,2023,6,7,12,0,50,110
38.45400,0.17815,0.02397,0.00000,0.02952,0.97454,-0.19557,0.0,2023,6,7,12,0,50,120
38.45410,0.02065,-0.18603,0.00000,0.02940,0.97515,-0.19703,0.0,2023,6,7,12,0,50,130
38.45420,-0.04935,-0.15103,0.00000,0.02745,0.97539,-0.19374,0.0,2023,6,7,12,0,50,140
38.45430,0.02065,-0.22103,0.00000,0.02525,0.97466,-0.19642,0.0,2023,6,7,12,0,50,150
38.45440,-0.01435,0.16397,0.00000,0.02623,0.97417,-0.19557,0.0,2023,6,7,12,0,50,160
38.45450,-0.04935,0.09397,0.00000,0.02916,0.97588,-0.19422,0.0,2023,6,7,12,0,50,170
38.45460,0.03815,-0.02853,0.00000,0.02769,0.97539,-0.19520,0.0,2023,6,7,12,0,50,180
38.45470,0.09065,-0.18603,0.00000,0.02843,0.97588,-0.19557,0.0,2023,6,7,12,0,50,190
38.45480,0.09065,0.02397,0.00000,0.02757,0.97661,-0.19483,0.0,2023,6,7,12,0,50,200
38.45490,-0.11935,-0.04603,0.00000,0.02843,0.97722,-0.19557,0.0,2023,6,7,12,0,50,210
38.45500,0.03815,-0.09853,0.00000,0.02830,0.97466,-0.19361,0.0,2023,6,7,12,0,50,220
38.45510,0.02065,-0.25603,0.00000,0.02782,0.97807,-0.19435,0.0,2023,6,7,12,0,50,230
38.45520,-0.10185,0.14647,0.00000,0.02977,0.97624,-0.19727,0.0,2023,6,7,12,0,50,240
38.45530,0.02065,-0.01103,0.00000,0.02806,0.97405,-0.19630,0.0,2023,6,7,12,0,50,250
38.45540,0.19565,0.09397,0.00000,0.02928,0.97637,-0.19410,0.0,2023,6,7,12,0,50,260
38.45550,-0.01435,0.04147,0.00000,0.02818,0.97673,-0.19435,0.0,2023,6,7,12,0,50,270
38.45560,0.07315,0.00647,0.00000,0.02769,0.97551,-0.19691,0.0,2023,6,7,12,0,50,280
38.45570,0.14315,-0.02853,0.00000,0.02904,0.97576,-0.19581,0.0,2023,6,7,12,0,50,290
38.45580,0.00315,0.04147,0.00000,0.02721,0.97478,-0.19520,0.0,2023,6,7,12,0,50,300
38.45590,0.03815,0.12897,0.00000,0.02855,0.97820,-0.19496,0.0,2023,6,7,12,0,50,310
38.45600,0.05565,0.09397,0.00000,0.02843,0.97551,-0.19459,0.0,2023,6,7,12,0,50,320
38.45610,0.03815,0.11147,0.00000,0.02891,0.97661,-0.19520,0.0,2023,6,7,12,0,50,330
38.45620,-0.08435,0.07647,0.00000,0.03038,0.97539,-0.19703,0.0,2023,6,7,12,0,50,340
38.45630,-0.10185,0.16397,0.00000,0.02818,0.97368,-0.19313,0.0,2023,6,7,12,0,50,350
38.45640,0.10815,-0.09853,0.00000,0.02855,0.97478,-0.19349,0.0,2023,6,7,12,0,50,360
38.45650,-0.01435,-0.13353,0.00000,0.02855,0.97661,-0.19654,0.0,2023,6,7,12,0,50,370
38.45660,0.00315,-0.04603,0.00000,0.02818,0.97576,-0.19642,0.0,2023,6,7,12,0,50,380
38.45670,-0.11935,-0.01103,0.00000,0.02965,0.97380,-0.19459,0.0,2023,6,7,12,0,50,390
38.45680,-0.03185,-0.16853,0.00000,0.02977,0.97685,-0.19398,0.0,2023,6,7,12,0,50,400
38.45690,0.03815,-0.15103,0.00000,0.02879,0.97698,-0.19544,0.0,2023,6,7,12,0,50,410
38.45700,-0.41685,-0.02853,0.00000,0.02647,0.97624,-0.19447,0.0,2023,6,7,12,0,50,420
38.45710,0.09065,0.11147,0.00000,0.02855,0.97515,-0.19422,0.0,2023,6,7,12,0,50,430
38.45720,0.02065,-0.16853,0.00000,0.02745,0.97490,-0.19313,0.0,2023,6,7,12,0,50,440
38.45730,-0.06685,0.19897,0.00000,0.02989,0.97685,-0.19581,0.0,2023,6,7,12,0,50,450
38.45740,0.07315,-0.15103,0.00000,0.02745,0.97673,-0.19569,0.0,2023,6,7,12,0,50,460
38.45750,0.24815,-0.20353,0.00000,0.02904,0.97466,-0.19581,0.0,2023,6,7,12,0,50,470
38.45760,0.05565,0.04147,0.00000,0.02586,0.97649,-0.19410,0.0,2023,6,7,12,0,50,480
38.45770,-0.15435,0.02397,0.00000,0.02757,0.97515,-0.19715,0.0,2023,6,7,12,0,50,490
38.45780,0.12565,0.09397,0.00000,0.02904,0.97454,-0.19581,0.0,2023,6,7,12,0,50,500
38.45790,0.05565,0.02397,0.00000,0.02843,0.97673,-0.19557,0.0,2023,6,7,12,0,50,510
38.45800,0.09065,-0.13353,0.00000,0.02806,0.97527,-0.19313,0.0,2023,6,7,12,0,50,520
38.45810,-0.08435,-0.02853,0.00000,0.03013,0.97466,-0.19288,0.0,2023,6,7,12,0,50,530
38.45820,0.07315,0.04147,0.00000,0.02965,0.97783,-0.19593,0.0,2023,6,7,12,0,50,540
38.45830,-0.08435,0.05897,0.00000,0.03050,0.97380,-0.19532,0.0,2023,6,7,12,0,50,550
38.45840,0.03815,0.05897,0.00000,0.02916,0.97515,-0.19776,0.0,2023,6,7,12,0,50,560
38.45850,-0.13685,0.02397,0.00000,0.03087,0.97685,-0.19422,0.0,2023,6,7,12,0,50,570
38.45860,-0.01435,0.04147,0.00000,0.02769,0.97417,-0.19264,0.0,2023,6,7,12,0,50,580
38.45870,-0.20685,0.23397,0.00000,0.02891,0.97539,-0.19642,0.0,2023,6,7,12,0,50,590
38.45880,0.10815,-0.15103,0.00000,0.02855,0.97454,-0.19666,0.0,2023,6,7,12,0,50,600
38.45890,-0.27685,0.04147,0.00000,0.02891,0.97783,-0.19459,0.0,2023,6,7,12,0,50,610
38.45900,0.03815,-0.27353,0.00000,0.02989,0.97515,-0.19630,0.0,2023,6,7,12,0,50,620
38.45910,0.05565,-0.22103,0.00000,0.02904,0.97795,-0.19520,0.0,2023,6,7,12,0,50,630
38.45920,0.02065,0.05897,0.00000,0.02904,0.97527,-0.19447,0.0,2023,6,7,12,0,50,640
38.45930,-0.08435,-0.02853,0.00000,0.02818,0.97478,-0.19679,0.0,2023,6,7,12,0,50,650
38.45940,-0.06685,0.07647,0.00000,0.02672,0.97637,-0.19471,0.0,2023,6,7,12,0,50,660
38.45950,0.07315,0.09397,0.00000,0.02965,0.97466,-0.19874,0.0,2023,6,7,12,0,50,670
38.45960,0.09065,0.07647,0.00000,0.02965,0.97515,-0.19471,0.0,2023,6,7,12,0,50,680
38.45970,-0.04935,0.09397,0.00000,0.03111,0.97393,-0.19557,0.0,2023,6,7,12,0,50,690
38.45980,-0.03185,-0.08103,0.00000,0.02879,0.97820,-0.19666,0.0,2023,6,7,12,0,50,700
38.45990,0.02065,0.16397,0.00000,0.02830,0.97637,-0.19727,0.0,2023,6,7,12,0,50,710
38.46000,-0.13685,-0.04603,0.00000,0.02745,0.97600,-0.19252,0.0,2023,6,7,12,0,50,720
38.46010,0.17815,-0.18603,0.00000,0.02550,0.97588,-0.19532,0.0,2023,6,7,12,0,50,730
38.46020,-0.03185,0.00647,0.00000,0.02843,0.97771,-0.19508,0.0,2023,6,7,12,0,50,740
38.46030,0.03815,-0.06353,0.00000,0.02904,0.97393,-0.19496,0.0,2023,6,7,12,0,50,750
38.46040,0.07315,0.18147,0.00000,0.03038,0.97710,-0.19679,0.0,2023,6,7,12,0,50,760
38.46050,-0.01435,0.00647,0.00000,0.02708,0.97502,-0.19605,0.0,2023,6,7,12,0,50,770
38.46060,-0.03185,-0.11603,0.00000,0.02721,0.97563,-0.19569,0.0,2023,6,7,12,0,50,780
38.46070,-0.06685,-0.01103,0.00000,0.02672,0.97515,-0.19654,0.0,2023,6,7,12,0,50,790
38.46080,-0.15435,0.16397,0.00000,0.02769,0.97600,-0.19837,0.0,2023,6,7,12,0,50,800
38.46090,-0.08435,0.02397,0.00000,0.02843,0.97502,-0.19727,0.0,2023,6,7,12,0,50,810
38.46100,0.05565,-0.02853,0.00000,0.02891,0.97673,-0.19520,0.0,2023,6,7,12,0,50,820
38.46110,-0.10185,0.05897,0.00000,0.02696,0.97685,-0.19508,0.0,2023,6,7,12,0,50,830
38.46120,-0.06685,0.00647,0.00000,0.02782,0.97368,-0.19825,0.0,2023,6,7,12,0,50,840
38.46130,0.00315,-0.18603,0.00000,0.02891,0.97380,-0.19508,0.0,2023,6,7,12,0,50,850
38.46140,0.10815,-0.08103,0.00000,0.02843,0.97405,-0.19422,0.0,2023,6,7,12,0,50,860
38.46150,-0.17185,0.02397,0.00000,0.02745,0.97673,-0.19605,0.0,2023,6,7,12,0,50,870
38.46160,-0.01435,0.05897,0.00000,0.02794,0.97649,-0.19471,0.0,2023,6,7,12,0,50,880
38.46170,0.10815,-0.18603,0.00000,0.02867,0.97490,-0.19691,0.0,2023,6,7,12,0,50,890
38.46180,-0.17185,-0.18603,0.00000,0.02745,0.97417,-0.19520,0.0,2023,6,7,12,0,50,900
38.46190,0.00315,0.09397,0.00000,0.02879,0.97502,-0.19788,0.0,2023,6,7,12,0,50,910
38.46200,0.05565,-0.06353,0.00000,0.02843,0.97649,-0.19813,0.0,2023,6,7,12,0,50,920
38.46210,0.14315,0.00647,0.00000,0.02891,0.97820,-0.19496,0.0,2023,6,7,12,0,50,930
38.46220,0.02065,-0.01103,0.00000,0.02916,0.97319,-0.19679,0.0,2023,6,7,12,0,50,940
38.46230,-0.03185,0.07647,0.00000,0.02989,0.97551,-0.19642,0.0,2023,6,7,12,0,50,950
38.46240,0.02065,-0.06353,0.00000,0.02879,0.97295,-0.19508,0.0,2023,6,7,12,0,50,960
38.46250,0.23065,-0.11603,0.00000,0.02830,0.97673,-0.19557,0.0,2023,6,7,12,0,50,970
38.46260,0.14315,-0.06353,0.00000,0.02891,0.97698,-0.19679,0.0,2023,6,7,12,0,50,980
38.46270,-0.06685,-0.09853,0.00000,0.02684,0.97612,-0.19532,0.0,2023,6,7,12,0,50,990
38.46280,-0.03185,-0.01103,0.00000,0.02977,0.97783,-0.19410,0.0,2023,6,7,12,0,50,1000
38.46290,-0.08435,0.12897,0.00000,0.02891,0.97490,-0.19435,0.0,2023,6,7,12,0,50,10
38.46300,0.05565,0.05897,0.00000,0.02867,0.97539,-0.19557,0.0,2023,6,7,12,0,50,20
38.46310,0.12565,-0.15103,0.00000,0.02989,0.97673,-0.19483,0.0,2023,6,7,12,0,50,30
38.46320,0.03815,-0.02853,0.00000,0.02940,0.97685,-0.19666,0.0,2023,6,7,12,0,50,40
38.46330,-0.17185,0.26897,0.00000,0.02940,0.97466,-0.19654,0.0,2023,6,7,12,0,50,50
38.46340,-0.06685,0.00647,0.00000,0.02782,0.97332,-0.19593,0.0,2023,6,7,12,0,50,60
38.46350,0.09065,-0.22103,0.00000,0.02928,0.97624,-0.19557,0.0,2023,6,7,12,0,50,70
38.46360,0.03815,-0.22103,0.00000,0.02745,0.97771,-0.19630,0.0,2023,6,7,12,0,50,80
38.46370,0.02065,0.04147,0.00000,0.02843,0.97527,-0.19666,0.0,2023,6,7,12,0,50,90
38.46380,0.14315,-0.13353,0.00000,0.02660,0.97539,-0.19654,0.0,2023,6,7,12,0,50,100
38.46390,0.07315,-0.15103,0.00000,0.02672,0.97161,-0.19581,0.0,2023,6,7,12,0,50,110
38.46400,-0.11935,0.09397,0.00000,0.02916,0.97576,-0.19410,0.0,2023,6,7,12,0,50,120
38.46410,0.14315,-0.08103,0.00000,0.02916,0.97673,-0.19532,0.0,2023,6,7,12,0,50,130
38.46420,-0.06685,0.25147,0.00000,0.02843,0.97624,-0.19971,0.0,2023,6,7,12,0,50,140
38.46430,-0.01435,-0.01103,0.00000,0.02611,0.97563,-0.19618,0.0,2023,6,7,12,0,50,150
38.46440,-0.06685,0.16397,0.00000,0.02794,0.97466,-0.19276,0.0,2023,6,7,12,0,50,160
38.46450,0.03815,-0.02853,0.00000,0.02721,0.97661,-0.19691,0.0,2023,6,7,12,0,50,170
38.46460,-0.06685,0.12897,0.00000,0.03038,0.97563,-0.19862,0.0,2023,6,7,12,0,50,180
38.46470,-0.13685,-0.02853,0.00000,0.02782,0.97563,-0.19508,0.0,2023,6,7,12,0,50,190
38.46480,0.09065,0.11147,0.00000,0.02733,0.97527,-0.19520,0.0,2023,6,7,12,0,50,200
38.46490,-0.27685,0.12897,0.00000,0.02757,0.97771,-0.19544,0.0,2023,6,7,12,0,50,210
38.46500,0.02065,0.19897,0.00000,0.02867,0.97478,-0.19508,0.0,2023,6,7,12,0,50,220
38.46510,-0.03185,-0.11603,0.00000,0.02794,0.97429,-0.19386,0.0,2023,6,7,12,0,50,230
38.46520,0.19565,-0.11603,0.00000,0.03087,0.97649,-0.19520,0.0,2023,6,7,12,0,50,240
38.46530,0.00315,-0.02853,0.00000,0.02855,0.97771,-0.19422,0.0,2023,6,7,12,0,50,250
38.46540,0.05565,0.07647,0.00000,0.02867,0.97795,-0.19557,0.0,2023,6,7,12,0,50,260
38.46550,-0.08435,-0.15103,0.00000,0.02757,0.97307,-0.19398,0.0,2023,6,7,12,0,50,270
38.46560,0.03815,0.04147,0.00000,0.02794,0.97368,-0.19679,0.0,2023,6,7,12,0,50,280
38.46570,0.05565,-0.23853,0.00000,0.02879,0.97588,-0.19471,0.0,2023,6,7,12,0,50,290
38.46580,-0.08435,0.09397,0.00000,0.02708,0.97527,-0.19837,0.0,2023,6,7,12,0,50,300
38.46590,-0.04935,0.16397,0.00000,0.02782,0.97515,-0.19496,0.0,2023,6,7,12,0,50,310
38.46600,-0.01435,-0.01103,0.00000,0.03099,0.97539,-0.19349,0.0,2023,6,7,12,0,50,320
38.46610,-0.08435,-0.06353,0.00000,0.02916,0.97685,-0.19532,0.0,2023,6,7,12,0,50,330
38.46620,-0.01435,-0.06353,0.00000,0.03026,0.97698,-0.19581,0.0,2023,6,7,12,0,50,340
38.46630,-0.06685,-0.01103,0.00000,0.02830,0.97454,-0.19191,0.0,2023,6,7,12,0,50,350
38.46640,0.21315,0.23397,0.00000,0.02757,0.97429,-0.19520,0.0,2023,6,7,12,0,50,360
38.46650,0.03815,0.16397,0.00000,0.02769,0.97746,-0.19666,0.0,2023,6,7,12,0,50,370
38.46660,-0.15435,0.25147,0.00000,0.02757,0.97771,-0.19532,0.0,2023,6,7,12,0,50,380
38.46670,-0.08435,0.00647,0.00000,0.02879,0.97539,-0.19215,0.0,2023,6,7,12,0,50,390
38.46680,-0.13685,0.30397,0.00000,0.03013,0.97527,-0.19703,0.0,2023,6,7,12,0,50,400
38.46690,0.12565,-0.04603,0.00000,0.02794,0.97844,-0.19471,0.0,2023,6,7,12,0,50,410
38.46700,0.05565,0.02397,0.00000,0.02952,0.97698,-0.19825,0.0,2023,6,7,12,0,50,420
38.46710,-0.20685,0.12897,0.00000,0.02855,0.97527,-0.19496,0.0,2023,6,7,12,0,50,430
38.46720,0.03815,0.09397,0.00000,0.02977,0.97600,-0.19288,0.0,2023,6,7,12,0,50,440
38.46730,-0.11935,0.04147,0.00000,0.02733,0.97478,-0.19483,0.0,2023,6,7,12,0,50,450
38.46740,-0.04935,-0.11603,0.00000,0.02977,0.97576,-0.19776,0.0,2023,6,7,12,0,50,460
38.46750,0.05565,-0.09853,0.00000,0.02684,0.97710,-0.19630,0.0,2023,6,7,12,0,50,470
38.46760,-0.15435,0.02397,0.00000,0.02952,0.97661,-0.19532,0.0,2023,6,7,12,0,50,480
38.46770,-0.08435,-0.06353,0.00000,0.02928,0.97527,-0.19410,0.0,2023,6,7,12,0,50,490
38.46780,-0.11935,-0.08103,0.00000,0.02879,0.97673,-0.19398,0.0,2023,6,7,12,0,50,500
38.46790,-0.04935,-0.01103,0.00000,0.02830,0.97649,-0.19459,0.0,2023,6,7,12,0,50,510
38.46800,0.07315,0.00647,0.00000,0.02928,0.97795,-0.19496,0.0,2023,6,7,12,0,50,520
38.46810,-0.06685,-0.09853,0.00000,0.02940,0.97771,-0.19605,0.0,2023,6,7,12,0,50,530
38.46820,-0.11935,0.00647,0.00000,0.02696,0.97551,-0.19483,0.0,2023,6,7,12,0,50,540
38.46830,0.09065,0.12897,0.00000,0.02830,0.97490,-0.19300,0.0,2023,6,7,12,0,50,550
38.46840,-0.03185,0.11147,0.00000,0.02989,0.97661,-0.19581,0.0,2023,6,7,12,0,50,560
38.46850,-0.15435,-0.08103,0.00000,0.03026,0.97588,-0.19544,0.0,2023,6,7,12,0,50,570
38.46860,0.07315,-0.15103,0.00000,0.02794,0.97746,-0.19276,0.0,2023,6,7,12,0,50,580
38.46870,0.02065,0.19897,0.00000,0.02672,0.97441,-0.19459,0.0,2023,6,7,12,0,50,590
38.46880,-0.13685,-0.02853,0.00000,0.02843,0.97722,-0.19557,0.0,2023,6,7,12,0,50,600
38.46890,0.00315,0.18147,0.00000,0.02794,0.97734,-0.19422,0.0,2023,6,7,12,0,50,610
38.46900,-0.01435,0.14647,0.00000,0.02769,0.97429,-0.19349,0.0,2023,6,7,12,0,50,620
38.46910,0.02065,-0.13353,0.00000,0.02867,0.97417,-0.19483,0.0,2023,6,7,12,0,50,630
38.46920,-0.03185,0.12897,0.00000,0.02855,0.97307,-0.19544,0.0,2023,6,7,12,0,50,640
38.46930,-0.13685,0.12897,0.00000,0.02965,0.97673,-0.19581,0.0,2023,6,7,12,0,50,650
38.46940,-0.06685,0.00647,0.00000,0.03013,0.97624,-0.19679,0.0,2023,6,7,12,0,50,660
38.46950,0.10815,0.09397,0.00000,0.02733,0.97844,-0.19581,0.0,2023,6,7,12,0,50,670
38.46960,0.00315,0.09397,0.00000,0.02745,0.97393,-0.19337,0.0,2023,6,7,12,0,50,680
38.46970,0.02065,-0.04603,0.00000,0.02672,0.97539,-0.19593,0.0,2023,6,7,12,0,50,690
38.46980,-0.06685,0.04147,0.00000,0.02696,0.97295,-0.19752,0.0,2023,6,7,12,0,50,700
38.46990,-0.17185,0.00647,0.00000,0.02806,0.97332,-0.19605,0.0,2023,6,7,12,0,50,710
38.47000,-0.08435,-0.09853,0.00000,0.02940,0.97454,-0.19483,0.0,2023,6,7,12,0,50,720
38.47010,-0.01435,0.02397,0.00000,0.02782,0.97563,-0.19496,0.0,2023,6,7,12,0,50,730
38.47020,-0.04935,-0.04603,0.00000,0.02672,0.97588,-0.19520,0.0,2023,6,7,12,0,50,740
38.47030,0.07315,-0.18603,0.00000,0.02916,0.97612,-0.19471,0.0,2023,6,7,12,0,50,750
38.47040,-0.04935,0.16397,0.00000,0.02965,0.97612,-0.19386,0.0,2023,6,7,12,0,50,760
38.47050,-0.13685,-0.06353,0.00000,0.02806,0.97746,-0.19544,0.0,2023,6,7,12,0,50,770
38.47060,-0.22435,-0.16853,0.00000,0.02928,0.97612,-0.19471,0.0,2023,6,7,12,0,50,780
38.47070,0.05565,-0.13353,0.00000,0.02733,0.97637,-0.19557,0.0,2023,6,7,12,0,50,790
38.47080,-0.03185,0.07647,0.00000,0.02952,0.97466,-0.19703,0.0,2023,6,7,12,0,50,800
38.47090,-0.01435,0.00647,0.00000,0.02989,0.97661,-0.19544,0.0,2023,6,7,12,0,50,810
38.47100,-0.13685,0.04147,0.00000,0.02879,0.97588,-0.19410,0.0,2023,6,7,12,0,50,820
38.47110,0.05565,0.16397,0.00000,0.02757,0.97698,-0.19654,0.0,2023,6,7,12,0,50,830
38.47120,0.12565,-0.32603,0.00000,0.02708,0.97783,-0.19471,0.0,2023,6,7,12,0,50,840
38.47130,-0.04935,-0.11603,0.00000,0.02843,0.97466,-0.19605,0.0,2023,6,7,12,0,50,850
38.47140,-0.15435,0.00647,0.00000,0.02965,0.97649,-0.19557,0.0,2023,6,7,12,0,50,860
38.47150,0.12565,-0.11603,0.00000,0.03013,0.97393,-0.19386,0.0,2023,6,7,12,0,50,870
38.47160,0.17815,-0.08103,0.00000,0.02586,0.97563,-0.19544,0.0,2023,6,7,12,0,50,880
38.47170,0.00315,0.14647,0.00000,0.02867,0.97588,-0.19496,0.0,2023,6,7,12,0,50,890
38.47180,-0.06685,0.14647,0.00000,0.02696,0.97551,-0.19593,0.0,2023,6,7,12,0,50,900
38.47190,0.14315,-0.06353,0.00000,0.02769,0.97807,-0.19496,0.0,2023,6,7,12,0,50,910
38.47200,0.05565,-0.06353,0.00000,0.03026,0.97368,-0.19410,0.0,2023,6,7,12,0,50,920
38.47210,0.03815,-0.06353,0.00000,0.02928,0.97576,-0.19435,0.0,2023,6,7,12,0,50,930
38.47220,0.02065,-0.04603,0.00000,0.02916,0.97405,-0.19508,0.0,2023,6,7,12,0,50,940
38.47230,-0.01435,-0.11603,0.00000,0.02684,0.97649,-0.19642,0.0,2023,6,7,12,0,50,950
38.47240,0.21315,-0.01103,0.00000,0.02830,0.97478,-0.19398,0.0,2023,6,7,12,0,50,960
38.47250,-0.15435,0.05897,0.00000,0.02891,0.97502,-0.19569,0.0,2023,6,7,12,0,50,970
38.47260,0.19565,-0.11603,0.00000,0.02867,0.97624,-0.19483,0.0,2023,6,7,12,0,50,980
38.47270,-0.01435,-0.06353,0.00000,0.02977,0.97624,-0.19471,0.0,2023,6,7,12,0,50,990
38.47280,-0.08435,0.16397,0.00000,0.02989,0.97710,-0.19569,0.0,2023,6,7,12,0,50,1000
38.47290,-0.15435,-0.01103,0.00000,0.02684,0.97600,-0.19471,0.0,2023,6,7,12,0,50,10
38.47300,0.05565,0.09397,0.00000,0.02782,0.97600,-0.19703,0.0,2023,6,7,12,0,50,20
38.47310,-0.04935,-0.04603,0.00000,0.02855,0.97515,-0.19593,0.0,2023,6,7,12,0,50,30
38.47320,-0.15435,0.12897,0.00000,0.02818,0.97405,-0.19398,0.0,2023,6,7,12,0,50,40
38.47330,-0.15435,0.00647,0.00000,0.02745,0.97417,-0.19288,0.0,2023,6,7,12,0,50,50
38.47340,-0.08435,0.23397,0.00000,0.02867,0.97539,-0.19569,0.0,2023,6,7,12,0,50,60
38.47350,0.16065,-0.04603,0.00000,0.02782,0.97563,-0.19557,0.0,2023,6,7,12,0,50,70
38.47360,0.09065,0.16397,0.00000,0.02818,0.97454,-0.19605,0.0,2023,6,7,12,0,50,80
38.47370,-0.17185,-0.08103,0.00000,0.02684,0.97344,-0.19422,0.0,2023,6,7,12,0,50,90
38.47380,-0.11935,-0.02853,0.00000,0.02891,0.97539,-0.19459,0.0,2023,6,7,12,0,50,100
38.47390,-0.17185,-0.16853,0.00000,0.02952,0.97746,-0.19447,0.0,2023,6,7,12,0,50,110
38.47400,0.16065,0.02397,0.00000,0.02977,0.97515,-0.19459,0.0,2023,6,7,12,0,50,120
38.47410,-0.08435,0.09397,0.00000,0.03013,0.97624,-0.19740,0.0,2023,6,7,12,0,50,130
38.47420,-0.15435,0.09397,0.00000,0.02928,0.97673,-0.19666,0.0,2023,6,7,12,0,50,140
38.47430,0.09065,-0.06353,0.00000,0.02989,0.97588,-0.19605,0.0,2023,6,7,12,0,50,150
38.47440,-0.08435,0.00647,0.00000,0.02989,0.97551,-0.19581,0.0,2023,6,7,12,0,50,160
38.47450,-0.18935,0.07647,0.00000,0.03209,0.97576,-0.19300,0.0,2023,6,7,12,0,50,170
38.47460,0.02065,0.04147,0.00000,0.02623,0.98003,-0.19557,0.0,2023,6,7,12,0,50,180
38.47470,0.03815,-0.01103,0.00000,0.02977,0.97698,-0.19642,0.0,2023,6,7,12,0,50,190
38.47480,0.12565,-0.01103,0.00000,0.02599,0.97393,-0.19239,0.0,2023,6,7,12,0,50,200
38.47490,-0.03185,0.07647,0.00000,0.02684,0.97441,-0.19508,0.0,2023,6,7,12,0,50,210
38.47500,0.00315,0.05897,0.00000,0.02830,0.97637,-0.19520,0.0,2023,6,7,12,0,50,220
38.47510,-0.04935,0.04147,0.00000,0.02867,0.97698,-0.19447,0.0,2023,6,7,12,0,50,230
38.47520,0.12565,-0.08103,0.00000,0.02818,0.97429,-0.19703,0.0,2023,6,7,12,0,50,240
38.47530,0.02065,-0.01103,0.00000,0.02867,0.97600,-0.19581,0.0,2023,6,7,12,0,50,250
38.47540,-0.22435,0.12897,0.00000,0.02830,0.97551,-0.19605,0.0,2023,6,7,12,0,50,260
38.47550,-0.04935,0.18147,0.00000,0.03038,0.97466,-0.19300,0.0,2023,6,7,12,0,50,270
38.47560,-0.10185,0.09397,0.00000,0.03026,0.97344,-0.19374,0.0,2023,6,7,12,0,50,280
38.47570,-0.06685,0.00647,0.00000,0.02684,0.97441,-0.19679,0.0,2023,6,7,12,0,50,290
38.47580,-0.13685,-0.02853,0.00000,0.02794,0.97576,-0.19532,0.0,2023,6,7,12,0,50,300
38.47590,-0.03185,-0.16853,0.00000,0.02952,0.97539,-0.19593,0.0,2023,6,7,12,0,50,310
38.47600,-0.11935,0.00647,0.00000,0.02989,0.97417,-0.19422,0.0,2023,6,7,12,0,50,320
38.47610,-0.20685,-0.04603,0.00000,0.03050,0.97502,-0.19374,0.0,2023,6,7,12,0,50,330
38.47620,0.03815,-0.06353,0.00000,0.02757,0.97612,-0.19422,0.0,2023,6,7,12,0,50,340
38.47630,0.19565,-0.02853,0.00000,0.02904,0.97600,-0.19666,0.0,2023,6,7,12,0,50,350
38.47640,-0.13685,0.07647,0.00000,0.02867,0.97759,-0.19642,0.0,2023,6,7,12,0,50,360
38.47650,0.10815,0.04147,0.00000,0.02916,0.97685,-0.19520,0.0,2023,6,7,12,0,50,370
38.47660,-0.01435,0.16397,0.00000,0.02916,0.97515,-0.19471,0.0,2023,6,7,12,0,50,380
38.47670,0.17815,-0.11603,0.00000,0.02806,0.97722,-0.19447,0.0,2023,6,7,12,0,50,390
38.47680,0.03815,0.02397,0.00000,0.02867,0.97515,-0.19435,0.0,2023,6,7,12,0,50,400
38.47690,-0.11935,-0.01103,0.00000,0.02818,0.97612,-0.19239,0.0,2023,6,7,12,0,50,410
38.47700,0.03815,0.05897,0.00000,0.02660,0.97515,-0.19642,0.0,2023,6,7,12,0,50,420
38.47710,0.19565,-0.11603,0.00000,0.02745,0.97576,-0.19642,0.0,2023,6,7,12,0,50,430
38.47720,0.17815,-0.20353,0.00000,0.02989,0.97624,-0.19654,0.0,2023,6,7,12,0,50,440
38.47730,-0.06685,-0.01103,0.00000,0.02855,0.97368,-0.19288,0.0,2023,6,7,12,0,50,450
38.47740,0.00315,-0.04603,0.00000,0.02879,0.97417,-0.19569,0.0,2023,6,7,12,0,50,460
38.47750,0.05565,-0.16853,0.00000,0.02879,0.97551,-0.19398,0.0,2023,6,7,12,0,50,470
38.47760,0.02065,0.11147,0.00000,0.02794,0.97527,-0.19520,0.0,2023,6,7,12,0,50,480
38.47770,0.05565,-0.09853,0.00000,0.02745,0.97319,-0.19630,0.0,2023,6,7,12,0,50,490
38.47780,0.00315,0.02397,0.00000,0.02806,0.97612,-0.19532,0.0,2023,6,7,12,0,50,500
38.47790,0.14315,0.00647,0.00000,0.02879,0.97734,-0.19508,0.0,2023,6,7,12,0,50,510
38.47800,-0.03185,-0.09853,0.00000,0.02782,0.97795,-0.19337,0.0,2023,6,7,12,0,50,520
38.47810,0.16065,-0.09853,0.00000,0.03026,0.97478,-0.19569,0.0,2023,6,7,12,0,50,530
38.47820,0.09065,-0.02853,0.00000,0.02916,0.97673,-0.19544,0.0,2023,6,7,12,0,50,540
38.47830,-0.01435,0.02397,0.00000,0.02806,0.97856,-0.19557,0.0,2023,6,7,12,0,50,550
38.47840,-0.03185,0.09397,0.00000,0.02830,0.97515,-0.19666,0.0,2023,6,7,12,0,50,560
38.47850,-0.06685,-0.02853,0.00000,0.02647,0.97307,-0.19032,0.0,2023,6,7,12,0,50,570
38.47860,-0.03185,0.02397,0.00000,0.02928,0.97954,-0.19703,0.0,2023,6,7,12,0,50,580
38.47870,0.10815,-0.01103,0.00000,0.02940,0.97649,-0.19593,0.0,2023,6,7,12,0,50,590
38.47880,0.00315,-0.09853,0.00000,0.02696,0.97405,-0.19581,0.0,2023,6,7,12,0,50,600
38.47890,-0.04935,-0.20353,0.00000,0.02721,0.97685,-0.19459,0.0,2023,6,7,12,0,50,610
38.47900,-0.13685,-0.04603,0.00000,0.03062,0.97783,-0.19276,0.0,2023,6,7,12,0,50,620
38.47910,-0.06685,0.16397,0.00000,0.02928,0.97563,-0.19288,0.0,2023,6,7,12,0,50,630
38.47920,0.00315,0.07647,0.00000,0.02928,0.97698,-0.19447,0.0,2023,6,7,12,0,50,640
38.47930,0.05565,-0.16853,0.00000,0.02721,0.97490,-0.19398,0.0,2023,6,7,12,0,50,650
38.47940,-0.08435,0.05897,0.00000,0.02757,0.97588,-0.19764,0.0,2023,6,7,12,0,50,660
38.47950,0.12565,-0.23853,0.00000,0.02830,0.97490,-0.19557,0.0,2023,6,7,12,0,50,670
38.47960,-0.01435,-0.02853,0.00000,0.03026,0.97551,-0.19447,0.0,2023,6,7,12,0,50,680
38.47970,-0.18935,0.05897,0.00000,0.02867,0.97441,-0.19508,0.0,2023,6,7,12,0,50,690
38.47980,-0.11935,0.09397,0.00000,0.02672,0.97576,-0.19435,0.0,2023,6,7,12,0,50,700
38.47990,0.00315,-0.15103,0.00000,0.02818,0.97612,-0.19544,0.0,2023,6,7,12,0,50,710
38.48000,-0.03185,0.11147,0.00000,0.02794,0.97563,-0.19703,0.0,2023,6,7,12,0,50,720
38.48010,-0.06685,-0.02853,0.00000,0.03099,0.97600,-0.19447,0.0,2023,6,7,12,0,50,730
38.48020,-0.08435,0.04147,0.00000,0.03111,0.97637,-0.19300,0.0,2023,6,7,12,0,50,740
38.48030,-0.03185,0.30397,0.00000,0.02806,0.97576,-0.19386,0.0,2023,6,7,12,0,50,750
38.48040,0.09065,-0.02853,0.00000,0.02745,0.97673,-0.19703,0.0,2023,6,7,12,0,50,760
38.48050,-0.04935,0.11147,0.00000,0.02818,0.97588,-0.19520,0.0,2023,6,7,12,0,50,770
38.48060,0.03815,-0.09853,0.00000,0.02952,0.97832,-0.19422,0.0,2023,6,7,12,0,50,780
38.48070,-0.01435,-0.09853,0.00000,0.02708,0.97563,-0.19459,0.0,2023,6,7,12,0,50,790
38.48080,0.07315,-0.16853,0.00000,0.02843,0.97576,-0.19557,0.0,2023,6,7,12,0,50,800
38.48090,0.23065,-0.22103,0.00000,0.02940,0.97624,-0.19801,0.0,2023,6,7,12,0,50,810
38.48100,-0.20685,-0.04603,0.00000,0.02586,0.97588,-0.19654,0.0,2023,6,7,12,0,50,820
38.48110,-0.03185,0.02397,0.00000,0.02611,0.97515,-0.19471,0.0,2023,6,7,12,0,50,830
38.48120,0.10815,-0.16853,0.00000,0.02672,0.97441,-0.19581,0.0,2023,6,7,12,0,50,840
38.48130,-0.01435,-0.04603,0.00000,0.02769,0.97344,-0.19459,0.0,2023,6,7,12,0,50,850
38.48140,-0.01435,-0.11603,0.00000,0.02916,0.97807,-0.19520,0.0,2023,6,7,12,0,50,860
38.48150,0.23065,0.00647,0.00000,0.02855,0.97698,-0.19459,0.0,2023,6,7,12,0,50,870
38.48160,-0.10185,-0.11603,0.00000,0.02830,0.97685,-0.19618,0.0,2023,6,7,12,0,50,880
38.48170,-0.01435,-0.06353,0.00000,0.02696,0.97307,-0.19483,0.0,2023,6,7,12,0,50,890
38.48180,0.07315,-0.04603,0.00000,0.02952,0.97515,-0.19483,0.0,2023,6,7,12,0,50,900
38.48190,0.07315,0.19897,0.00000,0.02879,0.97673,-0.19325,0.0,2023,6,7,12,0,50,910
38.48200,-0.03185,0.02397,0.00000,0.02879,0.97551,-0.19288,0.0,2023,6,7,12,0,50,920
38.48210,0.05565,0.05897,0.00000,0.02806,0.97661,-0.19361,0.0,2023,6,7,12,0,50,930
38.48220,-0.01435,-0.04603,0.00000,0.02696,0.97612,-0.19459,0.0,2023,6,7,12,0,50,940
38.48230,0.09065,-0.18603,0.00000,0.02794,0.97673,-0.19447,0.0,2023,6,7,12,0,50,950
38.48240,-0.18935,-0.13353,0.00000,0.02928,0.97539,-0.19386,0.0,2023,6,7,12,0,50,960
38.48250,0.12565,-0.09853,0.00000,0.02867,0.97661,-0.19398,0.0,2023,6,7,12,0,50,970
38.48260,-0.10185,-0.01103,0.00000,0.02916,0.97807,-0.19569,0.0,2023,6,7,12,0,50,980
38.48270,0.09065,-0.04603,0.00000,0.02952,0.97746,-0.19593,0.0,2023,6,7,12,0,50,990
38.48280,0.02065,-0.11603,0.00000,0.02891,0.97319,-0.19605,0.0,2023,6,7,12,0,50,1000
38.48290,-0.08435,0.14647,0.00000,0.02916,0.97490,-0.19557,0.0,2023,6,7,12,0,50,10
38.48300,-0.04935,-0.18603,0.00000,0.02721,0.97490,-0.19410,0.0,2023,6,7,12,0,50,20
38.48310,-0.08435,-0.08103,0.00000,0.02940,0.97576,-0.19313,0.0,2023,6,7,12,0,50,30
38.48320,0.03815,0.18147,0.00000,0.02843,0.97429,-0.19410,0.0,2023,6,7,12,0,50,40
38.48330,-0.04935,-0.04603,0.00000,0.02928,0.97539,-0.19483,0.0,2023,6,7,12,0,50,50
38.48340,0.00315,0.02397,0.00000,0.02843,0.97466,-0.19532,0.0,2023,6,7,12,0,50,60
38.48350,-0.18935,-0.11603,0.00000,0.02904,0.97600,-0.19374,0.0,2023,6,7,12,0,50,70
38.48360,-0.08435,-0.01103,0.00000,0.02952,0.97637,-0.19532,0.0,2023,6,7,12,0,50,80
38.48370,-0.03185,0.04147,0.00000,0.03050,0.97917,-0.19337,0.0,2023,6,7,12,0,50,90
38.48380,-0.10185,0.16397,0.00000,0.02721,0.97551,-0.19239,0.0,2023,6,7,12,0,50,100
38.48390,0.02065,-0.08103,0.00000,0.02525,0.97417,-0.19386,0.0,2023,6,7,12,0,50,110
38.48400,0.03815,-0.06353,0.00000,0.02782,0.97539,-0.19630,0.0,2023,6,7,12,0,50,120
38.48410,-0.15435,-0.08103,0.00000,0.02891,0.97649,-0.19435,0.0,2023,6,7,12,0,50,130
38.48420,-0.11935,0.09397,0.00000,0.02806,0.97551,-0.19593,0.0,2023,6,7,12,0,50,140
38.48430,0.00315,0.07647,0.00000,0.02647,0.97881,-0.19618,0.0,2023,6,7,12,0,50,150
38.48440,0.03815,-0.08103,0.00000,0.02891,0.97624,-0.19313,0.0,2023,6,7,12,0,50,160
38.48450,-0.01435,-0.11603,0.00000,0.02855,0.97454,-0.19398,0.0,2023,6,7,12,0,50,170
38.48460,-0.01435,-0.16853,0.00000,0.02684,0.97515,-0.19557,0.0,2023,6,7,12,0,50,180
38.48470,-0.04935,0.07647,0.00000,0.02623,0.97612,-0.19520,0.0,2023,6,7,12,0,50,190
38.48480,0.02065,0.21647,0.00000,0.02708,0.97539,-0.19386,0.0,2023,6,7,12,0,50,200
38.48490,-0.04935,0.09397,0.00000,0.02660,0.97612,-0.19374,0.0,2023,6,7,12,0,50,210
38.48500,-0.17185,0.23397,0.00000,0.02977,0.97612,-0.19605,0.0,2023,6,7,12,0,50,220
38.48510,-0.04935,-0.06353,0.00000,0.03001,0.97820,-0.19715,0.0,2023,6,7,12,0,50,230
38.48520,0.00315,-0.02853,0.00000,0.02672,0.97515,-0.19605,0.0,2023,6,7,12,0,50,240
38.48530,0.03815,0.02397,0.00000,0.03026,0.97319,-0.19386,0.0,2023,6,7,12,0,50,250
38.48540,0.03815,-0.08103,0.00000,0.03172,0.97441,-0.19569,0.0,2023,6,7,12,0,50,260
38.48550,-0.06685,0.14647,0.00000,0.02782,0.97441,-0.19496,0.0,2023,6,7,12,0,50,270
38.48560,0.02065,0.14647,0.00000,0.02757,0.97551,-0.19374,0.0,2023,6,7,12,0,50,280
38.48570,-0.01435,-0.01103,0.00000,0.02684,0.97685,-0.19788,0.0,2023,6,7,12,0,50,290
38.48580,-0.08435,-0.18603,0.00000,0.02843,0.97563,-0.19557,0.0,2023,6,7,12,0,50,300
38.48590,0.03815,0.16397,0.00000,0.02855,0.97759,-0.19642,0.0,2023,6,7,12,0,50,310
38.48600,0.00315,-0.08103,0.00000,0.02794,0.97515,-0.19801,0.0,2023,6,7,12,0,50,320
38.48610,-0.04935,-0.09853,0.00000,0.02818,0.97551,-0.19459,0.0,2023,6,7,12,0,50,330
38.48620,-0.11935,-0.02853,0.00000,0.02928,0.97649,-0.19435,0.0,2023,6,7,12,0,50,340
38.48630,0.10815,-0.01103,0.00000,0.02855,0.97661,-0.19569,0.0,2023,6,7,12,0,50,350
38.48640,-0.03185,0.02397,0.00000,0.02843,0.97588,-0.19679,0.0,2023,6,7,12,0,50,360
38.48650,-0.04935,-0.13353,0.00000,0.02818,0.97661,-0.19764,0.0,2023,6,7,12,0,50,370
38.48660,0.05565,-0.04603,0.00000,0.02806,0.97478,-0.19422,0.0,2023,6,7,12,0,50,380
38.48670,-0.01435,0.02397,0.00000,0.02855,0.97344,-0.19532,0.0,2023,6,7,12,0,50,390
38.48680,-0.20685,-0.02853,0.00000,0.02806,0.97661,-0.19813,0.0,2023,6,7,12,0,50,400
38.48690,0.00315,0.00647,0.00000,0.02928,0.97576,-0.19703,0.0,2023,6,7,12,0,50,410
38.48700,0.09065,-0.09853,0.00000,0.02562,0.97527,-0.19593,0.0,2023,6,7,12,0,50,420
38.48710,-0.01435,-0.01103,0.00000,0.02830,0.97612,-0.19557,0.0,2023,6,7,12,0,50,430
38.48720,0.10815,-0.11603,0.00000,0.02965,0.97771,-0.19654,0.0,2023,6,7,12,0,50,440
38.48730,-0.10185,0.12897,0.00000,0.02843,0.97698,-0.19508,0.0,2023,6,7,12,0,50,450
38.48740,-0.03185,0.04147,0.00000,0.02891,0.97600,-0.19435,0.0,2023,6,7,12,0,50,460
38.48750,-0.01435,0.07647,0.00000,0.02952,0.97405,-0.19361,0.0,2023,6,7,12,0,50,470
38.48760,0.17815,-0.09853,0.00000,0.03001,0.97502,-0.19654,0.0,2023,6,7,12,0,50,480
38.48770,-0.01435,-0.18603,0.00000,0.02928,0.97527,-0.19874,0.0,2023,6,7,12,0,50,490
38.48780,-0.03185,-0.01103,0.00000,0.02891,0.97417,-0.19715,0.0,2023,6,7,12,0,50,500
38.48790,0.05565,0.05897,0.00000,0.02794,0.97563,-0.19679,0.0,2023,6,7,12,0,50,510
38.48800,0.12565,-0.02853,0.00000,0.02818,0.97661,-0.19398,0.0,2023,6,7,12,0,50,520
38.48810,-0.08435,-0.13353,0.00000,0.02843,0.97429,-0.19496,0.0,2023,6,7,12,0,50,530
38.48820,0.10815,0.04147,0.00000,0.02696,0.97466,-0.19398,0.0,2023,6,7,12,0,50,540
38.48830,-0.17185,0.04147,0.00000,0.03135,0.97539,-0.19727,0.0,2023,6,7,12,0,50,550
38.48840,-0.15435,0.02397,0.00000,0.02891,0.97637,-0.19605,0.0,2023,6,7,12,0,50,560
38.48850,0.00315,-0.13353,0.00000,0.02684,0.97759,-0.19569,0.0,2023,6,7,12,0,50,570
38.48860,0.00315,-0.23853,0.00000,0.02928,0.97600,-0.19630,0.0,2023,6,7,12,0,50,580
38.48870,-0.08435,0.07647,0.00000,0.02830,0.97417,-0.19483,0.0,2023,6,7,12,0,50,590
38.48880,0.09065,-0.01103,0.00000,0.02977,0.97624,-0.19276,0.0,2023,6,7,12,0,50,600
38.48890,-0.03185,0.04147,0.00000,0.03026,0.97600,-0.19410,0.0,2023,6,7,12,0,50,610
38.48900,-0.18935,-0.09853,0.00000,0.03026,0.97795,-0.19386,0.0,2023,6,7,12,0,50,620
38.48910,0.05565,-0.15103,0.00000,0.02843,0.97588,-0.19459,0.0,2023,6,7,12,0,50,630
38.48920,-0.18935,-0.01103,0.00000,0.02684,0.97661,-0.19386,0.0,2023,6,7,12,0,50,640
38.48930,0.03815,0.09397,0.00000,0.02855,0.97588,-0.19557,0.0,2023,6,7,12,0,50,650
38.48940,0.19565,-0.23853,0.00000,0.02733,0.97588,-0.19544,0.0,2023,6,7,12,0,50,660
38.48950,-0.11935,-0.13353,0.00000,0.03038,0.97539,-0.19410,0.0,2023,6,7,12,0,50,670
38.48960,-0.03185,0.09397,0.00000,0.02818,0.97746,-0.19520,0.0,2023,6,7,12,0,50,680
38.48970,0.05565,0.07647,0.00000,0.02611,0.97454,-0.19459,0.0,2023,6,7,12,0,50,690
38.48980,-0.03185,0.00647,0.00000,0.02843,0.97490,-0.19593,0.0,2023,6,7,12,0,50,700
38.48990,0.16065,-0.06353,0.00000,0.02830,0.97624,-0.19715,0.0,2023,6,7,12,0,50,710
38.49000,0.05565,0.02397,0.00000,0.03001,0.97637,-0.19520,0.0,2023,6,7,12,0,50,720
38.49010,0.00315,-0.09853,0.00000,0.02965,0.97368,-0.19483,0.0,2023,6,7,12,0,50,730
38.49020,-0.11935,-0.01103,0.00000,0.02843,0.97612,-0.19544,0.0,2023,6,7,12,0,50,740
38.49030,-0.17185,-0.01103,0.00000,0.02708,0.97734,-0.19520,0.0,2023,6,7,12,0,50,750
38.49040,-0.06685,-0.06353,0.00000,0.02952,0.97649,-0.19142,0.0,2023,6,7,12,0,50,760
38.49050,-0.11935,0.11147,0.00000,0.02916,0.97649,-0.19264,0.0,2023,6,7,12,0,50,770
38.49060,0.02065,0.26897,0.00000,0.02867,0.97466,-0.19398,0.0,2023,6,7,12,0,50,780
38.49070,-0.08435,0.21647,0.00000,0.02794,0.97649,-0.19703,0.0,2023,6,7,12,0,50,790
38.49080,-0.01435,0.12897,0.00000,0.02782,0.97490,-0.19557,0.0,2023,6,7,12,0,50,800
38.49090,-0.01435,-0.04603,0.00000,0.02952,0.97466,-0.19496,0.0,2023,6,7,12,0,50,810
38.49100,0.10815,-0.11603,0.00000,0.02794,0.97234,-0.19130,0.0,2023,6,7,12,0,50,820
38.49110,-0.11935,-0.02853,0.00000,0.02891,0.97551,-0.19410,0.0,2023,6,7,12,0,50,830
38.49120,-0.03185,0.00647,0.00000,0.03087,0.97624,-0.19398,0.0,2023,6,7,12,0,50,840
38.49130,-0.06685,-0.08103,0.00000,0.02769,0.97466,-0.19593,0.0,2023,6,7,12,0,50,850
38.49140,0.02065,-0.04603,0.00000,0.02794,0.97515,-0.19569,0.0,2023,6,7,12,0,50,860
38.49150,-0.03185,-0.08103,0.00000,0.02830,0.97515,-0.19727,0.0,2023,6,7,12,0,50,870
38.49160,0.03815,-0.06353,0.00000,0.02928,0.97661,-0.19349,0.0,2023,6,7,12,0,50,880
38.49170,-0.13685,-0.16853,0.00000,0.02891,0.97466,-0.19630,0.0,2023,6,7,12,0,50,890
38.49180,-0.03185,0.07647,0.00000,0.02818,0.97527,-0.19532,0.0,2023,6,7,12,0,50,900
38.49190,-0.10185,-0.01103,0.00000,0.02745,0.97429,-0.19642,0.0,2023,6,7,12,0,50,910
38.49200,-0.06685,0.07647,0.00000,0.02965,0.97710,-0.19630,0.0,2023,6,7,12,0,50,920
38.49210,-0.15435,-0.15103,0.00000,0.02696,0.97649,-0.19410,0.0,2023,6,7,12,0,50,930
38.49220,-0.04935,-0.06353,0.00000,0.02940,0.97478,-0.19300,0.0,2023,6,7,12,0,50,940
38.49230,-0.08435,-0.02853,0.00000,0.02818,0.97746,-0.19300,0.0,2023,6,7,12,0,50,950
38.49240,0.05565,0.05897,0.00000,0.02879,0.97429,-0.19483,0.0,2023,6,7,12,0,50,960
38.49250,0.28315,-0.01103,0.00000,0.02806,0.97905,-0.19483,0.0,2023,6,7,12,0,50,970
38.49260,0.10815,-0.09853,0.00000,0.03074,0.97478,-0.19593,0.0,2023,6,7,12,0,50,980
38.49270,0.00315,0.09397,0.00000,0.02806,0.97685,-0.19508,0.0,2023,6,7,12,0,50,990
38.49280,-0.10185,-0.13353,0.00000,0.02782,0.97527,-0.19593,0.0,2023,6,7,12,0,50,1000
38.49290,-0.11935,0.11147,0.00000,0.02965,0.97441,-0.19483,0.0,2023,6,7,12,0,50,10
38.49300,0.00315,0.16397,0.00000,0.02806,0.97490,-0.19435,0.0,2023,6,7,12,0,50,20
38.49310,-0.04935,0.02397,0.00000,0.02806,0.97661,-0.19605,0.0,2023,6,7,12,0,50,30
38.49320,-0.06685,0.11147,0.00000,0.02904,0.97600,-0.19313,0.0,2023,6,7,12,0,50,40
38.49330,0.07315,-0.18603,0.00000,0.02965,0.97478,-0.19557,0.0,2023,6,7,12,0,50,50
38.49340,0.33565,-0.13353,0.00000,0.02940,0.97685,-0.19557,0.0,2023,6,7,12,0,50,60
38.49350,-0.01435,0.05897,0.00000,0.02733,0.97539,-0.19532,0.0,2023,6,7,12,0,50,70
38.49360,-0.04935,-0.29103,0.00000,0.02977,0.97673,-0.19593,0.0,2023,6,7,12,0,50,80
38.49370,-0.06685,0.04147,0.00000,0.03148,0.97600,-0.19544,0.0,2023,6,7,12,0,50,90
38.49380,-0.17185,0.11147,0.00000,0.02623,0.97417,-0.19654,0.0,2023,6,7,12,0,50,100
38.49390,-0.11935,-0.02853,0.00000,0.02855,0.97539,-0.19325,0.0,2023,6,7,12,0,50,110
38.49400,0.07315,-0.04603,0.00000,0.02843,0.97600,-0.19691,0.0,2023,6,7,12,0,50,120
38.49410,-0.01435,-0.13353,0.00000,0.03257,0.97698,-0.19593,0.0,2023,6,7,12,0,50,130
38.49420,-0.13685,0.04147,0.00000,0.03001,0.97380,-0.19300,0.0,2023,6,7,12,0,50,140
38.49430,-0.04935,-0.11603,0.00000,0.02806,0.97393,-0.19703,0.0,2023,6,7,12,0,50,150
38.49440,0.00315,-0.01103,0.00000,0.02891,0.97588,-0.19581,0.0,2023,6,7,12,0,50,160
38.49450,0.07315,0.30397,0.00000,0.02916,0.97576,-0.19471,0.0,2023,6,7,12,0,50,170
38.49460,-0.13685,0.21647,0.00000,0.02928,0.97563,-0.19496,0.0,2023,6,7,12,0,50,180
38.49470,0.00315,0.11147,0.00000,0.03099,0.97515,-0.19410,0.0,2023,6,7,12,0,50,190
38.49480,-0.03185,-0.04603,0.00000,0.03001,0.97344,-0.19386,0.0,2023,6,7,12,0,50,200
38.49490,-0.11935,0.19897,0.00000,0.02977,0.97637,-0.19422,0.0,2023,6,7,12,0,50,210
38.49500,-0.01435,-0.04603,0.00000,0.02855,0.97637,-0.19642,0.0,2023,6,7,12,0,50,220
38.49510,-0.04935,0.14647,0.00000,0.02867,0.97466,-0.19496,0.0,2023,6,7,12,0,50,230
38.49520,-0.06685,-0.15103,0.00000,0.02843,0.97429,-0.19422,0.0,2023,6,7,12,0,50,240
38.49530,-0.06685,-0.01103,0.00000,0.02660,0.97527,-0.19605,0.0,2023,6,7,12,0,50,250
38.49540,-0.11935,0.00647,0.00000,0.02904,0.97527,-0.19862,0.0,2023,6,7,12,0,50,260
38.49550,0.03815,0.14647,0.00000,0.02599,0.97515,-0.19459,0.0,2023,6,7,12,0,50,270
