#2023/06/07 17:28:16
time,wx,wy,wz,ax,ay,az,yy,MM,dd,hh,mm,ss,ms
49.98410,0.09135,-0.03920,0.00000,0.03123,0.97673,-0.18910,0.0,2023,6,7,17,28,17,96
49.98420,0.07385,0.10080,0.00000,0.03062,0.97649,-0.18873,0.0,2023,6,7,17,28,17,107
49.98430,-0.11865,0.06580,0.00000,0.03074,0.97771,-0.18922,0.0,2023,6,7,17,28,17,118
49.98440,0.03885,-0.02170,0.00000,0.03135,0.97698,-0.18690,0.0,2023,6,7,17,28,17,129
49.98450,-0.08365,-0.10920,0.00000,0.03148,0.97332,-0.18690,0.0,2023,6,7,17,28,17,140
49.98460,-0.24115,0.22330,0.00000,0.03294,0.97673,-0.19008,0.0,2023,6,7,17,28,17,151
49.98470,0.03885,-0.12670,0.00000,0.03013,0.97734,-0.19093,0.0,2023,6,7,17,28,17,162
49.98480,0.21385,-0.00420,0.00000,0.03111,0.97685,-0.18861,0.0,2023,6,7,17,28,17,173
49.98490,-0.08365,-0.00420,0.00000,0.03099,0.97466,-0.18983,0.0,2023,6,7,17,28,17,184
49.98500,0.05635,0.06580,0.00000,0.03282,0.97515,-0.18837,0.0,2023,6,7,17,28,17,195
49.98510,-0.06615,0.15330,0.00000,0.03087,0.97710,-0.18922,0.0,2023,6,7,17,28,17,207
49.98520,-0.20615,0.22330,0.00000,0.03050,0.97271,-0.18959,0.0,2023,6,7,17,28,17,218
49.98530,0.16135,-0.00420,0.00000,0.03257,0.97600,-0.18873,0.0,2023,6,7,17,28,17,229
49.98540,-0.04865,-0.07420,0.00000,0.03160,0.97795,-0.18886,0.0,2023,6,7,17,28,17,240
49.98550,-0.08365,-0.03920,0.00000,0.03282,0.97685,-0.18886,0.0,2023,6,7,17,28,17,251
49.98560,-0.08365,-0.02170,0.00000,0.02952,0.97746,-0.18910,0.0,2023,6,7,17,28,17,262
49.98570,0.00385,-0.03920,0.00000,0.03099,0.97637,-0.18910,0.0,2023,6,7,17,28,17,273
49.98580,-0.11865,-0.30170,0.00000,0.02989,0.97685,-0.18703,0.0,2023,6,7,17,28,17,284
49.98590,-0.11865,0.11830,0.00000,0.03257,0.97771,-0.18861,0.0,2023,6,7,17,28,17,295
49.98600,0.17885,0.17080,0.00000,0.03257,0.97771,-0.18947,0.0,2023,6,7,17,28,17,306
49.98610,-0.01365,-0.10920,0.00000,0.03209,0.97649,-0.18947,0.0,2023,6,7,17,28,17,318
49.98620,0.19635,-0.12670,0.00000,0.03245,0.97807,-0.18910,0.0,2023,6,7,17,28,17,329
49.98630,0.09135,-0.09170,0.00000,0.03196,0.97612,-0.18983,0.0,2023,6,7,17,28,17,340
49.98640,0.16135,0.15330,0.00000,0.03062,0.97563,-0.18812,0.0,2023,6,7,17,28,17,351
49.98650,-0.11865,-0.00420,0.00000,0.03245,0.97856,-0.18861,0.0,2023,6,7,17,28,17,362
49.98660,-0.06615,0.04830,0.00000,0.03074,0.97820,-0.18934,0.0,2023,6,7,17,28,17,373
49.98670,-0.11865,0.13580,0.00000,0.03099,0.97600,-0.19008,0.0,2023,6,7,17,28,17,384
49.98680,0.03885,0.03080,0.00000,0.03294,0.97624,-0.18910,0.0,2023,6,7,17,28,17,395
49.98690,0.03885,0.01330,0.00000,0.02977,0.97661,-0.19166,0.0,2023,6,7,17,28,17,406
49.98700,0.16135,-0.10920,0.00000,0.03099,0.97795,-0.19130,0.0,2023,6,7,17,28,17,417
49.98710,-0.18865,-0.10920,0.00000,0.02940,0.97478,-0.18825,0.0,2023,6,7,17,28,17,429
49.98720,0.02135,-0.00420,0.00000,0.03123,0.97563,-0.18703,0.0,2023,6,7,17,28,17,440
49.98730,0.09135,-0.02170,0.00000,0.03160,0.97576,-0.18629,0.0,2023,6,7,17,28,17,451
49.98740,-0.17115,0.11830,0.00000,0.03074,0.97832,-0.18849,0.0,2023,6,7,17,28,17,462
49.98750,-0.10115,-0.05670,0.00000,0.03087,0.97771,-0.18800,0.0,2023,6,7,17,28,17,473
49.98760,0.19635,-0.00420,0.00000,0.03245,0.97649,-0.18678,0.0,2023,6,7,17,28,17,484
49.98770,-0.15365,-0.12670,0.00000,0.03123,0.97698,-0.18654,0.0,2023,6,7,17,28,17,495
49.98780,0.14385,0.11830,0.00000,0.02952,0.97771,-0.19191,0.0,2023,6,7,17,28,17,506
49.98790,0.07385,0.01330,0.00000,0.03184,0.97698,-0.18910,0.0,2023,6,7,17,28,17,517
49.98800,0.00385,0.27580,0.00000,0.02989,0.97685,-0.18703,0.0,2023,6,7,17,28,17,528
49.98810,0.07385,0.01330,0.00000,0.03196,0.97685,-0.18812,0.0,2023,6,7,17,28,17,540
49.98820,0.12635,-0.00420,0.00000,0.03038,0.97722,-0.18739,0.0,2023,6,7,17,28,17,551
49.98830,0.19635,0.10080,0.00000,0.03013,0.97429,-0.18812,0.0,2023,6,7,17,28,17,562
49.98840,-0.03115,-0.07420,0.00000,0.03013,0.97429,-0.18812,0.0,2023,6,7,17,28,17,573
49.98850,-0.10115,-0.02170,0.00000,0.03196,0.97759,-0.18861,0.0,2023,6,7,17,28,17,584
49.98860,0.16135,-0.21420,0.00000,0.02965,0.97734,-0.18959,0.0,2023,6,7,17,28,17,595
49.98870,0.02135,-0.03920,0.00000,0.03087,0.97844,-0.19069,0.0,2023,6,7,17,28,17,606
49.98880,-0.08365,0.25830,0.00000,0.03196,0.97771,-0.19044,0.0,2023,6,7,17,28,17,617
49.98890,0.17885,-0.03920,0.00000,0.03135,0.97795,-0.18739,0.0,2023,6,7,17,28,17,628
49.98900,-0.15365,-0.07420,0.00000,0.03196,0.97454,-0.18800,0.0,2023,6,7,17,28,17,639
49.98910,-0.03115,0.06580,0.00000,0.03196,0.97612,-0.18715,0.0,2023,6,7,17,28,17,651
49.98920,0.03885,0.04830,0.00000,0.03087,0.97539,-0.18983,0.0,2023,6,7,17,28,17,662
49.98930,-0.08365,-0.00420,0.00000,0.02977,0.97661,-0.18788,0.0,2023,6,7,17,28,17,673
49.98940,-0.06615,-0.05670,0.00000,0.03257,0.97502,-0.18959,0.0,2023,6,7,17,28,17,684
49.98950,0.12635,-0.05670,0.00000,0.03087,0.97661,-0.19008,0.0,2023,6,7,17,28,17,695
49.98960,-0.11865,0.20580,0.00000,0.03233,0.97698,-0.18934,0.0,2023,6,7,17,28,17,706
49.98970,-0.03115,0.03080,0.00000,0.03111,0.97612,-0.18934,0.0,2023,6,7,17,28,17,717
49.98980,-0.08365,-0.10920,0.00000,0.03184,0.97807,-0.18727,0.0,2023,6,7,17,28,17,728
49.98990,0.05635,-0.05670,0.00000,0.03099,0.97698,-0.18739,0.0,2023,6,7,17,28,17,739
49.99000,-0.03115,0.01330,0.00000,0.03282,0.97539,-0.18739,0.0,2023,6,7,17,28,17,750
49.99010,0.10885,0.15330,0.00000,0.03123,0.97685,-0.18983,0.0,2023,6,7,17,28,17,762
49.99020,-0.01365,-0.00420,0.00000,0.03160,0.97673,-0.18983,0.0,2023,6,7,17,28,17,773
49.99030,0.19635,-0.00420,0.00000,0.03099,0.97820,-0.18727,0.0,2023,6,7,17,28,17,784
49.99040,-0.08365,0.17080,0.00000,0.03343,0.97807,-0.18776,0.0,2023,6,7,17,28,17,795
49.99050,-0.03115,0.08330,0.00000,0.03099,0.97807,-0.18703,0.0,2023,6,7,17,28,17,806
49.99060,-0.03115,-0.09170,0.00000,0.03087,0.97539,-0.18898,0.0,2023,6,7,17,28,17,817
49.99070,0.30135,-0.16170,0.00000,0.03318,0.97563,-0.18751,0.0,2023,6,7,17,28,17,828
49.99080,0.00385,0.04830,0.00000,0.03245,0.97624,-0.18837,0.0,2023,6,7,17,28,17,839
49.99090,0.05635,-0.12670,0.00000,0.03013,0.97624,-0.18703,0.0,2023,6,7,17,28,17,850
49.99100,0.00385,-0.23170,0.00000,0.03111,0.97807,-0.18556,0.0,2023,6,7,17,28,17,861
49.99110,0.07385,0.08330,0.00000,0.03038,0.97563,-0.18776,0.0,2023,6,7,17,28,17,873
49.99120,0.09135,-0.10920,0.00000,0.03074,0.97795,-0.19056,0.0,2023,6,7,17,28,17,884
49.99130,-0.01365,-0.00420,0.00000,0.03135,0.97685,-0.18800,0.0,2023,6,7,17,28,17,895
49.99140,-0.17115,0.11830,0.00000,0.03148,0.97795,-0.18812,0.0,2023,6,7,17,28,17,906
49.99150,0.19635,-0.09170,0.00000,0.03221,0.97527,-0.18629,0.0,2023,6,7,17,28,17,917
49.99160,0.05635,-0.02170,0.00000,0.02977,0.97746,-0.18922,0.0,2023,6,7,17,28,17,928
49.99170,0.05635,-0.17920,0.00000,0.03196,0.97515,-0.18910,0.0,2023,6,7,17,28,17,939
49.99180,0.09135,0.10080,0.00000,0.03172,0.97795,-0.18642,0.0,2023,6,7,17,28,17,950
49.99190,0.28385,-0.26670,0.00000,0.03062,0.97881,-0.18947,0.0,2023,6,7,17,28,17,961
49.99200,0.12635,0.22330,0.00000,0.03172,0.97685,-0.18776,0.0,2023,6,7,17,28,17,972
49.99210,0.03885,0.13580,0.00000,0.03270,0.97588,-0.18837,0.0,2023,6,7,17,28,17,984
49.99220,0.05635,-0.02170,0.00000,0.03074,0.97454,-0.18764,0.0,2023,6,7,17,28,17,995
49.99230,-0.18865,0.01330,0.00000,0.03392,0.97551,-0.18715,0.0,2023,6,7,17,28,17,6
49.99240,-0.17115,0.04830,0.00000,0.03148,0.97637,-0.18690,0.0,2023,6,7,17,28,18,7
49.99250,-0.06615,0.08330,0.00000,0.03026,0.97649,-0.19130,0.0,2023,6,7,17,28,18,18
49.99260,-0.18865,0.08330,0.00000,0.03111,0.97710,-0.19008,0.0,2023,6,7,17,28,18,29
49.99270,0.09135,-0.14420,0.00000,0.03087,0.97771,-0.18922,0.0,2023,6,7,17,28,18,40
49.99280,-0.11865,-0.02170,0.00000,0.03184,0.97734,-0.18727,0.0,2023,6,7,17,28,18,51
49.99290,0.05635,-0.10920,0.00000,0.02977,0.97820,-0.19081,0.0,2023,6,7,17,28,18,62
49.99300,-0.08365,0.17080,0.00000,0.03172,0.97405,-0.18739,0.0,2023,6,7,17,28,18,73
49.99310,0.00385,-0.02170,0.00000,0.03026,0.97637,-0.18459,0.0,2023,6,7,17,28,18,85
49.99320,0.09135,-0.02170,0.00000,0.03074,0.97759,-0.18812,0.0,2023,6,7,17,28,18,96
49.99330,-0.15365,0.22330,0.00000,0.03209,0.97637,-0.18739,0.0,2023,6,7,17,28,18,107
49.99340,-0.06615,0.20580,0.00000,0.03245,0.97600,-0.18507,0.0,2023,6,7,17,28,18,118
49.99350,0.14385,-0.16170,0.00000,0.03245,0.97649,-0.18934,0.0,2023,6,7,17,28,18,129
49.99360,-0.10115,-0.05670,0.00000,0.03148,0.97637,-0.18800,0.0,2023,6,7,17,28,18,140
49.99370,-0.04865,-0.05670,0.00000,0.02879,0.97734,-0.18812,0.0,2023,6,7,17,28,18,151
49.99380,-0.03115,0.08330,0.00000,0.03123,0.97685,-0.18739,0.0,2023,6,7,17,28,18,162
49.99390,0.07385,-0.00420,0.00000,0.03001,0.97685,-0.18849,0.0,2023,6,7,17,28,18,173
49.99400,-0.08365,-0.07420,0.00000,0.03111,0.97380,-0.18910,0.0,2023,6,7,17,28,18,184
49.99410,0.21385,0.03080,0.00000,0.03184,0.97429,-0.19215,0.0,2023,6,7,17,28,18,196
49.99420,-0.10115,-0.07420,0.00000,0.03331,0.97661,-0.18629,0.0,2023,6,7,17,28,18,207
49.99430,-0.11865,0.10080,0.00000,0.03233,0.97856,-0.18690,0.0,2023,6,7,17,28,18,218
49.99440,-0.03115,-0.03920,0.00000,0.03135,0.97673,-0.19081,0.0,2023,6,7,17,28,18,229
49.99450,-0.03115,0.01330,0.00000,0.03062,0.97612,-0.18910,0.0,2023,6,7,17,28,18,240
49.99460,0.23135,-0.14420,0.00000,0.03221,0.97588,-0.18825,0.0,2023,6,7,17,28,18,251
49.99470,0.16135,-0.03920,0.00000,0.03221,0.97600,-0.18727,0.0,2023,6,7,17,28,18,262
49.99480,-0.18865,-0.05670,0.00000,0.03135,0.97612,-0.18910,0.0,2023,6,7,17,28,18,273
49.99490,0.17885,0.03080,0.00000,0.03196,0.97454,-0.19044,0.0,2023,6,7,17,28,18,284
49.99500,0.03885,0.03080,0.00000,0.03245,0.97551,-0.18886,0.0,2023,6,7,17,28,18,295
49.99510,0.03885,0.04830,0.00000,0.03013,0.97734,-0.18825,0.0,2023,6,7,17,28,18,307
49.99520,0.12635,-0.03920,0.00000,0.03209,0.97539,-0.18678,0.0,2023,6,7,17,28,18,318
49.99530,-0.11865,0.08330,0.00000,0.03062,0.97649,-0.18678,0.0,2023,6,7,17,28,18,329
49.99540,0.05635,-0.19670,0.00000,0.02952,0.97685,-0.18898,0.0,2023,6,7,17,28,18,340
49.99550,0.24885,-0.19670,0.00000,0.03209,0.97563,-0.18983,0.0,2023,6,7,17,28,18,351
49.99560,0.09135,-0.19670,0.00000,0.02940,0.97661,-0.19020,0.0,2023,6,7,17,28,18,362
49.99570,0.02135,-0.23170,0.00000,0.03074,0.97466,-0.18837,0.0,2023,6,7,17,28,18,373
49.99580,-0.01365,-0.00420,0.00000,0.03209,0.97673,-0.18544,0.0,2023,6,7,17,28,18,384
49.99590,0.03885,0.10080,0.00000,0.03123,0.97551,-0.18800,0.0,2023,6,7,17,28,18,395
49.99600,0.07385,0.01330,0.00000,0.03111,0.97649,-0.19056,0.0,2023,6,7,17,28,18,406
49.99610,0.16135,0.06580,0.00000,0.03099,0.97807,-0.18410,0.0,2023,6,7,17,28,18,418
49.99620,-0.08365,0.11830,0.00000,0.03062,0.97539,-0.18886,0.0,2023,6,7,17,28,18,429
49.99630,-0.15365,0.04830,0.00000,0.03245,0.97893,-0.18690,0.0,2023,6,7,17,28,18,440
49.99640,0.09135,0.10080,0.00000,0.03062,0.97563,-0.18898,0.0,2023,6,7,17,28,18,451
49.99650,-0.11865,0.11830,0.00000,0.03062,0.97588,-0.18849,0.0,2023,6,7,17,28,18,462
49.99660,-0.01365,-0.16170,0.00000,0.03038,0.97649,-0.18812,0.0,2023,6,7,17,28,18,473
49.99670,0.00385,-0.05670,0.00000,0.03038,0.97600,-0.18983,0.0,2023,6,7,17,28,18,484
49.99680,-0.11865,0.04830,0.00000,0.02916,0.97344,-0.18410,0.0,2023,6,7,17,28,18,495
49.99690,-0.04865,-0.14420,0.00000,0.03233,0.97600,-0.18617,0.0,2023,6,7,17,28,18,506
49.99700,0.10885,-0.26670,0.00000,0.03038,0.97673,-0.18776,0.0,2023,6,7,17,28,18,517
49.99710,-0.03115,-0.03920,0.00000,0.03123,0.97429,-0.18934,0.0,2023,6,7,17,28,18,529
49.99720,-0.10115,-0.10920,0.00000,0.03148,0.97698,-0.18715,0.0,2023,6,7,17,28,18,540
49.99730,-0.15365,0.10080,0.00000,0.03050,0.97649,-0.18507,0.0,2023,6,7,17,28,18,551
49.99740,-0.13615,-0.07420,0.00000,0.03148,0.97380,-0.18873,0.0,2023,6,7,17,28,18,562
49.99750,0.07385,0.06580,0.00000,0.03062,0.97661,-0.18995,0.0,2023,6,7,17,28,18,573
49.99760,-0.03115,0.01330,0.00000,0.03038,0.97673,-0.19069,0.0,2023,6,7,17,28,18,584
49.99770,-0.06615,0.15330,0.00000,0.03257,0.97698,-0.18703,0.0,2023,6,7,17,28,18,595
49.99780,-0.03115,-0.03920,0.00000,0.02879,0.97563,-0.18812,0.0,2023,6,7,17,28,18,606
49.99790,-0.04865,-0.05670,0.00000,0.03111,0.97551,-0.18764,0.0,2023,6,7,17,28,18,617
49.99800,0.19635,-0.00420,0.00000,0.03123,0.97576,-0.18983,0.0,2023,6,7,17,28,18,628
49.99810,0.10885,-0.30170,0.00000,0.03209,0.97856,-0.18800,0.0,2023,6,7,17,28,18,640
49.99820,-0.01365,-0.00420,0.00000,0.03160,0.97576,-0.18849,0.0,2023,6,7,17,28,18,651
49.99830,-0.03115,0.11830,0.00000,0.03148,0.97527,-0.18825,0.0,2023,6,7,17,28,18,662
49.99840,0.10885,-0.17920,0.00000,0.02952,0.97576,-0.18995,0.0,2023,6,7,17,28,18,673
49.99850,0.14385,-0.14420,0.00000,0.02965,0.97429,-0.18995,0.0,2023,6,7,17,28,18,684
49.99860,0.12635,0.03080,0.00000,0.03318,0.97612,-0.18593,0.0,2023,6,7,17,28,18,695
49.99870,-0.01365,-0.02170,0.00000,0.03233,0.97527,-0.18959,0.0,2023,6,7,17,28,18,706
49.99880,-0.13615,0.15330,0.00000,0.03172,0.97490,-0.18934,0.0,2023,6,7,17,28,18,717
49.99890,-0.01365,0.11830,0.00000,0.03355,0.97771,-0.18715,0.0,2023,6,7,17,28,18,728
49.99900,0.09135,0.06580,0.00000,0.03087,0.97502,-0.18849,0.0,2023,6,7,17,28,18,739
49.99910,0.07385,0.06580,0.00000,0.03270,0.97661,-0.18654,0.0,2023,6,7,17,28,18,751
49.99920,0.03885,-0.09170,0.00000,0.03148,0.97624,-0.18581,0.0,2023,6,7,17,28,18,762
49.99930,0.17885,0.04830,0.00000,0.02965,0.98027,-0.18886,0.0,2023,6,7,17,28,18,773
49.99940,-0.06615,-0.00420,0.00000,0.02940,0.97637,-0.19008,0.0,2023,6,7,17,28,18,784
49.99950,0.03885,0.04830,0.00000,0.03038,0.97612,-0.19032,0.0,2023,6,7,17,28,18,795
49.99960,-0.17115,-0.05670,0.00000,0.03331,0.97734,-0.19044,0.0,2023,6,7,17,28,18,806
49.99970,-0.03115,0.06580,0.00000,0.03099,0.97844,-0.18678,0.0,2023,6,7,17,28,18,817
49.99980,0.14385,-0.00420,0.00000,0.03111,0.97698,-0.18910,0.0,2023,6,7,17,28,18,828
49.99990,-0.03115,-0.03920,0.00000,0.03148,0.97710,-0.19142,0.0,2023,6,7,17,28,18,839
50.00000,0.00385,-0.02170,0.00000,0.03099,0.97722,-0.18886,0.0,2023,6,7,17,28,18,850
50.00010,-0.03115,-0.07420,0.00000,0.03172,0.97466,-0.18507,0.0,2023,6,7,17,28,18,862
50.00020,-0.25865,-0.14420,0.00000,0.03099,0.97820,-0.18617,0.0,2023,6,7,17,28,18,873
50.00030,-0.04865,0.04830,0.00000,0.03050,0.97576,-0.18983,0.0,2023,6,7,17,28,18,884
50.00040,0.03885,-0.17920,0.00000,0.02867,0.97746,-0.18861,0.0,2023,6,7,17,28,18,895
50.00050,0.00385,-0.09170,0.00000,0.03306,0.97820,-0.18690,0.0,2023,6,7,17,28,18,906
50.00060,-0.06615,0.04830,0.00000,0.03038,0.97868,-0.18568,0.0,2023,6,7,17,28,18,917
50.00070,-0.03115,-0.30170,0.00000,0.03209,0.97490,-0.18520,0.0,2023,6,7,17,28,18,928
50.00080,0.09135,-0.07420,0.00000,0.03245,0.97539,-0.18886,0.0,2023,6,7,17,28,18,939
50.00090,0.02135,0.04830,0.00000,0.03148,0.97807,-0.18812,0.0,2023,6,7,17,28,18,950
50.00100,0.02135,-0.09170,0.00000,0.03026,0.97637,-0.19008,0.0,2023,6,7,17,28,18,961
50.00110,-0.01365,0.04830,0.00000,0.03062,0.97661,-0.18959,0.0,2023,6,7,17,28,18,973
50.00120,-0.22365,0.15330,0.00000,0.03233,0.97600,-0.18751,0.0,2023,6,7,17,28,18,984
50.00130,-0.08365,0.10080,0.00000,0.02989,0.97563,-0.18971,0.0,2023,6,7,17,28,18,995
50.00140,0.14385,0.08330,0.00000,0.03111,0.97637,-0.18947,0.0,2023,6,7,17,28,19,6
50.00150,-0.04865,0.08330,0.00000,0.03111,0.97527,-0.18825,0.0,2023,6,7,17,28,19,17
50.00160,-0.06615,0.06580,0.00000,0.03245,0.97612,-0.18739,0.0,2023,6,7,17,28,19,28
50.00170,0.07385,-0.05670,0.00000,0.03160,0.97746,-0.18764,0.0,2023,6,7,17,28,19,39
50.00180,0.14385,-0.12670,0.00000,0.03099,0.97917,-0.18898,0.0,2023,6,7,17,28,19,50
50.00190,0.05635,0.15330,0.00000,0.03087,0.97832,-0.18678,0.0,2023,6,7,17,28,19,61
50.00200,0.09135,-0.16170,0.00000,0.03172,0.97515,-0.18922,0.0,2023,6,7,17,28,19,72
50.00210,0.10885,0.03080,0.00000,0.03257,0.97515,-0.18642,0.0,2023,6,7,17,28,19,84
50.00220,0.14385,0.10080,0.00000,0.03050,0.97771,-0.18861,0.0,2023,6,7,17,28,19,95
50.00230,-0.03115,0.22330,0.00000,0.03294,0.97563,-0.18788,0.0,2023,6,7,17,28,19,106
50.00240,-0.03115,0.03080,0.00000,0.03074,0.97637,-0.18727,0.0,2023,6,7,17,28,19,117
50.00250,-0.13615,-0.05670,0.00000,0.03062,0.97795,-0.18825,0.0,2023,6,7,17,28,19,128
50.00260,0.03885,-0.10920,0.00000,0.02977,0.97576,-0.18788,0.0,2023,6,7,17,28,19,139
50.00270,0.03885,-0.28420,0.00000,0.02977,0.97746,-0.18898,0.0,2023,6,7,17,28,19,150
50.00280,-0.03115,0.06580,0.00000,0.03160,0.97576,-0.18703,0.0,2023,6,7,17,28,19,161
50.00290,-0.10115,0.06580,0.00000,0.03087,0.97527,-0.18727,0.0,2023,6,7,17,28,19,172
50.00300,-0.03115,-0.05670,0.00000,0.03306,0.97576,-0.18568,0.0,2023,6,7,17,28,19,183
50.00310,0.02135,-0.02170,0.00000,0.02965,0.97954,-0.19178,0.0,2023,6,7,17,28,19,195
50.00320,0.00385,0.04830,0.00000,0.03245,0.97698,-0.18959,0.0,2023,6,7,17,28,19,206
50.00330,-0.11865,0.08330,0.00000,0.03343,0.97624,-0.18703,0.0,2023,6,7,17,28,19,217
50.00340,0.05635,-0.10920,0.00000,0.03001,0.97710,-0.18873,0.0,2023,6,7,17,28,19,228
50.00350,-0.08365,0.04830,0.00000,0.03172,0.97588,-0.18812,0.0,2023,6,7,17,28,19,239
50.00360,-0.10115,0.06580,0.00000,0.03209,0.97710,-0.18873,0.0,2023,6,7,17,28,19,250
50.00370,0.14385,-0.16170,0.00000,0.03062,0.97795,-0.18873,0.0,2023,6,7,17,28,19,261
50.00380,-0.11865,-0.09170,0.00000,0.03038,0.97441,-0.18642,0.0,2023,6,7,17,28,19,272
50.00390,-0.03115,0.10080,0.00000,0.02977,0.97771,-0.19032,0.0,2023,6,7,17,28,19,283
50.00400,-0.01365,0.01330,0.00000,0.02989,0.97441,-0.18788,0.0,2023,6,7,17,28,19,294
50.00410,-0.01365,0.06580,0.00000,0.03453,0.97746,-0.18666,0.0,2023,6,7,17,28,19,306
50.00420,-0.15365,-0.00420,0.00000,0.03148,0.97637,-0.18703,0.0,2023,6,7,17,28,19,317
50.00430,0.05635,0.03080,0.00000,0.03099,0.97649,-0.18837,0.0,2023,6,7,17,28,19,328
50.00440,-0.03115,0.01330,0.00000,0.03416,0.97417,-0.18922,0.0,2023,6,7,17,28,19,339
50.00450,0.05635,-0.23170,0.00000,0.02989,0.97466,-0.18788,0.0,2023,6,7,17,28,19,350
50.00460,-0.03115,-0.09170,0.00000,0.03233,0.97624,-0.18873,0.0,2023,6,7,17,28,19,361
50.00470,0.19635,-0.24920,0.00000,0.03123,0.97478,-0.18776,0.0,2023,6,7,17,28,19,372
50.00480,0.07385,0.15330,0.00000,0.03148,0.97441,-0.18727,0.0,2023,6,7,17,28,19,383
50.00490,-0.01365,-0.02170,0.00000,0.03038,0.97515,-0.18812,0.0,2023,6,7,17,28,19,394
50.00500,0.07385,-0.00420,0.00000,0.03294,0.97685,-0.18629,0.0,2023,6,7,17,28,19,405
50.00510,0.02135,0.15330,0.00000,0.03343,0.97844,-0.18337,0.0,2023,6,7,17,28,19,417
50.00520,-0.04865,-0.07420,0.00000,0.03111,0.97759,-0.18703,0.0,2023,6,7,17,28,19,428
50.00530,-0.03115,-0.05670,0.00000,0.02977,0.97673,-0.18788,0.0,2023,6,7,17,28,19,439
50.00540,0.10885,-0.03920,0.00000,0.03148,0.97637,-0.18837,0.0,2023,6,7,17,28,19,450
50.00550,-0.11865,0.18830,0.00000,0.03404,0.97649,-0.18739,0.0,2023,6,7,17,28,19,461
50.00560,0.16135,-0.19670,0.00000,0.03233,0.97588,-0.18629,0.0,2023,6,7,17,28,19,472
50.00570,-0.13615,0.17080,0.00000,0.03111,0.97563,-0.18849,0.0,2023,6,7,17,28,19,483
50.00580,0.14385,0.03080,0.00000,0.02940,0.97515,-0.18812,0.0,2023,6,7,17,28,19,494
50.00590,-0.01365,-0.07420,0.00000,0.03026,0.97795,-0.18727,0.0,2023,6,7,17,28,19,505
50.00600,-0.04865,0.01330,0.00000,0.03123,0.97539,-0.18690,0.0,2023,6,7,17,28,19,516
50.00610,0.07385,0.03080,0.00000,0.03282,0.97563,-0.19056,0.0,2023,6,7,17,28,19,528
50.00620,-0.17115,0.13580,0.00000,0.03184,0.97844,-0.18654,0.0,2023,6,7,17,28,19,539
50.00630,-0.10115,0.08330,0.00000,0.03306,0.97454,-0.19069,0.0,2023,6,7,17,28,19,550
50.00640,-0.08365,-0.02170,0.00000,0.03233,0.97576,-0.18678,0.0,2023,6,7,17,28,19,561
50.00650,-0.04865,-0.00420,0.00000,0.03526,0.97905,-0.18861,0.0,2023,6,7,17,28,19,572
50.00660,-0.04865,-0.00420,0.00000,0.03294,0.97710,-0.18947,0.0,2023,6,7,17,28,19,583
50.00670,-0.03115,0.13580,0.00000,0.03148,0.97710,-0.18654,0.0,2023,6,7,17,28,19,594
50.00680,0.02135,-0.00420,0.00000,0.03099,0.97429,-0.18666,0.0,2023,6,7,17,28,19,605
50.00690,-0.01365,0.13580,0.00000,0.03306,0.97807,-0.18800,0.0,2023,6,7,17,28,19,616
50.00700,0.07385,0.06580,0.00000,0.03209,0.97734,-0.18934,0.0,2023,6,7,17,28,19,627
50.00710,-0.17115,0.13580,0.00000,0.03245,0.97917,-0.18715,0.0,2023,6,7,17,28,19,639
50.00720,0.02135,0.03080,0.00000,0.03074,0.98051,-0.18959,0.0,2023,6,7,17,28,19,650
50.00730,0.12635,-0.05670,0.00000,0.02965,0.97734,-0.19044,0.0,2023,6,7,17,28,19,661
50.00740,0.23135,-0.16170,0.00000,0.02989,0.97685,-0.18910,0.0,2023,6,7,17,28,19,672
50.00750,0.09135,0.10080,0.00000,0.02989,0.97478,-0.18995,0.0,2023,6,7,17,28,19,683
50.00760,-0.27615,0.03080,0.00000,0.03135,0.97783,-0.18898,0.0,2023,6,7,17,28,19,694
50.00770,0.05635,-0.23170,0.00000,0.02952,0.97868,-0.18727,0.0,2023,6,7,17,28,19,705
50.00780,0.12635,-0.00420,0.00000,0.03184,0.97893,-0.18520,0.0,2023,6,7,17,28,19,716
50.00790,0.24885,0.01330,0.00000,0.03209,0.97393,-0.18910,0.0,2023,6,7,17,28,19,727
50.00800,0.00385,0.01330,0.00000,0.03062,0.97771,-0.18617,0.0,2023,6,7,17,28,19,738
50.00810,-0.08365,-0.19670,0.00000,0.03087,0.97698,-0.18898,0.0,2023,6,7,17,28,19,750
50.00820,-0.03115,0.01330,0.00000,0.02879,0.97649,-0.18849,0.0,2023,6,7,17,28,19,761
50.00830,0.07385,-0.02170,0.00000,0.03209,0.97612,-0.18703,0.0,2023,6,7,17,28,19,772
50.00840,0.05635,-0.16170,0.00000,0.03257,0.97673,-0.18922,0.0,2023,6,7,17,28,19,783
50.00850,-0.13615,-0.02170,0.00000,0.02977,0.97710,-0.18886,0.0,2023,6,7,17,28,19,794
50.00860,0.19635,-0.14420,0.00000,0.03123,0.97746,-0.18629,0.0,2023,6,7,17,28,19,805
50.00870,0.07385,-0.00420,0.00000,0.03160,0.97661,-0.18898,0.0,2023,6,7,17,28,19,816
50.00880,0.14385,-0.10920,0.00000,0.03026,0.97759,-0.18861,0.0,2023,6,7,17,28,19,827
50.00890,-0.10115,-0.12670,0.00000,0.03050,0.97515,-0.18837,0.0,2023,6,7,17,28,19,838
50.00900,0.07385,-0.07420,0.00000,0.02952,0.97576,-0.18910,0.0,2023,6,7,17,28,19,849
50.00910,0.03885,-0.12670,0.00000,0.03123,0.97685,-0.18812,0.0,2023,6,7,17,28,19,861
50.00920,0.21385,0.04830,0.00000,0.02989,0.97539,-0.18910,0.0,2023,6,7,17,28,19,872
50.00930,-0.13615,0.20580,0.00000,0.03001,0.97685,-0.18727,0.0,2023,6,7,17,28,19,883
50.00940,0.17885,-0.02170,0.00000,0.03233,0.97563,-0.18739,0.0,2023,6,7,17,28,19,894
50.00950,-0.06615,-0.05670,0.00000,0.03026,0.97722,-0.18703,0.0,2023,6,7,17,28,19,905
50.00960,0.02135,0.03080,0.00000,0.03062,0.97368,-0.18886,0.0,2023,6,7,17,28,19,916
50.00970,-0.04865,0.11830,0.00000,0.03087,0.97990,-0.18995,0.0,2023,6,7,17,28,19,927
50.00980,-0.17115,0.15330,0.00000,0.03087,0.97490,-0.18947,0.0,2023,6,7,17,28,19,938
50.00990,0.00385,-0.05670,0.00000,0.03172,0.97624,-0.18812,0.0,2023,6,7,17,28,19,949
50.01000,0.09135,0.20580,0.00000,0.03148,0.97490,-0.18764,0.0,2023,6,7,17,28,19,960
50.01010,-0.17115,-0.16170,0.00000,0.03184,0.97783,-0.18898,0.0,2023,6,7,17,28,19,972
50.01020,-0.04865,0.08330,0.00000,0.03172,0.97771,-0.18703,0.0,2023,6,7,17,28,19,983
50.01030,0.00385,0.04830,0.00000,0.03257,0.97771,-0.18690,0.0,2023,6,7,17,28,19,994
50.01040,0.00385,-0.12670,0.00000,0.03172,0.97539,-0.18800,0.0,2023,6,7,17,28,20,5
50.01050,0.00385,0.17080,0.00000,0.03257,0.97576,-0.18922,0.0,2023,6,7,17,28,20,16
50.01060,0.09135,-0.02170,0.00000,0.03270,0.97722,-0.18983,0.0,2023,6,7,17,28,20,27
50.01070,-0.17115,-0.23170,0.00000,0.03221,0.97820,-0.18581,0.0,2023,6,7,17,28,20,38
50.01080,-0.08365,0.11830,0.00000,0.03501,0.97783,-0.18800,0.0,2023,6,7,17,28,20,49
50.01090,-0.01365,0.10080,0.00000,0.02928,0.97673,-0.18837,0.0,2023,6,7,17,28,20,60
50.01100,-0.08365,-0.30170,0.00000,0.03233,0.97502,-0.18910,0.0,2023,6,7,17,28,20,71
50.01110,-0.03115,-0.05670,0.00000,0.03135,0.97551,-0.18947,0.0,2023,6,7,17,28,20,83
50.01120,-0.20615,0.08330,0.00000,0.03135,0.97759,-0.18922,0.0,2023,6,7,17,28,20,94
50.01130,0.05635,-0.03920,0.00000,0.03209,0.97637,-0.18727,0.0,2023,6,7,17,28,20,105
50.01140,0.12635,-0.12670,0.00000,0.03282,0.97698,-0.19178,0.0,2023,6,7,17,28,20,116
50.01150,-0.13615,-0.05670,0.00000,0.03172,0.97490,-0.18983,0.0,2023,6,7,17,28,20,127
50.01160,0.12635,0.01330,0.00000,0.03087,0.97393,-0.19032,0.0,2023,6,7,17,28,20,138
50.01170,0.03885,-0.09170,0.00000,0.03306,0.97588,-0.18886,0.0,2023,6,7,17,28,20,149
50.01180,0.10885,-0.12670,0.00000,0.03209,0.97661,-0.18922,0.0,2023,6,7,17,28,20,160
50.01190,0.12635,0.03080,0.00000,0.03062,0.97759,-0.18995,0.0,2023,6,7,17,28,20,171
50.01200,-0.15365,0.10080,0.00000,0.03172,0.97258,-0.18873,0.0,2023,6,7,17,28,20,182
50.01210,-0.04865,0.10080,0.00000,0.03245,0.97563,-0.19203,0.0,2023,6,7,17,28,20,194
50.01220,0.00385,-0.02170,0.00000,0.03135,0.97576,-0.18751,0.0,2023,6,7,17,28,20,205
50.01230,0.07385,-0.05670,0.00000,0.03062,0.97685,-0.18666,0.0,2023,6,7,17,28,20,216
50.01240,0.10885,0.08330,0.00000,0.03221,0.97820,-0.19044,0.0,2023,6,7,17,28,20,227
50.01250,0.07385,0.17080,0.00000,0.03367,0.97502,-0.18568,0.0,2023,6,7,17,28,20,238
50.01260,-0.08365,0.08330,0.00000,0.03209,0.97624,-0.18788,0.0,2023,6,7,17,28,20,249
50.01270,0.00385,-0.10920,0.00000,0.03184,0.97576,-0.18898,0.0,2023,6,7,17,28,20,260
50.01280,0.07385,-0.09170,0.00000,0.03001,0.97722,-0.18812,0.0,2023,6,7,17,28,20,271
50.01290,0.00385,-0.05670,0.00000,0.03184,0.97649,-0.18971,0.0,2023,6,7,17,28,20,282
50.01300,0.00385,0.10080,0.00000,0.03306,0.97478,-0.19020,0.0,2023,6,7,17,28,20,293
50.01310,-0.08365,-0.00420,0.00000,0.03013,0.97527,-0.19044,0.0,2023,6,7,17,28,20,305
50.01320,-0.06615,0.11830,0.00000,0.03196,0.97478,-0.18934,0.0,2023,6,7,17,28,20,316
50.01330,0.10885,0.04830,0.00000,0.03062,0.97637,-0.19130,0.0,2023,6,7,17,28,20,327
50.01340,-0.08365,-0.00420,0.00000,0.03245,0.97966,-0.18983,0.0,2023,6,7,17,28,20,338
50.01350,0.10885,0.03080,0.00000,0.03062,0.97759,-0.18910,0.0,2023,6,7,17,28,20,349
50.01360,0.12635,0.04830,0.00000,0.02928,0.97722,-0.18727,0.0,2023,6,7,17,28,20,360
50.01370,-0.04865,-0.03920,0.00000,0.03148,0.97673,-0.18605,0.0,2023,6,7,17,28,20,371
50.01380,-0.15365,-0.00420,0.00000,0.03111,0.97734,-0.18398,0.0,2023,6,7,17,28,20,382
50.01390,0.35385,0.08330,0.00000,0.03038,0.97698,-0.19044,0.0,2023,6,7,17,28,20,393
50.01400,-0.06615,0.08330,0.00000,0.02965,0.97698,-0.18971,0.0,2023,6,7,17,28,20,404
50.01410,-0.20615,0.24080,0.00000,0.03135,0.97502,-0.18861,0.0,2023,6,7,17,28,20,416
50.01420,0.03885,-0.02170,0.00000,0.03062,0.97624,-0.18898,0.0,2023,6,7,17,28,20,427
50.01430,-0.03115,-0.03920,0.00000,0.03221,0.97637,-0.18800,0.0,2023,6,7,17,28,20,438
50.01440,0.21385,0.03080,0.00000,0.03282,0.97515,-0.19093,0.0,2023,6,7,17,28,20,449
50.01450,0.09135,-0.00420,0.00000,0.03160,0.97454,-0.18678,0.0,2023,6,7,17,28,20,460
50.01460,-0.15365,0.06580,0.00000,0.03221,0.97637,-0.18678,0.0,2023,6,7,17,28,20,471
50.01470,0.02135,0.10080,0.00000,0.03111,0.97478,-0.18666,0.0,2023,6,7,17,28,20,482
50.01480,-0.13615,-0.16170,0.00000,0.03038,0.97624,-0.18703,0.0,2023,6,7,17,28,20,493
50.01490,0.10885,-0.23170,0.00000,0.03038,0.97844,-0.19020,0.0,2023,6,7,17,28,20,504
50.01500,0.05635,-0.10920,0.00000,0.03331,0.97698,-0.18825,0.0,2023,6,7,17,28,20,515
50.01510,-0.01365,-0.12670,0.00000,0.03135,0.97722,-0.18947,0.0,2023,6,7,17,28,20,527
50.01520,-0.08365,0.08330,0.00000,0.03148,0.97624,-0.18922,0.0,2023,6,7,17,28,20,538
50.01530,-0.06615,0.01330,0.00000,0.03282,0.97527,-0.18959,0.0,2023,6,7,17,28,20,549
50.01540,-0.08365,-0.10920,0.00000,0.03074,0.97515,-0.18971,0.0,2023,6,7,17,28,20,560
50.01550,0.07385,-0.02170,0.00000,0.03233,0.97490,-0.18751,0.0,2023,6,7,17,28,20,571
50.01560,-0.04865,-0.28420,0.00000,0.03135,0.97673,-0.18715,0.0,2023,6,7,17,28,20,582
50.01570,-0.13615,-0.21420,0.00000,0.03160,0.97624,-0.18581,0.0,2023,6,7,17,28,20,593
50.01580,0.21385,0.04830,0.00000,0.02928,0.97527,-0.19008,0.0,2023,6,7,17,28,20,604
50.01590,0.07385,-0.00420,0.00000,0.03233,0.97490,-0.18959,0.0,2023,6,7,17,28,20,615
50.01600,-0.04865,-0.03920,0.00000,0.02794,0.97783,-0.18861,0.0,2023,6,7,17,28,20,626
50.01610,0.03885,0.18830,0.00000,0.03123,0.97734,-0.18934,0.0,2023,6,7,17,28,20,638
50.01620,-0.17115,-0.02170,0.00000,0.03209,0.97515,-0.18812,0.0,2023,6,7,17,28,20,649
50.01630,-0.11865,0.25830,0.00000,0.03013,0.97844,-0.18959,0.0,2023,6,7,17,28,20,660
50.01640,0.03885,0.10080,0.00000,0.03099,0.97673,-0.19069,0.0,2023,6,7,17,28,20,671
50.01650,0.03885,0.03080,0.00000,0.03209,0.97588,-0.18861,0.0,2023,6,7,17,28,20,682
50.01660,-0.04865,0.03080,0.00000,0.03074,0.97698,-0.18666,0.0,2023,6,7,17,28,20,693
50.01670,0.05635,-0.17920,0.00000,0.03026,0.97698,-0.18837,0.0,2023,6,7,17,28,20,704
50.01680,-0.01365,0.01330,0.00000,0.03001,0.97917,-0.18776,0.0,2023,6,7,17,28,20,715
50.01690,0.03885,0.13580,0.00000,0.03172,0.97673,-0.18776,0.0,2023,6,7,17,28,20,726
50.01700,-0.08365,-0.03920,0.00000,0.03318,0.97600,-0.19044,0.0,2023,6,7,17,28,20,737
50.01710,-0.11865,0.06580,0.00000,0.02916,0.97771,-0.18849,0.0,2023,6,7,17,28,20,749
50.01720,-0.06615,-0.14420,0.00000,0.03343,0.97722,-0.18861,0.0,2023,6,7,17,28,20,760
50.01730,-0.06615,0.10080,0.00000,0.03026,0.97734,-0.19178,0.0,2023,6,7,17,28,20,771
50.01740,-0.01365,0.01330,0.00000,0.02830,0.97612,-0.18971,0.0,2023,6,7,17,28,20,782
50.01750,0.19635,-0.12670,0.00000,0.03135,0.97624,-0.18739,0.0,2023,6,7,17,28,20,793
50.01760,0.09135,-0.14420,0.00000,0.03331,0.97673,-0.18849,0.0,2023,6,7,17,28,20,804
50.01770,-0.08365,0.13580,0.00000,0.03160,0.97746,-0.18678,0.0,2023,6,7,17,28,20,815
50.01780,0.02135,0.10080,0.00000,0.03026,0.97637,-0.19032,0.0,2023,6,7,17,28,20,826
50.01790,0.02135,0.01330,0.00000,0.03221,0.97820,-0.18922,0.0,2023,6,7,17,28,20,837
50.01800,-0.08365,0.01330,0.00000,0.03135,0.97881,-0.18715,0.0,2023,6,7,17,28,20,848
50.01810,0.03885,0.03080,0.00000,0.02928,0.97881,-0.18873,0.0,2023,6,7,17,28,20,860
50.01820,-0.15365,0.11830,0.00000,0.02818,0.97417,-0.19130,0.0,2023,6,7,17,28,20,871
50.01830,-0.04865,-0.07420,0.00000,0.03233,0.97820,-0.18849,0.0,2023,6,7,17,28,20,882
50.01840,0.07385,0.08330,0.00000,0.03148,0.97515,-0.18764,0.0,2023,6,7,17,28,20,893
50.01850,0.03885,0.03080,0.00000,0.03196,0.97685,-0.18812,0.0,2023,6,7,17,28,20,904
50.01860,0.02135,0.10080,0.00000,0.03087,0.97722,-0.19203,0.0,2023,6,7,17,28,20,915
50.01870,-0.11865,0.15330,0.00000,0.02989,0.97698,-0.18910,0.0,2023,6,7,17,28,20,926
50.01880,-0.11865,-0.05670,0.00000,0.03257,0.97771,-0.18995,0.0,2023,6,7,17,28,20,937
50.01890,-0.03115,0.18830,0.00000,0.02904,0.97734,-0.18947,0.0,2023,6,7,17,28,20,948
50.01900,0.02135,-0.05670,0.00000,0.03209,0.97539,-0.18520,0.0,2023,6,7,17,28,20,959
50.01910,0.07385,-0.17920,0.00000,0.03148,0.97563,-0.19069,0.0,2023,6,7,17,28,20,971
50.01920,-0.10115,0.17080,0.00000,0.03050,0.97795,-0.18703,0.0,2023,6,7,17,28,20,982
50.01930,-0.01365,-0.05670,0.00000,0.03087,0.97856,-0.18825,0.0,2023,6,7,17,28,20,993
50.01940,-0.08365,-0.10920,0.00000,0.03270,0.97734,-0.18947,0.0,2023,6,7,17,28,21,4
50.01950,0.14385,0.01330,0.00000,0.03172,0.97490,-0.18995,0.0,2023,6,7,17,28,21,15
50.01960,0.03885,-0.03920,0.00000,0.03270,0.97539,-0.18617,0.0,2023,6,7,17,28,21,26
50.01970,0.03885,0.01330,0.00000,0.03062,0.97783,-0.19044,0.0,2023,6,7,17,28,21,37
50.01980,-0.17115,-0.12670,0.00000,0.02879,0.97673,-0.18995,0.0,2023,6,7,17,28,21,48
50.01990,0.16135,-0.07420,0.00000,0.02989,0.97673,-0.19032,0.0,2023,6,7,17,28,21,59
50.02000,0.03885,-0.00420,0.00000,0.03074,0.97527,-0.18703,0.0,2023,6,7,17,28,21,70
50.02010,-0.08365,-0.05670,0.00000,0.03294,0.97539,-0.19020,0.0,2023,6,7,17,28,21,82
50.02020,-0.17115,0.13580,0.00000,0.03282,0.97698,-0.18898,0.0,2023,6,7,17,28,21,93
50.02030,0.05635,-0.09170,0.00000,0.03099,0.97637,-0.19020,0.0,2023,6,7,17,28,21,104
50.02040,0.09135,0.06580,0.00000,0.02977,0.97502,-0.18727,0.0,2023,6,7,17,28,21,115
50.02050,-0.03115,-0.02170,0.00000,0.03111,0.97661,-0.18934,0.0,2023,6,7,17,28,21,126
50.02060,-0.03115,-0.03920,0.00000,0.03135,0.97612,-0.18947,0.0,2023,6,7,17,28,21,137
50.02070,0.10885,0.03080,0.00000,0.03135,0.97551,-0.19069,0.0,2023,6,7,17,28,21,148
50.02080,-0.10115,0.18830,0.00000,0.03135,0.97576,-0.18837,0.0,2023,6,7,17,28,21,159
50.02090,0.07385,-0.16170,0.00000,0.02940,0.97661,-0.18825,0.0,2023,6,7,17,28,21,170
50.02100,0.16135,0.24080,0.00000,0.03282,0.97551,-0.18568,0.0,2023,6,7,17,28,21,181
50.02110,0.02135,0.13580,0.00000,0.03062,0.97820,-0.18837,0.0,2023,6,7,17,28,21,193
50.02120,-0.01365,-0.00420,0.00000,0.03087,0.97490,-0.18849,0.0,2023,6,7,17,28,21,204
50.02130,-0.01365,0.04830,0.00000,0.02989,0.97649,-0.18837,0.0,2023,6,7,17,28,21,215
50.02140,0.02135,-0.02170,0.00000,0.03062,0.97844,-0.18849,0.0,2023,6,7,17,28,21,226
50.02150,0.16135,-0.07420,0.00000,0.03099,0.97563,-0.18873,0.0,2023,6,7,17,28,21,237
50.02160,0.14385,-0.09170,0.00000,0.03294,0.97478,-0.18873,0.0,2023,6,7,17,28,21,248
50.02170,-0.06615,-0.00420,0.00000,0.03026,0.97661,-0.19008,0.0,2023,6,7,17,28,21,259
50.02180,0.07385,0.10080,0.00000,0.03270,0.97929,-0.18959,0.0,2023,6,7,17,28,21,270
50.02190,-0.04865,0.01330,0.00000,0.02904,0.97759,-0.18715,0.0,2023,6,7,17,28,21,281
50.02200,-0.03115,0.08330,0.00000,0.03001,0.97637,-0.18764,0.0,2023,6,7,17,28,21,292
50.02210,-0.01365,-0.02170,0.00000,0.03062,0.97637,-0.18861,0.0,2023,6,7,17,28,21,304
50.02220,0.10885,-0.14420,0.00000,0.03148,0.98027,-0.18922,0.0,2023,6,7,17,28,21,315
50.02230,0.14385,-0.16170,0.00000,0.03123,0.97795,-0.18983,0.0,2023,6,7,17,28,21,326
50.02240,0.09135,-0.16170,0.00000,0.03148,0.97637,-0.18727,0.0,2023,6,7,17,28,21,337
50.02250,0.09135,-0.03920,0.00000,0.03233,0.97954,-0.18983,0.0,2023,6,7,17,28,21,348
50.02260,0.00385,-0.00420,0.00000,0.03221,0.97527,-0.18995,0.0,2023,6,7,17,28,21,359
50.02270,-0.17115,-0.03920,0.00000,0.03038,0.97637,-0.18934,0.0,2023,6,7,17,28,21,370
50.02280,0.09135,-0.12670,0.00000,0.03172,0.97844,-0.18690,0.0,2023,6,7,17,28,21,381
50.02290,-0.06615,-0.05670,0.00000,0.03148,0.97820,-0.18629,0.0,2023,6,7,17,28,21,392
50.02300,-0.01365,-0.05670,0.00000,0.03062,0.97661,-0.18873,0.0,2023,6,7,17,28,21,403
50.02310,0.16135,0.03080,0.00000,0.03245,0.97393,-0.18776,0.0,2023,6,7,17,28,21,415
50.02320,0.00385,-0.21420,0.00000,0.02940,0.97649,-0.18873,0.0,2023,6,7,17,28,21,426
50.02330,-0.24115,0.01330,0.00000,0.03099,0.97673,-0.18422,0.0,2023,6,7,17,28,21,437
50.02340,-0.01365,0.04830,0.00000,0.03135,0.97685,-0.18849,0.0,2023,6,7,17,28,21,448
50.02350,-0.08365,0.03080,0.00000,0.03123,0.97807,-0.18971,0.0,2023,6,7,17,28,21,459
50.02360,0.05635,-0.02170,0.00000,0.03038,0.97685,-0.18727,0.0,2023,6,7,17,28,21,470
50.02370,-0.08365,-0.10920,0.00000,0.03050,0.97563,-0.18825,0.0,2023,6,7,17,28,21,481
50.02380,0.00385,-0.00420,0.00000,0.03294,0.97624,-0.18678,0.0,2023,6,7,17,28,21,492
50.02390,-0.08365,0.08330,0.00000,0.03184,0.97539,-0.18873,0.0,2023,6,7,17,28,21,503
50.02400,0.02135,0.03080,0.00000,0.03001,0.97771,-0.18666,0.0,2023,6,7,17,28,21,514
50.02410,-0.08365,0.08330,0.00000,0.02928,0.97490,-0.19093,0.0,2023,6,7,17,28,21,526
50.02420,0.07385,-0.17920,0.00000,0.03257,0.97722,-0.18739,0.0,2023,6,7,17,28,21,537
50.02430,-0.03115,0.03080,0.00000,0.03196,0.97783,-0.18593,0.0,2023,6,7,17,28,21,548
50.02440,0.05635,0.01330,0.00000,0.03160,0.97429,-0.19020,0.0,2023,6,7,17,28,21,559
50.02450,0.05635,-0.07420,0.00000,0.03196,0.97515,-0.18849,0.0,2023,6,7,17,28,21,570
50.02460,-0.11865,-0.14420,0.00000,0.03001,0.97685,-0.18776,0.0,2023,6,7,17,28,21,581
50.02470,0.02135,0.11830,0.00000,0.03209,0.97942,-0.19056,0.0,2023,6,7,17,28,21,592
50.02480,0.02135,-0.09170,0.00000,0.03270,0.97551,-0.18898,0.0,2023,6,7,17,28,21,603
50.02490,-0.06615,-0.07420,0.00000,0.03318,0.97515,-0.18898,0.0,2023,6,7,17,28,21,614
50.02500,-0.11865,-0.00420,0.00000,0.03111,0.97698,-0.18690,0.0,2023,6,7,17,28,21,625
50.02510,0.02135,-0.12670,0.00000,0.03135,0.97649,-0.18556,0.0,2023,6,7,17,28,21,637
50.02520,-0.01365,0.03080,0.00000,0.03355,0.97527,-0.18983,0.0,2023,6,7,17,28,21,648
50.02530,0.03885,-0.00420,0.00000,0.02977,0.97417,-0.18983,0.0,2023,6,7,17,28,21,659
50.02540,0.09135,-0.03920,0.00000,0.03111,0.97539,-0.18934,0.0,2023,6,7,17,28,21,670
50.02550,0.05635,0.13580,0.00000,0.02977,0.97783,-0.18995,0.0,2023,6,7,17,28,21,681
50.02560,0.05635,-0.02170,0.00000,0.03160,0.97746,-0.18837,0.0,2023,6,7,17,28,21,692
50.02570,-0.06615,-0.09170,0.00000,0.03074,0.97734,-0.18764,0.0,2023,6,7,17,28,21,703
50.02580,-0.01365,0.03080,0.00000,0.03123,0.97637,-0.18825,0.0,2023,6,7,17,28,21,714
50.02590,0.03885,-0.10920,0.00000,0.03148,0.97551,-0.18934,0.0,2023,6,7,17,28,21,725
50.02600,-0.11865,-0.09170,0.00000,0.03148,0.97685,-0.18751,0.0,2023,6,7,17,28,21,736
50.02610,0.02135,-0.10920,0.00000,0.03209,0.97759,-0.18910,0.0,2023,6,7,17,28,21,748
50.02620,-0.01365,-0.07420,0.00000,0.02952,0.97685,-0.18825,0.0,2023,6,7,17,28,21,759
50.02630,0.14385,-0.02170,0.00000,0.03148,0.97722,-0.18995,0.0,2023,6,7,17,28,21,770
50.02640,-0.01365,-0.03920,0.00000,0.03343,0.97673,-0.19044,0.0,2023,6,7,17,28,21,781
50.02650,0.00385,0.06580,0.00000,0.03099,0.97612,-0.18764,0.0,2023,6,7,17,28,21,792
50.02660,0.21385,-0.00420,0.00000,0.03038,0.97429,-0.19105,0.0,2023,6,7,17,28,21,803
50.02670,-0.01365,-0.07420,0.00000,0.02989,0.97734,-0.18873,0.0,2023,6,7,17,28,21,814
50.02680,-0.06615,0.08330,0.00000,0.03074,0.97783,-0.18971,0.0,2023,6,7,17,28,21,825
50.02690,-0.08365,-0.00420,0.00000,0.02891,0.97527,-0.18886,0.0,2023,6,7,17,28,21,836
50.02700,-0.06615,-0.09170,0.00000,0.03123,0.97746,-0.18800,0.0,2023,6,7,17,28,21,847
50.02710,-0.04865,0.01330,0.00000,0.03245,0.97734,-0.19056,0.0,2023,6,7,17,28,21,859
50.02720,0.00385,0.06580,0.00000,0.03001,0.97551,-0.18739,0.0,2023,6,7,17,28,21,870
50.02730,0.16135,-0.05670,0.00000,0.03172,0.97539,-0.19227,0.0,2023,6,7,17,28,21,881
50.02740,0.24885,0.06580,0.00000,0.02977,0.97759,-0.18727,0.0,2023,6,7,17,28,21,892
50.02750,0.05635,-0.07420,0.00000,0.03148,0.97637,-0.18959,0.0,2023,6,7,17,28,21,903
50.02760,0.07385,-0.03920,0.00000,0.03148,0.97893,-0.18605,0.0,2023,6,7,17,28,21,914
50.02770,-0.01365,0.06580,0.00000,0.03123,0.97478,-0.18837,0.0,2023,6,7,17,28,21,925
50.02780,0.16135,-0.00420,0.00000,0.03148,0.97710,-0.18959,0.0,2023,6,7,17,28,21,936
50.02790,0.23135,-0.09170,0.00000,0.03379,0.97441,-0.18922,0.0,2023,6,7,17,28,21,947
50.02800,0.00385,-0.09170,0.00000,0.03257,0.97405,-0.18983,0.0,2023,6,7,17,28,21,958
50.02810,-0.11865,-0.14420,0.00000,0.03074,0.97563,-0.18922,0.0,2023,6,7,17,28,21,970
50.02820,0.00385,0.06580,0.00000,0.03221,0.97795,-0.18910,0.0,2023,6,7,17,28,21,981
50.02830,0.03885,0.08330,0.00000,0.03001,0.97405,-0.19252,0.0,2023,6,7,17,28,21,992
50.02840,-0.03115,-0.10920,0.00000,0.02904,0.97490,-0.19044,0.0,2023,6,7,17,28,22,3
50.02850,0.02135,0.11830,0.00000,0.03148,0.97649,-0.18898,0.0,2023,6,7,17,28,22,14
50.02860,0.19635,-0.31920,0.00000,0.03111,0.97722,-0.18764,0.0,2023,6,7,17,28,22,25
50.02870,0.07385,-0.09170,0.00000,0.03440,0.97478,-0.19117,0.0,2023,6,7,17,28,22,36
50.02880,-0.03115,-0.10920,0.00000,0.03001,0.97710,-0.19056,0.0,2023,6,7,17,28,22,47
50.02890,0.09135,0.03080,0.00000,0.03087,0.97734,-0.19044,0.0,2023,6,7,17,28,22,58
50.02900,-0.01365,0.22330,0.00000,0.03135,0.97795,-0.18898,0.0,2023,6,7,17,28,22,69
50.02910,0.07385,0.06580,0.00000,0.03282,0.97600,-0.19093,0.0,2023,6,7,17,28,22,81
50.02920,-0.10115,0.08330,0.00000,0.03013,0.97807,-0.18934,0.0,2023,6,7,17,28,22,92
50.02930,0.05635,-0.05670,0.00000,0.03013,0.97502,-0.18642,0.0,2023,6,7,17,28,22,103
50.02940,0.02135,0.01330,0.00000,0.03184,0.97673,-0.18642,0.0,2023,6,7,17,28,22,114
50.02950,0.07385,-0.23170,0.00000,0.03282,0.97551,-0.18934,0.0,2023,6,7,17,28,22,125
50.02960,-0.06615,-0.07420,0.00000,0.03148,0.97917,-0.18642,0.0,2023,6,7,17,28,22,136
50.02970,-0.20615,-0.16170,0.00000,0.03026,0.97600,-0.18898,0.0,2023,6,7,17,28,22,147
50.02980,0.03885,0.03080,0.00000,0.03062,0.97673,-0.18983,0.0,2023,6,7,17,28,22,158
50.02990,-0.10115,0.03080,0.00000,0.03050,0.97685,-0.18873,0.0,2023,6,7,17,28,22,169
50.03000,0.07385,0.01330,0.00000,0.03001,0.97649,-0.18995,0.0,2023,6,7,17,28,22,180
50.03010,-0.06615,-0.05670,0.00000,0.03160,0.97624,-0.18837,0.0,2023,6,7,17,28,22,192
50.03020,0.14385,-0.00420,0.00000,0.03099,0.97710,-0.18886,0.0,2023,6,7,17,28,22,203
50.03030,-0.11865,-0.05670,0.00000,0.03538,0.97417,-0.18739,0.0,2023,6,7,17,28,22,214
50.03040,0.12635,-0.23170,0.00000,0.03306,0.97673,-0.18837,0.0,2023,6,7,17,28,22,225
50.03050,-0.01365,-0.10920,0.00000,0.03270,0.97795,-0.18617,0.0,2023,6,7,17,28,22,236
50.03060,0.00385,-0.03920,0.00000,0.02928,0.97783,-0.19166,0.0,2023,6,7,17,28,22,247
50.03070,0.05635,-0.07420,0.00000,0.03148,0.97612,-0.18886,0.0,2023,6,7,17,28,22,258
50.03080,0.12635,-0.09170,0.00000,0.03062,0.97600,-0.18764,0.0,2023,6,7,17,28,22,269
50.03090,-0.06615,0.10080,0.00000,0.03160,0.97807,-0.18825,0.0,2023,6,7,17,28,22,280
50.03100,0.03885,-0.05670,0.00000,0.03111,0.97710,-0.18690,0.0,2023,6,7,17,28,22,291
50.03110,0.03885,-0.19670,0.00000,0.03233,0.97539,-0.18861,0.0,2023,6,7,17,28,22,303
50.03120,-0.06615,-0.07420,0.00000,0.03160,0.97551,-0.18678,0.0,2023,6,7,17,28,22,314
50.03130,-0.01365,-0.19670,0.00000,0.03270,0.97478,-0.18495,0.0,2023,6,7,17,28,22,325
50.03140,0.12635,-0.10920,0.00000,0.03001,0.97539,-0.18898,0.0,2023,6,7,17,28,22,336
50.03150,0.07385,0.01330,0.00000,0.03087,0.97783,-0.18947,0.0,2023,6,7,17,28,22,347
50.03160,-0.01365,-0.07420,0.00000,0.02989,0.97722,-0.19020,0.0,2023,6,7,17,28,22,358
50.03170,0.09135,0.10080,0.00000,0.03148,0.97539,-0.18910,0.0,2023,6,7,17,28,22,369
50.03180,-0.03115,0.03080,0.00000,0.03367,0.97893,-0.18837,0.0,2023,6,7,17,28,22,380
50.03190,0.02135,0.15330,0.00000,0.03135,0.97380,-0.18800,0.0,2023,6,7,17,28,22,391
50.03200,0.26635,-0.07420,0.00000,0.03343,0.97685,-0.18800,0.0,2023,6,7,17,28,22,402
50.03210,-0.03115,0.01330,0.00000,0.03123,0.97637,-0.18764,0.0,2023,6,7,17,28,22,414
50.03220,-0.03115,-0.05670,0.00000,0.03148,0.97405,-0.18642,0.0,2023,6,7,17,28,22,425
50.03230,0.07385,0.01330,0.00000,0.03099,0.97502,-0.18837,0.0,2023,6,7,17,28,22,436
50.03240,0.10885,-0.07420,0.00000,0.02965,0.97746,-0.18715,0.0,2023,6,7,17,28,22,447
50.03250,-0.13615,-0.03920,0.00000,0.03160,0.97405,-0.18861,0.0,2023,6,7,17,28,22,458
50.03260,0.00385,0.04830,0.00000,0.03196,0.97881,-0.18703,0.0,2023,6,7,17,28,22,469
50.03270,0.12635,0.13580,0.00000,0.03135,0.97746,-0.18788,0.0,2023,6,7,17,28,22,480
50.03280,-0.03115,-0.21420,0.00000,0.03062,0.97576,-0.18776,0.0,2023,6,7,17,28,22,491
50.03290,0.03885,-0.02170,0.00000,0.03148,0.97673,-0.18654,0.0,2023,6,7,17,28,22,502
50.03300,-0.11865,-0.09170,0.00000,0.03148,0.97673,-0.18812,0.0,2023,6,7,17,28,22,513
50.03310,0.05635,-0.00420,0.00000,0.03343,0.97649,-0.18861,0.0,2023,6,7,17,28,22,525
50.03320,0.10885,-0.12670,0.00000,0.03245,0.97576,-0.19008,0.0,2023,6,7,17,28,22,536
50.03330,-0.11865,0.06580,0.00000,0.03135,0.97685,-0.18715,0.0,2023,6,7,17,28,22,547
50.03340,0.02135,0.04830,0.00000,0.03087,0.97661,-0.18825,0.0,2023,6,7,17,28,22,558
50.03350,-0.04865,0.06580,0.00000,0.03050,0.97612,-0.18727,0.0,2023,6,7,17,28,22,569
50.03360,0.10885,0.15330,0.00000,0.03221,0.97515,-0.18910,0.0,2023,6,7,17,28,22,580
50.03370,0.21385,-0.03920,0.00000,0.02879,0.97661,-0.19105,0.0,2023,6,7,17,28,22,591
50.03380,-0.18865,0.11830,0.00000,0.03111,0.97832,-0.18703,0.0,2023,6,7,17,28,22,602
50.03390,0.03885,0.04830,0.00000,0.03148,0.97698,-0.19069,0.0,2023,6,7,17,28,22,613
50.03400,-0.04865,0.10080,0.00000,0.03111,0.97649,-0.18873,0.0,2023,6,7,17,28,22,624
50.03410,0.24885,-0.19670,0.00000,0.03026,0.97563,-0.18800,0.0,2023,6,7,17,28,22,636
50.03420,0.21385,-0.00420,0.00000,0.03233,0.97539,-0.18959,0.0,2023,6,7,17,28,22,647
50.03430,-0.22365,0.18830,0.00000,0.03123,0.97600,-0.18886,0.0,2023,6,7,17,28,22,658
50.03440,-0.03115,0.22330,0.00000,0.03184,0.97649,-0.18959,0.0,2023,6,7,17,28,22,669
50.03450,0.10885,-0.03920,0.00000,0.02794,0.97551,-0.19032,0.0,2023,6,7,17,28,22,680
50.03460,-0.17115,0.11830,0.00000,0.02977,0.97576,-0.18873,0.0,2023,6,7,17,28,22,691
50.03470,-0.13615,-0.00420,0.00000,0.03148,0.97820,-0.18873,0.0,2023,6,7,17,28,22,702
50.03480,-0.10115,-0.07420,0.00000,0.02989,0.97661,-0.18690,0.0,2023,6,7,17,28,22,713
50.03490,-0.08365,0.03080,0.00000,0.03221,0.97490,-0.18947,0.0,2023,6,7,17,28,22,724
50.03500,-0.04865,-0.02170,0.00000,0.02855,0.97600,-0.19032,0.0,2023,6,7,17,28,22,735
50.03510,0.00385,-0.02170,0.00000,0.02977,0.97661,-0.19227,0.0,2023,6,7,17,28,22,747
50.03520,0.07385,0.01330,0.00000,0.03379,0.97698,-0.18995,0.0,2023,6,7,17,28,22,758
50.03530,-0.06615,0.06580,0.00000,0.03038,0.97722,-0.18788,0.0,2023,6,7,17,28,22,769
50.03540,0.05635,-0.21420,0.00000,0.03050,0.97795,-0.18861,0.0,2023,6,7,17,28,22,780
50.03550,0.17885,-0.10920,0.00000,0.03221,0.97624,-0.18703,0.0,2023,6,7,17,28,22,791
50.03560,0.05635,-0.05670,0.00000,0.03196,0.97380,-0.18751,0.0,2023,6,7,17,28,22,802
50.03570,0.09135,-0.16170,0.00000,0.03135,0.97746,-0.18629,0.0,2023,6,7,17,28,22,813
50.03580,0.03885,-0.12670,0.00000,0.03135,0.97929,-0.18910,0.0,2023,6,7,17,28,22,824
50.03590,0.12635,-0.24920,0.00000,0.02977,0.97893,-0.18800,0.0,2023,6,7,17,28,22,835
50.03600,-0.06615,0.15330,0.00000,0.03257,0.97551,-0.18727,0.0,2023,6,7,17,28,22,846
50.03610,-0.10115,0.10080,0.00000,0.03148,0.97563,-0.18971,0.0,2023,6,7,17,28,22,858
50.03620,-0.17115,0.01330,0.00000,0.03087,0.97685,-0.19166,0.0,2023,6,7,17,28,22,869
50.03630,-0.27615,0.13580,0.00000,0.03196,0.97502,-0.18861,0.0,2023,6,7,17,28,22,880
50.03640,0.09135,-0.02170,0.00000,0.03379,0.97649,-0.18947,0.0,2023,6,7,17,28,22,891
50.03650,0.07385,0.10080,0.00000,0.03099,0.97600,-0.18568,0.0,2023,6,7,17,28,22,902
50.03660,-0.08365,0.10080,0.00000,0.03355,0.97685,-0.18837,0.0,2023,6,7,17,28,22,913
50.03670,-0.01365,0.04830,0.00000,0.03099,0.97759,-0.18812,0.0,2023,6,7,17,28,22,924
50.03680,0.21385,-0.30170,0.00000,0.03099,0.97612,-0.18959,0.0,2023,6,7,17,28,22,935
50.03690,-0.04865,0.04830,0.00000,0.02977,0.97417,-0.19032,0.0,2023,6,7,17,28,22,946
50.03700,-0.06615,-0.03920,0.00000,0.02977,0.97624,-0.18849,0.0,2023,6,7,17,28,22,957
50.03710,-0.04865,0.13580,0.00000,0.03355,0.97624,-0.18861,0.0,2023,6,7,17,28,22,969
50.03720,-0.08365,0.11830,0.00000,0.03306,0.97710,-0.19032,0.0,2023,6,7,17,28,22,980
50.03730,0.07385,-0.03920,0.00000,0.03245,0.97698,-0.18861,0.0,2023,6,7,17,28,22,991
50.03740,0.09135,-0.07420,0.00000,0.03148,0.97771,-0.18739,0.0,2023,6,7,17,28,23,2
50.03750,-0.13615,-0.02170,0.00000,0.03099,0.97710,-0.18959,0.0,2023,6,7,17,28,23,13
50.03760,0.23135,0.11830,0.00000,0.03099,0.97624,-0.19154,0.0,2023,6,7,17,28,23,24
50.03770,0.02135,-0.07420,0.00000,0.03013,0.97722,-0.18715,0.0,2023,6,7,17,28,23,35
50.03780,0.23135,0.10080,0.00000,0.03135,0.97624,-0.18971,0.0,2023,6,7,17,28,23,46
50.03790,0.09135,-0.05670,0.00000,0.03074,0.97868,-0.18727,0.0,2023,6,7,17,28,23,57
50.03800,-0.18865,0.08330,0.00000,0.03050,0.97441,-0.18886,0.0,2023,6,7,17,28,23,68
50.03810,-0.03115,-0.12670,0.00000,0.03245,0.97783,-0.18873,0.0,2023,6,7,17,28,23,80
50.03820,0.19635,-0.12670,0.00000,0.03050,0.97637,-0.18751,0.0,2023,6,7,17,28,23,91
50.03830,-0.01365,-0.09170,0.00000,0.03026,0.97502,-0.18934,0.0,2023,6,7,17,28,23,102
50.03840,0.10885,0.01330,0.00000,0.02891,0.97820,-0.18861,0.0,2023,6,7,17,28,23,113
50.03850,0.00385,0.13580,0.00000,0.03306,0.97673,-0.18751,0.0,2023,6,7,17,28,23,124
50.03860,-0.17115,-0.03920,0.00000,0.03074,0.97551,-0.18739,0.0,2023,6,7,17,28,23,135
50.03870,-0.01365,-0.02170,0.00000,0.03196,0.97698,-0.18886,0.0,2023,6,7,17,28,23,146
50.03880,-0.06615,-0.28420,0.00000,0.03087,0.97771,-0.18873,0.0,2023,6,7,17,28,23,157
50.03890,-0.03115,-0.12670,0.00000,0.03087,0.97698,-0.18934,0.0,2023,6,7,17,28,23,168
50.03900,0.05635,0.17080,0.00000,0.03270,0.97832,-0.18825,0.0,2023,6,7,17,28,23,179
50.03910,0.17885,-0.14420,0.00000,0.03026,0.97722,-0.18922,0.0,2023,6,7,17,28,23,191
50.03920,0.19635,-0.10920,0.00000,0.03135,0.97612,-0.19044,0.0,2023,6,7,17,28,23,202
50.03930,-0.04865,-0.05670,0.00000,0.03038,0.97612,-0.18544,0.0,2023,6,7,17,28,23,213
50.03940,-0.11865,0.03080,0.00000,0.03318,0.97624,-0.18825,0.0,2023,6,7,17,28,23,224
50.03950,-0.04865,-0.09170,0.00000,0.03257,0.97539,-0.18825,0.0,2023,6,7,17,28,23,235
50.03960,-0.13615,0.17080,0.00000,0.03099,0.97600,-0.18800,0.0,2023,6,7,17,28,23,246
50.03970,0.07385,-0.05670,0.00000,0.03257,0.97868,-0.18837,0.0,2023,6,7,17,28,23,257
50.03980,0.02135,0.01330,0.00000,0.03074,0.97856,-0.18922,0.0,2023,6,7,17,28,23,268
50.03990,-0.11865,0.03080,0.00000,0.03160,0.97893,-0.18983,0.0,2023,6,7,17,28,23,279
50.04000,-0.04865,-0.02170,0.00000,0.02891,0.97551,-0.18837,0.0,2023,6,7,17,28,23,290
50.04010,0.03885,0.03080,0.00000,0.03074,0.97637,-0.18812,0.0,2023,6,7,17,28,23,302
50.04020,0.10885,-0.12670,0.00000,0.03343,0.97929,-0.18788,0.0,2023,6,7,17,28,23,313
50.04030,-0.18865,0.15330,0.00000,0.03087,0.97502,-0.19044,0.0,2023,6,7,17,28,23,324
50.04040,-0.03115,0.04830,0.00000,0.03196,0.97734,-0.19105,0.0,2023,6,7,17,28,23,335
50.04050,0.07385,-0.00420,0.00000,0.03026,0.97515,-0.18568,0.0,2023,6,7,17,28,23,346
50.04060,0.16135,-0.12670,0.00000,0.02830,0.97356,-0.18751,0.0,2023,6,7,17,28,23,357
50.04070,0.16135,0.04830,0.00000,0.03123,0.97856,-0.18898,0.0,2023,6,7,17,28,23,368
50.04080,0.00385,0.08330,0.00000,0.03123,0.97783,-0.19069,0.0,2023,6,7,17,28,23,379
50.04090,0.05635,0.10080,0.00000,0.03184,0.97527,-0.18629,0.0,2023,6,7,17,28,23,390
50.04100,0.10885,-0.10920,0.00000,0.03074,0.97661,-0.19044,0.0,2023,6,7,17,28,23,401
50.04110,0.05635,0.08330,0.00000,0.03087,0.97807,-0.18947,0.0,2023,6,7,17,28,23,413
50.04120,0.23135,-0.35420,0.00000,0.03257,0.97698,-0.18898,0.0,2023,6,7,17,28,23,424
50.04130,0.02135,-0.09170,0.00000,0.03062,0.97868,-0.19093,0.0,2023,6,7,17,28,23,435
50.04140,0.33635,-0.00420,0.00000,0.03245,0.97405,-0.18544,0.0,2023,6,7,17,28,23,446
50.04150,0.02135,0.01330,0.00000,0.03123,0.97698,-0.18568,0.0,2023,6,7,17,28,23,457
50.04160,-0.13615,0.04830,0.00000,0.03135,0.97698,-0.18788,0.0,2023,6,7,17,28,23,468
50.04170,0.12635,-0.00420,0.00000,0.03026,0.97539,-0.19044,0.0,2023,6,7,17,28,23,479
50.04180,0.28385,0.06580,0.00000,0.03038,0.97832,-0.19020,0.0,2023,6,7,17,28,23,490
50.04190,-0.06615,-0.03920,0.00000,0.03026,0.97844,-0.18751,0.0,2023,6,7,17,28,23,501
50.04200,0.09135,-0.09170,0.00000,0.02965,0.97478,-0.18861,0.0,2023,6,7,17,28,23,512
50.04210,0.02135,0.08330,0.00000,0.03318,0.97661,-0.19191,0.0,2023,6,7,17,28,23,524
50.04220,0.02135,-0.10920,0.00000,0.03050,0.97417,-0.18861,0.0,2023,6,7,17,28,23,535
50.04230,-0.04865,-0.02170,0.00000,0.03123,0.97673,-0.18751,0.0,2023,6,7,17,28,23,546
50.04240,-0.06615,0.10080,0.00000,0.03123,0.97746,-0.18886,0.0,2023,6,7,17,28,23,557
50.04250,0.12635,-0.05670,0.00000,0.03013,0.97698,-0.19276,0.0,2023,6,7,17,28,23,568
50.04260,0.10885,-0.00420,0.00000,0.03245,0.97649,-0.18825,0.0,2023,6,7,17,28,23,579
50.04270,-0.03115,-0.07420,0.00000,0.03074,0.97637,-0.18873,0.0,2023,6,7,17,28,23,590
50.04280,-0.08365,-0.09170,0.00000,0.03270,0.97502,-0.18666,0.0,2023,6,7,17,28,23,601
50.04290,0.14385,-0.03920,0.00000,0.03050,0.97832,-0.18898,0.0,2023,6,7,17,28,23,612
50.04300,-0.08365,0.06580,0.00000,0.03233,0.97710,-0.18873,0.0,2023,6,7,17,28,23,623
50.04310,-0.06615,0.08330,0.00000,0.03087,0.97600,-0.18837,0.0,2023,6,7,17,28,23,635
50.04320,-0.18865,0.04830,0.00000,0.03111,0.97624,-0.18654,0.0,2023,6,7,17,28,23,646
50.04330,-0.04865,-0.09170,0.00000,0.02965,0.97734,-0.18666,0.0,2023,6,7,17,28,23,657
50.04340,0.02135,0.17080,0.00000,0.03294,0.97527,-0.18837,0.0,2023,6,7,17,28,23,668
50.04350,0.12635,-0.23170,0.00000,0.03074,0.97624,-0.19203,0.0,2023,6,7,17,28,23,679
50.04360,0.14385,-0.05670,0.00000,0.03123,0.97673,-0.18800,0.0,2023,6,7,17,28,23,690
50.04370,0.19635,0.01330,0.00000,0.03160,0.97844,-0.18776,0.0,2023,6,7,17,28,23,701
50.04380,0.19635,-0.21420,0.00000,0.03123,0.97673,-0.18934,0.0,2023,6,7,17,28,23,712
50.04390,0.05635,0.17080,0.00000,0.03050,0.97661,-0.18861,0.0,2023,6,7,17,28,23,723
50.04400,0.05635,-0.02170,0.00000,0.03074,0.97490,-0.19032,0.0,2023,6,7,17,28,23,734
50.04410,0.00385,0.04830,0.00000,0.03245,0.97746,-0.19020,0.0,2023,6,7,17,28,23,746
50.04420,-0.13615,-0.03920,0.00000,0.03331,0.97368,-0.18764,0.0,2023,6,7,17,28,23,757
50.04430,0.17885,0.03080,0.00000,0.03209,0.97576,-0.18812,0.0,2023,6,7,17,28,23,768
50.04440,-0.15365,0.22330,0.00000,0.03404,0.97807,-0.18861,0.0,2023,6,7,17,28,23,779
50.04450,-0.04865,-0.00420,0.00000,0.02977,0.97649,-0.18666,0.0,2023,6,7,17,28,23,790
50.04460,-0.11865,0.18830,0.00000,0.03135,0.97661,-0.18849,0.0,2023,6,7,17,28,23,801
50.04470,0.00385,0.03080,0.00000,0.03111,0.97661,-0.18751,0.0,2023,6,7,17,28,23,812
50.04480,0.00385,-0.12670,0.00000,0.03013,0.97600,-0.18873,0.0,2023,6,7,17,28,23,823
50.04490,0.28385,-0.05670,0.00000,0.03074,0.97734,-0.19142,0.0,2023,6,7,17,28,23,834
50.04500,-0.06615,0.04830,0.00000,0.03294,0.97637,-0.18812,0.0,2023,6,7,17,28,23,845
50.04510,-0.06615,0.10080,0.00000,0.03013,0.97722,-0.18922,0.0,2023,6,7,17,28,23,857
50.04520,-0.03115,-0.03920,0.00000,0.03209,0.97612,-0.18959,0.0,2023,6,7,17,28,23,868
50.04530,-0.25865,0.34580,0.00000,0.03135,0.97759,-0.19239,0.0,2023,6,7,17,28,23,879
50.04540,-0.11865,0.03080,0.00000,0.03111,0.97539,-0.19166,0.0,2023,6,7,17,28,23,890
50.04550,-0.06615,0.04830,0.00000,0.03209,0.97563,-0.18971,0.0,2023,6,7,17,28,23,901
50.04560,-0.20615,-0.09170,0.00000,0.03160,0.97478,-0.19032,0.0,2023,6,7,17,28,23,912
50.04570,-0.06615,0.04830,0.00000,0.03001,0.97600,-0.19020,0.0,2023,6,7,17,28,23,923
50.04580,0.00385,0.03080,0.00000,0.03294,0.97734,-0.18751,0.0,2023,6,7,17,28,23,934
50.04590,0.05635,0.04830,0.00000,0.03135,0.97539,-0.18861,0.0,2023,6,7,17,28,23,945
50.04600,0.02135,0.08330,0.00000,0.03184,0.97502,-0.18849,0.0,2023,6,7,17,28,23,956
50.04610,-0.25865,0.18830,0.00000,0.03318,0.97637,-0.18849,0.0,2023,6,7,17,28,23,968
50.04620,-0.04865,0.04830,0.00000,0.03111,0.97588,-0.18837,0.0,2023,6,7,17,28,23,979
50.04630,0.07385,0.01330,0.00000,0.03184,0.97515,-0.18873,0.0,2023,6,7,17,28,23,990
50.04640,0.00385,-0.21420,0.00000,0.03038,0.97405,-0.18776,0.0,2023,6,7,17,28,23,1
50.04650,0.05635,-0.10920,0.00000,0.03245,0.97832,-0.18788,0.0,2023,6,7,17,28,24,2
50.04660,0.09135,-0.00420,0.00000,0.03087,0.97771,-0.19227,0.0,2023,6,7,17,28,24,13
50.04670,-0.17115,-0.03920,0.00000,0.03184,0.97307,-0.18678,0.0,2023,6,7,17,28,24,24
50.04680,0.10885,0.01330,0.00000,0.03172,0.97661,-0.18446,0.0,2023,6,7,17,28,24,35
50.04690,0.16135,-0.19670,0.00000,0.03135,0.97588,-0.18995,0.0,2023,6,7,17,28,24,46
50.04700,0.09135,0.04830,0.00000,0.03172,0.97576,-0.18873,0.0,2023,6,7,17,28,24,57
50.04710,0.14385,-0.00420,0.00000,0.03001,0.97551,-0.18873,0.0,2023,6,7,17,28,24,69
50.04720,0.10885,0.32830,0.00000,0.03306,0.97612,-0.18825,0.0,2023,6,7,17,28,24,80
50.04730,0.02135,-0.00420,0.00000,0.02855,0.97771,-0.18837,0.0,2023,6,7,17,28,24,91
50.04740,0.28385,-0.21420,0.00000,0.03184,0.97783,-0.18495,0.0,2023,6,7,17,28,24,102
50.04750,-0.08365,0.13580,0.00000,0.03111,0.97771,-0.18617,0.0,2023,6,7,17,28,24,113
50.04760,-0.08365,-0.14420,0.00000,0.03184,0.97746,-0.18849,0.0,2023,6,7,17,28,24,124
50.04770,-0.03115,-0.09170,0.00000,0.03209,0.97466,-0.18971,0.0,2023,6,7,17,28,24,135
50.04780,-0.01365,0.20580,0.00000,0.03013,0.97722,-0.18983,0.0,2023,6,7,17,28,24,146
50.04790,-0.04865,0.04830,0.00000,0.02916,0.97502,-0.18971,0.0,2023,6,7,17,28,24,157
50.04800,0.02135,0.03080,0.00000,0.03196,0.97539,-0.18788,0.0,2023,6,7,17,28,24,168
50.04810,-0.04865,0.11830,0.00000,0.02989,0.97710,-0.18861,0.0,2023,6,7,17,28,24,180
50.04820,0.09135,0.08330,0.00000,0.03074,0.97588,-0.19130,0.0,2023,6,7,17,28,24,191
50.04830,0.12635,0.01330,0.00000,0.03172,0.97515,-0.18861,0.0,2023,6,7,17,28,24,202
50.04840,-0.06615,0.22330,0.00000,0.03331,0.97393,-0.18398,0.0,2023,6,7,17,28,24,213
50.04850,-0.01365,-0.05670,0.00000,0.03148,0.97649,-0.19081,0.0,2023,6,7,17,28,24,224
50.04860,0.00385,0.01330,0.00000,0.03270,0.97600,-0.18995,0.0,2023,6,7,17,28,24,235
50.04870,-0.10115,-0.00420,0.00000,0.03196,0.97710,-0.18690,0.0,2023,6,7,17,28,24,246
50.04880,0.07385,0.10080,0.00000,0.03148,0.97771,-0.19020,0.0,2023,6,7,17,28,24,257
50.04890,0.09135,0.01330,0.00000,0.03050,0.97576,-0.18642,0.0,2023,6,7,17,28,24,268
50.04900,0.05635,-0.02170,0.00000,0.03123,0.97490,-0.18678,0.0,2023,6,7,17,28,24,279
50.04910,0.23135,-0.05670,0.00000,0.03245,0.97356,-0.18861,0.0,2023,6,7,17,28,24,291
50.04920,-0.04865,-0.02170,0.00000,0.03087,0.97759,-0.18666,0.0,2023,6,7,17,28,24,302
50.04930,-0.03115,-0.00420,0.00000,0.03294,0.97759,-0.19008,0.0,2023,6,7,17,28,24,313
50.04940,0.05635,-0.00420,0.00000,0.03270,0.97539,-0.18812,0.0,2023,6,7,17,28,24,324
50.04950,-0.20615,0.03080,0.00000,0.03148,0.97600,-0.19008,0.0,2023,6,7,17,28,24,335
50.04960,0.17885,-0.02170,0.00000,0.03050,0.97771,-0.18886,0.0,2023,6,7,17,28,24,346
50.04970,-0.10115,-0.09170,0.00000,0.03087,0.97417,-0.18812,0.0,2023,6,7,17,28,24,357
50.04980,-0.04865,0.10080,0.00000,0.03135,0.97734,-0.19374,0.0,2023,6,7,17,28,24,368
50.04990,0.14385,0.08330,0.00000,0.03257,0.97771,-0.18922,0.0,2023,6,7,17,28,24,379
50.05000,-0.18865,-0.03920,0.00000,0.03318,0.97759,-0.18666,0.0,2023,6,7,17,28,24,390
50.05010,-0.20615,0.11830,0.00000,0.03172,0.97783,-0.18812,0.0,2023,6,7,17,28,24,402
50.05020,0.14385,-0.14420,0.00000,0.03038,0.97551,-0.18971,0.0,2023,6,7,17,28,24,413
50.05030,0.09135,-0.03920,0.00000,0.03160,0.97673,-0.19105,0.0,2023,6,7,17,28,24,424
50.05040,-0.01365,0.08330,0.00000,0.03074,0.97502,-0.18886,0.0,2023,6,7,17,28,24,435
50.05050,0.07385,0.01330,0.00000,0.03123,0.97685,-0.18605,0.0,2023,6,7,17,28,24,446
50.05060,0.03885,-0.03920,0.00000,0.03184,0.97405,-0.18764,0.0,2023,6,7,17,28,24,457
50.05070,-0.08365,-0.00420,0.00000,0.02891,0.97673,-0.18727,0.0,2023,6,7,17,28,24,468
50.05080,0.05635,0.06580,0.00000,0.03416,0.97868,-0.18898,0.0,2023,6,7,17,28,24,479
50.05090,0.12635,-0.07420,0.00000,0.03257,0.97759,-0.18898,0.0,2023,6,7,17,28,24,490
50.05100,-0.22365,-0.02170,0.00000,0.03148,0.97441,-0.18654,0.0,2023,6,7,17,28,24,501
50.05110,0.47635,-0.26670,0.00000,0.03221,0.97576,-0.19227,0.0,2023,6,7,17,28,24,513
50.05120,0.00385,-0.21420,0.00000,0.03074,0.97368,-0.18873,0.0,2023,6,7,17,28,24,524
50.05130,-0.31115,-0.02170,0.00000,0.03001,0.97576,-0.18873,0.0,2023,6,7,17,28,24,535
50.05140,0.37135,-0.10920,0.00000,0.03355,0.97746,-0.18910,0.0,2023,6,7,17,28,24,546
50.05150,0.02135,0.01330,0.00000,0.03135,0.97637,-0.18593,0.0,2023,6,7,17,28,24,557
50.05160,-0.15365,-0.03920,0.00000,0.03148,0.97698,-0.19349,0.0,2023,6,7,17,28,24,568
50.05170,0.33635,-0.00420,0.00000,0.03111,0.97661,-0.18873,0.0,2023,6,7,17,28,24,579
50.05180,-0.24115,0.17080,0.00000,0.03209,0.97234,-0.18422,0.0,2023,6,7,17,28,24,590
50.05190,0.19635,-0.00420,0.00000,0.03257,0.97698,-0.19337,0.0,2023,6,7,17,28,24,601
50.05200,0.03885,0.15330,0.00000,0.03355,0.97454,-0.18703,0.0,2023,6,7,17,28,24,612
50.05210,-0.45115,0.22330,0.00000,0.02769,0.97563,-0.18788,0.0,2023,6,7,17,28,24,624
50.05220,0.54635,-0.17920,0.00000,0.03318,0.97966,-0.18910,0.0,2023,6,7,17,28,24,635
50.05230,-0.17115,-0.09170,0.00000,0.03233,0.97490,-0.18398,0.0,2023,6,7,17,28,24,646
50.05240,-0.48615,0.01330,0.00000,0.02965,0.97844,-0.18947,0.0,2023,6,7,17,28,24,657
50.05250,0.40635,-0.09170,0.00000,0.03209,0.97563,-0.19117,0.0,2023,6,7,17,28,24,668
50.05260,-0.52115,0.11830,0.00000,0.03233,0.97637,-0.18410,0.0,2023,6,7,17,28,24,679
50.05270,-0.17115,0.36330,0.00000,0.02928,0.97710,-0.18983,0.0,2023,6,7,17,28,24,690
50.05280,0.37135,-0.07420,0.00000,0.03270,0.97661,-0.18654,0.0,2023,6,7,17,28,24,701
50.05290,-0.25865,0.04830,0.00000,0.03160,0.97454,-0.18971,0.0,2023,6,7,17,28,24,712
50.05300,-0.06615,0.13580,0.00000,0.03050,0.97771,-0.19056,0.0,2023,6,7,17,28,24,723
50.05310,0.02135,0.11830,0.00000,0.03428,0.97234,-0.18495,0.0,2023,6,7,17,28,24,735
50.05320,-0.45115,-0.09170,0.00000,0.03172,0.97942,-0.18812,0.0,2023,6,7,17,28,24,746
50.05330,0.45885,-0.07420,0.00000,0.03172,0.97734,-0.19313,0.0,2023,6,7,17,28,24,757
50.05340,0.10885,-0.10920,0.00000,0.03245,0.97649,-0.18532,0.0,2023,6,7,17,28,24,768
50.05350,-0.04865,-0.19670,0.00000,0.02904,0.97893,-0.18922,0.0,2023,6,7,17,28,24,779
50.05360,0.24885,0.10080,0.00000,0.03392,0.97417,-0.18922,0.0,2023,6,7,17,28,24,790
50.05370,-0.31115,-0.05670,0.00000,0.03233,0.97698,-0.18459,0.0,2023,6,7,17,28,24,801
50.05380,0.03885,-0.02170,0.00000,0.03160,0.97807,-0.19349,0.0,2023,6,7,17,28,24,812
50.05390,0.14385,0.06580,0.00000,0.03135,0.97612,-0.18385,0.0,2023,6,7,17,28,24,823
50.05400,-0.43365,-0.00420,0.00000,0.03196,0.97637,-0.18764,0.0,2023,6,7,17,28,24,834
50.05410,0.19635,0.20580,0.00000,0.03001,0.97661,-0.19178,0.0,2023,6,7,17,28,24,846
50.05420,0.07385,-0.02170,0.00000,0.03111,0.97637,-0.19008,0.0,2023,6,7,17,28,24,857
50.05430,-0.08365,0.11830,0.00000,0.03099,0.97539,-0.18715,0.0,2023,6,7,17,28,24,868
50.05440,0.26635,-0.17920,0.00000,0.03099,0.97502,-0.19044,0.0,2023,6,7,17,28,24,879
50.05450,0.23135,-0.07420,0.00000,0.03184,0.97807,-0.18666,0.0,2023,6,7,17,28,24,890
50.05460,-0.32865,0.08330,0.00000,0.03001,0.97405,-0.18593,0.0,2023,6,7,17,28,24,901
50.05470,0.21385,0.10080,0.00000,0.02928,0.97698,-0.19008,0.0,2023,6,7,17,28,24,912
50.05480,0.02135,0.25830,0.00000,0.03233,0.97551,-0.18617,0.0,2023,6,7,17,28,24,923
50.05490,-0.22365,-0.23170,0.00000,0.02855,0.97490,-0.18629,0.0,2023,6,7,17,28,24,934
50.05500,0.24885,-0.07420,0.00000,0.03013,0.97612,-0.19398,0.0,2023,6,7,17,28,24,945
50.05510,0.17885,-0.00420,0.00000,0.03062,0.97905,-0.19008,0.0,2023,6,7,17,28,24,957
50.05520,-0.27615,0.10080,0.00000,0.03135,0.97600,-0.18398,0.0,2023,6,7,17,28,24,968
50.05530,-0.04865,0.17080,0.00000,0.03257,0.97649,-0.19166,0.0,2023,6,7,17,28,24,979
50.05540,0.23135,-0.05670,0.00000,0.03306,0.97771,-0.18715,0.0,2023,6,7,17,28,24,990
50.05550,-0.22365,0.11830,0.00000,0.03196,0.97649,-0.18727,0.0,2023,6,7,17,28,25,1
50.05560,-0.01365,0.03080,0.00000,0.03245,0.97783,-0.18849,0.0,2023,6,7,17,28,25,12
50.05570,0.19635,-0.00420,0.00000,0.03172,0.97685,-0.18886,0.0,2023,6,7,17,28,25,23
50.05580,-0.17115,-0.02170,0.00000,0.03184,0.97478,-0.18581,0.0,2023,6,7,17,28,25,34
50.05590,0.05635,-0.02170,0.00000,0.03379,0.97905,-0.18898,0.0,2023,6,7,17,28,25,45
50.05600,0.17885,-0.02170,0.00000,0.03135,0.97563,-0.18727,0.0,2023,6,7,17,28,25,56
50.05610,-0.22365,-0.02170,0.00000,0.03111,0.97868,-0.18934,0.0,2023,6,7,17,28,25,68
50.05620,0.31885,-0.10920,0.00000,0.03160,0.97698,-0.18983,0.0,2023,6,7,17,28,25,79
50.05630,-0.25865,-0.03920,0.00000,0.03087,0.97637,-0.18715,0.0,2023,6,7,17,28,25,90
50.05640,0.24885,-0.16170,0.00000,0.03172,0.97746,-0.19178,0.0,2023,6,7,17,28,25,101
50.05650,0.26635,0.10080,0.00000,0.03196,0.97502,-0.19069,0.0,2023,6,7,17,28,25,112
50.05660,-0.39865,0.03080,0.00000,0.03209,0.97600,-0.18581,0.0,2023,6,7,17,28,25,123
50.05670,0.33635,-0.05670,0.00000,0.03050,0.97942,-0.19166,0.0,2023,6,7,17,28,25,134
50.05680,0.44135,0.06580,0.00000,0.03440,0.97637,-0.18666,0.0,2023,6,7,17,28,25,145
50.05690,-0.39865,0.10080,0.00000,0.03001,0.97612,-0.18898,0.0,2023,6,7,17,28,25,156
50.05700,0.52885,-0.14420,0.00000,0.02684,0.97771,-0.19349,0.0,2023,6,7,17,28,25,167
50.05710,0.21385,-0.16170,0.00000,0.03245,0.97527,-0.18361,0.0,2023,6,7,17,28,25,179
50.05720,-0.06615,-0.00420,0.00000,0.02891,0.97990,-0.18898,0.0,2023,6,7,17,28,25,190
50.05730,0.44135,-0.00420,0.00000,0.03074,0.97576,-0.18861,0.0,2023,6,7,17,28,25,201
50.05740,-0.29365,-0.19670,0.00000,0.03013,0.97563,-0.18361,0.0,2023,6,7,17,28,25,212
50.05750,0.05635,-0.00420,0.00000,0.02830,0.97661,-0.19056,0.0,2023,6,7,17,28,25,223
50.05760,0.35385,0.20580,0.00000,0.03123,0.97417,-0.18825,0.0,2023,6,7,17,28,25,234
50.05770,-0.31115,0.04830,0.00000,0.03355,0.97807,-0.18398,0.0,2023,6,7,17,28,25,245
50.05780,0.16135,-0.07420,0.00000,0.02940,0.97612,-0.19215,0.0,2023,6,7,17,28,25,256
50.05790,0.10885,0.06580,0.00000,0.03160,0.97466,-0.19032,0.0,2023,6,7,17,28,25,267
50.05800,-0.04865,0.03080,0.00000,0.03062,0.97734,-0.18605,0.0,2023,6,7,17,28,25,278
50.05810,0.09135,0.01330,0.00000,0.03160,0.97588,-0.19008,0.0,2023,6,7,17,28,25,290
50.05820,-0.08365,0.06580,0.00000,0.03123,0.97783,-0.18703,0.0,2023,6,7,17,28,25,301
50.05830,-0.06615,-0.09170,0.00000,0.03233,0.97710,-0.18629,0.0,2023,6,7,17,28,25,312
50.05840,0.23135,0.06580,0.00000,0.03074,0.97698,-0.18739,0.0,2023,6,7,17,28,25,323
50.05850,-0.06615,0.13580,0.00000,0.03160,0.97746,-0.18886,0.0,2023,6,7,17,28,25,334
50.05860,-0.06615,-0.17920,0.00000,0.03221,0.97746,-0.18947,0.0,2023,6,7,17,28,25,345
50.05870,0.31885,-0.12670,0.00000,0.03148,0.97649,-0.18751,0.0,2023,6,7,17,28,25,356
50.05880,0.16135,-0.09170,0.00000,0.03038,0.97685,-0.18703,0.0,2023,6,7,17,28,25,367
50.05890,-0.39865,-0.03920,0.00000,0.02989,0.97600,-0.18825,0.0,2023,6,7,17,28,25,378
50.05900,0.17885,0.08330,0.00000,0.03001,0.97710,-0.18800,0.0,2023,6,7,17,28,25,389
50.05910,-0.06615,-0.02170,0.00000,0.03257,0.97783,-0.18727,0.0,2023,6,7,17,28,25,401
50.05920,-0.18865,-0.19670,0.00000,0.02830,0.97637,-0.18776,0.0,2023,6,7,17,28,25,412
50.05930,0.00385,0.01330,0.00000,0.03257,0.97759,-0.19056,0.0,2023,6,7,17,28,25,423
50.05940,0.09135,-0.00420,0.00000,0.03233,0.97600,-0.18910,0.0,2023,6,7,17,28,25,434
50.05950,-0.13615,-0.03920,0.00000,0.03172,0.97637,-0.18995,0.0,2023,6,7,17,28,25,445
50.05960,0.00385,0.01330,0.00000,0.03270,0.98003,-0.18849,0.0,2023,6,7,17,28,25,456
50.05970,-0.01365,0.06580,0.00000,0.03001,0.97624,-0.18922,0.0,2023,6,7,17,28,25,467
50.05980,0.05635,-0.00420,0.00000,0.03062,0.97600,-0.18886,0.0,2023,6,7,17,28,25,478
50.05990,0.17885,-0.00420,0.00000,0.03050,0.97698,-0.18715,0.0,2023,6,7,17,28,25,489
50.06000,-0.01365,0.11830,0.00000,0.03233,0.97515,-0.18898,0.0,2023,6,7,17,28,25,500
50.06010,0.19635,-0.12670,0.00000,0.03172,0.97649,-0.18947,0.0,2023,6,7,17,28,25,512
50.06020,0.02135,0.06580,0.00000,0.03172,0.97637,-0.18922,0.0,2023,6,7,17,28,25,523
50.06030,-0.13615,0.18830,0.00000,0.03099,0.97722,-0.19020,0.0,2023,6,7,17,28,25,534
50.06040,0.19635,0.03080,0.00000,0.03209,0.97588,-0.18764,0.0,2023,6,7,17,28,25,545
50.06050,-0.01365,-0.10920,0.00000,0.03135,0.97783,-0.18873,0.0,2023,6,7,17,28,25,556
50.06060,0.14385,-0.05670,0.00000,0.02891,0.97771,-0.18971,0.0,2023,6,7,17,28,25,567
50.06070,0.17885,-0.00420,0.00000,0.02916,0.97612,-0.18910,0.0,2023,6,7,17,28,25,578
50.06080,0.00385,-0.02170,0.00000,0.03233,0.97673,-0.18764,0.0,2023,6,7,17,28,25,589
50.06090,-0.06615,0.08330,0.00000,0.03123,0.97649,-0.18873,0.0,2023,6,7,17,28,25,600
50.06100,0.03885,0.08330,0.00000,0.03135,0.97820,-0.18947,0.0,2023,6,7,17,28,25,611
50.06110,-0.03115,-0.09170,0.00000,0.03135,0.97576,-0.18910,0.0,2023,6,7,17,28,25,623
50.06120,0.09135,-0.02170,0.00000,0.03050,0.97759,-0.19032,0.0,2023,6,7,17,28,25,634
50.06130,0.00385,0.06580,0.00000,0.03111,0.97600,-0.18715,0.0,2023,6,7,17,28,25,645
50.06140,-0.04865,0.06580,0.00000,0.03355,0.97624,-0.18861,0.0,2023,6,7,17,28,25,656
50.06150,0.31885,0.03080,0.00000,0.03233,0.97637,-0.18861,0.0,2023,6,7,17,28,25,667
50.06160,0.09135,-0.09170,0.00000,0.03196,0.97588,-0.18971,0.0,2023,6,7,17,28,25,678
50.06170,0.02135,0.10080,0.00000,0.03050,0.97393,-0.19130,0.0,2023,6,7,17,28,25,689
50.06180,-0.13615,-0.05670,0.00000,0.03050,0.97624,-0.19130,0.0,2023,6,7,17,28,25,700
50.06190,-0.08365,-0.09170,0.00000,0.03209,0.97759,-0.18642,0.0,2023,6,7,17,28,25,711
50.06200,-0.06615,-0.02170,0.00000,0.03111,0.97698,-0.18995,0.0,2023,6,7,17,28,25,722
50.06210,0.17885,0.03080,0.00000,0.02952,0.97539,-0.18886,0.0,2023,6,7,17,28,25,734
50.06220,0.09135,-0.16170,0.00000,0.03331,0.97551,-0.19081,0.0,2023,6,7,17,28,25,745
50.06230,-0.01365,0.11830,0.00000,0.03367,0.97746,-0.18910,0.0,2023,6,7,17,28,25,756
50.06240,-0.08365,-0.16170,0.00000,0.03221,0.97685,-0.18715,0.0,2023,6,7,17,28,25,767
50.06250,0.07385,-0.19670,0.00000,0.03270,0.97454,-0.19081,0.0,2023,6,7,17,28,25,778
50.06260,0.19635,0.04830,0.00000,0.03013,0.97746,-0.19093,0.0,2023,6,7,17,28,25,789
50.06270,0.23135,-0.10920,0.00000,0.03087,0.97771,-0.18776,0.0,2023,6,7,17,28,25,800
50.06280,0.00385,0.13580,0.00000,0.03135,0.97661,-0.18605,0.0,2023,6,7,17,28,25,811
50.06290,0.00385,-0.05670,0.00000,0.03294,0.97490,-0.18703,0.0,2023,6,7,17,28,25,822
50.06300,-0.11865,-0.00420,0.00000,0.03135,0.97649,-0.18727,0.0,2023,6,7,17,28,25,833
50.06310,0.12635,0.08330,0.00000,0.03099,0.97478,-0.18910,0.0,2023,6,7,17,28,25,845
50.06320,-0.08365,0.03080,0.00000,0.03184,0.97746,-0.18800,0.0,2023,6,7,17,28,25,856
50.06330,-0.01365,-0.14420,0.00000,0.03294,0.97783,-0.18715,0.0,2023,6,7,17,28,25,867
50.06340,0.07385,0.15330,0.00000,0.03343,0.97710,-0.18837,0.0,2023,6,7,17,28,25,878
50.06350,0.21385,0.03080,0.00000,0.03148,0.97637,-0.19130,0.0,2023,6,7,17,28,25,889
50.06360,0.10885,-0.23170,0.00000,0.03148,0.97637,-0.18751,0.0,2023,6,7,17,28,25,900
50.06370,0.00385,-0.10920,0.00000,0.03062,0.97612,-0.18764,0.0,2023,6,7,17,28,25,911
50.06380,0.03885,-0.00420,0.00000,0.03172,0.97576,-0.18947,0.0,2023,6,7,17,28,25,922
50.06390,0.07385,0.01330,0.00000,0.03001,0.97600,-0.18947,0.0,2023,6,7,17,28,25,933
50.06400,-0.08365,0.10080,0.00000,0.03013,0.97551,-0.18995,0.0,2023,6,7,17,28,25,944
50.06410,0.05635,-0.17920,0.00000,0.03099,0.97771,-0.18739,0.0,2023,6,7,17,28,25,956
50.06420,-0.06615,0.04830,0.00000,0.03331,0.97588,-0.18678,0.0,2023,6,7,17,28,25,967
50.06430,-0.08365,-0.05670,0.00000,0.02916,0.97576,-0.18947,0.0,2023,6,7,17,28,25,978
50.06440,0.02135,0.06580,0.00000,0.03087,0.97673,-0.19093,0.0,2023,6,7,17,28,25,989
50.06450,0.02135,-0.10920,0.00000,0.03196,0.97746,-0.18825,0.0,2023,6,7,17,28,26,0
50.06460,-0.03115,-0.05670,0.00000,0.03221,0.97722,-0.18934,0.0,2023,6,7,17,28,26,11
50.06470,0.00385,-0.09170,0.00000,0.02916,0.97649,-0.18934,0.0,2023,6,7,17,28,26,22
50.06480,0.09135,-0.00420,0.00000,0.03318,0.97710,-0.19093,0.0,2023,6,7,17,28,26,33
50.06490,-0.11865,0.08330,0.00000,0.03135,0.97429,-0.18898,0.0,2023,6,7,17,28,26,44
50.06500,0.17885,-0.10920,0.00000,0.03184,0.97710,-0.19056,0.0,2023,6,7,17,28,26,55
50.06510,0.09135,-0.02170,0.00000,0.03184,0.97588,-0.18886,0.0,2023,6,7,17,28,26,67
50.06520,-0.08365,-0.09170,0.00000,0.03026,0.97698,-0.18995,0.0,2023,6,7,17,28,26,78
50.06530,0.02135,0.08330,0.00000,0.03074,0.97502,-0.19008,0.0,2023,6,7,17,28,26,89
50.06540,0.00385,0.06580,0.00000,0.03172,0.97454,-0.18800,0.0,2023,6,7,17,28,26,100
50.06550,0.02135,-0.05670,0.00000,0.03026,0.97734,-0.18983,0.0,2023,6,7,17,28,26,111
50.06560,-0.01365,0.13580,0.00000,0.03331,0.97515,-0.18983,0.0,2023,6,7,17,28,26,122
50.06570,-0.03115,-0.10920,0.00000,0.03123,0.97405,-0.19020,0.0,2023,6,7,17,28,26,133
50.06580,-0.10115,0.31080,0.00000,0.03148,0.97490,-0.19117,0.0,2023,6,7,17,28,26,144
50.06590,0.05635,0.08330,0.00000,0.03428,0.97637,-0.18898,0.0,2023,6,7,17,28,26,155
50.06600,-0.04865,0.04830,0.00000,0.02867,0.97722,-0.18898,0.0,2023,6,7,17,28,26,166
50.06610,-0.13615,0.17080,0.00000,0.03099,0.97673,-0.18703,0.0,2023,6,7,17,28,26,178
50.06620,-0.11865,0.11830,0.00000,0.03111,0.97441,-0.19020,0.0,2023,6,7,17,28,26,189
50.06630,0.05635,0.08330,0.00000,0.03331,0.97624,-0.19008,0.0,2023,6,7,17,28,26,200
50.06640,0.05635,-0.14420,0.00000,0.03148,0.97649,-0.19069,0.0,2023,6,7,17,28,26,211
50.06650,-0.11865,-0.03920,0.00000,0.03221,0.97978,-0.18983,0.0,2023,6,7,17,28,26,222
50.06660,-0.01365,0.13580,0.00000,0.02965,0.97624,-0.19056,0.0,2023,6,7,17,28,26,233
50.06670,0.00385,0.08330,0.00000,0.03013,0.97795,-0.18910,0.0,2023,6,7,17,28,26,244
50.06680,-0.03115,0.18830,0.00000,0.03160,0.97502,-0.19069,0.0,2023,6,7,17,28,26,255
50.06690,0.09135,0.17080,0.00000,0.03123,0.97539,-0.18898,0.0,2023,6,7,17,28,26,266
50.06700,-0.01365,0.27580,0.00000,0.03135,0.97759,-0.18629,0.0,2023,6,7,17,28,26,277
50.06710,0.03885,-0.05670,0.00000,0.03184,0.97820,-0.18812,0.0,2023,6,7,17,28,26,289
50.06720,0.21385,0.18830,0.00000,0.03318,0.97527,-0.19020,0.0,2023,6,7,17,28,26,300
50.06730,0.03885,-0.14420,0.00000,0.03038,0.97649,-0.19032,0.0,2023,6,7,17,28,26,311
50.06740,0.12635,-0.02170,0.00000,0.03257,0.97661,-0.18776,0.0,2023,6,7,17,28,26,322
50.06750,-0.08365,0.04830,0.00000,0.03331,0.97710,-0.19081,0.0,2023,6,7,17,28,26,333
50.06760,0.00385,-0.00420,0.00000,0.03172,0.97563,-0.18922,0.0,2023,6,7,17,28,26,344
50.06770,-0.08365,0.08330,0.00000,0.02940,0.97441,-0.19020,0.0,2023,6,7,17,28,26,355
50.06780,-0.08365,-0.14420,0.00000,0.03172,0.97685,-0.19020,0.0,2023,6,7,17,28,26,366
50.06790,-0.13615,0.04830,0.00000,0.02940,0.97637,-0.18764,0.0,2023,6,7,17,28,26,377
50.06800,0.12635,-0.21420,0.00000,0.03331,0.97551,-0.18825,0.0,2023,6,7,17,28,26,388
50.06810,0.19635,0.01330,0.00000,0.03001,0.97515,-0.18934,0.0,2023,6,7,17,28,26,400
50.06820,0.07385,0.08330,0.00000,0.03270,0.97490,-0.18995,0.0,2023,6,7,17,28,26,411
50.06830,-0.01365,-0.10920,0.00000,0.03196,0.97722,-0.18739,0.0,2023,6,7,17,28,26,422
50.06840,0.09135,0.06580,0.00000,0.03050,0.97832,-0.19032,0.0,2023,6,7,17,28,26,433
50.06850,-0.01365,0.17080,0.00000,0.03257,0.97368,-0.19154,0.0,2023,6,7,17,28,26,444
50.06860,0.05635,0.11830,0.00000,0.03233,0.97685,-0.18849,0.0,2023,6,7,17,28,26,455
50.06870,0.03885,0.08330,0.00000,0.02989,0.97746,-0.18837,0.0,2023,6,7,17,28,26,466
50.06880,0.10885,-0.09170,0.00000,0.03196,0.97820,-0.18776,0.0,2023,6,7,17,28,26,477
50.06890,0.02135,0.11830,0.00000,0.03099,0.97551,-0.18593,0.0,2023,6,7,17,28,26,488
50.06900,-0.29365,0.03080,0.00000,0.03074,0.97454,-0.19215,0.0,2023,6,7,17,28,26,499
50.06910,0.05635,-0.12670,0.00000,0.03331,0.97527,-0.19117,0.0,2023,6,7,17,28,26,511
50.06920,-0.10115,0.15330,0.00000,0.03233,0.97661,-0.18812,0.0,2023,6,7,17,28,26,522
50.06930,-0.03115,-0.14420,0.00000,0.03087,0.97612,-0.18873,0.0,2023,6,7,17,28,26,533
50.06940,0.05635,-0.07420,0.00000,0.03111,0.97661,-0.19056,0.0,2023,6,7,17,28,26,544
50.06950,0.00385,0.04830,0.00000,0.02965,0.97832,-0.18898,0.0,2023,6,7,17,28,26,555
50.06960,0.07385,-0.00420,0.00000,0.03270,0.97624,-0.19130,0.0,2023,6,7,17,28,26,566
50.06970,0.24885,-0.02170,0.00000,0.02965,0.97576,-0.18776,0.0,2023,6,7,17,28,26,577
50.06980,-0.01365,-0.02170,0.00000,0.03440,0.97710,-0.19032,0.0,2023,6,7,17,28,26,588
50.06990,-0.29365,0.01330,0.00000,0.03123,0.97722,-0.19300,0.0,2023,6,7,17,28,26,599
50.07000,-0.10115,0.04830,0.00000,0.03062,0.97698,-0.19166,0.0,2023,6,7,17,28,26,610
50.07010,0.03885,0.08330,0.00000,0.03196,0.97563,-0.18898,0.0,2023,6,7,17,28,26,622
50.07020,0.00385,-0.02170,0.00000,0.03160,0.97527,-0.18825,0.0,2023,6,7,17,28,26,633
50.07030,0.14385,-0.00420,0.00000,0.03026,0.97685,-0.19032,0.0,2023,6,7,17,28,26,644
50.07040,-0.06615,-0.05670,0.00000,0.03306,0.97502,-0.18825,0.0,2023,6,7,17,28,26,655
50.07050,-0.01365,0.20580,0.00000,0.03099,0.97722,-0.18922,0.0,2023,6,7,17,28,26,666
50.07060,0.21385,-0.02170,0.00000,0.03074,0.97527,-0.19044,0.0,2023,6,7,17,28,26,677
50.07070,0.19635,-0.16170,0.00000,0.02989,0.97844,-0.18983,0.0,2023,6,7,17,28,26,688
50.07080,-0.18865,0.13580,0.00000,0.03099,0.97600,-0.18861,0.0,2023,6,7,17,28,26,699
50.07090,0.05635,0.11830,0.00000,0.03233,0.97624,-0.18751,0.0,2023,6,7,17,28,26,710
50.07100,0.02135,-0.19670,0.00000,0.02952,0.97563,-0.18873,0.0,2023,6,7,17,28,26,721
#2023/06/07 17:28:26
