#2023/06/07 15:24:08
time,wx,wy,wz,ax,ay,az,yy,MM,dd,hh,mm,ss,ms
42.02230,0.09380,0.22138,0.00000,0.03184,0.97637,-0.18898,0.0,2023,6,7,15,24,25,470
42.02240,-0.06370,-0.05863,0.00000,0.03135,0.97502,-0.18886,0.0,2023,6,7,15,24,25,480
42.02250,0.02380,-0.04113,0.00000,0.03270,0.97515,-0.18959,0.0,2023,6,7,15,24,25,490
42.02260,-0.02870,0.04637,0.00000,0.03172,0.97624,-0.18739,0.0,2023,6,7,15,24,25,500
42.02270,0.23380,-0.09363,0.00000,0.03440,0.97551,-0.18825,0.0,2023,6,7,15,24,25,510
42.02280,-0.08120,0.09887,0.00000,0.03123,0.97246,-0.18934,0.0,2023,6,7,15,24,25,520
42.02290,0.19880,-0.26863,0.00000,0.03184,0.97917,-0.18861,0.0,2023,6,7,15,24,25,530
42.02300,-0.22120,-0.04113,0.00000,0.03209,0.97807,-0.18861,0.0,2023,6,7,15,24,25,540
42.02310,0.00630,0.11637,0.00000,0.03123,0.97588,-0.18971,0.0,2023,6,7,15,24,25,550
42.02320,0.05880,-0.09363,0.00000,0.03477,0.97417,-0.19020,0.0,2023,6,7,15,24,25,560
42.02330,0.00630,0.01138,0.00000,0.03233,0.97490,-0.18922,0.0,2023,6,7,15,24,25,570
42.02340,0.09380,-0.00612,0.00000,0.02965,0.97673,-0.18825,0.0,2023,6,7,15,24,25,580
42.02350,-0.08120,-0.09363,0.00000,0.03172,0.97417,-0.19154,0.0,2023,6,7,15,24,25,590
42.02360,-0.08120,0.09887,0.00000,0.03148,0.97563,-0.18934,0.0,2023,6,7,15,24,25,600
42.02370,-0.09870,0.13387,0.00000,0.03306,0.97673,-0.18776,0.0,2023,6,7,15,24,25,610
42.02380,0.02380,0.13387,0.00000,0.03221,0.97661,-0.19130,0.0,2023,6,7,15,24,25,620
42.02390,0.07630,0.01138,0.00000,0.03135,0.97698,-0.18837,0.0,2023,6,7,15,24,25,630
42.02400,-0.04620,-0.18113,0.00000,0.03184,0.97710,-0.19105,0.0,2023,6,7,15,24,25,640
42.02410,-0.06370,0.09887,0.00000,0.03026,0.97649,-0.19313,0.0,2023,6,7,15,24,25,650
42.02420,0.14630,-0.11113,0.00000,0.03379,0.97624,-0.19093,0.0,2023,6,7,15,24,25,660
42.02430,0.09380,-0.04113,0.00000,0.03257,0.97783,-0.18873,0.0,2023,6,7,15,24,25,670
42.02440,-0.02870,0.22138,0.00000,0.03062,0.97588,-0.18825,0.0,2023,6,7,15,24,25,680
42.02450,0.11130,-0.19863,0.00000,0.03233,0.97624,-0.18922,0.0,2023,6,7,15,24,25,690
42.02460,0.11130,-0.02363,0.00000,0.03148,0.97600,-0.18812,0.0,2023,6,7,15,24,25,700
42.02470,-0.01120,-0.02363,0.00000,0.03111,0.97661,-0.18995,0.0,2023,6,7,15,24,25,710
42.02480,0.05880,0.04637,0.00000,0.03270,0.97637,-0.18861,0.0,2023,6,7,15,24,25,720
42.02490,-0.11620,0.08137,0.00000,0.03087,0.97783,-0.18678,0.0,2023,6,7,15,24,25,730
42.02500,0.04130,-0.00612,0.00000,0.03172,0.97795,-0.18678,0.0,2023,6,7,15,24,25,740
42.02510,0.00630,-0.09363,0.00000,0.03233,0.97515,-0.19032,0.0,2023,6,7,15,24,25,750
42.02520,0.00630,0.18637,0.00000,0.03050,0.97722,-0.18947,0.0,2023,6,7,15,24,25,760
42.02530,0.05880,-0.18113,0.00000,0.03184,0.97502,-0.18788,0.0,2023,6,7,15,24,25,770
42.02540,0.00630,-0.14613,0.00000,0.03026,0.97710,-0.18812,0.0,2023,6,7,15,24,25,780
42.02550,0.30380,-0.19863,0.00000,0.03160,0.97441,-0.19008,0.0,2023,6,7,15,24,25,790
42.02560,-0.04620,-0.09363,0.00000,0.03270,0.97661,-0.18812,0.0,2023,6,7,15,24,25,800
42.02570,-0.08120,0.27387,0.00000,0.03184,0.97698,-0.18812,0.0,2023,6,7,15,24,25,810
42.02580,0.02380,0.01138,0.00000,0.03160,0.97600,-0.18727,0.0,2023,6,7,15,24,25,820
42.02590,0.00630,-0.05863,0.00000,0.03026,0.97624,-0.19056,0.0,2023,6,7,15,24,25,830
42.02600,0.00630,-0.05863,0.00000,0.03514,0.97759,-0.18837,0.0,2023,6,7,15,24,25,840
42.02610,-0.02870,-0.09363,0.00000,0.03318,0.97624,-0.18727,0.0,2023,6,7,15,24,25,850
42.02620,-0.09870,-0.05863,0.00000,0.03050,0.97417,-0.18812,0.0,2023,6,7,15,24,25,860
42.02630,0.00630,-0.21612,0.00000,0.03160,0.97332,-0.18788,0.0,2023,6,7,15,24,25,870
42.02640,0.16380,0.01138,0.00000,0.03135,0.97502,-0.18995,0.0,2023,6,7,15,24,25,880
42.02650,0.18130,0.08137,0.00000,0.03087,0.97490,-0.18776,0.0,2023,6,7,15,24,25,890
42.02660,-0.01120,-0.00612,0.00000,0.03135,0.97515,-0.18959,0.0,2023,6,7,15,24,25,900
42.02670,0.04130,0.13387,0.00000,0.03221,0.97637,-0.18837,0.0,2023,6,7,15,24,25,910
42.02680,-0.02870,-0.14613,0.00000,0.03318,0.97466,-0.19056,0.0,2023,6,7,15,24,25,920
42.02690,-0.01120,0.02887,0.00000,0.03074,0.97527,-0.18922,0.0,2023,6,7,15,24,25,930
42.02700,-0.02870,-0.12863,0.00000,0.03233,0.97600,-0.18910,0.0,2023,6,7,15,24,25,940
42.02710,-0.02870,-0.19863,0.00000,0.03221,0.97454,-0.18825,0.0,2023,6,7,15,24,25,950
42.02720,-0.16870,0.04637,0.00000,0.03282,0.97307,-0.18995,0.0,2023,6,7,15,24,25,960
42.02730,0.11130,0.01138,0.00000,0.03038,0.97576,-0.18837,0.0,2023,6,7,15,24,25,970
42.02740,0.14630,-0.12863,0.00000,0.03306,0.97807,-0.19020,0.0,2023,6,7,15,24,25,980
42.02750,0.16380,-0.11113,0.00000,0.03111,0.97795,-0.19069,0.0,2023,6,7,15,24,25,990
42.02760,0.07630,-0.04113,0.00000,0.03135,0.97795,-0.18947,0.0,2023,6,7,15,24,25,0
42.02770,-0.01120,0.15137,0.00000,0.03270,0.97673,-0.18825,0.0,2023,6,7,15,24,25,10
42.02780,0.12880,-0.11113,0.00000,0.03318,0.97612,-0.19044,0.0,2023,6,7,15,24,25,20
42.02790,0.07630,0.01138,0.00000,0.03294,0.97563,-0.18898,0.0,2023,6,7,15,24,25,30
42.02800,-0.09870,-0.04113,0.00000,0.03148,0.97649,-0.18995,0.0,2023,6,7,15,24,25,40
42.02810,0.04130,0.01138,0.00000,0.03062,0.97527,-0.18800,0.0,2023,6,7,15,24,25,50
42.02820,-0.01120,-0.16363,0.00000,0.03172,0.97783,-0.19008,0.0,2023,6,7,15,24,25,60
42.02830,0.12880,0.04637,0.00000,0.03123,0.97539,-0.18898,0.0,2023,6,7,15,24,25,70
42.02840,-0.01120,0.06387,0.00000,0.03062,0.97710,-0.18934,0.0,2023,6,7,15,24,25,80
42.02850,0.02380,-0.11113,0.00000,0.03245,0.97624,-0.18837,0.0,2023,6,7,15,24,25,90
42.02860,0.14630,-0.11113,0.00000,0.03172,0.97368,-0.18886,0.0,2023,6,7,15,24,25,100
42.02870,0.25130,-0.26863,0.00000,0.03270,0.97515,-0.18898,0.0,2023,6,7,15,24,25,110
42.02880,0.11130,0.16887,0.00000,0.03184,0.97429,-0.18776,0.0,2023,6,7,15,24,25,120
42.02890,0.04130,0.06387,0.00000,0.03233,0.97637,-0.18703,0.0,2023,6,7,15,24,25,130
42.02900,-0.06370,-0.05863,0.00000,0.03209,0.97771,-0.18947,0.0,2023,6,7,15,24,25,140
42.02910,0.02380,0.15137,0.00000,0.03099,0.97588,-0.18788,0.0,2023,6,7,15,24,25,150
42.02920,0.02380,0.04637,0.00000,0.03099,0.97673,-0.18800,0.0,2023,6,7,15,24,25,160
42.02930,-0.18620,0.08137,0.00000,0.03001,0.97454,-0.18971,0.0,2023,6,7,15,24,25,170
42.02940,-0.04620,-0.12863,0.00000,0.02928,0.97368,-0.18788,0.0,2023,6,7,15,24,25,180
42.02950,-0.20370,0.04637,0.00000,0.03148,0.97429,-0.18825,0.0,2023,6,7,15,24,25,190
42.02960,0.07630,0.02887,0.00000,0.02904,0.97612,-0.18703,0.0,2023,6,7,15,24,25,200
42.02970,-0.06370,0.11637,0.00000,0.03282,0.97539,-0.18678,0.0,2023,6,7,15,24,25,210
42.02980,-0.13370,0.09887,0.00000,0.03184,0.97588,-0.18983,0.0,2023,6,7,15,24,25,220
42.02990,-0.04620,0.08137,0.00000,0.03074,0.97710,-0.18703,0.0,2023,6,7,15,24,25,230
42.03000,-0.08120,-0.05863,0.00000,0.02989,0.97649,-0.18934,0.0,2023,6,7,15,24,25,240
42.03010,0.14630,-0.12863,0.00000,0.03282,0.97612,-0.18959,0.0,2023,6,7,15,24,25,250
42.03020,0.04130,0.01138,0.00000,0.03282,0.97759,-0.18983,0.0,2023,6,7,15,24,25,260
42.03030,0.11130,-0.16363,0.00000,0.03306,0.97502,-0.18812,0.0,2023,6,7,15,24,25,270
42.03040,0.09380,0.30887,0.00000,0.03172,0.97734,-0.18947,0.0,2023,6,7,15,24,25,280
42.03050,-0.13370,-0.09363,0.00000,0.03135,0.97759,-0.18837,0.0,2023,6,7,15,24,25,290
42.03060,-0.02870,-0.07613,0.00000,0.03282,0.97673,-0.18886,0.0,2023,6,7,15,24,25,300
42.03070,-0.04620,0.13387,0.00000,0.03135,0.97685,-0.18849,0.0,2023,6,7,15,24,25,310
42.03080,0.09380,0.02887,0.00000,0.03013,0.97807,-0.18727,0.0,2023,6,7,15,24,25,320
42.03090,0.09380,-0.05863,0.00000,0.03148,0.97820,-0.18703,0.0,2023,6,7,15,24,25,330
42.03100,0.07630,-0.04113,0.00000,0.03160,0.97527,-0.18764,0.0,2023,6,7,15,24,25,340
42.03110,-0.11620,-0.11113,0.00000,0.03087,0.97698,-0.18995,0.0,2023,6,7,15,24,25,350
42.03120,0.04130,-0.07613,0.00000,0.02916,0.97332,-0.18776,0.0,2023,6,7,15,24,25,360
42.03130,-0.15120,-0.09363,0.00000,0.03209,0.97600,-0.18922,0.0,2023,6,7,15,24,25,370
42.03140,0.05880,0.16887,0.00000,0.03294,0.97563,-0.19044,0.0,2023,6,7,15,24,25,380
42.03150,-0.01120,0.02887,0.00000,0.03331,0.97856,-0.18751,0.0,2023,6,7,15,24,25,390
42.03160,0.02380,0.04637,0.00000,0.03026,0.97746,-0.19093,0.0,2023,6,7,15,24,25,400
42.03170,-0.06370,-0.12863,0.00000,0.02940,0.97771,-0.18690,0.0,2023,6,7,15,24,25,410
42.03180,0.11130,0.06387,0.00000,0.03172,0.97710,-0.19093,0.0,2023,6,7,15,24,25,420
42.03190,0.07630,-0.09363,0.00000,0.03123,0.97588,-0.18971,0.0,2023,6,7,15,24,25,430
42.03200,0.09380,-0.07613,0.00000,0.03087,0.97563,-0.18605,0.0,2023,6,7,15,24,25,440
42.03210,0.05880,-0.00612,0.00000,0.03160,0.97222,-0.18959,0.0,2023,6,7,15,24,25,450
42.03220,-0.01120,0.04637,0.00000,0.03148,0.97295,-0.18812,0.0,2023,6,7,15,24,25,460
42.03230,-0.04620,-0.07613,0.00000,0.03135,0.97673,-0.18886,0.0,2023,6,7,15,24,25,470
42.03240,-0.06370,-0.04113,0.00000,0.03123,0.97551,-0.18861,0.0,2023,6,7,15,24,25,480
42.03250,0.07630,-0.14613,0.00000,0.03233,0.97649,-0.18642,0.0,2023,6,7,15,24,25,490
42.03260,-0.02870,0.27387,0.00000,0.03001,0.97588,-0.18934,0.0,2023,6,7,15,24,25,500
42.03270,-0.13370,0.02887,0.00000,0.02916,0.97441,-0.19081,0.0,2023,6,7,15,24,25,510
42.03280,-0.11620,0.09887,0.00000,0.03123,0.97429,-0.19081,0.0,2023,6,7,15,24,25,520
42.03290,0.02380,-0.07613,0.00000,0.03318,0.97649,-0.19105,0.0,2023,6,7,15,24,25,530
42.03300,-0.06370,-0.12863,0.00000,0.03257,0.97515,-0.19069,0.0,2023,6,7,15,24,25,540
42.03310,-0.02870,0.11637,0.00000,0.03074,0.97734,-0.18812,0.0,2023,6,7,15,24,25,550
42.03320,-0.08120,0.06387,0.00000,0.03209,0.97576,-0.18959,0.0,2023,6,7,15,24,25,560
42.03330,0.21630,0.02887,0.00000,0.03062,0.97588,-0.18959,0.0,2023,6,7,15,24,26,570
42.03340,-0.01120,0.25637,0.00000,0.03062,0.97466,-0.18788,0.0,2023,6,7,15,24,26,580
42.03350,-0.01120,0.09887,0.00000,0.03050,0.97832,-0.18983,0.0,2023,6,7,15,24,26,590
42.03360,0.00630,-0.16363,0.00000,0.03233,0.97710,-0.18715,0.0,2023,6,7,15,24,26,600
42.03370,0.19880,-0.12863,0.00000,0.03099,0.97405,-0.18873,0.0,2023,6,7,15,24,26,610
42.03380,-0.06370,0.06387,0.00000,0.03148,0.97661,-0.18995,0.0,2023,6,7,15,24,26,620
42.03390,0.04130,-0.00612,0.00000,0.03111,0.97612,-0.18642,0.0,2023,6,7,15,24,26,630
42.03400,-0.02870,0.04637,0.00000,0.03392,0.97673,-0.18837,0.0,2023,6,7,15,24,26,640
42.03410,0.00630,0.16887,0.00000,0.03209,0.97698,-0.18642,0.0,2023,6,7,15,24,26,650
42.03420,-0.02870,0.15137,0.00000,0.03160,0.97576,-0.18739,0.0,2023,6,7,15,24,26,660
42.03430,-0.06370,0.09887,0.00000,0.03099,0.97783,-0.18886,0.0,2023,6,7,15,24,26,670
42.03440,-0.01120,-0.21612,0.00000,0.03123,0.97685,-0.19044,0.0,2023,6,7,15,24,26,680
42.03450,-0.06370,-0.02363,0.00000,0.03184,0.97612,-0.18739,0.0,2023,6,7,15,24,26,690
42.03460,-0.01120,0.18637,0.00000,0.03111,0.97637,-0.18800,0.0,2023,6,7,15,24,26,700
42.03470,0.14630,-0.02363,0.00000,0.03074,0.97783,-0.18617,0.0,2023,6,7,15,24,26,710
42.03480,-0.16870,-0.02363,0.00000,0.02940,0.97515,-0.18971,0.0,2023,6,7,15,24,26,720
42.03490,-0.08120,0.01138,0.00000,0.03160,0.97515,-0.18751,0.0,2023,6,7,15,24,26,730
42.03500,-0.09870,-0.09363,0.00000,0.03196,0.97502,-0.18812,0.0,2023,6,7,15,24,26,740
42.03510,-0.06370,-0.02363,0.00000,0.03111,0.97515,-0.18800,0.0,2023,6,7,15,24,26,750
42.03520,0.16380,0.04637,0.00000,0.03111,0.97856,-0.18947,0.0,2023,6,7,15,24,26,760
42.03530,0.07630,-0.04113,0.00000,0.03257,0.97539,-0.18910,0.0,2023,6,7,15,24,26,770
42.03540,0.04130,0.09887,0.00000,0.03184,0.97771,-0.18605,0.0,2023,6,7,15,24,26,780
42.03550,-0.04620,0.16887,0.00000,0.03111,0.97563,-0.18910,0.0,2023,6,7,15,24,26,790
42.03560,0.37380,0.11637,0.00000,0.03038,0.97661,-0.18837,0.0,2023,6,7,15,24,26,800
42.03570,0.16380,-0.12863,0.00000,0.03209,0.97710,-0.18715,0.0,2023,6,7,15,24,26,810
42.03580,0.14630,-0.05863,0.00000,0.03074,0.97673,-0.18825,0.0,2023,6,7,15,24,26,820
42.03590,0.00630,-0.00612,0.00000,0.03123,0.97441,-0.18849,0.0,2023,6,7,15,24,26,830
42.03600,0.02380,0.08137,0.00000,0.03135,0.97771,-0.18873,0.0,2023,6,7,15,24,26,840
42.03610,0.12880,-0.19863,0.00000,0.03160,0.97576,-0.18776,0.0,2023,6,7,15,24,26,850
42.03620,0.14630,0.01138,0.00000,0.03050,0.97417,-0.18715,0.0,2023,6,7,15,24,26,860
42.03630,0.07630,0.01138,0.00000,0.03050,0.97795,-0.18983,0.0,2023,6,7,15,24,26,870
42.03640,-0.02870,-0.00612,0.00000,0.03184,0.97563,-0.18922,0.0,2023,6,7,15,24,26,880
42.03650,-0.06370,0.01138,0.00000,0.03135,0.97722,-0.18593,0.0,2023,6,7,15,24,26,890
42.03660,-0.01120,0.08137,0.00000,0.03038,0.97624,-0.18642,0.0,2023,6,7,15,24,26,900
42.03670,-0.16870,0.16887,0.00000,0.03148,0.97490,-0.18800,0.0,2023,6,7,15,24,26,910
42.03680,0.11130,-0.00612,0.00000,0.02952,0.97661,-0.18898,0.0,2023,6,7,15,24,26,920
42.03690,0.12880,-0.11113,0.00000,0.03062,0.97600,-0.18861,0.0,2023,6,7,15,24,26,930
42.03700,0.04130,-0.09363,0.00000,0.03379,0.97661,-0.18947,0.0,2023,6,7,15,24,26,940
42.03710,-0.02870,0.11637,0.00000,0.02928,0.97673,-0.18861,0.0,2023,6,7,15,24,26,950
42.03720,0.05880,-0.04113,0.00000,0.03038,0.97661,-0.18751,0.0,2023,6,7,15,24,26,960
42.03730,0.07630,0.01138,0.00000,0.03062,0.97563,-0.18910,0.0,2023,6,7,15,24,26,970
42.03740,-0.04620,0.13387,0.00000,0.03160,0.97527,-0.19020,0.0,2023,6,7,15,24,26,980
42.03750,0.14630,-0.12863,0.00000,0.03111,0.97612,-0.18861,0.0,2023,6,7,15,24,26,990
42.03760,0.21630,0.06387,0.00000,0.03196,0.97771,-0.18739,0.0,2023,6,7,15,24,26,0
42.03770,0.00630,0.04637,0.00000,0.03148,0.97722,-0.18788,0.0,2023,6,7,15,24,26,10
42.03780,0.05880,-0.07613,0.00000,0.02989,0.97795,-0.18727,0.0,2023,6,7,15,24,26,20
42.03790,-0.08120,-0.07613,0.00000,0.03148,0.97258,-0.18678,0.0,2023,6,7,15,24,26,30
42.03800,-0.02870,-0.04113,0.00000,0.03343,0.97734,-0.18812,0.0,2023,6,7,15,24,26,40
42.03810,-0.04620,-0.18113,0.00000,0.03160,0.97637,-0.18739,0.0,2023,6,7,15,24,26,50
42.03820,0.09380,-0.11113,0.00000,0.03001,0.97759,-0.18776,0.0,2023,6,7,15,24,26,60
42.03830,-0.04620,0.16887,0.00000,0.03038,0.97600,-0.18703,0.0,2023,6,7,15,24,26,70
42.03840,-0.06370,-0.04113,0.00000,0.03270,0.97539,-0.18764,0.0,2023,6,7,15,24,26,80
42.03850,-0.18620,-0.09363,0.00000,0.03172,0.97637,-0.18776,0.0,2023,6,7,15,24,26,90
42.03860,-0.04620,-0.14613,0.00000,0.03209,0.97698,-0.18886,0.0,2023,6,7,15,24,26,100
42.03870,0.09380,-0.00612,0.00000,0.03318,0.97502,-0.18898,0.0,2023,6,7,15,24,26,110
42.03880,0.11130,-0.05863,0.00000,0.03270,0.97576,-0.18727,0.0,2023,6,7,15,24,26,120
42.03890,0.07630,-0.09363,0.00000,0.03172,0.97673,-0.18922,0.0,2023,6,7,15,24,26,130
42.03900,0.04130,0.02887,0.00000,0.03135,0.97734,-0.18886,0.0,2023,6,7,15,24,26,140
42.03910,0.02380,-0.00612,0.00000,0.03050,0.97820,-0.18849,0.0,2023,6,7,15,24,26,150
42.03920,-0.08120,0.22138,0.00000,0.03270,0.97576,-0.18861,0.0,2023,6,7,15,24,26,160
42.03930,-0.06370,0.09887,0.00000,0.03257,0.97710,-0.18934,0.0,2023,6,7,15,24,26,170
42.03940,0.00630,0.09887,0.00000,0.02940,0.97624,-0.18800,0.0,2023,6,7,15,24,26,180
42.03950,0.07630,-0.09363,0.00000,0.03221,0.97807,-0.18983,0.0,2023,6,7,15,24,26,190
42.03960,-0.01120,0.08137,0.00000,0.03294,0.97612,-0.18861,0.0,2023,6,7,15,24,26,200
42.03970,-0.11620,0.11637,0.00000,0.03318,0.97649,-0.18861,0.0,2023,6,7,15,24,26,210
42.03980,-0.02870,0.16887,0.00000,0.03038,0.97588,-0.18837,0.0,2023,6,7,15,24,26,220
42.03990,0.14630,0.02887,0.00000,0.03050,0.97698,-0.18947,0.0,2023,6,7,15,24,26,230
42.04000,-0.20370,0.15137,0.00000,0.03245,0.97417,-0.18642,0.0,2023,6,7,15,24,26,240
42.04010,-0.11620,0.11637,0.00000,0.03148,0.97624,-0.18861,0.0,2023,6,7,15,24,26,250
42.04020,0.14630,-0.11113,0.00000,0.03184,0.97539,-0.18764,0.0,2023,6,7,15,24,26,260
42.04030,0.07630,-0.09363,0.00000,0.03257,0.97441,-0.18849,0.0,2023,6,7,15,24,26,270
42.04040,0.07630,-0.09363,0.00000,0.03416,0.97856,-0.19069,0.0,2023,6,7,15,24,26,280
42.04050,0.07630,-0.18113,0.00000,0.03184,0.97258,-0.18898,0.0,2023,6,7,15,24,26,290
42.04060,0.21630,0.02887,0.00000,0.03172,0.97673,-0.18703,0.0,2023,6,7,15,24,26,300
42.04070,-0.02870,-0.04113,0.00000,0.02928,0.97527,-0.18605,0.0,2023,6,7,15,24,26,310
42.04080,0.05880,0.15137,0.00000,0.03038,0.97807,-0.18837,0.0,2023,6,7,15,24,26,320
42.04090,0.11130,-0.11113,0.00000,0.02965,0.97612,-0.18678,0.0,2023,6,7,15,24,26,330
42.04100,0.40880,-0.04113,0.00000,0.03245,0.97734,-0.18654,0.0,2023,6,7,15,24,26,340
42.04110,-0.04620,-0.11113,0.00000,0.03160,0.97600,-0.18690,0.0,2023,6,7,15,24,26,350
42.04120,0.02380,-0.07613,0.00000,0.03123,0.97685,-0.18715,0.0,2023,6,7,15,24,26,360
42.04130,-0.06370,-0.05863,0.00000,0.03233,0.97856,-0.18873,0.0,2023,6,7,15,24,26,370
42.04140,-0.15120,-0.11113,0.00000,0.03038,0.97612,-0.18910,0.0,2023,6,7,15,24,26,380
42.04150,0.07630,-0.18113,0.00000,0.03111,0.97551,-0.18886,0.0,2023,6,7,15,24,26,390
42.04160,0.19880,-0.12863,0.00000,0.03123,0.97685,-0.18751,0.0,2023,6,7,15,24,26,400
42.04170,0.02380,-0.18113,0.00000,0.03074,0.97649,-0.18654,0.0,2023,6,7,15,24,26,410
42.04180,-0.13370,0.04637,0.00000,0.03196,0.97673,-0.18678,0.0,2023,6,7,15,24,26,420
42.04190,-0.16870,0.02887,0.00000,0.03087,0.97405,-0.18910,0.0,2023,6,7,15,24,26,430
42.04200,-0.01120,-0.02363,0.00000,0.02989,0.97539,-0.18812,0.0,2023,6,7,15,24,26,440
42.04210,0.02380,-0.04113,0.00000,0.03111,0.97576,-0.18812,0.0,2023,6,7,15,24,26,450
42.04220,-0.04620,-0.05863,0.00000,0.02830,0.97698,-0.18727,0.0,2023,6,7,15,24,26,460
42.04230,-0.02870,0.16887,0.00000,0.03135,0.97441,-0.18703,0.0,2023,6,7,15,24,26,470
42.04240,0.05880,-0.02363,0.00000,0.03257,0.97539,-0.18739,0.0,2023,6,7,15,24,26,480
42.04250,0.14630,0.01138,0.00000,0.03209,0.97661,-0.18812,0.0,2023,6,7,15,24,26,490
42.04260,0.11130,-0.23362,0.00000,0.03221,0.97820,-0.18727,0.0,2023,6,7,15,24,26,500
42.04270,-0.09870,-0.07613,0.00000,0.03087,0.97722,-0.18776,0.0,2023,6,7,15,24,26,510
42.04280,0.12880,0.09887,0.00000,0.03038,0.97685,-0.18812,0.0,2023,6,7,15,24,26,520
42.04290,-0.11620,-0.07613,0.00000,0.03148,0.97710,-0.18678,0.0,2023,6,7,15,24,26,530
42.04300,0.09380,-0.19863,0.00000,0.03245,0.97612,-0.18739,0.0,2023,6,7,15,24,26,540
42.04310,-0.04620,0.06387,0.00000,0.03099,0.97649,-0.19142,0.0,2023,6,7,15,24,26,550
42.04320,-0.06370,-0.19863,0.00000,0.03306,0.97563,-0.18568,0.0,2023,6,7,15,24,26,560
42.04330,-0.01120,0.08137,0.00000,0.02904,0.97685,-0.18727,0.0,2023,6,7,15,24,26,570
42.04340,-0.15120,0.13387,0.00000,0.03184,0.97600,-0.18947,0.0,2023,6,7,15,24,26,580
42.04350,-0.04620,-0.07613,0.00000,0.03123,0.97624,-0.18983,0.0,2023,6,7,15,24,26,590
42.04360,-0.06370,-0.04113,0.00000,0.03135,0.97673,-0.18812,0.0,2023,6,7,15,24,26,600
42.04370,0.14630,-0.02363,0.00000,0.03184,0.97868,-0.18800,0.0,2023,6,7,15,24,26,610
42.04380,-0.18620,0.29137,0.00000,0.02977,0.97612,-0.18861,0.0,2023,6,7,15,24,26,620
42.04390,0.26880,-0.07613,0.00000,0.02965,0.97893,-0.18873,0.0,2023,6,7,15,24,26,630
42.04400,0.07630,0.02887,0.00000,0.03221,0.97600,-0.18629,0.0,2023,6,7,15,24,26,640
42.04410,0.09380,0.02887,0.00000,0.03209,0.97527,-0.18751,0.0,2023,6,7,15,24,26,650
42.04420,-0.06370,0.11637,0.00000,0.02952,0.97661,-0.18715,0.0,2023,6,7,15,24,26,660
42.04430,0.04130,0.22138,0.00000,0.03099,0.97478,-0.18849,0.0,2023,6,7,15,24,26,670
42.04440,-0.06370,-0.05863,0.00000,0.03209,0.97624,-0.19008,0.0,2023,6,7,15,24,26,680
42.04450,-0.11620,-0.04113,0.00000,0.03062,0.97624,-0.18776,0.0,2023,6,7,15,24,26,690
42.04460,0.04130,-0.00612,0.00000,0.03245,0.97515,-0.18812,0.0,2023,6,7,15,24,26,700
42.04470,0.26880,-0.05863,0.00000,0.03221,0.97393,-0.18910,0.0,2023,6,7,15,24,26,710
42.04480,0.11130,-0.05863,0.00000,0.03294,0.97685,-0.18910,0.0,2023,6,7,15,24,26,720
42.04490,0.07630,-0.02363,0.00000,0.03111,0.97795,-0.18617,0.0,2023,6,7,15,24,26,730
42.04500,0.05880,-0.23362,0.00000,0.03245,0.97673,-0.18825,0.0,2023,6,7,15,24,26,740
42.04510,-0.20370,0.06387,0.00000,0.03257,0.97685,-0.18690,0.0,2023,6,7,15,24,26,750
42.04520,0.02380,-0.07613,0.00000,0.03123,0.97722,-0.18556,0.0,2023,6,7,15,24,26,760
42.04530,-0.06370,0.04637,0.00000,0.03160,0.97612,-0.18910,0.0,2023,6,7,15,24,26,770
42.04540,0.14630,-0.16363,0.00000,0.03257,0.97637,-0.18922,0.0,2023,6,7,15,24,26,780
42.04550,0.14630,-0.09363,0.00000,0.03367,0.97466,-0.18642,0.0,2023,6,7,15,24,26,790
42.04560,0.05880,-0.19863,0.00000,0.03270,0.97673,-0.18861,0.0,2023,6,7,15,24,26,800
42.04570,0.07630,0.11637,0.00000,0.03172,0.97649,-0.18849,0.0,2023,6,7,15,24,26,810
42.04580,0.02380,0.13387,0.00000,0.03087,0.97551,-0.18629,0.0,2023,6,7,15,24,26,820
42.04590,-0.04620,-0.00612,0.00000,0.03013,0.97746,-0.18703,0.0,2023,6,7,15,24,26,830
42.04600,0.02380,-0.16363,0.00000,0.03257,0.97893,-0.19008,0.0,2023,6,7,15,24,26,840
42.04610,-0.01120,0.13387,0.00000,0.03026,0.97820,-0.18849,0.0,2023,6,7,15,24,26,850
42.04620,0.11130,-0.16363,0.00000,0.03148,0.97600,-0.18788,0.0,2023,6,7,15,24,26,860
42.04630,-0.11620,-0.04113,0.00000,0.03050,0.97441,-0.19020,0.0,2023,6,7,15,24,26,870
42.04640,-0.02870,0.06387,0.00000,0.03233,0.97502,-0.18556,0.0,2023,6,7,15,24,26,880
42.04650,0.00630,0.20388,0.00000,0.03050,0.97490,-0.18800,0.0,2023,6,7,15,24,26,890
42.04660,-0.20370,0.30887,0.00000,0.03038,0.97844,-0.18910,0.0,2023,6,7,15,24,26,900
42.04670,-0.02870,0.01138,0.00000,0.03196,0.97563,-0.18825,0.0,2023,6,7,15,24,26,910
42.04680,0.05880,-0.05863,0.00000,0.03172,0.97637,-0.18715,0.0,2023,6,7,15,24,26,920
42.04690,-0.09870,-0.11113,0.00000,0.03306,0.97624,-0.18751,0.0,2023,6,7,15,24,26,930
42.04700,-0.06370,0.18637,0.00000,0.02952,0.97600,-0.18873,0.0,2023,6,7,15,24,26,940
42.04710,0.14630,-0.32113,0.00000,0.02867,0.97600,-0.18727,0.0,2023,6,7,15,24,26,950
42.04720,0.12880,0.09887,0.00000,0.02977,0.97588,-0.18849,0.0,2023,6,7,15,24,26,960
42.04730,0.12880,-0.12863,0.00000,0.02977,0.97685,-0.18715,0.0,2023,6,7,15,24,26,970
42.04740,0.16380,-0.04113,0.00000,0.03074,0.97685,-0.18849,0.0,2023,6,7,15,24,26,980
42.04750,0.16380,-0.00612,0.00000,0.03209,0.97734,-0.18861,0.0,2023,6,7,15,24,26,990
42.04760,0.11130,-0.14613,0.00000,0.03135,0.97441,-0.18739,0.0,2023,6,7,15,24,26,0
42.04770,0.12880,-0.09363,0.00000,0.03135,0.97429,-0.18581,0.0,2023,6,7,15,24,26,10
42.04780,0.11130,0.02887,0.00000,0.03099,0.97795,-0.18800,0.0,2023,6,7,15,24,26,20
42.04790,0.14630,-0.30363,0.00000,0.03050,0.97588,-0.18764,0.0,2023,6,7,15,24,26,30
42.04800,-0.18620,0.20388,0.00000,0.03282,0.97783,-0.18873,0.0,2023,6,7,15,24,26,40
42.04810,0.00630,0.22138,0.00000,0.03209,0.97698,-0.18751,0.0,2023,6,7,15,24,26,50
42.04820,-0.09870,-0.09363,0.00000,0.03135,0.97600,-0.18861,0.0,2023,6,7,15,24,26,60
42.04830,0.11130,-0.04113,0.00000,0.03160,0.97807,-0.18727,0.0,2023,6,7,15,24,26,70
42.04840,-0.06370,-0.09363,0.00000,0.02940,0.97624,-0.18751,0.0,2023,6,7,15,24,26,80
42.04850,-0.01120,-0.18113,0.00000,0.03099,0.97295,-0.18800,0.0,2023,6,7,15,24,26,90
42.04860,-0.09870,-0.04113,0.00000,0.03294,0.97539,-0.18788,0.0,2023,6,7,15,24,26,100
42.04870,-0.08120,0.02887,0.00000,0.03172,0.97685,-0.18642,0.0,2023,6,7,15,24,26,110
42.04880,0.00630,0.01138,0.00000,0.03013,0.97624,-0.18934,0.0,2023,6,7,15,24,26,120
42.04890,0.11130,0.04637,0.00000,0.03343,0.97612,-0.18873,0.0,2023,6,7,15,24,26,130
42.04900,-0.02870,0.02887,0.00000,0.03294,0.97600,-0.18910,0.0,2023,6,7,15,24,26,140
42.04910,-0.04620,0.11637,0.00000,0.03221,0.97502,-0.18825,0.0,2023,6,7,15,24,26,150
42.04920,0.02380,-0.04113,0.00000,0.03318,0.97734,-0.18947,0.0,2023,6,7,15,24,26,160
42.04930,-0.08120,-0.04113,0.00000,0.03221,0.97502,-0.19020,0.0,2023,6,7,15,24,26,170
42.04940,0.05880,0.06387,0.00000,0.03123,0.97624,-0.18837,0.0,2023,6,7,15,24,26,180
42.04950,-0.01120,0.15137,0.00000,0.03099,0.97490,-0.19032,0.0,2023,6,7,15,24,26,190
42.04960,0.18130,-0.28613,0.00000,0.03148,0.97612,-0.18642,0.0,2023,6,7,15,24,26,200
42.04970,-0.15120,0.15137,0.00000,0.03001,0.97637,-0.19020,0.0,2023,6,7,15,24,26,210
42.04980,0.12880,0.06387,0.00000,0.03172,0.97661,-0.18922,0.0,2023,6,7,15,24,26,220
42.04990,-0.02870,-0.02363,0.00000,0.03074,0.97600,-0.18971,0.0,2023,6,7,15,24,26,230
42.05000,0.02380,0.16887,0.00000,0.03026,0.97624,-0.18910,0.0,2023,6,7,15,24,26,240
42.05010,0.00630,0.08137,0.00000,0.03111,0.97600,-0.18922,0.0,2023,6,7,15,24,26,250
42.05020,0.25130,-0.04113,0.00000,0.03282,0.97612,-0.18788,0.0,2023,6,7,15,24,26,260
42.05030,0.14630,-0.21612,0.00000,0.03099,0.97624,-0.18849,0.0,2023,6,7,15,24,26,270
42.05040,0.12880,-0.11113,0.00000,0.02977,0.97551,-0.18849,0.0,2023,6,7,15,24,26,280
42.05050,0.11130,-0.09363,0.00000,0.03038,0.97710,-0.18959,0.0,2023,6,7,15,24,26,290
42.05060,0.00630,-0.00612,0.00000,0.03196,0.97588,-0.18910,0.0,2023,6,7,15,24,26,300
42.05070,0.00630,-0.02363,0.00000,0.03135,0.97734,-0.18825,0.0,2023,6,7,15,24,26,310
42.05080,-0.01120,-0.12863,0.00000,0.03087,0.97710,-0.18873,0.0,2023,6,7,15,24,26,320
42.05090,-0.01120,0.13387,0.00000,0.02952,0.97710,-0.18861,0.0,2023,6,7,15,24,26,330
42.05100,0.00630,0.01138,0.00000,0.03257,0.97515,-0.18922,0.0,2023,6,7,15,24,26,340
42.05110,0.04130,-0.02363,0.00000,0.03343,0.97612,-0.18837,0.0,2023,6,7,15,24,26,350
42.05120,0.07630,0.06387,0.00000,0.03367,0.97637,-0.18922,0.0,2023,6,7,15,24,26,360
42.05130,-0.01120,-0.05863,0.00000,0.03270,0.97563,-0.18959,0.0,2023,6,7,15,24,26,370
42.05140,0.09380,0.02887,0.00000,0.03245,0.97515,-0.18666,0.0,2023,6,7,15,24,26,380
42.05150,0.14630,0.06387,0.00000,0.03221,0.97771,-0.19142,0.0,2023,6,7,15,24,26,390
42.05160,0.14630,0.04637,0.00000,0.03111,0.97539,-0.18886,0.0,2023,6,7,15,24,26,400
42.05170,0.14630,-0.16363,0.00000,0.03257,0.97685,-0.18788,0.0,2023,6,7,15,24,26,410
42.05180,0.19880,-0.32113,0.00000,0.03111,0.97478,-0.18788,0.0,2023,6,7,15,24,26,420
42.05190,0.00630,0.02887,0.00000,0.03245,0.97502,-0.18983,0.0,2023,6,7,15,24,26,430
42.05200,-0.09870,-0.19863,0.00000,0.03123,0.97893,-0.18837,0.0,2023,6,7,15,24,26,440
42.05210,0.12880,-0.02363,0.00000,0.03294,0.97661,-0.18971,0.0,2023,6,7,15,24,26,450
42.05220,0.09380,-0.05863,0.00000,0.03245,0.97649,-0.18873,0.0,2023,6,7,15,24,26,460
42.05230,0.09380,0.02887,0.00000,0.03074,0.97746,-0.19008,0.0,2023,6,7,15,24,26,470
42.05240,0.05880,-0.02363,0.00000,0.03160,0.97685,-0.18788,0.0,2023,6,7,15,24,26,480
42.05250,-0.01120,-0.07613,0.00000,0.03270,0.97490,-0.18886,0.0,2023,6,7,15,24,26,490
42.05260,0.04130,-0.04113,0.00000,0.02965,0.97722,-0.18995,0.0,2023,6,7,15,24,26,500
42.05270,0.04130,0.02887,0.00000,0.03209,0.97759,-0.18849,0.0,2023,6,7,15,24,26,510
42.05280,-0.01120,-0.04113,0.00000,0.03074,0.97612,-0.18861,0.0,2023,6,7,15,24,26,520
42.05290,0.11130,-0.00612,0.00000,0.02989,0.97527,-0.18849,0.0,2023,6,7,15,24,26,530
42.05300,-0.09870,0.04637,0.00000,0.03087,0.97515,-0.18959,0.0,2023,6,7,15,24,26,540
42.05310,0.14630,-0.09363,0.00000,0.03355,0.97759,-0.18800,0.0,2023,6,7,15,24,26,550
42.05320,0.07630,-0.00612,0.00000,0.03013,0.97685,-0.18690,0.0,2023,6,7,15,24,26,560
42.05330,-0.01120,-0.11113,0.00000,0.03099,0.97624,-0.18849,0.0,2023,6,7,15,24,26,570
42.05340,-0.04620,-0.12863,0.00000,0.03038,0.97722,-0.18812,0.0,2023,6,7,15,24,26,580
42.05350,0.30380,-0.09363,0.00000,0.03099,0.97612,-0.18690,0.0,2023,6,7,15,24,26,590
42.05360,0.07630,0.06387,0.00000,0.03001,0.97722,-0.18886,0.0,2023,6,7,15,24,26,600
42.05370,0.30380,-0.09363,0.00000,0.03257,0.97685,-0.19130,0.0,2023,6,7,15,24,26,610
42.05380,0.18130,0.13387,0.00000,0.03270,0.97576,-0.18898,0.0,2023,6,7,15,24,26,620
42.05390,-0.04620,-0.11113,0.00000,0.03099,0.97515,-0.18873,0.0,2023,6,7,15,24,26,630
42.05400,-0.09870,0.20388,0.00000,0.03001,0.97649,-0.18800,0.0,2023,6,7,15,24,26,640
42.05410,-0.01120,0.13387,0.00000,0.02977,0.97563,-0.18837,0.0,2023,6,7,15,24,26,650
42.05420,-0.11620,0.15137,0.00000,0.03123,0.97624,-0.18703,0.0,2023,6,7,15,24,26,660
42.05430,-0.16870,0.04637,0.00000,0.03257,0.97405,-0.18715,0.0,2023,6,7,15,24,26,670
42.05440,0.02380,0.15137,0.00000,0.03087,0.97551,-0.18861,0.0,2023,6,7,15,24,26,680
42.05450,-0.02870,-0.25113,0.00000,0.03013,0.97551,-0.19044,0.0,2023,6,7,15,24,26,690
42.05460,0.02380,0.08137,0.00000,0.03318,0.97478,-0.18776,0.0,2023,6,7,15,24,26,700
42.05470,0.11130,0.11637,0.00000,0.03355,0.97539,-0.19044,0.0,2023,6,7,15,24,26,710
42.05480,0.04130,-0.14613,0.00000,0.03087,0.97746,-0.18922,0.0,2023,6,7,15,24,26,720
42.05490,0.23380,-0.07613,0.00000,0.03379,0.97698,-0.18934,0.0,2023,6,7,15,24,26,730
42.05500,0.18130,0.08137,0.00000,0.03282,0.97734,-0.18788,0.0,2023,6,7,15,24,26,740
42.05510,0.04130,-0.14613,0.00000,0.03148,0.97722,-0.18715,0.0,2023,6,7,15,24,26,750
42.05520,-0.06370,0.13387,0.00000,0.02989,0.97649,-0.18849,0.0,2023,6,7,15,24,26,760
42.05530,-0.06370,0.11637,0.00000,0.03294,0.97539,-0.19093,0.0,2023,6,7,15,24,26,770
42.05540,0.04130,0.04637,0.00000,0.03038,0.97527,-0.18739,0.0,2023,6,7,15,24,26,780
42.05550,0.02380,-0.07613,0.00000,0.03135,0.97771,-0.18910,0.0,2023,6,7,15,24,26,790
42.05560,0.09380,-0.19863,0.00000,0.03331,0.97710,-0.18715,0.0,2023,6,7,15,24,26,800
42.05570,-0.06370,-0.12863,0.00000,0.03013,0.97710,-0.18776,0.0,2023,6,7,15,24,26,810
42.05580,0.02380,-0.19863,0.00000,0.03148,0.97649,-0.18886,0.0,2023,6,7,15,24,26,820
42.05590,0.05880,0.01138,0.00000,0.03172,0.97515,-0.18812,0.0,2023,6,7,15,24,26,830
42.05600,0.09380,0.08137,0.00000,0.03331,0.97685,-0.18898,0.0,2023,6,7,15,24,26,840
42.05610,0.00630,-0.04113,0.00000,0.03026,0.97783,-0.18776,0.0,2023,6,7,15,24,26,850
42.05620,0.12880,-0.09363,0.00000,0.03123,0.97515,-0.18666,0.0,2023,6,7,15,24,26,860
42.05630,-0.08120,0.11637,0.00000,0.03050,0.97722,-0.18764,0.0,2023,6,7,15,24,26,870
42.05640,0.02380,-0.11113,0.00000,0.03123,0.97661,-0.18800,0.0,2023,6,7,15,24,26,880
42.05650,-0.04620,0.08137,0.00000,0.03148,0.97576,-0.18849,0.0,2023,6,7,15,24,26,890
42.05660,0.11130,-0.09363,0.00000,0.03111,0.97820,-0.18910,0.0,2023,6,7,15,24,26,900
42.05670,0.00630,-0.09363,0.00000,0.03221,0.97551,-0.18922,0.0,2023,6,7,15,24,26,910
42.05680,0.23380,0.06387,0.00000,0.03196,0.97759,-0.18873,0.0,2023,6,7,15,24,26,920
42.05690,0.05880,-0.11113,0.00000,0.03196,0.97515,-0.18947,0.0,2023,6,7,15,24,26,930
42.05700,-0.09870,0.06387,0.00000,0.02867,0.97429,-0.18727,0.0,2023,6,7,15,24,26,940
42.05710,-0.11620,-0.19863,0.00000,0.03123,0.97502,-0.18922,0.0,2023,6,7,15,24,26,950
42.05720,0.09380,-0.04113,0.00000,0.03148,0.97832,-0.18873,0.0,2023,6,7,15,24,26,960
42.05730,0.09380,0.09887,0.00000,0.03148,0.97600,-0.18690,0.0,2023,6,7,15,24,26,970
42.05740,0.02380,-0.18113,0.00000,0.03050,0.97539,-0.18971,0.0,2023,6,7,15,24,26,980
42.05750,0.04130,0.04637,0.00000,0.02977,0.97539,-0.18861,0.0,2023,6,7,15,24,26,990
42.05760,-0.02870,-0.04113,0.00000,0.03233,0.97698,-0.18825,0.0,2023,6,7,15,24,26,0
42.05770,0.05880,0.01138,0.00000,0.03135,0.97380,-0.18983,0.0,2023,6,7,15,24,26,10
42.05780,-0.04620,-0.04113,0.00000,0.03184,0.97661,-0.18739,0.0,2023,6,7,15,24,26,20
42.05790,0.12880,0.02887,0.00000,0.03087,0.97637,-0.18910,0.0,2023,6,7,15,24,26,30
42.05800,0.19880,-0.04113,0.00000,0.03245,0.97356,-0.18800,0.0,2023,6,7,15,24,26,40
42.05810,0.11130,-0.05863,0.00000,0.03172,0.97612,-0.19130,0.0,2023,6,7,15,24,26,50
42.05820,0.02380,0.11637,0.00000,0.03294,0.97832,-0.19020,0.0,2023,6,7,15,24,26,60
42.05830,-0.20370,0.11637,0.00000,0.03404,0.97502,-0.18788,0.0,2023,6,7,15,24,26,70
42.05840,-0.02870,0.08137,0.00000,0.03001,0.97771,-0.18800,0.0,2023,6,7,15,24,26,80
42.05850,0.14630,-0.00612,0.00000,0.03270,0.97612,-0.18739,0.0,2023,6,7,15,24,26,90
42.05860,-0.16870,0.06387,0.00000,0.03123,0.97893,-0.18739,0.0,2023,6,7,15,24,26,100
42.05870,-0.04620,-0.11113,0.00000,0.03257,0.97551,-0.18983,0.0,2023,6,7,15,24,26,110
42.05880,0.12880,-0.00612,0.00000,0.03245,0.97624,-0.19032,0.0,2023,6,7,15,24,26,120
42.05890,0.11130,-0.11113,0.00000,0.03233,0.97600,-0.18947,0.0,2023,6,7,15,24,26,130
42.05900,0.04130,0.04637,0.00000,0.03221,0.97490,-0.18898,0.0,2023,6,7,15,24,26,140
42.05910,0.09380,0.01138,0.00000,0.03294,0.97539,-0.18983,0.0,2023,6,7,15,24,26,150
42.05920,0.04130,0.13387,0.00000,0.03404,0.97649,-0.19093,0.0,2023,6,7,15,24,26,160
42.05930,0.07630,-0.07613,0.00000,0.03477,0.97661,-0.19081,0.0,2023,6,7,15,24,26,170
42.05940,0.07630,0.08137,0.00000,0.03172,0.97624,-0.18947,0.0,2023,6,7,15,24,26,180
42.05950,0.02380,0.02887,0.00000,0.03209,0.97637,-0.18776,0.0,2023,6,7,15,24,26,190
42.05960,0.07630,0.06387,0.00000,0.03087,0.97673,-0.18678,0.0,2023,6,7,15,24,26,200
42.05970,-0.04620,0.15137,0.00000,0.02965,0.97588,-0.18898,0.0,2023,6,7,15,24,26,210
42.05980,0.04130,0.15137,0.00000,0.02940,0.97576,-0.18934,0.0,2023,6,7,15,24,26,220
42.05990,0.00630,-0.04113,0.00000,0.03233,0.97649,-0.18825,0.0,2023,6,7,15,24,26,230
42.06000,-0.09870,0.02887,0.00000,0.03099,0.97600,-0.18617,0.0,2023,6,7,15,24,26,240
42.06010,-0.02870,-0.04113,0.00000,0.03343,0.97673,-0.18910,0.0,2023,6,7,15,24,26,250
42.06020,-0.02870,-0.12863,0.00000,0.03270,0.97820,-0.19239,0.0,2023,6,7,15,24,26,260
42.06030,-0.04620,-0.07613,0.00000,0.03257,0.97698,-0.18825,0.0,2023,6,7,15,24,26,270
42.06040,0.09380,0.13387,0.00000,0.03233,0.97588,-0.19056,0.0,2023,6,7,15,24,26,280
42.06050,0.11130,-0.28613,0.00000,0.02965,0.97539,-0.18861,0.0,2023,6,7,15,24,26,290
42.06060,-0.08120,-0.00612,0.00000,0.03257,0.97405,-0.19142,0.0,2023,6,7,15,24,26,300
42.06070,-0.02870,-0.09363,0.00000,0.03184,0.97673,-0.18825,0.0,2023,6,7,15,24,26,310
42.06080,0.02380,-0.07613,0.00000,0.03221,0.97661,-0.18849,0.0,2023,6,7,15,24,26,320
42.06090,-0.04620,0.01138,0.00000,0.03209,0.97563,-0.19020,0.0,2023,6,7,15,24,26,330
42.06100,0.07630,0.01138,0.00000,0.03184,0.97722,-0.18849,0.0,2023,6,7,15,24,26,340
42.06110,-0.02870,0.09887,0.00000,0.03148,0.97832,-0.18959,0.0,2023,6,7,15,24,26,350
42.06120,0.05880,-0.04113,0.00000,0.02965,0.97624,-0.18764,0.0,2023,6,7,15,24,26,360
42.06130,0.02380,-0.02363,0.00000,0.03160,0.97820,-0.18971,0.0,2023,6,7,15,24,26,370
42.06140,0.09380,0.04637,0.00000,0.03001,0.97893,-0.18861,0.0,2023,6,7,15,24,26,380
42.06150,0.18130,-0.09363,0.00000,0.03172,0.97759,-0.19020,0.0,2023,6,7,15,24,26,390
42.06160,0.07630,0.01138,0.00000,0.03294,0.97441,-0.18849,0.0,2023,6,7,15,24,26,400
42.06170,0.00630,-0.14613,0.00000,0.03184,0.97698,-0.19105,0.0,2023,6,7,15,24,26,410
42.06180,0.16380,-0.14613,0.00000,0.03148,0.97539,-0.18739,0.0,2023,6,7,15,24,26,420
42.06190,-0.01120,0.09887,0.00000,0.03355,0.97551,-0.18983,0.0,2023,6,7,15,24,26,430
42.06200,0.07630,0.08137,0.00000,0.03074,0.97673,-0.18849,0.0,2023,6,7,15,24,26,440
42.06210,0.19880,0.01138,0.00000,0.03038,0.97405,-0.18812,0.0,2023,6,7,15,24,26,450
42.06220,0.18130,-0.16363,0.00000,0.03160,0.97502,-0.18922,0.0,2023,6,7,15,24,26,460
42.06230,-0.08120,0.08137,0.00000,0.03209,0.97624,-0.18922,0.0,2023,6,7,15,24,26,470
42.06240,0.05880,-0.12863,0.00000,0.03172,0.97551,-0.18837,0.0,2023,6,7,15,24,26,480
42.06250,0.12880,-0.07613,0.00000,0.03026,0.97502,-0.18812,0.0,2023,6,7,15,24,26,490
42.06260,0.16380,0.04637,0.00000,0.03172,0.97661,-0.18837,0.0,2023,6,7,15,24,26,500
42.06270,-0.01120,0.22138,0.00000,0.03038,0.97893,-0.18971,0.0,2023,6,7,15,24,26,510
42.06280,0.07630,0.02887,0.00000,0.03318,0.97807,-0.18825,0.0,2023,6,7,15,24,26,520
42.06290,-0.02870,0.06387,0.00000,0.03013,0.97551,-0.18788,0.0,2023,6,7,15,24,26,530
42.06300,0.11130,0.02887,0.00000,0.03221,0.97502,-0.18837,0.0,2023,6,7,15,24,26,540
42.06310,-0.15120,0.22138,0.00000,0.03294,0.97807,-0.18764,0.0,2023,6,7,15,24,26,550
42.06320,0.14630,-0.07613,0.00000,0.03343,0.97600,-0.18825,0.0,2023,6,7,15,24,26,560
42.06330,0.11130,0.08137,0.00000,0.03343,0.97807,-0.19008,0.0,2023,6,7,15,24,26,570
42.06340,-0.01120,0.04637,0.00000,0.03148,0.97588,-0.18642,0.0,2023,6,7,15,24,26,580
42.06350,0.23380,-0.09363,0.00000,0.03221,0.97441,-0.18825,0.0,2023,6,7,15,24,26,590
42.06360,-0.11620,-0.04113,0.00000,0.03172,0.97966,-0.18715,0.0,2023,6,7,15,24,26,600
42.06370,-0.09870,-0.05863,0.00000,0.03331,0.97710,-0.18825,0.0,2023,6,7,15,24,26,610
42.06380,0.05880,-0.04113,0.00000,0.03087,0.97539,-0.18959,0.0,2023,6,7,15,24,26,620
42.06390,-0.08120,-0.02363,0.00000,0.03148,0.97490,-0.18703,0.0,2023,6,7,15,24,26,630
42.06400,0.02380,-0.14613,0.00000,0.03099,0.97685,-0.19117,0.0,2023,6,7,15,24,26,640
42.06410,0.25130,0.01138,0.00000,0.03270,0.97759,-0.18739,0.0,2023,6,7,15,24,26,650
42.06420,0.02380,0.06387,0.00000,0.02879,0.97759,-0.18861,0.0,2023,6,7,15,24,26,660
42.06430,0.07630,0.04637,0.00000,0.03087,0.97588,-0.19093,0.0,2023,6,7,15,24,26,670
42.06440,0.14630,-0.07613,0.00000,0.02904,0.97832,-0.18971,0.0,2023,6,7,15,24,26,680
42.06450,0.00630,-0.09363,0.00000,0.03026,0.97637,-0.18751,0.0,2023,6,7,15,24,26,690
42.06460,-0.15120,-0.07613,0.00000,0.02989,0.97588,-0.19252,0.0,2023,6,7,15,24,26,700
42.06470,0.09380,-0.14613,0.00000,0.03221,0.97356,-0.18825,0.0,2023,6,7,15,24,26,710
42.06480,0.05880,0.01138,0.00000,0.03257,0.97441,-0.18825,0.0,2023,6,7,15,24,26,720
42.06490,0.05880,-0.00612,0.00000,0.03050,0.97722,-0.18873,0.0,2023,6,7,15,24,26,730
42.06500,0.05880,-0.19863,0.00000,0.03135,0.97405,-0.18934,0.0,2023,6,7,15,24,26,740
42.06510,0.00630,0.01138,0.00000,0.03209,0.97454,-0.18983,0.0,2023,6,7,15,24,26,750
42.06520,0.02380,-0.07613,0.00000,0.03318,0.97502,-0.18934,0.0,2023,6,7,15,24,26,760
42.06530,0.02380,-0.18113,0.00000,0.03050,0.97563,-0.18849,0.0,2023,6,7,15,24,26,770
42.06540,-0.02870,0.27387,0.00000,0.03172,0.97637,-0.18983,0.0,2023,6,7,15,24,26,780
42.06550,0.07630,-0.09363,0.00000,0.03050,0.97612,-0.18995,0.0,2023,6,7,15,24,26,790
42.06560,0.12880,-0.09363,0.00000,0.03135,0.97698,-0.19020,0.0,2023,6,7,15,24,26,800
42.06570,0.00630,0.04637,0.00000,0.03245,0.97746,-0.18898,0.0,2023,6,7,15,24,26,810
42.06580,0.05880,-0.07613,0.00000,0.03233,0.97637,-0.19020,0.0,2023,6,7,15,24,26,820
42.06590,0.02380,-0.07613,0.00000,0.03001,0.97417,-0.18812,0.0,2023,6,7,15,24,26,830
42.06600,0.18130,-0.23362,0.00000,0.03111,0.97771,-0.18947,0.0,2023,6,7,15,24,26,840
42.06610,0.19880,0.15137,0.00000,0.02965,0.97380,-0.19142,0.0,2023,6,7,15,24,26,850
42.06620,0.07630,0.15137,0.00000,0.03062,0.97722,-0.19008,0.0,2023,6,7,15,24,26,860
42.06630,0.18130,-0.12863,0.00000,0.03331,0.97807,-0.18898,0.0,2023,6,7,15,24,26,870
42.06640,0.05880,-0.28613,0.00000,0.03123,0.97612,-0.18739,0.0,2023,6,7,15,24,26,880
42.06650,-0.06370,-0.02363,0.00000,0.03184,0.97478,-0.18910,0.0,2023,6,7,15,24,26,890
42.06660,0.11130,-0.02363,0.00000,0.03209,0.97612,-0.18849,0.0,2023,6,7,15,24,26,900
42.06670,0.07630,0.04637,0.00000,0.03038,0.97649,-0.19008,0.0,2023,6,7,15,24,26,910
42.06680,0.02380,0.23887,0.00000,0.03233,0.97454,-0.18959,0.0,2023,6,7,15,24,26,920
42.06690,-0.13370,-0.14613,0.00000,0.03233,0.97649,-0.18971,0.0,2023,6,7,15,24,26,930
42.06700,0.04130,-0.00612,0.00000,0.03318,0.97710,-0.18837,0.0,2023,6,7,15,24,26,940
42.06710,-0.01120,-0.09363,0.00000,0.03062,0.97795,-0.18764,0.0,2023,6,7,15,24,26,950
42.06720,-0.09870,-0.05863,0.00000,0.03099,0.97978,-0.19093,0.0,2023,6,7,15,24,26,960
42.06730,-0.04620,0.09887,0.00000,0.03013,0.97637,-0.18825,0.0,2023,6,7,15,24,26,970
42.06740,0.16380,-0.12863,0.00000,0.03038,0.97478,-0.18776,0.0,2023,6,7,15,24,26,980
42.06750,-0.02870,-0.05863,0.00000,0.03135,0.97380,-0.18947,0.0,2023,6,7,15,24,26,990
42.06760,0.04130,0.11637,0.00000,0.03135,0.97502,-0.18837,0.0,2023,6,7,15,24,26,0
42.06770,-0.11620,0.09887,0.00000,0.03148,0.97563,-0.18678,0.0,2023,6,7,15,24,26,10
42.06780,0.00630,0.06387,0.00000,0.03013,0.97698,-0.18934,0.0,2023,6,7,15,24,26,20
42.06790,0.26880,-0.19863,0.00000,0.03160,0.97746,-0.18764,0.0,2023,6,7,15,24,26,30
42.06800,0.09380,-0.09363,0.00000,0.03038,0.97685,-0.18825,0.0,2023,6,7,15,24,26,40
42.06810,0.12880,0.15137,0.00000,0.03001,0.97673,-0.18812,0.0,2023,6,7,15,24,26,50
42.06820,0.05880,-0.12863,0.00000,0.03038,0.97563,-0.18886,0.0,2023,6,7,15,24,26,60
42.06830,0.21630,-0.05863,0.00000,0.03160,0.97624,-0.18934,0.0,2023,6,7,15,24,26,70
42.06840,0.00630,-0.04113,0.00000,0.03160,0.97551,-0.18764,0.0,2023,6,7,15,24,26,80
42.06850,-0.02870,-0.04113,0.00000,0.03196,0.97673,-0.18800,0.0,2023,6,7,15,24,26,90
42.06860,-0.18620,-0.05863,0.00000,0.03184,0.97759,-0.18886,0.0,2023,6,7,15,24,26,100
42.06870,0.04130,0.11637,0.00000,0.03050,0.97588,-0.18678,0.0,2023,6,7,15,24,26,110
42.06880,-0.01120,0.30887,0.00000,0.03074,0.97429,-0.19008,0.0,2023,6,7,15,24,26,120
42.06890,-0.01120,-0.19863,0.00000,0.03233,0.97783,-0.18544,0.0,2023,6,7,15,24,26,130
42.06900,-0.01120,-0.05863,0.00000,0.03221,0.97624,-0.18690,0.0,2023,6,7,15,24,26,140
42.06910,-0.06370,-0.09363,0.00000,0.03196,0.97539,-0.18764,0.0,2023,6,7,15,24,26,150
42.06920,-0.08120,-0.07613,0.00000,0.03221,0.97771,-0.18764,0.0,2023,6,7,15,24,26,160
42.06930,0.16380,0.18637,0.00000,0.03184,0.97502,-0.18861,0.0,2023,6,7,15,24,26,170
42.06940,0.00630,-0.09363,0.00000,0.03172,0.97722,-0.18812,0.0,2023,6,7,15,24,26,180
42.06950,0.19880,-0.11113,0.00000,0.03184,0.97759,-0.18959,0.0,2023,6,7,15,24,26,190
42.06960,0.05880,-0.02363,0.00000,0.03184,0.97820,-0.18739,0.0,2023,6,7,15,24,26,200
42.06970,0.14630,-0.12863,0.00000,0.03099,0.97698,-0.18898,0.0,2023,6,7,15,24,26,210
42.06980,-0.06370,0.04637,0.00000,0.03343,0.97734,-0.18666,0.0,2023,6,7,15,24,26,220
42.06990,-0.06370,0.02887,0.00000,0.03221,0.97563,-0.18703,0.0,2023,6,7,15,24,26,230
42.07000,0.18130,-0.11113,0.00000,0.03196,0.97576,-0.18715,0.0,2023,6,7,15,24,26,240
42.07010,-0.01120,0.04637,0.00000,0.03148,0.97649,-0.18703,0.0,2023,6,7,15,24,26,250
42.07020,-0.09870,0.01138,0.00000,0.03355,0.97783,-0.18812,0.0,2023,6,7,15,24,26,260
42.07030,-0.23870,-0.05863,0.00000,0.03050,0.97429,-0.18861,0.0,2023,6,7,15,24,26,270
42.07040,0.02380,0.20388,0.00000,0.03111,0.97563,-0.18910,0.0,2023,6,7,15,24,26,280
42.07050,0.00630,-0.02363,0.00000,0.03184,0.97588,-0.18898,0.0,2023,6,7,15,24,26,290
42.07060,-0.01120,-0.16363,0.00000,0.03184,0.97722,-0.18873,0.0,2023,6,7,15,24,26,300
42.07070,0.16380,0.01138,0.00000,0.03428,0.97783,-0.18703,0.0,2023,6,7,15,24,26,310
42.07080,0.02380,-0.18113,0.00000,0.03294,0.97734,-0.18971,0.0,2023,6,7,15,24,26,320
42.07090,-0.13370,0.02887,0.00000,0.03233,0.97539,-0.18812,0.0,2023,6,7,15,24,26,330
42.07100,0.11130,0.32637,0.00000,0.03160,0.97649,-0.18776,0.0,2023,6,7,15,24,26,340
42.07110,0.11130,0.04637,0.00000,0.03013,0.97929,-0.19008,0.0,2023,6,7,15,24,26,350
42.07120,-0.11620,-0.09363,0.00000,0.03148,0.97405,-0.18800,0.0,2023,6,7,15,24,26,360
42.07130,0.02380,0.15137,0.00000,0.03087,0.97698,-0.18947,0.0,2023,6,7,15,24,26,370
42.07140,-0.02870,-0.05863,0.00000,0.03209,0.97527,-0.18825,0.0,2023,6,7,15,24,26,380
42.07150,0.09380,-0.18113,0.00000,0.03148,0.97832,-0.18922,0.0,2023,6,7,15,24,27,390
42.07160,0.00630,0.15137,0.00000,0.03050,0.97527,-0.18800,0.0,2023,6,7,15,24,27,400
42.07170,-0.09870,0.01138,0.00000,0.03209,0.97441,-0.18544,0.0,2023,6,7,15,24,27,410
42.07180,0.07630,-0.09363,0.00000,0.03172,0.97551,-0.18776,0.0,2023,6,7,15,24,27,420
42.07190,-0.09870,0.15137,0.00000,0.03062,0.97820,-0.18715,0.0,2023,6,7,15,24,27,430
42.07200,0.02380,-0.05863,0.00000,0.03172,0.97576,-0.18947,0.0,2023,6,7,15,24,27,440
42.07210,0.05880,-0.09363,0.00000,0.02855,0.97332,-0.18800,0.0,2023,6,7,15,24,27,450
42.07220,0.02380,-0.11113,0.00000,0.03074,0.97417,-0.18605,0.0,2023,6,7,15,24,27,460
42.07230,0.02380,0.04637,0.00000,0.03209,0.97429,-0.18873,0.0,2023,6,7,15,24,27,470
42.07240,-0.02870,0.02887,0.00000,0.03074,0.97661,-0.18971,0.0,2023,6,7,15,24,27,480
42.07250,-0.06370,0.02887,0.00000,0.03099,0.97759,-0.18800,0.0,2023,6,7,15,24,27,490
42.07260,0.04130,0.18637,0.00000,0.03074,0.97734,-0.19117,0.0,2023,6,7,15,24,27,500
42.07270,0.04130,-0.00612,0.00000,0.03367,0.97563,-0.18776,0.0,2023,6,7,15,24,27,510
42.07280,0.02380,0.02887,0.00000,0.03135,0.97649,-0.18812,0.0,2023,6,7,15,24,27,520
42.07290,0.07630,0.08137,0.00000,0.03050,0.97576,-0.18800,0.0,2023,6,7,15,24,27,530
42.07300,0.05880,-0.04113,0.00000,0.03050,0.97576,-0.19056,0.0,2023,6,7,15,24,27,540
42.07310,0.02380,0.04637,0.00000,0.03245,0.97515,-0.18934,0.0,2023,6,7,15,24,27,550
42.07320,-0.13370,0.09887,0.00000,0.03062,0.97649,-0.18947,0.0,2023,6,7,15,24,27,560
42.07330,0.16380,-0.25113,0.00000,0.02977,0.97600,-0.19093,0.0,2023,6,7,15,24,27,570
42.07340,-0.08120,-0.02363,0.00000,0.03282,0.97563,-0.18678,0.0,2023,6,7,15,24,27,580
42.07350,0.00630,-0.09363,0.00000,0.02867,0.97673,-0.19130,0.0,2023,6,7,15,24,27,590
42.07360,0.02380,-0.00612,0.00000,0.02904,0.97576,-0.18690,0.0,2023,6,7,15,24,27,600
42.07370,-0.04620,0.09887,0.00000,0.03013,0.97685,-0.19032,0.0,2023,6,7,15,24,27,610
42.07380,-0.04620,-0.09363,0.00000,0.03123,0.97527,-0.18886,0.0,2023,6,7,15,24,27,620
42.07390,0.11130,-0.02363,0.00000,0.03196,0.97600,-0.18800,0.0,2023,6,7,15,24,27,630
42.07400,0.14630,0.09887,0.00000,0.03050,0.97588,-0.18983,0.0,2023,6,7,15,24,27,640
42.07410,-0.01120,0.01138,0.00000,0.03013,0.97698,-0.19093,0.0,2023,6,7,15,24,27,650
42.07420,-0.02870,-0.04113,0.00000,0.02904,0.97649,-0.19056,0.0,2023,6,7,15,24,27,660
42.07430,0.19880,-0.09363,0.00000,0.02867,0.97698,-0.18861,0.0,2023,6,7,15,24,27,670
42.07440,0.09380,0.04637,0.00000,0.03111,0.97612,-0.18837,0.0,2023,6,7,15,24,27,680
42.07450,0.16380,-0.19863,0.00000,0.03257,0.97612,-0.19093,0.0,2023,6,7,15,24,27,690
42.07460,0.14630,-0.12863,0.00000,0.03184,0.97380,-0.18983,0.0,2023,6,7,15,24,27,700
42.07470,-0.08120,0.15137,0.00000,0.03013,0.97685,-0.18739,0.0,2023,6,7,15,24,27,710
42.07480,-0.06370,-0.12863,0.00000,0.03123,0.97795,-0.18886,0.0,2023,6,7,15,24,27,720
42.07490,-0.04620,0.08137,0.00000,0.03013,0.97527,-0.18959,0.0,2023,6,7,15,24,27,730
42.07500,0.00630,0.13387,0.00000,0.03050,0.97685,-0.18922,0.0,2023,6,7,15,24,27,740
42.07510,0.19880,-0.00612,0.00000,0.03233,0.97698,-0.19178,0.0,2023,6,7,15,24,27,750
42.07520,-0.04620,0.02887,0.00000,0.03148,0.97612,-0.19008,0.0,2023,6,7,15,24,27,760
42.07530,0.18130,-0.02363,0.00000,0.03062,0.97490,-0.18886,0.0,2023,6,7,15,24,27,770
42.07540,-0.01120,-0.14613,0.00000,0.03282,0.97795,-0.18886,0.0,2023,6,7,15,24,27,780
42.07550,-0.16870,-0.05863,0.00000,0.02977,0.97600,-0.18751,0.0,2023,6,7,15,24,27,790
42.07560,0.12880,0.09887,0.00000,0.03135,0.97624,-0.18971,0.0,2023,6,7,15,24,27,800
42.07570,-0.08120,-0.02363,0.00000,0.03074,0.97551,-0.18910,0.0,2023,6,7,15,24,27,810
42.07580,0.05880,-0.04113,0.00000,0.03099,0.97576,-0.18837,0.0,2023,6,7,15,24,27,820
42.07590,0.07630,-0.07613,0.00000,0.03111,0.97600,-0.18861,0.0,2023,6,7,15,24,27,830
42.07600,-0.01120,0.11637,0.00000,0.03257,0.97515,-0.18947,0.0,2023,6,7,15,24,27,840
42.07610,0.05880,0.01138,0.00000,0.02977,0.97563,-0.18642,0.0,2023,6,7,15,24,27,850
42.07620,-0.22120,0.20388,0.00000,0.03111,0.97698,-0.18995,0.0,2023,6,7,15,24,27,860
42.07630,-0.04620,0.27387,0.00000,0.03209,0.97515,-0.18825,0.0,2023,6,7,15,24,27,870
42.07640,0.09380,0.02887,0.00000,0.03087,0.97612,-0.18959,0.0,2023,6,7,15,24,27,880
42.07650,-0.02870,0.09887,0.00000,0.03221,0.97429,-0.18873,0.0,2023,6,7,15,24,27,890
42.07660,0.05880,0.15137,0.00000,0.03257,0.97478,-0.19191,0.0,2023,6,7,15,24,27,900
42.07670,0.07630,-0.09363,0.00000,0.03062,0.97454,-0.18788,0.0,2023,6,7,15,24,27,910
42.07680,-0.11620,0.02887,0.00000,0.03172,0.97539,-0.18812,0.0,2023,6,7,15,24,27,920
42.07690,-0.06370,-0.09363,0.00000,0.03026,0.97673,-0.18617,0.0,2023,6,7,15,24,27,930
42.07700,-0.02870,-0.16363,0.00000,0.03331,0.97612,-0.18849,0.0,2023,6,7,15,24,27,940
42.07710,0.21630,-0.11113,0.00000,0.03257,0.97588,-0.18739,0.0,2023,6,7,15,24,27,950
42.07720,0.07630,0.02887,0.00000,0.03282,0.97429,-0.19191,0.0,2023,6,7,15,24,27,960
42.07730,-0.32620,-0.07613,0.00000,0.03087,0.97454,-0.18922,0.0,2023,6,7,15,24,27,970
42.07740,0.05880,-0.16363,0.00000,0.03160,0.97710,-0.19191,0.0,2023,6,7,15,24,27,980
42.07750,0.04130,0.08137,0.00000,0.03184,0.97673,-0.18934,0.0,2023,6,7,15,24,27,990
42.07760,-0.13370,-0.00612,0.00000,0.03026,0.97649,-0.18800,0.0,2023,6,7,15,24,27,0
42.07770,0.12880,-0.02363,0.00000,0.03135,0.97527,-0.18934,0.0,2023,6,7,15,24,27,10
42.07780,0.07630,0.13387,0.00000,0.03294,0.97698,-0.18934,0.0,2023,6,7,15,24,27,20
42.07790,0.07630,-0.07613,0.00000,0.03233,0.97539,-0.18947,0.0,2023,6,7,15,24,27,30
42.07800,0.07630,-0.00612,0.00000,0.03074,0.97637,-0.18983,0.0,2023,6,7,15,24,27,40
42.07810,-0.01120,-0.12863,0.00000,0.03111,0.97429,-0.18898,0.0,2023,6,7,15,24,27,50
42.07820,0.07630,-0.04113,0.00000,0.03172,0.97478,-0.18739,0.0,2023,6,7,15,24,27,60
42.07830,-0.11620,0.08137,0.00000,0.03184,0.97612,-0.18922,0.0,2023,6,7,15,24,27,70
42.07840,-0.01120,-0.11113,0.00000,0.03318,0.97771,-0.18910,0.0,2023,6,7,15,24,27,80
42.07850,0.14630,0.15137,0.00000,0.03050,0.97405,-0.18715,0.0,2023,6,7,15,24,27,90
42.07860,0.11130,-0.05863,0.00000,0.03038,0.97820,-0.18910,0.0,2023,6,7,15,24,27,100
42.07870,0.18130,-0.11113,0.00000,0.03111,0.97502,-0.18434,0.0,2023,6,7,15,24,27,110
42.07880,-0.01120,-0.07613,0.00000,0.03135,0.97466,-0.18947,0.0,2023,6,7,15,24,27,120
42.07890,-0.01120,-0.18113,0.00000,0.03270,0.97490,-0.18666,0.0,2023,6,7,15,24,27,130
42.07900,-0.06370,0.02887,0.00000,0.02940,0.97734,-0.18947,0.0,2023,6,7,15,24,27,140
42.07910,-0.08120,0.20388,0.00000,0.03318,0.97637,-0.18995,0.0,2023,6,7,15,24,27,150
42.07920,0.00630,-0.09363,0.00000,0.03245,0.97649,-0.18715,0.0,2023,6,7,15,24,27,160
42.07930,-0.08120,0.13387,0.00000,0.03160,0.97661,-0.18776,0.0,2023,6,7,15,24,27,170
42.07940,-0.15120,0.08137,0.00000,0.03074,0.97759,-0.18654,0.0,2023,6,7,15,24,27,180
42.07950,0.04130,-0.33863,0.00000,0.03001,0.97563,-0.19069,0.0,2023,6,7,15,24,27,190
42.07960,0.00630,-0.04113,0.00000,0.03221,0.97661,-0.18886,0.0,2023,6,7,15,24,27,200
42.07970,0.07630,-0.14613,0.00000,0.03099,0.97832,-0.19032,0.0,2023,6,7,15,24,27,210
42.07980,-0.20370,0.20388,0.00000,0.03148,0.97576,-0.19069,0.0,2023,6,7,15,24,27,220
42.07990,0.05880,-0.02363,0.00000,0.03013,0.97478,-0.18861,0.0,2023,6,7,15,24,27,230
42.08000,-0.11620,0.11637,0.00000,0.02928,0.97746,-0.18995,0.0,2023,6,7,15,24,27,240
42.08010,-0.06370,0.16887,0.00000,0.03245,0.97563,-0.18788,0.0,2023,6,7,15,24,27,250
42.08020,0.00630,-0.07613,0.00000,0.03099,0.97637,-0.18959,0.0,2023,6,7,15,24,27,260
42.08030,-0.02870,0.04637,0.00000,0.02916,0.97673,-0.18922,0.0,2023,6,7,15,24,27,270
42.08040,-0.09870,0.02887,0.00000,0.03331,0.97734,-0.19020,0.0,2023,6,7,15,24,27,280
42.08050,-0.01120,0.13387,0.00000,0.03074,0.97685,-0.18910,0.0,2023,6,7,15,24,27,290
42.08060,-0.02870,-0.05863,0.00000,0.03038,0.97637,-0.18715,0.0,2023,6,7,15,24,27,300
42.08070,-0.02870,0.04637,0.00000,0.03233,0.97429,-0.18764,0.0,2023,6,7,15,24,27,310
42.08080,0.07630,0.02887,0.00000,0.02940,0.97673,-0.18886,0.0,2023,6,7,15,24,27,320
42.08090,0.09380,-0.12863,0.00000,0.03123,0.97685,-0.18751,0.0,2023,6,7,15,24,27,330
42.08100,0.09380,0.06387,0.00000,0.03209,0.97588,-0.18617,0.0,2023,6,7,15,24,27,340
42.08110,-0.08120,-0.00612,0.00000,0.03087,0.97600,-0.18727,0.0,2023,6,7,15,24,27,350
42.08120,0.07630,0.06387,0.00000,0.03257,0.97649,-0.18764,0.0,2023,6,7,15,24,27,360
42.08130,-0.13370,0.11637,0.00000,0.03257,0.97490,-0.18715,0.0,2023,6,7,15,24,27,370
42.08140,0.07630,0.09887,0.00000,0.03233,0.97478,-0.18788,0.0,2023,6,7,15,24,27,380
42.08150,0.18130,-0.18113,0.00000,0.03087,0.97771,-0.18825,0.0,2023,6,7,15,24,27,390
42.08160,-0.01120,-0.21612,0.00000,0.03074,0.97502,-0.18922,0.0,2023,6,7,15,24,27,400
42.08170,-0.04620,0.06387,0.00000,0.03270,0.97734,-0.18849,0.0,2023,6,7,15,24,27,410
42.08180,0.07630,0.02887,0.00000,0.03257,0.97466,-0.18922,0.0,2023,6,7,15,24,27,420
42.08190,0.00630,0.20388,0.00000,0.02952,0.97710,-0.18886,0.0,2023,6,7,15,24,27,430
42.08200,0.18130,0.08137,0.00000,0.03087,0.97820,-0.18556,0.0,2023,6,7,15,24,27,440
42.08210,0.07630,-0.09363,0.00000,0.03013,0.97600,-0.18910,0.0,2023,6,7,15,24,27,450
42.08220,0.07630,0.04637,0.00000,0.03038,0.97673,-0.18825,0.0,2023,6,7,15,24,27,460
42.08230,0.05880,-0.09363,0.00000,0.03209,0.97454,-0.18812,0.0,2023,6,7,15,24,27,470
42.08240,0.02380,0.18637,0.00000,0.03294,0.97563,-0.18910,0.0,2023,6,7,15,24,27,480
42.08250,0.11130,-0.09363,0.00000,0.03392,0.97624,-0.18873,0.0,2023,6,7,15,24,27,490
42.08260,-0.11620,0.04637,0.00000,0.03135,0.97698,-0.18910,0.0,2023,6,7,15,24,27,500
42.08270,0.11130,-0.12863,0.00000,0.03282,0.97698,-0.18861,0.0,2023,6,7,15,24,27,510
42.08280,0.07630,0.13387,0.00000,0.03087,0.97515,-0.18959,0.0,2023,6,7,15,24,27,520
42.08290,0.12880,-0.14613,0.00000,0.03172,0.97637,-0.18873,0.0,2023,6,7,15,24,27,530
42.08300,0.07630,-0.00612,0.00000,0.03233,0.97637,-0.18959,0.0,2023,6,7,15,24,27,540
42.08310,0.11130,-0.07613,0.00000,0.03428,0.97698,-0.18654,0.0,2023,6,7,15,24,27,550
42.08320,0.09380,-0.25113,0.00000,0.03172,0.97600,-0.19117,0.0,2023,6,7,15,24,27,560
42.08330,0.09380,-0.21612,0.00000,0.02965,0.97380,-0.18837,0.0,2023,6,7,15,24,27,570
42.08340,-0.04620,-0.05863,0.00000,0.03160,0.97478,-0.18825,0.0,2023,6,7,15,24,27,580
42.08350,0.09380,0.11637,0.00000,0.03026,0.97624,-0.18959,0.0,2023,6,7,15,24,27,590
42.08360,-0.18620,0.08137,0.00000,0.02965,0.97454,-0.19032,0.0,2023,6,7,15,24,27,600
42.08370,-0.06370,-0.12863,0.00000,0.03270,0.97502,-0.18703,0.0,2023,6,7,15,24,27,610
42.08380,0.02380,-0.05863,0.00000,0.03245,0.97673,-0.18861,0.0,2023,6,7,15,24,27,620
42.08390,-0.06370,0.16887,0.00000,0.03282,0.97612,-0.18837,0.0,2023,6,7,15,24,27,630
42.08400,0.11130,0.02887,0.00000,0.03123,0.97478,-0.18910,0.0,2023,6,7,15,24,27,640
42.08410,0.07630,-0.04113,0.00000,0.03074,0.97429,-0.18971,0.0,2023,6,7,15,24,27,650
42.08420,0.00630,-0.04113,0.00000,0.03111,0.97881,-0.18873,0.0,2023,6,7,15,24,27,660
42.08430,0.19880,-0.05863,0.00000,0.03062,0.97588,-0.19142,0.0,2023,6,7,15,24,27,670
42.08440,0.09380,0.04637,0.00000,0.03367,0.97820,-0.18788,0.0,2023,6,7,15,24,27,680
42.08450,0.11130,0.16887,0.00000,0.03160,0.97649,-0.18751,0.0,2023,6,7,15,24,27,690
42.08460,-0.02870,0.02887,0.00000,0.03087,0.97710,-0.18642,0.0,2023,6,7,15,24,27,700
42.08470,0.19880,0.06387,0.00000,0.03074,0.97637,-0.19032,0.0,2023,6,7,15,24,27,710
42.08480,0.02380,-0.05863,0.00000,0.03038,0.97576,-0.18971,0.0,2023,6,7,15,24,27,720
42.08490,0.18130,0.08137,0.00000,0.03087,0.97734,-0.18800,0.0,2023,6,7,15,24,27,730
42.08500,0.11130,0.13387,0.00000,0.03172,0.97588,-0.19130,0.0,2023,6,7,15,24,27,740
42.08510,0.05880,0.11637,0.00000,0.03013,0.97490,-0.18727,0.0,2023,6,7,15,24,27,750
42.08520,-0.06370,-0.05863,0.00000,0.03135,0.97698,-0.18971,0.0,2023,6,7,15,24,27,760
42.08530,0.14630,0.18637,0.00000,0.03026,0.97807,-0.18568,0.0,2023,6,7,15,24,27,770
42.08540,-0.02870,-0.09363,0.00000,0.03123,0.97661,-0.18861,0.0,2023,6,7,15,24,27,780
42.08550,0.05880,-0.11113,0.00000,0.03074,0.97661,-0.18678,0.0,2023,6,7,15,24,27,790
42.08560,0.12880,0.09887,0.00000,0.03282,0.97771,-0.18849,0.0,2023,6,7,15,24,27,800
42.08570,0.02380,-0.12863,0.00000,0.03148,0.97759,-0.18837,0.0,2023,6,7,15,24,27,810
42.08580,0.14630,0.22138,0.00000,0.03074,0.97563,-0.18886,0.0,2023,6,7,15,24,27,820
42.08590,0.09380,-0.16363,0.00000,0.03050,0.97710,-0.18971,0.0,2023,6,7,15,24,27,830
42.08600,0.04130,-0.00612,0.00000,0.03257,0.97515,-0.19142,0.0,2023,6,7,15,24,27,840
42.08610,-0.04620,0.16887,0.00000,0.02891,0.97490,-0.18995,0.0,2023,6,7,15,24,27,850
42.08620,-0.06370,-0.04113,0.00000,0.03111,0.97710,-0.18971,0.0,2023,6,7,15,24,27,860
42.08630,0.04130,-0.16363,0.00000,0.03306,0.97698,-0.18690,0.0,2023,6,7,15,24,27,870
42.08640,-0.09870,0.16887,0.00000,0.03135,0.97441,-0.19093,0.0,2023,6,7,15,24,27,880
42.08650,-0.22120,-0.02363,0.00000,0.03123,0.97539,-0.18947,0.0,2023,6,7,15,24,27,890
42.08660,0.11130,-0.12863,0.00000,0.03282,0.97722,-0.18983,0.0,2023,6,7,15,24,27,900
42.08670,-0.01120,0.25637,0.00000,0.03221,0.97441,-0.18934,0.0,2023,6,7,15,24,27,910
42.08680,0.04130,0.09887,0.00000,0.03087,0.97759,-0.18898,0.0,2023,6,7,15,24,27,920
42.08690,0.04130,0.13387,0.00000,0.03257,0.97673,-0.18715,0.0,2023,6,7,15,24,27,930
42.08700,0.07630,-0.02363,0.00000,0.03233,0.97527,-0.18934,0.0,2023,6,7,15,24,27,940
42.08710,0.04130,0.04637,0.00000,0.03087,0.97649,-0.18556,0.0,2023,6,7,15,24,27,950
42.08720,0.05880,-0.05863,0.00000,0.03209,0.97661,-0.18910,0.0,2023,6,7,15,24,27,960
42.08730,-0.06370,0.13387,0.00000,0.03233,0.97515,-0.18910,0.0,2023,6,7,15,24,27,970
42.08740,-0.15120,0.36137,0.00000,0.03099,0.97576,-0.18898,0.0,2023,6,7,15,24,27,980
42.08750,-0.06370,0.13387,0.00000,0.03306,0.97515,-0.18861,0.0,2023,6,7,15,24,27,990
42.08760,0.09380,-0.02363,0.00000,0.03062,0.97600,-0.18812,0.0,2023,6,7,15,24,27,0
42.08770,0.16380,-0.05863,0.00000,0.03135,0.97734,-0.18861,0.0,2023,6,7,15,24,27,10
42.08780,-0.13370,0.06387,0.00000,0.03074,0.97441,-0.18800,0.0,2023,6,7,15,24,27,20
42.08790,0.07630,-0.07613,0.00000,0.03148,0.97722,-0.18959,0.0,2023,6,7,15,24,27,30
42.08800,-0.11620,0.09887,0.00000,0.03135,0.97624,-0.18642,0.0,2023,6,7,15,24,27,40
42.08810,0.25130,-0.11113,0.00000,0.03209,0.97710,-0.18764,0.0,2023,6,7,15,24,27,50
42.08820,0.11130,-0.04113,0.00000,0.03123,0.97624,-0.18983,0.0,2023,6,7,15,24,27,60
42.08830,0.00630,-0.02363,0.00000,0.03123,0.97710,-0.19154,0.0,2023,6,7,15,24,27,70
42.08840,0.02380,0.11637,0.00000,0.03038,0.97685,-0.18703,0.0,2023,6,7,15,24,27,80
42.08850,0.11130,-0.04113,0.00000,0.03196,0.97746,-0.18959,0.0,2023,6,7,15,24,27,90
42.08860,0.02380,0.13387,0.00000,0.02977,0.97661,-0.18849,0.0,2023,6,7,15,24,27,100
42.08870,0.11130,-0.14613,0.00000,0.03160,0.97588,-0.18581,0.0,2023,6,7,15,24,27,110
42.08880,-0.08120,0.15137,0.00000,0.03001,0.97600,-0.18849,0.0,2023,6,7,15,24,27,120
42.08890,0.18130,0.01138,0.00000,0.03038,0.97588,-0.18934,0.0,2023,6,7,15,24,27,130
42.08900,0.02380,-0.16363,0.00000,0.03184,0.97600,-0.18690,0.0,2023,6,7,15,24,27,140
42.08910,0.18130,0.02887,0.00000,0.03221,0.97759,-0.18825,0.0,2023,6,7,15,24,27,150
42.08920,-0.02870,0.06387,0.00000,0.03123,0.97673,-0.18776,0.0,2023,6,7,15,24,27,160
42.08930,0.07630,0.11637,0.00000,0.03026,0.97502,-0.18703,0.0,2023,6,7,15,24,27,170
42.08940,-0.01120,-0.14613,0.00000,0.03111,0.97795,-0.18873,0.0,2023,6,7,15,24,27,180
42.08950,-0.15120,-0.05863,0.00000,0.03294,0.97466,-0.18959,0.0,2023,6,7,15,24,27,190
42.08960,0.04130,0.02887,0.00000,0.03087,0.97685,-0.18825,0.0,2023,6,7,15,24,27,200
42.08970,0.09380,-0.18113,0.00000,0.03099,0.97673,-0.18861,0.0,2023,6,7,15,24,27,210
42.08980,0.23380,-0.07613,0.00000,0.03026,0.97783,-0.18825,0.0,2023,6,7,15,24,27,220
42.08990,-0.01120,0.06387,0.00000,0.03074,0.97722,-0.18727,0.0,2023,6,7,15,24,27,230
42.09000,-0.06370,0.04637,0.00000,0.03148,0.97368,-0.18654,0.0,2023,6,7,15,24,27,240
42.09010,0.11130,0.02887,0.00000,0.03318,0.97551,-0.18727,0.0,2023,6,7,15,24,27,250
42.09020,-0.01120,-0.25113,0.00000,0.03074,0.97661,-0.18788,0.0,2023,6,7,15,24,27,260
42.09030,0.11130,-0.07613,0.00000,0.03233,0.97624,-0.18812,0.0,2023,6,7,15,24,27,270
42.09040,-0.11620,0.16887,0.00000,0.03184,0.97783,-0.18898,0.0,2023,6,7,15,24,27,280
42.09050,0.02380,0.16887,0.00000,0.03123,0.97490,-0.18873,0.0,2023,6,7,15,24,27,290
42.09060,-0.09870,-0.02363,0.00000,0.03306,0.97734,-0.18764,0.0,2023,6,7,15,24,27,300
42.09070,0.11130,0.11637,0.00000,0.03123,0.97783,-0.18812,0.0,2023,6,7,15,24,27,310
42.09080,0.19880,-0.04113,0.00000,0.03209,0.97527,-0.18849,0.0,2023,6,7,15,24,27,320
42.09090,-0.06370,0.04637,0.00000,0.03087,0.97551,-0.18556,0.0,2023,6,7,15,24,27,330
42.09100,0.16380,-0.37363,0.00000,0.03148,0.97600,-0.18776,0.0,2023,6,7,15,24,27,340
42.09110,-0.18620,0.04637,0.00000,0.03123,0.97759,-0.18886,0.0,2023,6,7,15,24,27,350
42.09120,0.14630,0.01138,0.00000,0.03074,0.97759,-0.18739,0.0,2023,6,7,15,24,27,360
42.09130,0.12880,-0.19863,0.00000,0.02940,0.97771,-0.18861,0.0,2023,6,7,15,24,27,370
42.09140,0.14630,-0.04113,0.00000,0.03465,0.97283,-0.18776,0.0,2023,6,7,15,24,27,380
42.09150,-0.01120,-0.09363,0.00000,0.03135,0.97832,-0.18861,0.0,2023,6,7,15,24,27,390
42.09160,-0.08120,-0.05863,0.00000,0.03099,0.97454,-0.18764,0.0,2023,6,7,15,24,27,400
42.09170,0.07630,0.01138,0.00000,0.03087,0.97563,-0.18727,0.0,2023,6,7,15,24,27,410
42.09180,-0.01120,-0.16363,0.00000,0.02940,0.97722,-0.18837,0.0,2023,6,7,15,24,27,420
42.09190,0.04130,0.01138,0.00000,0.02989,0.97612,-0.18642,0.0,2023,6,7,15,24,27,430
42.09200,0.09380,-0.12863,0.00000,0.03404,0.97661,-0.18910,0.0,2023,6,7,15,24,27,440
42.09210,0.11130,-0.07613,0.00000,0.03013,0.97624,-0.18825,0.0,2023,6,7,15,24,27,450
42.09220,-0.16870,0.01138,0.00000,0.03038,0.97734,-0.18873,0.0,2023,6,7,15,24,27,460
42.09230,0.11130,-0.19863,0.00000,0.03331,0.97868,-0.18898,0.0,2023,6,7,15,24,27,470
42.09240,0.02380,0.15137,0.00000,0.03257,0.97966,-0.18764,0.0,2023,6,7,15,24,27,480
42.09250,0.04130,-0.04113,0.00000,0.02952,0.97698,-0.18776,0.0,2023,6,7,15,24,27,490
42.09260,-0.18620,0.27387,0.00000,0.03087,0.97429,-0.19117,0.0,2023,6,7,15,24,27,500
42.09270,0.05880,0.09887,0.00000,0.03172,0.97771,-0.18825,0.0,2023,6,7,15,24,27,510
42.09280,-0.01120,-0.07613,0.00000,0.03038,0.97502,-0.18764,0.0,2023,6,7,15,24,27,520
42.09290,0.05880,-0.05863,0.00000,0.03306,0.97746,-0.18654,0.0,2023,6,7,15,24,27,530
42.09300,0.19880,0.06387,0.00000,0.03196,0.97759,-0.18947,0.0,2023,6,7,15,24,27,540
42.09310,0.07630,0.11637,0.00000,0.03270,0.97771,-0.18520,0.0,2023,6,7,15,24,27,550
42.09320,0.05880,0.20388,0.00000,0.02928,0.97710,-0.18727,0.0,2023,6,7,15,24,27,560
42.09330,0.05880,-0.09363,0.00000,0.03196,0.97624,-0.18788,0.0,2023,6,7,15,24,27,570
42.09340,-0.02870,0.02887,0.00000,0.03123,0.97551,-0.18812,0.0,2023,6,7,15,24,27,580
42.09350,-0.02870,-0.09363,0.00000,0.03123,0.97698,-0.18898,0.0,2023,6,7,15,24,27,590
42.09360,-0.04620,0.09887,0.00000,0.03196,0.97539,-0.18764,0.0,2023,6,7,15,24,27,600
42.09370,-0.06370,0.09887,0.00000,0.03209,0.97698,-0.18703,0.0,2023,6,7,15,24,27,610
42.09380,0.11130,0.02887,0.00000,0.03184,0.97588,-0.18910,0.0,2023,6,7,15,24,27,620
42.09390,0.12880,0.08137,0.00000,0.03099,0.97612,-0.18715,0.0,2023,6,7,15,24,27,630
42.09400,0.00630,-0.14613,0.00000,0.03062,0.97771,-0.18568,0.0,2023,6,7,15,24,27,640
42.09410,0.02380,0.13387,0.00000,0.03221,0.97515,-0.18861,0.0,2023,6,7,15,24,27,650
42.09420,0.09380,-0.00612,0.00000,0.03111,0.97478,-0.18825,0.0,2023,6,7,15,24,27,660
42.09430,-0.09870,0.11637,0.00000,0.03331,0.97515,-0.18800,0.0,2023,6,7,15,24,27,670
42.09440,-0.01120,-0.02363,0.00000,0.03013,0.97649,-0.18690,0.0,2023,6,7,15,24,27,680
42.09450,0.05880,-0.07613,0.00000,0.03172,0.97515,-0.18873,0.0,2023,6,7,15,24,27,690
42.09460,0.02380,0.09887,0.00000,0.03099,0.97576,-0.18727,0.0,2023,6,7,15,24,27,700
42.09470,0.16380,-0.04113,0.00000,0.03172,0.97502,-0.18898,0.0,2023,6,7,15,24,27,710
42.09480,0.11130,0.02887,0.00000,0.03013,0.97795,-0.19056,0.0,2023,6,7,15,24,27,720
42.09490,0.12880,0.11637,0.00000,0.03257,0.97515,-0.19056,0.0,2023,6,7,15,24,27,730
42.09500,0.07630,0.02887,0.00000,0.03160,0.97454,-0.18715,0.0,2023,6,7,15,24,27,740
42.09510,-0.02870,0.16887,0.00000,0.03282,0.97649,-0.18751,0.0,2023,6,7,15,24,27,750
42.09520,-0.09870,-0.21612,0.00000,0.03111,0.97746,-0.18800,0.0,2023,6,7,15,24,27,760
42.09530,0.18130,-0.23362,0.00000,0.03160,0.97563,-0.19117,0.0,2023,6,7,15,24,27,770
42.09540,0.11130,0.06387,0.00000,0.03148,0.97722,-0.18825,0.0,2023,6,7,15,24,27,780
42.09550,-0.11620,-0.05863,0.00000,0.03172,0.97624,-0.18886,0.0,2023,6,7,15,24,27,790
42.09560,-0.13370,0.23887,0.00000,0.03318,0.97698,-0.18825,0.0,2023,6,7,15,24,27,800
42.09570,0.04130,0.11637,0.00000,0.03123,0.97722,-0.18507,0.0,2023,6,7,15,24,27,810
42.09580,0.12880,-0.12863,0.00000,0.03099,0.97563,-0.18934,0.0,2023,6,7,15,24,27,820
42.09590,-0.11620,0.18637,0.00000,0.02928,0.97588,-0.18739,0.0,2023,6,7,15,24,27,830
42.09600,-0.04620,-0.02363,0.00000,0.03282,0.98039,-0.18593,0.0,2023,6,7,15,24,27,840
42.09610,0.07630,-0.12863,0.00000,0.03257,0.97759,-0.18764,0.0,2023,6,7,15,24,27,850
42.09620,-0.09870,0.08137,0.00000,0.02989,0.97637,-0.18837,0.0,2023,6,7,15,24,27,860
42.09630,0.02380,-0.07613,0.00000,0.03196,0.97466,-0.18727,0.0,2023,6,7,15,24,27,870
42.09640,0.09380,-0.12863,0.00000,0.03099,0.97759,-0.18825,0.0,2023,6,7,15,24,27,880
42.09650,-0.11620,0.16887,0.00000,0.02904,0.97710,-0.18971,0.0,2023,6,7,15,24,27,890
42.09660,0.09380,0.30887,0.00000,0.03257,0.97417,-0.18751,0.0,2023,6,7,15,24,27,900
42.09670,-0.04620,-0.11113,0.00000,0.03111,0.97563,-0.18751,0.0,2023,6,7,15,24,27,910
42.09680,-0.11620,-0.00612,0.00000,0.03111,0.97600,-0.18764,0.0,2023,6,7,15,24,27,920
42.09690,0.14630,0.06387,0.00000,0.03087,0.97539,-0.18764,0.0,2023,6,7,15,24,27,930
42.09700,0.12880,-0.05863,0.00000,0.03013,0.97551,-0.18947,0.0,2023,6,7,15,24,27,940
42.09710,0.02380,-0.19863,0.00000,0.03196,0.97478,-0.18300,0.0,2023,6,7,15,24,27,950
42.09720,-0.01120,-0.09363,0.00000,0.03013,0.97502,-0.18715,0.0,2023,6,7,15,24,27,960
42.09730,0.02380,-0.12863,0.00000,0.03038,0.97624,-0.18605,0.0,2023,6,7,15,24,27,970
42.09740,-0.04620,-0.07613,0.00000,0.03123,0.97661,-0.18898,0.0,2023,6,7,15,24,27,980
42.09750,0.14630,0.08137,0.00000,0.03087,0.97771,-0.18934,0.0,2023,6,7,15,24,27,990
42.09760,0.02380,0.06387,0.00000,0.03440,0.97478,-0.18617,0.0,2023,6,7,15,24,27,0
42.09770,-0.06370,-0.02363,0.00000,0.02904,0.97600,-0.18568,0.0,2023,6,7,15,24,27,10
42.09780,-0.01120,-0.05863,0.00000,0.03135,0.97527,-0.18812,0.0,2023,6,7,15,24,27,20
42.09790,0.12880,-0.05863,0.00000,0.03233,0.97722,-0.18434,0.0,2023,6,7,15,24,27,30
42.09800,-0.08120,-0.07613,0.00000,0.03050,0.97771,-0.18703,0.0,2023,6,7,15,24,27,40
42.09810,0.00630,-0.00612,0.00000,0.03245,0.97795,-0.18837,0.0,2023,6,7,15,24,27,50
42.09820,0.18130,-0.04113,0.00000,0.03221,0.97539,-0.18776,0.0,2023,6,7,15,24,27,60
42.09830,0.05880,0.06387,0.00000,0.03331,0.97624,-0.18788,0.0,2023,6,7,15,24,27,70
42.09840,0.04130,-0.04113,0.00000,0.03184,0.97563,-0.18886,0.0,2023,6,7,15,24,27,80
42.09850,-0.18620,0.23887,0.00000,0.03257,0.97771,-0.18629,0.0,2023,6,7,15,24,27,90
42.09860,0.12880,0.06387,0.00000,0.03184,0.97539,-0.18715,0.0,2023,6,7,15,24,27,100
42.09870,-0.01120,-0.02363,0.00000,0.02891,0.97673,-0.18825,0.0,2023,6,7,15,24,27,110
42.09880,-0.01120,-0.18113,0.00000,0.03172,0.97649,-0.18617,0.0,2023,6,7,15,24,27,120
42.09890,0.04130,-0.05863,0.00000,0.03087,0.97795,-0.18861,0.0,2023,6,7,15,24,27,130
42.09900,-0.06370,-0.02363,0.00000,0.03123,0.97685,-0.18825,0.0,2023,6,7,15,24,27,140
42.09910,0.04130,-0.28613,0.00000,0.03306,0.97405,-0.18947,0.0,2023,6,7,15,24,27,150
42.09920,0.18130,-0.23362,0.00000,0.03111,0.97576,-0.18642,0.0,2023,6,7,15,24,27,160
42.09930,0.09380,0.13387,0.00000,0.03148,0.97759,-0.18727,0.0,2023,6,7,15,24,27,170
42.09940,0.16380,-0.00612,0.00000,0.03209,0.97539,-0.19020,0.0,2023,6,7,15,24,27,180
42.09950,0.04130,-0.25113,0.00000,0.03087,0.97612,-0.18788,0.0,2023,6,7,15,24,27,190
42.09960,-0.06370,0.04637,0.00000,0.03062,0.97905,-0.18654,0.0,2023,6,7,15,24,27,200
42.09970,0.05880,0.08137,0.00000,0.03123,0.97612,-0.18666,0.0,2023,6,7,15,24,27,210
42.09980,0.02380,0.08137,0.00000,0.03148,0.97490,-0.18861,0.0,2023,6,7,15,24,27,220
42.09990,-0.02870,-0.14613,0.00000,0.03184,0.97637,-0.19069,0.0,2023,6,7,15,24,27,230
42.10000,0.14630,-0.28613,0.00000,0.03001,0.97673,-0.18666,0.0,2023,6,7,15,24,27,240
42.10010,-0.11620,0.06387,0.00000,0.03026,0.97807,-0.18751,0.0,2023,6,7,15,24,27,250
42.10020,0.14630,0.13387,0.00000,0.03331,0.97551,-0.18959,0.0,2023,6,7,15,24,27,260
42.10030,0.28630,0.02887,0.00000,0.03245,0.97673,-0.18947,0.0,2023,6,7,15,24,27,270
42.10040,0.21630,-0.21612,0.00000,0.03099,0.97466,-0.18666,0.0,2023,6,7,15,24,27,280
42.10050,0.23380,0.02887,0.00000,0.03306,0.97685,-0.18959,0.0,2023,6,7,15,24,27,290
42.10060,0.04130,-0.02363,0.00000,0.02952,0.97771,-0.18776,0.0,2023,6,7,15,24,27,300
42.10070,0.14630,0.06387,0.00000,0.03111,0.97722,-0.18837,0.0,2023,6,7,15,24,27,310
42.10080,-0.02870,-0.00612,0.00000,0.03099,0.97527,-0.18947,0.0,2023,6,7,15,24,27,320
42.10090,0.07630,-0.16363,0.00000,0.03074,0.97637,-0.18727,0.0,2023,6,7,15,24,27,330
42.10100,0.12880,0.02887,0.00000,0.02879,0.97441,-0.18776,0.0,2023,6,7,15,24,27,340
42.10110,0.00630,-0.00612,0.00000,0.03111,0.97588,-0.18776,0.0,2023,6,7,15,24,27,350
42.10120,0.04130,0.04637,0.00000,0.03087,0.97759,-0.19130,0.0,2023,6,7,15,24,27,360
42.10130,0.02380,0.02887,0.00000,0.03270,0.97746,-0.18934,0.0,2023,6,7,15,24,27,370
42.10140,0.18130,-0.18113,0.00000,0.03038,0.97698,-0.18934,0.0,2023,6,7,15,24,27,380
42.10150,0.21630,-0.19863,0.00000,0.03050,0.97515,-0.18873,0.0,2023,6,7,15,24,27,390
42.10160,-0.06370,0.13387,0.00000,0.02977,0.97490,-0.18910,0.0,2023,6,7,15,24,27,400
42.10170,-0.01120,0.02887,0.00000,0.03270,0.97685,-0.18983,0.0,2023,6,7,15,24,27,410
42.10180,0.28630,-0.14613,0.00000,0.03221,0.97661,-0.18812,0.0,2023,6,7,15,24,27,420
42.10190,0.07630,-0.00612,0.00000,0.03257,0.97429,-0.18971,0.0,2023,6,7,15,24,27,430
42.10200,0.04130,-0.12863,0.00000,0.03172,0.97661,-0.19032,0.0,2023,6,7,15,24,27,440
42.10210,0.16380,0.09887,0.00000,0.03111,0.97600,-0.18849,0.0,2023,6,7,15,24,27,450
42.10220,0.14630,-0.18113,0.00000,0.02989,0.97539,-0.18849,0.0,2023,6,7,15,24,27,460
42.10230,0.04130,-0.11113,0.00000,0.03148,0.97673,-0.18703,0.0,2023,6,7,15,24,27,470
42.10240,-0.06370,-0.19863,0.00000,0.03050,0.97832,-0.18873,0.0,2023,6,7,15,24,27,480
42.10250,0.11130,0.04637,0.00000,0.03379,0.97515,-0.19008,0.0,2023,6,7,15,24,27,490
42.10260,0.04130,0.06387,0.00000,0.03123,0.97637,-0.18971,0.0,2023,6,7,15,24,27,500
42.10270,0.00630,0.01138,0.00000,0.03270,0.97551,-0.18825,0.0,2023,6,7,15,24,27,510
42.10280,0.11130,-0.05863,0.00000,0.03257,0.97551,-0.18873,0.0,2023,6,7,15,24,27,520
42.10290,-0.09870,0.16887,0.00000,0.03038,0.97563,-0.18983,0.0,2023,6,7,15,24,27,530
42.10300,-0.04620,0.09887,0.00000,0.03087,0.97502,-0.18910,0.0,2023,6,7,15,24,27,540
42.10310,-0.04620,-0.04113,0.00000,0.03209,0.97624,-0.18947,0.0,2023,6,7,15,24,27,550
42.10320,-0.18620,0.29137,0.00000,0.03318,0.97502,-0.18947,0.0,2023,6,7,15,24,27,560
42.10330,-0.23870,0.08137,0.00000,0.03245,0.97673,-0.18934,0.0,2023,6,7,15,24,27,570
42.10340,0.09380,-0.09363,0.00000,0.03111,0.97576,-0.18849,0.0,2023,6,7,15,24,27,580
42.10350,-0.23870,0.01138,0.00000,0.03257,0.97502,-0.18934,0.0,2023,6,7,15,24,27,590
42.10360,0.14630,-0.05863,0.00000,0.03318,0.97710,-0.19020,0.0,2023,6,7,15,24,27,600
42.10370,0.00630,0.13387,0.00000,0.02928,0.97576,-0.18703,0.0,2023,6,7,15,24,27,610
42.10380,0.11130,-0.07613,0.00000,0.03123,0.97612,-0.19008,0.0,2023,6,7,15,24,27,620
42.10390,0.16380,-0.18113,0.00000,0.03026,0.98039,-0.18959,0.0,2023,6,7,15,24,27,630
42.10400,0.11130,0.11637,0.00000,0.03233,0.97612,-0.18959,0.0,2023,6,7,15,24,27,640
42.10410,-0.04620,0.11637,0.00000,0.03282,0.97576,-0.18959,0.0,2023,6,7,15,24,27,650
42.10420,-0.06370,0.18637,0.00000,0.03001,0.97490,-0.18788,0.0,2023,6,7,15,24,27,660
42.10430,0.07630,-0.07613,0.00000,0.03087,0.97417,-0.19056,0.0,2023,6,7,15,24,27,670
42.10440,0.18130,-0.07613,0.00000,0.03160,0.97429,-0.18934,0.0,2023,6,7,15,24,27,680
42.10450,-0.08120,0.02887,0.00000,0.02977,0.97637,-0.18861,0.0,2023,6,7,15,24,27,690
42.10460,-0.20370,0.09887,0.00000,0.03123,0.97734,-0.18703,0.0,2023,6,7,15,24,27,700
42.10470,0.28630,-0.14613,0.00000,0.03123,0.97588,-0.18910,0.0,2023,6,7,15,24,27,710
42.10480,0.19880,-0.07613,0.00000,0.03221,0.97673,-0.18739,0.0,2023,6,7,15,24,27,720
42.10490,0.09380,-0.19863,0.00000,0.02977,0.97429,-0.18654,0.0,2023,6,7,15,24,27,730
42.10500,-0.06370,0.01138,0.00000,0.02940,0.97771,-0.18886,0.0,2023,6,7,15,24,27,740
42.10510,0.21630,-0.11113,0.00000,0.03135,0.97490,-0.18837,0.0,2023,6,7,15,24,27,750
42.10520,0.16380,-0.23362,0.00000,0.03245,0.97807,-0.18959,0.0,2023,6,7,15,24,27,760
42.10530,0.09380,0.06387,0.00000,0.03148,0.97856,-0.18886,0.0,2023,6,7,15,24,27,770
42.10540,-0.09870,-0.12863,0.00000,0.03270,0.97637,-0.18934,0.0,2023,6,7,15,24,27,780
42.10550,-0.04620,-0.07613,0.00000,0.03233,0.97478,-0.18898,0.0,2023,6,7,15,24,27,790
42.10560,-0.16870,0.27387,0.00000,0.03135,0.97795,-0.18983,0.0,2023,6,7,15,24,27,800
42.10570,0.00630,-0.12863,0.00000,0.03209,0.97539,-0.18861,0.0,2023,6,7,15,24,27,810
42.10580,0.14630,-0.02363,0.00000,0.03221,0.97539,-0.19020,0.0,2023,6,7,15,24,27,820
42.10590,0.11130,0.13387,0.00000,0.03245,0.97673,-0.19105,0.0,2023,6,7,15,24,27,830
42.10600,-0.04620,-0.05863,0.00000,0.03196,0.97466,-0.18837,0.0,2023,6,7,15,24,27,840
42.10610,0.04130,0.15137,0.00000,0.03111,0.97490,-0.19166,0.0,2023,6,7,15,24,27,850
42.10620,-0.01120,0.02887,0.00000,0.03062,0.97527,-0.18971,0.0,2023,6,7,15,24,27,860
42.10630,-0.09870,-0.00612,0.00000,0.03026,0.97637,-0.18703,0.0,2023,6,7,15,24,27,870
42.10640,0.18130,-0.07613,0.00000,0.03392,0.97661,-0.19044,0.0,2023,6,7,15,24,27,880
42.10650,-0.01120,0.13387,0.00000,0.03087,0.97466,-0.18873,0.0,2023,6,7,15,24,27,890
42.10660,0.07630,-0.11113,0.00000,0.03196,0.97637,-0.18776,0.0,2023,6,7,15,24,27,900
42.10670,0.05880,0.09887,0.00000,0.03306,0.97466,-0.18837,0.0,2023,6,7,15,24,27,910
42.10680,-0.06370,0.11637,0.00000,0.03233,0.97710,-0.18898,0.0,2023,6,7,15,24,27,920
42.10690,0.07630,-0.02363,0.00000,0.03111,0.97637,-0.18666,0.0,2023,6,7,15,24,27,930
42.10700,0.05880,0.02887,0.00000,0.03440,0.97454,-0.18605,0.0,2023,6,7,15,24,27,940
42.10710,-0.01120,-0.07613,0.00000,0.03184,0.97539,-0.18861,0.0,2023,6,7,15,24,27,950
42.10720,0.09380,0.04637,0.00000,0.03294,0.97746,-0.18837,0.0,2023,6,7,15,24,27,960
42.10730,-0.01120,-0.00612,0.00000,0.03074,0.97515,-0.18751,0.0,2023,6,7,15,24,27,970
42.10740,-0.01120,-0.04113,0.00000,0.03087,0.97576,-0.19044,0.0,2023,6,7,15,24,27,980
42.10750,0.23380,-0.07613,0.00000,0.03099,0.97393,-0.19093,0.0,2023,6,7,15,24,27,990
42.10760,-0.04620,0.01138,0.00000,0.02989,0.97649,-0.18898,0.0,2023,6,7,15,24,27,0
42.10770,0.12880,-0.21612,0.00000,0.03221,0.97576,-0.18910,0.0,2023,6,7,15,24,27,10
42.10780,0.00630,-0.00612,0.00000,0.03257,0.97856,-0.18922,0.0,2023,6,7,15,24,27,20
42.10790,-0.13370,0.04637,0.00000,0.02965,0.97710,-0.19093,0.0,2023,6,7,15,24,27,30
42.10800,0.04130,-0.04113,0.00000,0.03306,0.97502,-0.19215,0.0,2023,6,7,15,24,27,40
42.10810,0.00630,-0.12863,0.00000,0.02965,0.97661,-0.19349,0.0,2023,6,7,15,24,27,50
42.10820,0.00630,0.11637,0.00000,0.02977,0.97551,-0.19227,0.0,2023,6,7,15,24,27,60
42.10830,0.11130,-0.00612,0.00000,0.03184,0.97563,-0.18886,0.0,2023,6,7,15,24,27,70
42.10840,0.04130,0.06387,0.00000,0.03245,0.97612,-0.19032,0.0,2023,6,7,15,24,27,80
42.10850,0.07630,-0.18113,0.00000,0.03416,0.97637,-0.18983,0.0,2023,6,7,15,24,27,90
42.10860,0.16380,0.01138,0.00000,0.02806,0.97722,-0.18922,0.0,2023,6,7,15,24,27,100
42.10870,0.11130,-0.11113,0.00000,0.03038,0.97673,-0.19117,0.0,2023,6,7,15,24,27,110
42.10880,-0.13370,0.04637,0.00000,0.02952,0.97685,-0.19178,0.0,2023,6,7,15,24,27,120
42.10890,0.04130,0.16887,0.00000,0.03148,0.97551,-0.19203,0.0,2023,6,7,15,24,27,130
42.10900,0.09380,-0.00612,0.00000,0.02965,0.97527,-0.19081,0.0,2023,6,7,15,24,27,140
42.10910,-0.01120,0.22138,0.00000,0.03074,0.97795,-0.19130,0.0,2023,6,7,15,24,27,150
42.10920,-0.02870,0.04637,0.00000,0.03001,0.97563,-0.18837,0.0,2023,6,7,15,24,27,160
42.10930,0.02380,-0.11113,0.00000,0.03123,0.97600,-0.18947,0.0,2023,6,7,15,24,27,170
42.10940,0.07630,0.18637,0.00000,0.02989,0.97576,-0.19227,0.0,2023,6,7,15,24,27,180
42.10950,0.12880,-0.04113,0.00000,0.03087,0.97612,-0.19154,0.0,2023,6,7,15,24,27,190
42.10960,-0.04620,0.11637,0.00000,0.03074,0.97563,-0.18922,0.0,2023,6,7,15,24,27,200
42.10970,-0.01120,-0.02363,0.00000,0.03257,0.97746,-0.18898,0.0,2023,6,7,15,24,27,210
42.10980,-0.04620,0.20388,0.00000,0.03087,0.97649,-0.18995,0.0,2023,6,7,15,24,27,220
42.10990,0.11130,-0.11113,0.00000,0.02928,0.97637,-0.19044,0.0,2023,6,7,15,24,27,230
42.11000,-0.08120,0.13387,0.00000,0.03294,0.97783,-0.19166,0.0,2023,6,7,15,24,27,240
42.11010,0.32130,-0.02363,0.00000,0.03160,0.97539,-0.18861,0.0,2023,6,7,15,24,27,250
42.11020,0.18130,-0.16363,0.00000,0.03148,0.97576,-0.18873,0.0,2023,6,7,15,24,27,260
42.11030,0.23380,-0.07613,0.00000,0.03318,0.97600,-0.19081,0.0,2023,6,7,15,24,27,270
42.11040,0.11130,-0.19863,0.00000,0.03379,0.97551,-0.18812,0.0,2023,6,7,15,24,27,280
42.11050,-0.02870,0.20388,0.00000,0.03099,0.97429,-0.19008,0.0,2023,6,7,15,24,27,290
42.11060,0.09380,-0.04113,0.00000,0.03160,0.97527,-0.18934,0.0,2023,6,7,15,24,27,300
42.11070,0.00630,-0.05863,0.00000,0.03428,0.97332,-0.18971,0.0,2023,6,7,15,24,27,310
42.11080,-0.02870,0.18637,0.00000,0.03087,0.97771,-0.19008,0.0,2023,6,7,15,24,27,320
42.11090,-0.16870,-0.00612,0.00000,0.03074,0.97515,-0.18995,0.0,2023,6,7,15,24,27,330
42.11100,0.04130,0.06387,0.00000,0.03135,0.97612,-0.18947,0.0,2023,6,7,15,24,27,340
42.11110,-0.02870,0.06387,0.00000,0.03343,0.97649,-0.18934,0.0,2023,6,7,15,24,27,350
42.11120,0.02380,-0.04113,0.00000,0.03160,0.97405,-0.18910,0.0,2023,6,7,15,24,27,360
42.11130,0.11130,-0.11113,0.00000,0.03196,0.97685,-0.18995,0.0,2023,6,7,15,24,27,370
42.11140,-0.01120,-0.19863,0.00000,0.03050,0.97454,-0.18934,0.0,2023,6,7,15,24,27,380
42.11150,0.14630,0.15137,0.00000,0.03172,0.97722,-0.19020,0.0,2023,6,7,15,24,27,390
42.11160,0.04130,-0.04113,0.00000,0.03428,0.97698,-0.19178,0.0,2023,6,7,15,24,27,400
42.11170,0.02380,-0.02363,0.00000,0.03160,0.97698,-0.18812,0.0,2023,6,7,15,24,27,410
42.11180,0.07630,-0.18113,0.00000,0.03306,0.97795,-0.19044,0.0,2023,6,7,15,24,27,420
42.11190,0.02380,0.01138,0.00000,0.03087,0.97649,-0.18873,0.0,2023,6,7,15,24,27,430
42.11200,0.09380,-0.00612,0.00000,0.03074,0.97441,-0.18886,0.0,2023,6,7,15,24,27,440
42.11210,0.07630,-0.00612,0.00000,0.03245,0.97502,-0.18825,0.0,2023,6,7,15,24,27,450
42.11220,0.04130,-0.14613,0.00000,0.03306,0.97783,-0.18959,0.0,2023,6,7,15,24,27,460
42.11230,-0.04620,-0.05863,0.00000,0.03245,0.97661,-0.19081,0.0,2023,6,7,15,24,27,470
42.11240,-0.02870,0.02887,0.00000,0.02928,0.97576,-0.19056,0.0,2023,6,7,15,24,28,480
42.11250,0.05880,-0.11113,0.00000,0.03160,0.97881,-0.19069,0.0,2023,6,7,15,24,28,490
42.11260,0.09380,-0.05863,0.00000,0.03172,0.97722,-0.18629,0.0,2023,6,7,15,24,28,500
42.11270,0.12880,-0.02363,0.00000,0.03160,0.97612,-0.18837,0.0,2023,6,7,15,24,28,510
42.11280,0.02380,-0.04113,0.00000,0.03209,0.97576,-0.18995,0.0,2023,6,7,15,24,28,520
42.11290,0.12880,-0.18113,0.00000,0.03306,0.97637,-0.19154,0.0,2023,6,7,15,24,28,530
42.11300,0.07630,-0.07613,0.00000,0.03294,0.97612,-0.19142,0.0,2023,6,7,15,24,28,540
42.11310,0.00630,0.08137,0.00000,0.03001,0.97795,-0.18971,0.0,2023,6,7,15,24,28,550
42.11320,0.11130,0.09887,0.00000,0.03172,0.97576,-0.18898,0.0,2023,6,7,15,24,28,560
42.11330,-0.04620,0.04637,0.00000,0.03062,0.97649,-0.19166,0.0,2023,6,7,15,24,28,570
42.11340,0.18130,-0.04113,0.00000,0.03062,0.97746,-0.19032,0.0,2023,6,7,15,24,28,580
42.11350,0.05880,0.23887,0.00000,0.03135,0.97637,-0.19264,0.0,2023,6,7,15,24,28,590
42.11360,0.00630,0.20388,0.00000,0.03087,0.97832,-0.19008,0.0,2023,6,7,15,24,28,600
42.11370,-0.01120,0.09887,0.00000,0.03172,0.97685,-0.19020,0.0,2023,6,7,15,24,28,610
42.11380,0.05880,-0.05863,0.00000,0.02904,0.97490,-0.19069,0.0,2023,6,7,15,24,28,620
42.11390,0.12880,-0.07613,0.00000,0.03209,0.97722,-0.19203,0.0,2023,6,7,15,24,28,630
42.11400,0.14630,0.02887,0.00000,0.03331,0.97783,-0.18861,0.0,2023,6,7,15,24,28,640
42.11410,0.05880,0.13387,0.00000,0.03135,0.97637,-0.19191,0.0,2023,6,7,15,24,28,650
42.11420,0.09380,0.02887,0.00000,0.03111,0.97746,-0.19093,0.0,2023,6,7,15,24,28,660
42.11430,-0.13370,0.29137,0.00000,0.03111,0.97563,-0.18983,0.0,2023,6,7,15,24,28,670
42.11440,0.05880,0.02887,0.00000,0.03160,0.97319,-0.18983,0.0,2023,6,7,15,24,28,680
42.11450,-0.01120,-0.11113,0.00000,0.03209,0.97698,-0.19081,0.0,2023,6,7,15,24,28,690
42.11460,-0.04620,0.18637,0.00000,0.03087,0.97612,-0.18995,0.0,2023,6,7,15,24,28,700
42.11470,0.14630,-0.18113,0.00000,0.03172,0.97771,-0.18898,0.0,2023,6,7,15,24,28,710
42.11480,0.42630,-0.09363,0.00000,0.03233,0.97698,-0.18959,0.0,2023,6,7,15,24,28,720
42.11490,0.16380,-0.16363,0.00000,0.02843,0.97600,-0.19166,0.0,2023,6,7,15,24,28,730
42.11500,0.09380,0.18637,0.00000,0.03270,0.97698,-0.18873,0.0,2023,6,7,15,24,28,740
42.11510,0.11130,0.13387,0.00000,0.03013,0.97600,-0.18703,0.0,2023,6,7,15,24,28,750
42.11520,-0.01120,-0.00612,0.00000,0.03160,0.97246,-0.18910,0.0,2023,6,7,15,24,28,760
42.11530,-0.04620,0.08137,0.00000,0.03184,0.97637,-0.18739,0.0,2023,6,7,15,24,28,770
42.11540,-0.01120,0.01138,0.00000,0.03099,0.97649,-0.18959,0.0,2023,6,7,15,24,28,780
42.11550,-0.08120,0.08137,0.00000,0.03148,0.97515,-0.19069,0.0,2023,6,7,15,24,28,790
42.11560,-0.08120,-0.04113,0.00000,0.03074,0.97624,-0.19008,0.0,2023,6,7,15,24,28,800
42.11570,-0.30870,0.04637,0.00000,0.03111,0.97551,-0.19008,0.0,2023,6,7,15,24,28,810
42.11580,0.05880,0.22138,0.00000,0.03074,0.97527,-0.19081,0.0,2023,6,7,15,24,28,820
42.11590,-0.11620,0.02887,0.00000,0.03099,0.97844,-0.19227,0.0,2023,6,7,15,24,28,830
42.11600,0.18130,-0.00612,0.00000,0.03001,0.97856,-0.19056,0.0,2023,6,7,15,24,28,840
42.11610,0.14630,-0.12863,0.00000,0.02855,0.97710,-0.18934,0.0,2023,6,7,15,24,28,850
42.11620,-0.06370,-0.04113,0.00000,0.03123,0.97746,-0.18764,0.0,2023,6,7,15,24,28,860
42.11630,0.12880,0.06387,0.00000,0.03111,0.97600,-0.19191,0.0,2023,6,7,15,24,28,870
42.11640,-0.04620,0.01138,0.00000,0.02989,0.97563,-0.19020,0.0,2023,6,7,15,24,28,880
42.11650,0.12880,-0.04113,0.00000,0.03196,0.97649,-0.19069,0.0,2023,6,7,15,24,28,890
42.11660,0.04130,0.02887,0.00000,0.03099,0.97783,-0.19105,0.0,2023,6,7,15,24,28,900
42.11670,0.16380,0.09887,0.00000,0.03038,0.97710,-0.19032,0.0,2023,6,7,15,24,28,910
42.11680,0.07630,-0.00612,0.00000,0.03135,0.97637,-0.18995,0.0,2023,6,7,15,24,28,920
42.11690,0.00630,-0.04113,0.00000,0.03343,0.97881,-0.18898,0.0,2023,6,7,15,24,28,930
42.11700,-0.02870,-0.04113,0.00000,0.03160,0.97685,-0.19020,0.0,2023,6,7,15,24,28,940
42.11710,0.07630,0.11637,0.00000,0.03111,0.97661,-0.18971,0.0,2023,6,7,15,24,28,950
42.11720,0.07630,0.01138,0.00000,0.03221,0.97380,-0.18995,0.0,2023,6,7,15,24,28,960
42.11730,-0.01120,0.01138,0.00000,0.03294,0.97612,-0.19105,0.0,2023,6,7,15,24,28,970
42.11740,0.02380,-0.25113,0.00000,0.02879,0.97661,-0.19142,0.0,2023,6,7,15,24,28,980
42.11750,0.00630,-0.09363,0.00000,0.03026,0.97649,-0.19313,0.0,2023,6,7,15,24,28,990
42.11760,-0.18620,0.08137,0.00000,0.03148,0.97832,-0.19117,0.0,2023,6,7,15,24,28,0
42.11770,0.16380,-0.05863,0.00000,0.03282,0.97576,-0.18971,0.0,2023,6,7,15,24,28,10
42.11780,0.05880,-0.09363,0.00000,0.03331,0.97539,-0.19166,0.0,2023,6,7,15,24,28,20
42.11790,-0.01120,0.16887,0.00000,0.03026,0.97539,-0.18898,0.0,2023,6,7,15,24,28,30
42.11800,0.16380,-0.16363,0.00000,0.03270,0.97710,-0.18715,0.0,2023,6,7,15,24,28,40
42.11810,-0.04620,0.16887,0.00000,0.03038,0.97576,-0.18788,0.0,2023,6,7,15,24,28,50
42.11820,0.04130,-0.04113,0.00000,0.03209,0.97588,-0.19044,0.0,2023,6,7,15,24,28,60
42.11830,0.26880,-0.09363,0.00000,0.03184,0.97649,-0.18800,0.0,2023,6,7,15,24,28,70
42.11840,-0.16870,-0.14613,0.00000,0.03306,0.97722,-0.18800,0.0,2023,6,7,15,24,28,80
42.11850,-0.13370,-0.02363,0.00000,0.03318,0.97661,-0.19093,0.0,2023,6,7,15,24,28,90
42.11860,0.07630,0.02887,0.00000,0.03172,0.97759,-0.18995,0.0,2023,6,7,15,24,28,100
42.11870,0.02380,-0.40863,0.00000,0.03050,0.97588,-0.19081,0.0,2023,6,7,15,24,28,110
42.11880,0.11130,0.11637,0.00000,0.03135,0.97368,-0.18947,0.0,2023,6,7,15,24,28,120
42.11890,0.00630,0.06387,0.00000,0.03013,0.97685,-0.18837,0.0,2023,6,7,15,24,28,130
42.11900,0.07630,0.16887,0.00000,0.03294,0.97429,-0.18873,0.0,2023,6,7,15,24,28,140
42.11910,0.04130,0.25637,0.00000,0.03099,0.97807,-0.18934,0.0,2023,6,7,15,24,28,150
42.11920,-0.02870,0.02887,0.00000,0.03123,0.97527,-0.18751,0.0,2023,6,7,15,24,28,160
42.11930,-0.06370,0.09887,0.00000,0.03026,0.97722,-0.18800,0.0,2023,6,7,15,24,28,170
42.11940,-0.11620,0.01138,0.00000,0.03038,0.97502,-0.18812,0.0,2023,6,7,15,24,28,180
42.11950,0.02380,-0.09363,0.00000,0.03074,0.97759,-0.18898,0.0,2023,6,7,15,24,28,190
42.11960,-0.06370,0.04637,0.00000,0.03270,0.97588,-0.18873,0.0,2023,6,7,15,24,28,200
42.11970,-0.08120,0.16887,0.00000,0.03148,0.97698,-0.18995,0.0,2023,6,7,15,24,28,210
42.11980,-0.06370,-0.09363,0.00000,0.03416,0.97539,-0.19166,0.0,2023,6,7,15,24,28,220
42.11990,0.07630,-0.09363,0.00000,0.03074,0.97856,-0.18776,0.0,2023,6,7,15,24,28,230
42.12000,-0.02870,0.01138,0.00000,0.03172,0.97600,-0.18812,0.0,2023,6,7,15,24,28,240
42.12010,-0.08120,-0.09363,0.00000,0.03367,0.97868,-0.19044,0.0,2023,6,7,15,24,28,250
42.12020,0.28630,0.02887,0.00000,0.02855,0.97783,-0.19093,0.0,2023,6,7,15,24,28,260
42.12030,0.09380,0.01138,0.00000,0.03062,0.97685,-0.18800,0.0,2023,6,7,15,24,28,270
42.12040,-0.11620,-0.02363,0.00000,0.03184,0.97783,-0.19081,0.0,2023,6,7,15,24,28,280
42.12050,0.28630,-0.05863,0.00000,0.03038,0.97661,-0.18739,0.0,2023,6,7,15,24,28,290
42.12060,-0.04620,-0.16363,0.00000,0.03135,0.97673,-0.19044,0.0,2023,6,7,15,24,28,300
42.12070,0.00630,-0.25113,0.00000,0.03099,0.97588,-0.18837,0.0,2023,6,7,15,24,28,310
42.12080,0.19880,-0.23362,0.00000,0.03306,0.97771,-0.18849,0.0,2023,6,7,15,24,28,320
42.12090,0.18130,0.15137,0.00000,0.03062,0.97539,-0.18898,0.0,2023,6,7,15,24,28,330
42.12100,-0.30870,0.18637,0.00000,0.03160,0.97527,-0.19093,0.0,2023,6,7,15,24,28,340
42.12110,0.18130,-0.14613,0.00000,0.03013,0.97637,-0.18861,0.0,2023,6,7,15,24,28,350
42.12120,0.05880,0.08137,0.00000,0.03172,0.97637,-0.18837,0.0,2023,6,7,15,24,28,360
42.12130,0.21630,-0.23362,0.00000,0.03160,0.97502,-0.18873,0.0,2023,6,7,15,24,28,370
42.12140,-0.04620,0.11637,0.00000,0.02940,0.97502,-0.18947,0.0,2023,6,7,15,24,28,380
42.12150,0.00630,0.13387,0.00000,0.02989,0.97527,-0.18800,0.0,2023,6,7,15,24,28,390
42.12160,-0.09870,0.22138,0.00000,0.03050,0.97673,-0.18666,0.0,2023,6,7,15,24,28,400
42.12170,0.16380,-0.11113,0.00000,0.03184,0.97868,-0.18727,0.0,2023,6,7,15,24,28,410
42.12180,0.12880,0.02887,0.00000,0.03294,0.97759,-0.18898,0.0,2023,6,7,15,24,28,420
42.12190,0.12880,-0.11113,0.00000,0.03209,0.97490,-0.18995,0.0,2023,6,7,15,24,28,430
42.12200,-0.02870,0.06387,0.00000,0.03099,0.97624,-0.18873,0.0,2023,6,7,15,24,28,440
42.12210,0.07630,0.01138,0.00000,0.03245,0.97771,-0.18715,0.0,2023,6,7,15,24,28,450
42.12220,-0.08120,-0.05863,0.00000,0.03111,0.97673,-0.18849,0.0,2023,6,7,15,24,28,460
42.12230,0.12880,0.11637,0.00000,0.03318,0.97820,-0.18825,0.0,2023,6,7,15,24,28,470
42.12240,-0.02870,0.04637,0.00000,0.02940,0.97466,-0.18764,0.0,2023,6,7,15,24,28,480
42.12250,-0.04620,0.01138,0.00000,0.03001,0.97454,-0.18934,0.0,2023,6,7,15,24,28,490
42.12260,0.14630,-0.11113,0.00000,0.03160,0.97734,-0.19008,0.0,2023,6,7,15,24,28,500
42.12270,-0.09870,0.01138,0.00000,0.03318,0.97551,-0.18837,0.0,2023,6,7,15,24,28,510
42.12280,0.05880,0.08137,0.00000,0.03245,0.97783,-0.18959,0.0,2023,6,7,15,24,28,520
42.12290,-0.08120,0.01138,0.00000,0.03257,0.97563,-0.18654,0.0,2023,6,7,15,24,28,530
42.12300,0.02380,0.09887,0.00000,0.03001,0.97661,-0.18971,0.0,2023,6,7,15,24,28,540
42.12310,-0.02870,-0.25113,0.00000,0.03123,0.97624,-0.18886,0.0,2023,6,7,15,24,28,550
42.12320,-0.01120,-0.35613,0.00000,0.03001,0.97576,-0.18898,0.0,2023,6,7,15,24,28,560
42.12330,0.02380,-0.00612,0.00000,0.03196,0.97637,-0.18642,0.0,2023,6,7,15,24,28,570
42.12340,-0.13370,-0.02363,0.00000,0.02904,0.97661,-0.18910,0.0,2023,6,7,15,24,28,580
42.12350,0.02380,-0.11113,0.00000,0.03172,0.97600,-0.18678,0.0,2023,6,7,15,24,28,590
42.12360,0.21630,-0.14613,0.00000,0.03062,0.97661,-0.18654,0.0,2023,6,7,15,24,28,600
42.12370,0.04130,-0.07613,0.00000,0.03062,0.97637,-0.19069,0.0,2023,6,7,15,24,28,610
42.12380,-0.02870,-0.16363,0.00000,0.03099,0.97661,-0.18947,0.0,2023,6,7,15,24,28,620
42.12390,0.09380,-0.16363,0.00000,0.03221,0.97746,-0.19008,0.0,2023,6,7,15,24,28,630
42.12400,-0.27370,0.11637,0.00000,0.03038,0.97771,-0.18727,0.0,2023,6,7,15,24,28,640
42.12410,-0.08120,0.16887,0.00000,0.03355,0.97490,-0.18922,0.0,2023,6,7,15,24,28,650
42.12420,-0.01120,0.01138,0.00000,0.02977,0.97783,-0.18898,0.0,2023,6,7,15,24,28,660
42.12430,0.18130,0.11637,0.00000,0.03074,0.97673,-0.19008,0.0,2023,6,7,15,24,28,670
42.12440,0.02380,-0.16363,0.00000,0.03245,0.97612,-0.18556,0.0,2023,6,7,15,24,28,680
42.12450,0.16380,-0.32113,0.00000,0.03245,0.97539,-0.18861,0.0,2023,6,7,15,24,28,690
42.12460,0.07630,0.11637,0.00000,0.03050,0.97746,-0.18825,0.0,2023,6,7,15,24,28,700
42.12470,0.00630,0.20388,0.00000,0.03318,0.97551,-0.18654,0.0,2023,6,7,15,24,28,710
42.12480,0.16380,-0.14613,0.00000,0.03428,0.97576,-0.18800,0.0,2023,6,7,15,24,28,720
42.12490,0.33880,-0.21612,0.00000,0.03074,0.97807,-0.18800,0.0,2023,6,7,15,24,28,730
42.12500,0.16380,-0.09363,0.00000,0.03038,0.97759,-0.18556,0.0,2023,6,7,15,24,28,740
42.12510,-0.01120,0.09887,0.00000,0.03074,0.97759,-0.18703,0.0,2023,6,7,15,24,28,750
42.12520,-0.04620,-0.07613,0.00000,0.03123,0.97441,-0.19020,0.0,2023,6,7,15,24,28,760
42.12530,0.07630,0.01138,0.00000,0.02952,0.97515,-0.18837,0.0,2023,6,7,15,24,28,770
42.12540,-0.08120,0.02887,0.00000,0.03233,0.97515,-0.18959,0.0,2023,6,7,15,24,28,780
42.12550,0.16380,-0.00612,0.00000,0.03160,0.97600,-0.18849,0.0,2023,6,7,15,24,28,790
42.12560,0.09380,-0.04113,0.00000,0.03160,0.97868,-0.18764,0.0,2023,6,7,15,24,28,800
42.12570,0.12880,0.15137,0.00000,0.02989,0.97576,-0.18812,0.0,2023,6,7,15,24,28,810
42.12580,-0.06370,0.18637,0.00000,0.03379,0.97417,-0.18837,0.0,2023,6,7,15,24,28,820
42.12590,0.04130,0.09887,0.00000,0.03087,0.97868,-0.18825,0.0,2023,6,7,15,24,28,830
42.12600,0.00630,0.09887,0.00000,0.03074,0.97734,-0.18910,0.0,2023,6,7,15,24,28,840
42.12610,0.04130,0.22138,0.00000,0.03062,0.97807,-0.18849,0.0,2023,6,7,15,24,28,850
42.12620,0.02380,-0.07613,0.00000,0.03123,0.97563,-0.18849,0.0,2023,6,7,15,24,28,860
42.12630,-0.09870,0.09887,0.00000,0.03074,0.97515,-0.18959,0.0,2023,6,7,15,24,28,870
42.12640,0.09380,-0.07613,0.00000,0.03160,0.97502,-0.18727,0.0,2023,6,7,15,24,28,880
42.12650,-0.06370,-0.07613,0.00000,0.03135,0.97746,-0.18812,0.0,2023,6,7,15,24,28,890
42.12660,0.07630,-0.00612,0.00000,0.02879,0.97832,-0.18837,0.0,2023,6,7,15,24,28,900
42.12670,-0.02870,-0.16363,0.00000,0.03123,0.97600,-0.18861,0.0,2023,6,7,15,24,28,910
42.12680,0.07630,0.09887,0.00000,0.03465,0.97588,-0.18751,0.0,2023,6,7,15,24,28,920
42.12690,-0.02870,0.20388,0.00000,0.03001,0.97502,-0.18861,0.0,2023,6,7,15,24,28,930
42.12700,-0.13370,0.25637,0.00000,0.03123,0.97624,-0.18690,0.0,2023,6,7,15,24,28,940
42.12710,0.11130,0.22138,0.00000,0.03221,0.97612,-0.18910,0.0,2023,6,7,15,24,28,950
42.12720,-0.04620,0.04637,0.00000,0.03160,0.97624,-0.18739,0.0,2023,6,7,15,24,28,960
42.12730,0.09380,-0.09363,0.00000,0.03099,0.97844,-0.18642,0.0,2023,6,7,15,24,28,970
42.12740,0.12880,-0.02363,0.00000,0.03038,0.97624,-0.18934,0.0,2023,6,7,15,24,28,980
42.12750,0.02380,-0.04113,0.00000,0.03160,0.97466,-0.18739,0.0,2023,6,7,15,24,28,990
42.12760,-0.01120,0.06387,0.00000,0.02928,0.97673,-0.18593,0.0,2023,6,7,15,24,28,0
42.12770,0.04130,0.25637,0.00000,0.02989,0.97673,-0.19166,0.0,2023,6,7,15,24,28,10
42.12780,0.04130,-0.12863,0.00000,0.03282,0.97441,-0.18837,0.0,2023,6,7,15,24,28,20
42.12790,0.19880,-0.21612,0.00000,0.02977,0.97429,-0.18837,0.0,2023,6,7,15,24,28,30
42.12800,-0.09870,0.01138,0.00000,0.02989,0.97344,-0.18593,0.0,2023,6,7,15,24,28,40
42.12810,0.30380,-0.07613,0.00000,0.03270,0.97502,-0.18739,0.0,2023,6,7,15,24,28,50
42.12820,-0.04620,0.08137,0.00000,0.03001,0.97637,-0.18886,0.0,2023,6,7,15,24,28,60
42.12830,-0.02870,-0.02363,0.00000,0.03282,0.97649,-0.18812,0.0,2023,6,7,15,24,28,70
42.12840,0.05880,0.15137,0.00000,0.03001,0.97490,-0.19020,0.0,2023,6,7,15,24,28,80
42.12850,-0.18620,0.22138,0.00000,0.03038,0.97734,-0.18629,0.0,2023,6,7,15,24,28,90
42.12860,0.18130,0.08137,0.00000,0.03001,0.97771,-0.18642,0.0,2023,6,7,15,24,28,100
42.12870,0.11130,-0.23362,0.00000,0.03087,0.97551,-0.18788,0.0,2023,6,7,15,24,28,110
42.12880,0.19880,-0.18113,0.00000,0.03001,0.97722,-0.18690,0.0,2023,6,7,15,24,28,120
42.12890,0.09380,0.04637,0.00000,0.03111,0.97441,-0.18751,0.0,2023,6,7,15,24,28,130
42.12900,-0.04620,0.04637,0.00000,0.03038,0.97734,-0.19032,0.0,2023,6,7,15,24,28,140
42.12910,0.07630,-0.07613,0.00000,0.03270,0.97441,-0.18959,0.0,2023,6,7,15,24,28,150
42.12920,0.02380,0.02887,0.00000,0.03233,0.97673,-0.18727,0.0,2023,6,7,15,24,28,160
42.12930,0.09380,-0.02363,0.00000,0.03062,0.97649,-0.18739,0.0,2023,6,7,15,24,28,170
42.12940,0.00630,-0.21612,0.00000,0.03074,0.97698,-0.18910,0.0,2023,6,7,15,24,28,180
42.12950,-0.11620,0.02887,0.00000,0.03282,0.97759,-0.18788,0.0,2023,6,7,15,24,28,190
42.12960,-0.02870,-0.11113,0.00000,0.02928,0.97832,-0.18837,0.0,2023,6,7,15,24,28,200
42.12970,-0.01120,0.02887,0.00000,0.02952,0.97454,-0.18751,0.0,2023,6,7,15,24,28,210
42.12980,-0.02870,0.08137,0.00000,0.03013,0.97515,-0.18800,0.0,2023,6,7,15,24,28,220
42.12990,0.05880,-0.05863,0.00000,0.03087,0.97661,-0.18837,0.0,2023,6,7,15,24,28,230
42.13000,0.19880,-0.25113,0.00000,0.03099,0.97722,-0.18812,0.0,2023,6,7,15,24,28,240
42.13010,-0.02870,-0.09363,0.00000,0.03074,0.97576,-0.18849,0.0,2023,6,7,15,24,28,250
42.13020,0.07630,0.04637,0.00000,0.03367,0.97649,-0.18739,0.0,2023,6,7,15,24,28,260
42.13030,-0.02870,0.01138,0.00000,0.03062,0.97649,-0.18825,0.0,2023,6,7,15,24,28,270
42.13040,-0.01120,-0.00612,0.00000,0.03111,0.97502,-0.18715,0.0,2023,6,7,15,24,28,280
42.13050,0.12880,-0.00612,0.00000,0.03318,0.97466,-0.18995,0.0,2023,6,7,15,24,28,290
42.13060,0.04130,-0.00612,0.00000,0.03257,0.97624,-0.18703,0.0,2023,6,7,15,24,28,300
42.13070,0.02380,0.01138,0.00000,0.03087,0.97380,-0.18690,0.0,2023,6,7,15,24,28,310
42.13080,0.16380,-0.11113,0.00000,0.03050,0.97649,-0.18983,0.0,2023,6,7,15,24,28,320
42.13090,0.05880,-0.02363,0.00000,0.03245,0.97466,-0.19032,0.0,2023,6,7,15,24,28,330
42.13100,-0.08120,0.23887,0.00000,0.03074,0.97661,-0.18776,0.0,2023,6,7,15,24,28,340
42.13110,0.11130,0.16887,0.00000,0.03355,0.97612,-0.18776,0.0,2023,6,7,15,24,28,350
42.13120,0.00630,-0.21612,0.00000,0.03355,0.97551,-0.18983,0.0,2023,6,7,15,24,28,360
42.13130,-0.02870,-0.11113,0.00000,0.03392,0.97539,-0.18715,0.0,2023,6,7,15,24,28,370
42.13140,0.12880,0.15137,0.00000,0.03221,0.97539,-0.18971,0.0,2023,6,7,15,24,28,380
42.13150,-0.06370,0.20388,0.00000,0.03282,0.97502,-0.18812,0.0,2023,6,7,15,24,28,390
42.13160,-0.16870,0.18637,0.00000,0.03221,0.97673,-0.18739,0.0,2023,6,7,15,24,28,400
42.13170,-0.01120,-0.11113,0.00000,0.03001,0.97551,-0.18788,0.0,2023,6,7,15,24,28,410
42.13180,-0.02870,0.22138,0.00000,0.03196,0.97710,-0.18800,0.0,2023,6,7,15,24,28,420
42.13190,0.09380,0.11637,0.00000,0.03331,0.97624,-0.18849,0.0,2023,6,7,15,24,28,430
42.13200,0.02380,-0.04113,0.00000,0.02977,0.97637,-0.18776,0.0,2023,6,7,15,24,28,440
42.13210,0.11130,-0.02363,0.00000,0.03111,0.97771,-0.18898,0.0,2023,6,7,15,24,28,450
42.13220,-0.08120,0.02887,0.00000,0.03026,0.97698,-0.18715,0.0,2023,6,7,15,24,28,460
42.13230,0.14630,-0.04113,0.00000,0.02977,0.97612,-0.18788,0.0,2023,6,7,15,24,28,470
42.13240,-0.11620,0.20388,0.00000,0.03001,0.97624,-0.18849,0.0,2023,6,7,15,24,28,480
42.13250,-0.16870,0.06387,0.00000,0.03099,0.97539,-0.18764,0.0,2023,6,7,15,24,28,490
42.13260,-0.01120,-0.04113,0.00000,0.03050,0.97624,-0.18776,0.0,2023,6,7,15,24,28,500
42.13270,-0.08120,0.18637,0.00000,0.02916,0.97612,-0.18934,0.0,2023,6,7,15,24,28,510
42.13280,0.16380,0.06387,0.00000,0.03318,0.97649,-0.18678,0.0,2023,6,7,15,24,28,520
42.13290,-0.08120,0.08137,0.00000,0.03111,0.97734,-0.18849,0.0,2023,6,7,15,24,28,530
42.13300,-0.02870,-0.05863,0.00000,0.03379,0.97502,-0.19056,0.0,2023,6,7,15,24,28,540
42.13310,-0.13370,0.18637,0.00000,0.03270,0.97807,-0.18971,0.0,2023,6,7,15,24,28,550
42.13320,0.18130,-0.14613,0.00000,0.03343,0.97368,-0.18800,0.0,2023,6,7,15,24,28,560
42.13330,0.21630,-0.05863,0.00000,0.03123,0.97539,-0.18959,0.0,2023,6,7,15,24,28,570
42.13340,0.05880,-0.02363,0.00000,0.03135,0.97417,-0.18983,0.0,2023,6,7,15,24,28,580
42.13350,0.07630,-0.05863,0.00000,0.03148,0.97661,-0.19056,0.0,2023,6,7,15,24,28,590
42.13360,0.07630,0.27387,0.00000,0.03160,0.97478,-0.18849,0.0,2023,6,7,15,24,28,600
42.13370,0.02380,-0.19863,0.00000,0.03123,0.97417,-0.18934,0.0,2023,6,7,15,24,28,610
42.13380,0.12880,0.06387,0.00000,0.03013,0.97661,-0.18788,0.0,2023,6,7,15,24,28,620
42.13390,0.07630,-0.02363,0.00000,0.03038,0.97515,-0.18873,0.0,2023,6,7,15,24,28,630
42.13400,0.04130,-0.25113,0.00000,0.03013,0.97710,-0.18727,0.0,2023,6,7,15,24,28,640
42.13410,-0.11620,0.09887,0.00000,0.03221,0.97600,-0.18995,0.0,2023,6,7,15,24,28,650
42.13420,0.04130,-0.05863,0.00000,0.03172,0.97759,-0.18739,0.0,2023,6,7,15,24,28,660
42.13430,0.21630,-0.09363,0.00000,0.03172,0.97612,-0.18837,0.0,2023,6,7,15,24,28,670
42.13440,-0.06370,0.01138,0.00000,0.03087,0.97649,-0.18873,0.0,2023,6,7,15,24,28,680
42.13450,0.05880,-0.14613,0.00000,0.03184,0.97673,-0.18983,0.0,2023,6,7,15,24,28,690
42.13460,0.04130,0.15137,0.00000,0.03172,0.97393,-0.18947,0.0,2023,6,7,15,24,28,700
42.13470,-0.06370,0.04637,0.00000,0.03196,0.97698,-0.18764,0.0,2023,6,7,15,24,28,710
42.13480,-0.06370,-0.00612,0.00000,0.03221,0.97881,-0.18910,0.0,2023,6,7,15,24,28,720
42.13490,0.04130,-0.04113,0.00000,0.03221,0.97551,-0.18910,0.0,2023,6,7,15,24,28,730
42.13500,0.05880,0.01138,0.00000,0.02965,0.97502,-0.18764,0.0,2023,6,7,15,24,28,740
42.13510,-0.04620,-0.07613,0.00000,0.02916,0.97527,-0.18776,0.0,2023,6,7,15,24,28,750
42.13520,0.02380,-0.19863,0.00000,0.03135,0.97588,-0.18837,0.0,2023,6,7,15,24,28,760
42.13530,-0.15120,0.02887,0.00000,0.03050,0.97600,-0.18825,0.0,2023,6,7,15,24,28,770
42.13540,0.02380,-0.14613,0.00000,0.02952,0.97807,-0.18947,0.0,2023,6,7,15,24,28,780
42.13550,-0.09870,-0.00612,0.00000,0.03257,0.97637,-0.18873,0.0,2023,6,7,15,24,28,790
42.13560,-0.04620,-0.16363,0.00000,0.03062,0.97734,-0.18800,0.0,2023,6,7,15,24,28,800
42.13570,0.00630,-0.14613,0.00000,0.03270,0.97746,-0.18873,0.0,2023,6,7,15,24,28,810
42.13580,0.00630,-0.00612,0.00000,0.03160,0.97454,-0.18934,0.0,2023,6,7,15,24,28,820
42.13590,-0.16870,0.04637,0.00000,0.03209,0.97600,-0.18556,0.0,2023,6,7,15,24,28,830
42.13600,-0.11620,0.13387,0.00000,0.03172,0.97637,-0.18739,0.0,2023,6,7,15,24,28,840
42.13610,0.00630,-0.05863,0.00000,0.03172,0.97612,-0.18751,0.0,2023,6,7,15,24,28,850
42.13620,0.18130,-0.04113,0.00000,0.03062,0.97454,-0.18690,0.0,2023,6,7,15,24,28,860
42.13630,0.00630,-0.09363,0.00000,0.03038,0.97612,-0.18776,0.0,2023,6,7,15,24,28,870
42.13640,0.25130,0.06387,0.00000,0.03209,0.97539,-0.18873,0.0,2023,6,7,15,24,28,880
42.13650,-0.11620,0.16887,0.00000,0.03172,0.97576,-0.18568,0.0,2023,6,7,15,24,28,890
42.13660,0.02380,0.06387,0.00000,0.03184,0.97600,-0.18825,0.0,2023,6,7,15,24,28,900
42.13670,0.23380,0.09887,0.00000,0.03111,0.97710,-0.18947,0.0,2023,6,7,15,24,28,910
42.13680,0.09380,-0.12863,0.00000,0.03111,0.97746,-0.18629,0.0,2023,6,7,15,24,28,920
42.13690,0.04130,-0.14613,0.00000,0.03184,0.97637,-0.18654,0.0,2023,6,7,15,24,28,930
42.13700,-0.02870,0.30887,0.00000,0.03294,0.97685,-0.18910,0.0,2023,6,7,15,24,28,940
42.13710,0.04130,-0.11113,0.00000,0.02916,0.97673,-0.18837,0.0,2023,6,7,15,24,28,950
42.13720,0.07630,-0.05863,0.00000,0.03001,0.97319,-0.18837,0.0,2023,6,7,15,24,28,960
42.13730,0.09380,-0.33863,0.00000,0.03209,0.97661,-0.18873,0.0,2023,6,7,15,24,28,970
42.13740,0.05880,-0.02363,0.00000,0.03026,0.97722,-0.18983,0.0,2023,6,7,15,24,28,980
42.13750,-0.13370,0.06387,0.00000,0.03001,0.97478,-0.18825,0.0,2023,6,7,15,24,28,990
42.13760,0.05880,0.02887,0.00000,0.03245,0.97502,-0.18849,0.0,2023,6,7,15,24,28,0
42.13770,-0.18620,0.08137,0.00000,0.03160,0.97637,-0.18703,0.0,2023,6,7,15,24,28,10
42.13780,0.05880,-0.09363,0.00000,0.03038,0.97258,-0.18800,0.0,2023,6,7,15,24,28,20
42.13790,-0.04620,-0.02363,0.00000,0.03074,0.97698,-0.18788,0.0,2023,6,7,15,24,28,30
42.13800,0.23380,0.02887,0.00000,0.03050,0.97759,-0.18837,0.0,2023,6,7,15,24,28,40
42.13810,-0.02870,0.18637,0.00000,0.03087,0.97551,-0.18898,0.0,2023,6,7,15,24,28,50
42.13820,0.16380,-0.09363,0.00000,0.03111,0.97881,-0.18837,0.0,2023,6,7,15,24,28,60
42.13830,0.11130,-0.16363,0.00000,0.03184,0.97612,-0.18739,0.0,2023,6,7,15,24,28,70
42.13840,0.04130,0.11637,0.00000,0.03257,0.97844,-0.18739,0.0,2023,6,7,15,24,28,80
42.13850,0.05880,-0.09363,0.00000,0.02977,0.97734,-0.18837,0.0,2023,6,7,15,24,28,90
42.13860,-0.09870,0.06387,0.00000,0.03050,0.97563,-0.18764,0.0,2023,6,7,15,24,28,100
42.13870,0.09380,-0.05863,0.00000,0.03123,0.97515,-0.18605,0.0,2023,6,7,15,24,28,110
42.13880,0.05880,-0.16363,0.00000,0.03318,0.97405,-0.18788,0.0,2023,6,7,15,24,28,120
42.13890,0.19880,-0.00612,0.00000,0.03123,0.97478,-0.18849,0.0,2023,6,7,15,24,28,130
42.13900,-0.01120,-0.11113,0.00000,0.03062,0.97685,-0.18800,0.0,2023,6,7,15,24,28,140
42.13910,0.05880,0.01138,0.00000,0.03013,0.97795,-0.18812,0.0,2023,6,7,15,24,28,150
42.13920,0.05880,0.09887,0.00000,0.03062,0.97600,-0.18947,0.0,2023,6,7,15,24,28,160
42.13930,-0.08120,0.08137,0.00000,0.03306,0.97551,-0.18825,0.0,2023,6,7,15,24,28,170
42.13940,0.04130,0.09887,0.00000,0.03172,0.97588,-0.18886,0.0,2023,6,7,15,24,28,180
42.13950,-0.08120,0.20388,0.00000,0.03160,0.97661,-0.18690,0.0,2023,6,7,15,24,28,190
42.13960,-0.04620,-0.04113,0.00000,0.03123,0.97588,-0.18776,0.0,2023,6,7,15,24,28,200
42.13970,0.07630,-0.21612,0.00000,0.02989,0.97466,-0.18776,0.0,2023,6,7,15,24,28,210
42.13980,0.05880,-0.00612,0.00000,0.03026,0.97393,-0.18715,0.0,2023,6,7,15,24,28,220
42.13990,-0.04620,-0.19863,0.00000,0.03172,0.97563,-0.18959,0.0,2023,6,7,15,24,28,230
42.14000,0.02380,-0.04113,0.00000,0.03270,0.97624,-0.18654,0.0,2023,6,7,15,24,28,240
42.14010,0.18130,-0.04113,0.00000,0.03160,0.97563,-0.18983,0.0,2023,6,7,15,24,28,250
42.14020,0.05880,0.13387,0.00000,0.03233,0.97624,-0.18642,0.0,2023,6,7,15,24,28,260
42.14030,0.07630,-0.00612,0.00000,0.03123,0.97612,-0.18861,0.0,2023,6,7,15,24,28,270
42.14040,-0.09870,-0.16363,0.00000,0.03196,0.97661,-0.18934,0.0,2023,6,7,15,24,28,280
42.14050,-0.04620,0.06387,0.00000,0.03062,0.97551,-0.18654,0.0,2023,6,7,15,24,28,290
42.14060,0.21630,-0.21612,0.00000,0.03221,0.97551,-0.18886,0.0,2023,6,7,15,24,28,300
42.14070,0.14630,-0.05863,0.00000,0.03062,0.97563,-0.18861,0.0,2023,6,7,15,24,28,310
42.14080,-0.01120,0.04637,0.00000,0.03050,0.97685,-0.18800,0.0,2023,6,7,15,24,28,320
42.14090,0.21630,-0.04113,0.00000,0.03013,0.97649,-0.18800,0.0,2023,6,7,15,24,28,330
42.14100,0.05880,0.02887,0.00000,0.03257,0.97405,-0.18971,0.0,2023,6,7,15,24,28,340
42.14110,0.16380,0.08137,0.00000,0.03111,0.97429,-0.18971,0.0,2023,6,7,15,24,28,350
42.14120,-0.15120,-0.14613,0.00000,0.03123,0.97917,-0.18812,0.0,2023,6,7,15,24,28,360
42.14130,0.07630,-0.19863,0.00000,0.03282,0.97612,-0.18642,0.0,2023,6,7,15,24,28,370
42.14140,-0.06370,0.22138,0.00000,0.03050,0.97685,-0.18861,0.0,2023,6,7,15,24,28,380
42.14150,-0.08120,0.09887,0.00000,0.02952,0.97576,-0.18776,0.0,2023,6,7,15,24,28,390
42.14160,-0.04620,0.11637,0.00000,0.03074,0.97771,-0.18727,0.0,2023,6,7,15,24,28,400
42.14170,0.04130,-0.19863,0.00000,0.03270,0.97649,-0.18971,0.0,2023,6,7,15,24,28,410
42.14180,0.05880,-0.11113,0.00000,0.03148,0.97673,-0.18898,0.0,2023,6,7,15,24,28,420
42.14190,-0.08120,-0.02363,0.00000,0.02855,0.97673,-0.18666,0.0,2023,6,7,15,24,28,430
42.14200,0.09380,0.06387,0.00000,0.03233,0.97624,-0.18873,0.0,2023,6,7,15,24,28,440
42.14210,0.18130,-0.09363,0.00000,0.03221,0.97661,-0.18825,0.0,2023,6,7,15,24,28,450
42.14220,-0.13370,0.04637,0.00000,0.03233,0.97746,-0.18837,0.0,2023,6,7,15,24,28,460
42.14230,0.14630,0.15137,0.00000,0.03270,0.97624,-0.19020,0.0,2023,6,7,15,24,28,470
42.14240,0.09380,-0.00612,0.00000,0.03221,0.97820,-0.18739,0.0,2023,6,7,15,24,28,480
42.14250,0.14630,-0.11113,0.00000,0.03172,0.97490,-0.18959,0.0,2023,6,7,15,24,28,490
42.14260,0.09380,0.06387,0.00000,0.03013,0.97698,-0.18605,0.0,2023,6,7,15,24,28,500
42.14270,0.07630,-0.07613,0.00000,0.03038,0.97783,-0.18886,0.0,2023,6,7,15,24,28,510
42.14280,0.28630,-0.32113,0.00000,0.03392,0.97759,-0.18727,0.0,2023,6,7,15,24,28,520
42.14290,0.12880,-0.09363,0.00000,0.02782,0.97637,-0.18849,0.0,2023,6,7,15,24,28,530
42.14300,0.02380,0.15137,0.00000,0.03184,0.97478,-0.18764,0.0,2023,6,7,15,24,28,540
42.14310,0.09380,-0.09363,0.00000,0.03343,0.97588,-0.18837,0.0,2023,6,7,15,24,28,550
42.14320,0.07630,-0.09363,0.00000,0.03038,0.97661,-0.18971,0.0,2023,6,7,15,24,28,560
42.14330,0.07630,0.09887,0.00000,0.03087,0.97710,-0.18861,0.0,2023,6,7,15,24,28,570
42.14340,0.05880,0.04637,0.00000,0.03074,0.97417,-0.18959,0.0,2023,6,7,15,24,28,580
42.14350,-0.06370,-0.02363,0.00000,0.02977,0.97588,-0.18812,0.0,2023,6,7,15,24,28,590
42.14360,0.02380,-0.18113,0.00000,0.03026,0.97490,-0.18910,0.0,2023,6,7,15,24,28,600
42.14370,0.28630,-0.05863,0.00000,0.03074,0.97588,-0.18764,0.0,2023,6,7,15,24,28,610
42.14380,-0.08120,0.01138,0.00000,0.03013,0.97527,-0.18739,0.0,2023,6,7,15,24,28,620
42.14390,-0.08120,0.04637,0.00000,0.03148,0.97710,-0.18947,0.0,2023,6,7,15,24,28,630
42.14400,0.02380,0.15137,0.00000,0.03026,0.97393,-0.18995,0.0,2023,6,7,15,24,28,640
42.14410,-0.01120,-0.09363,0.00000,0.03343,0.97820,-0.18751,0.0,2023,6,7,15,24,28,650
42.14420,0.11130,0.08137,0.00000,0.03209,0.97515,-0.18800,0.0,2023,6,7,15,24,28,660
42.14430,0.07630,0.04637,0.00000,0.03270,0.97588,-0.18910,0.0,2023,6,7,15,24,28,670
42.14440,-0.11620,-0.04113,0.00000,0.02989,0.97490,-0.18715,0.0,2023,6,7,15,24,28,680
42.14450,0.14630,0.04637,0.00000,0.03001,0.97698,-0.18983,0.0,2023,6,7,15,24,28,690
42.14460,0.14630,-0.00612,0.00000,0.03209,0.97454,-0.18971,0.0,2023,6,7,15,24,28,700
42.14470,-0.06370,0.04637,0.00000,0.03160,0.97832,-0.18593,0.0,2023,6,7,15,24,28,710
42.14480,-0.20370,-0.05863,0.00000,0.03209,0.97698,-0.18751,0.0,2023,6,7,15,24,28,720
42.14490,0.02380,-0.04113,0.00000,0.03489,0.97759,-0.19044,0.0,2023,6,7,15,24,28,730
42.14500,-0.01120,0.01138,0.00000,0.03270,0.97673,-0.18764,0.0,2023,6,7,15,24,28,740
42.14510,0.02380,0.20388,0.00000,0.03160,0.97502,-0.19032,0.0,2023,6,7,15,24,28,750
42.14520,0.02380,-0.07613,0.00000,0.03087,0.97759,-0.18727,0.0,2023,6,7,15,24,28,760
42.14530,0.05880,0.09887,0.00000,0.03294,0.97539,-0.19044,0.0,2023,6,7,15,24,28,770
42.14540,0.07630,0.16887,0.00000,0.03465,0.97820,-0.18812,0.0,2023,6,7,15,24,28,780
42.14550,0.05880,0.01138,0.00000,0.03123,0.97649,-0.18983,0.0,2023,6,7,15,24,28,790
42.14560,-0.02870,0.13387,0.00000,0.03233,0.97417,-0.18886,0.0,2023,6,7,15,24,28,800
42.14570,-0.04620,0.02887,0.00000,0.03196,0.97685,-0.18934,0.0,2023,6,7,15,24,28,810
42.14580,0.05880,-0.09363,0.00000,0.03099,0.97673,-0.18898,0.0,2023,6,7,15,24,28,820
42.14590,-0.01120,0.08137,0.00000,0.03416,0.97527,-0.18739,0.0,2023,6,7,15,24,28,830
42.14600,-0.06370,0.11637,0.00000,0.03306,0.97600,-0.18690,0.0,2023,6,7,15,24,28,840
42.14610,-0.04620,0.25637,0.00000,0.03172,0.97685,-0.18898,0.0,2023,6,7,15,24,28,850
42.14620,0.09380,-0.16363,0.00000,0.03294,0.97746,-0.18849,0.0,2023,6,7,15,24,28,860
42.14630,-0.02870,0.04637,0.00000,0.03221,0.97441,-0.18959,0.0,2023,6,7,15,24,28,870
42.14640,0.05880,0.11637,0.00000,0.02952,0.97698,-0.19008,0.0,2023,6,7,15,24,28,880
42.14650,-0.06370,-0.00612,0.00000,0.03172,0.97612,-0.18837,0.0,2023,6,7,15,24,28,890
42.14660,-0.11620,0.11637,0.00000,0.03160,0.97746,-0.18727,0.0,2023,6,7,15,24,28,900
42.14670,-0.06370,-0.21612,0.00000,0.03245,0.97661,-0.18934,0.0,2023,6,7,15,24,28,910
42.14680,-0.15120,0.01138,0.00000,0.03282,0.97490,-0.18947,0.0,2023,6,7,15,24,28,920
42.14690,0.05880,-0.04113,0.00000,0.03331,0.97759,-0.18910,0.0,2023,6,7,15,24,28,930
42.14700,0.04130,0.15137,0.00000,0.03087,0.97759,-0.18873,0.0,2023,6,7,15,24,28,940
42.14710,0.07630,-0.00612,0.00000,0.02977,0.97734,-0.18642,0.0,2023,6,7,15,24,28,950
42.14720,0.07630,0.04637,0.00000,0.03221,0.97466,-0.18898,0.0,2023,6,7,15,24,28,960
42.14730,0.11130,-0.05863,0.00000,0.03148,0.97820,-0.18873,0.0,2023,6,7,15,24,28,970
42.14740,0.02380,0.09887,0.00000,0.03148,0.97771,-0.18812,0.0,2023,6,7,15,24,28,980
42.14750,-0.02870,0.13387,0.00000,0.03209,0.97832,-0.18593,0.0,2023,6,7,15,24,28,990
42.14760,-0.11620,0.11637,0.00000,0.03209,0.97466,-0.19056,0.0,2023,6,7,15,24,28,0
42.14770,-0.02870,0.20388,0.00000,0.03099,0.97551,-0.19008,0.0,2023,6,7,15,24,28,10
42.14780,-0.09870,0.22138,0.00000,0.03196,0.97771,-0.18837,0.0,2023,6,7,15,24,28,20
42.14790,0.05880,0.04637,0.00000,0.02818,0.97746,-0.19105,0.0,2023,6,7,15,24,28,30
42.14800,0.19880,0.06387,0.00000,0.03135,0.97685,-0.18776,0.0,2023,6,7,15,24,28,40
42.14810,0.12880,-0.00612,0.00000,0.03196,0.97685,-0.18886,0.0,2023,6,7,15,24,28,50
42.14820,0.07630,-0.02363,0.00000,0.02989,0.97722,-0.18886,0.0,2023,6,7,15,24,28,60
42.14830,0.16380,0.11637,0.00000,0.03355,0.97563,-0.19056,0.0,2023,6,7,15,24,28,70
42.14840,-0.11620,-0.04113,0.00000,0.03038,0.97661,-0.19020,0.0,2023,6,7,15,24,28,80
42.14850,0.04130,0.16887,0.00000,0.03282,0.97600,-0.18812,0.0,2023,6,7,15,24,28,90
42.14860,-0.08120,0.13387,0.00000,0.03135,0.97551,-0.18678,0.0,2023,6,7,15,24,28,100
42.14870,0.00630,-0.05863,0.00000,0.03355,0.97588,-0.18825,0.0,2023,6,7,15,24,28,110
42.14880,-0.06370,-0.07613,0.00000,0.03013,0.97649,-0.19142,0.0,2023,6,7,15,24,28,120
42.14890,0.02380,-0.11113,0.00000,0.03172,0.97600,-0.18898,0.0,2023,6,7,15,24,28,130
42.14900,0.05880,0.02887,0.00000,0.03135,0.97405,-0.19008,0.0,2023,6,7,15,24,28,140
42.14910,0.00630,-0.00612,0.00000,0.02867,0.97466,-0.18837,0.0,2023,6,7,15,24,28,150
42.14920,-0.02870,0.01138,0.00000,0.03184,0.97612,-0.18849,0.0,2023,6,7,15,24,28,160
42.14930,0.05880,-0.11113,0.00000,0.03050,0.97600,-0.18837,0.0,2023,6,7,15,24,28,170
42.14940,0.25130,0.06387,0.00000,0.03209,0.97661,-0.18898,0.0,2023,6,7,15,24,28,180
42.14950,-0.02870,-0.02363,0.00000,0.03135,0.97637,-0.18812,0.0,2023,6,7,15,24,28,190
42.14960,0.07630,0.15137,0.00000,0.03050,0.97905,-0.18886,0.0,2023,6,7,15,24,28,200
42.14970,-0.04620,0.15137,0.00000,0.03123,0.97612,-0.18825,0.0,2023,6,7,15,24,28,210
42.14980,-0.06370,0.01138,0.00000,0.03074,0.97771,-0.18898,0.0,2023,6,7,15,24,28,220
42.14990,-0.11620,0.09887,0.00000,0.03026,0.97441,-0.18910,0.0,2023,6,7,15,24,28,230
42.15000,0.12880,0.01138,0.00000,0.03172,0.97539,-0.18873,0.0,2023,6,7,15,24,28,240
42.15010,0.00630,0.01138,0.00000,0.03013,0.97624,-0.18751,0.0,2023,6,7,15,24,28,250
42.15020,0.11130,0.11637,0.00000,0.03172,0.97441,-0.19008,0.0,2023,6,7,15,24,28,260
42.15030,0.00630,-0.05863,0.00000,0.03245,0.97454,-0.18922,0.0,2023,6,7,15,24,28,270
42.15040,-0.04620,0.15137,0.00000,0.03135,0.97649,-0.18812,0.0,2023,6,7,15,24,28,280
42.15050,-0.08120,-0.02363,0.00000,0.03294,0.97454,-0.19008,0.0,2023,6,7,15,24,28,290
42.15060,0.07630,0.02887,0.00000,0.03074,0.97551,-0.19117,0.0,2023,6,7,15,24,28,300
42.15070,0.05880,-0.02363,0.00000,0.03160,0.97649,-0.19008,0.0,2023,6,7,15,24,28,310
42.15080,0.12880,-0.05863,0.00000,0.03221,0.97490,-0.18934,0.0,2023,6,7,15,24,28,320
42.15090,0.00630,-0.19863,0.00000,0.03355,0.97417,-0.18581,0.0,2023,6,7,15,24,28,330
42.15100,-0.01120,-0.09363,0.00000,0.03233,0.97698,-0.18812,0.0,2023,6,7,15,24,28,340
42.15110,0.07630,0.04637,0.00000,0.03111,0.97624,-0.18703,0.0,2023,6,7,15,24,28,350
42.15120,0.00630,-0.14613,0.00000,0.03270,0.97502,-0.19044,0.0,2023,6,7,15,24,28,360
42.15130,0.02380,-0.11113,0.00000,0.03001,0.97685,-0.18898,0.0,2023,6,7,15,24,28,370
42.15140,0.11130,0.27387,0.00000,0.03270,0.97612,-0.18788,0.0,2023,6,7,15,24,28,380
42.15150,0.04130,-0.23362,0.00000,0.03111,0.97576,-0.19032,0.0,2023,6,7,15,24,28,390
42.15160,0.07630,0.04637,0.00000,0.03282,0.97478,-0.18849,0.0,2023,6,7,15,24,28,400
42.15170,-0.02870,0.02887,0.00000,0.03135,0.97624,-0.18776,0.0,2023,6,7,15,24,28,410
42.15180,-0.01120,0.08137,0.00000,0.03123,0.97637,-0.19032,0.0,2023,6,7,15,24,28,420
42.15190,0.21630,-0.04113,0.00000,0.03123,0.97820,-0.18886,0.0,2023,6,7,15,24,28,430
42.15200,-0.16870,-0.04113,0.00000,0.02952,0.97405,-0.18898,0.0,2023,6,7,15,24,28,440
42.15210,0.19880,-0.00612,0.00000,0.03111,0.97734,-0.18666,0.0,2023,6,7,15,24,28,450
42.15220,0.07630,-0.11113,0.00000,0.03184,0.97441,-0.18617,0.0,2023,6,7,15,24,28,460
42.15230,0.00630,0.02887,0.00000,0.03135,0.97746,-0.18934,0.0,2023,6,7,15,24,28,470
42.15240,-0.01120,0.08137,0.00000,0.03001,0.97685,-0.18971,0.0,2023,6,7,15,24,28,480
42.15250,-0.09870,0.06387,0.00000,0.03367,0.97722,-0.18934,0.0,2023,6,7,15,24,28,490
42.15260,-0.15120,-0.07613,0.00000,0.03196,0.97685,-0.18849,0.0,2023,6,7,15,24,28,500
42.15270,0.09380,0.01138,0.00000,0.03013,0.97417,-0.18776,0.0,2023,6,7,15,24,28,510
42.15280,0.04130,-0.00612,0.00000,0.03233,0.97600,-0.18898,0.0,2023,6,7,15,24,28,520
42.15290,-0.02870,0.02887,0.00000,0.03038,0.97502,-0.18873,0.0,2023,6,7,15,24,28,530
42.15300,0.11130,0.02887,0.00000,0.03111,0.97222,-0.18800,0.0,2023,6,7,15,24,28,540
42.15310,-0.09870,0.01138,0.00000,0.03355,0.97466,-0.18910,0.0,2023,6,7,15,24,28,550
42.15320,-0.18620,-0.14613,0.00000,0.03038,0.97563,-0.19032,0.0,2023,6,7,15,24,28,560
42.15330,0.02380,-0.12863,0.00000,0.03416,0.97661,-0.18898,0.0,2023,6,7,15,24,28,570
42.15340,-0.01120,-0.07613,0.00000,0.03221,0.97539,-0.18959,0.0,2023,6,7,15,24,28,580
42.15350,-0.06370,0.11637,0.00000,0.03209,0.97539,-0.19081,0.0,2023,6,7,15,24,28,590
42.15360,-0.08120,-0.11113,0.00000,0.03343,0.97612,-0.18678,0.0,2023,6,7,15,24,28,600
42.15370,0.14630,0.04637,0.00000,0.03184,0.97759,-0.18886,0.0,2023,6,7,15,24,28,610
42.15380,0.02380,-0.19863,0.00000,0.03087,0.97649,-0.18898,0.0,2023,6,7,15,24,28,620
42.15390,-0.01120,0.04637,0.00000,0.02843,0.97698,-0.18971,0.0,2023,6,7,15,24,28,630
42.15400,0.05880,0.09887,0.00000,0.03062,0.97588,-0.19069,0.0,2023,6,7,15,24,28,640
42.15410,0.00630,0.16887,0.00000,0.03062,0.97685,-0.19044,0.0,2023,6,7,15,24,28,650
42.15420,0.12880,-0.09363,0.00000,0.03026,0.97759,-0.18873,0.0,2023,6,7,15,24,28,660
42.15430,0.23380,0.06387,0.00000,0.03245,0.97710,-0.19020,0.0,2023,6,7,15,24,28,670
42.15440,0.16380,-0.28613,0.00000,0.03318,0.97734,-0.19081,0.0,2023,6,7,15,24,28,680
42.15450,0.04130,-0.30363,0.00000,0.03026,0.97490,-0.18886,0.0,2023,6,7,15,24,28,690
42.15460,-0.06370,0.13387,0.00000,0.03209,0.97551,-0.18983,0.0,2023,6,7,15,24,28,700
42.15470,-0.13370,-0.02363,0.00000,0.03099,0.97551,-0.18861,0.0,2023,6,7,15,24,28,710
42.15480,0.21630,-0.00612,0.00000,0.03148,0.97771,-0.18837,0.0,2023,6,7,15,24,28,720
42.15490,0.05880,0.22138,0.00000,0.03111,0.97624,-0.18983,0.0,2023,6,7,15,24,28,730
42.15500,0.11130,-0.32113,0.00000,0.03123,0.97771,-0.18788,0.0,2023,6,7,15,24,28,740
42.15510,0.14630,-0.09363,0.00000,0.03123,0.97576,-0.18959,0.0,2023,6,7,15,24,28,750
42.15520,0.14630,-0.04113,0.00000,0.03099,0.97710,-0.19166,0.0,2023,6,7,15,24,28,760
42.15530,-0.15120,-0.00612,0.00000,0.03184,0.97795,-0.19008,0.0,2023,6,7,15,24,28,770
42.15540,0.14630,-0.00612,0.00000,0.03440,0.97515,-0.19032,0.0,2023,6,7,15,24,28,780
42.15550,0.19880,-0.09363,0.00000,0.02879,0.97588,-0.19093,0.0,2023,6,7,15,24,28,790
42.15560,-0.08120,0.22138,0.00000,0.03172,0.98039,-0.19264,0.0,2023,6,7,15,24,28,800
42.15570,-0.09870,-0.09363,0.00000,0.03148,0.97795,-0.18983,0.0,2023,6,7,15,24,28,810
42.15580,0.16380,-0.00612,0.00000,0.03270,0.97759,-0.18995,0.0,2023,6,7,15,24,28,820
42.15590,0.05880,0.04637,0.00000,0.02928,0.97685,-0.18910,0.0,2023,6,7,15,24,28,830
42.15600,0.16380,0.06387,0.00000,0.03050,0.97624,-0.18678,0.0,2023,6,7,15,24,28,840
42.15610,0.09380,-0.00612,0.00000,0.03123,0.97685,-0.18776,0.0,2023,6,7,15,24,28,850
42.15620,0.12880,-0.09363,0.00000,0.03062,0.97881,-0.19069,0.0,2023,6,7,15,24,28,860
42.15630,-0.04620,-0.11113,0.00000,0.03233,0.97527,-0.19130,0.0,2023,6,7,15,24,28,870
42.15640,0.02380,0.01138,0.00000,0.03233,0.97612,-0.18776,0.0,2023,6,7,15,24,28,880
42.15650,0.04130,-0.09363,0.00000,0.03172,0.97783,-0.18861,0.0,2023,6,7,15,24,28,890
42.15660,0.16380,-0.23362,0.00000,0.03074,0.97685,-0.18861,0.0,2023,6,7,15,24,28,900
42.15670,0.11130,0.04637,0.00000,0.03123,0.97624,-0.19117,0.0,2023,6,7,15,24,28,910
42.15680,0.02380,-0.05863,0.00000,0.03343,0.97612,-0.18971,0.0,2023,6,7,15,24,28,920
42.15690,0.04130,-0.00612,0.00000,0.03257,0.97515,-0.19154,0.0,2023,6,7,15,24,28,930
42.15700,0.02380,0.08137,0.00000,0.03196,0.97539,-0.19093,0.0,2023,6,7,15,24,28,940
42.15710,0.09380,-0.05863,0.00000,0.03135,0.97515,-0.19020,0.0,2023,6,7,15,24,28,950
42.15720,-0.22120,0.13387,0.00000,0.02757,0.97429,-0.18934,0.0,2023,6,7,15,24,28,960
42.15730,-0.04620,-0.04113,0.00000,0.03026,0.97698,-0.19056,0.0,2023,6,7,15,24,29,970
42.15740,-0.15120,0.11637,0.00000,0.03196,0.97722,-0.18800,0.0,2023,6,7,15,24,29,980
42.15750,-0.02870,-0.14613,0.00000,0.03196,0.97588,-0.18959,0.0,2023,6,7,15,24,29,990
42.15760,-0.08120,0.09887,0.00000,0.02952,0.97807,-0.18837,0.0,2023,6,7,15,24,29,0
42.15770,0.18130,-0.09363,0.00000,0.03123,0.97588,-0.18873,0.0,2023,6,7,15,24,29,10
42.15780,0.19880,0.02887,0.00000,0.02891,0.97563,-0.19069,0.0,2023,6,7,15,24,29,20
42.15790,0.18130,-0.23362,0.00000,0.03038,0.97515,-0.18825,0.0,2023,6,7,15,24,29,30
42.15800,-0.15120,-0.00612,0.00000,0.03221,0.97783,-0.18898,0.0,2023,6,7,15,24,29,40
42.15810,0.07630,0.06387,0.00000,0.03294,0.97332,-0.18861,0.0,2023,6,7,15,24,29,50
42.15820,0.11130,0.08137,0.00000,0.03135,0.97466,-0.18788,0.0,2023,6,7,15,24,29,60
42.15830,0.04130,0.15137,0.00000,0.03196,0.97490,-0.18922,0.0,2023,6,7,15,24,29,70
42.15840,0.04130,-0.05863,0.00000,0.03331,0.97490,-0.19154,0.0,2023,6,7,15,24,29,80
42.15850,0.04130,-0.18113,0.00000,0.03087,0.97527,-0.18812,0.0,2023,6,7,15,24,29,90
42.15860,0.12880,-0.07613,0.00000,0.02977,0.97868,-0.18727,0.0,2023,6,7,15,24,29,100
42.15870,-0.22120,0.06387,0.00000,0.03160,0.97588,-0.18837,0.0,2023,6,7,15,24,29,110
42.15880,-0.04620,-0.07613,0.00000,0.03148,0.97881,-0.18825,0.0,2023,6,7,15,24,29,120
42.15890,0.11130,-0.02363,0.00000,0.02977,0.97515,-0.18886,0.0,2023,6,7,15,24,29,130
42.15900,0.09380,0.02887,0.00000,0.03160,0.97539,-0.18568,0.0,2023,6,7,15,24,29,140
42.15910,0.12880,-0.04113,0.00000,0.03270,0.97307,-0.19008,0.0,2023,6,7,15,24,29,150
42.15920,0.16380,-0.19863,0.00000,0.03123,0.97576,-0.18861,0.0,2023,6,7,15,24,29,160
42.15930,0.11130,-0.04113,0.00000,0.03160,0.97685,-0.19020,0.0,2023,6,7,15,24,29,170
42.15940,0.00630,-0.21612,0.00000,0.03074,0.97612,-0.18971,0.0,2023,6,7,15,24,29,180
42.15950,-0.04620,0.02887,0.00000,0.03050,0.97649,-0.19032,0.0,2023,6,7,15,24,29,190
42.15960,0.05880,0.01138,0.00000,0.03416,0.97917,-0.18947,0.0,2023,6,7,15,24,29,200
42.15970,0.14630,-0.00612,0.00000,0.03148,0.97698,-0.18873,0.0,2023,6,7,15,24,29,210
42.15980,-0.11620,-0.26863,0.00000,0.03233,0.97600,-0.18959,0.0,2023,6,7,15,24,29,220
42.15990,-0.02870,-0.04113,0.00000,0.03038,0.97612,-0.18995,0.0,2023,6,7,15,24,29,230
42.16000,-0.06370,0.09887,0.00000,0.03294,0.97917,-0.18776,0.0,2023,6,7,15,24,29,240
42.16010,0.05880,0.02887,0.00000,0.03099,0.97588,-0.19069,0.0,2023,6,7,15,24,29,250
42.16020,0.07630,0.01138,0.00000,0.03038,0.97612,-0.18873,0.0,2023,6,7,15,24,29,260
42.16030,0.12880,-0.19863,0.00000,0.03331,0.97759,-0.19032,0.0,2023,6,7,15,24,29,270
42.16040,0.11130,0.09887,0.00000,0.03257,0.97759,-0.18995,0.0,2023,6,7,15,24,29,280
42.16050,-0.09870,-0.09363,0.00000,0.03209,0.97649,-0.18825,0.0,2023,6,7,15,24,29,290
42.16060,0.14630,-0.14613,0.00000,0.03013,0.97710,-0.18922,0.0,2023,6,7,15,24,29,300
42.16070,0.00630,0.02887,0.00000,0.03209,0.97649,-0.19008,0.0,2023,6,7,15,24,29,310
42.16080,0.12880,-0.00612,0.00000,0.03367,0.97673,-0.18910,0.0,2023,6,7,15,24,29,320
42.16090,0.28630,-0.04113,0.00000,0.03074,0.97673,-0.18934,0.0,2023,6,7,15,24,29,330
42.16100,-0.02870,0.09887,0.00000,0.03282,0.97771,-0.18715,0.0,2023,6,7,15,24,29,340
42.16110,0.11130,0.04637,0.00000,0.03404,0.97661,-0.18678,0.0,2023,6,7,15,24,29,350
42.16120,0.19880,0.18637,0.00000,0.03453,0.97515,-0.18873,0.0,2023,6,7,15,24,29,360
42.16130,0.11130,-0.00612,0.00000,0.03209,0.97759,-0.18703,0.0,2023,6,7,15,24,29,370
42.16140,0.07630,0.25637,0.00000,0.03062,0.97490,-0.18800,0.0,2023,6,7,15,24,29,380
42.16150,0.11130,-0.14613,0.00000,0.03062,0.97649,-0.18800,0.0,2023,6,7,15,24,29,390
42.16160,0.18130,-0.09363,0.00000,0.03331,0.97746,-0.18764,0.0,2023,6,7,15,24,29,400
42.16170,0.18130,0.02887,0.00000,0.02965,0.97527,-0.18703,0.0,2023,6,7,15,24,29,410
42.16180,0.04130,-0.04113,0.00000,0.03074,0.97600,-0.18873,0.0,2023,6,7,15,24,29,420
42.16190,0.09380,-0.09363,0.00000,0.03087,0.97600,-0.18898,0.0,2023,6,7,15,24,29,430
42.16200,0.07630,0.01138,0.00000,0.02904,0.97649,-0.19117,0.0,2023,6,7,15,24,29,440
42.16210,0.32130,-0.05863,0.00000,0.03050,0.97685,-0.18886,0.0,2023,6,7,15,24,29,450
42.16220,0.04130,-0.12863,0.00000,0.03318,0.97466,-0.18898,0.0,2023,6,7,15,24,29,460
42.16230,0.16380,0.04637,0.00000,0.03343,0.97746,-0.18861,0.0,2023,6,7,15,24,29,470
42.16240,-0.15120,0.08137,0.00000,0.03355,0.97734,-0.19044,0.0,2023,6,7,15,24,29,480
42.16250,0.26880,-0.28613,0.00000,0.03172,0.97490,-0.18861,0.0,2023,6,7,15,24,29,490
42.16260,-0.11620,-0.05863,0.00000,0.03282,0.97405,-0.18800,0.0,2023,6,7,15,24,29,500
42.16270,-0.04620,0.20388,0.00000,0.03087,0.97746,-0.18690,0.0,2023,6,7,15,24,29,510
42.16280,0.04130,-0.02363,0.00000,0.03099,0.97685,-0.19032,0.0,2023,6,7,15,24,29,520
42.16290,0.02380,-0.09363,0.00000,0.03221,0.97746,-0.18898,0.0,2023,6,7,15,24,29,530
42.16300,0.05880,0.22138,0.00000,0.03050,0.97624,-0.18825,0.0,2023,6,7,15,24,29,540
42.16310,0.04130,-0.11113,0.00000,0.03087,0.97844,-0.18776,0.0,2023,6,7,15,24,29,550
42.16320,0.18130,-0.11113,0.00000,0.03221,0.97600,-0.18739,0.0,2023,6,7,15,24,29,560
42.16330,-0.16870,0.16887,0.00000,0.03209,0.97661,-0.18947,0.0,2023,6,7,15,24,29,570
42.16340,0.02380,-0.11113,0.00000,0.03135,0.97624,-0.18861,0.0,2023,6,7,15,24,29,580
42.16350,0.07630,0.02887,0.00000,0.03062,0.97429,-0.18886,0.0,2023,6,7,15,24,29,590
42.16360,0.23380,-0.18113,0.00000,0.03062,0.97746,-0.19056,0.0,2023,6,7,15,24,29,600
