#2023/06/07 16:32:12
time,wx,wy,wz,ax,ay,az,yy,MM,dd,hh,mm,ss,ms
45.76430,0.00000,-0.06423,0.00000,0.03074,0.97344,-0.19264,0.0,2023,6,7,16,32,13,109
45.76440,-0.07000,-0.02923,0.00000,0.02855,0.97454,-0.19239,0.0,2023,6,7,16,32,13,121
45.76450,-0.07000,-0.02923,0.00000,0.03013,0.97429,-0.18995,0.0,2023,6,7,16,32,13,132
45.76460,-0.28000,0.09327,0.00000,0.02879,0.97734,-0.19191,0.0,2023,6,7,16,32,13,144
45.76470,-0.05250,0.09327,0.00000,0.02806,0.97527,-0.19117,0.0,2023,6,7,16,32,13,155
45.76480,0.05250,0.09327,0.00000,0.03050,0.97515,-0.19252,0.0,2023,6,7,16,32,13,166
45.76490,-0.08750,0.00577,0.00000,0.03221,0.97527,-0.19215,0.0,2023,6,7,16,32,13,178
45.76500,0.05250,-0.02923,0.00000,0.03245,0.97698,-0.19154,0.0,2023,6,7,16,32,13,189
45.76510,0.17500,0.02327,0.00000,0.03111,0.97698,-0.19386,0.0,2023,6,7,16,32,13,201
45.76520,-0.14000,0.21577,0.00000,0.03050,0.97722,-0.19081,0.0,2023,6,7,16,32,13,212
45.76530,-0.10500,-0.15173,0.00000,0.02830,0.97466,-0.19044,0.0,2023,6,7,16,32,13,223
45.76540,-0.08750,-0.09923,0.00000,0.03001,0.97673,-0.19447,0.0,2023,6,7,16,32,13,235
45.76550,-0.03500,-0.02923,0.00000,0.02977,0.97527,-0.19239,0.0,2023,6,7,16,32,13,246
45.76560,-0.10500,-0.02923,0.00000,0.03062,0.97417,-0.19044,0.0,2023,6,7,16,32,13,258
45.76570,-0.17500,0.19827,0.00000,0.02977,0.97527,-0.19081,0.0,2023,6,7,16,32,13,269
45.76580,-0.03500,-0.06423,0.00000,0.03233,0.97539,-0.19276,0.0,2023,6,7,16,32,13,280
45.76590,0.38500,-0.06423,0.00000,0.03123,0.97490,-0.19264,0.0,2023,6,7,16,32,13,292
45.76600,-0.03500,0.19827,0.00000,0.03123,0.97771,-0.19142,0.0,2023,6,7,16,32,13,303
45.76610,-0.03500,-0.18673,0.00000,0.03111,0.97624,-0.19142,0.0,2023,6,7,16,32,13,315
45.76620,0.05250,-0.06423,0.00000,0.02879,0.97576,-0.19227,0.0,2023,6,7,16,32,13,326
45.76630,0.12250,-0.06423,0.00000,0.03074,0.97527,-0.19093,0.0,2023,6,7,16,32,13,337
45.76640,-0.10500,-0.09923,0.00000,0.03038,0.97868,-0.19276,0.0,2023,6,7,16,32,13,349
45.76650,0.08750,0.04078,0.00000,0.03026,0.97637,-0.19032,0.0,2023,6,7,16,32,13,360
45.76660,0.05250,0.02327,0.00000,0.03135,0.97710,-0.19154,0.0,2023,6,7,16,32,13,372
45.76670,0.00000,-0.01173,0.00000,0.03148,0.97502,-0.19105,0.0,2023,6,7,16,32,13,383
45.76680,0.08750,0.11077,0.00000,0.03050,0.97673,-0.19130,0.0,2023,6,7,16,32,13,394
45.76690,-0.01750,0.04078,0.00000,0.02989,0.97624,-0.18898,0.0,2023,6,7,16,32,13,406
45.76700,0.12250,0.05827,0.00000,0.03038,0.97685,-0.19227,0.0,2023,6,7,16,32,13,417
45.76710,-0.12250,-0.09923,0.00000,0.03172,0.97563,-0.19020,0.0,2023,6,7,16,32,13,429
45.76720,-0.21000,0.09327,0.00000,0.03209,0.97637,-0.19398,0.0,2023,6,7,16,32,13,440
45.76730,-0.10500,0.04078,0.00000,0.03013,0.97368,-0.19142,0.0,2023,6,7,16,32,13,451
45.76740,0.05250,-0.11673,0.00000,0.03062,0.97576,-0.19020,0.0,2023,6,7,16,32,13,463
45.76750,-0.05250,0.14577,0.00000,0.03148,0.97380,-0.18995,0.0,2023,6,7,16,32,13,474
45.76760,0.01750,0.28577,0.00000,0.03160,0.97527,-0.19252,0.0,2023,6,7,16,32,13,486
45.76770,0.10500,-0.15173,0.00000,0.03148,0.97405,-0.18995,0.0,2023,6,7,16,32,13,497
45.76780,0.00000,-0.18673,0.00000,0.03135,0.97612,-0.19105,0.0,2023,6,7,16,32,13,508
45.76790,0.17500,0.07577,0.00000,0.02977,0.97673,-0.18886,0.0,2023,6,7,16,32,13,520
45.76800,0.01750,-0.08173,0.00000,0.02977,0.97795,-0.19227,0.0,2023,6,7,16,32,13,531
45.76810,0.12250,-0.02923,0.00000,0.02928,0.97502,-0.19105,0.0,2023,6,7,16,32,13,543
45.76820,0.01750,0.07577,0.00000,0.03196,0.97393,-0.19178,0.0,2023,6,7,16,32,13,554
45.76830,-0.05250,-0.15173,0.00000,0.02965,0.97685,-0.19154,0.0,2023,6,7,16,32,13,565
45.76840,0.21000,-0.09923,0.00000,0.03184,0.97380,-0.18861,0.0,2023,6,7,16,32,13,577
45.76850,0.00000,-0.01173,0.00000,0.03013,0.97710,-0.19239,0.0,2023,6,7,16,32,13,588
45.76860,0.15750,-0.11673,0.00000,0.03026,0.97649,-0.19081,0.0,2023,6,7,16,32,13,600
45.76870,-0.10500,0.09327,0.00000,0.02977,0.97539,-0.19154,0.0,2023,6,7,16,32,13,611
45.76880,0.01750,-0.02923,0.00000,0.02940,0.97563,-0.18971,0.0,2023,6,7,16,32,13,622
45.76890,-0.10500,0.00577,0.00000,0.03038,0.97807,-0.19069,0.0,2023,6,7,16,32,13,634
45.76900,-0.21000,0.07577,0.00000,0.03233,0.97710,-0.19069,0.0,2023,6,7,16,32,13,645
45.76910,-0.12250,-0.06423,0.00000,0.03282,0.97405,-0.18898,0.0,2023,6,7,16,32,13,657
45.76920,0.12250,0.05827,0.00000,0.03087,0.97563,-0.19154,0.0,2023,6,7,16,32,13,668
45.76930,0.05250,-0.11673,0.00000,0.03111,0.97673,-0.18934,0.0,2023,6,7,16,32,13,679
45.76940,-0.08750,0.04078,0.00000,0.03099,0.97515,-0.19069,0.0,2023,6,7,16,32,13,691
45.76950,-0.08750,0.14577,0.00000,0.03209,0.97454,-0.18983,0.0,2023,6,7,16,32,13,702
45.76960,0.01750,0.16327,0.00000,0.03062,0.97563,-0.19020,0.0,2023,6,7,16,32,13,714
45.76970,-0.01750,0.00577,0.00000,0.03148,0.97576,-0.19081,0.0,2023,6,7,16,32,13,725
45.76980,0.15750,0.05827,0.00000,0.03050,0.97624,-0.19105,0.0,2023,6,7,16,32,13,736
45.76990,0.08750,0.14577,0.00000,0.02940,0.97673,-0.19008,0.0,2023,6,7,16,32,13,748
45.77000,-0.17500,-0.02923,0.00000,0.03074,0.97759,-0.19081,0.0,2023,6,7,16,32,13,759
45.77010,-0.07000,0.16327,0.00000,0.02928,0.97771,-0.19239,0.0,2023,6,7,16,32,13,771
45.77020,-0.10500,0.05827,0.00000,0.03087,0.97624,-0.19203,0.0,2023,6,7,16,32,13,782
45.77030,-0.10500,0.02327,0.00000,0.03245,0.97624,-0.18959,0.0,2023,6,7,16,32,13,793
45.77040,-0.15750,-0.01173,0.00000,0.02891,0.97624,-0.18898,0.0,2023,6,7,16,32,13,805
45.77050,-0.01750,-0.04673,0.00000,0.02977,0.97344,-0.19032,0.0,2023,6,7,16,32,13,816
45.77060,-0.07000,-0.09923,0.00000,0.03050,0.97222,-0.19044,0.0,2023,6,7,16,32,13,828
45.77070,-0.08750,0.02327,0.00000,0.03026,0.97698,-0.19056,0.0,2023,6,7,16,32,13,839
45.77080,-0.05250,-0.11673,0.00000,0.03306,0.97844,-0.19020,0.0,2023,6,7,16,32,13,850
45.77090,-0.10500,0.21577,0.00000,0.03209,0.97637,-0.18898,0.0,2023,6,7,16,32,13,862
45.77100,-0.03500,-0.04673,0.00000,0.02891,0.97429,-0.19191,0.0,2023,6,7,16,32,13,873
45.77110,-0.12250,-0.13423,0.00000,0.03184,0.97454,-0.19227,0.0,2023,6,7,16,32,13,885
45.77120,0.01750,0.11077,0.00000,0.03392,0.97502,-0.19056,0.0,2023,6,7,16,32,13,896
45.77130,-0.05250,0.00577,0.00000,0.03172,0.97502,-0.19044,0.0,2023,6,7,16,32,13,907
45.77140,0.03500,-0.20423,0.00000,0.03001,0.97600,-0.18947,0.0,2023,6,7,16,32,13,919
45.77150,0.00000,-0.13423,0.00000,0.03123,0.97698,-0.19178,0.0,2023,6,7,16,32,13,930
45.77160,0.15750,-0.06423,0.00000,0.03306,0.97624,-0.19178,0.0,2023,6,7,16,32,13,942
45.77170,0.07000,-0.09923,0.00000,0.03099,0.97759,-0.19166,0.0,2023,6,7,16,32,13,953
45.77180,0.00000,0.11077,0.00000,0.03160,0.97612,-0.19215,0.0,2023,6,7,16,32,13,964
45.77190,-0.07000,-0.13423,0.00000,0.02928,0.97820,-0.19239,0.0,2023,6,7,16,32,13,976
45.77200,-0.15750,0.12827,0.00000,0.02879,0.97698,-0.19056,0.0,2023,6,7,16,32,13,987
45.77210,-0.05250,0.04078,0.00000,0.03196,0.97746,-0.19239,0.0,2023,6,7,16,32,13,999
45.77220,-0.07000,-0.22173,0.00000,0.03123,0.97649,-0.19154,0.0,2023,6,7,16,32,13,10
45.77230,0.03500,0.11077,0.00000,0.03013,0.97515,-0.19081,0.0,2023,6,7,16,32,13,21
45.77240,-0.08750,0.04078,0.00000,0.03026,0.97612,-0.18947,0.0,2023,6,7,16,32,13,33
45.77250,-0.28000,0.21577,0.00000,0.02965,0.97539,-0.18800,0.0,2023,6,7,16,32,13,44
45.77260,0.00000,0.05827,0.00000,0.03038,0.97393,-0.19081,0.0,2023,6,7,16,32,14,6
45.77270,-0.10500,0.21577,0.00000,0.02940,0.97612,-0.19178,0.0,2023,6,7,16,32,14,17
45.77280,-0.05250,0.07577,0.00000,0.03111,0.97527,-0.19044,0.0,2023,6,7,16,32,14,28
45.77290,0.05250,-0.04673,0.00000,0.03184,0.97515,-0.19252,0.0,2023,6,7,16,32,14,40
45.77300,0.00000,0.05827,0.00000,0.03050,0.97722,-0.19093,0.0,2023,6,7,16,32,14,51
45.77310,-0.08750,0.14577,0.00000,0.03160,0.97576,-0.19130,0.0,2023,6,7,16,32,14,63
45.77320,0.05250,-0.01173,0.00000,0.03111,0.97344,-0.19154,0.0,2023,6,7,16,32,14,74
45.77330,-0.05250,-0.01173,0.00000,0.03026,0.97588,-0.18837,0.0,2023,6,7,16,32,14,85
45.77340,-0.14000,0.14577,0.00000,0.03074,0.97746,-0.19044,0.0,2023,6,7,16,32,14,97
45.77350,-0.05250,-0.20423,0.00000,0.02855,0.97478,-0.19044,0.0,2023,6,7,16,32,14,108
45.77360,-0.05250,-0.06423,0.00000,0.03160,0.97966,-0.19105,0.0,2023,6,7,16,32,14,120
45.77370,0.05250,-0.27423,0.00000,0.03111,0.97539,-0.18886,0.0,2023,6,7,16,32,14,131
45.77380,0.08750,-0.01173,0.00000,0.03038,0.97649,-0.19264,0.0,2023,6,7,16,32,14,142
45.77390,0.00000,0.11077,0.00000,0.03074,0.97527,-0.19191,0.0,2023,6,7,16,32,14,154
45.77400,-0.07000,-0.08173,0.00000,0.03013,0.97722,-0.18959,0.0,2023,6,7,16,32,14,165
45.77410,-0.03500,0.44327,0.00000,0.02989,0.97588,-0.19154,0.0,2023,6,7,16,32,14,177
45.77420,0.00000,-0.16923,0.00000,0.03013,0.97881,-0.19093,0.0,2023,6,7,16,32,14,188
45.77430,-0.05250,-0.02923,0.00000,0.03013,0.97466,-0.19166,0.0,2023,6,7,16,32,14,199
45.77440,0.00000,-0.01173,0.00000,0.03013,0.97502,-0.19349,0.0,2023,6,7,16,32,14,211
45.77450,0.10500,0.05827,0.00000,0.03148,0.97661,-0.18934,0.0,2023,6,7,16,32,14,222
45.77460,-0.05250,0.18077,0.00000,0.03074,0.97624,-0.18922,0.0,2023,6,7,16,32,14,234
45.77470,0.10500,0.16327,0.00000,0.02965,0.97502,-0.18825,0.0,2023,6,7,16,32,14,245
45.77480,0.01750,-0.16923,0.00000,0.03331,0.97380,-0.19361,0.0,2023,6,7,16,32,14,256
45.77490,0.00000,-0.01173,0.00000,0.02916,0.97588,-0.19081,0.0,2023,6,7,16,32,14,268
45.77500,-0.14000,0.07577,0.00000,0.02965,0.97783,-0.19069,0.0,2023,6,7,16,32,14,279
45.77510,-0.08750,0.11077,0.00000,0.03050,0.97722,-0.19191,0.0,2023,6,7,16,32,14,291
45.77520,-0.03500,0.12827,0.00000,0.03172,0.97563,-0.19374,0.0,2023,6,7,16,32,14,302
45.77530,-0.03500,0.30327,0.00000,0.03148,0.97710,-0.19276,0.0,2023,6,7,16,32,14,313
45.77540,-0.24500,0.09327,0.00000,0.02940,0.97637,-0.19105,0.0,2023,6,7,16,32,14,325
45.77550,-0.12250,0.09327,0.00000,0.03135,0.97441,-0.18971,0.0,2023,6,7,16,32,14,336
45.77560,0.14000,0.14577,0.00000,0.03099,0.97649,-0.19178,0.0,2023,6,7,16,32,14,348
45.77570,-0.12250,-0.02923,0.00000,0.03172,0.97795,-0.19166,0.0,2023,6,7,16,32,14,359
45.77580,0.05250,0.14577,0.00000,0.03050,0.97441,-0.19337,0.0,2023,6,7,16,32,14,370
45.77590,-0.14000,0.00577,0.00000,0.03209,0.97502,-0.19093,0.0,2023,6,7,16,32,14,382
45.77600,-0.01750,-0.15173,0.00000,0.03306,0.97539,-0.18934,0.0,2023,6,7,16,32,14,393
45.77610,0.14000,0.00577,0.00000,0.02904,0.97698,-0.19093,0.0,2023,6,7,16,32,14,405
45.77620,-0.08750,0.21577,0.00000,0.02940,0.97600,-0.19093,0.0,2023,6,7,16,32,14,416
45.77630,0.00000,0.04078,0.00000,0.02855,0.97710,-0.18947,0.0,2023,6,7,16,32,14,427
45.77640,0.01750,-0.01173,0.00000,0.02977,0.97527,-0.18983,0.0,2023,6,7,16,32,14,439
45.77650,0.03500,-0.02923,0.00000,0.02879,0.97417,-0.19203,0.0,2023,6,7,16,32,14,450
45.77660,-0.26250,0.11077,0.00000,0.03087,0.97734,-0.19361,0.0,2023,6,7,16,32,14,462
45.77670,-0.01750,-0.02923,0.00000,0.03428,0.97746,-0.19069,0.0,2023,6,7,16,32,14,473
45.77680,0.01750,-0.06423,0.00000,0.03111,0.97783,-0.19008,0.0,2023,6,7,16,32,14,484
45.77690,-0.03500,0.18077,0.00000,0.02806,0.97551,-0.19081,0.0,2023,6,7,16,32,14,496
45.77700,-0.08750,0.19827,0.00000,0.02940,0.97600,-0.19166,0.0,2023,6,7,16,32,14,507
45.77710,-0.10500,-0.01173,0.00000,0.02867,0.97673,-0.19239,0.0,2023,6,7,16,32,14,519
45.77720,0.14000,0.11077,0.00000,0.02891,0.97551,-0.19239,0.0,2023,6,7,16,32,14,530
45.77730,0.05250,0.02327,0.00000,0.03209,0.97588,-0.19191,0.0,2023,6,7,16,32,14,541
45.77740,-0.05250,-0.01173,0.00000,0.02928,0.97795,-0.19105,0.0,2023,6,7,16,32,14,553
45.77750,-0.17500,-0.09923,0.00000,0.03135,0.97600,-0.19239,0.0,2023,6,7,16,32,14,564
45.77760,-0.08750,-0.02923,0.00000,0.03050,0.97637,-0.18947,0.0,2023,6,7,16,32,14,576
45.77770,0.10500,0.26827,0.00000,0.02952,0.97612,-0.19069,0.0,2023,6,7,16,32,14,587
45.77780,0.00000,0.11077,0.00000,0.02977,0.97685,-0.19093,0.0,2023,6,7,16,32,14,598
45.77790,0.05250,-0.01173,0.00000,0.02952,0.97502,-0.19069,0.0,2023,6,7,16,32,14,610
45.77800,0.08750,-0.09923,0.00000,0.02830,0.97466,-0.19069,0.0,2023,6,7,16,32,14,621
45.77810,0.14000,-0.15173,0.00000,0.03050,0.97685,-0.19008,0.0,2023,6,7,16,32,14,633
45.77820,-0.14000,0.21577,0.00000,0.03172,0.97454,-0.18861,0.0,2023,6,7,16,32,14,644
45.77830,-0.03500,0.00577,0.00000,0.02916,0.97515,-0.19020,0.0,2023,6,7,16,32,14,655
45.77840,0.08750,-0.01173,0.00000,0.02977,0.97576,-0.19215,0.0,2023,6,7,16,32,14,667
45.77850,-0.05250,-0.09923,0.00000,0.02916,0.97515,-0.19142,0.0,2023,6,7,16,32,14,678
45.77860,0.15750,-0.09923,0.00000,0.03099,0.97405,-0.19081,0.0,2023,6,7,16,32,14,690
45.77870,0.10500,-0.23923,0.00000,0.03270,0.97576,-0.19032,0.0,2023,6,7,16,32,14,701
45.77880,0.10500,0.00577,0.00000,0.02879,0.97588,-0.19178,0.0,2023,6,7,16,32,14,712
45.77890,0.12250,-0.09923,0.00000,0.03196,0.97600,-0.18922,0.0,2023,6,7,16,32,14,724
45.77900,0.03500,-0.08173,0.00000,0.03013,0.97429,-0.19008,0.0,2023,6,7,16,32,14,735
45.77910,0.00000,-0.08173,0.00000,0.02879,0.97466,-0.19032,0.0,2023,6,7,16,32,14,747
45.77920,0.14000,0.21577,0.00000,0.03038,0.97771,-0.19032,0.0,2023,6,7,16,32,14,758
45.77930,-0.05250,0.12827,0.00000,0.02733,0.97673,-0.19081,0.0,2023,6,7,16,32,14,769
45.77940,-0.07000,-0.04673,0.00000,0.03282,0.97515,-0.19166,0.0,2023,6,7,16,32,14,781
45.77950,-0.19250,-0.01173,0.00000,0.03184,0.97551,-0.19008,0.0,2023,6,7,16,32,14,792
45.77960,-0.08750,0.05827,0.00000,0.02867,0.97710,-0.19142,0.0,2023,6,7,16,32,14,804
45.77970,-0.01750,0.05827,0.00000,0.02977,0.97673,-0.19276,0.0,2023,6,7,16,32,14,815
45.77980,-0.14000,0.12827,0.00000,0.02940,0.97698,-0.19191,0.0,2023,6,7,16,32,14,826
45.77990,-0.12250,0.12827,0.00000,0.03196,0.97588,-0.19117,0.0,2023,6,7,16,32,14,838
45.78000,-0.21000,0.35577,0.00000,0.03160,0.97746,-0.19166,0.0,2023,6,7,16,32,14,849
45.78010,-0.01750,-0.11673,0.00000,0.03184,0.97539,-0.19032,0.0,2023,6,7,16,32,14,861
45.78020,-0.01750,-0.04673,0.00000,0.03099,0.97759,-0.19227,0.0,2023,6,7,16,32,14,872
45.78030,-0.05250,0.05827,0.00000,0.02916,0.97649,-0.19032,0.0,2023,6,7,16,32,14,883
45.78040,0.00000,0.04078,0.00000,0.02867,0.97380,-0.18861,0.0,2023,6,7,16,32,14,895
45.78050,0.10500,0.11077,0.00000,0.03148,0.97661,-0.19032,0.0,2023,6,7,16,32,14,906
45.78060,-0.03500,0.09327,0.00000,0.03135,0.97466,-0.18947,0.0,2023,6,7,16,32,14,918
45.78070,0.01750,-0.18673,0.00000,0.03148,0.97551,-0.18910,0.0,2023,6,7,16,32,14,929
45.78080,0.03500,0.00577,0.00000,0.02818,0.97722,-0.19044,0.0,2023,6,7,16,32,14,940
45.78090,-0.05250,0.02327,0.00000,0.03160,0.97624,-0.19056,0.0,2023,6,7,16,32,14,952
45.78100,-0.29750,-0.04673,0.00000,0.02952,0.97515,-0.18983,0.0,2023,6,7,16,32,14,963
45.78110,0.00000,0.07577,0.00000,0.03013,0.97527,-0.18922,0.0,2023,6,7,16,32,14,975
45.78120,0.05250,0.11077,0.00000,0.02904,0.97637,-0.19044,0.0,2023,6,7,16,32,14,986
45.78130,-0.07000,0.23327,0.00000,0.03135,0.97820,-0.19117,0.0,2023,6,7,16,32,14,997
45.78140,0.24500,0.12827,0.00000,0.03087,0.97502,-0.19081,0.0,2023,6,7,16,32,14,9
45.78150,-0.03500,0.11077,0.00000,0.02940,0.97588,-0.19178,0.0,2023,6,7,16,32,15,0
45.78160,0.00000,0.21577,0.00000,0.03306,0.97405,-0.19252,0.0,2023,6,7,16,32,15,12
45.78170,0.10500,-0.11673,0.00000,0.03379,0.97881,-0.19288,0.0,2023,6,7,16,32,15,23
45.78180,0.03500,-0.16923,0.00000,0.02977,0.97734,-0.18910,0.0,2023,6,7,16,32,15,34
45.78190,0.07000,-0.02923,0.00000,0.03111,0.97551,-0.18995,0.0,2023,6,7,16,32,15,46
45.78200,0.01750,0.02327,0.00000,0.03148,0.97710,-0.19117,0.0,2023,6,7,16,32,15,57
45.78210,0.08750,0.14577,0.00000,0.02952,0.97539,-0.19374,0.0,2023,6,7,16,32,15,69
45.78220,-0.07000,0.05827,0.00000,0.03111,0.97734,-0.19191,0.0,2023,6,7,16,32,15,80
45.78230,0.19250,0.12827,0.00000,0.02928,0.97637,-0.19142,0.0,2023,6,7,16,32,15,91
45.78240,-0.05250,0.07577,0.00000,0.03062,0.97612,-0.19117,0.0,2023,6,7,16,32,15,103
45.78250,-0.19250,0.12827,0.00000,0.02965,0.97734,-0.19020,0.0,2023,6,7,16,32,15,114
45.78260,-0.01750,0.02327,0.00000,0.03062,0.97612,-0.19069,0.0,2023,6,7,16,32,15,126
45.78270,-0.12250,-0.06423,0.00000,0.03184,0.97600,-0.19239,0.0,2023,6,7,16,32,15,137
45.78280,-0.10500,-0.09923,0.00000,0.02989,0.97515,-0.19178,0.0,2023,6,7,16,32,15,148
45.78290,-0.15750,0.02327,0.00000,0.03148,0.97393,-0.19191,0.0,2023,6,7,16,32,15,160
45.78300,0.05250,-0.01173,0.00000,0.02928,0.97612,-0.19105,0.0,2023,6,7,16,32,15,171
45.78310,-0.12250,0.12827,0.00000,0.03306,0.97685,-0.19093,0.0,2023,6,7,16,32,15,183
45.78320,0.01750,-0.11673,0.00000,0.03050,0.97637,-0.19032,0.0,2023,6,7,16,32,15,194
45.78330,-0.17500,0.19827,0.00000,0.03172,0.97502,-0.19203,0.0,2023,6,7,16,32,15,205
45.78340,0.03500,-0.13423,0.00000,0.03050,0.97746,-0.19191,0.0,2023,6,7,16,32,15,217
45.78350,0.00000,-0.09923,0.00000,0.03050,0.97527,-0.19117,0.0,2023,6,7,16,32,15,228
45.78360,0.05250,-0.11673,0.00000,0.03050,0.97600,-0.18849,0.0,2023,6,7,16,32,15,240
45.78370,-0.05250,0.12827,0.00000,0.02904,0.97502,-0.19410,0.0,2023,6,7,16,32,15,251
45.78380,0.00000,-0.08173,0.00000,0.02891,0.97600,-0.19044,0.0,2023,6,7,16,32,15,262
45.78390,-0.03500,-0.16923,0.00000,0.03062,0.97807,-0.19093,0.0,2023,6,7,16,32,15,274
45.78400,0.21000,-0.09923,0.00000,0.03160,0.97502,-0.18995,0.0,2023,6,7,16,32,15,285
45.78410,0.15750,-0.13423,0.00000,0.03172,0.97771,-0.19349,0.0,2023,6,7,16,32,15,297
45.78420,0.00000,-0.06423,0.00000,0.03135,0.97515,-0.19349,0.0,2023,6,7,16,32,15,308
45.78430,0.05250,-0.08173,0.00000,0.03135,0.97600,-0.19178,0.0,2023,6,7,16,32,15,319
45.78440,0.05250,-0.08173,0.00000,0.03172,0.97380,-0.18947,0.0,2023,6,7,16,32,15,331
45.78450,-0.19250,0.19827,0.00000,0.03148,0.97649,-0.19191,0.0,2023,6,7,16,32,15,342
45.78460,0.01750,0.07577,0.00000,0.03318,0.97856,-0.19154,0.0,2023,6,7,16,32,15,354
45.78470,0.00000,0.05827,0.00000,0.03111,0.97515,-0.19374,0.0,2023,6,7,16,32,15,365
45.78480,0.08750,0.00577,0.00000,0.03087,0.97600,-0.19203,0.0,2023,6,7,16,32,15,376
45.78490,0.24500,-0.13423,0.00000,0.03050,0.97405,-0.19252,0.0,2023,6,7,16,32,15,388
45.78500,-0.01750,-0.01173,0.00000,0.03172,0.97441,-0.19313,0.0,2023,6,7,16,32,15,399
45.78510,0.01750,0.07577,0.00000,0.03111,0.97612,-0.19093,0.0,2023,6,7,16,32,15,411
45.78520,-0.08750,0.21577,0.00000,0.03294,0.97368,-0.19264,0.0,2023,6,7,16,32,15,422
45.78530,0.03500,-0.15173,0.00000,0.03196,0.97698,-0.19349,0.0,2023,6,7,16,32,15,433
45.78540,0.19250,-0.02923,0.00000,0.02952,0.97698,-0.19215,0.0,2023,6,7,16,32,15,445
45.78550,0.00000,0.02327,0.00000,0.03148,0.97893,-0.19044,0.0,2023,6,7,16,32,15,456
45.78560,0.08750,0.12827,0.00000,0.03160,0.97624,-0.19215,0.0,2023,6,7,16,32,15,468
45.78570,0.05250,0.02327,0.00000,0.03038,0.97722,-0.19288,0.0,2023,6,7,16,32,15,479
45.78580,-0.05250,0.05827,0.00000,0.02952,0.97539,-0.19130,0.0,2023,6,7,16,32,15,490
45.78590,0.00000,0.02327,0.00000,0.03221,0.97441,-0.19288,0.0,2023,6,7,16,32,15,502
45.78600,-0.08750,0.00577,0.00000,0.03148,0.97380,-0.18971,0.0,2023,6,7,16,32,15,513
45.78610,0.00000,0.21577,0.00000,0.03099,0.97576,-0.19276,0.0,2023,6,7,16,32,15,525
45.78620,0.05250,0.07577,0.00000,0.03148,0.97710,-0.19117,0.0,2023,6,7,16,32,15,536
45.78630,-0.05250,0.00577,0.00000,0.02904,0.97661,-0.19178,0.0,2023,6,7,16,32,15,547
45.78640,-0.10500,-0.06423,0.00000,0.02879,0.97576,-0.19044,0.0,2023,6,7,16,32,15,559
45.78650,-0.07000,0.07577,0.00000,0.03233,0.97759,-0.19227,0.0,2023,6,7,16,32,15,570
45.78660,0.10500,-0.25673,0.00000,0.03270,0.97490,-0.19069,0.0,2023,6,7,16,32,15,582
45.78670,-0.07000,0.11077,0.00000,0.03074,0.97563,-0.19227,0.0,2023,6,7,16,32,15,593
45.78680,0.10500,0.02327,0.00000,0.02855,0.97466,-0.19264,0.0,2023,6,7,16,32,15,604
45.78690,-0.21000,0.11077,0.00000,0.02940,0.97637,-0.19215,0.0,2023,6,7,16,32,15,616
45.78700,-0.10500,0.05827,0.00000,0.03074,0.97746,-0.19191,0.0,2023,6,7,16,32,15,627
45.78710,0.00000,0.16327,0.00000,0.02891,0.97466,-0.19008,0.0,2023,6,7,16,32,15,639
45.78720,-0.08750,0.09327,0.00000,0.03209,0.97490,-0.19288,0.0,2023,6,7,16,32,15,650
45.78730,-0.17500,-0.06423,0.00000,0.03111,0.97539,-0.19142,0.0,2023,6,7,16,32,15,661
45.78740,-0.08750,-0.04673,0.00000,0.03233,0.97466,-0.19044,0.0,2023,6,7,16,32,15,673
45.78750,-0.14000,0.04078,0.00000,0.03001,0.97539,-0.19337,0.0,2023,6,7,16,32,15,684
45.78760,0.07000,-0.06423,0.00000,0.02928,0.97527,-0.19227,0.0,2023,6,7,16,32,15,696
45.78770,-0.01750,0.04078,0.00000,0.03196,0.97637,-0.19203,0.0,2023,6,7,16,32,15,707
45.78780,0.00000,-0.18673,0.00000,0.03013,0.97637,-0.19130,0.0,2023,6,7,16,32,15,718
45.78790,-0.03500,0.00577,0.00000,0.03013,0.97576,-0.19191,0.0,2023,6,7,16,32,15,730
45.78800,-0.03500,0.07577,0.00000,0.03099,0.97539,-0.19178,0.0,2023,6,7,16,32,15,741
45.78810,-0.10500,0.09327,0.00000,0.03148,0.97478,-0.18959,0.0,2023,6,7,16,32,15,753
45.78820,-0.14000,-0.02923,0.00000,0.02940,0.97698,-0.19215,0.0,2023,6,7,16,32,15,764
45.78830,0.07000,-0.09923,0.00000,0.03074,0.97563,-0.19056,0.0,2023,6,7,16,32,15,775
45.78840,-0.05250,0.14577,0.00000,0.03221,0.97685,-0.19032,0.0,2023,6,7,16,32,15,787
45.78850,-0.01750,0.18077,0.00000,0.03196,0.97722,-0.18947,0.0,2023,6,7,16,32,15,798
45.78860,-0.29750,0.04078,0.00000,0.02843,0.97637,-0.19227,0.0,2023,6,7,16,32,15,810
45.78870,0.12250,0.11077,0.00000,0.02806,0.97685,-0.19203,0.0,2023,6,7,16,32,15,821
45.78880,-0.12250,0.11077,0.00000,0.03001,0.97771,-0.19386,0.0,2023,6,7,16,32,15,832
45.78890,-0.05250,0.02327,0.00000,0.03099,0.97344,-0.18873,0.0,2023,6,7,16,32,15,844
45.78900,0.10500,-0.02923,0.00000,0.02843,0.97527,-0.19008,0.0,2023,6,7,16,32,15,855
45.78910,-0.07000,0.05827,0.00000,0.03135,0.97649,-0.19288,0.0,2023,6,7,16,32,15,867
45.78920,-0.24500,-0.04673,0.00000,0.03074,0.97600,-0.19056,0.0,2023,6,7,16,32,15,878
45.78930,-0.08750,-0.01173,0.00000,0.02965,0.97466,-0.19422,0.0,2023,6,7,16,32,15,889
45.78940,-0.15750,0.04078,0.00000,0.03062,0.97478,-0.19191,0.0,2023,6,7,16,32,15,901
45.78950,-0.01750,-0.04673,0.00000,0.03148,0.97539,-0.19142,0.0,2023,6,7,16,32,15,912
45.78960,-0.21000,0.32077,0.00000,0.03318,0.97612,-0.19044,0.0,2023,6,7,16,32,15,924
45.78970,-0.07000,-0.09923,0.00000,0.02977,0.97515,-0.19227,0.0,2023,6,7,16,32,15,935
45.78980,-0.01750,-0.04673,0.00000,0.03062,0.97637,-0.18849,0.0,2023,6,7,16,32,15,946
45.78990,0.10500,0.12827,0.00000,0.02843,0.97527,-0.18995,0.0,2023,6,7,16,32,15,958
45.79000,-0.07000,0.07577,0.00000,0.03013,0.97649,-0.18861,0.0,2023,6,7,16,32,15,969
45.79010,0.10500,-0.13423,0.00000,0.02952,0.97685,-0.19386,0.0,2023,6,7,16,32,15,981
45.79020,-0.07000,0.02327,0.00000,0.03050,0.97795,-0.19154,0.0,2023,6,7,16,32,15,992
45.79030,0.01750,-0.22173,0.00000,0.03099,0.97563,-0.19008,0.0,2023,6,7,16,32,15,3
45.79040,0.05250,0.11077,0.00000,0.03123,0.97661,-0.19288,0.0,2023,6,7,16,32,16,5
45.79050,0.00000,0.05827,0.00000,0.03074,0.97539,-0.18983,0.0,2023,6,7,16,32,16,16
45.79060,-0.21000,0.21577,0.00000,0.02794,0.97393,-0.19044,0.0,2023,6,7,16,32,16,28
45.79070,0.01750,-0.01173,0.00000,0.03245,0.97527,-0.19349,0.0,2023,6,7,16,32,16,39
45.79080,-0.03500,0.00577,0.00000,0.02891,0.97588,-0.19178,0.0,2023,6,7,16,32,16,50
45.79090,0.01750,0.25077,0.00000,0.03001,0.97441,-0.19130,0.0,2023,6,7,16,32,16,62
45.79100,-0.01750,0.07577,0.00000,0.03026,0.97502,-0.19191,0.0,2023,6,7,16,32,16,73
45.79110,-0.07000,-0.04673,0.00000,0.02928,0.97490,-0.19191,0.0,2023,6,7,16,32,16,85
45.79120,0.12250,-0.04673,0.00000,0.03050,0.97539,-0.18971,0.0,2023,6,7,16,32,16,96
45.79130,-0.01750,0.02327,0.00000,0.02904,0.97466,-0.19178,0.0,2023,6,7,16,32,16,107
45.79140,0.00000,-0.08173,0.00000,0.03087,0.97844,-0.18910,0.0,2023,6,7,16,32,16,119
45.79150,-0.12250,0.11077,0.00000,0.02794,0.97637,-0.19044,0.0,2023,6,7,16,32,16,130
45.79160,-0.26250,0.14577,0.00000,0.02794,0.97539,-0.19191,0.0,2023,6,7,16,32,16,142
45.79170,-0.07000,0.21577,0.00000,0.03087,0.97441,-0.19276,0.0,2023,6,7,16,32,16,153
45.79180,-0.08750,0.12827,0.00000,0.03123,0.97454,-0.18971,0.0,2023,6,7,16,32,16,164
45.79190,0.01750,0.02327,0.00000,0.03099,0.97393,-0.19056,0.0,2023,6,7,16,32,16,176
45.79200,0.07000,0.02327,0.00000,0.03050,0.97600,-0.19105,0.0,2023,6,7,16,32,16,187
45.79210,0.07000,0.14577,0.00000,0.03135,0.97637,-0.18959,0.0,2023,6,7,16,32,16,199
45.79220,-0.26250,-0.09923,0.00000,0.02855,0.97466,-0.19069,0.0,2023,6,7,16,32,16,210
45.79230,-0.07000,0.07577,0.00000,0.03172,0.97746,-0.19142,0.0,2023,6,7,16,32,16,221
45.79240,-0.10500,-0.13423,0.00000,0.03074,0.97429,-0.18971,0.0,2023,6,7,16,32,16,233
45.79250,-0.17500,-0.13423,0.00000,0.03172,0.97454,-0.19008,0.0,2023,6,7,16,32,16,244
45.79260,0.10500,0.00577,0.00000,0.03184,0.97551,-0.18983,0.0,2023,6,7,16,32,16,256
45.79270,0.00000,0.28577,0.00000,0.03087,0.97661,-0.19093,0.0,2023,6,7,16,32,16,267
45.79280,0.10500,-0.08173,0.00000,0.02989,0.97515,-0.19032,0.0,2023,6,7,16,32,16,278
45.79290,-0.05250,0.11077,0.00000,0.03026,0.97490,-0.18812,0.0,2023,6,7,16,32,16,290
45.79300,-0.07000,0.05827,0.00000,0.03172,0.97612,-0.19008,0.0,2023,6,7,16,32,16,301
45.79310,-0.05250,0.02327,0.00000,0.03111,0.97527,-0.19203,0.0,2023,6,7,16,32,16,313
45.79320,0.14000,-0.08173,0.00000,0.02879,0.97490,-0.19044,0.0,2023,6,7,16,32,16,324
45.79330,0.12250,0.21577,0.00000,0.03209,0.97307,-0.19361,0.0,2023,6,7,16,32,16,335
45.79340,0.00000,0.05827,0.00000,0.03026,0.97332,-0.19252,0.0,2023,6,7,16,32,16,347
45.79350,0.03500,0.18077,0.00000,0.03111,0.97515,-0.19056,0.0,2023,6,7,16,32,16,358
45.79360,-0.07000,-0.08173,0.00000,0.03184,0.97271,-0.19276,0.0,2023,6,7,16,32,16,370
45.79370,0.12250,-0.01173,0.00000,0.02916,0.97661,-0.19093,0.0,2023,6,7,16,32,16,381
45.79380,-0.07000,-0.08173,0.00000,0.03026,0.97576,-0.19008,0.0,2023,6,7,16,32,16,392
45.79390,0.01750,-0.04673,0.00000,0.02989,0.97624,-0.19166,0.0,2023,6,7,16,32,16,404
45.79400,0.07000,0.21577,0.00000,0.02965,0.97612,-0.19374,0.0,2023,6,7,16,32,16,415
45.79410,-0.12250,0.09327,0.00000,0.03160,0.97710,-0.18861,0.0,2023,6,7,16,32,16,427
45.79420,0.07000,0.05827,0.00000,0.03123,0.97563,-0.19191,0.0,2023,6,7,16,32,16,438
45.79430,-0.05250,-0.16923,0.00000,0.03221,0.97637,-0.19203,0.0,2023,6,7,16,32,16,449
45.79440,0.03500,0.14577,0.00000,0.03099,0.97344,-0.19117,0.0,2023,6,7,16,32,16,461
45.79450,-0.12250,0.30327,0.00000,0.03013,0.97271,-0.19020,0.0,2023,6,7,16,32,16,472
45.79460,-0.01750,0.04078,0.00000,0.03148,0.97527,-0.19398,0.0,2023,6,7,16,32,16,484
45.79470,-0.14000,0.11077,0.00000,0.03221,0.97502,-0.19093,0.0,2023,6,7,16,32,16,495
45.79480,0.00000,0.14577,0.00000,0.03038,0.97405,-0.19044,0.0,2023,6,7,16,32,16,506
45.79490,0.03500,-0.02923,0.00000,0.02916,0.97417,-0.19264,0.0,2023,6,7,16,32,16,518
45.79500,0.12250,-0.13423,0.00000,0.02965,0.97563,-0.19276,0.0,2023,6,7,16,32,16,529
45.79510,0.08750,0.11077,0.00000,0.03074,0.97637,-0.19154,0.0,2023,6,7,16,32,16,541
45.79520,-0.07000,-0.04673,0.00000,0.03123,0.97661,-0.19093,0.0,2023,6,7,16,32,16,552
45.79530,0.10500,-0.04673,0.00000,0.03123,0.97454,-0.19178,0.0,2023,6,7,16,32,16,563
45.79540,-0.03500,-0.11673,0.00000,0.03038,0.97734,-0.19142,0.0,2023,6,7,16,32,16,575
45.79550,0.10500,0.12827,0.00000,0.02916,0.97795,-0.19130,0.0,2023,6,7,16,32,16,586
45.79560,0.14000,0.00577,0.00000,0.03135,0.97393,-0.19081,0.0,2023,6,7,16,32,16,598
45.79570,0.15750,-0.06423,0.00000,0.03123,0.97563,-0.19435,0.0,2023,6,7,16,32,16,609
45.79580,0.07000,-0.09923,0.00000,0.03148,0.97905,-0.18971,0.0,2023,6,7,16,32,16,620
45.79590,-0.03500,0.18077,0.00000,0.03135,0.97466,-0.19020,0.0,2023,6,7,16,32,16,632
45.79600,0.00000,0.00577,0.00000,0.03123,0.97563,-0.19117,0.0,2023,6,7,16,32,16,643
45.79610,-0.07000,-0.09923,0.00000,0.02952,0.97783,-0.18934,0.0,2023,6,7,16,32,16,655
45.79620,0.05250,-0.09923,0.00000,0.03001,0.97600,-0.19117,0.0,2023,6,7,16,32,16,666
45.79630,-0.08750,0.12827,0.00000,0.03038,0.97405,-0.19081,0.0,2023,6,7,16,32,16,677
45.79640,0.10500,-0.01173,0.00000,0.02965,0.97649,-0.19166,0.0,2023,6,7,16,32,16,689
45.79650,-0.12250,0.25077,0.00000,0.03062,0.97441,-0.19081,0.0,2023,6,7,16,32,16,700
45.79660,0.17500,0.00577,0.00000,0.03074,0.97380,-0.19020,0.0,2023,6,7,16,32,16,712
45.79670,-0.01750,-0.01173,0.00000,0.02904,0.97624,-0.19081,0.0,2023,6,7,16,32,16,723
45.79680,-0.14000,0.11077,0.00000,0.03294,0.97429,-0.19008,0.0,2023,6,7,16,32,16,734
45.79690,-0.15750,0.16327,0.00000,0.02721,0.97515,-0.18947,0.0,2023,6,7,16,32,16,746
45.79700,-0.05250,0.25077,0.00000,0.02916,0.97600,-0.19008,0.0,2023,6,7,16,32,16,757
45.79710,-0.01750,-0.01173,0.00000,0.03148,0.97698,-0.18983,0.0,2023,6,7,16,32,16,769
45.79720,0.08750,-0.04673,0.00000,0.02916,0.97515,-0.19178,0.0,2023,6,7,16,32,16,780
45.79730,0.05250,0.00577,0.00000,0.03013,0.97661,-0.19093,0.0,2023,6,7,16,32,16,791
45.79740,-0.01750,0.09327,0.00000,0.03013,0.97441,-0.18861,0.0,2023,6,7,16,32,16,803
45.79750,0.07000,0.05827,0.00000,0.03135,0.97307,-0.19166,0.0,2023,6,7,16,32,16,814
45.79760,-0.12250,-0.16923,0.00000,0.02965,0.97637,-0.19020,0.0,2023,6,7,16,32,16,826
45.79770,0.05250,0.23327,0.00000,0.02989,0.97685,-0.18983,0.0,2023,6,7,16,32,16,837
45.79780,-0.07000,0.04078,0.00000,0.03001,0.97588,-0.18849,0.0,2023,6,7,16,32,16,848
45.79790,-0.08750,0.07577,0.00000,0.03001,0.97698,-0.18983,0.0,2023,6,7,16,32,16,860
45.79800,0.01750,-0.01173,0.00000,0.03062,0.97490,-0.19239,0.0,2023,6,7,16,32,16,871
45.79810,-0.19250,-0.18673,0.00000,0.02989,0.97685,-0.18861,0.0,2023,6,7,16,32,16,883
45.79820,0.01750,-0.02923,0.00000,0.03160,0.97368,-0.18971,0.0,2023,6,7,16,32,16,894
45.79830,0.08750,-0.09923,0.00000,0.03184,0.97710,-0.19227,0.0,2023,6,7,16,32,16,905
45.79840,0.05250,0.05827,0.00000,0.03209,0.97502,-0.19056,0.0,2023,6,7,16,32,16,917
45.79850,-0.21000,-0.04673,0.00000,0.03172,0.97649,-0.18971,0.0,2023,6,7,16,32,16,928
45.79860,-0.08750,-0.08173,0.00000,0.03135,0.97466,-0.18947,0.0,2023,6,7,16,32,16,940
45.79870,-0.08750,0.25077,0.00000,0.03160,0.97649,-0.19032,0.0,2023,6,7,16,32,16,951
45.79880,-0.03500,0.07577,0.00000,0.02977,0.97637,-0.18800,0.0,2023,6,7,16,32,16,962
45.79890,0.19250,-0.20423,0.00000,0.03013,0.97502,-0.19227,0.0,2023,6,7,16,32,16,974
45.79900,-0.01750,-0.01173,0.00000,0.03209,0.97600,-0.19154,0.0,2023,6,7,16,32,16,985
45.79910,0.00000,0.02327,0.00000,0.03074,0.97515,-0.19032,0.0,2023,6,7,16,32,16,997
45.79920,0.07000,0.05827,0.00000,0.02916,0.97673,-0.19288,0.0,2023,6,7,16,32,16,8
45.79930,-0.14000,-0.09923,0.00000,0.03221,0.97734,-0.19178,0.0,2023,6,7,16,32,16,19
45.79940,0.05250,0.05827,0.00000,0.03001,0.97868,-0.19105,0.0,2023,6,7,16,32,16,31
45.79950,-0.14000,0.02327,0.00000,0.02818,0.97600,-0.19239,0.0,2023,6,7,16,32,17,2
45.79960,-0.19250,-0.04673,0.00000,0.03160,0.97710,-0.19020,0.0,2023,6,7,16,32,17,14
45.79970,-0.14000,0.05827,0.00000,0.03050,0.97502,-0.18703,0.0,2023,6,7,16,32,17,25
45.79980,0.08750,-0.11673,0.00000,0.03074,0.97685,-0.19056,0.0,2023,6,7,16,32,17,36
45.79990,0.10500,-0.04673,0.00000,0.03099,0.97624,-0.19117,0.0,2023,6,7,16,32,17,48
45.80000,0.00000,-0.02923,0.00000,0.02879,0.97344,-0.19056,0.0,2023,6,7,16,32,17,59
45.80010,-0.12250,0.02327,0.00000,0.03074,0.97539,-0.18959,0.0,2023,6,7,16,32,17,71
45.80020,-0.14000,0.11077,0.00000,0.03038,0.97698,-0.19069,0.0,2023,6,7,16,32,17,82
45.80030,0.03500,0.02327,0.00000,0.02940,0.97478,-0.19044,0.0,2023,6,7,16,32,17,93
45.80040,0.12250,-0.06423,0.00000,0.02965,0.97771,-0.18910,0.0,2023,6,7,16,32,17,105
45.80050,0.10500,0.04078,0.00000,0.03038,0.97649,-0.19288,0.0,2023,6,7,16,32,17,116
45.80060,-0.08750,-0.18673,0.00000,0.03026,0.97490,-0.19142,0.0,2023,6,7,16,32,17,128
45.80070,0.12250,0.09327,0.00000,0.02733,0.97661,-0.19117,0.0,2023,6,7,16,32,17,139
45.80080,-0.10500,0.12827,0.00000,0.02843,0.97380,-0.19069,0.0,2023,6,7,16,32,17,150
45.80090,0.05250,-0.06423,0.00000,0.03196,0.97576,-0.18995,0.0,2023,6,7,16,32,17,162
45.80100,-0.17500,-0.11673,0.00000,0.03087,0.97600,-0.18922,0.0,2023,6,7,16,32,17,173
45.80110,-0.05250,0.19827,0.00000,0.03062,0.97637,-0.19215,0.0,2023,6,7,16,32,17,185
45.80120,0.07000,-0.08173,0.00000,0.03074,0.97722,-0.19020,0.0,2023,6,7,16,32,17,196
45.80130,0.14000,-0.02923,0.00000,0.03123,0.97685,-0.19191,0.0,2023,6,7,16,32,17,207
45.80140,0.08750,0.05827,0.00000,0.03038,0.97527,-0.18800,0.0,2023,6,7,16,32,17,219
45.80150,-0.07000,0.12827,0.00000,0.03245,0.97771,-0.19069,0.0,2023,6,7,16,32,17,230
45.80160,-0.10500,-0.06423,0.00000,0.03123,0.97637,-0.18934,0.0,2023,6,7,16,32,17,242
45.80170,-0.10500,0.04078,0.00000,0.03123,0.97722,-0.18995,0.0,2023,6,7,16,32,17,253
45.80180,0.15750,-0.02923,0.00000,0.03087,0.97393,-0.19288,0.0,2023,6,7,16,32,17,264
45.80190,-0.08750,0.23327,0.00000,0.03099,0.97771,-0.19056,0.0,2023,6,7,16,32,17,276
45.80200,-0.08750,0.07577,0.00000,0.02940,0.97576,-0.18995,0.0,2023,6,7,16,32,17,287
45.80210,0.01750,0.07577,0.00000,0.03062,0.97661,-0.19203,0.0,2023,6,7,16,32,17,299
45.80220,-0.14000,0.11077,0.00000,0.03270,0.97576,-0.19032,0.0,2023,6,7,16,32,17,310
45.80230,-0.03500,-0.08173,0.00000,0.03221,0.97600,-0.18861,0.0,2023,6,7,16,32,17,321
45.80240,-0.15750,-0.16923,0.00000,0.03062,0.97527,-0.18983,0.0,2023,6,7,16,32,17,333
45.80250,0.01750,0.04078,0.00000,0.03294,0.97588,-0.19252,0.0,2023,6,7,16,32,17,344
45.80260,-0.24500,0.09327,0.00000,0.03099,0.97795,-0.19142,0.0,2023,6,7,16,32,17,356
45.80270,0.07000,-0.18673,0.00000,0.03013,0.97637,-0.19435,0.0,2023,6,7,16,32,17,367
45.80280,0.01750,-0.04673,0.00000,0.03233,0.97576,-0.19044,0.0,2023,6,7,16,32,17,378
45.80290,-0.08750,-0.16923,0.00000,0.02940,0.97624,-0.18861,0.0,2023,6,7,16,32,17,390
45.80300,0.01750,-0.22173,0.00000,0.02928,0.97661,-0.19093,0.0,2023,6,7,16,32,17,401
45.80310,-0.24500,0.07577,0.00000,0.03013,0.97527,-0.19044,0.0,2023,6,7,16,32,17,413
45.80320,0.07000,-0.09923,0.00000,0.03074,0.97722,-0.19105,0.0,2023,6,7,16,32,17,424
45.80330,-0.07000,0.11077,0.00000,0.02940,0.97698,-0.18971,0.0,2023,6,7,16,32,17,435
45.80340,-0.03500,0.12827,0.00000,0.03026,0.97771,-0.19227,0.0,2023,6,7,16,32,17,447
45.80350,0.03500,0.19827,0.00000,0.03038,0.97490,-0.18898,0.0,2023,6,7,16,32,17,458
45.80360,0.03500,0.07577,0.00000,0.02904,0.97649,-0.19154,0.0,2023,6,7,16,32,17,470
45.80370,0.07000,-0.02923,0.00000,0.03050,0.97600,-0.19044,0.0,2023,6,7,16,32,17,481
45.80380,0.05250,0.18077,0.00000,0.03148,0.97673,-0.18849,0.0,2023,6,7,16,32,17,492
45.80390,0.00000,0.12827,0.00000,0.03013,0.97600,-0.19117,0.0,2023,6,7,16,32,17,504
45.80400,0.00000,-0.01173,0.00000,0.02989,0.97563,-0.19276,0.0,2023,6,7,16,32,17,515
45.80410,0.05250,-0.06423,0.00000,0.02904,0.97307,-0.19020,0.0,2023,6,7,16,32,17,527
45.80420,0.08750,0.23327,0.00000,0.02879,0.97649,-0.18983,0.0,2023,6,7,16,32,17,538
45.80430,0.05250,-0.02923,0.00000,0.03404,0.97478,-0.19130,0.0,2023,6,7,16,32,17,549
45.80440,-0.01750,0.25077,0.00000,0.03013,0.97600,-0.19056,0.0,2023,6,7,16,32,17,561
45.80450,-0.01750,0.05827,0.00000,0.02952,0.97624,-0.19154,0.0,2023,6,7,16,32,17,572
45.80460,0.03500,0.05827,0.00000,0.03062,0.97698,-0.19191,0.0,2023,6,7,16,32,17,584
45.80470,-0.15750,-0.09923,0.00000,0.03196,0.97637,-0.19191,0.0,2023,6,7,16,32,17,595
45.80480,0.01750,0.18077,0.00000,0.02965,0.97271,-0.18959,0.0,2023,6,7,16,32,17,606
45.80490,-0.07000,0.07577,0.00000,0.03282,0.97612,-0.19496,0.0,2023,6,7,16,32,17,618
45.80500,-0.07000,0.09327,0.00000,0.03184,0.97563,-0.19374,0.0,2023,6,7,16,32,17,629
45.80510,-0.01750,-0.06423,0.00000,0.03160,0.97478,-0.19032,0.0,2023,6,7,16,32,17,641
45.80520,0.01750,0.04078,0.00000,0.03074,0.97612,-0.19300,0.0,2023,6,7,16,32,17,652
45.80530,-0.08750,0.21577,0.00000,0.03087,0.97502,-0.19178,0.0,2023,6,7,16,32,17,663
45.80540,0.05250,-0.08173,0.00000,0.03111,0.97588,-0.19313,0.0,2023,6,7,16,32,17,675
45.80550,0.01750,-0.02923,0.00000,0.03050,0.97515,-0.19056,0.0,2023,6,7,16,32,17,686
45.80560,-0.01750,-0.11673,0.00000,0.03160,0.97380,-0.18983,0.0,2023,6,7,16,32,17,698
45.80570,-0.03500,-0.08173,0.00000,0.03099,0.97551,-0.19252,0.0,2023,6,7,16,32,17,709
45.80580,0.05250,0.18077,0.00000,0.03160,0.97454,-0.19154,0.0,2023,6,7,16,32,17,720
45.80590,-0.03500,-0.04673,0.00000,0.02952,0.97502,-0.19081,0.0,2023,6,7,16,32,17,732
45.80600,0.10500,0.19827,0.00000,0.03294,0.97588,-0.19349,0.0,2023,6,7,16,32,17,743
45.80610,0.00000,0.04078,0.00000,0.03172,0.97588,-0.19276,0.0,2023,6,7,16,32,17,755
45.80620,-0.10500,0.14577,0.00000,0.02782,0.97624,-0.18922,0.0,2023,6,7,16,32,17,766
45.80630,0.03500,-0.01173,0.00000,0.03099,0.97490,-0.19178,0.0,2023,6,7,16,32,17,777
45.80640,0.10500,-0.02923,0.00000,0.03038,0.97588,-0.19288,0.0,2023,6,7,16,32,17,789
45.80650,-0.03500,0.14577,0.00000,0.02757,0.97624,-0.18995,0.0,2023,6,7,16,32,17,800
45.80660,-0.17500,0.04078,0.00000,0.03172,0.97539,-0.19130,0.0,2023,6,7,16,32,17,812
45.80670,-0.01750,0.07577,0.00000,0.02965,0.97551,-0.19215,0.0,2023,6,7,16,32,17,823
45.80680,0.07000,0.19827,0.00000,0.03001,0.97441,-0.19130,0.0,2023,6,7,16,32,17,834
45.80690,-0.07000,0.25077,0.00000,0.03099,0.97454,-0.19020,0.0,2023,6,7,16,32,17,846
45.80700,-0.15750,-0.09923,0.00000,0.03148,0.97539,-0.19081,0.0,2023,6,7,16,32,17,857
45.80710,-0.10500,0.04078,0.00000,0.03001,0.97710,-0.19264,0.0,2023,6,7,16,32,17,869
45.80720,0.07000,-0.09923,0.00000,0.03038,0.97649,-0.19227,0.0,2023,6,7,16,32,17,880
45.80730,0.10500,0.16327,0.00000,0.03196,0.97661,-0.19130,0.0,2023,6,7,16,32,17,891
45.80740,-0.01750,-0.01173,0.00000,0.03196,0.97551,-0.19130,0.0,2023,6,7,16,32,17,903
45.80750,0.17500,0.09327,0.00000,0.02965,0.97441,-0.19239,0.0,2023,6,7,16,32,17,914
45.80760,0.07000,-0.15173,0.00000,0.02965,0.97624,-0.19166,0.0,2023,6,7,16,32,17,926
45.80770,-0.03500,0.07577,0.00000,0.03038,0.97673,-0.19117,0.0,2023,6,7,16,32,17,937
45.80780,0.05250,0.02327,0.00000,0.03013,0.97551,-0.19325,0.0,2023,6,7,16,32,17,948
45.80790,0.07000,0.14577,0.00000,0.02867,0.97600,-0.19044,0.0,2023,6,7,16,32,17,960
45.80800,0.12250,-0.04673,0.00000,0.03099,0.97588,-0.19166,0.0,2023,6,7,16,32,17,971
45.80810,-0.03500,-0.08173,0.00000,0.03038,0.97307,-0.19325,0.0,2023,6,7,16,32,17,983
45.80820,-0.12250,0.02327,0.00000,0.03038,0.97661,-0.19166,0.0,2023,6,7,16,32,17,994
45.80830,0.01750,0.12827,0.00000,0.03123,0.97624,-0.19313,0.0,2023,6,7,16,32,17,5
45.80840,-0.03500,-0.18673,0.00000,0.03148,0.97502,-0.19081,0.0,2023,6,7,16,32,17,17
45.80850,-0.10500,0.00577,0.00000,0.02965,0.97893,-0.19227,0.0,2023,6,7,16,32,18,8
45.80860,-0.24500,0.02327,0.00000,0.02989,0.97649,-0.19313,0.0,2023,6,7,16,32,18,20
45.80870,-0.07000,0.07577,0.00000,0.03087,0.97624,-0.19142,0.0,2023,6,7,16,32,18,31
45.80880,-0.15750,0.26827,0.00000,0.03294,0.97600,-0.19203,0.0,2023,6,7,16,32,18,42
45.80890,0.10500,-0.13423,0.00000,0.02965,0.97710,-0.19252,0.0,2023,6,7,16,32,18,54
45.80900,-0.17500,0.18077,0.00000,0.03367,0.97502,-0.19215,0.0,2023,6,7,16,32,18,65
45.80910,-0.05250,-0.04673,0.00000,0.03087,0.97576,-0.19215,0.0,2023,6,7,16,32,18,77
45.80920,0.00000,-0.16923,0.00000,0.03123,0.97746,-0.19154,0.0,2023,6,7,16,32,18,88
45.80930,-0.12250,-0.09923,0.00000,0.03087,0.97368,-0.19349,0.0,2023,6,7,16,32,18,99
45.80940,0.08750,0.04078,0.00000,0.03440,0.97527,-0.19166,0.0,2023,6,7,16,32,18,111
45.80950,0.10500,-0.11673,0.00000,0.03123,0.97637,-0.19117,0.0,2023,6,7,16,32,18,122
45.80960,0.12250,-0.06423,0.00000,0.03026,0.97734,-0.19081,0.0,2023,6,7,16,32,18,134
45.80970,-0.07000,0.05827,0.00000,0.03050,0.97685,-0.19032,0.0,2023,6,7,16,32,18,145
45.80980,-0.22750,0.11077,0.00000,0.03379,0.97795,-0.19227,0.0,2023,6,7,16,32,18,156
45.80990,0.08750,-0.09923,0.00000,0.03111,0.97649,-0.18995,0.0,2023,6,7,16,32,18,168
45.81000,0.03500,0.00577,0.00000,0.03013,0.97454,-0.19288,0.0,2023,6,7,16,32,18,179
45.81010,-0.19250,-0.01173,0.00000,0.03013,0.97539,-0.19142,0.0,2023,6,7,16,32,18,191
45.81020,0.24500,-0.04673,0.00000,0.03074,0.97441,-0.19178,0.0,2023,6,7,16,32,18,202
45.81030,-0.10500,0.14577,0.00000,0.03074,0.97466,-0.19215,0.0,2023,6,7,16,32,18,213
45.81040,-0.05250,0.14577,0.00000,0.03184,0.97576,-0.18727,0.0,2023,6,7,16,32,18,225
45.81050,0.00000,-0.02923,0.00000,0.02977,0.97685,-0.19252,0.0,2023,6,7,16,32,18,236
45.81060,0.01750,0.19827,0.00000,0.03209,0.97441,-0.19300,0.0,2023,6,7,16,32,18,248
45.81070,0.01750,0.18077,0.00000,0.03001,0.97368,-0.18995,0.0,2023,6,7,16,32,18,259
45.81080,0.14000,-0.16923,0.00000,0.02879,0.97515,-0.19191,0.0,2023,6,7,16,32,18,270
45.81090,-0.05250,-0.04673,0.00000,0.03318,0.97502,-0.19459,0.0,2023,6,7,16,32,18,282
45.81100,0.00000,0.25077,0.00000,0.03026,0.97441,-0.19313,0.0,2023,6,7,16,32,18,293
45.81110,-0.08750,0.05827,0.00000,0.03135,0.97429,-0.19130,0.0,2023,6,7,16,32,18,305
45.81120,-0.07000,-0.09923,0.00000,0.03099,0.97563,-0.19142,0.0,2023,6,7,16,32,18,316
45.81130,0.12250,0.00577,0.00000,0.03074,0.97600,-0.19300,0.0,2023,6,7,16,32,18,327
45.81140,-0.15750,0.05827,0.00000,0.03050,0.97685,-0.19105,0.0,2023,6,7,16,32,18,339
45.81150,0.07000,-0.08173,0.00000,0.02818,0.97820,-0.19142,0.0,2023,6,7,16,32,18,350
45.81160,-0.03500,0.21577,0.00000,0.03074,0.97746,-0.19117,0.0,2023,6,7,16,32,18,362
45.81170,0.08750,-0.04673,0.00000,0.03331,0.97612,-0.19142,0.0,2023,6,7,16,32,18,373
45.81180,-0.01750,-0.02923,0.00000,0.03184,0.97173,-0.19142,0.0,2023,6,7,16,32,18,384
45.81190,-0.12250,0.00577,0.00000,0.02977,0.97502,-0.19056,0.0,2023,6,7,16,32,18,396
45.81200,0.19250,-0.06423,0.00000,0.03087,0.97624,-0.19203,0.0,2023,6,7,16,32,18,407
45.81210,0.03500,0.00577,0.00000,0.03050,0.97637,-0.19093,0.0,2023,6,7,16,32,18,419
45.81220,-0.07000,0.16327,0.00000,0.03209,0.97637,-0.19093,0.0,2023,6,7,16,32,18,430
45.81230,-0.08750,-0.06423,0.00000,0.03099,0.97551,-0.19496,0.0,2023,6,7,16,32,18,441
45.81240,-0.12250,0.09327,0.00000,0.03184,0.97844,-0.19105,0.0,2023,6,7,16,32,18,453
45.81250,-0.07000,-0.09923,0.00000,0.02928,0.97466,-0.19008,0.0,2023,6,7,16,32,18,464
45.81260,-0.03500,-0.15173,0.00000,0.03001,0.97429,-0.19032,0.0,2023,6,7,16,32,18,476
45.81270,0.00000,0.07577,0.00000,0.03026,0.97527,-0.19093,0.0,2023,6,7,16,32,18,487
45.81280,-0.08750,-0.06423,0.00000,0.03074,0.97649,-0.19203,0.0,2023,6,7,16,32,18,498
45.81290,-0.10500,0.07577,0.00000,0.03026,0.97319,-0.19166,0.0,2023,6,7,16,32,18,510
45.81300,-0.03500,-0.01173,0.00000,0.03148,0.97551,-0.19081,0.0,2023,6,7,16,32,18,521
45.81310,0.08750,0.00577,0.00000,0.03026,0.97527,-0.19069,0.0,2023,6,7,16,32,18,533
45.81320,-0.28000,0.07577,0.00000,0.03257,0.97551,-0.19117,0.0,2023,6,7,16,32,18,544
45.81330,-0.10500,0.04078,0.00000,0.03123,0.97563,-0.19325,0.0,2023,6,7,16,32,18,555
45.81340,-0.10500,0.11077,0.00000,0.03062,0.97771,-0.19069,0.0,2023,6,7,16,32,18,567
45.81350,0.03500,0.05827,0.00000,0.03013,0.97600,-0.19093,0.0,2023,6,7,16,32,18,578
45.81360,0.03500,0.18077,0.00000,0.02928,0.97527,-0.19215,0.0,2023,6,7,16,32,18,590
45.81370,0.00000,0.05827,0.00000,0.03050,0.97539,-0.19081,0.0,2023,6,7,16,32,18,601
45.81380,0.17500,-0.13423,0.00000,0.02855,0.97649,-0.19227,0.0,2023,6,7,16,32,18,612
45.81390,0.00000,0.00577,0.00000,0.03001,0.97624,-0.19142,0.0,2023,6,7,16,32,18,624
45.81400,0.12250,-0.09923,0.00000,0.03233,0.97746,-0.19056,0.0,2023,6,7,16,32,18,635
45.81410,-0.07000,-0.18673,0.00000,0.02989,0.97649,-0.19239,0.0,2023,6,7,16,32,18,647
45.81420,-0.01750,0.28577,0.00000,0.03294,0.97466,-0.19117,0.0,2023,6,7,16,32,18,658
45.81430,0.05250,-0.08173,0.00000,0.03087,0.97478,-0.19276,0.0,2023,6,7,16,32,18,669
45.81440,-0.08750,0.14577,0.00000,0.02989,0.97710,-0.19264,0.0,2023,6,7,16,32,18,681
45.81450,0.07000,-0.15173,0.00000,0.03026,0.97734,-0.19191,0.0,2023,6,7,16,32,18,692
45.81460,0.14000,-0.16923,0.00000,0.03123,0.97344,-0.19227,0.0,2023,6,7,16,32,18,704
45.81470,-0.15750,0.04078,0.00000,0.03038,0.97685,-0.19398,0.0,2023,6,7,16,32,18,715
45.81480,0.10500,-0.01173,0.00000,0.03148,0.97771,-0.19252,0.0,2023,6,7,16,32,18,726
45.81490,0.05250,0.00577,0.00000,0.03050,0.97637,-0.19361,0.0,2023,6,7,16,32,18,738
45.81500,0.10500,0.04078,0.00000,0.03038,0.97539,-0.19178,0.0,2023,6,7,16,32,18,749
45.81510,-0.08750,-0.02923,0.00000,0.03062,0.97624,-0.19386,0.0,2023,6,7,16,32,18,761
45.81520,-0.03500,0.19827,0.00000,0.03099,0.97600,-0.19044,0.0,2023,6,7,16,32,18,772
45.81530,-0.03500,0.02327,0.00000,0.02891,0.97649,-0.19044,0.0,2023,6,7,16,32,18,783
45.81540,-0.03500,0.04078,0.00000,0.03074,0.97661,-0.19154,0.0,2023,6,7,16,32,18,795
45.81550,-0.05250,0.11077,0.00000,0.03111,0.97454,-0.19154,0.0,2023,6,7,16,32,18,806
45.81560,0.05250,-0.09923,0.00000,0.03087,0.97600,-0.19325,0.0,2023,6,7,16,32,18,818
45.81570,-0.03500,0.02327,0.00000,0.03099,0.97563,-0.19508,0.0,2023,6,7,16,32,18,829
45.81580,-0.08750,0.11077,0.00000,0.03245,0.97454,-0.19386,0.0,2023,6,7,16,32,18,840
45.81590,-0.01750,0.02327,0.00000,0.03257,0.97380,-0.19300,0.0,2023,6,7,16,32,18,852
45.81600,0.01750,-0.04673,0.00000,0.02916,0.97588,-0.19203,0.0,2023,6,7,16,32,18,863
45.81610,0.05250,0.19827,0.00000,0.03026,0.97649,-0.19227,0.0,2023,6,7,16,32,18,875
45.81620,-0.01750,0.04078,0.00000,0.03062,0.97527,-0.19361,0.0,2023,6,7,16,32,18,886
45.81630,0.08750,0.05827,0.00000,0.03026,0.97734,-0.19374,0.0,2023,6,7,16,32,18,897
45.81640,-0.10500,-0.08173,0.00000,0.03013,0.97771,-0.19288,0.0,2023,6,7,16,32,18,909
45.81650,-0.21000,0.04078,0.00000,0.03160,0.97771,-0.19020,0.0,2023,6,7,16,32,18,920
45.81660,-0.07000,0.09327,0.00000,0.03026,0.97539,-0.19215,0.0,2023,6,7,16,32,18,932
45.81670,0.10500,0.21577,0.00000,0.03001,0.97661,-0.19142,0.0,2023,6,7,16,32,18,943
45.81680,-0.14000,0.07577,0.00000,0.03355,0.97405,-0.19154,0.0,2023,6,7,16,32,18,954
45.81690,-0.01750,0.11077,0.00000,0.02952,0.97746,-0.19264,0.0,2023,6,7,16,32,18,966
45.81700,0.00000,0.12827,0.00000,0.03123,0.97490,-0.18947,0.0,2023,6,7,16,32,18,977
45.81710,-0.14000,0.12827,0.00000,0.03172,0.97576,-0.19264,0.0,2023,6,7,16,32,18,989
45.81720,-0.03500,0.16327,0.00000,0.03282,0.97502,-0.19422,0.0,2023,6,7,16,32,18,0
45.81730,-0.01750,0.12827,0.00000,0.02965,0.97649,-0.19239,0.0,2023,6,7,16,32,18,11
45.81740,0.07000,0.02327,0.00000,0.02989,0.97527,-0.19398,0.0,2023,6,7,16,32,19,3
45.81750,0.35000,-0.11673,0.00000,0.03221,0.97588,-0.19105,0.0,2023,6,7,16,32,19,14
45.81760,0.14000,-0.02923,0.00000,0.03001,0.97502,-0.19483,0.0,2023,6,7,16,32,19,26
45.81770,-0.22750,-0.11673,0.00000,0.03087,0.97539,-0.19410,0.0,2023,6,7,16,32,19,37
45.81780,-0.10500,0.04078,0.00000,0.03050,0.97478,-0.19325,0.0,2023,6,7,16,32,19,48
45.81790,0.05250,0.05827,0.00000,0.03074,0.97795,-0.19337,0.0,2023,6,7,16,32,19,60
45.81800,0.07000,-0.08173,0.00000,0.03062,0.97454,-0.19154,0.0,2023,6,7,16,32,19,71
45.81810,-0.07000,-0.22173,0.00000,0.03148,0.97820,-0.19105,0.0,2023,6,7,16,32,19,83
45.81820,-0.03500,-0.04673,0.00000,0.03074,0.97417,-0.19276,0.0,2023,6,7,16,32,19,94
45.81830,-0.07000,0.02327,0.00000,0.03123,0.97576,-0.19337,0.0,2023,6,7,16,32,19,105
45.81840,0.15750,0.05827,0.00000,0.03184,0.97368,-0.19264,0.0,2023,6,7,16,32,19,117
45.81850,-0.07000,0.00577,0.00000,0.03087,0.97563,-0.19374,0.0,2023,6,7,16,32,19,128
45.81860,0.05250,-0.08173,0.00000,0.02989,0.97563,-0.19325,0.0,2023,6,7,16,32,19,140
45.81870,0.01750,-0.01173,0.00000,0.03221,0.97624,-0.19276,0.0,2023,6,7,16,32,19,151
45.81880,0.07000,0.18077,0.00000,0.03148,0.97746,-0.19386,0.0,2023,6,7,16,32,19,162
45.81890,0.01750,-0.15173,0.00000,0.03172,0.97576,-0.19386,0.0,2023,6,7,16,32,19,174
45.81900,-0.28000,0.26827,0.00000,0.02745,0.97807,-0.19227,0.0,2023,6,7,16,32,19,185
45.81910,-0.03500,-0.13423,0.00000,0.03062,0.97515,-0.19081,0.0,2023,6,7,16,32,19,197
45.81920,0.01750,-0.02923,0.00000,0.03123,0.97698,-0.19508,0.0,2023,6,7,16,32,19,208
45.81930,-0.22750,-0.09923,0.00000,0.03001,0.97478,-0.19117,0.0,2023,6,7,16,32,19,219
45.81940,0.00000,-0.09923,0.00000,0.02904,0.97405,-0.19178,0.0,2023,6,7,16,32,19,231
45.81950,-0.05250,0.12827,0.00000,0.03087,0.97685,-0.19227,0.0,2023,6,7,16,32,19,242
45.81960,0.05250,-0.25673,0.00000,0.03062,0.97942,-0.19557,0.0,2023,6,7,16,32,19,254
45.81970,-0.05250,-0.18673,0.00000,0.03026,0.97661,-0.19215,0.0,2023,6,7,16,32,19,265
45.81980,-0.01750,-0.08173,0.00000,0.03184,0.97502,-0.19313,0.0,2023,6,7,16,32,19,276
45.81990,0.15750,0.09327,0.00000,0.03050,0.97624,-0.19178,0.0,2023,6,7,16,32,19,288
45.82000,-0.17500,0.16327,0.00000,0.03038,0.97600,-0.19032,0.0,2023,6,7,16,32,19,299
45.82010,-0.01750,0.21577,0.00000,0.03050,0.97551,-0.19203,0.0,2023,6,7,16,32,19,311
45.82020,-0.01750,0.12827,0.00000,0.02916,0.97600,-0.19325,0.0,2023,6,7,16,32,19,322
45.82030,-0.05250,0.14577,0.00000,0.02940,0.97710,-0.19056,0.0,2023,6,7,16,32,19,333
45.82040,0.15750,-0.13423,0.00000,0.02940,0.97527,-0.19020,0.0,2023,6,7,16,32,19,345
45.82050,0.17500,-0.20423,0.00000,0.02855,0.97527,-0.19325,0.0,2023,6,7,16,32,19,356
45.82060,0.01750,-0.04673,0.00000,0.02916,0.97612,-0.19264,0.0,2023,6,7,16,32,19,368
45.82070,-0.01750,0.07577,0.00000,0.03038,0.97588,-0.19166,0.0,2023,6,7,16,32,19,379
45.82080,0.03500,0.02327,0.00000,0.03148,0.97637,-0.19605,0.0,2023,6,7,16,32,19,390
45.82090,0.05250,-0.08173,0.00000,0.02952,0.97490,-0.19386,0.0,2023,6,7,16,32,19,402
45.82100,0.03500,0.23327,0.00000,0.03062,0.97490,-0.19081,0.0,2023,6,7,16,32,19,413
45.82110,-0.05250,0.07577,0.00000,0.02867,0.97612,-0.19349,0.0,2023,6,7,16,32,19,425
45.82120,0.10500,0.18077,0.00000,0.02916,0.97478,-0.19471,0.0,2023,6,7,16,32,19,436
45.82130,-0.01750,0.04078,0.00000,0.03172,0.97637,-0.19361,0.0,2023,6,7,16,32,19,447
45.82140,-0.21000,-0.01173,0.00000,0.02916,0.97393,-0.19227,0.0,2023,6,7,16,32,19,459
45.82150,-0.15750,0.04078,0.00000,0.03209,0.97673,-0.19544,0.0,2023,6,7,16,32,19,470
45.82160,0.05250,0.23327,0.00000,0.03135,0.97441,-0.19337,0.0,2023,6,7,16,32,19,482
45.82170,-0.01750,0.05827,0.00000,0.02989,0.97673,-0.19361,0.0,2023,6,7,16,32,19,493
45.82180,-0.10500,-0.01173,0.00000,0.03221,0.97368,-0.19410,0.0,2023,6,7,16,32,19,504
45.82190,-0.12250,0.30327,0.00000,0.03038,0.97698,-0.19203,0.0,2023,6,7,16,32,19,516
45.82200,0.08750,0.05827,0.00000,0.03087,0.97710,-0.19142,0.0,2023,6,7,16,32,19,527
45.82210,-0.03500,-0.04673,0.00000,0.03270,0.97710,-0.19166,0.0,2023,6,7,16,32,19,539
45.82220,-0.05250,0.12827,0.00000,0.02928,0.97624,-0.19313,0.0,2023,6,7,16,32,19,550
45.82230,-0.22750,0.19827,0.00000,0.03184,0.97649,-0.19386,0.0,2023,6,7,16,32,19,561
45.82240,0.08750,0.07577,0.00000,0.03050,0.97661,-0.19679,0.0,2023,6,7,16,32,19,573
45.82250,0.05250,-0.11673,0.00000,0.03282,0.97539,-0.19227,0.0,2023,6,7,16,32,19,584
45.82260,0.05250,-0.06423,0.00000,0.02904,0.97417,-0.19252,0.0,2023,6,7,16,32,19,596
45.82270,-0.19250,0.00577,0.00000,0.03099,0.97600,-0.19300,0.0,2023,6,7,16,32,19,607
45.82280,-0.01750,0.14577,0.00000,0.02806,0.97576,-0.19325,0.0,2023,6,7,16,32,19,618
45.82290,0.07000,0.02327,0.00000,0.02843,0.97539,-0.19276,0.0,2023,6,7,16,32,19,630
45.82300,0.08750,0.07577,0.00000,0.02867,0.97588,-0.19435,0.0,2023,6,7,16,32,19,641
45.82310,-0.03500,0.05827,0.00000,0.03062,0.97734,-0.19337,0.0,2023,6,7,16,32,19,653
45.82320,0.10500,0.05827,0.00000,0.03135,0.97649,-0.19447,0.0,2023,6,7,16,32,19,664
45.82330,0.17500,-0.11673,0.00000,0.03148,0.97515,-0.18983,0.0,2023,6,7,16,32,19,675
45.82340,-0.08750,-0.01173,0.00000,0.03196,0.97759,-0.19325,0.0,2023,6,7,16,32,19,687
45.82350,-0.01750,-0.13423,0.00000,0.03209,0.97722,-0.19227,0.0,2023,6,7,16,32,19,698
45.82360,-0.28000,0.19827,0.00000,0.03099,0.97539,-0.19264,0.0,2023,6,7,16,32,19,710
45.82370,0.01750,0.00577,0.00000,0.02928,0.97746,-0.19276,0.0,2023,6,7,16,32,19,721
45.82380,-0.01750,0.02327,0.00000,0.03123,0.97673,-0.19154,0.0,2023,6,7,16,32,19,732
45.82390,0.00000,-0.01173,0.00000,0.03123,0.97783,-0.19337,0.0,2023,6,7,16,32,19,744
45.82400,0.10500,0.04078,0.00000,0.03062,0.97649,-0.19154,0.0,2023,6,7,16,32,19,755
45.82410,-0.05250,0.05827,0.00000,0.03221,0.97551,-0.19349,0.0,2023,6,7,16,32,19,767
45.82420,0.01750,-0.02923,0.00000,0.03111,0.97515,-0.19166,0.0,2023,6,7,16,32,19,778
45.82430,-0.22750,0.09327,0.00000,0.03233,0.97649,-0.19117,0.0,2023,6,7,16,32,19,789
45.82440,-0.19250,-0.01173,0.00000,0.02891,0.97637,-0.19410,0.0,2023,6,7,16,32,19,801
45.82450,-0.14000,0.09327,0.00000,0.03209,0.97551,-0.19313,0.0,2023,6,7,16,32,19,812
45.82460,-0.31500,0.21577,0.00000,0.02806,0.97710,-0.19520,0.0,2023,6,7,16,32,19,824
45.82470,-0.03500,-0.02923,0.00000,0.03233,0.97380,-0.19398,0.0,2023,6,7,16,32,19,835
45.82480,-0.17500,-0.02923,0.00000,0.03111,0.97759,-0.19300,0.0,2023,6,7,16,32,19,846
45.82490,-0.10500,-0.04673,0.00000,0.03257,0.97417,-0.18995,0.0,2023,6,7,16,32,19,858
45.82500,-0.07000,0.21577,0.00000,0.03123,0.97490,-0.19300,0.0,2023,6,7,16,32,19,869
45.82510,-0.28000,0.19827,0.00000,0.03209,0.97539,-0.19227,0.0,2023,6,7,16,32,19,881
45.82520,0.15750,-0.08173,0.00000,0.03062,0.97612,-0.19276,0.0,2023,6,7,16,32,19,892
45.82530,0.07000,-0.02923,0.00000,0.03148,0.97771,-0.19386,0.0,2023,6,7,16,32,19,903
45.82540,0.08750,0.07577,0.00000,0.02940,0.97685,-0.19325,0.0,2023,6,7,16,32,19,915
45.82550,0.08750,-0.20423,0.00000,0.03196,0.97649,-0.19313,0.0,2023,6,7,16,32,19,926
45.82560,-0.08750,-0.13423,0.00000,0.03123,0.97734,-0.19203,0.0,2023,6,7,16,32,19,938
45.82570,-0.03500,-0.09923,0.00000,0.03074,0.97441,-0.19447,0.0,2023,6,7,16,32,19,949
45.82580,-0.12250,-0.09923,0.00000,0.03013,0.97661,-0.19288,0.0,2023,6,7,16,32,19,960
45.82590,-0.01750,0.26827,0.00000,0.02904,0.97539,-0.19361,0.0,2023,6,7,16,32,19,972
45.82600,0.07000,-0.13423,0.00000,0.03379,0.97710,-0.19264,0.0,2023,6,7,16,32,19,983
45.82610,0.14000,-0.01173,0.00000,0.03184,0.97527,-0.19227,0.0,2023,6,7,16,32,19,995
45.82620,0.21000,-0.13423,0.00000,0.03172,0.97807,-0.19252,0.0,2023,6,7,16,32,19,6
45.82630,-0.07000,-0.29173,0.00000,0.03196,0.97600,-0.19239,0.0,2023,6,7,16,32,19,17
45.82640,0.19250,-0.18673,0.00000,0.02940,0.97417,-0.19325,0.0,2023,6,7,16,32,20,9
45.82650,-0.03500,0.00577,0.00000,0.03123,0.97600,-0.19422,0.0,2023,6,7,16,32,20,20
45.82660,-0.15750,0.04078,0.00000,0.03306,0.97380,-0.18983,0.0,2023,6,7,16,32,20,32
45.82670,0.08750,-0.16923,0.00000,0.03038,0.97661,-0.19252,0.0,2023,6,7,16,32,20,43
45.82680,0.00000,-0.01173,0.00000,0.03087,0.97710,-0.19276,0.0,2023,6,7,16,32,20,54
45.82690,0.05250,-0.02923,0.00000,0.02989,0.97502,-0.18861,0.0,2023,6,7,16,32,20,66
45.82700,0.08750,-0.13423,0.00000,0.02928,0.97600,-0.19056,0.0,2023,6,7,16,32,20,77
45.82710,-0.12250,0.07577,0.00000,0.03013,0.97624,-0.19325,0.0,2023,6,7,16,32,20,89
45.82720,0.00000,-0.09923,0.00000,0.03282,0.97734,-0.19178,0.0,2023,6,7,16,32,20,100
45.82730,-0.10500,-0.11673,0.00000,0.03135,0.97588,-0.18995,0.0,2023,6,7,16,32,20,111
45.82740,0.00000,-0.01173,0.00000,0.03123,0.97527,-0.19252,0.0,2023,6,7,16,32,20,123
45.82750,-0.10500,-0.01173,0.00000,0.02879,0.97734,-0.19239,0.0,2023,6,7,16,32,20,134
45.82760,0.01750,-0.06423,0.00000,0.03074,0.97563,-0.18861,0.0,2023,6,7,16,32,20,146
45.82770,-0.01750,0.02327,0.00000,0.03062,0.97515,-0.19105,0.0,2023,6,7,16,32,20,157
45.82780,-0.07000,0.14577,0.00000,0.03050,0.97502,-0.19020,0.0,2023,6,7,16,32,20,168
45.82790,-0.05250,0.09327,0.00000,0.03013,0.97466,-0.19069,0.0,2023,6,7,16,32,20,180
45.82800,-0.07000,0.11077,0.00000,0.02879,0.97600,-0.19227,0.0,2023,6,7,16,32,20,191
45.82810,0.19250,-0.15173,0.00000,0.03172,0.97649,-0.19166,0.0,2023,6,7,16,32,20,203
45.82820,-0.07000,0.07577,0.00000,0.03050,0.97368,-0.18934,0.0,2023,6,7,16,32,20,214
45.82830,-0.10500,0.11077,0.00000,0.03209,0.97527,-0.19117,0.0,2023,6,7,16,32,20,225
45.82840,-0.01750,0.05827,0.00000,0.03050,0.97685,-0.19178,0.0,2023,6,7,16,32,20,237
45.82850,-0.01750,-0.13423,0.00000,0.03087,0.97441,-0.19264,0.0,2023,6,7,16,32,20,248
45.82860,-0.15750,0.02327,0.00000,0.02830,0.97685,-0.19056,0.0,2023,6,7,16,32,20,260
45.82870,0.03500,-0.02923,0.00000,0.02855,0.97637,-0.19178,0.0,2023,6,7,16,32,20,271
45.82880,0.03500,-0.04673,0.00000,0.03160,0.97515,-0.19227,0.0,2023,6,7,16,32,20,282
45.82890,-0.08750,0.04078,0.00000,0.03111,0.97380,-0.18873,0.0,2023,6,7,16,32,20,294
45.82900,0.03500,0.28577,0.00000,0.02794,0.97563,-0.19239,0.0,2023,6,7,16,32,20,305
45.82910,-0.12250,-0.06423,0.00000,0.03123,0.97551,-0.19130,0.0,2023,6,7,16,32,20,317
45.82920,-0.01750,0.00577,0.00000,0.03099,0.97539,-0.19130,0.0,2023,6,7,16,32,20,328
45.82930,0.17500,0.12827,0.00000,0.03038,0.97710,-0.19508,0.0,2023,6,7,16,32,20,339
45.82940,0.01750,0.00577,0.00000,0.02647,0.97856,-0.19093,0.0,2023,6,7,16,32,20,351
45.82950,-0.17500,0.12827,0.00000,0.03123,0.97539,-0.19105,0.0,2023,6,7,16,32,20,362
45.82960,0.19250,0.02327,0.00000,0.03111,0.97380,-0.19191,0.0,2023,6,7,16,32,20,374
45.82970,0.00000,0.02327,0.00000,0.03184,0.97539,-0.19203,0.0,2023,6,7,16,32,20,385
45.82980,-0.05250,-0.23923,0.00000,0.03050,0.97441,-0.19239,0.0,2023,6,7,16,32,20,396
45.82990,-0.05250,0.12827,0.00000,0.03038,0.97393,-0.19191,0.0,2023,6,7,16,32,20,408
45.83000,0.07000,-0.16923,0.00000,0.02940,0.97624,-0.19191,0.0,2023,6,7,16,32,20,419
45.83010,-0.14000,0.09327,0.00000,0.03074,0.97771,-0.19020,0.0,2023,6,7,16,32,20,431
45.83020,0.03500,0.05827,0.00000,0.03050,0.97490,-0.18800,0.0,2023,6,7,16,32,20,442
45.83030,0.12250,0.18077,0.00000,0.03026,0.97563,-0.19130,0.0,2023,6,7,16,32,20,453
45.83040,0.03500,0.12827,0.00000,0.03111,0.97576,-0.19105,0.0,2023,6,7,16,32,20,465
45.83050,0.01750,-0.08173,0.00000,0.03245,0.97624,-0.19032,0.0,2023,6,7,16,32,20,476
45.83060,-0.10500,0.07577,0.00000,0.03343,0.97588,-0.19386,0.0,2023,6,7,16,32,20,488
45.83070,-0.24500,-0.08173,0.00000,0.02952,0.97856,-0.19227,0.0,2023,6,7,16,32,20,499
45.83080,0.01750,-0.01173,0.00000,0.02928,0.97563,-0.19227,0.0,2023,6,7,16,32,20,510
45.83090,-0.12250,0.18077,0.00000,0.03123,0.97563,-0.19117,0.0,2023,6,7,16,32,20,522
45.83100,-0.21000,-0.08173,0.00000,0.03233,0.97942,-0.19191,0.0,2023,6,7,16,32,20,533
45.83110,-0.05250,-0.01173,0.00000,0.02940,0.97649,-0.18995,0.0,2023,6,7,16,32,20,545
45.83120,0.07000,0.09327,0.00000,0.02989,0.97527,-0.19325,0.0,2023,6,7,16,32,20,556
45.83130,-0.05250,0.00577,0.00000,0.03123,0.97466,-0.19349,0.0,2023,6,7,16,32,20,567
45.83140,0.00000,-0.09923,0.00000,0.02891,0.97698,-0.19069,0.0,2023,6,7,16,32,20,579
45.83150,-0.15750,-0.18673,0.00000,0.02867,0.97393,-0.19093,0.0,2023,6,7,16,32,20,590
45.83160,0.05250,-0.04673,0.00000,0.02989,0.97746,-0.19264,0.0,2023,6,7,16,32,20,602
45.83170,-0.05250,0.05827,0.00000,0.03013,0.97576,-0.19117,0.0,2023,6,7,16,32,20,613
45.83180,-0.10500,-0.16923,0.00000,0.03221,0.97685,-0.19117,0.0,2023,6,7,16,32,20,624
45.83190,0.07000,-0.34423,0.00000,0.03135,0.97698,-0.19142,0.0,2023,6,7,16,32,20,636
45.83200,0.03500,0.04078,0.00000,0.03123,0.97759,-0.18910,0.0,2023,6,7,16,32,20,647
45.83210,0.15750,-0.02923,0.00000,0.03135,0.97515,-0.19252,0.0,2023,6,7,16,32,20,659
45.83220,0.08750,-0.20423,0.00000,0.02916,0.97380,-0.19008,0.0,2023,6,7,16,32,20,670
45.83230,0.01750,-0.16923,0.00000,0.02965,0.98051,-0.19142,0.0,2023,6,7,16,32,20,681
45.83240,-0.08750,0.14577,0.00000,0.03160,0.97649,-0.19130,0.0,2023,6,7,16,32,20,693
45.83250,-0.17500,0.18077,0.00000,0.03026,0.97600,-0.18971,0.0,2023,6,7,16,32,20,704
45.83260,-0.03500,0.28577,0.00000,0.03038,0.97637,-0.19142,0.0,2023,6,7,16,32,20,716
45.83270,-0.14000,0.09327,0.00000,0.03123,0.97624,-0.19069,0.0,2023,6,7,16,32,20,727
45.83280,-0.07000,0.07577,0.00000,0.03026,0.97454,-0.19191,0.0,2023,6,7,16,32,20,738
45.83290,0.03500,-0.02923,0.00000,0.02952,0.97600,-0.19142,0.0,2023,6,7,16,32,20,750
45.83300,-0.08750,0.14577,0.00000,0.02879,0.97515,-0.19191,0.0,2023,6,7,16,32,20,761
45.83310,0.07000,0.04078,0.00000,0.02977,0.97710,-0.18983,0.0,2023,6,7,16,32,20,773
45.83320,0.08750,-0.15173,0.00000,0.02940,0.97515,-0.19215,0.0,2023,6,7,16,32,20,784
45.83330,0.10500,0.00577,0.00000,0.02928,0.97685,-0.19361,0.0,2023,6,7,16,32,20,795
45.83340,0.12250,-0.18673,0.00000,0.03087,0.97624,-0.18983,0.0,2023,6,7,16,32,20,807
45.83350,-0.03500,0.00577,0.00000,0.02867,0.97405,-0.19178,0.0,2023,6,7,16,32,20,818
45.83360,0.01750,0.21577,0.00000,0.03087,0.97783,-0.19227,0.0,2023,6,7,16,32,20,830
45.83370,0.07000,-0.08173,0.00000,0.03135,0.97685,-0.19422,0.0,2023,6,7,16,32,20,841
45.83380,-0.05250,-0.13423,0.00000,0.03001,0.97393,-0.19130,0.0,2023,6,7,16,32,20,852
45.83390,-0.05250,0.00577,0.00000,0.03087,0.97734,-0.19313,0.0,2023,6,7,16,32,20,864
45.83400,0.10500,0.02327,0.00000,0.03001,0.97466,-0.19288,0.0,2023,6,7,16,32,20,875
45.83410,-0.12250,0.11077,0.00000,0.02904,0.97612,-0.18995,0.0,2023,6,7,16,32,20,887
45.83420,-0.05250,0.12827,0.00000,0.03013,0.97820,-0.19178,0.0,2023,6,7,16,32,20,898
45.83430,0.07000,-0.18673,0.00000,0.03111,0.97771,-0.19191,0.0,2023,6,7,16,32,20,909
45.83440,-0.19250,0.02327,0.00000,0.03209,0.97417,-0.19117,0.0,2023,6,7,16,32,20,921
45.83450,0.05250,0.04078,0.00000,0.03209,0.97600,-0.19203,0.0,2023,6,7,16,32,20,932
45.83460,-0.08750,-0.01173,0.00000,0.02891,0.97795,-0.19105,0.0,2023,6,7,16,32,20,944
45.83470,-0.12250,0.07577,0.00000,0.03062,0.97649,-0.19215,0.0,2023,6,7,16,32,20,955
45.83480,-0.14000,0.28577,0.00000,0.02916,0.97588,-0.19130,0.0,2023,6,7,16,32,20,966
45.83490,-0.08750,0.11077,0.00000,0.03172,0.97441,-0.19239,0.0,2023,6,7,16,32,20,978
45.83500,0.08750,0.04078,0.00000,0.03074,0.97685,-0.19069,0.0,2023,6,7,16,32,20,989
45.83510,0.03500,0.04078,0.00000,0.03062,0.97429,-0.19178,0.0,2023,6,7,16,32,20,1
45.83520,-0.01750,0.00577,0.00000,0.02916,0.97551,-0.19056,0.0,2023,6,7,16,32,20,12
45.83530,-0.03500,0.04078,0.00000,0.03087,0.97746,-0.19178,0.0,2023,6,7,16,32,20,23
45.83540,0.21000,0.16327,0.00000,0.03233,0.97637,-0.19361,0.0,2023,6,7,16,32,21,5
45.83550,0.10500,0.12827,0.00000,0.03123,0.97490,-0.19130,0.0,2023,6,7,16,32,21,16
45.83560,0.10500,0.07577,0.00000,0.03013,0.97685,-0.19239,0.0,2023,6,7,16,32,21,28
45.83570,-0.26250,0.16327,0.00000,0.02940,0.97722,-0.19044,0.0,2023,6,7,16,32,21,39
45.83580,0.05250,-0.13423,0.00000,0.03038,0.97600,-0.19093,0.0,2023,6,7,16,32,21,50
45.83590,0.14000,0.02327,0.00000,0.03062,0.97649,-0.19313,0.0,2023,6,7,16,32,21,62
45.83600,0.05250,-0.18673,0.00000,0.03026,0.97454,-0.19020,0.0,2023,6,7,16,32,21,73
45.83610,0.01750,-0.01173,0.00000,0.03038,0.97405,-0.18922,0.0,2023,6,7,16,32,21,85
45.83620,-0.01750,0.04078,0.00000,0.02928,0.97588,-0.19227,0.0,2023,6,7,16,32,21,96
45.83630,-0.21000,-0.02923,0.00000,0.03172,0.97527,-0.19264,0.0,2023,6,7,16,32,21,107
45.83640,-0.01750,-0.02923,0.00000,0.02965,0.97332,-0.19093,0.0,2023,6,7,16,32,21,119
45.83650,0.01750,-0.08173,0.00000,0.03074,0.97600,-0.19008,0.0,2023,6,7,16,32,21,130
45.83660,-0.08750,0.14577,0.00000,0.03050,0.97637,-0.19142,0.0,2023,6,7,16,32,21,142
45.83670,0.07000,-0.02923,0.00000,0.03257,0.97527,-0.19093,0.0,2023,6,7,16,32,21,153
45.83680,-0.10500,-0.01173,0.00000,0.03001,0.97661,-0.18971,0.0,2023,6,7,16,32,21,164
45.83690,-0.15750,0.04078,0.00000,0.03050,0.97551,-0.19276,0.0,2023,6,7,16,32,21,176
45.83700,0.00000,0.02327,0.00000,0.02916,0.97490,-0.19032,0.0,2023,6,7,16,32,21,187
45.83710,0.01750,-0.15173,0.00000,0.03184,0.97466,-0.19044,0.0,2023,6,7,16,32,21,199
45.83720,-0.15750,-0.09923,0.00000,0.03099,0.97771,-0.19191,0.0,2023,6,7,16,32,21,210
45.83730,0.05250,0.07577,0.00000,0.03013,0.97612,-0.19056,0.0,2023,6,7,16,32,21,221
45.83740,0.14000,-0.04673,0.00000,0.03148,0.97417,-0.18849,0.0,2023,6,7,16,32,21,233
45.83750,-0.01750,0.12827,0.00000,0.03148,0.97368,-0.19105,0.0,2023,6,7,16,32,21,244
45.83760,-0.03500,0.09327,0.00000,0.03294,0.97576,-0.19069,0.0,2023,6,7,16,32,21,256
45.83770,-0.08750,0.12827,0.00000,0.02989,0.97283,-0.19117,0.0,2023,6,7,16,32,21,267
45.83780,-0.01750,0.16327,0.00000,0.02965,0.97734,-0.19105,0.0,2023,6,7,16,32,21,278
45.83790,-0.08750,-0.18673,0.00000,0.02977,0.97454,-0.19203,0.0,2023,6,7,16,32,21,290
45.83800,-0.14000,0.35577,0.00000,0.03001,0.97576,-0.19069,0.0,2023,6,7,16,32,21,301
45.83810,-0.12250,0.21577,0.00000,0.03221,0.97332,-0.19105,0.0,2023,6,7,16,32,21,313
45.83820,0.01750,0.00577,0.00000,0.02952,0.97698,-0.19264,0.0,2023,6,7,16,32,21,324
45.83830,0.05250,0.07577,0.00000,0.03257,0.97722,-0.18934,0.0,2023,6,7,16,32,21,335
45.83840,-0.03500,-0.04673,0.00000,0.03160,0.97661,-0.18922,0.0,2023,6,7,16,32,21,347
45.83850,-0.03500,-0.11673,0.00000,0.02916,0.97490,-0.19020,0.0,2023,6,7,16,32,21,358
45.83860,-0.03500,0.00577,0.00000,0.03050,0.97466,-0.19130,0.0,2023,6,7,16,32,21,370
45.83870,-0.15750,-0.01173,0.00000,0.03160,0.97600,-0.19093,0.0,2023,6,7,16,32,21,381
45.83880,0.14000,0.07577,0.00000,0.03233,0.97661,-0.19117,0.0,2023,6,7,16,32,21,392
45.83890,0.10500,-0.04673,0.00000,0.03099,0.97710,-0.19166,0.0,2023,6,7,16,32,21,404
45.83900,-0.05250,-0.11673,0.00000,0.03074,0.97527,-0.19203,0.0,2023,6,7,16,32,21,415
45.83910,0.00000,-0.04673,0.00000,0.02977,0.97588,-0.18983,0.0,2023,6,7,16,32,21,427
45.83920,0.05250,-0.02923,0.00000,0.03026,0.97515,-0.19361,0.0,2023,6,7,16,32,21,438
45.83930,-0.10500,-0.08173,0.00000,0.03148,0.97807,-0.19447,0.0,2023,6,7,16,32,21,449
45.83940,-0.03500,-0.02923,0.00000,0.03087,0.97515,-0.19337,0.0,2023,6,7,16,32,21,461
45.83950,0.10500,0.11077,0.00000,0.03221,0.97807,-0.19337,0.0,2023,6,7,16,32,21,472
45.83960,-0.10500,-0.02923,0.00000,0.03050,0.97746,-0.19300,0.0,2023,6,7,16,32,21,484
45.83970,-0.08750,0.14577,0.00000,0.03111,0.97698,-0.19081,0.0,2023,6,7,16,32,21,495
45.83980,0.03500,0.16327,0.00000,0.03074,0.97588,-0.19032,0.0,2023,6,7,16,32,21,506
45.83990,-0.10500,-0.01173,0.00000,0.03074,0.97490,-0.19325,0.0,2023,6,7,16,32,21,518
45.84000,-0.05250,0.11077,0.00000,0.03026,0.97466,-0.19044,0.0,2023,6,7,16,32,21,529
45.84010,0.00000,0.04078,0.00000,0.03135,0.97759,-0.19215,0.0,2023,6,7,16,32,21,541
45.84020,0.00000,0.35577,0.00000,0.03367,0.97649,-0.19349,0.0,2023,6,7,16,32,21,552
45.84030,0.03500,0.04078,0.00000,0.02965,0.97807,-0.18971,0.0,2023,6,7,16,32,21,563
45.84040,0.08750,-0.01173,0.00000,0.03123,0.97624,-0.18947,0.0,2023,6,7,16,32,21,575
45.84050,-0.05250,-0.02923,0.00000,0.02830,0.97344,-0.19459,0.0,2023,6,7,16,32,21,586
45.84060,0.01750,0.00577,0.00000,0.03135,0.97783,-0.19142,0.0,2023,6,7,16,32,21,598
45.84070,0.00000,0.09327,0.00000,0.02965,0.97405,-0.19154,0.0,2023,6,7,16,32,21,609
45.84080,0.08750,0.05827,0.00000,0.03111,0.97576,-0.19142,0.0,2023,6,7,16,32,21,620
45.84090,-0.03500,0.00577,0.00000,0.03257,0.97698,-0.18873,0.0,2023,6,7,16,32,21,632
45.84100,-0.05250,0.09327,0.00000,0.02977,0.97441,-0.19239,0.0,2023,6,7,16,32,21,643
45.84110,0.07000,0.04078,0.00000,0.03038,0.97771,-0.19349,0.0,2023,6,7,16,32,21,655
45.84120,0.01750,0.12827,0.00000,0.03038,0.97832,-0.19093,0.0,2023,6,7,16,32,21,666
45.84130,-0.14000,0.05827,0.00000,0.02904,0.97417,-0.19130,0.0,2023,6,7,16,32,21,677
45.84140,-0.03500,0.05827,0.00000,0.02855,0.97722,-0.19044,0.0,2023,6,7,16,32,21,689
45.84150,-0.19250,0.16327,0.00000,0.02891,0.97637,-0.19056,0.0,2023,6,7,16,32,21,700
45.84160,-0.12250,-0.08173,0.00000,0.03355,0.97820,-0.18959,0.0,2023,6,7,16,32,21,712
45.84170,0.03500,-0.06423,0.00000,0.02879,0.97466,-0.19264,0.0,2023,6,7,16,32,21,723
45.84180,-0.07000,0.25077,0.00000,0.03111,0.97539,-0.18983,0.0,2023,6,7,16,32,21,734
45.84190,-0.07000,0.12827,0.00000,0.03001,0.97490,-0.19154,0.0,2023,6,7,16,32,21,746
45.84200,0.01750,-0.02923,0.00000,0.02843,0.97759,-0.19117,0.0,2023,6,7,16,32,21,757
45.84210,-0.15750,0.00577,0.00000,0.02989,0.97685,-0.19276,0.0,2023,6,7,16,32,21,769
45.84220,-0.07000,0.14577,0.00000,0.03148,0.97771,-0.19178,0.0,2023,6,7,16,32,21,780
45.84230,0.01750,0.07577,0.00000,0.03111,0.97539,-0.19008,0.0,2023,6,7,16,32,21,791
45.84240,-0.05250,-0.08173,0.00000,0.03148,0.97612,-0.19191,0.0,2023,6,7,16,32,21,803
45.84250,-0.01750,0.02327,0.00000,0.03245,0.97783,-0.19252,0.0,2023,6,7,16,32,21,814
45.84260,-0.10500,0.04078,0.00000,0.03074,0.97551,-0.19288,0.0,2023,6,7,16,32,21,826
45.84270,-0.10500,0.18077,0.00000,0.03038,0.97746,-0.19215,0.0,2023,6,7,16,32,21,837
45.84280,-0.05250,-0.01173,0.00000,0.03050,0.97807,-0.19398,0.0,2023,6,7,16,32,21,848
45.84290,0.01750,-0.13423,0.00000,0.03160,0.97441,-0.19130,0.0,2023,6,7,16,32,21,860
45.84300,0.00000,0.00577,0.00000,0.03074,0.97624,-0.19081,0.0,2023,6,7,16,32,21,871
45.84310,-0.12250,0.11077,0.00000,0.03111,0.97624,-0.18910,0.0,2023,6,7,16,32,21,883
45.84320,0.07000,0.09327,0.00000,0.03074,0.97600,-0.19349,0.0,2023,6,7,16,32,21,894
45.84330,-0.14000,-0.02923,0.00000,0.02940,0.97673,-0.19227,0.0,2023,6,7,16,32,21,905
45.84340,0.03500,-0.02923,0.00000,0.03148,0.97637,-0.19178,0.0,2023,6,7,16,32,21,917
45.84350,-0.24500,0.05827,0.00000,0.03306,0.97722,-0.19191,0.0,2023,6,7,16,32,21,928
45.84360,-0.21000,-0.06423,0.00000,0.03196,0.97649,-0.19227,0.0,2023,6,7,16,32,21,940
45.84370,-0.05250,-0.06423,0.00000,0.02928,0.97698,-0.18983,0.0,2023,6,7,16,32,21,951
45.84380,0.05250,-0.02923,0.00000,0.03135,0.97795,-0.18971,0.0,2023,6,7,16,32,21,962
45.84390,-0.12250,-0.11673,0.00000,0.03184,0.97271,-0.19032,0.0,2023,6,7,16,32,21,974
45.84400,-0.08750,0.16327,0.00000,0.02965,0.97685,-0.19154,0.0,2023,6,7,16,32,21,985
45.84410,-0.10500,-0.06423,0.00000,0.02843,0.97588,-0.19105,0.0,2023,6,7,16,32,21,997
45.84420,0.01750,-0.08173,0.00000,0.02977,0.97502,-0.18959,0.0,2023,6,7,16,32,21,8
45.84430,-0.19250,0.33827,0.00000,0.03050,0.97551,-0.18849,0.0,2023,6,7,16,32,22,9
45.84440,-0.05250,0.19827,0.00000,0.02879,0.97466,-0.19044,0.0,2023,6,7,16,32,22,21
45.84450,0.07000,-0.23923,0.00000,0.02952,0.97527,-0.19227,0.0,2023,6,7,16,32,22,32
45.84460,0.01750,0.04078,0.00000,0.03184,0.97502,-0.19227,0.0,2023,6,7,16,32,22,44
45.84470,0.07000,0.04078,0.00000,0.03221,0.97478,-0.19215,0.0,2023,6,7,16,32,22,55
45.84480,-0.01750,0.09327,0.00000,0.03013,0.97539,-0.18995,0.0,2023,6,7,16,32,22,66
45.84490,-0.14000,-0.09923,0.00000,0.02977,0.97673,-0.19227,0.0,2023,6,7,16,32,22,78
45.84500,-0.07000,0.04078,0.00000,0.03392,0.97563,-0.19227,0.0,2023,6,7,16,32,22,89
45.84510,-0.12250,-0.01173,0.00000,0.02989,0.97673,-0.19044,0.0,2023,6,7,16,32,22,101
45.84520,0.00000,0.00577,0.00000,0.02855,0.97661,-0.18922,0.0,2023,6,7,16,32,22,112
45.84530,0.03500,0.04078,0.00000,0.03038,0.97527,-0.19239,0.0,2023,6,7,16,32,22,123
45.84540,-0.15750,0.07577,0.00000,0.03038,0.97783,-0.19142,0.0,2023,6,7,16,32,22,135
45.84550,0.00000,0.09327,0.00000,0.03013,0.97600,-0.19117,0.0,2023,6,7,16,32,22,146
45.84560,-0.03500,-0.04673,0.00000,0.03221,0.97527,-0.19069,0.0,2023,6,7,16,32,22,158
45.84570,0.01750,-0.09923,0.00000,0.03135,0.97563,-0.19105,0.0,2023,6,7,16,32,22,169
45.84580,-0.03500,0.21577,0.00000,0.02891,0.97661,-0.19166,0.0,2023,6,7,16,32,22,180
45.84590,0.10500,0.02327,0.00000,0.02818,0.97637,-0.19081,0.0,2023,6,7,16,32,22,192
45.84600,-0.03500,0.14577,0.00000,0.03099,0.97563,-0.19252,0.0,2023,6,7,16,32,22,203
45.84610,0.00000,0.04078,0.00000,0.03062,0.97698,-0.19203,0.0,2023,6,7,16,32,22,215
45.84620,-0.05250,0.00577,0.00000,0.03209,0.97307,-0.19093,0.0,2023,6,7,16,32,22,226
45.84630,0.01750,0.14577,0.00000,0.03160,0.97576,-0.19191,0.0,2023,6,7,16,32,22,237
45.84640,-0.03500,0.00577,0.00000,0.03160,0.97576,-0.19081,0.0,2023,6,7,16,32,22,249
45.84650,-0.03500,0.00577,0.00000,0.03184,0.97417,-0.19203,0.0,2023,6,7,16,32,22,260
45.84660,-0.14000,-0.16923,0.00000,0.03111,0.97319,-0.19093,0.0,2023,6,7,16,32,22,272
45.84670,-0.10500,-0.04673,0.00000,0.03172,0.97722,-0.19191,0.0,2023,6,7,16,32,22,283
45.84680,0.03500,-0.11673,0.00000,0.03026,0.97454,-0.19020,0.0,2023,6,7,16,32,22,294
45.84690,0.05250,0.18077,0.00000,0.03074,0.97466,-0.19105,0.0,2023,6,7,16,32,22,306
45.84700,-0.01750,-0.06423,0.00000,0.02769,0.97490,-0.19215,0.0,2023,6,7,16,32,22,317
45.84710,-0.14000,0.19827,0.00000,0.03062,0.97661,-0.19020,0.0,2023,6,7,16,32,22,329
45.84720,-0.29750,0.05827,0.00000,0.03001,0.97685,-0.18995,0.0,2023,6,7,16,32,22,340
45.84730,0.00000,0.23327,0.00000,0.03160,0.97576,-0.19130,0.0,2023,6,7,16,32,22,351
45.84740,0.01750,0.00577,0.00000,0.03135,0.97746,-0.18837,0.0,2023,6,7,16,32,22,363
45.84750,-0.19250,0.02327,0.00000,0.03099,0.97563,-0.19081,0.0,2023,6,7,16,32,22,374
45.84760,0.08750,-0.08173,0.00000,0.02782,0.97539,-0.19191,0.0,2023,6,7,16,32,22,386
45.84770,-0.10500,0.02327,0.00000,0.03013,0.97661,-0.19313,0.0,2023,6,7,16,32,22,397
45.84780,0.03500,-0.13423,0.00000,0.03233,0.97612,-0.18983,0.0,2023,6,7,16,32,22,408
45.84790,-0.08750,0.18077,0.00000,0.03184,0.97417,-0.19020,0.0,2023,6,7,16,32,22,420
45.84800,-0.03500,0.09327,0.00000,0.03038,0.97698,-0.19166,0.0,2023,6,7,16,32,22,431
45.84810,0.00000,0.28577,0.00000,0.02989,0.97649,-0.19191,0.0,2023,6,7,16,32,22,443
45.84820,0.03500,-0.08173,0.00000,0.03026,0.97637,-0.19227,0.0,2023,6,7,16,32,22,454
45.84830,-0.03500,0.05827,0.00000,0.02940,0.97783,-0.19081,0.0,2023,6,7,16,32,22,465
45.84840,0.00000,0.09327,0.00000,0.03209,0.97612,-0.19069,0.0,2023,6,7,16,32,22,477
45.84850,0.01750,-0.11673,0.00000,0.03062,0.97734,-0.19361,0.0,2023,6,7,16,32,22,488
45.84860,0.03500,0.09327,0.00000,0.02965,0.97405,-0.19471,0.0,2023,6,7,16,32,22,500
45.84870,-0.07000,0.25077,0.00000,0.02977,0.97539,-0.19288,0.0,2023,6,7,16,32,22,511
45.84880,-0.10500,-0.08173,0.00000,0.03050,0.97649,-0.19300,0.0,2023,6,7,16,32,22,522
45.84890,-0.05250,0.05827,0.00000,0.02830,0.97710,-0.19313,0.0,2023,6,7,16,32,22,534
45.84900,-0.05250,0.21577,0.00000,0.03172,0.97710,-0.19081,0.0,2023,6,7,16,32,22,545
45.84910,-0.17500,0.18077,0.00000,0.02928,0.97490,-0.18886,0.0,2023,6,7,16,32,22,557
45.84920,-0.26250,0.09327,0.00000,0.03245,0.97405,-0.19142,0.0,2023,6,7,16,32,22,568
45.84930,-0.15750,0.02327,0.00000,0.03087,0.97466,-0.19069,0.0,2023,6,7,16,32,22,579
45.84940,-0.19250,0.07577,0.00000,0.02879,0.97466,-0.19020,0.0,2023,6,7,16,32,22,591
45.84950,-0.08750,-0.11673,0.00000,0.03123,0.97527,-0.19203,0.0,2023,6,7,16,32,22,602
45.84960,-0.07000,0.16327,0.00000,0.03074,0.97661,-0.19239,0.0,2023,6,7,16,32,22,614
45.84970,-0.21000,0.16327,0.00000,0.03074,0.97515,-0.18947,0.0,2023,6,7,16,32,22,625
45.84980,0.01750,0.16327,0.00000,0.02989,0.97539,-0.19325,0.0,2023,6,7,16,32,22,636
45.84990,-0.07000,0.07577,0.00000,0.02733,0.97612,-0.19069,0.0,2023,6,7,16,32,22,648
45.85000,-0.17500,0.04078,0.00000,0.03074,0.97783,-0.19020,0.0,2023,6,7,16,32,22,659
45.85010,-0.01750,-0.18673,0.00000,0.03026,0.97490,-0.18849,0.0,2023,6,7,16,32,22,671
45.85020,0.07000,-0.04673,0.00000,0.03038,0.97600,-0.19081,0.0,2023,6,7,16,32,22,682
45.85030,0.00000,-0.13423,0.00000,0.02916,0.97807,-0.18959,0.0,2023,6,7,16,32,22,693
45.85040,0.01750,-0.06423,0.00000,0.02916,0.97576,-0.18898,0.0,2023,6,7,16,32,22,705
45.85050,-0.07000,0.18077,0.00000,0.03111,0.97673,-0.19203,0.0,2023,6,7,16,32,22,716
45.85060,-0.05250,-0.08173,0.00000,0.03111,0.97551,-0.19081,0.0,2023,6,7,16,32,22,728
45.85070,-0.08750,-0.02923,0.00000,0.03087,0.97600,-0.18837,0.0,2023,6,7,16,32,22,739
45.85080,-0.19250,-0.01173,0.00000,0.03074,0.97698,-0.19105,0.0,2023,6,7,16,32,22,750
45.85090,-0.03500,-0.06423,0.00000,0.03062,0.97576,-0.19069,0.0,2023,6,7,16,32,22,762
45.85100,0.10500,0.04078,0.00000,0.03221,0.97576,-0.19239,0.0,2023,6,7,16,32,22,773
45.85110,0.05250,0.14577,0.00000,0.03282,0.97612,-0.19105,0.0,2023,6,7,16,32,22,785
45.85120,-0.08750,0.16327,0.00000,0.02830,0.97649,-0.19264,0.0,2023,6,7,16,32,22,796
45.85130,0.15750,-0.04673,0.00000,0.02769,0.97637,-0.19166,0.0,2023,6,7,16,32,22,807
45.85140,-0.05250,0.14577,0.00000,0.03135,0.97429,-0.19117,0.0,2023,6,7,16,32,22,819
45.85150,0.00000,0.19827,0.00000,0.03087,0.97661,-0.19398,0.0,2023,6,7,16,32,22,830
45.85160,0.07000,0.12827,0.00000,0.03001,0.97502,-0.19130,0.0,2023,6,7,16,32,22,842
45.85170,-0.05250,0.05827,0.00000,0.03050,0.97600,-0.19105,0.0,2023,6,7,16,32,22,853
45.85180,-0.03500,0.04078,0.00000,0.03062,0.97588,-0.19020,0.0,2023,6,7,16,32,22,864
45.85190,-0.03500,-0.01173,0.00000,0.03013,0.97600,-0.19252,0.0,2023,6,7,16,32,22,876
45.85200,0.08750,0.09327,0.00000,0.03111,0.97466,-0.18873,0.0,2023,6,7,16,32,22,887
45.85210,0.01750,-0.01173,0.00000,0.03013,0.97661,-0.18947,0.0,2023,6,7,16,32,22,899
45.85220,-0.08750,0.14577,0.00000,0.03196,0.97783,-0.18898,0.0,2023,6,7,16,32,22,910
45.85230,-0.01750,0.14577,0.00000,0.03013,0.97673,-0.19020,0.0,2023,6,7,16,32,22,921
45.85240,0.03500,-0.06423,0.00000,0.02940,0.97600,-0.19203,0.0,2023,6,7,16,32,22,933
45.85250,-0.01750,-0.04673,0.00000,0.03062,0.97734,-0.18825,0.0,2023,6,7,16,32,22,944
45.85260,-0.05250,-0.13423,0.00000,0.02904,0.97368,-0.19154,0.0,2023,6,7,16,32,22,956
45.85270,-0.01750,0.00577,0.00000,0.02977,0.97576,-0.19154,0.0,2023,6,7,16,32,22,967
45.85280,-0.24500,0.04078,0.00000,0.02989,0.97563,-0.18837,0.0,2023,6,7,16,32,22,978
45.85290,0.10500,-0.18673,0.00000,0.03026,0.97673,-0.19093,0.0,2023,6,7,16,32,22,990
45.85300,-0.05250,0.02327,0.00000,0.03013,0.97454,-0.19056,0.0,2023,6,7,16,32,22,1
45.85310,-0.05250,-0.13423,0.00000,0.03111,0.97490,-0.19191,0.0,2023,6,7,16,32,22,13
45.85320,-0.19250,-0.04673,0.00000,0.03111,0.97624,-0.19008,0.0,2023,6,7,16,32,22,24
45.85330,0.08750,0.11077,0.00000,0.03087,0.97454,-0.18922,0.0,2023,6,7,16,32,23,5
45.85340,0.00000,-0.11673,0.00000,0.02928,0.97417,-0.19081,0.0,2023,6,7,16,32,23,17
45.85350,-0.21000,0.35577,0.00000,0.02965,0.97673,-0.19239,0.0,2023,6,7,16,32,23,28
45.85360,-0.08750,0.02327,0.00000,0.02806,0.97478,-0.18995,0.0,2023,6,7,16,32,23,40
45.85370,-0.10500,0.12827,0.00000,0.03087,0.97393,-0.19069,0.0,2023,6,7,16,32,23,51
45.85380,-0.03500,0.00577,0.00000,0.03233,0.97820,-0.19215,0.0,2023,6,7,16,32,23,62
45.85390,-0.10500,0.16327,0.00000,0.03001,0.97624,-0.19117,0.0,2023,6,7,16,32,23,74
45.85400,-0.08750,0.16327,0.00000,0.02965,0.97637,-0.19069,0.0,2023,6,7,16,32,23,85
45.85410,-0.08750,-0.02923,0.00000,0.03343,0.97551,-0.19044,0.0,2023,6,7,16,32,23,97
45.85420,-0.15750,0.07577,0.00000,0.03172,0.97759,-0.19276,0.0,2023,6,7,16,32,23,108
45.85430,0.03500,0.04078,0.00000,0.03013,0.97649,-0.19288,0.0,2023,6,7,16,32,23,119
45.85440,0.14000,-0.08173,0.00000,0.02940,0.97527,-0.19215,0.0,2023,6,7,16,32,23,131
45.85450,-0.08750,0.25077,0.00000,0.02989,0.97539,-0.19093,0.0,2023,6,7,16,32,23,142
45.85460,-0.03500,0.00577,0.00000,0.02904,0.97283,-0.18995,0.0,2023,6,7,16,32,23,154
45.85470,-0.12250,0.18077,0.00000,0.03282,0.97563,-0.19227,0.0,2023,6,7,16,32,23,165
45.85480,-0.01750,-0.13423,0.00000,0.02855,0.97478,-0.18947,0.0,2023,6,7,16,32,23,176
45.85490,-0.01750,-0.04673,0.00000,0.03196,0.97588,-0.19032,0.0,2023,6,7,16,32,23,188
45.85500,-0.03500,-0.09923,0.00000,0.03111,0.97527,-0.19276,0.0,2023,6,7,16,32,23,199
45.85510,0.10500,-0.02923,0.00000,0.02916,0.97576,-0.18995,0.0,2023,6,7,16,32,23,211
45.85520,-0.08750,0.12827,0.00000,0.02696,0.97551,-0.19154,0.0,2023,6,7,16,32,23,222
45.85530,-0.08750,0.16327,0.00000,0.02977,0.97771,-0.19215,0.0,2023,6,7,16,32,23,233
45.85540,0.17500,-0.02923,0.00000,0.03001,0.97746,-0.19178,0.0,2023,6,7,16,32,23,245
45.85550,-0.01750,-0.04673,0.00000,0.03026,0.97563,-0.19300,0.0,2023,6,7,16,32,23,256
45.85560,0.05250,-0.02923,0.00000,0.03038,0.97368,-0.19044,0.0,2023,6,7,16,32,23,268
45.85570,0.01750,0.28577,0.00000,0.03135,0.97637,-0.18983,0.0,2023,6,7,16,32,23,279
45.85580,0.19250,-0.13423,0.00000,0.02989,0.97746,-0.19142,0.0,2023,6,7,16,32,23,290
45.85590,-0.14000,0.04078,0.00000,0.03062,0.97746,-0.18983,0.0,2023,6,7,16,32,23,302
45.85600,-0.05250,0.12827,0.00000,0.02940,0.97576,-0.19154,0.0,2023,6,7,16,32,23,313
45.85610,0.17500,-0.20423,0.00000,0.03148,0.97356,-0.19313,0.0,2023,6,7,16,32,23,325
45.85620,-0.05250,-0.02923,0.00000,0.03087,0.97649,-0.18971,0.0,2023,6,7,16,32,23,336
45.85630,-0.07000,0.28577,0.00000,0.03062,0.97673,-0.19337,0.0,2023,6,7,16,32,23,347
45.85640,0.07000,0.18077,0.00000,0.02940,0.97356,-0.18995,0.0,2023,6,7,16,32,23,359
45.85650,-0.01750,0.02327,0.00000,0.03099,0.97576,-0.19032,0.0,2023,6,7,16,32,23,370
45.85660,0.14000,0.21577,0.00000,0.03160,0.97649,-0.19105,0.0,2023,6,7,16,32,23,382
45.85670,0.03500,-0.04673,0.00000,0.02855,0.97722,-0.19215,0.0,2023,6,7,16,32,23,393
45.85680,0.12250,-0.01173,0.00000,0.03050,0.97795,-0.18812,0.0,2023,6,7,16,32,23,404
45.85690,0.01750,0.04078,0.00000,0.02843,0.97612,-0.19178,0.0,2023,6,7,16,32,23,416
45.85700,0.08750,-0.06423,0.00000,0.03087,0.97429,-0.19215,0.0,2023,6,7,16,32,23,427
45.85710,-0.24500,0.21577,0.00000,0.03270,0.97527,-0.19044,0.0,2023,6,7,16,32,23,439
45.85720,-0.26250,0.16327,0.00000,0.03148,0.97441,-0.18995,0.0,2023,6,7,16,32,23,450
45.85730,-0.15750,0.25077,0.00000,0.03233,0.97637,-0.19081,0.0,2023,6,7,16,32,23,461
45.85740,-0.05250,-0.01173,0.00000,0.02965,0.97612,-0.19227,0.0,2023,6,7,16,32,23,473
45.85750,-0.15750,-0.02923,0.00000,0.02879,0.97502,-0.19252,0.0,2023,6,7,16,32,23,484
45.85760,0.00000,-0.09923,0.00000,0.03135,0.97527,-0.18983,0.0,2023,6,7,16,32,23,496
45.85770,0.08750,-0.16923,0.00000,0.03038,0.97478,-0.19093,0.0,2023,6,7,16,32,23,507
45.85780,0.01750,-0.01173,0.00000,0.02965,0.97600,-0.19191,0.0,2023,6,7,16,32,23,518
45.85790,-0.10500,0.21577,0.00000,0.03074,0.97563,-0.19313,0.0,2023,6,7,16,32,23,530
45.85800,-0.08750,-0.06423,0.00000,0.03270,0.97332,-0.19056,0.0,2023,6,7,16,32,23,541
45.85810,-0.15750,0.30327,0.00000,0.03001,0.97783,-0.19300,0.0,2023,6,7,16,32,23,553
45.85820,0.00000,0.07577,0.00000,0.02977,0.97563,-0.19081,0.0,2023,6,7,16,32,23,564
45.85830,0.12250,-0.08173,0.00000,0.02855,0.97551,-0.19032,0.0,2023,6,7,16,32,23,575
45.85840,0.01750,0.12827,0.00000,0.02977,0.97502,-0.19105,0.0,2023,6,7,16,32,23,587
45.85850,-0.01750,-0.01173,0.00000,0.03099,0.97515,-0.19239,0.0,2023,6,7,16,32,23,598
45.85860,-0.03500,0.04078,0.00000,0.02989,0.97490,-0.19178,0.0,2023,6,7,16,32,23,610
45.85870,-0.33250,0.07577,0.00000,0.03331,0.97685,-0.19215,0.0,2023,6,7,16,32,23,621
45.85880,0.03500,-0.09923,0.00000,0.03050,0.97637,-0.18727,0.0,2023,6,7,16,32,23,632
45.85890,0.03500,0.11077,0.00000,0.03135,0.97624,-0.18727,0.0,2023,6,7,16,32,23,644
45.85900,-0.05250,-0.06423,0.00000,0.03038,0.97429,-0.19203,0.0,2023,6,7,16,32,23,655
45.85910,-0.01750,0.09327,0.00000,0.03343,0.97539,-0.19069,0.0,2023,6,7,16,32,23,667
45.85920,0.00000,0.21577,0.00000,0.03184,0.97478,-0.19117,0.0,2023,6,7,16,32,23,678
45.85930,-0.07000,0.18077,0.00000,0.03001,0.97490,-0.19191,0.0,2023,6,7,16,32,23,689
45.85940,0.00000,0.02327,0.00000,0.03257,0.97466,-0.18947,0.0,2023,6,7,16,32,23,701
45.85950,-0.08750,0.09327,0.00000,0.03111,0.97527,-0.19435,0.0,2023,6,7,16,32,23,712
45.85960,-0.22750,-0.06423,0.00000,0.03087,0.97600,-0.19117,0.0,2023,6,7,16,32,23,724
45.85970,0.12250,-0.20423,0.00000,0.03172,0.97490,-0.19325,0.0,2023,6,7,16,32,23,735
45.85980,0.07000,0.07577,0.00000,0.03013,0.97673,-0.18959,0.0,2023,6,7,16,32,23,746
45.85990,-0.24500,0.11077,0.00000,0.03172,0.97588,-0.19105,0.0,2023,6,7,16,32,23,758
45.86000,0.08750,-0.04673,0.00000,0.03306,0.97441,-0.19008,0.0,2023,6,7,16,32,23,769
45.86010,-0.14000,0.02327,0.00000,0.02916,0.97759,-0.19093,0.0,2023,6,7,16,32,23,781
45.86020,-0.07000,0.12827,0.00000,0.03184,0.97673,-0.19130,0.0,2023,6,7,16,32,23,792
45.86030,-0.15750,0.16327,0.00000,0.02989,0.97527,-0.19227,0.0,2023,6,7,16,32,23,803
45.86040,-0.10500,-0.01173,0.00000,0.02891,0.97649,-0.19105,0.0,2023,6,7,16,32,23,815
45.86050,0.01750,0.05827,0.00000,0.03172,0.97624,-0.18812,0.0,2023,6,7,16,32,23,826
45.86060,0.00000,-0.06423,0.00000,0.02818,0.97600,-0.19142,0.0,2023,6,7,16,32,23,838
45.86070,-0.08750,0.00577,0.00000,0.03331,0.97576,-0.19215,0.0,2023,6,7,16,32,23,849
45.86080,0.14000,0.04078,0.00000,0.02977,0.97807,-0.19020,0.0,2023,6,7,16,32,23,860
45.86090,-0.10500,-0.06423,0.00000,0.03148,0.97356,-0.19056,0.0,2023,6,7,16,32,23,872
45.86100,-0.10500,0.02327,0.00000,0.03038,0.97612,-0.19081,0.0,2023,6,7,16,32,23,883
45.86110,-0.03500,0.28577,0.00000,0.02855,0.97490,-0.18995,0.0,2023,6,7,16,32,23,895
45.86120,0.01750,0.00577,0.00000,0.02891,0.97795,-0.19044,0.0,2023,6,7,16,32,23,906
45.86130,-0.12250,0.02327,0.00000,0.03074,0.97844,-0.18934,0.0,2023,6,7,16,32,23,917
45.86140,-0.10500,-0.04673,0.00000,0.03257,0.97527,-0.19069,0.0,2023,6,7,16,32,23,929
45.86150,-0.03500,-0.11673,0.00000,0.02965,0.97649,-0.18983,0.0,2023,6,7,16,32,23,940
45.86160,-0.07000,-0.01173,0.00000,0.03038,0.97515,-0.19288,0.0,2023,6,7,16,32,23,952
45.86170,-0.03500,-0.01173,0.00000,0.03111,0.97429,-0.19069,0.0,2023,6,7,16,32,23,963
45.86180,0.00000,0.02327,0.00000,0.03135,0.97612,-0.18983,0.0,2023,6,7,16,32,23,974
45.86190,0.07000,0.04078,0.00000,0.03026,0.97612,-0.18873,0.0,2023,6,7,16,32,23,986
45.86200,0.21000,0.00577,0.00000,0.02891,0.97295,-0.19081,0.0,2023,6,7,16,32,23,997
45.86210,0.05250,-0.27423,0.00000,0.03050,0.97685,-0.19166,0.0,2023,6,7,16,32,23,9
45.86220,-0.22750,0.04078,0.00000,0.02977,0.97563,-0.19166,0.0,2023,6,7,16,32,23,20
45.86230,-0.12250,0.05827,0.00000,0.03050,0.97685,-0.18837,0.0,2023,6,7,16,32,23,31
45.86240,-0.05250,0.05827,0.00000,0.03123,0.97661,-0.18947,0.0,2023,6,7,16,32,24,3
45.86250,0.00000,0.00577,0.00000,0.02940,0.97661,-0.19044,0.0,2023,6,7,16,32,24,14
45.86260,-0.12250,-0.04673,0.00000,0.03062,0.97490,-0.18886,0.0,2023,6,7,16,32,24,26
45.86270,-0.03500,-0.04673,0.00000,0.02818,0.97563,-0.18983,0.0,2023,6,7,16,32,24,37
45.86280,-0.01750,0.04078,0.00000,0.03172,0.97624,-0.19069,0.0,2023,6,7,16,32,24,48
45.86290,-0.10500,0.16327,0.00000,0.02904,0.97563,-0.19325,0.0,2023,6,7,16,32,24,60
45.86300,0.05250,0.14577,0.00000,0.03209,0.97759,-0.19020,0.0,2023,6,7,16,32,24,71
45.86310,0.01750,0.02327,0.00000,0.03013,0.97624,-0.19056,0.0,2023,6,7,16,32,24,83
45.86320,0.01750,-0.04673,0.00000,0.03087,0.97502,-0.19142,0.0,2023,6,7,16,32,24,94
45.86330,-0.07000,0.05827,0.00000,0.02818,0.97600,-0.19276,0.0,2023,6,7,16,32,24,105
45.86340,-0.10500,0.02327,0.00000,0.02867,0.97698,-0.18983,0.0,2023,6,7,16,32,24,117
45.86350,0.12250,-0.04673,0.00000,0.03221,0.97441,-0.19044,0.0,2023,6,7,16,32,24,128
45.86360,0.07000,-0.13423,0.00000,0.03111,0.97551,-0.19105,0.0,2023,6,7,16,32,24,140
45.86370,0.00000,0.05827,0.00000,0.03087,0.97795,-0.19020,0.0,2023,6,7,16,32,24,151
45.86380,-0.03500,-0.02923,0.00000,0.03087,0.97588,-0.18983,0.0,2023,6,7,16,32,24,162
45.86390,-0.01750,-0.30923,0.00000,0.03074,0.97820,-0.18947,0.0,2023,6,7,16,32,24,174
45.86400,-0.03500,-0.06423,0.00000,0.03038,0.97746,-0.19020,0.0,2023,6,7,16,32,24,185
45.86410,-0.15750,-0.01173,0.00000,0.02952,0.97527,-0.19020,0.0,2023,6,7,16,32,24,197
45.86420,0.03500,-0.01173,0.00000,0.03172,0.97454,-0.19044,0.0,2023,6,7,16,32,24,208
45.86430,0.12250,-0.08173,0.00000,0.02916,0.97271,-0.18886,0.0,2023,6,7,16,32,24,219
45.86440,0.03500,0.00577,0.00000,0.03148,0.97539,-0.19288,0.0,2023,6,7,16,32,24,231
45.86450,-0.10500,0.09327,0.00000,0.03196,0.97820,-0.19227,0.0,2023,6,7,16,32,24,242
45.86460,0.14000,0.09327,0.00000,0.02830,0.97734,-0.19117,0.0,2023,6,7,16,32,24,254
45.86470,-0.07000,0.09327,0.00000,0.03270,0.97539,-0.18873,0.0,2023,6,7,16,32,24,265
45.86480,-0.07000,0.04078,0.00000,0.03123,0.97576,-0.18947,0.0,2023,6,7,16,32,24,276
45.86490,-0.03500,0.09327,0.00000,0.03038,0.97710,-0.18959,0.0,2023,6,7,16,32,24,288
45.86500,0.10500,0.12827,0.00000,0.03135,0.97441,-0.18934,0.0,2023,6,7,16,32,24,299
45.86510,0.01750,-0.09923,0.00000,0.02806,0.97539,-0.19215,0.0,2023,6,7,16,32,24,311
45.86520,-0.08750,0.07577,0.00000,0.02904,0.97698,-0.18898,0.0,2023,6,7,16,32,24,322
45.86530,-0.17500,-0.11673,0.00000,0.03001,0.97600,-0.19044,0.0,2023,6,7,16,32,24,333
45.86540,0.01750,0.07577,0.00000,0.03123,0.97344,-0.19117,0.0,2023,6,7,16,32,24,345
45.86550,0.03500,0.07577,0.00000,0.02989,0.97417,-0.19020,0.0,2023,6,7,16,32,24,356
45.86560,-0.05250,0.05827,0.00000,0.03245,0.97612,-0.18886,0.0,2023,6,7,16,32,24,368
45.86570,0.05250,-0.01173,0.00000,0.03184,0.97478,-0.19154,0.0,2023,6,7,16,32,24,379
45.86580,-0.03500,0.16327,0.00000,0.03087,0.97600,-0.18995,0.0,2023,6,7,16,32,24,390
45.86590,0.14000,-0.04673,0.00000,0.03013,0.97600,-0.19093,0.0,2023,6,7,16,32,24,402
45.86600,-0.03500,-0.08173,0.00000,0.02977,0.97734,-0.18995,0.0,2023,6,7,16,32,24,413
45.86610,-0.05250,-0.06423,0.00000,0.02989,0.97417,-0.18873,0.0,2023,6,7,16,32,24,425
45.86620,0.01750,0.02327,0.00000,0.03184,0.97746,-0.19166,0.0,2023,6,7,16,32,24,436
45.86630,-0.10500,-0.02923,0.00000,0.03184,0.97417,-0.19227,0.0,2023,6,7,16,32,24,447
45.86640,-0.08750,0.18077,0.00000,0.03160,0.97429,-0.19081,0.0,2023,6,7,16,32,24,459
45.86650,0.10500,-0.01173,0.00000,0.03087,0.97588,-0.19008,0.0,2023,6,7,16,32,24,470
45.86660,-0.05250,0.19827,0.00000,0.03050,0.97637,-0.19154,0.0,2023,6,7,16,32,24,482
45.86670,0.12250,0.09327,0.00000,0.02830,0.97637,-0.19154,0.0,2023,6,7,16,32,24,493
45.86680,-0.15750,0.09327,0.00000,0.03172,0.97563,-0.19288,0.0,2023,6,7,16,32,24,504
45.86690,-0.17500,-0.01173,0.00000,0.03050,0.97466,-0.19300,0.0,2023,6,7,16,32,24,516
45.86700,-0.14000,0.00577,0.00000,0.03111,0.97441,-0.19166,0.0,2023,6,7,16,32,24,527
45.86710,0.01750,0.00577,0.00000,0.03074,0.97380,-0.19117,0.0,2023,6,7,16,32,24,539
45.86720,0.03500,-0.04673,0.00000,0.03013,0.97502,-0.18971,0.0,2023,6,7,16,32,24,550
45.86730,-0.08750,0.00577,0.00000,0.03050,0.97746,-0.18910,0.0,2023,6,7,16,32,24,561
45.86740,-0.05250,0.11077,0.00000,0.03013,0.97600,-0.18922,0.0,2023,6,7,16,32,24,573
45.86750,0.05250,0.05827,0.00000,0.02916,0.97600,-0.19032,0.0,2023,6,7,16,32,24,584
45.86760,0.00000,0.07577,0.00000,0.02879,0.97771,-0.19142,0.0,2023,6,7,16,32,24,596
45.86770,-0.03500,-0.20423,0.00000,0.03160,0.97515,-0.19203,0.0,2023,6,7,16,32,24,607
45.86780,0.22750,-0.30923,0.00000,0.03209,0.97734,-0.19191,0.0,2023,6,7,16,32,24,618
45.86790,-0.01750,0.16327,0.00000,0.03148,0.97429,-0.19313,0.0,2023,6,7,16,32,24,630
45.86800,-0.10500,-0.06423,0.00000,0.03038,0.97490,-0.19227,0.0,2023,6,7,16,32,24,641
45.86810,-0.10500,0.04078,0.00000,0.03209,0.97490,-0.19008,0.0,2023,6,7,16,32,24,653
45.86820,-0.10500,-0.02923,0.00000,0.02977,0.97795,-0.18959,0.0,2023,6,7,16,32,24,664
45.86830,-0.07000,-0.01173,0.00000,0.03184,0.97515,-0.19020,0.0,2023,6,7,16,32,24,675
45.86840,0.01750,0.25077,0.00000,0.03013,0.97649,-0.19239,0.0,2023,6,7,16,32,24,687
45.86850,0.07000,0.04078,0.00000,0.03196,0.97771,-0.19325,0.0,2023,6,7,16,32,24,698
45.86860,0.00000,-0.06423,0.00000,0.03282,0.97576,-0.19032,0.0,2023,6,7,16,32,24,710
45.86870,-0.12250,0.00577,0.00000,0.03257,0.97588,-0.18971,0.0,2023,6,7,16,32,24,721
45.86880,-0.05250,-0.01173,0.00000,0.03062,0.97868,-0.18959,0.0,2023,6,7,16,32,24,732
45.86890,-0.22750,0.21577,0.00000,0.03087,0.97673,-0.19191,0.0,2023,6,7,16,32,24,744
45.86900,0.03500,-0.13423,0.00000,0.02867,0.97673,-0.19166,0.0,2023,6,7,16,32,24,755
45.86910,-0.14000,-0.06423,0.00000,0.03135,0.97710,-0.19032,0.0,2023,6,7,16,32,24,767
45.86920,-0.10500,-0.16923,0.00000,0.03062,0.97551,-0.19093,0.0,2023,6,7,16,32,24,778
45.86930,-0.03500,-0.18673,0.00000,0.02904,0.97600,-0.19044,0.0,2023,6,7,16,32,24,789
45.86940,0.00000,0.16327,0.00000,0.03245,0.97612,-0.19008,0.0,2023,6,7,16,32,24,801
45.86950,-0.05250,-0.08173,0.00000,0.03001,0.97405,-0.19374,0.0,2023,6,7,16,32,24,812
45.86960,-0.15750,0.04078,0.00000,0.03135,0.97429,-0.19069,0.0,2023,6,7,16,32,24,824
45.86970,-0.14000,-0.09923,0.00000,0.03050,0.97539,-0.19117,0.0,2023,6,7,16,32,24,835
45.86980,0.05250,0.16327,0.00000,0.02794,0.97844,-0.19117,0.0,2023,6,7,16,32,24,846
45.86990,0.01750,0.07577,0.00000,0.03160,0.97612,-0.19264,0.0,2023,6,7,16,32,24,858
45.87000,0.07000,-0.13423,0.00000,0.02940,0.97673,-0.19117,0.0,2023,6,7,16,32,24,869
45.87010,0.08750,0.04078,0.00000,0.02989,0.97454,-0.19105,0.0,2023,6,7,16,32,24,881
45.87020,-0.07000,0.04078,0.00000,0.03148,0.97563,-0.19191,0.0,2023,6,7,16,32,24,892
45.87030,0.01750,0.11077,0.00000,0.03013,0.97563,-0.19203,0.0,2023,6,7,16,32,24,903
45.87040,-0.03500,0.04078,0.00000,0.03087,0.97368,-0.19264,0.0,2023,6,7,16,32,24,915
45.87050,-0.21000,0.09327,0.00000,0.03062,0.97478,-0.19105,0.0,2023,6,7,16,32,24,926
45.87060,0.03500,0.02327,0.00000,0.03343,0.97588,-0.19252,0.0,2023,6,7,16,32,24,938
45.87070,0.01750,-0.08173,0.00000,0.03026,0.97722,-0.19227,0.0,2023,6,7,16,32,24,949
45.87080,0.00000,0.09327,0.00000,0.03013,0.97685,-0.18934,0.0,2023,6,7,16,32,24,960
45.87090,-0.01750,-0.15173,0.00000,0.02928,0.97515,-0.18934,0.0,2023,6,7,16,32,24,972
45.87100,0.03500,0.19827,0.00000,0.03001,0.97588,-0.18959,0.0,2023,6,7,16,32,24,983
45.87110,-0.05250,0.02327,0.00000,0.02904,0.97612,-0.18983,0.0,2023,6,7,16,32,24,995
45.87120,-0.15750,0.25077,0.00000,0.03135,0.97917,-0.19117,0.0,2023,6,7,16,32,25,6
45.87130,-0.26250,0.16327,0.00000,0.03074,0.97624,-0.19325,0.0,2023,6,7,16,32,25,17
45.87140,-0.01750,0.02327,0.00000,0.03245,0.97600,-0.18812,0.0,2023,6,7,16,32,25,29
45.87150,-0.15750,0.04078,0.00000,0.03184,0.97820,-0.18995,0.0,2023,6,7,16,32,25,40
45.87160,-0.03500,0.16327,0.00000,0.02891,0.97576,-0.19191,0.0,2023,6,7,16,32,25,52
45.87170,0.10500,0.18077,0.00000,0.03026,0.97515,-0.18837,0.0,2023,6,7,16,32,25,63
45.87180,0.05250,-0.15173,0.00000,0.03013,0.97771,-0.19044,0.0,2023,6,7,16,32,25,74
45.87190,0.10500,0.04078,0.00000,0.03013,0.97600,-0.19191,0.0,2023,6,7,16,32,25,86
45.87200,0.01750,-0.09923,0.00000,0.03074,0.97551,-0.19166,0.0,2023,6,7,16,32,25,97
45.87210,-0.01750,-0.04673,0.00000,0.03062,0.97685,-0.19300,0.0,2023,6,7,16,32,25,109
45.87220,-0.07000,0.16327,0.00000,0.02977,0.97551,-0.19105,0.0,2023,6,7,16,32,25,120
45.87230,-0.12250,0.21577,0.00000,0.03001,0.97637,-0.19093,0.0,2023,6,7,16,32,25,131
45.87240,0.05250,-0.18673,0.00000,0.02843,0.97478,-0.19154,0.0,2023,6,7,16,32,25,143
45.87250,-0.05250,0.00577,0.00000,0.03038,0.97685,-0.19215,0.0,2023,6,7,16,32,25,154
45.87260,-0.05250,-0.01173,0.00000,0.03062,0.97527,-0.19020,0.0,2023,6,7,16,32,25,166
45.87270,0.00000,-0.04673,0.00000,0.03184,0.97612,-0.19239,0.0,2023,6,7,16,32,25,177
45.87280,-0.10500,0.05827,0.00000,0.03111,0.97478,-0.19203,0.0,2023,6,7,16,32,25,188
45.87290,-0.28000,0.07577,0.00000,0.03111,0.97478,-0.19374,0.0,2023,6,7,16,32,25,200
45.87300,0.00000,0.04078,0.00000,0.03111,0.97563,-0.18910,0.0,2023,6,7,16,32,25,211
45.87310,-0.31500,0.11077,0.00000,0.03062,0.97551,-0.19203,0.0,2023,6,7,16,32,25,223
45.87320,0.05250,0.07577,0.00000,0.03148,0.97771,-0.19130,0.0,2023,6,7,16,32,25,234
45.87330,0.01750,-0.11673,0.00000,0.03184,0.97734,-0.18898,0.0,2023,6,7,16,32,25,245
45.87340,0.10500,0.12827,0.00000,0.03038,0.97746,-0.19130,0.0,2023,6,7,16,32,25,257
45.87350,-0.10500,0.04078,0.00000,0.03013,0.97539,-0.19154,0.0,2023,6,7,16,32,25,268
45.87360,0.00000,-0.01173,0.00000,0.02989,0.97515,-0.19203,0.0,2023,6,7,16,32,25,280
45.87370,-0.08750,-0.04673,0.00000,0.02989,0.97490,-0.19117,0.0,2023,6,7,16,32,25,291
45.87380,-0.21000,-0.04673,0.00000,0.03123,0.97685,-0.19142,0.0,2023,6,7,16,32,25,302
45.87390,-0.12250,-0.01173,0.00000,0.03074,0.97612,-0.18800,0.0,2023,6,7,16,32,25,314
45.87400,-0.17500,0.09327,0.00000,0.03221,0.97502,-0.19008,0.0,2023,6,7,16,32,25,325
45.87410,0.01750,-0.06423,0.00000,0.03306,0.97527,-0.19069,0.0,2023,6,7,16,32,25,337
45.87420,0.05250,-0.06423,0.00000,0.03184,0.97759,-0.19288,0.0,2023,6,7,16,32,25,348
45.87430,-0.01750,0.02327,0.00000,0.02916,0.97551,-0.19117,0.0,2023,6,7,16,32,25,359
45.87440,0.05250,0.07577,0.00000,0.03062,0.97502,-0.19325,0.0,2023,6,7,16,32,25,371
45.87450,-0.07000,0.04078,0.00000,0.03172,0.97588,-0.19288,0.0,2023,6,7,16,32,25,382
45.87460,-0.08750,-0.06423,0.00000,0.02891,0.97649,-0.19069,0.0,2023,6,7,16,32,25,394
45.87470,-0.08750,-0.09923,0.00000,0.02952,0.97673,-0.19166,0.0,2023,6,7,16,32,25,405
45.87480,0.05250,-0.16923,0.00000,0.03026,0.97637,-0.19056,0.0,2023,6,7,16,32,25,416
45.87490,-0.01750,0.18077,0.00000,0.03074,0.97661,-0.18934,0.0,2023,6,7,16,32,25,428
45.87500,-0.08750,0.00577,0.00000,0.03172,0.97624,-0.19191,0.0,2023,6,7,16,32,25,439
45.87510,-0.03500,0.12827,0.00000,0.03074,0.97820,-0.19264,0.0,2023,6,7,16,32,25,451
45.87520,-0.17500,0.18077,0.00000,0.03160,0.97588,-0.19020,0.0,2023,6,7,16,32,25,462
45.87530,0.05250,-0.08173,0.00000,0.03270,0.97685,-0.19020,0.0,2023,6,7,16,32,25,473
45.87540,0.01750,-0.06423,0.00000,0.03270,0.97685,-0.19093,0.0,2023,6,7,16,32,25,485
45.87550,-0.03500,0.09327,0.00000,0.03099,0.97332,-0.19105,0.0,2023,6,7,16,32,25,496
45.87560,-0.08750,-0.04673,0.00000,0.02952,0.97612,-0.19105,0.0,2023,6,7,16,32,25,508
45.87570,-0.01750,-0.11673,0.00000,0.02928,0.97539,-0.19093,0.0,2023,6,7,16,32,25,519
45.87580,-0.05250,0.19827,0.00000,0.03209,0.97710,-0.18995,0.0,2023,6,7,16,32,25,530
45.87590,0.05250,-0.02923,0.00000,0.03282,0.97490,-0.19203,0.0,2023,6,7,16,32,25,542
45.87600,0.05250,-0.02923,0.00000,0.03111,0.97612,-0.19069,0.0,2023,6,7,16,32,25,553
45.87610,-0.08750,0.05827,0.00000,0.03245,0.97429,-0.19008,0.0,2023,6,7,16,32,25,565
45.87620,-0.08750,0.02327,0.00000,0.03050,0.97466,-0.19227,0.0,2023,6,7,16,32,25,576
45.87630,-0.05250,-0.16923,0.00000,0.03111,0.97771,-0.19288,0.0,2023,6,7,16,32,25,587
45.87640,-0.05250,0.07577,0.00000,0.03209,0.97588,-0.19093,0.0,2023,6,7,16,32,25,599
45.87650,-0.01750,-0.09923,0.00000,0.03087,0.97551,-0.19154,0.0,2023,6,7,16,32,25,610
45.87660,0.07000,0.00577,0.00000,0.03318,0.97637,-0.18947,0.0,2023,6,7,16,32,25,622
45.87670,-0.10500,0.14577,0.00000,0.03087,0.97624,-0.19154,0.0,2023,6,7,16,32,25,633
45.87680,-0.07000,-0.23923,0.00000,0.02952,0.97685,-0.18922,0.0,2023,6,7,16,32,25,644
45.87690,0.00000,0.07577,0.00000,0.03270,0.97673,-0.19349,0.0,2023,6,7,16,32,25,656
45.87700,-0.08750,-0.18673,0.00000,0.02940,0.97576,-0.19117,0.0,2023,6,7,16,32,25,667
45.87710,-0.01750,0.07577,0.00000,0.03074,0.97637,-0.19069,0.0,2023,6,7,16,32,25,679
45.87720,0.00000,-0.09923,0.00000,0.03148,0.97576,-0.18910,0.0,2023,6,7,16,32,25,690
45.87730,0.03500,0.09327,0.00000,0.03111,0.97673,-0.19081,0.0,2023,6,7,16,32,25,701
45.87740,0.05250,-0.01173,0.00000,0.03050,0.97588,-0.18788,0.0,2023,6,7,16,32,25,713
45.87750,0.08750,0.02327,0.00000,0.03013,0.97734,-0.19154,0.0,2023,6,7,16,32,25,724
45.87760,-0.07000,-0.08173,0.00000,0.02940,0.97600,-0.19044,0.0,2023,6,7,16,32,25,736
45.87770,-0.01750,0.11077,0.00000,0.02940,0.97502,-0.19008,0.0,2023,6,7,16,32,25,747
45.87780,0.03500,-0.02923,0.00000,0.03160,0.97380,-0.18971,0.0,2023,6,7,16,32,25,758
45.87790,0.14000,-0.02923,0.00000,0.03062,0.97771,-0.19093,0.0,2023,6,7,16,32,25,770
45.87800,0.01750,-0.29173,0.00000,0.03074,0.97600,-0.19178,0.0,2023,6,7,16,32,25,781
45.87810,-0.08750,0.16327,0.00000,0.03123,0.97258,-0.18849,0.0,2023,6,7,16,32,25,793
45.87820,0.03500,-0.04673,0.00000,0.03209,0.97368,-0.19325,0.0,2023,6,7,16,32,25,804
45.87830,0.01750,0.04078,0.00000,0.03123,0.97429,-0.19215,0.0,2023,6,7,16,32,25,815
45.87840,-0.08750,-0.01173,0.00000,0.03074,0.97344,-0.18825,0.0,2023,6,7,16,32,25,827
45.87850,-0.17500,0.11077,0.00000,0.03087,0.97490,-0.18947,0.0,2023,6,7,16,32,25,838
45.87860,-0.14000,-0.01173,0.00000,0.03087,0.97563,-0.19203,0.0,2023,6,7,16,32,25,850
45.87870,0.14000,-0.08173,0.00000,0.03160,0.97539,-0.19191,0.0,2023,6,7,16,32,25,861
45.87880,0.03500,-0.13423,0.00000,0.02916,0.97637,-0.19069,0.0,2023,6,7,16,32,25,872
45.87890,0.10500,0.09327,0.00000,0.02989,0.97332,-0.19069,0.0,2023,6,7,16,32,25,884
45.87900,0.14000,-0.09923,0.00000,0.02928,0.97612,-0.19008,0.0,2023,6,7,16,32,25,895
45.87910,-0.07000,0.09327,0.00000,0.03135,0.97673,-0.19105,0.0,2023,6,7,16,32,25,907
45.87920,0.05250,0.00577,0.00000,0.03148,0.97551,-0.19093,0.0,2023,6,7,16,32,25,918
45.87930,0.00000,-0.18673,0.00000,0.02745,0.97685,-0.19117,0.0,2023,6,7,16,32,25,929
45.87940,-0.01750,0.11077,0.00000,0.03038,0.97820,-0.19313,0.0,2023,6,7,16,32,25,941
45.87950,0.01750,0.05827,0.00000,0.03013,0.97527,-0.19288,0.0,2023,6,7,16,32,25,952
45.87960,-0.03500,-0.06423,0.00000,0.03135,0.97661,-0.19227,0.0,2023,6,7,16,32,25,964
45.87970,0.03500,-0.06423,0.00000,0.02940,0.97563,-0.19203,0.0,2023,6,7,16,32,25,975
45.87980,0.24500,-0.06423,0.00000,0.03026,0.97588,-0.19081,0.0,2023,6,7,16,32,25,986
45.87990,0.14000,0.09327,0.00000,0.03087,0.97527,-0.19044,0.0,2023,6,7,16,32,25,998
45.88000,-0.05250,0.05827,0.00000,0.02965,0.97734,-0.19056,0.0,2023,6,7,16,32,25,9
45.88010,-0.15750,0.21577,0.00000,0.03099,0.97868,-0.19105,0.0,2023,6,7,16,32,25,21
45.88020,0.01750,-0.06423,0.00000,0.03111,0.97600,-0.18959,0.0,2023,6,7,16,32,25,32
45.88030,0.19250,-0.15173,0.00000,0.03050,0.97454,-0.18873,0.0,2023,6,7,16,32,26,3
45.88040,-0.01750,-0.02923,0.00000,0.02879,0.97551,-0.19081,0.0,2023,6,7,16,32,26,15
45.88050,-0.03500,-0.06423,0.00000,0.02855,0.97539,-0.18959,0.0,2023,6,7,16,32,26,26
45.88060,-0.05250,0.18077,0.00000,0.03221,0.97344,-0.18837,0.0,2023,6,7,16,32,26,38
45.88070,-0.05250,0.09327,0.00000,0.03294,0.97454,-0.18934,0.0,2023,6,7,16,32,26,49
45.88080,0.00000,-0.20423,0.00000,0.03172,0.97490,-0.19020,0.0,2023,6,7,16,32,26,60
45.88090,-0.07000,-0.01173,0.00000,0.03245,0.97441,-0.18983,0.0,2023,6,7,16,32,26,72
45.88100,0.19250,-0.16923,0.00000,0.03013,0.97734,-0.19093,0.0,2023,6,7,16,32,26,83
45.88110,0.03500,0.09327,0.00000,0.03221,0.97698,-0.18873,0.0,2023,6,7,16,32,26,95
45.88120,-0.08750,-0.01173,0.00000,0.02916,0.97551,-0.19166,0.0,2023,6,7,16,32,26,106
45.88130,-0.07000,0.19827,0.00000,0.03123,0.97490,-0.19215,0.0,2023,6,7,16,32,26,117
45.88140,0.07000,0.09327,0.00000,0.03099,0.97515,-0.19081,0.0,2023,6,7,16,32,26,129
45.88150,-0.08750,-0.16923,0.00000,0.03087,0.97624,-0.19069,0.0,2023,6,7,16,32,26,140
45.88160,-0.05250,0.14577,0.00000,0.03001,0.97746,-0.19154,0.0,2023,6,7,16,32,26,152
45.88170,0.14000,0.05827,0.00000,0.03038,0.97417,-0.19215,0.0,2023,6,7,16,32,26,163
45.88180,-0.07000,0.12827,0.00000,0.02879,0.97734,-0.19056,0.0,2023,6,7,16,32,26,174
45.88190,-0.05250,-0.04673,0.00000,0.03221,0.97527,-0.18959,0.0,2023,6,7,16,32,26,186
45.88200,-0.05250,0.00577,0.00000,0.02977,0.97600,-0.19227,0.0,2023,6,7,16,32,26,197
45.88210,0.00000,-0.01173,0.00000,0.02989,0.97771,-0.19227,0.0,2023,6,7,16,32,26,209
45.88220,-0.01750,-0.01173,0.00000,0.03001,0.97795,-0.19020,0.0,2023,6,7,16,32,26,220
45.88230,-0.07000,0.30327,0.00000,0.03135,0.97637,-0.18861,0.0,2023,6,7,16,32,26,231
45.88240,0.05250,0.12827,0.00000,0.03062,0.97515,-0.19056,0.0,2023,6,7,16,32,26,243
45.88250,0.15750,0.32077,0.00000,0.02977,0.97466,-0.19056,0.0,2023,6,7,16,32,26,254
45.88260,-0.01750,0.07577,0.00000,0.02916,0.97527,-0.19056,0.0,2023,6,7,16,32,26,266
45.88270,-0.19250,-0.04673,0.00000,0.03050,0.97441,-0.19105,0.0,2023,6,7,16,32,26,277
45.88280,0.14000,-0.18673,0.00000,0.03087,0.97734,-0.19044,0.0,2023,6,7,16,32,26,288
45.88290,0.03500,0.07577,0.00000,0.02696,0.97551,-0.19252,0.0,2023,6,7,16,32,26,300
45.88300,-0.01750,-0.09923,0.00000,0.03367,0.97649,-0.19130,0.0,2023,6,7,16,32,26,311
45.88310,0.00000,-0.18673,0.00000,0.03001,0.97649,-0.19032,0.0,2023,6,7,16,32,26,323
45.88320,0.07000,-0.08173,0.00000,0.02940,0.97771,-0.18861,0.0,2023,6,7,16,32,26,334
45.88330,0.07000,0.16327,0.00000,0.03306,0.97673,-0.18983,0.0,2023,6,7,16,32,26,345
45.88340,-0.10500,0.14577,0.00000,0.02843,0.97685,-0.19032,0.0,2023,6,7,16,32,26,357
45.88350,0.08750,-0.04673,0.00000,0.03123,0.97807,-0.19130,0.0,2023,6,7,16,32,26,368
45.88360,0.10500,-0.20423,0.00000,0.03038,0.97576,-0.19081,0.0,2023,6,7,16,32,26,380
45.88370,0.01750,-0.04673,0.00000,0.02952,0.97527,-0.19215,0.0,2023,6,7,16,32,26,391
45.88380,0.05250,-0.01173,0.00000,0.03087,0.97441,-0.19117,0.0,2023,6,7,16,32,26,402
45.88390,-0.08750,0.19827,0.00000,0.03270,0.97673,-0.19227,0.0,2023,6,7,16,32,26,414
45.88400,-0.08750,-0.02923,0.00000,0.03050,0.97734,-0.18959,0.0,2023,6,7,16,32,26,425
45.88410,-0.19250,0.00577,0.00000,0.03013,0.97673,-0.19020,0.0,2023,6,7,16,32,26,437
45.88420,-0.19250,0.05827,0.00000,0.02952,0.97551,-0.19227,0.0,2023,6,7,16,32,26,448
45.88430,0.01750,-0.02923,0.00000,0.03001,0.97551,-0.19142,0.0,2023,6,7,16,32,26,459
45.88440,-0.01750,0.18077,0.00000,0.03038,0.97539,-0.19032,0.0,2023,6,7,16,32,26,471
45.88450,0.08750,-0.09923,0.00000,0.03050,0.97759,-0.18898,0.0,2023,6,7,16,32,26,482
45.88460,0.00000,-0.16923,0.00000,0.03099,0.97429,-0.18922,0.0,2023,6,7,16,32,26,494
45.88470,0.01750,0.02327,0.00000,0.03196,0.97759,-0.19044,0.0,2023,6,7,16,32,26,505
45.88480,0.03500,0.00577,0.00000,0.03123,0.97624,-0.19117,0.0,2023,6,7,16,32,26,516
45.88490,-0.12250,0.00577,0.00000,0.02928,0.97832,-0.19081,0.0,2023,6,7,16,32,26,528
45.88500,0.12250,-0.15173,0.00000,0.03148,0.97490,-0.19044,0.0,2023,6,7,16,32,26,539
45.88510,-0.01750,0.02327,0.00000,0.03026,0.97746,-0.19130,0.0,2023,6,7,16,32,26,551
45.88520,0.14000,-0.04673,0.00000,0.03050,0.97624,-0.19276,0.0,2023,6,7,16,32,26,562
45.88530,-0.05250,0.14577,0.00000,0.02989,0.97746,-0.18971,0.0,2023,6,7,16,32,26,573
45.88540,-0.12250,-0.04673,0.00000,0.03062,0.97685,-0.18971,0.0,2023,6,7,16,32,26,585
45.88550,-0.10500,0.11077,0.00000,0.03013,0.97490,-0.19093,0.0,2023,6,7,16,32,26,596
45.88560,0.08750,-0.09923,0.00000,0.03135,0.97576,-0.19008,0.0,2023,6,7,16,32,26,608
45.88570,0.12250,0.07577,0.00000,0.02952,0.97527,-0.19130,0.0,2023,6,7,16,32,26,619
45.88580,-0.08750,-0.06423,0.00000,0.02867,0.97283,-0.18959,0.0,2023,6,7,16,32,26,630
45.88590,-0.14000,-0.08173,0.00000,0.03221,0.97661,-0.19203,0.0,2023,6,7,16,32,26,642
45.88600,-0.12250,-0.11673,0.00000,0.03001,0.97722,-0.18922,0.0,2023,6,7,16,32,26,653
45.88610,-0.08750,0.02327,0.00000,0.03074,0.97454,-0.19142,0.0,2023,6,7,16,32,26,665
45.88620,-0.05250,0.00577,0.00000,0.02989,0.97637,-0.19142,0.0,2023,6,7,16,32,26,676
45.88630,0.15750,0.02327,0.00000,0.03026,0.97490,-0.18983,0.0,2023,6,7,16,32,26,687
45.88640,0.03500,-0.08173,0.00000,0.03050,0.97649,-0.19020,0.0,2023,6,7,16,32,26,699
45.88650,0.00000,0.23327,0.00000,0.03099,0.97441,-0.18959,0.0,2023,6,7,16,32,26,710
45.88660,0.08750,0.00577,0.00000,0.03062,0.97332,-0.19227,0.0,2023,6,7,16,32,26,722
45.88670,-0.22750,0.02327,0.00000,0.03221,0.97746,-0.19044,0.0,2023,6,7,16,32,26,733
45.88680,-0.05250,-0.18673,0.00000,0.03111,0.97551,-0.19056,0.0,2023,6,7,16,32,26,744
45.88690,0.03500,-0.01173,0.00000,0.03001,0.97600,-0.19154,0.0,2023,6,7,16,32,26,756
45.88700,-0.12250,-0.08173,0.00000,0.03038,0.97771,-0.19093,0.0,2023,6,7,16,32,26,767
45.88710,-0.07000,0.18077,0.00000,0.03233,0.97295,-0.18910,0.0,2023,6,7,16,32,26,779
45.88720,-0.07000,-0.01173,0.00000,0.03160,0.97368,-0.19154,0.0,2023,6,7,16,32,26,790
45.88730,-0.08750,0.00577,0.00000,0.02782,0.97283,-0.19239,0.0,2023,6,7,16,32,26,801
45.88740,-0.15750,0.02327,0.00000,0.02965,0.97588,-0.19239,0.0,2023,6,7,16,32,26,813
45.88750,0.12250,-0.09923,0.00000,0.03074,0.97539,-0.19276,0.0,2023,6,7,16,32,26,824
45.88760,0.03500,0.05827,0.00000,0.03050,0.97661,-0.19069,0.0,2023,6,7,16,32,26,836
45.88770,0.00000,0.00577,0.00000,0.02940,0.97624,-0.19215,0.0,2023,6,7,16,32,26,847
45.88780,0.14000,0.11077,0.00000,0.02952,0.97441,-0.19191,0.0,2023,6,7,16,32,26,858
45.88790,0.03500,-0.06423,0.00000,0.03123,0.97673,-0.19227,0.0,2023,6,7,16,32,26,870
45.88800,-0.19250,0.25077,0.00000,0.03148,0.97539,-0.19178,0.0,2023,6,7,16,32,26,881
45.88810,-0.19250,0.16327,0.00000,0.03038,0.97746,-0.19044,0.0,2023,6,7,16,32,26,893
45.88820,0.00000,-0.01173,0.00000,0.03038,0.97283,-0.19093,0.0,2023,6,7,16,32,26,904
45.88830,0.07000,-0.01173,0.00000,0.03184,0.97380,-0.19069,0.0,2023,6,7,16,32,26,915
45.88840,0.03500,0.04078,0.00000,0.03026,0.97746,-0.18922,0.0,2023,6,7,16,32,26,927
45.88850,-0.12250,0.11077,0.00000,0.03135,0.97515,-0.19117,0.0,2023,6,7,16,32,26,938
45.88860,-0.05250,-0.04673,0.00000,0.03135,0.97612,-0.18995,0.0,2023,6,7,16,32,26,950
45.88870,0.05250,0.04078,0.00000,0.03209,0.97661,-0.19117,0.0,2023,6,7,16,32,26,961
45.88880,-0.19250,0.18077,0.00000,0.03074,0.97454,-0.19117,0.0,2023,6,7,16,32,26,972
45.88890,-0.07000,-0.09923,0.00000,0.03038,0.97637,-0.19093,0.0,2023,6,7,16,32,26,984
45.88900,-0.21000,0.12827,0.00000,0.03087,0.97588,-0.19008,0.0,2023,6,7,16,32,26,995
45.88910,0.00000,-0.11673,0.00000,0.03160,0.97490,-0.19264,0.0,2023,6,7,16,32,26,7
45.88920,0.14000,0.07577,0.00000,0.03099,0.97722,-0.19142,0.0,2023,6,7,16,32,26,18
45.88930,-0.10500,0.07577,0.00000,0.03135,0.97722,-0.19215,0.0,2023,6,7,16,32,26,29
45.88940,0.03500,-0.11673,0.00000,0.02940,0.97710,-0.19056,0.0,2023,6,7,16,32,27,1
45.88950,0.14000,-0.08173,0.00000,0.03270,0.97527,-0.19239,0.0,2023,6,7,16,32,27,12
45.88960,0.00000,0.12827,0.00000,0.02891,0.97515,-0.19313,0.0,2023,6,7,16,32,27,24
45.88970,-0.05250,0.07577,0.00000,0.02757,0.97478,-0.19117,0.0,2023,6,7,16,32,27,35
45.88980,-0.01750,0.19827,0.00000,0.03306,0.97502,-0.19178,0.0,2023,6,7,16,32,27,46
45.88990,-0.14000,-0.06423,0.00000,0.03099,0.97746,-0.18922,0.0,2023,6,7,16,32,27,58
45.89000,-0.03500,0.23327,0.00000,0.02818,0.97685,-0.19093,0.0,2023,6,7,16,32,27,69
45.89010,-0.08750,0.12827,0.00000,0.03074,0.97563,-0.19008,0.0,2023,6,7,16,32,27,81
45.89020,0.22750,-0.18673,0.00000,0.03135,0.97746,-0.19288,0.0,2023,6,7,16,32,27,92
45.89030,0.12250,0.16327,0.00000,0.03050,0.97698,-0.19069,0.0,2023,6,7,16,32,27,103
45.89040,-0.24500,0.37327,0.00000,0.03001,0.97478,-0.19252,0.0,2023,6,7,16,32,27,115
45.89050,0.00000,-0.11673,0.00000,0.03209,0.97563,-0.19252,0.0,2023,6,7,16,32,27,126
45.89060,-0.12250,0.02327,0.00000,0.03135,0.97673,-0.19032,0.0,2023,6,7,16,32,27,138
45.89070,-0.01750,0.02327,0.00000,0.03087,0.97649,-0.18934,0.0,2023,6,7,16,32,27,149
45.89080,0.12250,0.00577,0.00000,0.03123,0.97563,-0.19069,0.0,2023,6,7,16,32,27,160
45.89090,-0.10500,0.04078,0.00000,0.03160,0.97746,-0.19252,0.0,2023,6,7,16,32,27,172
45.89100,0.03500,-0.04673,0.00000,0.03013,0.97478,-0.18983,0.0,2023,6,7,16,32,27,183
45.89110,0.15750,0.12827,0.00000,0.02891,0.97710,-0.19105,0.0,2023,6,7,16,32,27,195
45.89120,0.05250,0.00577,0.00000,0.03148,0.97612,-0.18861,0.0,2023,6,7,16,32,27,206
45.89130,0.05250,0.04078,0.00000,0.03050,0.97673,-0.19154,0.0,2023,6,7,16,32,27,217
45.89140,-0.07000,-0.11673,0.00000,0.03135,0.97746,-0.19276,0.0,2023,6,7,16,32,27,229
45.89150,0.08750,-0.02923,0.00000,0.03184,0.97405,-0.18922,0.0,2023,6,7,16,32,27,240
45.89160,-0.08750,0.12827,0.00000,0.03074,0.97771,-0.19069,0.0,2023,6,7,16,32,27,252
45.89170,-0.08750,0.09327,0.00000,0.02891,0.97454,-0.19081,0.0,2023,6,7,16,32,27,263
45.89180,0.03500,-0.22173,0.00000,0.02843,0.97563,-0.19239,0.0,2023,6,7,16,32,27,274
45.89190,-0.01750,0.05827,0.00000,0.02928,0.97710,-0.19020,0.0,2023,6,7,16,32,27,286
45.89200,-0.01750,0.33827,0.00000,0.02965,0.97551,-0.19032,0.0,2023,6,7,16,32,27,297
45.89210,-0.17500,-0.09923,0.00000,0.02952,0.97454,-0.19215,0.0,2023,6,7,16,32,27,309
45.89220,0.03500,0.21577,0.00000,0.02891,0.97490,-0.19166,0.0,2023,6,7,16,32,27,320
45.89230,0.12250,-0.06423,0.00000,0.03331,0.97612,-0.19264,0.0,2023,6,7,16,32,27,331
45.89240,-0.05250,-0.02923,0.00000,0.03184,0.97502,-0.19093,0.0,2023,6,7,16,32,27,343
45.89250,-0.21000,0.07577,0.00000,0.03026,0.97893,-0.19020,0.0,2023,6,7,16,32,27,354
45.89260,-0.03500,-0.09923,0.00000,0.02977,0.97722,-0.19008,0.0,2023,6,7,16,32,27,366
45.89270,-0.01750,0.05827,0.00000,0.03148,0.97759,-0.19166,0.0,2023,6,7,16,32,27,377
45.89280,-0.08750,0.30327,0.00000,0.02977,0.97515,-0.19154,0.0,2023,6,7,16,32,27,388
45.89290,-0.12250,0.04078,0.00000,0.02952,0.97527,-0.18934,0.0,2023,6,7,16,32,27,400
45.89300,0.05250,-0.06423,0.00000,0.03062,0.97771,-0.19191,0.0,2023,6,7,16,32,27,411
45.89310,-0.12250,0.07577,0.00000,0.03074,0.97734,-0.18751,0.0,2023,6,7,16,32,27,423
45.89320,0.05250,0.07577,0.00000,0.02916,0.97685,-0.19166,0.0,2023,6,7,16,32,27,434
45.89330,0.03500,0.09327,0.00000,0.03123,0.97588,-0.19081,0.0,2023,6,7,16,32,27,445
45.89340,-0.07000,0.11077,0.00000,0.03318,0.97502,-0.19081,0.0,2023,6,7,16,32,27,457
45.89350,-0.14000,0.09327,0.00000,0.02965,0.97661,-0.19276,0.0,2023,6,7,16,32,27,468
45.89360,-0.01750,0.18077,0.00000,0.02928,0.97661,-0.19178,0.0,2023,6,7,16,32,27,480
45.89370,0.05250,0.07577,0.00000,0.02965,0.97685,-0.19264,0.0,2023,6,7,16,32,27,491
45.89380,0.14000,-0.09923,0.00000,0.03013,0.97734,-0.19203,0.0,2023,6,7,16,32,27,502
45.89390,-0.05250,0.12827,0.00000,0.03062,0.97393,-0.19032,0.0,2023,6,7,16,32,27,514
45.89400,0.14000,-0.06423,0.00000,0.02952,0.97454,-0.19300,0.0,2023,6,7,16,32,27,525
45.89410,-0.08750,0.09327,0.00000,0.03001,0.97832,-0.19166,0.0,2023,6,7,16,32,27,537
45.89420,0.00000,-0.06423,0.00000,0.03245,0.97466,-0.19117,0.0,2023,6,7,16,32,27,548
45.89430,-0.08750,0.14577,0.00000,0.03148,0.97246,-0.19361,0.0,2023,6,7,16,32,27,559
45.89440,-0.14000,0.04078,0.00000,0.03209,0.97661,-0.19471,0.0,2023,6,7,16,32,27,571
45.89450,-0.03500,-0.23923,0.00000,0.02928,0.97600,-0.19276,0.0,2023,6,7,16,32,27,582
45.89460,-0.12250,0.14577,0.00000,0.02940,0.97612,-0.19337,0.0,2023,6,7,16,32,27,594
45.89470,0.01750,-0.09923,0.00000,0.03123,0.97539,-0.19166,0.0,2023,6,7,16,32,27,605
45.89480,0.17500,0.16327,0.00000,0.02843,0.97734,-0.19154,0.0,2023,6,7,16,32,27,616
45.89490,0.12250,0.12827,0.00000,0.03013,0.97405,-0.19203,0.0,2023,6,7,16,32,27,628
45.89500,-0.05250,0.12827,0.00000,0.03001,0.97649,-0.19300,0.0,2023,6,7,16,32,27,639
45.89510,0.10500,-0.04673,0.00000,0.03221,0.97539,-0.19044,0.0,2023,6,7,16,32,27,651
45.89520,-0.05250,-0.06423,0.00000,0.03196,0.97637,-0.19178,0.0,2023,6,7,16,32,27,662
45.89530,-0.17500,0.11077,0.00000,0.03135,0.97624,-0.19300,0.0,2023,6,7,16,32,27,673
45.89540,0.07000,0.07577,0.00000,0.03294,0.97698,-0.19361,0.0,2023,6,7,16,32,27,685
45.89550,0.08750,-0.20423,0.00000,0.03087,0.97527,-0.19154,0.0,2023,6,7,16,32,27,696
45.89560,-0.12250,0.18077,0.00000,0.03123,0.97722,-0.18788,0.0,2023,6,7,16,32,27,708
45.89570,0.01750,-0.20423,0.00000,0.02965,0.97759,-0.18995,0.0,2023,6,7,16,32,27,719
45.89580,0.19250,0.05827,0.00000,0.02989,0.97893,-0.19093,0.0,2023,6,7,16,32,27,730
45.89590,0.07000,-0.02923,0.00000,0.03087,0.97551,-0.19227,0.0,2023,6,7,16,32,27,742
45.89600,0.01750,0.12827,0.00000,0.02977,0.97380,-0.19130,0.0,2023,6,7,16,32,27,753
45.89610,-0.15750,0.07577,0.00000,0.03013,0.97698,-0.18995,0.0,2023,6,7,16,32,27,765
45.89620,0.05250,0.00577,0.00000,0.03026,0.97783,-0.19178,0.0,2023,6,7,16,32,27,776
45.89630,0.05250,-0.02923,0.00000,0.02989,0.97673,-0.19203,0.0,2023,6,7,16,32,27,787
45.89640,0.03500,0.00577,0.00000,0.03038,0.97637,-0.19215,0.0,2023,6,7,16,32,27,799
45.89650,-0.07000,0.00577,0.00000,0.03013,0.97685,-0.19227,0.0,2023,6,7,16,32,27,810
45.89660,0.00000,-0.04673,0.00000,0.03001,0.97344,-0.19191,0.0,2023,6,7,16,32,27,822
45.89670,0.12250,0.12827,0.00000,0.03343,0.97539,-0.19093,0.0,2023,6,7,16,32,27,833
45.89680,-0.12250,-0.02923,0.00000,0.03038,0.97515,-0.19069,0.0,2023,6,7,16,32,27,844
45.89690,-0.08750,0.02327,0.00000,0.03123,0.97515,-0.19325,0.0,2023,6,7,16,32,27,856
45.89700,-0.03500,-0.13423,0.00000,0.03099,0.97417,-0.19032,0.0,2023,6,7,16,32,27,867
45.89710,0.01750,-0.11673,0.00000,0.03026,0.97356,-0.19008,0.0,2023,6,7,16,32,27,879
45.89720,0.03500,-0.01173,0.00000,0.02989,0.97441,-0.18922,0.0,2023,6,7,16,32,27,890
45.89730,-0.12250,0.05827,0.00000,0.02977,0.97673,-0.19276,0.0,2023,6,7,16,32,27,901
45.89740,-0.07000,0.07577,0.00000,0.03038,0.97771,-0.18947,0.0,2023,6,7,16,32,27,913
45.89750,0.12250,-0.39672,0.00000,0.02952,0.97588,-0.19227,0.0,2023,6,7,16,32,27,924
45.89760,0.00000,0.04078,0.00000,0.03172,0.97502,-0.19252,0.0,2023,6,7,16,32,27,936
45.89770,-0.14000,0.07577,0.00000,0.02965,0.97637,-0.19081,0.0,2023,6,7,16,32,27,947
45.89780,-0.19250,0.07577,0.00000,0.03087,0.97368,-0.18861,0.0,2023,6,7,16,32,27,958
45.89790,-0.10500,-0.13423,0.00000,0.02928,0.97539,-0.19264,0.0,2023,6,7,16,32,27,970
45.89800,-0.05250,-0.11673,0.00000,0.03001,0.97637,-0.19313,0.0,2023,6,7,16,32,27,981
45.89810,0.07000,-0.18673,0.00000,0.02952,0.97820,-0.19288,0.0,2023,6,7,16,32,27,993
45.89820,0.05250,0.02327,0.00000,0.03160,0.97441,-0.19252,0.0,2023,6,7,16,32,27,4
45.89830,-0.08750,0.18077,0.00000,0.03026,0.97685,-0.19056,0.0,2023,6,7,16,32,28,5
45.89840,0.12250,-0.16923,0.00000,0.03184,0.97710,-0.18873,0.0,2023,6,7,16,32,28,17
45.89850,0.14000,-0.20423,0.00000,0.03367,0.97588,-0.19142,0.0,2023,6,7,16,32,28,28
45.89860,-0.12250,0.09327,0.00000,0.03087,0.97454,-0.19227,0.0,2023,6,7,16,32,28,40
45.89870,-0.07000,0.04078,0.00000,0.03172,0.97685,-0.18959,0.0,2023,6,7,16,32,28,51
45.89880,-0.07000,-0.02923,0.00000,0.03087,0.97600,-0.18922,0.0,2023,6,7,16,32,28,62
45.89890,0.00000,0.16327,0.00000,0.03074,0.97698,-0.19154,0.0,2023,6,7,16,32,28,74
45.89900,0.17500,0.28577,0.00000,0.03196,0.97600,-0.19313,0.0,2023,6,7,16,32,28,85
45.89910,-0.03500,-0.06423,0.00000,0.03135,0.97551,-0.19203,0.0,2023,6,7,16,32,28,97
45.89920,0.05250,-0.01173,0.00000,0.03111,0.97551,-0.19166,0.0,2023,6,7,16,32,28,108
45.89930,-0.07000,-0.06423,0.00000,0.03050,0.97551,-0.19215,0.0,2023,6,7,16,32,28,119
45.89940,0.00000,0.05827,0.00000,0.02952,0.97612,-0.18934,0.0,2023,6,7,16,32,28,131
45.89950,0.07000,-0.01173,0.00000,0.03172,0.97637,-0.19142,0.0,2023,6,7,16,32,28,142
45.89960,-0.07000,0.05827,0.00000,0.03172,0.97576,-0.18995,0.0,2023,6,7,16,32,28,154
45.89970,0.15750,-0.01173,0.00000,0.03160,0.97649,-0.19300,0.0,2023,6,7,16,32,28,165
45.89980,0.00000,-0.06423,0.00000,0.03062,0.97881,-0.18983,0.0,2023,6,7,16,32,28,176
45.89990,0.01750,-0.04673,0.00000,0.02989,0.97746,-0.19093,0.0,2023,6,7,16,32,28,188
45.90000,-0.12250,0.07577,0.00000,0.03160,0.97637,-0.19191,0.0,2023,6,7,16,32,28,199
45.90010,-0.05250,0.19827,0.00000,0.02989,0.97844,-0.19203,0.0,2023,6,7,16,32,28,211
45.90020,-0.01750,-0.04673,0.00000,0.03355,0.97527,-0.19288,0.0,2023,6,7,16,32,28,222
45.90030,-0.01750,-0.13423,0.00000,0.03148,0.97563,-0.19081,0.0,2023,6,7,16,32,28,233
45.90040,-0.08750,0.14577,0.00000,0.03087,0.97429,-0.19300,0.0,2023,6,7,16,32,28,245
45.90050,0.00000,-0.02923,0.00000,0.03038,0.97539,-0.18971,0.0,2023,6,7,16,32,28,256
45.90060,0.05250,0.00577,0.00000,0.03294,0.97746,-0.19252,0.0,2023,6,7,16,32,28,268
45.90070,0.08750,0.05827,0.00000,0.03111,0.97551,-0.18959,0.0,2023,6,7,16,32,28,279
45.90080,-0.05250,0.25077,0.00000,0.02916,0.97637,-0.19154,0.0,2023,6,7,16,32,28,290
45.90090,-0.05250,-0.15173,0.00000,0.02806,0.97783,-0.19032,0.0,2023,6,7,16,32,28,302
45.90100,-0.19250,-0.22173,0.00000,0.03013,0.97698,-0.19056,0.0,2023,6,7,16,32,28,313
45.90110,0.00000,0.07577,0.00000,0.03196,0.97600,-0.19374,0.0,2023,6,7,16,32,28,325
45.90120,0.03500,-0.02923,0.00000,0.03123,0.97466,-0.19178,0.0,2023,6,7,16,32,28,336
45.90130,0.01750,0.02327,0.00000,0.03062,0.97417,-0.19142,0.0,2023,6,7,16,32,28,347
45.90140,-0.03500,-0.09923,0.00000,0.03001,0.97576,-0.19020,0.0,2023,6,7,16,32,28,359
45.90150,0.00000,-0.06423,0.00000,0.03196,0.97441,-0.19044,0.0,2023,6,7,16,32,28,370
45.90160,-0.22750,-0.02923,0.00000,0.03245,0.97551,-0.18995,0.0,2023,6,7,16,32,28,382
45.90170,-0.12250,0.16327,0.00000,0.02989,0.97673,-0.19069,0.0,2023,6,7,16,32,28,393
45.90180,-0.03500,-0.02923,0.00000,0.03209,0.97539,-0.19069,0.0,2023,6,7,16,32,28,404
45.90190,-0.28000,0.21577,0.00000,0.03160,0.97685,-0.18983,0.0,2023,6,7,16,32,28,416
45.90200,0.17500,0.04078,0.00000,0.03148,0.97844,-0.19203,0.0,2023,6,7,16,32,28,427
45.90210,0.05250,-0.09923,0.00000,0.03209,0.97710,-0.19093,0.0,2023,6,7,16,32,28,439
45.90220,-0.12250,0.11077,0.00000,0.03184,0.97771,-0.19166,0.0,2023,6,7,16,32,28,450
45.90230,0.03500,0.05827,0.00000,0.02891,0.97624,-0.19056,0.0,2023,6,7,16,32,28,461
45.90240,-0.08750,0.16327,0.00000,0.03074,0.97258,-0.18922,0.0,2023,6,7,16,32,28,473
45.90250,-0.12250,0.11077,0.00000,0.02794,0.97612,-0.19227,0.0,2023,6,7,16,32,28,484
45.90260,-0.01750,-0.01173,0.00000,0.03196,0.97637,-0.19154,0.0,2023,6,7,16,32,28,496
45.90270,-0.05250,0.04078,0.00000,0.03123,0.97929,-0.19166,0.0,2023,6,7,16,32,28,507
45.90280,0.07000,-0.13423,0.00000,0.03026,0.97746,-0.19130,0.0,2023,6,7,16,32,28,518
45.90290,0.08750,0.00577,0.00000,0.03135,0.97698,-0.18995,0.0,2023,6,7,16,32,28,530
45.90300,0.05250,-0.22173,0.00000,0.02891,0.97490,-0.19056,0.0,2023,6,7,16,32,28,541
45.90310,-0.05250,0.00577,0.00000,0.02952,0.97734,-0.19300,0.0,2023,6,7,16,32,28,553
45.90320,0.10500,-0.16923,0.00000,0.03172,0.97673,-0.19044,0.0,2023,6,7,16,32,28,564
45.90330,0.14000,-0.13423,0.00000,0.03050,0.97820,-0.19081,0.0,2023,6,7,16,32,28,575
45.90340,0.17500,-0.29173,0.00000,0.03099,0.97539,-0.19178,0.0,2023,6,7,16,32,28,587
45.90350,-0.08750,0.19827,0.00000,0.03099,0.97661,-0.18934,0.0,2023,6,7,16,32,28,598
45.90360,-0.05250,0.05827,0.00000,0.03062,0.97685,-0.19117,0.0,2023,6,7,16,32,28,610
45.90370,0.01750,0.12827,0.00000,0.02794,0.97405,-0.19069,0.0,2023,6,7,16,32,28,621
45.90380,-0.05250,0.23327,0.00000,0.03160,0.97539,-0.18934,0.0,2023,6,7,16,32,28,632
45.90390,0.05250,-0.18673,0.00000,0.03062,0.97563,-0.19178,0.0,2023,6,7,16,32,28,644
45.90400,0.00000,0.09327,0.00000,0.03172,0.97673,-0.18971,0.0,2023,6,7,16,32,28,655
45.90410,-0.14000,-0.02923,0.00000,0.03282,0.97588,-0.19178,0.0,2023,6,7,16,32,28,667
45.90420,-0.10500,0.09327,0.00000,0.02989,0.97478,-0.19422,0.0,2023,6,7,16,32,28,678
45.90430,0.00000,-0.15173,0.00000,0.03026,0.97746,-0.18947,0.0,2023,6,7,16,32,28,689
45.90440,-0.01750,0.02327,0.00000,0.03148,0.97393,-0.19264,0.0,2023,6,7,16,32,28,701
45.90450,0.00000,0.02327,0.00000,0.02989,0.97502,-0.18873,0.0,2023,6,7,16,32,28,712
45.90460,-0.03500,0.09327,0.00000,0.03282,0.97576,-0.19008,0.0,2023,6,7,16,32,28,724
45.90470,-0.10500,0.09327,0.00000,0.03013,0.97466,-0.18959,0.0,2023,6,7,16,32,28,735
45.90480,0.10500,-0.08173,0.00000,0.03013,0.97783,-0.19105,0.0,2023,6,7,16,32,28,746
45.90490,0.07000,0.00577,0.00000,0.02928,0.97685,-0.19154,0.0,2023,6,7,16,32,28,758
45.90500,0.08750,0.04078,0.00000,0.02940,0.97673,-0.19349,0.0,2023,6,7,16,32,28,769
45.90510,0.10500,-0.09923,0.00000,0.03221,0.97649,-0.18629,0.0,2023,6,7,16,32,28,781
45.90520,-0.10500,0.18077,0.00000,0.02952,0.97429,-0.19117,0.0,2023,6,7,16,32,28,792
45.90530,0.00000,0.09327,0.00000,0.02879,0.97868,-0.19337,0.0,2023,6,7,16,32,28,803
45.90540,-0.05250,0.14577,0.00000,0.03062,0.97795,-0.18947,0.0,2023,6,7,16,32,28,815
45.90550,-0.07000,-0.08173,0.00000,0.02940,0.97478,-0.19264,0.0,2023,6,7,16,32,28,826
