#2023/06/07 16:38:30
time,wx,wy,wz,ax,ay,az,yy,MM,dd,hh,mm,ss,ms
46.62500,0.05565,0.06650,0.00000,0.03221,0.97710,-0.19154,0.0,2023,6,7,16,38,31,657
46.62510,-0.01435,-0.00350,0.00000,0.03184,0.97722,-0.19081,0.0,2023,6,7,16,38,31,668
46.62520,0.14315,-0.10850,0.00000,0.03074,0.97673,-0.19239,0.0,2023,6,7,16,38,31,679
46.62530,-0.03185,-0.07350,0.00000,0.03123,0.97771,-0.19178,0.0,2023,6,7,16,38,31,690
46.62540,0.02065,-0.03850,0.00000,0.02928,0.97698,-0.19154,0.0,2023,6,7,16,38,31,702
46.62550,0.12565,0.04900,0.00000,0.02989,0.97685,-0.19105,0.0,2023,6,7,16,38,31,713
46.62560,-0.13685,0.04900,0.00000,0.03026,0.97478,-0.19142,0.0,2023,6,7,16,38,31,724
46.62570,0.00315,-0.00350,0.00000,0.03074,0.97527,-0.19020,0.0,2023,6,7,16,38,31,735
46.62580,-0.13685,0.13650,0.00000,0.03013,0.97612,-0.19093,0.0,2023,6,7,16,38,31,747
46.62590,0.07315,0.15400,0.00000,0.03184,0.97637,-0.19117,0.0,2023,6,7,16,38,31,758
46.62600,0.05565,-0.07350,0.00000,0.02818,0.97441,-0.19117,0.0,2023,6,7,16,38,31,769
46.62610,-0.04935,0.06650,0.00000,0.03038,0.97588,-0.18849,0.0,2023,6,7,16,38,31,780
46.62620,0.05565,0.06650,0.00000,0.03038,0.97832,-0.19227,0.0,2023,6,7,16,38,31,792
46.62630,0.24815,-0.14350,0.00000,0.02904,0.97490,-0.19044,0.0,2023,6,7,16,38,31,803
46.62640,-0.15435,0.11900,0.00000,0.03343,0.97551,-0.18898,0.0,2023,6,7,16,38,31,814
46.62650,0.05565,-0.12600,0.00000,0.02843,0.97661,-0.19191,0.0,2023,6,7,16,38,31,825
46.62660,0.17815,-0.24850,0.00000,0.03196,0.97685,-0.19325,0.0,2023,6,7,16,38,31,837
46.62670,-0.06685,-0.05600,0.00000,0.03148,0.97429,-0.18873,0.0,2023,6,7,16,38,31,848
46.62680,-0.01435,-0.02100,0.00000,0.03111,0.97454,-0.18934,0.0,2023,6,7,16,38,31,859
46.62690,0.07315,-0.03850,0.00000,0.02867,0.97490,-0.18995,0.0,2023,6,7,16,38,31,870
46.62700,0.02065,-0.10850,0.00000,0.02928,0.97868,-0.18995,0.0,2023,6,7,16,38,31,882
46.62710,0.23065,-0.10850,0.00000,0.03160,0.97698,-0.19093,0.0,2023,6,7,16,38,31,893
46.62720,0.00315,0.04900,0.00000,0.03160,0.97698,-0.18959,0.0,2023,6,7,16,38,31,904
46.62730,-0.03185,0.08400,0.00000,0.03416,0.97576,-0.19105,0.0,2023,6,7,16,38,31,915
46.62740,-0.01435,0.13650,0.00000,0.03038,0.97624,-0.19093,0.0,2023,6,7,16,38,31,927
46.62750,-0.06685,-0.21350,0.00000,0.03087,0.97661,-0.19130,0.0,2023,6,7,16,38,31,938
46.62760,-0.18935,-0.12600,0.00000,0.02916,0.97685,-0.19056,0.0,2023,6,7,16,38,31,949
46.62770,-0.03185,0.03150,0.00000,0.03209,0.97600,-0.19191,0.0,2023,6,7,16,38,31,960
46.62780,-0.01435,-0.02100,0.00000,0.03026,0.97502,-0.19264,0.0,2023,6,7,16,38,31,972
46.62790,-0.10185,0.17150,0.00000,0.03013,0.97527,-0.18873,0.0,2023,6,7,16,38,31,983
46.62800,-0.03185,-0.07350,0.00000,0.02977,0.97698,-0.18873,0.0,2023,6,7,16,38,31,994
46.62810,0.09065,-0.00350,0.00000,0.03209,0.97551,-0.19117,0.0,2023,6,7,16,38,32,5
46.62820,-0.06685,0.03150,0.00000,0.03392,0.97527,-0.19166,0.0,2023,6,7,16,38,32,17
46.62830,-0.01435,0.08400,0.00000,0.02977,0.97649,-0.19081,0.0,2023,6,7,16,38,32,28
46.62840,0.02065,0.01400,0.00000,0.03209,0.97600,-0.19008,0.0,2023,6,7,16,38,32,39
46.62850,0.10815,-0.00350,0.00000,0.03306,0.97454,-0.19166,0.0,2023,6,7,16,38,32,50
46.62860,-0.04935,-0.05600,0.00000,0.03184,0.97649,-0.19227,0.0,2023,6,7,16,38,32,62
46.62870,-0.04935,0.13650,0.00000,0.02928,0.97795,-0.19093,0.0,2023,6,7,16,38,32,73
46.62880,0.00315,-0.05600,0.00000,0.03123,0.97307,-0.19142,0.0,2023,6,7,16,38,32,84
46.62890,0.07315,0.08400,0.00000,0.03050,0.97588,-0.19130,0.0,2023,6,7,16,38,32,95
46.62900,0.10815,-0.10850,0.00000,0.02952,0.97722,-0.19105,0.0,2023,6,7,16,38,32,107
46.62910,-0.01435,0.15400,0.00000,0.02940,0.97710,-0.19044,0.0,2023,6,7,16,38,32,118
46.62920,-0.03185,-0.05600,0.00000,0.03245,0.97454,-0.18849,0.0,2023,6,7,16,38,32,129
46.62930,0.09065,0.03150,0.00000,0.03135,0.97649,-0.19093,0.0,2023,6,7,16,38,32,140
46.62940,0.03815,-0.00350,0.00000,0.03135,0.97417,-0.19105,0.0,2023,6,7,16,38,32,152
46.62950,-0.10185,0.01400,0.00000,0.03270,0.97563,-0.18971,0.0,2023,6,7,16,38,32,163
46.62960,0.05565,-0.03850,0.00000,0.02940,0.97856,-0.19142,0.0,2023,6,7,16,38,32,174
46.62970,-0.10185,0.13650,0.00000,0.03123,0.97417,-0.18934,0.0,2023,6,7,16,38,32,185
46.62980,-0.15435,0.17150,0.00000,0.02891,0.97685,-0.19008,0.0,2023,6,7,16,38,32,197
46.62990,0.09065,0.08400,0.00000,0.03074,0.97576,-0.19227,0.0,2023,6,7,16,38,32,208
46.63000,-0.06685,0.01400,0.00000,0.03099,0.97893,-0.19056,0.0,2023,6,7,16,38,32,219
46.63010,-0.06685,0.10150,0.00000,0.02818,0.97405,-0.18971,0.0,2023,6,7,16,38,32,230
46.63020,0.09065,0.04900,0.00000,0.03209,0.97454,-0.19020,0.0,2023,6,7,16,38,32,242
46.63030,-0.06685,0.13650,0.00000,0.03221,0.97661,-0.19191,0.0,2023,6,7,16,38,32,253
46.63040,0.05565,-0.14350,0.00000,0.03111,0.97771,-0.19117,0.0,2023,6,7,16,38,32,264
46.63050,-0.17185,0.08400,0.00000,0.03209,0.97539,-0.18947,0.0,2023,6,7,16,38,32,275
46.63060,-0.17185,-0.09100,0.00000,0.03026,0.97820,-0.18861,0.0,2023,6,7,16,38,32,287
46.63070,-0.11935,0.22400,0.00000,0.03135,0.97612,-0.19203,0.0,2023,6,7,16,38,32,298
46.63080,0.14315,-0.05600,0.00000,0.03282,0.97454,-0.19203,0.0,2023,6,7,16,38,32,309
46.63090,-0.04935,-0.02100,0.00000,0.02965,0.97783,-0.19020,0.0,2023,6,7,16,38,32,320
46.63100,0.02065,-0.03850,0.00000,0.03074,0.97637,-0.19142,0.0,2023,6,7,16,38,32,332
46.63110,0.14315,-0.00350,0.00000,0.03221,0.97588,-0.18971,0.0,2023,6,7,16,38,32,343
46.63120,0.12565,0.01400,0.00000,0.02891,0.97588,-0.19239,0.0,2023,6,7,16,38,32,354
46.63130,-0.13685,-0.07350,0.00000,0.03026,0.97722,-0.19044,0.0,2023,6,7,16,38,32,365
46.63140,-0.06685,-0.14350,0.00000,0.03184,0.97771,-0.18995,0.0,2023,6,7,16,38,32,377
46.63150,-0.04935,-0.10850,0.00000,0.02977,0.97551,-0.19178,0.0,2023,6,7,16,38,32,388
46.63160,0.19565,0.03150,0.00000,0.03148,0.97661,-0.19325,0.0,2023,6,7,16,38,32,399
46.63170,-0.10185,0.06650,0.00000,0.03196,0.97698,-0.19142,0.0,2023,6,7,16,38,32,410
46.63180,-0.18935,0.03150,0.00000,0.03050,0.97649,-0.18971,0.0,2023,6,7,16,38,32,422
46.63190,0.00315,-0.10850,0.00000,0.03038,0.97466,-0.18995,0.0,2023,6,7,16,38,32,433
46.63200,-0.11935,-0.07350,0.00000,0.02989,0.97588,-0.19020,0.0,2023,6,7,16,38,32,444
46.63210,-0.01435,0.08400,0.00000,0.03074,0.97637,-0.19044,0.0,2023,6,7,16,38,32,455
46.63220,0.10815,-0.19600,0.00000,0.03209,0.97441,-0.19288,0.0,2023,6,7,16,38,32,467
46.63230,-0.06685,-0.16100,0.00000,0.03013,0.97844,-0.19032,0.0,2023,6,7,16,38,32,478
46.63240,0.16065,-0.10850,0.00000,0.03050,0.97502,-0.19081,0.0,2023,6,7,16,38,32,489
46.63250,-0.11935,0.04900,0.00000,0.03160,0.97698,-0.19069,0.0,2023,6,7,16,38,32,500
46.63260,-0.22435,0.25900,0.00000,0.03013,0.97429,-0.18971,0.0,2023,6,7,16,38,32,512
46.63270,-0.03185,-0.00350,0.00000,0.03306,0.97637,-0.18837,0.0,2023,6,7,16,38,32,523
46.63280,0.10815,-0.02100,0.00000,0.03148,0.97722,-0.19203,0.0,2023,6,7,16,38,32,534
46.63290,0.09065,0.08400,0.00000,0.02904,0.97405,-0.19056,0.0,2023,6,7,16,38,32,545
46.63300,0.07315,-0.10850,0.00000,0.02940,0.97527,-0.18995,0.0,2023,6,7,16,38,32,557
46.63310,-0.01435,-0.00350,0.00000,0.02989,0.97478,-0.18971,0.0,2023,6,7,16,38,32,568
46.63320,-0.01435,0.06650,0.00000,0.03257,0.97722,-0.19154,0.0,2023,6,7,16,38,32,579
46.63330,0.00315,0.01400,0.00000,0.03123,0.97527,-0.19032,0.0,2023,6,7,16,38,32,590
46.63340,-0.01435,0.34650,0.00000,0.03026,0.97722,-0.18983,0.0,2023,6,7,16,38,32,602
46.63350,-0.03185,0.25900,0.00000,0.03135,0.97612,-0.18849,0.0,2023,6,7,16,38,32,613
46.63360,0.17815,-0.23100,0.00000,0.03099,0.97429,-0.19105,0.0,2023,6,7,16,38,32,624
46.63370,-0.03185,-0.07350,0.00000,0.03245,0.97588,-0.19081,0.0,2023,6,7,16,38,32,635
46.63380,0.02065,-0.03850,0.00000,0.03111,0.97783,-0.19105,0.0,2023,6,7,16,38,32,647
46.63390,-0.08435,-0.05600,0.00000,0.02904,0.97478,-0.19166,0.0,2023,6,7,16,38,32,658
46.63400,0.00315,-0.05600,0.00000,0.03099,0.97746,-0.19020,0.0,2023,6,7,16,38,32,669
46.63410,0.23065,0.03150,0.00000,0.02769,0.97734,-0.19154,0.0,2023,6,7,16,38,32,680
46.63420,0.10815,-0.02100,0.00000,0.02879,0.97502,-0.19093,0.0,2023,6,7,16,38,32,692
46.63430,-0.01435,-0.03850,0.00000,0.03074,0.97954,-0.19117,0.0,2023,6,7,16,38,32,703
46.63440,-0.03185,0.01400,0.00000,0.02794,0.97576,-0.19166,0.0,2023,6,7,16,38,32,714
46.63450,0.09065,-0.07350,0.00000,0.03306,0.97527,-0.19056,0.0,2023,6,7,16,38,32,725
46.63460,-0.03185,0.03150,0.00000,0.03306,0.97563,-0.18642,0.0,2023,6,7,16,38,32,737
46.63470,0.10815,-0.24850,0.00000,0.03050,0.97685,-0.19093,0.0,2023,6,7,16,38,32,748
46.63480,0.16065,-0.03850,0.00000,0.02806,0.97868,-0.18934,0.0,2023,6,7,16,38,32,759
46.63490,0.14315,-0.10850,0.00000,0.03233,0.97673,-0.19081,0.0,2023,6,7,16,38,32,770
46.63500,0.07315,-0.07350,0.00000,0.03026,0.97539,-0.18898,0.0,2023,6,7,16,38,32,782
46.63510,0.00315,-0.00350,0.00000,0.03270,0.97649,-0.19264,0.0,2023,6,7,16,38,32,793
46.63520,0.07315,-0.03850,0.00000,0.03245,0.97649,-0.18947,0.0,2023,6,7,16,38,32,804
46.63530,0.17815,-0.05600,0.00000,0.03209,0.97600,-0.19069,0.0,2023,6,7,16,38,32,815
46.63540,0.14315,-0.12600,0.00000,0.03196,0.97454,-0.19239,0.0,2023,6,7,16,38,32,827
46.63550,-0.08435,-0.03850,0.00000,0.03282,0.97637,-0.18959,0.0,2023,6,7,16,38,32,838
46.63560,0.03815,-0.10850,0.00000,0.02965,0.97600,-0.19166,0.0,2023,6,7,16,38,32,849
46.63570,0.17815,0.03150,0.00000,0.03074,0.97661,-0.19117,0.0,2023,6,7,16,38,32,860
46.63580,-0.06685,0.11900,0.00000,0.03160,0.97551,-0.19142,0.0,2023,6,7,16,38,32,872
46.63590,-0.06685,0.04900,0.00000,0.03062,0.97795,-0.19093,0.0,2023,6,7,16,38,32,883
46.63600,0.09065,-0.17850,0.00000,0.03160,0.97966,-0.19117,0.0,2023,6,7,16,38,32,894
46.63610,-0.24185,-0.03850,0.00000,0.03099,0.97563,-0.18910,0.0,2023,6,7,16,38,32,905
46.63620,0.14315,0.24150,0.00000,0.02977,0.97576,-0.19313,0.0,2023,6,7,16,38,32,917
46.63630,0.03815,0.10150,0.00000,0.02940,0.97685,-0.19215,0.0,2023,6,7,16,38,32,928
46.63640,-0.04935,0.13650,0.00000,0.03135,0.97441,-0.19191,0.0,2023,6,7,16,38,32,939
46.63650,-0.08435,-0.00350,0.00000,0.03148,0.97673,-0.19142,0.0,2023,6,7,16,38,32,950
46.63660,-0.04935,0.18900,0.00000,0.02879,0.97746,-0.18934,0.0,2023,6,7,16,38,32,962
46.63670,0.09065,0.08400,0.00000,0.03062,0.97685,-0.19264,0.0,2023,6,7,16,38,32,973
46.63680,0.14315,-0.02100,0.00000,0.03209,0.97502,-0.19215,0.0,2023,6,7,16,38,32,984
46.63690,-0.08435,-0.00350,0.00000,0.03135,0.97478,-0.18727,0.0,2023,6,7,16,38,32,995
46.63700,-0.04935,0.20650,0.00000,0.03233,0.97441,-0.19105,0.0,2023,6,7,16,38,32,7
46.63710,-0.04935,0.04900,0.00000,0.03111,0.97868,-0.19227,0.0,2023,6,7,16,38,33,8
46.63720,-0.08435,0.06650,0.00000,0.03087,0.97673,-0.18983,0.0,2023,6,7,16,38,33,19
46.63730,-0.10185,0.08400,0.00000,0.03160,0.97563,-0.19044,0.0,2023,6,7,16,38,33,30
46.63740,-0.06685,0.24150,0.00000,0.03074,0.97612,-0.19069,0.0,2023,6,7,16,38,33,42
46.63750,0.03815,0.06650,0.00000,0.03074,0.97539,-0.19276,0.0,2023,6,7,16,38,33,53
46.63760,0.10815,-0.10850,0.00000,0.03013,0.97417,-0.19166,0.0,2023,6,7,16,38,33,64
46.63770,0.14315,0.06650,0.00000,0.03148,0.97490,-0.19008,0.0,2023,6,7,16,38,33,75
46.63780,0.00315,-0.17850,0.00000,0.03099,0.97771,-0.19044,0.0,2023,6,7,16,38,33,87
46.63790,-0.08435,0.04900,0.00000,0.03087,0.97807,-0.18983,0.0,2023,6,7,16,38,33,98
46.63800,-0.15435,0.01400,0.00000,0.02977,0.97832,-0.19093,0.0,2023,6,7,16,38,33,109
46.63810,0.05565,-0.03850,0.00000,0.03111,0.97551,-0.19032,0.0,2023,6,7,16,38,33,120
46.63820,-0.10185,0.06650,0.00000,0.03160,0.97637,-0.19032,0.0,2023,6,7,16,38,33,132
46.63830,0.07315,-0.09100,0.00000,0.03160,0.97600,-0.18837,0.0,2023,6,7,16,38,33,143
46.63840,-0.18935,0.03150,0.00000,0.03001,0.97624,-0.18947,0.0,2023,6,7,16,38,33,154
46.63850,-0.18935,0.06650,0.00000,0.03111,0.97673,-0.19093,0.0,2023,6,7,16,38,33,165
46.63860,0.05565,-0.03850,0.00000,0.03062,0.97746,-0.19264,0.0,2023,6,7,16,38,33,177
46.63870,-0.04935,0.06650,0.00000,0.03343,0.97722,-0.19105,0.0,2023,6,7,16,38,33,188
46.63880,-0.18935,-0.03850,0.00000,0.03209,0.97734,-0.18861,0.0,2023,6,7,16,38,33,199
46.63890,-0.01435,0.03150,0.00000,0.02928,0.97527,-0.19020,0.0,2023,6,7,16,38,33,210
46.63900,0.16065,0.08400,0.00000,0.03001,0.97612,-0.19166,0.0,2023,6,7,16,38,33,222
46.63910,-0.15435,0.18900,0.00000,0.03306,0.97710,-0.19252,0.0,2023,6,7,16,38,33,233
46.63920,-0.08435,-0.03850,0.00000,0.03172,0.97466,-0.19008,0.0,2023,6,7,16,38,33,244
46.63930,-0.06685,-0.05600,0.00000,0.03038,0.97685,-0.19117,0.0,2023,6,7,16,38,33,255
46.63940,-0.25935,0.01400,0.00000,0.03160,0.97637,-0.18959,0.0,2023,6,7,16,38,33,267
46.63950,-0.13685,0.20650,0.00000,0.03013,0.97771,-0.19020,0.0,2023,6,7,16,38,33,278
46.63960,-0.10185,0.01400,0.00000,0.03282,0.97783,-0.19166,0.0,2023,6,7,16,38,33,289
46.63970,0.00315,0.04900,0.00000,0.02989,0.97393,-0.19203,0.0,2023,6,7,16,38,33,300
46.63980,-0.15435,0.15400,0.00000,0.03111,0.97588,-0.18995,0.0,2023,6,7,16,38,33,312
46.63990,0.05565,0.10150,0.00000,0.03123,0.97551,-0.19191,0.0,2023,6,7,16,38,33,323
46.64000,0.05565,-0.02100,0.00000,0.03196,0.97515,-0.19203,0.0,2023,6,7,16,38,33,334
46.64010,-0.18935,-0.10850,0.00000,0.03172,0.97515,-0.19117,0.0,2023,6,7,16,38,33,345
46.64020,0.00315,-0.03850,0.00000,0.03026,0.97710,-0.19154,0.0,2023,6,7,16,38,33,357
46.64030,0.24815,-0.03850,0.00000,0.03172,0.97649,-0.19117,0.0,2023,6,7,16,38,33,368
46.64040,-0.04935,-0.09100,0.00000,0.03099,0.97698,-0.18861,0.0,2023,6,7,16,38,33,379
46.64050,-0.10185,0.10150,0.00000,0.02916,0.97649,-0.18983,0.0,2023,6,7,16,38,33,390
46.64060,-0.08435,0.06650,0.00000,0.03148,0.97515,-0.19032,0.0,2023,6,7,16,38,33,402
46.64070,0.09065,0.15400,0.00000,0.02977,0.97527,-0.19227,0.0,2023,6,7,16,38,33,413
46.64080,0.05565,0.03150,0.00000,0.03172,0.97612,-0.19154,0.0,2023,6,7,16,38,33,424
46.64090,-0.03185,0.06650,0.00000,0.03050,0.97502,-0.19215,0.0,2023,6,7,16,38,33,435
46.64100,0.02065,-0.03850,0.00000,0.03172,0.97551,-0.19130,0.0,2023,6,7,16,38,33,447
46.64110,-0.36435,0.04900,0.00000,0.03160,0.97673,-0.19020,0.0,2023,6,7,16,38,33,458
46.64120,0.16065,-0.31850,0.00000,0.03111,0.97490,-0.19154,0.0,2023,6,7,16,38,33,469
46.64130,0.00315,0.04900,0.00000,0.02989,0.97527,-0.19276,0.0,2023,6,7,16,38,33,480
46.64140,-0.06685,0.06650,0.00000,0.02989,0.97539,-0.19020,0.0,2023,6,7,16,38,33,492
46.64150,0.00315,-0.09100,0.00000,0.02818,0.97685,-0.19178,0.0,2023,6,7,16,38,33,503
46.64160,0.02065,-0.09100,0.00000,0.03148,0.97490,-0.19044,0.0,2023,6,7,16,38,33,514
46.64170,0.21315,0.01400,0.00000,0.03099,0.97539,-0.19178,0.0,2023,6,7,16,38,33,525
46.64180,-0.08435,0.17150,0.00000,0.03233,0.97478,-0.19093,0.0,2023,6,7,16,38,33,537
46.64190,-0.10185,-0.14350,0.00000,0.02891,0.97502,-0.19313,0.0,2023,6,7,16,38,33,548
46.64200,0.02065,-0.16100,0.00000,0.03050,0.97649,-0.18727,0.0,2023,6,7,16,38,33,559
46.64210,0.00315,0.11900,0.00000,0.03099,0.97490,-0.19300,0.0,2023,6,7,16,38,33,570
46.64220,0.02065,-0.10850,0.00000,0.03013,0.97905,-0.19130,0.0,2023,6,7,16,38,33,582
46.64230,-0.08435,0.04900,0.00000,0.02989,0.97502,-0.19008,0.0,2023,6,7,16,38,33,593
46.64240,-0.11935,0.17150,0.00000,0.03135,0.97649,-0.19264,0.0,2023,6,7,16,38,33,604
46.64250,0.03815,0.08400,0.00000,0.02879,0.97502,-0.19154,0.0,2023,6,7,16,38,33,615
46.64260,0.19565,-0.16100,0.00000,0.02928,0.97600,-0.18886,0.0,2023,6,7,16,38,33,627
46.64270,0.17815,-0.19600,0.00000,0.03355,0.97368,-0.18886,0.0,2023,6,7,16,38,33,638
46.64280,0.07315,0.08400,0.00000,0.03026,0.97478,-0.18873,0.0,2023,6,7,16,38,33,649
46.64290,-0.11935,0.03150,0.00000,0.03026,0.97624,-0.19154,0.0,2023,6,7,16,38,33,660
46.64300,-0.04935,-0.10850,0.00000,0.03026,0.97746,-0.19142,0.0,2023,6,7,16,38,33,672
46.64310,-0.20685,0.15400,0.00000,0.02965,0.97746,-0.19178,0.0,2023,6,7,16,38,33,683
46.64320,0.14315,-0.14350,0.00000,0.03123,0.97612,-0.19081,0.0,2023,6,7,16,38,33,694
46.64330,0.05565,-0.07350,0.00000,0.03282,0.97649,-0.19093,0.0,2023,6,7,16,38,33,705
46.64340,-0.04935,0.13650,0.00000,0.03013,0.97820,-0.19032,0.0,2023,6,7,16,38,33,717
46.64350,0.03815,0.01400,0.00000,0.03196,0.97832,-0.19154,0.0,2023,6,7,16,38,33,728
46.64360,0.03815,-0.00350,0.00000,0.03111,0.97685,-0.18922,0.0,2023,6,7,16,38,33,739
46.64370,0.00315,-0.28350,0.00000,0.03026,0.97417,-0.18800,0.0,2023,6,7,16,38,33,750
46.64380,-0.01435,0.01400,0.00000,0.03123,0.97759,-0.18947,0.0,2023,6,7,16,38,33,762
46.64390,-0.20685,0.04900,0.00000,0.03087,0.97746,-0.19117,0.0,2023,6,7,16,38,33,773
46.64400,0.12565,-0.16100,0.00000,0.02940,0.97820,-0.19020,0.0,2023,6,7,16,38,33,784
46.64410,-0.04935,-0.05600,0.00000,0.03074,0.97563,-0.18983,0.0,2023,6,7,16,38,33,795
46.64420,-0.04935,0.17150,0.00000,0.03013,0.97527,-0.19069,0.0,2023,6,7,16,38,33,807
46.64430,0.05565,-0.03850,0.00000,0.03282,0.97368,-0.18715,0.0,2023,6,7,16,38,33,818
46.64440,-0.06685,0.10150,0.00000,0.03184,0.97698,-0.19313,0.0,2023,6,7,16,38,33,829
46.64450,0.10815,0.06650,0.00000,0.03026,0.97637,-0.19008,0.0,2023,6,7,16,38,33,840
46.64460,-0.03185,0.01400,0.00000,0.03087,0.97319,-0.19032,0.0,2023,6,7,16,38,33,852
46.64470,-0.04935,-0.02100,0.00000,0.03111,0.97624,-0.19032,0.0,2023,6,7,16,38,33,863
46.64480,-0.01435,-0.17850,0.00000,0.03087,0.97551,-0.18922,0.0,2023,6,7,16,38,33,874
46.64490,-0.01435,0.20650,0.00000,0.03038,0.97502,-0.18898,0.0,2023,6,7,16,38,33,885
46.64500,0.03815,0.04900,0.00000,0.03148,0.97771,-0.18971,0.0,2023,6,7,16,38,33,897
46.64510,0.02065,0.08400,0.00000,0.03331,0.97600,-0.19056,0.0,2023,6,7,16,38,33,908
46.64520,-0.18935,-0.02100,0.00000,0.03013,0.97502,-0.19203,0.0,2023,6,7,16,38,33,919
46.64530,0.10815,0.03150,0.00000,0.02989,0.97368,-0.18825,0.0,2023,6,7,16,38,33,930
46.64540,0.02065,-0.03850,0.00000,0.03221,0.97734,-0.19130,0.0,2023,6,7,16,38,33,942
46.64550,0.09065,0.01400,0.00000,0.03013,0.97600,-0.19130,0.0,2023,6,7,16,38,33,953
46.64560,0.00315,-0.17850,0.00000,0.02855,0.97515,-0.19154,0.0,2023,6,7,16,38,33,964
46.64570,0.14315,0.03150,0.00000,0.02867,0.97698,-0.19154,0.0,2023,6,7,16,38,33,975
46.64580,-0.01435,-0.05600,0.00000,0.03087,0.97612,-0.18995,0.0,2023,6,7,16,38,33,987
46.64590,-0.03185,0.17150,0.00000,0.03282,0.97515,-0.19142,0.0,2023,6,7,16,38,33,998
46.64600,0.10815,-0.03850,0.00000,0.03282,0.97600,-0.19215,0.0,2023,6,7,16,38,34,9
46.64610,-0.04935,-0.16100,0.00000,0.02879,0.97771,-0.19239,0.0,2023,6,7,16,38,34,20
46.64620,0.09065,-0.10850,0.00000,0.03050,0.97649,-0.19069,0.0,2023,6,7,16,38,34,32
46.64630,0.10815,-0.09100,0.00000,0.03099,0.97710,-0.18910,0.0,2023,6,7,16,38,34,43
46.64640,-0.13685,0.01400,0.00000,0.02952,0.97515,-0.19105,0.0,2023,6,7,16,38,34,54
46.64650,0.14315,-0.07350,0.00000,0.02989,0.97502,-0.19215,0.0,2023,6,7,16,38,34,65
46.64660,0.07315,-0.28350,0.00000,0.03221,0.97820,-0.18922,0.0,2023,6,7,16,38,34,77
46.64670,0.03815,-0.23100,0.00000,0.03074,0.97429,-0.19093,0.0,2023,6,7,16,38,34,88
46.64680,0.03815,-0.05600,0.00000,0.03184,0.97380,-0.19081,0.0,2023,6,7,16,38,34,99
46.64690,-0.08435,0.03150,0.00000,0.03026,0.97502,-0.19154,0.0,2023,6,7,16,38,34,110
46.64700,-0.13685,0.08400,0.00000,0.03111,0.97637,-0.19081,0.0,2023,6,7,16,38,34,122
46.64710,0.14315,0.04900,0.00000,0.02989,0.97588,-0.19142,0.0,2023,6,7,16,38,34,133
46.64720,0.00315,0.01400,0.00000,0.02977,0.97612,-0.19081,0.0,2023,6,7,16,38,34,144
46.64730,0.05565,-0.07350,0.00000,0.03270,0.97588,-0.18861,0.0,2023,6,7,16,38,34,155
46.64740,-0.10185,-0.14350,0.00000,0.03099,0.97441,-0.18873,0.0,2023,6,7,16,38,34,167
46.64750,-0.08435,0.01400,0.00000,0.03160,0.97380,-0.19191,0.0,2023,6,7,16,38,34,178
46.64760,0.05565,-0.17850,0.00000,0.03270,0.97783,-0.19178,0.0,2023,6,7,16,38,34,189
46.64770,-0.11935,0.20650,0.00000,0.03038,0.97698,-0.19081,0.0,2023,6,7,16,38,34,200
46.64780,0.03815,0.03150,0.00000,0.03184,0.97527,-0.19020,0.0,2023,6,7,16,38,34,212
46.64790,0.14315,0.06650,0.00000,0.02940,0.97527,-0.19081,0.0,2023,6,7,16,38,34,223
46.64800,-0.10185,0.22400,0.00000,0.03050,0.97612,-0.18995,0.0,2023,6,7,16,38,34,234
46.64810,0.14315,-0.10850,0.00000,0.03172,0.97600,-0.18873,0.0,2023,6,7,16,38,34,245
46.64820,0.12565,-0.07350,0.00000,0.03245,0.97612,-0.18825,0.0,2023,6,7,16,38,34,257
46.64830,0.23065,0.03150,0.00000,0.03221,0.97966,-0.18947,0.0,2023,6,7,16,38,34,268
46.64840,-0.03185,0.15400,0.00000,0.03038,0.97612,-0.18898,0.0,2023,6,7,16,38,34,279
46.64850,0.16065,0.04900,0.00000,0.03074,0.97417,-0.19130,0.0,2023,6,7,16,38,34,290
46.64860,0.09065,-0.24850,0.00000,0.02977,0.97624,-0.19117,0.0,2023,6,7,16,38,34,302
46.64870,-0.10185,0.13650,0.00000,0.03135,0.97685,-0.19093,0.0,2023,6,7,16,38,34,313
46.64880,-0.11935,-0.02100,0.00000,0.03233,0.97612,-0.19081,0.0,2023,6,7,16,38,34,324
46.64890,-0.04935,-0.00350,0.00000,0.03038,0.97624,-0.19215,0.0,2023,6,7,16,38,34,335
46.64900,-0.08435,-0.12600,0.00000,0.02940,0.97576,-0.18983,0.0,2023,6,7,16,38,34,347
46.64910,0.00315,0.08400,0.00000,0.02940,0.97685,-0.18983,0.0,2023,6,7,16,38,34,358
46.64920,0.14315,0.03150,0.00000,0.02989,0.97417,-0.19008,0.0,2023,6,7,16,38,34,369
46.64930,-0.03185,-0.00350,0.00000,0.03233,0.97576,-0.18995,0.0,2023,6,7,16,38,34,380
46.64940,-0.06685,-0.10850,0.00000,0.03221,0.97868,-0.19264,0.0,2023,6,7,16,38,34,392
46.64950,-0.03185,-0.12600,0.00000,0.03123,0.97624,-0.18825,0.0,2023,6,7,16,38,34,403
46.64960,0.03815,0.08400,0.00000,0.02965,0.97685,-0.18934,0.0,2023,6,7,16,38,34,414
46.64970,0.07315,-0.09100,0.00000,0.03148,0.97637,-0.18959,0.0,2023,6,7,16,38,34,425
46.64980,-0.04935,-0.07350,0.00000,0.03123,0.97441,-0.19105,0.0,2023,6,7,16,38,34,437
46.64990,-0.03185,0.15400,0.00000,0.03221,0.97527,-0.19239,0.0,2023,6,7,16,38,34,448
46.65000,0.12565,0.22400,0.00000,0.03026,0.97759,-0.19313,0.0,2023,6,7,16,38,34,459
46.65010,-0.10185,0.18900,0.00000,0.03001,0.97515,-0.19227,0.0,2023,6,7,16,38,34,470
46.65020,-0.10185,0.01400,0.00000,0.03111,0.97783,-0.19069,0.0,2023,6,7,16,38,34,482
46.65030,0.07315,0.03150,0.00000,0.02867,0.97478,-0.18898,0.0,2023,6,7,16,38,34,493
46.65040,0.09065,-0.10850,0.00000,0.02989,0.97576,-0.19142,0.0,2023,6,7,16,38,34,504
46.65050,0.12565,0.10150,0.00000,0.03111,0.97429,-0.18898,0.0,2023,6,7,16,38,34,515
46.65060,0.05565,0.11900,0.00000,0.03099,0.97478,-0.18812,0.0,2023,6,7,16,38,34,527
46.65070,0.03815,0.08400,0.00000,0.03196,0.97478,-0.18934,0.0,2023,6,7,16,38,34,538
46.65080,0.00315,0.04900,0.00000,0.03038,0.97502,-0.19264,0.0,2023,6,7,16,38,34,549
46.65090,0.02065,0.01400,0.00000,0.03099,0.97429,-0.18886,0.0,2023,6,7,16,38,34,560
46.65100,0.03815,-0.02100,0.00000,0.03306,0.97576,-0.19093,0.0,2023,6,7,16,38,34,572
46.65110,0.03815,-0.05600,0.00000,0.03087,0.97905,-0.19215,0.0,2023,6,7,16,38,34,583
46.65120,0.02065,-0.05600,0.00000,0.03270,0.97612,-0.18873,0.0,2023,6,7,16,38,34,594
46.65130,0.12565,-0.05600,0.00000,0.03196,0.97576,-0.19081,0.0,2023,6,7,16,38,34,605
46.65140,0.03815,-0.03850,0.00000,0.03172,0.97527,-0.18861,0.0,2023,6,7,16,38,34,617
46.65150,0.07315,0.01400,0.00000,0.03013,0.97698,-0.19008,0.0,2023,6,7,16,38,34,628
46.65160,0.03815,-0.02100,0.00000,0.03172,0.97551,-0.19069,0.0,2023,6,7,16,38,34,639
46.65170,-0.15435,-0.10850,0.00000,0.02867,0.97478,-0.19020,0.0,2023,6,7,16,38,34,650
46.65180,0.07315,-0.02100,0.00000,0.03172,0.97881,-0.18910,0.0,2023,6,7,16,38,34,662
46.65190,0.03815,0.20650,0.00000,0.03074,0.97417,-0.19178,0.0,2023,6,7,16,38,34,673
46.65200,-0.27685,0.13650,0.00000,0.02818,0.97795,-0.19191,0.0,2023,6,7,16,38,34,684
46.65210,0.09065,0.01400,0.00000,0.02989,0.97771,-0.18971,0.0,2023,6,7,16,38,34,695
46.65220,-0.24185,-0.00350,0.00000,0.03074,0.97759,-0.18983,0.0,2023,6,7,16,38,34,707
46.65230,-0.04935,0.15400,0.00000,0.03172,0.97771,-0.18995,0.0,2023,6,7,16,38,34,718
46.65240,-0.13685,-0.05600,0.00000,0.03379,0.97380,-0.19044,0.0,2023,6,7,16,38,34,729
46.65250,-0.03185,-0.12600,0.00000,0.02916,0.97539,-0.18788,0.0,2023,6,7,16,38,34,740
46.65260,0.03815,-0.03850,0.00000,0.03026,0.97527,-0.19178,0.0,2023,6,7,16,38,34,752
46.65270,-0.06685,0.34650,0.00000,0.02952,0.97600,-0.18922,0.0,2023,6,7,16,38,34,763
46.65280,0.02065,0.10150,0.00000,0.03087,0.97527,-0.18849,0.0,2023,6,7,16,38,34,774
46.65290,-0.17185,0.20650,0.00000,0.03026,0.97588,-0.19142,0.0,2023,6,7,16,38,34,785
46.65300,0.03815,0.03150,0.00000,0.02916,0.97563,-0.19105,0.0,2023,6,7,16,38,34,797
46.65310,-0.03185,0.24150,0.00000,0.03160,0.97698,-0.18959,0.0,2023,6,7,16,38,34,808
46.65320,0.02065,0.03150,0.00000,0.03428,0.97893,-0.19008,0.0,2023,6,7,16,38,34,819
46.65330,0.03815,0.03150,0.00000,0.03135,0.97746,-0.19239,0.0,2023,6,7,16,38,34,830
46.65340,0.02065,0.11900,0.00000,0.03221,0.97515,-0.18800,0.0,2023,6,7,16,38,34,842
46.65350,-0.03185,0.01400,0.00000,0.02916,0.97319,-0.18910,0.0,2023,6,7,16,38,34,853
46.65360,-0.13685,0.08400,0.00000,0.03221,0.97551,-0.19227,0.0,2023,6,7,16,38,34,864
46.65370,-0.10185,0.22400,0.00000,0.02940,0.97917,-0.18678,0.0,2023,6,7,16,38,34,875
46.65380,0.03815,-0.00350,0.00000,0.03233,0.97502,-0.19008,0.0,2023,6,7,16,38,34,887
46.65390,-0.15435,-0.00350,0.00000,0.03111,0.97710,-0.19130,0.0,2023,6,7,16,38,34,898
46.65400,0.03815,0.18900,0.00000,0.03099,0.97624,-0.19008,0.0,2023,6,7,16,38,34,909
46.65410,-0.10185,0.13650,0.00000,0.02977,0.97490,-0.19081,0.0,2023,6,7,16,38,34,920
46.65420,-0.03185,-0.03850,0.00000,0.03306,0.97417,-0.19020,0.0,2023,6,7,16,38,34,932
46.65430,-0.01435,0.03150,0.00000,0.02818,0.97771,-0.19069,0.0,2023,6,7,16,38,34,943
46.65440,-0.17185,0.11900,0.00000,0.03270,0.97539,-0.18934,0.0,2023,6,7,16,38,34,954
46.65450,-0.03185,0.11900,0.00000,0.03062,0.97515,-0.19044,0.0,2023,6,7,16,38,34,965
46.65460,-0.04935,0.22400,0.00000,0.03050,0.97429,-0.19117,0.0,2023,6,7,16,38,34,977
46.65470,-0.13685,0.11900,0.00000,0.03050,0.97441,-0.18947,0.0,2023,6,7,16,38,34,988
46.65480,0.02065,0.03150,0.00000,0.02965,0.97563,-0.18739,0.0,2023,6,7,16,38,34,999
46.65490,0.02065,0.03150,0.00000,0.02952,0.97454,-0.19105,0.0,2023,6,7,16,38,34,10
46.65500,0.03815,0.03150,0.00000,0.02867,0.97795,-0.19203,0.0,2023,6,7,16,38,35,2
46.65510,-0.03185,-0.07350,0.00000,0.03196,0.97551,-0.18764,0.0,2023,6,7,16,38,35,13
46.65520,-0.11935,0.03150,0.00000,0.03087,0.97527,-0.18873,0.0,2023,6,7,16,38,35,24
46.65530,0.05565,0.06650,0.00000,0.03087,0.97539,-0.19203,0.0,2023,6,7,16,38,35,35
46.65540,-0.04935,-0.07350,0.00000,0.03209,0.97698,-0.19032,0.0,2023,6,7,16,38,35,47
46.65550,-0.11935,0.06650,0.00000,0.03074,0.97698,-0.18910,0.0,2023,6,7,16,38,35,58
46.65560,0.00315,-0.16100,0.00000,0.03282,0.97759,-0.18995,0.0,2023,6,7,16,38,35,69
46.65570,-0.01435,0.15400,0.00000,0.02940,0.97795,-0.18886,0.0,2023,6,7,16,38,35,80
46.65580,0.10815,-0.12600,0.00000,0.03013,0.97820,-0.18886,0.0,2023,6,7,16,38,35,92
46.65590,-0.10185,0.15400,0.00000,0.02940,0.97515,-0.19215,0.0,2023,6,7,16,38,35,103
46.65600,0.03815,0.08400,0.00000,0.03123,0.97588,-0.19130,0.0,2023,6,7,16,38,35,114
46.65610,0.00315,0.17150,0.00000,0.03062,0.97673,-0.18800,0.0,2023,6,7,16,38,35,125
46.65620,0.03815,-0.16100,0.00000,0.03038,0.97429,-0.18983,0.0,2023,6,7,16,38,35,137
46.65630,0.09065,-0.02100,0.00000,0.03184,0.97515,-0.18983,0.0,2023,6,7,16,38,35,148
46.65640,0.07315,0.06650,0.00000,0.03062,0.97746,-0.19008,0.0,2023,6,7,16,38,35,159
46.65650,-0.27685,-0.00350,0.00000,0.03026,0.97429,-0.18751,0.0,2023,6,7,16,38,35,170
46.65660,-0.10185,-0.03850,0.00000,0.03209,0.97551,-0.19044,0.0,2023,6,7,16,38,35,182
46.65670,-0.01435,-0.00350,0.00000,0.03087,0.97649,-0.18910,0.0,2023,6,7,16,38,35,193
46.65680,-0.03185,0.10150,0.00000,0.03001,0.97783,-0.19069,0.0,2023,6,7,16,38,35,204
46.65690,0.05565,0.04900,0.00000,0.03160,0.97515,-0.18886,0.0,2023,6,7,16,38,35,215
46.65700,0.19565,-0.33600,0.00000,0.02989,0.97746,-0.19032,0.0,2023,6,7,16,38,35,227
46.65710,0.00315,-0.19600,0.00000,0.03184,0.97734,-0.18873,0.0,2023,6,7,16,38,35,238
46.65720,-0.03185,0.10150,0.00000,0.03184,0.97393,-0.19008,0.0,2023,6,7,16,38,35,249
46.65730,0.23065,0.03150,0.00000,0.03184,0.97576,-0.18898,0.0,2023,6,7,16,38,35,260
46.65740,0.07315,-0.10850,0.00000,0.03123,0.97637,-0.19093,0.0,2023,6,7,16,38,35,272
46.65750,-0.06685,0.08400,0.00000,0.03245,0.97746,-0.18922,0.0,2023,6,7,16,38,35,283
46.65760,-0.04935,-0.17850,0.00000,0.02928,0.97771,-0.18934,0.0,2023,6,7,16,38,35,294
46.65770,0.14315,0.17150,0.00000,0.03172,0.97771,-0.19203,0.0,2023,6,7,16,38,35,305
46.65780,-0.11935,0.11900,0.00000,0.03209,0.97807,-0.18959,0.0,2023,6,7,16,38,35,317
46.65790,-0.06685,0.11900,0.00000,0.03196,0.97441,-0.19008,0.0,2023,6,7,16,38,35,328
46.65800,-0.03185,-0.12600,0.00000,0.03111,0.97441,-0.19032,0.0,2023,6,7,16,38,35,339
46.65810,0.00315,-0.02100,0.00000,0.03148,0.97588,-0.18910,0.0,2023,6,7,16,38,35,350
46.65820,0.00315,-0.19600,0.00000,0.03038,0.97685,-0.18873,0.0,2023,6,7,16,38,35,362
46.65830,-0.01435,-0.12600,0.00000,0.03123,0.97624,-0.18568,0.0,2023,6,7,16,38,35,373
46.65840,0.26565,-0.17850,0.00000,0.02928,0.97710,-0.19166,0.0,2023,6,7,16,38,35,384
46.65850,-0.11935,0.24150,0.00000,0.03160,0.97588,-0.19288,0.0,2023,6,7,16,38,35,395
46.65860,-0.20685,0.04900,0.00000,0.03038,0.97771,-0.18825,0.0,2023,6,7,16,38,35,407
46.65870,0.09065,-0.17850,0.00000,0.02989,0.97588,-0.18751,0.0,2023,6,7,16,38,35,418
46.65880,-0.01435,-0.14350,0.00000,0.03062,0.97649,-0.18751,0.0,2023,6,7,16,38,35,429
46.65890,0.00315,-0.12600,0.00000,0.03148,0.97771,-0.19020,0.0,2023,6,7,16,38,35,440
46.65900,-0.39935,0.15400,0.00000,0.03062,0.97588,-0.18971,0.0,2023,6,7,16,38,35,452
46.65910,0.00315,-0.14350,0.00000,0.02855,0.97820,-0.18947,0.0,2023,6,7,16,38,35,463
46.65920,0.00315,0.17150,0.00000,0.03196,0.97844,-0.18922,0.0,2023,6,7,16,38,35,474
46.65930,-0.03185,-0.05600,0.00000,0.03160,0.97649,-0.19020,0.0,2023,6,7,16,38,35,485
46.65940,0.05565,0.04900,0.00000,0.03257,0.97661,-0.18764,0.0,2023,6,7,16,38,35,497
46.65950,-0.04935,0.04900,0.00000,0.02769,0.97685,-0.19239,0.0,2023,6,7,16,38,35,508
46.65960,-0.15435,-0.09100,0.00000,0.02952,0.97807,-0.18971,0.0,2023,6,7,16,38,35,519
46.65970,0.00315,0.13650,0.00000,0.03148,0.97698,-0.18995,0.0,2023,6,7,16,38,35,530
46.65980,0.09065,-0.12600,0.00000,0.03087,0.97673,-0.18837,0.0,2023,6,7,16,38,35,542
46.65990,-0.10185,0.10150,0.00000,0.02916,0.97612,-0.19166,0.0,2023,6,7,16,38,35,553
46.66000,-0.11935,-0.00350,0.00000,0.03050,0.97844,-0.19056,0.0,2023,6,7,16,38,35,564
46.66010,0.12565,-0.05600,0.00000,0.03257,0.97746,-0.18581,0.0,2023,6,7,16,38,35,575
46.66020,0.09065,-0.00350,0.00000,0.02879,0.97478,-0.19044,0.0,2023,6,7,16,38,35,587
46.66030,-0.13685,0.20650,0.00000,0.03184,0.97527,-0.19154,0.0,2023,6,7,16,38,35,598
46.66040,0.16065,-0.16100,0.00000,0.03184,0.97502,-0.18995,0.0,2023,6,7,16,38,35,609
46.66050,-0.04935,-0.17850,0.00000,0.02940,0.97185,-0.18934,0.0,2023,6,7,16,38,35,620
46.66060,-0.01435,0.04900,0.00000,0.02830,0.97539,-0.19081,0.0,2023,6,7,16,38,35,632
46.66070,0.16065,-0.09100,0.00000,0.02891,0.97502,-0.18812,0.0,2023,6,7,16,38,35,643
46.66080,0.00315,0.04900,0.00000,0.03148,0.97771,-0.18800,0.0,2023,6,7,16,38,35,654
46.66090,0.16065,-0.00350,0.00000,0.03123,0.97685,-0.18873,0.0,2023,6,7,16,38,35,665
46.66100,-0.03185,-0.17850,0.00000,0.03111,0.97734,-0.18922,0.0,2023,6,7,16,38,35,677
46.66110,-0.13685,0.06650,0.00000,0.03270,0.97759,-0.18959,0.0,2023,6,7,16,38,35,688
46.66120,0.09065,-0.07350,0.00000,0.02867,0.97612,-0.18947,0.0,2023,6,7,16,38,35,699
46.66130,0.02065,-0.16100,0.00000,0.03013,0.97478,-0.18776,0.0,2023,6,7,16,38,35,710
46.66140,0.03815,0.03150,0.00000,0.02965,0.97454,-0.19130,0.0,2023,6,7,16,38,35,722
46.66150,0.00315,0.01400,0.00000,0.03062,0.97783,-0.18995,0.0,2023,6,7,16,38,35,733
46.66160,0.12565,-0.10850,0.00000,0.03184,0.97649,-0.18873,0.0,2023,6,7,16,38,35,744
46.66170,0.05565,0.04900,0.00000,0.03160,0.97515,-0.19105,0.0,2023,6,7,16,38,35,755
46.66180,0.03815,-0.00350,0.00000,0.03355,0.97502,-0.19081,0.0,2023,6,7,16,38,35,767
46.66190,-0.03185,-0.14350,0.00000,0.03233,0.97893,-0.18849,0.0,2023,6,7,16,38,35,778
46.66200,-0.01435,-0.02100,0.00000,0.03196,0.97624,-0.18849,0.0,2023,6,7,16,38,35,789
46.66210,0.14315,-0.02100,0.00000,0.03331,0.97563,-0.19203,0.0,2023,6,7,16,38,35,800
46.66220,-0.15435,0.15400,0.00000,0.03050,0.97917,-0.19105,0.0,2023,6,7,16,38,35,812
46.66230,-0.17185,0.11900,0.00000,0.03087,0.97612,-0.18837,0.0,2023,6,7,16,38,35,823
46.66240,0.03815,-0.17850,0.00000,0.03111,0.97429,-0.18983,0.0,2023,6,7,16,38,35,834
46.66250,-0.15435,0.06650,0.00000,0.03233,0.97539,-0.18983,0.0,2023,6,7,16,38,35,845
46.66260,-0.06685,-0.12600,0.00000,0.02928,0.97698,-0.18739,0.0,2023,6,7,16,38,35,857
46.66270,0.03815,-0.02100,0.00000,0.03172,0.97624,-0.18886,0.0,2023,6,7,16,38,35,868
46.66280,-0.15435,0.10150,0.00000,0.03172,0.97563,-0.18910,0.0,2023,6,7,16,38,35,879
46.66290,-0.17185,0.01400,0.00000,0.03123,0.97612,-0.19081,0.0,2023,6,7,16,38,35,890
46.66300,-0.10185,-0.05600,0.00000,0.03038,0.97576,-0.18922,0.0,2023,6,7,16,38,35,902
46.66310,-0.10185,-0.00350,0.00000,0.03062,0.97820,-0.18739,0.0,2023,6,7,16,38,35,913
46.66320,-0.04935,-0.02100,0.00000,0.03074,0.97502,-0.18995,0.0,2023,6,7,16,38,35,924
46.66330,-0.06685,0.01400,0.00000,0.02989,0.97771,-0.18995,0.0,2023,6,7,16,38,35,935
46.66340,0.00315,0.03150,0.00000,0.03026,0.97722,-0.18788,0.0,2023,6,7,16,38,35,947
46.66350,0.05565,-0.21350,0.00000,0.03196,0.97478,-0.18910,0.0,2023,6,7,16,38,35,958
46.66360,-0.04935,0.06650,0.00000,0.02916,0.97710,-0.19081,0.0,2023,6,7,16,38,35,969
46.66370,0.12565,-0.09100,0.00000,0.03087,0.97649,-0.18971,0.0,2023,6,7,16,38,35,980
46.66380,-0.06685,-0.07350,0.00000,0.03160,0.97795,-0.18788,0.0,2023,6,7,16,38,35,992
46.66390,0.05565,-0.03850,0.00000,0.03404,0.97588,-0.18849,0.0,2023,6,7,16,38,36,3
46.66400,0.05565,-0.03850,0.00000,0.03221,0.97722,-0.18776,0.0,2023,6,7,16,38,36,14
46.66410,0.00315,0.04900,0.00000,0.03050,0.97600,-0.18922,0.0,2023,6,7,16,38,36,25
46.66420,-0.15435,0.03150,0.00000,0.03172,0.97466,-0.18764,0.0,2023,6,7,16,38,36,37
46.66430,0.21315,-0.05600,0.00000,0.03062,0.97612,-0.18971,0.0,2023,6,7,16,38,36,48
46.66440,-0.01435,-0.02100,0.00000,0.03196,0.97637,-0.18922,0.0,2023,6,7,16,38,36,59
46.66450,-0.17185,0.04900,0.00000,0.03184,0.97649,-0.18886,0.0,2023,6,7,16,38,36,70
46.66460,-0.04935,0.01400,0.00000,0.03135,0.97539,-0.18922,0.0,2023,6,7,16,38,36,82
46.66470,-0.01435,0.22400,0.00000,0.03172,0.97661,-0.18971,0.0,2023,6,7,16,38,36,93
46.66480,-0.01435,-0.09100,0.00000,0.03123,0.97576,-0.19130,0.0,2023,6,7,16,38,36,104
46.66490,-0.11935,0.11900,0.00000,0.03062,0.97734,-0.18983,0.0,2023,6,7,16,38,36,115
46.66500,-0.03185,0.01400,0.00000,0.03013,0.97393,-0.18751,0.0,2023,6,7,16,38,36,127
46.66510,-0.22435,0.08400,0.00000,0.03184,0.97661,-0.18751,0.0,2023,6,7,16,38,36,138
46.66520,-0.08435,0.15400,0.00000,0.02855,0.97685,-0.19093,0.0,2023,6,7,16,38,36,149
46.66530,-0.03185,0.06650,0.00000,0.03148,0.97710,-0.18849,0.0,2023,6,7,16,38,36,160
46.66540,0.03815,0.08400,0.00000,0.03099,0.97661,-0.19032,0.0,2023,6,7,16,38,36,172
46.66550,0.03815,-0.03850,0.00000,0.03318,0.97441,-0.18983,0.0,2023,6,7,16,38,36,183
46.66560,0.19565,-0.03850,0.00000,0.02867,0.97527,-0.19032,0.0,2023,6,7,16,38,36,194
46.66570,0.09065,0.06650,0.00000,0.03001,0.97612,-0.19105,0.0,2023,6,7,16,38,36,205
46.66580,-0.11935,-0.09100,0.00000,0.02891,0.97527,-0.19032,0.0,2023,6,7,16,38,36,217
46.66590,0.17815,0.04900,0.00000,0.03026,0.97576,-0.18959,0.0,2023,6,7,16,38,36,228
46.66600,0.00315,0.04900,0.00000,0.03038,0.97832,-0.18751,0.0,2023,6,7,16,38,36,239
46.66610,-0.01435,0.06650,0.00000,0.03074,0.97600,-0.18690,0.0,2023,6,7,16,38,36,250
46.66620,-0.03185,0.18900,0.00000,0.03050,0.97576,-0.18873,0.0,2023,6,7,16,38,36,262
46.66630,0.03815,-0.09100,0.00000,0.03123,0.97722,-0.18849,0.0,2023,6,7,16,38,36,273
46.66640,0.05565,-0.10850,0.00000,0.03196,0.97563,-0.18812,0.0,2023,6,7,16,38,36,284
46.66650,0.24815,0.18900,0.00000,0.03099,0.97502,-0.19056,0.0,2023,6,7,16,38,36,295
46.66660,0.03815,-0.02100,0.00000,0.03087,0.97600,-0.18812,0.0,2023,6,7,16,38,36,307
46.66670,-0.03185,-0.02100,0.00000,0.02977,0.97563,-0.18629,0.0,2023,6,7,16,38,36,318
46.66680,-0.01435,-0.21350,0.00000,0.03038,0.97661,-0.19008,0.0,2023,6,7,16,38,36,329
46.66690,0.05565,0.08400,0.00000,0.03160,0.97441,-0.19130,0.0,2023,6,7,16,38,36,340
46.66700,0.12565,0.06650,0.00000,0.03123,0.97600,-0.18812,0.0,2023,6,7,16,38,36,352
46.66710,0.14315,-0.16100,0.00000,0.03135,0.97673,-0.18825,0.0,2023,6,7,16,38,36,363
46.66720,-0.08435,0.15400,0.00000,0.03050,0.97722,-0.18849,0.0,2023,6,7,16,38,36,374
46.66730,-0.15435,-0.02100,0.00000,0.03221,0.97490,-0.18873,0.0,2023,6,7,16,38,36,385
46.66740,0.03815,0.08400,0.00000,0.02989,0.97576,-0.18886,0.0,2023,6,7,16,38,36,397
46.66750,-0.01435,0.06650,0.00000,0.03087,0.97588,-0.19142,0.0,2023,6,7,16,38,36,408
46.66760,0.10815,0.01400,0.00000,0.03087,0.97673,-0.18898,0.0,2023,6,7,16,38,36,419
46.66770,0.26565,0.22400,0.00000,0.03209,0.97527,-0.18886,0.0,2023,6,7,16,38,36,430
46.66780,0.02065,-0.03850,0.00000,0.03062,0.97698,-0.18666,0.0,2023,6,7,16,38,36,442
46.66790,-0.15435,-0.05600,0.00000,0.03221,0.97527,-0.18995,0.0,2023,6,7,16,38,36,453
46.66800,-0.25935,0.10150,0.00000,0.03184,0.97954,-0.19166,0.0,2023,6,7,16,38,36,464
46.66810,0.12565,-0.07350,0.00000,0.03001,0.97795,-0.19008,0.0,2023,6,7,16,38,36,475
46.66820,0.02065,0.06650,0.00000,0.03172,0.97820,-0.18849,0.0,2023,6,7,16,38,36,487
46.66830,0.07315,0.01400,0.00000,0.03074,0.97551,-0.18934,0.0,2023,6,7,16,38,36,498
46.66840,-0.11935,0.25900,0.00000,0.03050,0.97490,-0.18995,0.0,2023,6,7,16,38,36,509
46.66850,-0.04935,0.03150,0.00000,0.03318,0.97588,-0.19008,0.0,2023,6,7,16,38,36,520
46.66860,0.03815,0.08400,0.00000,0.03050,0.97649,-0.19032,0.0,2023,6,7,16,38,36,532
46.66870,0.03815,-0.12600,0.00000,0.03074,0.97612,-0.18849,0.0,2023,6,7,16,38,36,543
46.66880,-0.13685,0.03150,0.00000,0.03062,0.97600,-0.19032,0.0,2023,6,7,16,38,36,554
46.66890,-0.08435,-0.00350,0.00000,0.03270,0.97722,-0.18837,0.0,2023,6,7,16,38,36,565
46.66900,-0.04935,0.01400,0.00000,0.03050,0.97600,-0.19008,0.0,2023,6,7,16,38,36,577
46.66910,0.09065,-0.16100,0.00000,0.03148,0.97417,-0.18922,0.0,2023,6,7,16,38,36,588
46.66920,0.03815,-0.05600,0.00000,0.03013,0.97771,-0.18934,0.0,2023,6,7,16,38,36,599
46.66930,-0.04935,0.18900,0.00000,0.03074,0.97624,-0.19008,0.0,2023,6,7,16,38,36,610
46.66940,-0.01435,-0.10850,0.00000,0.03050,0.97429,-0.19008,0.0,2023,6,7,16,38,36,622
46.66950,-0.04935,-0.05600,0.00000,0.03135,0.97600,-0.19252,0.0,2023,6,7,16,38,36,633
46.66960,0.16065,0.04900,0.00000,0.02965,0.97710,-0.18837,0.0,2023,6,7,16,38,36,644
46.66970,-0.11935,-0.00350,0.00000,0.03270,0.97332,-0.18947,0.0,2023,6,7,16,38,36,655
46.66980,0.14315,-0.03850,0.00000,0.03013,0.97319,-0.18922,0.0,2023,6,7,16,38,36,667
46.66990,-0.01435,-0.00350,0.00000,0.03123,0.97698,-0.18837,0.0,2023,6,7,16,38,36,678
46.67000,0.00315,-0.02100,0.00000,0.03026,0.97649,-0.18959,0.0,2023,6,7,16,38,36,689
46.67010,-0.13685,0.17150,0.00000,0.03038,0.97624,-0.18751,0.0,2023,6,7,16,38,36,700
46.67020,0.02065,0.17150,0.00000,0.03160,0.97783,-0.18934,0.0,2023,6,7,16,38,36,712
46.67030,0.00315,-0.10850,0.00000,0.03148,0.97710,-0.18910,0.0,2023,6,7,16,38,36,723
46.67040,-0.22435,0.18900,0.00000,0.03087,0.97807,-0.19130,0.0,2023,6,7,16,38,36,734
46.67050,-0.20685,0.11900,0.00000,0.03074,0.97673,-0.18910,0.0,2023,6,7,16,38,36,745
46.67060,-0.03185,0.04900,0.00000,0.03221,0.97417,-0.19056,0.0,2023,6,7,16,38,36,757
46.67070,0.02065,0.20650,0.00000,0.03233,0.97807,-0.19008,0.0,2023,6,7,16,38,36,768
46.67080,0.03815,-0.02100,0.00000,0.02965,0.97673,-0.18922,0.0,2023,6,7,16,38,36,779
46.67090,0.02065,-0.12600,0.00000,0.03099,0.97832,-0.19069,0.0,2023,6,7,16,38,36,790
46.67100,0.07315,0.10150,0.00000,0.03135,0.97710,-0.18947,0.0,2023,6,7,16,38,36,802
46.67110,-0.10185,0.03150,0.00000,0.03172,0.97576,-0.18922,0.0,2023,6,7,16,38,36,813
46.67120,-0.08435,0.01400,0.00000,0.03026,0.97637,-0.18751,0.0,2023,6,7,16,38,36,824
46.67130,0.02065,-0.14350,0.00000,0.03148,0.97588,-0.19105,0.0,2023,6,7,16,38,36,835
46.67140,-0.01435,0.01400,0.00000,0.02989,0.97722,-0.18898,0.0,2023,6,7,16,38,36,847
46.67150,0.00315,0.06650,0.00000,0.03062,0.97722,-0.19069,0.0,2023,6,7,16,38,36,858
46.67160,0.03815,-0.03850,0.00000,0.02989,0.97551,-0.18751,0.0,2023,6,7,16,38,36,869
46.67170,0.03815,0.03150,0.00000,0.02965,0.97832,-0.18934,0.0,2023,6,7,16,38,36,880
46.67180,0.05565,-0.12600,0.00000,0.03087,0.97588,-0.19044,0.0,2023,6,7,16,38,36,892
46.67190,-0.06685,0.11900,0.00000,0.03209,0.97515,-0.19008,0.0,2023,6,7,16,38,36,903
46.67200,0.10815,0.04900,0.00000,0.03026,0.98003,-0.18934,0.0,2023,6,7,16,38,36,914
46.67210,0.10815,-0.28350,0.00000,0.03160,0.97478,-0.18934,0.0,2023,6,7,16,38,36,925
46.67220,-0.01435,-0.07350,0.00000,0.03172,0.97588,-0.19130,0.0,2023,6,7,16,38,36,937
46.67230,-0.03185,-0.02100,0.00000,0.03087,0.97637,-0.18812,0.0,2023,6,7,16,38,36,948
46.67240,0.05565,-0.12600,0.00000,0.03001,0.97576,-0.18825,0.0,2023,6,7,16,38,36,959
46.67250,0.00315,-0.03850,0.00000,0.02916,0.97612,-0.19044,0.0,2023,6,7,16,38,36,970
46.67260,0.03815,-0.07350,0.00000,0.03184,0.97661,-0.18947,0.0,2023,6,7,16,38,36,982
46.67270,0.00315,0.01400,0.00000,0.03221,0.97795,-0.18898,0.0,2023,6,7,16,38,36,993
46.67280,-0.03185,0.13650,0.00000,0.03026,0.97527,-0.18886,0.0,2023,6,7,16,38,36,4
46.67290,-0.01435,0.08400,0.00000,0.02904,0.97795,-0.18873,0.0,2023,6,7,16,38,36,15
46.67300,-0.03185,0.08400,0.00000,0.03355,0.97417,-0.18983,0.0,2023,6,7,16,38,37,7
46.67310,0.10815,0.20650,0.00000,0.02989,0.97454,-0.18910,0.0,2023,6,7,16,38,37,18
46.67320,-0.03185,-0.02100,0.00000,0.02977,0.97624,-0.18776,0.0,2023,6,7,16,38,37,29
46.67330,-0.04935,0.10150,0.00000,0.02904,0.97746,-0.19203,0.0,2023,6,7,16,38,37,40
46.67340,0.02065,-0.02100,0.00000,0.03135,0.97868,-0.18764,0.0,2023,6,7,16,38,37,52
46.67350,-0.13685,-0.00350,0.00000,0.03282,0.97624,-0.18861,0.0,2023,6,7,16,38,37,63
46.67360,-0.01435,-0.05600,0.00000,0.02977,0.97576,-0.19117,0.0,2023,6,7,16,38,37,74
46.67370,-0.03185,0.08400,0.00000,0.03160,0.97454,-0.19081,0.0,2023,6,7,16,38,37,85
46.67380,0.07315,0.03150,0.00000,0.03013,0.97820,-0.19056,0.0,2023,6,7,16,38,37,97
46.67390,-0.06685,0.03150,0.00000,0.03245,0.97539,-0.18898,0.0,2023,6,7,16,38,37,108
46.67400,0.02065,-0.07350,0.00000,0.02769,0.97637,-0.18873,0.0,2023,6,7,16,38,37,119
46.67410,0.07315,0.01400,0.00000,0.03013,0.97588,-0.19069,0.0,2023,6,7,16,38,37,130
46.67420,0.07315,0.08400,0.00000,0.03087,0.97588,-0.18995,0.0,2023,6,7,16,38,37,142
46.67430,-0.08435,0.03150,0.00000,0.03245,0.97405,-0.18849,0.0,2023,6,7,16,38,37,153
46.67440,-0.06685,0.24150,0.00000,0.03184,0.97466,-0.18873,0.0,2023,6,7,16,38,37,164
46.67450,0.09065,0.03150,0.00000,0.03172,0.97527,-0.18934,0.0,2023,6,7,16,38,37,175
46.67460,0.02065,0.24150,0.00000,0.03038,0.97661,-0.18983,0.0,2023,6,7,16,38,37,187
46.67470,-0.03185,-0.05600,0.00000,0.03196,0.97624,-0.18751,0.0,2023,6,7,16,38,37,198
46.67480,0.12565,-0.02100,0.00000,0.03087,0.97576,-0.19337,0.0,2023,6,7,16,38,37,209
46.67490,0.17815,-0.12600,0.00000,0.03074,0.97417,-0.19044,0.0,2023,6,7,16,38,37,220
46.67500,-0.11935,-0.03850,0.00000,0.03306,0.97588,-0.18837,0.0,2023,6,7,16,38,37,232
46.67510,0.03815,0.11900,0.00000,0.03209,0.97685,-0.19020,0.0,2023,6,7,16,38,37,243
46.67520,0.05565,0.03150,0.00000,0.03135,0.97380,-0.18934,0.0,2023,6,7,16,38,37,254
46.67530,0.10815,-0.05600,0.00000,0.02916,0.97563,-0.19056,0.0,2023,6,7,16,38,37,265
46.67540,0.16065,0.08400,0.00000,0.02843,0.97783,-0.19008,0.0,2023,6,7,16,38,37,277
46.67550,-0.01435,0.20650,0.00000,0.02794,0.97429,-0.18971,0.0,2023,6,7,16,38,37,288
46.67560,-0.08435,0.08400,0.00000,0.03111,0.97624,-0.18922,0.0,2023,6,7,16,38,37,299
46.67570,0.05565,0.10150,0.00000,0.03026,0.97771,-0.19032,0.0,2023,6,7,16,38,37,310
46.67580,0.02065,0.08400,0.00000,0.03196,0.97478,-0.18825,0.0,2023,6,7,16,38,37,322
46.67590,-0.08435,0.01400,0.00000,0.03135,0.97539,-0.19081,0.0,2023,6,7,16,38,37,333
46.67600,0.09065,0.11900,0.00000,0.03172,0.97478,-0.18995,0.0,2023,6,7,16,38,37,344
46.67610,-0.03185,0.10150,0.00000,0.03184,0.97563,-0.19069,0.0,2023,6,7,16,38,37,355
46.67620,0.24815,-0.14350,0.00000,0.03038,0.97466,-0.19020,0.0,2023,6,7,16,38,37,367
46.67630,0.05565,0.13650,0.00000,0.02928,0.97576,-0.18983,0.0,2023,6,7,16,38,37,378
46.67640,0.02065,0.17150,0.00000,0.03184,0.97490,-0.18825,0.0,2023,6,7,16,38,37,389
46.67650,-0.03185,-0.02100,0.00000,0.03355,0.97759,-0.18995,0.0,2023,6,7,16,38,37,400
46.67660,0.03815,0.08400,0.00000,0.02855,0.97637,-0.18886,0.0,2023,6,7,16,38,37,412
46.67670,0.05565,0.11900,0.00000,0.02940,0.97685,-0.18983,0.0,2023,6,7,16,38,37,423
46.67680,0.00315,0.25900,0.00000,0.03099,0.97710,-0.19069,0.0,2023,6,7,16,38,37,434
46.67690,-0.06685,0.15400,0.00000,0.03135,0.97527,-0.19117,0.0,2023,6,7,16,38,37,445
46.67700,-0.10185,-0.03850,0.00000,0.03062,0.97698,-0.19154,0.0,2023,6,7,16,38,37,457
46.67710,-0.10185,0.18900,0.00000,0.03062,0.97783,-0.19276,0.0,2023,6,7,16,38,37,468
46.67720,0.03815,-0.09100,0.00000,0.03184,0.97441,-0.19069,0.0,2023,6,7,16,38,37,479
46.67730,0.16065,-0.02100,0.00000,0.03257,0.97856,-0.19166,0.0,2023,6,7,16,38,37,490
46.67740,0.09065,-0.00350,0.00000,0.03111,0.97624,-0.18873,0.0,2023,6,7,16,38,37,502
46.67750,0.17815,-0.10850,0.00000,0.03184,0.97771,-0.19130,0.0,2023,6,7,16,38,37,513
46.67760,-0.08435,0.03150,0.00000,0.03050,0.97490,-0.18959,0.0,2023,6,7,16,38,37,524
46.67770,-0.18935,-0.00350,0.00000,0.03001,0.97478,-0.19044,0.0,2023,6,7,16,38,37,535
46.67780,0.00315,-0.16100,0.00000,0.03306,0.97807,-0.19276,0.0,2023,6,7,16,38,37,547
46.67790,0.00315,-0.03850,0.00000,0.03270,0.97393,-0.19239,0.0,2023,6,7,16,38,37,558
46.67800,-0.13685,-0.10850,0.00000,0.03038,0.97600,-0.19093,0.0,2023,6,7,16,38,37,569
46.67810,0.02065,0.10150,0.00000,0.03148,0.97478,-0.18898,0.0,2023,6,7,16,38,37,580
46.67820,0.19565,-0.12600,0.00000,0.03111,0.97649,-0.19081,0.0,2023,6,7,16,38,37,592
46.67830,0.14315,-0.07350,0.00000,0.03221,0.97502,-0.19044,0.0,2023,6,7,16,38,37,603
46.67840,-0.01435,-0.17850,0.00000,0.03001,0.97637,-0.18873,0.0,2023,6,7,16,38,37,614
46.67850,-0.11935,-0.03850,0.00000,0.02916,0.97356,-0.18995,0.0,2023,6,7,16,38,37,625
46.67860,-0.31185,0.15400,0.00000,0.03074,0.97515,-0.18861,0.0,2023,6,7,16,38,37,637
46.67870,0.03815,0.01400,0.00000,0.03135,0.97441,-0.19008,0.0,2023,6,7,16,38,37,648
46.67880,0.07315,-0.31850,0.00000,0.03074,0.97795,-0.19032,0.0,2023,6,7,16,38,37,659
46.67890,-0.11935,0.13650,0.00000,0.03148,0.97368,-0.18873,0.0,2023,6,7,16,38,37,670
46.67900,-0.01435,0.15400,0.00000,0.03123,0.97490,-0.19130,0.0,2023,6,7,16,38,37,682
46.67910,-0.04935,-0.03850,0.00000,0.03123,0.97661,-0.18788,0.0,2023,6,7,16,38,37,693
46.67920,0.24815,-0.14350,0.00000,0.03172,0.97637,-0.19081,0.0,2023,6,7,16,38,37,704
46.67930,0.07315,-0.16100,0.00000,0.03111,0.97624,-0.19130,0.0,2023,6,7,16,38,37,715
46.67940,-0.04935,-0.00350,0.00000,0.03245,0.97393,-0.19069,0.0,2023,6,7,16,38,37,727
46.67950,-0.01435,0.03150,0.00000,0.03221,0.97551,-0.18983,0.0,2023,6,7,16,38,37,738
46.67960,-0.01435,0.11900,0.00000,0.03062,0.97429,-0.18959,0.0,2023,6,7,16,38,37,749
46.67970,0.07315,-0.00350,0.00000,0.03148,0.97698,-0.19056,0.0,2023,6,7,16,38,37,760
46.67980,0.02065,-0.09100,0.00000,0.03306,0.97417,-0.19069,0.0,2023,6,7,16,38,37,772
46.67990,-0.08435,-0.02100,0.00000,0.03074,0.97576,-0.19081,0.0,2023,6,7,16,38,37,783
46.68000,0.05565,0.03150,0.00000,0.03111,0.97417,-0.19081,0.0,2023,6,7,16,38,37,794
46.68010,-0.17185,0.04900,0.00000,0.03160,0.97734,-0.18849,0.0,2023,6,7,16,38,37,805
46.68020,0.00315,0.18900,0.00000,0.03282,0.97539,-0.19008,0.0,2023,6,7,16,38,37,817
46.68030,0.12565,-0.12600,0.00000,0.03184,0.97783,-0.18995,0.0,2023,6,7,16,38,37,828
46.68040,0.14315,-0.10850,0.00000,0.03196,0.97466,-0.19227,0.0,2023,6,7,16,38,37,839
46.68050,0.24815,-0.07350,0.00000,0.03074,0.97685,-0.18934,0.0,2023,6,7,16,38,37,850
46.68060,0.19565,0.01400,0.00000,0.03099,0.97551,-0.19032,0.0,2023,6,7,16,38,37,862
46.68070,-0.17185,0.25900,0.00000,0.03038,0.97515,-0.19154,0.0,2023,6,7,16,38,37,873
46.68080,-0.03185,-0.10850,0.00000,0.03013,0.97795,-0.18983,0.0,2023,6,7,16,38,37,884
46.68090,-0.01435,0.18900,0.00000,0.03172,0.97527,-0.19069,0.0,2023,6,7,16,38,37,895
46.68100,0.07315,0.03150,0.00000,0.03331,0.97612,-0.19252,0.0,2023,6,7,16,38,37,907
46.68110,-0.08435,0.31150,0.00000,0.03209,0.97515,-0.19215,0.0,2023,6,7,16,38,37,918
46.68120,0.07315,-0.16100,0.00000,0.03160,0.97563,-0.19142,0.0,2023,6,7,16,38,37,929
46.68130,0.05565,0.04900,0.00000,0.03221,0.97624,-0.18751,0.0,2023,6,7,16,38,37,940
46.68140,-0.04935,-0.05600,0.00000,0.03074,0.97734,-0.19166,0.0,2023,6,7,16,38,37,952
46.68150,-0.11935,0.01400,0.00000,0.03184,0.97588,-0.19215,0.0,2023,6,7,16,38,37,963
46.68160,0.03815,-0.07350,0.00000,0.03001,0.97844,-0.19032,0.0,2023,6,7,16,38,37,974
46.68170,-0.13685,-0.09100,0.00000,0.03123,0.97771,-0.18959,0.0,2023,6,7,16,38,37,985
46.68180,0.00315,0.06650,0.00000,0.03221,0.97356,-0.18934,0.0,2023,6,7,16,38,37,997
46.68190,-0.06685,0.11900,0.00000,0.03160,0.97832,-0.19056,0.0,2023,6,7,16,38,38,8
46.68200,0.02065,-0.07350,0.00000,0.03172,0.97698,-0.19203,0.0,2023,6,7,16,38,38,19
46.68210,-0.04935,0.10150,0.00000,0.03087,0.97588,-0.19142,0.0,2023,6,7,16,38,38,30
46.68220,-0.17185,0.04900,0.00000,0.03001,0.97600,-0.19130,0.0,2023,6,7,16,38,38,42
46.68230,-0.08435,0.01400,0.00000,0.02952,0.97478,-0.19093,0.0,2023,6,7,16,38,38,53
46.68240,0.03815,0.13650,0.00000,0.03245,0.97624,-0.19264,0.0,2023,6,7,16,38,38,64
46.68250,-0.01435,0.10150,0.00000,0.03233,0.97759,-0.18947,0.0,2023,6,7,16,38,38,75
46.68260,0.09065,0.01400,0.00000,0.02867,0.97332,-0.18886,0.0,2023,6,7,16,38,38,87
46.68270,0.10815,0.03150,0.00000,0.03379,0.97612,-0.19044,0.0,2023,6,7,16,38,38,98
46.68280,-0.06685,0.18900,0.00000,0.03038,0.97649,-0.18983,0.0,2023,6,7,16,38,38,109
46.68290,0.00315,-0.26600,0.00000,0.03026,0.97576,-0.18849,0.0,2023,6,7,16,38,38,120
46.68300,0.10815,-0.21350,0.00000,0.02916,0.97734,-0.19117,0.0,2023,6,7,16,38,38,132
46.68310,0.03815,-0.12600,0.00000,0.03148,0.97710,-0.19081,0.0,2023,6,7,16,38,38,143
46.68320,0.07315,0.04900,0.00000,0.03148,0.97661,-0.19166,0.0,2023,6,7,16,38,38,154
46.68330,-0.20685,0.01400,0.00000,0.02940,0.97673,-0.18849,0.0,2023,6,7,16,38,38,165
46.68340,-0.08435,0.06650,0.00000,0.03221,0.97527,-0.19044,0.0,2023,6,7,16,38,38,177
46.68350,-0.01435,0.27650,0.00000,0.03282,0.97600,-0.18995,0.0,2023,6,7,16,38,38,188
46.68360,0.00315,-0.16100,0.00000,0.03148,0.97527,-0.18934,0.0,2023,6,7,16,38,38,199
46.68370,0.14315,-0.00350,0.00000,0.03111,0.97624,-0.18910,0.0,2023,6,7,16,38,38,210
46.68380,-0.10185,0.10150,0.00000,0.02867,0.97429,-0.19020,0.0,2023,6,7,16,38,38,222
46.68390,0.02065,0.15400,0.00000,0.03233,0.97783,-0.18764,0.0,2023,6,7,16,38,38,233
46.68400,0.00315,0.11900,0.00000,0.03172,0.97429,-0.18886,0.0,2023,6,7,16,38,38,244
46.68410,-0.04935,0.01400,0.00000,0.03062,0.97637,-0.19032,0.0,2023,6,7,16,38,38,255
46.68420,0.09065,-0.07350,0.00000,0.02843,0.97637,-0.19142,0.0,2023,6,7,16,38,38,267
46.68430,-0.04935,0.11900,0.00000,0.03160,0.97600,-0.19020,0.0,2023,6,7,16,38,38,278
46.68440,-0.04935,-0.02100,0.00000,0.03001,0.97783,-0.19093,0.0,2023,6,7,16,38,38,289
46.68450,-0.11935,0.04900,0.00000,0.03087,0.97600,-0.19203,0.0,2023,6,7,16,38,38,300
46.68460,-0.08435,-0.23100,0.00000,0.03099,0.97673,-0.18983,0.0,2023,6,7,16,38,38,312
46.68470,-0.01435,0.17150,0.00000,0.03038,0.97734,-0.18971,0.0,2023,6,7,16,38,38,323
46.68480,-0.10185,0.06650,0.00000,0.03038,0.97649,-0.18995,0.0,2023,6,7,16,38,38,334
46.68490,0.10815,-0.03850,0.00000,0.03270,0.97624,-0.19069,0.0,2023,6,7,16,38,38,345
46.68500,0.10815,-0.07350,0.00000,0.03233,0.97527,-0.19056,0.0,2023,6,7,16,38,38,357
46.68510,0.14315,-0.24850,0.00000,0.03343,0.97551,-0.18825,0.0,2023,6,7,16,38,38,368
46.68520,0.14315,-0.07350,0.00000,0.02940,0.97698,-0.18959,0.0,2023,6,7,16,38,38,379
46.68530,-0.13685,-0.03850,0.00000,0.03001,0.97490,-0.18764,0.0,2023,6,7,16,38,38,390
46.68540,-0.10185,0.15400,0.00000,0.03172,0.97661,-0.18776,0.0,2023,6,7,16,38,38,402
46.68550,0.02065,-0.12600,0.00000,0.03038,0.97698,-0.19130,0.0,2023,6,7,16,38,38,413
46.68560,0.12565,0.01400,0.00000,0.03172,0.97746,-0.18910,0.0,2023,6,7,16,38,38,424
46.68570,-0.10185,-0.10850,0.00000,0.03367,0.97393,-0.18764,0.0,2023,6,7,16,38,38,435
46.68580,0.14315,-0.00350,0.00000,0.02965,0.97710,-0.18910,0.0,2023,6,7,16,38,38,447
46.68590,0.12565,-0.02100,0.00000,0.03392,0.97466,-0.18800,0.0,2023,6,7,16,38,38,458
46.68600,-0.08435,-0.02100,0.00000,0.02977,0.97722,-0.18764,0.0,2023,6,7,16,38,38,469
46.68610,0.05565,-0.07350,0.00000,0.03001,0.97576,-0.18947,0.0,2023,6,7,16,38,38,480
46.68620,-0.10185,0.08400,0.00000,0.03123,0.97551,-0.18886,0.0,2023,6,7,16,38,38,492
46.68630,0.12565,-0.03850,0.00000,0.03099,0.97868,-0.19008,0.0,2023,6,7,16,38,38,503
46.68640,0.00315,-0.09100,0.00000,0.03160,0.97722,-0.18959,0.0,2023,6,7,16,38,38,514
46.68650,0.10815,-0.03850,0.00000,0.02928,0.97551,-0.19081,0.0,2023,6,7,16,38,38,525
46.68660,0.16065,-0.05600,0.00000,0.03160,0.97673,-0.19069,0.0,2023,6,7,16,38,38,537
46.68670,-0.03185,0.10150,0.00000,0.03172,0.97844,-0.19032,0.0,2023,6,7,16,38,38,548
46.68680,0.07315,-0.03850,0.00000,0.02977,0.97624,-0.18873,0.0,2023,6,7,16,38,38,559
46.68690,-0.08435,-0.10850,0.00000,0.03172,0.97539,-0.18873,0.0,2023,6,7,16,38,38,570
46.68700,-0.06685,-0.16100,0.00000,0.03038,0.97588,-0.18849,0.0,2023,6,7,16,38,38,582
46.68710,0.19565,0.08400,0.00000,0.03135,0.97563,-0.18727,0.0,2023,6,7,16,38,38,593
46.68720,-0.22435,0.03150,0.00000,0.03135,0.97576,-0.19044,0.0,2023,6,7,16,38,38,604
46.68730,0.02065,-0.10850,0.00000,0.03245,0.97466,-0.18812,0.0,2023,6,7,16,38,38,615
46.68740,0.23065,0.01400,0.00000,0.03196,0.97515,-0.18922,0.0,2023,6,7,16,38,38,627
46.68750,0.02065,0.03150,0.00000,0.02928,0.97588,-0.18995,0.0,2023,6,7,16,38,38,638
46.68760,0.02065,-0.05600,0.00000,0.03050,0.97576,-0.19093,0.0,2023,6,7,16,38,38,649
46.68770,-0.08435,0.11900,0.00000,0.03099,0.97685,-0.18886,0.0,2023,6,7,16,38,38,660
46.68780,-0.03185,-0.10850,0.00000,0.03209,0.97624,-0.18922,0.0,2023,6,7,16,38,38,672
46.68790,0.14315,-0.00350,0.00000,0.03221,0.97466,-0.18959,0.0,2023,6,7,16,38,38,683
46.68800,0.14315,0.03150,0.00000,0.03209,0.97722,-0.18837,0.0,2023,6,7,16,38,38,694
46.68810,0.05565,-0.03850,0.00000,0.03196,0.97746,-0.19215,0.0,2023,6,7,16,38,38,705
46.68820,0.00315,-0.10850,0.00000,0.03209,0.97624,-0.19008,0.0,2023,6,7,16,38,38,717
46.68830,-0.11935,0.13650,0.00000,0.03099,0.97563,-0.18947,0.0,2023,6,7,16,38,38,728
46.68840,0.14315,0.18900,0.00000,0.03184,0.97746,-0.19081,0.0,2023,6,7,16,38,38,739
46.68850,-0.06685,0.06650,0.00000,0.03294,0.97624,-0.19008,0.0,2023,6,7,16,38,38,750
46.68860,0.07315,0.08400,0.00000,0.03172,0.97832,-0.18971,0.0,2023,6,7,16,38,38,762
46.68870,0.05565,0.10150,0.00000,0.03233,0.97490,-0.18934,0.0,2023,6,7,16,38,38,773
46.68880,-0.03185,-0.17850,0.00000,0.02977,0.97502,-0.18898,0.0,2023,6,7,16,38,38,784
46.68890,-0.08435,-0.00350,0.00000,0.03184,0.97649,-0.18703,0.0,2023,6,7,16,38,38,795
46.68900,-0.10185,0.03150,0.00000,0.03160,0.97551,-0.19203,0.0,2023,6,7,16,38,38,807
46.68910,0.00315,0.13650,0.00000,0.03160,0.97600,-0.19166,0.0,2023,6,7,16,38,38,818
46.68920,0.09065,-0.03850,0.00000,0.03123,0.97624,-0.18959,0.0,2023,6,7,16,38,38,829
46.68930,-0.13685,-0.03850,0.00000,0.03196,0.97539,-0.18971,0.0,2023,6,7,16,38,38,840
46.68940,0.14315,-0.05600,0.00000,0.03172,0.97661,-0.18922,0.0,2023,6,7,16,38,38,852
46.68950,0.05565,0.13650,0.00000,0.03050,0.97624,-0.18922,0.0,2023,6,7,16,38,38,863
46.68960,-0.03185,-0.05600,0.00000,0.03099,0.97685,-0.18910,0.0,2023,6,7,16,38,38,874
46.68970,0.10815,0.06650,0.00000,0.03270,0.97576,-0.19191,0.0,2023,6,7,16,38,38,885
46.68980,0.26565,-0.10850,0.00000,0.02757,0.97600,-0.19117,0.0,2023,6,7,16,38,38,897
46.68990,-0.03185,-0.09100,0.00000,0.03196,0.97795,-0.19191,0.0,2023,6,7,16,38,38,908
46.69000,0.05565,0.08400,0.00000,0.02891,0.97807,-0.18922,0.0,2023,6,7,16,38,38,919
46.69010,0.00315,0.10150,0.00000,0.02904,0.97673,-0.18825,0.0,2023,6,7,16,38,38,930
46.69020,-0.04935,0.29400,0.00000,0.03087,0.97783,-0.18934,0.0,2023,6,7,16,38,38,942
46.69030,-0.08435,0.10150,0.00000,0.02940,0.97759,-0.18898,0.0,2023,6,7,16,38,38,953
46.69040,-0.17185,-0.10850,0.00000,0.02818,0.97661,-0.19056,0.0,2023,6,7,16,38,38,964
46.69050,0.03815,0.17150,0.00000,0.03013,0.97466,-0.19215,0.0,2023,6,7,16,38,38,975
46.69060,-0.27685,0.11900,0.00000,0.02965,0.97527,-0.19191,0.0,2023,6,7,16,38,38,987
46.69070,0.14315,0.03150,0.00000,0.03257,0.97685,-0.19117,0.0,2023,6,7,16,38,38,998
46.69080,-0.01435,-0.02100,0.00000,0.03160,0.97539,-0.19215,0.0,2023,6,7,16,38,39,9
46.69090,0.02065,0.04900,0.00000,0.03111,0.97600,-0.19032,0.0,2023,6,7,16,38,39,20
46.69100,-0.03185,-0.10850,0.00000,0.02867,0.97576,-0.19056,0.0,2023,6,7,16,38,39,32
46.69110,0.10815,-0.17850,0.00000,0.03172,0.97807,-0.18995,0.0,2023,6,7,16,38,39,43
46.69120,-0.03185,0.18900,0.00000,0.03099,0.97661,-0.19239,0.0,2023,6,7,16,38,39,54
46.69130,0.12565,0.04900,0.00000,0.03270,0.97600,-0.18922,0.0,2023,6,7,16,38,39,65
46.69140,0.17815,-0.03850,0.00000,0.03062,0.97368,-0.18764,0.0,2023,6,7,16,38,39,77
46.69150,0.21315,-0.12600,0.00000,0.03111,0.97502,-0.18910,0.0,2023,6,7,16,38,39,88
46.69160,-0.06685,-0.05600,0.00000,0.02965,0.97490,-0.18959,0.0,2023,6,7,16,38,39,99
46.69170,0.21315,-0.12600,0.00000,0.03099,0.97502,-0.19069,0.0,2023,6,7,16,38,39,110
46.69180,-0.04935,-0.02100,0.00000,0.03148,0.97685,-0.18873,0.0,2023,6,7,16,38,39,122
46.69190,-0.03185,0.18900,0.00000,0.03123,0.97710,-0.19130,0.0,2023,6,7,16,38,39,133
46.69200,0.03815,0.03150,0.00000,0.03111,0.97600,-0.19264,0.0,2023,6,7,16,38,39,144
46.69210,0.10815,0.08400,0.00000,0.03038,0.97722,-0.18959,0.0,2023,6,7,16,38,39,155
46.69220,0.03815,-0.05600,0.00000,0.03062,0.97673,-0.18886,0.0,2023,6,7,16,38,39,167
46.69230,0.03815,-0.05600,0.00000,0.03062,0.97856,-0.19178,0.0,2023,6,7,16,38,39,178
46.69240,-0.03185,0.01400,0.00000,0.02952,0.97515,-0.18873,0.0,2023,6,7,16,38,39,189
46.69250,0.03815,0.01400,0.00000,0.03306,0.97490,-0.18934,0.0,2023,6,7,16,38,39,200
46.69260,-0.01435,0.04900,0.00000,0.02879,0.97515,-0.19130,0.0,2023,6,7,16,38,39,212
46.69270,0.09065,0.22400,0.00000,0.03148,0.97576,-0.19032,0.0,2023,6,7,16,38,39,223
46.69280,-0.13685,0.10150,0.00000,0.03087,0.97637,-0.18764,0.0,2023,6,7,16,38,39,234
46.69290,0.00315,0.06650,0.00000,0.03135,0.97685,-0.18922,0.0,2023,6,7,16,38,39,245
46.69300,0.07315,-0.00350,0.00000,0.03172,0.97502,-0.18837,0.0,2023,6,7,16,38,39,257
46.69310,0.10815,0.15400,0.00000,0.03196,0.97795,-0.19032,0.0,2023,6,7,16,38,39,268
46.69320,0.05565,-0.12600,0.00000,0.03160,0.97417,-0.19020,0.0,2023,6,7,16,38,39,279
46.69330,-0.01435,0.17150,0.00000,0.02916,0.97624,-0.18837,0.0,2023,6,7,16,38,39,290
46.69340,-0.10185,0.06650,0.00000,0.03062,0.97502,-0.19166,0.0,2023,6,7,16,38,39,302
46.69350,-0.01435,0.15400,0.00000,0.02989,0.97441,-0.19105,0.0,2023,6,7,16,38,39,313
46.69360,-0.08435,-0.05600,0.00000,0.03074,0.97673,-0.19203,0.0,2023,6,7,16,38,39,324
46.69370,-0.04935,-0.03850,0.00000,0.02989,0.97405,-0.18812,0.0,2023,6,7,16,38,39,335
46.69380,-0.06685,0.15400,0.00000,0.02965,0.97649,-0.18690,0.0,2023,6,7,16,38,39,347
46.69390,0.19565,0.08400,0.00000,0.03135,0.97551,-0.19032,0.0,2023,6,7,16,38,39,358
46.69400,0.03815,-0.03850,0.00000,0.03026,0.97661,-0.19020,0.0,2023,6,7,16,38,39,369
46.69410,-0.01435,-0.14350,0.00000,0.02989,0.97722,-0.19081,0.0,2023,6,7,16,38,39,380
46.69420,-0.08435,-0.02100,0.00000,0.03196,0.97612,-0.19056,0.0,2023,6,7,16,38,39,392
46.69430,-0.17185,0.10150,0.00000,0.03209,0.97637,-0.19276,0.0,2023,6,7,16,38,39,403
46.69440,0.03815,-0.14350,0.00000,0.02879,0.97637,-0.19300,0.0,2023,6,7,16,38,39,414
46.69450,-0.01435,0.06650,0.00000,0.03160,0.97539,-0.19203,0.0,2023,6,7,16,38,39,425
46.69460,0.17815,-0.12600,0.00000,0.02952,0.97820,-0.19093,0.0,2023,6,7,16,38,39,437
46.69470,0.03815,-0.00350,0.00000,0.03111,0.97466,-0.18934,0.0,2023,6,7,16,38,39,448
46.69480,0.00315,-0.31850,0.00000,0.02989,0.97588,-0.18910,0.0,2023,6,7,16,38,39,459
46.69490,0.09065,0.10150,0.00000,0.02916,0.97746,-0.19264,0.0,2023,6,7,16,38,39,470
46.69500,-0.03185,-0.00350,0.00000,0.03184,0.97441,-0.19069,0.0,2023,6,7,16,38,39,482
46.69510,-0.01435,0.10150,0.00000,0.03135,0.97624,-0.18983,0.0,2023,6,7,16,38,39,493
46.69520,-0.25935,0.22400,0.00000,0.03221,0.97832,-0.19142,0.0,2023,6,7,16,38,39,504
46.69530,0.16065,0.18900,0.00000,0.03172,0.97356,-0.18959,0.0,2023,6,7,16,38,39,515
46.69540,0.07315,-0.02100,0.00000,0.02928,0.97600,-0.19020,0.0,2023,6,7,16,38,39,527
46.69550,0.03815,0.08400,0.00000,0.03148,0.97551,-0.19166,0.0,2023,6,7,16,38,39,538
46.69560,0.05565,-0.16100,0.00000,0.03038,0.97563,-0.18825,0.0,2023,6,7,16,38,39,549
46.69570,0.07315,0.01400,0.00000,0.03160,0.97832,-0.19154,0.0,2023,6,7,16,38,39,560
46.69580,0.17815,-0.02100,0.00000,0.03062,0.97698,-0.19215,0.0,2023,6,7,16,38,39,572
46.69590,-0.08435,0.10150,0.00000,0.03111,0.97502,-0.19008,0.0,2023,6,7,16,38,39,583
46.69600,-0.08435,0.04900,0.00000,0.03050,0.97783,-0.19069,0.0,2023,6,7,16,38,39,594
46.69610,0.09065,0.10150,0.00000,0.03062,0.97624,-0.18873,0.0,2023,6,7,16,38,39,605
46.69620,-0.06685,0.04900,0.00000,0.03233,0.97466,-0.18934,0.0,2023,6,7,16,38,39,617
46.69630,-0.04935,-0.00350,0.00000,0.03148,0.97539,-0.18764,0.0,2023,6,7,16,38,39,628
46.69640,-0.01435,0.11900,0.00000,0.03184,0.97295,-0.18861,0.0,2023,6,7,16,38,39,639
46.69650,-0.01435,-0.10850,0.00000,0.03099,0.97722,-0.19008,0.0,2023,6,7,16,38,39,650
46.69660,0.16065,-0.09100,0.00000,0.02879,0.97539,-0.18947,0.0,2023,6,7,16,38,39,662
46.69670,0.07315,0.03150,0.00000,0.03282,0.97490,-0.19008,0.0,2023,6,7,16,38,39,673
46.69680,-0.03185,-0.05600,0.00000,0.03392,0.97478,-0.19044,0.0,2023,6,7,16,38,39,684
46.69690,-0.04935,0.03150,0.00000,0.03001,0.97576,-0.18947,0.0,2023,6,7,16,38,39,695
46.69700,-0.10185,-0.05600,0.00000,0.03270,0.97673,-0.18886,0.0,2023,6,7,16,38,39,707
46.69710,0.00315,0.13650,0.00000,0.03184,0.97551,-0.18849,0.0,2023,6,7,16,38,39,718
46.69720,-0.17185,0.03150,0.00000,0.03099,0.97600,-0.19130,0.0,2023,6,7,16,38,39,729
46.69730,-0.04935,-0.10850,0.00000,0.03099,0.97441,-0.19093,0.0,2023,6,7,16,38,39,740
46.69740,-0.04935,-0.03850,0.00000,0.03111,0.97478,-0.18922,0.0,2023,6,7,16,38,39,752
46.69750,0.05565,-0.16100,0.00000,0.03160,0.97539,-0.18886,0.0,2023,6,7,16,38,39,763
46.69760,-0.08435,0.13650,0.00000,0.03099,0.97527,-0.18837,0.0,2023,6,7,16,38,39,774
46.69770,0.12565,0.04900,0.00000,0.03123,0.97588,-0.19300,0.0,2023,6,7,16,38,39,785
46.69780,0.17815,-0.19600,0.00000,0.02977,0.97734,-0.19044,0.0,2023,6,7,16,38,39,797
46.69790,0.05565,0.10150,0.00000,0.02916,0.97698,-0.19178,0.0,2023,6,7,16,38,39,808
46.69800,0.00315,-0.00350,0.00000,0.03270,0.97380,-0.18922,0.0,2023,6,7,16,38,39,819
46.69810,-0.11935,0.17150,0.00000,0.03074,0.97612,-0.19264,0.0,2023,6,7,16,38,39,830
46.69820,0.07315,0.11900,0.00000,0.03148,0.97746,-0.19105,0.0,2023,6,7,16,38,39,842
46.69830,0.09065,-0.05600,0.00000,0.03099,0.97576,-0.19105,0.0,2023,6,7,16,38,39,853
46.69840,-0.08435,0.06650,0.00000,0.03270,0.97600,-0.18922,0.0,2023,6,7,16,38,39,864
46.69850,-0.10185,-0.38850,0.00000,0.03074,0.97649,-0.19178,0.0,2023,6,7,16,38,39,875
46.69860,-0.03185,0.10150,0.00000,0.03074,0.97624,-0.18947,0.0,2023,6,7,16,38,39,887
46.69870,0.07315,-0.02100,0.00000,0.03160,0.97746,-0.19093,0.0,2023,6,7,16,38,39,898
46.69880,0.26565,-0.12600,0.00000,0.03123,0.97502,-0.19008,0.0,2023,6,7,16,38,39,909
46.69890,0.17815,-0.09100,0.00000,0.02989,0.97612,-0.19386,0.0,2023,6,7,16,38,39,920
46.69900,0.05565,-0.14350,0.00000,0.03050,0.97576,-0.19081,0.0,2023,6,7,16,38,39,932
46.69910,-0.01435,-0.12600,0.00000,0.02916,0.97588,-0.19191,0.0,2023,6,7,16,38,39,943
46.69920,0.05565,-0.19600,0.00000,0.03087,0.97637,-0.18983,0.0,2023,6,7,16,38,39,954
46.69930,0.00315,-0.02100,0.00000,0.03221,0.97429,-0.18922,0.0,2023,6,7,16,38,39,965
46.69940,-0.34685,-0.17850,0.00000,0.03013,0.97771,-0.18886,0.0,2023,6,7,16,38,39,977
46.69950,-0.20685,0.22400,0.00000,0.03001,0.97710,-0.18983,0.0,2023,6,7,16,38,39,988
46.69960,0.05565,-0.03850,0.00000,0.03306,0.97600,-0.18873,0.0,2023,6,7,16,38,39,999
46.69970,-0.03185,0.01400,0.00000,0.03099,0.97795,-0.19252,0.0,2023,6,7,16,38,39,10
46.69980,0.00315,0.15400,0.00000,0.03013,0.97685,-0.18995,0.0,2023,6,7,16,38,40,2
46.69990,0.00315,0.04900,0.00000,0.02891,0.97759,-0.18995,0.0,2023,6,7,16,38,40,13
46.70000,-0.04935,0.03150,0.00000,0.02940,0.97698,-0.19410,0.0,2023,6,7,16,38,40,24
46.70010,0.02065,-0.03850,0.00000,0.03111,0.97759,-0.19020,0.0,2023,6,7,16,38,40,35
46.70020,-0.04935,0.10150,0.00000,0.03001,0.97527,-0.19325,0.0,2023,6,7,16,38,40,47
46.70030,-0.03185,-0.19600,0.00000,0.03355,0.97551,-0.19178,0.0,2023,6,7,16,38,40,58
46.70040,0.00315,-0.02100,0.00000,0.03026,0.97673,-0.18983,0.0,2023,6,7,16,38,40,69
46.70050,0.16065,-0.03850,0.00000,0.03172,0.97661,-0.19069,0.0,2023,6,7,16,38,40,80
46.70060,0.00315,0.04900,0.00000,0.03074,0.97368,-0.18910,0.0,2023,6,7,16,38,40,92
46.70070,-0.08435,0.01400,0.00000,0.03111,0.97673,-0.18764,0.0,2023,6,7,16,38,40,103
46.70080,-0.04935,-0.10850,0.00000,0.02965,0.97563,-0.18934,0.0,2023,6,7,16,38,40,114
46.70090,-0.10185,-0.12600,0.00000,0.03050,0.97600,-0.19032,0.0,2023,6,7,16,38,40,125
46.70100,-0.03185,0.11900,0.00000,0.03233,0.97551,-0.19215,0.0,2023,6,7,16,38,40,137
46.70110,0.05565,-0.17850,0.00000,0.02830,0.97759,-0.19239,0.0,2023,6,7,16,38,40,148
46.70120,0.10815,-0.17850,0.00000,0.03343,0.97746,-0.19081,0.0,2023,6,7,16,38,40,159
46.70130,0.02065,0.01400,0.00000,0.03050,0.97649,-0.19044,0.0,2023,6,7,16,38,40,170
46.70140,0.05565,-0.00350,0.00000,0.03196,0.97368,-0.18861,0.0,2023,6,7,16,38,40,182
46.70150,0.12565,-0.05600,0.00000,0.03001,0.97649,-0.19325,0.0,2023,6,7,16,38,40,193
46.70160,-0.27685,-0.03850,0.00000,0.03111,0.97637,-0.18959,0.0,2023,6,7,16,38,40,204
46.70170,-0.15435,0.10150,0.00000,0.03087,0.97576,-0.19081,0.0,2023,6,7,16,38,40,215
46.70180,0.07315,-0.16100,0.00000,0.03428,0.97722,-0.19130,0.0,2023,6,7,16,38,40,227
46.70190,-0.03185,-0.00350,0.00000,0.03148,0.97478,-0.18788,0.0,2023,6,7,16,38,40,238
46.70200,-0.04935,0.15400,0.00000,0.02891,0.97637,-0.19069,0.0,2023,6,7,16,38,40,249
46.70210,-0.10185,0.04900,0.00000,0.03148,0.97673,-0.18995,0.0,2023,6,7,16,38,40,260
46.70220,0.09065,-0.14350,0.00000,0.03026,0.97771,-0.19105,0.0,2023,6,7,16,38,40,272
46.70230,-0.10185,-0.03850,0.00000,0.03099,0.97417,-0.18898,0.0,2023,6,7,16,38,40,283
46.70240,0.24815,-0.02100,0.00000,0.03135,0.97673,-0.18898,0.0,2023,6,7,16,38,40,294
46.70250,0.03815,-0.03850,0.00000,0.03184,0.97820,-0.19044,0.0,2023,6,7,16,38,40,305
46.70260,0.09065,0.15400,0.00000,0.02965,0.97698,-0.19264,0.0,2023,6,7,16,38,40,317
46.70270,-0.15435,0.15400,0.00000,0.03050,0.97746,-0.19264,0.0,2023,6,7,16,38,40,328
46.70280,0.09065,-0.00350,0.00000,0.03172,0.97759,-0.19300,0.0,2023,6,7,16,38,40,339
46.70290,0.14315,0.03150,0.00000,0.03050,0.97722,-0.19032,0.0,2023,6,7,16,38,40,350
46.70300,-0.04935,-0.05600,0.00000,0.03148,0.97649,-0.19020,0.0,2023,6,7,16,38,40,362
46.70310,0.03815,-0.05600,0.00000,0.03026,0.97673,-0.18812,0.0,2023,6,7,16,38,40,373
46.70320,0.14315,-0.19600,0.00000,0.03074,0.97661,-0.18983,0.0,2023,6,7,16,38,40,384
46.70330,0.07315,0.13650,0.00000,0.02916,0.97649,-0.19166,0.0,2023,6,7,16,38,40,395
46.70340,-0.04935,-0.02100,0.00000,0.02855,0.97710,-0.18898,0.0,2023,6,7,16,38,40,407
46.70350,-0.08435,-0.12600,0.00000,0.03306,0.97637,-0.19142,0.0,2023,6,7,16,38,40,418
46.70360,0.16065,-0.07350,0.00000,0.03209,0.97710,-0.19008,0.0,2023,6,7,16,38,40,429
46.70370,0.00315,-0.16100,0.00000,0.03270,0.97466,-0.19410,0.0,2023,6,7,16,38,40,440
46.70380,0.00315,-0.09100,0.00000,0.02879,0.97576,-0.19142,0.0,2023,6,7,16,38,40,452
46.70390,0.05565,0.13650,0.00000,0.03038,0.97588,-0.19166,0.0,2023,6,7,16,38,40,463
46.70400,-0.04935,0.11900,0.00000,0.03135,0.97856,-0.18983,0.0,2023,6,7,16,38,40,474
46.70410,0.23065,-0.02100,0.00000,0.03001,0.97563,-0.19142,0.0,2023,6,7,16,38,40,485
46.70420,0.10815,-0.00350,0.00000,0.03221,0.97551,-0.19081,0.0,2023,6,7,16,38,40,497
46.70430,-0.17185,0.06650,0.00000,0.03026,0.97673,-0.19264,0.0,2023,6,7,16,38,40,508
46.70440,0.09065,0.11900,0.00000,0.03123,0.97637,-0.19069,0.0,2023,6,7,16,38,40,519
46.70450,0.09065,-0.14350,0.00000,0.03038,0.97332,-0.19032,0.0,2023,6,7,16,38,40,530
46.70460,-0.04935,0.08400,0.00000,0.02989,0.97673,-0.19239,0.0,2023,6,7,16,38,40,542
46.70470,0.14315,-0.12600,0.00000,0.03038,0.97685,-0.19276,0.0,2023,6,7,16,38,40,553
46.70480,-0.08435,-0.12600,0.00000,0.03062,0.97466,-0.19300,0.0,2023,6,7,16,38,40,564
46.70490,0.12565,-0.17850,0.00000,0.02867,0.97515,-0.19252,0.0,2023,6,7,16,38,40,575
46.70500,-0.06685,0.20650,0.00000,0.02989,0.97649,-0.19032,0.0,2023,6,7,16,38,40,587
46.70510,0.07315,-0.21350,0.00000,0.03013,0.97478,-0.19239,0.0,2023,6,7,16,38,40,598
46.70520,-0.11935,0.03150,0.00000,0.03160,0.97832,-0.19508,0.0,2023,6,7,16,38,40,609
46.70530,0.00315,-0.03850,0.00000,0.03026,0.97624,-0.19227,0.0,2023,6,7,16,38,40,620
46.70540,-0.10185,0.04900,0.00000,0.03196,0.97661,-0.19069,0.0,2023,6,7,16,38,40,632
46.70550,-0.01435,0.06650,0.00000,0.03160,0.97539,-0.19105,0.0,2023,6,7,16,38,40,643
46.70560,-0.15435,0.11900,0.00000,0.03270,0.97856,-0.18983,0.0,2023,6,7,16,38,40,654
46.70570,0.09065,0.10150,0.00000,0.03013,0.97685,-0.19130,0.0,2023,6,7,16,38,40,665
46.70580,0.17815,-0.07350,0.00000,0.03196,0.97759,-0.18947,0.0,2023,6,7,16,38,40,677
46.70590,-0.13685,0.03150,0.00000,0.03148,0.97527,-0.19117,0.0,2023,6,7,16,38,40,688
46.70600,-0.15435,0.06650,0.00000,0.03184,0.97734,-0.19166,0.0,2023,6,7,16,38,40,699
46.70610,0.16065,-0.03850,0.00000,0.03233,0.97746,-0.19093,0.0,2023,6,7,16,38,40,710
46.70620,-0.10185,0.18900,0.00000,0.03196,0.97393,-0.19020,0.0,2023,6,7,16,38,40,722
46.70630,-0.04935,-0.07350,0.00000,0.03013,0.97600,-0.19081,0.0,2023,6,7,16,38,40,733
46.70640,-0.06685,0.25900,0.00000,0.03306,0.97624,-0.19081,0.0,2023,6,7,16,38,40,744
46.70650,-0.06685,-0.07350,0.00000,0.02916,0.97673,-0.19154,0.0,2023,6,7,16,38,40,755
46.70660,0.03815,0.15400,0.00000,0.03074,0.97637,-0.19117,0.0,2023,6,7,16,38,40,767
46.70670,0.07315,0.04900,0.00000,0.03074,0.97685,-0.19203,0.0,2023,6,7,16,38,40,778
46.70680,-0.03185,-0.02100,0.00000,0.03013,0.97722,-0.19239,0.0,2023,6,7,16,38,40,789
46.70690,-0.08435,0.04900,0.00000,0.03087,0.97380,-0.19105,0.0,2023,6,7,16,38,40,800
46.70700,-0.10185,0.24150,0.00000,0.03062,0.97661,-0.18995,0.0,2023,6,7,16,38,40,812
46.70710,0.16065,0.10150,0.00000,0.03038,0.97563,-0.19069,0.0,2023,6,7,16,38,40,823
46.70720,-0.03185,0.04900,0.00000,0.03038,0.97661,-0.19239,0.0,2023,6,7,16,38,40,834
46.70730,-0.11935,-0.05600,0.00000,0.02952,0.97746,-0.19252,0.0,2023,6,7,16,38,40,845
46.70740,-0.01435,0.03150,0.00000,0.03257,0.97844,-0.18983,0.0,2023,6,7,16,38,40,857
46.70750,0.10815,0.06650,0.00000,0.03160,0.97490,-0.19056,0.0,2023,6,7,16,38,40,868
46.70760,-0.13685,-0.21350,0.00000,0.03111,0.97746,-0.18837,0.0,2023,6,7,16,38,40,879
46.70770,-0.11935,-0.00350,0.00000,0.03160,0.97417,-0.19313,0.0,2023,6,7,16,38,40,890
46.70780,0.05565,0.10150,0.00000,0.03001,0.97685,-0.19154,0.0,2023,6,7,16,38,40,902
46.70790,0.02065,-0.00350,0.00000,0.03135,0.97661,-0.18995,0.0,2023,6,7,16,38,40,913
46.70800,-0.10185,0.03150,0.00000,0.03160,0.97441,-0.18983,0.0,2023,6,7,16,38,40,924
46.70810,0.02065,-0.03850,0.00000,0.02965,0.97515,-0.19130,0.0,2023,6,7,16,38,40,935
46.70820,0.19565,-0.10850,0.00000,0.02916,0.97588,-0.19349,0.0,2023,6,7,16,38,40,947
46.70830,-0.01435,-0.12600,0.00000,0.03123,0.97624,-0.19081,0.0,2023,6,7,16,38,40,958
46.70840,0.00315,0.24150,0.00000,0.03062,0.97856,-0.18812,0.0,2023,6,7,16,38,40,969
46.70850,-0.13685,0.04900,0.00000,0.03087,0.97539,-0.19166,0.0,2023,6,7,16,38,40,980
46.70860,-0.01435,0.08400,0.00000,0.03062,0.97502,-0.19252,0.0,2023,6,7,16,38,40,992
46.70870,-0.08435,-0.12600,0.00000,0.02879,0.97454,-0.19154,0.0,2023,6,7,16,38,40,3
46.70880,-0.10185,-0.33600,0.00000,0.03087,0.97661,-0.19239,0.0,2023,6,7,16,38,41,4
46.70890,-0.03185,-0.03850,0.00000,0.02952,0.97746,-0.19044,0.0,2023,6,7,16,38,41,15
46.70900,0.07315,-0.07350,0.00000,0.03233,0.97563,-0.19105,0.0,2023,6,7,16,38,41,27
46.70910,0.02065,0.03150,0.00000,0.03123,0.97527,-0.19154,0.0,2023,6,7,16,38,41,38
46.70920,-0.08435,0.13650,0.00000,0.03050,0.97649,-0.19483,0.0,2023,6,7,16,38,41,49
46.70930,-0.04935,0.04900,0.00000,0.03184,0.97539,-0.19215,0.0,2023,6,7,16,38,41,60
46.70940,-0.01435,0.13650,0.00000,0.03196,0.97771,-0.19105,0.0,2023,6,7,16,38,41,72
46.70950,-0.04935,-0.24850,0.00000,0.03221,0.97502,-0.19239,0.0,2023,6,7,16,38,41,83
46.70960,0.14315,0.15400,0.00000,0.03123,0.97515,-0.19398,0.0,2023,6,7,16,38,41,94
46.70970,0.05565,-0.05600,0.00000,0.03148,0.97551,-0.19142,0.0,2023,6,7,16,38,41,105
46.70980,-0.11935,-0.23100,0.00000,0.03062,0.97478,-0.19349,0.0,2023,6,7,16,38,41,117
46.70990,-0.13685,0.06650,0.00000,0.03111,0.97698,-0.19105,0.0,2023,6,7,16,38,41,128
46.71000,-0.10185,0.11900,0.00000,0.03087,0.97649,-0.19227,0.0,2023,6,7,16,38,41,139
46.71010,-0.06685,0.01400,0.00000,0.03172,0.97478,-0.19081,0.0,2023,6,7,16,38,41,150
46.71020,0.09065,0.08400,0.00000,0.03172,0.97576,-0.18971,0.0,2023,6,7,16,38,41,162
46.71030,-0.11935,0.06650,0.00000,0.03160,0.97600,-0.19288,0.0,2023,6,7,16,38,41,173
46.71040,-0.01435,0.04900,0.00000,0.03184,0.97319,-0.19252,0.0,2023,6,7,16,38,41,184
46.71050,0.07315,0.04900,0.00000,0.03099,0.97515,-0.19215,0.0,2023,6,7,16,38,41,195
46.71060,-0.03185,-0.05600,0.00000,0.03062,0.97637,-0.19191,0.0,2023,6,7,16,38,41,207
46.71070,-0.03185,0.11900,0.00000,0.03135,0.97344,-0.18995,0.0,2023,6,7,16,38,41,218
46.71080,-0.11935,0.06650,0.00000,0.03123,0.97807,-0.19337,0.0,2023,6,7,16,38,41,229
46.71090,0.09065,-0.03850,0.00000,0.03148,0.97722,-0.19142,0.0,2023,6,7,16,38,41,240
46.71100,0.16065,0.13650,0.00000,0.03148,0.97600,-0.19105,0.0,2023,6,7,16,38,41,252
46.71110,0.00315,0.17150,0.00000,0.03135,0.97710,-0.19130,0.0,2023,6,7,16,38,41,263
46.71120,0.21315,-0.10850,0.00000,0.03026,0.97649,-0.19081,0.0,2023,6,7,16,38,41,274
46.71130,0.05565,-0.21350,0.00000,0.02989,0.97844,-0.19239,0.0,2023,6,7,16,38,41,285
46.71140,0.02065,0.13650,0.00000,0.02989,0.97685,-0.19239,0.0,2023,6,7,16,38,41,297
46.71150,0.03815,0.08400,0.00000,0.03001,0.97698,-0.19325,0.0,2023,6,7,16,38,41,308
46.71160,-0.20685,-0.03850,0.00000,0.02916,0.97588,-0.19056,0.0,2023,6,7,16,38,41,319
46.71170,0.12565,-0.02100,0.00000,0.03038,0.97527,-0.19056,0.0,2023,6,7,16,38,41,330
46.71180,0.03815,-0.02100,0.00000,0.02940,0.97624,-0.19020,0.0,2023,6,7,16,38,41,342
46.71190,-0.13685,-0.05600,0.00000,0.03135,0.97478,-0.19215,0.0,2023,6,7,16,38,41,353
46.71200,0.09065,-0.05600,0.00000,0.03160,0.97807,-0.19142,0.0,2023,6,7,16,38,41,364
46.71210,0.00315,-0.10850,0.00000,0.03001,0.97844,-0.19215,0.0,2023,6,7,16,38,41,375
46.71220,-0.08435,0.04900,0.00000,0.03245,0.97576,-0.19374,0.0,2023,6,7,16,38,41,387
46.71230,0.10815,-0.02100,0.00000,0.03123,0.97515,-0.19264,0.0,2023,6,7,16,38,41,398
46.71240,0.09065,0.04900,0.00000,0.03087,0.97673,-0.19288,0.0,2023,6,7,16,38,41,409
46.71250,0.19565,-0.00350,0.00000,0.03038,0.97698,-0.19081,0.0,2023,6,7,16,38,41,420
46.71260,-0.01435,-0.03850,0.00000,0.03221,0.97600,-0.19117,0.0,2023,6,7,16,38,41,432
46.71270,0.02065,-0.10850,0.00000,0.02904,0.97441,-0.19093,0.0,2023,6,7,16,38,41,443
46.71280,0.24815,0.10150,0.00000,0.03245,0.97624,-0.19239,0.0,2023,6,7,16,38,41,454
46.71290,0.02065,-0.05600,0.00000,0.03001,0.97417,-0.19178,0.0,2023,6,7,16,38,41,465
46.71300,0.07315,0.17150,0.00000,0.03001,0.97893,-0.19166,0.0,2023,6,7,16,38,41,477
46.71310,0.21315,-0.00350,0.00000,0.03062,0.97624,-0.19142,0.0,2023,6,7,16,38,41,488
46.71320,0.00315,0.01400,0.00000,0.03221,0.97637,-0.19252,0.0,2023,6,7,16,38,41,499
46.71330,0.05565,-0.07350,0.00000,0.03026,0.97637,-0.18995,0.0,2023,6,7,16,38,41,510
46.71340,0.05565,-0.17850,0.00000,0.03038,0.97637,-0.19093,0.0,2023,6,7,16,38,41,522
46.71350,-0.11935,-0.14350,0.00000,0.03013,0.97685,-0.19105,0.0,2023,6,7,16,38,41,533
46.71360,0.02065,0.20650,0.00000,0.03148,0.97417,-0.19264,0.0,2023,6,7,16,38,41,544
46.71370,0.10815,-0.03850,0.00000,0.03184,0.97576,-0.19069,0.0,2023,6,7,16,38,41,555
46.71380,0.00315,0.20650,0.00000,0.03123,0.97649,-0.19105,0.0,2023,6,7,16,38,41,567
46.71390,0.00315,0.24150,0.00000,0.03038,0.97759,-0.19069,0.0,2023,6,7,16,38,41,578
46.71400,-0.11935,0.15400,0.00000,0.03245,0.97563,-0.19044,0.0,2023,6,7,16,38,41,589
46.71410,0.10815,-0.07350,0.00000,0.03099,0.97783,-0.19178,0.0,2023,6,7,16,38,41,600
46.71420,-0.01435,0.11900,0.00000,0.02855,0.97685,-0.19203,0.0,2023,6,7,16,38,41,612
46.71430,0.05565,-0.21350,0.00000,0.03209,0.97576,-0.18886,0.0,2023,6,7,16,38,41,623
46.71440,-0.04935,-0.09100,0.00000,0.03087,0.97563,-0.19081,0.0,2023,6,7,16,38,41,634
46.71450,-0.01435,0.04900,0.00000,0.02952,0.97551,-0.19178,0.0,2023,6,7,16,38,41,645
46.71460,0.03815,0.10150,0.00000,0.03294,0.97600,-0.19178,0.0,2023,6,7,16,38,41,657
46.71470,0.09065,-0.00350,0.00000,0.02989,0.97685,-0.19032,0.0,2023,6,7,16,38,41,668
46.71480,0.17815,-0.02100,0.00000,0.03233,0.97551,-0.19252,0.0,2023,6,7,16,38,41,679
46.71490,0.07315,0.04900,0.00000,0.03026,0.97563,-0.19117,0.0,2023,6,7,16,38,41,690
46.71500,-0.01435,0.11900,0.00000,0.03318,0.97551,-0.19142,0.0,2023,6,7,16,38,41,702
46.71510,-0.10185,0.13650,0.00000,0.03196,0.97600,-0.19252,0.0,2023,6,7,16,38,41,713
46.71520,0.14315,0.08400,0.00000,0.03001,0.97405,-0.19130,0.0,2023,6,7,16,38,41,724
46.71530,0.09065,0.06650,0.00000,0.02916,0.97624,-0.19117,0.0,2023,6,7,16,38,41,735
46.71540,-0.08435,0.03150,0.00000,0.03233,0.97624,-0.19117,0.0,2023,6,7,16,38,41,747
46.71550,-0.13685,0.04900,0.00000,0.03001,0.97759,-0.19313,0.0,2023,6,7,16,38,41,758
46.71560,0.10815,-0.12600,0.00000,0.02965,0.97685,-0.19349,0.0,2023,6,7,16,38,41,769
46.71570,-0.03185,-0.09100,0.00000,0.03245,0.97637,-0.18995,0.0,2023,6,7,16,38,41,780
46.71580,-0.18935,0.10150,0.00000,0.03013,0.97734,-0.19300,0.0,2023,6,7,16,38,41,792
46.71590,-0.10185,0.04900,0.00000,0.02989,0.97698,-0.19032,0.0,2023,6,7,16,38,41,803
46.71600,-0.18935,0.15400,0.00000,0.02928,0.97551,-0.19056,0.0,2023,6,7,16,38,41,814
46.71610,-0.17185,-0.00350,0.00000,0.02904,0.97624,-0.19117,0.0,2023,6,7,16,38,41,825
46.71620,0.12565,-0.03850,0.00000,0.03172,0.97515,-0.19276,0.0,2023,6,7,16,38,41,837
46.71630,0.05565,0.03150,0.00000,0.03001,0.97539,-0.19117,0.0,2023,6,7,16,38,41,848
46.71640,-0.08435,0.06650,0.00000,0.03172,0.97746,-0.18959,0.0,2023,6,7,16,38,41,859
46.71650,-0.03185,-0.17850,0.00000,0.02843,0.97588,-0.19276,0.0,2023,6,7,16,38,41,870
46.71660,-0.03185,0.01400,0.00000,0.03123,0.97746,-0.19105,0.0,2023,6,7,16,38,41,882
46.71670,-0.11935,0.03150,0.00000,0.03013,0.97539,-0.19093,0.0,2023,6,7,16,38,41,893
46.71680,0.05565,0.06650,0.00000,0.02989,0.97600,-0.19386,0.0,2023,6,7,16,38,41,904
46.71690,0.12565,0.18900,0.00000,0.02965,0.97673,-0.19105,0.0,2023,6,7,16,38,41,915
46.71700,0.05565,-0.03850,0.00000,0.03111,0.97600,-0.19130,0.0,2023,6,7,16,38,41,927
46.71710,0.10815,0.01400,0.00000,0.03172,0.97624,-0.19264,0.0,2023,6,7,16,38,41,938
46.71720,0.00315,-0.09100,0.00000,0.03233,0.97698,-0.19154,0.0,2023,6,7,16,38,41,949
46.71730,0.12565,0.01400,0.00000,0.03050,0.97710,-0.19117,0.0,2023,6,7,16,38,41,960
46.71740,-0.10185,-0.00350,0.00000,0.03135,0.97661,-0.19532,0.0,2023,6,7,16,38,41,972
46.71750,0.09065,-0.16100,0.00000,0.03050,0.97661,-0.19483,0.0,2023,6,7,16,38,41,983
46.71760,-0.03185,-0.17850,0.00000,0.03123,0.97624,-0.19471,0.0,2023,6,7,16,38,41,994
46.71770,-0.08435,0.17150,0.00000,0.03135,0.97746,-0.19166,0.0,2023,6,7,16,38,42,5
46.71780,0.19565,-0.19600,0.00000,0.02904,0.97710,-0.19337,0.0,2023,6,7,16,38,42,17
46.71790,0.30065,-0.14350,0.00000,0.03135,0.97490,-0.19361,0.0,2023,6,7,16,38,42,28
46.71800,0.02065,-0.16100,0.00000,0.03184,0.97588,-0.19313,0.0,2023,6,7,16,38,42,39
46.71810,-0.04935,-0.07350,0.00000,0.03135,0.97759,-0.19032,0.0,2023,6,7,16,38,42,50
46.71820,0.02065,-0.03850,0.00000,0.03026,0.97405,-0.19288,0.0,2023,6,7,16,38,42,62
46.71830,0.03815,0.03150,0.00000,0.03257,0.97393,-0.19276,0.0,2023,6,7,16,38,42,73
46.71840,0.12565,-0.14350,0.00000,0.03013,0.97685,-0.19288,0.0,2023,6,7,16,38,42,84
46.71850,-0.01435,-0.00350,0.00000,0.03001,0.97734,-0.19154,0.0,2023,6,7,16,38,42,95
46.71860,-0.04935,0.18900,0.00000,0.03123,0.97612,-0.19325,0.0,2023,6,7,16,38,42,107
46.71870,-0.10185,0.11900,0.00000,0.03172,0.97661,-0.19044,0.0,2023,6,7,16,38,42,118
46.71880,0.02065,-0.00350,0.00000,0.02830,0.97722,-0.19093,0.0,2023,6,7,16,38,42,129
46.71890,0.12565,0.15400,0.00000,0.03257,0.97588,-0.19239,0.0,2023,6,7,16,38,42,140
46.71900,0.03815,-0.03850,0.00000,0.03111,0.97673,-0.19191,0.0,2023,6,7,16,38,42,152
46.71910,-0.22435,0.03150,0.00000,0.03172,0.97807,-0.19252,0.0,2023,6,7,16,38,42,163
46.71920,0.03815,0.01400,0.00000,0.02952,0.97783,-0.19276,0.0,2023,6,7,16,38,42,174
46.71930,-0.18935,0.04900,0.00000,0.03111,0.97490,-0.19056,0.0,2023,6,7,16,38,42,185
46.71940,-0.03185,0.03150,0.00000,0.03160,0.97551,-0.19020,0.0,2023,6,7,16,38,42,197
46.71950,-0.01435,-0.12600,0.00000,0.03318,0.97624,-0.19496,0.0,2023,6,7,16,38,42,208
46.71960,0.17815,-0.17850,0.00000,0.03245,0.97710,-0.19361,0.0,2023,6,7,16,38,42,219
46.71970,0.03815,-0.10850,0.00000,0.03013,0.97722,-0.19239,0.0,2023,6,7,16,38,42,230
46.71980,-0.03185,0.08400,0.00000,0.03111,0.97576,-0.19178,0.0,2023,6,7,16,38,42,242
46.71990,0.02065,-0.02100,0.00000,0.03318,0.97429,-0.19215,0.0,2023,6,7,16,38,42,253
46.72000,0.03815,-0.24850,0.00000,0.03087,0.97722,-0.19227,0.0,2023,6,7,16,38,42,264
46.72010,-0.04935,-0.03850,0.00000,0.03196,0.97624,-0.19130,0.0,2023,6,7,16,38,42,275
46.72020,-0.11935,0.17150,0.00000,0.03099,0.97502,-0.19264,0.0,2023,6,7,16,38,42,287
46.72030,0.14315,0.01400,0.00000,0.03001,0.97515,-0.18861,0.0,2023,6,7,16,38,42,298
46.72040,0.07315,-0.17850,0.00000,0.02965,0.97624,-0.19069,0.0,2023,6,7,16,38,42,309
46.72050,0.23065,0.06650,0.00000,0.03245,0.97490,-0.19276,0.0,2023,6,7,16,38,42,320
46.72060,0.09065,0.04900,0.00000,0.02904,0.97466,-0.19276,0.0,2023,6,7,16,38,42,332
46.72070,0.09065,0.08400,0.00000,0.03184,0.97539,-0.19203,0.0,2023,6,7,16,38,42,343
46.72080,-0.04935,-0.10850,0.00000,0.03038,0.97612,-0.19069,0.0,2023,6,7,16,38,42,354
46.72090,0.02065,0.11900,0.00000,0.03343,0.97698,-0.19337,0.0,2023,6,7,16,38,42,365
46.72100,-0.08435,0.03150,0.00000,0.03001,0.97637,-0.19239,0.0,2023,6,7,16,38,42,377
46.72110,-0.08435,0.22400,0.00000,0.03148,0.97527,-0.19422,0.0,2023,6,7,16,38,42,388
46.72120,0.03815,-0.10850,0.00000,0.03245,0.97600,-0.19325,0.0,2023,6,7,16,38,42,399
46.72130,0.02065,0.04900,0.00000,0.02989,0.97759,-0.19130,0.0,2023,6,7,16,38,42,410
46.72140,-0.06685,0.01400,0.00000,0.03001,0.97356,-0.19203,0.0,2023,6,7,16,38,42,422
46.72150,0.02065,0.24150,0.00000,0.03233,0.97454,-0.19349,0.0,2023,6,7,16,38,42,433
46.72160,0.10815,-0.21350,0.00000,0.03270,0.97722,-0.19191,0.0,2023,6,7,16,38,42,444
46.72170,0.02065,-0.02100,0.00000,0.03270,0.97722,-0.19483,0.0,2023,6,7,16,38,42,455
46.72180,0.14315,-0.12600,0.00000,0.03062,0.97734,-0.19508,0.0,2023,6,7,16,38,42,467
46.72190,-0.01435,-0.03850,0.00000,0.03196,0.97588,-0.19459,0.0,2023,6,7,16,38,42,478
46.72200,-0.03185,0.10150,0.00000,0.02952,0.97637,-0.19447,0.0,2023,6,7,16,38,42,489
46.72210,0.19565,-0.09100,0.00000,0.02977,0.97515,-0.19459,0.0,2023,6,7,16,38,42,500
46.72220,0.12565,-0.03850,0.00000,0.03233,0.97673,-0.19471,0.0,2023,6,7,16,38,42,512
46.72230,-0.03185,-0.03850,0.00000,0.03135,0.97454,-0.19337,0.0,2023,6,7,16,38,42,523
46.72240,-0.03185,0.04900,0.00000,0.02989,0.97624,-0.19276,0.0,2023,6,7,16,38,42,534
46.72250,-0.15435,0.11900,0.00000,0.03062,0.97454,-0.19374,0.0,2023,6,7,16,38,42,545
46.72260,-0.06685,0.01400,0.00000,0.02965,0.97673,-0.19252,0.0,2023,6,7,16,38,42,557
46.72270,-0.03185,0.18900,0.00000,0.03050,0.97759,-0.19557,0.0,2023,6,7,16,38,42,568
46.72280,0.03815,0.15400,0.00000,0.03087,0.97551,-0.19349,0.0,2023,6,7,16,38,42,579
46.72290,0.07315,-0.00350,0.00000,0.03148,0.97783,-0.19191,0.0,2023,6,7,16,38,42,590
46.72300,0.00315,-0.07350,0.00000,0.03099,0.97527,-0.19203,0.0,2023,6,7,16,38,42,602
46.72310,0.14315,-0.03850,0.00000,0.03001,0.97515,-0.19374,0.0,2023,6,7,16,38,42,613
46.72320,-0.15435,-0.12600,0.00000,0.02940,0.97881,-0.19313,0.0,2023,6,7,16,38,42,624
46.72330,0.03815,-0.05600,0.00000,0.03245,0.97478,-0.19252,0.0,2023,6,7,16,38,42,635
46.72340,-0.17185,-0.02100,0.00000,0.03135,0.97698,-0.19227,0.0,2023,6,7,16,38,42,647
46.72350,-0.15435,0.24150,0.00000,0.03038,0.97478,-0.19252,0.0,2023,6,7,16,38,42,658
46.72360,0.03815,-0.12600,0.00000,0.03013,0.97637,-0.19117,0.0,2023,6,7,16,38,42,669
46.72370,0.02065,-0.02100,0.00000,0.03172,0.97588,-0.19325,0.0,2023,6,7,16,38,42,680
46.72380,-0.10185,0.10150,0.00000,0.03099,0.97527,-0.19483,0.0,2023,6,7,16,38,42,692
46.72390,0.00315,0.08400,0.00000,0.03074,0.97746,-0.19081,0.0,2023,6,7,16,38,42,703
46.72400,-0.18935,0.04900,0.00000,0.03270,0.97563,-0.19130,0.0,2023,6,7,16,38,42,714
46.72410,0.03815,0.01400,0.00000,0.03111,0.97600,-0.19361,0.0,2023,6,7,16,38,42,725
46.72420,0.14315,0.13650,0.00000,0.02989,0.97539,-0.19435,0.0,2023,6,7,16,38,42,737
46.72430,-0.06685,0.22400,0.00000,0.03306,0.97466,-0.19374,0.0,2023,6,7,16,38,42,748
46.72440,-0.06685,-0.02100,0.00000,0.03196,0.97698,-0.19325,0.0,2023,6,7,16,38,42,759
46.72450,-0.04935,0.03150,0.00000,0.02977,0.97588,-0.19374,0.0,2023,6,7,16,38,42,770
46.72460,-0.03185,0.03150,0.00000,0.02952,0.97649,-0.19459,0.0,2023,6,7,16,38,42,782
46.72470,-0.04935,-0.09100,0.00000,0.02879,0.97673,-0.19276,0.0,2023,6,7,16,38,42,793
46.72480,-0.03185,0.06650,0.00000,0.03343,0.97454,-0.19264,0.0,2023,6,7,16,38,42,804
46.72490,0.02065,-0.03850,0.00000,0.03245,0.97551,-0.19337,0.0,2023,6,7,16,38,42,815
46.72500,0.14315,-0.14350,0.00000,0.02904,0.97405,-0.19215,0.0,2023,6,7,16,38,42,827
46.72510,0.02065,-0.10850,0.00000,0.03367,0.97637,-0.19410,0.0,2023,6,7,16,38,42,838
46.72520,0.03815,-0.23100,0.00000,0.03270,0.97624,-0.19349,0.0,2023,6,7,16,38,42,849
46.72530,0.00315,0.06650,0.00000,0.03038,0.97673,-0.19325,0.0,2023,6,7,16,38,42,860
46.72540,0.09065,-0.00350,0.00000,0.03099,0.97551,-0.19349,0.0,2023,6,7,16,38,42,872
46.72550,0.12565,0.04900,0.00000,0.03087,0.97563,-0.19337,0.0,2023,6,7,16,38,42,883
46.72560,-0.01435,-0.00350,0.00000,0.03050,0.97624,-0.19191,0.0,2023,6,7,16,38,42,894
46.72570,-0.11935,0.10150,0.00000,0.03074,0.97637,-0.19276,0.0,2023,6,7,16,38,42,905
46.72580,-0.03185,-0.21350,0.00000,0.02952,0.97551,-0.19105,0.0,2023,6,7,16,38,42,917
46.72590,-0.11935,0.06650,0.00000,0.03245,0.97478,-0.19215,0.0,2023,6,7,16,38,42,928
46.72600,-0.08435,0.11900,0.00000,0.03001,0.97478,-0.19203,0.0,2023,6,7,16,38,42,939
46.72610,-0.06685,0.29400,0.00000,0.03270,0.97649,-0.19349,0.0,2023,6,7,16,38,42,950
46.72620,0.03815,-0.14350,0.00000,0.03087,0.97454,-0.19410,0.0,2023,6,7,16,38,42,962
46.72630,-0.03185,0.08400,0.00000,0.02830,0.97734,-0.19337,0.0,2023,6,7,16,38,42,973
46.72640,-0.24185,0.03150,0.00000,0.02965,0.97405,-0.19300,0.0,2023,6,7,16,38,42,984
46.72650,0.09065,-0.10850,0.00000,0.03306,0.97734,-0.19361,0.0,2023,6,7,16,38,42,995
46.72660,0.07315,0.10150,0.00000,0.03294,0.97429,-0.19227,0.0,2023,6,7,16,38,43,7
46.72670,0.02065,-0.17850,0.00000,0.03038,0.97539,-0.19337,0.0,2023,6,7,16,38,43,18
46.72680,-0.08435,0.08400,0.00000,0.03038,0.97661,-0.19227,0.0,2023,6,7,16,38,43,29
46.72690,-0.10185,-0.05600,0.00000,0.03087,0.97551,-0.19252,0.0,2023,6,7,16,38,43,40
46.72700,-0.03185,-0.07350,0.00000,0.03184,0.97722,-0.19227,0.0,2023,6,7,16,38,43,52
46.72710,-0.11935,-0.09100,0.00000,0.03099,0.97624,-0.19471,0.0,2023,6,7,16,38,43,63
46.72720,0.12565,0.03150,0.00000,0.03026,0.97429,-0.19276,0.0,2023,6,7,16,38,43,74
46.72730,-0.13685,-0.02100,0.00000,0.03172,0.97551,-0.19447,0.0,2023,6,7,16,38,43,85
46.72740,-0.11935,0.03150,0.00000,0.03123,0.97332,-0.19166,0.0,2023,6,7,16,38,43,97
46.72750,-0.13685,0.04900,0.00000,0.02928,0.97807,-0.19252,0.0,2023,6,7,16,38,43,108
46.72760,-0.15435,0.10150,0.00000,0.03160,0.97405,-0.19154,0.0,2023,6,7,16,38,43,119
46.72770,0.05565,0.03150,0.00000,0.03050,0.97710,-0.19008,0.0,2023,6,7,16,38,43,130
46.72780,0.03815,0.06650,0.00000,0.02794,0.97441,-0.19483,0.0,2023,6,7,16,38,43,142
46.72790,0.10815,0.01400,0.00000,0.03221,0.97759,-0.19239,0.0,2023,6,7,16,38,43,153
46.72800,-0.18935,-0.12600,0.00000,0.03282,0.97832,-0.19325,0.0,2023,6,7,16,38,43,164
46.72810,0.00315,-0.05600,0.00000,0.03148,0.97637,-0.18934,0.0,2023,6,7,16,38,43,175
46.72820,-0.17185,0.06650,0.00000,0.02891,0.97600,-0.19154,0.0,2023,6,7,16,38,43,187
46.72830,-0.06685,-0.07350,0.00000,0.02977,0.97600,-0.19349,0.0,2023,6,7,16,38,43,198
46.72840,0.12565,-0.10850,0.00000,0.03172,0.97454,-0.19447,0.0,2023,6,7,16,38,43,209
46.72850,-0.01435,0.20650,0.00000,0.02904,0.97539,-0.19264,0.0,2023,6,7,16,38,43,220
46.72860,0.00315,0.18900,0.00000,0.03074,0.97795,-0.19130,0.0,2023,6,7,16,38,43,232
46.72870,0.19565,0.06650,0.00000,0.03001,0.97502,-0.19252,0.0,2023,6,7,16,38,43,243
46.72880,0.03815,-0.12600,0.00000,0.03087,0.97771,-0.19349,0.0,2023,6,7,16,38,43,254
46.72890,0.03815,0.22400,0.00000,0.03074,0.97771,-0.19337,0.0,2023,6,7,16,38,43,265
46.72900,-0.03185,-0.03850,0.00000,0.03270,0.97502,-0.19203,0.0,2023,6,7,16,38,43,277
46.72910,0.16065,0.03150,0.00000,0.03099,0.97502,-0.19056,0.0,2023,6,7,16,38,43,288
46.72920,-0.06685,0.01400,0.00000,0.02879,0.97563,-0.19032,0.0,2023,6,7,16,38,43,299
46.72930,0.03815,0.11900,0.00000,0.03099,0.97710,-0.19056,0.0,2023,6,7,16,38,43,310
46.72940,0.21315,-0.12600,0.00000,0.03026,0.97734,-0.19081,0.0,2023,6,7,16,38,43,322
46.72950,-0.01435,0.01400,0.00000,0.03111,0.97417,-0.18983,0.0,2023,6,7,16,38,43,333
46.72960,-0.01435,0.06650,0.00000,0.03245,0.97856,-0.19105,0.0,2023,6,7,16,38,43,344
46.72970,-0.03185,0.15400,0.00000,0.02989,0.97649,-0.19069,0.0,2023,6,7,16,38,43,355
46.72980,0.23065,-0.05600,0.00000,0.03013,0.97515,-0.19300,0.0,2023,6,7,16,38,43,367
46.72990,-0.01435,-0.07350,0.00000,0.03209,0.97429,-0.19569,0.0,2023,6,7,16,38,43,378
46.73000,-0.01435,-0.12600,0.00000,0.03074,0.97393,-0.19081,0.0,2023,6,7,16,38,43,389
46.73010,0.10815,0.18900,0.00000,0.03062,0.97588,-0.19008,0.0,2023,6,7,16,38,43,400
46.73020,0.00315,0.06650,0.00000,0.03050,0.97588,-0.19337,0.0,2023,6,7,16,38,43,412
46.73030,-0.08435,0.08400,0.00000,0.03026,0.97502,-0.19191,0.0,2023,6,7,16,38,43,423
46.73040,-0.04935,0.03150,0.00000,0.03062,0.97539,-0.19264,0.0,2023,6,7,16,38,43,434
46.73050,0.12565,-0.07350,0.00000,0.03172,0.97393,-0.19130,0.0,2023,6,7,16,38,43,445
46.73060,-0.17185,-0.02100,0.00000,0.03013,0.97649,-0.19032,0.0,2023,6,7,16,38,43,457
46.73070,-0.08435,0.10150,0.00000,0.03282,0.97332,-0.19447,0.0,2023,6,7,16,38,43,468
46.73080,-0.03185,0.13650,0.00000,0.03148,0.97746,-0.19239,0.0,2023,6,7,16,38,43,479
46.73090,0.07315,-0.00350,0.00000,0.03050,0.97441,-0.19093,0.0,2023,6,7,16,38,43,490
46.73100,-0.08435,0.03150,0.00000,0.03196,0.97502,-0.19044,0.0,2023,6,7,16,38,43,502
46.73110,0.05565,0.10150,0.00000,0.03160,0.97490,-0.19288,0.0,2023,6,7,16,38,43,513
46.73120,0.05565,-0.00350,0.00000,0.03026,0.97612,-0.18995,0.0,2023,6,7,16,38,43,524
46.73130,0.02065,0.20650,0.00000,0.02965,0.97502,-0.19288,0.0,2023,6,7,16,38,43,535
46.73140,-0.01435,0.11900,0.00000,0.03074,0.97478,-0.19020,0.0,2023,6,7,16,38,43,547
46.73150,0.07315,-0.00350,0.00000,0.03038,0.97344,-0.19300,0.0,2023,6,7,16,38,43,558
46.73160,-0.04935,-0.12600,0.00000,0.03135,0.97429,-0.19191,0.0,2023,6,7,16,38,43,569
46.73170,0.05565,0.13650,0.00000,0.03062,0.97673,-0.19300,0.0,2023,6,7,16,38,43,580
46.73180,0.09065,0.04900,0.00000,0.03123,0.97588,-0.19142,0.0,2023,6,7,16,38,43,592
46.73190,-0.06685,-0.10850,0.00000,0.02977,0.97576,-0.19105,0.0,2023,6,7,16,38,43,603
46.73200,-0.13685,0.01400,0.00000,0.03038,0.97600,-0.18959,0.0,2023,6,7,16,38,43,614
46.73210,-0.04935,0.25900,0.00000,0.03038,0.97478,-0.19056,0.0,2023,6,7,16,38,43,625
46.73220,0.10815,-0.02100,0.00000,0.03148,0.97576,-0.19203,0.0,2023,6,7,16,38,43,637
46.73230,0.02065,-0.12600,0.00000,0.03209,0.97417,-0.19337,0.0,2023,6,7,16,38,43,648
46.73240,0.14315,0.06650,0.00000,0.03050,0.97551,-0.19142,0.0,2023,6,7,16,38,43,659
46.73250,-0.10185,-0.00350,0.00000,0.03123,0.97417,-0.18971,0.0,2023,6,7,16,38,43,670
46.73260,-0.01435,0.01400,0.00000,0.03135,0.97881,-0.19117,0.0,2023,6,7,16,38,43,682
46.73270,0.02065,-0.16100,0.00000,0.03001,0.97551,-0.19044,0.0,2023,6,7,16,38,43,693
46.73280,-0.10185,-0.02100,0.00000,0.02891,0.97612,-0.19044,0.0,2023,6,7,16,38,43,704
46.73290,0.07315,0.06650,0.00000,0.03111,0.97502,-0.19386,0.0,2023,6,7,16,38,43,715
46.73300,0.16065,0.13650,0.00000,0.02977,0.97649,-0.19398,0.0,2023,6,7,16,38,43,727
46.73310,0.03815,-0.05600,0.00000,0.02952,0.97820,-0.19166,0.0,2023,6,7,16,38,43,738
46.73320,0.07315,0.22400,0.00000,0.03001,0.97441,-0.19154,0.0,2023,6,7,16,38,43,749
46.73330,-0.17185,0.11900,0.00000,0.03074,0.97405,-0.19288,0.0,2023,6,7,16,38,43,760
46.73340,-0.01435,-0.03850,0.00000,0.02904,0.97466,-0.19337,0.0,2023,6,7,16,38,43,772
46.73350,-0.18935,0.10150,0.00000,0.02916,0.97637,-0.19215,0.0,2023,6,7,16,38,43,783
46.73360,0.14315,-0.02100,0.00000,0.02806,0.97710,-0.19069,0.0,2023,6,7,16,38,43,794
46.73370,-0.11935,0.06650,0.00000,0.03074,0.97576,-0.19264,0.0,2023,6,7,16,38,43,805
46.73380,-0.04935,-0.00350,0.00000,0.03050,0.97466,-0.19313,0.0,2023,6,7,16,38,43,817
46.73390,-0.04935,-0.07350,0.00000,0.03135,0.97698,-0.19483,0.0,2023,6,7,16,38,43,828
46.73400,0.19565,-0.00350,0.00000,0.03367,0.97539,-0.19044,0.0,2023,6,7,16,38,43,839
46.73410,-0.22435,0.08400,0.00000,0.03184,0.97685,-0.19166,0.0,2023,6,7,16,38,43,850
46.73420,0.02065,-0.10850,0.00000,0.03001,0.97502,-0.19178,0.0,2023,6,7,16,38,43,862
46.73430,-0.01435,-0.10850,0.00000,0.03074,0.97454,-0.18971,0.0,2023,6,7,16,38,43,873
46.73440,0.09065,-0.21350,0.00000,0.02891,0.97588,-0.19203,0.0,2023,6,7,16,38,43,884
46.73450,-0.06685,0.01400,0.00000,0.03111,0.97637,-0.19508,0.0,2023,6,7,16,38,43,895
46.73460,-0.11935,0.01400,0.00000,0.02940,0.97795,-0.19130,0.0,2023,6,7,16,38,43,907
46.73470,-0.13685,-0.07350,0.00000,0.03148,0.97698,-0.18886,0.0,2023,6,7,16,38,43,918
46.73480,-0.06685,0.03150,0.00000,0.03050,0.97649,-0.19142,0.0,2023,6,7,16,38,43,929
46.73490,0.02065,-0.05600,0.00000,0.02940,0.97600,-0.19203,0.0,2023,6,7,16,38,43,940
46.73500,0.02065,0.06650,0.00000,0.02965,0.97429,-0.19020,0.0,2023,6,7,16,38,43,952
46.73510,-0.01435,-0.07350,0.00000,0.03026,0.97637,-0.19337,0.0,2023,6,7,16,38,43,963
46.73520,-0.17185,0.11900,0.00000,0.02977,0.97637,-0.19032,0.0,2023,6,7,16,38,43,974
46.73530,0.12565,0.04900,0.00000,0.03099,0.97576,-0.19069,0.0,2023,6,7,16,38,43,985
46.73540,-0.04935,0.13650,0.00000,0.03038,0.97661,-0.19227,0.0,2023,6,7,16,38,43,997
46.73550,0.03815,-0.07350,0.00000,0.02940,0.97527,-0.19154,0.0,2023,6,7,16,38,43,8
46.73560,0.10815,-0.00350,0.00000,0.03294,0.97539,-0.19044,0.0,2023,6,7,16,38,44,9
46.73570,0.12565,-0.14350,0.00000,0.03062,0.97441,-0.19008,0.0,2023,6,7,16,38,44,20
46.73580,0.10815,-0.16100,0.00000,0.03257,0.97478,-0.19203,0.0,2023,6,7,16,38,44,32
46.73590,0.00315,-0.10850,0.00000,0.03062,0.97624,-0.19069,0.0,2023,6,7,16,38,44,43
46.73600,0.05565,0.01400,0.00000,0.02818,0.97466,-0.19203,0.0,2023,6,7,16,38,44,54
46.73610,0.14315,0.04900,0.00000,0.03062,0.97734,-0.19154,0.0,2023,6,7,16,38,44,65
46.73620,-0.11935,0.10150,0.00000,0.03331,0.97441,-0.19105,0.0,2023,6,7,16,38,44,77
46.73630,-0.04935,-0.12600,0.00000,0.03135,0.97539,-0.19154,0.0,2023,6,7,16,38,44,88
46.73640,0.00315,0.01400,0.00000,0.03111,0.97441,-0.19239,0.0,2023,6,7,16,38,44,99
46.73650,0.05565,0.06650,0.00000,0.03001,0.97539,-0.19142,0.0,2023,6,7,16,38,44,110
46.73660,-0.03185,-0.17850,0.00000,0.03050,0.97649,-0.19008,0.0,2023,6,7,16,38,44,122
46.73670,0.00315,0.06650,0.00000,0.03099,0.97478,-0.19252,0.0,2023,6,7,16,38,44,133
46.73680,0.02065,-0.03850,0.00000,0.03099,0.97454,-0.19154,0.0,2023,6,7,16,38,44,144
46.73690,0.07315,0.25900,0.00000,0.02928,0.97612,-0.19276,0.0,2023,6,7,16,38,44,155
46.73700,0.19565,-0.02100,0.00000,0.03282,0.97490,-0.19166,0.0,2023,6,7,16,38,44,167
46.73710,0.05565,0.08400,0.00000,0.03074,0.97429,-0.19117,0.0,2023,6,7,16,38,44,178
46.73720,-0.11935,0.13650,0.00000,0.02977,0.97600,-0.19008,0.0,2023,6,7,16,38,44,189
46.73730,0.03815,0.08400,0.00000,0.03343,0.97515,-0.19337,0.0,2023,6,7,16,38,44,200
46.73740,0.16065,-0.30100,0.00000,0.03135,0.97515,-0.19215,0.0,2023,6,7,16,38,44,212
46.73750,0.10815,0.08400,0.00000,0.03148,0.97502,-0.18959,0.0,2023,6,7,16,38,44,223
46.73760,0.09065,-0.07350,0.00000,0.03050,0.97539,-0.19032,0.0,2023,6,7,16,38,44,234
46.73770,0.03815,-0.10850,0.00000,0.03209,0.97624,-0.18910,0.0,2023,6,7,16,38,44,245
46.73780,0.03815,0.01400,0.00000,0.03111,0.97502,-0.19166,0.0,2023,6,7,16,38,44,257
46.73790,0.23065,-0.05600,0.00000,0.02989,0.97563,-0.19117,0.0,2023,6,7,16,38,44,268
46.73800,0.00315,0.08400,0.00000,0.03257,0.97637,-0.19056,0.0,2023,6,7,16,38,44,279
46.73810,-0.06685,-0.02100,0.00000,0.03001,0.97698,-0.19191,0.0,2023,6,7,16,38,44,290
46.73820,-0.01435,-0.07350,0.00000,0.03062,0.97502,-0.18934,0.0,2023,6,7,16,38,44,302
46.73830,0.05565,0.06650,0.00000,0.02977,0.97746,-0.19142,0.0,2023,6,7,16,38,44,313
46.73840,0.03815,0.04900,0.00000,0.03160,0.97515,-0.19105,0.0,2023,6,7,16,38,44,324
46.73850,0.07315,-0.12600,0.00000,0.03087,0.97661,-0.19032,0.0,2023,6,7,16,38,44,335
46.73860,0.02065,-0.07350,0.00000,0.03148,0.97466,-0.19142,0.0,2023,6,7,16,38,44,347
46.73870,0.09065,-0.07350,0.00000,0.02965,0.97685,-0.18983,0.0,2023,6,7,16,38,44,358
46.73880,0.03815,-0.03850,0.00000,0.03245,0.97844,-0.19178,0.0,2023,6,7,16,38,44,369
46.73890,-0.10185,0.04900,0.00000,0.02928,0.97563,-0.19044,0.0,2023,6,7,16,38,44,380
46.73900,-0.06685,-0.10850,0.00000,0.03013,0.97344,-0.19300,0.0,2023,6,7,16,38,44,392
46.73910,0.16065,-0.12600,0.00000,0.02830,0.97637,-0.19093,0.0,2023,6,7,16,38,44,403
46.73920,0.05565,0.24150,0.00000,0.03209,0.97478,-0.19081,0.0,2023,6,7,16,38,44,414
46.73930,0.00315,-0.00350,0.00000,0.03074,0.97405,-0.18995,0.0,2023,6,7,16,38,44,425
46.73940,-0.08435,-0.12600,0.00000,0.03196,0.97527,-0.19154,0.0,2023,6,7,16,38,44,437
46.73950,0.14315,-0.37100,0.00000,0.02965,0.97368,-0.18971,0.0,2023,6,7,16,38,44,448
46.73960,0.09065,-0.23100,0.00000,0.02989,0.97600,-0.19130,0.0,2023,6,7,16,38,44,459
46.73970,-0.03185,0.01400,0.00000,0.02977,0.97685,-0.19191,0.0,2023,6,7,16,38,44,470
46.73980,-0.06685,0.24150,0.00000,0.03209,0.97466,-0.18971,0.0,2023,6,7,16,38,44,482
46.73990,-0.01435,-0.10850,0.00000,0.03111,0.97454,-0.19178,0.0,2023,6,7,16,38,44,493
46.74000,0.16065,0.06650,0.00000,0.02989,0.97661,-0.18861,0.0,2023,6,7,16,38,44,504
46.74010,-0.03185,-0.16100,0.00000,0.03050,0.97600,-0.19093,0.0,2023,6,7,16,38,44,515
46.74020,-0.04935,0.18900,0.00000,0.02989,0.97881,-0.18861,0.0,2023,6,7,16,38,44,527
46.74030,-0.01435,-0.07350,0.00000,0.03050,0.97600,-0.18947,0.0,2023,6,7,16,38,44,538
46.74040,0.00315,-0.00350,0.00000,0.02940,0.97441,-0.19178,0.0,2023,6,7,16,38,44,549
46.74050,-0.10185,0.04900,0.00000,0.02989,0.97685,-0.18910,0.0,2023,6,7,16,38,44,560
46.74060,0.05565,0.06650,0.00000,0.02989,0.97576,-0.18861,0.0,2023,6,7,16,38,44,572
46.74070,0.02065,0.04900,0.00000,0.03001,0.97551,-0.19130,0.0,2023,6,7,16,38,44,583
46.74080,-0.08435,0.01400,0.00000,0.02940,0.97600,-0.18971,0.0,2023,6,7,16,38,44,594
46.74090,0.00315,-0.03850,0.00000,0.02965,0.97734,-0.18971,0.0,2023,6,7,16,38,44,605
46.74100,-0.03185,0.10150,0.00000,0.02891,0.97551,-0.18995,0.0,2023,6,7,16,38,44,617
46.74110,0.09065,-0.07350,0.00000,0.03245,0.97527,-0.18959,0.0,2023,6,7,16,38,44,628
46.74120,0.03815,0.03150,0.00000,0.02952,0.97466,-0.19288,0.0,2023,6,7,16,38,44,639
46.74130,0.09065,-0.12600,0.00000,0.02940,0.97734,-0.19191,0.0,2023,6,7,16,38,44,650
46.74140,0.07315,0.08400,0.00000,0.03099,0.97551,-0.19081,0.0,2023,6,7,16,38,44,662
46.74150,-0.03185,0.15400,0.00000,0.03050,0.97466,-0.18922,0.0,2023,6,7,16,38,44,673
46.74160,-0.10185,0.06650,0.00000,0.03135,0.97612,-0.19105,0.0,2023,6,7,16,38,44,684
46.74170,0.10815,-0.21350,0.00000,0.02867,0.97515,-0.19142,0.0,2023,6,7,16,38,44,695
46.74180,0.02065,-0.14350,0.00000,0.03148,0.97722,-0.19105,0.0,2023,6,7,16,38,44,707
46.74190,-0.06685,-0.07350,0.00000,0.03062,0.97759,-0.19032,0.0,2023,6,7,16,38,44,718
46.74200,0.07315,-0.00350,0.00000,0.03050,0.97588,-0.18995,0.0,2023,6,7,16,38,44,729
46.74210,-0.11935,0.08400,0.00000,0.03026,0.97734,-0.19276,0.0,2023,6,7,16,38,44,740
46.74220,-0.06685,0.17150,0.00000,0.03074,0.97527,-0.19215,0.0,2023,6,7,16,38,44,752
46.74230,0.07315,-0.12600,0.00000,0.03087,0.97417,-0.19288,0.0,2023,6,7,16,38,44,763
46.74240,-0.20685,0.03150,0.00000,0.03062,0.97698,-0.19264,0.0,2023,6,7,16,38,44,774
46.74250,0.07315,-0.07350,0.00000,0.02916,0.97551,-0.19142,0.0,2023,6,7,16,38,44,785
46.74260,0.00315,0.06650,0.00000,0.03001,0.97502,-0.19191,0.0,2023,6,7,16,38,44,797
46.74270,-0.06685,-0.07350,0.00000,0.03123,0.97588,-0.19191,0.0,2023,6,7,16,38,44,808
46.74280,0.10815,-0.14350,0.00000,0.03026,0.97722,-0.19313,0.0,2023,6,7,16,38,44,819
46.74290,0.07315,-0.09100,0.00000,0.03379,0.97490,-0.19386,0.0,2023,6,7,16,38,44,830
46.74300,0.00315,-0.14350,0.00000,0.03160,0.97844,-0.19203,0.0,2023,6,7,16,38,44,842
46.74310,-0.03185,0.03150,0.00000,0.03135,0.97637,-0.19154,0.0,2023,6,7,16,38,44,853
46.74320,0.09065,-0.07350,0.00000,0.03233,0.97563,-0.19276,0.0,2023,6,7,16,38,44,864
46.74330,0.07315,0.10150,0.00000,0.03013,0.97649,-0.19300,0.0,2023,6,7,16,38,44,875
46.74340,-0.01435,-0.12600,0.00000,0.03196,0.97685,-0.19313,0.0,2023,6,7,16,38,44,887
46.74350,0.03815,-0.17850,0.00000,0.03026,0.97466,-0.19093,0.0,2023,6,7,16,38,44,898
46.74360,-0.03185,0.15400,0.00000,0.03001,0.97600,-0.19447,0.0,2023,6,7,16,38,44,909
46.74370,0.05565,0.01400,0.00000,0.03148,0.97649,-0.19215,0.0,2023,6,7,16,38,44,920
46.74380,0.14315,0.04900,0.00000,0.03172,0.97539,-0.19288,0.0,2023,6,7,16,38,44,932
46.74390,0.12565,0.03150,0.00000,0.03172,0.97563,-0.19227,0.0,2023,6,7,16,38,44,943
46.74400,0.00315,0.03150,0.00000,0.03038,0.97624,-0.19142,0.0,2023,6,7,16,38,44,954
46.74410,-0.10185,0.18900,0.00000,0.03331,0.97441,-0.19117,0.0,2023,6,7,16,38,44,965
46.74420,-0.11935,0.10150,0.00000,0.03038,0.97551,-0.19203,0.0,2023,6,7,16,38,44,977
46.74430,0.17815,0.01400,0.00000,0.03026,0.97685,-0.19081,0.0,2023,6,7,16,38,44,988
46.74440,0.07315,-0.02100,0.00000,0.02940,0.97600,-0.19239,0.0,2023,6,7,16,38,44,999
46.74450,0.19565,-0.14350,0.00000,0.03135,0.97698,-0.19069,0.0,2023,6,7,16,38,44,10
46.74460,-0.13685,-0.10850,0.00000,0.02940,0.97539,-0.19361,0.0,2023,6,7,16,38,44,22
46.74470,-0.03185,0.18900,0.00000,0.02867,0.97624,-0.19215,0.0,2023,6,7,16,38,45,3
46.74480,0.19565,-0.07350,0.00000,0.03050,0.97478,-0.19191,0.0,2023,6,7,16,38,45,14
46.74490,-0.13685,0.13650,0.00000,0.02977,0.97563,-0.18971,0.0,2023,6,7,16,38,45,25
46.74500,0.10815,-0.16100,0.00000,0.03270,0.97502,-0.19264,0.0,2023,6,7,16,38,45,37
46.74510,-0.06685,0.04900,0.00000,0.03184,0.97698,-0.19105,0.0,2023,6,7,16,38,45,48
46.74520,0.14315,-0.24850,0.00000,0.03306,0.97576,-0.19264,0.0,2023,6,7,16,38,45,59
46.74530,0.10815,-0.03850,0.00000,0.03111,0.97710,-0.19020,0.0,2023,6,7,16,38,45,70
46.74540,0.05565,-0.00350,0.00000,0.03196,0.97588,-0.19105,0.0,2023,6,7,16,38,45,82
46.74550,-0.08435,0.08400,0.00000,0.03050,0.97271,-0.19166,0.0,2023,6,7,16,38,45,93
46.74560,-0.11935,0.22400,0.00000,0.03050,0.97856,-0.18873,0.0,2023,6,7,16,38,45,104
46.74570,-0.01435,-0.07350,0.00000,0.03062,0.97576,-0.19032,0.0,2023,6,7,16,38,45,115
46.74580,0.00315,0.01400,0.00000,0.03135,0.97673,-0.19044,0.0,2023,6,7,16,38,45,127
46.74590,-0.01435,0.06650,0.00000,0.03233,0.97551,-0.19313,0.0,2023,6,7,16,38,45,138
46.74600,-0.01435,0.01400,0.00000,0.03038,0.97649,-0.19044,0.0,2023,6,7,16,38,45,149
46.74610,0.02065,0.17150,0.00000,0.03013,0.97685,-0.19130,0.0,2023,6,7,16,38,45,160
46.74620,-0.13685,0.15400,0.00000,0.03074,0.97624,-0.19191,0.0,2023,6,7,16,38,45,172
46.74630,0.05565,-0.00350,0.00000,0.02916,0.97515,-0.19105,0.0,2023,6,7,16,38,45,183
46.74640,0.09065,-0.10850,0.00000,0.03355,0.97490,-0.18995,0.0,2023,6,7,16,38,45,194
46.74650,0.00315,-0.12600,0.00000,0.03282,0.97539,-0.19142,0.0,2023,6,7,16,38,45,205
46.74660,0.07315,-0.16100,0.00000,0.03074,0.97893,-0.19166,0.0,2023,6,7,16,38,45,217
46.74670,-0.04935,0.03150,0.00000,0.03013,0.97551,-0.19191,0.0,2023,6,7,16,38,45,228
46.74680,-0.06685,-0.00350,0.00000,0.03148,0.97661,-0.19056,0.0,2023,6,7,16,38,45,239
46.74690,-0.04935,-0.12600,0.00000,0.03233,0.97271,-0.19264,0.0,2023,6,7,16,38,45,250
#2023/06/07 16:38:45
