#2023/06/07 15:45:18
time,wx,wy,wz,ax,ay,az,yy,MM,dd,hh,mm,ss,ms
44.45900,-0.03220,-0.23923,0.00000,0.02879,0.97612,-0.18995,0.0,2023,6,7,15,45,18,268
44.45910,0.00280,-0.08173,0.00000,0.02940,0.97539,-0.19105,0.0,2023,6,7,15,45,18,278
44.45920,0.09030,-0.01173,0.00000,0.02989,0.97600,-0.19288,0.0,2023,6,7,15,45,18,288
44.45930,-0.06720,0.07577,0.00000,0.02989,0.97417,-0.19288,0.0,2023,6,7,15,45,18,298
44.45940,0.03780,-0.04673,0.00000,0.02989,0.97441,-0.19093,0.0,2023,6,7,15,45,18,308
44.45950,-0.10220,0.12827,0.00000,0.02928,0.97466,-0.19008,0.0,2023,6,7,15,45,18,318
44.45960,-0.03220,-0.01173,0.00000,0.02916,0.97490,-0.19227,0.0,2023,6,7,15,45,18,328
44.45970,0.05530,0.09327,0.00000,0.03013,0.97624,-0.19422,0.0,2023,6,7,15,45,18,338
44.45980,0.02030,0.00577,0.00000,0.03038,0.97380,-0.19239,0.0,2023,6,7,15,45,18,348
44.45990,-0.06720,-0.02923,0.00000,0.02952,0.97539,-0.19215,0.0,2023,6,7,15,45,18,358
44.46000,0.03780,-0.06423,0.00000,0.02904,0.97515,-0.19239,0.0,2023,6,7,15,45,18,368
44.46010,-0.15470,0.21577,0.00000,0.03099,0.97710,-0.19227,0.0,2023,6,7,15,45,18,378
44.46020,-0.03220,-0.01173,0.00000,0.03160,0.97612,-0.19166,0.0,2023,6,7,15,45,18,388
44.46030,-0.20720,0.00577,0.00000,0.02989,0.97637,-0.19337,0.0,2023,6,7,15,45,18,398
44.46040,-0.03220,-0.02923,0.00000,0.03111,0.97539,-0.19069,0.0,2023,6,7,15,45,18,408
44.46050,0.03780,-0.15173,0.00000,0.03001,0.97563,-0.19142,0.0,2023,6,7,15,45,18,418
44.46060,-0.03220,-0.02923,0.00000,0.03050,0.97527,-0.19178,0.0,2023,6,7,15,45,18,428
44.46070,0.03780,-0.01173,0.00000,0.03074,0.97661,-0.19154,0.0,2023,6,7,15,45,18,438
44.46080,0.05530,-0.15173,0.00000,0.03050,0.97429,-0.19349,0.0,2023,6,7,15,45,18,448
44.46090,0.16030,-0.09923,0.00000,0.02806,0.97466,-0.19105,0.0,2023,6,7,15,45,18,458
44.46100,0.09030,-0.16923,0.00000,0.03123,0.97612,-0.19093,0.0,2023,6,7,15,45,18,468
44.46110,-0.20720,0.12827,0.00000,0.02843,0.97649,-0.19288,0.0,2023,6,7,15,45,18,478
44.46120,0.09030,0.09327,0.00000,0.02782,0.97527,-0.19142,0.0,2023,6,7,15,45,18,488
44.46130,-0.01470,0.04077,0.00000,0.03099,0.97551,-0.19264,0.0,2023,6,7,15,45,18,498
44.46140,0.02030,-0.01173,0.00000,0.03184,0.97649,-0.19288,0.0,2023,6,7,15,45,18,508
44.46150,0.03780,0.12827,0.00000,0.03026,0.97576,-0.19227,0.0,2023,6,7,15,45,18,518
44.46160,0.07280,0.00577,0.00000,0.03050,0.97600,-0.19239,0.0,2023,6,7,15,45,18,528
44.46170,0.00280,-0.01173,0.00000,0.03050,0.97673,-0.19215,0.0,2023,6,7,15,45,18,538
44.46180,0.00280,-0.01173,0.00000,0.02940,0.97380,-0.19313,0.0,2023,6,7,15,45,18,548
44.46190,0.17780,0.09327,0.00000,0.03050,0.97734,-0.19056,0.0,2023,6,7,15,45,18,558
44.46200,-0.04970,0.07577,0.00000,0.03172,0.97734,-0.19264,0.0,2023,6,7,15,45,18,568
44.46210,0.00280,-0.18673,0.00000,0.03001,0.97539,-0.19130,0.0,2023,6,7,15,45,18,578
44.46220,-0.03220,0.21577,0.00000,0.02989,0.97576,-0.19361,0.0,2023,6,7,15,45,18,588
44.46230,-0.06720,-0.01173,0.00000,0.02818,0.97502,-0.19178,0.0,2023,6,7,15,45,18,598
44.46240,0.09030,-0.01173,0.00000,0.03062,0.97624,-0.19142,0.0,2023,6,7,15,45,18,608
44.46250,-0.20720,-0.01173,0.00000,0.02989,0.97527,-0.18971,0.0,2023,6,7,15,45,18,618
44.46260,-0.08470,0.02327,0.00000,0.02989,0.97734,-0.19325,0.0,2023,6,7,15,45,18,628
44.46270,-0.04970,0.18077,0.00000,0.03196,0.97502,-0.19300,0.0,2023,6,7,15,45,18,638
44.46280,0.05530,0.11077,0.00000,0.02977,0.97649,-0.19105,0.0,2023,6,7,15,45,18,648
44.46290,-0.03220,0.07577,0.00000,0.03001,0.97588,-0.19093,0.0,2023,6,7,15,45,18,658
44.46300,0.12530,-0.02923,0.00000,0.03257,0.97502,-0.19056,0.0,2023,6,7,15,45,18,668
44.46310,-0.04970,0.09327,0.00000,0.02940,0.97454,-0.19215,0.0,2023,6,7,15,45,18,678
44.46320,-0.01470,-0.13423,0.00000,0.02806,0.97429,-0.19276,0.0,2023,6,7,15,45,18,688
44.46330,0.00280,0.00577,0.00000,0.03026,0.97710,-0.19178,0.0,2023,6,7,15,45,18,698
44.46340,-0.11970,0.18077,0.00000,0.02940,0.97856,-0.19056,0.0,2023,6,7,15,45,18,708
44.46350,-0.03220,0.19827,0.00000,0.03209,0.97502,-0.19215,0.0,2023,6,7,15,45,18,718
44.46360,0.05530,-0.15173,0.00000,0.03099,0.97527,-0.18873,0.0,2023,6,7,15,45,18,728
44.46370,-0.06720,-0.09923,0.00000,0.02745,0.97466,-0.19166,0.0,2023,6,7,15,45,18,738
44.46380,0.02030,-0.02923,0.00000,0.02855,0.97624,-0.19300,0.0,2023,6,7,15,45,18,748
44.46390,0.07280,-0.02923,0.00000,0.02916,0.97722,-0.19337,0.0,2023,6,7,15,45,18,758
44.46400,-0.08470,0.12827,0.00000,0.02904,0.97771,-0.18971,0.0,2023,6,7,15,45,18,768
44.46410,-0.18970,0.14577,0.00000,0.03001,0.97637,-0.18825,0.0,2023,6,7,15,45,18,778
44.46420,-0.04970,0.02327,0.00000,0.03074,0.97624,-0.19117,0.0,2023,6,7,15,45,18,788
44.46430,-0.11970,0.11077,0.00000,0.03038,0.97698,-0.19069,0.0,2023,6,7,15,45,18,798
44.46440,0.02030,-0.09923,0.00000,0.02916,0.97490,-0.18983,0.0,2023,6,7,15,45,18,808
44.46450,0.05530,0.02327,0.00000,0.03148,0.97466,-0.19398,0.0,2023,6,7,15,45,18,818
44.46460,0.00280,0.12827,0.00000,0.03196,0.97454,-0.19166,0.0,2023,6,7,15,45,18,828
44.46470,-0.08470,0.16327,0.00000,0.03013,0.97429,-0.19142,0.0,2023,6,7,15,45,18,838
44.46480,-0.04970,-0.02923,0.00000,0.03001,0.97539,-0.19264,0.0,2023,6,7,15,45,18,848
44.46490,0.09030,0.07577,0.00000,0.03062,0.97771,-0.19349,0.0,2023,6,7,15,45,18,858
44.46500,0.09030,0.02327,0.00000,0.03013,0.97466,-0.19142,0.0,2023,6,7,15,45,18,868
44.46510,-0.06720,-0.04673,0.00000,0.03099,0.97576,-0.18983,0.0,2023,6,7,15,45,18,878
44.46520,0.03780,0.05827,0.00000,0.02928,0.97856,-0.19105,0.0,2023,6,7,15,45,18,888
44.46530,0.07280,-0.01173,0.00000,0.03026,0.97820,-0.19117,0.0,2023,6,7,15,45,18,898
44.46540,-0.01470,-0.04673,0.00000,0.03099,0.97563,-0.18886,0.0,2023,6,7,15,45,18,908
44.46550,0.05530,-0.06423,0.00000,0.03087,0.97332,-0.19130,0.0,2023,6,7,15,45,18,918
44.46560,0.09030,-0.06423,0.00000,0.02794,0.97441,-0.19044,0.0,2023,6,7,15,45,18,928
44.46570,0.10780,0.11077,0.00000,0.03038,0.97356,-0.19044,0.0,2023,6,7,15,45,18,938
44.46580,-0.20720,0.04077,0.00000,0.03013,0.97563,-0.19044,0.0,2023,6,7,15,45,18,948
44.46590,-0.01470,-0.08173,0.00000,0.03074,0.97673,-0.19264,0.0,2023,6,7,15,45,18,958
44.46600,-0.03220,0.04077,0.00000,0.02904,0.97441,-0.19227,0.0,2023,6,7,15,45,18,968
44.46610,-0.06720,0.12827,0.00000,0.03087,0.97563,-0.19093,0.0,2023,6,7,15,45,18,978
44.46620,-0.01470,0.07577,0.00000,0.03062,0.97685,-0.18959,0.0,2023,6,7,15,45,18,988
44.46630,0.14280,-0.08173,0.00000,0.02647,0.97588,-0.19435,0.0,2023,6,7,15,45,18,998
44.46640,0.09030,0.09327,0.00000,0.02916,0.97576,-0.19154,0.0,2023,6,7,15,45,18,8
44.46650,-0.11970,-0.15173,0.00000,0.03074,0.97344,-0.19044,0.0,2023,6,7,15,45,18,18
44.46660,0.12530,-0.20423,0.00000,0.03013,0.97515,-0.19117,0.0,2023,6,7,15,45,18,28
44.46670,0.03780,0.09327,0.00000,0.03026,0.97600,-0.19349,0.0,2023,6,7,15,45,18,38
44.46680,-0.01470,0.11077,0.00000,0.03074,0.97698,-0.19276,0.0,2023,6,7,15,45,18,48
44.46690,-0.10220,0.11077,0.00000,0.02891,0.97588,-0.18983,0.0,2023,6,7,15,45,18,58
44.46700,0.03780,-0.09923,0.00000,0.03050,0.97502,-0.18959,0.0,2023,6,7,15,45,18,68
44.46710,0.21280,-0.16923,0.00000,0.03172,0.97588,-0.19178,0.0,2023,6,7,15,45,18,78
44.46720,-0.17220,0.16327,0.00000,0.02745,0.97563,-0.19191,0.0,2023,6,7,15,45,18,88
44.46730,-0.18970,0.14577,0.00000,0.03062,0.97490,-0.19105,0.0,2023,6,7,15,45,18,98
44.46740,-0.11970,0.05827,0.00000,0.02867,0.97539,-0.19130,0.0,2023,6,7,15,45,18,108
44.46750,-0.03220,-0.09923,0.00000,0.02989,0.97624,-0.19313,0.0,2023,6,7,15,45,18,118
44.46760,0.12530,-0.01173,0.00000,0.03001,0.97588,-0.18703,0.0,2023,6,7,15,45,18,128
44.46770,0.09030,-0.06423,0.00000,0.03209,0.97600,-0.19166,0.0,2023,6,7,15,45,18,138
44.46780,0.03780,-0.01173,0.00000,0.03123,0.97283,-0.19252,0.0,2023,6,7,15,45,18,148
44.46790,0.12530,-0.04673,0.00000,0.02940,0.97673,-0.19227,0.0,2023,6,7,15,45,18,158
44.46800,-0.01470,0.04077,0.00000,0.02782,0.97380,-0.18995,0.0,2023,6,7,15,45,18,168
44.46810,0.05530,0.02327,0.00000,0.02904,0.97771,-0.19117,0.0,2023,6,7,15,45,18,178
44.46820,0.02030,-0.01173,0.00000,0.03026,0.97344,-0.19264,0.0,2023,6,7,15,45,18,188
44.46830,-0.08470,0.07577,0.00000,0.03172,0.97563,-0.19325,0.0,2023,6,7,15,45,18,198
44.46840,-0.03220,-0.22173,0.00000,0.03038,0.97624,-0.19081,0.0,2023,6,7,15,45,18,208
44.46850,-0.13720,-0.20423,0.00000,0.03087,0.97588,-0.19178,0.0,2023,6,7,15,45,18,218
44.46860,0.09030,0.02327,0.00000,0.02769,0.97820,-0.19069,0.0,2023,6,7,15,45,18,228
44.46870,0.09030,-0.27423,0.00000,0.03038,0.97868,-0.19020,0.0,2023,6,7,15,45,18,238
44.46880,-0.15470,0.21577,0.00000,0.03148,0.97405,-0.19069,0.0,2023,6,7,15,45,18,248
44.46890,-0.10220,-0.01173,0.00000,0.02965,0.97515,-0.19154,0.0,2023,6,7,15,45,18,258
44.46900,0.14280,0.14577,0.00000,0.03038,0.97478,-0.19178,0.0,2023,6,7,15,45,18,268
44.46910,0.02030,-0.04673,0.00000,0.02977,0.97429,-0.19117,0.0,2023,6,7,15,45,18,278
44.46920,-0.04970,0.11077,0.00000,0.03160,0.97637,-0.19422,0.0,2023,6,7,15,45,18,288
44.46930,-0.03220,0.09327,0.00000,0.03099,0.97637,-0.19276,0.0,2023,6,7,15,45,18,298
44.46940,0.03780,0.05827,0.00000,0.03074,0.97649,-0.19081,0.0,2023,6,7,15,45,18,308
44.46950,-0.22470,0.12827,0.00000,0.02830,0.97746,-0.19313,0.0,2023,6,7,15,45,18,318
44.46960,-0.24220,0.14577,0.00000,0.03013,0.97417,-0.19032,0.0,2023,6,7,15,45,18,328
44.46970,-0.04970,-0.06423,0.00000,0.03062,0.97637,-0.19203,0.0,2023,6,7,15,45,18,338
44.46980,0.21280,-0.08173,0.00000,0.02818,0.97466,-0.19191,0.0,2023,6,7,15,45,18,348
44.46990,0.12530,0.02327,0.00000,0.03172,0.97405,-0.19142,0.0,2023,6,7,15,45,18,358
44.47000,-0.08470,0.07577,0.00000,0.03184,0.97722,-0.19410,0.0,2023,6,7,15,45,18,368
44.47010,-0.20720,-0.11673,0.00000,0.03026,0.97746,-0.19032,0.0,2023,6,7,15,45,18,378
44.47020,-0.06720,-0.02923,0.00000,0.03026,0.97783,-0.19130,0.0,2023,6,7,15,45,18,388
44.47030,-0.13720,0.05827,0.00000,0.02965,0.97490,-0.19178,0.0,2023,6,7,15,45,18,398
44.47040,-0.10220,-0.08173,0.00000,0.03074,0.97698,-0.19105,0.0,2023,6,7,15,45,18,408
44.47050,-0.01470,0.04077,0.00000,0.02867,0.97478,-0.19056,0.0,2023,6,7,15,45,18,418
44.47060,0.07280,-0.13423,0.00000,0.03123,0.97527,-0.19288,0.0,2023,6,7,15,45,18,428
44.47070,-0.08470,0.09327,0.00000,0.03221,0.97466,-0.19300,0.0,2023,6,7,15,45,18,438
44.47080,0.05530,0.00577,0.00000,0.03111,0.97624,-0.18886,0.0,2023,6,7,15,45,18,448
44.47090,0.02030,-0.04673,0.00000,0.03013,0.97380,-0.19142,0.0,2023,6,7,15,45,18,458
44.47100,0.21280,-0.06423,0.00000,0.03184,0.97527,-0.19349,0.0,2023,6,7,15,45,18,468
44.47110,0.07280,0.11077,0.00000,0.03001,0.97393,-0.19313,0.0,2023,6,7,15,45,18,478
44.47120,0.10780,-0.01173,0.00000,0.03026,0.97515,-0.19252,0.0,2023,6,7,15,45,18,488
44.47130,0.12530,0.04077,0.00000,0.02928,0.97466,-0.19496,0.0,2023,6,7,15,45,18,498
44.47140,-0.04970,-0.16923,0.00000,0.02977,0.97698,-0.19227,0.0,2023,6,7,15,45,18,508
44.47150,0.17780,0.07577,0.00000,0.03026,0.97576,-0.18947,0.0,2023,6,7,15,45,18,518
44.47160,-0.13720,0.02327,0.00000,0.02916,0.97490,-0.19056,0.0,2023,6,7,15,45,18,528
44.47170,0.09030,-0.02923,0.00000,0.03135,0.97917,-0.19215,0.0,2023,6,7,15,45,18,538
44.47180,0.09030,0.16327,0.00000,0.02989,0.97588,-0.19227,0.0,2023,6,7,15,45,18,548
44.47190,-0.08470,-0.01173,0.00000,0.03050,0.97746,-0.19117,0.0,2023,6,7,15,45,18,558
44.47200,-0.06720,-0.02923,0.00000,0.03038,0.97771,-0.19093,0.0,2023,6,7,15,45,18,568
44.47210,0.21280,-0.09923,0.00000,0.02745,0.97539,-0.19130,0.0,2023,6,7,15,45,18,578
44.47220,0.05530,-0.09923,0.00000,0.03160,0.97478,-0.19178,0.0,2023,6,7,15,45,18,588
44.47230,0.02030,-0.08173,0.00000,0.02879,0.97588,-0.19349,0.0,2023,6,7,15,45,18,598
44.47240,0.16030,0.00577,0.00000,0.02965,0.97746,-0.19008,0.0,2023,6,7,15,45,18,608
44.47250,-0.01470,0.00577,0.00000,0.03209,0.97661,-0.19154,0.0,2023,6,7,15,45,18,618
44.47260,-0.01470,-0.15173,0.00000,0.03233,0.97612,-0.19093,0.0,2023,6,7,15,45,18,628
44.47270,-0.01470,-0.06423,0.00000,0.02818,0.97515,-0.19203,0.0,2023,6,7,15,45,18,638
44.47280,-0.04970,0.09327,0.00000,0.03074,0.97637,-0.18849,0.0,2023,6,7,15,45,18,648
44.47290,0.05530,0.07577,0.00000,0.02782,0.97515,-0.19215,0.0,2023,6,7,15,45,18,658
44.47300,0.16030,0.23327,0.00000,0.03026,0.97759,-0.18983,0.0,2023,6,7,15,45,18,668
44.47310,0.05530,0.04077,0.00000,0.03074,0.97661,-0.18959,0.0,2023,6,7,15,45,18,678
44.47320,0.05530,-0.08173,0.00000,0.02965,0.97771,-0.19081,0.0,2023,6,7,15,45,18,688
44.47330,0.02030,0.19827,0.00000,0.02867,0.97515,-0.19093,0.0,2023,6,7,15,45,18,698
44.47340,-0.06720,0.04077,0.00000,0.03099,0.97612,-0.19191,0.0,2023,6,7,15,45,18,708
44.47350,-0.04970,0.05827,0.00000,0.03135,0.97454,-0.18812,0.0,2023,6,7,15,45,18,718
44.47360,0.14280,-0.06423,0.00000,0.03099,0.97783,-0.19252,0.0,2023,6,7,15,45,18,728
44.47370,0.00280,0.02327,0.00000,0.03038,0.97759,-0.19361,0.0,2023,6,7,15,45,18,738
44.47380,0.09030,0.16327,0.00000,0.02977,0.97722,-0.19032,0.0,2023,6,7,15,45,18,748
44.47390,-0.08470,0.02327,0.00000,0.03050,0.97588,-0.19069,0.0,2023,6,7,15,45,18,758
44.47400,-0.20720,0.04077,0.00000,0.03123,0.97380,-0.19117,0.0,2023,6,7,15,45,18,768
44.47410,-0.06720,-0.08173,0.00000,0.03038,0.97673,-0.18971,0.0,2023,6,7,15,45,18,778
44.47420,0.05530,0.14577,0.00000,0.03026,0.97637,-0.19264,0.0,2023,6,7,15,45,18,788
44.47430,-0.04970,0.00577,0.00000,0.02769,0.97612,-0.19300,0.0,2023,6,7,15,45,18,798
44.47440,-0.04970,0.02327,0.00000,0.02977,0.97624,-0.19081,0.0,2023,6,7,15,45,18,808
44.47450,0.24780,0.00577,0.00000,0.03367,0.97417,-0.19142,0.0,2023,6,7,15,45,18,818
44.47460,0.10780,-0.06423,0.00000,0.02989,0.97563,-0.19081,0.0,2023,6,7,15,45,18,828
44.47470,0.05530,0.21577,0.00000,0.03074,0.97563,-0.19374,0.0,2023,6,7,15,45,18,838
44.47480,0.05530,-0.13423,0.00000,0.03050,0.97563,-0.19178,0.0,2023,6,7,15,45,18,848
44.47490,-0.06720,-0.02923,0.00000,0.02965,0.97637,-0.19032,0.0,2023,6,7,15,45,18,858
44.47500,0.05530,-0.06423,0.00000,0.02757,0.97466,-0.19069,0.0,2023,6,7,15,45,18,868
44.47510,0.03780,0.07577,0.00000,0.03074,0.97612,-0.19117,0.0,2023,6,7,15,45,18,878
44.47520,-0.20720,0.00577,0.00000,0.03062,0.97685,-0.19130,0.0,2023,6,7,15,45,18,888
44.47530,-0.03220,-0.04673,0.00000,0.02940,0.97710,-0.19300,0.0,2023,6,7,15,45,18,898
44.47540,0.05530,-0.11673,0.00000,0.02952,0.97612,-0.18849,0.0,2023,6,7,15,45,19,8
44.47550,-0.11970,0.00577,0.00000,0.02867,0.97637,-0.18910,0.0,2023,6,7,15,45,19,18
44.47560,0.02030,0.04077,0.00000,0.03160,0.97527,-0.19374,0.0,2023,6,7,15,45,19,28
44.47570,0.14280,-0.18673,0.00000,0.02843,0.97515,-0.19142,0.0,2023,6,7,15,45,19,38
44.47580,0.12530,-0.20423,0.00000,0.03038,0.97759,-0.19044,0.0,2023,6,7,15,45,19,48
44.47590,0.03780,0.00577,0.00000,0.03135,0.97551,-0.19117,0.0,2023,6,7,15,45,19,58
44.47600,-0.06720,0.02327,0.00000,0.03148,0.97624,-0.19166,0.0,2023,6,7,15,45,19,68
44.47610,-0.04970,0.12827,0.00000,0.03038,0.97624,-0.19020,0.0,2023,6,7,15,45,19,78
44.47620,-0.03220,0.16327,0.00000,0.03087,0.97417,-0.19239,0.0,2023,6,7,15,45,19,88
44.47630,-0.03220,0.14577,0.00000,0.03050,0.97685,-0.19325,0.0,2023,6,7,15,45,19,98
44.47640,-0.04970,0.05827,0.00000,0.03099,0.97502,-0.19044,0.0,2023,6,7,15,45,19,108
44.47650,-0.10220,0.26827,0.00000,0.02928,0.97685,-0.19154,0.0,2023,6,7,15,45,19,118
44.47660,0.02030,0.05827,0.00000,0.03038,0.97600,-0.18959,0.0,2023,6,7,15,45,19,128
44.47670,-0.04970,-0.02923,0.00000,0.02830,0.97478,-0.19105,0.0,2023,6,7,15,45,19,138
44.47680,-0.03220,0.18077,0.00000,0.03209,0.97429,-0.19032,0.0,2023,6,7,15,45,19,148
44.47690,0.00280,-0.16923,0.00000,0.02940,0.97600,-0.19166,0.0,2023,6,7,15,45,19,158
44.47700,-0.04970,-0.02923,0.00000,0.02891,0.97368,-0.19276,0.0,2023,6,7,15,45,19,168
44.47710,0.07280,-0.01173,0.00000,0.03123,0.97539,-0.19349,0.0,2023,6,7,15,45,19,178
44.47720,0.07280,-0.15173,0.00000,0.03221,0.97332,-0.18995,0.0,2023,6,7,15,45,19,188
44.47730,-0.04970,0.09327,0.00000,0.02928,0.97600,-0.19008,0.0,2023,6,7,15,45,19,198
44.47740,0.03780,-0.11673,0.00000,0.02928,0.97429,-0.19117,0.0,2023,6,7,15,45,19,208
44.47750,0.03780,-0.04673,0.00000,0.02879,0.97380,-0.18983,0.0,2023,6,7,15,45,19,218
44.47760,-0.15470,0.07577,0.00000,0.03050,0.97649,-0.19154,0.0,2023,6,7,15,45,19,228
44.47770,0.09030,-0.06423,0.00000,0.02867,0.97490,-0.19093,0.0,2023,6,7,15,45,19,238
44.47780,0.05530,0.04077,0.00000,0.03001,0.97649,-0.19215,0.0,2023,6,7,15,45,19,248
44.47790,-0.08470,0.05827,0.00000,0.03026,0.97515,-0.19081,0.0,2023,6,7,15,45,19,258
44.47800,0.03780,0.16327,0.00000,0.03087,0.97795,-0.19374,0.0,2023,6,7,15,45,19,268
44.47810,0.03780,0.00577,0.00000,0.03099,0.97673,-0.19264,0.0,2023,6,7,15,45,19,278
44.47820,-0.04970,-0.16923,0.00000,0.02965,0.97795,-0.19191,0.0,2023,6,7,15,45,19,288
44.47830,-0.01470,-0.04673,0.00000,0.03184,0.97527,-0.19398,0.0,2023,6,7,15,45,19,298
44.47840,-0.01470,0.12827,0.00000,0.03026,0.97734,-0.19154,0.0,2023,6,7,15,45,19,308
44.47850,0.02030,0.18077,0.00000,0.02879,0.97563,-0.19361,0.0,2023,6,7,15,45,19,318
44.47860,0.07280,-0.02923,0.00000,0.03099,0.97710,-0.19130,0.0,2023,6,7,15,45,19,328
44.47870,0.05530,0.00577,0.00000,0.03050,0.97417,-0.19117,0.0,2023,6,7,15,45,19,338
44.47880,-0.01470,-0.09923,0.00000,0.02928,0.97710,-0.18983,0.0,2023,6,7,15,45,19,348
44.47890,0.10780,-0.16923,0.00000,0.03062,0.97795,-0.19215,0.0,2023,6,7,15,45,19,358
44.47900,0.12530,-0.01173,0.00000,0.02977,0.97441,-0.19252,0.0,2023,6,7,15,45,19,368
44.47910,-0.01470,-0.09923,0.00000,0.02904,0.97624,-0.19349,0.0,2023,6,7,15,45,19,378
44.47920,-0.06720,0.11077,0.00000,0.03148,0.97478,-0.19081,0.0,2023,6,7,15,45,19,388
44.47930,-0.10220,0.04077,0.00000,0.03087,0.97783,-0.18983,0.0,2023,6,7,15,45,19,398
44.47940,-0.06720,-0.06423,0.00000,0.03074,0.97588,-0.18971,0.0,2023,6,7,15,45,19,408
44.47950,-0.15470,0.05827,0.00000,0.03026,0.97319,-0.19203,0.0,2023,6,7,15,45,19,418
44.47960,-0.03220,-0.09923,0.00000,0.02904,0.97551,-0.19166,0.0,2023,6,7,15,45,19,428
44.47970,0.00280,-0.02923,0.00000,0.03001,0.97612,-0.19117,0.0,2023,6,7,15,45,19,438
44.47980,0.10780,-0.20423,0.00000,0.02904,0.97563,-0.19264,0.0,2023,6,7,15,45,19,448
44.47990,0.00280,-0.06423,0.00000,0.03050,0.97612,-0.19081,0.0,2023,6,7,15,45,19,458
44.48000,-0.13720,0.07577,0.00000,0.02928,0.97624,-0.19154,0.0,2023,6,7,15,45,19,468
44.48010,0.05530,-0.13423,0.00000,0.02977,0.97515,-0.18910,0.0,2023,6,7,15,45,19,478
44.48020,-0.08470,0.14577,0.00000,0.03074,0.97356,-0.19227,0.0,2023,6,7,15,45,19,488
44.48030,-0.11970,0.12827,0.00000,0.02940,0.97588,-0.19032,0.0,2023,6,7,15,45,19,498
44.48040,0.16030,0.04077,0.00000,0.03257,0.97466,-0.19044,0.0,2023,6,7,15,45,19,508
44.48050,0.09030,-0.02923,0.00000,0.02928,0.97612,-0.19313,0.0,2023,6,7,15,45,19,518
44.48060,-0.13720,0.00577,0.00000,0.02891,0.97551,-0.19227,0.0,2023,6,7,15,45,19,528
44.48070,-0.03220,0.07577,0.00000,0.02928,0.97588,-0.19386,0.0,2023,6,7,15,45,19,538
44.48080,0.12530,-0.18673,0.00000,0.03013,0.97807,-0.19020,0.0,2023,6,7,15,45,19,548
44.48090,-0.20720,-0.01173,0.00000,0.03172,0.97527,-0.18959,0.0,2023,6,7,15,45,19,558
44.48100,0.17780,-0.06423,0.00000,0.03062,0.97576,-0.18947,0.0,2023,6,7,15,45,19,568
44.48110,-0.15470,0.12827,0.00000,0.03148,0.97478,-0.19008,0.0,2023,6,7,15,45,19,578
44.48120,0.07280,-0.15173,0.00000,0.03062,0.97539,-0.19239,0.0,2023,6,7,15,45,19,588
44.48130,-0.03220,0.05827,0.00000,0.03099,0.97490,-0.19300,0.0,2023,6,7,15,45,19,598
44.48140,0.00280,0.14577,0.00000,0.02769,0.97515,-0.19056,0.0,2023,6,7,15,45,19,608
44.48150,0.12530,-0.06423,0.00000,0.03111,0.97527,-0.19008,0.0,2023,6,7,15,45,19,618
44.48160,0.02030,-0.06423,0.00000,0.02916,0.97356,-0.19130,0.0,2023,6,7,15,45,19,628
44.48170,0.14280,-0.13423,0.00000,0.03062,0.97637,-0.19166,0.0,2023,6,7,15,45,19,638
44.48180,-0.13720,0.04077,0.00000,0.03013,0.97417,-0.19032,0.0,2023,6,7,15,45,19,648
44.48190,0.03780,0.04077,0.00000,0.03001,0.97551,-0.19191,0.0,2023,6,7,15,45,19,658
44.48200,0.14280,-0.02923,0.00000,0.02977,0.97515,-0.18995,0.0,2023,6,7,15,45,19,668
44.48210,-0.15470,0.04077,0.00000,0.03062,0.97637,-0.18922,0.0,2023,6,7,15,45,19,678
44.48220,0.00280,0.04077,0.00000,0.03209,0.97600,-0.19093,0.0,2023,6,7,15,45,19,688
44.48230,0.02030,-0.06423,0.00000,0.03221,0.97393,-0.19435,0.0,2023,6,7,15,45,19,698
44.48240,0.14280,0.02327,0.00000,0.03001,0.97246,-0.19142,0.0,2023,6,7,15,45,19,708
44.48250,0.10780,-0.01173,0.00000,0.03062,0.97429,-0.19361,0.0,2023,6,7,15,45,19,718
44.48260,-0.11970,-0.15173,0.00000,0.02965,0.97917,-0.19117,0.0,2023,6,7,15,45,19,728
44.48270,0.21280,-0.18673,0.00000,0.03172,0.97698,-0.19105,0.0,2023,6,7,15,45,19,738
44.48280,-0.06720,0.12827,0.00000,0.02989,0.97673,-0.19008,0.0,2023,6,7,15,45,19,748
44.48290,0.03780,0.00577,0.00000,0.02806,0.97588,-0.18995,0.0,2023,6,7,15,45,19,758
44.48300,-0.06720,-0.04673,0.00000,0.03111,0.97661,-0.19069,0.0,2023,6,7,15,45,19,768
44.48310,0.00280,0.00577,0.00000,0.02708,0.97771,-0.19276,0.0,2023,6,7,15,45,19,778
44.48320,0.05530,0.14577,0.00000,0.02891,0.97563,-0.19459,0.0,2023,6,7,15,45,19,788
44.48330,-0.11970,0.09327,0.00000,0.03148,0.97637,-0.18886,0.0,2023,6,7,15,45,19,798
44.48340,-0.10220,0.04077,0.00000,0.03257,0.97502,-0.19105,0.0,2023,6,7,15,45,19,808
44.48350,0.21280,-0.09923,0.00000,0.03148,0.97283,-0.19032,0.0,2023,6,7,15,45,19,818
44.48360,-0.06720,-0.02923,0.00000,0.02867,0.97502,-0.18959,0.0,2023,6,7,15,45,19,828
44.48370,0.02030,-0.02923,0.00000,0.03013,0.97649,-0.19142,0.0,2023,6,7,15,45,19,838
44.48380,-0.15470,-0.15173,0.00000,0.03074,0.97820,-0.19020,0.0,2023,6,7,15,45,19,848
44.48390,-0.01470,-0.16923,0.00000,0.02916,0.97454,-0.18983,0.0,2023,6,7,15,45,19,858
44.48400,-0.03220,0.09327,0.00000,0.03074,0.97576,-0.19239,0.0,2023,6,7,15,45,19,868
44.48410,-0.03220,-0.20423,0.00000,0.03087,0.97563,-0.19227,0.0,2023,6,7,15,45,19,878
44.48420,-0.06720,0.05827,0.00000,0.03050,0.97612,-0.19337,0.0,2023,6,7,15,45,19,888
44.48430,0.02030,0.00577,0.00000,0.03038,0.97539,-0.19081,0.0,2023,6,7,15,45,19,898
44.48440,0.05530,-0.06423,0.00000,0.02977,0.97734,-0.18995,0.0,2023,6,7,15,45,19,908
44.48450,-0.10220,0.19827,0.00000,0.02708,0.97539,-0.19447,0.0,2023,6,7,15,45,19,918
44.48460,-0.10220,0.11077,0.00000,0.02879,0.97612,-0.19130,0.0,2023,6,7,15,45,19,928
44.48470,-0.04970,-0.18673,0.00000,0.02782,0.97539,-0.18947,0.0,2023,6,7,15,45,19,938
44.48480,0.00280,-0.09923,0.00000,0.02940,0.97661,-0.19093,0.0,2023,6,7,15,45,19,948
44.48490,0.17780,-0.01173,0.00000,0.03209,0.97344,-0.19081,0.0,2023,6,7,15,45,19,958
44.48500,0.10780,-0.13423,0.00000,0.02879,0.97466,-0.19325,0.0,2023,6,7,15,45,19,968
44.48510,0.16030,0.07577,0.00000,0.02855,0.97490,-0.18995,0.0,2023,6,7,15,45,19,978
44.48520,0.07280,-0.04673,0.00000,0.03074,0.97393,-0.19410,0.0,2023,6,7,15,45,19,988
44.48530,0.07280,-0.02923,0.00000,0.02952,0.97332,-0.19252,0.0,2023,6,7,15,45,19,998
44.48540,0.21280,0.04077,0.00000,0.03233,0.97454,-0.18995,0.0,2023,6,7,15,45,19,8
44.48550,-0.01470,-0.04673,0.00000,0.03184,0.97637,-0.19130,0.0,2023,6,7,15,45,19,18
44.48560,0.12530,-0.02923,0.00000,0.02794,0.97624,-0.18849,0.0,2023,6,7,15,45,19,28
44.48570,-0.13720,0.00577,0.00000,0.02989,0.97637,-0.18983,0.0,2023,6,7,15,45,19,38
44.48580,-0.13720,0.09327,0.00000,0.03026,0.97624,-0.18825,0.0,2023,6,7,15,45,19,48
44.48590,0.17780,-0.04673,0.00000,0.02977,0.97515,-0.19227,0.0,2023,6,7,15,45,19,58
44.48600,0.12530,0.05827,0.00000,0.03026,0.97612,-0.19300,0.0,2023,6,7,15,45,19,68
44.48610,-0.15470,0.21577,0.00000,0.03038,0.97600,-0.19264,0.0,2023,6,7,15,45,19,78
44.48620,0.00280,0.07577,0.00000,0.03038,0.97417,-0.19093,0.0,2023,6,7,15,45,19,88
44.48630,0.05530,0.07577,0.00000,0.03099,0.97624,-0.19227,0.0,2023,6,7,15,45,19,98
44.48640,-0.06720,0.05827,0.00000,0.02830,0.97600,-0.19105,0.0,2023,6,7,15,45,19,108
44.48650,0.00280,0.09327,0.00000,0.03099,0.97759,-0.19032,0.0,2023,6,7,15,45,19,118
44.48660,-0.03220,-0.01173,0.00000,0.02855,0.97685,-0.19093,0.0,2023,6,7,15,45,19,128
44.48670,0.00280,0.25077,0.00000,0.03087,0.97685,-0.19154,0.0,2023,6,7,15,45,19,138
44.48680,0.07280,0.00577,0.00000,0.02806,0.97515,-0.19093,0.0,2023,6,7,15,45,19,148
44.48690,-0.04970,0.23327,0.00000,0.03013,0.97844,-0.19093,0.0,2023,6,7,15,45,19,158
44.48700,0.02030,0.12827,0.00000,0.03062,0.97466,-0.19191,0.0,2023,6,7,15,45,19,168
44.48710,-0.24220,0.12827,0.00000,0.03001,0.97734,-0.19154,0.0,2023,6,7,15,45,19,178
44.48720,-0.01470,0.02327,0.00000,0.02952,0.97502,-0.19154,0.0,2023,6,7,15,45,19,188
44.48730,0.14280,0.12827,0.00000,0.03148,0.97624,-0.19203,0.0,2023,6,7,15,45,19,198
44.48740,0.03780,0.09327,0.00000,0.03050,0.97588,-0.19069,0.0,2023,6,7,15,45,19,208
44.48750,0.09030,0.02327,0.00000,0.02843,0.97393,-0.19081,0.0,2023,6,7,15,45,19,218
44.48760,-0.01470,-0.08173,0.00000,0.02952,0.97563,-0.19105,0.0,2023,6,7,15,45,19,228
44.48770,-0.01470,-0.04673,0.00000,0.03233,0.97710,-0.19191,0.0,2023,6,7,15,45,19,238
44.48780,-0.10220,0.00577,0.00000,0.02952,0.97478,-0.18922,0.0,2023,6,7,15,45,19,248
44.48790,-0.03220,-0.13423,0.00000,0.03026,0.97527,-0.19166,0.0,2023,6,7,15,45,19,258
44.48800,0.03780,0.19827,0.00000,0.02867,0.97759,-0.19056,0.0,2023,6,7,15,45,19,268
44.48810,0.02030,-0.06423,0.00000,0.02965,0.97661,-0.19069,0.0,2023,6,7,15,45,19,278
44.48820,0.03780,0.14577,0.00000,0.03074,0.97661,-0.18825,0.0,2023,6,7,15,45,19,288
44.48830,0.09030,-0.22173,0.00000,0.02940,0.97673,-0.19105,0.0,2023,6,7,15,45,19,298
44.48840,-0.01470,0.02327,0.00000,0.03026,0.97661,-0.19264,0.0,2023,6,7,15,45,19,308
44.48850,-0.04970,0.00577,0.00000,0.03062,0.97588,-0.19178,0.0,2023,6,7,15,45,19,318
44.48860,0.10780,-0.18673,0.00000,0.03013,0.97588,-0.19410,0.0,2023,6,7,15,45,19,328
44.48870,0.07280,0.07577,0.00000,0.03050,0.97710,-0.19069,0.0,2023,6,7,15,45,19,338
44.48880,-0.10220,0.05827,0.00000,0.03111,0.97295,-0.19032,0.0,2023,6,7,15,45,19,348
44.48890,0.05530,-0.22173,0.00000,0.02818,0.97490,-0.19264,0.0,2023,6,7,15,45,19,358
44.48900,-0.04970,-0.02923,0.00000,0.02891,0.97478,-0.19313,0.0,2023,6,7,15,45,19,368
44.48910,-0.08470,0.07577,0.00000,0.02806,0.97527,-0.19008,0.0,2023,6,7,15,45,19,378
44.48920,0.16030,-0.13423,0.00000,0.03050,0.97563,-0.19264,0.0,2023,6,7,15,45,19,388
44.48930,0.31780,-0.08173,0.00000,0.03038,0.97905,-0.19227,0.0,2023,6,7,15,45,19,398
44.48940,0.12530,-0.20423,0.00000,0.02891,0.97649,-0.19264,0.0,2023,6,7,15,45,19,408
44.48950,0.14280,-0.23923,0.00000,0.03038,0.97637,-0.19178,0.0,2023,6,7,15,45,19,418
44.48960,0.05530,0.11077,0.00000,0.03099,0.97710,-0.19203,0.0,2023,6,7,15,45,19,428
44.48970,0.17780,-0.08173,0.00000,0.02989,0.97698,-0.19154,0.0,2023,6,7,15,45,19,438
44.48980,-0.04970,-0.06423,0.00000,0.02879,0.97722,-0.19008,0.0,2023,6,7,15,45,19,448
44.48990,0.16030,-0.08173,0.00000,0.03001,0.97600,-0.18959,0.0,2023,6,7,15,45,19,458
44.49000,0.02030,-0.18673,0.00000,0.02806,0.97576,-0.19008,0.0,2023,6,7,15,45,19,468
44.49010,-0.17220,0.18077,0.00000,0.03245,0.97710,-0.19349,0.0,2023,6,7,15,45,19,478
44.49020,0.12530,-0.06423,0.00000,0.02965,0.97478,-0.19117,0.0,2023,6,7,15,45,19,488
44.49030,0.19530,0.04077,0.00000,0.03233,0.97746,-0.19239,0.0,2023,6,7,15,45,19,498
44.49040,0.03780,-0.01173,0.00000,0.02940,0.97551,-0.19325,0.0,2023,6,7,15,45,19,508
44.49050,0.05530,-0.08173,0.00000,0.02818,0.97637,-0.19191,0.0,2023,6,7,15,45,19,518
44.49060,0.14280,0.02327,0.00000,0.03038,0.97954,-0.19093,0.0,2023,6,7,15,45,19,528
44.49070,0.02030,0.14577,0.00000,0.02965,0.97405,-0.19044,0.0,2023,6,7,15,45,19,538
44.49080,-0.15470,0.14577,0.00000,0.02855,0.97807,-0.19142,0.0,2023,6,7,15,45,19,548
44.49090,-0.15470,-0.15173,0.00000,0.02891,0.97734,-0.18910,0.0,2023,6,7,15,45,19,558
44.49100,-0.15470,0.16327,0.00000,0.02794,0.97405,-0.18971,0.0,2023,6,7,15,45,19,568
44.49110,0.14280,-0.04673,0.00000,0.03038,0.97551,-0.19032,0.0,2023,6,7,15,45,19,578
44.49120,0.05530,0.02327,0.00000,0.02977,0.97539,-0.19154,0.0,2023,6,7,15,45,19,588
44.49130,0.09030,-0.08173,0.00000,0.03050,0.97710,-0.19032,0.0,2023,6,7,15,45,19,598
44.49140,0.12530,0.04077,0.00000,0.03099,0.97661,-0.19410,0.0,2023,6,7,15,45,19,608
44.49150,-0.03220,0.00577,0.00000,0.02989,0.97429,-0.19276,0.0,2023,6,7,15,45,19,618
44.49160,0.05530,-0.01173,0.00000,0.03111,0.97551,-0.19105,0.0,2023,6,7,15,45,19,628
44.49170,-0.06720,0.07577,0.00000,0.02818,0.97405,-0.19203,0.0,2023,6,7,15,45,19,638
44.49180,-0.08470,0.16327,0.00000,0.03038,0.97441,-0.19288,0.0,2023,6,7,15,45,19,648
44.49190,-0.06720,0.02327,0.00000,0.02904,0.97856,-0.19178,0.0,2023,6,7,15,45,19,658
44.49200,-0.11970,-0.06423,0.00000,0.02855,0.97478,-0.19215,0.0,2023,6,7,15,45,19,668
44.49210,0.09030,-0.04673,0.00000,0.02989,0.97624,-0.19178,0.0,2023,6,7,15,45,19,678
44.49220,-0.03220,0.09327,0.00000,0.02879,0.97624,-0.19252,0.0,2023,6,7,15,45,19,688
44.49230,0.02030,0.11077,0.00000,0.02989,0.97515,-0.19044,0.0,2023,6,7,15,45,19,698
44.49240,0.12530,0.19827,0.00000,0.03062,0.97661,-0.19032,0.0,2023,6,7,15,45,19,708
44.49250,0.12530,0.11077,0.00000,0.02977,0.97746,-0.18995,0.0,2023,6,7,15,45,19,718
44.49260,0.09030,0.09327,0.00000,0.03221,0.97490,-0.19337,0.0,2023,6,7,15,45,19,728
44.49270,0.12530,-0.13423,0.00000,0.03001,0.97637,-0.19447,0.0,2023,6,7,15,45,19,738
44.49280,-0.08470,0.07577,0.00000,0.02818,0.97612,-0.19349,0.0,2023,6,7,15,45,19,748
44.49290,0.02030,-0.08173,0.00000,0.03099,0.97624,-0.19154,0.0,2023,6,7,15,45,19,758
44.49300,-0.06720,0.02327,0.00000,0.02916,0.97417,-0.19130,0.0,2023,6,7,15,45,19,768
44.49310,0.03780,0.11077,0.00000,0.03001,0.97563,-0.19105,0.0,2023,6,7,15,45,19,778
44.49320,-0.08470,-0.18673,0.00000,0.03013,0.97734,-0.19142,0.0,2023,6,7,15,45,19,788
44.49330,0.00280,0.02327,0.00000,0.02940,0.97612,-0.19166,0.0,2023,6,7,15,45,19,798
44.49340,-0.11970,0.14577,0.00000,0.03026,0.97661,-0.18861,0.0,2023,6,7,15,45,19,808
44.49350,-0.15470,0.11077,0.00000,0.03001,0.97405,-0.19044,0.0,2023,6,7,15,45,19,818
44.49360,-0.01470,-0.06423,0.00000,0.03062,0.97466,-0.19154,0.0,2023,6,7,15,45,19,828
44.49370,-0.13720,0.05827,0.00000,0.03123,0.97783,-0.19044,0.0,2023,6,7,15,45,19,838
44.49380,0.02030,0.00577,0.00000,0.03001,0.97624,-0.19154,0.0,2023,6,7,15,45,19,848
44.49390,-0.08470,0.21577,0.00000,0.03001,0.97515,-0.19178,0.0,2023,6,7,15,45,19,858
44.49400,0.10780,0.18077,0.00000,0.03013,0.97734,-0.19056,0.0,2023,6,7,15,45,19,868
44.49410,0.02030,-0.04673,0.00000,0.03050,0.97637,-0.19227,0.0,2023,6,7,15,45,19,878
44.49420,0.10780,-0.01173,0.00000,0.03123,0.97441,-0.19166,0.0,2023,6,7,15,45,19,888
44.49430,0.00280,-0.09923,0.00000,0.02843,0.97649,-0.19215,0.0,2023,6,7,15,45,19,898
44.49440,-0.03220,-0.01173,0.00000,0.03148,0.97746,-0.19069,0.0,2023,6,7,15,45,19,908
44.49450,0.03780,0.02327,0.00000,0.02916,0.97576,-0.19044,0.0,2023,6,7,15,45,19,918
44.49460,-0.11970,0.04077,0.00000,0.02916,0.97490,-0.19117,0.0,2023,6,7,15,45,19,928
44.49470,-0.03220,0.11077,0.00000,0.02891,0.97624,-0.19264,0.0,2023,6,7,15,45,19,938
44.49480,0.05530,0.12827,0.00000,0.02989,0.97429,-0.19154,0.0,2023,6,7,15,45,19,948
44.49490,-0.04970,0.07577,0.00000,0.02952,0.97637,-0.19105,0.0,2023,6,7,15,45,19,958
44.49500,-0.13720,0.09327,0.00000,0.02843,0.97807,-0.19117,0.0,2023,6,7,15,45,19,968
44.49510,-0.13720,0.11077,0.00000,0.02745,0.97466,-0.19178,0.0,2023,6,7,15,45,19,978
44.49520,-0.06720,0.05827,0.00000,0.03001,0.97380,-0.19130,0.0,2023,6,7,15,45,19,988
44.49530,0.12530,0.07577,0.00000,0.03038,0.97246,-0.19203,0.0,2023,6,7,15,45,19,998
44.49540,0.10780,0.11077,0.00000,0.02965,0.97795,-0.19337,0.0,2023,6,7,15,45,19,8
44.49550,-0.13720,-0.01173,0.00000,0.03135,0.97685,-0.19178,0.0,2023,6,7,15,45,19,18
44.49560,0.02030,0.19827,0.00000,0.02879,0.97588,-0.19215,0.0,2023,6,7,15,45,19,28
44.49570,-0.04970,0.00577,0.00000,0.03087,0.97380,-0.19093,0.0,2023,6,7,15,45,19,38
44.49580,-0.01470,-0.16923,0.00000,0.03038,0.97527,-0.19032,0.0,2023,6,7,15,45,19,48
44.49590,0.05530,0.04077,0.00000,0.02977,0.97429,-0.19239,0.0,2023,6,7,15,45,19,58
44.49600,0.03780,0.00577,0.00000,0.03013,0.97966,-0.19227,0.0,2023,6,7,15,45,19,68
44.49610,-0.04970,0.12827,0.00000,0.03074,0.97527,-0.19044,0.0,2023,6,7,15,45,19,78
44.49620,-0.03220,-0.02923,0.00000,0.03026,0.97612,-0.18934,0.0,2023,6,7,15,45,19,88
44.49630,0.07280,0.11077,0.00000,0.03245,0.97490,-0.19056,0.0,2023,6,7,15,45,19,98
44.49640,0.00280,0.05827,0.00000,0.02916,0.97551,-0.19069,0.0,2023,6,7,15,45,19,108
44.49650,0.00280,-0.04673,0.00000,0.02806,0.97612,-0.19093,0.0,2023,6,7,15,45,19,118
44.49660,0.09030,-0.04673,0.00000,0.02867,0.97698,-0.19349,0.0,2023,6,7,15,45,19,128
44.49670,0.05530,0.04077,0.00000,0.03135,0.97478,-0.19276,0.0,2023,6,7,15,45,19,138
44.49680,0.16030,-0.13423,0.00000,0.03001,0.97576,-0.19215,0.0,2023,6,7,15,45,19,148
44.49690,-0.24220,0.16327,0.00000,0.03172,0.97612,-0.19130,0.0,2023,6,7,15,45,19,158
44.49700,-0.04970,-0.09923,0.00000,0.02952,0.97563,-0.19252,0.0,2023,6,7,15,45,19,168
44.49710,0.09030,0.19827,0.00000,0.03050,0.97563,-0.19361,0.0,2023,6,7,15,45,19,178
44.49720,-0.04970,0.11077,0.00000,0.02891,0.97490,-0.19325,0.0,2023,6,7,15,45,19,188
44.49730,0.10780,-0.22173,0.00000,0.03209,0.97515,-0.19203,0.0,2023,6,7,15,45,19,198
44.49740,-0.15470,0.07577,0.00000,0.02830,0.97515,-0.19166,0.0,2023,6,7,15,45,19,208
44.49750,-0.04970,0.05827,0.00000,0.03111,0.97746,-0.18995,0.0,2023,6,7,15,45,19,218
44.49760,-0.20720,0.25077,0.00000,0.03148,0.97515,-0.19386,0.0,2023,6,7,15,45,19,228
44.49770,0.17780,-0.09923,0.00000,0.03233,0.97624,-0.19288,0.0,2023,6,7,15,45,19,238
44.49780,0.10780,0.18077,0.00000,0.02928,0.97612,-0.19191,0.0,2023,6,7,15,45,19,248
44.49790,0.03780,-0.06423,0.00000,0.03038,0.97563,-0.19264,0.0,2023,6,7,15,45,19,258
44.49800,0.00280,-0.20423,0.00000,0.03111,0.97600,-0.19447,0.0,2023,6,7,15,45,19,268
44.49810,0.09030,0.04077,0.00000,0.03160,0.97576,-0.19337,0.0,2023,6,7,15,45,19,278
44.49820,-0.03220,0.02327,0.00000,0.03160,0.97478,-0.18995,0.0,2023,6,7,15,45,19,288
44.49830,-0.10220,-0.13423,0.00000,0.03013,0.97551,-0.19130,0.0,2023,6,7,15,45,19,298
44.49840,0.02030,-0.02923,0.00000,0.02757,0.97649,-0.19264,0.0,2023,6,7,15,45,19,308
44.49850,0.03780,-0.08173,0.00000,0.03074,0.97624,-0.19300,0.0,2023,6,7,15,45,19,318
44.49860,-0.01470,0.07577,0.00000,0.03099,0.97527,-0.19105,0.0,2023,6,7,15,45,19,328
44.49870,-0.01470,-0.15173,0.00000,0.03038,0.97441,-0.19081,0.0,2023,6,7,15,45,19,338
44.49880,0.03780,-0.06423,0.00000,0.03026,0.97612,-0.19154,0.0,2023,6,7,15,45,19,348
44.49890,-0.03220,-0.09923,0.00000,0.03074,0.97527,-0.18947,0.0,2023,6,7,15,45,19,358
44.49900,-0.17220,0.14577,0.00000,0.03062,0.97527,-0.19056,0.0,2023,6,7,15,45,19,368
44.49910,-0.04970,0.02327,0.00000,0.03074,0.97295,-0.19191,0.0,2023,6,7,15,45,19,378
44.49920,-0.03220,0.05827,0.00000,0.03282,0.97429,-0.19105,0.0,2023,6,7,15,45,19,388
44.49930,0.17780,0.02327,0.00000,0.02891,0.97588,-0.19349,0.0,2023,6,7,15,45,19,398
44.49940,0.16030,0.14577,0.00000,0.02952,0.97417,-0.19337,0.0,2023,6,7,15,45,19,408
44.49950,-0.13720,-0.15173,0.00000,0.02989,0.97539,-0.19081,0.0,2023,6,7,15,45,19,418
44.49960,-0.11970,-0.25673,0.00000,0.02806,0.97588,-0.19105,0.0,2023,6,7,15,45,19,428
44.49970,-0.10220,-0.13423,0.00000,0.02965,0.97600,-0.19313,0.0,2023,6,7,15,45,19,438
44.49980,-0.04970,0.04077,0.00000,0.02965,0.97454,-0.19252,0.0,2023,6,7,15,45,19,448
44.49990,-0.17220,0.11077,0.00000,0.02855,0.97649,-0.18995,0.0,2023,6,7,15,45,19,458
44.50000,-0.03220,0.05827,0.00000,0.02818,0.97454,-0.19105,0.0,2023,6,7,15,45,19,468
44.50010,0.21280,0.11077,0.00000,0.03001,0.97380,-0.19130,0.0,2023,6,7,15,45,19,478
44.50020,-0.03220,0.11077,0.00000,0.02916,0.97380,-0.19239,0.0,2023,6,7,15,45,19,488
44.50030,0.21280,0.04077,0.00000,0.02916,0.97685,-0.19496,0.0,2023,6,7,15,45,19,498
44.50040,-0.13720,0.23327,0.00000,0.03087,0.97417,-0.19325,0.0,2023,6,7,15,45,19,508
44.50050,-0.08470,0.14577,0.00000,0.02952,0.97478,-0.18812,0.0,2023,6,7,15,45,19,518
44.50060,0.07280,0.18077,0.00000,0.03123,0.97551,-0.19154,0.0,2023,6,7,15,45,19,528
44.50070,-0.03220,0.05827,0.00000,0.03001,0.97380,-0.19288,0.0,2023,6,7,15,45,19,538
44.50080,-0.04970,-0.08173,0.00000,0.03026,0.97612,-0.19239,0.0,2023,6,7,15,45,19,548
44.50090,0.09030,0.14577,0.00000,0.03172,0.97649,-0.19374,0.0,2023,6,7,15,45,19,558
44.50100,0.10780,0.05827,0.00000,0.02855,0.97576,-0.19203,0.0,2023,6,7,15,45,19,568
44.50110,-0.08470,-0.09923,0.00000,0.03148,0.97612,-0.19300,0.0,2023,6,7,15,45,19,578
44.50120,0.00280,-0.09923,0.00000,0.02989,0.97600,-0.19325,0.0,2023,6,7,15,45,19,588
44.50130,0.00280,-0.01173,0.00000,0.02928,0.97612,-0.19117,0.0,2023,6,7,15,45,19,598
44.50140,0.02030,-0.13423,0.00000,0.03087,0.97502,-0.19044,0.0,2023,6,7,15,45,19,608
44.50150,-0.10220,-0.01173,0.00000,0.02989,0.97637,-0.19117,0.0,2023,6,7,15,45,19,618
44.50160,-0.01470,-0.06423,0.00000,0.03062,0.97600,-0.19056,0.0,2023,6,7,15,45,19,628
44.50170,-0.08470,0.12827,0.00000,0.02806,0.97417,-0.19203,0.0,2023,6,7,15,45,19,638
44.50180,0.21280,-0.09923,0.00000,0.03111,0.97515,-0.19252,0.0,2023,6,7,15,45,19,648
44.50190,0.16030,0.12827,0.00000,0.03062,0.97893,-0.19239,0.0,2023,6,7,15,45,19,658
44.50200,0.05530,0.16327,0.00000,0.03038,0.97600,-0.19142,0.0,2023,6,7,15,45,19,668
44.50210,-0.01470,-0.02923,0.00000,0.03148,0.97746,-0.19154,0.0,2023,6,7,15,45,19,678
44.50220,0.05530,-0.11673,0.00000,0.03135,0.97624,-0.19166,0.0,2023,6,7,15,45,19,688
44.50230,0.14280,-0.09923,0.00000,0.03196,0.97576,-0.18861,0.0,2023,6,7,15,45,19,698
44.50240,0.05530,-0.06423,0.00000,0.03148,0.97612,-0.19264,0.0,2023,6,7,15,45,19,708
44.50250,-0.06720,-0.01173,0.00000,0.02989,0.97515,-0.19239,0.0,2023,6,7,15,45,19,718
44.50260,0.07280,-0.18673,0.00000,0.03123,0.97502,-0.19215,0.0,2023,6,7,15,45,19,728
44.50270,-0.15470,-0.04673,0.00000,0.03038,0.97807,-0.19459,0.0,2023,6,7,15,45,19,738
44.50280,-0.04970,-0.18673,0.00000,0.03172,0.97576,-0.18861,0.0,2023,6,7,15,45,19,748
44.50290,0.00280,0.12827,0.00000,0.02757,0.97673,-0.19105,0.0,2023,6,7,15,45,19,758
44.50300,-0.08470,0.05827,0.00000,0.03074,0.97441,-0.19191,0.0,2023,6,7,15,45,19,768
44.50310,0.16030,-0.18673,0.00000,0.02916,0.97576,-0.19081,0.0,2023,6,7,15,45,19,778
44.50320,0.09030,-0.01173,0.00000,0.02952,0.97441,-0.19520,0.0,2023,6,7,15,45,19,788
44.50330,0.07280,0.19827,0.00000,0.02891,0.97624,-0.19142,0.0,2023,6,7,15,45,19,798
44.50340,-0.04970,0.19827,0.00000,0.03087,0.97563,-0.19081,0.0,2023,6,7,15,45,19,808
44.50350,-0.20720,-0.09923,0.00000,0.03087,0.97649,-0.19044,0.0,2023,6,7,15,45,19,818
44.50360,0.00280,0.18077,0.00000,0.03148,0.97685,-0.18898,0.0,2023,6,7,15,45,19,828
44.50370,0.05530,-0.01173,0.00000,0.02928,0.97295,-0.19349,0.0,2023,6,7,15,45,19,838
44.50380,-0.10220,-0.04673,0.00000,0.02818,0.97539,-0.19215,0.0,2023,6,7,15,45,19,848
44.50390,0.05530,0.05827,0.00000,0.02977,0.97295,-0.18898,0.0,2023,6,7,15,45,19,858
44.50400,0.12530,-0.08173,0.00000,0.02928,0.97588,-0.19056,0.0,2023,6,7,15,45,19,868
44.50410,0.07280,-0.15173,0.00000,0.03026,0.97600,-0.19008,0.0,2023,6,7,15,45,19,878
44.50420,-0.06720,-0.09923,0.00000,0.03099,0.97515,-0.19276,0.0,2023,6,7,15,45,19,888
44.50430,-0.01470,-0.06423,0.00000,0.02916,0.97771,-0.19459,0.0,2023,6,7,15,45,19,898
44.50440,0.00280,-0.06423,0.00000,0.03013,0.97527,-0.18910,0.0,2023,6,7,15,45,19,908
44.50450,-0.04970,-0.11673,0.00000,0.02989,0.97283,-0.19008,0.0,2023,6,7,15,45,19,918
44.50460,0.07280,0.12827,0.00000,0.02904,0.97429,-0.19227,0.0,2023,6,7,15,45,19,928
44.50470,-0.04970,0.05827,0.00000,0.02904,0.97734,-0.19130,0.0,2023,6,7,15,45,19,938
44.50480,-0.08470,-0.06423,0.00000,0.02965,0.97515,-0.19044,0.0,2023,6,7,15,45,19,948
44.50490,0.09030,-0.16923,0.00000,0.02989,0.97502,-0.19178,0.0,2023,6,7,15,45,19,958
44.50500,0.19530,0.05827,0.00000,0.02977,0.97612,-0.19422,0.0,2023,6,7,15,45,19,968
44.50510,-0.10220,0.14577,0.00000,0.02965,0.97588,-0.19435,0.0,2023,6,7,15,45,19,978
44.50520,-0.18970,0.11077,0.00000,0.02965,0.97588,-0.19215,0.0,2023,6,7,15,45,19,988
44.50530,-0.01470,0.04077,0.00000,0.02940,0.97673,-0.19154,0.0,2023,6,7,15,45,19,998
44.50540,-0.13720,0.02327,0.00000,0.02952,0.97624,-0.19105,0.0,2023,6,7,15,45,19,8
44.50550,0.21280,-0.01173,0.00000,0.03026,0.97307,-0.19081,0.0,2023,6,7,15,45,19,18
44.50560,0.16030,-0.09923,0.00000,0.03038,0.97271,-0.19154,0.0,2023,6,7,15,45,19,28
44.50570,-0.10220,0.11077,0.00000,0.02891,0.97441,-0.19191,0.0,2023,6,7,15,45,19,38
44.50580,0.02030,0.21577,0.00000,0.03001,0.97576,-0.18983,0.0,2023,6,7,15,45,19,48
44.50590,-0.10220,0.02327,0.00000,0.03001,0.97563,-0.19227,0.0,2023,6,7,15,45,19,58
44.50600,0.07280,-0.08173,0.00000,0.03111,0.97795,-0.18959,0.0,2023,6,7,15,45,19,68
44.50610,0.03780,0.00577,0.00000,0.02867,0.97551,-0.19056,0.0,2023,6,7,15,45,19,78
44.50620,0.09030,-0.11673,0.00000,0.02952,0.97734,-0.18934,0.0,2023,6,7,15,45,19,88
44.50630,0.03780,0.07577,0.00000,0.03013,0.97588,-0.19032,0.0,2023,6,7,15,45,19,98
44.50640,-0.10220,0.16327,0.00000,0.02989,0.97661,-0.19154,0.0,2023,6,7,15,45,19,108
44.50650,-0.10220,-0.08173,0.00000,0.03172,0.97405,-0.19227,0.0,2023,6,7,15,45,19,118
44.50660,0.17780,0.05827,0.00000,0.03050,0.97466,-0.19325,0.0,2023,6,7,15,45,19,128
44.50670,0.19530,-0.22173,0.00000,0.03209,0.97441,-0.19288,0.0,2023,6,7,15,45,19,138
44.50680,-0.04970,-0.06423,0.00000,0.03172,0.97600,-0.19227,0.0,2023,6,7,15,45,19,148
44.50690,-0.08470,0.23327,0.00000,0.03038,0.97563,-0.19178,0.0,2023,6,7,15,45,19,158
44.50700,-0.17220,0.04077,0.00000,0.02916,0.97795,-0.19130,0.0,2023,6,7,15,45,19,168
44.50710,0.02030,-0.09923,0.00000,0.02977,0.97551,-0.18995,0.0,2023,6,7,15,45,19,178
44.50720,-0.38220,0.21577,0.00000,0.03050,0.97661,-0.19081,0.0,2023,6,7,15,45,19,188
44.50730,-0.18970,0.12827,0.00000,0.03013,0.97405,-0.19215,0.0,2023,6,7,15,45,19,198
44.50740,-0.01470,-0.01173,0.00000,0.03404,0.97759,-0.19142,0.0,2023,6,7,15,45,19,208
44.50750,-0.03220,0.05827,0.00000,0.03062,0.97685,-0.19105,0.0,2023,6,7,15,45,19,218
44.50760,-0.04970,-0.08173,0.00000,0.03050,0.97539,-0.19288,0.0,2023,6,7,15,45,19,228
44.50770,-0.10220,-0.02923,0.00000,0.02952,0.97539,-0.19081,0.0,2023,6,7,15,45,19,238
44.50780,-0.10220,0.00577,0.00000,0.02904,0.97490,-0.19032,0.0,2023,6,7,15,45,19,248
44.50790,0.24780,-0.11673,0.00000,0.02977,0.97600,-0.19313,0.0,2023,6,7,15,45,19,258
44.50800,0.03780,-0.29173,0.00000,0.03099,0.97807,-0.19239,0.0,2023,6,7,15,45,19,268
44.50810,0.00280,0.12827,0.00000,0.03062,0.97685,-0.19203,0.0,2023,6,7,15,45,19,278
44.50820,-0.18970,-0.06423,0.00000,0.02855,0.97649,-0.19142,0.0,2023,6,7,15,45,19,288
44.50830,0.14280,0.00577,0.00000,0.02977,0.97527,-0.19142,0.0,2023,6,7,15,45,19,298
44.50840,0.19530,0.04077,0.00000,0.03221,0.97722,-0.19069,0.0,2023,6,7,15,45,19,308
44.50850,-0.08470,-0.16923,0.00000,0.02867,0.97527,-0.18971,0.0,2023,6,7,15,45,19,318
44.50860,-0.17220,-0.09923,0.00000,0.02989,0.97478,-0.19142,0.0,2023,6,7,15,45,19,328
44.50870,-0.06720,-0.06423,0.00000,0.02952,0.97588,-0.19203,0.0,2023,6,7,15,45,19,338
44.50880,0.00280,-0.09923,0.00000,0.03172,0.97368,-0.19300,0.0,2023,6,7,15,45,19,348
44.50890,-0.01470,-0.09923,0.00000,0.03026,0.97197,-0.19105,0.0,2023,6,7,15,45,19,358
44.50900,0.21280,-0.04673,0.00000,0.02940,0.97649,-0.19056,0.0,2023,6,7,15,45,19,368
44.50910,-0.01470,0.00577,0.00000,0.03111,0.97685,-0.18995,0.0,2023,6,7,15,45,19,378
44.50920,0.07280,-0.09923,0.00000,0.03062,0.97734,-0.19361,0.0,2023,6,7,15,45,19,388
44.50930,0.14280,-0.15173,0.00000,0.03074,0.97771,-0.18922,0.0,2023,6,7,15,45,19,398
44.50940,0.02030,-0.13423,0.00000,0.02904,0.97661,-0.19142,0.0,2023,6,7,15,45,19,408
44.50950,-0.04970,0.05827,0.00000,0.02757,0.97527,-0.19020,0.0,2023,6,7,15,45,19,418
44.50960,-0.08470,0.05827,0.00000,0.02891,0.97954,-0.19032,0.0,2023,6,7,15,45,19,428
44.50970,0.02030,-0.11673,0.00000,0.03074,0.97502,-0.19398,0.0,2023,6,7,15,45,19,438
44.50980,0.10780,-0.08173,0.00000,0.02879,0.97612,-0.19227,0.0,2023,6,7,15,45,19,448
44.50990,0.12530,-0.15173,0.00000,0.02952,0.97551,-0.19081,0.0,2023,6,7,15,45,19,458
44.51000,0.30030,-0.20423,0.00000,0.03050,0.97380,-0.19105,0.0,2023,6,7,15,45,19,468
44.51010,0.02030,0.09327,0.00000,0.03038,0.97539,-0.19239,0.0,2023,6,7,15,45,19,478
44.51020,-0.03220,-0.08173,0.00000,0.03221,0.97734,-0.19117,0.0,2023,6,7,15,45,19,488
44.51030,0.02030,0.07577,0.00000,0.02977,0.97539,-0.19130,0.0,2023,6,7,15,45,19,498
44.51040,-0.01470,0.02327,0.00000,0.02916,0.97893,-0.19337,0.0,2023,6,7,15,45,19,508
44.51050,0.00280,0.00577,0.00000,0.02940,0.97502,-0.19020,0.0,2023,6,7,15,45,19,518
44.51060,-0.06720,0.00577,0.00000,0.02989,0.97661,-0.18947,0.0,2023,6,7,15,45,19,528
44.51070,0.14280,0.14577,0.00000,0.02989,0.97612,-0.19178,0.0,2023,6,7,15,45,19,538
44.51080,-0.08470,-0.04673,0.00000,0.03172,0.97795,-0.19081,0.0,2023,6,7,15,45,19,548
44.51090,-0.11970,-0.15173,0.00000,0.03001,0.97490,-0.19130,0.0,2023,6,7,15,45,19,558
44.51100,-0.08470,0.04077,0.00000,0.03013,0.97588,-0.19044,0.0,2023,6,7,15,45,19,568
44.51110,-0.03220,0.05827,0.00000,0.03026,0.97624,-0.19191,0.0,2023,6,7,15,45,19,578
44.51120,-0.01470,-0.18673,0.00000,0.03087,0.97368,-0.19191,0.0,2023,6,7,15,45,19,588
44.51130,-0.24220,-0.06423,0.00000,0.02977,0.97515,-0.19252,0.0,2023,6,7,15,45,19,598
44.51140,-0.06720,0.02327,0.00000,0.03172,0.97551,-0.19020,0.0,2023,6,7,15,45,19,608
44.51150,0.02030,-0.01173,0.00000,0.03111,0.97441,-0.18886,0.0,2023,6,7,15,45,19,618
44.51160,0.02030,-0.04673,0.00000,0.02989,0.97576,-0.19252,0.0,2023,6,7,15,45,19,628
44.51170,-0.04970,-0.08173,0.00000,0.03013,0.97734,-0.19203,0.0,2023,6,7,15,45,19,638
44.51180,0.00280,0.12827,0.00000,0.02891,0.97649,-0.19130,0.0,2023,6,7,15,45,19,648
44.51190,-0.01470,0.11077,0.00000,0.02867,0.97600,-0.18959,0.0,2023,6,7,15,45,19,658
44.51200,0.09030,0.07577,0.00000,0.02989,0.97454,-0.19227,0.0,2023,6,7,15,45,19,668
44.51210,0.09030,0.25077,0.00000,0.02757,0.97502,-0.19044,0.0,2023,6,7,15,45,19,678
44.51220,0.07280,0.26827,0.00000,0.02989,0.97551,-0.18886,0.0,2023,6,7,15,45,19,688
44.51230,-0.01470,-0.02923,0.00000,0.03038,0.97515,-0.19227,0.0,2023,6,7,15,45,19,698
44.51240,0.02030,-0.13423,0.00000,0.03026,0.97600,-0.19044,0.0,2023,6,7,15,45,19,708
44.51250,0.12530,-0.11673,0.00000,0.03221,0.97624,-0.18837,0.0,2023,6,7,15,45,19,718
44.51260,-0.10220,0.04077,0.00000,0.02879,0.97551,-0.19008,0.0,2023,6,7,15,45,19,728
44.51270,0.00280,0.18077,0.00000,0.02940,0.97417,-0.19093,0.0,2023,6,7,15,45,19,738
44.51280,0.02030,0.11077,0.00000,0.03209,0.97368,-0.19105,0.0,2023,6,7,15,45,19,748
44.51290,-0.01470,0.02327,0.00000,0.03074,0.97917,-0.18776,0.0,2023,6,7,15,45,19,758
44.51300,-0.03220,0.09327,0.00000,0.03087,0.97771,-0.19166,0.0,2023,6,7,15,45,19,768
44.51310,0.05530,0.14577,0.00000,0.03038,0.97783,-0.19154,0.0,2023,6,7,15,45,19,778
44.51320,0.02030,0.07577,0.00000,0.02965,0.97380,-0.19056,0.0,2023,6,7,15,45,19,788
44.51330,0.00280,0.07577,0.00000,0.03062,0.97746,-0.19105,0.0,2023,6,7,15,45,19,798
44.51340,-0.04970,0.19827,0.00000,0.02989,0.97722,-0.19117,0.0,2023,6,7,15,45,19,808
44.51350,-0.11970,-0.02923,0.00000,0.03001,0.97576,-0.19008,0.0,2023,6,7,15,45,19,818
44.51360,0.02030,0.05827,0.00000,0.03074,0.97637,-0.19032,0.0,2023,6,7,15,45,19,828
44.51370,0.07280,0.00577,0.00000,0.03172,0.97441,-0.19435,0.0,2023,6,7,15,45,19,838
44.51380,-0.01470,-0.06423,0.00000,0.02830,0.97563,-0.18971,0.0,2023,6,7,15,45,19,848
44.51390,-0.08470,0.18077,0.00000,0.02965,0.97490,-0.18934,0.0,2023,6,7,15,45,19,858
44.51400,0.00280,0.07577,0.00000,0.02977,0.97454,-0.19215,0.0,2023,6,7,15,45,20,868
44.51410,0.09030,0.21577,0.00000,0.03001,0.97661,-0.19264,0.0,2023,6,7,15,45,20,878
44.51420,-0.01470,-0.23923,0.00000,0.02745,0.97698,-0.19008,0.0,2023,6,7,15,45,20,888
44.51430,0.10780,-0.15173,0.00000,0.03087,0.97393,-0.18983,0.0,2023,6,7,15,45,20,898
44.51440,0.24780,-0.23923,0.00000,0.03172,0.97563,-0.19191,0.0,2023,6,7,15,45,20,908
44.51450,0.02030,-0.09923,0.00000,0.03209,0.97710,-0.19069,0.0,2023,6,7,15,45,20,918
44.51460,0.05530,-0.01173,0.00000,0.02733,0.97600,-0.19032,0.0,2023,6,7,15,45,20,928
44.51470,-0.04970,0.04077,0.00000,0.02952,0.97624,-0.19215,0.0,2023,6,7,15,45,20,938
44.51480,-0.01470,-0.13423,0.00000,0.03221,0.97332,-0.18886,0.0,2023,6,7,15,45,20,948
44.51490,0.24780,-0.13423,0.00000,0.03050,0.97515,-0.19252,0.0,2023,6,7,15,45,20,958
44.51500,0.00280,-0.04673,0.00000,0.03087,0.97710,-0.19215,0.0,2023,6,7,15,45,20,968
44.51510,0.16030,-0.01173,0.00000,0.02928,0.97441,-0.19435,0.0,2023,6,7,15,45,20,978
44.51520,-0.06720,-0.02923,0.00000,0.02977,0.97600,-0.19300,0.0,2023,6,7,15,45,20,988
44.51530,0.00280,-0.02923,0.00000,0.02952,0.97637,-0.18788,0.0,2023,6,7,15,45,20,998
44.51540,0.14280,-0.09923,0.00000,0.03196,0.97563,-0.18959,0.0,2023,6,7,15,45,20,8
44.51550,0.07280,-0.02923,0.00000,0.02904,0.97527,-0.19081,0.0,2023,6,7,15,45,20,18
44.51560,-0.06720,-0.22173,0.00000,0.02928,0.97368,-0.18947,0.0,2023,6,7,15,45,20,28
44.51570,-0.10220,0.14577,0.00000,0.03209,0.97429,-0.19227,0.0,2023,6,7,15,45,20,38
44.51580,0.00280,0.07577,0.00000,0.03001,0.97832,-0.19337,0.0,2023,6,7,15,45,20,48
44.51590,0.00280,-0.08173,0.00000,0.02940,0.97710,-0.19154,0.0,2023,6,7,15,45,20,58
44.51600,0.09030,0.07577,0.00000,0.03050,0.97612,-0.19239,0.0,2023,6,7,15,45,20,68
44.51610,-0.08470,-0.02923,0.00000,0.02916,0.97588,-0.19483,0.0,2023,6,7,15,45,20,78
44.51620,0.03780,-0.01173,0.00000,0.03038,0.97539,-0.19239,0.0,2023,6,7,15,45,20,88
44.51630,0.10780,-0.08173,0.00000,0.02769,0.97295,-0.19154,0.0,2023,6,7,15,45,20,98
44.51640,0.16030,0.05827,0.00000,0.02769,0.97417,-0.19130,0.0,2023,6,7,15,45,20,108
44.51650,-0.01470,0.05827,0.00000,0.03123,0.97649,-0.19093,0.0,2023,6,7,15,45,20,118
44.51660,0.10780,-0.02923,0.00000,0.03001,0.97807,-0.19471,0.0,2023,6,7,15,45,20,128
44.51670,-0.10220,0.12827,0.00000,0.02830,0.97649,-0.19191,0.0,2023,6,7,15,45,20,138
44.51680,-0.20720,0.14577,0.00000,0.03062,0.97502,-0.18971,0.0,2023,6,7,15,45,20,148
44.51690,0.03780,-0.02923,0.00000,0.03196,0.97624,-0.19361,0.0,2023,6,7,15,45,20,158
44.51700,-0.04970,-0.16923,0.00000,0.02891,0.97929,-0.18983,0.0,2023,6,7,15,45,20,168
44.51710,0.03780,0.14577,0.00000,0.02855,0.97539,-0.19130,0.0,2023,6,7,15,45,20,178
44.51720,0.00280,-0.11673,0.00000,0.02867,0.97246,-0.19142,0.0,2023,6,7,15,45,20,188
44.51730,0.02030,-0.09923,0.00000,0.03074,0.97710,-0.19020,0.0,2023,6,7,15,45,20,198
44.51740,0.02030,-0.01173,0.00000,0.03245,0.97478,-0.19056,0.0,2023,6,7,15,45,20,208
44.51750,-0.01470,0.02327,0.00000,0.02818,0.97600,-0.19276,0.0,2023,6,7,15,45,20,218
44.51760,0.10780,0.07577,0.00000,0.03074,0.97759,-0.19374,0.0,2023,6,7,15,45,20,228
44.51770,-0.03220,-0.01173,0.00000,0.02782,0.97515,-0.19142,0.0,2023,6,7,15,45,20,238
44.51780,0.00280,-0.20423,0.00000,0.03270,0.97527,-0.19239,0.0,2023,6,7,15,45,20,248
44.51790,-0.03220,-0.09923,0.00000,0.02867,0.97637,-0.19215,0.0,2023,6,7,15,45,20,258
44.51800,-0.08470,0.09327,0.00000,0.02965,0.97661,-0.19117,0.0,2023,6,7,15,45,20,268
44.51810,-0.04970,0.11077,0.00000,0.02989,0.97515,-0.19313,0.0,2023,6,7,15,45,20,278
44.51820,-0.18970,0.02327,0.00000,0.03026,0.97417,-0.19203,0.0,2023,6,7,15,45,20,288
44.51830,-0.08470,-0.01173,0.00000,0.03245,0.97515,-0.19166,0.0,2023,6,7,15,45,20,298
44.51840,0.21280,-0.20423,0.00000,0.03013,0.97649,-0.19276,0.0,2023,6,7,15,45,20,308
44.51850,-0.18970,0.11077,0.00000,0.02928,0.97746,-0.19300,0.0,2023,6,7,15,45,20,318
44.51860,-0.03220,0.07577,0.00000,0.02916,0.97722,-0.19178,0.0,2023,6,7,15,45,20,328
44.51870,-0.04970,0.04077,0.00000,0.03026,0.97661,-0.19313,0.0,2023,6,7,15,45,20,338
44.51880,-0.18970,0.11077,0.00000,0.03099,0.97649,-0.19410,0.0,2023,6,7,15,45,20,348
44.51890,-0.04970,-0.01173,0.00000,0.03026,0.97454,-0.19142,0.0,2023,6,7,15,45,20,358
44.51900,-0.06720,0.00577,0.00000,0.02989,0.97515,-0.19191,0.0,2023,6,7,15,45,20,368
44.51910,-0.03220,-0.06423,0.00000,0.02855,0.97734,-0.19300,0.0,2023,6,7,15,45,20,378
44.51920,0.07280,0.00577,0.00000,0.03160,0.97588,-0.18873,0.0,2023,6,7,15,45,20,388
44.51930,0.03780,0.09327,0.00000,0.03123,0.97441,-0.19203,0.0,2023,6,7,15,45,20,398
44.51940,0.07280,-0.09923,0.00000,0.03087,0.97612,-0.19203,0.0,2023,6,7,15,45,20,408
44.51950,-0.13720,-0.36173,0.00000,0.03209,0.97539,-0.19398,0.0,2023,6,7,15,45,20,418
44.51960,0.05530,0.00577,0.00000,0.02867,0.97722,-0.19300,0.0,2023,6,7,15,45,20,428
44.51970,-0.11970,0.05827,0.00000,0.02904,0.97515,-0.19166,0.0,2023,6,7,15,45,20,438
44.51980,-0.11970,0.05827,0.00000,0.02965,0.97393,-0.19105,0.0,2023,6,7,15,45,20,448
44.51990,-0.04970,-0.02923,0.00000,0.03184,0.97515,-0.19215,0.0,2023,6,7,15,45,20,458
44.52000,-0.03220,0.11077,0.00000,0.02916,0.97661,-0.19361,0.0,2023,6,7,15,45,20,468
44.52010,0.16030,-0.04673,0.00000,0.03050,0.97551,-0.19020,0.0,2023,6,7,15,45,20,478
44.52020,0.17780,-0.06423,0.00000,0.03038,0.97807,-0.18983,0.0,2023,6,7,15,45,20,488
44.52030,0.03780,0.23327,0.00000,0.02916,0.97441,-0.19056,0.0,2023,6,7,15,45,20,498
44.52040,0.17780,0.05827,0.00000,0.03123,0.97746,-0.19178,0.0,2023,6,7,15,45,20,508
44.52050,0.09030,-0.13423,0.00000,0.02916,0.97612,-0.18873,0.0,2023,6,7,15,45,20,518
44.52060,0.16030,-0.02923,0.00000,0.02977,0.97454,-0.19520,0.0,2023,6,7,15,45,20,528
44.52070,-0.11970,-0.08173,0.00000,0.02965,0.97820,-0.19239,0.0,2023,6,7,15,45,20,538
44.52080,-0.10220,0.07577,0.00000,0.03123,0.97734,-0.19349,0.0,2023,6,7,15,45,20,548
44.52090,0.24780,0.02327,0.00000,0.03001,0.97515,-0.19496,0.0,2023,6,7,15,45,20,558
44.52100,-0.04970,0.02327,0.00000,0.03074,0.97551,-0.18922,0.0,2023,6,7,15,45,20,568
44.52110,-0.01470,0.00577,0.00000,0.03038,0.97673,-0.19203,0.0,2023,6,7,15,45,20,578
44.52120,0.03780,-0.11673,0.00000,0.02891,0.97820,-0.19081,0.0,2023,6,7,15,45,20,588
44.52130,0.16030,-0.01173,0.00000,0.03013,0.97502,-0.19313,0.0,2023,6,7,15,45,20,598
44.52140,-0.18970,-0.06423,0.00000,0.03050,0.97649,-0.19288,0.0,2023,6,7,15,45,20,608
44.52150,-0.13720,0.05827,0.00000,0.03074,0.97515,-0.19203,0.0,2023,6,7,15,45,20,618
44.52160,0.07280,-0.01173,0.00000,0.03050,0.97649,-0.19154,0.0,2023,6,7,15,45,20,628
44.52170,0.09030,0.00577,0.00000,0.03001,0.97612,-0.19166,0.0,2023,6,7,15,45,20,638
44.52180,0.10780,0.02327,0.00000,0.03111,0.97527,-0.19239,0.0,2023,6,7,15,45,20,648
44.52190,0.02030,-0.02923,0.00000,0.03050,0.97454,-0.19496,0.0,2023,6,7,15,45,20,658
44.52200,0.07280,-0.08173,0.00000,0.03026,0.97502,-0.19337,0.0,2023,6,7,15,45,20,668
44.52210,0.10780,-0.09923,0.00000,0.03270,0.97478,-0.18995,0.0,2023,6,7,15,45,20,678
44.52220,0.00280,-0.22173,0.00000,0.02952,0.97539,-0.19154,0.0,2023,6,7,15,45,20,688
44.52230,0.05530,0.09327,0.00000,0.02879,0.97576,-0.19337,0.0,2023,6,7,15,45,20,698
44.52240,-0.08470,-0.25673,0.00000,0.02965,0.97612,-0.19117,0.0,2023,6,7,15,45,20,708
44.52250,0.07280,-0.08173,0.00000,0.03135,0.97685,-0.19239,0.0,2023,6,7,15,45,20,718
44.52260,0.03780,-0.27423,0.00000,0.03257,0.97490,-0.19093,0.0,2023,6,7,15,45,20,728
44.52270,0.00280,0.14577,0.00000,0.03038,0.97307,-0.19130,0.0,2023,6,7,15,45,20,738
44.52280,-0.10220,-0.02923,0.00000,0.03087,0.97600,-0.19276,0.0,2023,6,7,15,45,20,748
44.52290,-0.08470,0.14577,0.00000,0.03038,0.97612,-0.19313,0.0,2023,6,7,15,45,20,758
44.52300,-0.10220,-0.16923,0.00000,0.02952,0.97746,-0.19435,0.0,2023,6,7,15,45,20,768
44.52310,-0.03220,-0.06423,0.00000,0.02843,0.97441,-0.19337,0.0,2023,6,7,15,45,20,778
44.52320,-0.01470,0.04077,0.00000,0.03074,0.97637,-0.19252,0.0,2023,6,7,15,45,20,788
44.52330,0.07280,0.07577,0.00000,0.03123,0.97783,-0.19032,0.0,2023,6,7,15,45,20,798
44.52340,0.02030,-0.27423,0.00000,0.03038,0.97466,-0.19239,0.0,2023,6,7,15,45,20,808
44.52350,0.14280,-0.06423,0.00000,0.03111,0.97685,-0.19276,0.0,2023,6,7,15,45,20,818
44.52360,-0.01470,-0.13423,0.00000,0.02928,0.97588,-0.19435,0.0,2023,6,7,15,45,20,828
44.52370,0.07280,-0.09923,0.00000,0.03111,0.97380,-0.19361,0.0,2023,6,7,15,45,20,838
44.52380,-0.08470,-0.01173,0.00000,0.02940,0.97685,-0.19361,0.0,2023,6,7,15,45,20,848
44.52390,0.12530,-0.30923,0.00000,0.03013,0.97405,-0.19313,0.0,2023,6,7,15,45,20,858
44.52400,-0.04970,0.00577,0.00000,0.03074,0.97563,-0.19386,0.0,2023,6,7,15,45,20,868
44.52410,0.00280,-0.13423,0.00000,0.02879,0.97515,-0.19288,0.0,2023,6,7,15,45,20,878
44.52420,0.19530,-0.09923,0.00000,0.02904,0.97515,-0.19020,0.0,2023,6,7,15,45,20,888
44.52430,0.12530,0.02327,0.00000,0.03062,0.97466,-0.19325,0.0,2023,6,7,15,45,20,898
44.52440,0.12530,0.09327,0.00000,0.02952,0.97734,-0.19264,0.0,2023,6,7,15,45,20,908
44.52450,0.05530,-0.30923,0.00000,0.03209,0.97637,-0.19337,0.0,2023,6,7,15,45,20,918
44.52460,-0.04970,0.05827,0.00000,0.03038,0.97417,-0.19117,0.0,2023,6,7,15,45,20,928
44.52470,-0.04970,-0.04673,0.00000,0.02952,0.97563,-0.19166,0.0,2023,6,7,15,45,20,938
44.52480,0.02030,-0.02923,0.00000,0.03160,0.97624,-0.19325,0.0,2023,6,7,15,45,20,948
44.52490,-0.08470,-0.18673,0.00000,0.02782,0.97795,-0.19191,0.0,2023,6,7,15,45,20,958
44.52500,0.00280,-0.11673,0.00000,0.03148,0.97515,-0.19410,0.0,2023,6,7,15,45,20,968
44.52510,0.10780,-0.08173,0.00000,0.02965,0.97588,-0.19422,0.0,2023,6,7,15,45,20,978
44.52520,0.07280,-0.01173,0.00000,0.02965,0.97612,-0.19386,0.0,2023,6,7,15,45,20,988
44.52530,-0.06720,-0.01173,0.00000,0.03050,0.97380,-0.19361,0.0,2023,6,7,15,45,20,998
44.52540,0.02030,0.02327,0.00000,0.02879,0.97417,-0.19044,0.0,2023,6,7,15,45,20,8
44.52550,-0.04970,0.25077,0.00000,0.03148,0.97710,-0.19313,0.0,2023,6,7,15,45,20,18
44.52560,-0.08470,0.07577,0.00000,0.03074,0.97466,-0.19203,0.0,2023,6,7,15,45,20,28
44.52570,-0.06720,-0.01173,0.00000,0.03050,0.97612,-0.19313,0.0,2023,6,7,15,45,20,38
44.52580,0.02030,0.07577,0.00000,0.02891,0.97746,-0.19105,0.0,2023,6,7,15,45,20,48
44.52590,-0.24220,0.04077,0.00000,0.03099,0.97515,-0.19386,0.0,2023,6,7,15,45,20,58
44.52600,0.23030,0.07577,0.00000,0.03074,0.97734,-0.19032,0.0,2023,6,7,15,45,20,68
44.52610,-0.03220,-0.09923,0.00000,0.02989,0.97637,-0.19154,0.0,2023,6,7,15,45,20,78
44.52620,-0.01470,0.04077,0.00000,0.02989,0.97624,-0.19093,0.0,2023,6,7,15,45,20,88
44.52630,0.09030,0.04077,0.00000,0.02928,0.97612,-0.19337,0.0,2023,6,7,15,45,20,98
44.52640,-0.10220,0.11077,0.00000,0.03074,0.97551,-0.19081,0.0,2023,6,7,15,45,20,108
44.52650,-0.01470,0.18077,0.00000,0.02879,0.97368,-0.19044,0.0,2023,6,7,15,45,20,118
44.52660,0.10780,0.18077,0.00000,0.02989,0.97771,-0.19252,0.0,2023,6,7,15,45,20,128
44.52670,-0.01470,-0.22173,0.00000,0.02989,0.97563,-0.19105,0.0,2023,6,7,15,45,20,138
44.52680,-0.01470,0.07577,0.00000,0.03148,0.97820,-0.18983,0.0,2023,6,7,15,45,20,148
44.52690,0.12530,-0.09923,0.00000,0.02891,0.97710,-0.19337,0.0,2023,6,7,15,45,20,158
44.52700,-0.18970,0.16327,0.00000,0.02867,0.97795,-0.19154,0.0,2023,6,7,15,45,20,168
44.52710,0.00280,-0.11673,0.00000,0.02757,0.97600,-0.19117,0.0,2023,6,7,15,45,20,178
44.52720,0.02030,-0.04673,0.00000,0.03123,0.97563,-0.19008,0.0,2023,6,7,15,45,20,188
44.52730,-0.17220,-0.09923,0.00000,0.03013,0.97600,-0.19105,0.0,2023,6,7,15,45,20,198
44.52740,0.07280,0.14577,0.00000,0.03087,0.97600,-0.19093,0.0,2023,6,7,15,45,20,208
44.52750,0.12530,0.02327,0.00000,0.02867,0.97588,-0.19191,0.0,2023,6,7,15,45,20,218
44.52760,0.02030,0.12827,0.00000,0.03001,0.97783,-0.19264,0.0,2023,6,7,15,45,20,228
44.52770,-0.04970,0.05827,0.00000,0.02904,0.97454,-0.19166,0.0,2023,6,7,15,45,20,238
44.52780,0.00280,-0.06423,0.00000,0.03087,0.97624,-0.19056,0.0,2023,6,7,15,45,20,248
44.52790,0.00280,-0.11673,0.00000,0.03196,0.97698,-0.19361,0.0,2023,6,7,15,45,20,258
44.52800,-0.04970,-0.13423,0.00000,0.03184,0.97698,-0.19215,0.0,2023,6,7,15,45,20,268
44.52810,0.02030,0.02327,0.00000,0.03209,0.97454,-0.19239,0.0,2023,6,7,15,45,20,278
44.52820,0.02030,-0.23923,0.00000,0.03111,0.97515,-0.19130,0.0,2023,6,7,15,45,20,288
44.52830,-0.04970,0.00577,0.00000,0.03123,0.97502,-0.19300,0.0,2023,6,7,15,45,20,298
44.52840,0.14280,0.25077,0.00000,0.03050,0.97515,-0.19215,0.0,2023,6,7,15,45,20,308
44.52850,0.02030,-0.20423,0.00000,0.03062,0.97441,-0.19300,0.0,2023,6,7,15,45,20,318
44.52860,0.05530,0.37327,0.00000,0.02965,0.97417,-0.18910,0.0,2023,6,7,15,45,20,328
44.52870,0.21280,-0.18673,0.00000,0.02855,0.97600,-0.19215,0.0,2023,6,7,15,45,20,338
44.52880,0.14280,0.02327,0.00000,0.03013,0.97368,-0.19105,0.0,2023,6,7,15,45,20,348
44.52890,0.09030,0.14577,0.00000,0.03172,0.97454,-0.18873,0.0,2023,6,7,15,45,20,358
44.52900,-0.06720,0.04077,0.00000,0.02965,0.97649,-0.19215,0.0,2023,6,7,15,45,20,368
44.52910,0.12530,0.05827,0.00000,0.03050,0.97466,-0.19435,0.0,2023,6,7,15,45,20,378
44.52920,0.05530,0.05827,0.00000,0.03221,0.97661,-0.19081,0.0,2023,6,7,15,45,20,388
44.52930,0.05530,0.02327,0.00000,0.03184,0.97295,-0.19166,0.0,2023,6,7,15,45,20,398
44.52940,0.02030,0.16327,0.00000,0.03087,0.97563,-0.19154,0.0,2023,6,7,15,45,20,408
44.52950,0.02030,-0.13423,0.00000,0.03074,0.97698,-0.19056,0.0,2023,6,7,15,45,20,418
44.52960,0.10780,-0.18673,0.00000,0.02940,0.97588,-0.18837,0.0,2023,6,7,15,45,20,428
44.52970,-0.15470,0.14577,0.00000,0.02965,0.97600,-0.19142,0.0,2023,6,7,15,45,20,438
44.52980,0.00280,0.00577,0.00000,0.03050,0.97600,-0.19227,0.0,2023,6,7,15,45,20,448
44.52990,-0.18970,-0.01173,0.00000,0.03074,0.97722,-0.18727,0.0,2023,6,7,15,45,20,458
44.53000,-0.13720,-0.20423,0.00000,0.03050,0.97417,-0.19044,0.0,2023,6,7,15,45,20,468
44.53010,-0.04970,-0.25673,0.00000,0.02818,0.97771,-0.19276,0.0,2023,6,7,15,45,20,478
44.53020,-0.18970,0.05827,0.00000,0.03013,0.97722,-0.19008,0.0,2023,6,7,15,45,20,488
44.53030,-0.01470,-0.13423,0.00000,0.03026,0.97539,-0.19044,0.0,2023,6,7,15,45,20,498
44.53040,0.12530,-0.06423,0.00000,0.03172,0.97515,-0.19313,0.0,2023,6,7,15,45,20,508
44.53050,-0.15470,0.07577,0.00000,0.03026,0.97856,-0.19276,0.0,2023,6,7,15,45,20,518
44.53060,0.02030,0.00577,0.00000,0.02977,0.97624,-0.19203,0.0,2023,6,7,15,45,20,528
44.53070,0.17780,0.00577,0.00000,0.02952,0.97673,-0.19288,0.0,2023,6,7,15,45,20,538
44.53080,-0.03220,-0.04673,0.00000,0.03062,0.97637,-0.19300,0.0,2023,6,7,15,45,20,548
44.53090,0.16030,0.00577,0.00000,0.03111,0.97356,-0.19447,0.0,2023,6,7,15,45,20,558
44.53100,0.00280,-0.08173,0.00000,0.03160,0.97710,-0.19264,0.0,2023,6,7,15,45,20,568
44.53110,-0.06720,-0.06423,0.00000,0.03050,0.97795,-0.19313,0.0,2023,6,7,15,45,20,578
44.53120,-0.13720,0.05827,0.00000,0.02867,0.97417,-0.19105,0.0,2023,6,7,15,45,20,588
44.53130,0.02030,0.07577,0.00000,0.03135,0.97698,-0.19203,0.0,2023,6,7,15,45,20,598
44.53140,-0.15470,0.05827,0.00000,0.02916,0.97746,-0.19398,0.0,2023,6,7,15,45,20,608
44.53150,0.09030,-0.09923,0.00000,0.03087,0.97673,-0.19264,0.0,2023,6,7,15,45,20,618
44.53160,-0.18970,-0.09923,0.00000,0.03221,0.97551,-0.19447,0.0,2023,6,7,15,45,20,628
44.53170,-0.11970,0.02327,0.00000,0.03001,0.97637,-0.19239,0.0,2023,6,7,15,45,20,638
44.53180,0.07280,0.07577,0.00000,0.03050,0.97527,-0.19081,0.0,2023,6,7,15,45,20,648
44.53190,-0.03220,-0.04673,0.00000,0.03087,0.97441,-0.19325,0.0,2023,6,7,15,45,20,658
44.53200,0.09030,-0.09923,0.00000,0.03074,0.97673,-0.19276,0.0,2023,6,7,15,45,20,668
44.53210,-0.15470,0.11077,0.00000,0.02806,0.97502,-0.19239,0.0,2023,6,7,15,45,20,678
44.53220,-0.24220,0.09327,0.00000,0.02769,0.97539,-0.19093,0.0,2023,6,7,15,45,20,688
44.53230,0.02030,-0.16923,0.00000,0.02928,0.97393,-0.19239,0.0,2023,6,7,15,45,20,698
44.53240,-0.13720,0.16327,0.00000,0.03087,0.97576,-0.19276,0.0,2023,6,7,15,45,20,708
44.53250,0.14280,0.02327,0.00000,0.02916,0.97441,-0.19081,0.0,2023,6,7,15,45,20,718
44.53260,-0.06720,0.05827,0.00000,0.02989,0.97624,-0.19239,0.0,2023,6,7,15,45,20,728
44.53270,-0.10220,0.12827,0.00000,0.02769,0.97539,-0.19166,0.0,2023,6,7,15,45,20,738
44.53280,-0.11970,-0.08173,0.00000,0.03026,0.97466,-0.18800,0.0,2023,6,7,15,45,20,748
44.53290,0.09030,0.30327,0.00000,0.03050,0.97368,-0.19178,0.0,2023,6,7,15,45,20,758
44.53300,0.16030,-0.11673,0.00000,0.03074,0.97466,-0.19044,0.0,2023,6,7,15,45,20,768
44.53310,-0.04970,0.04077,0.00000,0.03184,0.97356,-0.19276,0.0,2023,6,7,15,45,20,778
44.53320,-0.10220,0.07577,0.00000,0.03123,0.97673,-0.19203,0.0,2023,6,7,15,45,20,788
44.53330,0.05530,-0.16923,0.00000,0.02904,0.97612,-0.19154,0.0,2023,6,7,15,45,20,798
44.53340,-0.11970,0.11077,0.00000,0.03123,0.97490,-0.19325,0.0,2023,6,7,15,45,20,808
44.53350,-0.10220,-0.02923,0.00000,0.03087,0.97271,-0.19117,0.0,2023,6,7,15,45,20,818
44.53360,0.05530,-0.02923,0.00000,0.02928,0.97746,-0.19300,0.0,2023,6,7,15,45,20,828
44.53370,0.02030,0.05827,0.00000,0.03050,0.97576,-0.19069,0.0,2023,6,7,15,45,20,838
44.53380,-0.08470,-0.22173,0.00000,0.03257,0.97649,-0.19081,0.0,2023,6,7,15,45,20,848
44.53390,0.03780,-0.20423,0.00000,0.02965,0.97759,-0.19252,0.0,2023,6,7,15,45,20,858
44.53400,0.05530,-0.02923,0.00000,0.03123,0.97454,-0.19239,0.0,2023,6,7,15,45,20,868
44.53410,0.02030,0.04077,0.00000,0.02818,0.97734,-0.19215,0.0,2023,6,7,15,45,20,878
44.53420,-0.03220,-0.18673,0.00000,0.03099,0.97734,-0.19300,0.0,2023,6,7,15,45,20,888
44.53430,0.02030,-0.09923,0.00000,0.02879,0.97551,-0.19130,0.0,2023,6,7,15,45,20,898
44.53440,-0.01470,0.11077,0.00000,0.03074,0.97783,-0.19093,0.0,2023,6,7,15,45,20,908
44.53450,-0.10220,-0.09923,0.00000,0.03172,0.97502,-0.19349,0.0,2023,6,7,15,45,20,918
44.53460,0.05530,-0.13423,0.00000,0.03172,0.97612,-0.19276,0.0,2023,6,7,15,45,20,928
44.53470,0.07280,-0.15173,0.00000,0.03111,0.97759,-0.19459,0.0,2023,6,7,15,45,20,938
44.53480,-0.06720,0.16327,0.00000,0.03209,0.97685,-0.19288,0.0,2023,6,7,15,45,20,948
44.53490,0.24780,-0.34423,0.00000,0.02830,0.97759,-0.19117,0.0,2023,6,7,15,45,20,958
44.53500,-0.01470,0.19827,0.00000,0.03050,0.97515,-0.19483,0.0,2023,6,7,15,45,20,968
44.53510,-0.03220,0.04077,0.00000,0.03160,0.97698,-0.19252,0.0,2023,6,7,15,45,20,978
44.53520,0.03780,-0.02923,0.00000,0.02928,0.97405,-0.19166,0.0,2023,6,7,15,45,20,988
44.53530,-0.06720,-0.04673,0.00000,0.03111,0.97368,-0.19069,0.0,2023,6,7,15,45,20,998
44.53540,-0.04970,0.02327,0.00000,0.02916,0.97685,-0.19264,0.0,2023,6,7,15,45,20,8
44.53550,0.00280,-0.01173,0.00000,0.03038,0.97539,-0.19093,0.0,2023,6,7,15,45,20,18
44.53560,0.07280,-0.02923,0.00000,0.02757,0.97600,-0.19227,0.0,2023,6,7,15,45,20,28
44.53570,-0.11970,0.14577,0.00000,0.02891,0.97307,-0.19191,0.0,2023,6,7,15,45,20,38
44.53580,0.05530,-0.01173,0.00000,0.03013,0.97527,-0.19496,0.0,2023,6,7,15,45,20,48
44.53590,0.07280,-0.02923,0.00000,0.02916,0.97393,-0.19154,0.0,2023,6,7,15,45,20,58
44.53600,0.03780,-0.02923,0.00000,0.02928,0.97783,-0.19239,0.0,2023,6,7,15,45,20,68
44.53610,0.10780,-0.09923,0.00000,0.02843,0.97673,-0.19154,0.0,2023,6,7,15,45,20,78
44.53620,0.16030,0.05827,0.00000,0.03135,0.97441,-0.19093,0.0,2023,6,7,15,45,20,88
44.53630,-0.01470,0.04077,0.00000,0.03148,0.97136,-0.19069,0.0,2023,6,7,15,45,20,98
44.53640,0.14280,-0.15173,0.00000,0.02989,0.97393,-0.19374,0.0,2023,6,7,15,45,20,108
44.53650,-0.10220,0.05827,0.00000,0.02806,0.97515,-0.19081,0.0,2023,6,7,15,45,20,118
44.53660,-0.06720,0.00577,0.00000,0.02916,0.97478,-0.19300,0.0,2023,6,7,15,45,20,128
44.53670,0.16030,0.09327,0.00000,0.02782,0.97551,-0.19154,0.0,2023,6,7,15,45,20,138
44.53680,0.03780,-0.22173,0.00000,0.02818,0.97539,-0.19117,0.0,2023,6,7,15,45,20,148
44.53690,-0.13720,0.05827,0.00000,0.03087,0.97344,-0.19459,0.0,2023,6,7,15,45,20,158
44.53700,0.00280,-0.06423,0.00000,0.03038,0.97649,-0.19300,0.0,2023,6,7,15,45,20,168
44.53710,-0.04970,-0.01173,0.00000,0.03196,0.97600,-0.19252,0.0,2023,6,7,15,45,21,178
44.53720,0.03780,0.00577,0.00000,0.03160,0.97197,-0.18983,0.0,2023,6,7,15,45,21,188
44.53730,0.07280,0.07577,0.00000,0.03062,0.97600,-0.19191,0.0,2023,6,7,15,45,21,198
44.53740,-0.06720,0.04077,0.00000,0.03001,0.97576,-0.19044,0.0,2023,6,7,15,45,21,208
44.53750,-0.08470,0.12827,0.00000,0.02952,0.97624,-0.19044,0.0,2023,6,7,15,45,21,218
44.53760,0.10780,0.02327,0.00000,0.02965,0.97746,-0.19483,0.0,2023,6,7,15,45,21,228
44.53770,-0.03220,-0.23923,0.00000,0.02855,0.97698,-0.19313,0.0,2023,6,7,15,45,21,238
44.53780,-0.01470,0.09327,0.00000,0.02855,0.97222,-0.19093,0.0,2023,6,7,15,45,21,248
44.53790,0.10780,-0.22173,0.00000,0.03087,0.97466,-0.19288,0.0,2023,6,7,15,45,21,258
44.53800,0.14280,-0.16923,0.00000,0.02952,0.97478,-0.19154,0.0,2023,6,7,15,45,21,268
44.53810,-0.04970,0.18077,0.00000,0.03160,0.97710,-0.18910,0.0,2023,6,7,15,45,21,278
44.53820,0.00280,-0.27423,0.00000,0.03050,0.97576,-0.19020,0.0,2023,6,7,15,45,21,288
44.53830,0.07280,-0.02923,0.00000,0.02928,0.97551,-0.19239,0.0,2023,6,7,15,45,21,298
44.53840,0.05530,-0.04673,0.00000,0.02818,0.97441,-0.19020,0.0,2023,6,7,15,45,21,308
44.53850,-0.06720,-0.08173,0.00000,0.03013,0.97746,-0.19178,0.0,2023,6,7,15,45,21,318
44.53860,0.12530,0.07577,0.00000,0.03013,0.97319,-0.19044,0.0,2023,6,7,15,45,21,328
44.53870,0.12530,-0.11673,0.00000,0.02867,0.97356,-0.19191,0.0,2023,6,7,15,45,21,338
44.53880,0.09030,-0.15173,0.00000,0.03074,0.97698,-0.19276,0.0,2023,6,7,15,45,21,348
44.53890,-0.06720,0.04077,0.00000,0.02952,0.97515,-0.19069,0.0,2023,6,7,15,45,21,358
44.53900,0.09030,0.02327,0.00000,0.02757,0.97356,-0.19142,0.0,2023,6,7,15,45,21,368
44.53910,-0.04970,0.19827,0.00000,0.02952,0.97807,-0.19178,0.0,2023,6,7,15,45,21,378
44.53920,-0.04970,-0.02923,0.00000,0.03026,0.97661,-0.19130,0.0,2023,6,7,15,45,21,388
44.53930,-0.10220,0.04077,0.00000,0.02891,0.97490,-0.19166,0.0,2023,6,7,15,45,21,398
44.53940,-0.01470,0.11077,0.00000,0.02891,0.97649,-0.19300,0.0,2023,6,7,15,45,21,408
44.53950,-0.03220,-0.02923,0.00000,0.02989,0.97405,-0.19191,0.0,2023,6,7,15,45,21,418
44.53960,-0.11970,0.05827,0.00000,0.03026,0.97600,-0.19056,0.0,2023,6,7,15,45,21,428
44.53970,-0.18970,-0.01173,0.00000,0.02794,0.97685,-0.19398,0.0,2023,6,7,15,45,21,438
44.53980,0.09030,-0.06423,0.00000,0.03148,0.97588,-0.19386,0.0,2023,6,7,15,45,21,448
44.53990,0.00280,-0.06423,0.00000,0.03233,0.97478,-0.19410,0.0,2023,6,7,15,45,21,458
44.54000,-0.01470,0.00577,0.00000,0.03160,0.97515,-0.19056,0.0,2023,6,7,15,45,21,468
44.54010,-0.03220,0.02327,0.00000,0.03026,0.97832,-0.19398,0.0,2023,6,7,15,45,21,478
44.54020,0.03780,-0.06423,0.00000,0.02916,0.97454,-0.19117,0.0,2023,6,7,15,45,21,488
44.54030,0.05530,0.09327,0.00000,0.03148,0.97600,-0.19337,0.0,2023,6,7,15,45,21,498
44.54040,0.05530,0.09327,0.00000,0.03050,0.97417,-0.19215,0.0,2023,6,7,15,45,21,508
44.54050,-0.03220,-0.08173,0.00000,0.02879,0.97673,-0.19105,0.0,2023,6,7,15,45,21,518
44.54060,-0.03220,0.02327,0.00000,0.03038,0.97661,-0.19288,0.0,2023,6,7,15,45,21,528
44.54070,0.16030,-0.23923,0.00000,0.02855,0.97624,-0.19264,0.0,2023,6,7,15,45,21,538
44.54080,0.02030,0.12827,0.00000,0.03013,0.97612,-0.19325,0.0,2023,6,7,15,45,21,548
44.54090,0.02030,-0.09923,0.00000,0.03013,0.97612,-0.19325,0.0,2023,6,7,15,45,21,558
44.54100,0.10780,-0.11673,0.00000,0.02904,0.97478,-0.19154,0.0,2023,6,7,15,45,21,568
44.54110,0.09030,-0.09923,0.00000,0.03245,0.97356,-0.19166,0.0,2023,6,7,15,45,21,578
44.54120,0.19530,-0.15173,0.00000,0.02977,0.97368,-0.19203,0.0,2023,6,7,15,45,21,588
44.54130,-0.03220,0.02327,0.00000,0.03001,0.97710,-0.19532,0.0,2023,6,7,15,45,21,598
44.54140,0.03780,0.00577,0.00000,0.02940,0.97771,-0.19483,0.0,2023,6,7,15,45,21,608
44.54150,0.07280,-0.02923,0.00000,0.03001,0.97649,-0.19349,0.0,2023,6,7,15,45,21,618
44.54160,0.09030,0.00577,0.00000,0.03111,0.97661,-0.19508,0.0,2023,6,7,15,45,21,628
44.54170,0.14280,-0.13423,0.00000,0.02891,0.97429,-0.19422,0.0,2023,6,7,15,45,21,638
44.54180,-0.08470,0.14577,0.00000,0.02928,0.97576,-0.19191,0.0,2023,6,7,15,45,21,648
44.54190,-0.04970,-0.01173,0.00000,0.03087,0.97600,-0.19349,0.0,2023,6,7,15,45,21,658
44.54200,-0.03220,0.16327,0.00000,0.02965,0.97685,-0.19313,0.0,2023,6,7,15,45,21,668
44.54210,-0.13720,0.14577,0.00000,0.03123,0.97759,-0.19239,0.0,2023,6,7,15,45,21,678
44.54220,0.14280,-0.08173,0.00000,0.02904,0.97600,-0.19239,0.0,2023,6,7,15,45,21,688
44.54230,0.07280,-0.08173,0.00000,0.03209,0.97393,-0.19056,0.0,2023,6,7,15,45,21,698
44.54240,0.05530,0.12827,0.00000,0.03306,0.97710,-0.19374,0.0,2023,6,7,15,45,21,708
44.54250,0.03780,0.04077,0.00000,0.02977,0.97576,-0.19081,0.0,2023,6,7,15,45,21,718
44.54260,-0.11970,-0.16923,0.00000,0.03074,0.97612,-0.19325,0.0,2023,6,7,15,45,21,728
44.54270,-0.04970,0.04077,0.00000,0.02965,0.97551,-0.19703,0.0,2023,6,7,15,45,21,738
44.54280,0.09030,-0.01173,0.00000,0.03099,0.97429,-0.19410,0.0,2023,6,7,15,45,21,748
44.54290,0.17780,-0.29173,0.00000,0.03160,0.97332,-0.19154,0.0,2023,6,7,15,45,21,758
44.54300,-0.01470,0.09327,0.00000,0.03282,0.97673,-0.19325,0.0,2023,6,7,15,45,21,768
44.54310,0.07280,-0.25673,0.00000,0.03111,0.97490,-0.19239,0.0,2023,6,7,15,45,21,778
44.54320,-0.03220,0.11077,0.00000,0.03209,0.97649,-0.19178,0.0,2023,6,7,15,45,21,788
44.54330,0.14280,0.09327,0.00000,0.02989,0.97624,-0.19520,0.0,2023,6,7,15,45,21,798
44.54340,-0.10220,-0.25673,0.00000,0.03184,0.97588,-0.19105,0.0,2023,6,7,15,45,21,808
44.54350,0.00280,0.05827,0.00000,0.02891,0.97588,-0.19191,0.0,2023,6,7,15,45,21,818
44.54360,-0.08470,-0.04673,0.00000,0.02830,0.97637,-0.19288,0.0,2023,6,7,15,45,21,828
44.54370,-0.08470,-0.25673,0.00000,0.03196,0.97551,-0.19300,0.0,2023,6,7,15,45,21,838
44.54380,-0.01470,-0.25673,0.00000,0.03135,0.97490,-0.19044,0.0,2023,6,7,15,45,21,848
44.54390,-0.03220,0.19827,0.00000,0.03123,0.97795,-0.19435,0.0,2023,6,7,15,45,21,858
44.54400,0.14280,-0.08173,0.00000,0.02855,0.97637,-0.19459,0.0,2023,6,7,15,45,21,868
44.54410,-0.03220,-0.22173,0.00000,0.03148,0.97356,-0.19227,0.0,2023,6,7,15,45,21,878
44.54420,-0.11970,0.09327,0.00000,0.03123,0.97600,-0.19020,0.0,2023,6,7,15,45,21,888
44.54430,0.02030,0.11077,0.00000,0.02769,0.97649,-0.19361,0.0,2023,6,7,15,45,21,898
44.54440,-0.13720,0.00577,0.00000,0.03135,0.97380,-0.19081,0.0,2023,6,7,15,45,21,908
44.54450,-0.10220,-0.18673,0.00000,0.03038,0.97649,-0.19130,0.0,2023,6,7,15,45,21,918
44.54460,0.14280,-0.08173,0.00000,0.03099,0.97710,-0.19227,0.0,2023,6,7,15,45,21,928
44.54470,-0.04970,-0.11673,0.00000,0.03013,0.97478,-0.19093,0.0,2023,6,7,15,45,21,938
44.54480,0.00280,0.02327,0.00000,0.03367,0.97685,-0.19203,0.0,2023,6,7,15,45,21,948
44.54490,-0.01470,-0.02923,0.00000,0.03074,0.97649,-0.19276,0.0,2023,6,7,15,45,21,958
44.54500,0.17780,-0.02923,0.00000,0.03160,0.97612,-0.19276,0.0,2023,6,7,15,45,21,968
44.54510,-0.08470,-0.09923,0.00000,0.02989,0.97624,-0.19252,0.0,2023,6,7,15,45,21,978
44.54520,0.02030,-0.02923,0.00000,0.02965,0.97478,-0.19227,0.0,2023,6,7,15,45,21,988
44.54530,-0.31220,-0.04673,0.00000,0.03196,0.97673,-0.19093,0.0,2023,6,7,15,45,21,998
44.54540,0.12530,0.12827,0.00000,0.03099,0.97600,-0.19154,0.0,2023,6,7,15,45,21,8
44.54550,-0.20720,0.18077,0.00000,0.03148,0.97624,-0.18959,0.0,2023,6,7,15,45,21,18
44.54560,-0.04970,0.18077,0.00000,0.02928,0.97527,-0.19069,0.0,2023,6,7,15,45,21,28
44.54570,-0.03220,-0.15173,0.00000,0.02818,0.97490,-0.19117,0.0,2023,6,7,15,45,21,38
44.54580,0.03780,0.00577,0.00000,0.03099,0.97698,-0.19166,0.0,2023,6,7,15,45,21,48
44.54590,-0.01470,-0.18673,0.00000,0.03087,0.97429,-0.19191,0.0,2023,6,7,15,45,21,58
44.54600,-0.17220,0.07577,0.00000,0.03123,0.97710,-0.19239,0.0,2023,6,7,15,45,21,68
44.54610,0.05530,0.05827,0.00000,0.03282,0.97612,-0.19288,0.0,2023,6,7,15,45,22,78
44.54620,0.00280,0.18077,0.00000,0.02757,0.97612,-0.19093,0.0,2023,6,7,15,45,22,88
44.54630,0.09030,0.00577,0.00000,0.03062,0.97685,-0.19300,0.0,2023,6,7,15,45,22,98
44.54640,0.12530,-0.02923,0.00000,0.03050,0.97527,-0.19642,0.0,2023,6,7,15,45,22,108
44.54650,-0.11970,-0.02923,0.00000,0.02977,0.97637,-0.19349,0.0,2023,6,7,15,45,22,118
44.54660,-0.06720,-0.02923,0.00000,0.03123,0.97612,-0.18995,0.0,2023,6,7,15,45,22,128
44.54670,0.05530,0.09327,0.00000,0.02977,0.97722,-0.19154,0.0,2023,6,7,15,45,22,138
44.54680,-0.04970,0.16327,0.00000,0.03038,0.97624,-0.19288,0.0,2023,6,7,15,45,22,148
44.54690,-0.10220,0.02327,0.00000,0.02916,0.97612,-0.19252,0.0,2023,6,7,15,45,22,158
44.54700,0.09030,0.07577,0.00000,0.03148,0.97746,-0.19264,0.0,2023,6,7,15,45,22,168
44.54710,-0.17220,-0.11673,0.00000,0.02891,0.97588,-0.19349,0.0,2023,6,7,15,45,22,178
44.54720,-0.10220,0.11077,0.00000,0.02977,0.97563,-0.19191,0.0,2023,6,7,15,45,22,188
44.54730,-0.04970,0.11077,0.00000,0.03123,0.97454,-0.19398,0.0,2023,6,7,15,45,22,198
44.54740,-0.03220,0.02327,0.00000,0.03001,0.97588,-0.19166,0.0,2023,6,7,15,45,22,208
44.54750,-0.13720,-0.15173,0.00000,0.03135,0.97759,-0.19252,0.0,2023,6,7,15,45,22,218
44.54760,0.05530,0.04077,0.00000,0.03074,0.97576,-0.19252,0.0,2023,6,7,15,45,22,228
44.54770,-0.08470,-0.13423,0.00000,0.03135,0.97551,-0.19069,0.0,2023,6,7,15,45,22,238
44.54780,-0.17220,0.26827,0.00000,0.03062,0.97551,-0.19142,0.0,2023,6,7,15,45,22,248
44.54790,-0.04970,-0.11673,0.00000,0.02769,0.97478,-0.19032,0.0,2023,6,7,15,45,22,258
44.54800,0.00280,0.09327,0.00000,0.02928,0.97197,-0.19081,0.0,2023,6,7,15,45,22,268
44.54810,0.02030,0.12827,0.00000,0.03062,0.97807,-0.19313,0.0,2023,6,7,15,45,22,278
44.54820,-0.01470,0.00577,0.00000,0.03135,0.97698,-0.19435,0.0,2023,6,7,15,45,22,288
44.54830,0.09030,0.05827,0.00000,0.03099,0.97576,-0.19154,0.0,2023,6,7,15,45,22,298
44.54840,-0.03220,0.19827,0.00000,0.02904,0.97515,-0.19605,0.0,2023,6,7,15,45,22,308
44.54850,-0.03220,0.04077,0.00000,0.02928,0.97551,-0.19508,0.0,2023,6,7,15,45,22,318
44.54860,0.14280,-0.08173,0.00000,0.02782,0.97551,-0.19203,0.0,2023,6,7,15,45,22,328
44.54870,0.12530,0.00577,0.00000,0.02769,0.97490,-0.19166,0.0,2023,6,7,15,45,22,338
44.54880,0.03780,0.00577,0.00000,0.02904,0.97661,-0.19142,0.0,2023,6,7,15,45,22,348
44.54890,-0.10220,0.14577,0.00000,0.03013,0.97637,-0.19252,0.0,2023,6,7,15,45,22,358
44.54900,0.00280,0.02327,0.00000,0.03001,0.97588,-0.19496,0.0,2023,6,7,15,45,22,368
44.54910,-0.17220,0.04077,0.00000,0.02818,0.97502,-0.19105,0.0,2023,6,7,15,45,22,378
44.54920,-0.10220,0.11077,0.00000,0.02806,0.97649,-0.19105,0.0,2023,6,7,15,45,22,388
44.54930,0.00280,0.05827,0.00000,0.02977,0.97490,-0.19252,0.0,2023,6,7,15,45,22,398
44.54940,0.16030,0.04077,0.00000,0.02867,0.97685,-0.19044,0.0,2023,6,7,15,45,22,408
44.54950,-0.11970,-0.06423,0.00000,0.03038,0.97685,-0.19349,0.0,2023,6,7,15,45,22,418
44.54960,0.17780,-0.09923,0.00000,0.02940,0.97698,-0.19203,0.0,2023,6,7,15,45,22,428
44.54970,0.12530,-0.06423,0.00000,0.03184,0.97551,-0.19435,0.0,2023,6,7,15,45,22,438
44.54980,-0.03220,0.04077,0.00000,0.02879,0.97539,-0.19276,0.0,2023,6,7,15,45,22,448
44.54990,-0.01470,-0.02923,0.00000,0.03001,0.97380,-0.19374,0.0,2023,6,7,15,45,22,458
44.55000,-0.01470,-0.22173,0.00000,0.02867,0.97527,-0.19081,0.0,2023,6,7,15,45,22,468
44.55010,0.21280,-0.11673,0.00000,0.03038,0.97417,-0.19191,0.0,2023,6,7,15,45,22,478
44.55020,-0.01470,-0.13423,0.00000,0.02794,0.97441,-0.19178,0.0,2023,6,7,15,45,22,488
44.55030,0.07280,0.04077,0.00000,0.03087,0.97295,-0.19227,0.0,2023,6,7,15,45,22,498
44.55040,-0.04970,-0.08173,0.00000,0.03050,0.97295,-0.19239,0.0,2023,6,7,15,45,22,508
44.55050,0.00280,-0.23923,0.00000,0.02879,0.97527,-0.19044,0.0,2023,6,7,15,45,22,518
44.55060,-0.06720,0.02327,0.00000,0.03013,0.97624,-0.19020,0.0,2023,6,7,15,45,22,528
44.55070,0.16030,-0.08173,0.00000,0.03184,0.97710,-0.19276,0.0,2023,6,7,15,45,22,538
44.55080,0.03780,0.11077,0.00000,0.02843,0.97685,-0.19300,0.0,2023,6,7,15,45,22,548
44.55090,0.00280,0.04077,0.00000,0.02965,0.97258,-0.19154,0.0,2023,6,7,15,45,22,558
44.55100,-0.01470,0.07577,0.00000,0.03209,0.97612,-0.19178,0.0,2023,6,7,15,45,22,568
44.55110,-0.01470,0.00577,0.00000,0.02989,0.97405,-0.19178,0.0,2023,6,7,15,45,22,578
44.55120,-0.17220,0.12827,0.00000,0.02794,0.97429,-0.19081,0.0,2023,6,7,15,45,22,588
44.55130,-0.06720,-0.04673,0.00000,0.03099,0.97527,-0.19618,0.0,2023,6,7,15,45,22,598
44.55140,-0.25970,0.05827,0.00000,0.02977,0.97515,-0.18995,0.0,2023,6,7,15,45,22,608
44.55150,-0.10220,0.14577,0.00000,0.02904,0.97551,-0.18886,0.0,2023,6,7,15,45,22,618
44.55160,-0.27720,-0.01173,0.00000,0.03038,0.97441,-0.19044,0.0,2023,6,7,15,45,22,628
44.55170,0.07280,0.16327,0.00000,0.02843,0.97563,-0.19105,0.0,2023,6,7,15,45,22,638
44.55180,-0.08470,0.09327,0.00000,0.03160,0.97515,-0.19081,0.0,2023,6,7,15,45,22,648
44.55190,0.16030,0.05827,0.00000,0.02965,0.97502,-0.19117,0.0,2023,6,7,15,45,22,658
44.55200,0.00280,0.25077,0.00000,0.03160,0.97417,-0.19020,0.0,2023,6,7,15,45,22,668
44.55210,-0.01470,-0.18673,0.00000,0.02977,0.97795,-0.19166,0.0,2023,6,7,15,45,22,678
44.55220,0.10780,0.11077,0.00000,0.03148,0.97746,-0.19142,0.0,2023,6,7,15,45,22,688
44.55230,-0.03220,0.07577,0.00000,0.03026,0.97685,-0.18947,0.0,2023,6,7,15,45,22,698
44.55240,-0.06720,0.02327,0.00000,0.02818,0.97600,-0.19105,0.0,2023,6,7,15,45,22,708
44.55250,-0.06720,0.14577,0.00000,0.02965,0.97527,-0.19056,0.0,2023,6,7,15,45,22,718
44.55260,-0.18970,0.12827,0.00000,0.02989,0.97649,-0.19154,0.0,2023,6,7,15,45,22,728
44.55270,0.12530,-0.09923,0.00000,0.02867,0.97551,-0.19142,0.0,2023,6,7,15,45,22,738
44.55280,0.03780,-0.01173,0.00000,0.03026,0.97600,-0.19410,0.0,2023,6,7,15,45,22,748
44.55290,0.03780,-0.02923,0.00000,0.02904,0.97698,-0.19313,0.0,2023,6,7,15,45,22,758
44.55300,0.16030,-0.08173,0.00000,0.02745,0.97356,-0.19056,0.0,2023,6,7,15,45,22,768
44.55310,0.03780,-0.01173,0.00000,0.02928,0.97588,-0.19044,0.0,2023,6,7,15,45,22,778
44.55320,0.00280,-0.02923,0.00000,0.02940,0.97746,-0.19252,0.0,2023,6,7,15,45,22,788
44.55330,0.07280,0.00577,0.00000,0.03087,0.97478,-0.19264,0.0,2023,6,7,15,45,22,798
44.55340,-0.10220,0.11077,0.00000,0.03026,0.97612,-0.18971,0.0,2023,6,7,15,45,22,808
44.55350,-0.03220,-0.01173,0.00000,0.03087,0.97466,-0.19215,0.0,2023,6,7,15,45,22,818
44.55360,0.09030,0.11077,0.00000,0.03111,0.97502,-0.19300,0.0,2023,6,7,15,45,22,828
44.55370,-0.01470,0.05827,0.00000,0.03062,0.97307,-0.19349,0.0,2023,6,7,15,45,22,838
44.55380,0.03780,-0.02923,0.00000,0.03013,0.97344,-0.19178,0.0,2023,6,7,15,45,22,848
44.55390,0.09030,-0.09923,0.00000,0.02965,0.97612,-0.19325,0.0,2023,6,7,15,45,22,858
44.55400,-0.11970,0.07577,0.00000,0.02965,0.97588,-0.19166,0.0,2023,6,7,15,45,22,868
44.55410,0.07280,-0.09923,0.00000,0.02965,0.97429,-0.19349,0.0,2023,6,7,15,45,22,878
44.55420,0.02030,-0.06423,0.00000,0.02855,0.97466,-0.19276,0.0,2023,6,7,15,45,22,888
44.55430,0.07280,0.07577,0.00000,0.03074,0.97771,-0.19313,0.0,2023,6,7,15,45,22,898
44.55440,0.02030,-0.20423,0.00000,0.03074,0.97698,-0.19093,0.0,2023,6,7,15,45,22,908
44.55450,0.21280,-0.13423,0.00000,0.02855,0.97600,-0.19154,0.0,2023,6,7,15,45,22,918
44.55460,0.00280,0.05827,0.00000,0.03257,0.97710,-0.19130,0.0,2023,6,7,15,45,22,928
44.55470,-0.04970,0.26827,0.00000,0.03160,0.97563,-0.19264,0.0,2023,6,7,15,45,22,938
44.55480,-0.03220,0.02327,0.00000,0.02977,0.97734,-0.19239,0.0,2023,6,7,15,45,22,948
44.55490,0.12530,0.05827,0.00000,0.02916,0.97624,-0.19166,0.0,2023,6,7,15,45,22,958
44.55500,-0.18970,0.23327,0.00000,0.03148,0.97685,-0.19215,0.0,2023,6,7,15,45,22,968
44.55510,0.00280,0.19827,0.00000,0.02879,0.97429,-0.19435,0.0,2023,6,7,15,45,23,978
44.55520,0.00280,0.02327,0.00000,0.02611,0.97429,-0.19081,0.0,2023,6,7,15,45,23,988
44.55530,0.16030,0.12827,0.00000,0.02965,0.97515,-0.18947,0.0,2023,6,7,15,45,23,998
44.55540,0.07280,-0.08173,0.00000,0.03074,0.97624,-0.18861,0.0,2023,6,7,15,45,23,8
44.55550,0.10780,0.14577,0.00000,0.02891,0.97551,-0.19020,0.0,2023,6,7,15,45,23,18
44.55560,-0.08470,0.12827,0.00000,0.03123,0.97661,-0.19178,0.0,2023,6,7,15,45,23,28
44.55570,0.03780,-0.02923,0.00000,0.03038,0.97393,-0.19361,0.0,2023,6,7,15,45,23,38
44.55580,-0.10220,0.04077,0.00000,0.03001,0.97637,-0.19215,0.0,2023,6,7,15,45,23,48
44.55590,0.23030,-0.02923,0.00000,0.02818,0.97624,-0.19142,0.0,2023,6,7,15,45,23,58
44.55600,-0.06720,0.04077,0.00000,0.03074,0.97307,-0.19142,0.0,2023,6,7,15,45,23,68
44.55610,0.07280,-0.09923,0.00000,0.02757,0.97502,-0.19386,0.0,2023,6,7,15,45,23,78
44.55620,0.09030,0.02327,0.00000,0.02818,0.97624,-0.18959,0.0,2023,6,7,15,45,23,88
44.55630,0.05530,-0.11673,0.00000,0.02940,0.97576,-0.19069,0.0,2023,6,7,15,45,23,98
44.55640,0.10780,0.14577,0.00000,0.02916,0.97466,-0.19044,0.0,2023,6,7,15,45,23,108
44.55650,-0.17220,-0.02923,0.00000,0.02830,0.97515,-0.19349,0.0,2023,6,7,15,45,23,118
44.55660,0.02030,-0.09923,0.00000,0.02818,0.97466,-0.19252,0.0,2023,6,7,15,45,23,128
44.55670,0.03780,-0.04673,0.00000,0.03038,0.97454,-0.19337,0.0,2023,6,7,15,45,23,138
44.55680,0.03780,-0.11673,0.00000,0.03050,0.97576,-0.19313,0.0,2023,6,7,15,45,23,148
44.55690,-0.06720,0.05827,0.00000,0.03013,0.97356,-0.19032,0.0,2023,6,7,15,45,23,158
44.55700,-0.03220,0.00577,0.00000,0.02855,0.97380,-0.19203,0.0,2023,6,7,15,45,23,168
44.55710,0.00280,-0.04673,0.00000,0.03062,0.97820,-0.19239,0.0,2023,6,7,15,45,23,178
44.55720,-0.04970,0.07577,0.00000,0.02965,0.97685,-0.19447,0.0,2023,6,7,15,45,23,188
44.55730,-0.17220,0.19827,0.00000,0.03026,0.97588,-0.19178,0.0,2023,6,7,15,45,23,198
44.55740,0.12530,-0.01173,0.00000,0.02794,0.97661,-0.19239,0.0,2023,6,7,15,45,23,208
44.55750,-0.01470,0.05827,0.00000,0.03062,0.97563,-0.19288,0.0,2023,6,7,15,45,23,218
44.55760,0.09030,0.12827,0.00000,0.03196,0.97576,-0.19203,0.0,2023,6,7,15,45,23,228
44.55770,-0.01470,-0.06423,0.00000,0.02818,0.97710,-0.19032,0.0,2023,6,7,15,45,23,238
44.55780,0.02030,0.16327,0.00000,0.03099,0.97576,-0.19093,0.0,2023,6,7,15,45,23,248
44.55790,-0.18970,0.11077,0.00000,0.03074,0.97734,-0.19154,0.0,2023,6,7,15,45,23,258
44.55800,-0.06720,0.14577,0.00000,0.03001,0.97710,-0.19203,0.0,2023,6,7,15,45,23,268
44.55810,0.16030,-0.11673,0.00000,0.03209,0.97332,-0.19130,0.0,2023,6,7,15,45,23,278
44.55820,-0.15470,-0.09923,0.00000,0.03074,0.97539,-0.19130,0.0,2023,6,7,15,45,23,288
44.55830,0.14280,0.09327,0.00000,0.02830,0.97466,-0.19154,0.0,2023,6,7,15,45,23,298
44.55840,0.10780,-0.01173,0.00000,0.03087,0.97551,-0.19215,0.0,2023,6,7,15,45,23,308
44.55850,-0.01470,0.07577,0.00000,0.03074,0.97210,-0.19288,0.0,2023,6,7,15,45,23,318
44.55860,0.00280,0.14577,0.00000,0.03001,0.97466,-0.19069,0.0,2023,6,7,15,45,23,328
44.55870,0.02030,0.18077,0.00000,0.03148,0.97393,-0.19044,0.0,2023,6,7,15,45,23,338
44.55880,-0.11970,0.02327,0.00000,0.03257,0.97478,-0.19325,0.0,2023,6,7,15,45,23,348
44.55890,0.03780,0.11077,0.00000,0.02952,0.97515,-0.19276,0.0,2023,6,7,15,45,23,358
44.55900,0.10780,-0.06423,0.00000,0.03318,0.97417,-0.19300,0.0,2023,6,7,15,45,23,368
44.55910,0.02030,0.09327,0.00000,0.02965,0.97612,-0.19117,0.0,2023,6,7,15,45,23,378
44.55920,0.12530,0.00577,0.00000,0.03013,0.97527,-0.19215,0.0,2023,6,7,15,45,23,388
44.55930,-0.06720,-0.06423,0.00000,0.03013,0.97661,-0.19215,0.0,2023,6,7,15,45,23,398
44.55940,-0.06720,0.02327,0.00000,0.03111,0.97710,-0.19215,0.0,2023,6,7,15,45,23,408
44.55950,-0.01470,0.05827,0.00000,0.03074,0.97478,-0.19105,0.0,2023,6,7,15,45,23,418
44.55960,-0.17220,0.02327,0.00000,0.03062,0.97698,-0.19117,0.0,2023,6,7,15,45,23,428
44.55970,0.07280,-0.06423,0.00000,0.02977,0.97612,-0.19313,0.0,2023,6,7,15,45,23,438
44.55980,0.14280,0.02327,0.00000,0.03343,0.97612,-0.19337,0.0,2023,6,7,15,45,23,448
44.55990,-0.10220,-0.15173,0.00000,0.03038,0.97441,-0.18983,0.0,2023,6,7,15,45,23,458
44.56000,-0.06720,0.16327,0.00000,0.03074,0.97661,-0.19325,0.0,2023,6,7,15,45,23,468
44.56010,-0.10220,0.00577,0.00000,0.03184,0.97502,-0.19471,0.0,2023,6,7,15,45,23,478
44.56020,-0.08470,0.23327,0.00000,0.02977,0.97649,-0.19178,0.0,2023,6,7,15,45,23,488
44.56030,-0.08470,-0.02923,0.00000,0.03111,0.97539,-0.19215,0.0,2023,6,7,15,45,23,498
44.56040,-0.06720,0.25077,0.00000,0.03001,0.97722,-0.19264,0.0,2023,6,7,15,45,23,508
44.56050,0.28280,0.02327,0.00000,0.03135,0.97478,-0.19374,0.0,2023,6,7,15,45,23,518
44.56060,0.03780,0.04077,0.00000,0.03038,0.97393,-0.19288,0.0,2023,6,7,15,45,23,528
44.56070,0.16030,-0.01173,0.00000,0.02843,0.97466,-0.19191,0.0,2023,6,7,15,45,23,538
44.56080,0.02030,0.25077,0.00000,0.03038,0.97612,-0.19191,0.0,2023,6,7,15,45,23,548
44.56090,-0.18970,0.04077,0.00000,0.03233,0.97820,-0.19398,0.0,2023,6,7,15,45,23,558
44.56100,0.10780,-0.18673,0.00000,0.03221,0.97637,-0.19276,0.0,2023,6,7,15,45,23,568
44.56110,0.05530,0.11077,0.00000,0.02818,0.97588,-0.19276,0.0,2023,6,7,15,45,23,578
44.56120,0.03780,-0.04673,0.00000,0.03087,0.97539,-0.19178,0.0,2023,6,7,15,45,23,588
44.56130,0.03780,0.05827,0.00000,0.03148,0.97624,-0.19215,0.0,2023,6,7,15,45,23,598
44.56140,-0.10220,-0.01173,0.00000,0.02891,0.97612,-0.19239,0.0,2023,6,7,15,45,23,608
44.56150,0.14280,0.00577,0.00000,0.03172,0.97661,-0.19105,0.0,2023,6,7,15,45,23,618
44.56160,0.09030,-0.06423,0.00000,0.02965,0.97661,-0.19117,0.0,2023,6,7,15,45,23,628
44.56170,0.30030,0.02327,0.00000,0.02745,0.97429,-0.19410,0.0,2023,6,7,15,45,23,638
44.56180,0.09030,0.05827,0.00000,0.02879,0.97405,-0.19203,0.0,2023,6,7,15,45,23,648
44.56190,-0.15470,0.11077,0.00000,0.02977,0.97673,-0.19276,0.0,2023,6,7,15,45,23,658
44.56200,0.07280,0.00577,0.00000,0.03062,0.97515,-0.19203,0.0,2023,6,7,15,45,23,668
44.56210,-0.15470,-0.13423,0.00000,0.03013,0.97649,-0.19093,0.0,2023,6,7,15,45,23,678
44.56220,-0.15470,0.04077,0.00000,0.02989,0.97490,-0.19520,0.0,2023,6,7,15,45,23,688
44.56230,0.09030,0.05827,0.00000,0.03026,0.97429,-0.19191,0.0,2023,6,7,15,45,23,698
44.56240,0.10780,0.11077,0.00000,0.02806,0.97515,-0.19154,0.0,2023,6,7,15,45,23,708
44.56250,-0.04970,-0.16923,0.00000,0.02830,0.97576,-0.19361,0.0,2023,6,7,15,45,23,718
44.56260,0.28280,0.16327,0.00000,0.02928,0.97722,-0.19215,0.0,2023,6,7,15,45,23,728
44.56270,-0.06720,-0.09923,0.00000,0.03148,0.97600,-0.19252,0.0,2023,6,7,15,45,23,738
44.56280,-0.01470,-0.13423,0.00000,0.02891,0.97429,-0.19081,0.0,2023,6,7,15,45,23,748
44.56290,0.05530,0.14577,0.00000,0.03087,0.97649,-0.19069,0.0,2023,6,7,15,45,23,758
44.56300,0.00280,-0.04673,0.00000,0.02952,0.97417,-0.19300,0.0,2023,6,7,15,45,23,768
44.56310,-0.22470,-0.06423,0.00000,0.02782,0.97332,-0.19191,0.0,2023,6,7,15,45,23,778
44.56320,-0.01470,-0.15173,0.00000,0.03026,0.97515,-0.19069,0.0,2023,6,7,15,45,23,788
44.56330,-0.11970,-0.06423,0.00000,0.03111,0.97490,-0.19191,0.0,2023,6,7,15,45,23,798
44.56340,-0.01470,0.05827,0.00000,0.03062,0.97746,-0.19130,0.0,2023,6,7,15,45,23,808
44.56350,-0.08470,0.04077,0.00000,0.02904,0.97588,-0.19239,0.0,2023,6,7,15,45,23,818
44.56360,-0.10220,-0.13423,0.00000,0.03050,0.97734,-0.19325,0.0,2023,6,7,15,45,23,828
44.56370,0.05530,-0.08173,0.00000,0.02965,0.97405,-0.19020,0.0,2023,6,7,15,45,23,838
44.56380,0.28280,0.04077,0.00000,0.02891,0.97368,-0.19313,0.0,2023,6,7,15,45,23,848
44.56390,-0.25970,0.26827,0.00000,0.03050,0.97612,-0.19081,0.0,2023,6,7,15,45,23,858
44.56400,-0.01470,-0.01173,0.00000,0.03270,0.97734,-0.19227,0.0,2023,6,7,15,45,23,868
44.56410,-0.01470,0.04077,0.00000,0.02965,0.97649,-0.19008,0.0,2023,6,7,15,45,24,878
44.56420,0.10780,-0.06423,0.00000,0.02989,0.97661,-0.19374,0.0,2023,6,7,15,45,24,888
44.56430,0.09030,-0.04673,0.00000,0.03172,0.97673,-0.19264,0.0,2023,6,7,15,45,24,898
44.56440,0.16030,-0.27423,0.00000,0.03062,0.97795,-0.19081,0.0,2023,6,7,15,45,24,908
44.56450,-0.11970,0.07577,0.00000,0.03074,0.97649,-0.19154,0.0,2023,6,7,15,45,24,918
44.56460,0.07280,-0.22173,0.00000,0.02952,0.97698,-0.19276,0.0,2023,6,7,15,45,24,928
44.56470,0.00280,0.11077,0.00000,0.03087,0.97673,-0.19313,0.0,2023,6,7,15,45,24,938
44.56480,0.09030,-0.11673,0.00000,0.02904,0.97612,-0.19166,0.0,2023,6,7,15,45,24,948
44.56490,-0.11970,-0.02923,0.00000,0.03013,0.97795,-0.18995,0.0,2023,6,7,15,45,24,958
44.56500,0.00280,0.09327,0.00000,0.03038,0.97576,-0.19130,0.0,2023,6,7,15,45,24,968
44.56510,-0.08470,-0.06423,0.00000,0.02916,0.97417,-0.19142,0.0,2023,6,7,15,45,24,978
44.56520,-0.10220,0.05827,0.00000,0.03148,0.97856,-0.19288,0.0,2023,6,7,15,45,24,988
44.56530,0.03780,0.04077,0.00000,0.02940,0.97527,-0.19154,0.0,2023,6,7,15,45,24,998
44.56540,0.07280,-0.15173,0.00000,0.02965,0.97551,-0.19264,0.0,2023,6,7,15,45,24,8
44.56550,0.03780,-0.34423,0.00000,0.02977,0.97307,-0.19459,0.0,2023,6,7,15,45,24,18
44.56560,0.17780,0.11077,0.00000,0.03135,0.97576,-0.19337,0.0,2023,6,7,15,45,24,28
44.56570,-0.01470,-0.11673,0.00000,0.02940,0.97490,-0.19032,0.0,2023,6,7,15,45,24,38
44.56580,-0.04970,0.04077,0.00000,0.02928,0.97746,-0.19288,0.0,2023,6,7,15,45,24,48
44.56590,0.12530,0.07577,0.00000,0.02977,0.97576,-0.19447,0.0,2023,6,7,15,45,24,58
44.56600,0.09030,0.11077,0.00000,0.03111,0.97637,-0.19081,0.0,2023,6,7,15,45,24,68
44.56610,0.05530,0.02327,0.00000,0.03111,0.97673,-0.19056,0.0,2023,6,7,15,45,24,78
44.56620,-0.13720,0.07577,0.00000,0.02891,0.97429,-0.19142,0.0,2023,6,7,15,45,24,88
44.56630,-0.04970,0.16327,0.00000,0.03111,0.97576,-0.19276,0.0,2023,6,7,15,45,24,98
44.56640,-0.03220,0.05827,0.00000,0.02989,0.97466,-0.19081,0.0,2023,6,7,15,45,24,108
44.56650,-0.08470,0.16327,0.00000,0.03038,0.97441,-0.19154,0.0,2023,6,7,15,45,24,118
44.56660,0.02030,-0.27423,0.00000,0.02965,0.97673,-0.19215,0.0,2023,6,7,15,45,24,128
44.56670,0.05530,-0.02923,0.00000,0.03050,0.97661,-0.19288,0.0,2023,6,7,15,45,24,138
44.56680,0.02030,-0.08173,0.00000,0.03135,0.97624,-0.19386,0.0,2023,6,7,15,45,24,148
44.56690,0.05530,0.00577,0.00000,0.03184,0.97637,-0.19105,0.0,2023,6,7,15,45,24,158
44.56700,-0.06720,0.25077,0.00000,0.02940,0.97612,-0.19105,0.0,2023,6,7,15,45,24,168
44.56710,-0.01470,0.18077,0.00000,0.03001,0.97685,-0.19239,0.0,2023,6,7,15,45,24,178
44.56720,-0.04970,0.09327,0.00000,0.03026,0.97807,-0.19459,0.0,2023,6,7,15,45,24,188
44.56730,0.03780,0.18077,0.00000,0.03087,0.97661,-0.19117,0.0,2023,6,7,15,45,24,198
44.56740,-0.08470,0.16327,0.00000,0.02916,0.97771,-0.18959,0.0,2023,6,7,15,45,24,208
44.56750,0.02030,0.04077,0.00000,0.03050,0.97551,-0.19081,0.0,2023,6,7,15,45,24,218
44.56760,0.12530,0.14577,0.00000,0.02965,0.97429,-0.19300,0.0,2023,6,7,15,45,24,228
44.56770,0.07280,-0.15173,0.00000,0.03038,0.97624,-0.19178,0.0,2023,6,7,15,45,24,238
44.56780,0.07280,0.11077,0.00000,0.02952,0.97588,-0.19130,0.0,2023,6,7,15,45,24,248
44.56790,-0.04970,0.14577,0.00000,0.03099,0.97527,-0.18983,0.0,2023,6,7,15,45,24,258
44.56800,0.03780,0.07577,0.00000,0.03087,0.97722,-0.19386,0.0,2023,6,7,15,45,24,268
44.56810,-0.04970,0.09327,0.00000,0.03148,0.97673,-0.19276,0.0,2023,6,7,15,45,24,278
44.56820,0.09030,-0.08173,0.00000,0.03135,0.97539,-0.19349,0.0,2023,6,7,15,45,24,288
44.56830,0.05530,-0.06423,0.00000,0.02855,0.97405,-0.19105,0.0,2023,6,7,15,45,24,298
44.56840,0.02030,-0.16923,0.00000,0.02879,0.97759,-0.19264,0.0,2023,6,7,15,45,24,308
44.56850,0.00280,0.12827,0.00000,0.03062,0.97478,-0.19191,0.0,2023,6,7,15,45,24,318
44.56860,-0.10220,-0.04673,0.00000,0.02965,0.97661,-0.19337,0.0,2023,6,7,15,45,24,328
44.56870,-0.01470,0.16327,0.00000,0.02952,0.97490,-0.19191,0.0,2023,6,7,15,45,24,338
44.56880,-0.06720,0.16327,0.00000,0.03001,0.97454,-0.19093,0.0,2023,6,7,15,45,24,348
44.56890,0.07280,-0.25673,0.00000,0.03123,0.97710,-0.19093,0.0,2023,6,7,15,45,24,358
44.56900,0.37030,-0.22173,0.00000,0.02830,0.97368,-0.19300,0.0,2023,6,7,15,45,24,368
44.56910,-0.03220,0.14577,0.00000,0.03026,0.97502,-0.19093,0.0,2023,6,7,15,45,24,378
44.56920,-0.01470,0.09327,0.00000,0.03196,0.97746,-0.19483,0.0,2023,6,7,15,45,24,388
44.56930,0.12530,-0.04673,0.00000,0.02952,0.97612,-0.19300,0.0,2023,6,7,15,45,24,398
44.56940,0.05530,0.30327,0.00000,0.03026,0.97551,-0.19166,0.0,2023,6,7,15,45,24,408
44.56950,0.21280,-0.22173,0.00000,0.03135,0.97380,-0.19300,0.0,2023,6,7,15,45,24,418
44.56960,-0.06720,-0.06423,0.00000,0.02977,0.97551,-0.19459,0.0,2023,6,7,15,45,24,428
44.56970,0.00280,-0.16923,0.00000,0.02916,0.97881,-0.19471,0.0,2023,6,7,15,45,24,438
44.56980,-0.03220,-0.06423,0.00000,0.03074,0.97454,-0.19130,0.0,2023,6,7,15,45,24,448
44.56990,-0.06720,0.21577,0.00000,0.02843,0.97393,-0.18995,0.0,2023,6,7,15,45,24,458
44.57000,0.12530,-0.02923,0.00000,0.03123,0.97783,-0.19203,0.0,2023,6,7,15,45,24,468
44.57010,0.24780,-0.09923,0.00000,0.03184,0.97490,-0.19386,0.0,2023,6,7,15,45,24,478
44.57020,0.07280,-0.09923,0.00000,0.02977,0.97759,-0.19252,0.0,2023,6,7,15,45,24,488
44.57030,-0.06720,-0.20423,0.00000,0.02952,0.97149,-0.19191,0.0,2023,6,7,15,45,24,498
44.57040,0.03780,0.11077,0.00000,0.03013,0.97649,-0.19374,0.0,2023,6,7,15,45,24,508
44.57050,-0.03220,-0.01173,0.00000,0.02904,0.97905,-0.19142,0.0,2023,6,7,15,45,24,518
44.57060,0.10780,0.23327,0.00000,0.03172,0.97624,-0.19178,0.0,2023,6,7,15,45,24,528
44.57070,0.03780,-0.08173,0.00000,0.02721,0.97539,-0.19044,0.0,2023,6,7,15,45,24,538
44.57080,0.05530,0.11077,0.00000,0.03062,0.97588,-0.19142,0.0,2023,6,7,15,45,24,548
44.57090,0.02030,-0.01173,0.00000,0.02965,0.97624,-0.19374,0.0,2023,6,7,15,45,24,558
44.57100,-0.08470,0.07577,0.00000,0.03233,0.97722,-0.19069,0.0,2023,6,7,15,45,24,568
44.57110,-0.08470,0.00577,0.00000,0.02989,0.97502,-0.19130,0.0,2023,6,7,15,45,24,578
44.57120,-0.04970,0.00577,0.00000,0.03111,0.97283,-0.18971,0.0,2023,6,7,15,45,24,588
44.57130,0.14280,0.07577,0.00000,0.02989,0.97551,-0.19044,0.0,2023,6,7,15,45,24,598
44.57140,0.02030,-0.09923,0.00000,0.02928,0.97417,-0.19349,0.0,2023,6,7,15,45,24,608
44.57150,-0.08470,0.04077,0.00000,0.02965,0.97734,-0.19520,0.0,2023,6,7,15,45,24,618
44.57160,-0.03220,0.19827,0.00000,0.03221,0.97783,-0.19239,0.0,2023,6,7,15,45,24,628
44.57170,0.14280,-0.22173,0.00000,0.03221,0.97405,-0.19154,0.0,2023,6,7,15,45,24,638
44.57180,-0.01470,0.00577,0.00000,0.03270,0.97734,-0.19093,0.0,2023,6,7,15,45,24,648
44.57190,0.12530,-0.02923,0.00000,0.03135,0.97417,-0.19178,0.0,2023,6,7,15,45,24,658
44.57200,-0.04970,-0.16923,0.00000,0.02916,0.97527,-0.19008,0.0,2023,6,7,15,45,24,668
44.57210,-0.11970,-0.13423,0.00000,0.03087,0.97563,-0.19178,0.0,2023,6,7,15,45,24,678
44.57220,-0.04970,-0.02923,0.00000,0.03221,0.97551,-0.19215,0.0,2023,6,7,15,45,24,688
44.57230,-0.01470,0.00577,0.00000,0.03074,0.97868,-0.19239,0.0,2023,6,7,15,45,24,698
44.57240,-0.01470,0.09327,0.00000,0.02904,0.97576,-0.19300,0.0,2023,6,7,15,45,24,708
44.57250,-0.08470,0.11077,0.00000,0.02806,0.97771,-0.19191,0.0,2023,6,7,15,45,24,718
44.57260,-0.15470,0.07577,0.00000,0.02904,0.97478,-0.19398,0.0,2023,6,7,15,45,24,728
44.57270,-0.08470,0.18077,0.00000,0.02879,0.97429,-0.19117,0.0,2023,6,7,15,45,24,738
44.57280,0.16030,-0.01173,0.00000,0.03148,0.97759,-0.19093,0.0,2023,6,7,15,45,24,748
44.57290,0.07280,-0.04673,0.00000,0.02916,0.97356,-0.19117,0.0,2023,6,7,15,45,24,758
44.57300,-0.08470,-0.06423,0.00000,0.03087,0.97515,-0.19154,0.0,2023,6,7,15,45,24,768
44.57310,-0.08470,0.00577,0.00000,0.03135,0.97649,-0.19435,0.0,2023,6,7,15,45,24,778
44.57320,0.12530,0.09327,0.00000,0.03026,0.97490,-0.19252,0.0,2023,6,7,15,45,25,788
44.57330,-0.08470,-0.02923,0.00000,0.03221,0.97588,-0.19081,0.0,2023,6,7,15,45,25,798
44.57340,-0.01470,-0.08173,0.00000,0.03148,0.97673,-0.19252,0.0,2023,6,7,15,45,25,808
44.57350,-0.01470,-0.06423,0.00000,0.03074,0.97344,-0.19325,0.0,2023,6,7,15,45,25,818
44.57360,0.07280,-0.18673,0.00000,0.03135,0.97661,-0.18995,0.0,2023,6,7,15,45,25,828
44.57370,0.03780,0.05827,0.00000,0.03148,0.97881,-0.18947,0.0,2023,6,7,15,45,25,838
44.57380,-0.08470,0.11077,0.00000,0.03050,0.97612,-0.19227,0.0,2023,6,7,15,45,25,848
44.57390,0.05530,-0.02923,0.00000,0.03062,0.97746,-0.19178,0.0,2023,6,7,15,45,25,858
44.57400,0.03780,0.16327,0.00000,0.02965,0.97795,-0.19020,0.0,2023,6,7,15,45,25,868
44.57410,-0.11970,0.11077,0.00000,0.03050,0.97637,-0.19142,0.0,2023,6,7,15,45,25,878
44.57420,0.19530,-0.02923,0.00000,0.03111,0.97551,-0.19032,0.0,2023,6,7,15,45,25,888
44.57430,0.03780,0.02327,0.00000,0.02708,0.97588,-0.18971,0.0,2023,6,7,15,45,25,898
44.57440,0.09030,-0.01173,0.00000,0.03038,0.97624,-0.19374,0.0,2023,6,7,15,45,25,908
44.57450,0.12530,-0.06423,0.00000,0.02916,0.97405,-0.19471,0.0,2023,6,7,15,45,25,918
44.57460,-0.13720,0.12827,0.00000,0.02904,0.97588,-0.19239,0.0,2023,6,7,15,45,25,928
44.57470,-0.13720,-0.20423,0.00000,0.02904,0.97588,-0.19069,0.0,2023,6,7,15,45,25,938
44.57480,-0.20720,0.09327,0.00000,0.03257,0.97405,-0.18959,0.0,2023,6,7,15,45,25,948
44.57490,-0.01470,0.07577,0.00000,0.03038,0.97454,-0.19081,0.0,2023,6,7,15,45,25,958
44.57500,-0.10220,-0.04673,0.00000,0.02891,0.97624,-0.19227,0.0,2023,6,7,15,45,25,968
44.57510,-0.03220,-0.25673,0.00000,0.03196,0.97673,-0.18861,0.0,2023,6,7,15,45,25,978
44.57520,0.00280,-0.11673,0.00000,0.03087,0.97734,-0.19069,0.0,2023,6,7,15,45,25,988
44.57530,0.07280,0.05827,0.00000,0.02879,0.97612,-0.19252,0.0,2023,6,7,15,45,25,998
44.57540,0.02030,0.14577,0.00000,0.03099,0.97405,-0.19325,0.0,2023,6,7,15,45,25,8
44.57550,0.16030,-0.18673,0.00000,0.03087,0.97734,-0.19069,0.0,2023,6,7,15,45,25,18
44.57560,0.03780,-0.09923,0.00000,0.02904,0.97466,-0.19166,0.0,2023,6,7,15,45,25,28
44.57570,-0.01470,-0.09923,0.00000,0.03184,0.97417,-0.19264,0.0,2023,6,7,15,45,25,38
44.57580,-0.03220,0.25077,0.00000,0.02916,0.97502,-0.19191,0.0,2023,6,7,15,45,25,48
44.57590,-0.08470,-0.18673,0.00000,0.02867,0.97551,-0.19142,0.0,2023,6,7,15,45,25,58
44.57600,-0.17220,-0.02923,0.00000,0.03050,0.97807,-0.19008,0.0,2023,6,7,15,45,25,68
44.57610,-0.06720,0.07577,0.00000,0.03123,0.97624,-0.19166,0.0,2023,6,7,15,45,25,78
44.57620,0.21280,-0.16923,0.00000,0.02940,0.97661,-0.19239,0.0,2023,6,7,15,45,25,88
44.57630,-0.17220,0.09327,0.00000,0.03038,0.97746,-0.19239,0.0,2023,6,7,15,45,25,98
44.57640,0.16030,0.00577,0.00000,0.02952,0.97527,-0.19215,0.0,2023,6,7,15,45,25,108
44.57650,-0.01470,-0.08173,0.00000,0.03172,0.97698,-0.19422,0.0,2023,6,7,15,45,25,118
44.57660,0.05530,-0.11673,0.00000,0.03038,0.97490,-0.19020,0.0,2023,6,7,15,45,25,128
44.57670,-0.06720,0.16327,0.00000,0.02916,0.97844,-0.19044,0.0,2023,6,7,15,45,25,138
44.57680,0.07280,-0.11673,0.00000,0.03026,0.97722,-0.19349,0.0,2023,6,7,15,45,25,148
44.57690,-0.03220,-0.13423,0.00000,0.02879,0.97563,-0.19154,0.0,2023,6,7,15,45,25,158
44.57700,-0.01470,-0.18673,0.00000,0.02818,0.97624,-0.19154,0.0,2023,6,7,15,45,25,168
44.57710,0.09030,-0.06423,0.00000,0.03013,0.97539,-0.19069,0.0,2023,6,7,15,45,25,178
44.57720,0.17780,-0.01173,0.00000,0.03099,0.97673,-0.18971,0.0,2023,6,7,15,45,25,188
44.57730,-0.01470,0.09327,0.00000,0.03013,0.97478,-0.19166,0.0,2023,6,7,15,45,25,198
44.57740,0.14280,-0.06423,0.00000,0.02879,0.97563,-0.19276,0.0,2023,6,7,15,45,25,208
44.57750,-0.04970,0.05827,0.00000,0.03050,0.97454,-0.19325,0.0,2023,6,7,15,45,25,218
44.57760,-0.13720,0.02327,0.00000,0.03221,0.97771,-0.19422,0.0,2023,6,7,15,45,25,228
44.57770,0.02030,0.05827,0.00000,0.02916,0.97588,-0.18959,0.0,2023,6,7,15,45,25,238
44.57780,0.03780,0.07577,0.00000,0.02977,0.97441,-0.19337,0.0,2023,6,7,15,45,25,248
44.57790,0.23030,0.07577,0.00000,0.03123,0.97332,-0.19215,0.0,2023,6,7,15,45,25,258
44.57800,0.07280,-0.08173,0.00000,0.02818,0.97576,-0.19154,0.0,2023,6,7,15,45,25,268
44.57810,-0.20720,-0.01173,0.00000,0.03148,0.97649,-0.18495,0.0,2023,6,7,15,45,25,278
44.57820,0.09030,-0.09923,0.00000,0.03038,0.97722,-0.19215,0.0,2023,6,7,15,45,25,288
44.57830,0.17780,0.00577,0.00000,0.02940,0.97588,-0.19544,0.0,2023,6,7,15,45,25,298
44.57840,-0.10220,0.07577,0.00000,0.03392,0.97698,-0.19056,0.0,2023,6,7,15,45,25,308
44.57850,-0.20720,0.00577,0.00000,0.02965,0.97393,-0.18971,0.0,2023,6,7,15,45,25,318
44.57860,-0.03220,-0.04673,0.00000,0.02904,0.97600,-0.19130,0.0,2023,6,7,15,45,25,328
44.57870,0.10780,-0.06423,0.00000,0.03111,0.97710,-0.19130,0.0,2023,6,7,15,45,25,338
44.57880,-0.13720,0.07577,0.00000,0.02977,0.97478,-0.19117,0.0,2023,6,7,15,45,25,348
44.57890,-0.01470,0.00577,0.00000,0.03062,0.97771,-0.19227,0.0,2023,6,7,15,45,25,358
44.57900,0.02030,0.02327,0.00000,0.03184,0.97661,-0.19081,0.0,2023,6,7,15,45,25,368
44.57910,0.14280,-0.01173,0.00000,0.02940,0.97551,-0.19154,0.0,2023,6,7,15,45,25,378
44.57920,0.00280,0.09327,0.00000,0.03282,0.97856,-0.19227,0.0,2023,6,7,15,45,25,388
44.57930,0.05530,-0.06423,0.00000,0.02928,0.97515,-0.19300,0.0,2023,6,7,15,45,25,398
44.57940,-0.25970,0.18077,0.00000,0.02916,0.97441,-0.19154,0.0,2023,6,7,15,45,25,408
44.57950,0.03780,0.04077,0.00000,0.03123,0.97637,-0.19203,0.0,2023,6,7,15,45,25,418
44.57960,0.03780,0.00577,0.00000,0.03062,0.97588,-0.19166,0.0,2023,6,7,15,45,25,428
44.57970,0.03780,0.18077,0.00000,0.03123,0.97832,-0.18922,0.0,2023,6,7,15,45,25,438
44.57980,-0.13720,0.11077,0.00000,0.03074,0.97441,-0.19313,0.0,2023,6,7,15,45,25,448
44.57990,0.12530,0.04077,0.00000,0.03160,0.97515,-0.19459,0.0,2023,6,7,15,45,25,458
44.58000,-0.13720,-0.01173,0.00000,0.03050,0.97490,-0.19130,0.0,2023,6,7,15,45,25,468
44.58010,0.09030,-0.09923,0.00000,0.02794,0.97832,-0.19398,0.0,2023,6,7,15,45,25,478
44.58020,-0.08470,-0.20423,0.00000,0.02904,0.97600,-0.19300,0.0,2023,6,7,15,45,25,488
44.58030,-0.13720,0.00577,0.00000,0.02940,0.97588,-0.18873,0.0,2023,6,7,15,45,25,498
44.58040,-0.13720,0.09327,0.00000,0.03062,0.97441,-0.19325,0.0,2023,6,7,15,45,25,508
44.58050,0.05530,-0.15173,0.00000,0.02940,0.97490,-0.19203,0.0,2023,6,7,15,45,25,518
44.58060,-0.06720,0.04077,0.00000,0.03148,0.97746,-0.18971,0.0,2023,6,7,15,45,25,528
44.58070,-0.08470,0.09327,0.00000,0.03245,0.97405,-0.19337,0.0,2023,6,7,15,45,25,538
44.58080,-0.10220,0.11077,0.00000,0.02977,0.97673,-0.18995,0.0,2023,6,7,15,45,25,548
44.58090,0.00280,0.09327,0.00000,0.02794,0.97393,-0.19252,0.0,2023,6,7,15,45,25,558
44.58100,-0.11970,0.25077,0.00000,0.03087,0.97441,-0.19117,0.0,2023,6,7,15,45,25,568
44.58110,0.16030,0.14577,0.00000,0.02965,0.97673,-0.19203,0.0,2023,6,7,15,45,25,578
44.58120,-0.08470,0.12827,0.00000,0.02916,0.97527,-0.18959,0.0,2023,6,7,15,45,25,588
44.58130,-0.03220,0.00577,0.00000,0.03172,0.97319,-0.19166,0.0,2023,6,7,15,45,25,598
44.58140,0.07280,-0.18673,0.00000,0.03099,0.97588,-0.19288,0.0,2023,6,7,15,45,25,608
44.58150,-0.03220,0.05827,0.00000,0.03282,0.97637,-0.19093,0.0,2023,6,7,15,45,25,618
44.58160,0.09030,-0.08173,0.00000,0.03135,0.97710,-0.19008,0.0,2023,6,7,15,45,25,628
44.58170,-0.20720,0.00577,0.00000,0.03026,0.97698,-0.19178,0.0,2023,6,7,15,45,25,638
44.58180,0.10780,-0.04673,0.00000,0.03184,0.97466,-0.19313,0.0,2023,6,7,15,45,25,648
44.58190,-0.04970,0.09327,0.00000,0.02855,0.97637,-0.19203,0.0,2023,6,7,15,45,25,658
44.58200,-0.17220,0.09327,0.00000,0.03111,0.97478,-0.19203,0.0,2023,6,7,15,45,25,668
44.58210,0.10780,-0.06423,0.00000,0.03062,0.97539,-0.19117,0.0,2023,6,7,15,45,25,678
44.58220,-0.06720,-0.25673,0.00000,0.02733,0.97612,-0.19496,0.0,2023,6,7,15,45,25,688
44.58230,0.02030,-0.23923,0.00000,0.03013,0.97600,-0.19288,0.0,2023,6,7,15,45,26,698
44.58240,-0.08470,-0.18673,0.00000,0.02940,0.97441,-0.19142,0.0,2023,6,7,15,45,26,708
44.58250,0.00280,-0.06423,0.00000,0.02940,0.97563,-0.19288,0.0,2023,6,7,15,45,26,718
44.58260,-0.06720,0.07577,0.00000,0.03160,0.97563,-0.19288,0.0,2023,6,7,15,45,26,728
44.58270,0.02030,0.00577,0.00000,0.02989,0.97624,-0.19374,0.0,2023,6,7,15,45,26,738
44.58280,0.14280,0.00577,0.00000,0.03013,0.97771,-0.19056,0.0,2023,6,7,15,45,26,748
44.58290,-0.03220,0.05827,0.00000,0.02977,0.97844,-0.19227,0.0,2023,6,7,15,45,26,758
44.58300,0.14280,-0.20423,0.00000,0.02794,0.97454,-0.19239,0.0,2023,6,7,15,45,26,768
44.58310,0.17780,-0.02923,0.00000,0.02782,0.97551,-0.19276,0.0,2023,6,7,15,45,26,778
44.58320,-0.15470,0.11077,0.00000,0.03099,0.97710,-0.19264,0.0,2023,6,7,15,45,26,788
44.58330,0.00280,0.04077,0.00000,0.02989,0.97539,-0.18959,0.0,2023,6,7,15,45,26,798
44.58340,-0.10220,-0.02923,0.00000,0.03099,0.97612,-0.18971,0.0,2023,6,7,15,45,26,808
44.58350,0.07280,0.11077,0.00000,0.03074,0.97637,-0.19178,0.0,2023,6,7,15,45,26,818
44.58360,0.00280,-0.04673,0.00000,0.03135,0.97600,-0.19227,0.0,2023,6,7,15,45,26,828
44.58370,-0.03220,-0.15173,0.00000,0.03148,0.97637,-0.19557,0.0,2023,6,7,15,45,26,838
44.58380,0.03780,0.05827,0.00000,0.03087,0.97441,-0.19044,0.0,2023,6,7,15,45,26,848
44.58390,-0.03220,-0.01173,0.00000,0.02879,0.97673,-0.19325,0.0,2023,6,7,15,45,26,858
44.58400,0.09030,0.04077,0.00000,0.03135,0.97527,-0.19215,0.0,2023,6,7,15,45,26,868
44.58410,0.16030,-0.22173,0.00000,0.03013,0.97722,-0.19166,0.0,2023,6,7,15,45,26,878
44.58420,-0.03220,0.07577,0.00000,0.03050,0.97527,-0.18983,0.0,2023,6,7,15,45,26,888
44.58430,0.12530,-0.11673,0.00000,0.03221,0.97551,-0.19264,0.0,2023,6,7,15,45,26,898
44.58440,0.12530,0.00577,0.00000,0.02965,0.97624,-0.19117,0.0,2023,6,7,15,45,26,908
44.58450,0.00280,0.02327,0.00000,0.02818,0.97417,-0.19081,0.0,2023,6,7,15,45,26,918
44.58460,-0.01470,-0.06423,0.00000,0.03099,0.97466,-0.19081,0.0,2023,6,7,15,45,26,928
44.58470,-0.18970,-0.06423,0.00000,0.02965,0.97649,-0.18983,0.0,2023,6,7,15,45,26,938
44.58480,0.10780,0.00577,0.00000,0.03123,0.97515,-0.19374,0.0,2023,6,7,15,45,26,948
44.58490,0.00280,0.05827,0.00000,0.03062,0.97502,-0.19178,0.0,2023,6,7,15,45,26,958
44.58500,0.24780,-0.13423,0.00000,0.03038,0.97661,-0.19264,0.0,2023,6,7,15,45,26,968
44.58510,0.00280,-0.09923,0.00000,0.03050,0.97319,-0.19227,0.0,2023,6,7,15,45,26,978
44.58520,-0.04970,0.02327,0.00000,0.03001,0.97710,-0.19337,0.0,2023,6,7,15,45,26,988
44.58530,-0.03220,-0.06423,0.00000,0.03282,0.97551,-0.19459,0.0,2023,6,7,15,45,26,998
44.58540,-0.11970,0.07577,0.00000,0.03087,0.97649,-0.19191,0.0,2023,6,7,15,45,26,8
44.58550,0.00280,0.00577,0.00000,0.03013,0.97551,-0.19117,0.0,2023,6,7,15,45,26,18
44.58560,-0.06720,-0.04673,0.00000,0.02867,0.97783,-0.19178,0.0,2023,6,7,15,45,26,28
44.58570,0.17780,-0.11673,0.00000,0.03196,0.97478,-0.19105,0.0,2023,6,7,15,45,26,38
44.58580,-0.03220,-0.01173,0.00000,0.03001,0.97441,-0.19300,0.0,2023,6,7,15,45,26,48
44.58590,0.17780,-0.20423,0.00000,0.03087,0.97624,-0.19154,0.0,2023,6,7,15,45,26,58
44.58600,-0.04970,0.04077,0.00000,0.03123,0.97698,-0.19020,0.0,2023,6,7,15,45,26,68
44.58610,0.07280,-0.09923,0.00000,0.03148,0.97454,-0.19032,0.0,2023,6,7,15,45,26,78
44.58620,-0.01470,0.04077,0.00000,0.03184,0.97722,-0.19227,0.0,2023,6,7,15,45,26,88
44.58630,0.00280,0.04077,0.00000,0.03233,0.97539,-0.19337,0.0,2023,6,7,15,45,26,98
44.58640,-0.13720,0.14577,0.00000,0.02989,0.97515,-0.19337,0.0,2023,6,7,15,45,26,108
44.58650,0.14280,0.04077,0.00000,0.02879,0.97637,-0.19081,0.0,2023,6,7,15,45,26,118
44.58660,0.10780,-0.02923,0.00000,0.03013,0.97466,-0.19203,0.0,2023,6,7,15,45,26,128
44.58670,-0.11970,-0.11673,0.00000,0.03123,0.97576,-0.19313,0.0,2023,6,7,15,45,26,138
44.58680,0.05530,-0.04673,0.00000,0.02952,0.97527,-0.19300,0.0,2023,6,7,15,45,26,148
44.58690,-0.06720,-0.01173,0.00000,0.03038,0.97466,-0.19191,0.0,2023,6,7,15,45,26,158
44.58700,0.02030,-0.04673,0.00000,0.03221,0.97746,-0.18995,0.0,2023,6,7,15,45,26,168
44.58710,-0.17220,-0.01173,0.00000,0.03123,0.97539,-0.19105,0.0,2023,6,7,15,45,26,178
44.58720,0.09030,0.21577,0.00000,0.03050,0.97551,-0.19178,0.0,2023,6,7,15,45,26,188
44.58730,0.03780,0.05827,0.00000,0.03050,0.97563,-0.19325,0.0,2023,6,7,15,45,26,198
44.58740,0.02030,-0.06423,0.00000,0.03026,0.97685,-0.19081,0.0,2023,6,7,15,45,26,208
44.58750,-0.06720,0.14577,0.00000,0.03038,0.97722,-0.19288,0.0,2023,6,7,15,45,26,218
44.58760,0.09030,0.00577,0.00000,0.03123,0.97759,-0.19215,0.0,2023,6,7,15,45,26,228
44.58770,0.16030,0.05827,0.00000,0.03062,0.97649,-0.19215,0.0,2023,6,7,15,45,26,238
44.58780,0.10780,0.12827,0.00000,0.02904,0.97624,-0.19215,0.0,2023,6,7,15,45,26,248
44.58790,-0.18970,0.18077,0.00000,0.03013,0.97539,-0.19239,0.0,2023,6,7,15,45,26,258
44.58800,0.03780,-0.15173,0.00000,0.02977,0.97637,-0.19349,0.0,2023,6,7,15,45,26,268
44.58810,0.09030,-0.13423,0.00000,0.03038,0.97515,-0.19239,0.0,2023,6,7,15,45,26,278
44.58820,0.03780,-0.13423,0.00000,0.02904,0.97588,-0.19239,0.0,2023,6,7,15,45,26,288
44.58830,0.00280,0.09327,0.00000,0.02940,0.97624,-0.19239,0.0,2023,6,7,15,45,26,298
44.58840,-0.03220,0.07577,0.00000,0.02977,0.97624,-0.18959,0.0,2023,6,7,15,45,26,308
44.58850,-0.08470,-0.01173,0.00000,0.02940,0.97612,-0.19215,0.0,2023,6,7,15,45,26,318
44.58860,0.03780,-0.04673,0.00000,0.02989,0.97478,-0.19203,0.0,2023,6,7,15,45,26,328
44.58870,-0.11970,0.05827,0.00000,0.02623,0.97563,-0.19325,0.0,2023,6,7,15,45,26,338
44.58880,-0.04970,0.12827,0.00000,0.03087,0.97612,-0.19130,0.0,2023,6,7,15,45,26,348
44.58890,0.03780,0.00577,0.00000,0.03123,0.97576,-0.19203,0.0,2023,6,7,15,45,26,358
44.58900,0.05530,0.19827,0.00000,0.03343,0.97405,-0.19203,0.0,2023,6,7,15,45,26,368
44.58910,0.03780,-0.02923,0.00000,0.02891,0.97551,-0.19374,0.0,2023,6,7,15,45,26,378
44.58920,0.10780,-0.02923,0.00000,0.02904,0.97551,-0.19313,0.0,2023,6,7,15,45,26,388
44.58930,-0.11970,0.09327,0.00000,0.03074,0.97380,-0.19056,0.0,2023,6,7,15,45,26,398
44.58940,0.10780,0.16327,0.00000,0.03062,0.97234,-0.18934,0.0,2023,6,7,15,45,26,408
44.58950,0.00280,0.23327,0.00000,0.03111,0.97551,-0.19300,0.0,2023,6,7,15,45,26,418
44.58960,-0.10220,-0.08173,0.00000,0.03111,0.97600,-0.19276,0.0,2023,6,7,15,45,26,428
44.58970,0.07280,-0.13423,0.00000,0.02916,0.97502,-0.19081,0.0,2023,6,7,15,45,26,438
44.58980,0.05530,-0.08173,0.00000,0.03123,0.97600,-0.19130,0.0,2023,6,7,15,45,26,448
44.58990,-0.08470,0.25077,0.00000,0.03184,0.97490,-0.19130,0.0,2023,6,7,15,45,26,458
44.59000,-0.08470,-0.04673,0.00000,0.03233,0.97441,-0.19239,0.0,2023,6,7,15,45,26,468
44.59010,-0.08470,0.12827,0.00000,0.03160,0.97649,-0.19337,0.0,2023,6,7,15,45,26,478
44.59020,0.00280,-0.08173,0.00000,0.02965,0.97515,-0.19008,0.0,2023,6,7,15,45,26,488
44.59030,-0.04970,0.07577,0.00000,0.02952,0.97466,-0.19093,0.0,2023,6,7,15,45,26,498
44.59040,-0.24220,-0.08173,0.00000,0.03160,0.97759,-0.19252,0.0,2023,6,7,15,45,26,508
44.59050,0.10780,0.05827,0.00000,0.03087,0.97515,-0.19264,0.0,2023,6,7,15,45,26,518
44.59060,-0.08470,-0.18673,0.00000,0.03013,0.97673,-0.19093,0.0,2023,6,7,15,45,26,528
44.59070,0.09030,-0.02923,0.00000,0.03184,0.97478,-0.19361,0.0,2023,6,7,15,45,26,538
44.59080,0.02030,-0.18673,0.00000,0.02928,0.97612,-0.19300,0.0,2023,6,7,15,45,26,548
44.59090,0.02030,-0.08173,0.00000,0.03233,0.97746,-0.19252,0.0,2023,6,7,15,45,26,558
44.59100,0.14280,0.12827,0.00000,0.03233,0.97454,-0.19276,0.0,2023,6,7,15,45,26,568
44.59110,-0.01470,0.02327,0.00000,0.02843,0.97624,-0.19459,0.0,2023,6,7,15,45,26,578
44.59120,-0.06720,-0.09923,0.00000,0.02989,0.97807,-0.19154,0.0,2023,6,7,15,45,26,588
44.59130,0.07280,0.04077,0.00000,0.02855,0.97478,-0.19313,0.0,2023,6,7,15,45,27,598
44.59140,-0.20720,0.11077,0.00000,0.02977,0.97502,-0.19093,0.0,2023,6,7,15,45,27,608
44.59150,-0.13720,0.12827,0.00000,0.02965,0.97454,-0.19093,0.0,2023,6,7,15,45,27,618
44.59160,-0.10220,-0.02923,0.00000,0.03087,0.97539,-0.19178,0.0,2023,6,7,15,45,27,628
44.59170,-0.20720,-0.06423,0.00000,0.02855,0.97600,-0.19252,0.0,2023,6,7,15,45,27,638
44.59180,0.19530,0.04077,0.00000,0.02928,0.97600,-0.18983,0.0,2023,6,7,15,45,27,648
44.59190,0.17780,-0.27423,0.00000,0.03148,0.97515,-0.19288,0.0,2023,6,7,15,45,27,658
44.59200,0.03780,-0.20423,0.00000,0.02916,0.97771,-0.19496,0.0,2023,6,7,15,45,27,668
44.59210,-0.08470,0.14577,0.00000,0.03001,0.97539,-0.19313,0.0,2023,6,7,15,45,27,678
44.59220,-0.06720,0.18077,0.00000,0.03111,0.97429,-0.19154,0.0,2023,6,7,15,45,27,688
44.59230,-0.11970,0.07577,0.00000,0.03245,0.97588,-0.19422,0.0,2023,6,7,15,45,27,698
44.59240,0.03780,0.23327,0.00000,0.03257,0.97637,-0.19471,0.0,2023,6,7,15,45,27,708
44.59250,0.12530,0.09327,0.00000,0.03196,0.97551,-0.19117,0.0,2023,6,7,15,45,27,718
44.59260,0.07280,-0.08173,0.00000,0.02794,0.97405,-0.19105,0.0,2023,6,7,15,45,27,728
44.59270,0.00280,0.14577,0.00000,0.02965,0.97515,-0.18910,0.0,2023,6,7,15,45,27,738
44.59280,-0.01470,0.00577,0.00000,0.02965,0.97466,-0.19056,0.0,2023,6,7,15,45,27,748
44.59290,0.14280,-0.02923,0.00000,0.03184,0.97783,-0.19374,0.0,2023,6,7,15,45,27,758
44.59300,0.19530,0.04077,0.00000,0.03087,0.97417,-0.19215,0.0,2023,6,7,15,45,27,768
44.59310,-0.04970,0.07577,0.00000,0.03087,0.97454,-0.19300,0.0,2023,6,7,15,45,27,778
44.59320,0.03780,-0.01173,0.00000,0.03209,0.97600,-0.19130,0.0,2023,6,7,15,45,27,788
44.59330,0.17780,-0.16923,0.00000,0.03233,0.97478,-0.19325,0.0,2023,6,7,15,45,27,798
44.59340,0.10780,-0.04673,0.00000,0.03099,0.97502,-0.19325,0.0,2023,6,7,15,45,27,808
44.59350,0.00280,0.09327,0.00000,0.02891,0.97685,-0.19276,0.0,2023,6,7,15,45,27,818
44.59360,0.14280,0.11077,0.00000,0.03196,0.97551,-0.19227,0.0,2023,6,7,15,45,27,828
44.59370,-0.17220,0.00577,0.00000,0.03001,0.97795,-0.19032,0.0,2023,6,7,15,45,27,838
44.59380,-0.03220,-0.08173,0.00000,0.02989,0.97295,-0.19337,0.0,2023,6,7,15,45,27,848
44.59390,-0.18970,0.05827,0.00000,0.03038,0.97271,-0.19178,0.0,2023,6,7,15,45,27,858
44.59400,0.05530,0.14577,0.00000,0.02977,0.97527,-0.19349,0.0,2023,6,7,15,45,27,868
44.59410,0.03780,-0.09923,0.00000,0.02928,0.97502,-0.19264,0.0,2023,6,7,15,45,27,878
44.59420,0.05530,-0.02923,0.00000,0.02989,0.97624,-0.19252,0.0,2023,6,7,15,45,27,888
44.59430,0.00280,-0.22173,0.00000,0.03050,0.97856,-0.19191,0.0,2023,6,7,15,45,27,898
44.59440,-0.04970,0.02327,0.00000,0.03038,0.97795,-0.19300,0.0,2023,6,7,15,45,27,908
44.59450,-0.06720,0.12827,0.00000,0.02989,0.97527,-0.19252,0.0,2023,6,7,15,45,27,918
44.59460,0.00280,0.14577,0.00000,0.02879,0.97405,-0.18971,0.0,2023,6,7,15,45,27,928
44.59470,0.00280,-0.01173,0.00000,0.03209,0.97673,-0.19105,0.0,2023,6,7,15,45,27,938
44.59480,-0.01470,-0.01173,0.00000,0.02891,0.97417,-0.19093,0.0,2023,6,7,15,45,27,948
44.59490,-0.03220,0.04077,0.00000,0.03135,0.97698,-0.19313,0.0,2023,6,7,15,45,27,958
44.59500,0.21280,-0.23923,0.00000,0.03038,0.97637,-0.19276,0.0,2023,6,7,15,45,27,968
44.59510,-0.13720,0.09327,0.00000,0.02806,0.97600,-0.19325,0.0,2023,6,7,15,45,27,978
44.59520,-0.03220,-0.13423,0.00000,0.03123,0.97527,-0.19203,0.0,2023,6,7,15,45,27,988
44.59530,0.05530,0.23327,0.00000,0.02916,0.97637,-0.19154,0.0,2023,6,7,15,45,27,998
44.59540,0.10780,-0.15173,0.00000,0.03050,0.97612,-0.19227,0.0,2023,6,7,15,45,27,8
44.59550,0.03780,0.00577,0.00000,0.02867,0.97600,-0.19361,0.0,2023,6,7,15,45,27,18
44.59560,-0.01470,0.07577,0.00000,0.03111,0.97588,-0.18983,0.0,2023,6,7,15,45,27,28
44.59570,-0.22470,0.07577,0.00000,0.02904,0.97454,-0.19203,0.0,2023,6,7,15,45,27,38
44.59580,-0.03220,-0.06423,0.00000,0.03013,0.97576,-0.19032,0.0,2023,6,7,15,45,27,48
44.59590,-0.06720,0.14577,0.00000,0.02867,0.97661,-0.19300,0.0,2023,6,7,15,45,27,58
44.59600,-0.13720,0.02327,0.00000,0.03050,0.97539,-0.19191,0.0,2023,6,7,15,45,27,68
44.59610,-0.04970,0.16327,0.00000,0.03013,0.97722,-0.19142,0.0,2023,6,7,15,45,27,78
44.59620,0.05530,0.02327,0.00000,0.03160,0.97612,-0.19325,0.0,2023,6,7,15,45,27,88
44.59630,0.07280,0.00577,0.00000,0.03062,0.97649,-0.19374,0.0,2023,6,7,15,45,27,98
44.59640,0.16030,-0.20423,0.00000,0.03026,0.97356,-0.19117,0.0,2023,6,7,15,45,27,108
44.59650,-0.22470,-0.08173,0.00000,0.02818,0.97746,-0.19117,0.0,2023,6,7,15,45,27,118
44.59660,-0.24220,-0.01173,0.00000,0.02891,0.97563,-0.19252,0.0,2023,6,7,15,45,27,128
44.59670,0.12530,-0.09923,0.00000,0.02928,0.97490,-0.19117,0.0,2023,6,7,15,45,27,138
44.59680,0.09030,0.07577,0.00000,0.03148,0.97417,-0.19337,0.0,2023,6,7,15,45,27,148
44.59690,0.17780,0.07577,0.00000,0.02989,0.97515,-0.19410,0.0,2023,6,7,15,45,27,158
44.59700,-0.01470,-0.11673,0.00000,0.03257,0.97637,-0.19325,0.0,2023,6,7,15,45,27,168
44.59710,-0.01470,-0.15173,0.00000,0.03148,0.97417,-0.19239,0.0,2023,6,7,15,45,27,178
44.59720,0.05530,-0.01173,0.00000,0.02977,0.97600,-0.18898,0.0,2023,6,7,15,45,27,188
44.59730,-0.08470,0.09327,0.00000,0.03233,0.97759,-0.19410,0.0,2023,6,7,15,45,27,198
44.59740,0.03780,-0.02923,0.00000,0.02891,0.97515,-0.19239,0.0,2023,6,7,15,45,27,208
44.59750,0.05530,0.11077,0.00000,0.03050,0.97685,-0.19276,0.0,2023,6,7,15,45,27,218
44.59760,0.09030,-0.06423,0.00000,0.02965,0.97478,-0.19020,0.0,2023,6,7,15,45,27,228
44.59770,0.02030,-0.04673,0.00000,0.03013,0.97600,-0.19288,0.0,2023,6,7,15,45,27,238
44.59780,0.07280,-0.06423,0.00000,0.02928,0.97661,-0.19447,0.0,2023,6,7,15,45,27,248
44.59790,0.00280,0.00577,0.00000,0.02952,0.97563,-0.19276,0.0,2023,6,7,15,45,27,258
44.59800,0.24780,0.09327,0.00000,0.02989,0.97600,-0.19191,0.0,2023,6,7,15,45,27,268
44.59810,-0.03220,0.05827,0.00000,0.02916,0.97551,-0.19203,0.0,2023,6,7,15,45,27,278
44.59820,0.03780,-0.04673,0.00000,0.02818,0.97490,-0.19496,0.0,2023,6,7,15,45,27,288
44.59830,0.00280,-0.02923,0.00000,0.03013,0.97576,-0.19361,0.0,2023,6,7,15,45,27,298
44.59840,-0.20720,0.25077,0.00000,0.02867,0.97441,-0.19056,0.0,2023,6,7,15,45,27,308
44.59850,-0.03220,-0.18673,0.00000,0.02989,0.97746,-0.18812,0.0,2023,6,7,15,45,27,318
44.59860,-0.10220,-0.02923,0.00000,0.02952,0.97698,-0.19264,0.0,2023,6,7,15,45,27,328
44.59870,0.02030,-0.02923,0.00000,0.03026,0.97600,-0.19227,0.0,2023,6,7,15,45,27,338
44.59880,0.23030,-0.18673,0.00000,0.02928,0.97759,-0.19361,0.0,2023,6,7,15,45,27,348
44.59890,0.00280,0.02327,0.00000,0.02965,0.97637,-0.18898,0.0,2023,6,7,15,45,27,358
44.59900,0.09030,-0.15173,0.00000,0.02977,0.97429,-0.19191,0.0,2023,6,7,15,45,27,368
44.59910,0.03780,-0.02923,0.00000,0.03050,0.97539,-0.19422,0.0,2023,6,7,15,45,27,378
44.59920,-0.06720,0.07577,0.00000,0.03062,0.97454,-0.19337,0.0,2023,6,7,15,45,27,388
44.59930,0.03780,-0.04673,0.00000,0.02965,0.97490,-0.19105,0.0,2023,6,7,15,45,27,398
44.59940,-0.04970,-0.30923,0.00000,0.03038,0.97685,-0.19008,0.0,2023,6,7,15,45,27,408
44.59950,0.12530,-0.18673,0.00000,0.03026,0.97563,-0.19544,0.0,2023,6,7,15,45,27,418
44.59960,0.00280,0.16327,0.00000,0.02977,0.97600,-0.19056,0.0,2023,6,7,15,45,27,428
44.59970,0.02030,-0.04673,0.00000,0.02977,0.97368,-0.19093,0.0,2023,6,7,15,45,27,438
44.59980,0.09030,0.02327,0.00000,0.03087,0.97417,-0.19191,0.0,2023,6,7,15,45,27,448
44.59990,0.02030,0.00577,0.00000,0.02965,0.97539,-0.19227,0.0,2023,6,7,15,45,27,458
44.60000,0.14280,0.14577,0.00000,0.03306,0.97539,-0.19081,0.0,2023,6,7,15,45,27,468
44.60010,-0.08470,-0.11673,0.00000,0.03062,0.97588,-0.19288,0.0,2023,6,7,15,45,27,478
44.60020,0.05530,-0.15173,0.00000,0.02879,0.97685,-0.18971,0.0,2023,6,7,15,45,27,488
