#2023/06/07 17:45:58
time,wx,wy,wz,ax,ay,az,yy,MM,dd,hh,mm,ss,ms
50.24890,-0.13020,0.02905,0.00000,0.03379,0.97563,-0.18690,0.0,2023,6,7,17,45,59,729
50.24900,-0.13020,-0.05845,0.00000,0.03038,0.97563,-0.18873,0.0,2023,6,7,17,45,59,729
50.24910,0.07980,0.02905,0.00000,0.03270,0.97588,-0.18922,0.0,2023,6,7,17,45,59,729
50.24920,-0.14770,0.08155,0.00000,0.03148,0.97539,-0.18764,0.0,2023,6,7,17,45,59,729
50.24930,-0.02520,-0.11095,0.00000,0.03306,0.97893,-0.19069,0.0,2023,6,7,17,45,59,729
50.24940,0.14980,0.09905,0.00000,0.03074,0.97759,-0.18654,0.0,2023,6,7,17,45,59,729
50.24950,0.00980,0.08155,0.00000,0.03050,0.97783,-0.18861,0.0,2023,6,7,17,45,59,729
50.24960,0.00980,0.18655,0.00000,0.03026,0.97649,-0.18922,0.0,2023,6,7,17,45,59,729
50.24970,-0.07770,0.18655,0.00000,0.03270,0.97466,-0.18995,0.0,2023,6,7,17,45,59,729
50.24980,-0.14770,0.25655,0.00000,0.03160,0.97502,-0.18837,0.0,2023,6,7,17,45,59,729
50.24990,-0.13020,0.13405,0.00000,0.03026,0.97698,-0.18642,0.0,2023,6,7,17,45,59,729
50.25000,-0.07770,-0.11095,0.00000,0.03123,0.97551,-0.18983,0.0,2023,6,7,17,45,59,729
50.25010,-0.07770,-0.02345,0.00000,0.03148,0.97515,-0.19008,0.0,2023,6,7,17,45,59,729
50.25020,0.07980,-0.02345,0.00000,0.03038,0.97612,-0.18886,0.0,2023,6,7,17,45,59,729
50.25030,0.00980,0.01155,0.00000,0.02830,0.97649,-0.18764,0.0,2023,6,7,17,45,59,729
50.25040,0.02730,-0.00595,0.00000,0.03001,0.97795,-0.18764,0.0,2023,6,7,17,45,59,729
50.25050,-0.14770,-0.05845,0.00000,0.03135,0.97612,-0.18764,0.0,2023,6,7,17,45,59,729
50.25060,-0.13020,0.13405,0.00000,0.03355,0.97649,-0.18715,0.0,2023,6,7,17,45,59,729
50.25070,0.13230,-0.09345,0.00000,0.03184,0.97466,-0.18581,0.0,2023,6,7,17,45,59,729
50.25080,0.13230,-0.09345,0.00000,0.03172,0.97661,-0.18703,0.0,2023,6,7,17,45,59,729
50.25090,0.04480,-0.05845,0.00000,0.03209,0.97600,-0.18751,0.0,2023,6,7,17,45,59,729
50.25100,0.04480,-0.02345,0.00000,0.03074,0.97722,-0.18849,0.0,2023,6,7,17,45,59,729
50.25110,0.06230,-0.18095,0.00000,0.03172,0.97539,-0.18947,0.0,2023,6,7,17,45,59,729
50.25120,0.11480,-0.05845,0.00000,0.03013,0.97746,-0.18873,0.0,2023,6,7,17,45,59,729
50.25130,-0.04270,-0.12845,0.00000,0.03038,0.97759,-0.18934,0.0,2023,6,7,17,45,59,729
50.25140,0.02730,-0.04095,0.00000,0.03184,0.97734,-0.18873,0.0,2023,6,7,17,45,59,729
50.25150,0.04480,0.09905,0.00000,0.03270,0.97454,-0.18971,0.0,2023,6,7,17,45,59,729
50.25160,-0.00770,0.16905,0.00000,0.03013,0.97783,-0.19081,0.0,2023,6,7,17,45,59,729
50.25170,0.16730,0.08155,0.00000,0.03245,0.97515,-0.18934,0.0,2023,6,7,17,45,59,729
50.25180,-0.18270,-0.19845,0.00000,0.03184,0.97661,-0.19081,0.0,2023,6,7,17,45,59,729
50.25190,-0.00770,0.06405,0.00000,0.03087,0.97783,-0.18898,0.0,2023,6,7,17,45,59,729
50.25200,-0.16520,0.11655,0.00000,0.03196,0.97722,-0.18751,0.0,2023,6,7,17,45,59,729
50.25210,0.06230,-0.00595,0.00000,0.03050,0.97685,-0.18629,0.0,2023,6,7,17,45,59,729
50.25220,-0.06020,0.11655,0.00000,0.02794,0.97832,-0.18983,0.0,2023,6,7,17,45,59,729
50.25230,0.06230,-0.09345,0.00000,0.03355,0.97710,-0.18947,0.0,2023,6,7,17,45,59,729
50.25240,0.04480,-0.04095,0.00000,0.03050,0.97734,-0.18898,0.0,2023,6,7,17,45,59,729
50.25250,-0.04270,-0.07595,0.00000,0.03099,0.97319,-0.18873,0.0,2023,6,7,17,45,59,729
50.25260,-0.25270,0.08155,0.00000,0.03111,0.97673,-0.18666,0.0,2023,6,7,17,45,59,729
50.25270,-0.06020,-0.21595,0.00000,0.03013,0.97856,-0.18898,0.0,2023,6,7,17,45,59,729
50.25280,0.13230,0.23905,0.00000,0.03221,0.97490,-0.18751,0.0,2023,6,7,17,45,59,729
50.25290,-0.00770,0.06405,0.00000,0.03270,0.97563,-0.18886,0.0,2023,6,7,17,45,59,729
50.25300,-0.02520,-0.25095,0.00000,0.03123,0.97539,-0.18751,0.0,2023,6,7,17,45,59,729
50.25310,0.07980,-0.04095,0.00000,0.03026,0.97783,-0.18849,0.0,2023,6,7,17,46,0,729
50.25320,-0.11270,0.13405,0.00000,0.02977,0.97551,-0.19093,0.0,2023,6,7,17,46,0,729
50.25330,0.18480,-0.16345,0.00000,0.03343,0.97551,-0.19032,0.0,2023,6,7,17,46,0,729
50.25340,0.14980,-0.16345,0.00000,0.03245,0.97502,-0.18934,0.0,2023,6,7,17,46,0,729
50.25350,-0.11270,-0.11095,0.00000,0.03318,0.97576,-0.18825,0.0,2023,6,7,17,46,0,729
50.25360,0.07980,0.13405,0.00000,0.02952,0.97759,-0.19215,0.0,2023,6,7,17,46,0,729
50.25370,0.04480,0.04655,0.00000,0.03196,0.97588,-0.18983,0.0,2023,6,7,17,46,0,729
50.25380,-0.11270,0.18655,0.00000,0.03245,0.97698,-0.18983,0.0,2023,6,7,17,46,0,729
50.25390,0.06230,-0.02345,0.00000,0.03123,0.97600,-0.18776,0.0,2023,6,7,17,46,0,729
50.25400,-0.13020,0.04655,0.00000,0.03233,0.97893,-0.18837,0.0,2023,6,7,17,46,0,729
50.25410,0.04480,-0.07595,0.00000,0.03148,0.97551,-0.19044,0.0,2023,6,7,17,46,0,729
50.25420,0.00980,0.13405,0.00000,0.03233,0.97612,-0.18898,0.0,2023,6,7,17,46,0,729
50.25430,0.20230,0.08155,0.00000,0.03135,0.97600,-0.18898,0.0,2023,6,7,17,46,0,729
50.25440,-0.00770,0.11655,0.00000,0.03013,0.97368,-0.19081,0.0,2023,6,7,17,46,0,729
50.25450,0.14980,0.01155,0.00000,0.03233,0.97685,-0.18922,0.0,2023,6,7,17,46,0,729
50.25460,-0.11270,0.08155,0.00000,0.03111,0.97771,-0.18849,0.0,2023,6,7,17,46,0,729
50.25470,-0.16520,-0.14595,0.00000,0.03172,0.97527,-0.18715,0.0,2023,6,7,17,46,0,729
50.25480,0.16730,0.04655,0.00000,0.03221,0.97563,-0.18983,0.0,2023,6,7,17,46,0,729
50.25490,0.13230,0.04655,0.00000,0.03184,0.97539,-0.18983,0.0,2023,6,7,17,46,0,729
50.25500,-0.09520,-0.19845,0.00000,0.03306,0.97685,-0.18825,0.0,2023,6,7,17,46,0,729
50.25510,0.04480,-0.02345,0.00000,0.03074,0.97783,-0.18849,0.0,2023,6,7,17,46,0,729
50.25520,-0.00770,-0.09345,0.00000,0.03074,0.97588,-0.19081,0.0,2023,6,7,17,46,0,729
50.25530,0.04480,-0.11095,0.00000,0.03148,0.97563,-0.19020,0.0,2023,6,7,17,46,0,729
50.25540,0.06230,0.18655,0.00000,0.03221,0.97515,-0.18886,0.0,2023,6,7,17,46,0,729
50.25550,-0.07770,-0.04095,0.00000,0.03038,0.97722,-0.18995,0.0,2023,6,7,17,46,0,729
50.25560,0.11480,-0.11095,0.00000,0.03111,0.97624,-0.19191,0.0,2023,6,7,17,46,0,729
50.25570,0.02730,-0.00595,0.00000,0.03074,0.97539,-0.18983,0.0,2023,6,7,17,46,0,729
50.25580,-0.18270,-0.05845,0.00000,0.03111,0.97588,-0.18825,0.0,2023,6,7,17,46,0,729
50.25590,0.18480,-0.07595,0.00000,0.03355,0.97820,-0.18910,0.0,2023,6,7,17,46,0,729
50.25600,-0.07770,0.13405,0.00000,0.03013,0.97624,-0.19227,0.0,2023,6,7,17,46,0,729
50.25610,-0.06020,0.02905,0.00000,0.03111,0.97637,-0.19044,0.0,2023,6,7,17,46,0,729
50.25620,0.04480,0.13405,0.00000,0.03074,0.97551,-0.18934,0.0,2023,6,7,17,46,0,729
50.25630,-0.04270,0.01155,0.00000,0.03294,0.97795,-0.18861,0.0,2023,6,7,17,46,0,730
50.25640,-0.06020,-0.12845,0.00000,0.03038,0.97490,-0.18995,0.0,2023,6,7,17,46,0,730
50.25650,-0.04270,0.15155,0.00000,0.03392,0.97588,-0.18678,0.0,2023,6,7,17,46,0,730
50.25660,-0.00770,-0.02345,0.00000,0.03074,0.97734,-0.18837,0.0,2023,6,7,17,46,0,730
50.25670,-0.02520,0.02905,0.00000,0.03087,0.97624,-0.18776,0.0,2023,6,7,17,46,0,730
50.25680,-0.11270,0.06405,0.00000,0.03111,0.97685,-0.18886,0.0,2023,6,7,17,46,0,730
50.25690,-0.16520,-0.05845,0.00000,0.03123,0.97783,-0.18690,0.0,2023,6,7,17,46,0,730
50.25700,0.04480,0.16905,0.00000,0.03233,0.97685,-0.18886,0.0,2023,6,7,17,46,0,730
50.25710,0.14980,-0.04095,0.00000,0.03135,0.97490,-0.18812,0.0,2023,6,7,17,46,0,730
50.25720,0.02730,0.09905,0.00000,0.03172,0.97527,-0.19008,0.0,2023,6,7,17,46,0,730
50.25730,-0.02520,-0.04095,0.00000,0.03270,0.97820,-0.18873,0.0,2023,6,7,17,46,0,730
50.25740,0.09730,0.15155,0.00000,0.03196,0.97881,-0.18959,0.0,2023,6,7,17,46,0,730
50.25750,-0.21770,0.15155,0.00000,0.03184,0.97807,-0.19032,0.0,2023,6,7,17,46,0,730
50.25760,0.04480,0.06405,0.00000,0.03184,0.97637,-0.19069,0.0,2023,6,7,17,46,0,730
50.25770,-0.06020,0.01155,0.00000,0.03209,0.97673,-0.18727,0.0,2023,6,7,17,46,0,730
50.25780,-0.02520,-0.11095,0.00000,0.03050,0.97551,-0.18898,0.0,2023,6,7,17,46,0,730
50.25790,-0.00770,-0.07595,0.00000,0.03172,0.97478,-0.19374,0.0,2023,6,7,17,46,0,730
50.25800,0.13230,-0.05845,0.00000,0.03160,0.97868,-0.18825,0.0,2023,6,7,17,46,0,730
50.25810,-0.04270,0.06405,0.00000,0.03038,0.97722,-0.18678,0.0,2023,6,7,17,46,0,730
50.25820,0.14980,0.04655,0.00000,0.03343,0.97685,-0.19056,0.0,2023,6,7,17,46,0,730
50.25830,-0.09520,-0.07595,0.00000,0.03343,0.97612,-0.18971,0.0,2023,6,7,17,46,0,730
50.25840,-0.14770,0.20405,0.00000,0.03233,0.97539,-0.18861,0.0,2023,6,7,17,46,0,730
50.25850,-0.04270,-0.11095,0.00000,0.03001,0.97734,-0.18873,0.0,2023,6,7,17,46,0,730
50.25860,-0.04270,-0.02345,0.00000,0.02855,0.97612,-0.18800,0.0,2023,6,7,17,46,0,730
50.25870,0.13230,0.11655,0.00000,0.03001,0.97576,-0.18812,0.0,2023,6,7,17,46,0,730
50.25880,-0.04270,0.01155,0.00000,0.02843,0.97527,-0.18776,0.0,2023,6,7,17,46,0,730
50.25890,-0.18270,-0.04095,0.00000,0.03318,0.97771,-0.18642,0.0,2023,6,7,17,46,0,730
50.25900,-0.06020,0.01155,0.00000,0.03416,0.97539,-0.19032,0.0,2023,6,7,17,46,0,730
50.25910,0.09730,-0.04095,0.00000,0.03221,0.97502,-0.18642,0.0,2023,6,7,17,46,0,730
50.25920,-0.04270,-0.00595,0.00000,0.03196,0.97746,-0.18873,0.0,2023,6,7,17,46,0,730
50.25930,0.06230,-0.07595,0.00000,0.03001,0.97478,-0.18886,0.0,2023,6,7,17,46,0,730
50.25940,0.04480,0.04655,0.00000,0.03111,0.97527,-0.18800,0.0,2023,6,7,17,46,0,730
50.25950,0.02730,-0.12845,0.00000,0.03026,0.97746,-0.18666,0.0,2023,6,7,17,46,0,730
50.25960,0.00980,0.11655,0.00000,0.03148,0.97905,-0.18544,0.0,2023,6,7,17,46,0,730
50.25970,0.09730,0.06405,0.00000,0.03038,0.97746,-0.18739,0.0,2023,6,7,17,46,0,730
50.25980,0.04480,0.02905,0.00000,0.03184,0.97661,-0.18837,0.0,2023,6,7,17,46,0,730
50.25990,-0.02520,0.11655,0.00000,0.03001,0.97588,-0.18812,0.0,2023,6,7,17,46,0,730
50.26000,-0.11270,-0.12845,0.00000,0.03392,0.97527,-0.18947,0.0,2023,6,7,17,46,0,730
50.26010,-0.06020,-0.02345,0.00000,0.02977,0.97515,-0.18849,0.0,2023,6,7,17,46,0,730
50.26020,-0.06020,-0.16345,0.00000,0.03123,0.97795,-0.18825,0.0,2023,6,7,17,46,0,730
50.26030,-0.09520,0.02905,0.00000,0.03270,0.97588,-0.18690,0.0,2023,6,7,17,46,0,730
50.26040,-0.20020,0.01155,0.00000,0.03062,0.97734,-0.18776,0.0,2023,6,7,17,46,0,730
50.26050,-0.00770,-0.04095,0.00000,0.03135,0.97588,-0.19081,0.0,2023,6,7,17,46,0,730
50.26060,-0.07770,0.01155,0.00000,0.03074,0.97734,-0.19020,0.0,2023,6,7,17,46,0,730
50.26070,-0.14770,0.04655,0.00000,0.03050,0.97588,-0.18861,0.0,2023,6,7,17,46,0,730
50.26080,-0.02520,-0.07595,0.00000,0.03123,0.97588,-0.18898,0.0,2023,6,7,17,46,0,730
50.26090,-0.02520,0.15155,0.00000,0.03099,0.97673,-0.19044,0.0,2023,6,7,17,46,0,730
50.26100,0.02730,0.04655,0.00000,0.03221,0.97722,-0.18532,0.0,2023,6,7,17,46,0,730
50.26110,0.02730,0.11655,0.00000,0.03282,0.97551,-0.18727,0.0,2023,6,7,17,46,0,730
50.26120,-0.11270,-0.07595,0.00000,0.03245,0.97551,-0.18617,0.0,2023,6,7,17,46,0,730
50.26130,-0.06020,0.04655,0.00000,0.03050,0.97588,-0.18886,0.0,2023,6,7,17,46,0,730
50.26140,0.14980,0.08155,0.00000,0.03282,0.97563,-0.18959,0.0,2023,6,7,17,46,0,730
50.26150,0.04480,0.04655,0.00000,0.03050,0.97612,-0.18678,0.0,2023,6,7,17,46,0,730
50.26160,-0.04270,-0.00595,0.00000,0.03148,0.97759,-0.18910,0.0,2023,6,7,17,46,0,730
50.26170,-0.04270,0.08155,0.00000,0.03221,0.97563,-0.18934,0.0,2023,6,7,17,46,0,730
50.26180,0.07980,0.13405,0.00000,0.03087,0.97710,-0.18678,0.0,2023,6,7,17,46,0,730
50.26190,-0.09520,-0.21595,0.00000,0.03257,0.97649,-0.18739,0.0,2023,6,7,17,46,0,730
50.26200,0.13230,-0.02345,0.00000,0.03062,0.97685,-0.18898,0.0,2023,6,7,17,46,1,730
50.26210,-0.07770,0.08155,0.00000,0.03074,0.97441,-0.18629,0.0,2023,6,7,17,46,1,730
50.26220,-0.14770,-0.04095,0.00000,0.03148,0.97600,-0.18642,0.0,2023,6,7,17,46,1,730
50.26230,0.11480,-0.16345,0.00000,0.03172,0.97490,-0.18873,0.0,2023,6,7,17,46,1,730
50.26240,-0.04270,0.04655,0.00000,0.03221,0.97710,-0.18886,0.0,2023,6,7,17,46,1,730
50.26250,-0.04270,0.09905,0.00000,0.03172,0.97637,-0.18751,0.0,2023,6,7,17,46,1,730
50.26260,-0.02520,0.01155,0.00000,0.03245,0.97563,-0.18861,0.0,2023,6,7,17,46,1,730
50.26270,-0.11270,0.06405,0.00000,0.03148,0.97490,-0.18837,0.0,2023,6,7,17,46,1,730
50.26280,0.13230,0.06405,0.00000,0.03209,0.97820,-0.18666,0.0,2023,6,7,17,46,1,730
50.26290,-0.20020,0.11655,0.00000,0.03184,0.97820,-0.18690,0.0,2023,6,7,17,46,1,730
50.26300,-0.00770,0.23905,0.00000,0.03196,0.97856,-0.18947,0.0,2023,6,7,17,46,1,730
50.26310,0.07980,-0.12845,0.00000,0.03001,0.97722,-0.18739,0.0,2023,6,7,17,46,1,730
50.26320,-0.04270,0.08155,0.00000,0.03233,0.97551,-0.19008,0.0,2023,6,7,17,46,1,730
50.26330,-0.09520,-0.19845,0.00000,0.03013,0.97942,-0.18849,0.0,2023,6,7,17,46,1,730
50.26340,0.06230,-0.05845,0.00000,0.03111,0.97673,-0.18995,0.0,2023,6,7,17,46,1,730
50.26350,-0.23520,0.15155,0.00000,0.03209,0.97710,-0.18983,0.0,2023,6,7,17,46,1,730
50.26360,-0.16520,0.13405,0.00000,0.02782,0.97576,-0.18837,0.0,2023,6,7,17,46,1,730
50.26370,-0.25270,0.01155,0.00000,0.03062,0.97649,-0.19093,0.0,2023,6,7,17,46,1,730
50.26380,0.02730,-0.18095,0.00000,0.02977,0.97710,-0.19142,0.0,2023,6,7,17,46,1,730
50.26390,-0.00770,-0.16345,0.00000,0.03111,0.97588,-0.18861,0.0,2023,6,7,17,46,1,730
50.26400,-0.13020,0.09905,0.00000,0.03257,0.97380,-0.18715,0.0,2023,6,7,17,46,1,730
50.26410,-0.07770,-0.04095,0.00000,0.03135,0.97771,-0.18934,0.0,2023,6,7,17,46,1,730
50.26420,-0.07770,0.11655,0.00000,0.03282,0.97661,-0.18727,0.0,2023,6,7,17,46,1,730
50.26430,-0.07770,0.02905,0.00000,0.03111,0.97563,-0.18947,0.0,2023,6,7,17,46,1,730
50.26440,0.06230,0.08155,0.00000,0.03270,0.97515,-0.18825,0.0,2023,6,7,17,46,1,730
50.26450,0.07980,-0.05845,0.00000,0.03123,0.97771,-0.18873,0.0,2023,6,7,17,46,1,730
50.26460,-0.04270,-0.05845,0.00000,0.03099,0.97600,-0.18898,0.0,2023,6,7,17,46,1,730
50.26470,-0.04270,0.06405,0.00000,0.03245,0.97649,-0.18825,0.0,2023,6,7,17,46,1,730
50.26480,0.13230,0.11655,0.00000,0.02879,0.97515,-0.19020,0.0,2023,6,7,17,46,1,730
50.26490,0.00980,-0.14595,0.00000,0.03135,0.97698,-0.19069,0.0,2023,6,7,17,46,1,730
50.26500,-0.09520,0.01155,0.00000,0.03209,0.97539,-0.18947,0.0,2023,6,7,17,46,1,731
50.26510,-0.21770,0.22155,0.00000,0.03172,0.97624,-0.18837,0.0,2023,6,7,17,46,1,731
50.26520,0.11480,0.15155,0.00000,0.03135,0.97673,-0.19130,0.0,2023,6,7,17,46,1,731
50.26530,0.02730,-0.11095,0.00000,0.03221,0.97710,-0.18922,0.0,2023,6,7,17,46,1,731
50.26540,-0.09520,0.13405,0.00000,0.03074,0.97807,-0.18727,0.0,2023,6,7,17,46,1,731
50.26550,0.13230,-0.00595,0.00000,0.03135,0.97722,-0.19276,0.0,2023,6,7,17,46,1,731
50.26560,-0.06020,0.06405,0.00000,0.03038,0.97429,-0.18800,0.0,2023,6,7,17,46,1,731
50.26570,-0.07770,0.15155,0.00000,0.03282,0.97661,-0.19081,0.0,2023,6,7,17,46,1,731
50.26580,0.07980,-0.21595,0.00000,0.03148,0.97710,-0.19081,0.0,2023,6,7,17,46,1,731
50.26590,-0.09520,0.04655,0.00000,0.03160,0.97771,-0.18959,0.0,2023,6,7,17,46,1,731
50.26600,-0.02520,-0.02345,0.00000,0.03331,0.97844,-0.19044,0.0,2023,6,7,17,46,1,731
50.26610,0.13230,0.20405,0.00000,0.02916,0.97832,-0.18922,0.0,2023,6,7,17,46,1,731
50.26620,0.02730,-0.04095,0.00000,0.03184,0.97881,-0.19105,0.0,2023,6,7,17,46,1,731
50.26630,0.07980,0.13405,0.00000,0.02891,0.97612,-0.19081,0.0,2023,6,7,17,46,1,731
50.26640,0.00980,0.09905,0.00000,0.03184,0.97588,-0.18764,0.0,2023,6,7,17,46,1,731
50.26650,0.07980,-0.00595,0.00000,0.03099,0.97783,-0.19117,0.0,2023,6,7,17,46,1,731
50.26660,0.02730,0.13405,0.00000,0.03087,0.97527,-0.19093,0.0,2023,6,7,17,46,1,731
50.26670,-0.09520,-0.16345,0.00000,0.03038,0.97795,-0.18800,0.0,2023,6,7,17,46,1,731
50.26680,-0.02520,0.01155,0.00000,0.02916,0.97734,-0.19117,0.0,2023,6,7,17,46,1,731
50.26690,0.11480,-0.02345,0.00000,0.03355,0.97454,-0.19154,0.0,2023,6,7,17,46,1,731
50.26700,0.00980,0.01155,0.00000,0.03026,0.97746,-0.18776,0.0,2023,6,7,17,46,1,731
50.26710,-0.00770,-0.04095,0.00000,0.03135,0.97905,-0.18861,0.0,2023,6,7,17,46,1,731
50.26720,0.02730,-0.21595,0.00000,0.03221,0.97881,-0.19105,0.0,2023,6,7,17,46,1,731
50.26730,-0.07770,0.04655,0.00000,0.03257,0.97710,-0.19154,0.0,2023,6,7,17,46,1,731
50.26740,-0.14770,-0.04095,0.00000,0.03026,0.97563,-0.18947,0.0,2023,6,7,17,46,1,731
50.26750,-0.09520,-0.18095,0.00000,0.03172,0.97942,-0.19105,0.0,2023,6,7,17,46,1,731
50.26760,-0.14770,0.15155,0.00000,0.03282,0.97673,-0.19069,0.0,2023,6,7,17,46,1,731
50.26770,0.07980,-0.11095,0.00000,0.03111,0.97722,-0.18898,0.0,2023,6,7,17,46,1,731
50.26780,-0.30520,0.13405,0.00000,0.03026,0.97759,-0.18678,0.0,2023,6,7,17,46,1,731
50.26790,0.07980,-0.19845,0.00000,0.03172,0.97612,-0.18995,0.0,2023,6,7,17,46,1,731
50.26800,0.00980,0.15155,0.00000,0.03196,0.97661,-0.19191,0.0,2023,6,7,17,46,1,731
50.26810,0.13230,-0.02345,0.00000,0.03294,0.97637,-0.18629,0.0,2023,6,7,17,46,1,731
50.26820,-0.06020,-0.00595,0.00000,0.02904,0.97576,-0.18739,0.0,2023,6,7,17,46,1,731
50.26830,0.20230,-0.07595,0.00000,0.03038,0.97722,-0.18886,0.0,2023,6,7,17,46,1,731
50.26840,0.07980,-0.07595,0.00000,0.03026,0.97368,-0.18788,0.0,2023,6,7,17,46,1,731
50.26850,0.06230,-0.02345,0.00000,0.03160,0.97661,-0.19313,0.0,2023,6,7,17,46,1,731
50.26860,0.06230,0.13405,0.00000,0.02928,0.97685,-0.19056,0.0,2023,6,7,17,46,1,731
50.26870,-0.07770,0.02905,0.00000,0.03062,0.97612,-0.18873,0.0,2023,6,7,17,46,1,731
50.26880,-0.02520,0.06405,0.00000,0.03172,0.97795,-0.19154,0.0,2023,6,7,17,46,1,731
50.26890,-0.09520,-0.07595,0.00000,0.03111,0.97515,-0.19032,0.0,2023,6,7,17,46,1,731
50.26900,-0.07770,0.01155,0.00000,0.03111,0.97893,-0.18690,0.0,2023,6,7,17,46,1,731
50.26910,0.02730,0.09905,0.00000,0.03355,0.97563,-0.18886,0.0,2023,6,7,17,46,1,731
50.26920,0.13230,-0.05845,0.00000,0.03099,0.97746,-0.18934,0.0,2023,6,7,17,46,1,731
50.26930,0.02730,0.08155,0.00000,0.03184,0.97551,-0.18898,0.0,2023,6,7,17,46,1,731
50.26940,0.02730,-0.09345,0.00000,0.03148,0.97478,-0.18910,0.0,2023,6,7,17,46,1,731
50.26950,-0.09520,-0.05845,0.00000,0.02940,0.97820,-0.18934,0.0,2023,6,7,17,46,1,731
50.26960,-0.07770,0.20405,0.00000,0.02904,0.97685,-0.18873,0.0,2023,6,7,17,46,1,731
50.26970,0.00980,-0.09345,0.00000,0.03160,0.97588,-0.19032,0.0,2023,6,7,17,46,1,731
50.26980,-0.06020,-0.18095,0.00000,0.03160,0.97771,-0.18861,0.0,2023,6,7,17,46,1,731
50.26990,0.02730,-0.02345,0.00000,0.03123,0.97441,-0.19130,0.0,2023,6,7,17,46,1,731
50.27000,-0.09520,0.01155,0.00000,0.03184,0.97527,-0.18825,0.0,2023,6,7,17,46,1,731
50.27010,-0.13020,-0.11095,0.00000,0.03343,0.97661,-0.18739,0.0,2023,6,7,17,46,1,731
50.27020,0.04480,-0.11095,0.00000,0.03184,0.97881,-0.18971,0.0,2023,6,7,17,46,1,731
50.27030,-0.07770,0.01155,0.00000,0.03050,0.97673,-0.19203,0.0,2023,6,7,17,46,1,731
50.27040,0.02730,0.18655,0.00000,0.03257,0.97649,-0.18690,0.0,2023,6,7,17,46,1,731
50.27050,0.04480,-0.21595,0.00000,0.03013,0.97588,-0.18971,0.0,2023,6,7,17,46,1,731
50.27060,-0.07770,0.15155,0.00000,0.02965,0.97649,-0.19313,0.0,2023,6,7,17,46,1,731
50.27070,0.06230,-0.07595,0.00000,0.03050,0.97600,-0.18812,0.0,2023,6,7,17,46,1,731
50.27080,0.04480,-0.12845,0.00000,0.02977,0.97649,-0.18666,0.0,2023,6,7,17,46,1,731
50.27090,-0.11270,-0.09345,0.00000,0.03050,0.97612,-0.19105,0.0,2023,6,7,17,46,2,731
50.27100,-0.06020,-0.09345,0.00000,0.03123,0.97746,-0.18873,0.0,2023,6,7,17,46,2,731
50.27110,-0.02520,-0.18095,0.00000,0.03221,0.97746,-0.18605,0.0,2023,6,7,17,46,2,731
50.27120,-0.11270,0.22155,0.00000,0.02965,0.97844,-0.18800,0.0,2023,6,7,17,46,2,731
50.27130,-0.09520,0.09905,0.00000,0.03148,0.97612,-0.19008,0.0,2023,6,7,17,46,2,731
50.27140,0.02730,-0.25095,0.00000,0.03270,0.97820,-0.18873,0.0,2023,6,7,17,46,2,731
50.27150,0.06230,0.13405,0.00000,0.03013,0.97649,-0.18715,0.0,2023,6,7,17,46,2,731
50.27160,-0.14770,-0.00595,0.00000,0.02806,0.97368,-0.18800,0.0,2023,6,7,17,46,2,731
50.27170,0.06230,0.01155,0.00000,0.03148,0.97612,-0.18983,0.0,2023,6,7,17,46,2,731
50.27180,0.06230,0.06405,0.00000,0.03233,0.97746,-0.18629,0.0,2023,6,7,17,46,2,731
50.27190,-0.04270,0.01155,0.00000,0.03245,0.97746,-0.19008,0.0,2023,6,7,17,46,2,731
50.27200,-0.00770,-0.09345,0.00000,0.03245,0.97722,-0.18873,0.0,2023,6,7,17,46,2,731
50.27210,-0.20020,0.18655,0.00000,0.03221,0.97759,-0.18727,0.0,2023,6,7,17,46,2,731
50.27220,-0.13020,0.01155,0.00000,0.03074,0.97771,-0.18715,0.0,2023,6,7,17,46,2,731
50.27230,0.00980,-0.00595,0.00000,0.03123,0.97783,-0.19227,0.0,2023,6,7,17,46,2,731
50.27240,0.00980,0.15155,0.00000,0.03257,0.97588,-0.18886,0.0,2023,6,7,17,46,2,731
50.27250,0.11480,-0.07595,0.00000,0.03184,0.97588,-0.18910,0.0,2023,6,7,17,46,2,731
50.27260,0.11480,-0.12845,0.00000,0.03050,0.97734,-0.18922,0.0,2023,6,7,17,46,2,731
50.27270,-0.02520,-0.05845,0.00000,0.03184,0.97588,-0.18800,0.0,2023,6,7,17,46,2,731
50.27280,0.02730,-0.12845,0.00000,0.03087,0.97673,-0.18788,0.0,2023,6,7,17,46,2,731
50.27290,0.00980,-0.18095,0.00000,0.03245,0.97722,-0.18959,0.0,2023,6,7,17,46,2,731
50.27300,-0.13020,0.02905,0.00000,0.03282,0.97917,-0.18812,0.0,2023,6,7,17,46,2,731
50.27310,-0.07770,-0.05845,0.00000,0.03343,0.97734,-0.18727,0.0,2023,6,7,17,46,2,731
50.27320,-0.28770,0.01155,0.00000,0.03184,0.97515,-0.19020,0.0,2023,6,7,17,46,2,731
50.27330,-0.20020,-0.04095,0.00000,0.03209,0.97734,-0.18703,0.0,2023,6,7,17,46,2,731
50.27340,0.06230,0.08155,0.00000,0.03074,0.97612,-0.18690,0.0,2023,6,7,17,46,2,731
50.27350,-0.09520,-0.04095,0.00000,0.03233,0.97624,-0.18727,0.0,2023,6,7,17,46,2,731
50.27360,-0.02520,-0.23345,0.00000,0.02989,0.97868,-0.18800,0.0,2023,6,7,17,46,2,731
50.27370,-0.04270,0.02905,0.00000,0.03148,0.97734,-0.18837,0.0,2023,6,7,17,46,2,732
50.27380,-0.00770,-0.02345,0.00000,0.03453,0.97673,-0.18788,0.0,2023,6,7,17,46,2,732
50.27390,0.02730,-0.00595,0.00000,0.02965,0.97612,-0.18898,0.0,2023,6,7,17,46,2,732
50.27400,-0.04270,-0.12845,0.00000,0.03221,0.97502,-0.18764,0.0,2023,6,7,17,46,2,732
50.27410,-0.13020,-0.14595,0.00000,0.03062,0.97600,-0.18837,0.0,2023,6,7,17,46,2,732
50.27420,0.02730,-0.09345,0.00000,0.02916,0.97685,-0.18776,0.0,2023,6,7,17,46,2,732
50.27430,0.06230,-0.07595,0.00000,0.02940,0.97783,-0.18971,0.0,2023,6,7,17,46,2,732
50.27440,-0.04270,-0.02345,0.00000,0.03184,0.97637,-0.18288,0.0,2023,6,7,17,46,2,732
50.27450,-0.11270,0.08155,0.00000,0.03172,0.97600,-0.18922,0.0,2023,6,7,17,46,2,732
50.27460,-0.21770,0.13405,0.00000,0.03001,0.97807,-0.18812,0.0,2023,6,7,17,46,2,732
50.27470,-0.11270,-0.16345,0.00000,0.03196,0.97734,-0.18837,0.0,2023,6,7,17,46,2,732
50.27480,-0.09520,0.06405,0.00000,0.03123,0.97551,-0.18910,0.0,2023,6,7,17,46,2,732
50.27490,0.09730,-0.04095,0.00000,0.03148,0.97576,-0.18837,0.0,2023,6,7,17,46,2,732
50.27500,0.14980,-0.07595,0.00000,0.03026,0.97698,-0.18861,0.0,2023,6,7,17,46,2,732
50.27510,-0.09520,0.16905,0.00000,0.03416,0.97710,-0.18861,0.0,2023,6,7,17,46,2,732
50.27520,0.14980,-0.09345,0.00000,0.02940,0.97868,-0.18678,0.0,2023,6,7,17,46,2,732
50.27530,0.00980,0.16905,0.00000,0.03111,0.97698,-0.18666,0.0,2023,6,7,17,46,2,732
50.27540,0.02730,-0.07595,0.00000,0.02989,0.97685,-0.18703,0.0,2023,6,7,17,46,2,732
50.27550,0.14980,-0.07595,0.00000,0.03123,0.97771,-0.18483,0.0,2023,6,7,17,46,2,732
50.27560,0.02730,-0.16345,0.00000,0.03135,0.97478,-0.18886,0.0,2023,6,7,17,46,2,732
50.27570,-0.04270,0.04655,0.00000,0.03074,0.97661,-0.18825,0.0,2023,6,7,17,46,2,732
50.27580,-0.04270,-0.12845,0.00000,0.03001,0.97673,-0.18764,0.0,2023,6,7,17,46,2,732
50.27590,0.18480,-0.21595,0.00000,0.03172,0.97832,-0.18642,0.0,2023,6,7,17,46,2,732
50.27600,0.00980,0.23905,0.00000,0.03245,0.97722,-0.18910,0.0,2023,6,7,17,46,2,732
50.27610,-0.07770,-0.12845,0.00000,0.03172,0.97576,-0.18800,0.0,2023,6,7,17,46,2,732
50.27620,-0.14770,0.01155,0.00000,0.03099,0.97734,-0.18666,0.0,2023,6,7,17,46,2,732
50.27630,0.02730,0.16905,0.00000,0.03172,0.97893,-0.18886,0.0,2023,6,7,17,46,2,732
50.27640,-0.00770,0.04655,0.00000,0.03196,0.97600,-0.19008,0.0,2023,6,7,17,46,2,732
50.27650,0.04480,-0.09345,0.00000,0.03160,0.97405,-0.18776,0.0,2023,6,7,17,46,2,732
50.27660,0.00980,-0.09345,0.00000,0.03074,0.97685,-0.18703,0.0,2023,6,7,17,46,2,732
50.27670,0.00980,0.11655,0.00000,0.03001,0.97612,-0.19032,0.0,2023,6,7,17,46,2,732
50.27680,-0.13020,0.02905,0.00000,0.03196,0.97722,-0.18812,0.0,2023,6,7,17,46,2,732
50.27690,0.06230,0.01155,0.00000,0.03123,0.97722,-0.18605,0.0,2023,6,7,17,46,2,732
50.27700,0.00980,-0.05845,0.00000,0.02806,0.97661,-0.18837,0.0,2023,6,7,17,46,2,732
50.27710,-0.04270,0.23905,0.00000,0.03135,0.97734,-0.19020,0.0,2023,6,7,17,46,2,732
50.27720,-0.07770,0.02905,0.00000,0.03111,0.97661,-0.18910,0.0,2023,6,7,17,46,2,732
50.27730,-0.13020,0.13405,0.00000,0.03050,0.97734,-0.18666,0.0,2023,6,7,17,46,2,732
50.27740,0.09730,-0.02345,0.00000,0.03123,0.97441,-0.18898,0.0,2023,6,7,17,46,2,732
50.27750,-0.02520,-0.05845,0.00000,0.03245,0.97441,-0.18751,0.0,2023,6,7,17,46,2,732
50.27760,-0.04270,0.02905,0.00000,0.03282,0.97539,-0.18544,0.0,2023,6,7,17,46,2,732
50.27770,-0.00770,-0.19845,0.00000,0.03148,0.97759,-0.18605,0.0,2023,6,7,17,46,2,732
50.27780,0.06230,-0.02345,0.00000,0.03074,0.97637,-0.18934,0.0,2023,6,7,17,46,2,732
50.27790,-0.06020,0.15155,0.00000,0.03294,0.97576,-0.18629,0.0,2023,6,7,17,46,2,732
50.27800,0.00980,-0.12845,0.00000,0.03111,0.97649,-0.18715,0.0,2023,6,7,17,46,2,732
50.27810,-0.28770,-0.09345,0.00000,0.03111,0.97490,-0.18983,0.0,2023,6,7,17,46,2,732
50.27820,0.04480,0.13405,0.00000,0.03282,0.97746,-0.18617,0.0,2023,6,7,17,46,2,732
50.27830,-0.20020,0.09905,0.00000,0.03172,0.97441,-0.18739,0.0,2023,6,7,17,46,2,732
50.27840,0.04480,0.18655,0.00000,0.03270,0.97771,-0.18849,0.0,2023,6,7,17,46,2,732
50.27850,-0.20020,-0.02345,0.00000,0.03209,0.97856,-0.18910,0.0,2023,6,7,17,46,2,732
50.27860,0.07980,-0.11095,0.00000,0.03099,0.97710,-0.18910,0.0,2023,6,7,17,46,2,732
50.27870,-0.07770,0.01155,0.00000,0.02940,0.97722,-0.18581,0.0,2023,6,7,17,46,2,732
50.27880,-0.00770,-0.05845,0.00000,0.03099,0.97661,-0.18629,0.0,2023,6,7,17,46,2,732
50.27890,-0.00770,-0.02345,0.00000,0.02965,0.97502,-0.19044,0.0,2023,6,7,17,46,2,732
50.27900,-0.04270,-0.05845,0.00000,0.03245,0.97600,-0.18581,0.0,2023,6,7,17,46,2,732
50.27910,-0.28770,0.13405,0.00000,0.03184,0.97539,-0.18873,0.0,2023,6,7,17,46,2,732
50.27920,0.16730,-0.25095,0.00000,0.03111,0.97673,-0.18739,0.0,2023,6,7,17,46,2,732
50.27930,-0.27020,0.13405,0.00000,0.02977,0.97771,-0.18837,0.0,2023,6,7,17,46,2,732
50.27940,-0.11270,-0.09345,0.00000,0.03294,0.97624,-0.18568,0.0,2023,6,7,17,46,2,732
50.27950,0.11480,-0.04095,0.00000,0.03209,0.97417,-0.18751,0.0,2023,6,7,17,46,2,732
50.27960,0.09730,-0.07595,0.00000,0.03172,0.97588,-0.18971,0.0,2023,6,7,17,46,2,732
50.27970,0.00980,0.09905,0.00000,0.03282,0.97685,-0.18825,0.0,2023,6,7,17,46,2,732
50.27980,-0.00770,-0.11095,0.00000,0.03123,0.97661,-0.18886,0.0,2023,6,7,17,46,3,732
50.27990,-0.07770,-0.11095,0.00000,0.03099,0.97685,-0.18678,0.0,2023,6,7,17,46,3,732
50.28000,-0.06020,-0.18095,0.00000,0.03050,0.97673,-0.18776,0.0,2023,6,7,17,46,3,732
50.28010,-0.00770,0.22155,0.00000,0.03087,0.97783,-0.18666,0.0,2023,6,7,17,46,3,732
50.28020,-0.09520,0.02905,0.00000,0.03184,0.97673,-0.18532,0.0,2023,6,7,17,46,3,732
50.28030,-0.02520,0.01155,0.00000,0.03013,0.97783,-0.18934,0.0,2023,6,7,17,46,3,732
50.28040,0.18480,0.23905,0.00000,0.03099,0.97685,-0.18788,0.0,2023,6,7,17,46,3,732
50.28050,-0.00770,0.09905,0.00000,0.03013,0.97661,-0.18825,0.0,2023,6,7,17,46,3,732
50.28060,-0.14770,0.02905,0.00000,0.02952,0.97405,-0.18959,0.0,2023,6,7,17,46,3,732
50.28070,0.06230,-0.19845,0.00000,0.03318,0.97551,-0.18947,0.0,2023,6,7,17,46,3,732
50.28080,-0.04270,-0.07595,0.00000,0.02965,0.97868,-0.18678,0.0,2023,6,7,17,46,3,732
50.28090,-0.30520,0.11655,0.00000,0.02989,0.97393,-0.18520,0.0,2023,6,7,17,46,3,732
50.28100,-0.02520,-0.00595,0.00000,0.02928,0.97698,-0.18739,0.0,2023,6,7,17,46,3,732
50.28110,0.04480,-0.09345,0.00000,0.03135,0.97624,-0.18812,0.0,2023,6,7,17,46,3,732
50.28120,-0.16520,0.08155,0.00000,0.03001,0.97576,-0.18812,0.0,2023,6,7,17,46,3,732
50.28130,-0.14770,0.16905,0.00000,0.03135,0.97563,-0.18715,0.0,2023,6,7,17,46,3,732
50.28140,0.04480,-0.12845,0.00000,0.03318,0.97637,-0.18983,0.0,2023,6,7,17,46,3,732
50.28150,0.00980,0.08155,0.00000,0.03123,0.97502,-0.18825,0.0,2023,6,7,17,46,3,732
50.28160,0.11480,-0.05845,0.00000,0.03233,0.97807,-0.18922,0.0,2023,6,7,17,46,3,732
50.28170,0.11480,0.02905,0.00000,0.03172,0.97429,-0.18666,0.0,2023,6,7,17,46,3,732
50.28180,0.14980,-0.04095,0.00000,0.03221,0.97673,-0.18715,0.0,2023,6,7,17,46,3,732
50.28190,-0.04270,-0.04095,0.00000,0.02721,0.97868,-0.18959,0.0,2023,6,7,17,46,3,732
50.28200,-0.06020,0.02905,0.00000,0.03135,0.97673,-0.18727,0.0,2023,6,7,17,46,3,732
50.28210,-0.00770,-0.04095,0.00000,0.03331,0.97417,-0.18764,0.0,2023,6,7,17,46,3,732
50.28220,-0.02520,-0.21595,0.00000,0.03343,0.97795,-0.18898,0.0,2023,6,7,17,46,3,732
50.28230,0.04480,0.13405,0.00000,0.03294,0.97722,-0.18886,0.0,2023,6,7,17,46,3,732
50.28240,0.11480,-0.09345,0.00000,0.02965,0.97905,-0.18947,0.0,2023,6,7,17,46,3,733
50.28250,-0.21770,0.08155,0.00000,0.03209,0.97722,-0.18764,0.0,2023,6,7,17,46,3,733
50.28260,-0.04270,0.13405,0.00000,0.03074,0.97710,-0.18886,0.0,2023,6,7,17,46,3,733
50.28270,-0.00770,0.09905,0.00000,0.03087,0.97588,-0.18776,0.0,2023,6,7,17,46,3,733
50.28280,0.00980,-0.02345,0.00000,0.03257,0.97820,-0.18861,0.0,2023,6,7,17,46,3,733
50.28290,-0.13020,-0.05845,0.00000,0.03160,0.97515,-0.18910,0.0,2023,6,7,17,46,3,733
50.28300,-0.14770,-0.04095,0.00000,0.03013,0.97807,-0.18934,0.0,2023,6,7,17,46,3,733
50.28310,0.23730,-0.09345,0.00000,0.03245,0.97942,-0.19093,0.0,2023,6,7,17,46,3,733
50.28320,0.04480,0.08155,0.00000,0.03148,0.97795,-0.18959,0.0,2023,6,7,17,46,3,733
50.28330,0.14980,0.08155,0.00000,0.03135,0.97771,-0.18678,0.0,2023,6,7,17,46,3,733
50.28340,0.14980,-0.07595,0.00000,0.03038,0.97771,-0.18788,0.0,2023,6,7,17,46,3,733
50.28350,0.07980,0.06405,0.00000,0.02977,0.97515,-0.18971,0.0,2023,6,7,17,46,3,733
50.28360,0.00980,-0.00595,0.00000,0.03160,0.97710,-0.18873,0.0,2023,6,7,17,46,3,733
50.28370,0.07980,0.01155,0.00000,0.03074,0.97563,-0.18727,0.0,2023,6,7,17,46,3,733
50.28380,0.04480,0.04655,0.00000,0.03135,0.97393,-0.18617,0.0,2023,6,7,17,46,3,733
50.28390,-0.07770,0.06405,0.00000,0.03184,0.97929,-0.18934,0.0,2023,6,7,17,46,3,733
50.28400,-0.13020,-0.00595,0.00000,0.03026,0.97746,-0.18642,0.0,2023,6,7,17,46,3,733
50.28410,-0.35770,0.34405,0.00000,0.03196,0.97759,-0.18654,0.0,2023,6,7,17,46,3,733
50.28420,-0.14770,-0.04095,0.00000,0.02977,0.97807,-0.18727,0.0,2023,6,7,17,46,3,733
50.28430,0.02730,-0.14595,0.00000,0.02916,0.97539,-0.18910,0.0,2023,6,7,17,46,3,733
50.28440,0.02730,0.01155,0.00000,0.03392,0.97563,-0.18861,0.0,2023,6,7,17,46,3,733
50.28450,-0.11270,0.09905,0.00000,0.03160,0.97637,-0.18873,0.0,2023,6,7,17,46,3,733
50.28460,-0.07770,0.23905,0.00000,0.03196,0.97600,-0.18922,0.0,2023,6,7,17,46,3,733
50.28470,0.16730,0.13405,0.00000,0.03245,0.97637,-0.18764,0.0,2023,6,7,17,46,3,733
50.28480,-0.13020,-0.04095,0.00000,0.03282,0.97759,-0.18678,0.0,2023,6,7,17,46,3,733
50.28490,0.02730,0.02905,0.00000,0.03148,0.97783,-0.18898,0.0,2023,6,7,17,46,3,733
50.28500,-0.04270,0.11655,0.00000,0.03001,0.97710,-0.18922,0.0,2023,6,7,17,46,3,733
50.28510,0.07980,-0.07595,0.00000,0.03099,0.97515,-0.18751,0.0,2023,6,7,17,46,3,733
50.28520,0.16730,0.04655,0.00000,0.03074,0.97746,-0.18959,0.0,2023,6,7,17,46,3,733
50.28530,0.16730,-0.04095,0.00000,0.03294,0.97661,-0.19056,0.0,2023,6,7,17,46,3,733
50.28540,-0.02520,-0.09345,0.00000,0.03453,0.97795,-0.18715,0.0,2023,6,7,17,46,3,733
50.28550,0.11480,-0.04095,0.00000,0.03196,0.97820,-0.18532,0.0,2023,6,7,17,46,3,733
50.28560,-0.02520,0.08155,0.00000,0.03111,0.97759,-0.18800,0.0,2023,6,7,17,46,3,733
50.28570,0.07980,-0.19845,0.00000,0.02940,0.97502,-0.19178,0.0,2023,6,7,17,46,3,733
50.28580,-0.07770,0.27405,0.00000,0.03001,0.97734,-0.18617,0.0,2023,6,7,17,46,3,733
50.28590,0.35980,-0.09345,0.00000,0.03184,0.97441,-0.18715,0.0,2023,6,7,17,46,3,733
50.28600,-0.09520,0.29155,0.00000,0.03160,0.97600,-0.19020,0.0,2023,6,7,17,46,3,733
50.28610,0.13230,0.06405,0.00000,0.03123,0.97563,-0.19093,0.0,2023,6,7,17,46,3,733
50.28620,0.04480,0.06405,0.00000,0.03111,0.97466,-0.19008,0.0,2023,6,7,17,46,3,733
50.28630,-0.23520,0.02905,0.00000,0.03123,0.97454,-0.18861,0.0,2023,6,7,17,46,3,733
50.28640,0.04480,0.01155,0.00000,0.03062,0.97868,-0.19020,0.0,2023,6,7,17,46,3,733
50.28650,-0.11270,0.01155,0.00000,0.02733,0.97710,-0.18825,0.0,2023,6,7,17,46,3,733
50.28660,-0.07770,0.06405,0.00000,0.03294,0.97466,-0.18532,0.0,2023,6,7,17,46,3,733
50.28670,-0.11270,0.01155,0.00000,0.03013,0.97588,-0.18715,0.0,2023,6,7,17,46,3,733
50.28680,0.04480,-0.02345,0.00000,0.03001,0.97698,-0.19032,0.0,2023,6,7,17,46,3,733
50.28690,-0.18270,0.06405,0.00000,0.03123,0.97539,-0.18947,0.0,2023,6,7,17,46,3,733
50.28700,-0.07770,0.16905,0.00000,0.03318,0.97661,-0.18764,0.0,2023,6,7,17,46,3,733
50.28710,0.02730,-0.05845,0.00000,0.02977,0.97600,-0.18971,0.0,2023,6,7,17,46,3,733
50.28720,-0.11270,0.06405,0.00000,0.03306,0.97612,-0.19093,0.0,2023,6,7,17,46,3,733
50.28730,0.09730,-0.02345,0.00000,0.02952,0.97649,-0.19093,0.0,2023,6,7,17,46,3,733
50.28740,-0.13020,-0.02345,0.00000,0.03013,0.97685,-0.18800,0.0,2023,6,7,17,46,3,733
50.28750,-0.28770,0.02905,0.00000,0.03099,0.97466,-0.18861,0.0,2023,6,7,17,46,3,733
50.28760,-0.21770,-0.11095,0.00000,0.03209,0.97868,-0.18788,0.0,2023,6,7,17,46,3,733
50.28770,-0.04270,-0.02345,0.00000,0.03184,0.97600,-0.18922,0.0,2023,6,7,17,46,3,733
50.28780,-0.04270,-0.05845,0.00000,0.03245,0.97502,-0.18971,0.0,2023,6,7,17,46,3,733
50.28790,0.21980,0.06405,0.00000,0.02940,0.97820,-0.18934,0.0,2023,6,7,17,46,3,733
50.28800,-0.09520,-0.04095,0.00000,0.03233,0.97576,-0.18910,0.0,2023,6,7,17,46,3,733
50.28810,-0.00770,0.04655,0.00000,0.03148,0.97588,-0.18934,0.0,2023,6,7,17,46,3,733
50.28820,0.07980,-0.09345,0.00000,0.03221,0.97527,-0.18764,0.0,2023,6,7,17,46,3,733
50.28830,-0.06020,-0.00595,0.00000,0.03135,0.97673,-0.18947,0.0,2023,6,7,17,46,3,733
50.28840,0.14980,-0.00595,0.00000,0.03196,0.97649,-0.18849,0.0,2023,6,7,17,46,3,733
50.28850,-0.16520,0.16905,0.00000,0.03257,0.97393,-0.18642,0.0,2023,6,7,17,46,3,733
50.28860,0.04480,-0.04095,0.00000,0.03087,0.97637,-0.18556,0.0,2023,6,7,17,46,3,733
50.28870,0.13230,0.04655,0.00000,0.03184,0.97454,-0.19020,0.0,2023,6,7,17,46,3,733
50.28880,-0.11270,-0.07595,0.00000,0.03148,0.97685,-0.18934,0.0,2023,6,7,17,46,4,733
50.28890,-0.06020,-0.02345,0.00000,0.02916,0.97746,-0.18764,0.0,2023,6,7,17,46,4,733
50.28900,-0.02520,0.06405,0.00000,0.03013,0.97429,-0.18971,0.0,2023,6,7,17,46,4,733
50.28910,-0.06020,0.16905,0.00000,0.03111,0.97649,-0.18959,0.0,2023,6,7,17,46,4,733
50.28920,0.00980,0.13405,0.00000,0.03257,0.97502,-0.18825,0.0,2023,6,7,17,46,4,733
50.28930,-0.04270,-0.00595,0.00000,0.03111,0.97466,-0.19117,0.0,2023,6,7,17,46,4,733
50.28940,-0.13020,-0.09345,0.00000,0.03404,0.97515,-0.18727,0.0,2023,6,7,17,46,4,733
50.28950,-0.06020,0.01155,0.00000,0.03318,0.97637,-0.18983,0.0,2023,6,7,17,46,4,733
50.28960,-0.06020,0.25655,0.00000,0.02977,0.97673,-0.19032,0.0,2023,6,7,17,46,4,733
50.28970,0.09730,-0.04095,0.00000,0.03257,0.97637,-0.18715,0.0,2023,6,7,17,46,4,733
50.28980,-0.02520,-0.11095,0.00000,0.02867,0.97734,-0.18690,0.0,2023,6,7,17,46,4,733
50.28990,-0.06020,-0.00595,0.00000,0.03148,0.97563,-0.18776,0.0,2023,6,7,17,46,4,733
50.29000,-0.04270,-0.07595,0.00000,0.02904,0.97868,-0.19044,0.0,2023,6,7,17,46,4,733
50.29010,0.04480,-0.07595,0.00000,0.03026,0.97612,-0.19313,0.0,2023,6,7,17,46,4,733
50.29020,-0.21770,0.11655,0.00000,0.03148,0.97759,-0.19020,0.0,2023,6,7,17,46,4,733
50.29030,-0.04270,0.18655,0.00000,0.03294,0.97783,-0.18910,0.0,2023,6,7,17,46,4,733
50.29040,-0.06020,-0.05845,0.00000,0.03111,0.97624,-0.19008,0.0,2023,6,7,17,46,4,733
50.29050,-0.20020,0.13405,0.00000,0.02989,0.97722,-0.18922,0.0,2023,6,7,17,46,4,733
50.29060,-0.14770,0.15155,0.00000,0.03074,0.97807,-0.19032,0.0,2023,6,7,17,46,4,733
50.29070,-0.16520,0.08155,0.00000,0.03013,0.97539,-0.19166,0.0,2023,6,7,17,46,4,733
50.29080,-0.02520,0.23905,0.00000,0.03111,0.97478,-0.18825,0.0,2023,6,7,17,46,4,733
50.29090,0.02730,0.20405,0.00000,0.03111,0.97612,-0.19008,0.0,2023,6,7,17,46,4,733
50.29100,-0.07770,0.09905,0.00000,0.03196,0.97783,-0.18776,0.0,2023,6,7,17,46,4,733
50.29110,0.18480,-0.02345,0.00000,0.02952,0.97734,-0.18837,0.0,2023,6,7,17,46,4,734
50.29120,0.09730,-0.00595,0.00000,0.03074,0.97746,-0.18849,0.0,2023,6,7,17,46,4,734
50.29130,-0.27020,0.04655,0.00000,0.03062,0.97734,-0.18715,0.0,2023,6,7,17,46,4,734
50.29140,-0.00770,0.06405,0.00000,0.02989,0.97600,-0.18837,0.0,2023,6,7,17,46,4,734
50.29150,0.00980,0.06405,0.00000,0.03172,0.97844,-0.18873,0.0,2023,6,7,17,46,4,734
50.29160,0.07980,-0.02345,0.00000,0.03111,0.97771,-0.19276,0.0,2023,6,7,17,46,4,734
50.29170,0.14980,0.04655,0.00000,0.03172,0.97685,-0.18886,0.0,2023,6,7,17,46,4,734
50.29180,0.11480,0.02905,0.00000,0.03123,0.97710,-0.18995,0.0,2023,6,7,17,46,4,734
50.29190,-0.20020,-0.04095,0.00000,0.02977,0.97710,-0.18983,0.0,2023,6,7,17,46,4,734
50.29200,-0.11270,-0.05845,0.00000,0.03001,0.97698,-0.19008,0.0,2023,6,7,17,46,4,734
50.29210,0.07980,-0.11095,0.00000,0.03123,0.97576,-0.19130,0.0,2023,6,7,17,46,4,734
50.29220,0.00980,0.22155,0.00000,0.03184,0.97454,-0.18898,0.0,2023,6,7,17,46,4,734
50.29230,-0.21770,0.18655,0.00000,0.03172,0.97624,-0.18861,0.0,2023,6,7,17,46,4,734
50.29240,-0.21770,0.15155,0.00000,0.03331,0.97844,-0.19056,0.0,2023,6,7,17,46,4,734
50.29250,0.04480,-0.02345,0.00000,0.03050,0.97344,-0.19300,0.0,2023,6,7,17,46,4,734
50.29260,0.00980,0.13405,0.00000,0.03050,0.97771,-0.19032,0.0,2023,6,7,17,46,4,734
50.29270,-0.00770,-0.02345,0.00000,0.03282,0.97502,-0.18873,0.0,2023,6,7,17,46,4,734
50.29280,0.00980,-0.04095,0.00000,0.03111,0.97563,-0.18971,0.0,2023,6,7,17,46,4,734
50.29290,0.27230,-0.00595,0.00000,0.03050,0.97917,-0.19081,0.0,2023,6,7,17,46,4,734
50.29300,-0.23520,0.06405,0.00000,0.03294,0.97515,-0.19069,0.0,2023,6,7,17,46,4,734
50.29310,-0.02520,-0.00595,0.00000,0.03160,0.97624,-0.18934,0.0,2023,6,7,17,46,4,734
50.29320,-0.02520,0.08155,0.00000,0.03343,0.97771,-0.18666,0.0,2023,6,7,17,46,4,734
50.29330,-0.02520,0.11655,0.00000,0.03221,0.97771,-0.18959,0.0,2023,6,7,17,46,4,734
50.29340,0.06230,0.06405,0.00000,0.03013,0.97685,-0.19288,0.0,2023,6,7,17,46,4,734
50.29350,-0.14770,0.06405,0.00000,0.03062,0.97624,-0.18800,0.0,2023,6,7,17,46,4,734
50.29360,-0.11270,-0.16345,0.00000,0.03135,0.97698,-0.18825,0.0,2023,6,7,17,46,4,734
50.29370,-0.14770,-0.07595,0.00000,0.03050,0.97722,-0.18959,0.0,2023,6,7,17,46,4,734
50.29380,0.02730,-0.04095,0.00000,0.02977,0.97783,-0.18959,0.0,2023,6,7,17,46,4,734
50.29390,0.04480,0.15155,0.00000,0.03123,0.97685,-0.18861,0.0,2023,6,7,17,46,4,734
50.29400,0.00980,0.13405,0.00000,0.03257,0.97698,-0.19032,0.0,2023,6,7,17,46,4,734
50.29410,0.00980,-0.02345,0.00000,0.03172,0.97807,-0.18751,0.0,2023,6,7,17,46,4,734
50.29420,0.07980,0.13405,0.00000,0.03245,0.97868,-0.19264,0.0,2023,6,7,17,46,4,734
50.29430,0.04480,-0.04095,0.00000,0.03172,0.97368,-0.18861,0.0,2023,6,7,17,46,4,734
50.29440,-0.18270,0.29155,0.00000,0.03148,0.97673,-0.19252,0.0,2023,6,7,17,46,4,734
50.29450,0.09730,-0.02345,0.00000,0.03294,0.97856,-0.18776,0.0,2023,6,7,17,46,4,734
50.29460,0.09730,0.13405,0.00000,0.03050,0.97515,-0.18934,0.0,2023,6,7,17,46,4,734
50.29470,0.06230,-0.02345,0.00000,0.03318,0.97600,-0.18922,0.0,2023,6,7,17,46,4,734
50.29480,-0.07770,0.01155,0.00000,0.03099,0.97832,-0.19032,0.0,2023,6,7,17,46,4,734
50.29490,0.07980,0.11655,0.00000,0.03038,0.97820,-0.18873,0.0,2023,6,7,17,46,4,734
50.29500,-0.35770,0.13405,0.00000,0.03172,0.97515,-0.18947,0.0,2023,6,7,17,46,4,734
50.29510,-0.20020,-0.00595,0.00000,0.03111,0.97600,-0.19032,0.0,2023,6,7,17,46,4,734
50.29520,0.11480,0.01155,0.00000,0.03160,0.97576,-0.19056,0.0,2023,6,7,17,46,4,734
50.29530,0.00980,0.04655,0.00000,0.03099,0.97515,-0.19008,0.0,2023,6,7,17,46,4,734
50.29540,-0.13020,0.11655,0.00000,0.02782,0.97612,-0.19252,0.0,2023,6,7,17,46,4,734
50.29550,0.09730,0.09905,0.00000,0.03306,0.97820,-0.19020,0.0,2023,6,7,17,46,4,734
50.29560,-0.07770,-0.02345,0.00000,0.03392,0.97856,-0.18812,0.0,2023,6,7,17,46,4,734
50.29570,0.13230,-0.19845,0.00000,0.03306,0.97429,-0.18886,0.0,2023,6,7,17,46,4,734
50.29580,-0.06020,0.08155,0.00000,0.03172,0.97734,-0.19166,0.0,2023,6,7,17,46,4,734
50.29590,0.07980,0.23905,0.00000,0.03123,0.97722,-0.19056,0.0,2023,6,7,17,46,4,734
50.29600,-0.13020,-0.07595,0.00000,0.03282,0.97539,-0.18898,0.0,2023,6,7,17,46,4,734
50.29610,0.07980,-0.16345,0.00000,0.03160,0.97795,-0.18947,0.0,2023,6,7,17,46,4,734
50.29620,0.06230,0.13405,0.00000,0.02965,0.97673,-0.18934,0.0,2023,6,7,17,46,4,734
50.29630,0.06230,-0.07595,0.00000,0.02733,0.97551,-0.19166,0.0,2023,6,7,17,46,4,734
50.29640,0.07980,-0.28595,0.00000,0.03282,0.97637,-0.18861,0.0,2023,6,7,17,46,4,734
50.29650,0.04480,-0.23345,0.00000,0.03196,0.97478,-0.19044,0.0,2023,6,7,17,46,4,734
50.29660,0.00980,0.04655,0.00000,0.03111,0.97734,-0.18971,0.0,2023,6,7,17,46,4,734
50.29670,-0.06020,0.09905,0.00000,0.03123,0.97710,-0.19093,0.0,2023,6,7,17,46,4,734
50.29680,-0.06020,0.01155,0.00000,0.03209,0.97502,-0.19142,0.0,2023,6,7,17,46,4,734
50.29690,-0.06020,0.15155,0.00000,0.03135,0.97710,-0.19044,0.0,2023,6,7,17,46,4,734
50.29700,-0.23520,-0.07595,0.00000,0.03270,0.97624,-0.18873,0.0,2023,6,7,17,46,4,734
50.29710,0.02730,-0.00595,0.00000,0.03099,0.97624,-0.18947,0.0,2023,6,7,17,46,4,734
50.29720,0.34230,-0.23345,0.00000,0.03355,0.97832,-0.19069,0.0,2023,6,7,17,46,4,734
50.29730,-0.13020,0.01155,0.00000,0.03221,0.97600,-0.18995,0.0,2023,6,7,17,46,4,734
50.29740,0.04480,-0.18095,0.00000,0.02904,0.97698,-0.18873,0.0,2023,6,7,17,46,4,734
50.29750,-0.02520,-0.12845,0.00000,0.03233,0.97673,-0.18825,0.0,2023,6,7,17,46,4,734
50.29760,-0.18270,-0.19845,0.00000,0.03123,0.97551,-0.19093,0.0,2023,6,7,17,46,4,734
50.29770,-0.32270,0.06405,0.00000,0.03196,0.97539,-0.19227,0.0,2023,6,7,17,46,4,734
50.29780,0.11480,-0.04095,0.00000,0.03196,0.97576,-0.18995,0.0,2023,6,7,17,46,4,734
50.29790,-0.11270,0.04655,0.00000,0.03123,0.97307,-0.19081,0.0,2023,6,7,17,46,5,734
50.29800,0.07980,0.20405,0.00000,0.02855,0.97624,-0.18959,0.0,2023,6,7,17,46,5,734
50.29810,0.16730,-0.02345,0.00000,0.03074,0.97649,-0.19276,0.0,2023,6,7,17,46,5,734
50.29820,-0.09520,0.01155,0.00000,0.03404,0.97710,-0.18983,0.0,2023,6,7,17,46,5,734
50.29830,0.00980,-0.11095,0.00000,0.03257,0.97612,-0.18825,0.0,2023,6,7,17,46,5,734
50.29840,0.16730,-0.00595,0.00000,0.03135,0.97637,-0.18971,0.0,2023,6,7,17,46,5,734
50.29850,0.00980,0.06405,0.00000,0.03367,0.97746,-0.18739,0.0,2023,6,7,17,46,5,734
50.29860,-0.16520,0.04655,0.00000,0.03148,0.97844,-0.19056,0.0,2023,6,7,17,46,5,734
50.29870,0.02730,-0.16345,0.00000,0.03379,0.97624,-0.18947,0.0,2023,6,7,17,46,5,734
50.29880,-0.14770,-0.12845,0.00000,0.02952,0.97563,-0.18910,0.0,2023,6,7,17,46,5,734
50.29890,-0.00770,-0.04095,0.00000,0.03123,0.97722,-0.18934,0.0,2023,6,7,17,46,5,734
50.29900,-0.06020,-0.09345,0.00000,0.03233,0.97685,-0.18971,0.0,2023,6,7,17,46,5,734
50.29910,-0.04270,0.02905,0.00000,0.03013,0.97698,-0.18934,0.0,2023,6,7,17,46,5,734
50.29920,-0.00770,-0.12845,0.00000,0.03331,0.97612,-0.19008,0.0,2023,6,7,17,46,5,734
50.29930,0.02730,-0.05845,0.00000,0.03135,0.97612,-0.18959,0.0,2023,6,7,17,46,5,734
50.29940,-0.02520,0.09905,0.00000,0.03135,0.97563,-0.19056,0.0,2023,6,7,17,46,5,734
50.29950,-0.07770,-0.00595,0.00000,0.03233,0.97710,-0.19142,0.0,2023,6,7,17,46,5,734
50.29960,-0.04270,0.18655,0.00000,0.02940,0.97649,-0.19093,0.0,2023,6,7,17,46,5,734
50.29970,-0.06020,0.01155,0.00000,0.03087,0.97600,-0.19191,0.0,2023,6,7,17,46,5,734
50.29980,-0.14770,0.13405,0.00000,0.03001,0.97600,-0.18995,0.0,2023,6,7,17,46,5,735
50.29990,0.11480,0.01155,0.00000,0.03074,0.97734,-0.19130,0.0,2023,6,7,17,46,5,735
50.30000,0.11480,-0.28595,0.00000,0.03318,0.97417,-0.19191,0.0,2023,6,7,17,46,5,735
50.30010,-0.20020,-0.12845,0.00000,0.03184,0.97551,-0.18849,0.0,2023,6,7,17,46,5,735
50.30020,0.14980,-0.12845,0.00000,0.03221,0.97600,-0.19374,0.0,2023,6,7,17,46,5,735
50.30030,-0.11270,0.08155,0.00000,0.02904,0.97734,-0.19093,0.0,2023,6,7,17,46,5,735
50.30040,-0.13020,0.15155,0.00000,0.03111,0.97612,-0.18861,0.0,2023,6,7,17,46,5,735
50.30050,-0.07770,-0.26845,0.00000,0.03050,0.97429,-0.18934,0.0,2023,6,7,17,46,5,735
50.30060,-0.07770,0.22155,0.00000,0.03013,0.97588,-0.18995,0.0,2023,6,7,17,46,5,735
50.30070,-0.13020,-0.00595,0.00000,0.03196,0.97673,-0.19361,0.0,2023,6,7,17,46,5,735
50.30080,-0.02520,-0.00595,0.00000,0.02952,0.97576,-0.18751,0.0,2023,6,7,17,46,5,735
50.30090,-0.20020,-0.00595,0.00000,0.03038,0.97612,-0.18861,0.0,2023,6,7,17,46,5,735
50.30100,-0.23520,-0.02345,0.00000,0.03099,0.97551,-0.18959,0.0,2023,6,7,17,46,5,735
50.30110,-0.11270,-0.00595,0.00000,0.03038,0.97673,-0.19056,0.0,2023,6,7,17,46,5,735
50.30120,-0.23520,0.13405,0.00000,0.03062,0.97807,-0.18910,0.0,2023,6,7,17,46,5,735
50.30130,0.07980,-0.02345,0.00000,0.02989,0.97661,-0.18800,0.0,2023,6,7,17,46,5,735
50.30140,-0.16520,0.04655,0.00000,0.03038,0.97576,-0.18837,0.0,2023,6,7,17,46,5,735
50.30150,-0.07770,-0.02345,0.00000,0.03160,0.97624,-0.18886,0.0,2023,6,7,17,46,5,735
50.30160,0.07980,-0.28595,0.00000,0.03087,0.97710,-0.18739,0.0,2023,6,7,17,46,5,735
50.30170,-0.04270,-0.07595,0.00000,0.03135,0.97759,-0.18764,0.0,2023,6,7,17,46,5,735
50.30180,-0.06020,-0.07595,0.00000,0.03111,0.97893,-0.18861,0.0,2023,6,7,17,46,5,735
50.30190,0.02730,0.23905,0.00000,0.03050,0.97490,-0.19154,0.0,2023,6,7,17,46,5,735
50.30200,0.35980,0.01155,0.00000,0.03074,0.97515,-0.18983,0.0,2023,6,7,17,46,5,735
50.30210,0.11480,0.08155,0.00000,0.03306,0.97637,-0.18971,0.0,2023,6,7,17,46,5,735
50.30220,-0.16520,0.09905,0.00000,0.03148,0.97673,-0.19288,0.0,2023,6,7,17,46,5,735
50.30230,0.02730,0.25655,0.00000,0.03135,0.97722,-0.19252,0.0,2023,6,7,17,46,5,735
50.30240,-0.06020,0.02905,0.00000,0.03282,0.97783,-0.18922,0.0,2023,6,7,17,46,5,735
50.30250,-0.04270,0.08155,0.00000,0.03257,0.97783,-0.18837,0.0,2023,6,7,17,46,5,735
50.30260,-0.04270,0.09905,0.00000,0.03026,0.97685,-0.18983,0.0,2023,6,7,17,46,5,735
50.30270,-0.09520,0.01155,0.00000,0.03123,0.97490,-0.18581,0.0,2023,6,7,17,46,5,735
50.30280,0.09730,-0.09345,0.00000,0.03013,0.97710,-0.18995,0.0,2023,6,7,17,46,5,735
50.30290,-0.07770,0.06405,0.00000,0.03282,0.97771,-0.18886,0.0,2023,6,7,17,46,5,735
50.30300,0.07980,0.01155,0.00000,0.02977,0.97942,-0.18971,0.0,2023,6,7,17,46,5,735
50.30310,-0.06020,0.15155,0.00000,0.02965,0.97551,-0.19056,0.0,2023,6,7,17,46,5,735
50.30320,-0.09520,0.11655,0.00000,0.03099,0.97856,-0.18910,0.0,2023,6,7,17,46,5,735
50.30330,0.02730,-0.19845,0.00000,0.03331,0.97795,-0.18886,0.0,2023,6,7,17,46,5,735
50.30340,0.02730,-0.16345,0.00000,0.03221,0.97551,-0.18934,0.0,2023,6,7,17,46,5,735
50.30350,-0.09520,0.08155,0.00000,0.03221,0.97539,-0.19032,0.0,2023,6,7,17,46,5,735
50.30360,-0.13020,0.18655,0.00000,0.03233,0.97515,-0.18983,0.0,2023,6,7,17,46,5,735
50.30370,-0.04270,-0.19845,0.00000,0.02806,0.97588,-0.19105,0.0,2023,6,7,17,46,5,735
50.30380,-0.00770,0.04655,0.00000,0.03099,0.97539,-0.18886,0.0,2023,6,7,17,46,5,735
50.30390,-0.09520,-0.02345,0.00000,0.03196,0.97649,-0.19020,0.0,2023,6,7,17,46,5,735
50.30400,-0.09520,0.20405,0.00000,0.03343,0.97844,-0.18727,0.0,2023,6,7,17,46,5,735
50.30410,0.07980,-0.00595,0.00000,0.03184,0.97478,-0.18922,0.0,2023,6,7,17,46,5,735
50.30420,0.13230,-0.18095,0.00000,0.03245,0.97576,-0.18764,0.0,2023,6,7,17,46,5,735
50.30430,0.11480,0.16905,0.00000,0.03135,0.97710,-0.18800,0.0,2023,6,7,17,46,5,735
50.30440,0.13230,-0.12845,0.00000,0.02989,0.97710,-0.18788,0.0,2023,6,7,17,46,5,735
50.30450,0.00980,0.11655,0.00000,0.03160,0.97734,-0.18800,0.0,2023,6,7,17,46,5,735
50.30460,0.07980,-0.05845,0.00000,0.03184,0.97637,-0.18715,0.0,2023,6,7,17,46,5,735
50.30470,0.00980,0.09905,0.00000,0.03331,0.97685,-0.19069,0.0,2023,6,7,17,46,5,735
50.30480,0.00980,0.04655,0.00000,0.03367,0.97844,-0.18959,0.0,2023,6,7,17,46,5,735
50.30490,0.21980,-0.25095,0.00000,0.03233,0.97698,-0.18568,0.0,2023,6,7,17,46,5,735
50.30500,-0.02520,-0.04095,0.00000,0.03148,0.97368,-0.18800,0.0,2023,6,7,17,46,5,735
50.30510,0.02730,0.02905,0.00000,0.02952,0.97454,-0.19117,0.0,2023,6,7,17,46,5,735
50.30520,0.18480,-0.00595,0.00000,0.03062,0.97746,-0.19044,0.0,2023,6,7,17,46,5,735
50.30530,-0.16520,-0.12845,0.00000,0.03123,0.97576,-0.18690,0.0,2023,6,7,17,46,5,735
50.30540,-0.14770,-0.07595,0.00000,0.03282,0.97698,-0.18812,0.0,2023,6,7,17,46,5,735
50.30550,-0.06020,-0.07595,0.00000,0.03196,0.97612,-0.18800,0.0,2023,6,7,17,46,5,735
50.30560,-0.06020,-0.04095,0.00000,0.03074,0.97734,-0.19020,0.0,2023,6,7,17,46,5,735
50.30570,0.06230,0.02905,0.00000,0.02904,0.97563,-0.18825,0.0,2023,6,7,17,46,5,735
50.30580,0.07980,-0.23345,0.00000,0.03233,0.97515,-0.18947,0.0,2023,6,7,17,46,5,735
50.30590,0.27230,0.11655,0.00000,0.03001,0.97612,-0.19130,0.0,2023,6,7,17,46,5,735
50.30600,0.11480,-0.16345,0.00000,0.02965,0.97673,-0.18922,0.0,2023,6,7,17,46,5,735
50.30610,0.14980,0.13405,0.00000,0.03160,0.97454,-0.18898,0.0,2023,6,7,17,46,5,735
50.30620,0.04480,-0.04095,0.00000,0.03148,0.97771,-0.18764,0.0,2023,6,7,17,46,5,735
50.30630,-0.13020,0.11655,0.00000,0.03099,0.97710,-0.18873,0.0,2023,6,7,17,46,5,735
50.30640,-0.09520,0.29155,0.00000,0.03050,0.97771,-0.19020,0.0,2023,6,7,17,46,5,735
50.30650,-0.00770,0.02905,0.00000,0.03123,0.97746,-0.18861,0.0,2023,6,7,17,46,5,735
50.30660,-0.07770,-0.00595,0.00000,0.03001,0.97637,-0.18812,0.0,2023,6,7,17,46,5,735
50.30670,0.20230,0.06405,0.00000,0.03209,0.97746,-0.18922,0.0,2023,6,7,17,46,5,735
50.30680,0.18480,0.11655,0.00000,0.02977,0.97868,-0.18947,0.0,2023,6,7,17,46,5,735
50.30690,0.02730,-0.16345,0.00000,0.03172,0.97527,-0.19069,0.0,2023,6,7,17,46,6,735
50.30700,-0.00770,-0.18095,0.00000,0.03196,0.97417,-0.19215,0.0,2023,6,7,17,46,6,735
50.30710,0.07980,0.02905,0.00000,0.02952,0.97624,-0.19020,0.0,2023,6,7,17,46,6,735
50.30720,-0.00770,-0.12845,0.00000,0.02977,0.97661,-0.18971,0.0,2023,6,7,17,46,6,735
50.30730,-0.09520,0.48405,0.00000,0.03233,0.97771,-0.19093,0.0,2023,6,7,17,46,6,735
50.30740,0.07980,-0.02345,0.00000,0.02891,0.97515,-0.18934,0.0,2023,6,7,17,46,6,735
50.30750,-0.06020,-0.04095,0.00000,0.02977,0.97746,-0.19105,0.0,2023,6,7,17,46,6,735
50.30760,0.09730,0.11655,0.00000,0.02879,0.97722,-0.19191,0.0,2023,6,7,17,46,6,735
50.30770,-0.07770,0.01155,0.00000,0.03013,0.97527,-0.19117,0.0,2023,6,7,17,46,6,735
50.30780,-0.02520,0.23905,0.00000,0.02904,0.97319,-0.19044,0.0,2023,6,7,17,46,6,735
50.30790,-0.07770,0.09905,0.00000,0.03209,0.97527,-0.19020,0.0,2023,6,7,17,46,6,735
50.30800,-0.23520,0.09905,0.00000,0.03416,0.97771,-0.18666,0.0,2023,6,7,17,46,6,735
50.30810,0.00980,0.11655,0.00000,0.03306,0.97624,-0.19056,0.0,2023,6,7,17,46,6,735
50.30820,-0.06020,-0.04095,0.00000,0.03294,0.97759,-0.19020,0.0,2023,6,7,17,46,6,735
50.30830,-0.18270,0.08155,0.00000,0.03099,0.97954,-0.19032,0.0,2023,6,7,17,46,6,735
50.30840,-0.04270,-0.11095,0.00000,0.03172,0.97490,-0.18825,0.0,2023,6,7,17,46,6,735
50.30850,-0.00770,-0.09345,0.00000,0.03160,0.97637,-0.18934,0.0,2023,6,7,17,46,6,736
50.30860,0.00980,0.08155,0.00000,0.02952,0.97807,-0.19044,0.0,2023,6,7,17,46,6,736
50.30870,0.04480,0.15155,0.00000,0.03074,0.97539,-0.19032,0.0,2023,6,7,17,46,6,736
50.30880,-0.00770,-0.05845,0.00000,0.03282,0.97624,-0.18825,0.0,2023,6,7,17,46,6,736
50.30890,-0.16520,0.09905,0.00000,0.03050,0.97734,-0.19044,0.0,2023,6,7,17,46,6,736
50.30900,0.16730,-0.18095,0.00000,0.02940,0.97637,-0.19105,0.0,2023,6,7,17,46,6,736
50.30910,-0.11270,0.16905,0.00000,0.03184,0.97600,-0.19130,0.0,2023,6,7,17,46,6,736
50.30920,-0.23520,0.11655,0.00000,0.03196,0.97612,-0.18983,0.0,2023,6,7,17,46,6,736
50.30930,-0.13020,0.08155,0.00000,0.03257,0.97576,-0.18471,0.0,2023,6,7,17,46,6,736
50.30940,-0.32270,0.09905,0.00000,0.03367,0.97759,-0.18837,0.0,2023,6,7,17,46,6,736
50.30950,-0.14770,0.15155,0.00000,0.02977,0.97734,-0.19069,0.0,2023,6,7,17,46,6,736
50.30960,0.02730,-0.14595,0.00000,0.03135,0.97515,-0.19032,0.0,2023,6,7,17,46,6,736
50.30970,-0.37520,0.01155,0.00000,0.03062,0.97502,-0.19081,0.0,2023,6,7,17,46,6,736
50.30980,-0.07770,0.02905,0.00000,0.03306,0.97368,-0.18654,0.0,2023,6,7,17,46,6,736
50.30990,0.00980,0.02905,0.00000,0.02940,0.97722,-0.19288,0.0,2023,6,7,17,46,6,736
50.31000,0.09730,-0.16345,0.00000,0.03135,0.97685,-0.19044,0.0,2023,6,7,17,46,6,736
50.31010,-0.16520,0.01155,0.00000,0.03209,0.97405,-0.19032,0.0,2023,6,7,17,46,6,736
50.31020,-0.06020,0.27405,0.00000,0.03245,0.97637,-0.18910,0.0,2023,6,7,17,46,6,736
50.31030,0.00980,0.13405,0.00000,0.03087,0.97710,-0.19166,0.0,2023,6,7,17,46,6,736
50.31040,-0.14770,0.11655,0.00000,0.03026,0.97759,-0.18983,0.0,2023,6,7,17,46,6,736
50.31050,-0.09520,0.11655,0.00000,0.03489,0.97929,-0.18825,0.0,2023,6,7,17,46,6,736
50.31060,0.14980,-0.02345,0.00000,0.03270,0.97637,-0.18837,0.0,2023,6,7,17,46,6,736
50.31070,-0.16520,-0.05845,0.00000,0.03148,0.97771,-0.18873,0.0,2023,6,7,17,46,6,736
50.31080,0.02730,0.09905,0.00000,0.03013,0.97698,-0.19130,0.0,2023,6,7,17,46,6,736
50.31090,-0.00770,-0.05845,0.00000,0.03196,0.97612,-0.19056,0.0,2023,6,7,17,46,6,736
50.31100,0.09730,-0.14595,0.00000,0.03074,0.97759,-0.18934,0.0,2023,6,7,17,46,6,736
50.31110,0.07980,0.06405,0.00000,0.03233,0.97441,-0.18947,0.0,2023,6,7,17,46,6,736
50.31120,0.02730,0.13405,0.00000,0.03038,0.97759,-0.19008,0.0,2023,6,7,17,46,6,736
50.31130,0.11480,-0.00595,0.00000,0.03392,0.97588,-0.18922,0.0,2023,6,7,17,46,6,736
50.31140,-0.04270,0.11655,0.00000,0.03135,0.97576,-0.18788,0.0,2023,6,7,17,46,6,736
50.31150,0.11480,0.01155,0.00000,0.03111,0.97807,-0.19142,0.0,2023,6,7,17,46,6,736
50.31160,-0.06020,-0.02345,0.00000,0.02879,0.97527,-0.18959,0.0,2023,6,7,17,46,6,736
50.31170,-0.00770,-0.00595,0.00000,0.03111,0.97698,-0.18983,0.0,2023,6,7,17,46,6,736
50.31180,-0.09520,0.13405,0.00000,0.03074,0.97820,-0.19191,0.0,2023,6,7,17,46,6,736
50.31190,-0.06020,-0.07595,0.00000,0.03148,0.97710,-0.18788,0.0,2023,6,7,17,46,6,736
50.31200,-0.06020,-0.16345,0.00000,0.03111,0.97612,-0.18873,0.0,2023,6,7,17,46,6,736
50.31210,-0.02520,0.02905,0.00000,0.03221,0.97722,-0.18764,0.0,2023,6,7,17,46,6,736
50.31220,-0.14770,-0.02345,0.00000,0.03111,0.97502,-0.18629,0.0,2023,6,7,17,46,6,736
50.31230,-0.02520,-0.16345,0.00000,0.03074,0.97698,-0.19130,0.0,2023,6,7,17,46,6,736
50.31240,0.11480,-0.14595,0.00000,0.03270,0.97661,-0.18910,0.0,2023,6,7,17,46,6,736
50.31250,0.06230,-0.14595,0.00000,0.03038,0.97722,-0.19105,0.0,2023,6,7,17,46,6,736
50.31260,0.21980,-0.16345,0.00000,0.03087,0.97759,-0.19349,0.0,2023,6,7,17,46,6,736
50.31270,0.23730,-0.23345,0.00000,0.03318,0.97539,-0.18910,0.0,2023,6,7,17,46,6,736
50.31280,0.07980,0.09905,0.00000,0.03160,0.97502,-0.18837,0.0,2023,6,7,17,46,6,736
50.31290,0.07980,-0.11095,0.00000,0.03111,0.97673,-0.18800,0.0,2023,6,7,17,46,6,736
50.31300,-0.14770,0.11655,0.00000,0.03099,0.97673,-0.18983,0.0,2023,6,7,17,46,6,736
50.31310,-0.06020,0.11655,0.00000,0.03123,0.97588,-0.19142,0.0,2023,6,7,17,46,6,736
50.31320,0.02730,-0.09345,0.00000,0.03160,0.97722,-0.18971,0.0,2023,6,7,17,46,6,736
50.31330,0.00980,-0.05845,0.00000,0.03233,0.97746,-0.18788,0.0,2023,6,7,17,46,6,736
50.31340,-0.06020,-0.04095,0.00000,0.02977,0.97612,-0.18922,0.0,2023,6,7,17,46,6,736
50.31350,0.02730,-0.09345,0.00000,0.03184,0.97624,-0.18971,0.0,2023,6,7,17,46,6,736
50.31360,-0.13020,0.08155,0.00000,0.02904,0.97673,-0.18788,0.0,2023,6,7,17,46,6,736
50.31370,-0.14770,-0.09345,0.00000,0.03172,0.97429,-0.18934,0.0,2023,6,7,17,46,6,736
50.31380,0.02730,0.04655,0.00000,0.03001,0.97588,-0.18910,0.0,2023,6,7,17,46,6,736
50.31390,0.02730,-0.12845,0.00000,0.03270,0.97576,-0.18776,0.0,2023,6,7,17,46,6,736
50.31400,0.13230,-0.02345,0.00000,0.03196,0.97746,-0.18983,0.0,2023,6,7,17,46,6,736
50.31410,-0.07770,0.08155,0.00000,0.03196,0.97466,-0.18812,0.0,2023,6,7,17,46,6,736
50.31420,-0.09520,0.08155,0.00000,0.03331,0.97673,-0.18837,0.0,2023,6,7,17,46,6,736
50.31430,0.00980,-0.21595,0.00000,0.03148,0.97612,-0.18849,0.0,2023,6,7,17,46,6,736
50.31440,0.06230,0.09905,0.00000,0.03123,0.97612,-0.19069,0.0,2023,6,7,17,46,6,736
50.31450,-0.02520,-0.19845,0.00000,0.03111,0.97710,-0.18837,0.0,2023,6,7,17,46,6,736
50.31460,0.06230,0.16905,0.00000,0.03172,0.97734,-0.18837,0.0,2023,6,7,17,46,6,736
50.31470,0.00980,-0.11095,0.00000,0.03221,0.97746,-0.19313,0.0,2023,6,7,17,46,6,736
50.31480,-0.16520,-0.02345,0.00000,0.03074,0.97563,-0.19264,0.0,2023,6,7,17,46,6,736
50.31490,0.07980,-0.02345,0.00000,0.02891,0.97624,-0.18886,0.0,2023,6,7,17,46,6,736
50.31500,0.11480,-0.11095,0.00000,0.03233,0.97673,-0.18959,0.0,2023,6,7,17,46,6,736
50.31510,0.18480,-0.11095,0.00000,0.03282,0.97612,-0.19130,0.0,2023,6,7,17,46,6,736
50.31520,-0.07770,0.04655,0.00000,0.03196,0.97771,-0.19166,0.0,2023,6,7,17,46,6,736
50.31530,-0.04270,-0.04095,0.00000,0.03050,0.97746,-0.19032,0.0,2023,6,7,17,46,6,736
50.31540,0.07980,-0.02345,0.00000,0.02855,0.97624,-0.19044,0.0,2023,6,7,17,46,6,736
50.31550,0.02730,-0.12845,0.00000,0.03160,0.97515,-0.18983,0.0,2023,6,7,17,46,6,736
50.31560,0.06230,-0.19845,0.00000,0.03099,0.97698,-0.19178,0.0,2023,6,7,17,46,6,736
50.31570,-0.00770,-0.09345,0.00000,0.03001,0.97661,-0.18959,0.0,2023,6,7,17,46,6,736
50.31580,0.11480,-0.16345,0.00000,0.02965,0.97673,-0.18825,0.0,2023,6,7,17,46,6,736
50.31590,0.02730,0.09905,0.00000,0.02818,0.97685,-0.19093,0.0,2023,6,7,17,46,6,736
50.31600,0.09730,-0.04095,0.00000,0.03038,0.97624,-0.19154,0.0,2023,6,7,17,46,7,736
50.31610,-0.02520,-0.04095,0.00000,0.03038,0.97551,-0.19276,0.0,2023,6,7,17,46,7,736
50.31620,-0.00770,-0.02345,0.00000,0.03148,0.97710,-0.18959,0.0,2023,6,7,17,46,7,736
50.31630,-0.02520,-0.02345,0.00000,0.03306,0.97405,-0.18751,0.0,2023,6,7,17,46,7,736
50.31640,0.11480,-0.12845,0.00000,0.03001,0.97820,-0.19300,0.0,2023,6,7,17,46,7,736
50.31650,-0.04270,0.16905,0.00000,0.03050,0.97539,-0.19252,0.0,2023,6,7,17,46,7,736
50.31660,0.00980,-0.05845,0.00000,0.03184,0.97563,-0.19203,0.0,2023,6,7,17,46,7,736
50.31670,-0.13020,0.04655,0.00000,0.02940,0.97685,-0.19471,0.0,2023,6,7,17,46,7,736
50.31680,0.13230,0.02905,0.00000,0.03233,0.97734,-0.18910,0.0,2023,6,7,17,46,7,736
50.31690,0.14980,0.09905,0.00000,0.03160,0.97307,-0.18812,0.0,2023,6,7,17,46,7,736
50.31700,-0.09520,0.11655,0.00000,0.03428,0.97441,-0.18825,0.0,2023,6,7,17,46,7,736
50.31710,-0.07770,0.09905,0.00000,0.03074,0.97417,-0.18983,0.0,2023,6,7,17,46,7,736
50.31720,-0.14770,0.41405,0.00000,0.03148,0.97710,-0.19288,0.0,2023,6,7,17,46,7,737
50.31730,0.20230,-0.16345,0.00000,0.03367,0.97771,-0.19093,0.0,2023,6,7,17,46,7,737
50.31740,-0.07770,0.22155,0.00000,0.03196,0.97527,-0.18934,0.0,2023,6,7,17,46,7,737
50.31750,0.02730,-0.09345,0.00000,0.03001,0.97710,-0.19056,0.0,2023,6,7,17,46,7,737
50.31760,0.13230,-0.04095,0.00000,0.02891,0.97673,-0.19105,0.0,2023,6,7,17,46,7,737
50.31770,-0.09520,-0.04095,0.00000,0.03184,0.97612,-0.18825,0.0,2023,6,7,17,46,7,737
50.31780,-0.16520,-0.14595,0.00000,0.03294,0.97734,-0.18764,0.0,2023,6,7,17,46,7,737
50.31790,0.09730,0.01155,0.00000,0.03331,0.97441,-0.18959,0.0,2023,6,7,17,46,7,737
50.31800,-0.16520,0.27405,0.00000,0.03026,0.97637,-0.18971,0.0,2023,6,7,17,46,7,737
50.31810,0.21980,0.02905,0.00000,0.03160,0.97649,-0.18971,0.0,2023,6,7,17,46,7,737
50.31820,-0.02520,-0.05845,0.00000,0.03111,0.97551,-0.18910,0.0,2023,6,7,17,46,7,737
50.31830,-0.02520,0.02905,0.00000,0.03172,0.97673,-0.18983,0.0,2023,6,7,17,46,7,737
50.31840,0.06230,-0.04095,0.00000,0.03172,0.97795,-0.19032,0.0,2023,6,7,17,46,7,737
50.31850,0.02730,-0.05845,0.00000,0.02879,0.97539,-0.19093,0.0,2023,6,7,17,46,7,737
50.31860,-0.02520,-0.05845,0.00000,0.03099,0.97844,-0.18959,0.0,2023,6,7,17,46,7,737
50.31870,-0.20020,0.09905,0.00000,0.03111,0.97771,-0.18995,0.0,2023,6,7,17,46,7,737
50.31880,0.13230,-0.00595,0.00000,0.02843,0.97746,-0.19093,0.0,2023,6,7,17,46,7,737
50.31890,-0.14770,0.09905,0.00000,0.03172,0.97685,-0.18873,0.0,2023,6,7,17,46,7,737
50.31900,-0.21770,0.02905,0.00000,0.03135,0.97771,-0.18947,0.0,2023,6,7,17,46,7,737
50.31910,-0.02520,-0.12845,0.00000,0.03343,0.97649,-0.18825,0.0,2023,6,7,17,46,7,737
50.31920,0.02730,-0.04095,0.00000,0.03245,0.97417,-0.18812,0.0,2023,6,7,17,46,7,737
50.31930,-0.09520,-0.16345,0.00000,0.03026,0.97807,-0.18739,0.0,2023,6,7,17,46,7,737
50.31940,-0.06020,0.04655,0.00000,0.03148,0.97893,-0.19008,0.0,2023,6,7,17,46,7,737
50.31950,0.02730,0.18655,0.00000,0.03123,0.97698,-0.18849,0.0,2023,6,7,17,46,7,737
50.31960,-0.07770,-0.12845,0.00000,0.03221,0.97881,-0.18776,0.0,2023,6,7,17,46,7,737
50.31970,-0.09520,0.15155,0.00000,0.03172,0.97637,-0.18837,0.0,2023,6,7,17,46,7,737
50.31980,0.11480,0.02905,0.00000,0.02891,0.97637,-0.19081,0.0,2023,6,7,17,46,7,737
50.31990,-0.00770,0.20405,0.00000,0.03050,0.97844,-0.18800,0.0,2023,6,7,17,46,7,737
50.32000,-0.16520,-0.07595,0.00000,0.03221,0.97478,-0.18764,0.0,2023,6,7,17,46,7,737
50.32010,-0.06020,0.11655,0.00000,0.03184,0.97734,-0.19008,0.0,2023,6,7,17,46,7,737
50.32020,0.00980,-0.05845,0.00000,0.03160,0.97929,-0.19300,0.0,2023,6,7,17,46,7,737
50.32030,-0.09520,-0.05845,0.00000,0.03245,0.97600,-0.19020,0.0,2023,6,7,17,46,7,737
50.32040,-0.04270,0.02905,0.00000,0.03379,0.97588,-0.19313,0.0,2023,6,7,17,46,7,737
50.32050,-0.13020,-0.02345,0.00000,0.03087,0.97698,-0.18959,0.0,2023,6,7,17,46,7,737
50.32060,-0.14770,0.06405,0.00000,0.03416,0.97612,-0.19142,0.0,2023,6,7,17,46,7,737
50.32070,0.06230,0.02905,0.00000,0.03038,0.97771,-0.18971,0.0,2023,6,7,17,46,7,737
50.32080,-0.11270,0.04655,0.00000,0.03306,0.97429,-0.18886,0.0,2023,6,7,17,46,7,737
50.32090,0.16730,-0.09345,0.00000,0.02965,0.97698,-0.19032,0.0,2023,6,7,17,46,7,737
50.32100,-0.09520,0.01155,0.00000,0.02916,0.97478,-0.19020,0.0,2023,6,7,17,46,7,737
50.32110,-0.07770,-0.11095,0.00000,0.03160,0.97649,-0.18971,0.0,2023,6,7,17,46,7,737
50.32120,0.07980,-0.25095,0.00000,0.03013,0.97661,-0.19117,0.0,2023,6,7,17,46,7,737
50.32130,-0.14770,-0.16345,0.00000,0.03123,0.97624,-0.18703,0.0,2023,6,7,17,46,7,737
50.32140,0.21980,-0.18095,0.00000,0.03026,0.97783,-0.18971,0.0,2023,6,7,17,46,7,737
50.32150,-0.16520,0.32655,0.00000,0.03160,0.97698,-0.18861,0.0,2023,6,7,17,46,7,737
50.32160,0.02730,-0.12845,0.00000,0.03038,0.97563,-0.18812,0.0,2023,6,7,17,46,7,737
50.32170,-0.07770,-0.14595,0.00000,0.03379,0.97649,-0.18739,0.0,2023,6,7,17,46,7,737
50.32180,-0.00770,0.16905,0.00000,0.03099,0.97563,-0.19215,0.0,2023,6,7,17,46,7,737
50.32190,0.14980,-0.04095,0.00000,0.03111,0.97563,-0.19069,0.0,2023,6,7,17,46,7,737
50.32200,-0.14770,0.16905,0.00000,0.03074,0.97722,-0.18825,0.0,2023,6,7,17,46,7,737
50.32210,0.13230,0.01155,0.00000,0.03160,0.97661,-0.18861,0.0,2023,6,7,17,46,7,737
50.32220,-0.06020,0.02905,0.00000,0.03111,0.97820,-0.18703,0.0,2023,6,7,17,46,7,737
50.32230,-0.14770,-0.00595,0.00000,0.03160,0.97649,-0.19008,0.0,2023,6,7,17,46,7,737
50.32240,0.00980,-0.11095,0.00000,0.03160,0.97649,-0.18837,0.0,2023,6,7,17,46,7,737
50.32250,-0.16520,0.01155,0.00000,0.03111,0.97624,-0.18715,0.0,2023,6,7,17,46,7,737
50.32260,-0.04270,0.13405,0.00000,0.03050,0.97490,-0.19117,0.0,2023,6,7,17,46,7,737
50.32270,-0.00770,-0.05845,0.00000,0.03233,0.97722,-0.18959,0.0,2023,6,7,17,46,7,737
50.32280,-0.00770,0.02905,0.00000,0.03209,0.97515,-0.18739,0.0,2023,6,7,17,46,7,737
50.32290,-0.04270,-0.09345,0.00000,0.03209,0.97844,-0.19056,0.0,2023,6,7,17,46,7,737
50.32300,-0.02520,0.23905,0.00000,0.03233,0.97673,-0.18788,0.0,2023,6,7,17,46,7,737
50.32310,0.02730,-0.21595,0.00000,0.03196,0.97454,-0.18849,0.0,2023,6,7,17,46,7,737
50.32320,0.00980,0.08155,0.00000,0.02989,0.97649,-0.18654,0.0,2023,6,7,17,46,7,737
50.32330,-0.13020,0.20405,0.00000,0.03172,0.97417,-0.18507,0.0,2023,6,7,17,46,7,737
50.32340,-0.13020,-0.19845,0.00000,0.03196,0.97502,-0.18959,0.0,2023,6,7,17,46,7,737
50.32350,0.13230,-0.02345,0.00000,0.02989,0.97441,-0.19166,0.0,2023,6,7,17,46,7,737
50.32360,0.09730,-0.05845,0.00000,0.03099,0.97637,-0.18934,0.0,2023,6,7,17,46,7,737
50.32370,-0.13020,0.01155,0.00000,0.02989,0.97527,-0.18910,0.0,2023,6,7,17,46,7,737
50.32380,-0.00770,-0.12845,0.00000,0.03184,0.97722,-0.18947,0.0,2023,6,7,17,46,7,737
50.32390,0.25480,-0.18095,0.00000,0.03209,0.97783,-0.18971,0.0,2023,6,7,17,46,7,737
50.32400,0.16730,-0.18095,0.00000,0.03196,0.97588,-0.19032,0.0,2023,6,7,17,46,7,737
50.32410,-0.00770,-0.05845,0.00000,0.03135,0.97698,-0.18971,0.0,2023,6,7,17,46,7,737
50.32420,-0.25270,-0.02345,0.00000,0.03184,0.97673,-0.18886,0.0,2023,6,7,17,46,7,737
50.32430,-0.09520,0.11655,0.00000,0.03209,0.97661,-0.18800,0.0,2023,6,7,17,46,7,737
50.32440,-0.11270,-0.02345,0.00000,0.03050,0.97539,-0.18861,0.0,2023,6,7,17,46,7,737
50.32450,-0.18270,0.01155,0.00000,0.03209,0.97551,-0.18812,0.0,2023,6,7,17,46,7,737
50.32460,-0.06020,-0.11095,0.00000,0.03270,0.97771,-0.18739,0.0,2023,6,7,17,46,7,737
50.32470,0.00980,-0.02345,0.00000,0.03404,0.97661,-0.18788,0.0,2023,6,7,17,46,7,737
50.32480,0.16730,0.16905,0.00000,0.02989,0.97527,-0.19239,0.0,2023,6,7,17,46,7,737
50.32490,-0.09520,-0.00595,0.00000,0.03209,0.97637,-0.18849,0.0,2023,6,7,17,46,7,737
50.32500,-0.07770,0.18655,0.00000,0.03331,0.97515,-0.19008,0.0,2023,6,7,17,46,8,737
50.32510,-0.13020,-0.07595,0.00000,0.03355,0.97698,-0.18959,0.0,2023,6,7,17,46,8,737
50.32520,0.06230,-0.05845,0.00000,0.03038,0.97844,-0.19288,0.0,2023,6,7,17,46,8,737
50.32530,-0.02520,-0.14595,0.00000,0.03440,0.97588,-0.19020,0.0,2023,6,7,17,46,8,737
50.32540,0.04480,0.16905,0.00000,0.02928,0.97795,-0.18788,0.0,2023,6,7,17,46,8,737
50.32550,0.20230,0.11655,0.00000,0.03196,0.97710,-0.19056,0.0,2023,6,7,17,46,8,737
50.32560,0.00980,0.01155,0.00000,0.03209,0.97551,-0.18922,0.0,2023,6,7,17,46,8,737
50.32570,-0.02520,-0.18095,0.00000,0.03026,0.97710,-0.18873,0.0,2023,6,7,17,46,8,737
50.32580,0.23730,-0.07595,0.00000,0.03257,0.97844,-0.19142,0.0,2023,6,7,17,46,8,737
50.32590,-0.07770,0.09905,0.00000,0.03209,0.97710,-0.18886,0.0,2023,6,7,17,46,8,738
50.32600,-0.09520,0.02905,0.00000,0.03270,0.97722,-0.18800,0.0,2023,6,7,17,46,8,738
50.32610,0.00980,0.15155,0.00000,0.03148,0.97722,-0.18886,0.0,2023,6,7,17,46,8,738
50.32620,0.13230,-0.00595,0.00000,0.03257,0.97673,-0.18812,0.0,2023,6,7,17,46,8,738
50.32630,0.14980,0.01155,0.00000,0.03160,0.97478,-0.19008,0.0,2023,6,7,17,46,8,738
50.32640,-0.21770,-0.00595,0.00000,0.03294,0.97807,-0.18849,0.0,2023,6,7,17,46,8,738
50.32650,-0.16520,-0.02345,0.00000,0.03087,0.97685,-0.18776,0.0,2023,6,7,17,46,8,738
50.32660,0.04480,-0.09345,0.00000,0.03148,0.97539,-0.18873,0.0,2023,6,7,17,46,8,738
50.32670,-0.13020,-0.25095,0.00000,0.03245,0.97783,-0.19105,0.0,2023,6,7,17,46,8,738
50.32680,0.04480,-0.02345,0.00000,0.02891,0.97502,-0.19227,0.0,2023,6,7,17,46,8,738
50.32690,-0.07770,0.01155,0.00000,0.03331,0.97539,-0.19032,0.0,2023,6,7,17,46,8,738
50.32700,0.04480,-0.18095,0.00000,0.03148,0.97576,-0.18886,0.0,2023,6,7,17,46,8,738
50.32710,-0.02520,-0.05845,0.00000,0.03062,0.97576,-0.19069,0.0,2023,6,7,17,46,8,738
50.32720,0.18480,0.08155,0.00000,0.02952,0.97637,-0.19117,0.0,2023,6,7,17,46,8,738
50.32730,0.07980,0.09905,0.00000,0.03099,0.97661,-0.19081,0.0,2023,6,7,17,46,8,738
50.32740,0.00980,0.04655,0.00000,0.03221,0.97551,-0.18764,0.0,2023,6,7,17,46,8,738
50.32750,0.00980,0.13405,0.00000,0.03087,0.97807,-0.18983,0.0,2023,6,7,17,46,8,738
50.32760,-0.16520,0.04655,0.00000,0.03367,0.97710,-0.18995,0.0,2023,6,7,17,46,8,738
50.32770,0.00980,0.01155,0.00000,0.03074,0.97612,-0.18983,0.0,2023,6,7,17,46,8,738
50.32780,0.00980,-0.04095,0.00000,0.03087,0.97722,-0.18971,0.0,2023,6,7,17,46,8,738
50.32790,-0.11270,0.13405,0.00000,0.03196,0.97624,-0.19020,0.0,2023,6,7,17,46,8,738
50.32800,-0.25270,-0.00595,0.00000,0.03392,0.97722,-0.18898,0.0,2023,6,7,17,46,8,738
50.32810,-0.18270,0.15155,0.00000,0.02904,0.97759,-0.19044,0.0,2023,6,7,17,46,8,738
50.32820,0.07980,0.04655,0.00000,0.02989,0.97661,-0.18727,0.0,2023,6,7,17,46,8,738
50.32830,-0.20020,0.09905,0.00000,0.03270,0.97746,-0.18934,0.0,2023,6,7,17,46,8,738
50.32840,-0.06020,-0.07595,0.00000,0.03062,0.97881,-0.19044,0.0,2023,6,7,17,46,8,738
50.32850,0.00980,-0.07595,0.00000,0.03209,0.97685,-0.18898,0.0,2023,6,7,17,46,8,738
50.32860,-0.02520,0.25655,0.00000,0.03013,0.97624,-0.18983,0.0,2023,6,7,17,46,8,738
50.32870,0.11480,0.02905,0.00000,0.03148,0.97698,-0.18825,0.0,2023,6,7,17,46,8,738
50.32880,-0.00770,-0.02345,0.00000,0.03270,0.97795,-0.18715,0.0,2023,6,7,17,46,8,738
50.32890,0.02730,-0.07595,0.00000,0.03245,0.97868,-0.18837,0.0,2023,6,7,17,46,8,738
50.32900,-0.06020,0.06405,0.00000,0.02989,0.97710,-0.18812,0.0,2023,6,7,17,46,8,738
50.32910,-0.02520,0.02905,0.00000,0.03270,0.97759,-0.18703,0.0,2023,6,7,17,46,8,738
50.32920,-0.02520,-0.09345,0.00000,0.03245,0.97576,-0.18849,0.0,2023,6,7,17,46,8,738
50.32930,0.02730,-0.28595,0.00000,0.02891,0.97661,-0.19105,0.0,2023,6,7,17,46,8,738
50.32940,-0.06020,0.09905,0.00000,0.03184,0.97844,-0.19081,0.0,2023,6,7,17,46,8,738
50.32950,-0.00770,0.11655,0.00000,0.03026,0.97576,-0.18995,0.0,2023,6,7,17,46,8,738
50.32960,-0.11270,-0.07595,0.00000,0.03416,0.97490,-0.19154,0.0,2023,6,7,17,46,8,738
50.32970,-0.13020,0.13405,0.00000,0.03440,0.97771,-0.18947,0.0,2023,6,7,17,46,8,738
50.32980,0.06230,-0.19845,0.00000,0.03087,0.97576,-0.18886,0.0,2023,6,7,17,46,8,738
50.32990,-0.07770,-0.18095,0.00000,0.03038,0.97746,-0.19056,0.0,2023,6,7,17,46,8,738
50.33000,-0.04270,-0.09345,0.00000,0.03209,0.97258,-0.19081,0.0,2023,6,7,17,46,8,738
50.33010,-0.13020,-0.14595,0.00000,0.03026,0.97539,-0.19142,0.0,2023,6,7,17,46,8,738
50.33020,-0.09520,-0.05845,0.00000,0.03245,0.97539,-0.18934,0.0,2023,6,7,17,46,8,738
50.33030,-0.06020,0.15155,0.00000,0.03001,0.97746,-0.18934,0.0,2023,6,7,17,46,8,738
50.33040,0.02730,-0.02345,0.00000,0.03233,0.97710,-0.19276,0.0,2023,6,7,17,46,8,738
50.33050,0.06230,-0.09345,0.00000,0.02928,0.97612,-0.18959,0.0,2023,6,7,17,46,8,738
50.33060,0.02730,-0.02345,0.00000,0.03196,0.97588,-0.18690,0.0,2023,6,7,17,46,8,738
50.33070,-0.13020,0.08155,0.00000,0.03196,0.97856,-0.18727,0.0,2023,6,7,17,46,8,738
50.33080,-0.00770,-0.00595,0.00000,0.02977,0.97783,-0.18873,0.0,2023,6,7,17,46,8,738
50.33090,0.11480,-0.07595,0.00000,0.03099,0.97783,-0.19105,0.0,2023,6,7,17,46,8,738
50.33100,-0.04270,0.13405,0.00000,0.03172,0.97649,-0.18959,0.0,2023,6,7,17,46,8,738
50.33110,-0.25270,0.02905,0.00000,0.03074,0.97795,-0.18861,0.0,2023,6,7,17,46,8,738
50.33120,0.07980,-0.04095,0.00000,0.03282,0.97612,-0.18861,0.0,2023,6,7,17,46,8,738
50.33130,-0.09520,0.08155,0.00000,0.03123,0.97515,-0.18861,0.0,2023,6,7,17,46,8,738
50.33140,0.07980,-0.09345,0.00000,0.03257,0.97637,-0.19215,0.0,2023,6,7,17,46,8,738
50.33150,-0.00770,0.18655,0.00000,0.03062,0.97490,-0.19154,0.0,2023,6,7,17,46,8,738
50.33160,0.04480,-0.11095,0.00000,0.03099,0.97624,-0.19008,0.0,2023,6,7,17,46,8,738
50.33170,0.07980,0.01155,0.00000,0.03184,0.97551,-0.18959,0.0,2023,6,7,17,46,8,738
50.33180,-0.06020,0.06405,0.00000,0.03270,0.97612,-0.18837,0.0,2023,6,7,17,46,8,738
50.33190,-0.00770,0.18655,0.00000,0.03160,0.97795,-0.18849,0.0,2023,6,7,17,46,8,738
50.33200,-0.14770,0.02905,0.00000,0.03050,0.97673,-0.18947,0.0,2023,6,7,17,46,8,738
50.33210,-0.04270,-0.21595,0.00000,0.03123,0.97771,-0.18861,0.0,2023,6,7,17,46,8,738
50.33220,-0.02520,-0.07595,0.00000,0.03172,0.97637,-0.18910,0.0,2023,6,7,17,46,8,738
50.33230,0.04480,-0.02345,0.00000,0.03221,0.97600,-0.19020,0.0,2023,6,7,17,46,8,738
50.33240,0.02730,0.02905,0.00000,0.03184,0.97698,-0.19166,0.0,2023,6,7,17,46,8,738
50.33250,0.13230,-0.05845,0.00000,0.03123,0.97515,-0.19142,0.0,2023,6,7,17,46,8,738
50.33260,0.02730,0.11655,0.00000,0.03184,0.97661,-0.18947,0.0,2023,6,7,17,46,8,738
50.33270,-0.02520,0.01155,0.00000,0.03099,0.97832,-0.18934,0.0,2023,6,7,17,46,8,738
50.33280,-0.00770,-0.04095,0.00000,0.03074,0.97454,-0.18764,0.0,2023,6,7,17,46,8,738
50.33290,0.00980,-0.19845,0.00000,0.03172,0.97710,-0.19008,0.0,2023,6,7,17,46,8,738
50.33300,0.00980,0.23905,0.00000,0.03062,0.97478,-0.19008,0.0,2023,6,7,17,46,8,738
50.33310,0.21980,-0.00595,0.00000,0.02989,0.97454,-0.18678,0.0,2023,6,7,17,46,8,738
50.33320,0.14980,-0.05845,0.00000,0.03001,0.97710,-0.18739,0.0,2023,6,7,17,46,8,738
50.33330,-0.00770,0.02905,0.00000,0.03184,0.97612,-0.18751,0.0,2023,6,7,17,46,8,738
50.33340,-0.09520,0.11655,0.00000,0.03160,0.97588,-0.18886,0.0,2023,6,7,17,46,8,738
50.33350,0.09730,-0.21595,0.00000,0.02928,0.97551,-0.19142,0.0,2023,6,7,17,46,8,738
50.33360,0.02730,-0.05845,0.00000,0.02928,0.97563,-0.19276,0.0,2023,6,7,17,46,8,738
50.33370,0.02730,0.02905,0.00000,0.03245,0.97563,-0.18861,0.0,2023,6,7,17,46,8,738
50.33380,-0.11270,0.02905,0.00000,0.03074,0.97563,-0.18812,0.0,2023,6,7,17,46,8,738
50.33390,-0.04270,-0.00595,0.00000,0.03209,0.97746,-0.18886,0.0,2023,6,7,17,46,8,738
50.33400,-0.23520,-0.02345,0.00000,0.03099,0.97661,-0.19154,0.0,2023,6,7,17,46,9,738
50.33410,0.02730,-0.07595,0.00000,0.03245,0.97637,-0.18898,0.0,2023,6,7,17,46,9,738
50.33420,-0.11270,0.11655,0.00000,0.03026,0.97429,-0.18825,0.0,2023,6,7,17,46,9,738
50.33430,-0.00770,-0.28595,0.00000,0.03099,0.97844,-0.19032,0.0,2023,6,7,17,46,9,738
50.33440,0.11480,-0.00595,0.00000,0.03428,0.97746,-0.18886,0.0,2023,6,7,17,46,9,738
50.33450,0.16730,0.01155,0.00000,0.03026,0.97441,-0.19044,0.0,2023,6,7,17,46,9,738
50.33460,-0.09520,0.09905,0.00000,0.03111,0.97685,-0.19252,0.0,2023,6,7,17,46,9,739
50.33470,-0.13020,-0.05845,0.00000,0.03233,0.97466,-0.18825,0.0,2023,6,7,17,46,9,739
50.33480,-0.11270,0.15155,0.00000,0.03379,0.97612,-0.18922,0.0,2023,6,7,17,46,9,739
50.33490,0.09730,-0.05845,0.00000,0.03148,0.97673,-0.18825,0.0,2023,6,7,17,46,9,739
50.33500,0.02730,-0.21595,0.00000,0.03233,0.97576,-0.19130,0.0,2023,6,7,17,46,9,739
50.33510,0.07980,-0.12845,0.00000,0.03160,0.97563,-0.18739,0.0,2023,6,7,17,46,9,739
50.33520,0.00980,0.01155,0.00000,0.02965,0.97734,-0.18751,0.0,2023,6,7,17,46,9,739
50.33530,-0.11270,0.13405,0.00000,0.03013,0.97685,-0.18910,0.0,2023,6,7,17,46,9,739
50.33540,-0.16520,0.09905,0.00000,0.03221,0.97649,-0.18922,0.0,2023,6,7,17,46,9,739
50.33550,-0.02520,0.08155,0.00000,0.03416,0.97405,-0.19154,0.0,2023,6,7,17,46,9,739
50.33560,-0.13020,0.16905,0.00000,0.03013,0.97661,-0.18959,0.0,2023,6,7,17,46,9,739
50.33570,-0.11270,0.09905,0.00000,0.03257,0.97832,-0.18825,0.0,2023,6,7,17,46,9,739
50.33580,-0.00770,-0.09345,0.00000,0.03306,0.97759,-0.18898,0.0,2023,6,7,17,46,9,739
50.33590,-0.04270,-0.04095,0.00000,0.03355,0.97515,-0.18861,0.0,2023,6,7,17,46,9,739
50.33600,0.02730,0.15155,0.00000,0.03050,0.97722,-0.18812,0.0,2023,6,7,17,46,9,739
50.33610,-0.35770,0.16905,0.00000,0.03196,0.97795,-0.19142,0.0,2023,6,7,17,46,9,739
50.33620,-0.06020,0.09905,0.00000,0.03099,0.97624,-0.18739,0.0,2023,6,7,17,46,9,739
50.33630,-0.13020,-0.00595,0.00000,0.03135,0.97551,-0.18922,0.0,2023,6,7,17,46,9,739
50.33640,-0.14770,-0.16345,0.00000,0.03074,0.97673,-0.18910,0.0,2023,6,7,17,46,9,739
50.33650,0.00980,-0.05845,0.00000,0.03013,0.97624,-0.18776,0.0,2023,6,7,17,46,9,739
50.33660,0.07980,0.08155,0.00000,0.03148,0.97466,-0.18922,0.0,2023,6,7,17,46,9,739
50.33670,-0.06020,0.09905,0.00000,0.03099,0.97454,-0.18727,0.0,2023,6,7,17,46,9,739
50.33680,-0.14770,0.11655,0.00000,0.03331,0.97673,-0.18788,0.0,2023,6,7,17,46,9,739
50.33690,0.00980,-0.05845,0.00000,0.03184,0.97624,-0.18825,0.0,2023,6,7,17,46,9,739
50.33700,0.09730,0.01155,0.00000,0.03184,0.97710,-0.19105,0.0,2023,6,7,17,46,9,739
50.33710,-0.00770,-0.09345,0.00000,0.03221,0.97759,-0.19069,0.0,2023,6,7,17,46,9,739
50.33720,0.20230,0.15155,0.00000,0.02977,0.97942,-0.18922,0.0,2023,6,7,17,46,9,739
50.33730,0.14980,-0.02345,0.00000,0.03148,0.97685,-0.18922,0.0,2023,6,7,17,46,9,739
50.33740,0.13230,-0.07595,0.00000,0.03233,0.97478,-0.19117,0.0,2023,6,7,17,46,9,739
50.33750,0.06230,-0.02345,0.00000,0.03172,0.97502,-0.18983,0.0,2023,6,7,17,46,9,739
50.33760,-0.06020,-0.16345,0.00000,0.03062,0.97380,-0.18947,0.0,2023,6,7,17,46,9,739
50.33770,-0.06020,0.02905,0.00000,0.03013,0.97612,-0.18886,0.0,2023,6,7,17,46,9,739
50.33780,-0.11270,-0.04095,0.00000,0.03123,0.97466,-0.18739,0.0,2023,6,7,17,46,9,739
50.33790,0.11480,-0.02345,0.00000,0.03306,0.97502,-0.19032,0.0,2023,6,7,17,46,9,739
50.33800,-0.06020,-0.09345,0.00000,0.03416,0.97795,-0.18947,0.0,2023,6,7,17,46,9,739
50.33810,0.02730,0.06405,0.00000,0.03148,0.97563,-0.18898,0.0,2023,6,7,17,46,9,739
50.33820,-0.07770,0.18655,0.00000,0.03196,0.97637,-0.18861,0.0,2023,6,7,17,46,9,739
50.33830,0.04480,-0.19845,0.00000,0.03196,0.97576,-0.18886,0.0,2023,6,7,17,46,9,739
50.33840,0.13230,-0.18095,0.00000,0.03123,0.97551,-0.18971,0.0,2023,6,7,17,46,9,739
50.33850,-0.02520,0.09905,0.00000,0.03111,0.97441,-0.18898,0.0,2023,6,7,17,46,9,739
50.33860,-0.02520,-0.09345,0.00000,0.03306,0.97759,-0.18922,0.0,2023,6,7,17,46,9,739
50.33870,0.09730,0.04655,0.00000,0.03367,0.97588,-0.18788,0.0,2023,6,7,17,46,9,739
50.33880,0.02730,-0.16345,0.00000,0.03099,0.97746,-0.18971,0.0,2023,6,7,17,46,9,739
50.33890,-0.14770,0.01155,0.00000,0.03013,0.97454,-0.18947,0.0,2023,6,7,17,46,9,739
50.33900,-0.11270,0.09905,0.00000,0.03318,0.97673,-0.19008,0.0,2023,6,7,17,46,9,739
50.33910,0.02730,0.23905,0.00000,0.03160,0.97710,-0.19154,0.0,2023,6,7,17,46,9,739
50.33920,-0.11270,0.04655,0.00000,0.03221,0.97576,-0.18922,0.0,2023,6,7,17,46,9,739
50.33930,-0.00770,-0.14595,0.00000,0.03038,0.97551,-0.18995,0.0,2023,6,7,17,46,9,739
50.33940,0.09730,-0.02345,0.00000,0.03196,0.97539,-0.19093,0.0,2023,6,7,17,46,9,739
50.33950,0.18480,-0.00595,0.00000,0.03209,0.97844,-0.19008,0.0,2023,6,7,17,46,9,739
50.33960,-0.16520,0.16905,0.00000,0.02977,0.97612,-0.19191,0.0,2023,6,7,17,46,9,739
50.33970,-0.06020,-0.07595,0.00000,0.03062,0.97759,-0.18727,0.0,2023,6,7,17,46,9,739
50.33980,-0.13020,0.01155,0.00000,0.02916,0.97856,-0.19056,0.0,2023,6,7,17,46,9,739
50.33990,-0.04270,-0.11095,0.00000,0.03245,0.97710,-0.18959,0.0,2023,6,7,17,46,9,739
50.34000,-0.09520,0.15155,0.00000,0.03257,0.97380,-0.18971,0.0,2023,6,7,17,46,9,739
50.34010,0.02730,0.02905,0.00000,0.03184,0.97661,-0.18971,0.0,2023,6,7,17,46,9,739
50.34020,-0.13020,0.13405,0.00000,0.03172,0.97661,-0.18727,0.0,2023,6,7,17,46,9,739
50.34030,-0.02520,-0.12845,0.00000,0.03331,0.97807,-0.18886,0.0,2023,6,7,17,46,9,739
50.34040,-0.07770,0.06405,0.00000,0.03282,0.97393,-0.19081,0.0,2023,6,7,17,46,9,739
50.34050,0.04480,-0.02345,0.00000,0.03074,0.97637,-0.18959,0.0,2023,6,7,17,46,9,739
50.34060,0.09730,0.02905,0.00000,0.03099,0.97502,-0.19178,0.0,2023,6,7,17,46,9,739
50.34070,0.09730,-0.12845,0.00000,0.03257,0.97515,-0.18837,0.0,2023,6,7,17,46,9,739
50.34080,0.07980,0.01155,0.00000,0.03245,0.97429,-0.19032,0.0,2023,6,7,17,46,9,739
50.34090,-0.09520,0.18655,0.00000,0.03196,0.97685,-0.18971,0.0,2023,6,7,17,46,9,739
50.34100,0.04480,-0.11095,0.00000,0.02879,0.97515,-0.18959,0.0,2023,6,7,17,46,9,739
50.34110,-0.14770,-0.02345,0.00000,0.03123,0.97820,-0.18983,0.0,2023,6,7,17,46,9,739
50.34120,-0.02520,0.15155,0.00000,0.03038,0.97710,-0.18849,0.0,2023,6,7,17,46,9,739
50.34130,0.06230,-0.12845,0.00000,0.03111,0.97698,-0.18910,0.0,2023,6,7,17,46,9,739
50.34140,-0.06020,-0.11095,0.00000,0.03074,0.97698,-0.19191,0.0,2023,6,7,17,46,9,739
50.34150,-0.04270,0.13405,0.00000,0.03013,0.97698,-0.19069,0.0,2023,6,7,17,46,9,739
50.34160,0.06230,-0.00595,0.00000,0.02989,0.97466,-0.19081,0.0,2023,6,7,17,46,9,739
50.34170,-0.00770,0.01155,0.00000,0.03160,0.97624,-0.18849,0.0,2023,6,7,17,46,9,739
50.34180,0.06230,-0.04095,0.00000,0.03013,0.97685,-0.18922,0.0,2023,6,7,17,46,9,739
50.34190,0.02730,0.04655,0.00000,0.03294,0.97576,-0.19008,0.0,2023,6,7,17,46,9,739
50.34200,-0.02520,-0.16345,0.00000,0.03184,0.97649,-0.19044,0.0,2023,6,7,17,46,9,739
50.34210,-0.06020,-0.04095,0.00000,0.03123,0.97563,-0.19252,0.0,2023,6,7,17,46,9,739
50.34220,-0.09520,0.32655,0.00000,0.03123,0.97576,-0.18861,0.0,2023,6,7,17,46,9,739
50.34230,-0.09520,-0.07595,0.00000,0.03099,0.97624,-0.19093,0.0,2023,6,7,17,46,9,739
50.34240,0.09730,0.06405,0.00000,0.03062,0.97734,-0.18947,0.0,2023,6,7,17,46,9,739
50.34250,0.32480,-0.04095,0.00000,0.03233,0.97515,-0.18934,0.0,2023,6,7,17,46,9,739
50.34260,-0.04270,-0.02345,0.00000,0.03099,0.97368,-0.18886,0.0,2023,6,7,17,46,9,739
50.34270,-0.09520,-0.00595,0.00000,0.03318,0.97771,-0.18898,0.0,2023,6,7,17,46,9,739
50.34280,-0.00770,0.02905,0.00000,0.03062,0.97502,-0.18703,0.0,2023,6,7,17,46,9,739
50.34290,-0.00770,-0.04095,0.00000,0.03038,0.97734,-0.19032,0.0,2023,6,7,17,46,9,739
50.34300,-0.02520,0.08155,0.00000,0.03099,0.97527,-0.19081,0.0,2023,6,7,17,46,10,739
50.34310,0.11480,-0.18095,0.00000,0.03050,0.97685,-0.18971,0.0,2023,6,7,17,46,10,739
50.34320,-0.21770,0.16905,0.00000,0.03038,0.97759,-0.18739,0.0,2023,6,7,17,46,10,739
50.34330,-0.14770,0.11655,0.00000,0.03318,0.97722,-0.18812,0.0,2023,6,7,17,46,10,740
50.34340,-0.06020,-0.00595,0.00000,0.02855,0.97612,-0.18861,0.0,2023,6,7,17,46,10,740
50.34350,-0.06020,-0.14595,0.00000,0.03111,0.97710,-0.18751,0.0,2023,6,7,17,46,10,740
50.34360,0.02730,0.11655,0.00000,0.03294,0.97661,-0.18812,0.0,2023,6,7,17,46,10,740
50.34370,-0.16520,0.20405,0.00000,0.03062,0.97551,-0.18910,0.0,2023,6,7,17,46,10,740
50.34380,-0.23520,0.23905,0.00000,0.02843,0.97868,-0.18861,0.0,2023,6,7,17,46,10,740
50.34390,0.21980,-0.02345,0.00000,0.03087,0.97685,-0.18983,0.0,2023,6,7,17,46,10,740
50.34400,0.02730,0.04655,0.00000,0.03026,0.97405,-0.18922,0.0,2023,6,7,17,46,10,740
50.34410,-0.07770,-0.14595,0.00000,0.03245,0.97661,-0.18995,0.0,2023,6,7,17,46,10,740
50.34420,0.16730,-0.19845,0.00000,0.03245,0.97929,-0.18934,0.0,2023,6,7,17,46,10,740
50.34430,0.13230,-0.09345,0.00000,0.03038,0.97576,-0.19056,0.0,2023,6,7,17,46,10,740
50.34440,0.25480,-0.05845,0.00000,0.03306,0.97710,-0.19056,0.0,2023,6,7,17,46,10,740
50.34450,-0.09520,-0.02345,0.00000,0.03026,0.97698,-0.19142,0.0,2023,6,7,17,46,10,740
50.34460,-0.04270,0.20405,0.00000,0.03331,0.97710,-0.18886,0.0,2023,6,7,17,46,10,740
50.34470,0.23730,-0.16345,0.00000,0.03184,0.97673,-0.19227,0.0,2023,6,7,17,46,10,740
50.34480,0.06230,-0.21595,0.00000,0.03318,0.97722,-0.18922,0.0,2023,6,7,17,46,10,740
50.34490,-0.00770,-0.02345,0.00000,0.03062,0.97734,-0.18678,0.0,2023,6,7,17,46,10,740
50.34500,0.16730,-0.14595,0.00000,0.03062,0.97783,-0.18995,0.0,2023,6,7,17,46,10,740
50.34510,0.04480,-0.00595,0.00000,0.03026,0.97722,-0.18886,0.0,2023,6,7,17,46,10,740
50.34520,-0.11270,0.15155,0.00000,0.03111,0.97746,-0.18825,0.0,2023,6,7,17,46,10,740
50.34530,-0.02520,0.09905,0.00000,0.03074,0.97759,-0.19056,0.0,2023,6,7,17,46,10,740
50.34540,-0.07770,0.27405,0.00000,0.03038,0.97454,-0.18837,0.0,2023,6,7,17,46,10,740
50.34550,0.06230,0.04655,0.00000,0.03233,0.97832,-0.18727,0.0,2023,6,7,17,46,10,740
50.34560,-0.06020,0.02905,0.00000,0.03196,0.97673,-0.18776,0.0,2023,6,7,17,46,10,740
50.34570,-0.14770,0.02905,0.00000,0.02965,0.97673,-0.18812,0.0,2023,6,7,17,46,10,740
50.34580,-0.04270,-0.07595,0.00000,0.03135,0.97624,-0.18849,0.0,2023,6,7,17,46,10,740
50.34590,0.07980,0.02905,0.00000,0.03209,0.97563,-0.18776,0.0,2023,6,7,17,46,10,740
50.34600,-0.14770,0.01155,0.00000,0.03123,0.97771,-0.18849,0.0,2023,6,7,17,46,10,740
50.34610,-0.07770,-0.00595,0.00000,0.03013,0.97527,-0.19093,0.0,2023,6,7,17,46,10,740
50.34620,-0.18270,0.08155,0.00000,0.03074,0.97722,-0.19020,0.0,2023,6,7,17,46,10,740
50.34630,-0.07770,0.01155,0.00000,0.03221,0.97942,-0.19142,0.0,2023,6,7,17,46,10,740
50.34640,0.00980,-0.02345,0.00000,0.02965,0.97771,-0.19032,0.0,2023,6,7,17,46,10,740
50.34650,0.06230,0.13405,0.00000,0.03038,0.97759,-0.19044,0.0,2023,6,7,17,46,10,740
50.34660,-0.04270,0.08155,0.00000,0.03135,0.97515,-0.18983,0.0,2023,6,7,17,46,10,740
50.34670,-0.09520,-0.12845,0.00000,0.03013,0.97710,-0.19032,0.0,2023,6,7,17,46,10,740
50.34680,0.11480,-0.00595,0.00000,0.03209,0.97722,-0.18654,0.0,2023,6,7,17,46,10,740
50.34690,0.07980,0.09905,0.00000,0.03135,0.97563,-0.18861,0.0,2023,6,7,17,46,10,740
50.34700,0.06230,0.22155,0.00000,0.02904,0.97563,-0.19239,0.0,2023,6,7,17,46,10,740
50.34710,-0.14770,0.13405,0.00000,0.02989,0.97698,-0.18690,0.0,2023,6,7,17,46,10,740
50.34720,0.04480,0.06405,0.00000,0.03148,0.97759,-0.18922,0.0,2023,6,7,17,46,10,740
50.34730,-0.20020,0.04655,0.00000,0.03270,0.97698,-0.19032,0.0,2023,6,7,17,46,10,740
50.34740,-0.09520,0.09905,0.00000,0.03135,0.97832,-0.19093,0.0,2023,6,7,17,46,10,740
50.34750,-0.11270,0.15155,0.00000,0.03099,0.97539,-0.19227,0.0,2023,6,7,17,46,10,740
50.34760,0.00980,-0.05845,0.00000,0.03196,0.97746,-0.18788,0.0,2023,6,7,17,46,10,740
50.34770,-0.06020,0.39655,0.00000,0.03355,0.97661,-0.18715,0.0,2023,6,7,17,46,10,740
50.34780,0.14980,-0.18095,0.00000,0.03038,0.97649,-0.18995,0.0,2023,6,7,17,46,10,740
50.34790,0.11480,0.04655,0.00000,0.02879,0.97771,-0.19142,0.0,2023,6,7,17,46,10,740
50.34800,0.07980,0.08155,0.00000,0.03245,0.97417,-0.19056,0.0,2023,6,7,17,46,10,740
50.34810,0.18480,0.08155,0.00000,0.03184,0.97661,-0.19020,0.0,2023,6,7,17,46,10,740
50.34820,-0.02520,0.20405,0.00000,0.03282,0.97685,-0.18861,0.0,2023,6,7,17,46,10,740
50.34830,0.02730,-0.09345,0.00000,0.03221,0.97649,-0.18983,0.0,2023,6,7,17,46,10,740
50.34840,0.13230,-0.04095,0.00000,0.03148,0.97551,-0.18898,0.0,2023,6,7,17,46,10,740
50.34850,0.02730,-0.02345,0.00000,0.03257,0.97466,-0.19032,0.0,2023,6,7,17,46,10,740
50.34860,0.04480,-0.05845,0.00000,0.03135,0.97783,-0.18812,0.0,2023,6,7,17,46,10,740
50.34870,-0.00770,-0.16345,0.00000,0.03087,0.97466,-0.18971,0.0,2023,6,7,17,46,10,740
50.34880,-0.13020,-0.02345,0.00000,0.03038,0.97783,-0.18910,0.0,2023,6,7,17,46,10,740
50.34890,-0.11270,-0.14595,0.00000,0.03135,0.97893,-0.18666,0.0,2023,6,7,17,46,10,740
50.34900,-0.27020,0.06405,0.00000,0.03013,0.97612,-0.19130,0.0,2023,6,7,17,46,10,740
50.34910,0.06230,-0.12845,0.00000,0.03209,0.97539,-0.19154,0.0,2023,6,7,17,46,10,740
50.34920,0.11480,-0.11095,0.00000,0.03392,0.97527,-0.18764,0.0,2023,6,7,17,46,10,740
50.34930,-0.14770,0.08155,0.00000,0.03184,0.97868,-0.18995,0.0,2023,6,7,17,46,10,740
50.34940,-0.06020,0.16905,0.00000,0.02989,0.97917,-0.19032,0.0,2023,6,7,17,46,10,740
50.34950,-0.09520,0.29155,0.00000,0.03038,0.97685,-0.19252,0.0,2023,6,7,17,46,10,740
50.34960,0.06230,0.22155,0.00000,0.03184,0.97710,-0.18812,0.0,2023,6,7,17,46,10,740
50.34970,0.06230,0.02905,0.00000,0.03184,0.97576,-0.18959,0.0,2023,6,7,17,46,10,740
50.34980,-0.21770,-0.07595,0.00000,0.03270,0.97539,-0.18886,0.0,2023,6,7,17,46,10,740
50.34990,0.04480,-0.04095,0.00000,0.03135,0.97905,-0.19069,0.0,2023,6,7,17,46,10,740
50.35000,-0.06020,0.08155,0.00000,0.03148,0.97649,-0.19093,0.0,2023,6,7,17,46,10,740
50.35010,0.13230,-0.04095,0.00000,0.03026,0.97539,-0.18715,0.0,2023,6,7,17,46,10,740
50.35020,0.06230,0.16905,0.00000,0.03184,0.97722,-0.18947,0.0,2023,6,7,17,46,10,740
50.35030,0.13230,-0.07595,0.00000,0.03050,0.97795,-0.19105,0.0,2023,6,7,17,46,10,740
50.35040,0.14980,-0.18095,0.00000,0.03062,0.97685,-0.19032,0.0,2023,6,7,17,46,10,740
50.35050,0.09730,0.08155,0.00000,0.03379,0.97698,-0.18898,0.0,2023,6,7,17,46,10,740
50.35060,-0.06020,0.02905,0.00000,0.03196,0.97746,-0.18703,0.0,2023,6,7,17,46,10,740
50.35070,-0.00770,-0.12845,0.00000,0.03099,0.97576,-0.18800,0.0,2023,6,7,17,46,10,740
50.35080,0.16730,-0.02345,0.00000,0.03074,0.97734,-0.18764,0.0,2023,6,7,17,46,10,740
50.35090,-0.11270,-0.07595,0.00000,0.03087,0.97649,-0.19032,0.0,2023,6,7,17,46,10,740
50.35100,-0.20020,0.13405,0.00000,0.03038,0.97551,-0.18739,0.0,2023,6,7,17,46,10,740
50.35110,-0.07770,0.11655,0.00000,0.03233,0.97685,-0.18800,0.0,2023,6,7,17,46,10,740
50.35120,-0.04270,-0.04095,0.00000,0.03038,0.97942,-0.18544,0.0,2023,6,7,17,46,10,740
50.35130,-0.09520,0.11655,0.00000,0.03160,0.97649,-0.18581,0.0,2023,6,7,17,46,10,740
50.35140,-0.07770,-0.05845,0.00000,0.02989,0.97673,-0.18910,0.0,2023,6,7,17,46,10,740
50.35150,0.07980,-0.21595,0.00000,0.03294,0.97527,-0.18959,0.0,2023,6,7,17,46,10,740
50.35160,-0.06020,-0.05845,0.00000,0.03184,0.97429,-0.19093,0.0,2023,6,7,17,46,10,740
50.35170,-0.02520,-0.07595,0.00000,0.03294,0.97710,-0.18617,0.0,2023,6,7,17,46,10,740
50.35180,-0.16520,0.06405,0.00000,0.02916,0.97807,-0.18910,0.0,2023,6,7,17,46,10,740
50.35190,0.07980,0.02905,0.00000,0.03038,0.97685,-0.19020,0.0,2023,6,7,17,46,11,740
50.35200,-0.00770,0.15155,0.00000,0.03062,0.97576,-0.19020,0.0,2023,6,7,17,46,11,741
50.35210,-0.06020,-0.18095,0.00000,0.03306,0.97820,-0.19105,0.0,2023,6,7,17,46,11,741
50.35220,0.04480,-0.23345,0.00000,0.03099,0.97844,-0.18837,0.0,2023,6,7,17,46,11,741
50.35230,-0.06020,0.01155,0.00000,0.03038,0.97637,-0.19069,0.0,2023,6,7,17,46,11,741
50.35240,0.13230,-0.30345,0.00000,0.03245,0.97722,-0.18983,0.0,2023,6,7,17,46,11,741
50.35250,0.09730,0.11655,0.00000,0.03062,0.97771,-0.19032,0.0,2023,6,7,17,46,11,741
50.35260,-0.02520,-0.07595,0.00000,0.03074,0.97722,-0.18983,0.0,2023,6,7,17,46,11,741
50.35270,0.07980,-0.04095,0.00000,0.03233,0.97441,-0.18898,0.0,2023,6,7,17,46,11,741
50.35280,-0.06020,-0.05845,0.00000,0.03196,0.97661,-0.18934,0.0,2023,6,7,17,46,11,741
50.35290,0.09730,0.09905,0.00000,0.03050,0.97600,-0.18934,0.0,2023,6,7,17,46,11,741
50.35300,-0.06020,0.13405,0.00000,0.03172,0.97844,-0.18873,0.0,2023,6,7,17,46,11,741
50.35310,-0.13020,0.13405,0.00000,0.03013,0.97588,-0.18825,0.0,2023,6,7,17,46,11,741
50.35320,0.04480,0.04655,0.00000,0.02952,0.97685,-0.18849,0.0,2023,6,7,17,46,11,741
50.35330,0.04480,-0.12845,0.00000,0.02952,0.97600,-0.19130,0.0,2023,6,7,17,46,11,741
50.35340,0.06230,-0.02345,0.00000,0.03465,0.97759,-0.19093,0.0,2023,6,7,17,46,11,741
50.35350,0.18480,-0.14595,0.00000,0.03172,0.97722,-0.19154,0.0,2023,6,7,17,46,11,741
50.35360,0.06230,-0.02345,0.00000,0.03209,0.97624,-0.18861,0.0,2023,6,7,17,46,11,741
50.35370,-0.06020,0.13405,0.00000,0.03257,0.97563,-0.18690,0.0,2023,6,7,17,46,11,741
50.35380,0.07980,0.04655,0.00000,0.02916,0.97771,-0.18812,0.0,2023,6,7,17,46,11,741
50.35390,-0.11270,-0.05845,0.00000,0.03001,0.97649,-0.19154,0.0,2023,6,7,17,46,11,741
50.35400,-0.20020,0.18655,0.00000,0.03318,0.97759,-0.18922,0.0,2023,6,7,17,46,11,741
50.35410,0.02730,-0.02345,0.00000,0.03257,0.97612,-0.18934,0.0,2023,6,7,17,46,11,741
50.35420,-0.02520,0.16905,0.00000,0.03074,0.97868,-0.18934,0.0,2023,6,7,17,46,11,741
50.35430,0.04480,0.06405,0.00000,0.03196,0.97502,-0.19056,0.0,2023,6,7,17,46,11,741
50.35440,-0.11270,-0.00595,0.00000,0.03062,0.97783,-0.18898,0.0,2023,6,7,17,46,11,741
50.35450,0.13230,0.06405,0.00000,0.03074,0.97734,-0.18861,0.0,2023,6,7,17,46,11,741
50.35460,0.00980,0.04655,0.00000,0.03196,0.97539,-0.18800,0.0,2023,6,7,17,46,11,741
50.35470,0.04480,0.09905,0.00000,0.03013,0.97551,-0.18825,0.0,2023,6,7,17,46,11,741
50.35480,-0.04270,-0.09345,0.00000,0.03099,0.97466,-0.18812,0.0,2023,6,7,17,46,11,741
50.35490,0.00980,-0.04095,0.00000,0.03209,0.97551,-0.19032,0.0,2023,6,7,17,46,11,741
50.35500,-0.06020,0.06405,0.00000,0.03148,0.97490,-0.18922,0.0,2023,6,7,17,46,11,741
50.35510,-0.18270,0.13405,0.00000,0.03013,0.97771,-0.19178,0.0,2023,6,7,17,46,11,741
50.35520,0.04480,0.09905,0.00000,0.03148,0.97515,-0.19081,0.0,2023,6,7,17,46,11,741
50.35530,-0.14770,0.16905,0.00000,0.02989,0.97539,-0.18690,0.0,2023,6,7,17,46,11,741
50.35540,0.06230,0.06405,0.00000,0.03160,0.97673,-0.19105,0.0,2023,6,7,17,46,11,741
50.35550,0.04480,-0.14595,0.00000,0.03013,0.97807,-0.18898,0.0,2023,6,7,17,46,11,741
50.35560,0.02730,-0.04095,0.00000,0.03050,0.97624,-0.18934,0.0,2023,6,7,17,46,11,741
50.35570,0.00980,0.04655,0.00000,0.03123,0.97820,-0.18812,0.0,2023,6,7,17,46,11,741
50.35580,0.07980,0.04655,0.00000,0.03074,0.97490,-0.18825,0.0,2023,6,7,17,46,11,741
50.35590,0.04480,-0.14595,0.00000,0.03148,0.97612,-0.18873,0.0,2023,6,7,17,46,11,741
50.35600,0.02730,-0.30345,0.00000,0.03074,0.98003,-0.18934,0.0,2023,6,7,17,46,11,741
50.35610,-0.04270,0.01155,0.00000,0.03123,0.97746,-0.18837,0.0,2023,6,7,17,46,11,741
50.35620,-0.04270,0.18655,0.00000,0.03221,0.97527,-0.18861,0.0,2023,6,7,17,46,11,741
50.35630,0.06230,0.04655,0.00000,0.03050,0.97624,-0.19093,0.0,2023,6,7,17,46,11,741
50.35640,-0.13020,-0.09345,0.00000,0.02867,0.97637,-0.18764,0.0,2023,6,7,17,46,11,741
50.35650,0.04480,-0.07595,0.00000,0.03026,0.97637,-0.19032,0.0,2023,6,7,17,46,11,741
50.35660,0.34230,0.01155,0.00000,0.03196,0.97624,-0.19069,0.0,2023,6,7,17,46,11,741
50.35670,0.04480,-0.23345,0.00000,0.03074,0.97685,-0.18910,0.0,2023,6,7,17,46,11,741
50.35680,-0.04270,-0.23345,0.00000,0.03099,0.97759,-0.18776,0.0,2023,6,7,17,46,11,741
50.35690,0.07980,-0.12845,0.00000,0.03221,0.97429,-0.18812,0.0,2023,6,7,17,46,11,741
50.35700,0.18480,-0.12845,0.00000,0.03087,0.97588,-0.18995,0.0,2023,6,7,17,46,11,741
50.35710,-0.06020,0.01155,0.00000,0.03123,0.97734,-0.19069,0.0,2023,6,7,17,46,11,741
50.35720,-0.13020,0.09905,0.00000,0.03062,0.97783,-0.18788,0.0,2023,6,7,17,46,11,741
50.35730,-0.07770,-0.11095,0.00000,0.03062,0.97588,-0.19154,0.0,2023,6,7,17,46,11,741
50.35740,-0.02520,0.02905,0.00000,0.03343,0.97576,-0.18800,0.0,2023,6,7,17,46,11,741
50.35750,0.04480,0.16905,0.00000,0.03245,0.97673,-0.19117,0.0,2023,6,7,17,46,11,741
50.35760,-0.16520,0.04655,0.00000,0.03294,0.97576,-0.19093,0.0,2023,6,7,17,46,11,741
50.35770,-0.04270,0.02905,0.00000,0.03123,0.97490,-0.18971,0.0,2023,6,7,17,46,11,741
50.35780,-0.02520,-0.11095,0.00000,0.02794,0.97637,-0.18812,0.0,2023,6,7,17,46,11,741
50.35790,-0.09520,0.15155,0.00000,0.02940,0.97710,-0.18995,0.0,2023,6,7,17,46,11,741
50.35800,-0.23520,0.01155,0.00000,0.03111,0.97502,-0.19166,0.0,2023,6,7,17,46,11,741
50.35810,-0.21770,-0.02345,0.00000,0.03196,0.97368,-0.19154,0.0,2023,6,7,17,46,11,741
50.35820,-0.11270,0.13405,0.00000,0.03148,0.97600,-0.18751,0.0,2023,6,7,17,46,11,741
50.35830,0.00980,-0.16345,0.00000,0.03245,0.97807,-0.18983,0.0,2023,6,7,17,46,11,741
50.35840,0.13230,-0.07595,0.00000,0.03160,0.97551,-0.18910,0.0,2023,6,7,17,46,11,741
50.35850,-0.13020,-0.04095,0.00000,0.03062,0.97612,-0.18837,0.0,2023,6,7,17,46,11,741
50.35860,-0.00770,0.02905,0.00000,0.03001,0.97637,-0.18934,0.0,2023,6,7,17,46,11,741
50.35870,0.04480,-0.02345,0.00000,0.03074,0.97527,-0.18764,0.0,2023,6,7,17,46,11,741
50.35880,0.09730,0.04655,0.00000,0.03111,0.97502,-0.18825,0.0,2023,6,7,17,46,11,741
50.35890,-0.04270,0.13405,0.00000,0.02952,0.97746,-0.18922,0.0,2023,6,7,17,46,11,741
50.35900,0.02730,0.06405,0.00000,0.03074,0.97783,-0.19215,0.0,2023,6,7,17,46,11,741
50.35910,0.00980,0.08155,0.00000,0.03099,0.97563,-0.18825,0.0,2023,6,7,17,46,11,741
50.35920,-0.13020,0.13405,0.00000,0.03196,0.97807,-0.18800,0.0,2023,6,7,17,46,11,741
50.35930,0.02730,0.06405,0.00000,0.03294,0.97795,-0.18727,0.0,2023,6,7,17,46,11,741
50.35940,-0.14770,0.11655,0.00000,0.02965,0.97771,-0.19008,0.0,2023,6,7,17,46,11,741
50.35950,-0.21770,0.08155,0.00000,0.03196,0.97563,-0.19056,0.0,2023,6,7,17,46,11,741
50.35960,0.09730,0.01155,0.00000,0.03184,0.97771,-0.18837,0.0,2023,6,7,17,46,11,741
50.35970,-0.06020,-0.02345,0.00000,0.03184,0.97637,-0.18788,0.0,2023,6,7,17,46,11,741
50.35980,-0.06020,-0.09345,0.00000,0.03172,0.97563,-0.19008,0.0,2023,6,7,17,46,11,741
50.35990,-0.11270,0.01155,0.00000,0.02940,0.97759,-0.19105,0.0,2023,6,7,17,46,11,741
50.36000,0.11480,0.09905,0.00000,0.03026,0.97734,-0.19008,0.0,2023,6,7,17,46,11,741
50.36010,0.00980,-0.00595,0.00000,0.03343,0.97759,-0.19008,0.0,2023,6,7,17,46,11,741
50.36020,0.13230,-0.02345,0.00000,0.03416,0.97454,-0.19081,0.0,2023,6,7,17,46,11,741
50.36030,0.13230,-0.19845,0.00000,0.03062,0.97698,-0.19117,0.0,2023,6,7,17,46,11,741
50.36040,0.30730,-0.09345,0.00000,0.02977,0.97478,-0.18788,0.0,2023,6,7,17,46,11,741
50.36050,-0.04270,-0.07595,0.00000,0.03074,0.97612,-0.19276,0.0,2023,6,7,17,46,11,741
50.36060,0.04480,-0.05845,0.00000,0.03050,0.97722,-0.18825,0.0,2023,6,7,17,46,11,741
50.36070,-0.00770,-0.12845,0.00000,0.02989,0.97673,-0.18861,0.0,2023,6,7,17,46,11,742
50.36080,0.18480,-0.05845,0.00000,0.02928,0.97661,-0.19130,0.0,2023,6,7,17,46,12,742
50.36090,0.02730,0.01155,0.00000,0.03270,0.97820,-0.19008,0.0,2023,6,7,17,46,12,742
50.36100,0.13230,-0.14595,0.00000,0.03050,0.97685,-0.19081,0.0,2023,6,7,17,46,12,742
50.36110,-0.02520,-0.05845,0.00000,0.03050,0.97649,-0.18776,0.0,2023,6,7,17,46,12,742
50.36120,0.21980,-0.07595,0.00000,0.03172,0.97807,-0.18788,0.0,2023,6,7,17,46,12,742
50.36130,-0.11270,0.15155,0.00000,0.03099,0.97649,-0.19069,0.0,2023,6,7,17,46,12,742
50.36140,-0.04270,0.01155,0.00000,0.03196,0.97673,-0.18861,0.0,2023,6,7,17,46,12,742
50.36150,-0.14770,-0.04095,0.00000,0.02904,0.97807,-0.18995,0.0,2023,6,7,17,46,12,742
50.36160,-0.13020,-0.00595,0.00000,0.03111,0.97807,-0.19081,0.0,2023,6,7,17,46,12,742
50.36170,-0.14770,0.06405,0.00000,0.03184,0.97746,-0.18947,0.0,2023,6,7,17,46,12,742
50.36180,-0.14770,0.08155,0.00000,0.03184,0.97673,-0.18654,0.0,2023,6,7,17,46,12,742
50.36190,0.06230,-0.14595,0.00000,0.03172,0.97832,-0.19349,0.0,2023,6,7,17,46,12,742
50.36200,0.02730,-0.04095,0.00000,0.02977,0.97734,-0.19032,0.0,2023,6,7,17,46,12,742
50.36210,0.02730,0.01155,0.00000,0.03123,0.97698,-0.18898,0.0,2023,6,7,17,46,12,742
50.36220,-0.11270,0.20405,0.00000,0.03123,0.97649,-0.18812,0.0,2023,6,7,17,46,12,742
50.36230,-0.13020,-0.05845,0.00000,0.03001,0.97722,-0.19215,0.0,2023,6,7,17,46,12,742
50.36240,0.06230,0.08155,0.00000,0.03209,0.97807,-0.19020,0.0,2023,6,7,17,46,12,742
50.36250,-0.04270,-0.21595,0.00000,0.03038,0.97661,-0.18910,0.0,2023,6,7,17,46,12,742
50.36260,-0.11270,-0.00595,0.00000,0.02965,0.97820,-0.19044,0.0,2023,6,7,17,46,12,742
50.36270,0.04480,0.01155,0.00000,0.03099,0.97795,-0.18910,0.0,2023,6,7,17,46,12,742
50.36280,-0.02520,0.08155,0.00000,0.03172,0.97624,-0.19117,0.0,2023,6,7,17,46,12,742
50.36290,0.11480,-0.00595,0.00000,0.03160,0.97661,-0.18934,0.0,2023,6,7,17,46,12,742
50.36300,-0.00770,-0.11095,0.00000,0.03209,0.97356,-0.18971,0.0,2023,6,7,17,46,12,742
50.36310,0.04480,-0.05845,0.00000,0.03257,0.97734,-0.18922,0.0,2023,6,7,17,46,12,742
50.36320,0.06230,-0.23345,0.00000,0.03148,0.97551,-0.19069,0.0,2023,6,7,17,46,12,742
50.36330,0.07980,0.01155,0.00000,0.03257,0.97649,-0.19056,0.0,2023,6,7,17,46,12,742
50.36340,0.06230,0.04655,0.00000,0.02891,0.97637,-0.19142,0.0,2023,6,7,17,46,12,742
50.36350,0.00980,0.15155,0.00000,0.03160,0.97661,-0.19154,0.0,2023,6,7,17,46,12,742
50.36360,0.00980,0.08155,0.00000,0.03135,0.97722,-0.19239,0.0,2023,6,7,17,46,12,742
50.36370,0.06230,-0.16345,0.00000,0.02879,0.97588,-0.19008,0.0,2023,6,7,17,46,12,742
50.36380,-0.09520,-0.07595,0.00000,0.03038,0.97600,-0.19142,0.0,2023,6,7,17,46,12,742
50.36390,-0.04270,0.02905,0.00000,0.03026,0.97624,-0.18910,0.0,2023,6,7,17,46,12,742
50.36400,0.02730,0.06405,0.00000,0.03172,0.97624,-0.18934,0.0,2023,6,7,17,46,12,742
50.36410,0.21980,-0.04095,0.00000,0.03331,0.97527,-0.19276,0.0,2023,6,7,17,46,12,742
50.36420,-0.06020,-0.00595,0.00000,0.03184,0.97588,-0.19142,0.0,2023,6,7,17,46,12,742
50.36430,0.06230,-0.12845,0.00000,0.03050,0.97685,-0.19093,0.0,2023,6,7,17,46,12,742
50.36440,-0.06020,-0.14595,0.00000,0.03209,0.97783,-0.18971,0.0,2023,6,7,17,46,12,742
50.36450,-0.21770,0.11655,0.00000,0.02916,0.97734,-0.18959,0.0,2023,6,7,17,46,12,742
50.36460,-0.06020,0.09905,0.00000,0.03123,0.97600,-0.18751,0.0,2023,6,7,17,46,12,742
50.36470,0.06230,-0.12845,0.00000,0.03123,0.97588,-0.18983,0.0,2023,6,7,17,46,12,742
50.36480,0.00980,-0.00595,0.00000,0.03245,0.97466,-0.19008,0.0,2023,6,7,17,46,12,742
50.36490,-0.04270,0.01155,0.00000,0.03172,0.97612,-0.18959,0.0,2023,6,7,17,46,12,742
50.36500,0.09730,-0.05845,0.00000,0.03343,0.97661,-0.19008,0.0,2023,6,7,17,46,12,742
50.36510,-0.00770,0.01155,0.00000,0.03111,0.97698,-0.19069,0.0,2023,6,7,17,46,12,742
50.36520,-0.09520,0.30905,0.00000,0.03196,0.97698,-0.18947,0.0,2023,6,7,17,46,12,742
50.36530,-0.00770,0.18655,0.00000,0.03099,0.97637,-0.18837,0.0,2023,6,7,17,46,12,742
50.36540,0.02730,-0.11095,0.00000,0.03099,0.97637,-0.18983,0.0,2023,6,7,17,46,12,742
50.36550,-0.11270,0.09905,0.00000,0.03282,0.97624,-0.18886,0.0,2023,6,7,17,46,12,742
50.36560,-0.04270,0.15155,0.00000,0.03087,0.97649,-0.18873,0.0,2023,6,7,17,46,12,742
50.36570,-0.16520,0.09905,0.00000,0.03184,0.97441,-0.18800,0.0,2023,6,7,17,46,12,742
50.36580,0.06230,0.01155,0.00000,0.03221,0.97856,-0.18800,0.0,2023,6,7,17,46,12,742
50.36590,0.09730,-0.12845,0.00000,0.03074,0.97637,-0.19069,0.0,2023,6,7,17,46,12,742
50.36600,0.11480,-0.11095,0.00000,0.03282,0.97600,-0.18995,0.0,2023,6,7,17,46,12,742
50.36610,0.04480,-0.05845,0.00000,0.02916,0.97612,-0.18825,0.0,2023,6,7,17,46,12,742
50.36620,-0.14770,0.08155,0.00000,0.03050,0.97710,-0.18959,0.0,2023,6,7,17,46,12,742
50.36630,0.04480,0.09905,0.00000,0.02965,0.97612,-0.19020,0.0,2023,6,7,17,46,12,742
50.36640,0.14980,-0.19845,0.00000,0.03257,0.97478,-0.18934,0.0,2023,6,7,17,46,12,742
50.36650,-0.02520,-0.07595,0.00000,0.03001,0.97734,-0.18739,0.0,2023,6,7,17,46,12,742
50.36660,-0.09520,0.08155,0.00000,0.03026,0.97478,-0.18922,0.0,2023,6,7,17,46,12,742
50.36670,0.06230,-0.04095,0.00000,0.02977,0.97673,-0.18886,0.0,2023,6,7,17,46,12,742
50.36680,0.00980,0.08155,0.00000,0.03050,0.97649,-0.18507,0.0,2023,6,7,17,46,12,742
50.36690,0.02730,-0.04095,0.00000,0.03135,0.97661,-0.18898,0.0,2023,6,7,17,46,12,742
50.36700,-0.09520,-0.04095,0.00000,0.03245,0.97734,-0.18825,0.0,2023,6,7,17,46,12,742
50.36710,0.16730,-0.11095,0.00000,0.03123,0.97637,-0.19154,0.0,2023,6,7,17,46,12,742
50.36720,0.16730,0.09905,0.00000,0.02940,0.97746,-0.19178,0.0,2023,6,7,17,46,12,742
50.36730,0.07980,-0.07595,0.00000,0.03062,0.97734,-0.18849,0.0,2023,6,7,17,46,12,742
50.36740,-0.00770,0.06405,0.00000,0.03172,0.97673,-0.18910,0.0,2023,6,7,17,46,12,742
50.36750,0.04480,0.01155,0.00000,0.03233,0.97600,-0.19105,0.0,2023,6,7,17,46,12,742
50.36760,0.06230,-0.02345,0.00000,0.03013,0.97734,-0.19239,0.0,2023,6,7,17,46,12,742
50.36770,-0.00770,-0.05845,0.00000,0.03074,0.97588,-0.18715,0.0,2023,6,7,17,46,12,742
50.36780,0.13230,0.02905,0.00000,0.03026,0.97710,-0.18800,0.0,2023,6,7,17,46,12,742
50.36790,0.11480,-0.11095,0.00000,0.03184,0.97685,-0.19008,0.0,2023,6,7,17,46,12,742
50.36800,0.18480,-0.21595,0.00000,0.03184,0.97637,-0.19008,0.0,2023,6,7,17,46,12,742
50.36810,-0.06020,0.06405,0.00000,0.03184,0.97429,-0.19020,0.0,2023,6,7,17,46,12,742
50.36820,-0.07770,-0.07595,0.00000,0.03221,0.97612,-0.19154,0.0,2023,6,7,17,46,12,742
50.36830,0.14980,0.22155,0.00000,0.02830,0.97563,-0.19069,0.0,2023,6,7,17,46,12,742
50.36840,0.11480,-0.09345,0.00000,0.03245,0.97600,-0.18934,0.0,2023,6,7,17,46,12,742
50.36850,-0.13020,0.02905,0.00000,0.03282,0.97673,-0.18666,0.0,2023,6,7,17,46,12,742
50.36860,-0.13020,-0.07595,0.00000,0.03221,0.97466,-0.18825,0.0,2023,6,7,17,46,12,742
50.36870,-0.04270,0.02905,0.00000,0.03148,0.97710,-0.19044,0.0,2023,6,7,17,46,12,742
50.36880,-0.06020,0.32655,0.00000,0.03087,0.97710,-0.18873,0.0,2023,6,7,17,46,12,742
50.36890,0.04480,-0.11095,0.00000,0.03099,0.97783,-0.18898,0.0,2023,6,7,17,46,12,742
50.36900,0.06230,-0.04095,0.00000,0.03013,0.97710,-0.19203,0.0,2023,6,7,17,46,12,742
50.36910,0.00980,0.18655,0.00000,0.03026,0.97844,-0.19093,0.0,2023,6,7,17,46,12,742
50.36920,0.00980,0.11655,0.00000,0.03074,0.97551,-0.19069,0.0,2023,6,7,17,46,12,742
50.36930,0.02730,-0.05845,0.00000,0.03379,0.97661,-0.18995,0.0,2023,6,7,17,46,12,742
50.36940,-0.06020,-0.00595,0.00000,0.03221,0.97673,-0.18825,0.0,2023,6,7,17,46,12,743
50.36950,0.13230,0.04655,0.00000,0.03038,0.97600,-0.18837,0.0,2023,6,7,17,46,12,743
50.36960,-0.11270,0.06405,0.00000,0.03099,0.97832,-0.19044,0.0,2023,6,7,17,46,12,743
50.36970,0.00980,-0.04095,0.00000,0.03087,0.97515,-0.18922,0.0,2023,6,7,17,46,12,743
50.36980,0.09730,-0.02345,0.00000,0.03318,0.97746,-0.18727,0.0,2023,6,7,17,46,12,743
50.36990,-0.06020,0.02905,0.00000,0.03026,0.97698,-0.18995,0.0,2023,6,7,17,46,13,743
50.37000,0.06230,-0.07595,0.00000,0.02952,0.97746,-0.18812,0.0,2023,6,7,17,46,13,743
50.37010,0.09730,-0.12845,0.00000,0.03013,0.97576,-0.18837,0.0,2023,6,7,17,46,13,743
50.37020,0.11480,0.06405,0.00000,0.03294,0.97441,-0.18812,0.0,2023,6,7,17,46,13,743
50.37030,-0.21770,0.02905,0.00000,0.03172,0.97637,-0.18764,0.0,2023,6,7,17,46,13,743
50.37040,-0.04270,0.27405,0.00000,0.03062,0.97515,-0.18861,0.0,2023,6,7,17,46,13,743
50.37050,-0.07770,-0.02345,0.00000,0.03160,0.97612,-0.18861,0.0,2023,6,7,17,46,13,743
50.37060,-0.09520,-0.05845,0.00000,0.03123,0.97759,-0.18764,0.0,2023,6,7,17,46,13,743
50.37070,0.25480,0.13405,0.00000,0.02977,0.97673,-0.19178,0.0,2023,6,7,17,46,13,743
50.37080,0.25480,0.06405,0.00000,0.03221,0.97820,-0.19105,0.0,2023,6,7,17,46,13,743
50.37090,-0.02520,-0.07595,0.00000,0.02989,0.97795,-0.18995,0.0,2023,6,7,17,46,13,743
50.37100,0.06230,0.02905,0.00000,0.03343,0.97563,-0.18727,0.0,2023,6,7,17,46,13,743
50.37110,0.02730,0.02905,0.00000,0.03294,0.97771,-0.18715,0.0,2023,6,7,17,46,13,743
50.37120,0.23730,-0.16345,0.00000,0.03404,0.97783,-0.18861,0.0,2023,6,7,17,46,13,743
50.37130,0.11480,-0.14595,0.00000,0.03245,0.97893,-0.18849,0.0,2023,6,7,17,46,13,743
50.37140,-0.04270,0.09905,0.00000,0.03001,0.97746,-0.18800,0.0,2023,6,7,17,46,13,743
50.37150,-0.00770,-0.16345,0.00000,0.03026,0.97685,-0.18886,0.0,2023,6,7,17,46,13,743
50.37160,-0.02520,-0.07595,0.00000,0.02843,0.97527,-0.19191,0.0,2023,6,7,17,46,13,743
50.37170,0.18480,0.13405,0.00000,0.03099,0.97502,-0.19081,0.0,2023,6,7,17,46,13,743
50.37180,-0.07770,-0.02345,0.00000,0.03270,0.97722,-0.18861,0.0,2023,6,7,17,46,13,743
50.37190,0.04480,0.13405,0.00000,0.03013,0.97722,-0.18812,0.0,2023,6,7,17,46,13,743
50.37200,0.04480,-0.04095,0.00000,0.03184,0.97490,-0.18983,0.0,2023,6,7,17,46,13,743
50.37210,0.04480,-0.00595,0.00000,0.03184,0.97649,-0.18934,0.0,2023,6,7,17,46,13,743
50.37220,-0.21770,0.18655,0.00000,0.03172,0.97563,-0.18837,0.0,2023,6,7,17,46,13,743
50.37230,-0.09520,0.06405,0.00000,0.03038,0.97820,-0.18678,0.0,2023,6,7,17,46,13,743
50.37240,0.02730,0.16905,0.00000,0.03160,0.97478,-0.18959,0.0,2023,6,7,17,46,13,743
50.37250,-0.00770,-0.02345,0.00000,0.03062,0.97698,-0.19020,0.0,2023,6,7,17,46,13,743
50.37260,-0.04270,0.02905,0.00000,0.03184,0.97588,-0.18788,0.0,2023,6,7,17,46,13,743
50.37270,-0.25270,-0.07595,0.00000,0.03343,0.97612,-0.18861,0.0,2023,6,7,17,46,13,743
50.37280,0.18480,-0.05845,0.00000,0.03111,0.97759,-0.18995,0.0,2023,6,7,17,46,13,743
50.37290,-0.02520,0.06405,0.00000,0.03160,0.97332,-0.18764,0.0,2023,6,7,17,46,13,743
50.37300,-0.25270,0.09905,0.00000,0.03087,0.97454,-0.18764,0.0,2023,6,7,17,46,13,743
50.37310,0.04480,-0.16345,0.00000,0.03221,0.97795,-0.18910,0.0,2023,6,7,17,46,13,743
50.37320,-0.11270,0.04655,0.00000,0.03221,0.97771,-0.19032,0.0,2023,6,7,17,46,13,743
50.37330,0.02730,0.11655,0.00000,0.02867,0.97661,-0.19130,0.0,2023,6,7,17,46,13,743
50.37340,-0.13020,0.16905,0.00000,0.02952,0.97759,-0.18886,0.0,2023,6,7,17,46,13,743
50.37350,-0.23520,0.29155,0.00000,0.03148,0.97917,-0.18934,0.0,2023,6,7,17,46,13,743
50.37360,0.13230,0.01155,0.00000,0.02965,0.97661,-0.19044,0.0,2023,6,7,17,46,13,743
50.37370,0.02730,0.08155,0.00000,0.03172,0.97685,-0.18983,0.0,2023,6,7,17,46,13,743
50.37380,-0.02520,-0.04095,0.00000,0.03050,0.97466,-0.19032,0.0,2023,6,7,17,46,13,743
50.37390,-0.07770,0.01155,0.00000,0.03184,0.97478,-0.18898,0.0,2023,6,7,17,46,13,743
50.37400,0.02730,-0.18095,0.00000,0.03111,0.97783,-0.18934,0.0,2023,6,7,17,46,13,743
50.37410,-0.06020,-0.00595,0.00000,0.03160,0.97649,-0.18873,0.0,2023,6,7,17,46,13,743
50.37420,0.20230,-0.07595,0.00000,0.02940,0.97929,-0.19008,0.0,2023,6,7,17,46,13,743
50.37430,-0.06020,-0.12845,0.00000,0.03306,0.97734,-0.18642,0.0,2023,6,7,17,46,13,743
50.37440,-0.04270,0.04655,0.00000,0.03050,0.97710,-0.18837,0.0,2023,6,7,17,46,13,743
50.37450,-0.06020,-0.04095,0.00000,0.03172,0.97429,-0.19020,0.0,2023,6,7,17,46,13,743
50.37460,-0.04270,0.06405,0.00000,0.03099,0.97661,-0.19056,0.0,2023,6,7,17,46,13,743
50.37470,0.00980,-0.07595,0.00000,0.03123,0.97771,-0.19166,0.0,2023,6,7,17,46,13,743
50.37480,-0.04270,-0.14595,0.00000,0.03074,0.97527,-0.19093,0.0,2023,6,7,17,46,13,743
50.37490,-0.00770,0.02905,0.00000,0.03270,0.97600,-0.18971,0.0,2023,6,7,17,46,13,743
50.37500,0.07980,-0.02345,0.00000,0.03050,0.97637,-0.19093,0.0,2023,6,7,17,46,13,743
50.37510,-0.14770,-0.11095,0.00000,0.03087,0.97917,-0.18861,0.0,2023,6,7,17,46,13,743
50.37520,0.04480,-0.12845,0.00000,0.02952,0.97624,-0.18788,0.0,2023,6,7,17,46,13,743
50.37530,-0.00770,0.22155,0.00000,0.02879,0.97417,-0.19044,0.0,2023,6,7,17,46,13,743
50.37540,-0.13020,-0.14595,0.00000,0.03135,0.97515,-0.18983,0.0,2023,6,7,17,46,13,743
50.37550,-0.00770,0.01155,0.00000,0.03184,0.97795,-0.18947,0.0,2023,6,7,17,46,13,743
50.37560,0.06230,-0.07595,0.00000,0.02965,0.97649,-0.18739,0.0,2023,6,7,17,46,13,743
50.37570,-0.35770,-0.00595,0.00000,0.03245,0.97685,-0.18849,0.0,2023,6,7,17,46,13,743
50.37580,-0.00770,-0.02345,0.00000,0.03123,0.97856,-0.18898,0.0,2023,6,7,17,46,13,743
50.37590,0.06230,0.02905,0.00000,0.03184,0.97649,-0.19056,0.0,2023,6,7,17,46,13,743
50.37600,-0.00770,-0.02345,0.00000,0.03026,0.97515,-0.18983,0.0,2023,6,7,17,46,13,743
50.37610,-0.02520,-0.04095,0.00000,0.03257,0.97429,-0.19093,0.0,2023,6,7,17,46,13,743
50.37620,-0.02520,-0.04095,0.00000,0.03282,0.97795,-0.19178,0.0,2023,6,7,17,46,13,743
50.37630,0.02730,0.15155,0.00000,0.03367,0.97759,-0.18983,0.0,2023,6,7,17,46,13,743
50.37640,0.13230,-0.21595,0.00000,0.03148,0.97490,-0.19130,0.0,2023,6,7,17,46,13,743
50.37650,0.07980,-0.11095,0.00000,0.03404,0.97820,-0.18959,0.0,2023,6,7,17,46,13,743
50.37660,0.02730,-0.16345,0.00000,0.03013,0.97685,-0.18898,0.0,2023,6,7,17,46,13,743
50.37670,-0.06020,0.09905,0.00000,0.03123,0.97795,-0.19069,0.0,2023,6,7,17,46,13,743
50.37680,-0.04270,0.11655,0.00000,0.02904,0.97600,-0.19227,0.0,2023,6,7,17,46,13,743
50.37690,0.11480,-0.05845,0.00000,0.03026,0.97893,-0.19191,0.0,2023,6,7,17,46,13,743
50.37700,-0.09520,-0.05845,0.00000,0.03221,0.97576,-0.19056,0.0,2023,6,7,17,46,13,743
50.37710,0.09730,-0.09345,0.00000,0.03172,0.97539,-0.19081,0.0,2023,6,7,17,46,13,743
50.37720,0.02730,-0.07595,0.00000,0.02879,0.97612,-0.18995,0.0,2023,6,7,17,46,13,743
50.37730,0.04480,-0.07595,0.00000,0.03160,0.97551,-0.19105,0.0,2023,6,7,17,46,13,743
50.37740,-0.20020,-0.05845,0.00000,0.03355,0.97844,-0.19178,0.0,2023,6,7,17,46,13,743
50.37750,0.07980,-0.00595,0.00000,0.03221,0.97624,-0.19264,0.0,2023,6,7,17,46,13,743
50.37760,0.04480,-0.04095,0.00000,0.03123,0.97710,-0.18886,0.0,2023,6,7,17,46,13,743
50.37770,-0.06020,0.16905,0.00000,0.03343,0.97502,-0.19105,0.0,2023,6,7,17,46,13,743
50.37780,0.14980,0.11655,0.00000,0.03111,0.97807,-0.18995,0.0,2023,6,7,17,46,13,743
50.37790,-0.28770,-0.00595,0.00000,0.03343,0.97185,-0.18971,0.0,2023,6,7,17,46,13,743
50.37800,-0.07770,0.04655,0.00000,0.03331,0.97807,-0.19130,0.0,2023,6,7,17,46,13,743
50.37810,0.16730,-0.00595,0.00000,0.03148,0.97661,-0.19203,0.0,2023,6,7,17,46,13,744
50.37820,-0.02520,0.08155,0.00000,0.03038,0.97649,-0.19276,0.0,2023,6,7,17,46,13,744
50.37830,-0.00770,0.02905,0.00000,0.03062,0.97673,-0.19239,0.0,2023,6,7,17,46,13,744
50.37840,-0.25270,0.18655,0.00000,0.03172,0.97624,-0.18995,0.0,2023,6,7,17,46,13,744
50.37850,-0.07770,-0.12845,0.00000,0.03196,0.97734,-0.19069,0.0,2023,6,7,17,46,13,744
50.37860,0.06230,-0.16345,0.00000,0.03221,0.97771,-0.19069,0.0,2023,6,7,17,46,13,744
50.37870,-0.16520,-0.02345,0.00000,0.03270,0.97417,-0.18983,0.0,2023,6,7,17,46,13,744
50.37880,-0.07770,-0.30345,0.00000,0.03245,0.97649,-0.19105,0.0,2023,6,7,17,46,13,744
50.37890,0.07980,-0.25095,0.00000,0.02782,0.97685,-0.19264,0.0,2023,6,7,17,46,13,744
50.37900,-0.00770,0.09905,0.00000,0.03221,0.97490,-0.18947,0.0,2023,6,7,17,46,14,744
50.37910,-0.02520,0.08155,0.00000,0.03062,0.97637,-0.19117,0.0,2023,6,7,17,46,14,744
50.37920,0.04480,0.18655,0.00000,0.03087,0.97673,-0.18788,0.0,2023,6,7,17,46,14,744
50.37930,-0.13020,0.08155,0.00000,0.03331,0.97807,-0.18764,0.0,2023,6,7,17,46,14,744
50.37940,0.02730,-0.00595,0.00000,0.03026,0.97588,-0.19105,0.0,2023,6,7,17,46,14,744
50.37950,-0.13020,0.15155,0.00000,0.03062,0.97905,-0.18983,0.0,2023,6,7,17,46,14,744
50.37960,-0.11270,-0.11095,0.00000,0.03050,0.97734,-0.18934,0.0,2023,6,7,17,46,14,744
50.37970,0.00980,-0.09345,0.00000,0.03355,0.97722,-0.18910,0.0,2023,6,7,17,46,14,744
50.37980,0.14980,-0.12845,0.00000,0.03026,0.97734,-0.18995,0.0,2023,6,7,17,46,14,744
50.37990,-0.00770,-0.09345,0.00000,0.03270,0.97515,-0.19264,0.0,2023,6,7,17,46,14,744
50.38000,-0.04270,0.06405,0.00000,0.03367,0.97771,-0.18886,0.0,2023,6,7,17,46,14,744
50.38010,-0.13020,-0.12845,0.00000,0.03099,0.97478,-0.19069,0.0,2023,6,7,17,46,14,744
50.38020,-0.14770,0.11655,0.00000,0.03038,0.97600,-0.19093,0.0,2023,6,7,17,46,14,744
50.38030,0.18480,-0.19845,0.00000,0.03160,0.97710,-0.19056,0.0,2023,6,7,17,46,14,744
50.38040,-0.11270,0.11655,0.00000,0.03074,0.97807,-0.19300,0.0,2023,6,7,17,46,14,744
50.38050,-0.06020,0.27405,0.00000,0.03123,0.97734,-0.19142,0.0,2023,6,7,17,46,14,744
50.38060,-0.09520,0.16905,0.00000,0.03087,0.97563,-0.18861,0.0,2023,6,7,17,46,14,744
50.38070,-0.07770,-0.02345,0.00000,0.03184,0.97673,-0.18934,0.0,2023,6,7,17,46,14,744
50.38080,0.21980,0.02905,0.00000,0.03209,0.97698,-0.19142,0.0,2023,6,7,17,46,14,744
50.38090,0.09730,-0.21595,0.00000,0.03074,0.97685,-0.18934,0.0,2023,6,7,17,46,14,744
50.38100,-0.00770,0.04655,0.00000,0.03331,0.97502,-0.18971,0.0,2023,6,7,17,46,14,744
50.38110,0.09730,0.06405,0.00000,0.03282,0.97746,-0.19288,0.0,2023,6,7,17,46,14,744
50.38120,-0.11270,-0.07595,0.00000,0.03184,0.97551,-0.18983,0.0,2023,6,7,17,46,14,744
50.38130,0.16730,-0.11095,0.00000,0.03001,0.97624,-0.19142,0.0,2023,6,7,17,46,14,744
50.38140,-0.00770,-0.05845,0.00000,0.03172,0.97710,-0.18776,0.0,2023,6,7,17,46,14,744
50.38150,0.07980,-0.11095,0.00000,0.02989,0.97795,-0.18849,0.0,2023,6,7,17,46,14,744
50.38160,0.20230,-0.09345,0.00000,0.03111,0.97576,-0.19191,0.0,2023,6,7,17,46,14,744
50.38170,0.11480,0.06405,0.00000,0.03172,0.97685,-0.18898,0.0,2023,6,7,17,46,14,744
50.38180,-0.23520,-0.14595,0.00000,0.03172,0.97710,-0.18825,0.0,2023,6,7,17,46,14,744
50.38190,-0.06020,0.01155,0.00000,0.03294,0.97649,-0.18959,0.0,2023,6,7,17,46,14,744
50.38200,-0.04270,0.06405,0.00000,0.03038,0.97588,-0.19008,0.0,2023,6,7,17,46,14,744
50.38210,-0.07770,-0.04095,0.00000,0.03074,0.97637,-0.18947,0.0,2023,6,7,17,46,14,744
50.38220,0.00980,0.11655,0.00000,0.03221,0.97673,-0.18849,0.0,2023,6,7,17,46,14,744
50.38230,0.06230,-0.00595,0.00000,0.03282,0.97722,-0.19117,0.0,2023,6,7,17,46,14,744
50.38240,0.11480,-0.12845,0.00000,0.02940,0.97563,-0.18800,0.0,2023,6,7,17,46,14,744
50.38250,-0.04270,-0.14595,0.00000,0.03111,0.97649,-0.18995,0.0,2023,6,7,17,46,14,744
50.38260,-0.20020,0.15155,0.00000,0.03062,0.97746,-0.18642,0.0,2023,6,7,17,46,14,744
50.38270,0.06230,0.01155,0.00000,0.03062,0.97759,-0.19081,0.0,2023,6,7,17,46,14,744
50.38280,-0.04270,0.13405,0.00000,0.03209,0.97490,-0.18959,0.0,2023,6,7,17,46,14,744
50.38290,-0.14770,0.02905,0.00000,0.03184,0.97368,-0.18873,0.0,2023,6,7,17,46,14,744
50.38300,0.02730,0.01155,0.00000,0.03148,0.97624,-0.18873,0.0,2023,6,7,17,46,14,744
50.38310,-0.04270,0.01155,0.00000,0.03087,0.97795,-0.19044,0.0,2023,6,7,17,46,14,744
50.38320,0.09730,-0.12845,0.00000,0.02879,0.97551,-0.19020,0.0,2023,6,7,17,46,14,744
50.38330,-0.14770,0.15155,0.00000,0.03245,0.97624,-0.18812,0.0,2023,6,7,17,46,14,744
50.38340,-0.11270,-0.11095,0.00000,0.03196,0.97478,-0.18910,0.0,2023,6,7,17,46,14,744
50.38350,-0.13020,-0.02345,0.00000,0.03111,0.97576,-0.18825,0.0,2023,6,7,17,46,14,744
50.38360,0.06230,-0.16345,0.00000,0.03209,0.97820,-0.19203,0.0,2023,6,7,17,46,14,744
50.38370,0.02730,0.04655,0.00000,0.03270,0.97771,-0.18727,0.0,2023,6,7,17,46,14,744
50.38380,-0.06020,0.18655,0.00000,0.03196,0.97612,-0.18666,0.0,2023,6,7,17,46,14,744
50.38390,0.04480,0.13405,0.00000,0.03026,0.97515,-0.18995,0.0,2023,6,7,17,46,14,744
50.38400,0.04480,0.04655,0.00000,0.03087,0.97393,-0.19069,0.0,2023,6,7,17,46,14,744
50.38410,-0.04270,-0.11095,0.00000,0.03221,0.97624,-0.18886,0.0,2023,6,7,17,46,14,744
50.38420,-0.28770,-0.11095,0.00000,0.02977,0.97807,-0.18934,0.0,2023,6,7,17,46,14,744
50.38430,-0.02520,0.15155,0.00000,0.03172,0.97576,-0.18934,0.0,2023,6,7,17,46,14,744
50.38440,0.00980,0.04655,0.00000,0.03111,0.97624,-0.19142,0.0,2023,6,7,17,46,14,744
50.38450,0.04480,0.04655,0.00000,0.03209,0.97685,-0.18812,0.0,2023,6,7,17,46,14,744
50.38460,-0.30520,0.09905,0.00000,0.03257,0.97551,-0.18947,0.0,2023,6,7,17,46,14,744
50.38470,-0.14770,0.06405,0.00000,0.03184,0.97515,-0.19166,0.0,2023,6,7,17,46,14,744
50.38480,-0.04270,-0.21595,0.00000,0.02916,0.97661,-0.19069,0.0,2023,6,7,17,46,14,744
50.38490,-0.00770,0.13405,0.00000,0.03209,0.97783,-0.19117,0.0,2023,6,7,17,46,14,744
50.38500,-0.13020,-0.07595,0.00000,0.03245,0.97637,-0.19044,0.0,2023,6,7,17,46,14,744
50.38510,-0.07770,-0.05845,0.00000,0.03245,0.97759,-0.19081,0.0,2023,6,7,17,46,14,744
50.38520,0.06230,-0.16345,0.00000,0.03099,0.97673,-0.18983,0.0,2023,6,7,17,46,14,744
50.38530,0.04480,-0.11095,0.00000,0.03172,0.97624,-0.18886,0.0,2023,6,7,17,46,14,744
50.38540,-0.06020,-0.09345,0.00000,0.03294,0.97673,-0.19093,0.0,2023,6,7,17,46,14,744
50.38550,0.09730,-0.07595,0.00000,0.03135,0.97612,-0.19130,0.0,2023,6,7,17,46,14,744
50.38560,0.13230,-0.11095,0.00000,0.03160,0.97673,-0.19142,0.0,2023,6,7,17,46,14,744
50.38570,-0.04270,-0.05845,0.00000,0.03038,0.97844,-0.19252,0.0,2023,6,7,17,46,14,744
50.38580,0.04480,-0.05845,0.00000,0.03148,0.97539,-0.18959,0.0,2023,6,7,17,46,14,744
50.38590,0.00980,-0.00595,0.00000,0.03221,0.97515,-0.18959,0.0,2023,6,7,17,46,14,744
50.38600,0.02730,-0.05845,0.00000,0.03172,0.97698,-0.19154,0.0,2023,6,7,17,46,14,744
50.38610,-0.06020,-0.00595,0.00000,0.02989,0.97588,-0.18947,0.0,2023,6,7,17,46,14,744
50.38620,-0.16520,-0.04095,0.00000,0.03367,0.97576,-0.18959,0.0,2023,6,7,17,46,14,744
50.38630,-0.18270,0.23905,0.00000,0.03123,0.97844,-0.18995,0.0,2023,6,7,17,46,14,744
50.38640,0.30730,-0.14595,0.00000,0.02904,0.97807,-0.18983,0.0,2023,6,7,17,46,14,744
50.38650,0.11480,0.04655,0.00000,0.02916,0.97649,-0.18812,0.0,2023,6,7,17,46,14,744
50.38660,0.07980,-0.21595,0.00000,0.03172,0.97600,-0.19020,0.0,2023,6,7,17,46,14,744
50.38670,-0.04270,0.01155,0.00000,0.03196,0.97673,-0.18739,0.0,2023,6,7,17,46,14,744
50.38680,-0.04270,-0.02345,0.00000,0.03013,0.97795,-0.18886,0.0,2023,6,7,17,46,14,745
50.38690,-0.13020,-0.02345,0.00000,0.03135,0.97734,-0.19032,0.0,2023,6,7,17,46,14,745
50.38700,-0.07770,0.01155,0.00000,0.03343,0.97685,-0.18934,0.0,2023,6,7,17,46,14,745
50.38710,-0.09520,0.13405,0.00000,0.03074,0.97722,-0.19069,0.0,2023,6,7,17,46,14,745
50.38720,0.04480,-0.00595,0.00000,0.02989,0.97746,-0.18849,0.0,2023,6,7,17,46,14,745
50.38730,-0.00770,0.08155,0.00000,0.03196,0.97795,-0.19069,0.0,2023,6,7,17,46,14,745
50.38740,-0.02520,0.13405,0.00000,0.03233,0.97759,-0.18849,0.0,2023,6,7,17,46,14,745
50.38750,0.13230,0.04655,0.00000,0.02977,0.97698,-0.18959,0.0,2023,6,7,17,46,14,745
50.38760,-0.11270,0.08155,0.00000,0.02965,0.97746,-0.18934,0.0,2023,6,7,17,46,14,745
50.38770,0.06230,0.04655,0.00000,0.03050,0.97393,-0.19056,0.0,2023,6,7,17,46,14,745
50.38780,-0.06020,0.11655,0.00000,0.03172,0.97539,-0.18861,0.0,2023,6,7,17,46,14,745
50.38790,-0.14770,-0.21595,0.00000,0.03001,0.97807,-0.18995,0.0,2023,6,7,17,46,14,745
50.38800,0.07980,0.16905,0.00000,0.03245,0.97576,-0.18922,0.0,2023,6,7,17,46,14,745
50.38810,0.04480,0.09905,0.00000,0.03135,0.97527,-0.18898,0.0,2023,6,7,17,46,15,745
50.38820,0.02730,0.13405,0.00000,0.03123,0.97722,-0.19044,0.0,2023,6,7,17,46,15,745
50.38830,0.02730,0.09905,0.00000,0.02965,0.97746,-0.18837,0.0,2023,6,7,17,46,15,745
50.38840,-0.18270,0.16905,0.00000,0.03318,0.97600,-0.18971,0.0,2023,6,7,17,46,15,745
50.38850,-0.06020,0.22155,0.00000,0.03013,0.97759,-0.18825,0.0,2023,6,7,17,46,15,745
50.38860,-0.04270,-0.05845,0.00000,0.03099,0.97893,-0.19142,0.0,2023,6,7,17,46,15,745
50.38870,-0.11270,-0.00595,0.00000,0.03343,0.97515,-0.19166,0.0,2023,6,7,17,46,15,745
50.38880,-0.00770,-0.07595,0.00000,0.03209,0.97624,-0.18861,0.0,2023,6,7,17,46,15,745
50.38890,-0.04270,0.02905,0.00000,0.03026,0.97612,-0.18934,0.0,2023,6,7,17,46,15,745
50.38900,0.06230,0.23905,0.00000,0.03050,0.97637,-0.18947,0.0,2023,6,7,17,46,15,745
50.38910,-0.07770,0.15155,0.00000,0.03270,0.97673,-0.18873,0.0,2023,6,7,17,46,15,745
50.38920,-0.13020,0.02905,0.00000,0.03160,0.97661,-0.18910,0.0,2023,6,7,17,46,15,745
50.38930,-0.09520,0.23905,0.00000,0.03160,0.97673,-0.18715,0.0,2023,6,7,17,46,15,745
50.38940,-0.04270,0.04655,0.00000,0.03026,0.97551,-0.18886,0.0,2023,6,7,17,46,15,745
50.38950,0.21980,-0.07595,0.00000,0.03282,0.97527,-0.18922,0.0,2023,6,7,17,46,15,745
50.38960,-0.07770,-0.00595,0.00000,0.03343,0.97527,-0.18654,0.0,2023,6,7,17,46,15,745
50.38970,0.09730,0.09905,0.00000,0.03026,0.97588,-0.18690,0.0,2023,6,7,17,46,15,745
50.38980,-0.02520,-0.00595,0.00000,0.03209,0.97600,-0.18983,0.0,2023,6,7,17,46,15,745
50.38990,0.07980,-0.12845,0.00000,0.03050,0.97722,-0.18629,0.0,2023,6,7,17,46,15,745
50.39000,-0.02520,-0.02345,0.00000,0.03453,0.97502,-0.18959,0.0,2023,6,7,17,46,15,745
50.39010,-0.06020,-0.04095,0.00000,0.03367,0.97271,-0.18678,0.0,2023,6,7,17,46,15,745
50.39020,-0.06020,-0.05845,0.00000,0.03245,0.97563,-0.18995,0.0,2023,6,7,17,46,15,745
50.39030,-0.07770,0.04655,0.00000,0.03233,0.97905,-0.19105,0.0,2023,6,7,17,46,15,745
50.39040,0.06230,-0.07595,0.00000,0.03184,0.97551,-0.19044,0.0,2023,6,7,17,46,15,745
50.39050,-0.06020,0.02905,0.00000,0.03428,0.97600,-0.18971,0.0,2023,6,7,17,46,15,745
50.39060,0.07980,-0.02345,0.00000,0.03099,0.97612,-0.18812,0.0,2023,6,7,17,46,15,745
50.39070,-0.02520,0.01155,0.00000,0.03282,0.97710,-0.18690,0.0,2023,6,7,17,46,15,745
50.39080,0.00980,0.11655,0.00000,0.03099,0.97563,-0.19069,0.0,2023,6,7,17,46,15,745
