#2023/06/07 16:11:40
time,wx,wy,wz,ax,ay,az,yy,MM,dd,hh,mm,ss,ms
44.88670,0.04655,0.06160,0.00000,0.03221,0.97673,-0.18703,0.0,2023,6,7,16,11,41,6
44.88680,-0.09345,-0.00840,0.00000,0.03184,0.97673,-0.18910,0.0,2023,6,7,16,11,41,16
44.88690,-0.21595,0.04410,0.00000,0.03135,0.97893,-0.18715,0.0,2023,6,7,16,11,41,26
44.88700,-0.19845,-0.07840,0.00000,0.03026,0.97600,-0.18727,0.0,2023,6,7,16,11,41,36
44.88710,0.06405,0.00910,0.00000,0.02989,0.97795,-0.18849,0.0,2023,6,7,16,11,41,46
44.88720,0.15155,-0.14840,0.00000,0.03026,0.97820,-0.18593,0.0,2023,6,7,16,11,41,56
44.88730,-0.11095,0.11410,0.00000,0.03306,0.97624,-0.18861,0.0,2023,6,7,16,11,41,66
44.88740,0.11655,-0.09590,0.00000,0.03221,0.97759,-0.19130,0.0,2023,6,7,16,11,41,76
44.88750,-0.09345,-0.02590,0.00000,0.02904,0.97929,-0.18812,0.0,2023,6,7,16,11,41,86
44.88760,-0.05845,-0.02590,0.00000,0.03111,0.97710,-0.18739,0.0,2023,6,7,16,11,41,96
44.88770,-0.05845,0.11410,0.00000,0.03221,0.97551,-0.18983,0.0,2023,6,7,16,11,41,106
44.88780,0.16905,-0.21840,0.00000,0.03294,0.97807,-0.18898,0.0,2023,6,7,16,11,41,116
44.88790,-0.04095,-0.20090,0.00000,0.03172,0.97783,-0.18776,0.0,2023,6,7,16,11,41,126
44.88800,0.02905,-0.11340,0.00000,0.03257,0.97649,-0.19020,0.0,2023,6,7,16,11,41,136
44.88810,-0.09345,-0.04340,0.00000,0.03404,0.97478,-0.18776,0.0,2023,6,7,16,11,41,146
44.88820,0.06405,-0.13090,0.00000,0.03257,0.97551,-0.18800,0.0,2023,6,7,16,11,41,156
44.88830,-0.07595,-0.27090,0.00000,0.03087,0.97759,-0.18873,0.0,2023,6,7,16,11,41,166
44.88840,-0.19845,-0.00840,0.00000,0.03221,0.97539,-0.18825,0.0,2023,6,7,16,11,41,176
44.88850,0.04655,-0.13090,0.00000,0.03123,0.97637,-0.18788,0.0,2023,6,7,16,11,41,186
44.88860,-0.05845,-0.11340,0.00000,0.03184,0.97588,-0.18654,0.0,2023,6,7,16,11,41,196
44.88870,0.02905,-0.11340,0.00000,0.03355,0.97722,-0.18690,0.0,2023,6,7,16,11,41,206
44.88880,0.13405,0.06160,0.00000,0.03196,0.97441,-0.18556,0.0,2023,6,7,16,11,41,216
44.88890,-0.00595,0.06160,0.00000,0.03123,0.97588,-0.18739,0.0,2023,6,7,16,11,41,226
44.88900,-0.04095,0.06160,0.00000,0.03111,0.97576,-0.18934,0.0,2023,6,7,16,11,41,236
44.88910,0.04655,-0.04340,0.00000,0.03099,0.97685,-0.19008,0.0,2023,6,7,16,11,41,246
44.88920,-0.09345,-0.11340,0.00000,0.03404,0.97710,-0.18764,0.0,2023,6,7,16,11,41,256
44.88930,-0.07595,0.11410,0.00000,0.03392,0.97832,-0.18995,0.0,2023,6,7,16,11,41,266
44.88940,-0.05845,0.06160,0.00000,0.02904,0.97673,-0.18764,0.0,2023,6,7,16,11,41,276
44.88950,0.15155,-0.13090,0.00000,0.03184,0.97624,-0.18959,0.0,2023,6,7,16,11,41,286
44.88960,-0.28595,-0.09590,0.00000,0.03245,0.97454,-0.18678,0.0,2023,6,7,16,11,41,296
44.88970,0.15155,0.11410,0.00000,0.03233,0.97698,-0.19081,0.0,2023,6,7,16,11,41,306
44.88980,0.08155,-0.04340,0.00000,0.03099,0.97576,-0.18995,0.0,2023,6,7,16,11,41,316
44.88990,0.01155,-0.04340,0.00000,0.03233,0.97673,-0.18776,0.0,2023,6,7,16,11,41,326
44.89000,0.08155,0.07910,0.00000,0.03013,0.97844,-0.18995,0.0,2023,6,7,16,11,41,336
44.89010,-0.09345,-0.11340,0.00000,0.03245,0.97734,-0.18642,0.0,2023,6,7,16,11,41,346
44.89020,-0.02345,-0.06090,0.00000,0.02940,0.97502,-0.18837,0.0,2023,6,7,16,11,41,356
44.89030,-0.09345,-0.06090,0.00000,0.03087,0.97771,-0.18751,0.0,2023,6,7,16,11,41,366
44.89040,0.06405,-0.04340,0.00000,0.03331,0.97710,-0.19032,0.0,2023,6,7,16,11,41,376
44.89050,-0.05845,0.07910,0.00000,0.03233,0.97563,-0.18922,0.0,2023,6,7,16,11,41,386
44.89060,-0.02345,0.11410,0.00000,0.03074,0.97588,-0.18995,0.0,2023,6,7,16,11,41,396
44.89070,0.08155,-0.07840,0.00000,0.03221,0.97698,-0.18983,0.0,2023,6,7,16,11,41,406
44.89080,-0.02345,0.02660,0.00000,0.03001,0.97856,-0.18812,0.0,2023,6,7,16,11,41,416
44.89090,-0.33845,-0.13090,0.00000,0.03123,0.97783,-0.18873,0.0,2023,6,7,16,11,41,426
44.89100,-0.02345,0.06160,0.00000,0.02916,0.97929,-0.18812,0.0,2023,6,7,16,11,41,436
44.89110,-0.00595,-0.07840,0.00000,0.02794,0.97502,-0.18703,0.0,2023,6,7,16,11,41,446
44.89120,-0.05845,-0.06090,0.00000,0.03148,0.97600,-0.18947,0.0,2023,6,7,16,11,41,456
44.89130,0.20405,0.02660,0.00000,0.03257,0.97612,-0.18825,0.0,2023,6,7,16,11,41,466
44.89140,-0.37345,-0.06090,0.00000,0.03123,0.97856,-0.18776,0.0,2023,6,7,16,11,41,476
44.89150,0.22155,-0.18340,0.00000,0.02794,0.97454,-0.19105,0.0,2023,6,7,16,11,41,486
44.89160,0.23905,0.18410,0.00000,0.03331,0.97637,-0.18617,0.0,2023,6,7,16,11,41,496
44.89170,-0.21595,-0.07840,0.00000,0.02916,0.97649,-0.18739,0.0,2023,6,7,16,11,41,506
44.89180,0.39655,-0.09590,0.00000,0.03074,0.97588,-0.19276,0.0,2023,6,7,16,11,41,516
44.89190,0.04655,-0.06090,0.00000,0.03196,0.97698,-0.18617,0.0,2023,6,7,16,11,41,526
44.89200,-0.00595,0.07910,0.00000,0.02769,0.97490,-0.19178,0.0,2023,6,7,16,11,41,536
44.89210,0.30905,-0.16590,0.00000,0.03184,0.97710,-0.18873,0.0,2023,6,7,16,11,41,546
44.89220,-0.11095,0.11410,0.00000,0.03209,0.97527,-0.18617,0.0,2023,6,7,16,11,41,556
44.89230,-0.09345,-0.13090,0.00000,0.03123,0.97612,-0.19154,0.0,2023,6,7,16,11,41,566
44.89240,0.20405,-0.18340,0.00000,0.03221,0.97490,-0.18861,0.0,2023,6,7,16,11,41,576
44.89250,-0.16345,-0.02590,0.00000,0.03148,0.97502,-0.18764,0.0,2023,6,7,16,11,41,586
44.89260,0.04655,0.14910,0.00000,0.03123,0.97502,-0.19105,0.0,2023,6,7,16,11,41,596
44.89270,0.13405,-0.11340,0.00000,0.03196,0.97673,-0.18690,0.0,2023,6,7,16,11,41,606
44.89280,-0.18095,-0.00840,0.00000,0.03392,0.97759,-0.18947,0.0,2023,6,7,16,11,41,616
44.89290,0.22155,-0.07840,0.00000,0.03160,0.97673,-0.18983,0.0,2023,6,7,16,11,41,626
44.89300,-0.00595,-0.28840,0.00000,0.03209,0.97685,-0.18471,0.0,2023,6,7,16,11,41,636
44.89310,-0.19845,0.04410,0.00000,0.03148,0.97734,-0.18837,0.0,2023,6,7,16,11,41,646
44.89320,0.16905,-0.02590,0.00000,0.02891,0.97478,-0.18995,0.0,2023,6,7,16,11,41,656
44.89330,-0.02345,-0.07840,0.00000,0.03013,0.97637,-0.18715,0.0,2023,6,7,16,11,41,666
44.89340,0.06405,-0.28840,0.00000,0.02940,0.97807,-0.18886,0.0,2023,6,7,16,11,41,676
44.89350,0.04655,-0.02590,0.00000,0.03026,0.97551,-0.18739,0.0,2023,6,7,16,11,41,686
44.89360,-0.23345,-0.04340,0.00000,0.03160,0.97673,-0.18751,0.0,2023,6,7,16,11,41,696
44.89370,0.13405,0.20160,0.00000,0.03440,0.97783,-0.18703,0.0,2023,6,7,16,11,41,706
44.89380,-0.11095,0.09660,0.00000,0.03575,0.97515,-0.18690,0.0,2023,6,7,16,11,41,716
44.89390,0.22155,-0.11340,0.00000,0.03196,0.97563,-0.18788,0.0,2023,6,7,16,11,41,726
44.89400,-0.07595,0.07910,0.00000,0.02940,0.97783,-0.18861,0.0,2023,6,7,16,11,41,736
44.89410,-0.14595,0.02660,0.00000,0.03306,0.97685,-0.18629,0.0,2023,6,7,16,11,41,746
44.89420,0.01155,0.02660,0.00000,0.03099,0.97576,-0.18922,0.0,2023,6,7,16,11,41,756
44.89430,-0.05845,0.04410,0.00000,0.03221,0.97673,-0.18776,0.0,2023,6,7,16,11,41,766
44.89440,0.06405,-0.23590,0.00000,0.03233,0.97551,-0.18593,0.0,2023,6,7,16,11,41,776
44.89450,0.29155,-0.18340,0.00000,0.03270,0.97502,-0.19008,0.0,2023,6,7,16,11,41,786
44.89460,-0.05845,-0.11340,0.00000,0.03123,0.97466,-0.18629,0.0,2023,6,7,16,11,41,796
44.89470,0.13405,-0.11340,0.00000,0.03184,0.97490,-0.18727,0.0,2023,6,7,16,11,41,806
44.89480,0.29155,-0.13090,0.00000,0.03257,0.97515,-0.18910,0.0,2023,6,7,16,11,41,816
44.89490,0.01155,-0.07840,0.00000,0.03148,0.97710,-0.18788,0.0,2023,6,7,16,11,41,826
44.89500,-0.16345,-0.13090,0.00000,0.03062,0.97685,-0.18983,0.0,2023,6,7,16,11,41,836
44.89510,-0.02345,0.23660,0.00000,0.03318,0.97661,-0.19105,0.0,2023,6,7,16,11,41,846
44.89520,0.06405,0.00910,0.00000,0.03135,0.97759,-0.18776,0.0,2023,6,7,16,11,41,856
44.89530,0.04655,-0.00840,0.00000,0.03209,0.97942,-0.18800,0.0,2023,6,7,16,11,41,866
44.89540,0.01155,0.07910,0.00000,0.03111,0.97685,-0.18873,0.0,2023,6,7,16,11,41,876
44.89550,-0.04095,-0.09590,0.00000,0.03111,0.97624,-0.18886,0.0,2023,6,7,16,11,41,886
44.89560,-0.02345,-0.04340,0.00000,0.03379,0.97698,-0.18764,0.0,2023,6,7,16,11,41,896
44.89570,0.09905,-0.04340,0.00000,0.02904,0.97807,-0.18812,0.0,2023,6,7,16,11,42,6
44.89580,-0.19845,0.07910,0.00000,0.03050,0.97649,-0.18922,0.0,2023,6,7,16,11,42,16
44.89590,-0.11095,-0.23590,0.00000,0.03209,0.97466,-0.18764,0.0,2023,6,7,16,11,42,26
44.89600,0.08155,-0.23590,0.00000,0.03062,0.97844,-0.18776,0.0,2023,6,7,16,11,42,36
44.89610,-0.07595,0.18410,0.00000,0.03111,0.97698,-0.18678,0.0,2023,6,7,16,11,42,46
44.89620,0.06405,-0.07840,0.00000,0.03379,0.97478,-0.18739,0.0,2023,6,7,16,11,42,56
44.89630,0.02905,-0.02590,0.00000,0.03111,0.97563,-0.18703,0.0,2023,6,7,16,11,42,66
44.89640,-0.07595,-0.20090,0.00000,0.03148,0.97661,-0.18617,0.0,2023,6,7,16,11,42,76
44.89650,0.08155,-0.04340,0.00000,0.03087,0.97490,-0.18483,0.0,2023,6,7,16,11,42,86
44.89660,0.08155,0.00910,0.00000,0.03123,0.97698,-0.18654,0.0,2023,6,7,16,11,42,96
44.89670,-0.07595,0.07910,0.00000,0.03184,0.97673,-0.18922,0.0,2023,6,7,16,11,42,106
44.89680,-0.02345,-0.09590,0.00000,0.03087,0.97624,-0.18910,0.0,2023,6,7,16,11,42,116
44.89690,-0.09345,-0.04340,0.00000,0.03050,0.97771,-0.18739,0.0,2023,6,7,16,11,42,126
44.89700,0.01155,-0.07840,0.00000,0.03184,0.97832,-0.18739,0.0,2023,6,7,16,11,42,136
44.89710,0.16905,0.04410,0.00000,0.03111,0.97783,-0.18837,0.0,2023,6,7,16,11,42,146
44.89720,0.04655,-0.02590,0.00000,0.03318,0.97771,-0.18642,0.0,2023,6,7,16,11,42,156
44.89730,-0.00595,-0.18340,0.00000,0.03099,0.97795,-0.18690,0.0,2023,6,7,16,11,42,166
44.89740,0.23905,-0.02590,0.00000,0.03331,0.97710,-0.19020,0.0,2023,6,7,16,11,42,176
44.89750,0.01155,-0.00840,0.00000,0.03221,0.97429,-0.18861,0.0,2023,6,7,16,11,42,186
44.89760,-0.05845,-0.07840,0.00000,0.03245,0.97673,-0.18788,0.0,2023,6,7,16,11,42,196
44.89770,0.11655,-0.09590,0.00000,0.03172,0.97612,-0.19105,0.0,2023,6,7,16,11,42,206
44.89780,-0.07595,-0.13090,0.00000,0.03233,0.97441,-0.18593,0.0,2023,6,7,16,11,42,216
44.89790,0.06405,-0.07840,0.00000,0.03233,0.97783,-0.19020,0.0,2023,6,7,16,11,42,226
44.89800,-0.00595,-0.04340,0.00000,0.02977,0.97539,-0.19081,0.0,2023,6,7,16,11,42,236
44.89810,0.01155,-0.00840,0.00000,0.03343,0.97612,-0.18532,0.0,2023,6,7,16,11,42,246
44.89820,-0.07595,-0.11340,0.00000,0.03026,0.97759,-0.19020,0.0,2023,6,7,16,11,42,256
44.89830,0.16905,-0.14840,0.00000,0.03209,0.97685,-0.18886,0.0,2023,6,7,16,11,42,266
44.89840,-0.19845,0.25410,0.00000,0.03001,0.97856,-0.18971,0.0,2023,6,7,16,11,42,276
44.89850,0.11655,-0.07840,0.00000,0.03245,0.97527,-0.18654,0.0,2023,6,7,16,11,42,286
44.89860,-0.07595,-0.11340,0.00000,0.02977,0.97771,-0.18629,0.0,2023,6,7,16,11,42,296
44.89870,0.02905,-0.11340,0.00000,0.02818,0.97515,-0.18922,0.0,2023,6,7,16,11,42,306
44.89880,0.01155,-0.06090,0.00000,0.03257,0.97881,-0.18751,0.0,2023,6,7,16,11,42,316
44.89890,0.08155,-0.16590,0.00000,0.03123,0.97771,-0.18873,0.0,2023,6,7,16,11,42,326
44.89900,0.02905,-0.11340,0.00000,0.03013,0.97820,-0.19142,0.0,2023,6,7,16,11,42,336
44.89910,0.11655,-0.04340,0.00000,0.03270,0.97527,-0.18715,0.0,2023,6,7,16,11,42,346
44.89920,-0.09345,-0.02590,0.00000,0.03196,0.97551,-0.18629,0.0,2023,6,7,16,11,42,356
44.89930,0.11655,0.07910,0.00000,0.03233,0.97771,-0.18800,0.0,2023,6,7,16,11,42,366
44.89940,0.04655,-0.14840,0.00000,0.03013,0.97795,-0.18947,0.0,2023,6,7,16,11,42,376
44.89950,-0.04095,-0.06090,0.00000,0.03099,0.97502,-0.18764,0.0,2023,6,7,16,11,42,386
44.89960,0.02905,-0.06090,0.00000,0.03074,0.97807,-0.18837,0.0,2023,6,7,16,11,42,396
44.89970,0.13405,-0.06090,0.00000,0.03257,0.97637,-0.18812,0.0,2023,6,7,16,11,42,406
44.89980,-0.02345,-0.04340,0.00000,0.03196,0.97759,-0.18800,0.0,2023,6,7,16,11,42,416
44.89990,0.08155,-0.04340,0.00000,0.02989,0.97624,-0.18849,0.0,2023,6,7,16,11,42,426
44.90000,0.16905,-0.13090,0.00000,0.03172,0.97759,-0.18690,0.0,2023,6,7,16,11,42,436
44.90010,-0.00595,0.00910,0.00000,0.03099,0.97356,-0.18544,0.0,2023,6,7,16,11,42,446
44.90020,0.06405,-0.06090,0.00000,0.03172,0.97856,-0.18776,0.0,2023,6,7,16,11,42,456
44.90030,-0.02345,-0.07840,0.00000,0.02940,0.97685,-0.18849,0.0,2023,6,7,16,11,42,466
44.90040,-0.02345,0.04410,0.00000,0.03001,0.97637,-0.18739,0.0,2023,6,7,16,11,42,476
44.90050,0.02905,-0.02590,0.00000,0.03221,0.97612,-0.18605,0.0,2023,6,7,16,11,42,486
44.90060,0.06405,-0.20090,0.00000,0.03160,0.97588,-0.18617,0.0,2023,6,7,16,11,42,496
44.90070,-0.18095,0.00910,0.00000,0.03318,0.97612,-0.18703,0.0,2023,6,7,16,11,42,506
44.90080,-0.12845,0.04410,0.00000,0.03087,0.97649,-0.18654,0.0,2023,6,7,16,11,42,516
44.90090,-0.00595,-0.04340,0.00000,0.03196,0.97478,-0.18776,0.0,2023,6,7,16,11,42,526
44.90100,-0.00595,-0.14840,0.00000,0.02928,0.97551,-0.18825,0.0,2023,6,7,16,11,42,536
44.90110,-0.21595,-0.02590,0.00000,0.03172,0.97746,-0.18642,0.0,2023,6,7,16,11,42,546
44.90120,-0.02345,-0.02590,0.00000,0.03184,0.97490,-0.18727,0.0,2023,6,7,16,11,42,556
44.90130,0.01155,-0.27090,0.00000,0.03123,0.97539,-0.18837,0.0,2023,6,7,16,11,42,566
44.90140,-0.05845,0.11410,0.00000,0.03160,0.97588,-0.18581,0.0,2023,6,7,16,11,42,576
44.90150,-0.11095,-0.02590,0.00000,0.03221,0.97612,-0.18532,0.0,2023,6,7,16,11,42,586
44.90160,-0.00595,0.00910,0.00000,0.03123,0.97600,-0.18873,0.0,2023,6,7,16,11,42,596
44.90170,-0.00595,0.06160,0.00000,0.02879,0.97588,-0.18873,0.0,2023,6,7,16,11,42,606
44.90180,-0.12845,0.20160,0.00000,0.03074,0.97612,-0.18629,0.0,2023,6,7,16,11,42,616
44.90190,-0.25095,0.13160,0.00000,0.03013,0.97478,-0.18605,0.0,2023,6,7,16,11,42,626
44.90200,-0.19845,0.11410,0.00000,0.03221,0.97502,-0.18678,0.0,2023,6,7,16,11,42,636
44.90210,-0.18095,0.06160,0.00000,0.02928,0.97429,-0.18947,0.0,2023,6,7,16,11,42,646
44.90220,-0.12845,0.02660,0.00000,0.03306,0.97820,-0.18568,0.0,2023,6,7,16,11,42,656
44.90230,-0.05845,0.11410,0.00000,0.03306,0.97600,-0.18556,0.0,2023,6,7,16,11,42,666
44.90240,-0.02345,0.11410,0.00000,0.03221,0.97588,-0.18544,0.0,2023,6,7,16,11,42,676
44.90250,-0.14595,-0.20090,0.00000,0.03135,0.97624,-0.18532,0.0,2023,6,7,16,11,42,686
44.90260,-0.09345,-0.27090,0.00000,0.03270,0.97612,-0.18495,0.0,2023,6,7,16,11,42,696
44.90270,0.06405,0.00910,0.00000,0.03062,0.97405,-0.18764,0.0,2023,6,7,16,11,42,706
44.90280,0.11655,-0.14840,0.00000,0.03257,0.97478,-0.18642,0.0,2023,6,7,16,11,42,716
44.90290,0.08155,-0.13090,0.00000,0.03087,0.97722,-0.18642,0.0,2023,6,7,16,11,42,726
44.90300,-0.14595,-0.07840,0.00000,0.03245,0.97820,-0.18642,0.0,2023,6,7,16,11,42,736
44.90310,-0.12845,0.16660,0.00000,0.03343,0.97722,-0.18764,0.0,2023,6,7,16,11,42,746
44.90320,-0.11095,-0.04340,0.00000,0.03050,0.97527,-0.18690,0.0,2023,6,7,16,11,42,756
44.90330,-0.18095,0.06160,0.00000,0.03355,0.97954,-0.18568,0.0,2023,6,7,16,11,42,766
44.90340,-0.18095,-0.14840,0.00000,0.03074,0.97795,-0.18581,0.0,2023,6,7,16,11,42,776
44.90350,-0.04095,0.02660,0.00000,0.03111,0.97441,-0.18581,0.0,2023,6,7,16,11,42,786
44.90360,-0.04095,-0.00840,0.00000,0.03026,0.97771,-0.18764,0.0,2023,6,7,16,11,42,796
44.90370,0.02905,-0.21840,0.00000,0.03148,0.97380,-0.18825,0.0,2023,6,7,16,11,42,806
44.90380,0.09905,-0.07840,0.00000,0.03282,0.97454,-0.18739,0.0,2023,6,7,16,11,42,816
44.90390,-0.02345,-0.04340,0.00000,0.03111,0.97783,-0.18788,0.0,2023,6,7,16,11,42,826
44.90400,0.06405,-0.00840,0.00000,0.03209,0.97637,-0.18910,0.0,2023,6,7,16,11,42,836
44.90410,-0.00595,-0.07840,0.00000,0.03038,0.97588,-0.18617,0.0,2023,6,7,16,11,42,846
44.90420,-0.02345,-0.00840,0.00000,0.03257,0.97783,-0.18544,0.0,2023,6,7,16,11,42,856
44.90430,-0.04095,-0.11340,0.00000,0.03245,0.97490,-0.18556,0.0,2023,6,7,16,11,42,866
44.90440,-0.05845,0.02660,0.00000,0.03148,0.97527,-0.18678,0.0,2023,6,7,16,11,42,876
44.90450,0.01155,-0.04340,0.00000,0.02928,0.97527,-0.18629,0.0,2023,6,7,16,11,42,886
44.90460,0.09905,0.09660,0.00000,0.03233,0.97624,-0.18593,0.0,2023,6,7,16,11,42,896
44.90470,-0.05845,0.04410,0.00000,0.03123,0.97624,-0.18764,0.0,2023,6,7,16,11,43,6
44.90480,-0.32095,0.28910,0.00000,0.02977,0.97746,-0.18837,0.0,2023,6,7,16,11,43,16
44.90490,0.16905,-0.27090,0.00000,0.03367,0.97868,-0.18873,0.0,2023,6,7,16,11,43,26
44.90500,-0.18095,-0.06090,0.00000,0.03172,0.97368,-0.18654,0.0,2023,6,7,16,11,43,36
44.90510,-0.02345,-0.13090,0.00000,0.03123,0.97576,-0.18532,0.0,2023,6,7,16,11,43,46
44.90520,0.11655,0.06160,0.00000,0.03221,0.97539,-0.18617,0.0,2023,6,7,16,11,43,56
44.90530,0.06405,0.04410,0.00000,0.03233,0.97563,-0.18825,0.0,2023,6,7,16,11,43,66
44.90540,-0.05845,0.13160,0.00000,0.03026,0.97624,-0.18715,0.0,2023,6,7,16,11,43,76
44.90550,-0.05845,-0.32340,0.00000,0.03379,0.97637,-0.18898,0.0,2023,6,7,16,11,43,86
44.90560,0.16905,-0.16590,0.00000,0.03465,0.97649,-0.18642,0.0,2023,6,7,16,11,43,96
44.90570,-0.11095,-0.04340,0.00000,0.03013,0.97783,-0.18764,0.0,2023,6,7,16,11,43,106
44.90580,0.02905,0.06160,0.00000,0.03196,0.97698,-0.18581,0.0,2023,6,7,16,11,43,116
44.90590,0.09905,0.04410,0.00000,0.02843,0.97759,-0.18837,0.0,2023,6,7,16,11,43,126
44.90600,-0.12845,-0.06090,0.00000,0.02904,0.97710,-0.18678,0.0,2023,6,7,16,11,43,136
44.90610,-0.14595,-0.02590,0.00000,0.03306,0.97771,-0.18678,0.0,2023,6,7,16,11,43,146
44.90620,0.18655,0.06160,0.00000,0.03404,0.97502,-0.18642,0.0,2023,6,7,16,11,43,156
44.90630,-0.14595,-0.11340,0.00000,0.03074,0.97746,-0.18983,0.0,2023,6,7,16,11,43,166
44.90640,-0.11095,0.02660,0.00000,0.03087,0.97600,-0.18495,0.0,2023,6,7,16,11,43,176
44.90650,-0.28595,0.07910,0.00000,0.03087,0.97746,-0.18507,0.0,2023,6,7,16,11,43,186
44.90660,0.09905,-0.07840,0.00000,0.02965,0.97759,-0.18764,0.0,2023,6,7,16,11,43,196
44.90670,-0.04095,-0.04340,0.00000,0.03148,0.97515,-0.18886,0.0,2023,6,7,16,11,43,206
44.90680,-0.07595,0.20160,0.00000,0.03172,0.97527,-0.18873,0.0,2023,6,7,16,11,43,216
44.90690,-0.02345,-0.16590,0.00000,0.03013,0.97832,-0.18776,0.0,2023,6,7,16,11,43,226
44.90700,0.11655,0.09660,0.00000,0.03074,0.97722,-0.18825,0.0,2023,6,7,16,11,43,236
44.90710,0.09905,-0.13090,0.00000,0.03160,0.97588,-0.18837,0.0,2023,6,7,16,11,43,246
44.90720,0.27405,-0.13090,0.00000,0.02965,0.97771,-0.18800,0.0,2023,6,7,16,11,43,256
44.90730,-0.11095,0.02660,0.00000,0.03062,0.97624,-0.18825,0.0,2023,6,7,16,11,43,266
44.90740,0.02905,0.09660,0.00000,0.03245,0.97698,-0.18922,0.0,2023,6,7,16,11,43,276
44.90750,-0.04095,-0.04340,0.00000,0.03221,0.97698,-0.18715,0.0,2023,6,7,16,11,43,286
44.90760,0.02905,-0.06090,0.00000,0.03148,0.97771,-0.18825,0.0,2023,6,7,16,11,43,296
44.90770,-0.04095,-0.04340,0.00000,0.03209,0.97490,-0.18788,0.0,2023,6,7,16,11,43,306
44.90780,0.22155,0.09660,0.00000,0.03245,0.97673,-0.18739,0.0,2023,6,7,16,11,43,316
44.90790,-0.12845,-0.14840,0.00000,0.03318,0.97563,-0.18812,0.0,2023,6,7,16,11,43,326
44.90800,-0.04095,-0.30590,0.00000,0.03245,0.97515,-0.18873,0.0,2023,6,7,16,11,43,336
44.90810,0.11655,-0.07840,0.00000,0.03099,0.97563,-0.18617,0.0,2023,6,7,16,11,43,346
44.90820,-0.16345,-0.00840,0.00000,0.02794,0.97844,-0.18739,0.0,2023,6,7,16,11,43,356
44.90830,0.04655,0.02660,0.00000,0.03209,0.97685,-0.18947,0.0,2023,6,7,16,11,43,366
44.90840,0.11655,0.09660,0.00000,0.03184,0.97759,-0.18898,0.0,2023,6,7,16,11,43,376
44.90850,0.04655,0.07910,0.00000,0.03282,0.97637,-0.18776,0.0,2023,6,7,16,11,43,386
44.90860,0.06405,-0.04340,0.00000,0.03135,0.97563,-0.18764,0.0,2023,6,7,16,11,43,396
44.90870,0.09905,0.04410,0.00000,0.03294,0.97649,-0.18898,0.0,2023,6,7,16,11,43,406
44.90880,-0.05845,-0.07840,0.00000,0.03306,0.97698,-0.18629,0.0,2023,6,7,16,11,43,416
44.90890,-0.23345,0.07910,0.00000,0.02904,0.97515,-0.18690,0.0,2023,6,7,16,11,43,426
44.90900,0.09905,-0.00840,0.00000,0.02916,0.97563,-0.19056,0.0,2023,6,7,16,11,43,436
44.90910,0.13405,-0.09590,0.00000,0.02965,0.97746,-0.18666,0.0,2023,6,7,16,11,43,446
44.90920,-0.09345,-0.00840,0.00000,0.03135,0.97441,-0.18593,0.0,2023,6,7,16,11,43,456
44.90930,-0.02345,-0.20090,0.00000,0.03099,0.97612,-0.18983,0.0,2023,6,7,16,11,43,466
44.90940,-0.00595,-0.02590,0.00000,0.03123,0.97515,-0.18776,0.0,2023,6,7,16,11,43,476
44.90950,0.01155,0.16660,0.00000,0.03160,0.97624,-0.18690,0.0,2023,6,7,16,11,43,486
44.90960,-0.04095,-0.11340,0.00000,0.02952,0.97673,-0.18776,0.0,2023,6,7,16,11,43,496
44.90970,-0.18095,0.06160,0.00000,0.03184,0.97698,-0.18910,0.0,2023,6,7,16,11,43,506
44.90980,0.01155,0.23660,0.00000,0.03074,0.97661,-0.18837,0.0,2023,6,7,16,11,43,516
44.90990,0.01155,-0.21840,0.00000,0.03270,0.97466,-0.18886,0.0,2023,6,7,16,11,43,526
44.91000,0.06405,-0.18340,0.00000,0.03440,0.97600,-0.18837,0.0,2023,6,7,16,11,43,536
44.91010,0.11655,-0.02590,0.00000,0.03050,0.97502,-0.18910,0.0,2023,6,7,16,11,43,546
44.91020,0.04655,-0.04340,0.00000,0.03318,0.97698,-0.18666,0.0,2023,6,7,16,11,43,556
44.91030,-0.00595,-0.37590,0.00000,0.03111,0.97722,-0.18788,0.0,2023,6,7,16,11,43,566
44.91040,-0.02345,0.09660,0.00000,0.03331,0.97637,-0.18837,0.0,2023,6,7,16,11,43,576
44.91050,0.08155,-0.14840,0.00000,0.02989,0.97600,-0.18934,0.0,2023,6,7,16,11,43,586
44.91060,-0.12845,0.16660,0.00000,0.03148,0.97429,-0.19032,0.0,2023,6,7,16,11,43,596
44.91070,-0.02345,-0.16590,0.00000,0.02940,0.97600,-0.18910,0.0,2023,6,7,16,11,43,606
44.91080,0.06405,-0.14840,0.00000,0.03318,0.97746,-0.18959,0.0,2023,6,7,16,11,43,616
44.91090,0.06405,0.04410,0.00000,0.03318,0.97673,-0.18812,0.0,2023,6,7,16,11,43,626
44.91100,0.15155,-0.14840,0.00000,0.03318,0.97515,-0.18812,0.0,2023,6,7,16,11,43,636
44.91110,-0.12845,-0.02590,0.00000,0.03135,0.97783,-0.18715,0.0,2023,6,7,16,11,43,646
44.91120,0.01155,-0.07840,0.00000,0.03245,0.97710,-0.18861,0.0,2023,6,7,16,11,43,656
44.91130,0.09905,0.06160,0.00000,0.03160,0.97429,-0.18556,0.0,2023,6,7,16,11,43,666
44.91140,0.08155,0.07910,0.00000,0.03135,0.97637,-0.18654,0.0,2023,6,7,16,11,43,676
44.91150,0.11655,-0.21840,0.00000,0.03282,0.97527,-0.18959,0.0,2023,6,7,16,11,43,686
44.91160,-0.09345,-0.06090,0.00000,0.03184,0.97417,-0.18715,0.0,2023,6,7,16,11,43,696
44.91170,0.04655,-0.00840,0.00000,0.03209,0.97771,-0.18800,0.0,2023,6,7,16,11,43,706
44.91180,-0.02345,-0.00840,0.00000,0.03087,0.97405,-0.18861,0.0,2023,6,7,16,11,43,716
44.91190,0.01155,0.04410,0.00000,0.02916,0.97734,-0.18751,0.0,2023,6,7,16,11,43,726
44.91200,0.13405,-0.07840,0.00000,0.03050,0.97624,-0.18788,0.0,2023,6,7,16,11,43,736
44.91210,-0.12845,0.00910,0.00000,0.03270,0.97710,-0.18544,0.0,2023,6,7,16,11,43,746
44.91220,-0.07595,-0.13090,0.00000,0.03196,0.97515,-0.18642,0.0,2023,6,7,16,11,43,756
44.91230,-0.11095,-0.09590,0.00000,0.03099,0.97612,-0.18629,0.0,2023,6,7,16,11,43,766
44.91240,0.25655,-0.20090,0.00000,0.03294,0.97722,-0.18788,0.0,2023,6,7,16,11,43,776
44.91250,-0.25095,0.00910,0.00000,0.03001,0.97588,-0.18678,0.0,2023,6,7,16,11,43,786
44.91260,-0.19845,0.11410,0.00000,0.03221,0.97612,-0.19069,0.0,2023,6,7,16,11,43,796
44.91270,0.13405,0.13160,0.00000,0.03257,0.97393,-0.18788,0.0,2023,6,7,16,11,43,806
44.91280,-0.14595,-0.14840,0.00000,0.03074,0.97881,-0.18617,0.0,2023,6,7,16,11,43,816
44.91290,0.04655,-0.00840,0.00000,0.03294,0.97661,-0.19032,0.0,2023,6,7,16,11,43,826
44.91300,0.29155,0.02660,0.00000,0.03123,0.97441,-0.18825,0.0,2023,6,7,16,11,43,836
44.91310,-0.11095,-0.21840,0.00000,0.03050,0.97661,-0.18617,0.0,2023,6,7,16,11,43,846
44.91320,0.16905,-0.13090,0.00000,0.03038,0.97698,-0.18629,0.0,2023,6,7,16,11,43,856
44.91330,-0.16345,0.00910,0.00000,0.03184,0.97490,-0.18703,0.0,2023,6,7,16,11,43,866
44.91340,-0.21595,-0.16590,0.00000,0.03001,0.97405,-0.18776,0.0,2023,6,7,16,11,43,876
44.91350,0.01155,0.02660,0.00000,0.03416,0.97344,-0.18617,0.0,2023,6,7,16,11,43,886
44.91360,-0.02345,-0.04340,0.00000,0.03196,0.97600,-0.18690,0.0,2023,6,7,16,11,44,6
44.91370,-0.18095,0.02660,0.00000,0.03160,0.97759,-0.18837,0.0,2023,6,7,16,11,44,16
44.91380,0.25655,0.04410,0.00000,0.02891,0.97551,-0.18910,0.0,2023,6,7,16,11,44,26
44.91390,-0.09345,-0.06090,0.00000,0.03294,0.97539,-0.18593,0.0,2023,6,7,16,11,44,36
44.91400,-0.02345,0.02660,0.00000,0.03221,0.97722,-0.18886,0.0,2023,6,7,16,11,44,46
44.91410,0.08155,-0.13090,0.00000,0.02891,0.97539,-0.18934,0.0,2023,6,7,16,11,44,56
44.91420,0.09905,-0.06090,0.00000,0.03001,0.97576,-0.18800,0.0,2023,6,7,16,11,44,66
44.91430,0.08155,-0.06090,0.00000,0.03245,0.97807,-0.18715,0.0,2023,6,7,16,11,44,76
44.91440,-0.04095,-0.16590,0.00000,0.03221,0.97539,-0.18849,0.0,2023,6,7,16,11,44,86
44.91450,-0.04095,0.00910,0.00000,0.03111,0.97722,-0.18825,0.0,2023,6,7,16,11,44,96
44.91460,-0.14595,0.18410,0.00000,0.03184,0.97734,-0.18715,0.0,2023,6,7,16,11,44,106
44.91470,-0.12845,0.04410,0.00000,0.03123,0.97673,-0.18764,0.0,2023,6,7,16,11,44,116
44.91480,0.32655,-0.14840,0.00000,0.03013,0.97588,-0.19178,0.0,2023,6,7,16,11,44,126
44.91490,-0.32095,-0.14840,0.00000,0.03294,0.97551,-0.18446,0.0,2023,6,7,16,11,44,136
44.91500,0.08155,-0.16590,0.00000,0.02928,0.97868,-0.18861,0.0,2023,6,7,16,11,44,146
44.91510,0.29155,0.02660,0.00000,0.03318,0.97710,-0.18947,0.0,2023,6,7,16,11,44,156
44.91520,-0.42595,0.07910,0.00000,0.03074,0.97685,-0.18398,0.0,2023,6,7,16,11,44,166
44.91530,0.11655,-0.27090,0.00000,0.02952,0.97746,-0.19081,0.0,2023,6,7,16,11,44,176
44.91540,0.22155,0.07910,0.00000,0.03257,0.97710,-0.18764,0.0,2023,6,7,16,11,44,186
44.91550,-0.35595,-0.06090,0.00000,0.03355,0.97881,-0.18422,0.0,2023,6,7,16,11,44,196
44.91560,0.25655,-0.28840,0.00000,0.02977,0.97600,-0.18947,0.0,2023,6,7,16,11,44,206
44.91570,0.23905,0.04410,0.00000,0.03331,0.97612,-0.18654,0.0,2023,6,7,16,11,44,216
44.91580,-0.40845,0.09660,0.00000,0.03123,0.97917,-0.18837,0.0,2023,6,7,16,11,44,226
44.91590,0.18655,-0.04340,0.00000,0.03257,0.97576,-0.18788,0.0,2023,6,7,16,11,44,236
44.91600,-0.18095,0.02660,0.00000,0.03355,0.97563,-0.18556,0.0,2023,6,7,16,11,44,246
44.91610,-0.23345,0.13160,0.00000,0.02952,0.97478,-0.18922,0.0,2023,6,7,16,11,44,256
44.91620,0.22155,-0.06090,0.00000,0.02989,0.97563,-0.18947,0.0,2023,6,7,16,11,44,266
44.91630,-0.23345,0.14910,0.00000,0.03221,0.97807,-0.18361,0.0,2023,6,7,16,11,44,276
44.91640,-0.26845,0.13160,0.00000,0.03026,0.97710,-0.18764,0.0,2023,6,7,16,11,44,286
44.91650,0.02905,-0.09590,0.00000,0.03355,0.97490,-0.18593,0.0,2023,6,7,16,11,44,296
44.91660,-0.02345,-0.07840,0.00000,0.03184,0.97746,-0.18581,0.0,2023,6,7,16,11,44,306
44.91670,-0.18095,-0.11340,0.00000,0.03270,0.97502,-0.18690,0.0,2023,6,7,16,11,44,316
44.91680,0.16905,-0.20090,0.00000,0.03087,0.97746,-0.18654,0.0,2023,6,7,16,11,44,326
44.91690,-0.39095,0.02660,0.00000,0.03001,0.97600,-0.18373,0.0,2023,6,7,16,11,44,336
44.91700,0.01155,-0.20090,0.00000,0.02977,0.97783,-0.18788,0.0,2023,6,7,16,11,44,346
44.91710,0.09905,0.00910,0.00000,0.03270,0.97649,-0.18690,0.0,2023,6,7,16,11,44,356
44.91720,-0.19845,-0.07840,0.00000,0.03221,0.97466,-0.18483,0.0,2023,6,7,16,11,44,366
44.91730,0.01155,-0.00840,0.00000,0.03196,0.97539,-0.18800,0.0,2023,6,7,16,11,44,376
44.91740,0.11655,0.02660,0.00000,0.03196,0.97942,-0.18690,0.0,2023,6,7,16,11,44,386
44.91750,-0.33845,-0.07840,0.00000,0.03038,0.97722,-0.18886,0.0,2023,6,7,16,11,44,396
44.91760,-0.00595,-0.07840,0.00000,0.03074,0.97612,-0.18873,0.0,2023,6,7,16,11,44,406
44.91770,-0.12845,0.11410,0.00000,0.03160,0.97759,-0.18886,0.0,2023,6,7,16,11,44,416
44.91780,-0.30345,-0.11340,0.00000,0.03026,0.97698,-0.18764,0.0,2023,6,7,16,11,44,426
44.91790,0.18655,-0.14840,0.00000,0.03111,0.97539,-0.18898,0.0,2023,6,7,16,11,44,436
44.91800,-0.09345,-0.20090,0.00000,0.03331,0.97417,-0.18727,0.0,2023,6,7,16,11,44,446
44.91810,-0.09345,-0.18340,0.00000,0.03148,0.97551,-0.18605,0.0,2023,6,7,16,11,44,456
44.91820,0.18655,0.09660,0.00000,0.03160,0.97539,-0.18861,0.0,2023,6,7,16,11,44,466
44.91830,-0.09345,-0.11340,0.00000,0.03087,0.97844,-0.18617,0.0,2023,6,7,16,11,44,476
44.91840,-0.21595,0.02660,0.00000,0.03184,0.97551,-0.18776,0.0,2023,6,7,16,11,44,486
44.91850,0.16905,-0.13090,0.00000,0.03111,0.97283,-0.18581,0.0,2023,6,7,16,11,44,496
44.91860,-0.12845,-0.02590,0.00000,0.03038,0.97734,-0.18605,0.0,2023,6,7,16,11,44,506
44.91870,-0.07595,-0.06090,0.00000,0.03318,0.97807,-0.18861,0.0,2023,6,7,16,11,44,516
44.91880,0.11655,0.13160,0.00000,0.03135,0.97393,-0.18812,0.0,2023,6,7,16,11,44,526
44.91890,-0.02345,-0.06090,0.00000,0.03172,0.97649,-0.18690,0.0,2023,6,7,16,11,44,536
44.91900,0.11655,-0.04340,0.00000,0.03099,0.97637,-0.19069,0.0,2023,6,7,16,11,44,546
44.91910,0.09905,-0.04340,0.00000,0.03233,0.97527,-0.18727,0.0,2023,6,7,16,11,44,556
44.91920,-0.30345,0.04410,0.00000,0.03270,0.97490,-0.18678,0.0,2023,6,7,16,11,44,566
44.91930,0.11655,0.07910,0.00000,0.03038,0.97746,-0.19044,0.0,2023,6,7,16,11,44,576
44.91940,-0.00595,-0.14840,0.00000,0.03282,0.97478,-0.18544,0.0,2023,6,7,16,11,44,586
44.91950,-0.14595,-0.13090,0.00000,0.03135,0.97612,-0.18788,0.0,2023,6,7,16,11,44,596
44.91960,0.18655,-0.04340,0.00000,0.03099,0.97734,-0.18934,0.0,2023,6,7,16,11,44,606
44.91970,-0.04095,0.11410,0.00000,0.03123,0.97942,-0.18617,0.0,2023,6,7,16,11,44,616
44.91980,-0.07595,-0.14840,0.00000,0.03099,0.97429,-0.18886,0.0,2023,6,7,16,11,44,626
44.91990,0.39655,-0.02590,0.00000,0.03294,0.97612,-0.18825,0.0,2023,6,7,16,11,44,636
44.92000,-0.21595,-0.00840,0.00000,0.03172,0.97783,-0.18654,0.0,2023,6,7,16,11,44,646
44.92010,0.04655,0.06160,0.00000,0.02952,0.97673,-0.19044,0.0,2023,6,7,16,11,44,656
44.92020,0.23905,0.04410,0.00000,0.03148,0.97380,-0.18739,0.0,2023,6,7,16,11,44,666
44.92030,-0.12845,0.30660,0.00000,0.03257,0.97576,-0.18495,0.0,2023,6,7,16,11,44,676
44.92040,0.23905,-0.09590,0.00000,0.03074,0.97820,-0.18971,0.0,2023,6,7,16,11,44,686
44.92050,0.23905,-0.18340,0.00000,0.03148,0.97576,-0.18581,0.0,2023,6,7,16,11,44,696
44.92060,-0.00595,-0.07840,0.00000,0.03123,0.97832,-0.18727,0.0,2023,6,7,16,11,44,706
44.92070,-0.00595,0.00910,0.00000,0.03026,0.97905,-0.18971,0.0,2023,6,7,16,11,44,716
44.92080,0.20405,0.16660,0.00000,0.02989,0.97527,-0.18666,0.0,2023,6,7,16,11,44,726
44.92090,0.04655,-0.09590,0.00000,0.03123,0.97600,-0.18678,0.0,2023,6,7,16,11,44,736
44.92100,0.30905,-0.13090,0.00000,0.03221,0.97807,-0.18825,0.0,2023,6,7,16,11,44,746
44.92110,-0.00595,-0.21840,0.00000,0.03221,0.97771,-0.18703,0.0,2023,6,7,16,11,44,756
44.92120,-0.12845,-0.09590,0.00000,0.03062,0.97637,-0.18788,0.0,2023,6,7,16,11,44,766
44.92130,0.01155,-0.04340,0.00000,0.03209,0.97527,-0.18837,0.0,2023,6,7,16,11,44,776
44.92140,-0.09345,-0.13090,0.00000,0.03282,0.97551,-0.18678,0.0,2023,6,7,16,11,44,786
44.92150,-0.14595,0.04410,0.00000,0.03233,0.97685,-0.19020,0.0,2023,6,7,16,11,44,796
44.92160,0.04655,0.02660,0.00000,0.03184,0.97685,-0.18910,0.0,2023,6,7,16,11,44,806
44.92170,0.04655,-0.11340,0.00000,0.03245,0.97807,-0.18837,0.0,2023,6,7,16,11,44,816
44.92180,-0.05845,0.23660,0.00000,0.02940,0.97893,-0.18739,0.0,2023,6,7,16,11,44,826
44.92190,0.18655,-0.11340,0.00000,0.02952,0.97502,-0.18971,0.0,2023,6,7,16,11,44,836
44.92200,-0.16345,-0.07840,0.00000,0.02989,0.97783,-0.18495,0.0,2023,6,7,16,11,44,846
44.92210,-0.00595,-0.09590,0.00000,0.03074,0.97807,-0.19032,0.0,2023,6,7,16,11,44,856
44.92220,0.08155,-0.23590,0.00000,0.03001,0.97673,-0.18934,0.0,2023,6,7,16,11,44,866
44.92230,-0.07595,0.11410,0.00000,0.02806,0.97722,-0.18690,0.0,2023,6,7,16,11,44,876
44.92240,-0.00595,-0.06090,0.00000,0.03135,0.97978,-0.18971,0.0,2023,6,7,16,11,44,886
44.92250,0.22155,-0.02590,0.00000,0.03013,0.97624,-0.18715,0.0,2023,6,7,16,11,44,896
44.92260,0.01155,-0.14840,0.00000,0.03135,0.97893,-0.18776,0.0,2023,6,7,16,11,44,906
44.92270,0.11655,-0.16590,0.00000,0.03270,0.97478,-0.18678,0.0,2023,6,7,16,11,45,6
44.92280,0.20405,0.02660,0.00000,0.02989,0.97771,-0.19081,0.0,2023,6,7,16,11,45,16
44.92290,-0.02345,0.14910,0.00000,0.03233,0.97588,-0.19044,0.0,2023,6,7,16,11,45,26
44.92300,-0.19845,-0.00840,0.00000,0.02916,0.97881,-0.18861,0.0,2023,6,7,16,11,45,36
44.92310,0.04655,0.16660,0.00000,0.03099,0.97832,-0.18873,0.0,2023,6,7,16,11,45,46
44.92320,-0.02345,-0.02590,0.00000,0.03038,0.97783,-0.19105,0.0,2023,6,7,16,11,45,56
44.92330,0.02905,0.14910,0.00000,0.03013,0.97759,-0.18825,0.0,2023,6,7,16,11,45,66
44.92340,0.04655,0.04410,0.00000,0.03233,0.97417,-0.18642,0.0,2023,6,7,16,11,45,76
44.92350,-0.04095,-0.20090,0.00000,0.03087,0.97527,-0.18690,0.0,2023,6,7,16,11,45,86
44.92360,0.01155,-0.14840,0.00000,0.03196,0.97600,-0.18776,0.0,2023,6,7,16,11,45,96
44.92370,0.02905,0.02660,0.00000,0.03233,0.97319,-0.18520,0.0,2023,6,7,16,11,45,106
44.92380,0.04655,0.06160,0.00000,0.03196,0.97551,-0.18495,0.0,2023,6,7,16,11,45,116
44.92390,0.02905,-0.16590,0.00000,0.03318,0.97600,-0.18495,0.0,2023,6,7,16,11,45,126
44.92400,-0.11095,-0.13090,0.00000,0.03050,0.97478,-0.18398,0.0,2023,6,7,16,11,45,136
44.92410,-0.16345,0.02660,0.00000,0.03123,0.97783,-0.18800,0.0,2023,6,7,16,11,45,146
44.92420,-0.05845,-0.11340,0.00000,0.03172,0.97771,-0.18800,0.0,2023,6,7,16,11,45,156
44.92430,-0.04095,-0.00840,0.00000,0.02965,0.97685,-0.18837,0.0,2023,6,7,16,11,45,166
44.92440,-0.14595,-0.00840,0.00000,0.03209,0.97661,-0.18825,0.0,2023,6,7,16,11,45,176
44.92450,0.01155,-0.09590,0.00000,0.02891,0.97588,-0.18678,0.0,2023,6,7,16,11,45,186
44.92460,-0.05845,-0.27090,0.00000,0.03172,0.97600,-0.19008,0.0,2023,6,7,16,11,45,196
44.92470,-0.14595,-0.02590,0.00000,0.03038,0.97746,-0.18776,0.0,2023,6,7,16,11,45,206
44.92480,-0.02345,-0.18340,0.00000,0.03111,0.97673,-0.18593,0.0,2023,6,7,16,11,45,216
44.92490,0.02905,0.23660,0.00000,0.03221,0.97783,-0.19020,0.0,2023,6,7,16,11,45,226
44.92500,-0.14595,-0.04340,0.00000,0.03184,0.97868,-0.19093,0.0,2023,6,7,16,11,45,236
44.92510,-0.04095,0.00910,0.00000,0.03099,0.97478,-0.19215,0.0,2023,6,7,16,11,45,246
44.92520,0.01155,0.02660,0.00000,0.03050,0.97563,-0.18886,0.0,2023,6,7,16,11,45,256
44.92530,-0.12845,0.09660,0.00000,0.03111,0.97576,-0.18861,0.0,2023,6,7,16,11,45,266
44.92540,0.09905,-0.07840,0.00000,0.02891,0.97466,-0.18910,0.0,2023,6,7,16,11,45,276
44.92550,0.02905,-0.02590,0.00000,0.03099,0.97527,-0.18971,0.0,2023,6,7,16,11,45,286
44.92560,0.11655,-0.07840,0.00000,0.03111,0.97673,-0.18898,0.0,2023,6,7,16,11,45,296
44.92570,-0.04095,0.00910,0.00000,0.03196,0.97600,-0.19105,0.0,2023,6,7,16,11,45,306
44.92580,-0.05845,0.07910,0.00000,0.03209,0.97490,-0.18861,0.0,2023,6,7,16,11,45,316
44.92590,-0.19845,-0.27090,0.00000,0.03050,0.97429,-0.18825,0.0,2023,6,7,16,11,45,326
44.92600,0.01155,-0.13090,0.00000,0.03196,0.97661,-0.19069,0.0,2023,6,7,16,11,45,336
44.92610,0.09905,0.06160,0.00000,0.03184,0.97759,-0.18849,0.0,2023,6,7,16,11,45,346
44.92620,0.06405,0.00910,0.00000,0.03111,0.97771,-0.18837,0.0,2023,6,7,16,11,45,356
44.92630,-0.14595,-0.16590,0.00000,0.03196,0.97637,-0.18983,0.0,2023,6,7,16,11,45,366
44.92640,0.09905,0.06160,0.00000,0.03099,0.97710,-0.18849,0.0,2023,6,7,16,11,45,376
44.92650,-0.07595,-0.06090,0.00000,0.03062,0.97405,-0.18788,0.0,2023,6,7,16,11,45,386
44.92660,-0.09345,0.09660,0.00000,0.03331,0.97490,-0.18751,0.0,2023,6,7,16,11,45,396
44.92670,-0.04095,-0.06090,0.00000,0.03221,0.97673,-0.18764,0.0,2023,6,7,16,11,45,406
44.92680,-0.02345,0.04410,0.00000,0.03294,0.97393,-0.19044,0.0,2023,6,7,16,11,45,416
44.92690,-0.23345,-0.04340,0.00000,0.03074,0.97380,-0.18751,0.0,2023,6,7,16,11,45,426
44.92700,-0.11095,0.16660,0.00000,0.03135,0.97954,-0.18886,0.0,2023,6,7,16,11,45,436
44.92710,-0.16345,0.11410,0.00000,0.03038,0.97527,-0.18678,0.0,2023,6,7,16,11,45,446
44.92720,-0.05845,0.13160,0.00000,0.03318,0.97783,-0.18873,0.0,2023,6,7,16,11,45,456
44.92730,-0.21595,-0.32340,0.00000,0.03013,0.97649,-0.18642,0.0,2023,6,7,16,11,45,466
44.92740,-0.05845,-0.14840,0.00000,0.03026,0.97624,-0.18788,0.0,2023,6,7,16,11,45,476
44.92750,0.06405,-0.13090,0.00000,0.03367,0.97820,-0.18617,0.0,2023,6,7,16,11,45,486
44.92760,-0.04095,0.09660,0.00000,0.03233,0.97649,-0.18520,0.0,2023,6,7,16,11,45,496
44.92770,-0.09345,-0.11340,0.00000,0.02879,0.97624,-0.18751,0.0,2023,6,7,16,11,45,506
44.92780,0.02905,-0.14840,0.00000,0.03221,0.97429,-0.19032,0.0,2023,6,7,16,11,45,516
44.92790,-0.07595,0.02660,0.00000,0.03209,0.97868,-0.18581,0.0,2023,6,7,16,11,45,526
44.92800,-0.00595,0.06160,0.00000,0.03111,0.97661,-0.18886,0.0,2023,6,7,16,11,45,536
44.92810,-0.07595,0.02660,0.00000,0.03270,0.97539,-0.18971,0.0,2023,6,7,16,11,45,546
44.92820,-0.12845,-0.27090,0.00000,0.02977,0.97637,-0.18971,0.0,2023,6,7,16,11,45,556
44.92830,-0.19845,-0.00840,0.00000,0.03074,0.97649,-0.18690,0.0,2023,6,7,16,11,45,566
44.92840,0.06405,-0.00840,0.00000,0.03087,0.97795,-0.18849,0.0,2023,6,7,16,11,45,576
44.92850,-0.11095,0.20160,0.00000,0.03160,0.97429,-0.19008,0.0,2023,6,7,16,11,45,586
44.92860,0.15155,-0.06090,0.00000,0.03294,0.97588,-0.18812,0.0,2023,6,7,16,11,45,596
44.92870,0.01155,0.07910,0.00000,0.03209,0.97698,-0.18690,0.0,2023,6,7,16,11,45,606
44.92880,0.13405,-0.14840,0.00000,0.03038,0.97551,-0.18910,0.0,2023,6,7,16,11,45,616
44.92890,0.08155,-0.28840,0.00000,0.03099,0.97588,-0.18886,0.0,2023,6,7,16,11,45,626
44.92900,-0.09345,-0.04340,0.00000,0.03148,0.97820,-0.18764,0.0,2023,6,7,16,11,45,636
44.92910,0.16905,-0.20090,0.00000,0.03245,0.97759,-0.18873,0.0,2023,6,7,16,11,45,646
44.92920,0.16905,-0.07840,0.00000,0.03160,0.97551,-0.18849,0.0,2023,6,7,16,11,45,656
44.92930,0.04655,-0.06090,0.00000,0.03172,0.97576,-0.18886,0.0,2023,6,7,16,11,45,666
44.92940,0.09905,-0.32340,0.00000,0.03172,0.97783,-0.18886,0.0,2023,6,7,16,11,45,676
44.92950,0.11655,0.02660,0.00000,0.02977,0.97612,-0.19032,0.0,2023,6,7,16,11,45,686
44.92960,-0.04095,-0.00840,0.00000,0.03099,0.97673,-0.18690,0.0,2023,6,7,16,11,45,696
44.92970,0.23905,-0.11340,0.00000,0.03172,0.97515,-0.18910,0.0,2023,6,7,16,11,45,706
44.92980,-0.16345,0.21910,0.00000,0.03050,0.97649,-0.18788,0.0,2023,6,7,16,11,45,716
44.92990,0.09905,0.11410,0.00000,0.02940,0.97600,-0.19154,0.0,2023,6,7,16,11,45,726
44.93000,-0.05845,0.13160,0.00000,0.03306,0.97515,-0.18690,0.0,2023,6,7,16,11,45,736
44.93010,-0.00595,-0.16590,0.00000,0.03074,0.97734,-0.18703,0.0,2023,6,7,16,11,45,746
44.93020,0.25655,-0.20090,0.00000,0.03111,0.97771,-0.18751,0.0,2023,6,7,16,11,45,756
44.93030,-0.09345,-0.13090,0.00000,0.03282,0.97710,-0.18654,0.0,2023,6,7,16,11,45,766
44.93040,-0.25095,-0.07840,0.00000,0.03282,0.97698,-0.18666,0.0,2023,6,7,16,11,45,776
44.93050,0.09905,0.09660,0.00000,0.03062,0.97783,-0.18812,0.0,2023,6,7,16,11,45,786
44.93060,0.01155,-0.00840,0.00000,0.03209,0.97551,-0.18654,0.0,2023,6,7,16,11,45,796
44.93070,-0.11095,0.11410,0.00000,0.03196,0.97624,-0.18678,0.0,2023,6,7,16,11,45,806
44.93080,0.04655,0.02660,0.00000,0.02989,0.97649,-0.18776,0.0,2023,6,7,16,11,45,816
44.93090,-0.16345,-0.06090,0.00000,0.03001,0.97283,-0.18642,0.0,2023,6,7,16,11,45,826
44.93100,0.01155,-0.16590,0.00000,0.03465,0.97466,-0.18507,0.0,2023,6,7,16,11,45,836
44.93110,-0.18095,0.07910,0.00000,0.03245,0.97710,-0.19056,0.0,2023,6,7,16,11,45,846
44.93120,0.06405,-0.02590,0.00000,0.03196,0.97637,-0.18873,0.0,2023,6,7,16,11,45,856
44.93130,0.09905,-0.00840,0.00000,0.03355,0.97673,-0.18800,0.0,2023,6,7,16,11,45,866
44.93140,0.13405,-0.25340,0.00000,0.03087,0.97820,-0.18825,0.0,2023,6,7,16,11,45,876
44.93150,0.25655,-0.02590,0.00000,0.03038,0.97515,-0.18910,0.0,2023,6,7,16,11,45,886
44.93160,-0.14595,0.11410,0.00000,0.03111,0.97637,-0.18995,0.0,2023,6,7,16,11,46,6
44.93170,0.06405,-0.06090,0.00000,0.03111,0.97795,-0.18788,0.0,2023,6,7,16,11,46,16
44.93180,-0.02345,-0.13090,0.00000,0.03196,0.97649,-0.19130,0.0,2023,6,7,16,11,46,26
44.93190,0.01155,0.07910,0.00000,0.03233,0.97563,-0.18642,0.0,2023,6,7,16,11,46,36
44.93200,0.13405,-0.14840,0.00000,0.03245,0.97405,-0.18666,0.0,2023,6,7,16,11,46,46
44.93210,-0.04095,-0.13090,0.00000,0.03148,0.97746,-0.18995,0.0,2023,6,7,16,11,46,56
44.93220,-0.14595,0.06160,0.00000,0.03367,0.97722,-0.18751,0.0,2023,6,7,16,11,46,66
44.93230,0.02905,-0.07840,0.00000,0.03074,0.97759,-0.18642,0.0,2023,6,7,16,11,46,76
44.93240,-0.07595,0.06160,0.00000,0.03233,0.97759,-0.18825,0.0,2023,6,7,16,11,46,86
44.93250,0.01155,0.09660,0.00000,0.03050,0.97832,-0.18654,0.0,2023,6,7,16,11,46,96
44.93260,0.13405,-0.09590,0.00000,0.03038,0.97710,-0.18788,0.0,2023,6,7,16,11,46,106
44.93270,0.06405,-0.16590,0.00000,0.02940,0.97832,-0.18727,0.0,2023,6,7,16,11,46,116
44.93280,0.29155,-0.09590,0.00000,0.03306,0.97539,-0.18922,0.0,2023,6,7,16,11,46,126
44.93290,-0.12845,-0.18340,0.00000,0.03172,0.97685,-0.18703,0.0,2023,6,7,16,11,46,136
44.93300,-0.04095,-0.13090,0.00000,0.03233,0.97759,-0.19215,0.0,2023,6,7,16,11,46,146
44.93310,0.01155,-0.06090,0.00000,0.03074,0.97515,-0.18995,0.0,2023,6,7,16,11,46,156
44.93320,0.08155,-0.06090,0.00000,0.03135,0.97746,-0.18861,0.0,2023,6,7,16,11,46,166
44.93330,0.09905,-0.06090,0.00000,0.03074,0.97466,-0.18971,0.0,2023,6,7,16,11,46,176
44.93340,-0.05845,0.07910,0.00000,0.03245,0.97576,-0.18849,0.0,2023,6,7,16,11,46,186
44.93350,0.01155,-0.21840,0.00000,0.03416,0.97649,-0.18971,0.0,2023,6,7,16,11,46,196
44.93360,0.01155,-0.06090,0.00000,0.03160,0.97710,-0.18922,0.0,2023,6,7,16,11,46,206
44.93370,0.02905,0.04410,0.00000,0.03282,0.97563,-0.19154,0.0,2023,6,7,16,11,46,216
44.93380,-0.02345,-0.14840,0.00000,0.03209,0.97478,-0.18751,0.0,2023,6,7,16,11,46,226
44.93390,-0.11095,0.04410,0.00000,0.03257,0.97588,-0.18666,0.0,2023,6,7,16,11,46,236
44.93400,-0.02345,0.18410,0.00000,0.03294,0.97807,-0.19044,0.0,2023,6,7,16,11,46,246
44.93410,0.16905,-0.00840,0.00000,0.03013,0.97942,-0.18617,0.0,2023,6,7,16,11,46,256
44.93420,-0.18095,0.04410,0.00000,0.03013,0.97698,-0.18715,0.0,2023,6,7,16,11,46,266
44.93430,-0.05845,-0.14840,0.00000,0.03306,0.97844,-0.18837,0.0,2023,6,7,16,11,46,276
44.93440,-0.04095,-0.04340,0.00000,0.03135,0.97405,-0.18654,0.0,2023,6,7,16,11,46,286
44.93450,-0.07595,0.00910,0.00000,0.03148,0.97515,-0.18934,0.0,2023,6,7,16,11,46,296
44.93460,0.02905,-0.07840,0.00000,0.03050,0.97637,-0.18922,0.0,2023,6,7,16,11,46,306
44.93470,0.01155,-0.23590,0.00000,0.03111,0.97271,-0.18544,0.0,2023,6,7,16,11,46,316
44.93480,-0.04095,0.27160,0.00000,0.03062,0.97734,-0.18922,0.0,2023,6,7,16,11,46,326
44.93490,-0.12845,0.16660,0.00000,0.03233,0.97368,-0.18788,0.0,2023,6,7,16,11,46,336
44.93500,-0.26845,-0.07840,0.00000,0.03099,0.97710,-0.18861,0.0,2023,6,7,16,11,46,346
44.93510,-0.09345,0.07910,0.00000,0.03135,0.97783,-0.18983,0.0,2023,6,7,16,11,46,356
44.93520,-0.05845,0.09660,0.00000,0.03050,0.97820,-0.18715,0.0,2023,6,7,16,11,46,366
44.93530,0.02905,-0.06090,0.00000,0.03148,0.97429,-0.18727,0.0,2023,6,7,16,11,46,376
44.93540,0.23905,0.04410,0.00000,0.02891,0.97673,-0.18727,0.0,2023,6,7,16,11,46,386
44.93550,-0.09345,-0.02590,0.00000,0.02916,0.97820,-0.18703,0.0,2023,6,7,16,11,46,396
44.93560,0.18655,-0.13090,0.00000,0.03123,0.97563,-0.18934,0.0,2023,6,7,16,11,46,406
44.93570,0.01155,-0.09590,0.00000,0.03343,0.97673,-0.18642,0.0,2023,6,7,16,11,46,416
44.93580,0.06405,-0.04340,0.00000,0.03038,0.97783,-0.19008,0.0,2023,6,7,16,11,46,426
44.93590,-0.11095,0.13160,0.00000,0.03270,0.97637,-0.18654,0.0,2023,6,7,16,11,46,436
44.93600,0.01155,0.07910,0.00000,0.03087,0.97490,-0.18764,0.0,2023,6,7,16,11,46,446
44.93610,-0.14595,0.20160,0.00000,0.03221,0.97441,-0.18886,0.0,2023,6,7,16,11,46,456
44.93620,-0.07595,0.13160,0.00000,0.03135,0.97612,-0.18825,0.0,2023,6,7,16,11,46,466
44.93630,-0.05845,-0.20090,0.00000,0.03233,0.97710,-0.18483,0.0,2023,6,7,16,11,46,476
44.93640,-0.05845,0.02660,0.00000,0.03062,0.97673,-0.18922,0.0,2023,6,7,16,11,46,486
44.93650,0.18655,-0.07840,0.00000,0.03172,0.97978,-0.18764,0.0,2023,6,7,16,11,46,496
44.93660,-0.21595,-0.11340,0.00000,0.03196,0.97466,-0.18861,0.0,2023,6,7,16,11,46,506
44.93670,0.01155,-0.02590,0.00000,0.03013,0.97783,-0.18776,0.0,2023,6,7,16,11,46,516
44.93680,-0.00595,0.07910,0.00000,0.03209,0.97746,-0.19020,0.0,2023,6,7,16,11,46,526
44.93690,0.02905,-0.11340,0.00000,0.03050,0.97673,-0.18873,0.0,2023,6,7,16,11,46,536
44.93700,-0.14595,0.07910,0.00000,0.03099,0.97673,-0.18861,0.0,2023,6,7,16,11,46,546
44.93710,-0.04095,0.02660,0.00000,0.03209,0.97917,-0.18739,0.0,2023,6,7,16,11,46,556
44.93720,-0.00595,-0.04340,0.00000,0.03026,0.97441,-0.18800,0.0,2023,6,7,16,11,46,566
44.93730,-0.14595,0.25410,0.00000,0.03355,0.97698,-0.18800,0.0,2023,6,7,16,11,46,576
44.93740,-0.00595,-0.06090,0.00000,0.03099,0.97734,-0.19008,0.0,2023,6,7,16,11,46,586
44.93750,0.04655,-0.11340,0.00000,0.02940,0.97502,-0.18886,0.0,2023,6,7,16,11,46,596
44.93760,-0.07595,0.09660,0.00000,0.03477,0.97771,-0.18739,0.0,2023,6,7,16,11,46,606
44.93770,-0.02345,0.21910,0.00000,0.03038,0.97795,-0.18837,0.0,2023,6,7,16,11,46,616
44.93780,-0.11095,0.07910,0.00000,0.03074,0.97637,-0.18800,0.0,2023,6,7,16,11,46,626
44.93790,-0.07595,0.18410,0.00000,0.03440,0.97710,-0.18788,0.0,2023,6,7,16,11,46,636
44.93800,-0.09345,-0.06090,0.00000,0.03026,0.97685,-0.18947,0.0,2023,6,7,16,11,46,646
44.93810,0.29155,-0.04340,0.00000,0.03343,0.97783,-0.18983,0.0,2023,6,7,16,11,46,656
44.93820,0.09905,0.16660,0.00000,0.03099,0.97698,-0.18825,0.0,2023,6,7,16,11,46,666
44.93830,0.06405,-0.02590,0.00000,0.03233,0.97734,-0.18825,0.0,2023,6,7,16,11,46,676
44.93840,0.11655,-0.06090,0.00000,0.03257,0.97490,-0.18947,0.0,2023,6,7,16,11,46,686
44.93850,-0.07595,-0.09590,0.00000,0.03282,0.97673,-0.18739,0.0,2023,6,7,16,11,46,696
44.93860,0.25655,0.07910,0.00000,0.03026,0.97820,-0.18800,0.0,2023,6,7,16,11,46,706
44.93870,0.09905,0.04410,0.00000,0.03245,0.97746,-0.18739,0.0,2023,6,7,16,11,46,716
44.93880,-0.04095,0.07910,0.00000,0.03257,0.97637,-0.18739,0.0,2023,6,7,16,11,46,726
44.93890,-0.25095,0.06160,0.00000,0.03172,0.97856,-0.18764,0.0,2023,6,7,16,11,46,736
44.93900,-0.02345,0.00910,0.00000,0.03148,0.98027,-0.18642,0.0,2023,6,7,16,11,46,746
44.93910,-0.12845,0.02660,0.00000,0.03184,0.97734,-0.18776,0.0,2023,6,7,16,11,46,756
44.93920,-0.11095,0.09660,0.00000,0.03209,0.97612,-0.18690,0.0,2023,6,7,16,11,46,766
44.93930,-0.00595,-0.09590,0.00000,0.03196,0.97600,-0.19117,0.0,2023,6,7,16,11,46,776
44.93940,-0.00595,-0.02590,0.00000,0.03245,0.97588,-0.18520,0.0,2023,6,7,16,11,46,786
44.93950,0.02905,0.00910,0.00000,0.03062,0.97722,-0.18715,0.0,2023,6,7,16,11,46,796
44.93960,0.09905,-0.02590,0.00000,0.03257,0.97685,-0.18751,0.0,2023,6,7,16,11,46,806
44.93970,0.02905,0.20160,0.00000,0.03135,0.97466,-0.18873,0.0,2023,6,7,16,11,46,816
44.93980,-0.07595,0.25410,0.00000,0.03135,0.97515,-0.18910,0.0,2023,6,7,16,11,46,826
44.93990,-0.11095,0.00910,0.00000,0.03318,0.97600,-0.18971,0.0,2023,6,7,16,11,46,836
44.94000,0.06405,0.06160,0.00000,0.03038,0.97746,-0.18886,0.0,2023,6,7,16,11,46,846
44.94010,0.06405,0.09660,0.00000,0.03306,0.97588,-0.18446,0.0,2023,6,7,16,11,46,856
44.94020,-0.00595,-0.14840,0.00000,0.03111,0.97478,-0.18886,0.0,2023,6,7,16,11,46,866
44.94030,0.20405,0.11410,0.00000,0.03196,0.97698,-0.19020,0.0,2023,6,7,16,11,46,876
44.94040,0.13405,-0.16590,0.00000,0.03123,0.97661,-0.18739,0.0,2023,6,7,16,11,46,886
44.94050,-0.05845,0.11410,0.00000,0.02977,0.97637,-0.18861,0.0,2023,6,7,16,11,46,896
44.94060,0.27405,-0.25340,0.00000,0.02891,0.97661,-0.19056,0.0,2023,6,7,16,11,47,6
44.94070,-0.39095,-0.04340,0.00000,0.03282,0.97734,-0.18532,0.0,2023,6,7,16,11,47,16
44.94080,0.09905,-0.07840,0.00000,0.03148,0.97734,-0.19166,0.0,2023,6,7,16,11,47,26
44.94090,0.16905,-0.09590,0.00000,0.03123,0.97612,-0.19166,0.0,2023,6,7,16,11,47,36
44.94100,-0.11095,-0.09590,0.00000,0.03148,0.97441,-0.18532,0.0,2023,6,7,16,11,47,46
44.94110,0.04655,0.09660,0.00000,0.03160,0.97734,-0.19069,0.0,2023,6,7,16,11,47,56
44.94120,0.22155,-0.06090,0.00000,0.03270,0.97661,-0.18837,0.0,2023,6,7,16,11,47,66
44.94130,-0.26845,-0.09590,0.00000,0.03282,0.97710,-0.18642,0.0,2023,6,7,16,11,47,76
44.94140,0.20405,0.20160,0.00000,0.02989,0.97795,-0.19081,0.0,2023,6,7,16,11,47,86
44.94150,0.06405,0.02660,0.00000,0.03038,0.97698,-0.18800,0.0,2023,6,7,16,11,47,96
44.94160,-0.21595,-0.00840,0.00000,0.03074,0.97515,-0.18959,0.0,2023,6,7,16,11,47,106
44.94170,0.01155,-0.06090,0.00000,0.03221,0.97710,-0.18812,0.0,2023,6,7,16,11,47,116
44.94180,-0.21595,-0.14840,0.00000,0.03099,0.97929,-0.18581,0.0,2023,6,7,16,11,47,126
44.94190,0.04655,0.06160,0.00000,0.03013,0.97539,-0.19239,0.0,2023,6,7,16,11,47,136
44.94200,-0.09345,-0.23590,0.00000,0.03294,0.97466,-0.18825,0.0,2023,6,7,16,11,47,146
44.94210,-0.23345,0.09660,0.00000,0.03111,0.98015,-0.18861,0.0,2023,6,7,16,11,47,156
44.94220,-0.11095,0.11410,0.00000,0.03087,0.97612,-0.19044,0.0,2023,6,7,16,11,47,166
44.94230,0.22155,0.04410,0.00000,0.03306,0.97649,-0.18959,0.0,2023,6,7,16,11,47,176
44.94240,-0.26845,-0.13090,0.00000,0.02989,0.97490,-0.18690,0.0,2023,6,7,16,11,47,186
44.94250,0.08155,-0.04340,0.00000,0.03013,0.97600,-0.18959,0.0,2023,6,7,16,11,47,196
44.94260,0.08155,-0.07840,0.00000,0.03209,0.97722,-0.18751,0.0,2023,6,7,16,11,47,206
44.94270,-0.25095,0.06160,0.00000,0.03245,0.97698,-0.18520,0.0,2023,6,7,16,11,47,216
44.94280,0.15155,0.00910,0.00000,0.03111,0.97783,-0.19288,0.0,2023,6,7,16,11,47,226
44.94290,0.09905,0.11410,0.00000,0.03306,0.97551,-0.18617,0.0,2023,6,7,16,11,47,236
44.94300,-0.09345,-0.02590,0.00000,0.03001,0.97856,-0.18788,0.0,2023,6,7,16,11,47,246
44.94310,-0.05845,0.14910,0.00000,0.02989,0.97441,-0.19215,0.0,2023,6,7,16,11,47,256
44.94320,-0.00595,-0.21840,0.00000,0.03062,0.97868,-0.18727,0.0,2023,6,7,16,11,47,266
44.94330,-0.26845,0.07910,0.00000,0.03099,0.97722,-0.18727,0.0,2023,6,7,16,11,47,276
44.94340,0.23905,-0.14840,0.00000,0.03099,0.97746,-0.18983,0.0,2023,6,7,16,11,47,286
44.94350,-0.05845,0.07910,0.00000,0.03087,0.97722,-0.18898,0.0,2023,6,7,16,11,47,296
44.94360,-0.32095,-0.13090,0.00000,0.03306,0.97710,-0.19081,0.0,2023,6,7,16,11,47,306
44.94370,0.04655,0.09660,0.00000,0.03135,0.97759,-0.18873,0.0,2023,6,7,16,11,47,316
44.94380,0.01155,0.06160,0.00000,0.03172,0.97734,-0.19008,0.0,2023,6,7,16,11,47,326
44.94390,-0.04095,0.11410,0.00000,0.02989,0.97844,-0.19044,0.0,2023,6,7,16,11,47,336
44.94400,0.29155,-0.18340,0.00000,0.03099,0.97771,-0.18825,0.0,2023,6,7,16,11,47,346
44.94410,0.08155,-0.09590,0.00000,0.03050,0.97795,-0.18971,0.0,2023,6,7,16,11,47,356
44.94420,0.04655,-0.02590,0.00000,0.03257,0.97917,-0.18873,0.0,2023,6,7,16,11,47,366
44.94430,-0.14595,-0.00840,0.00000,0.03233,0.97746,-0.18971,0.0,2023,6,7,16,11,47,376
44.94440,-0.11095,0.04410,0.00000,0.03221,0.97954,-0.18910,0.0,2023,6,7,16,11,47,386
44.94450,-0.04095,0.27160,0.00000,0.03087,0.97795,-0.18922,0.0,2023,6,7,16,11,47,396
44.94460,0.16905,-0.13090,0.00000,0.03331,0.97600,-0.18678,0.0,2023,6,7,16,11,47,406
44.94470,0.13405,-0.11340,0.00000,0.03026,0.97783,-0.19020,0.0,2023,6,7,16,11,47,416
44.94480,0.02905,0.06160,0.00000,0.03038,0.97624,-0.19020,0.0,2023,6,7,16,11,47,426
44.94490,0.09905,-0.00840,0.00000,0.03123,0.97710,-0.18751,0.0,2023,6,7,16,11,47,436
44.94500,-0.26845,0.18410,0.00000,0.03196,0.97441,-0.18715,0.0,2023,6,7,16,11,47,446
44.94510,0.13405,0.04410,0.00000,0.03087,0.97820,-0.19044,0.0,2023,6,7,16,11,47,456
44.94520,0.04655,0.02660,0.00000,0.03001,0.97673,-0.18971,0.0,2023,6,7,16,11,47,466
44.94530,0.09905,-0.11340,0.00000,0.03050,0.97673,-0.19166,0.0,2023,6,7,16,11,47,476
44.94540,0.02905,0.09660,0.00000,0.03282,0.97881,-0.18825,0.0,2023,6,7,16,11,47,486
44.94550,0.01155,0.13160,0.00000,0.03148,0.97685,-0.18544,0.0,2023,6,7,16,11,47,496
44.94560,-0.23345,0.04410,0.00000,0.03184,0.97539,-0.18837,0.0,2023,6,7,16,11,47,506
44.94570,0.08155,-0.04340,0.00000,0.03050,0.97722,-0.18764,0.0,2023,6,7,16,11,47,516
44.94580,0.04655,-0.21840,0.00000,0.03196,0.97637,-0.18703,0.0,2023,6,7,16,11,47,526
44.94590,-0.04095,-0.07840,0.00000,0.02891,0.97710,-0.18727,0.0,2023,6,7,16,11,47,536
44.94600,-0.02345,-0.02590,0.00000,0.03111,0.97612,-0.18971,0.0,2023,6,7,16,11,47,546
44.94610,0.02905,-0.00840,0.00000,0.03331,0.97759,-0.18837,0.0,2023,6,7,16,11,47,556
44.94620,-0.32095,-0.04340,0.00000,0.03050,0.97600,-0.18849,0.0,2023,6,7,16,11,47,566
44.94630,0.06405,-0.04340,0.00000,0.03148,0.97771,-0.18861,0.0,2023,6,7,16,11,47,576
44.94640,-0.00595,-0.11340,0.00000,0.03355,0.97685,-0.18434,0.0,2023,6,7,16,11,47,586
44.94650,-0.18095,0.07910,0.00000,0.03233,0.97624,-0.18617,0.0,2023,6,7,16,11,47,596
44.94660,-0.07595,-0.20090,0.00000,0.03099,0.97563,-0.18788,0.0,2023,6,7,16,11,47,606
44.94670,0.04655,-0.07840,0.00000,0.03245,0.97624,-0.18922,0.0,2023,6,7,16,11,47,616
44.94680,0.02905,0.02660,0.00000,0.03343,0.97600,-0.19056,0.0,2023,6,7,16,11,47,626
44.94690,-0.14595,0.00910,0.00000,0.03318,0.97820,-0.18776,0.0,2023,6,7,16,11,47,636
44.94700,-0.12845,-0.07840,0.00000,0.02952,0.97685,-0.18727,0.0,2023,6,7,16,11,47,646
44.94710,-0.11095,-0.18340,0.00000,0.03172,0.97393,-0.18593,0.0,2023,6,7,16,11,47,656
44.94720,-0.00595,0.04410,0.00000,0.02891,0.97722,-0.18666,0.0,2023,6,7,16,11,47,666
44.94730,-0.04095,-0.06090,0.00000,0.03099,0.97820,-0.18971,0.0,2023,6,7,16,11,47,676
44.94740,-0.14595,0.00910,0.00000,0.03111,0.97673,-0.18617,0.0,2023,6,7,16,11,47,686
44.94750,-0.21595,-0.06090,0.00000,0.03209,0.97588,-0.18605,0.0,2023,6,7,16,11,47,696
44.94760,-0.04095,-0.02590,0.00000,0.03257,0.97527,-0.18898,0.0,2023,6,7,16,11,47,706
44.94770,0.15155,-0.13090,0.00000,0.03062,0.97612,-0.18568,0.0,2023,6,7,16,11,47,716
44.94780,-0.00595,-0.21840,0.00000,0.03135,0.98064,-0.18471,0.0,2023,6,7,16,11,47,726
44.94790,0.11655,-0.27090,0.00000,0.03209,0.97881,-0.18776,0.0,2023,6,7,16,11,47,736
44.94800,0.11655,-0.06090,0.00000,0.03050,0.97588,-0.18666,0.0,2023,6,7,16,11,47,746
44.94810,-0.04095,0.09660,0.00000,0.03123,0.97759,-0.18910,0.0,2023,6,7,16,11,47,756
44.94820,-0.05845,-0.30590,0.00000,0.02977,0.97563,-0.18825,0.0,2023,6,7,16,11,47,766
44.94830,0.04655,-0.00840,0.00000,0.03135,0.97563,-0.18825,0.0,2023,6,7,16,11,47,776
44.94840,0.06405,-0.21840,0.00000,0.03306,0.97746,-0.19032,0.0,2023,6,7,16,11,47,786
44.94850,-0.04095,0.07910,0.00000,0.03184,0.97698,-0.18800,0.0,2023,6,7,16,11,47,796
44.94860,0.11655,0.00910,0.00000,0.03160,0.97624,-0.19154,0.0,2023,6,7,16,11,47,806
44.94870,-0.04095,0.00910,0.00000,0.03196,0.97881,-0.18605,0.0,2023,6,7,16,11,47,816
44.94880,0.15155,0.02660,0.00000,0.03062,0.97698,-0.18593,0.0,2023,6,7,16,11,47,826
44.94890,0.09905,-0.09590,0.00000,0.03257,0.97515,-0.18800,0.0,2023,6,7,16,11,47,836
44.94900,0.01155,-0.06090,0.00000,0.03270,0.97844,-0.18715,0.0,2023,6,7,16,11,47,846
44.94910,-0.09345,-0.16590,0.00000,0.03111,0.97807,-0.18703,0.0,2023,6,7,16,11,47,856
44.94920,0.06405,0.02660,0.00000,0.03050,0.97612,-0.18654,0.0,2023,6,7,16,11,47,866
44.94930,0.20405,-0.09590,0.00000,0.03062,0.97649,-0.18678,0.0,2023,6,7,16,11,47,876
44.94940,-0.02345,-0.13090,0.00000,0.03001,0.97783,-0.18751,0.0,2023,6,7,16,11,47,886
44.94950,0.11655,-0.06090,0.00000,0.03074,0.97734,-0.18776,0.0,2023,6,7,16,11,47,896
44.94960,-0.00595,0.23660,0.00000,0.03074,0.97746,-0.18727,0.0,2023,6,7,16,11,47,906
44.94970,0.20405,-0.14840,0.00000,0.02904,0.97612,-0.18788,0.0,2023,6,7,16,11,48,6
44.94980,0.15155,-0.02590,0.00000,0.03343,0.97868,-0.18995,0.0,2023,6,7,16,11,48,16
44.94990,0.04655,0.21910,0.00000,0.03013,0.97600,-0.18715,0.0,2023,6,7,16,11,48,26
44.95000,-0.12845,-0.13090,0.00000,0.03257,0.97576,-0.19081,0.0,2023,6,7,16,11,48,36
44.95010,0.09905,0.07910,0.00000,0.03074,0.97649,-0.19020,0.0,2023,6,7,16,11,48,46
44.95020,-0.07595,-0.00840,0.00000,0.03209,0.97515,-0.18617,0.0,2023,6,7,16,11,48,56
44.95030,-0.00595,-0.09590,0.00000,0.03135,0.97722,-0.18751,0.0,2023,6,7,16,11,48,66
44.95040,0.13405,0.04410,0.00000,0.03428,0.97624,-0.18947,0.0,2023,6,7,16,11,48,76
44.95050,-0.09345,0.02660,0.00000,0.03184,0.97527,-0.18581,0.0,2023,6,7,16,11,48,86
44.95060,-0.00595,-0.04340,0.00000,0.03111,0.97624,-0.19117,0.0,2023,6,7,16,11,48,96
44.95070,0.04655,0.13160,0.00000,0.03257,0.97649,-0.18812,0.0,2023,6,7,16,11,48,106
44.95080,-0.16345,0.07910,0.00000,0.03062,0.97576,-0.18764,0.0,2023,6,7,16,11,48,116
44.95090,-0.11095,0.00910,0.00000,0.03245,0.97624,-0.18922,0.0,2023,6,7,16,11,48,126
44.95100,-0.02345,0.13160,0.00000,0.03233,0.97710,-0.18776,0.0,2023,6,7,16,11,48,136
44.95110,-0.12845,0.02660,0.00000,0.03074,0.97588,-0.18861,0.0,2023,6,7,16,11,48,146
44.95120,-0.00595,-0.04340,0.00000,0.03001,0.97698,-0.18568,0.0,2023,6,7,16,11,48,156
44.95130,-0.12845,0.11410,0.00000,0.02977,0.97978,-0.18739,0.0,2023,6,7,16,11,48,166
44.95140,0.01155,-0.21840,0.00000,0.03062,0.97551,-0.18959,0.0,2023,6,7,16,11,48,176
44.95150,-0.32095,0.07910,0.00000,0.03172,0.97380,-0.18703,0.0,2023,6,7,16,11,48,186
44.95160,-0.12845,0.23660,0.00000,0.03209,0.97771,-0.18532,0.0,2023,6,7,16,11,48,196
44.95170,0.15155,-0.09590,0.00000,0.03087,0.97759,-0.18764,0.0,2023,6,7,16,11,48,206
44.95180,0.16905,-0.09590,0.00000,0.03221,0.97380,-0.18422,0.0,2023,6,7,16,11,48,216
44.95190,-0.02345,-0.06090,0.00000,0.03270,0.97649,-0.18861,0.0,2023,6,7,16,11,48,226
44.95200,0.15155,-0.16590,0.00000,0.03148,0.97637,-0.19032,0.0,2023,6,7,16,11,48,236
44.95210,-0.05845,-0.00840,0.00000,0.03379,0.97332,-0.18727,0.0,2023,6,7,16,11,48,246
44.95220,-0.16345,0.07910,0.00000,0.03099,0.97698,-0.18727,0.0,2023,6,7,16,11,48,256
44.95230,0.08155,0.04410,0.00000,0.03050,0.97417,-0.18873,0.0,2023,6,7,16,11,48,266
44.95240,-0.12845,0.02660,0.00000,0.03087,0.97563,-0.18593,0.0,2023,6,7,16,11,48,276
44.95250,0.09905,0.04410,0.00000,0.02977,0.97661,-0.19069,0.0,2023,6,7,16,11,48,286
44.95260,-0.02345,0.11410,0.00000,0.03245,0.97624,-0.18886,0.0,2023,6,7,16,11,48,296
44.95270,-0.14595,-0.06090,0.00000,0.03257,0.97563,-0.18837,0.0,2023,6,7,16,11,48,306
44.95280,0.06405,-0.16590,0.00000,0.02952,0.97637,-0.18947,0.0,2023,6,7,16,11,48,316
44.95290,0.08155,-0.09590,0.00000,0.03306,0.97783,-0.18910,0.0,2023,6,7,16,11,48,326
44.95300,-0.12845,0.14910,0.00000,0.02952,0.97600,-0.18886,0.0,2023,6,7,16,11,48,336
44.95310,-0.05845,0.02660,0.00000,0.03270,0.97685,-0.18995,0.0,2023,6,7,16,11,48,346
44.95320,-0.26845,0.02660,0.00000,0.03160,0.97722,-0.18800,0.0,2023,6,7,16,11,48,356
44.95330,-0.00595,-0.00840,0.00000,0.03172,0.97649,-0.19166,0.0,2023,6,7,16,11,48,366
44.95340,-0.11095,-0.27090,0.00000,0.03367,0.97417,-0.18507,0.0,2023,6,7,16,11,48,376
44.95350,-0.18095,0.16660,0.00000,0.03087,0.97637,-0.18654,0.0,2023,6,7,16,11,48,386
44.95360,0.06405,0.14910,0.00000,0.03270,0.97271,-0.18593,0.0,2023,6,7,16,11,48,396
44.95370,-0.05845,0.00910,0.00000,0.03026,0.97661,-0.18715,0.0,2023,6,7,16,11,48,406
44.95380,-0.07595,0.02660,0.00000,0.03123,0.97661,-0.18947,0.0,2023,6,7,16,11,48,416
44.95390,0.01155,0.09660,0.00000,0.03196,0.97759,-0.18715,0.0,2023,6,7,16,11,48,426
44.95400,-0.09345,-0.00840,0.00000,0.03135,0.97710,-0.18983,0.0,2023,6,7,16,11,48,436
44.95410,0.06405,-0.07840,0.00000,0.03270,0.97929,-0.18800,0.0,2023,6,7,16,11,48,446
44.95420,0.11655,-0.02590,0.00000,0.03001,0.97527,-0.19093,0.0,2023,6,7,16,11,48,456
44.95430,-0.11095,-0.06090,0.00000,0.02989,0.97307,-0.18459,0.0,2023,6,7,16,11,48,466
44.95440,0.06405,-0.09590,0.00000,0.03270,0.97710,-0.18739,0.0,2023,6,7,16,11,48,476
44.95450,-0.04095,0.07910,0.00000,0.03294,0.97612,-0.18764,0.0,2023,6,7,16,11,48,486
44.95460,-0.04095,0.00910,0.00000,0.03245,0.97551,-0.18959,0.0,2023,6,7,16,11,48,496
44.95470,-0.25095,0.04410,0.00000,0.03001,0.97698,-0.18886,0.0,2023,6,7,16,11,48,506
44.95480,-0.05845,-0.14840,0.00000,0.02904,0.97746,-0.19130,0.0,2023,6,7,16,11,48,516
44.95490,0.04655,-0.04340,0.00000,0.03074,0.97490,-0.18666,0.0,2023,6,7,16,11,48,526
44.95500,-0.04095,-0.06090,0.00000,0.03038,0.97551,-0.18825,0.0,2023,6,7,16,11,48,536
44.95510,-0.09345,-0.09590,0.00000,0.03270,0.97478,-0.18800,0.0,2023,6,7,16,11,48,546
44.95520,-0.11095,-0.11340,0.00000,0.03123,0.97588,-0.18751,0.0,2023,6,7,16,11,48,556
44.95530,-0.23345,0.20160,0.00000,0.03367,0.97722,-0.18703,0.0,2023,6,7,16,11,48,566
44.95540,-0.11095,0.11410,0.00000,0.03209,0.97917,-0.18837,0.0,2023,6,7,16,11,48,576
44.95550,-0.05845,0.00910,0.00000,0.03013,0.97966,-0.18776,0.0,2023,6,7,16,11,48,586
44.95560,-0.07595,-0.14840,0.00000,0.03209,0.97258,-0.18544,0.0,2023,6,7,16,11,48,596
44.95570,0.25655,-0.16590,0.00000,0.03123,0.97807,-0.19142,0.0,2023,6,7,16,11,48,606
44.95580,0.04655,-0.14840,0.00000,0.03026,0.97746,-0.18861,0.0,2023,6,7,16,11,48,616
44.95590,-0.16345,0.11410,0.00000,0.03135,0.97734,-0.18532,0.0,2023,6,7,16,11,48,626
44.95600,-0.19845,-0.14840,0.00000,0.03074,0.97649,-0.19044,0.0,2023,6,7,16,11,48,636
44.95610,0.18655,-0.09590,0.00000,0.03172,0.97539,-0.18678,0.0,2023,6,7,16,11,48,646
44.95620,-0.05845,-0.09590,0.00000,0.02952,0.97612,-0.18800,0.0,2023,6,7,16,11,48,656
44.95630,-0.09345,0.18410,0.00000,0.03245,0.97844,-0.18751,0.0,2023,6,7,16,11,48,666
44.95640,-0.14595,0.25410,0.00000,0.02928,0.97795,-0.18898,0.0,2023,6,7,16,11,48,676
44.95650,0.06405,-0.30590,0.00000,0.03209,0.97588,-0.18739,0.0,2023,6,7,16,11,48,686
44.95660,0.06405,0.06160,0.00000,0.03111,0.97734,-0.18849,0.0,2023,6,7,16,11,48,696
44.95670,0.08155,-0.18340,0.00000,0.03245,0.97734,-0.18873,0.0,2023,6,7,16,11,48,706
44.95680,-0.07595,-0.02590,0.00000,0.03233,0.97905,-0.18922,0.0,2023,6,7,16,11,48,716
44.95690,-0.18095,0.07910,0.00000,0.03257,0.97661,-0.18861,0.0,2023,6,7,16,11,48,726
44.95700,0.13405,-0.09590,0.00000,0.03013,0.97637,-0.18593,0.0,2023,6,7,16,11,48,736
44.95710,-0.11095,-0.23590,0.00000,0.02965,0.97637,-0.18654,0.0,2023,6,7,16,11,48,746
44.95720,0.20405,0.04410,0.00000,0.02940,0.97612,-0.18605,0.0,2023,6,7,16,11,48,756
44.95730,-0.00595,0.02660,0.00000,0.03160,0.97820,-0.18422,0.0,2023,6,7,16,11,48,766
44.95740,-0.25095,-0.25340,0.00000,0.03184,0.97661,-0.18776,0.0,2023,6,7,16,11,48,776
44.95750,0.29155,0.09660,0.00000,0.03123,0.97917,-0.18959,0.0,2023,6,7,16,11,48,786
44.95760,-0.00595,0.00910,0.00000,0.03184,0.97637,-0.18617,0.0,2023,6,7,16,11,48,796
44.95770,-0.04095,-0.00840,0.00000,0.03123,0.97685,-0.18751,0.0,2023,6,7,16,11,48,806
44.95780,-0.04095,-0.06090,0.00000,0.03257,0.97466,-0.18727,0.0,2023,6,7,16,11,48,816
44.95790,-0.05845,-0.04340,0.00000,0.03379,0.97771,-0.18642,0.0,2023,6,7,16,11,48,826
44.95800,-0.18095,0.14910,0.00000,0.02928,0.98003,-0.18995,0.0,2023,6,7,16,11,48,836
44.95810,-0.09345,0.18410,0.00000,0.02928,0.97527,-0.18812,0.0,2023,6,7,16,11,48,846
44.95820,0.15155,-0.25340,0.00000,0.03270,0.97515,-0.18959,0.0,2023,6,7,16,11,48,856
44.95830,0.16905,-0.04340,0.00000,0.03355,0.97612,-0.18629,0.0,2023,6,7,16,11,48,866
44.95840,0.06405,0.02660,0.00000,0.03148,0.97783,-0.18983,0.0,2023,6,7,16,11,48,876
44.95850,0.02905,-0.06090,0.00000,0.03392,0.97295,-0.18642,0.0,2023,6,7,16,11,48,886
44.95860,-0.35595,0.02660,0.00000,0.03026,0.97624,-0.18910,0.0,2023,6,7,16,11,48,896
44.95870,-0.02345,0.21910,0.00000,0.02916,0.97795,-0.19020,0.0,2023,6,7,16,11,49,6
44.95880,0.29155,-0.16590,0.00000,0.03001,0.97710,-0.19081,0.0,2023,6,7,16,11,49,16
44.95890,-0.09345,0.23660,0.00000,0.02940,0.97807,-0.19032,0.0,2023,6,7,16,11,49,26
44.95900,0.34405,0.02660,0.00000,0.03184,0.97612,-0.19105,0.0,2023,6,7,16,11,49,36
44.95910,-0.25095,0.00910,0.00000,0.03148,0.97710,-0.18837,0.0,2023,6,7,16,11,49,46
44.95920,-0.02345,0.20160,0.00000,0.03001,0.97771,-0.19093,0.0,2023,6,7,16,11,49,56
44.95930,0.25655,-0.04340,0.00000,0.03074,0.97746,-0.18934,0.0,2023,6,7,16,11,49,66
44.95940,-0.25095,-0.16590,0.00000,0.03062,0.97771,-0.18666,0.0,2023,6,7,16,11,49,76
44.95950,-0.05845,0.07910,0.00000,0.02916,0.97820,-0.19264,0.0,2023,6,7,16,11,49,86
44.95960,0.29155,-0.14840,0.00000,0.02965,0.97539,-0.19056,0.0,2023,6,7,16,11,49,96
44.95970,-0.35595,0.04410,0.00000,0.03135,0.97649,-0.18800,0.0,2023,6,7,16,11,49,106
44.95980,0.20405,0.04410,0.00000,0.03074,0.97637,-0.19191,0.0,2023,6,7,16,11,49,116
44.95990,0.18655,-0.20090,0.00000,0.03123,0.97576,-0.19056,0.0,2023,6,7,16,11,49,126
44.96000,-0.14595,-0.00840,0.00000,0.03160,0.97539,-0.19081,0.0,2023,6,7,16,11,49,136
44.96010,0.20405,-0.04340,0.00000,0.03001,0.97551,-0.19300,0.0,2023,6,7,16,11,49,146
44.96020,0.08155,0.02660,0.00000,0.03074,0.97661,-0.19093,0.0,2023,6,7,16,11,49,156
44.96030,-0.33845,0.14910,0.00000,0.03233,0.97807,-0.18934,0.0,2023,6,7,16,11,49,166
44.96040,0.44905,0.00910,0.00000,0.03135,0.97661,-0.19264,0.0,2023,6,7,16,11,49,176
44.96050,0.16905,-0.11340,0.00000,0.03416,0.97490,-0.19020,0.0,2023,6,7,16,11,49,186
44.96060,-0.18095,0.13160,0.00000,0.03111,0.97649,-0.19008,0.0,2023,6,7,16,11,49,196
44.96070,0.11655,-0.02590,0.00000,0.03221,0.97698,-0.19386,0.0,2023,6,7,16,11,49,206
44.96080,-0.05845,-0.16590,0.00000,0.03221,0.97868,-0.19166,0.0,2023,6,7,16,11,49,216
44.96090,-0.16345,-0.18340,0.00000,0.03233,0.97502,-0.18788,0.0,2023,6,7,16,11,49,226
44.96100,0.08155,-0.13090,0.00000,0.03209,0.97502,-0.18861,0.0,2023,6,7,16,11,49,236
44.96110,0.04655,-0.04340,0.00000,0.03148,0.97624,-0.18995,0.0,2023,6,7,16,11,49,246
44.96120,-0.12845,0.27160,0.00000,0.03087,0.97502,-0.19276,0.0,2023,6,7,16,11,49,256
44.96130,0.13405,-0.13090,0.00000,0.03148,0.97734,-0.18861,0.0,2023,6,7,16,11,49,266
44.96140,0.06405,0.11410,0.00000,0.03160,0.97771,-0.18910,0.0,2023,6,7,16,11,49,276
44.96150,0.25655,-0.13090,0.00000,0.03001,0.97624,-0.19081,0.0,2023,6,7,16,11,49,286
44.96160,0.13405,0.11410,0.00000,0.03184,0.97563,-0.18727,0.0,2023,6,7,16,11,49,296
44.96170,-0.07595,0.02660,0.00000,0.03294,0.97807,-0.18764,0.0,2023,6,7,16,11,49,306
44.96180,0.13405,0.06160,0.00000,0.03087,0.97710,-0.18788,0.0,2023,6,7,16,11,49,316
44.96190,0.08155,-0.28840,0.00000,0.03306,0.97600,-0.18837,0.0,2023,6,7,16,11,49,326
44.96200,-0.07595,0.11410,0.00000,0.03270,0.97783,-0.18715,0.0,2023,6,7,16,11,49,336
44.96210,-0.04095,0.21910,0.00000,0.02879,0.97588,-0.18837,0.0,2023,6,7,16,11,49,346
44.96220,-0.35595,-0.04340,0.00000,0.03050,0.97551,-0.18678,0.0,2023,6,7,16,11,49,356
44.96230,0.09905,-0.13090,0.00000,0.03318,0.97746,-0.18617,0.0,2023,6,7,16,11,49,366
44.96240,-0.00595,-0.07840,0.00000,0.03306,0.97490,-0.18812,0.0,2023,6,7,16,11,49,376
44.96250,-0.00595,0.06160,0.00000,0.03294,0.97588,-0.18910,0.0,2023,6,7,16,11,49,386
44.96260,-0.07595,-0.04340,0.00000,0.03245,0.97588,-0.18434,0.0,2023,6,7,16,11,49,396
44.96270,-0.00595,0.07910,0.00000,0.03062,0.97783,-0.18678,0.0,2023,6,7,16,11,49,406
44.96280,-0.07595,-0.11340,0.00000,0.03306,0.97771,-0.18995,0.0,2023,6,7,16,11,49,416
44.96290,-0.02345,0.02660,0.00000,0.03050,0.97661,-0.18788,0.0,2023,6,7,16,11,49,426
44.96300,-0.14595,-0.04340,0.00000,0.03148,0.97624,-0.18654,0.0,2023,6,7,16,11,49,436
44.96310,-0.02345,-0.13090,0.00000,0.03135,0.97405,-0.19044,0.0,2023,6,7,16,11,49,446
44.96320,-0.12845,0.30660,0.00000,0.03282,0.97734,-0.18861,0.0,2023,6,7,16,11,49,456
44.96330,-0.07595,-0.06090,0.00000,0.03233,0.97612,-0.18690,0.0,2023,6,7,16,11,49,466
44.96340,-0.05845,-0.02590,0.00000,0.03160,0.97612,-0.18959,0.0,2023,6,7,16,11,49,476
44.96350,-0.07595,0.00910,0.00000,0.03306,0.97624,-0.18849,0.0,2023,6,7,16,11,49,486
44.96360,0.06405,0.13160,0.00000,0.02989,0.97673,-0.18690,0.0,2023,6,7,16,11,49,496
44.96370,-0.16345,-0.18340,0.00000,0.03270,0.97685,-0.18715,0.0,2023,6,7,16,11,49,506
44.96380,-0.11095,-0.13090,0.00000,0.02891,0.97685,-0.19032,0.0,2023,6,7,16,11,49,516
44.96390,-0.00595,0.13160,0.00000,0.02891,0.97649,-0.18910,0.0,2023,6,7,16,11,49,526
44.96400,0.01155,-0.07840,0.00000,0.03026,0.97685,-0.18873,0.0,2023,6,7,16,11,49,536
44.96410,-0.14595,-0.11340,0.00000,0.03270,0.97478,-0.18666,0.0,2023,6,7,16,11,49,546
44.96420,0.09905,0.02660,0.00000,0.03282,0.97710,-0.19130,0.0,2023,6,7,16,11,49,556
44.96430,-0.09345,0.07910,0.00000,0.03172,0.97454,-0.19056,0.0,2023,6,7,16,11,49,566
44.96440,-0.04095,0.02660,0.00000,0.03001,0.97454,-0.18739,0.0,2023,6,7,16,11,49,576
44.96450,-0.11095,0.13160,0.00000,0.03099,0.97722,-0.18873,0.0,2023,6,7,16,11,49,586
44.96460,0.04655,-0.00840,0.00000,0.03099,0.97710,-0.19020,0.0,2023,6,7,16,11,49,596
44.96470,0.04655,0.00910,0.00000,0.02989,0.97624,-0.18666,0.0,2023,6,7,16,11,49,606
44.96480,-0.28595,-0.00840,0.00000,0.03087,0.97356,-0.18812,0.0,2023,6,7,16,11,49,616
44.96490,0.25655,-0.00840,0.00000,0.03087,0.97759,-0.18971,0.0,2023,6,7,16,11,49,626
44.96500,0.08155,0.30660,0.00000,0.03270,0.97637,-0.18800,0.0,2023,6,7,16,11,49,636
44.96510,-0.11095,-0.09590,0.00000,0.02940,0.97722,-0.18751,0.0,2023,6,7,16,11,49,646
44.96520,0.06405,-0.04340,0.00000,0.02867,0.97612,-0.18751,0.0,2023,6,7,16,11,49,656
44.96530,-0.07595,-0.00840,0.00000,0.03123,0.97551,-0.18703,0.0,2023,6,7,16,11,49,666
44.96540,-0.16345,0.20160,0.00000,0.03111,0.97551,-0.19105,0.0,2023,6,7,16,11,49,676
44.96550,0.18655,-0.20090,0.00000,0.03196,0.97649,-0.18690,0.0,2023,6,7,16,11,49,686
44.96560,-0.11095,0.07910,0.00000,0.03245,0.97759,-0.19008,0.0,2023,6,7,16,11,49,696
44.96570,-0.00595,0.04410,0.00000,0.03160,0.97637,-0.19008,0.0,2023,6,7,16,11,49,706
44.96580,0.06405,-0.21840,0.00000,0.03135,0.97551,-0.18642,0.0,2023,6,7,16,11,49,716
44.96590,-0.12845,0.00910,0.00000,0.03172,0.97490,-0.18690,0.0,2023,6,7,16,11,49,726
44.96600,-0.12845,-0.07840,0.00000,0.03135,0.97746,-0.18861,0.0,2023,6,7,16,11,49,736
44.96610,0.20405,-0.13090,0.00000,0.03318,0.97502,-0.18642,0.0,2023,6,7,16,11,49,746
44.96620,0.06405,0.00910,0.00000,0.03245,0.97685,-0.18642,0.0,2023,6,7,16,11,49,756
44.96630,0.08155,0.02660,0.00000,0.03123,0.97600,-0.18507,0.0,2023,6,7,16,11,49,766
44.96640,-0.09345,-0.06090,0.00000,0.03294,0.97820,-0.18739,0.0,2023,6,7,16,11,49,776
44.96650,-0.05845,0.14910,0.00000,0.03172,0.97356,-0.18568,0.0,2023,6,7,16,11,49,786
44.96660,-0.19845,-0.00840,0.00000,0.03148,0.97551,-0.18800,0.0,2023,6,7,16,11,49,796
44.96670,0.08155,0.06160,0.00000,0.03148,0.97466,-0.18727,0.0,2023,6,7,16,11,49,806
44.96680,0.01155,0.02660,0.00000,0.03099,0.97734,-0.18776,0.0,2023,6,7,16,11,49,816
44.96690,-0.00595,-0.02590,0.00000,0.03001,0.97637,-0.18739,0.0,2023,6,7,16,11,49,826
44.96700,-0.02345,-0.07840,0.00000,0.03209,0.97624,-0.18605,0.0,2023,6,7,16,11,49,836
44.96710,0.06405,-0.11340,0.00000,0.03282,0.97539,-0.18959,0.0,2023,6,7,16,11,49,846
44.96720,0.04655,0.14910,0.00000,0.03184,0.97368,-0.18934,0.0,2023,6,7,16,11,49,856
44.96730,-0.00595,0.16660,0.00000,0.03270,0.97905,-0.18873,0.0,2023,6,7,16,11,49,866
44.96740,0.08155,0.00910,0.00000,0.03196,0.97551,-0.18715,0.0,2023,6,7,16,11,49,876
44.96750,-0.04095,-0.11340,0.00000,0.03282,0.97832,-0.18605,0.0,2023,6,7,16,11,49,886
44.96760,0.04655,0.07910,0.00000,0.02989,0.97673,-0.18825,0.0,2023,6,7,16,11,49,896
44.96770,-0.02345,-0.06090,0.00000,0.03099,0.97722,-0.18922,0.0,2023,6,7,16,11,50,6
44.96780,-0.05845,-0.04340,0.00000,0.03099,0.97441,-0.18629,0.0,2023,6,7,16,11,50,16
44.96790,-0.04095,0.07910,0.00000,0.03160,0.97624,-0.18849,0.0,2023,6,7,16,11,50,26
44.96800,0.20405,-0.28840,0.00000,0.02989,0.97820,-0.18532,0.0,2023,6,7,16,11,50,36
44.96810,0.20405,-0.11340,0.00000,0.03087,0.97539,-0.18886,0.0,2023,6,7,16,11,50,46
44.96820,0.20405,0.07910,0.00000,0.03270,0.97637,-0.18751,0.0,2023,6,7,16,11,50,56
44.96830,-0.02345,-0.04340,0.00000,0.03172,0.97649,-0.18837,0.0,2023,6,7,16,11,50,66
44.96840,0.09905,-0.11340,0.00000,0.03245,0.97576,-0.18532,0.0,2023,6,7,16,11,50,76
44.96850,-0.00595,-0.02590,0.00000,0.03013,0.97734,-0.18922,0.0,2023,6,7,16,11,50,86
44.96860,0.08155,0.14910,0.00000,0.03123,0.97698,-0.18471,0.0,2023,6,7,16,11,50,96
44.96870,0.01155,0.14910,0.00000,0.03160,0.97624,-0.18934,0.0,2023,6,7,16,11,50,106
44.96880,-0.05845,-0.00840,0.00000,0.03013,0.97637,-0.18837,0.0,2023,6,7,16,11,50,116
44.96890,0.06405,-0.14840,0.00000,0.02977,0.97759,-0.18666,0.0,2023,6,7,16,11,50,126
44.96900,-0.23345,-0.02590,0.00000,0.03123,0.97527,-0.18373,0.0,2023,6,7,16,11,50,136
44.96910,-0.00595,-0.18340,0.00000,0.03038,0.97624,-0.18861,0.0,2023,6,7,16,11,50,146
44.96920,0.04655,-0.23590,0.00000,0.03172,0.97563,-0.18898,0.0,2023,6,7,16,11,50,156
44.96930,0.11655,0.02660,0.00000,0.03062,0.97832,-0.18666,0.0,2023,6,7,16,11,50,166
44.96940,0.08155,-0.21840,0.00000,0.03209,0.97405,-0.18483,0.0,2023,6,7,16,11,50,176
44.96950,-0.05845,-0.18340,0.00000,0.03038,0.97759,-0.18520,0.0,2023,6,7,16,11,50,186
44.96960,0.13405,-0.00840,0.00000,0.03148,0.97771,-0.18471,0.0,2023,6,7,16,11,50,196
44.96970,-0.12845,0.28910,0.00000,0.03233,0.97685,-0.18886,0.0,2023,6,7,16,11,50,206
44.96980,-0.09345,-0.09590,0.00000,0.03135,0.97917,-0.18751,0.0,2023,6,7,16,11,50,216
44.96990,-0.11095,0.06160,0.00000,0.03184,0.97673,-0.18568,0.0,2023,6,7,16,11,50,226
44.97000,-0.09345,-0.00840,0.00000,0.03135,0.97551,-0.18507,0.0,2023,6,7,16,11,50,236
44.97010,0.13405,-0.09590,0.00000,0.02977,0.97734,-0.18751,0.0,2023,6,7,16,11,50,246
44.97020,-0.32095,0.09660,0.00000,0.03148,0.97612,-0.18971,0.0,2023,6,7,16,11,50,256
44.97030,0.02905,0.00910,0.00000,0.03209,0.97661,-0.18690,0.0,2023,6,7,16,11,50,266
44.97040,-0.05845,-0.18340,0.00000,0.03123,0.97563,-0.18678,0.0,2023,6,7,16,11,50,276
44.97050,0.11655,-0.09590,0.00000,0.03074,0.97771,-0.18861,0.0,2023,6,7,16,11,50,286
44.97060,0.04655,0.00910,0.00000,0.03123,0.97734,-0.18764,0.0,2023,6,7,16,11,50,296
44.97070,-0.04095,0.09660,0.00000,0.03111,0.97551,-0.18715,0.0,2023,6,7,16,11,50,306
44.97080,0.13405,-0.00840,0.00000,0.03013,0.97820,-0.18812,0.0,2023,6,7,16,11,50,316
44.97090,0.09905,0.06160,0.00000,0.03099,0.97734,-0.18922,0.0,2023,6,7,16,11,50,326
44.97100,0.04655,0.28910,0.00000,0.03245,0.97539,-0.18617,0.0,2023,6,7,16,11,50,336
44.97110,0.04655,0.00910,0.00000,0.03099,0.97563,-0.18690,0.0,2023,6,7,16,11,50,346
44.97120,0.18655,-0.14840,0.00000,0.03160,0.97844,-0.18568,0.0,2023,6,7,16,11,50,356
44.97130,-0.04095,0.04410,0.00000,0.02977,0.97771,-0.18910,0.0,2023,6,7,16,11,50,366
44.97140,-0.00595,-0.02590,0.00000,0.03148,0.97783,-0.18800,0.0,2023,6,7,16,11,50,376
44.97150,-0.11095,0.02660,0.00000,0.02916,0.97600,-0.18629,0.0,2023,6,7,16,11,50,386
44.97160,-0.04095,-0.09590,0.00000,0.03331,0.97515,-0.18727,0.0,2023,6,7,16,11,50,396
44.97170,-0.04095,-0.07840,0.00000,0.03184,0.97515,-0.18581,0.0,2023,6,7,16,11,50,406
44.97180,-0.18095,0.04410,0.00000,0.03087,0.97759,-0.18629,0.0,2023,6,7,16,11,50,416
44.97190,0.08155,-0.02590,0.00000,0.02989,0.97588,-0.18800,0.0,2023,6,7,16,11,50,426
44.97200,-0.21595,0.14910,0.00000,0.03087,0.97698,-0.18629,0.0,2023,6,7,16,11,50,436
44.97210,-0.04095,0.14910,0.00000,0.02928,0.97759,-0.18739,0.0,2023,6,7,16,11,50,446
44.97220,0.04655,-0.14840,0.00000,0.03148,0.97832,-0.18788,0.0,2023,6,7,16,11,50,456
44.97230,0.11655,0.07910,0.00000,0.02928,0.97588,-0.18629,0.0,2023,6,7,16,11,50,466
44.97240,-0.02345,0.11410,0.00000,0.03038,0.97624,-0.18983,0.0,2023,6,7,16,11,50,476
44.97250,0.16905,-0.04340,0.00000,0.03172,0.97466,-0.18861,0.0,2023,6,7,16,11,50,486
44.97260,-0.04095,0.09660,0.00000,0.03221,0.97441,-0.18654,0.0,2023,6,7,16,11,50,496
44.97270,0.09905,-0.04340,0.00000,0.03123,0.97722,-0.18971,0.0,2023,6,7,16,11,50,506
44.97280,0.18655,-0.14840,0.00000,0.03062,0.97746,-0.18654,0.0,2023,6,7,16,11,50,516
44.97290,-0.02345,0.06160,0.00000,0.02989,0.97576,-0.18727,0.0,2023,6,7,16,11,50,526
44.97300,-0.09345,-0.06090,0.00000,0.03062,0.97673,-0.18764,0.0,2023,6,7,16,11,50,536
44.97310,-0.02345,-0.04340,0.00000,0.02916,0.97551,-0.18739,0.0,2023,6,7,16,11,50,546
44.97320,-0.12845,0.07910,0.00000,0.03257,0.97734,-0.18788,0.0,2023,6,7,16,11,50,556
44.97330,0.30905,-0.23590,0.00000,0.02965,0.97710,-0.18690,0.0,2023,6,7,16,11,50,566
44.97340,-0.07595,-0.00840,0.00000,0.02965,0.97612,-0.18825,0.0,2023,6,7,16,11,50,576
44.97350,-0.05845,0.04410,0.00000,0.02989,0.97783,-0.18849,0.0,2023,6,7,16,11,50,586
44.97360,-0.07595,0.07910,0.00000,0.03196,0.97576,-0.18629,0.0,2023,6,7,16,11,50,596
44.97370,-0.18095,0.06160,0.00000,0.03099,0.97624,-0.18703,0.0,2023,6,7,16,11,50,606
44.97380,-0.00595,0.11410,0.00000,0.03160,0.97563,-0.18837,0.0,2023,6,7,16,11,50,616
44.97390,0.02905,0.13160,0.00000,0.03379,0.97637,-0.18703,0.0,2023,6,7,16,11,50,626
44.97400,0.08155,-0.13090,0.00000,0.03489,0.97710,-0.18873,0.0,2023,6,7,16,11,50,636
44.97410,-0.18095,0.18410,0.00000,0.02989,0.97588,-0.18739,0.0,2023,6,7,16,11,50,646
44.97420,0.11655,-0.23590,0.00000,0.03074,0.97698,-0.18947,0.0,2023,6,7,16,11,50,656
44.97430,0.20405,-0.04340,0.00000,0.03135,0.97441,-0.19008,0.0,2023,6,7,16,11,50,666
44.97440,-0.09345,0.09660,0.00000,0.03392,0.97490,-0.18776,0.0,2023,6,7,16,11,50,676
44.97450,-0.00595,-0.07840,0.00000,0.03221,0.97673,-0.18922,0.0,2023,6,7,16,11,50,686
44.97460,0.06405,-0.11340,0.00000,0.03233,0.97832,-0.18898,0.0,2023,6,7,16,11,50,696
44.97470,-0.14595,0.11410,0.00000,0.03148,0.97698,-0.18861,0.0,2023,6,7,16,11,50,706
44.97480,0.11655,-0.00840,0.00000,0.03257,0.97698,-0.18947,0.0,2023,6,7,16,11,50,716
44.97490,0.15155,0.11410,0.00000,0.03282,0.97661,-0.18617,0.0,2023,6,7,16,11,50,726
44.97500,-0.04095,0.07910,0.00000,0.02977,0.97978,-0.18947,0.0,2023,6,7,16,11,50,736
44.97510,0.20405,-0.14840,0.00000,0.03135,0.97527,-0.19020,0.0,2023,6,7,16,11,50,746
44.97520,0.15155,-0.04340,0.00000,0.03148,0.97576,-0.18715,0.0,2023,6,7,16,11,50,756
44.97530,-0.04095,-0.14840,0.00000,0.03135,0.97637,-0.18764,0.0,2023,6,7,16,11,50,766
44.97540,-0.14595,0.14910,0.00000,0.03074,0.97868,-0.18812,0.0,2023,6,7,16,11,50,776
44.97550,0.06405,-0.16590,0.00000,0.03257,0.97746,-0.18861,0.0,2023,6,7,16,11,50,786
44.97560,-0.21595,-0.21840,0.00000,0.03221,0.97539,-0.18715,0.0,2023,6,7,16,11,50,796
44.97570,0.08155,-0.23590,0.00000,0.03282,0.97576,-0.18886,0.0,2023,6,7,16,11,50,806
44.97580,-0.02345,0.11410,0.00000,0.03318,0.97759,-0.18727,0.0,2023,6,7,16,11,50,816
44.97590,-0.07595,0.06160,0.00000,0.03196,0.97454,-0.18642,0.0,2023,6,7,16,11,50,826
44.97600,0.37905,-0.14840,0.00000,0.03245,0.97661,-0.18642,0.0,2023,6,7,16,11,50,836
44.97610,-0.11095,0.06160,0.00000,0.03062,0.97624,-0.18715,0.0,2023,6,7,16,11,50,846
44.97620,0.08155,-0.13090,0.00000,0.03294,0.97868,-0.18825,0.0,2023,6,7,16,11,50,856
44.97630,0.04655,-0.09590,0.00000,0.03074,0.97637,-0.18520,0.0,2023,6,7,16,11,50,866
44.97640,-0.18095,0.06160,0.00000,0.03135,0.97612,-0.18642,0.0,2023,6,7,16,11,50,876
44.97650,-0.04095,-0.18340,0.00000,0.03172,0.97661,-0.18642,0.0,2023,6,7,16,11,51,6
44.97660,0.08155,0.06160,0.00000,0.03172,0.97612,-0.18678,0.0,2023,6,7,16,11,51,16
44.97670,-0.07595,0.09660,0.00000,0.03221,0.97588,-0.18520,0.0,2023,6,7,16,11,51,26
44.97680,0.16905,0.00910,0.00000,0.03099,0.97771,-0.18520,0.0,2023,6,7,16,11,51,36
44.97690,0.04655,0.16660,0.00000,0.02952,0.97624,-0.18654,0.0,2023,6,7,16,11,51,46
44.97700,-0.12845,-0.04340,0.00000,0.02891,0.97673,-0.18971,0.0,2023,6,7,16,11,51,56
44.97710,0.18655,-0.11340,0.00000,0.03050,0.97673,-0.18788,0.0,2023,6,7,16,11,51,66
44.97720,-0.19845,0.13160,0.00000,0.03184,0.97710,-0.18654,0.0,2023,6,7,16,11,51,76
44.97730,-0.04095,-0.02590,0.00000,0.03160,0.97600,-0.18751,0.0,2023,6,7,16,11,51,86
44.97740,0.04655,0.06160,0.00000,0.03050,0.97673,-0.18690,0.0,2023,6,7,16,11,51,96
44.97750,-0.11095,-0.09590,0.00000,0.03123,0.97844,-0.18873,0.0,2023,6,7,16,11,51,106
44.97760,-0.07595,0.09660,0.00000,0.03160,0.97734,-0.18739,0.0,2023,6,7,16,11,51,116
44.97770,0.11655,-0.07840,0.00000,0.03099,0.97612,-0.18678,0.0,2023,6,7,16,11,51,126
44.97780,0.09905,-0.27090,0.00000,0.03257,0.97746,-0.18581,0.0,2023,6,7,16,11,51,136
44.97790,-0.00595,0.09660,0.00000,0.03148,0.97759,-0.18715,0.0,2023,6,7,16,11,51,146
44.97800,-0.07595,0.21910,0.00000,0.03050,0.97527,-0.18800,0.0,2023,6,7,16,11,51,156
44.97810,0.08155,-0.28840,0.00000,0.03111,0.97698,-0.18654,0.0,2023,6,7,16,11,51,166
44.97820,-0.16345,0.25410,0.00000,0.03038,0.97637,-0.18605,0.0,2023,6,7,16,11,51,176
44.97830,-0.07595,0.06160,0.00000,0.03026,0.97734,-0.18654,0.0,2023,6,7,16,11,51,186
44.97840,0.01155,0.07910,0.00000,0.03184,0.97685,-0.18593,0.0,2023,6,7,16,11,51,196
44.97850,-0.04095,-0.09590,0.00000,0.03160,0.97771,-0.18776,0.0,2023,6,7,16,11,51,206
44.97860,0.06405,-0.06090,0.00000,0.03392,0.97624,-0.18617,0.0,2023,6,7,16,11,51,216
44.97870,-0.18095,-0.04340,0.00000,0.03245,0.97551,-0.18703,0.0,2023,6,7,16,11,51,226
44.97880,-0.04095,-0.02590,0.00000,0.03148,0.97868,-0.18727,0.0,2023,6,7,16,11,51,236
44.97890,0.18655,0.09660,0.00000,0.03001,0.97844,-0.18581,0.0,2023,6,7,16,11,51,246
44.97900,-0.07595,0.02660,0.00000,0.03074,0.97661,-0.18532,0.0,2023,6,7,16,11,51,256
44.97910,-0.12845,-0.28840,0.00000,0.03196,0.97649,-0.18434,0.0,2023,6,7,16,11,51,266
44.97920,-0.12845,-0.16590,0.00000,0.03062,0.97783,-0.18666,0.0,2023,6,7,16,11,51,276
44.97930,0.06405,0.06160,0.00000,0.03172,0.97795,-0.18690,0.0,2023,6,7,16,11,51,286
44.97940,-0.07595,-0.07840,0.00000,0.03099,0.98076,-0.19008,0.0,2023,6,7,16,11,51,296
44.97950,0.11655,-0.11340,0.00000,0.03062,0.97905,-0.18739,0.0,2023,6,7,16,11,51,306
44.97960,0.02905,-0.13090,0.00000,0.03257,0.97539,-0.18642,0.0,2023,6,7,16,11,51,316
44.97970,-0.18095,0.09660,0.00000,0.03111,0.97502,-0.18568,0.0,2023,6,7,16,11,51,326
44.97980,0.08155,-0.11340,0.00000,0.03026,0.97380,-0.18581,0.0,2023,6,7,16,11,51,336
44.97990,0.06405,0.07910,0.00000,0.03270,0.97856,-0.18605,0.0,2023,6,7,16,11,51,346
44.98000,0.11655,-0.13090,0.00000,0.02843,0.97527,-0.18605,0.0,2023,6,7,16,11,51,356
44.98010,-0.09345,0.04410,0.00000,0.03343,0.97637,-0.18593,0.0,2023,6,7,16,11,51,366
44.98020,-0.00595,-0.09590,0.00000,0.02830,0.97685,-0.18751,0.0,2023,6,7,16,11,51,376
44.98030,0.04655,-0.09590,0.00000,0.02879,0.97746,-0.18800,0.0,2023,6,7,16,11,51,386
44.98040,-0.02345,0.07910,0.00000,0.03172,0.97600,-0.18703,0.0,2023,6,7,16,11,51,396
44.98050,-0.09345,0.04410,0.00000,0.03318,0.97820,-0.18642,0.0,2023,6,7,16,11,51,406
44.98060,-0.07595,0.02660,0.00000,0.03270,0.97539,-0.18678,0.0,2023,6,7,16,11,51,416
44.98070,-0.09345,0.02660,0.00000,0.03270,0.97466,-0.18507,0.0,2023,6,7,16,11,51,426
44.98080,-0.00595,0.18410,0.00000,0.02952,0.97466,-0.18788,0.0,2023,6,7,16,11,51,436
44.98090,0.20405,-0.04340,0.00000,0.03074,0.97905,-0.18764,0.0,2023,6,7,16,11,51,446
44.98100,-0.19845,0.35910,0.00000,0.03111,0.97661,-0.18520,0.0,2023,6,7,16,11,51,456
44.98110,0.16905,0.02660,0.00000,0.03209,0.97624,-0.18764,0.0,2023,6,7,16,11,51,466
44.98120,0.04655,-0.11340,0.00000,0.03026,0.97746,-0.18727,0.0,2023,6,7,16,11,51,476
44.98130,-0.00595,0.06160,0.00000,0.03038,0.97624,-0.18764,0.0,2023,6,7,16,11,51,486
44.98140,0.08155,0.11410,0.00000,0.03062,0.97502,-0.18934,0.0,2023,6,7,16,11,51,496
44.98150,-0.18095,0.21910,0.00000,0.03135,0.97576,-0.18678,0.0,2023,6,7,16,11,51,506
44.98160,0.13405,-0.02590,0.00000,0.03184,0.97698,-0.18825,0.0,2023,6,7,16,11,51,516
44.98170,0.09905,0.07910,0.00000,0.03257,0.97649,-0.18654,0.0,2023,6,7,16,11,51,526
44.98180,-0.19845,0.04410,0.00000,0.03013,0.97783,-0.18507,0.0,2023,6,7,16,11,51,536
44.98190,-0.02345,0.09660,0.00000,0.03160,0.97759,-0.18751,0.0,2023,6,7,16,11,51,546
44.98200,-0.14595,0.07910,0.00000,0.03196,0.97734,-0.18934,0.0,2023,6,7,16,11,51,556
44.98210,0.01155,-0.13090,0.00000,0.03001,0.97612,-0.18886,0.0,2023,6,7,16,11,51,566
44.98220,0.04655,-0.14840,0.00000,0.03209,0.97661,-0.18800,0.0,2023,6,7,16,11,51,576
44.98230,-0.04095,-0.02590,0.00000,0.03087,0.97441,-0.18825,0.0,2023,6,7,16,11,51,586
44.98240,-0.14595,0.02660,0.00000,0.03465,0.97539,-0.18605,0.0,2023,6,7,16,11,51,596
44.98250,0.13405,-0.13090,0.00000,0.03062,0.97637,-0.18581,0.0,2023,6,7,16,11,51,606
44.98260,-0.04095,-0.02590,0.00000,0.03062,0.97710,-0.18507,0.0,2023,6,7,16,11,51,616
44.98270,-0.07595,0.23660,0.00000,0.03343,0.97807,-0.18568,0.0,2023,6,7,16,11,51,626
44.98280,-0.18095,0.16660,0.00000,0.03184,0.97685,-0.18568,0.0,2023,6,7,16,11,51,636
44.98290,-0.07595,-0.14840,0.00000,0.03294,0.97527,-0.18434,0.0,2023,6,7,16,11,51,646
44.98300,0.02905,-0.18340,0.00000,0.03074,0.97734,-0.18776,0.0,2023,6,7,16,11,51,656
44.98310,0.11655,0.00910,0.00000,0.03294,0.97576,-0.18873,0.0,2023,6,7,16,11,51,666
44.98320,-0.05845,0.02660,0.00000,0.03099,0.97515,-0.18727,0.0,2023,6,7,16,11,51,676
44.98330,-0.07595,0.27160,0.00000,0.03087,0.97588,-0.18483,0.0,2023,6,7,16,11,51,686
44.98340,-0.14595,-0.00840,0.00000,0.03062,0.97734,-0.18471,0.0,2023,6,7,16,11,51,696
44.98350,-0.07595,-0.09590,0.00000,0.03135,0.97771,-0.18690,0.0,2023,6,7,16,11,51,706
44.98360,-0.02345,-0.02590,0.00000,0.03001,0.97588,-0.18800,0.0,2023,6,7,16,11,51,716
44.98370,-0.04095,0.35910,0.00000,0.03074,0.97588,-0.18934,0.0,2023,6,7,16,11,51,726
44.98380,0.16905,0.09660,0.00000,0.03111,0.97588,-0.18898,0.0,2023,6,7,16,11,51,736
44.98390,-0.12845,0.07910,0.00000,0.03331,0.97661,-0.18593,0.0,2023,6,7,16,11,51,746
44.98400,-0.04095,0.02660,0.00000,0.03282,0.97661,-0.18507,0.0,2023,6,7,16,11,51,756
44.98410,0.02905,-0.07840,0.00000,0.03050,0.97710,-0.18910,0.0,2023,6,7,16,11,51,766
44.98420,-0.11095,0.02660,0.00000,0.03160,0.97661,-0.18642,0.0,2023,6,7,16,11,51,776
44.98430,0.06405,0.02660,0.00000,0.03123,0.97734,-0.18947,0.0,2023,6,7,16,11,51,786
44.98440,-0.04095,0.14910,0.00000,0.03282,0.97783,-0.18690,0.0,2023,6,7,16,11,51,796
44.98450,-0.21595,-0.07840,0.00000,0.03221,0.97441,-0.18934,0.0,2023,6,7,16,11,51,806
44.98460,-0.00595,-0.11340,0.00000,0.03099,0.97588,-0.18934,0.0,2023,6,7,16,11,51,816
44.98470,-0.07595,0.00910,0.00000,0.03233,0.97612,-0.18837,0.0,2023,6,7,16,11,51,826
44.98480,-0.02345,-0.00840,0.00000,0.03087,0.97746,-0.18617,0.0,2023,6,7,16,11,51,836
44.98490,0.22155,-0.13090,0.00000,0.03184,0.97673,-0.18654,0.0,2023,6,7,16,11,51,846
44.98500,-0.05845,0.21910,0.00000,0.03343,0.97429,-0.19008,0.0,2023,6,7,16,11,51,856
44.98510,0.01155,-0.14840,0.00000,0.03074,0.97734,-0.18922,0.0,2023,6,7,16,11,51,866
44.98520,0.04655,-0.11340,0.00000,0.03050,0.97466,-0.18764,0.0,2023,6,7,16,11,51,876
44.98530,-0.05845,-0.18340,0.00000,0.03001,0.97563,-0.18837,0.0,2023,6,7,16,11,51,886
44.98540,-0.09345,0.02660,0.00000,0.03160,0.97539,-0.18873,0.0,2023,6,7,16,11,51,896
44.98550,0.04655,0.00910,0.00000,0.03233,0.97502,-0.18776,0.0,2023,6,7,16,11,51,906
44.98560,-0.05845,0.09660,0.00000,0.03172,0.97673,-0.18593,0.0,2023,6,7,16,11,52,6
44.98570,0.04655,-0.11340,0.00000,0.03148,0.97698,-0.18495,0.0,2023,6,7,16,11,52,16
44.98580,-0.00595,0.00910,0.00000,0.03038,0.97783,-0.18617,0.0,2023,6,7,16,11,52,26
44.98590,-0.02345,0.04410,0.00000,0.03257,0.97820,-0.18983,0.0,2023,6,7,16,11,52,36
44.98600,-0.00595,-0.02590,0.00000,0.03026,0.97783,-0.18886,0.0,2023,6,7,16,11,52,46
44.98610,-0.09345,0.13160,0.00000,0.03087,0.97698,-0.18983,0.0,2023,6,7,16,11,52,56
44.98620,0.06405,-0.09590,0.00000,0.03160,0.97600,-0.18666,0.0,2023,6,7,16,11,52,66
44.98630,-0.04095,0.14910,0.00000,0.03257,0.97685,-0.18800,0.0,2023,6,7,16,11,52,76
44.98640,-0.00595,0.14910,0.00000,0.03306,0.97637,-0.18703,0.0,2023,6,7,16,11,52,86
44.98650,-0.09345,-0.06090,0.00000,0.03111,0.97637,-0.18861,0.0,2023,6,7,16,11,52,96
44.98660,0.01155,-0.02590,0.00000,0.03087,0.97673,-0.18825,0.0,2023,6,7,16,11,52,106
44.98670,0.01155,0.16660,0.00000,0.03270,0.97478,-0.18568,0.0,2023,6,7,16,11,52,116
44.98680,-0.07595,-0.06090,0.00000,0.03221,0.97673,-0.18739,0.0,2023,6,7,16,11,52,126
44.98690,0.02905,0.09660,0.00000,0.03038,0.97466,-0.18776,0.0,2023,6,7,16,11,52,136
44.98700,-0.02345,0.20160,0.00000,0.03306,0.97807,-0.18727,0.0,2023,6,7,16,11,52,146
44.98710,-0.00595,0.07910,0.00000,0.03099,0.97759,-0.18800,0.0,2023,6,7,16,11,52,156
44.98720,-0.00595,0.00910,0.00000,0.03172,0.97624,-0.18581,0.0,2023,6,7,16,11,52,166
44.98730,-0.02345,-0.09590,0.00000,0.03099,0.97515,-0.18666,0.0,2023,6,7,16,11,52,176
44.98740,-0.23345,-0.09590,0.00000,0.02940,0.97868,-0.18849,0.0,2023,6,7,16,11,52,186
44.98750,-0.04095,0.00910,0.00000,0.03172,0.97807,-0.18861,0.0,2023,6,7,16,11,52,196
44.98760,-0.11095,-0.20090,0.00000,0.03270,0.97637,-0.18703,0.0,2023,6,7,16,11,52,206
44.98770,0.09905,-0.21840,0.00000,0.03257,0.97698,-0.18739,0.0,2023,6,7,16,11,52,216
44.98780,0.08155,0.00910,0.00000,0.03196,0.97612,-0.18751,0.0,2023,6,7,16,11,52,226
44.98790,0.06405,0.11410,0.00000,0.03209,0.97722,-0.18825,0.0,2023,6,7,16,11,52,236
44.98800,0.01155,0.00910,0.00000,0.03111,0.97576,-0.18568,0.0,2023,6,7,16,11,52,246
44.98810,-0.09345,-0.02590,0.00000,0.03135,0.97380,-0.18642,0.0,2023,6,7,16,11,52,256
44.98820,-0.04095,0.06160,0.00000,0.03074,0.97807,-0.18678,0.0,2023,6,7,16,11,52,266
44.98830,0.13405,-0.14840,0.00000,0.03257,0.97551,-0.19105,0.0,2023,6,7,16,11,52,276
44.98840,0.18655,-0.00840,0.00000,0.03257,0.97563,-0.18654,0.0,2023,6,7,16,11,52,286
44.98850,-0.04095,0.23660,0.00000,0.03099,0.97698,-0.19032,0.0,2023,6,7,16,11,52,296
44.98860,-0.02345,0.00910,0.00000,0.03062,0.97588,-0.18666,0.0,2023,6,7,16,11,52,306
44.98870,-0.16345,-0.07840,0.00000,0.03245,0.97612,-0.18703,0.0,2023,6,7,16,11,52,316
44.98880,0.01155,0.06160,0.00000,0.03160,0.97624,-0.18751,0.0,2023,6,7,16,11,52,326
44.98890,-0.02345,-0.13090,0.00000,0.03343,0.97759,-0.18825,0.0,2023,6,7,16,11,52,336
44.98900,0.01155,0.02660,0.00000,0.03087,0.97673,-0.18715,0.0,2023,6,7,16,11,52,346
44.98910,-0.09345,-0.11340,0.00000,0.03343,0.97673,-0.18739,0.0,2023,6,7,16,11,52,356
44.98920,-0.05845,0.23660,0.00000,0.03135,0.97734,-0.18581,0.0,2023,6,7,16,11,52,366
44.98930,-0.05845,-0.04340,0.00000,0.03257,0.97624,-0.18812,0.0,2023,6,7,16,11,52,376
44.98940,-0.05845,0.27160,0.00000,0.03099,0.97868,-0.18910,0.0,2023,6,7,16,11,52,386
44.98950,-0.00595,-0.02590,0.00000,0.03184,0.97417,-0.18849,0.0,2023,6,7,16,11,52,396
44.98960,0.15155,-0.06090,0.00000,0.03001,0.97844,-0.18959,0.0,2023,6,7,16,11,52,406
44.98970,-0.09345,0.13160,0.00000,0.03270,0.97722,-0.18849,0.0,2023,6,7,16,11,52,416
44.98980,0.04655,-0.14840,0.00000,0.03172,0.97441,-0.18861,0.0,2023,6,7,16,11,52,426
44.98990,0.18655,-0.04340,0.00000,0.03123,0.97624,-0.18825,0.0,2023,6,7,16,11,52,436
44.99000,0.16905,-0.06090,0.00000,0.03392,0.97856,-0.18776,0.0,2023,6,7,16,11,52,446
44.99010,-0.16345,-0.20090,0.00000,0.03087,0.97380,-0.18812,0.0,2023,6,7,16,11,52,456
44.99020,0.08155,-0.07840,0.00000,0.03196,0.97612,-0.18983,0.0,2023,6,7,16,11,52,466
44.99030,0.13405,-0.16590,0.00000,0.03087,0.97661,-0.18593,0.0,2023,6,7,16,11,52,476
44.99040,-0.07595,-0.13090,0.00000,0.03184,0.97588,-0.18947,0.0,2023,6,7,16,11,52,486
44.99050,-0.12845,0.04410,0.00000,0.03148,0.97588,-0.18666,0.0,2023,6,7,16,11,52,496
44.99060,-0.02345,0.06160,0.00000,0.03209,0.97551,-0.18751,0.0,2023,6,7,16,11,52,506
44.99070,-0.07595,-0.04340,0.00000,0.03062,0.97637,-0.18910,0.0,2023,6,7,16,11,52,516
44.99080,-0.04095,-0.04340,0.00000,0.03111,0.97393,-0.18837,0.0,2023,6,7,16,11,52,526
44.99090,-0.11095,0.04410,0.00000,0.03013,0.97539,-0.19056,0.0,2023,6,7,16,11,52,536
44.99100,-0.00595,0.00910,0.00000,0.03367,0.97661,-0.18715,0.0,2023,6,7,16,11,52,546
44.99110,0.06405,-0.30590,0.00000,0.03123,0.97661,-0.18581,0.0,2023,6,7,16,11,52,556
44.99120,0.06405,-0.04340,0.00000,0.03026,0.97490,-0.18812,0.0,2023,6,7,16,11,52,566
44.99130,0.16905,0.13160,0.00000,0.03111,0.97673,-0.18764,0.0,2023,6,7,16,11,52,576
44.99140,0.08155,-0.11340,0.00000,0.03026,0.97698,-0.18861,0.0,2023,6,7,16,11,52,586
44.99150,-0.02345,0.13160,0.00000,0.03221,0.97783,-0.18642,0.0,2023,6,7,16,11,52,596
44.99160,-0.05845,-0.09590,0.00000,0.03209,0.97746,-0.18471,0.0,2023,6,7,16,11,52,606
44.99170,-0.16345,-0.13090,0.00000,0.03001,0.97527,-0.18666,0.0,2023,6,7,16,11,52,616
44.99180,0.08155,-0.16590,0.00000,0.02891,0.97759,-0.18703,0.0,2023,6,7,16,11,52,626
44.99190,-0.19845,0.11410,0.00000,0.03257,0.97966,-0.18812,0.0,2023,6,7,16,11,52,636
44.99200,0.16905,0.00910,0.00000,0.03123,0.97637,-0.18703,0.0,2023,6,7,16,11,52,646
44.99210,-0.07595,0.14910,0.00000,0.03074,0.97588,-0.18678,0.0,2023,6,7,16,11,52,656
44.99220,-0.09345,0.18410,0.00000,0.02940,0.97820,-0.18751,0.0,2023,6,7,16,11,52,666
44.99230,-0.18095,0.04410,0.00000,0.03209,0.97600,-0.18898,0.0,2023,6,7,16,11,52,676
44.99240,-0.00595,0.14910,0.00000,0.03160,0.97734,-0.18678,0.0,2023,6,7,16,11,52,686
44.99250,-0.16345,0.04410,0.00000,0.03050,0.97820,-0.18886,0.0,2023,6,7,16,11,52,696
44.99260,-0.11095,-0.14840,0.00000,0.03160,0.97429,-0.18690,0.0,2023,6,7,16,11,52,706
44.99270,-0.04095,0.00910,0.00000,0.03038,0.97771,-0.19008,0.0,2023,6,7,16,11,52,716
44.99280,-0.05845,0.11410,0.00000,0.03196,0.97722,-0.18605,0.0,2023,6,7,16,11,52,726
44.99290,-0.19845,0.13160,0.00000,0.03172,0.97759,-0.19056,0.0,2023,6,7,16,11,52,736
44.99300,-0.00595,0.13160,0.00000,0.03135,0.97734,-0.18764,0.0,2023,6,7,16,11,52,746
44.99310,-0.04095,-0.13090,0.00000,0.03160,0.97502,-0.18739,0.0,2023,6,7,16,11,52,756
44.99320,0.18655,-0.02590,0.00000,0.03074,0.97490,-0.18788,0.0,2023,6,7,16,11,52,766
44.99330,0.04655,0.09660,0.00000,0.03001,0.97698,-0.18617,0.0,2023,6,7,16,11,52,776
44.99340,-0.18095,0.06160,0.00000,0.03111,0.97612,-0.18922,0.0,2023,6,7,16,11,52,786
44.99350,0.04655,-0.18340,0.00000,0.03001,0.97820,-0.18812,0.0,2023,6,7,16,11,52,796
44.99360,-0.04095,0.09660,0.00000,0.03306,0.97746,-0.18812,0.0,2023,6,7,16,11,52,806
44.99370,-0.02345,0.07910,0.00000,0.03001,0.97661,-0.18849,0.0,2023,6,7,16,11,52,816
44.99380,0.01155,-0.21840,0.00000,0.03172,0.97832,-0.19008,0.0,2023,6,7,16,11,52,826
44.99390,0.15155,0.00910,0.00000,0.03099,0.97624,-0.18837,0.0,2023,6,7,16,11,52,836
44.99400,-0.02345,-0.18340,0.00000,0.02977,0.97551,-0.18861,0.0,2023,6,7,16,11,52,846
44.99410,0.04655,-0.02590,0.00000,0.03160,0.97612,-0.18654,0.0,2023,6,7,16,11,52,856
44.99420,-0.12845,0.02660,0.00000,0.03184,0.97783,-0.18666,0.0,2023,6,7,16,11,52,866
44.99430,0.04655,-0.28840,0.00000,0.03013,0.97698,-0.18934,0.0,2023,6,7,16,11,52,876
44.99440,0.06405,-0.09590,0.00000,0.02977,0.97710,-0.19056,0.0,2023,6,7,16,11,52,886
44.99450,-0.04095,-0.04340,0.00000,0.03160,0.97368,-0.18739,0.0,2023,6,7,16,11,52,896
44.99460,-0.21595,0.09660,0.00000,0.03221,0.97637,-0.18873,0.0,2023,6,7,16,11,53,6
44.99470,-0.09345,-0.06090,0.00000,0.02891,0.97380,-0.18751,0.0,2023,6,7,16,11,53,16
44.99480,0.04655,-0.04340,0.00000,0.03196,0.97783,-0.18654,0.0,2023,6,7,16,11,53,26
44.99490,-0.07595,-0.02590,0.00000,0.03318,0.97624,-0.18837,0.0,2023,6,7,16,11,53,36
44.99500,0.06405,-0.06090,0.00000,0.03123,0.97637,-0.18703,0.0,2023,6,7,16,11,53,46
44.99510,0.11655,-0.06090,0.00000,0.03111,0.97844,-0.18483,0.0,2023,6,7,16,11,53,56
44.99520,-0.14595,0.00910,0.00000,0.03477,0.97832,-0.18776,0.0,2023,6,7,16,11,53,66
44.99530,0.01155,-0.06090,0.00000,0.03111,0.97637,-0.18934,0.0,2023,6,7,16,11,53,76
44.99540,0.06405,-0.16590,0.00000,0.03160,0.97856,-0.18751,0.0,2023,6,7,16,11,53,86
44.99550,0.02905,-0.00840,0.00000,0.03209,0.97539,-0.18764,0.0,2023,6,7,16,11,53,96
44.99560,0.02905,0.04410,0.00000,0.03013,0.97563,-0.18849,0.0,2023,6,7,16,11,53,106
44.99570,-0.14595,0.11410,0.00000,0.03196,0.97649,-0.18532,0.0,2023,6,7,16,11,53,116
44.99580,0.22155,-0.35840,0.00000,0.03257,0.97637,-0.19081,0.0,2023,6,7,16,11,53,126
44.99590,0.02905,0.28910,0.00000,0.03135,0.97698,-0.18751,0.0,2023,6,7,16,11,53,136
44.99600,-0.11095,0.09660,0.00000,0.02989,0.97746,-0.18483,0.0,2023,6,7,16,11,53,146
44.99610,-0.12845,-0.02590,0.00000,0.03270,0.97612,-0.18983,0.0,2023,6,7,16,11,53,156
44.99620,-0.09345,0.16660,0.00000,0.03135,0.97673,-0.18800,0.0,2023,6,7,16,11,53,166
44.99630,-0.02345,0.02660,0.00000,0.03111,0.97734,-0.18556,0.0,2023,6,7,16,11,53,176
44.99640,0.09905,0.04410,0.00000,0.03050,0.97649,-0.18751,0.0,2023,6,7,16,11,53,186
44.99650,-0.16345,0.20160,0.00000,0.03270,0.97795,-0.18800,0.0,2023,6,7,16,11,53,196
44.99660,0.04655,-0.09590,0.00000,0.03135,0.97673,-0.18654,0.0,2023,6,7,16,11,53,206
44.99670,-0.02345,-0.06090,0.00000,0.03196,0.97722,-0.18678,0.0,2023,6,7,16,11,53,216
44.99680,0.01155,0.04410,0.00000,0.03245,0.97588,-0.18690,0.0,2023,6,7,16,11,53,226
44.99690,-0.09345,0.04410,0.00000,0.03001,0.97722,-0.18654,0.0,2023,6,7,16,11,53,236
44.99700,0.01155,0.04410,0.00000,0.03221,0.97661,-0.18764,0.0,2023,6,7,16,11,53,246
44.99710,0.27405,-0.18340,0.00000,0.03270,0.97576,-0.18642,0.0,2023,6,7,16,11,53,256
44.99720,0.01155,-0.11340,0.00000,0.03111,0.97515,-0.18812,0.0,2023,6,7,16,11,53,266
44.99730,-0.28595,0.09660,0.00000,0.03306,0.97746,-0.18739,0.0,2023,6,7,16,11,53,276
44.99740,0.13405,-0.00840,0.00000,0.03001,0.97612,-0.18983,0.0,2023,6,7,16,11,53,286
44.99750,-0.11095,0.28910,0.00000,0.03135,0.97868,-0.18751,0.0,2023,6,7,16,11,53,296
44.99760,0.09905,0.00910,0.00000,0.03148,0.97515,-0.18898,0.0,2023,6,7,16,11,53,306
44.99770,-0.04095,-0.06090,0.00000,0.02843,0.97722,-0.18703,0.0,2023,6,7,16,11,53,316
44.99780,-0.09345,-0.00840,0.00000,0.02965,0.97771,-0.19069,0.0,2023,6,7,16,11,53,326
44.99790,-0.04095,0.20160,0.00000,0.02733,0.97649,-0.19117,0.0,2023,6,7,16,11,53,336
44.99800,-0.11095,-0.21840,0.00000,0.03233,0.97490,-0.18581,0.0,2023,6,7,16,11,53,346
44.99810,-0.12845,0.07910,0.00000,0.03184,0.97417,-0.18739,0.0,2023,6,7,16,11,53,356
44.99820,0.01155,0.02660,0.00000,0.02977,0.97637,-0.18873,0.0,2023,6,7,16,11,53,366
44.99830,0.04655,0.00910,0.00000,0.03245,0.97551,-0.18666,0.0,2023,6,7,16,11,53,376
44.99840,0.15155,0.11410,0.00000,0.03087,0.97637,-0.18934,0.0,2023,6,7,16,11,53,386
44.99850,0.01155,-0.25340,0.00000,0.03087,0.97539,-0.18617,0.0,2023,6,7,16,11,53,396
44.99860,0.01155,0.04410,0.00000,0.03270,0.97746,-0.18568,0.0,2023,6,7,16,11,53,406
44.99870,-0.09345,0.11410,0.00000,0.03074,0.97722,-0.19032,0.0,2023,6,7,16,11,53,416
44.99880,0.15155,-0.20090,0.00000,0.02843,0.97759,-0.18727,0.0,2023,6,7,16,11,53,426
44.99890,0.13405,-0.07840,0.00000,0.03245,0.97515,-0.18739,0.0,2023,6,7,16,11,53,436
44.99900,0.06405,-0.07840,0.00000,0.03233,0.97539,-0.18605,0.0,2023,6,7,16,11,53,446
44.99910,-0.00595,0.02660,0.00000,0.03257,0.97539,-0.18812,0.0,2023,6,7,16,11,53,456
44.99920,-0.14595,0.06160,0.00000,0.03331,0.97624,-0.18764,0.0,2023,6,7,16,11,53,466
44.99930,0.32655,0.00910,0.00000,0.03087,0.97661,-0.19154,0.0,2023,6,7,16,11,53,476
44.99940,-0.00595,0.04410,0.00000,0.03331,0.97527,-0.18568,0.0,2023,6,7,16,11,53,486
44.99950,-0.07595,-0.07840,0.00000,0.03184,0.97637,-0.18654,0.0,2023,6,7,16,11,53,496
44.99960,-0.12845,-0.00840,0.00000,0.03318,0.97515,-0.18910,0.0,2023,6,7,16,11,53,506
44.99970,-0.05845,0.23660,0.00000,0.03087,0.97551,-0.18825,0.0,2023,6,7,16,11,53,516
44.99980,-0.23345,0.16660,0.00000,0.03209,0.97856,-0.18727,0.0,2023,6,7,16,11,53,526
44.99990,-0.05845,0.09660,0.00000,0.03160,0.97637,-0.18581,0.0,2023,6,7,16,11,53,536
45.00000,-0.07595,0.00910,0.00000,0.03099,0.97685,-0.18617,0.0,2023,6,7,16,11,53,546
45.00010,-0.11095,-0.06090,0.00000,0.03196,0.97527,-0.18678,0.0,2023,6,7,16,11,53,556
45.00020,-0.12845,0.14910,0.00000,0.03160,0.97734,-0.18825,0.0,2023,6,7,16,11,53,566
45.00030,0.04655,0.02660,0.00000,0.03135,0.97722,-0.18922,0.0,2023,6,7,16,11,53,576
45.00040,-0.07595,-0.00840,0.00000,0.03087,0.97844,-0.18971,0.0,2023,6,7,16,11,53,586
45.00050,0.02905,-0.16590,0.00000,0.03172,0.97563,-0.19056,0.0,2023,6,7,16,11,53,596
45.00060,-0.05845,-0.18340,0.00000,0.03038,0.97966,-0.18812,0.0,2023,6,7,16,11,53,606
45.00070,0.09905,0.06160,0.00000,0.03099,0.97551,-0.18910,0.0,2023,6,7,16,11,53,616
45.00080,-0.09345,-0.02590,0.00000,0.03135,0.97478,-0.18934,0.0,2023,6,7,16,11,53,626
45.00090,-0.04095,0.04410,0.00000,0.02989,0.97539,-0.18715,0.0,2023,6,7,16,11,53,636
45.00100,-0.04095,0.14910,0.00000,0.03209,0.97612,-0.18678,0.0,2023,6,7,16,11,53,646
45.00110,-0.05845,0.04410,0.00000,0.03123,0.97624,-0.18934,0.0,2023,6,7,16,11,53,656
45.00120,0.04655,0.04410,0.00000,0.03196,0.97783,-0.19032,0.0,2023,6,7,16,11,53,666
45.00130,0.11655,-0.09590,0.00000,0.02977,0.97759,-0.19203,0.0,2023,6,7,16,11,53,676
45.00140,-0.37345,0.20160,0.00000,0.02916,0.97685,-0.18812,0.0,2023,6,7,16,11,53,686
45.00150,0.04655,0.00910,0.00000,0.03111,0.97685,-0.18898,0.0,2023,6,7,16,11,53,696
45.00160,0.01155,-0.04340,0.00000,0.03416,0.97393,-0.18886,0.0,2023,6,7,16,11,53,706
45.00170,-0.16345,-0.09590,0.00000,0.03343,0.97588,-0.18934,0.0,2023,6,7,16,11,53,716
45.00180,-0.19845,0.13160,0.00000,0.03038,0.98064,-0.18849,0.0,2023,6,7,16,11,53,726
45.00190,-0.09345,-0.11340,0.00000,0.03343,0.97698,-0.18703,0.0,2023,6,7,16,11,53,736
45.00200,-0.00595,0.09660,0.00000,0.03318,0.97612,-0.18825,0.0,2023,6,7,16,11,53,746
45.00210,0.04655,0.07910,0.00000,0.02879,0.97612,-0.18910,0.0,2023,6,7,16,11,53,756
45.00220,0.13405,-0.27090,0.00000,0.03135,0.97685,-0.18873,0.0,2023,6,7,16,11,53,766
45.00230,-0.02345,0.00910,0.00000,0.03233,0.97600,-0.18593,0.0,2023,6,7,16,11,53,776
45.00240,0.22155,-0.18340,0.00000,0.02989,0.97441,-0.18861,0.0,2023,6,7,16,11,53,786
45.00250,0.08155,0.00910,0.00000,0.03184,0.97783,-0.19056,0.0,2023,6,7,16,11,53,796
45.00260,0.01155,-0.04340,0.00000,0.03135,0.97783,-0.18629,0.0,2023,6,7,16,11,53,806
45.00270,0.02905,-0.02590,0.00000,0.03160,0.97661,-0.18898,0.0,2023,6,7,16,11,53,816
45.00280,0.08155,-0.07840,0.00000,0.03026,0.97515,-0.18922,0.0,2023,6,7,16,11,53,826
45.00290,0.02905,-0.00840,0.00000,0.03148,0.97466,-0.18825,0.0,2023,6,7,16,11,53,836
45.00300,-0.19845,-0.04340,0.00000,0.03172,0.97929,-0.18886,0.0,2023,6,7,16,11,53,846
45.00310,-0.19845,0.11410,0.00000,0.03477,0.97527,-0.18886,0.0,2023,6,7,16,11,53,856
45.00320,-0.14595,-0.00840,0.00000,0.03099,0.97673,-0.18776,0.0,2023,6,7,16,11,53,866
45.00330,-0.07595,0.11410,0.00000,0.03282,0.97734,-0.18593,0.0,2023,6,7,16,11,53,876
45.00340,-0.05845,0.04410,0.00000,0.03160,0.97771,-0.18715,0.0,2023,6,7,16,11,53,886
45.00350,-0.12845,-0.11340,0.00000,0.02965,0.97588,-0.18788,0.0,2023,6,7,16,11,54,6
45.00360,0.08155,-0.00840,0.00000,0.03209,0.97795,-0.18873,0.0,2023,6,7,16,11,54,16
45.00370,-0.12845,0.18410,0.00000,0.03135,0.97759,-0.18812,0.0,2023,6,7,16,11,54,26
45.00380,0.04655,-0.18340,0.00000,0.03013,0.97795,-0.18703,0.0,2023,6,7,16,11,54,36
45.00390,0.18655,-0.18340,0.00000,0.03135,0.97612,-0.18947,0.0,2023,6,7,16,11,54,46
45.00400,0.02905,-0.00840,0.00000,0.03111,0.97612,-0.18849,0.0,2023,6,7,16,11,54,56
45.00410,-0.05845,-0.06090,0.00000,0.03111,0.97698,-0.18849,0.0,2023,6,7,16,11,54,66
45.00420,0.23905,-0.06090,0.00000,0.03087,0.97417,-0.18788,0.0,2023,6,7,16,11,54,76
45.00430,0.08155,-0.02590,0.00000,0.03135,0.97563,-0.18861,0.0,2023,6,7,16,11,54,86
45.00440,-0.09345,-0.06090,0.00000,0.03221,0.97649,-0.18971,0.0,2023,6,7,16,11,54,96
45.00450,0.01155,-0.16590,0.00000,0.03245,0.97795,-0.18764,0.0,2023,6,7,16,11,54,106
45.00460,-0.14595,0.04410,0.00000,0.03294,0.97515,-0.18495,0.0,2023,6,7,16,11,54,116
45.00470,-0.19845,0.11410,0.00000,0.03209,0.97637,-0.18727,0.0,2023,6,7,16,11,54,126
45.00480,-0.02345,-0.04340,0.00000,0.03099,0.97820,-0.18849,0.0,2023,6,7,16,11,54,136
45.00490,-0.16345,0.02660,0.00000,0.03087,0.97759,-0.18654,0.0,2023,6,7,16,11,54,146
45.00500,0.15155,-0.00840,0.00000,0.03135,0.97673,-0.18776,0.0,2023,6,7,16,11,54,156
45.00510,0.08155,-0.30590,0.00000,0.03270,0.97649,-0.18739,0.0,2023,6,7,16,11,54,166
45.00520,0.16905,-0.11340,0.00000,0.03233,0.97307,-0.18654,0.0,2023,6,7,16,11,54,176
45.00530,-0.16345,-0.13090,0.00000,0.03123,0.97722,-0.18837,0.0,2023,6,7,16,11,54,186
45.00540,0.06405,-0.04340,0.00000,0.03184,0.97661,-0.18910,0.0,2023,6,7,16,11,54,196
45.00550,0.04655,-0.13090,0.00000,0.03416,0.97722,-0.18642,0.0,2023,6,7,16,11,54,206
45.00560,0.02905,-0.07840,0.00000,0.03038,0.97649,-0.18459,0.0,2023,6,7,16,11,54,216
45.00570,-0.05845,-0.06090,0.00000,0.03233,0.97576,-0.18800,0.0,2023,6,7,16,11,54,226
45.00580,0.04655,-0.09590,0.00000,0.02940,0.97637,-0.18617,0.0,2023,6,7,16,11,54,236
45.00590,0.04655,0.02660,0.00000,0.03282,0.97624,-0.18873,0.0,2023,6,7,16,11,54,246
45.00600,0.16905,0.02660,0.00000,0.02977,0.97661,-0.18812,0.0,2023,6,7,16,11,54,256
45.00610,-0.00595,-0.07840,0.00000,0.03087,0.97856,-0.18666,0.0,2023,6,7,16,11,54,266
45.00620,0.37905,0.00910,0.00000,0.03257,0.97734,-0.19008,0.0,2023,6,7,16,11,54,276
45.00630,0.09905,-0.14840,0.00000,0.03282,0.97637,-0.18922,0.0,2023,6,7,16,11,54,286
45.00640,0.01155,0.07910,0.00000,0.02977,0.97539,-0.18849,0.0,2023,6,7,16,11,54,296
45.00650,-0.07595,-0.16590,0.00000,0.03148,0.97344,-0.18959,0.0,2023,6,7,16,11,54,306
45.00660,0.01155,-0.11340,0.00000,0.03233,0.97576,-0.18544,0.0,2023,6,7,16,11,54,316
45.00670,-0.14595,-0.04340,0.00000,0.03209,0.97685,-0.18495,0.0,2023,6,7,16,11,54,326
45.00680,0.01155,-0.11340,0.00000,0.03172,0.97710,-0.18666,0.0,2023,6,7,16,11,54,336
45.00690,0.01155,-0.09590,0.00000,0.03221,0.97722,-0.18776,0.0,2023,6,7,16,11,54,346
45.00700,-0.09345,0.09660,0.00000,0.03099,0.97759,-0.18934,0.0,2023,6,7,16,11,54,356
45.00710,0.01155,0.16660,0.00000,0.03318,0.97600,-0.18593,0.0,2023,6,7,16,11,54,366
45.00720,-0.12845,-0.02590,0.00000,0.03123,0.97832,-0.18654,0.0,2023,6,7,16,11,54,376
45.00730,0.08155,0.06160,0.00000,0.03111,0.97624,-0.18825,0.0,2023,6,7,16,11,54,386
45.00740,-0.07595,0.09660,0.00000,0.03001,0.97637,-0.18812,0.0,2023,6,7,16,11,54,396
45.00750,-0.04095,-0.06090,0.00000,0.03184,0.97600,-0.18690,0.0,2023,6,7,16,11,54,406
45.00760,-0.04095,0.09660,0.00000,0.03282,0.97368,-0.18520,0.0,2023,6,7,16,11,54,416
45.00770,0.18655,0.04410,0.00000,0.03160,0.97746,-0.18861,0.0,2023,6,7,16,11,54,426
45.00780,0.01155,-0.06090,0.00000,0.03245,0.97612,-0.18715,0.0,2023,6,7,16,11,54,436
45.00790,0.01155,-0.00840,0.00000,0.02989,0.97746,-0.18825,0.0,2023,6,7,16,11,54,446
45.00800,0.11655,0.13160,0.00000,0.03196,0.97576,-0.18800,0.0,2023,6,7,16,11,54,456
45.00810,-0.00595,0.13160,0.00000,0.03172,0.97612,-0.18886,0.0,2023,6,7,16,11,54,466
45.00820,0.01155,0.04410,0.00000,0.03062,0.97698,-0.18947,0.0,2023,6,7,16,11,54,476
45.00830,0.09905,-0.27090,0.00000,0.03111,0.97795,-0.18886,0.0,2023,6,7,16,11,54,486
45.00840,0.08155,-0.21840,0.00000,0.03160,0.97563,-0.18788,0.0,2023,6,7,16,11,54,496
45.00850,0.04655,0.06160,0.00000,0.03379,0.97576,-0.18751,0.0,2023,6,7,16,11,54,506
45.00860,-0.02345,0.00910,0.00000,0.03221,0.97624,-0.18776,0.0,2023,6,7,16,11,54,516
45.00870,-0.00595,0.02660,0.00000,0.03135,0.97539,-0.18983,0.0,2023,6,7,16,11,54,526
45.00880,0.01155,0.06160,0.00000,0.03148,0.97807,-0.19056,0.0,2023,6,7,16,11,54,536
45.00890,-0.09345,0.07910,0.00000,0.02977,0.97673,-0.18788,0.0,2023,6,7,16,11,54,546
45.00900,-0.04095,-0.18340,0.00000,0.03062,0.97624,-0.18861,0.0,2023,6,7,16,11,54,556
45.00910,0.18655,-0.14840,0.00000,0.03050,0.97698,-0.18800,0.0,2023,6,7,16,11,54,566
45.00920,-0.00595,-0.11340,0.00000,0.03172,0.98003,-0.18654,0.0,2023,6,7,16,11,54,576
45.00930,-0.12845,0.04410,0.00000,0.03111,0.97649,-0.18703,0.0,2023,6,7,16,11,54,586
45.00940,0.01155,-0.00840,0.00000,0.03245,0.97917,-0.18739,0.0,2023,6,7,16,11,54,596
45.00950,0.04655,0.07910,0.00000,0.03306,0.97673,-0.18593,0.0,2023,6,7,16,11,54,606
45.00960,0.06405,0.14910,0.00000,0.03257,0.97771,-0.18764,0.0,2023,6,7,16,11,54,616
45.00970,0.30905,-0.06090,0.00000,0.03257,0.97917,-0.18849,0.0,2023,6,7,16,11,54,626
45.00980,-0.11095,-0.00840,0.00000,0.03294,0.97576,-0.18690,0.0,2023,6,7,16,11,54,636
45.00990,0.36155,-0.07840,0.00000,0.03074,0.97637,-0.18849,0.0,2023,6,7,16,11,54,646
45.01000,0.25655,-0.18340,0.00000,0.02952,0.97539,-0.18715,0.0,2023,6,7,16,11,54,656
45.01010,-0.26845,0.07910,0.00000,0.03099,0.97441,-0.18825,0.0,2023,6,7,16,11,54,666
45.01020,0.02905,0.06160,0.00000,0.03001,0.97600,-0.18751,0.0,2023,6,7,16,11,54,676
45.01030,-0.00595,0.06160,0.00000,0.03294,0.97685,-0.18581,0.0,2023,6,7,16,11,54,686
45.01040,-0.04095,-0.04340,0.00000,0.03050,0.97759,-0.18886,0.0,2023,6,7,16,11,54,696
45.01050,0.32655,-0.02590,0.00000,0.03184,0.97807,-0.18788,0.0,2023,6,7,16,11,54,706
45.01060,-0.02345,0.07910,0.00000,0.03001,0.97783,-0.18568,0.0,2023,6,7,16,11,54,716
45.01070,-0.09345,-0.02590,0.00000,0.02989,0.97673,-0.18800,0.0,2023,6,7,16,11,54,726
45.01080,0.27405,-0.13090,0.00000,0.03160,0.97600,-0.18642,0.0,2023,6,7,16,11,54,736
45.01090,0.01155,0.04410,0.00000,0.03270,0.97466,-0.18605,0.0,2023,6,7,16,11,54,746
45.01100,-0.21595,-0.21840,0.00000,0.03184,0.97417,-0.18959,0.0,2023,6,7,16,11,54,756
45.01110,0.32655,0.18410,0.00000,0.03087,0.97624,-0.18971,0.0,2023,6,7,16,11,54,766
45.01120,-0.30345,-0.00840,0.00000,0.03318,0.97624,-0.18288,0.0,2023,6,7,16,11,54,776
45.01130,-0.30345,0.13160,0.00000,0.02952,0.97637,-0.19008,0.0,2023,6,7,16,11,54,786
45.01140,0.48405,0.00910,0.00000,0.03074,0.97734,-0.18873,0.0,2023,6,7,16,11,54,796
45.01150,-0.35595,-0.00840,0.00000,0.03123,0.97637,-0.18507,0.0,2023,6,7,16,11,54,806
45.01160,0.09905,0.11410,0.00000,0.03099,0.97759,-0.18703,0.0,2023,6,7,16,11,54,816
45.01170,0.09905,-0.09590,0.00000,0.03233,0.97673,-0.18666,0.0,2023,6,7,16,11,54,826
45.01180,-0.12845,-0.04340,0.00000,0.03245,0.97820,-0.18788,0.0,2023,6,7,16,11,54,836
45.01190,0.15155,0.06160,0.00000,0.03001,0.97685,-0.18910,0.0,2023,6,7,16,11,54,846
45.01200,0.02905,0.06160,0.00000,0.02989,0.97649,-0.18239,0.0,2023,6,7,16,11,54,856
45.01210,-0.04095,0.00910,0.00000,0.03013,0.97722,-0.18751,0.0,2023,6,7,16,11,54,866
45.01220,0.34405,0.00910,0.00000,0.03160,0.97649,-0.18666,0.0,2023,6,7,16,11,54,876
45.01230,-0.40845,0.06160,0.00000,0.03062,0.97698,-0.18520,0.0,2023,6,7,16,11,54,886
45.01240,0.15155,0.20160,0.00000,0.03038,0.97673,-0.19008,0.0,2023,6,7,16,11,54,896
45.01250,0.22155,-0.27090,0.00000,0.03245,0.97734,-0.18422,0.0,2023,6,7,16,11,54,906
45.01260,-0.25095,-0.00840,0.00000,0.03087,0.97600,-0.19032,0.0,2023,6,7,16,11,55,6
45.01270,0.20405,0.04410,0.00000,0.03050,0.97624,-0.19056,0.0,2023,6,7,16,11,55,16
45.01280,0.01155,-0.06090,0.00000,0.03196,0.97722,-0.18593,0.0,2023,6,7,16,11,55,26
45.01290,-0.25095,0.07910,0.00000,0.03160,0.97820,-0.18642,0.0,2023,6,7,16,11,55,36
45.01300,0.20405,-0.04340,0.00000,0.03074,0.97588,-0.18971,0.0,2023,6,7,16,11,55,46
45.01310,-0.09345,0.04410,0.00000,0.03221,0.97685,-0.18520,0.0,2023,6,7,16,11,55,56
45.01320,-0.04095,-0.13090,0.00000,0.03099,0.97551,-0.18715,0.0,2023,6,7,16,11,55,66
45.01330,0.01155,0.07910,0.00000,0.03331,0.97588,-0.18922,0.0,2023,6,7,16,11,55,76
45.01340,-0.11095,-0.00840,0.00000,0.03172,0.97673,-0.18300,0.0,2023,6,7,16,11,55,86
45.01350,-0.05845,-0.02590,0.00000,0.03270,0.97771,-0.18861,0.0,2023,6,7,16,11,55,96
45.01360,0.11655,0.09660,0.00000,0.03087,0.97612,-0.19105,0.0,2023,6,7,16,11,55,106
45.01370,-0.04095,-0.02590,0.00000,0.03184,0.97759,-0.18373,0.0,2023,6,7,16,11,55,116
45.01380,0.06405,-0.13090,0.00000,0.02879,0.97771,-0.18568,0.0,2023,6,7,16,11,55,126
45.01390,-0.02345,0.00910,0.00000,0.03062,0.97685,-0.18959,0.0,2023,6,7,16,11,55,136
45.01400,0.04655,-0.18340,0.00000,0.03221,0.97588,-0.18959,0.0,2023,6,7,16,11,55,146
45.01410,-0.02345,-0.00840,0.00000,0.03221,0.97710,-0.18825,0.0,2023,6,7,16,11,55,156
45.01420,0.06405,-0.13090,0.00000,0.03209,0.97478,-0.18678,0.0,2023,6,7,16,11,55,166
45.01430,-0.00595,0.00910,0.00000,0.03026,0.97551,-0.18788,0.0,2023,6,7,16,11,55,176
45.01440,0.02905,-0.23590,0.00000,0.03062,0.97490,-0.18861,0.0,2023,6,7,16,11,55,186
45.01450,-0.09345,-0.00840,0.00000,0.03062,0.97612,-0.18532,0.0,2023,6,7,16,11,55,196
45.01460,-0.23345,0.09660,0.00000,0.03196,0.97356,-0.18983,0.0,2023,6,7,16,11,55,206
45.01470,-0.04095,-0.04340,0.00000,0.03148,0.97820,-0.18739,0.0,2023,6,7,16,11,55,216
45.01480,0.02905,0.13160,0.00000,0.03294,0.97478,-0.18690,0.0,2023,6,7,16,11,55,226
45.01490,-0.05845,-0.07840,0.00000,0.02940,0.97600,-0.18617,0.0,2023,6,7,16,11,55,236
45.01500,0.04655,-0.20090,0.00000,0.03196,0.97710,-0.18776,0.0,2023,6,7,16,11,55,246
45.01510,-0.11095,-0.07840,0.00000,0.03343,0.98039,-0.18678,0.0,2023,6,7,16,11,55,256
45.01520,-0.18095,-0.06090,0.00000,0.03257,0.97527,-0.18800,0.0,2023,6,7,16,11,55,266
45.01530,0.18655,-0.04340,0.00000,0.03221,0.97478,-0.18751,0.0,2023,6,7,16,11,55,276
45.01540,-0.07595,-0.13090,0.00000,0.03306,0.97612,-0.18654,0.0,2023,6,7,16,11,55,286
45.01550,-0.07595,-0.02590,0.00000,0.03135,0.97673,-0.18715,0.0,2023,6,7,16,11,55,296
45.01560,0.13405,-0.09590,0.00000,0.03087,0.97868,-0.18910,0.0,2023,6,7,16,11,55,306
45.01570,-0.07595,0.13160,0.00000,0.02940,0.97454,-0.18617,0.0,2023,6,7,16,11,55,316
45.01580,-0.12845,-0.13090,0.00000,0.03087,0.97954,-0.18873,0.0,2023,6,7,16,11,55,326
45.01590,-0.02345,-0.11340,0.00000,0.03318,0.97551,-0.18983,0.0,2023,6,7,16,11,55,336
45.01600,-0.05845,0.09660,0.00000,0.03074,0.97807,-0.18666,0.0,2023,6,7,16,11,55,346
45.01610,0.11655,0.00910,0.00000,0.03123,0.97502,-0.18849,0.0,2023,6,7,16,11,55,356
45.01620,-0.04095,-0.16590,0.00000,0.03270,0.97319,-0.18934,0.0,2023,6,7,16,11,55,366
45.01630,-0.02345,-0.02590,0.00000,0.03184,0.97637,-0.18861,0.0,2023,6,7,16,11,55,376
45.01640,0.22155,-0.21840,0.00000,0.03196,0.97795,-0.18654,0.0,2023,6,7,16,11,55,386
45.01650,-0.23345,0.07910,0.00000,0.03135,0.97624,-0.18507,0.0,2023,6,7,16,11,55,396
45.01660,-0.23345,0.13160,0.00000,0.03026,0.97722,-0.18654,0.0,2023,6,7,16,11,55,406
45.01670,-0.02345,-0.14840,0.00000,0.03123,0.97612,-0.18849,0.0,2023,6,7,16,11,55,416
45.01680,-0.16345,0.25410,0.00000,0.03062,0.97710,-0.18739,0.0,2023,6,7,16,11,55,426
45.01690,-0.09345,-0.04340,0.00000,0.02965,0.97612,-0.18715,0.0,2023,6,7,16,11,55,436
45.01700,-0.02345,-0.14840,0.00000,0.02867,0.97637,-0.18922,0.0,2023,6,7,16,11,55,446
45.01710,-0.09345,-0.06090,0.00000,0.03196,0.97795,-0.18715,0.0,2023,6,7,16,11,55,456
45.01720,-0.19845,-0.06090,0.00000,0.03087,0.97551,-0.18812,0.0,2023,6,7,16,11,55,466
45.01730,0.16905,0.06160,0.00000,0.03099,0.97563,-0.18715,0.0,2023,6,7,16,11,55,476
45.01740,-0.18095,0.06160,0.00000,0.02940,0.97807,-0.18764,0.0,2023,6,7,16,11,55,486
45.01750,0.04655,0.04410,0.00000,0.03099,0.97649,-0.18861,0.0,2023,6,7,16,11,55,496
45.01760,0.01155,0.02660,0.00000,0.03184,0.97734,-0.18971,0.0,2023,6,7,16,11,55,506
45.01770,-0.33845,0.09660,0.00000,0.03209,0.97466,-0.18678,0.0,2023,6,7,16,11,55,516
45.01780,-0.04095,-0.07840,0.00000,0.03331,0.97832,-0.18849,0.0,2023,6,7,16,11,55,526
45.01790,-0.02345,0.06160,0.00000,0.02916,0.97905,-0.18727,0.0,2023,6,7,16,11,55,536
45.01800,-0.19845,0.00910,0.00000,0.02965,0.97380,-0.18703,0.0,2023,6,7,16,11,55,546
45.01810,0.16905,0.21910,0.00000,0.03209,0.97380,-0.18812,0.0,2023,6,7,16,11,55,556
45.01820,-0.32095,0.07910,0.00000,0.03087,0.97539,-0.18678,0.0,2023,6,7,16,11,55,566
45.01830,0.25655,-0.02590,0.00000,0.03282,0.97698,-0.19130,0.0,2023,6,7,16,11,55,576
45.01840,-0.00595,-0.00840,0.00000,0.03087,0.97515,-0.18886,0.0,2023,6,7,16,11,55,586
45.01850,-0.33845,0.13160,0.00000,0.02830,0.97588,-0.18751,0.0,2023,6,7,16,11,55,596
45.01860,0.30905,0.00910,0.00000,0.03074,0.97588,-0.18837,0.0,2023,6,7,16,11,55,606
45.01870,-0.26845,-0.04340,0.00000,0.02989,0.97551,-0.18337,0.0,2023,6,7,16,11,55,616
45.01880,-0.23345,0.00910,0.00000,0.03099,0.97844,-0.19117,0.0,2023,6,7,16,11,55,626
45.01890,0.23905,0.00910,0.00000,0.03123,0.97612,-0.18581,0.0,2023,6,7,16,11,55,636
45.01900,-0.49595,-0.11340,0.00000,0.03196,0.97624,-0.18154,0.0,2023,6,7,16,11,55,646
45.01910,-0.09345,0.06160,0.00000,0.03148,0.97783,-0.18995,0.0,2023,6,7,16,11,55,656
45.01920,0.06405,-0.07840,0.00000,0.03343,0.97527,-0.18422,0.0,2023,6,7,16,11,55,666
45.01930,-0.23345,0.06160,0.00000,0.03245,0.97710,-0.18922,0.0,2023,6,7,16,11,55,676
45.01940,0.41405,-0.09590,0.00000,0.03306,0.97502,-0.18910,0.0,2023,6,7,16,11,55,686
45.01950,-0.23345,-0.06090,0.00000,0.03123,0.97539,-0.18385,0.0,2023,6,7,16,11,55,696
45.01960,0.02905,0.14910,0.00000,0.03172,0.97771,-0.19081,0.0,2023,6,7,16,11,55,706
45.01970,0.18655,0.09660,0.00000,0.03257,0.97698,-0.18678,0.0,2023,6,7,16,11,55,716
45.01980,-0.26845,0.02660,0.00000,0.03148,0.97551,-0.18715,0.0,2023,6,7,16,11,55,726
45.01990,0.02905,0.13160,0.00000,0.02952,0.97832,-0.18837,0.0,2023,6,7,16,11,55,736
45.02000,0.06405,0.06160,0.00000,0.03294,0.97710,-0.18886,0.0,2023,6,7,16,11,55,746
45.02010,-0.25095,-0.06090,0.00000,0.03026,0.97685,-0.18751,0.0,2023,6,7,16,11,55,756
45.02020,0.11655,0.11410,0.00000,0.02977,0.97588,-0.19044,0.0,2023,6,7,16,11,55,766
45.02030,0.01155,-0.13090,0.00000,0.03294,0.97417,-0.18532,0.0,2023,6,7,16,11,55,776
45.02040,-0.09345,0.02660,0.00000,0.03221,0.97673,-0.18654,0.0,2023,6,7,16,11,55,786
45.02050,-0.00595,0.06160,0.00000,0.03038,0.97637,-0.18800,0.0,2023,6,7,16,11,55,796
45.02060,0.01155,0.13160,0.00000,0.03160,0.97771,-0.18556,0.0,2023,6,7,16,11,55,806
45.02070,-0.35595,0.06160,0.00000,0.03111,0.97661,-0.18471,0.0,2023,6,7,16,11,55,816
45.02080,0.30905,0.18410,0.00000,0.03306,0.97734,-0.19044,0.0,2023,6,7,16,11,55,826
45.02090,-0.11095,-0.00840,0.00000,0.03294,0.97527,-0.18739,0.0,2023,6,7,16,11,55,836
45.02100,-0.25095,0.30660,0.00000,0.03172,0.97368,-0.18959,0.0,2023,6,7,16,11,55,846
45.02110,0.13405,0.02660,0.00000,0.03172,0.97539,-0.18898,0.0,2023,6,7,16,11,55,856
45.02120,0.01155,0.06160,0.00000,0.03111,0.97759,-0.18373,0.0,2023,6,7,16,11,55,866
45.02130,-0.09345,-0.09590,0.00000,0.03184,0.97771,-0.18715,0.0,2023,6,7,16,11,55,876
45.02140,-0.11095,0.18410,0.00000,0.03379,0.97600,-0.18934,0.0,2023,6,7,16,11,55,886
45.02150,0.06405,0.07910,0.00000,0.02989,0.97637,-0.18532,0.0,2023,6,7,16,11,55,896
45.02160,-0.09345,-0.07840,0.00000,0.02916,0.97722,-0.18861,0.0,2023,6,7,16,11,56,6
45.02170,0.02905,-0.09590,0.00000,0.03148,0.97649,-0.18995,0.0,2023,6,7,16,11,56,16
45.02180,-0.04095,-0.27090,0.00000,0.03001,0.97612,-0.18788,0.0,2023,6,7,16,11,56,26
45.02190,0.16905,0.02660,0.00000,0.03160,0.97612,-0.18886,0.0,2023,6,7,16,11,56,36
45.02200,-0.05845,-0.06090,0.00000,0.03257,0.97710,-0.18617,0.0,2023,6,7,16,11,56,46
45.02210,-0.16345,-0.20090,0.00000,0.02989,0.97759,-0.18715,0.0,2023,6,7,16,11,56,56
45.02220,0.11655,-0.13090,0.00000,0.03282,0.97502,-0.18776,0.0,2023,6,7,16,11,56,66
45.02230,-0.02345,-0.06090,0.00000,0.03001,0.97588,-0.18764,0.0,2023,6,7,16,11,56,76
45.02240,-0.07595,0.00910,0.00000,0.02977,0.97746,-0.18837,0.0,2023,6,7,16,11,56,86
45.02250,-0.19845,0.16660,0.00000,0.03294,0.97881,-0.18593,0.0,2023,6,7,16,11,56,96
45.02260,-0.18095,0.06160,0.00000,0.03282,0.97539,-0.18764,0.0,2023,6,7,16,11,56,106
45.02270,-0.05845,0.02660,0.00000,0.03160,0.97661,-0.18703,0.0,2023,6,7,16,11,56,116
45.02280,-0.02345,0.04410,0.00000,0.03135,0.97722,-0.18800,0.0,2023,6,7,16,11,56,126
45.02290,-0.18095,-0.06090,0.00000,0.03282,0.97490,-0.18715,0.0,2023,6,7,16,11,56,136
45.02300,-0.00595,0.14910,0.00000,0.03148,0.97576,-0.18764,0.0,2023,6,7,16,11,56,146
45.02310,0.01155,0.00910,0.00000,0.03245,0.97612,-0.18605,0.0,2023,6,7,16,11,56,156
45.02320,-0.05845,0.14910,0.00000,0.03062,0.97710,-0.18739,0.0,2023,6,7,16,11,56,166
45.02330,-0.00595,0.04410,0.00000,0.03062,0.97795,-0.18873,0.0,2023,6,7,16,11,56,176
45.02340,0.15155,-0.09590,0.00000,0.03392,0.97600,-0.19044,0.0,2023,6,7,16,11,56,186
45.02350,-0.04095,0.07910,0.00000,0.03074,0.97600,-0.18312,0.0,2023,6,7,16,11,56,196
45.02360,-0.09345,-0.11340,0.00000,0.03318,0.97673,-0.18764,0.0,2023,6,7,16,11,56,206
45.02370,0.13405,0.06160,0.00000,0.02989,0.97673,-0.18581,0.0,2023,6,7,16,11,56,216
45.02380,0.04655,0.07910,0.00000,0.03062,0.97795,-0.18556,0.0,2023,6,7,16,11,56,226
45.02390,-0.04095,0.00910,0.00000,0.03184,0.97685,-0.18898,0.0,2023,6,7,16,11,56,236
45.02400,0.18655,-0.04340,0.00000,0.03196,0.97429,-0.18593,0.0,2023,6,7,16,11,56,246
45.02410,-0.23345,0.02660,0.00000,0.03099,0.97795,-0.18678,0.0,2023,6,7,16,11,56,256
45.02420,0.04655,-0.07840,0.00000,0.02977,0.97527,-0.18812,0.0,2023,6,7,16,11,56,266
45.02430,0.22155,0.23660,0.00000,0.03087,0.97698,-0.18776,0.0,2023,6,7,16,11,56,276
45.02440,-0.07595,0.07910,0.00000,0.03111,0.97527,-0.18764,0.0,2023,6,7,16,11,56,286
45.02450,0.06405,-0.18340,0.00000,0.03331,0.97637,-0.18666,0.0,2023,6,7,16,11,56,296
45.02460,-0.19845,0.11410,0.00000,0.03282,0.97722,-0.18654,0.0,2023,6,7,16,11,56,306
45.02470,0.04655,0.02660,0.00000,0.02843,0.97734,-0.18703,0.0,2023,6,7,16,11,56,316
45.02480,0.25655,0.06160,0.00000,0.03026,0.97673,-0.18617,0.0,2023,6,7,16,11,56,326
45.02490,-0.04095,0.02660,0.00000,0.03099,0.97771,-0.18581,0.0,2023,6,7,16,11,56,336
45.02500,-0.00595,0.11410,0.00000,0.03111,0.97649,-0.18739,0.0,2023,6,7,16,11,56,346
45.02510,0.09905,0.07910,0.00000,0.03196,0.97600,-0.18690,0.0,2023,6,7,16,11,56,356
45.02520,-0.05845,0.06160,0.00000,0.03501,0.97783,-0.18751,0.0,2023,6,7,16,11,56,366
45.02530,-0.28595,0.04410,0.00000,0.03172,0.97624,-0.18788,0.0,2023,6,7,16,11,56,376
45.02540,0.01155,-0.07840,0.00000,0.02977,0.97563,-0.18873,0.0,2023,6,7,16,11,56,386
45.02550,0.01155,-0.07840,0.00000,0.03221,0.97612,-0.18666,0.0,2023,6,7,16,11,56,396
45.02560,-0.11095,0.07910,0.00000,0.03123,0.97698,-0.18727,0.0,2023,6,7,16,11,56,406
45.02570,-0.04095,-0.07840,0.00000,0.03270,0.97649,-0.18581,0.0,2023,6,7,16,11,56,416
45.02580,-0.05845,-0.06090,0.00000,0.03099,0.97783,-0.18788,0.0,2023,6,7,16,11,56,426
45.02590,0.01155,-0.14840,0.00000,0.03026,0.97734,-0.18727,0.0,2023,6,7,16,11,56,436
45.02600,0.01155,-0.09590,0.00000,0.03123,0.97698,-0.18617,0.0,2023,6,7,16,11,56,446
45.02610,-0.07595,-0.02590,0.00000,0.03306,0.97673,-0.18507,0.0,2023,6,7,16,11,56,456
45.02620,-0.11095,0.04410,0.00000,0.03306,0.97563,-0.18947,0.0,2023,6,7,16,11,56,466
45.02630,-0.02345,0.20160,0.00000,0.03038,0.97624,-0.18593,0.0,2023,6,7,16,11,56,476
45.02640,0.02905,0.25410,0.00000,0.02989,0.97624,-0.18727,0.0,2023,6,7,16,11,56,486
45.02650,0.02905,0.02660,0.00000,0.03038,0.97698,-0.18751,0.0,2023,6,7,16,11,56,496
45.02660,-0.05845,0.00910,0.00000,0.03306,0.97576,-0.18910,0.0,2023,6,7,16,11,56,506
45.02670,0.08155,-0.00840,0.00000,0.03172,0.97588,-0.18983,0.0,2023,6,7,16,11,56,516
45.02680,-0.05845,-0.14840,0.00000,0.03416,0.97661,-0.18605,0.0,2023,6,7,16,11,56,526
45.02690,-0.11095,-0.04340,0.00000,0.03209,0.97685,-0.18666,0.0,2023,6,7,16,11,56,536
45.02700,0.01155,0.00910,0.00000,0.03111,0.97478,-0.18544,0.0,2023,6,7,16,11,56,546
45.02710,0.13405,-0.02590,0.00000,0.03160,0.97612,-0.18605,0.0,2023,6,7,16,11,56,556
45.02720,-0.14595,0.11410,0.00000,0.03087,0.97771,-0.18971,0.0,2023,6,7,16,11,56,566
45.02730,0.09905,-0.13090,0.00000,0.03209,0.97734,-0.19056,0.0,2023,6,7,16,11,56,576
45.02740,-0.19845,0.09660,0.00000,0.03282,0.97661,-0.18495,0.0,2023,6,7,16,11,56,586
45.02750,0.09905,-0.23590,0.00000,0.03160,0.97417,-0.18703,0.0,2023,6,7,16,11,56,596
45.02760,-0.05845,-0.07840,0.00000,0.03209,0.97844,-0.18544,0.0,2023,6,7,16,11,56,606
45.02770,0.01155,0.20160,0.00000,0.03148,0.97576,-0.18666,0.0,2023,6,7,16,11,56,616
