#2023/06/07 13:43:01
time,wx,wy,wz,ax,ay,az,yy,MM,dd,hh,mm,ss,ms
39.75750,0.19250,-0.05565,0.00000,0.03306,0.98149,-0.16104,0.0,2023,6,7,13,43,2,966
39.75760,-0.10500,0.04935,0.00000,0.03160,0.97905,-0.16336,0.0,2023,6,7,13,43,2,106
39.75770,0.14000,-0.10815,0.00000,0.03392,0.98308,-0.16275,0.0,2023,6,7,13,43,2,116
39.75780,0.05250,-0.09065,0.00000,0.03062,0.98161,-0.15982,0.0,2023,6,7,13,43,2,136
39.75790,0.12250,0.10185,0.00000,0.03367,0.98247,-0.16104,0.0,2023,6,7,13,43,2,166
39.75800,-0.15750,0.11935,0.00000,0.03245,0.98161,-0.16324,0.0,2023,6,7,13,43,2,206
39.75810,0.03500,-0.09065,0.00000,0.03465,0.98161,-0.16385,0.0,2023,6,7,13,43,2,256
39.75820,0.00000,0.08435,0.00000,0.03404,0.98015,-0.16372,0.0,2023,6,7,13,43,2,316
39.75830,0.01750,-0.05565,0.00000,0.03306,0.98454,-0.16153,0.0,2023,6,7,13,43,2,386
39.75840,-0.01750,0.04935,0.00000,0.03209,0.98247,-0.15921,0.0,2023,6,7,13,43,2,466
39.75850,-0.07000,-0.03815,0.00000,0.03355,0.98295,-0.16153,0.0,2023,6,7,13,43,2,556
39.75860,0.26250,-0.09065,0.00000,0.03245,0.98173,-0.16531,0.0,2023,6,7,13,43,2,656
39.75870,-0.15750,0.11935,0.00000,0.03367,0.98356,-0.15921,0.0,2023,6,7,13,43,2,766
39.75880,-0.01750,0.17185,0.00000,0.03099,0.98173,-0.16165,0.0,2023,6,7,13,43,2,886
39.75890,-0.03500,-0.07315,0.00000,0.03562,0.98271,-0.15860,0.0,2023,6,7,13,43,2,16
39.75900,0.00000,-0.00315,0.00000,0.02989,0.98259,-0.16275,0.0,2023,6,7,13,43,2,26
39.75910,0.00000,0.18935,0.00000,0.03355,0.98564,-0.16360,0.0,2023,6,7,13,43,2,46
39.75920,-0.08750,0.08435,0.00000,0.03294,0.98259,-0.16189,0.0,2023,6,7,13,43,2,76
39.75930,0.03500,-0.00315,0.00000,0.03148,0.98149,-0.16141,0.0,2023,6,7,13,43,2,116
39.75940,0.17500,-0.07315,0.00000,0.03135,0.98320,-0.16226,0.0,2023,6,7,13,43,2,166
39.75950,0.15750,-0.02065,0.00000,0.03026,0.98393,-0.16433,0.0,2023,6,7,13,43,2,226
39.75960,0.05250,-0.07315,0.00000,0.03001,0.98405,-0.16031,0.0,2023,6,7,13,43,2,296
39.75970,-0.12250,0.22435,0.00000,0.03111,0.98381,-0.16019,0.0,2023,6,7,13,43,2,376
39.75980,-0.05250,0.10185,0.00000,0.03306,0.98283,-0.16116,0.0,2023,6,7,13,43,2,466
39.75990,-0.05250,0.01435,0.00000,0.03660,0.98125,-0.15933,0.0,2023,6,7,13,43,2,566
39.76000,0.12250,-0.12565,0.00000,0.03477,0.98125,-0.16092,0.0,2023,6,7,13,43,2,676
39.76010,-0.19250,0.06685,0.00000,0.03221,0.98234,-0.15848,0.0,2023,6,7,13,43,2,796
39.76020,0.01750,0.15435,0.00000,0.03294,0.98271,-0.16336,0.0,2023,6,7,13,43,3,926
39.76030,0.17500,0.10185,0.00000,0.03062,0.98173,-0.16360,0.0,2023,6,7,13,43,3,66
39.76040,-0.07000,0.18935,0.00000,0.03306,0.97966,-0.15811,0.0,2023,6,7,13,43,3,76
39.76050,0.07000,0.08435,0.00000,0.03587,0.98320,-0.16092,0.0,2023,6,7,13,43,3,96
39.76060,-0.15750,-0.05565,0.00000,0.03355,0.98051,-0.16153,0.0,2023,6,7,13,43,3,126
39.76070,-0.08750,0.03185,0.00000,0.03428,0.98088,-0.16263,0.0,2023,6,7,13,43,3,166
39.76080,-0.12250,0.03185,0.00000,0.03392,0.98210,-0.15933,0.0,2023,6,7,13,43,3,216
39.76090,0.01750,-0.00315,0.00000,0.03331,0.98173,-0.15945,0.0,2023,6,7,13,43,3,276
39.76100,0.05250,-0.07315,0.00000,0.03367,0.97942,-0.16189,0.0,2023,6,7,13,43,3,346
39.76110,0.10500,-0.02065,0.00000,0.03306,0.98051,-0.16287,0.0,2023,6,7,13,43,3,426
39.76120,0.07000,-0.02065,0.00000,0.03172,0.98369,-0.16348,0.0,2023,6,7,13,43,3,516
39.76130,-0.01750,0.17185,0.00000,0.03233,0.98186,-0.16177,0.0,2023,6,7,13,43,3,616
39.76140,-0.21000,-0.10815,0.00000,0.03087,0.98369,-0.16263,0.0,2023,6,7,13,43,3,726
39.76150,0.05250,0.03185,0.00000,0.03477,0.98234,-0.16311,0.0,2023,6,7,13,43,3,846
39.76160,0.01750,-0.05565,0.00000,0.03404,0.98234,-0.16299,0.0,2023,6,7,13,43,3,976
39.76170,-0.01750,-0.02065,0.00000,0.03294,0.98271,-0.15726,0.0,2023,6,7,13,43,3,116
39.76180,-0.07000,-0.12565,0.00000,0.03294,0.97990,-0.15982,0.0,2023,6,7,13,43,3,126
39.76190,0.01750,0.08435,0.00000,0.03257,0.98051,-0.16128,0.0,2023,6,7,13,43,3,146
39.76200,-0.12250,0.22435,0.00000,0.03270,0.98210,-0.16153,0.0,2023,6,7,13,43,3,176
39.76210,0.08750,0.01435,0.00000,0.03245,0.98125,-0.16019,0.0,2023,6,7,13,43,3,216
39.76220,-0.03500,-0.07315,0.00000,0.03379,0.98137,-0.15970,0.0,2023,6,7,13,43,3,266
39.76230,0.12250,0.10185,0.00000,0.03331,0.98112,-0.16348,0.0,2023,6,7,13,43,3,326
39.76240,0.01750,-0.10815,0.00000,0.03416,0.98161,-0.16202,0.0,2023,6,7,13,43,3,396
39.76250,-0.05250,0.13685,0.00000,0.03123,0.98125,-0.16067,0.0,2023,6,7,13,43,3,476
39.76260,-0.01750,-0.05565,0.00000,0.03270,0.98295,-0.15775,0.0,2023,6,7,13,43,3,566
39.76270,0.01750,0.06685,0.00000,0.03233,0.97990,-0.15945,0.0,2023,6,7,13,43,3,666
39.76280,0.17500,0.08435,0.00000,0.03514,0.98076,-0.16311,0.0,2023,6,7,13,43,3,776
39.76290,-0.10500,-0.07315,0.00000,0.03270,0.98100,-0.16019,0.0,2023,6,7,13,43,3,896
39.76300,-0.15750,-0.09065,0.00000,0.03123,0.98234,-0.16006,0.0,2023,6,7,13,43,3,26
39.76310,0.00000,-0.02065,0.00000,0.03367,0.98198,-0.16043,0.0,2023,6,7,13,43,3,36
39.76320,0.03500,0.04935,0.00000,0.03428,0.98283,-0.16141,0.0,2023,6,7,13,43,3,56
39.76330,-0.07000,0.04935,0.00000,0.03355,0.98320,-0.15787,0.0,2023,6,7,13,43,3,86
39.76340,-0.05250,-0.05565,0.00000,0.03123,0.98222,-0.15836,0.0,2023,6,7,13,43,3,126
39.76350,-0.17500,-0.00315,0.00000,0.03367,0.98076,-0.15823,0.0,2023,6,7,13,43,3,176
39.76360,0.10500,-0.10815,0.00000,0.03257,0.98149,-0.16299,0.0,2023,6,7,13,43,3,236
39.76370,-0.01750,0.17185,0.00000,0.03343,0.97942,-0.16263,0.0,2023,6,7,13,43,3,306
39.76380,0.01750,0.04935,0.00000,0.03489,0.98149,-0.16006,0.0,2023,6,7,13,43,3,386
39.76390,-0.10500,-0.03815,0.00000,0.03172,0.98015,-0.16141,0.0,2023,6,7,13,43,3,476
39.76400,-0.12250,0.17185,0.00000,0.03233,0.98125,-0.16409,0.0,2023,6,7,13,43,3,576
39.76410,0.05250,-0.10815,0.00000,0.03318,0.97954,-0.16324,0.0,2023,6,7,13,43,3,686
39.76420,-0.01750,0.08435,0.00000,0.03245,0.98222,-0.16067,0.0,2023,6,7,13,43,3,806
39.76430,-0.07000,-0.03815,0.00000,0.03148,0.98125,-0.15970,0.0,2023,6,7,13,43,3,936
39.76440,-0.01750,-0.00315,0.00000,0.03221,0.97881,-0.16189,0.0,2023,6,7,13,43,3,76
39.76450,0.10500,-0.02065,0.00000,0.03367,0.98283,-0.16287,0.0,2023,6,7,13,43,3,86
39.76460,-0.07000,0.13685,0.00000,0.03172,0.98125,-0.16006,0.0,2023,6,7,13,43,3,106
39.76470,-0.14000,-0.00315,0.00000,0.03331,0.98149,-0.15823,0.0,2023,6,7,13,43,3,136
39.76480,0.07000,0.03185,0.00000,0.03196,0.98149,-0.16092,0.0,2023,6,7,13,43,3,176
39.76490,-0.24500,0.01435,0.00000,0.03440,0.98112,-0.16092,0.0,2023,6,7,13,43,3,226
39.76500,0.07000,-0.00315,0.00000,0.03001,0.97905,-0.16202,0.0,2023,6,7,13,43,3,286
39.76510,-0.26250,0.20685,0.00000,0.03270,0.98173,-0.15811,0.0,2023,6,7,13,43,3,356
39.76520,-0.03500,0.03185,0.00000,0.03367,0.98344,-0.16067,0.0,2023,6,7,13,43,3,436
39.76530,0.14000,-0.00315,0.00000,0.03416,0.98405,-0.15982,0.0,2023,6,7,13,43,3,526
39.76540,-0.14000,0.11935,0.00000,0.03257,0.98173,-0.16043,0.0,2023,6,7,13,43,3,626
39.76550,-0.19250,-0.05565,0.00000,0.03343,0.98247,-0.15860,0.0,2023,6,7,13,43,3,736
39.76560,0.08750,0.20685,0.00000,0.03294,0.98356,-0.16409,0.0,2023,6,7,13,43,3,856
39.76570,0.17500,-0.03815,0.00000,0.03172,0.98222,-0.16104,0.0,2023,6,7,13,43,3,986
39.76580,-0.10500,-0.05565,0.00000,0.03318,0.98234,-0.16299,0.0,2023,6,7,13,43,3,126
39.76590,0.07000,-0.05565,0.00000,0.03514,0.97966,-0.16141,0.0,2023,6,7,13,43,3,136
39.76600,0.00000,-0.02065,0.00000,0.03172,0.98210,-0.16202,0.0,2023,6,7,13,43,3,156
39.76610,-0.07000,0.20685,0.00000,0.03282,0.98369,-0.16348,0.0,2023,6,7,13,43,3,186
39.76620,0.10500,-0.16065,0.00000,0.03392,0.98478,-0.16263,0.0,2023,6,7,13,43,3,226
39.76630,-0.22750,0.03185,0.00000,0.03135,0.98442,-0.16153,0.0,2023,6,7,13,43,3,276
39.76640,0.07000,0.04935,0.00000,0.03221,0.97868,-0.16214,0.0,2023,6,7,13,43,3,336
39.76650,-0.01750,0.03185,0.00000,0.03257,0.98051,-0.16165,0.0,2023,6,7,13,43,3,406
39.76660,-0.08750,-0.02065,0.00000,0.03196,0.98210,-0.16116,0.0,2023,6,7,13,43,3,486
39.76670,0.10500,0.11935,0.00000,0.03148,0.98125,-0.16226,0.0,2023,6,7,13,43,3,576
39.76680,-0.07000,0.10185,0.00000,0.03416,0.97966,-0.16128,0.0,2023,6,7,13,43,3,676
39.76690,0.10500,0.06685,0.00000,0.03245,0.98161,-0.16019,0.0,2023,6,7,13,43,3,786
39.76700,-0.17500,-0.17815,0.00000,0.03221,0.98076,-0.16031,0.0,2023,6,7,13,43,3,906
39.76710,-0.07000,-0.12565,0.00000,0.03221,0.98369,-0.15897,0.0,2023,6,7,13,43,3,36
39.76720,-0.08750,-0.09065,0.00000,0.03209,0.98015,-0.16238,0.0,2023,6,7,13,43,3,46
39.76730,0.14000,0.08435,0.00000,0.03245,0.98466,-0.16360,0.0,2023,6,7,13,43,3,66
39.76740,-0.10500,0.18935,0.00000,0.03343,0.98381,-0.15628,0.0,2023,6,7,13,43,3,96
39.76750,-0.08750,-0.05565,0.00000,0.03074,0.98027,-0.15762,0.0,2023,6,7,13,43,3,136
39.76760,0.22750,-0.00315,0.00000,0.03087,0.98344,-0.15994,0.0,2023,6,7,13,43,3,186
39.76770,0.24500,0.01435,0.00000,0.03111,0.98125,-0.16080,0.0,2023,6,7,13,43,3,246
39.76780,-0.19250,0.18935,0.00000,0.03184,0.98112,-0.15872,0.0,2023,6,7,13,43,3,316
39.76790,0.05250,-0.14315,0.00000,0.03404,0.98161,-0.15860,0.0,2023,6,7,13,43,3,396
39.76800,0.08750,-0.05565,0.00000,0.03196,0.98320,-0.16165,0.0,2023,6,7,13,43,3,486
39.76810,-0.05250,-0.03815,0.00000,0.03453,0.98161,-0.16043,0.0,2023,6,7,13,43,3,586
39.76820,0.05250,-0.17815,0.00000,0.03221,0.98100,-0.15982,0.0,2023,6,7,13,43,3,696
39.76830,-0.07000,-0.21315,0.00000,0.03013,0.98271,-0.16311,0.0,2023,6,7,13,43,3,816
39.76840,0.08750,-0.00315,0.00000,0.03233,0.98161,-0.16311,0.0,2023,6,7,13,43,3,946
39.76850,0.00000,0.01435,0.00000,0.03257,0.98295,-0.15982,0.0,2023,6,7,13,43,3,86
39.76860,-0.12250,-0.07315,0.00000,0.03294,0.98100,-0.15884,0.0,2023,6,7,13,43,3,96
39.76870,0.03500,0.10185,0.00000,0.03148,0.98161,-0.16275,0.0,2023,6,7,13,43,3,116
39.76880,0.19250,0.01435,0.00000,0.03355,0.98283,-0.16385,0.0,2023,6,7,13,43,3,146
39.76890,-0.05250,-0.17815,0.00000,0.03318,0.98173,-0.16031,0.0,2023,6,7,13,43,3,186
39.76900,0.01750,0.03185,0.00000,0.03270,0.98356,-0.15909,0.0,2023,6,7,13,43,3,236
39.76910,0.19250,-0.09065,0.00000,0.03160,0.98295,-0.16263,0.0,2023,6,7,13,43,3,296
39.76920,0.14000,-0.12565,0.00000,0.03306,0.98259,-0.16311,0.0,2023,6,7,13,43,4,366
39.76930,0.10500,-0.02065,0.00000,0.03209,0.98003,-0.16189,0.0,2023,6,7,13,43,4,446
39.76940,-0.28000,0.36435,0.00000,0.03209,0.98283,-0.16019,0.0,2023,6,7,13,43,4,536
39.76950,0.03500,0.20685,0.00000,0.03331,0.98417,-0.16568,0.0,2023,6,7,13,43,4,636
39.76960,0.07000,-0.05565,0.00000,0.03196,0.98454,-0.16299,0.0,2023,6,7,13,43,4,746
39.76970,-0.05250,0.13685,0.00000,0.03196,0.98161,-0.15945,0.0,2023,6,7,13,43,4,866
39.76980,0.03500,-0.07315,0.00000,0.03087,0.98344,-0.16421,0.0,2023,6,7,13,43,4,996
39.76990,0.08750,-0.10815,0.00000,0.03196,0.98173,-0.16397,0.0,2023,6,7,13,43,4,136
39.77000,-0.03500,-0.07315,0.00000,0.03184,0.98039,-0.15933,0.0,2023,6,7,13,43,4,146
39.77010,-0.08750,0.11935,0.00000,0.03148,0.97905,-0.16031,0.0,2023,6,7,13,43,4,166
39.77020,0.00000,0.15435,0.00000,0.03501,0.98027,-0.15958,0.0,2023,6,7,13,43,4,196
39.77030,0.03500,-0.05565,0.00000,0.03404,0.98344,-0.16287,0.0,2023,6,7,13,43,4,236
39.77040,-0.14000,0.06685,0.00000,0.03355,0.97893,-0.16263,0.0,2023,6,7,13,43,4,286
39.77050,0.08750,-0.03815,0.00000,0.03209,0.98198,-0.15750,0.0,2023,6,7,13,43,4,346
39.77060,-0.03500,0.03185,0.00000,0.03306,0.98076,-0.15884,0.0,2023,6,7,13,43,4,416
39.77070,-0.05250,-0.05565,0.00000,0.03184,0.98149,-0.15994,0.0,2023,6,7,13,43,4,496
39.77080,0.15750,0.03185,0.00000,0.03294,0.98051,-0.15970,0.0,2023,6,7,13,43,4,586
39.77090,-0.10500,0.13685,0.00000,0.03111,0.98369,-0.16104,0.0,2023,6,7,13,43,4,686
39.77100,0.12250,-0.09065,0.00000,0.03428,0.97893,-0.16348,0.0,2023,6,7,13,43,4,796
39.77110,-0.07000,0.08435,0.00000,0.03245,0.98039,-0.16177,0.0,2023,6,7,13,43,4,916
39.77120,0.05250,-0.10815,0.00000,0.03331,0.98112,-0.15836,0.0,2023,6,7,13,43,4,46
39.77130,-0.07000,-0.05565,0.00000,0.03160,0.98417,-0.16250,0.0,2023,6,7,13,43,4,56
39.77140,-0.08750,0.01435,0.00000,0.03257,0.97832,-0.16019,0.0,2023,6,7,13,43,4,76
39.77150,-0.01750,0.11935,0.00000,0.03257,0.98039,-0.15860,0.0,2023,6,7,13,43,4,106
39.77160,-0.10500,0.18935,0.00000,0.03257,0.98247,-0.15970,0.0,2023,6,7,13,43,4,146
39.77170,0.12250,-0.12565,0.00000,0.03282,0.98173,-0.16299,0.0,2023,6,7,13,43,4,196
39.77180,-0.05250,-0.00315,0.00000,0.03111,0.98015,-0.16031,0.0,2023,6,7,13,43,4,256
39.77190,-0.05250,-0.03815,0.00000,0.03282,0.98234,-0.15799,0.0,2023,6,7,13,43,4,326
39.77200,-0.05250,-0.00315,0.00000,0.03453,0.98088,-0.16348,0.0,2023,6,7,13,43,4,406
39.77210,-0.05250,-0.21315,0.00000,0.03087,0.98137,-0.16116,0.0,2023,6,7,13,43,4,496
39.77220,-0.22750,-0.03815,0.00000,0.03331,0.98222,-0.15958,0.0,2023,6,7,13,43,4,596
39.77230,-0.14000,-0.12565,0.00000,0.03306,0.98210,-0.16458,0.0,2023,6,7,13,43,4,706
39.77240,-0.12250,-0.09065,0.00000,0.03087,0.98161,-0.16080,0.0,2023,6,7,13,43,4,826
39.77250,-0.17500,0.04935,0.00000,0.03318,0.98137,-0.16177,0.0,2023,6,7,13,43,4,956
39.77260,0.01750,-0.03815,0.00000,0.03465,0.98039,-0.15933,0.0,2023,6,7,13,43,4,96
39.77270,-0.05250,-0.02065,0.00000,0.03489,0.98186,-0.16409,0.0,2023,6,7,13,43,4,106
39.77280,0.05250,-0.09065,0.00000,0.03294,0.98137,-0.15994,0.0,2023,6,7,13,43,4,126
39.77290,-0.12250,0.06685,0.00000,0.03270,0.98088,-0.15982,0.0,2023,6,7,13,43,4,156
39.77300,-0.07000,0.06685,0.00000,0.03294,0.98539,-0.16421,0.0,2023,6,7,13,43,4,196
39.77310,0.12250,-0.14315,0.00000,0.03196,0.98027,-0.16580,0.0,2023,6,7,13,43,4,246
39.77320,-0.01750,-0.05565,0.00000,0.03416,0.98259,-0.16128,0.0,2023,6,7,13,43,4,306
39.77330,-0.01750,0.18935,0.00000,0.03270,0.98064,-0.15921,0.0,2023,6,7,13,43,4,376
39.77340,0.05250,0.01435,0.00000,0.03257,0.98442,-0.15958,0.0,2023,6,7,13,43,4,456
39.77350,0.15750,0.08435,0.00000,0.03404,0.98051,-0.16226,0.0,2023,6,7,13,43,4,546
39.77360,-0.19250,-0.16065,0.00000,0.03282,0.98125,-0.15823,0.0,2023,6,7,13,43,4,646
39.77370,-0.10500,-0.02065,0.00000,0.03294,0.98051,-0.15994,0.0,2023,6,7,13,43,4,756
39.77380,0.14000,-0.21315,0.00000,0.03465,0.98051,-0.16458,0.0,2023,6,7,13,43,4,876
39.77390,-0.12250,-0.00315,0.00000,0.03257,0.98247,-0.15799,0.0,2023,6,7,13,43,4,6
39.77400,-0.14000,-0.05565,0.00000,0.03392,0.98198,-0.16019,0.0,2023,6,7,13,43,4,16
39.77410,0.14000,-0.03815,0.00000,0.03636,0.98234,-0.16287,0.0,2023,6,7,13,43,4,36
39.77420,-0.08750,0.08435,0.00000,0.03526,0.98198,-0.16055,0.0,2023,6,7,13,43,4,66
39.77430,-0.07000,-0.07315,0.00000,0.03233,0.97990,-0.16189,0.0,2023,6,7,13,43,4,106
39.77440,0.00000,-0.14315,0.00000,0.03331,0.98271,-0.16006,0.0,2023,6,7,13,43,4,156
39.77450,0.01750,0.08435,0.00000,0.03245,0.98100,-0.16336,0.0,2023,6,7,13,43,4,216
39.77460,-0.19250,0.08435,0.00000,0.03294,0.98320,-0.15982,0.0,2023,6,7,13,43,4,286
39.77470,-0.10500,0.08435,0.00000,0.03257,0.98137,-0.15884,0.0,2023,6,7,13,43,4,366
39.77480,-0.08750,-0.09065,0.00000,0.03404,0.98222,-0.15823,0.0,2023,6,7,13,43,4,456
39.77490,-0.24500,0.24185,0.00000,0.03111,0.98295,-0.16226,0.0,2023,6,7,13,43,4,556
39.77500,-0.21000,-0.12565,0.00000,0.03160,0.97990,-0.15982,0.0,2023,6,7,13,43,4,666
39.77510,-0.05250,-0.16065,0.00000,0.03489,0.98003,-0.15945,0.0,2023,6,7,13,43,4,786
39.77520,-0.03500,-0.16065,0.00000,0.03148,0.98173,-0.16275,0.0,2023,6,7,13,43,4,916
39.77530,-0.03500,0.08435,0.00000,0.03196,0.97893,-0.15884,0.0,2023,6,7,13,43,4,56
39.77540,-0.03500,-0.10815,0.00000,0.03331,0.98417,-0.15823,0.0,2023,6,7,13,43,4,66
39.77550,0.15750,-0.02065,0.00000,0.03257,0.98039,-0.16116,0.0,2023,6,7,13,43,4,86
39.77560,-0.03500,0.13685,0.00000,0.03294,0.98247,-0.16165,0.0,2023,6,7,13,43,4,116
39.77570,-0.36750,0.27685,0.00000,0.03257,0.98295,-0.15884,0.0,2023,6,7,13,43,4,156
39.77580,0.12250,0.10185,0.00000,0.03392,0.98283,-0.16275,0.0,2023,6,7,13,43,4,206
39.77590,0.03500,-0.23065,0.00000,0.03331,0.97990,-0.16116,0.0,2023,6,7,13,43,4,266
39.77600,-0.07000,0.20685,0.00000,0.03379,0.98149,-0.15933,0.0,2023,6,7,13,43,4,336
39.77610,0.00000,-0.00315,0.00000,0.03257,0.98039,-0.15982,0.0,2023,6,7,13,43,4,416
39.77620,-0.12250,0.04935,0.00000,0.03099,0.98356,-0.16067,0.0,2023,6,7,13,43,4,506
39.77630,0.03500,0.06685,0.00000,0.03514,0.98173,-0.16092,0.0,2023,6,7,13,43,4,606
39.77640,0.07000,0.04935,0.00000,0.03160,0.97868,-0.15884,0.0,2023,6,7,13,43,4,716
39.77650,0.21000,-0.28315,0.00000,0.03196,0.97844,-0.15970,0.0,2023,6,7,13,43,4,836
39.77660,-0.14000,0.11935,0.00000,0.03392,0.98149,-0.16360,0.0,2023,6,7,13,43,4,966
39.77670,0.12250,-0.05565,0.00000,0.03294,0.98332,-0.16067,0.0,2023,6,7,13,43,4,106
39.77680,-0.07000,0.04935,0.00000,0.03416,0.98137,-0.16104,0.0,2023,6,7,13,43,4,116
39.77690,-0.01750,0.04935,0.00000,0.03148,0.98125,-0.15945,0.0,2023,6,7,13,43,4,136
39.77700,0.00000,-0.02065,0.00000,0.03270,0.98161,-0.15994,0.0,2023,6,7,13,43,4,166
39.77710,0.00000,-0.12565,0.00000,0.03379,0.98039,-0.16299,0.0,2023,6,7,13,43,4,206
39.77720,-0.01750,-0.16065,0.00000,0.03245,0.98064,-0.15982,0.0,2023,6,7,13,43,4,256
39.77730,0.28000,-0.17815,0.00000,0.03392,0.98210,-0.16031,0.0,2023,6,7,13,43,4,316
39.77740,-0.05250,-0.07315,0.00000,0.03245,0.98015,-0.16031,0.0,2023,6,7,13,43,4,386
39.77750,-0.17500,0.11935,0.00000,0.03160,0.98234,-0.15994,0.0,2023,6,7,13,43,4,466
39.77760,-0.01750,0.13685,0.00000,0.03245,0.98332,-0.15714,0.0,2023,6,7,13,43,4,556
39.77770,0.12250,0.06685,0.00000,0.03501,0.98320,-0.16080,0.0,2023,6,7,13,43,4,656
39.77780,0.07000,0.06685,0.00000,0.03550,0.98076,-0.16336,0.0,2023,6,7,13,43,4,766
39.77790,-0.01750,-0.03815,0.00000,0.03477,0.98064,-0.15775,0.0,2023,6,7,13,43,4,886
39.77800,-0.10500,-0.00315,0.00000,0.03087,0.98344,-0.16067,0.0,2023,6,7,13,43,4,16
39.77810,0.10500,0.06685,0.00000,0.03184,0.98112,-0.16409,0.0,2023,6,7,13,43,4,26
39.77820,-0.15750,-0.16065,0.00000,0.03111,0.98210,-0.15860,0.0,2023,6,7,13,43,5,46
39.77830,-0.15750,0.04935,0.00000,0.03245,0.98332,-0.16092,0.0,2023,6,7,13,43,5,76
39.77840,-0.01750,-0.02065,0.00000,0.03196,0.98222,-0.16019,0.0,2023,6,7,13,43,5,116
39.77850,0.15750,-0.09065,0.00000,0.03489,0.98381,-0.16153,0.0,2023,6,7,13,43,5,166
39.77860,0.08750,0.06685,0.00000,0.03270,0.98198,-0.16043,0.0,2023,6,7,13,43,5,226
39.77870,-0.03500,0.11935,0.00000,0.03099,0.98161,-0.16043,0.0,2023,6,7,13,43,5,296
39.77880,0.07000,0.06685,0.00000,0.03453,0.98308,-0.15933,0.0,2023,6,7,13,43,5,376
39.77890,0.01750,0.03185,0.00000,0.03404,0.98320,-0.16019,0.0,2023,6,7,13,43,5,466
39.77900,0.01750,0.06685,0.00000,0.03392,0.98161,-0.16250,0.0,2023,6,7,13,43,5,566
39.77910,0.07000,-0.05565,0.00000,0.03367,0.97966,-0.16128,0.0,2023,6,7,13,43,5,676
39.77920,-0.07000,-0.16065,0.00000,0.03184,0.98173,-0.15970,0.0,2023,6,7,13,43,5,796
39.77930,0.07000,0.04935,0.00000,0.03160,0.98161,-0.16092,0.0,2023,6,7,13,43,5,926
39.77940,-0.21000,0.17185,0.00000,0.03099,0.98283,-0.16238,0.0,2023,6,7,13,43,5,66
39.77950,0.00000,-0.21315,0.00000,0.03416,0.98088,-0.15860,0.0,2023,6,7,13,43,5,76
39.77960,-0.22750,0.17185,0.00000,0.03123,0.98295,-0.16104,0.0,2023,6,7,13,43,5,96
39.77970,0.08750,-0.03815,0.00000,0.03318,0.98186,-0.16238,0.0,2023,6,7,13,43,5,126
39.77980,0.00000,-0.24815,0.00000,0.03026,0.98015,-0.16055,0.0,2023,6,7,13,43,5,166
39.77990,-0.01750,0.03185,0.00000,0.03196,0.98234,-0.16104,0.0,2023,6,7,13,43,5,216
39.78000,0.01750,-0.21315,0.00000,0.03318,0.98222,-0.16067,0.0,2023,6,7,13,43,5,276
39.78010,0.03500,-0.02065,0.00000,0.03196,0.98332,-0.16250,0.0,2023,6,7,13,43,5,346
39.78020,0.03500,-0.02065,0.00000,0.03416,0.97966,-0.16043,0.0,2023,6,7,13,43,5,426
39.78030,-0.12250,-0.00315,0.00000,0.03428,0.98320,-0.16177,0.0,2023,6,7,13,43,5,516
39.78040,0.12250,-0.16065,0.00000,0.03270,0.98295,-0.16238,0.0,2023,6,7,13,43,5,616
39.78050,0.12250,-0.07315,0.00000,0.03379,0.98259,-0.16214,0.0,2023,6,7,13,43,5,726
39.78060,-0.05250,0.04935,0.00000,0.03343,0.98320,-0.15860,0.0,2023,6,7,13,43,5,846
39.78070,0.17500,0.01435,0.00000,0.03209,0.98320,-0.16226,0.0,2023,6,7,13,43,5,976
39.78080,0.14000,-0.09065,0.00000,0.03148,0.98015,-0.16287,0.0,2023,6,7,13,43,5,116
39.78090,-0.21000,0.04935,0.00000,0.03355,0.98076,-0.15945,0.0,2023,6,7,13,43,5,126
39.78100,-0.08750,0.04935,0.00000,0.03428,0.98076,-0.16043,0.0,2023,6,7,13,43,5,146
39.78110,0.21000,-0.00315,0.00000,0.03270,0.98161,-0.16067,0.0,2023,6,7,13,43,5,176
39.78120,-0.07000,0.10185,0.00000,0.03184,0.98064,-0.16189,0.0,2023,6,7,13,43,5,216
39.78130,0.03500,-0.12565,0.00000,0.03343,0.98344,-0.16080,0.0,2023,6,7,13,43,5,266
39.78140,-0.01750,-0.03815,0.00000,0.03270,0.98283,-0.16555,0.0,2023,6,7,13,43,5,326
39.78150,0.03500,0.01435,0.00000,0.03245,0.97966,-0.16275,0.0,2023,6,7,13,43,5,396
39.78160,0.05250,-0.03815,0.00000,0.03294,0.98137,-0.15909,0.0,2023,6,7,13,43,5,476
39.78170,0.29750,0.10185,0.00000,0.03294,0.98186,-0.16397,0.0,2023,6,7,13,43,5,566
39.78180,0.03500,0.03185,0.00000,0.03355,0.98112,-0.16336,0.0,2023,6,7,13,43,5,666
39.78190,-0.01750,0.04935,0.00000,0.03233,0.98051,-0.16238,0.0,2023,6,7,13,43,5,776
39.78200,0.03500,-0.23065,0.00000,0.03355,0.98198,-0.16189,0.0,2023,6,7,13,43,5,896
39.78210,0.22750,-0.14315,0.00000,0.03379,0.98247,-0.16360,0.0,2023,6,7,13,43,5,26
39.78220,0.14000,-0.00315,0.00000,0.03367,0.98149,-0.15872,0.0,2023,6,7,13,43,5,36
39.78230,-0.05250,-0.03815,0.00000,0.03257,0.98186,-0.15982,0.0,2023,6,7,13,43,5,56
39.78240,0.15750,-0.21315,0.00000,0.03184,0.98064,-0.16421,0.0,2023,6,7,13,43,5,86
39.78250,0.15750,0.03185,0.00000,0.03453,0.98234,-0.16421,0.0,2023,6,7,13,43,5,126
39.78260,0.01750,-0.10815,0.00000,0.03294,0.97954,-0.15701,0.0,2023,6,7,13,43,5,176
39.78270,-0.05250,0.04935,0.00000,0.03343,0.98210,-0.16250,0.0,2023,6,7,13,43,5,236
39.78280,-0.01750,-0.05565,0.00000,0.03294,0.98064,-0.16250,0.0,2023,6,7,13,43,5,306
39.78290,-0.15750,-0.02065,0.00000,0.03257,0.98064,-0.16055,0.0,2023,6,7,13,43,5,386
39.78300,-0.01750,-0.16065,0.00000,0.03111,0.98271,-0.15945,0.0,2023,6,7,13,43,5,476
39.78310,-0.15750,0.15435,0.00000,0.03416,0.98369,-0.16141,0.0,2023,6,7,13,43,5,576
39.78320,0.03500,-0.09065,0.00000,0.03257,0.98173,-0.16372,0.0,2023,6,7,13,43,5,686
39.78330,-0.17500,0.06685,0.00000,0.03367,0.98259,-0.16104,0.0,2023,6,7,13,43,5,806
39.78340,0.03500,-0.16065,0.00000,0.03135,0.98173,-0.16189,0.0,2023,6,7,13,43,5,936
39.78350,-0.10500,-0.19565,0.00000,0.03245,0.98027,-0.16214,0.0,2023,6,7,13,43,5,76
39.78360,0.00000,-0.02065,0.00000,0.03331,0.98125,-0.15701,0.0,2023,6,7,13,43,5,86
39.78370,0.01750,0.06685,0.00000,0.03355,0.98271,-0.16080,0.0,2023,6,7,13,43,5,106
39.78380,-0.03500,0.15435,0.00000,0.03257,0.98259,-0.16202,0.0,2023,6,7,13,43,5,136
39.78390,-0.12250,0.13685,0.00000,0.03306,0.98381,-0.16104,0.0,2023,6,7,13,43,5,176
39.78400,0.00000,0.17185,0.00000,0.03379,0.98100,-0.15897,0.0,2023,6,7,13,43,5,226
39.78410,0.05250,-0.02065,0.00000,0.03221,0.97966,-0.16128,0.0,2023,6,7,13,43,5,286
39.78420,0.08750,-0.00315,0.00000,0.03294,0.98173,-0.16604,0.0,2023,6,7,13,43,5,356
39.78430,0.24500,-0.00315,0.00000,0.03355,0.98283,-0.16372,0.0,2023,6,7,13,43,5,436
39.78440,0.03500,-0.00315,0.00000,0.03209,0.97893,-0.16299,0.0,2023,6,7,13,43,5,526
39.78450,0.03500,-0.03815,0.00000,0.03379,0.98210,-0.16092,0.0,2023,6,7,13,43,5,626
39.78460,-0.05250,-0.00315,0.00000,0.03294,0.98369,-0.16348,0.0,2023,6,7,13,43,5,736
39.78470,0.22750,-0.00315,0.00000,0.03318,0.97881,-0.16214,0.0,2023,6,7,13,43,5,856
39.78480,-0.05250,-0.09065,0.00000,0.03196,0.98393,-0.16031,0.0,2023,6,7,13,43,5,986
39.78490,0.05250,-0.09065,0.00000,0.03294,0.98173,-0.16250,0.0,2023,6,7,13,43,5,126
39.78500,0.12250,0.11935,0.00000,0.03196,0.98039,-0.16226,0.0,2023,6,7,13,43,5,136
39.78510,0.17500,-0.12565,0.00000,0.03355,0.98210,-0.16226,0.0,2023,6,7,13,43,5,156
39.78520,0.00000,-0.00315,0.00000,0.03221,0.98088,-0.16092,0.0,2023,6,7,13,43,5,186
39.78530,-0.05250,-0.03815,0.00000,0.03172,0.98283,-0.16263,0.0,2023,6,7,13,43,5,226
39.78540,0.05250,-0.09065,0.00000,0.03331,0.98356,-0.16470,0.0,2023,6,7,13,43,5,276
39.78550,0.05250,-0.03815,0.00000,0.03367,0.98356,-0.16128,0.0,2023,6,7,13,43,5,336
39.78560,-0.08750,0.11935,0.00000,0.03379,0.98161,-0.16189,0.0,2023,6,7,13,43,5,406
39.78570,-0.08750,0.08435,0.00000,0.03282,0.97942,-0.16055,0.0,2023,6,7,13,43,5,486
39.78580,0.12250,-0.14315,0.00000,0.03270,0.97917,-0.16336,0.0,2023,6,7,13,43,5,576
39.78590,-0.01750,0.15435,0.00000,0.03257,0.98308,-0.16177,0.0,2023,6,7,13,43,5,676
39.78600,-0.10500,-0.05565,0.00000,0.03428,0.98417,-0.16006,0.0,2023,6,7,13,43,5,786
39.78610,0.05250,-0.07315,0.00000,0.02977,0.98369,-0.16324,0.0,2023,6,7,13,43,5,906
39.78620,0.07000,-0.12565,0.00000,0.03379,0.97942,-0.15921,0.0,2023,6,7,13,43,5,36
39.78630,-0.03500,0.10185,0.00000,0.03209,0.98332,-0.16189,0.0,2023,6,7,13,43,5,46
39.78640,-0.05250,0.22435,0.00000,0.03355,0.98173,-0.16482,0.0,2023,6,7,13,43,5,66
39.78650,0.12250,-0.12565,0.00000,0.03257,0.97990,-0.16202,0.0,2023,6,7,13,43,5,96
39.78660,-0.14000,0.06685,0.00000,0.03270,0.98271,-0.15860,0.0,2023,6,7,13,43,5,136
39.78670,-0.05250,-0.16065,0.00000,0.03465,0.98552,-0.16031,0.0,2023,6,7,13,43,5,186
39.78680,0.08750,-0.05565,0.00000,0.03209,0.98100,-0.16299,0.0,2023,6,7,13,43,5,246
39.78690,-0.10500,-0.09065,0.00000,0.03416,0.98088,-0.16287,0.0,2023,6,7,13,43,5,316
39.78700,-0.08750,-0.03815,0.00000,0.03111,0.98064,-0.15994,0.0,2023,6,7,13,43,6,396
39.78710,0.03500,-0.07315,0.00000,0.03209,0.98320,-0.16177,0.0,2023,6,7,13,43,6,486
39.78720,0.21000,0.10185,0.00000,0.03416,0.98198,-0.16397,0.0,2023,6,7,13,43,6,586
39.78730,0.08750,-0.14315,0.00000,0.03306,0.98137,-0.16019,0.0,2023,6,7,13,43,6,696
39.78740,-0.03500,0.01435,0.00000,0.03184,0.98369,-0.16055,0.0,2023,6,7,13,43,6,816
39.78750,0.05250,0.01435,0.00000,0.02952,0.98332,-0.16226,0.0,2023,6,7,13,43,6,946
39.78760,0.07000,0.03185,0.00000,0.03465,0.98149,-0.16299,0.0,2023,6,7,13,43,6,86
39.78770,0.01750,-0.00315,0.00000,0.03355,0.98149,-0.16275,0.0,2023,6,7,13,43,6,96
39.78780,0.07000,-0.09065,0.00000,0.03379,0.97954,-0.16263,0.0,2023,6,7,13,43,6,116
39.78790,0.24500,-0.12565,0.00000,0.03404,0.98015,-0.16531,0.0,2023,6,7,13,43,6,146
39.78800,0.07000,-0.19565,0.00000,0.03209,0.98186,-0.16238,0.0,2023,6,7,13,43,6,186
39.78810,0.12250,-0.21315,0.00000,0.03501,0.98100,-0.15897,0.0,2023,6,7,13,43,6,236
39.78820,-0.15750,0.04935,0.00000,0.03184,0.98295,-0.16543,0.0,2023,6,7,13,43,6,296
39.78830,0.10500,-0.05565,0.00000,0.03331,0.98039,-0.16263,0.0,2023,6,7,13,43,6,366
39.78840,-0.01750,-0.28315,0.00000,0.03111,0.97990,-0.16067,0.0,2023,6,7,13,43,6,446
39.78850,0.24500,-0.12565,0.00000,0.03477,0.98344,-0.16519,0.0,2023,6,7,13,43,6,536
39.78860,0.19250,0.06685,0.00000,0.03184,0.98320,-0.16226,0.0,2023,6,7,13,43,6,636
39.78870,-0.10500,0.11935,0.00000,0.03453,0.98173,-0.16238,0.0,2023,6,7,13,43,6,746
39.78880,-0.01750,-0.00315,0.00000,0.03282,0.98100,-0.16202,0.0,2023,6,7,13,43,6,866
39.78890,0.21000,0.04935,0.00000,0.03123,0.98381,-0.16226,0.0,2023,6,7,13,43,6,996
39.78900,0.01750,-0.16065,0.00000,0.03209,0.98186,-0.16165,0.0,2023,6,7,13,43,6,136
39.78910,0.05250,0.11935,0.00000,0.03160,0.98222,-0.15933,0.0,2023,6,7,13,43,6,146
39.78920,0.12250,0.01435,0.00000,0.03160,0.98173,-0.16324,0.0,2023,6,7,13,43,6,166
39.78930,-0.05250,0.13685,0.00000,0.03184,0.98015,-0.16275,0.0,2023,6,7,13,43,6,196
39.78940,0.07000,-0.10815,0.00000,0.03318,0.98088,-0.16006,0.0,2023,6,7,13,43,6,236
39.78950,-0.10500,-0.00315,0.00000,0.03526,0.98125,-0.15933,0.0,2023,6,7,13,43,6,286
39.78960,0.05250,-0.09065,0.00000,0.03562,0.98320,-0.16348,0.0,2023,6,7,13,43,6,346
39.78970,-0.12250,0.11935,0.00000,0.03270,0.98039,-0.16043,0.0,2023,6,7,13,43,6,416
39.78980,0.14000,-0.09065,0.00000,0.03270,0.97990,-0.15958,0.0,2023,6,7,13,43,6,496
39.78990,-0.01750,0.11935,0.00000,0.03379,0.98283,-0.16226,0.0,2023,6,7,13,43,6,586
39.79000,0.10500,0.08435,0.00000,0.03550,0.98149,-0.16214,0.0,2023,6,7,13,43,6,686
39.79010,-0.05250,-0.00315,0.00000,0.03318,0.98417,-0.15909,0.0,2023,6,7,13,43,6,796
39.79020,-0.05250,-0.03815,0.00000,0.03379,0.98051,-0.15762,0.0,2023,6,7,13,43,6,916
39.79030,0.03500,0.15435,0.00000,0.03575,0.97990,-0.16250,0.0,2023,6,7,13,43,6,46
39.79040,-0.26250,0.10185,0.00000,0.03257,0.98198,-0.15933,0.0,2023,6,7,13,43,6,56
39.79050,-0.22750,-0.00315,0.00000,0.03233,0.98137,-0.15945,0.0,2023,6,7,13,43,6,76
39.79060,-0.19250,0.20685,0.00000,0.03209,0.97954,-0.15775,0.0,2023,6,7,13,43,6,106
39.79070,0.05250,0.08435,0.00000,0.03135,0.97966,-0.16043,0.0,2023,6,7,13,43,6,146
39.79080,0.10500,-0.02065,0.00000,0.03123,0.97954,-0.15799,0.0,2023,6,7,13,43,6,196
39.79090,0.07000,-0.19565,0.00000,0.03318,0.98430,-0.16165,0.0,2023,6,7,13,43,6,256
39.79100,0.07000,0.03185,0.00000,0.03367,0.98076,-0.16214,0.0,2023,6,7,13,43,6,326
39.79110,0.01750,-0.10815,0.00000,0.03331,0.98064,-0.16055,0.0,2023,6,7,13,43,6,406
39.79120,-0.08750,0.03185,0.00000,0.03172,0.97966,-0.16311,0.0,2023,6,7,13,43,6,496
39.79130,0.05250,-0.19565,0.00000,0.03355,0.97929,-0.16226,0.0,2023,6,7,13,43,6,596
39.79140,0.01750,-0.02065,0.00000,0.03379,0.98234,-0.15994,0.0,2023,6,7,13,43,6,706
39.79150,-0.05250,0.04935,0.00000,0.03123,0.98393,-0.15994,0.0,2023,6,7,13,43,6,826
39.79160,0.19250,0.13685,0.00000,0.03245,0.98198,-0.16141,0.0,2023,6,7,13,43,6,956
39.79170,-0.07000,-0.00315,0.00000,0.03257,0.98295,-0.15958,0.0,2023,6,7,13,43,6,96
39.79180,-0.05250,-0.09065,0.00000,0.03489,0.98210,-0.15823,0.0,2023,6,7,13,43,6,106
39.79190,-0.05250,0.03185,0.00000,0.03343,0.98308,-0.16165,0.0,2023,6,7,13,43,6,126
39.79200,-0.19250,0.06685,0.00000,0.03233,0.98247,-0.16019,0.0,2023,6,7,13,43,6,156
39.79210,-0.22750,0.01435,0.00000,0.03355,0.98222,-0.15762,0.0,2023,6,7,13,43,6,196
39.79220,-0.08750,0.17185,0.00000,0.03160,0.98320,-0.16189,0.0,2023,6,7,13,43,6,246
39.79230,0.01750,-0.24815,0.00000,0.03282,0.98210,-0.16006,0.0,2023,6,7,13,43,6,306
39.79240,-0.03500,0.04935,0.00000,0.03355,0.98234,-0.15897,0.0,2023,6,7,13,43,6,376
39.79250,0.07000,-0.09065,0.00000,0.03318,0.98210,-0.16141,0.0,2023,6,7,13,43,6,456
39.79260,0.12250,0.22435,0.00000,0.03294,0.98076,-0.16141,0.0,2023,6,7,13,43,6,546
39.79270,0.03500,-0.17815,0.00000,0.03196,0.98088,-0.16067,0.0,2023,6,7,13,43,6,646
39.79280,0.08750,-0.07315,0.00000,0.03111,0.98112,-0.15897,0.0,2023,6,7,13,43,6,756
39.79290,0.29750,-0.00315,0.00000,0.03148,0.98344,-0.16165,0.0,2023,6,7,13,43,6,876
39.79300,-0.10500,0.08435,0.00000,0.03294,0.98137,-0.15970,0.0,2023,6,7,13,43,6,6
39.79310,-0.12250,0.13685,0.00000,0.03221,0.98247,-0.15970,0.0,2023,6,7,13,43,6,16
39.79320,0.10500,-0.10815,0.00000,0.03196,0.98271,-0.16433,0.0,2023,6,7,13,43,6,36
39.79330,0.03500,0.18935,0.00000,0.03404,0.98112,-0.16092,0.0,2023,6,7,13,43,6,66
39.79340,-0.07000,0.08435,0.00000,0.03489,0.98369,-0.16128,0.0,2023,6,7,13,43,6,106
39.79350,-0.01750,0.13685,0.00000,0.03623,0.98259,-0.16043,0.0,2023,6,7,13,43,6,156
39.79360,0.22750,-0.03815,0.00000,0.03318,0.98125,-0.16214,0.0,2023,6,7,13,43,6,216
39.79370,0.05250,0.11935,0.00000,0.03257,0.98173,-0.16067,0.0,2023,6,7,13,43,6,286
39.79380,-0.14000,0.11935,0.00000,0.03392,0.98088,-0.16104,0.0,2023,6,7,13,43,6,366
39.79390,0.12250,-0.24815,0.00000,0.03294,0.98125,-0.16324,0.0,2023,6,7,13,43,6,456
39.79400,-0.01750,-0.09065,0.00000,0.03221,0.97990,-0.15909,0.0,2023,6,7,13,43,6,556
39.79410,0.19250,-0.17815,0.00000,0.03404,0.97978,-0.16019,0.0,2023,6,7,13,43,6,666
39.79420,0.03500,-0.10815,0.00000,0.03355,0.98295,-0.16324,0.0,2023,6,7,13,43,6,786
39.79430,-0.19250,-0.02065,0.00000,0.03331,0.97929,-0.15945,0.0,2023,6,7,13,43,6,916
39.79440,0.05250,-0.02065,0.00000,0.03257,0.98149,-0.16226,0.0,2023,6,7,13,43,6,56
39.79450,0.07000,0.13685,0.00000,0.03453,0.98466,-0.16311,0.0,2023,6,7,13,43,6,66
39.79460,0.00000,-0.02065,0.00000,0.03257,0.97881,-0.15836,0.0,2023,6,7,13,43,6,86
39.79470,-0.10500,-0.33565,0.00000,0.03148,0.98173,-0.16043,0.0,2023,6,7,13,43,6,116
39.79480,0.03500,-0.23065,0.00000,0.03477,0.97881,-0.16189,0.0,2023,6,7,13,43,6,156
39.79490,0.14000,-0.03815,0.00000,0.03428,0.98222,-0.16385,0.0,2023,6,7,13,43,6,206
39.79500,-0.03500,0.04935,0.00000,0.03221,0.98039,-0.15994,0.0,2023,6,7,13,43,6,266
39.79510,0.05250,-0.05565,0.00000,0.03428,0.98381,-0.15848,0.0,2023,6,7,13,43,6,336
39.79520,0.17500,-0.05565,0.00000,0.03270,0.97990,-0.16360,0.0,2023,6,7,13,43,6,416
39.79530,0.01750,0.01435,0.00000,0.03367,0.98222,-0.16067,0.0,2023,6,7,13,43,6,506
39.79540,-0.01750,-0.07315,0.00000,0.03404,0.98454,-0.16275,0.0,2023,6,7,13,43,6,606
39.79550,0.07000,-0.05565,0.00000,0.03331,0.98186,-0.16189,0.0,2023,6,7,13,43,6,716
39.79560,-0.21000,-0.07315,0.00000,0.03343,0.98295,-0.16409,0.0,2023,6,7,13,43,6,836
39.79570,-0.07000,0.03185,0.00000,0.03245,0.98112,-0.16141,0.0,2023,6,7,13,43,6,966
39.79580,0.05250,0.03185,0.00000,0.03160,0.98247,-0.16324,0.0,2023,6,7,13,43,6,106
39.79590,-0.05250,0.01435,0.00000,0.03294,0.98454,-0.16433,0.0,2023,6,7,13,43,6,116
39.79600,-0.17500,0.06685,0.00000,0.03135,0.98295,-0.15933,0.0,2023,6,7,13,43,7,136
39.79610,-0.07000,0.06685,0.00000,0.03270,0.98369,-0.16116,0.0,2023,6,7,13,43,7,166
39.79620,0.00000,0.34685,0.00000,0.03160,0.98064,-0.15860,0.0,2023,6,7,13,43,7,206
39.79630,0.10500,-0.07315,0.00000,0.03440,0.97893,-0.15921,0.0,2023,6,7,13,43,7,256
39.79640,0.03500,-0.03815,0.00000,0.03209,0.98039,-0.16250,0.0,2023,6,7,13,43,7,316
39.79650,0.40250,0.03185,0.00000,0.03428,0.98112,-0.16324,0.0,2023,6,7,13,43,7,386
39.79660,-0.12250,0.31185,0.00000,0.03404,0.98076,-0.16031,0.0,2023,6,7,13,43,7,466
39.79670,-0.08750,-0.03815,0.00000,0.03367,0.98369,-0.15921,0.0,2023,6,7,13,43,7,556
39.79680,-0.05250,-0.14315,0.00000,0.03355,0.98149,-0.16128,0.0,2023,6,7,13,43,7,656
39.79690,-0.12250,0.15435,0.00000,0.03196,0.98247,-0.16080,0.0,2023,6,7,13,43,7,766
39.79700,0.03500,-0.05565,0.00000,0.03294,0.97942,-0.15970,0.0,2023,6,7,13,43,7,886
39.79710,-0.05250,-0.12565,0.00000,0.03148,0.98051,-0.16324,0.0,2023,6,7,13,43,7,16
39.79720,0.01750,-0.03815,0.00000,0.03148,0.98454,-0.16165,0.0,2023,6,7,13,43,7,26
39.79730,-0.05250,-0.07315,0.00000,0.03148,0.97966,-0.15994,0.0,2023,6,7,13,43,7,46
39.79740,0.03500,0.06685,0.00000,0.03331,0.98161,-0.16372,0.0,2023,6,7,13,43,7,76
39.79750,0.07000,0.01435,0.00000,0.03221,0.98381,-0.16250,0.0,2023,6,7,13,43,7,116
39.79760,0.12250,0.04935,0.00000,0.03318,0.98027,-0.15909,0.0,2023,6,7,13,43,7,166
39.79770,0.01750,-0.00315,0.00000,0.03209,0.98369,-0.16348,0.0,2023,6,7,13,43,7,226
39.79780,0.17500,0.03185,0.00000,0.03270,0.98247,-0.16421,0.0,2023,6,7,13,43,7,296
39.79790,-0.01750,0.03185,0.00000,0.03440,0.97990,-0.16214,0.0,2023,6,7,13,43,7,376
39.79800,-0.05250,-0.00315,0.00000,0.03306,0.98173,-0.16019,0.0,2023,6,7,13,43,7,466
39.79810,0.15750,-0.16065,0.00000,0.03233,0.98234,-0.16348,0.0,2023,6,7,13,43,7,566
39.79820,0.05250,0.25935,0.00000,0.03148,0.98112,-0.16336,0.0,2023,6,7,13,43,7,676
39.79830,0.07000,-0.00315,0.00000,0.03404,0.98149,-0.15909,0.0,2023,6,7,13,43,7,796
39.79840,0.07000,-0.19565,0.00000,0.03331,0.98210,-0.16360,0.0,2023,6,7,13,43,7,926
39.79850,0.03500,0.06685,0.00000,0.03318,0.98100,-0.16311,0.0,2023,6,7,13,43,7,66
39.79860,0.10500,-0.05565,0.00000,0.03379,0.97990,-0.16348,0.0,2023,6,7,13,43,7,76
39.79870,0.03500,0.11935,0.00000,0.03111,0.98247,-0.15945,0.0,2023,6,7,13,43,7,96
39.79880,0.22750,-0.07315,0.00000,0.03282,0.98149,-0.16360,0.0,2023,6,7,13,43,7,126
39.79890,0.08750,0.13685,0.00000,0.03074,0.98210,-0.16446,0.0,2023,6,7,13,43,7,166
39.79900,-0.03500,0.10185,0.00000,0.03355,0.98039,-0.15945,0.0,2023,6,7,13,43,7,216
39.79910,0.00000,-0.02065,0.00000,0.03282,0.98186,-0.16080,0.0,2023,6,7,13,43,7,276
39.79920,-0.03500,0.04935,0.00000,0.03367,0.98332,-0.16409,0.0,2023,6,7,13,43,7,346
39.79930,0.12250,-0.02065,0.00000,0.03318,0.98051,-0.16080,0.0,2023,6,7,13,43,7,426
39.79940,-0.08750,0.11935,0.00000,0.03294,0.98210,-0.16055,0.0,2023,6,7,13,43,7,516
39.79950,-0.08750,0.08435,0.00000,0.03331,0.98003,-0.16141,0.0,2023,6,7,13,43,7,616
39.79960,0.14000,0.04935,0.00000,0.03233,0.98173,-0.16372,0.0,2023,6,7,13,43,7,726
39.79970,-0.05250,-0.17815,0.00000,0.03245,0.98210,-0.16092,0.0,2023,6,7,13,43,7,846
39.79980,-0.15750,0.22435,0.00000,0.03440,0.98295,-0.15933,0.0,2023,6,7,13,43,7,976
39.79990,0.29750,-0.16065,0.00000,0.03270,0.98173,-0.16080,0.0,2023,6,7,13,43,7,116
39.80000,-0.01750,0.06685,0.00000,0.03270,0.98271,-0.15945,0.0,2023,6,7,13,43,7,126
39.80010,-0.01750,-0.03815,0.00000,0.03453,0.98088,-0.16238,0.0,2023,6,7,13,43,7,146
39.80020,0.05250,-0.00315,0.00000,0.03477,0.98125,-0.16104,0.0,2023,6,7,13,43,7,176
39.80030,-0.03500,0.01435,0.00000,0.03282,0.98100,-0.16189,0.0,2023,6,7,13,43,7,216
39.80040,-0.15750,0.03185,0.00000,0.03367,0.98137,-0.15897,0.0,2023,6,7,13,43,7,266
39.80050,-0.03500,-0.00315,0.00000,0.03245,0.98112,-0.16116,0.0,2023,6,7,13,43,7,326
39.80060,0.19250,-0.09065,0.00000,0.03050,0.98417,-0.16214,0.0,2023,6,7,13,43,7,396
39.80070,-0.01750,-0.10815,0.00000,0.03209,0.98271,-0.16055,0.0,2023,6,7,13,43,7,476
39.80080,0.00000,-0.03815,0.00000,0.03440,0.98039,-0.16238,0.0,2023,6,7,13,43,7,566
39.80090,-0.05250,0.03185,0.00000,0.03209,0.98076,-0.16202,0.0,2023,6,7,13,43,7,666
39.80100,-0.03500,0.03185,0.00000,0.03209,0.98308,-0.16141,0.0,2023,6,7,13,43,7,776
39.80110,0.14000,0.03185,0.00000,0.03465,0.98210,-0.16433,0.0,2023,6,7,13,43,7,896
39.80120,0.14000,-0.02065,0.00000,0.03306,0.98576,-0.15982,0.0,2023,6,7,13,43,7,26
39.80130,0.15750,-0.03815,0.00000,0.03306,0.98051,-0.16177,0.0,2023,6,7,13,43,7,36
39.80140,0.14000,0.10185,0.00000,0.03538,0.98259,-0.16019,0.0,2023,6,7,13,43,7,56
39.80150,-0.07000,0.22435,0.00000,0.03257,0.98247,-0.15958,0.0,2023,6,7,13,43,7,86
39.80160,0.22750,-0.02065,0.00000,0.03087,0.98234,-0.15921,0.0,2023,6,7,13,43,7,126
39.80170,-0.14000,-0.14315,0.00000,0.03221,0.98100,-0.15884,0.0,2023,6,7,13,43,7,176
39.80180,-0.07000,-0.05565,0.00000,0.03257,0.98161,-0.15897,0.0,2023,6,7,13,43,7,236
39.80190,0.00000,-0.09065,0.00000,0.03123,0.98186,-0.16128,0.0,2023,6,7,13,43,7,306
39.80200,-0.10500,0.04935,0.00000,0.03440,0.98271,-0.15958,0.0,2023,6,7,13,43,7,386
39.80210,-0.03500,-0.09065,0.00000,0.03416,0.98295,-0.16043,0.0,2023,6,7,13,43,7,476
39.80220,0.12250,0.13685,0.00000,0.03318,0.98295,-0.16104,0.0,2023,6,7,13,43,7,576
39.80230,0.05250,-0.14315,0.00000,0.03209,0.97954,-0.16006,0.0,2023,6,7,13,43,7,686
39.80240,-0.15750,-0.10815,0.00000,0.03306,0.98222,-0.15994,0.0,2023,6,7,13,43,7,806
39.80250,-0.12250,0.18935,0.00000,0.03135,0.98210,-0.16263,0.0,2023,6,7,13,43,7,936
39.80260,-0.01750,0.11935,0.00000,0.03245,0.97905,-0.16128,0.0,2023,6,7,13,43,7,76
39.80270,0.14000,-0.00315,0.00000,0.03294,0.98088,-0.15836,0.0,2023,6,7,13,43,7,86
39.80280,0.08750,-0.14315,0.00000,0.03343,0.98259,-0.16494,0.0,2023,6,7,13,43,7,106
39.80290,-0.05250,-0.07315,0.00000,0.03331,0.98088,-0.16128,0.0,2023,6,7,13,43,7,136
39.80300,-0.14000,-0.03815,0.00000,0.03501,0.97978,-0.15677,0.0,2023,6,7,13,43,7,176
39.80310,0.17500,-0.16065,0.00000,0.03343,0.98430,-0.16324,0.0,2023,6,7,13,43,7,226
39.80320,-0.05250,0.11935,0.00000,0.03318,0.98100,-0.16067,0.0,2023,6,7,13,43,7,286
39.80330,0.05250,-0.03815,0.00000,0.03379,0.98308,-0.16214,0.0,2023,6,7,13,43,7,356
39.80340,-0.19250,0.01435,0.00000,0.03318,0.98234,-0.16299,0.0,2023,6,7,13,43,7,436
39.80350,0.05250,-0.07315,0.00000,0.03404,0.98259,-0.16360,0.0,2023,6,7,13,43,7,526
39.80360,0.01750,-0.14315,0.00000,0.03404,0.98100,-0.16031,0.0,2023,6,7,13,43,7,626
39.80370,-0.05250,0.06685,0.00000,0.03440,0.98356,-0.16153,0.0,2023,6,7,13,43,7,736
39.80380,0.00000,-0.12565,0.00000,0.03148,0.98430,-0.16494,0.0,2023,6,7,13,43,7,856
39.80390,0.08750,-0.05565,0.00000,0.03282,0.98430,-0.15836,0.0,2023,6,7,13,43,7,986
39.80400,0.05250,-0.19565,0.00000,0.03221,0.98234,-0.16019,0.0,2023,6,7,13,43,7,126
39.80410,0.03500,0.03185,0.00000,0.03245,0.97917,-0.16141,0.0,2023,6,7,13,43,7,136
39.80420,-0.03500,-0.21315,0.00000,0.03233,0.98088,-0.15848,0.0,2023,6,7,13,43,7,156
39.80430,-0.03500,-0.09065,0.00000,0.03257,0.98173,-0.16104,0.0,2023,6,7,13,43,7,186
39.80440,0.08750,0.20685,0.00000,0.03172,0.97881,-0.16189,0.0,2023,6,7,13,43,7,226
39.80450,-0.05250,0.06685,0.00000,0.03270,0.98491,-0.15970,0.0,2023,6,7,13,43,7,276
39.80460,0.00000,-0.09065,0.00000,0.03318,0.98198,-0.16031,0.0,2023,6,7,13,43,7,336
39.80470,-0.15750,0.03185,0.00000,0.03318,0.98210,-0.16153,0.0,2023,6,7,13,43,7,406
39.80480,0.17500,-0.14315,0.00000,0.03172,0.98259,-0.15787,0.0,2023,6,7,13,43,7,486
39.80490,0.05250,-0.14315,0.00000,0.03062,0.98149,-0.16177,0.0,2023,6,7,13,43,7,576
39.80500,0.03500,0.04935,0.00000,0.03367,0.98283,-0.16226,0.0,2023,6,7,13,43,7,676
39.80510,0.05250,0.06685,0.00000,0.03392,0.98076,-0.15836,0.0,2023,6,7,13,43,8,786
39.80520,-0.21000,-0.10815,0.00000,0.03453,0.98125,-0.15982,0.0,2023,6,7,13,43,8,906
39.80530,-0.01750,0.04935,0.00000,0.03294,0.98161,-0.16385,0.0,2023,6,7,13,43,8,36
39.80540,-0.01750,0.04935,0.00000,0.03294,0.98149,-0.15787,0.0,2023,6,7,13,43,8,46
39.80550,-0.05250,-0.03815,0.00000,0.03257,0.98320,-0.15945,0.0,2023,6,7,13,43,8,66
39.80560,0.08750,0.03185,0.00000,0.03221,0.98210,-0.16555,0.0,2023,6,7,13,43,8,96
39.80570,0.01750,0.04935,0.00000,0.03489,0.98393,-0.16031,0.0,2023,6,7,13,43,8,136
39.80580,-0.07000,-0.00315,0.00000,0.03209,0.98100,-0.16250,0.0,2023,6,7,13,43,8,186
39.80590,-0.10500,0.13685,0.00000,0.03379,0.98125,-0.16336,0.0,2023,6,7,13,43,8,246
39.80600,0.17500,-0.23065,0.00000,0.03050,0.98051,-0.16311,0.0,2023,6,7,13,43,8,316
39.80610,-0.12250,-0.09065,0.00000,0.03306,0.98173,-0.15884,0.0,2023,6,7,13,43,8,396
39.80620,0.01750,0.08435,0.00000,0.03404,0.98222,-0.16336,0.0,2023,6,7,13,43,8,486
39.80630,0.19250,-0.00315,0.00000,0.03135,0.97978,-0.16031,0.0,2023,6,7,13,43,8,586
39.80640,-0.05250,0.06685,0.00000,0.03245,0.98393,-0.16141,0.0,2023,6,7,13,43,8,696
39.80650,0.12250,0.03185,0.00000,0.03331,0.98210,-0.16214,0.0,2023,6,7,13,43,8,816
39.80660,-0.03500,0.15435,0.00000,0.03331,0.98283,-0.16299,0.0,2023,6,7,13,43,8,946
39.80670,0.17500,0.04935,0.00000,0.03184,0.98247,-0.16067,0.0,2023,6,7,13,43,8,86
39.80680,0.05250,0.01435,0.00000,0.03160,0.98381,-0.16385,0.0,2023,6,7,13,43,8,96
39.80690,-0.05250,0.17185,0.00000,0.03379,0.98271,-0.15982,0.0,2023,6,7,13,43,8,116
39.80700,-0.01750,-0.03815,0.00000,0.03392,0.98405,-0.16080,0.0,2023,6,7,13,43,8,146
39.80710,0.08750,-0.00315,0.00000,0.03209,0.98259,-0.16189,0.0,2023,6,7,13,43,8,186
39.80720,-0.12250,-0.16065,0.00000,0.03099,0.98454,-0.16299,0.0,2023,6,7,13,43,8,236
39.80730,-0.08750,-0.05565,0.00000,0.03282,0.98186,-0.15970,0.0,2023,6,7,13,43,8,296
39.80740,0.05250,-0.24815,0.00000,0.03343,0.98381,-0.16153,0.0,2023,6,7,13,43,8,366
39.80750,-0.03500,0.03185,0.00000,0.03355,0.98417,-0.16141,0.0,2023,6,7,13,43,8,446
39.80760,0.01750,-0.10815,0.00000,0.03184,0.98015,-0.16006,0.0,2023,6,7,13,43,8,536
39.80770,-0.07000,0.06685,0.00000,0.03172,0.98405,-0.16116,0.0,2023,6,7,13,43,8,636
39.80780,0.01750,0.24185,0.00000,0.02977,0.98308,-0.16189,0.0,2023,6,7,13,43,8,746
39.80790,0.19250,-0.10815,0.00000,0.03257,0.98076,-0.15970,0.0,2023,6,7,13,43,8,866
39.80800,0.12250,-0.14315,0.00000,0.03148,0.98003,-0.16116,0.0,2023,6,7,13,43,8,996
39.80810,0.21000,0.03185,0.00000,0.03294,0.98674,-0.16177,0.0,2023,6,7,13,43,8,136
39.80820,0.05250,-0.03815,0.00000,0.03343,0.98247,-0.16214,0.0,2023,6,7,13,43,8,146
39.80830,-0.03500,-0.00315,0.00000,0.03306,0.98381,-0.15860,0.0,2023,6,7,13,43,8,166
39.80840,0.14000,0.08435,0.00000,0.03379,0.98381,-0.16080,0.0,2023,6,7,13,43,8,196
39.80850,-0.10500,-0.17815,0.00000,0.03196,0.98247,-0.16202,0.0,2023,6,7,13,43,8,236
39.80860,-0.19250,-0.03815,0.00000,0.03343,0.98283,-0.16006,0.0,2023,6,7,13,43,8,286
39.80870,-0.01750,-0.03815,0.00000,0.03343,0.98417,-0.16409,0.0,2023,6,7,13,43,8,346
39.80880,0.00000,0.13685,0.00000,0.03233,0.98234,-0.15738,0.0,2023,6,7,13,43,8,416
39.80890,-0.19250,0.13685,0.00000,0.03245,0.98064,-0.16250,0.0,2023,6,7,13,43,8,496
39.80900,0.00000,-0.03815,0.00000,0.03270,0.98039,-0.16055,0.0,2023,6,7,13,43,8,586
39.80910,0.19250,0.10185,0.00000,0.03233,0.98125,-0.15958,0.0,2023,6,7,13,43,8,686
39.80920,-0.14000,-0.03815,0.00000,0.03355,0.97966,-0.16019,0.0,2023,6,7,13,43,8,796
39.80930,0.07000,0.01435,0.00000,0.03416,0.97966,-0.16092,0.0,2023,6,7,13,43,8,916
39.80940,0.05250,0.04935,0.00000,0.03209,0.98271,-0.15958,0.0,2023,6,7,13,43,8,46
39.80950,-0.07000,0.01435,0.00000,0.03196,0.97795,-0.15994,0.0,2023,6,7,13,43,8,56
39.80960,0.03500,0.15435,0.00000,0.03440,0.98393,-0.15921,0.0,2023,6,7,13,43,8,76
39.80970,0.10500,0.10185,0.00000,0.03221,0.98137,-0.15860,0.0,2023,6,7,13,43,8,106
39.80980,0.15750,-0.02065,0.00000,0.02904,0.98210,-0.15982,0.0,2023,6,7,13,43,8,146
39.80990,0.03500,-0.02065,0.00000,0.03172,0.98381,-0.16482,0.0,2023,6,7,13,43,8,196
39.81000,-0.05250,-0.14315,0.00000,0.03257,0.98125,-0.16006,0.0,2023,6,7,13,43,8,256
39.81010,-0.10500,-0.03815,0.00000,0.03343,0.98064,-0.15909,0.0,2023,6,7,13,43,8,326
39.81020,-0.07000,-0.05565,0.00000,0.03172,0.98430,-0.16299,0.0,2023,6,7,13,43,8,406
39.81030,0.03500,0.18935,0.00000,0.03294,0.98003,-0.16055,0.0,2023,6,7,13,43,8,496
39.81040,-0.26250,0.03185,0.00000,0.03221,0.98442,-0.15982,0.0,2023,6,7,13,43,8,596
39.81050,0.01750,-0.12565,0.00000,0.03379,0.98149,-0.16189,0.0,2023,6,7,13,43,8,706
39.81060,0.01750,0.10185,0.00000,0.03343,0.97929,-0.16165,0.0,2023,6,7,13,43,8,826
39.81070,0.00000,0.25935,0.00000,0.03111,0.98186,-0.15872,0.0,2023,6,7,13,43,8,956
39.81080,0.00000,-0.07315,0.00000,0.03270,0.98125,-0.15921,0.0,2023,6,7,13,43,8,96
39.81090,0.12250,0.13685,0.00000,0.03135,0.98271,-0.16507,0.0,2023,6,7,13,43,8,106
39.81100,0.08750,-0.14315,0.00000,0.03135,0.98186,-0.16043,0.0,2023,6,7,13,43,8,126
39.81110,0.00000,0.04935,0.00000,0.03196,0.98003,-0.15872,0.0,2023,6,7,13,43,8,156
39.81120,-0.07000,0.11935,0.00000,0.03343,0.98454,-0.16372,0.0,2023,6,7,13,43,8,196
39.81130,-0.05250,0.04935,0.00000,0.03501,0.98137,-0.16043,0.0,2023,6,7,13,43,8,246
39.81140,-0.17500,0.04935,0.00000,0.03087,0.98381,-0.16080,0.0,2023,6,7,13,43,8,306
39.81150,-0.05250,-0.10815,0.00000,0.03318,0.98149,-0.16214,0.0,2023,6,7,13,43,8,376
39.81160,0.28000,0.11935,0.00000,0.03282,0.97954,-0.16202,0.0,2023,6,7,13,43,8,456
39.81170,-0.03500,0.13685,0.00000,0.03257,0.98137,-0.16092,0.0,2023,6,7,13,43,8,546
39.81180,-0.03500,-0.00315,0.00000,0.03184,0.98308,-0.16092,0.0,2023,6,7,13,43,8,646
39.81190,0.10500,-0.26565,0.00000,0.03282,0.98039,-0.16153,0.0,2023,6,7,13,43,8,756
39.81200,0.01750,0.03185,0.00000,0.03148,0.98027,-0.15994,0.0,2023,6,7,13,43,8,876
39.81210,0.05250,0.10185,0.00000,0.03306,0.98234,-0.16043,0.0,2023,6,7,13,43,8,6
39.81220,0.05250,-0.09065,0.00000,0.03245,0.97966,-0.15921,0.0,2023,6,7,13,43,8,16
39.81230,-0.17500,-0.02065,0.00000,0.03636,0.98173,-0.15750,0.0,2023,6,7,13,43,8,36
39.81240,0.01750,0.13685,0.00000,0.03245,0.98332,-0.16214,0.0,2023,6,7,13,43,8,66
39.81250,-0.17500,0.01435,0.00000,0.03343,0.98137,-0.15811,0.0,2023,6,7,13,43,8,106
39.81260,0.00000,-0.05565,0.00000,0.03294,0.98308,-0.15872,0.0,2023,6,7,13,43,8,156
39.81270,-0.15750,0.06685,0.00000,0.03318,0.98015,-0.15872,0.0,2023,6,7,13,43,8,216
39.81280,-0.08750,0.01435,0.00000,0.03367,0.98051,-0.16153,0.0,2023,6,7,13,43,8,286
39.81290,-0.10500,-0.24815,0.00000,0.02952,0.98259,-0.15970,0.0,2023,6,7,13,43,8,366
39.81300,0.14000,0.13685,0.00000,0.03440,0.98369,-0.16238,0.0,2023,6,7,13,43,8,456
39.81310,0.07000,-0.10815,0.00000,0.03233,0.97942,-0.16043,0.0,2023,6,7,13,43,8,556
39.81320,0.08750,-0.00315,0.00000,0.03270,0.98015,-0.15726,0.0,2023,6,7,13,43,8,666
39.81330,0.29750,-0.00315,0.00000,0.03404,0.98466,-0.16250,0.0,2023,6,7,13,43,8,786
39.81340,0.10500,-0.10815,0.00000,0.03367,0.98430,-0.15958,0.0,2023,6,7,13,43,8,916
39.81350,-0.05250,-0.10815,0.00000,0.03428,0.97820,-0.15933,0.0,2023,6,7,13,43,8,56
39.81360,-0.01750,-0.00315,0.00000,0.03160,0.98271,-0.16128,0.0,2023,6,7,13,43,8,66
39.81370,0.10500,-0.17815,0.00000,0.03294,0.97978,-0.16165,0.0,2023,6,7,13,43,8,86
39.81380,-0.17500,0.01435,0.00000,0.03135,0.98125,-0.15982,0.0,2023,6,7,13,43,8,116
39.81390,0.14000,0.10185,0.00000,0.03416,0.98332,-0.16067,0.0,2023,6,7,13,43,8,156
39.81400,0.01750,0.10185,0.00000,0.03221,0.98210,-0.16043,0.0,2023,6,7,13,43,8,206
39.81410,-0.05250,0.15435,0.00000,0.03160,0.98039,-0.15689,0.0,2023,6,7,13,43,9,266
39.81420,0.45500,-0.12565,0.00000,0.03294,0.98466,-0.16128,0.0,2023,6,7,13,43,9,336
39.81430,0.14000,-0.23065,0.00000,0.03172,0.98088,-0.16189,0.0,2023,6,7,13,43,9,416
39.81440,0.00000,0.06685,0.00000,0.03221,0.98161,-0.16165,0.0,2023,6,7,13,43,9,506
39.81450,0.12250,-0.09065,0.00000,0.03440,0.98393,-0.16275,0.0,2023,6,7,13,43,9,606
39.81460,-0.17500,-0.07315,0.00000,0.03379,0.98356,-0.16189,0.0,2023,6,7,13,43,9,716
39.81470,-0.08750,-0.03815,0.00000,0.03233,0.98125,-0.15750,0.0,2023,6,7,13,43,9,836
39.81480,0.21000,-0.07315,0.00000,0.03355,0.98198,-0.16324,0.0,2023,6,7,13,43,9,966
39.81490,-0.01750,0.08435,0.00000,0.03343,0.98161,-0.16238,0.0,2023,6,7,13,43,9,106
39.81500,-0.17500,-0.02065,0.00000,0.03379,0.98173,-0.16031,0.0,2023,6,7,13,43,9,116
39.81510,0.01750,-0.00315,0.00000,0.03270,0.98271,-0.15945,0.0,2023,6,7,13,43,9,136
39.81520,0.08750,-0.23065,0.00000,0.03379,0.98125,-0.16067,0.0,2023,6,7,13,43,9,166
39.81530,-0.15750,-0.17815,0.00000,0.03148,0.98088,-0.15848,0.0,2023,6,7,13,43,9,206
39.81540,-0.03500,0.06685,0.00000,0.03306,0.98283,-0.16006,0.0,2023,6,7,13,43,9,256
39.81550,-0.03500,0.17185,0.00000,0.03392,0.98234,-0.15897,0.0,2023,6,7,13,43,9,316
39.81560,-0.21000,0.18935,0.00000,0.03148,0.98051,-0.15848,0.0,2023,6,7,13,43,9,386
39.81570,-0.03500,-0.21315,0.00000,0.03404,0.98295,-0.16250,0.0,2023,6,7,13,43,9,466
39.81580,-0.05250,-0.17815,0.00000,0.03196,0.98064,-0.16214,0.0,2023,6,7,13,43,9,556
39.81590,-0.12250,-0.03815,0.00000,0.03221,0.98039,-0.15982,0.0,2023,6,7,13,43,9,656
39.81600,-0.03500,0.03185,0.00000,0.03477,0.98271,-0.15787,0.0,2023,6,7,13,43,9,766
39.81610,0.03500,-0.07315,0.00000,0.03099,0.98088,-0.15921,0.0,2023,6,7,13,43,9,886
39.81620,0.01750,-0.05565,0.00000,0.03550,0.97905,-0.15970,0.0,2023,6,7,13,43,9,16
39.81630,0.03500,-0.07315,0.00000,0.03331,0.98430,-0.16128,0.0,2023,6,7,13,43,9,26
39.81640,0.14000,-0.00315,0.00000,0.03233,0.98356,-0.16324,0.0,2023,6,7,13,43,9,46
39.81650,0.00000,0.03185,0.00000,0.03294,0.98112,-0.15872,0.0,2023,6,7,13,43,9,76
39.81660,-0.08750,0.18935,0.00000,0.03050,0.98405,-0.15921,0.0,2023,6,7,13,43,9,116
39.81670,0.05250,0.01435,0.00000,0.03379,0.98064,-0.16299,0.0,2023,6,7,13,43,9,166
39.81680,-0.03500,-0.14315,0.00000,0.03294,0.98088,-0.15921,0.0,2023,6,7,13,43,9,226
39.81690,-0.22750,-0.12565,0.00000,0.03233,0.98356,-0.16287,0.0,2023,6,7,13,43,9,296
39.81700,-0.07000,0.10185,0.00000,0.03355,0.98088,-0.16397,0.0,2023,6,7,13,43,9,376
39.81710,0.07000,-0.03815,0.00000,0.03343,0.98210,-0.15884,0.0,2023,6,7,13,43,9,466
39.81720,0.03500,-0.00315,0.00000,0.03440,0.98186,-0.15897,0.0,2023,6,7,13,43,9,566
39.81730,0.01750,-0.09065,0.00000,0.02965,0.98259,-0.16067,0.0,2023,6,7,13,43,9,676
39.81740,-0.03500,0.03185,0.00000,0.03282,0.98295,-0.16128,0.0,2023,6,7,13,43,9,796
39.81750,-0.14000,0.04935,0.00000,0.03209,0.98064,-0.15836,0.0,2023,6,7,13,43,9,926
39.81760,0.03500,-0.17815,0.00000,0.03477,0.97856,-0.16397,0.0,2023,6,7,13,43,9,66
39.81770,0.14000,-0.09065,0.00000,0.03428,0.98149,-0.16116,0.0,2023,6,7,13,43,9,76
39.81780,0.12250,-0.17815,0.00000,0.03367,0.98344,-0.15909,0.0,2023,6,7,13,43,9,96
39.81790,-0.14000,-0.03815,0.00000,0.03355,0.98332,-0.16189,0.0,2023,6,7,13,43,9,126
39.81800,0.07000,0.17185,0.00000,0.03440,0.98064,-0.16372,0.0,2023,6,7,13,43,9,166
39.81810,-0.03500,-0.16065,0.00000,0.03306,0.97954,-0.15994,0.0,2023,6,7,13,43,9,216
39.81820,-0.07000,-0.23065,0.00000,0.03331,0.98295,-0.15921,0.0,2023,6,7,13,43,9,276
39.81830,0.12250,-0.09065,0.00000,0.03404,0.98308,-0.16299,0.0,2023,6,7,13,43,9,346
39.81840,-0.07000,-0.00315,0.00000,0.03367,0.98112,-0.16531,0.0,2023,6,7,13,43,9,426
39.81850,0.01750,0.01435,0.00000,0.03172,0.97990,-0.15921,0.0,2023,6,7,13,43,9,516
39.81860,0.10500,-0.02065,0.00000,0.03428,0.98454,-0.16287,0.0,2023,6,7,13,43,9,616
39.81870,0.28000,-0.03815,0.00000,0.03453,0.98186,-0.16336,0.0,2023,6,7,13,43,9,726
39.81880,-0.12250,-0.16065,0.00000,0.03245,0.98027,-0.15909,0.0,2023,6,7,13,43,9,846
39.81890,-0.07000,0.04935,0.00000,0.03501,0.98381,-0.16238,0.0,2023,6,7,13,43,9,976
39.81900,-0.01750,-0.14315,0.00000,0.03209,0.98088,-0.16458,0.0,2023,6,7,13,43,9,116
39.81910,0.10500,0.08435,0.00000,0.03306,0.98100,-0.16006,0.0,2023,6,7,13,43,9,126
39.81920,-0.01750,-0.07315,0.00000,0.03392,0.98320,-0.15677,0.0,2023,6,7,13,43,9,146
39.81930,-0.03500,-0.07315,0.00000,0.03355,0.98198,-0.16226,0.0,2023,6,7,13,43,9,176
39.81940,0.00000,0.13685,0.00000,0.03050,0.98234,-0.16250,0.0,2023,6,7,13,43,9,216
39.81950,-0.12250,0.06685,0.00000,0.03343,0.97990,-0.15958,0.0,2023,6,7,13,43,9,266
39.81960,0.01750,-0.14315,0.00000,0.03477,0.98247,-0.16006,0.0,2023,6,7,13,43,9,326
39.81970,-0.01750,0.10185,0.00000,0.02977,0.98137,-0.16348,0.0,2023,6,7,13,43,9,396
39.81980,-0.14000,-0.00315,0.00000,0.03233,0.98259,-0.16080,0.0,2023,6,7,13,43,9,476
39.81990,0.03500,0.15435,0.00000,0.03428,0.98222,-0.16519,0.0,2023,6,7,13,43,9,566
39.82000,0.10500,-0.12565,0.00000,0.03123,0.98259,-0.16067,0.0,2023,6,7,13,43,9,666
39.82010,0.08750,-0.21315,0.00000,0.03306,0.98247,-0.15872,0.0,2023,6,7,13,43,9,776
39.82020,-0.24500,0.03185,0.00000,0.03343,0.98100,-0.16116,0.0,2023,6,7,13,43,9,896
39.82030,0.00000,0.32935,0.00000,0.03331,0.98112,-0.16372,0.0,2023,6,7,13,43,9,26
39.82040,-0.01750,-0.02065,0.00000,0.03233,0.98222,-0.16006,0.0,2023,6,7,13,43,9,36
39.82050,-0.21000,0.18935,0.00000,0.03331,0.98344,-0.15775,0.0,2023,6,7,13,43,9,56
39.82060,-0.05250,-0.09065,0.00000,0.03294,0.98320,-0.15982,0.0,2023,6,7,13,43,9,86
39.82070,0.15750,-0.10815,0.00000,0.03343,0.98100,-0.16226,0.0,2023,6,7,13,43,9,126
39.82080,0.03500,0.03185,0.00000,0.03428,0.98064,-0.16080,0.0,2023,6,7,13,43,9,176
39.82090,0.19250,0.08435,0.00000,0.03160,0.98393,-0.16409,0.0,2023,6,7,13,43,9,236
39.82100,-0.12250,-0.05565,0.00000,0.03196,0.98308,-0.16116,0.0,2023,6,7,13,43,9,306
39.82110,-0.15750,0.03185,0.00000,0.03062,0.98039,-0.15714,0.0,2023,6,7,13,43,9,386
39.82120,0.00000,-0.14315,0.00000,0.03489,0.98210,-0.15823,0.0,2023,6,7,13,43,9,476
39.82130,0.08750,0.03185,0.00000,0.03282,0.98271,-0.16116,0.0,2023,6,7,13,43,9,576
39.82140,0.00000,0.10185,0.00000,0.03379,0.97990,-0.15945,0.0,2023,6,7,13,43,9,686
39.82150,0.14000,-0.19565,0.00000,0.03050,0.98234,-0.15921,0.0,2023,6,7,13,43,9,806
39.82160,0.12250,-0.05565,0.00000,0.03343,0.98539,-0.16336,0.0,2023,6,7,13,43,9,936
39.82170,-0.07000,0.15435,0.00000,0.03282,0.98051,-0.15933,0.0,2023,6,7,13,43,9,76
39.82180,-0.07000,-0.14315,0.00000,0.03221,0.98027,-0.15945,0.0,2023,6,7,13,43,9,86
39.82190,-0.03500,-0.00315,0.00000,0.03392,0.98222,-0.16128,0.0,2023,6,7,13,43,9,106
39.82200,0.07000,0.08435,0.00000,0.03440,0.98161,-0.16092,0.0,2023,6,7,13,43,9,136
39.82210,0.01750,0.04935,0.00000,0.03428,0.98259,-0.16092,0.0,2023,6,7,13,43,9,176
39.82220,0.01750,0.08435,0.00000,0.03428,0.98186,-0.16214,0.0,2023,6,7,13,43,9,226
39.82230,0.14000,-0.05565,0.00000,0.03160,0.98064,-0.16555,0.0,2023,6,7,13,43,9,286
39.82240,0.21000,-0.07315,0.00000,0.03148,0.98015,-0.15872,0.0,2023,6,7,13,43,9,356
39.82250,0.07000,-0.24815,0.00000,0.03294,0.98015,-0.15994,0.0,2023,6,7,13,43,9,436
39.82260,0.24500,0.27685,0.00000,0.03111,0.98125,-0.15994,0.0,2023,6,7,13,43,9,526
39.82270,-0.08750,-0.31815,0.00000,0.03331,0.98064,-0.15958,0.0,2023,6,7,13,43,9,626
39.82280,0.10500,-0.05565,0.00000,0.03099,0.98344,-0.16202,0.0,2023,6,7,13,43,9,736
39.82290,0.17500,0.08435,0.00000,0.03355,0.98332,-0.16421,0.0,2023,6,7,13,43,9,856
39.82300,0.15750,-0.09065,0.00000,0.03111,0.98125,-0.15970,0.0,2023,6,7,13,43,9,986
39.82310,-0.21000,0.06685,0.00000,0.03294,0.98259,-0.15897,0.0,2023,6,7,13,43,10,126
39.82320,0.07000,-0.00315,0.00000,0.03087,0.98222,-0.16348,0.0,2023,6,7,13,43,10,136
39.82330,0.24500,-0.03815,0.00000,0.03367,0.98259,-0.16324,0.0,2023,6,7,13,43,10,156
39.82340,0.10500,0.10185,0.00000,0.03245,0.98039,-0.16250,0.0,2023,6,7,13,43,10,186
39.82350,0.08750,-0.02065,0.00000,0.03428,0.98308,-0.16165,0.0,2023,6,7,13,43,10,226
39.82360,0.19250,0.06685,0.00000,0.03282,0.98369,-0.16421,0.0,2023,6,7,13,43,10,276
39.82370,0.01750,-0.03815,0.00000,0.03257,0.98369,-0.16202,0.0,2023,6,7,13,43,10,336
39.82380,0.19250,0.04935,0.00000,0.03209,0.98064,-0.16080,0.0,2023,6,7,13,43,10,406
39.82390,0.01750,-0.05565,0.00000,0.03257,0.98393,-0.16275,0.0,2023,6,7,13,43,10,486
39.82400,0.03500,-0.21315,0.00000,0.03343,0.98112,-0.16287,0.0,2023,6,7,13,43,10,576
39.82410,-0.10500,-0.14315,0.00000,0.03355,0.98137,-0.16287,0.0,2023,6,7,13,43,10,676
39.82420,0.05250,0.06685,0.00000,0.03355,0.98344,-0.16165,0.0,2023,6,7,13,43,10,786
39.82430,0.12250,0.08435,0.00000,0.03172,0.97905,-0.15921,0.0,2023,6,7,13,43,10,906
39.82440,-0.19250,-0.05565,0.00000,0.03416,0.98064,-0.15787,0.0,2023,6,7,13,43,10,36
39.82450,0.08750,-0.05565,0.00000,0.03416,0.98564,-0.16153,0.0,2023,6,7,13,43,10,46
39.82460,0.21000,0.03185,0.00000,0.03294,0.98283,-0.16006,0.0,2023,6,7,13,43,10,66
39.82470,-0.05250,-0.00315,0.00000,0.03404,0.98039,-0.16055,0.0,2023,6,7,13,43,10,96
39.82480,0.36750,-0.05565,0.00000,0.03428,0.98283,-0.16080,0.0,2023,6,7,13,43,10,136
39.82490,0.08750,0.08435,0.00000,0.03294,0.98149,-0.15958,0.0,2023,6,7,13,43,10,186
39.82500,-0.21000,0.13685,0.00000,0.03196,0.98210,-0.16092,0.0,2023,6,7,13,43,10,246
39.82510,-0.14000,-0.10815,0.00000,0.03526,0.98247,-0.16019,0.0,2023,6,7,13,43,10,316
39.82520,-0.08750,0.04935,0.00000,0.03099,0.98027,-0.16202,0.0,2023,6,7,13,43,10,396
39.82530,-0.01750,-0.17815,0.00000,0.03148,0.98015,-0.16104,0.0,2023,6,7,13,43,10,486
39.82540,0.17500,-0.14315,0.00000,0.03160,0.98283,-0.16141,0.0,2023,6,7,13,43,10,586
39.82550,-0.01750,-0.09065,0.00000,0.03318,0.98125,-0.16311,0.0,2023,6,7,13,43,10,696
39.82560,-0.15750,-0.05565,0.00000,0.03172,0.98234,-0.16214,0.0,2023,6,7,13,43,10,816
39.82570,-0.01750,0.04935,0.00000,0.03111,0.98222,-0.16141,0.0,2023,6,7,13,43,10,946
39.82580,0.10500,0.10185,0.00000,0.03331,0.97954,-0.16202,0.0,2023,6,7,13,43,10,86
39.82590,-0.03500,0.11935,0.00000,0.03404,0.98405,-0.16348,0.0,2023,6,7,13,43,10,96
39.82600,-0.14000,0.11935,0.00000,0.03355,0.97771,-0.15823,0.0,2023,6,7,13,43,10,116
39.82610,0.17500,-0.05565,0.00000,0.03489,0.98100,-0.16421,0.0,2023,6,7,13,43,10,146
39.82620,0.03500,-0.16065,0.00000,0.03355,0.98173,-0.15982,0.0,2023,6,7,13,43,10,186
39.82630,-0.10500,-0.07315,0.00000,0.03453,0.98100,-0.16360,0.0,2023,6,7,13,43,10,236
39.82640,-0.03500,0.06685,0.00000,0.03148,0.98259,-0.16580,0.0,2023,6,7,13,43,10,296
39.82650,-0.01750,-0.02065,0.00000,0.03221,0.98161,-0.16067,0.0,2023,6,7,13,43,10,366
39.82660,0.17500,-0.10815,0.00000,0.03318,0.98417,-0.16165,0.0,2023,6,7,13,43,10,446
39.82670,0.07000,0.13685,0.00000,0.03233,0.98173,-0.16397,0.0,2023,6,7,13,43,10,536
39.82680,0.05250,-0.14315,0.00000,0.03196,0.98186,-0.16470,0.0,2023,6,7,13,43,10,636
39.82690,0.00000,0.04935,0.00000,0.02989,0.98320,-0.16128,0.0,2023,6,7,13,43,10,746
39.82700,0.15750,0.10185,0.00000,0.03233,0.98308,-0.16238,0.0,2023,6,7,13,43,10,866
39.82710,-0.12250,0.03185,0.00000,0.03233,0.98259,-0.16458,0.0,2023,6,7,13,43,10,996
39.82720,-0.03500,-0.03815,0.00000,0.03355,0.98259,-0.16287,0.0,2023,6,7,13,43,10,136
39.82730,0.03500,0.31185,0.00000,0.03367,0.98332,-0.16372,0.0,2023,6,7,13,43,10,146
39.82740,0.17500,-0.07315,0.00000,0.03099,0.98088,-0.15848,0.0,2023,6,7,13,43,10,166
39.82750,-0.07000,-0.05565,0.00000,0.03148,0.98039,-0.15945,0.0,2023,6,7,13,43,10,196
39.82760,0.00000,-0.09065,0.00000,0.03270,0.98247,-0.16336,0.0,2023,6,7,13,43,10,236
39.82770,0.00000,-0.02065,0.00000,0.03306,0.98027,-0.15921,0.0,2023,6,7,13,43,10,286
39.82780,-0.22750,0.13685,0.00000,0.03233,0.98283,-0.15872,0.0,2023,6,7,13,43,10,346
39.82790,0.12250,-0.09065,0.00000,0.03233,0.98186,-0.16470,0.0,2023,6,7,13,43,10,416
39.82800,-0.15750,0.10185,0.00000,0.03379,0.98137,-0.16177,0.0,2023,6,7,13,43,10,496
39.82810,0.08750,-0.16065,0.00000,0.03465,0.98405,-0.15811,0.0,2023,6,7,13,43,10,586
39.82820,0.05250,-0.09065,0.00000,0.03282,0.98247,-0.16263,0.0,2023,6,7,13,43,10,686
39.82830,-0.12250,0.06685,0.00000,0.03282,0.97929,-0.16116,0.0,2023,6,7,13,43,10,796
39.82840,0.12250,0.08435,0.00000,0.03172,0.98137,-0.16128,0.0,2023,6,7,13,43,10,916
39.82850,0.08750,-0.02065,0.00000,0.03282,0.97990,-0.16165,0.0,2023,6,7,13,43,10,46
39.82860,0.01750,0.03185,0.00000,0.03184,0.98308,-0.16092,0.0,2023,6,7,13,43,10,56
39.82870,0.07000,-0.16065,0.00000,0.03087,0.98186,-0.16165,0.0,2023,6,7,13,43,10,76
39.82880,0.10500,-0.09065,0.00000,0.03245,0.98173,-0.16360,0.0,2023,6,7,13,43,10,106
39.82890,0.05250,-0.05565,0.00000,0.03392,0.97954,-0.16226,0.0,2023,6,7,13,43,10,146
39.82900,-0.22750,-0.03815,0.00000,0.03160,0.98015,-0.15994,0.0,2023,6,7,13,43,10,196
39.82910,-0.01750,-0.05565,0.00000,0.03538,0.98222,-0.16189,0.0,2023,6,7,13,43,10,256
39.82920,0.08750,0.08435,0.00000,0.03648,0.98186,-0.16080,0.0,2023,6,7,13,43,10,326
39.82930,-0.10500,0.24185,0.00000,0.03392,0.98064,-0.15909,0.0,2023,6,7,13,43,10,406
39.82940,0.07000,-0.00315,0.00000,0.03123,0.98442,-0.16043,0.0,2023,6,7,13,43,10,496
39.82950,-0.14000,0.10185,0.00000,0.03379,0.98295,-0.16214,0.0,2023,6,7,13,43,10,596
39.82960,-0.01750,-0.09065,0.00000,0.03270,0.98015,-0.16080,0.0,2023,6,7,13,43,10,706
39.82970,-0.15750,0.03185,0.00000,0.03367,0.98198,-0.16019,0.0,2023,6,7,13,43,10,826
39.82980,0.10500,-0.05565,0.00000,0.03355,0.98308,-0.15933,0.0,2023,6,7,13,43,10,956
39.82990,-0.17500,-0.03815,0.00000,0.03355,0.98088,-0.15945,0.0,2023,6,7,13,43,10,96
39.83000,0.01750,-0.21315,0.00000,0.03379,0.98015,-0.16043,0.0,2023,6,7,13,43,10,106
39.83010,-0.03500,0.01435,0.00000,0.03331,0.98247,-0.16275,0.0,2023,6,7,13,43,10,126
39.83020,-0.12250,0.06685,0.00000,0.03379,0.98186,-0.15775,0.0,2023,6,7,13,43,10,156
39.83030,-0.10500,-0.02065,0.00000,0.03489,0.98198,-0.15909,0.0,2023,6,7,13,43,10,196
39.83040,0.26250,-0.17815,0.00000,0.03367,0.98308,-0.15994,0.0,2023,6,7,13,43,10,246
39.83050,0.19250,-0.05565,0.00000,0.03379,0.98064,-0.16067,0.0,2023,6,7,13,43,10,306
39.83060,0.07000,-0.10815,0.00000,0.03184,0.98003,-0.15897,0.0,2023,6,7,13,43,10,376
39.83070,0.01750,-0.14315,0.00000,0.03379,0.98039,-0.16067,0.0,2023,6,7,13,43,10,456
39.83080,-0.15750,0.18935,0.00000,0.03440,0.98369,-0.16092,0.0,2023,6,7,13,43,10,546
39.83090,-0.08750,0.06685,0.00000,0.03392,0.98015,-0.16043,0.0,2023,6,7,13,43,10,646
39.83100,-0.08750,0.03185,0.00000,0.03209,0.98308,-0.16031,0.0,2023,6,7,13,43,10,756
39.83110,0.14000,-0.17815,0.00000,0.03087,0.97966,-0.16324,0.0,2023,6,7,13,43,10,876
39.83120,0.05250,-0.14315,0.00000,0.03514,0.98088,-0.16019,0.0,2023,6,7,13,43,10,6
39.83130,0.00000,-0.05565,0.00000,0.03196,0.98186,-0.16104,0.0,2023,6,7,13,43,10,16
39.83140,0.05250,-0.03815,0.00000,0.03233,0.98393,-0.16055,0.0,2023,6,7,13,43,10,36
39.83150,0.00000,0.04935,0.00000,0.03270,0.98100,-0.15677,0.0,2023,6,7,13,43,10,66
39.83160,-0.01750,-0.14315,0.00000,0.03233,0.98234,-0.16019,0.0,2023,6,7,13,43,10,106
39.83170,0.07000,0.10185,0.00000,0.03550,0.98515,-0.16250,0.0,2023,6,7,13,43,10,156
39.83180,0.12250,-0.03815,0.00000,0.03343,0.98198,-0.16116,0.0,2023,6,7,13,43,10,216
39.83190,-0.05250,-0.03815,0.00000,0.03111,0.98015,-0.15958,0.0,2023,6,7,13,43,10,286
39.83200,-0.01750,0.10185,0.00000,0.03160,0.98259,-0.16092,0.0,2023,6,7,13,43,10,366
39.83210,0.01750,-0.02065,0.00000,0.03379,0.97893,-0.16019,0.0,2023,6,7,13,43,10,456
39.83220,-0.24500,0.10185,0.00000,0.03294,0.98112,-0.16006,0.0,2023,6,7,13,43,11,556
39.83230,0.03500,-0.23065,0.00000,0.03270,0.98234,-0.16019,0.0,2023,6,7,13,43,11,666
39.83240,0.08750,-0.24815,0.00000,0.03318,0.98222,-0.16250,0.0,2023,6,7,13,43,11,786
39.83250,0.01750,-0.12565,0.00000,0.03501,0.98430,-0.15848,0.0,2023,6,7,13,43,11,916
39.83260,-0.15750,0.10185,0.00000,0.03221,0.97966,-0.15970,0.0,2023,6,7,13,43,11,56
39.83270,-0.08750,-0.09065,0.00000,0.03135,0.98478,-0.16214,0.0,2023,6,7,13,43,11,66
39.83280,0.03500,-0.05565,0.00000,0.03392,0.98161,-0.16299,0.0,2023,6,7,13,43,11,86
39.83290,-0.07000,-0.17815,0.00000,0.03148,0.98064,-0.15897,0.0,2023,6,7,13,43,11,116
39.83300,-0.15750,0.24185,0.00000,0.03294,0.98088,-0.15994,0.0,2023,6,7,13,43,11,156
39.83310,0.00000,-0.05565,0.00000,0.03160,0.98283,-0.16019,0.0,2023,6,7,13,43,11,206
39.83320,-0.07000,-0.05565,0.00000,0.03123,0.98149,-0.15787,0.0,2023,6,7,13,43,11,266
39.83330,-0.31500,0.06685,0.00000,0.03270,0.98076,-0.15811,0.0,2023,6,7,13,43,11,336
39.83340,-0.10500,0.17185,0.00000,0.03318,0.98161,-0.16385,0.0,2023,6,7,13,43,11,416
39.83350,0.08750,-0.00315,0.00000,0.03282,0.98210,-0.15933,0.0,2023,6,7,13,43,11,506
39.83360,-0.05250,-0.14315,0.00000,0.03172,0.98320,-0.16092,0.0,2023,6,7,13,43,11,606
39.83370,0.07000,-0.14315,0.00000,0.03318,0.98076,-0.16202,0.0,2023,6,7,13,43,11,716
39.83380,0.12250,-0.02065,0.00000,0.03355,0.98320,-0.16080,0.0,2023,6,7,13,43,11,836
39.83390,-0.05250,-0.14315,0.00000,0.03111,0.98112,-0.15970,0.0,2023,6,7,13,43,11,966
39.83400,-0.24500,-0.14315,0.00000,0.03538,0.98369,-0.15628,0.0,2023,6,7,13,43,11,106
39.83410,-0.08750,-0.02065,0.00000,0.03038,0.97917,-0.16421,0.0,2023,6,7,13,43,11,116
39.83420,-0.12250,-0.10815,0.00000,0.03404,0.98247,-0.16019,0.0,2023,6,7,13,43,11,136
39.83430,0.21000,0.03185,0.00000,0.03270,0.98112,-0.15958,0.0,2023,6,7,13,43,11,166
39.83440,-0.15750,-0.09065,0.00000,0.03514,0.98186,-0.16116,0.0,2023,6,7,13,43,11,206
39.83450,0.05250,0.11935,0.00000,0.03172,0.98161,-0.16238,0.0,2023,6,7,13,43,11,256
39.83460,-0.14000,-0.07315,0.00000,0.03367,0.98149,-0.15921,0.0,2023,6,7,13,43,11,316
39.83470,0.03500,0.04935,0.00000,0.03257,0.98100,-0.16043,0.0,2023,6,7,13,43,11,386
39.83480,-0.07000,-0.03815,0.00000,0.03294,0.98332,-0.16177,0.0,2023,6,7,13,43,11,466
39.83490,0.01750,0.08435,0.00000,0.03623,0.98173,-0.16031,0.0,2023,6,7,13,43,11,556
39.83500,0.28000,-0.23065,0.00000,0.03550,0.98173,-0.15750,0.0,2023,6,7,13,43,11,656
39.83510,-0.10500,-0.07315,0.00000,0.03331,0.97929,-0.16043,0.0,2023,6,7,13,43,11,766
39.83520,-0.05250,0.10185,0.00000,0.03196,0.98210,-0.15872,0.0,2023,6,7,13,43,11,886
39.83530,-0.26250,-0.02065,0.00000,0.03245,0.98283,-0.16153,0.0,2023,6,7,13,43,11,16
39.83540,-0.15750,0.06685,0.00000,0.03489,0.98186,-0.16104,0.0,2023,6,7,13,43,11,26
39.83550,-0.17500,0.01435,0.00000,0.03599,0.98125,-0.16128,0.0,2023,6,7,13,43,11,46
39.83560,0.05250,-0.05565,0.00000,0.03404,0.98259,-0.16409,0.0,2023,6,7,13,43,11,76
39.83570,-0.19250,-0.19565,0.00000,0.03331,0.98125,-0.15762,0.0,2023,6,7,13,43,11,116
39.83580,-0.12250,-0.16065,0.00000,0.02989,0.98222,-0.15994,0.0,2023,6,7,13,43,11,166
39.83590,-0.01750,-0.09065,0.00000,0.03257,0.98247,-0.15994,0.0,2023,6,7,13,43,11,226
39.83600,0.07000,-0.37065,0.00000,0.03148,0.98356,-0.16006,0.0,2023,6,7,13,43,11,296
39.83610,-0.22750,-0.12565,0.00000,0.03294,0.98088,-0.15994,0.0,2023,6,7,13,43,11,376
39.83620,-0.07000,0.06685,0.00000,0.03282,0.98417,-0.15726,0.0,2023,6,7,13,43,11,466
39.83630,0.03500,0.06685,0.00000,0.03270,0.98381,-0.16324,0.0,2023,6,7,13,43,11,566
39.83640,-0.03500,-0.00315,0.00000,0.03331,0.98161,-0.16287,0.0,2023,6,7,13,43,11,676
39.83650,0.01750,-0.16065,0.00000,0.03318,0.98430,-0.16067,0.0,2023,6,7,13,43,11,796
39.83660,0.15750,-0.03815,0.00000,0.03465,0.98295,-0.16055,0.0,2023,6,7,13,43,11,926
39.83670,0.05250,0.10185,0.00000,0.03270,0.98173,-0.16250,0.0,2023,6,7,13,43,11,66
39.83680,0.00000,-0.03815,0.00000,0.03111,0.98112,-0.16116,0.0,2023,6,7,13,43,11,76
39.83690,-0.05250,0.03185,0.00000,0.03355,0.98308,-0.16006,0.0,2023,6,7,13,43,11,96
39.83700,0.15750,-0.07315,0.00000,0.03404,0.98015,-0.16482,0.0,2023,6,7,13,43,11,126
39.83710,0.10500,-0.14315,0.00000,0.03331,0.98137,-0.16116,0.0,2023,6,7,13,43,11,166
39.83720,-0.14000,0.13685,0.00000,0.03245,0.97893,-0.16116,0.0,2023,6,7,13,43,11,216
39.83730,-0.08750,0.10185,0.00000,0.03270,0.97978,-0.16177,0.0,2023,6,7,13,43,11,276
39.83740,0.15750,0.20685,0.00000,0.03501,0.98076,-0.16421,0.0,2023,6,7,13,43,11,346
39.83750,-0.15750,0.01435,0.00000,0.02940,0.98015,-0.16165,0.0,2023,6,7,13,43,11,426
39.83760,-0.12250,-0.07315,0.00000,0.03245,0.98247,-0.16019,0.0,2023,6,7,13,43,11,516
39.83770,-0.03500,-0.02065,0.00000,0.03221,0.97868,-0.16031,0.0,2023,6,7,13,43,11,616
39.83780,-0.07000,-0.03815,0.00000,0.03355,0.98173,-0.16275,0.0,2023,6,7,13,43,11,726
39.83790,-0.03500,-0.05565,0.00000,0.03343,0.98234,-0.15994,0.0,2023,6,7,13,43,11,846
39.83800,-0.01750,0.01435,0.00000,0.02989,0.98039,-0.15921,0.0,2023,6,7,13,43,11,976
39.83810,-0.03500,-0.02065,0.00000,0.03575,0.98320,-0.16006,0.0,2023,6,7,13,43,11,116
39.83820,0.14000,0.01435,0.00000,0.03367,0.97990,-0.16409,0.0,2023,6,7,13,43,11,126
39.83830,-0.03500,0.01435,0.00000,0.03245,0.98161,-0.15897,0.0,2023,6,7,13,43,11,146
39.83840,-0.08750,0.13685,0.00000,0.03331,0.98320,-0.15945,0.0,2023,6,7,13,43,11,176
39.83850,0.00000,0.11935,0.00000,0.03367,0.98442,-0.16177,0.0,2023,6,7,13,43,11,216
39.83860,-0.12250,0.17185,0.00000,0.03526,0.98149,-0.16214,0.0,2023,6,7,13,43,11,266
39.83870,0.05250,-0.24815,0.00000,0.03379,0.97881,-0.16043,0.0,2023,6,7,13,43,11,326
39.83880,0.03500,0.06685,0.00000,0.03306,0.98283,-0.16165,0.0,2023,6,7,13,43,11,396
39.83890,-0.01750,-0.10815,0.00000,0.03453,0.98393,-0.16311,0.0,2023,6,7,13,43,11,476
39.83900,0.14000,-0.05565,0.00000,0.03428,0.98234,-0.16153,0.0,2023,6,7,13,43,11,566
39.83910,0.05250,0.10185,0.00000,0.03209,0.98112,-0.16372,0.0,2023,6,7,13,43,11,666
39.83920,0.10500,-0.00315,0.00000,0.03465,0.98295,-0.16336,0.0,2023,6,7,13,43,11,776
39.83930,-0.10500,0.15435,0.00000,0.03221,0.97905,-0.16006,0.0,2023,6,7,13,43,11,896
39.83940,0.03500,-0.00315,0.00000,0.03221,0.98064,-0.16189,0.0,2023,6,7,13,43,11,26
39.83950,0.10500,-0.00315,0.00000,0.03221,0.98100,-0.16446,0.0,2023,6,7,13,43,11,36
39.83960,-0.01750,-0.00315,0.00000,0.03318,0.98161,-0.16250,0.0,2023,6,7,13,43,11,56
39.83970,0.01750,-0.24815,0.00000,0.03184,0.97990,-0.16202,0.0,2023,6,7,13,43,11,86
39.83980,0.12250,-0.00315,0.00000,0.03453,0.98247,-0.16494,0.0,2023,6,7,13,43,11,126
39.83990,0.10500,-0.12565,0.00000,0.03172,0.97978,-0.16336,0.0,2023,6,7,13,43,11,176
39.84000,-0.03500,-0.05565,0.00000,0.03550,0.98173,-0.15933,0.0,2023,6,7,13,43,11,236
39.84010,0.14000,0.03185,0.00000,0.03331,0.98271,-0.15921,0.0,2023,6,7,13,43,11,306
39.84020,0.19250,-0.19565,0.00000,0.03404,0.98149,-0.16409,0.0,2023,6,7,13,43,11,386
39.84030,-0.10500,-0.09065,0.00000,0.03343,0.98125,-0.16397,0.0,2023,6,7,13,43,11,476
39.84040,-0.07000,-0.05565,0.00000,0.03245,0.98186,-0.16153,0.0,2023,6,7,13,43,11,576
39.84050,-0.08750,0.03185,0.00000,0.03062,0.98173,-0.16360,0.0,2023,6,7,13,43,11,686
39.84060,0.07000,-0.05565,0.00000,0.02977,0.98149,-0.16080,0.0,2023,6,7,13,43,11,806
39.84070,0.01750,-0.00315,0.00000,0.03343,0.98064,-0.16116,0.0,2023,6,7,13,43,11,936
39.84080,-0.10500,-0.00315,0.00000,0.03440,0.98186,-0.16128,0.0,2023,6,7,13,43,11,76
39.84090,0.12250,0.17185,0.00000,0.03294,0.98161,-0.16372,0.0,2023,6,7,13,43,11,86
39.84100,0.00000,0.17185,0.00000,0.03160,0.98137,-0.16202,0.0,2023,6,7,13,43,11,106
39.84110,-0.10500,0.15435,0.00000,0.03233,0.98161,-0.15933,0.0,2023,6,7,13,43,11,136
39.84120,0.07000,-0.12565,0.00000,0.03257,0.98149,-0.16433,0.0,2023,6,7,13,43,12,176
39.84130,0.07000,0.24185,0.00000,0.03209,0.98100,-0.16055,0.0,2023,6,7,13,43,12,226
39.84140,-0.07000,-0.00315,0.00000,0.03477,0.97759,-0.15933,0.0,2023,6,7,13,43,12,286
39.84150,0.03500,0.08435,0.00000,0.03453,0.97929,-0.16226,0.0,2023,6,7,13,43,12,356
39.84160,-0.15750,0.10185,0.00000,0.03209,0.98259,-0.16494,0.0,2023,6,7,13,43,12,436
39.84170,-0.01750,0.01435,0.00000,0.03282,0.98015,-0.16446,0.0,2023,6,7,13,43,12,526
39.84180,-0.10500,0.03185,0.00000,0.03404,0.98283,-0.16104,0.0,2023,6,7,13,43,12,626
39.84190,-0.08750,-0.05565,0.00000,0.03489,0.98271,-0.16141,0.0,2023,6,7,13,43,12,736
39.84200,0.14000,-0.21315,0.00000,0.03392,0.98173,-0.16372,0.0,2023,6,7,13,43,12,856
39.84210,-0.10500,0.25935,0.00000,0.03160,0.98210,-0.16006,0.0,2023,6,7,13,43,12,986
39.84220,0.00000,0.03185,0.00000,0.03440,0.98295,-0.16250,0.0,2023,6,7,13,43,12,126
39.84230,0.07000,0.06685,0.00000,0.03355,0.98234,-0.16446,0.0,2023,6,7,13,43,12,136
39.84240,-0.10500,0.11935,0.00000,0.03294,0.98198,-0.16202,0.0,2023,6,7,13,43,12,156
39.84250,-0.10500,0.22435,0.00000,0.03501,0.98271,-0.16031,0.0,2023,6,7,13,43,12,186
39.84260,0.10500,-0.12565,0.00000,0.03148,0.98295,-0.16348,0.0,2023,6,7,13,43,12,226
39.84270,0.10500,0.11935,0.00000,0.03367,0.98393,-0.16250,0.0,2023,6,7,13,43,12,276
39.84280,-0.03500,-0.17815,0.00000,0.03282,0.98454,-0.16238,0.0,2023,6,7,13,43,12,336
39.84290,0.24500,0.08435,0.00000,0.03233,0.98332,-0.16238,0.0,2023,6,7,13,43,12,406
39.84300,-0.01750,0.13685,0.00000,0.03355,0.98076,-0.16177,0.0,2023,6,7,13,43,12,486
39.84310,0.05250,0.01435,0.00000,0.03221,0.98015,-0.16165,0.0,2023,6,7,13,43,12,576
39.84320,-0.03500,-0.05565,0.00000,0.03343,0.98283,-0.16348,0.0,2023,6,7,13,43,12,676
39.84330,0.22750,-0.03815,0.00000,0.03404,0.98198,-0.16458,0.0,2023,6,7,13,43,12,786
39.84340,-0.19250,0.08435,0.00000,0.03257,0.98186,-0.15958,0.0,2023,6,7,13,43,12,906
39.84350,-0.05250,0.20685,0.00000,0.03123,0.98076,-0.16141,0.0,2023,6,7,13,43,12,36
39.84360,-0.08750,0.08435,0.00000,0.03257,0.98283,-0.16287,0.0,2023,6,7,13,43,12,46
39.84370,0.07000,0.01435,0.00000,0.03392,0.98088,-0.15848,0.0,2023,6,7,13,43,12,66
39.84380,-0.07000,0.03185,0.00000,0.03379,0.98088,-0.15799,0.0,2023,6,7,13,43,12,96
39.84390,0.10500,0.18935,0.00000,0.03404,0.98186,-0.16153,0.0,2023,6,7,13,43,12,136
39.84400,0.01750,-0.02065,0.00000,0.03306,0.97917,-0.16116,0.0,2023,6,7,13,43,12,186
39.84410,0.03500,-0.10815,0.00000,0.03343,0.98003,-0.16006,0.0,2023,6,7,13,43,12,246
39.84420,0.05250,0.08435,0.00000,0.03233,0.98234,-0.16128,0.0,2023,6,7,13,43,12,316
39.84430,0.01750,-0.02065,0.00000,0.03318,0.98198,-0.16250,0.0,2023,6,7,13,43,12,396
39.84440,-0.24500,0.13685,0.00000,0.03343,0.98149,-0.15787,0.0,2023,6,7,13,43,12,486
39.84450,0.08750,-0.14315,0.00000,0.03233,0.98039,-0.15872,0.0,2023,6,7,13,43,12,586
39.84460,0.01750,-0.03815,0.00000,0.03404,0.98112,-0.16470,0.0,2023,6,7,13,43,12,696
39.84470,0.10500,-0.35315,0.00000,0.03331,0.98015,-0.16006,0.0,2023,6,7,13,43,12,816
39.84480,0.00000,0.01435,0.00000,0.03428,0.98137,-0.16165,0.0,2023,6,7,13,43,12,946
39.84490,0.01750,0.22435,0.00000,0.03282,0.98112,-0.16482,0.0,2023,6,7,13,43,12,86
39.84500,-0.07000,0.04935,0.00000,0.03062,0.98369,-0.15945,0.0,2023,6,7,13,43,12,96
39.84510,-0.10500,-0.10815,0.00000,0.03331,0.98295,-0.15872,0.0,2023,6,7,13,43,12,116
39.84520,-0.12250,0.01435,0.00000,0.03160,0.98137,-0.16263,0.0,2023,6,7,13,43,12,146
39.84530,0.07000,-0.12565,0.00000,0.03355,0.98210,-0.16226,0.0,2023,6,7,13,43,12,186
39.84540,0.03500,-0.07315,0.00000,0.03160,0.98015,-0.15860,0.0,2023,6,7,13,43,12,236
39.84550,-0.05250,0.11935,0.00000,0.03379,0.98356,-0.15994,0.0,2023,6,7,13,43,12,296
39.84560,0.01750,-0.02065,0.00000,0.03245,0.98466,-0.16189,0.0,2023,6,7,13,43,12,366
39.84570,0.03500,-0.09065,0.00000,0.03221,0.98161,-0.16275,0.0,2023,6,7,13,43,12,446
39.84580,-0.12250,0.10185,0.00000,0.03343,0.98173,-0.16128,0.0,2023,6,7,13,43,12,536
39.84590,0.17500,0.10185,0.00000,0.03343,0.98222,-0.16299,0.0,2023,6,7,13,43,12,636
39.84600,0.14000,0.08435,0.00000,0.03306,0.98210,-0.16202,0.0,2023,6,7,13,43,12,746
39.84610,-0.10500,-0.09065,0.00000,0.03404,0.98283,-0.16019,0.0,2023,6,7,13,43,12,866
39.84620,-0.03500,-0.21315,0.00000,0.03233,0.98381,-0.16153,0.0,2023,6,7,13,43,12,996
39.84630,0.00000,0.08435,0.00000,0.03184,0.98039,-0.16177,0.0,2023,6,7,13,43,12,136
39.84640,-0.15750,-0.16065,0.00000,0.03160,0.98125,-0.16006,0.0,2023,6,7,13,43,12,146
39.84650,-0.07000,0.10185,0.00000,0.03562,0.98247,-0.16141,0.0,2023,6,7,13,43,12,166
39.84660,-0.08750,0.04935,0.00000,0.03270,0.98564,-0.16080,0.0,2023,6,7,13,43,12,196
39.84670,-0.10500,-0.10815,0.00000,0.03440,0.98369,-0.16104,0.0,2023,6,7,13,43,12,236
39.84680,-0.01750,0.06685,0.00000,0.03355,0.98247,-0.15933,0.0,2023,6,7,13,43,12,286
39.84690,-0.03500,-0.00315,0.00000,0.03343,0.98430,-0.16287,0.0,2023,6,7,13,43,12,346
39.84700,-0.05250,-0.35315,0.00000,0.03270,0.98186,-0.15945,0.0,2023,6,7,13,43,12,416
39.84710,-0.03500,0.01435,0.00000,0.03257,0.98112,-0.15994,0.0,2023,6,7,13,43,12,496
39.84720,0.05250,0.04935,0.00000,0.03306,0.98430,-0.16055,0.0,2023,6,7,13,43,12,586
39.84730,-0.03500,-0.03815,0.00000,0.03209,0.98125,-0.16165,0.0,2023,6,7,13,43,12,686
39.84740,-0.03500,0.10185,0.00000,0.03123,0.98125,-0.16153,0.0,2023,6,7,13,43,12,796
39.84750,-0.14000,0.06685,0.00000,0.03257,0.98417,-0.16141,0.0,2023,6,7,13,43,12,916
39.84760,0.01750,0.03185,0.00000,0.03209,0.98064,-0.16433,0.0,2023,6,7,13,43,12,46
39.84770,-0.15750,0.10185,0.00000,0.03306,0.98381,-0.16128,0.0,2023,6,7,13,43,12,56
39.84780,-0.01750,-0.03815,0.00000,0.03257,0.98100,-0.16092,0.0,2023,6,7,13,43,12,76
39.84790,0.03500,0.13685,0.00000,0.03355,0.98137,-0.16250,0.0,2023,6,7,13,43,12,106
39.84800,-0.26250,-0.21315,0.00000,0.03257,0.98064,-0.15994,0.0,2023,6,7,13,43,12,146
39.84810,-0.21000,-0.02065,0.00000,0.03123,0.97978,-0.16043,0.0,2023,6,7,13,43,12,196
39.84820,0.01750,-0.03815,0.00000,0.03416,0.98125,-0.16067,0.0,2023,6,7,13,43,12,256
39.84830,-0.07000,0.08435,0.00000,0.03526,0.98210,-0.15982,0.0,2023,6,7,13,43,12,326
39.84840,-0.01750,0.06685,0.00000,0.03123,0.98247,-0.16360,0.0,2023,6,7,13,43,12,406
39.84850,0.19250,0.24185,0.00000,0.03245,0.98198,-0.16385,0.0,2023,6,7,13,43,12,496
39.84860,0.03500,0.01435,0.00000,0.03148,0.98234,-0.16250,0.0,2023,6,7,13,43,12,596
39.84870,-0.14000,0.11935,0.00000,0.03270,0.98234,-0.16263,0.0,2023,6,7,13,43,12,706
39.84880,-0.26250,0.20685,0.00000,0.03172,0.98186,-0.15921,0.0,2023,6,7,13,43,12,826
39.84890,-0.05250,-0.07315,0.00000,0.03257,0.98344,-0.16226,0.0,2023,6,7,13,43,12,956
39.84900,-0.01750,-0.00315,0.00000,0.03428,0.98125,-0.16275,0.0,2023,6,7,13,43,12,96
39.84910,-0.10500,-0.02065,0.00000,0.03331,0.98283,-0.15945,0.0,2023,6,7,13,43,12,106
39.84920,-0.05250,-0.12565,0.00000,0.03538,0.98076,-0.16299,0.0,2023,6,7,13,43,12,126
39.84930,0.07000,0.32935,0.00000,0.03270,0.98210,-0.16348,0.0,2023,6,7,13,43,12,156
39.84940,-0.10500,0.03185,0.00000,0.03148,0.98186,-0.16421,0.0,2023,6,7,13,43,12,196
39.84950,-0.10500,-0.05565,0.00000,0.03050,0.98234,-0.15872,0.0,2023,6,7,13,43,12,246
39.84960,0.00000,-0.09065,0.00000,0.03196,0.97966,-0.16116,0.0,2023,6,7,13,43,12,306
39.84970,0.00000,-0.00315,0.00000,0.03099,0.98308,-0.16385,0.0,2023,6,7,13,43,12,376
39.84980,-0.10500,-0.12565,0.00000,0.03135,0.98271,-0.16141,0.0,2023,6,7,13,43,12,456
39.84990,-0.08750,0.17185,0.00000,0.03453,0.98039,-0.16006,0.0,2023,6,7,13,43,12,546
39.85000,-0.03500,-0.02065,0.00000,0.03196,0.98112,-0.15945,0.0,2023,6,7,13,43,13,646
39.85010,0.07000,-0.02065,0.00000,0.03575,0.97942,-0.16250,0.0,2023,6,7,13,43,13,756
39.85020,0.15750,0.06685,0.00000,0.02867,0.98259,-0.16263,0.0,2023,6,7,13,43,13,876
39.85030,-0.17500,-0.02065,0.00000,0.03233,0.98100,-0.15933,0.0,2023,6,7,13,43,13,6
39.85040,0.00000,0.13685,0.00000,0.03306,0.97893,-0.16580,0.0,2023,6,7,13,43,13,16
39.85050,0.05250,-0.00315,0.00000,0.03477,0.97954,-0.16116,0.0,2023,6,7,13,43,13,36
39.85060,-0.05250,0.10185,0.00000,0.03489,0.97832,-0.15848,0.0,2023,6,7,13,43,13,66
39.85070,0.07000,0.01435,0.00000,0.03172,0.98015,-0.16226,0.0,2023,6,7,13,43,13,106
39.85080,0.15750,0.08435,0.00000,0.03294,0.98149,-0.16043,0.0,2023,6,7,13,43,13,156
39.85090,0.05250,0.06685,0.00000,0.03123,0.98271,-0.16104,0.0,2023,6,7,13,43,13,216
39.85100,0.03500,-0.24815,0.00000,0.03148,0.98259,-0.15884,0.0,2023,6,7,13,43,13,286
39.85110,0.05250,-0.00315,0.00000,0.03221,0.98271,-0.16629,0.0,2023,6,7,13,43,13,366
39.85120,0.47250,-0.16065,0.00000,0.03184,0.97868,-0.16519,0.0,2023,6,7,13,43,13,456
39.85130,-0.01750,0.20685,0.00000,0.03148,0.98003,-0.15921,0.0,2023,6,7,13,43,13,556
39.85140,-0.08750,-0.05565,0.00000,0.03416,0.97856,-0.15994,0.0,2023,6,7,13,43,13,666
39.85150,-0.05250,0.10185,0.00000,0.03404,0.98112,-0.16275,0.0,2023,6,7,13,43,13,786
39.85160,-0.01750,-0.14315,0.00000,0.03331,0.98039,-0.16080,0.0,2023,6,7,13,43,13,916
39.85170,-0.10500,0.03185,0.00000,0.03428,0.98039,-0.16189,0.0,2023,6,7,13,43,13,56
39.85180,0.14000,0.11935,0.00000,0.03221,0.98308,-0.16165,0.0,2023,6,7,13,43,13,66
39.85190,0.05250,0.03185,0.00000,0.03392,0.97917,-0.16482,0.0,2023,6,7,13,43,13,86
39.85200,-0.12250,0.31185,0.00000,0.03209,0.97893,-0.16019,0.0,2023,6,7,13,43,13,116
39.85210,0.01750,-0.02065,0.00000,0.03648,0.98112,-0.16250,0.0,2023,6,7,13,43,13,156
39.85220,0.07000,-0.03815,0.00000,0.03282,0.98173,-0.16458,0.0,2023,6,7,13,43,13,206
39.85230,-0.01750,0.04935,0.00000,0.03135,0.98064,-0.16397,0.0,2023,6,7,13,43,13,266
39.85240,-0.14000,0.15435,0.00000,0.03135,0.98247,-0.15823,0.0,2023,6,7,13,43,13,336
39.85250,0.01750,0.20685,0.00000,0.03379,0.98015,-0.16153,0.0,2023,6,7,13,43,13,416
39.85260,0.17500,-0.16065,0.00000,0.03367,0.98198,-0.16433,0.0,2023,6,7,13,43,13,506
39.85270,-0.12250,-0.03815,0.00000,0.03013,0.98283,-0.16128,0.0,2023,6,7,13,43,13,606
39.85280,-0.05250,0.04935,0.00000,0.03270,0.98247,-0.15933,0.0,2023,6,7,13,43,13,716
39.85290,0.08750,-0.12565,0.00000,0.02989,0.98222,-0.16287,0.0,2023,6,7,13,43,13,836
39.85300,-0.10500,0.03185,0.00000,0.03343,0.98283,-0.16458,0.0,2023,6,7,13,43,13,966
39.85310,-0.03500,-0.12565,0.00000,0.03245,0.98344,-0.16031,0.0,2023,6,7,13,43,13,106
39.85320,-0.01750,0.04935,0.00000,0.03392,0.98393,-0.15982,0.0,2023,6,7,13,43,13,116
39.85330,0.17500,-0.10815,0.00000,0.03331,0.98137,-0.16372,0.0,2023,6,7,13,43,13,136
39.85340,0.10500,0.11935,0.00000,0.03404,0.98393,-0.16311,0.0,2023,6,7,13,43,13,166
39.85350,-0.08750,0.27685,0.00000,0.03404,0.98283,-0.16153,0.0,2023,6,7,13,43,13,206
39.85360,0.01750,0.08435,0.00000,0.03062,0.98173,-0.16116,0.0,2023,6,7,13,43,13,256
39.85370,0.07000,0.31185,0.00000,0.03306,0.98149,-0.16214,0.0,2023,6,7,13,43,13,316
39.85380,-0.15750,-0.10815,0.00000,0.03062,0.98112,-0.16067,0.0,2023,6,7,13,43,13,386
39.85390,-0.05250,-0.14315,0.00000,0.03148,0.98051,-0.15799,0.0,2023,6,7,13,43,13,466
39.85400,0.08750,-0.03815,0.00000,0.03623,0.98112,-0.16238,0.0,2023,6,7,13,43,13,556
39.85410,0.00000,0.03185,0.00000,0.03221,0.98161,-0.16092,0.0,2023,6,7,13,43,13,656
39.85420,0.10500,-0.19565,0.00000,0.03270,0.98064,-0.16006,0.0,2023,6,7,13,43,13,766
39.85430,-0.15750,-0.10815,0.00000,0.03196,0.98198,-0.16189,0.0,2023,6,7,13,43,13,886
39.85440,0.05250,0.13685,0.00000,0.03111,0.98295,-0.16348,0.0,2023,6,7,13,43,13,16
39.85450,-0.05250,0.01435,0.00000,0.03026,0.98027,-0.15970,0.0,2023,6,7,13,43,13,26
39.85460,0.21000,0.01435,0.00000,0.03123,0.98259,-0.15970,0.0,2023,6,7,13,43,13,46
39.85470,0.12250,-0.07315,0.00000,0.03355,0.98088,-0.16238,0.0,2023,6,7,13,43,13,76
39.85480,-0.01750,0.13685,0.00000,0.03343,0.97990,-0.16250,0.0,2023,6,7,13,43,13,116
39.85490,0.00000,-0.31815,0.00000,0.03270,0.97807,-0.16092,0.0,2023,6,7,13,43,13,166
39.85500,0.00000,-0.07315,0.00000,0.03379,0.98295,-0.16189,0.0,2023,6,7,13,43,13,226
39.85510,-0.08750,0.13685,0.00000,0.03123,0.98015,-0.16446,0.0,2023,6,7,13,43,13,296
39.85520,-0.26250,0.10185,0.00000,0.03172,0.98222,-0.16275,0.0,2023,6,7,13,43,13,376
39.85530,-0.12250,-0.09065,0.00000,0.03318,0.98088,-0.16104,0.0,2023,6,7,13,43,13,466
39.85540,0.07000,-0.16065,0.00000,0.03111,0.98198,-0.16531,0.0,2023,6,7,13,43,13,566
39.85550,-0.03500,-0.07315,0.00000,0.03379,0.98320,-0.16287,0.0,2023,6,7,13,43,13,676
39.85560,-0.08750,0.03185,0.00000,0.03148,0.97917,-0.16092,0.0,2023,6,7,13,43,13,796
39.85570,0.01750,-0.07315,0.00000,0.03306,0.98149,-0.16226,0.0,2023,6,7,13,43,13,926
39.85580,0.08750,0.01435,0.00000,0.03196,0.98295,-0.16214,0.0,2023,6,7,13,43,13,66
39.85590,-0.05250,-0.10815,0.00000,0.03270,0.97929,-0.16080,0.0,2023,6,7,13,43,13,76
39.85600,0.26250,-0.14315,0.00000,0.03379,0.98430,-0.16275,0.0,2023,6,7,13,43,13,96
39.85610,0.10500,0.03185,0.00000,0.03428,0.98027,-0.16299,0.0,2023,6,7,13,43,13,126
39.85620,-0.26250,0.15435,0.00000,0.03221,0.98088,-0.16128,0.0,2023,6,7,13,43,13,166
39.85630,-0.17500,0.06685,0.00000,0.03331,0.98112,-0.16067,0.0,2023,6,7,13,43,13,216
39.85640,0.08750,0.17185,0.00000,0.03355,0.98259,-0.16421,0.0,2023,6,7,13,43,13,276
39.85650,-0.03500,0.08435,0.00000,0.03111,0.97893,-0.16104,0.0,2023,6,7,13,43,13,346
39.85660,-0.08750,-0.44065,0.00000,0.03294,0.97868,-0.16324,0.0,2023,6,7,13,43,13,426
39.85670,-0.03500,0.11935,0.00000,0.03282,0.98027,-0.16433,0.0,2023,6,7,13,43,13,516
39.85680,0.12250,-0.28315,0.00000,0.03501,0.98125,-0.16177,0.0,2023,6,7,13,43,13,616
39.85690,-0.35000,0.15435,0.00000,0.03209,0.98088,-0.15738,0.0,2023,6,7,13,43,13,726
39.85700,0.08750,0.04935,0.00000,0.03233,0.98259,-0.16006,0.0,2023,6,7,13,43,13,846
39.85710,0.15750,-0.07315,0.00000,0.03087,0.98125,-0.16458,0.0,2023,6,7,13,43,13,976
39.85720,-0.15750,-0.02065,0.00000,0.03050,0.98381,-0.16019,0.0,2023,6,7,13,43,13,116
39.85730,-0.19250,0.03185,0.00000,0.03392,0.98137,-0.16116,0.0,2023,6,7,13,43,13,126
39.85740,0.07000,0.03185,0.00000,0.03160,0.98149,-0.16250,0.0,2023,6,7,13,43,13,146
39.85750,0.10500,-0.14315,0.00000,0.03367,0.98295,-0.16238,0.0,2023,6,7,13,43,13,176
39.85760,-0.01750,-0.05565,0.00000,0.03404,0.98137,-0.16092,0.0,2023,6,7,13,43,13,216
39.85770,0.01750,-0.19565,0.00000,0.03379,0.98015,-0.16287,0.0,2023,6,7,13,43,13,266
39.85780,-0.21000,0.25935,0.00000,0.03233,0.97966,-0.15982,0.0,2023,6,7,13,43,13,326
39.85790,-0.07000,0.24185,0.00000,0.03257,0.98088,-0.16031,0.0,2023,6,7,13,43,13,396
39.85800,0.03500,-0.07315,0.00000,0.03318,0.97844,-0.16250,0.0,2023,6,7,13,43,13,476
39.85810,0.03500,-0.07315,0.00000,0.03379,0.98344,-0.16421,0.0,2023,6,7,13,43,13,566
39.85820,0.03500,-0.21315,0.00000,0.03379,0.98234,-0.15994,0.0,2023,6,7,13,43,13,666
39.85830,0.01750,-0.07315,0.00000,0.03257,0.98198,-0.16214,0.0,2023,6,7,13,43,13,776
39.85840,-0.03500,0.01435,0.00000,0.03331,0.98259,-0.16263,0.0,2023,6,7,13,43,13,896
39.85850,-0.01750,-0.10815,0.00000,0.03306,0.98247,-0.16372,0.0,2023,6,7,13,43,13,26
39.85860,0.00000,0.03185,0.00000,0.03355,0.98405,-0.16104,0.0,2023,6,7,13,43,13,36
39.85870,0.17500,-0.02065,0.00000,0.03343,0.98320,-0.16165,0.0,2023,6,7,13,43,13,56
39.85880,0.01750,-0.10815,0.00000,0.03160,0.98112,-0.16128,0.0,2023,6,7,13,43,13,86
39.85890,-0.14000,0.18935,0.00000,0.03160,0.98088,-0.16104,0.0,2023,6,7,13,43,13,126
39.85900,-0.05250,0.13685,0.00000,0.03135,0.98430,-0.16250,0.0,2023,6,7,13,43,14,176
39.85910,0.05250,0.17185,0.00000,0.03233,0.98064,-0.16311,0.0,2023,6,7,13,43,14,236
39.85920,-0.12250,0.03185,0.00000,0.03318,0.98039,-0.16031,0.0,2023,6,7,13,43,14,306
39.85930,0.08750,0.01435,0.00000,0.03331,0.98015,-0.16165,0.0,2023,6,7,13,43,14,386
39.85940,-0.01750,-0.00315,0.00000,0.03355,0.98417,-0.16238,0.0,2023,6,7,13,43,14,476
39.85950,-0.01750,0.18935,0.00000,0.03355,0.98125,-0.15958,0.0,2023,6,7,13,43,14,576
39.85960,0.05250,0.04935,0.00000,0.03245,0.98222,-0.16128,0.0,2023,6,7,13,43,14,686
39.85970,-0.08750,-0.05565,0.00000,0.03123,0.98064,-0.16299,0.0,2023,6,7,13,43,14,806
39.85980,0.03500,-0.05565,0.00000,0.03087,0.98064,-0.16080,0.0,2023,6,7,13,43,14,936
39.85990,0.01750,-0.07315,0.00000,0.03123,0.98186,-0.16397,0.0,2023,6,7,13,43,14,76
39.86000,0.03500,-0.07315,0.00000,0.03294,0.98271,-0.16092,0.0,2023,6,7,13,43,14,86
39.86010,0.17500,0.06685,0.00000,0.03404,0.98161,-0.16348,0.0,2023,6,7,13,43,14,106
39.86020,-0.05250,-0.16065,0.00000,0.03318,0.98283,-0.16116,0.0,2023,6,7,13,43,14,136
39.86030,-0.07000,0.13685,0.00000,0.03282,0.98125,-0.16263,0.0,2023,6,7,13,43,14,176
39.86040,-0.12250,0.08435,0.00000,0.03257,0.97990,-0.16409,0.0,2023,6,7,13,43,14,226
39.86050,0.10500,-0.23065,0.00000,0.03367,0.98271,-0.16006,0.0,2023,6,7,13,43,14,286
39.86060,0.01750,-0.00315,0.00000,0.03270,0.98247,-0.15738,0.0,2023,6,7,13,43,14,356
39.86070,-0.14000,0.04935,0.00000,0.03196,0.98100,-0.16250,0.0,2023,6,7,13,43,14,436
39.86080,0.15750,-0.00315,0.00000,0.03257,0.97929,-0.16263,0.0,2023,6,7,13,43,14,526
39.86090,0.01750,0.18935,0.00000,0.03489,0.97917,-0.15677,0.0,2023,6,7,13,43,14,626
39.86100,-0.14000,0.04935,0.00000,0.03135,0.98112,-0.15848,0.0,2023,6,7,13,43,14,736
39.86110,0.07000,-0.00315,0.00000,0.03318,0.97978,-0.16153,0.0,2023,6,7,13,43,14,856
39.86120,-0.10500,-0.03815,0.00000,0.03135,0.97966,-0.15884,0.0,2023,6,7,13,43,14,986
39.86130,0.03500,0.01435,0.00000,0.03245,0.98100,-0.16043,0.0,2023,6,7,13,43,14,126
39.86140,-0.08750,-0.02065,0.00000,0.03465,0.98015,-0.16067,0.0,2023,6,7,13,43,14,136
39.86150,0.08750,-0.30065,0.00000,0.03477,0.98149,-0.16019,0.0,2023,6,7,13,43,14,156
39.86160,-0.03500,-0.12565,0.00000,0.03196,0.98015,-0.16019,0.0,2023,6,7,13,43,14,186
39.86170,-0.08750,0.34685,0.00000,0.03270,0.98234,-0.16311,0.0,2023,6,7,13,43,14,226
39.86180,-0.12250,0.08435,0.00000,0.03172,0.98381,-0.16336,0.0,2023,6,7,13,43,14,276
39.86190,0.05250,0.08435,0.00000,0.03306,0.98064,-0.15994,0.0,2023,6,7,13,43,14,336
39.86200,-0.10500,0.08435,0.00000,0.03404,0.98186,-0.16019,0.0,2023,6,7,13,43,14,406
39.86210,0.05250,0.04935,0.00000,0.03233,0.98295,-0.16287,0.0,2023,6,7,13,43,14,486
39.86220,0.01750,0.06685,0.00000,0.03221,0.98308,-0.16043,0.0,2023,6,7,13,43,14,576
39.86230,-0.31500,0.20685,0.00000,0.03257,0.97942,-0.16177,0.0,2023,6,7,13,43,14,676
39.86240,-0.08750,0.06685,0.00000,0.03038,0.98283,-0.15958,0.0,2023,6,7,13,43,14,786
39.86250,-0.17500,0.13685,0.00000,0.03196,0.98442,-0.16433,0.0,2023,6,7,13,43,14,906
39.86260,-0.15750,0.11935,0.00000,0.03172,0.98137,-0.16104,0.0,2023,6,7,13,43,14,36
39.86270,-0.08750,0.11935,0.00000,0.03245,0.98112,-0.16019,0.0,2023,6,7,13,43,14,46
39.86280,0.07000,-0.19565,0.00000,0.03245,0.98369,-0.16543,0.0,2023,6,7,13,43,14,66
39.86290,0.12250,-0.14315,0.00000,0.03233,0.98149,-0.16116,0.0,2023,6,7,13,43,14,96
39.86300,-0.31500,0.32935,0.00000,0.03318,0.98088,-0.15958,0.0,2023,6,7,13,43,14,136
39.86310,-0.10500,-0.03815,0.00000,0.03477,0.98356,-0.16202,0.0,2023,6,7,13,43,14,186
39.86320,-0.17500,0.24185,0.00000,0.03221,0.98308,-0.16336,0.0,2023,6,7,13,43,14,246
39.86330,-0.08750,0.11935,0.00000,0.03392,0.98308,-0.16092,0.0,2023,6,7,13,43,14,316
39.86340,-0.12250,-0.12565,0.00000,0.03160,0.98283,-0.16006,0.0,2023,6,7,13,43,14,396
39.86350,-0.14000,-0.26565,0.00000,0.03257,0.98027,-0.15933,0.0,2023,6,7,13,43,14,486
39.86360,0.28000,-0.03815,0.00000,0.03306,0.98137,-0.16165,0.0,2023,6,7,13,43,14,586
39.86370,-0.03500,-0.16065,0.00000,0.03623,0.98149,-0.15738,0.0,2023,6,7,13,43,14,696
39.86380,0.00000,0.10185,0.00000,0.03331,0.98076,-0.16226,0.0,2023,6,7,13,43,14,816
39.86390,0.00000,0.13685,0.00000,0.03160,0.98198,-0.16238,0.0,2023,6,7,13,43,14,946
39.86400,0.00000,0.08435,0.00000,0.03379,0.98198,-0.16385,0.0,2023,6,7,13,43,14,86
39.86410,0.12250,0.36435,0.00000,0.03282,0.98198,-0.16153,0.0,2023,6,7,13,43,14,96
39.86420,0.01750,0.01435,0.00000,0.03184,0.98100,-0.16019,0.0,2023,6,7,13,43,14,116
39.86430,0.05250,0.13685,0.00000,0.03221,0.98186,-0.16372,0.0,2023,6,7,13,43,14,146
39.86440,0.14000,-0.00315,0.00000,0.03367,0.98137,-0.16092,0.0,2023,6,7,13,43,14,186
39.86450,-0.07000,0.15435,0.00000,0.03062,0.98039,-0.15970,0.0,2023,6,7,13,43,14,236
39.86460,0.05250,0.08435,0.00000,0.03099,0.98259,-0.16275,0.0,2023,6,7,13,43,14,296
39.86470,0.14000,0.06685,0.00000,0.03379,0.98381,-0.15860,0.0,2023,6,7,13,43,14,366
39.86480,-0.15750,0.04935,0.00000,0.03233,0.98247,-0.15836,0.0,2023,6,7,13,43,14,446
39.86490,-0.08750,-0.12565,0.00000,0.03209,0.98259,-0.15897,0.0,2023,6,7,13,43,14,536
39.86500,-0.19250,0.15435,0.00000,0.03343,0.98149,-0.16385,0.0,2023,6,7,13,43,14,636
39.86510,-0.12250,0.01435,0.00000,0.03404,0.98125,-0.16189,0.0,2023,6,7,13,43,14,746
39.86520,0.01750,-0.03815,0.00000,0.03355,0.98064,-0.16031,0.0,2023,6,7,13,43,14,866
39.86530,-0.15750,-0.16065,0.00000,0.03306,0.98173,-0.16055,0.0,2023,6,7,13,43,14,996
39.86540,0.08750,-0.17815,0.00000,0.03501,0.98222,-0.16250,0.0,2023,6,7,13,43,14,136
39.86550,-0.08750,0.03185,0.00000,0.03416,0.97868,-0.15762,0.0,2023,6,7,13,43,14,146
39.86560,-0.05250,0.08435,0.00000,0.03282,0.98259,-0.15909,0.0,2023,6,7,13,43,14,166
39.86570,-0.07000,0.13685,0.00000,0.03392,0.98149,-0.16202,0.0,2023,6,7,13,43,14,196
39.86580,-0.03500,0.18935,0.00000,0.03428,0.98088,-0.16299,0.0,2023,6,7,13,43,14,236
39.86590,-0.07000,0.27685,0.00000,0.03087,0.98198,-0.15933,0.0,2023,6,7,13,43,14,286
39.86600,-0.03500,0.03185,0.00000,0.03477,0.98198,-0.16214,0.0,2023,6,7,13,43,14,346
39.86610,0.05250,0.01435,0.00000,0.03465,0.98161,-0.16433,0.0,2023,6,7,13,43,14,416
39.86620,0.00000,-0.09065,0.00000,0.03233,0.97795,-0.15897,0.0,2023,6,7,13,43,14,496
39.86630,-0.22750,0.20685,0.00000,0.03477,0.98051,-0.15958,0.0,2023,6,7,13,43,14,586
39.86640,-0.05250,0.01435,0.00000,0.03184,0.98186,-0.16409,0.0,2023,6,7,13,43,14,686
39.86650,0.05250,-0.03815,0.00000,0.03318,0.98259,-0.16470,0.0,2023,6,7,13,43,14,796
39.86660,0.26250,-0.30065,0.00000,0.03294,0.98051,-0.15945,0.0,2023,6,7,13,43,14,916
39.86670,-0.07000,-0.16065,0.00000,0.03318,0.98149,-0.16043,0.0,2023,6,7,13,43,14,46
39.86680,-0.03500,0.04935,0.00000,0.03355,0.98234,-0.16446,0.0,2023,6,7,13,43,14,56
39.86690,-0.03500,-0.03815,0.00000,0.03160,0.98186,-0.16275,0.0,2023,6,7,13,43,14,76
39.86700,-0.07000,0.01435,0.00000,0.03184,0.98076,-0.15958,0.0,2023,6,7,13,43,14,106
39.86710,-0.03500,0.20685,0.00000,0.03148,0.98259,-0.16128,0.0,2023,6,7,13,43,14,146
39.86720,0.14000,-0.14315,0.00000,0.03172,0.98125,-0.16311,0.0,2023,6,7,13,43,14,196
39.86730,0.05250,-0.03815,0.00000,0.03221,0.98161,-0.16043,0.0,2023,6,7,13,43,14,256
39.86740,-0.03500,-0.14315,0.00000,0.03355,0.98003,-0.16043,0.0,2023,6,7,13,43,14,326
39.86750,-0.05250,0.11935,0.00000,0.03221,0.98332,-0.15909,0.0,2023,6,7,13,43,14,406
39.86760,0.15750,-0.12565,0.00000,0.03026,0.98430,-0.16311,0.0,2023,6,7,13,43,14,496
39.86770,0.10500,-0.30065,0.00000,0.03318,0.98051,-0.15958,0.0,2023,6,7,13,43,14,596
39.86780,-0.12250,-0.00315,0.00000,0.03294,0.98186,-0.16031,0.0,2023,6,7,13,43,14,706
39.86790,0.03500,0.01435,0.00000,0.03282,0.97978,-0.16067,0.0,2023,6,7,13,43,15,826
39.86800,-0.01750,-0.14315,0.00000,0.03343,0.98064,-0.16055,0.0,2023,6,7,13,43,15,956
39.86810,-0.03500,-0.05565,0.00000,0.03099,0.98137,-0.15909,0.0,2023,6,7,13,43,15,96
39.86820,0.03500,-0.00315,0.00000,0.03282,0.98039,-0.15970,0.0,2023,6,7,13,43,15,106
39.86830,0.00000,0.10185,0.00000,0.03379,0.98381,-0.16019,0.0,2023,6,7,13,43,15,126
39.86840,0.08750,-0.16065,0.00000,0.03428,0.98332,-0.15750,0.0,2023,6,7,13,43,15,156
39.86850,-0.07000,-0.03815,0.00000,0.03257,0.98149,-0.16104,0.0,2023,6,7,13,43,15,196
39.86860,0.01750,0.03185,0.00000,0.03123,0.98259,-0.15994,0.0,2023,6,7,13,43,15,246
39.86870,0.01750,0.06685,0.00000,0.03172,0.98198,-0.16043,0.0,2023,6,7,13,43,15,306
39.86880,0.03500,0.04935,0.00000,0.03318,0.98161,-0.15848,0.0,2023,6,7,13,43,15,376
39.86890,-0.08750,0.04935,0.00000,0.03355,0.98222,-0.16397,0.0,2023,6,7,13,43,15,456
39.86900,-0.05250,-0.14315,0.00000,0.03514,0.97917,-0.15799,0.0,2023,6,7,13,43,15,546
39.86910,-0.22750,0.15435,0.00000,0.03379,0.98222,-0.15799,0.0,2023,6,7,13,43,15,646
39.86920,-0.01750,0.06685,0.00000,0.03428,0.98369,-0.16177,0.0,2023,6,7,13,43,15,756
39.86930,-0.05250,0.06685,0.00000,0.03123,0.98173,-0.16165,0.0,2023,6,7,13,43,15,876
39.86940,-0.22750,0.10185,0.00000,0.03367,0.97942,-0.15970,0.0,2023,6,7,13,43,15,6
39.86950,-0.15750,-0.05565,0.00000,0.03245,0.98137,-0.15848,0.0,2023,6,7,13,43,15,16
39.86960,0.03500,0.17185,0.00000,0.03294,0.98271,-0.16433,0.0,2023,6,7,13,43,15,36
39.86970,-0.10500,-0.07315,0.00000,0.03196,0.98198,-0.15970,0.0,2023,6,7,13,43,15,66
39.86980,-0.08750,0.13685,0.00000,0.03294,0.98283,-0.15897,0.0,2023,6,7,13,43,15,106
39.86990,0.01750,0.11935,0.00000,0.03367,0.98247,-0.16275,0.0,2023,6,7,13,43,15,156
39.87000,0.17500,-0.07315,0.00000,0.03306,0.98234,-0.16226,0.0,2023,6,7,13,43,15,216
39.87010,0.19250,-0.16065,0.00000,0.03282,0.98015,-0.15958,0.0,2023,6,7,13,43,15,286
39.87020,0.08750,-0.12565,0.00000,0.03257,0.98198,-0.16324,0.0,2023,6,7,13,43,15,366
39.87030,0.35000,0.10185,0.00000,0.03367,0.98393,-0.16324,0.0,2023,6,7,13,43,15,456
39.87040,-0.03500,-0.00315,0.00000,0.03343,0.97954,-0.15982,0.0,2023,6,7,13,43,15,556
39.87050,0.00000,0.13685,0.00000,0.03196,0.98161,-0.16263,0.0,2023,6,7,13,43,15,666
39.87060,0.15750,0.10185,0.00000,0.03428,0.98076,-0.16153,0.0,2023,6,7,13,43,15,786
39.87070,0.00000,-0.00315,0.00000,0.03196,0.98039,-0.15604,0.0,2023,6,7,13,43,15,916
39.87080,0.01750,-0.00315,0.00000,0.02989,0.98198,-0.16336,0.0,2023,6,7,13,43,15,56
39.87090,-0.17500,0.03185,0.00000,0.03392,0.98198,-0.16385,0.0,2023,6,7,13,43,15,66
39.87100,0.03500,-0.10815,0.00000,0.03318,0.97966,-0.15823,0.0,2023,6,7,13,43,15,86
39.87110,-0.08750,-0.03815,0.00000,0.03343,0.98234,-0.15982,0.0,2023,6,7,13,43,15,116
39.87120,-0.12250,-0.03815,0.00000,0.03318,0.98381,-0.16092,0.0,2023,6,7,13,43,15,156
39.87130,0.08750,-0.00315,0.00000,0.03331,0.98003,-0.16031,0.0,2023,6,7,13,43,15,206
39.87140,-0.29750,-0.00315,0.00000,0.03148,0.98186,-0.15958,0.0,2023,6,7,13,43,15,266
39.87150,0.15750,-0.28315,0.00000,0.03392,0.98173,-0.16238,0.0,2023,6,7,13,43,15,336
39.87160,0.17500,-0.07315,0.00000,0.03233,0.97929,-0.16031,0.0,2023,6,7,13,43,15,416
39.87170,-0.07000,0.08435,0.00000,0.03343,0.97966,-0.16080,0.0,2023,6,7,13,43,15,506
39.87180,-0.14000,0.11935,0.00000,0.03111,0.98198,-0.16421,0.0,2023,6,7,13,43,15,606
39.87190,0.07000,-0.00315,0.00000,0.03233,0.98344,-0.16275,0.0,2023,6,7,13,43,15,716
39.87200,0.10500,-0.03815,0.00000,0.03221,0.97905,-0.16043,0.0,2023,6,7,13,43,15,836
39.87210,0.07000,0.08435,0.00000,0.03184,0.98283,-0.16421,0.0,2023,6,7,13,43,15,966
39.87220,0.03500,0.04935,0.00000,0.03404,0.98064,-0.16250,0.0,2023,6,7,13,43,15,106
39.87230,-0.14000,0.17185,0.00000,0.03428,0.98283,-0.16043,0.0,2023,6,7,13,43,15,116
39.87240,-0.10500,-0.05565,0.00000,0.03123,0.98015,-0.16055,0.0,2023,6,7,13,43,15,136
39.87250,0.17500,0.03185,0.00000,0.03209,0.98320,-0.15982,0.0,2023,6,7,13,43,15,166
39.87260,0.08750,-0.02065,0.00000,0.03306,0.97942,-0.15689,0.0,2023,6,7,13,43,15,206
39.87270,-0.17500,0.17185,0.00000,0.03392,0.98125,-0.15848,0.0,2023,6,7,13,43,15,256
39.87280,-0.07000,0.11935,0.00000,0.03257,0.98283,-0.15823,0.0,2023,6,7,13,43,15,316
39.87290,-0.03500,0.15435,0.00000,0.03343,0.98393,-0.15994,0.0,2023,6,7,13,43,15,386
39.87300,-0.01750,0.04935,0.00000,0.03343,0.98271,-0.15823,0.0,2023,6,7,13,43,15,466
39.87310,0.00000,0.03185,0.00000,0.03245,0.98283,-0.15714,0.0,2023,6,7,13,43,15,556
39.87320,0.19250,0.24185,0.00000,0.03306,0.98027,-0.16153,0.0,2023,6,7,13,43,15,656
39.87330,-0.05250,0.10185,0.00000,0.03282,0.98064,-0.16031,0.0,2023,6,7,13,43,15,766
39.87340,0.03500,0.01435,0.00000,0.03367,0.98137,-0.15945,0.0,2023,6,7,13,43,15,886
39.87350,0.00000,-0.03815,0.00000,0.03257,0.98161,-0.16433,0.0,2023,6,7,13,43,15,16
39.87360,0.00000,0.04935,0.00000,0.03245,0.98271,-0.16104,0.0,2023,6,7,13,43,15,26
39.87370,-0.08750,-0.12565,0.00000,0.03184,0.97844,-0.15994,0.0,2023,6,7,13,43,15,46
39.87380,0.05250,0.03185,0.00000,0.03343,0.98149,-0.16324,0.0,2023,6,7,13,43,15,76
39.87390,0.10500,0.08435,0.00000,0.03221,0.98247,-0.16360,0.0,2023,6,7,13,43,15,116
39.87400,0.00000,-0.23065,0.00000,0.03294,0.98161,-0.16043,0.0,2023,6,7,13,43,15,166
39.87410,0.03500,-0.07315,0.00000,0.03355,0.98295,-0.15921,0.0,2023,6,7,13,43,15,226
39.87420,-0.03500,-0.03815,0.00000,0.03367,0.98039,-0.16189,0.0,2023,6,7,13,43,15,296
39.87430,-0.12250,0.03185,0.00000,0.03148,0.98027,-0.15714,0.0,2023,6,7,13,43,15,376
39.87440,-0.22750,0.06685,0.00000,0.03160,0.98051,-0.15982,0.0,2023,6,7,13,43,15,466
39.87450,0.07000,0.04935,0.00000,0.03465,0.98198,-0.16299,0.0,2023,6,7,13,43,15,566
39.87460,0.12250,-0.14315,0.00000,0.03270,0.98186,-0.15982,0.0,2023,6,7,13,43,15,676
39.87470,-0.12250,-0.03815,0.00000,0.03379,0.98393,-0.15897,0.0,2023,6,7,13,43,15,796
39.87480,0.01750,-0.07315,0.00000,0.03257,0.98100,-0.16299,0.0,2023,6,7,13,43,15,926
39.87490,0.07000,0.04935,0.00000,0.03440,0.98393,-0.16299,0.0,2023,6,7,13,43,15,66
39.87500,-0.01750,-0.02065,0.00000,0.03209,0.98259,-0.16348,0.0,2023,6,7,13,43,15,76
39.87510,-0.10500,0.11935,0.00000,0.03306,0.98112,-0.16128,0.0,2023,6,7,13,43,15,96
39.87520,-0.05250,0.08435,0.00000,0.03172,0.98430,-0.16019,0.0,2023,6,7,13,43,15,126
39.87530,0.05250,0.17185,0.00000,0.03209,0.98198,-0.16336,0.0,2023,6,7,13,43,15,166
39.87540,-0.03500,-0.16065,0.00000,0.03209,0.98015,-0.16092,0.0,2023,6,7,13,43,15,216
39.87550,0.01750,0.06685,0.00000,0.03257,0.97966,-0.16189,0.0,2023,6,7,13,43,15,276
39.87560,-0.01750,0.04935,0.00000,0.03501,0.98088,-0.16446,0.0,2023,6,7,13,43,15,346
39.87570,-0.05250,-0.03815,0.00000,0.03379,0.98027,-0.15933,0.0,2023,6,7,13,43,15,426
39.87580,-0.21000,0.03185,0.00000,0.03343,0.98149,-0.15775,0.0,2023,6,7,13,43,15,516
39.87590,0.00000,0.06685,0.00000,0.03294,0.98112,-0.15970,0.0,2023,6,7,13,43,15,616
39.87600,0.00000,0.11935,0.00000,0.03135,0.97942,-0.15909,0.0,2023,6,7,13,43,15,726
39.87610,-0.22750,-0.00315,0.00000,0.03331,0.98308,-0.15872,0.0,2023,6,7,13,43,15,846
39.87620,0.00000,0.11935,0.00000,0.03245,0.98320,-0.15848,0.0,2023,6,7,13,43,15,976
39.87630,0.12250,0.17185,0.00000,0.03306,0.98271,-0.16482,0.0,2023,6,7,13,43,15,116
39.87640,-0.10500,0.13685,0.00000,0.03221,0.98051,-0.16250,0.0,2023,6,7,13,43,15,126
39.87650,-0.01750,0.11935,0.00000,0.03306,0.97917,-0.16165,0.0,2023,6,7,13,43,15,146
39.87660,0.03500,-0.14315,0.00000,0.03257,0.98186,-0.15884,0.0,2023,6,7,13,43,15,176
39.87670,-0.01750,-0.21315,0.00000,0.03318,0.98186,-0.16470,0.0,2023,6,7,13,43,15,216
39.87680,0.03500,0.01435,0.00000,0.03428,0.98271,-0.15799,0.0,2023,6,7,13,43,15,266
39.87690,-0.05250,0.24185,0.00000,0.03087,0.98430,-0.15872,0.0,2023,6,7,13,43,15,326
39.87700,-0.12250,0.04935,0.00000,0.03196,0.98430,-0.16275,0.0,2023,6,7,13,43,16,396
39.87710,-0.03500,0.10185,0.00000,0.03392,0.98149,-0.15945,0.0,2023,6,7,13,43,16,476
39.87720,-0.08750,-0.10815,0.00000,0.03331,0.98210,-0.15994,0.0,2023,6,7,13,43,16,566
39.87730,-0.05250,0.03185,0.00000,0.03148,0.98234,-0.16226,0.0,2023,6,7,13,43,16,666
39.87740,0.05250,-0.07315,0.00000,0.03099,0.98393,-0.16202,0.0,2023,6,7,13,43,16,776
39.87750,0.12250,-0.26565,0.00000,0.03123,0.98064,-0.15884,0.0,2023,6,7,13,43,16,896
39.87760,-0.10500,0.10185,0.00000,0.03209,0.98210,-0.16177,0.0,2023,6,7,13,43,16,26
39.87770,0.08750,-0.26565,0.00000,0.03233,0.98356,-0.16250,0.0,2023,6,7,13,43,16,36
39.87780,0.01750,0.08435,0.00000,0.03233,0.98125,-0.16287,0.0,2023,6,7,13,43,16,56
39.87790,-0.03500,-0.14315,0.00000,0.03501,0.98186,-0.15811,0.0,2023,6,7,13,43,16,86
39.87800,0.07000,0.04935,0.00000,0.03245,0.98015,-0.16165,0.0,2023,6,7,13,43,16,126
39.87810,-0.08750,-0.02065,0.00000,0.03233,0.98173,-0.16214,0.0,2023,6,7,13,43,16,176
39.87820,-0.10500,-0.00315,0.00000,0.03514,0.97990,-0.15811,0.0,2023,6,7,13,43,16,236
39.87830,-0.15750,-0.00315,0.00000,0.03233,0.97990,-0.15909,0.0,2023,6,7,13,43,16,306
39.87840,-0.01750,0.03185,0.00000,0.03465,0.98186,-0.15836,0.0,2023,6,7,13,43,16,386
39.87850,0.31500,-0.09065,0.00000,0.03209,0.98039,-0.16385,0.0,2023,6,7,13,43,16,476
39.87860,-0.12250,0.01435,0.00000,0.03318,0.98259,-0.16080,0.0,2023,6,7,13,43,16,576
39.87870,-0.03500,-0.10815,0.00000,0.03270,0.98259,-0.16275,0.0,2023,6,7,13,43,16,686
39.87880,0.17500,-0.09065,0.00000,0.03233,0.98088,-0.16177,0.0,2023,6,7,13,43,16,806
39.87890,0.01750,0.10185,0.00000,0.03514,0.97990,-0.16153,0.0,2023,6,7,13,43,16,936
39.87900,-0.05250,0.01435,0.00000,0.03331,0.97844,-0.15665,0.0,2023,6,7,13,43,16,76
39.87910,-0.08750,-0.03815,0.00000,0.03245,0.98222,-0.16189,0.0,2023,6,7,13,43,16,86
39.87920,-0.01750,0.04935,0.00000,0.03160,0.98137,-0.16324,0.0,2023,6,7,13,43,16,106
39.87930,0.01750,-0.03815,0.00000,0.03294,0.98149,-0.15677,0.0,2023,6,7,13,43,16,136
39.87940,0.07000,-0.16065,0.00000,0.03123,0.98112,-0.15970,0.0,2023,6,7,13,43,16,176
39.87950,-0.10500,-0.00315,0.00000,0.03209,0.98320,-0.15933,0.0,2023,6,7,13,43,16,226
39.87960,0.15750,0.20685,0.00000,0.03331,0.98100,-0.16019,0.0,2023,6,7,13,43,16,286
39.87970,0.07000,-0.03815,0.00000,0.03318,0.98186,-0.16141,0.0,2023,6,7,13,43,16,356
39.87980,-0.01750,-0.12565,0.00000,0.03379,0.98222,-0.16006,0.0,2023,6,7,13,43,16,436
39.87990,0.08750,-0.09065,0.00000,0.03087,0.98198,-0.16080,0.0,2023,6,7,13,43,16,526
39.88000,0.08750,0.03185,0.00000,0.03343,0.98247,-0.16214,0.0,2023,6,7,13,43,16,626
39.88010,-0.03500,0.08435,0.00000,0.03282,0.98198,-0.15836,0.0,2023,6,7,13,43,16,736
39.88020,-0.17500,0.04935,0.00000,0.03160,0.98137,-0.15994,0.0,2023,6,7,13,43,16,856
39.88030,-0.08750,0.03185,0.00000,0.03160,0.98161,-0.15970,0.0,2023,6,7,13,43,16,986
39.88040,-0.01750,0.03185,0.00000,0.03233,0.98247,-0.16275,0.0,2023,6,7,13,43,16,126
39.88050,-0.05250,-0.05565,0.00000,0.03282,0.98186,-0.16067,0.0,2023,6,7,13,43,16,136
39.88060,0.01750,-0.16065,0.00000,0.03331,0.98161,-0.16348,0.0,2023,6,7,13,43,16,156
39.88070,0.01750,0.01435,0.00000,0.03209,0.98356,-0.16275,0.0,2023,6,7,13,43,16,186
39.88080,0.05250,-0.02065,0.00000,0.03123,0.98222,-0.16372,0.0,2023,6,7,13,43,16,226
39.88090,0.05250,-0.19565,0.00000,0.03318,0.97917,-0.16104,0.0,2023,6,7,13,43,16,276
39.88100,-0.14000,0.01435,0.00000,0.03245,0.98320,-0.16031,0.0,2023,6,7,13,43,16,336
39.88110,0.01750,0.13685,0.00000,0.03233,0.98222,-0.16116,0.0,2023,6,7,13,43,16,406
39.88120,-0.07000,-0.14315,0.00000,0.03074,0.98173,-0.16031,0.0,2023,6,7,13,43,16,486
39.88130,-0.21000,0.13685,0.00000,0.03221,0.97978,-0.15567,0.0,2023,6,7,13,43,16,576
39.88140,0.00000,-0.00315,0.00000,0.03355,0.98186,-0.16067,0.0,2023,6,7,13,43,16,676
39.88150,0.07000,-0.23065,0.00000,0.03306,0.98515,-0.16055,0.0,2023,6,7,13,43,16,786
39.88160,0.12250,0.06685,0.00000,0.03306,0.98344,-0.16385,0.0,2023,6,7,13,43,16,906
39.88170,0.00000,-0.09065,0.00000,0.03257,0.98088,-0.15982,0.0,2023,6,7,13,43,16,36
39.88180,-0.19250,-0.16065,0.00000,0.03306,0.98259,-0.16153,0.0,2023,6,7,13,43,16,46
39.88190,0.05250,0.03185,0.00000,0.03501,0.98234,-0.16141,0.0,2023,6,7,13,43,16,66
39.88200,-0.08750,0.08435,0.00000,0.03416,0.98064,-0.15897,0.0,2023,6,7,13,43,16,96
39.88210,-0.10500,-0.07315,0.00000,0.03209,0.98271,-0.15994,0.0,2023,6,7,13,43,16,136
39.88220,-0.15750,0.06685,0.00000,0.03440,0.98088,-0.15982,0.0,2023,6,7,13,43,16,186
39.88230,0.03500,-0.05565,0.00000,0.03270,0.98271,-0.16336,0.0,2023,6,7,13,43,16,246
39.88240,0.00000,0.08435,0.00000,0.03514,0.98112,-0.16177,0.0,2023,6,7,13,43,16,316
39.88250,0.01750,-0.14315,0.00000,0.03184,0.98051,-0.16031,0.0,2023,6,7,13,43,16,396
39.88260,-0.03500,0.04935,0.00000,0.03306,0.98149,-0.16116,0.0,2023,6,7,13,43,16,486
39.88270,0.15750,-0.09065,0.00000,0.03184,0.98271,-0.16348,0.0,2023,6,7,13,43,16,586
39.88280,0.10500,-0.17815,0.00000,0.03257,0.98051,-0.16104,0.0,2023,6,7,13,43,16,696
39.88290,-0.29750,-0.07315,0.00000,0.03160,0.98271,-0.15701,0.0,2023,6,7,13,43,16,816
39.88300,0.00000,-0.07315,0.00000,0.03331,0.98112,-0.15897,0.0,2023,6,7,13,43,16,946
39.88310,0.07000,-0.07315,0.00000,0.03453,0.98356,-0.16226,0.0,2023,6,7,13,43,16,86
39.88320,-0.08750,0.18935,0.00000,0.03245,0.97966,-0.15921,0.0,2023,6,7,13,43,16,96
39.88330,0.19250,-0.03815,0.00000,0.03379,0.98125,-0.15872,0.0,2023,6,7,13,43,16,116
39.88340,-0.14000,-0.12565,0.00000,0.03331,0.98539,-0.16116,0.0,2023,6,7,13,43,16,146
39.88350,0.00000,-0.07315,0.00000,0.03172,0.98234,-0.16202,0.0,2023,6,7,13,43,16,186
39.88360,-0.01750,0.11935,0.00000,0.03209,0.98064,-0.16043,0.0,2023,6,7,13,43,16,236
39.88370,-0.01750,-0.02065,0.00000,0.03404,0.97942,-0.15921,0.0,2023,6,7,13,43,16,296
39.88380,0.01750,0.04935,0.00000,0.03245,0.98112,-0.16019,0.0,2023,6,7,13,43,16,366
39.88390,0.07000,-0.05565,0.00000,0.03233,0.98295,-0.16311,0.0,2023,6,7,13,43,16,446
39.88400,0.15750,0.11935,0.00000,0.03270,0.98112,-0.16275,0.0,2023,6,7,13,43,16,536
39.88410,0.10500,0.10185,0.00000,0.03282,0.98271,-0.16043,0.0,2023,6,7,13,43,16,636
39.88420,-0.10500,0.04935,0.00000,0.03428,0.97917,-0.16165,0.0,2023,6,7,13,43,16,746
39.88430,0.01750,-0.17815,0.00000,0.03514,0.98112,-0.16360,0.0,2023,6,7,13,43,16,866
39.88440,0.29750,-0.07315,0.00000,0.03123,0.98283,-0.16165,0.0,2023,6,7,13,43,16,996
39.88450,0.01750,-0.12565,0.00000,0.03660,0.98003,-0.16031,0.0,2023,6,7,13,43,16,136
39.88460,0.00000,0.10185,0.00000,0.03282,0.98198,-0.15836,0.0,2023,6,7,13,43,16,146
39.88470,0.01750,-0.10815,0.00000,0.03306,0.98295,-0.16372,0.0,2023,6,7,13,43,16,166
39.88480,0.01750,0.03185,0.00000,0.03416,0.98454,-0.16311,0.0,2023,6,7,13,43,16,196
39.88490,0.00000,-0.00315,0.00000,0.03172,0.98112,-0.16080,0.0,2023,6,7,13,43,16,236
39.88500,0.14000,-0.09065,0.00000,0.03270,0.98210,-0.15982,0.0,2023,6,7,13,43,16,286
39.88510,0.05250,0.01435,0.00000,0.03221,0.98222,-0.16214,0.0,2023,6,7,13,43,16,346
39.88520,0.03500,0.20685,0.00000,0.03355,0.98064,-0.16275,0.0,2023,6,7,13,43,16,416
39.88530,0.01750,-0.26565,0.00000,0.03062,0.98051,-0.15909,0.0,2023,6,7,13,43,16,496
39.88540,-0.08750,0.03185,0.00000,0.03684,0.98149,-0.15726,0.0,2023,6,7,13,43,16,586
39.88550,-0.14000,0.08435,0.00000,0.03245,0.97868,-0.16031,0.0,2023,6,7,13,43,16,686
39.88560,0.03500,0.10185,0.00000,0.03306,0.98283,-0.16299,0.0,2023,6,7,13,43,16,796
39.88570,-0.03500,-0.17815,0.00000,0.03257,0.98088,-0.16226,0.0,2023,6,7,13,43,16,916
39.88580,-0.08750,0.06685,0.00000,0.03294,0.98369,-0.15860,0.0,2023,6,7,13,43,16,46
39.88590,-0.01750,-0.02065,0.00000,0.03428,0.98405,-0.16006,0.0,2023,6,7,13,43,16,56
39.88600,0.05250,-0.17815,0.00000,0.03404,0.98051,-0.16189,0.0,2023,6,7,13,43,17,76
39.88610,0.03500,0.08435,0.00000,0.03282,0.98320,-0.15921,0.0,2023,6,7,13,43,17,106
39.88620,-0.03500,0.04935,0.00000,0.03318,0.98332,-0.16104,0.0,2023,6,7,13,43,17,146
39.88630,-0.08750,-0.03815,0.00000,0.03135,0.98210,-0.15848,0.0,2023,6,7,13,43,17,196
39.88640,0.08750,-0.05565,0.00000,0.03184,0.98088,-0.16238,0.0,2023,6,7,13,43,17,256
39.88650,0.14000,0.03185,0.00000,0.03099,0.98112,-0.16116,0.0,2023,6,7,13,43,17,326
39.88660,-0.03500,0.13685,0.00000,0.03501,0.98088,-0.16128,0.0,2023,6,7,13,43,17,406
39.88670,-0.15750,0.25935,0.00000,0.03221,0.98198,-0.15848,0.0,2023,6,7,13,43,17,496
39.88680,-0.03500,0.10185,0.00000,0.03306,0.98295,-0.16238,0.0,2023,6,7,13,43,17,596
39.88690,0.03500,-0.02065,0.00000,0.03318,0.98064,-0.16141,0.0,2023,6,7,13,43,17,706
39.88700,0.14000,-0.14315,0.00000,0.03392,0.98186,-0.16299,0.0,2023,6,7,13,43,17,826
39.88710,0.07000,0.11935,0.00000,0.03379,0.98100,-0.15909,0.0,2023,6,7,13,43,17,956
39.88720,-0.14000,-0.24815,0.00000,0.03331,0.98271,-0.15860,0.0,2023,6,7,13,43,17,96
39.88730,0.15750,-0.00315,0.00000,0.03355,0.98430,-0.16104,0.0,2023,6,7,13,43,17,106
39.88740,0.19250,-0.14315,0.00000,0.03184,0.98088,-0.16397,0.0,2023,6,7,13,43,17,126
39.88750,0.01750,-0.02065,0.00000,0.03184,0.98271,-0.16250,0.0,2023,6,7,13,43,17,156
39.88760,-0.01750,0.03185,0.00000,0.03135,0.98039,-0.15909,0.0,2023,6,7,13,43,17,196
39.88770,-0.08750,0.13685,0.00000,0.03392,0.98064,-0.15958,0.0,2023,6,7,13,43,17,246
39.88780,-0.14000,0.08435,0.00000,0.03245,0.98173,-0.16324,0.0,2023,6,7,13,43,17,306
39.88790,0.10500,0.11935,0.00000,0.03318,0.98100,-0.16031,0.0,2023,6,7,13,43,17,376
39.88800,0.08750,0.04935,0.00000,0.03135,0.98271,-0.16153,0.0,2023,6,7,13,43,17,456
39.88810,-0.05250,-0.05565,0.00000,0.03428,0.98161,-0.15958,0.0,2023,6,7,13,43,17,546
39.88820,-0.26250,-0.10815,0.00000,0.03209,0.98161,-0.15836,0.0,2023,6,7,13,43,17,646
39.88830,-0.12250,0.22435,0.00000,0.03087,0.98198,-0.16202,0.0,2023,6,7,13,43,17,756
39.88840,0.01750,-0.00315,0.00000,0.03282,0.98173,-0.16202,0.0,2023,6,7,13,43,17,876
39.88850,0.22750,0.06685,0.00000,0.03209,0.98173,-0.16238,0.0,2023,6,7,13,43,17,6
39.88860,-0.12250,0.06685,0.00000,0.03367,0.98222,-0.16287,0.0,2023,6,7,13,43,17,16
39.88870,-0.14000,0.29435,0.00000,0.03209,0.98198,-0.15921,0.0,2023,6,7,13,43,17,36
39.88880,0.00000,-0.10815,0.00000,0.03379,0.98088,-0.15982,0.0,2023,6,7,13,43,17,66
39.88890,0.08750,-0.03815,0.00000,0.03196,0.97966,-0.16165,0.0,2023,6,7,13,43,17,106
39.88900,0.17500,-0.07315,0.00000,0.03074,0.98222,-0.16067,0.0,2023,6,7,13,43,17,156
39.88910,0.22750,-0.05565,0.00000,0.03221,0.97942,-0.16250,0.0,2023,6,7,13,43,17,216
39.88920,-0.12250,0.08435,0.00000,0.03087,0.98430,-0.16177,0.0,2023,6,7,13,43,17,286
39.88930,0.21000,-0.12565,0.00000,0.03209,0.98295,-0.16238,0.0,2023,6,7,13,43,17,366
39.88940,-0.05250,-0.07315,0.00000,0.03343,0.98442,-0.15994,0.0,2023,6,7,13,43,17,456
39.88950,-0.05250,-0.00315,0.00000,0.03331,0.98064,-0.16043,0.0,2023,6,7,13,43,17,556
39.88960,-0.24500,0.15435,0.00000,0.03257,0.98088,-0.16421,0.0,2023,6,7,13,43,17,666
39.88970,0.17500,0.04935,0.00000,0.03209,0.98125,-0.16311,0.0,2023,6,7,13,43,17,786
39.88980,0.10500,-0.26565,0.00000,0.03294,0.98137,-0.16299,0.0,2023,6,7,13,43,17,916
39.88990,-0.17500,0.22435,0.00000,0.03331,0.98234,-0.16226,0.0,2023,6,7,13,43,17,56
39.89000,-0.05250,-0.23065,0.00000,0.03148,0.98137,-0.16080,0.0,2023,6,7,13,43,17,66
39.89010,-0.14000,0.04935,0.00000,0.03209,0.98015,-0.16507,0.0,2023,6,7,13,43,17,86
39.89020,0.26250,-0.24815,0.00000,0.03221,0.98308,-0.16397,0.0,2023,6,7,13,43,17,116
39.89030,0.07000,0.01435,0.00000,0.03196,0.97942,-0.15799,0.0,2023,6,7,13,43,17,156
39.89040,-0.12250,0.08435,0.00000,0.03209,0.98076,-0.16336,0.0,2023,6,7,13,43,17,206
39.89050,-0.10500,0.01435,0.00000,0.03306,0.97844,-0.15958,0.0,2023,6,7,13,43,17,266
39.89060,0.14000,-0.05565,0.00000,0.03440,0.98344,-0.16324,0.0,2023,6,7,13,43,17,336
39.89070,0.19250,0.01435,0.00000,0.03233,0.98222,-0.16177,0.0,2023,6,7,13,43,17,416
39.89080,-0.01750,0.01435,0.00000,0.03221,0.98088,-0.16238,0.0,2023,6,7,13,43,17,506
39.89090,0.12250,-0.16065,0.00000,0.03355,0.98259,-0.16116,0.0,2023,6,7,13,43,17,606
39.89100,0.15750,-0.14315,0.00000,0.03294,0.98491,-0.16092,0.0,2023,6,7,13,43,17,716
39.89110,0.00000,0.04935,0.00000,0.03355,0.98064,-0.16372,0.0,2023,6,7,13,43,17,836
39.89120,0.14000,-0.02065,0.00000,0.03501,0.98003,-0.15762,0.0,2023,6,7,13,43,17,966
39.89130,0.05250,-0.10815,0.00000,0.03465,0.98356,-0.16067,0.0,2023,6,7,13,43,17,106
39.89140,-0.08750,-0.10815,0.00000,0.03270,0.98198,-0.16409,0.0,2023,6,7,13,43,17,116
39.89150,0.05250,-0.03815,0.00000,0.03026,0.98369,-0.15958,0.0,2023,6,7,13,43,17,136
39.89160,0.01750,-0.07315,0.00000,0.03331,0.98015,-0.16336,0.0,2023,6,7,13,43,17,166
39.89170,0.03500,0.25935,0.00000,0.03209,0.97978,-0.16202,0.0,2023,6,7,13,43,17,206
39.89180,0.01750,0.06685,0.00000,0.03440,0.97844,-0.16458,0.0,2023,6,7,13,43,17,256
39.89190,0.01750,-0.03815,0.00000,0.03148,0.98161,-0.16324,0.0,2023,6,7,13,43,17,316
39.89200,-0.12250,0.11935,0.00000,0.03184,0.98137,-0.15970,0.0,2023,6,7,13,43,17,386
39.89210,0.07000,0.11935,0.00000,0.03221,0.98112,-0.16214,0.0,2023,6,7,13,43,17,466
39.89220,-0.15750,0.17185,0.00000,0.03294,0.98064,-0.15982,0.0,2023,6,7,13,43,17,556
39.89230,-0.01750,0.08435,0.00000,0.03501,0.98198,-0.16238,0.0,2023,6,7,13,43,17,656
39.89240,0.03500,-0.05565,0.00000,0.03148,0.98137,-0.16202,0.0,2023,6,7,13,43,17,766
39.89250,-0.22750,0.03185,0.00000,0.03123,0.98295,-0.15872,0.0,2023,6,7,13,43,17,886
39.89260,-0.10500,0.11935,0.00000,0.03306,0.98100,-0.16055,0.0,2023,6,7,13,43,17,16
39.89270,-0.08750,0.08435,0.00000,0.03209,0.98210,-0.16006,0.0,2023,6,7,13,43,17,26
39.89280,0.03500,0.01435,0.00000,0.03123,0.98356,-0.16177,0.0,2023,6,7,13,43,17,46
39.89290,0.14000,-0.17815,0.00000,0.03245,0.98064,-0.16226,0.0,2023,6,7,13,43,17,76
39.89300,0.00000,-0.00315,0.00000,0.03392,0.98210,-0.16080,0.0,2023,6,7,13,43,17,116
39.89310,0.19250,-0.03815,0.00000,0.03209,0.98222,-0.16202,0.0,2023,6,7,13,43,17,166
39.89320,0.14000,-0.19565,0.00000,0.03331,0.98198,-0.16641,0.0,2023,6,7,13,43,17,226
39.89330,0.19250,0.01435,0.00000,0.03294,0.97966,-0.16092,0.0,2023,6,7,13,43,17,296
39.89340,0.00000,-0.05565,0.00000,0.03343,0.98149,-0.16153,0.0,2023,6,7,13,43,17,376
39.89350,0.08750,0.03185,0.00000,0.03209,0.98234,-0.16202,0.0,2023,6,7,13,43,17,466
39.89360,0.12250,0.13685,0.00000,0.03270,0.98149,-0.16250,0.0,2023,6,7,13,43,17,566
39.89370,0.05250,-0.02065,0.00000,0.03331,0.98198,-0.16409,0.0,2023,6,7,13,43,17,676
39.89380,0.05250,-0.05565,0.00000,0.03367,0.98234,-0.15945,0.0,2023,6,7,13,43,17,796
39.89390,0.10500,0.01435,0.00000,0.03257,0.98210,-0.16019,0.0,2023,6,7,13,43,17,926
39.89400,0.07000,-0.16065,0.00000,0.03697,0.98161,-0.16372,0.0,2023,6,7,13,43,17,66
39.89410,0.05250,-0.07315,0.00000,0.03318,0.98417,-0.16263,0.0,2023,6,7,13,43,17,76
39.89420,-0.05250,-0.02065,0.00000,0.03221,0.97893,-0.16238,0.0,2023,6,7,13,43,17,96
39.89430,0.01750,-0.03815,0.00000,0.03184,0.98173,-0.15836,0.0,2023,6,7,13,43,17,126
39.89440,0.05250,-0.14315,0.00000,0.03367,0.97783,-0.16080,0.0,2023,6,7,13,43,17,166
39.89450,0.14000,-0.10815,0.00000,0.02928,0.98369,-0.16482,0.0,2023,6,7,13,43,17,216
39.89460,-0.10500,0.08435,0.00000,0.03514,0.98039,-0.16543,0.0,2023,6,7,13,43,17,276
39.89470,-0.14000,0.10185,0.00000,0.03233,0.98039,-0.16043,0.0,2023,6,7,13,43,17,346
39.89480,-0.05250,-0.10815,0.00000,0.02965,0.98088,-0.16177,0.0,2023,6,7,13,43,17,426
39.89490,0.00000,0.27685,0.00000,0.03477,0.98100,-0.16141,0.0,2023,6,7,13,43,17,516
39.89500,0.10500,0.24185,0.00000,0.03331,0.98076,-0.16385,0.0,2023,6,7,13,43,17,616
39.89510,-0.07000,-0.07315,0.00000,0.03465,0.98478,-0.16067,0.0,2023,6,7,13,43,18,726
39.89520,0.14000,-0.02065,0.00000,0.03318,0.98271,-0.15933,0.0,2023,6,7,13,43,18,846
39.89530,0.19250,-0.14315,0.00000,0.03453,0.98210,-0.16177,0.0,2023,6,7,13,43,18,976
39.89540,-0.17500,0.03185,0.00000,0.03331,0.98137,-0.16372,0.0,2023,6,7,13,43,18,116
39.89550,-0.17500,0.06685,0.00000,0.03282,0.98271,-0.16299,0.0,2023,6,7,13,43,18,126
39.89560,-0.17500,-0.09065,0.00000,0.03477,0.98222,-0.16006,0.0,2023,6,7,13,43,18,146
39.89570,-0.12250,0.27685,0.00000,0.03257,0.98222,-0.15958,0.0,2023,6,7,13,43,18,176
39.89580,0.00000,-0.17815,0.00000,0.03355,0.98112,-0.16238,0.0,2023,6,7,13,43,18,216
39.89590,0.19250,-0.02065,0.00000,0.03392,0.98344,-0.16372,0.0,2023,6,7,13,43,18,266
39.89600,0.07000,-0.12565,0.00000,0.03355,0.98210,-0.16238,0.0,2023,6,7,13,43,18,326
39.89610,-0.05250,0.03185,0.00000,0.03196,0.98064,-0.16128,0.0,2023,6,7,13,43,18,396
39.89620,-0.08750,0.11935,0.00000,0.03196,0.98405,-0.16287,0.0,2023,6,7,13,43,18,476
39.89630,0.03500,0.04935,0.00000,0.03135,0.98161,-0.16385,0.0,2023,6,7,13,43,18,566
39.89640,-0.22750,0.22435,0.00000,0.03294,0.98088,-0.15921,0.0,2023,6,7,13,43,18,666
39.89650,0.17500,-0.09065,0.00000,0.03428,0.98015,-0.16263,0.0,2023,6,7,13,43,18,776
39.89660,0.07000,0.03185,0.00000,0.03514,0.98247,-0.16043,0.0,2023,6,7,13,43,18,896
39.89670,0.05250,0.03185,0.00000,0.03160,0.98344,-0.16397,0.0,2023,6,7,13,43,18,26
39.89680,-0.17500,0.15435,0.00000,0.03294,0.98112,-0.16080,0.0,2023,6,7,13,43,18,36
39.89690,-0.07000,0.10185,0.00000,0.03270,0.97954,-0.16311,0.0,2023,6,7,13,43,18,56
39.89700,0.05250,-0.09065,0.00000,0.03270,0.98161,-0.16043,0.0,2023,6,7,13,43,18,86
39.89710,0.10500,0.01435,0.00000,0.03087,0.98051,-0.16360,0.0,2023,6,7,13,43,18,126
39.89720,0.08750,-0.03815,0.00000,0.03062,0.98393,-0.16348,0.0,2023,6,7,13,43,18,176
39.89730,-0.03500,0.08435,0.00000,0.03184,0.98149,-0.16372,0.0,2023,6,7,13,43,18,236
39.89740,-0.08750,-0.03815,0.00000,0.03148,0.98039,-0.16324,0.0,2023,6,7,13,43,18,306
39.89750,-0.10500,0.03185,0.00000,0.03172,0.98076,-0.16189,0.0,2023,6,7,13,43,18,386
39.89760,0.03500,0.06685,0.00000,0.03367,0.98308,-0.16250,0.0,2023,6,7,13,43,18,476
39.89770,0.07000,0.13685,0.00000,0.03367,0.98271,-0.16311,0.0,2023,6,7,13,43,18,576
39.89780,0.01750,-0.12565,0.00000,0.03294,0.98039,-0.16116,0.0,2023,6,7,13,43,18,686
39.89790,0.07000,-0.10815,0.00000,0.03318,0.98015,-0.16214,0.0,2023,6,7,13,43,18,806
39.89800,0.08750,-0.02065,0.00000,0.03331,0.98320,-0.16067,0.0,2023,6,7,13,43,18,936
39.89810,0.01750,-0.30065,0.00000,0.03355,0.98076,-0.16238,0.0,2023,6,7,13,43,18,76
39.89820,0.14000,0.29435,0.00000,0.03331,0.98222,-0.16214,0.0,2023,6,7,13,43,18,86
39.89830,0.07000,0.04935,0.00000,0.03367,0.98271,-0.15994,0.0,2023,6,7,13,43,18,106
39.89840,-0.08750,0.06685,0.00000,0.03270,0.98027,-0.15970,0.0,2023,6,7,13,43,18,136
39.89850,0.07000,0.15435,0.00000,0.03343,0.97978,-0.15884,0.0,2023,6,7,13,43,18,176
39.89860,0.07000,-0.03815,0.00000,0.03160,0.98076,-0.16555,0.0,2023,6,7,13,43,18,226
39.89870,-0.10500,-0.14315,0.00000,0.03135,0.98076,-0.16116,0.0,2023,6,7,13,43,18,286
39.89880,0.03500,-0.05565,0.00000,0.03270,0.98039,-0.15945,0.0,2023,6,7,13,43,18,356
39.89890,-0.01750,0.17185,0.00000,0.03196,0.98234,-0.16214,0.0,2023,6,7,13,43,18,436
39.89900,0.05250,0.13685,0.00000,0.03270,0.98137,-0.16153,0.0,2023,6,7,13,43,18,526
39.89910,0.15750,-0.14315,0.00000,0.03514,0.98100,-0.16263,0.0,2023,6,7,13,43,18,626
39.89920,-0.15750,-0.02065,0.00000,0.03184,0.98039,-0.15884,0.0,2023,6,7,13,43,18,736
39.89930,0.10500,-0.09065,0.00000,0.03087,0.98088,-0.16116,0.0,2023,6,7,13,43,18,856
39.89940,0.17500,0.03185,0.00000,0.03367,0.98100,-0.16360,0.0,2023,6,7,13,43,18,986
39.89950,0.10500,0.03185,0.00000,0.03318,0.97734,-0.16177,0.0,2023,6,7,13,43,18,126
