#2023/06/07 17:25:12
time,wx,wy,wz,ax,ay,az,yy,MM,dd,hh,mm,ss,ms
49.69330,0.05215,0.21297,0.00000,0.03257,0.97502,-0.18886,0.0,2023,6,7,17,25,13,218
49.69340,-0.15785,-0.01453,0.00000,0.03148,0.97722,-0.18751,0.0,2023,6,7,17,25,13,229
49.69350,0.17465,0.02047,0.00000,0.03257,0.97393,-0.19032,0.0,2023,6,7,17,25,13,240
49.69360,0.17465,-0.06703,0.00000,0.03111,0.97978,-0.19093,0.0,2023,6,7,17,25,13,251
49.69370,-0.01785,0.17797,0.00000,0.03135,0.97722,-0.18898,0.0,2023,6,7,17,25,13,262
49.69380,-0.00035,-0.24203,0.00000,0.03257,0.97820,-0.19166,0.0,2023,6,7,17,25,13,273
49.69390,0.06965,0.16047,0.00000,0.03209,0.97637,-0.19020,0.0,2023,6,7,17,25,13,284
49.69400,0.06965,0.03797,0.00000,0.03099,0.97698,-0.18703,0.0,2023,6,7,17,25,13,295
49.69410,-0.12285,0.10797,0.00000,0.03111,0.97807,-0.19154,0.0,2023,6,7,17,25,13,306
49.69420,-0.01785,-0.01453,0.00000,0.03184,0.97478,-0.18764,0.0,2023,6,7,17,25,13,317
49.69430,-0.08785,0.17797,0.00000,0.03318,0.97588,-0.18788,0.0,2023,6,7,17,25,13,328
49.69440,-0.05285,0.09047,0.00000,0.03270,0.97759,-0.18959,0.0,2023,6,7,17,25,13,339
49.69450,-0.01785,-0.11953,0.00000,0.03257,0.97466,-0.18739,0.0,2023,6,7,17,25,13,350
49.69460,-0.05285,-0.25953,0.00000,0.03038,0.97576,-0.19032,0.0,2023,6,7,17,25,13,361
49.69470,-0.03535,-0.10203,0.00000,0.03111,0.97807,-0.18995,0.0,2023,6,7,17,25,13,372
49.69480,-0.10535,0.33547,0.00000,0.03440,0.97844,-0.19069,0.0,2023,6,7,17,25,13,383
49.69490,-0.14035,0.30047,0.00000,0.03111,0.97783,-0.18971,0.0,2023,6,7,17,25,13,394
49.69500,-0.00035,0.02047,0.00000,0.03209,0.97600,-0.19020,0.0,2023,6,7,17,25,13,405
49.69510,-0.01785,0.00297,0.00000,0.03099,0.97661,-0.18715,0.0,2023,6,7,17,25,13,416
49.69520,-0.00035,-0.04953,0.00000,0.02977,0.97807,-0.18800,0.0,2023,6,7,17,25,13,427
49.69530,-0.12285,0.07297,0.00000,0.03148,0.97637,-0.18800,0.0,2023,6,7,17,25,13,438
49.69540,0.15715,-0.15453,0.00000,0.03013,0.97393,-0.18934,0.0,2023,6,7,17,25,13,449
49.69550,-0.07035,0.09047,0.00000,0.03196,0.97441,-0.18922,0.0,2023,6,7,17,25,13,460
49.69560,-0.01785,-0.11953,0.00000,0.03123,0.97746,-0.19130,0.0,2023,6,7,17,25,13,471
49.69570,-0.01785,0.09047,0.00000,0.03306,0.97685,-0.18690,0.0,2023,6,7,17,25,13,482
49.69580,-0.19285,-0.01453,0.00000,0.03074,0.97807,-0.18971,0.0,2023,6,7,17,25,13,493
49.69590,0.08715,-0.10203,0.00000,0.03111,0.97612,-0.19032,0.0,2023,6,7,17,25,13,504
49.69600,-0.00035,-0.06703,0.00000,0.03062,0.97539,-0.18886,0.0,2023,6,7,17,25,13,515
49.69610,0.10465,-0.03203,0.00000,0.03270,0.97551,-0.18849,0.0,2023,6,7,17,25,13,526
49.69620,0.17465,-0.11953,0.00000,0.03221,0.97649,-0.18898,0.0,2023,6,7,17,25,13,537
49.69630,0.06965,0.12547,0.00000,0.03331,0.97978,-0.18873,0.0,2023,6,7,17,25,13,548
49.69640,0.08715,-0.06703,0.00000,0.03001,0.97661,-0.18947,0.0,2023,6,7,17,25,13,559
49.69650,0.01715,-0.01453,0.00000,0.02977,0.97649,-0.18678,0.0,2023,6,7,17,25,13,570
49.69660,-0.05285,-0.06703,0.00000,0.02989,0.97868,-0.18788,0.0,2023,6,7,17,25,13,581
49.69670,0.13965,0.07297,0.00000,0.03026,0.97710,-0.18617,0.0,2023,6,7,17,25,13,592
49.69680,0.10465,-0.13703,0.00000,0.03318,0.97685,-0.18947,0.0,2023,6,7,17,25,13,603
49.69690,-0.07035,-0.04953,0.00000,0.03087,0.97734,-0.18861,0.0,2023,6,7,17,25,13,614
49.69700,-0.08785,0.03797,0.00000,0.03087,0.97759,-0.18776,0.0,2023,6,7,17,25,13,625
49.69710,0.10465,-0.08453,0.00000,0.03013,0.97881,-0.18922,0.0,2023,6,7,17,25,13,636
49.69720,0.05215,0.02047,0.00000,0.03160,0.97624,-0.19081,0.0,2023,6,7,17,25,13,647
49.69730,-0.03535,-0.08453,0.00000,0.03123,0.97563,-0.18617,0.0,2023,6,7,17,25,13,658
49.69740,-0.07035,0.00297,0.00000,0.03184,0.97612,-0.18873,0.0,2023,6,7,17,25,13,669
49.69750,-0.01785,-0.04953,0.00000,0.03196,0.97771,-0.18825,0.0,2023,6,7,17,25,13,680
49.69760,-0.10535,0.05547,0.00000,0.03318,0.97539,-0.18922,0.0,2023,6,7,17,25,13,691
49.69770,0.03465,-0.01453,0.00000,0.03270,0.97698,-0.18837,0.0,2023,6,7,17,25,13,702
49.69780,0.03465,-0.10203,0.00000,0.03026,0.97600,-0.18678,0.0,2023,6,7,17,25,13,713
49.69790,-0.05285,0.02047,0.00000,0.03257,0.97759,-0.19008,0.0,2023,6,7,17,25,13,724
49.69800,-0.07035,-0.01453,0.00000,0.03013,0.97673,-0.19093,0.0,2023,6,7,17,25,13,735
49.69810,0.01715,-0.01453,0.00000,0.03294,0.97624,-0.18849,0.0,2023,6,7,17,25,13,746
49.69820,0.08715,-0.20703,0.00000,0.03087,0.97710,-0.18971,0.0,2023,6,7,17,25,13,757
49.69830,0.01715,0.12547,0.00000,0.03477,0.97637,-0.18873,0.0,2023,6,7,17,25,13,768
49.69840,-0.19285,0.14297,0.00000,0.03062,0.97710,-0.18764,0.0,2023,6,7,17,25,13,779
49.69850,-0.08785,0.14297,0.00000,0.03135,0.97661,-0.19105,0.0,2023,6,7,17,25,13,790
49.69860,0.03465,-0.01453,0.00000,0.03135,0.97698,-0.18654,0.0,2023,6,7,17,25,13,801
49.69870,-0.03535,-0.08453,0.00000,0.03294,0.97624,-0.18568,0.0,2023,6,7,17,25,13,812
49.69880,-0.15785,-0.11953,0.00000,0.03257,0.97502,-0.18751,0.0,2023,6,7,17,25,13,823
49.69890,0.08715,-0.01453,0.00000,0.03196,0.97673,-0.19264,0.0,2023,6,7,17,25,13,834
49.69900,-0.08785,0.09047,0.00000,0.03257,0.97539,-0.18995,0.0,2023,6,7,17,25,13,845
49.69910,0.08715,0.14297,0.00000,0.03392,0.97612,-0.18654,0.0,2023,6,7,17,25,13,856
49.69920,-0.01785,-0.04953,0.00000,0.02891,0.97795,-0.18971,0.0,2023,6,7,17,25,13,867
49.69930,0.03465,-0.20703,0.00000,0.03184,0.97759,-0.18825,0.0,2023,6,7,17,25,13,878
49.69940,-0.00035,-0.06703,0.00000,0.03074,0.97746,-0.19142,0.0,2023,6,7,17,25,13,889
49.69950,0.31465,0.12547,0.00000,0.03050,0.97807,-0.18898,0.0,2023,6,7,17,25,13,900
49.69960,-0.15785,-0.03203,0.00000,0.03196,0.97441,-0.18776,0.0,2023,6,7,17,25,13,911
49.69970,-0.00035,0.10797,0.00000,0.03074,0.97673,-0.18812,0.0,2023,6,7,17,25,13,922
49.69980,-0.07035,0.03797,0.00000,0.03318,0.97600,-0.18642,0.0,2023,6,7,17,25,13,933
49.69990,-0.19285,-0.08453,0.00000,0.03221,0.97539,-0.18642,0.0,2023,6,7,17,25,13,944
49.70000,-0.01785,-0.06703,0.00000,0.02952,0.97844,-0.18751,0.0,2023,6,7,17,25,13,955
49.70010,0.24465,0.30047,0.00000,0.03172,0.97417,-0.18947,0.0,2023,6,7,17,25,13,966
49.70020,-0.03535,-0.15453,0.00000,0.03306,0.97771,-0.18556,0.0,2023,6,7,17,25,13,977
49.70030,0.15715,-0.06703,0.00000,0.03221,0.97856,-0.18861,0.0,2023,6,7,17,25,13,988
49.70040,-0.01785,-0.01453,0.00000,0.03379,0.97356,-0.18373,0.0,2023,6,7,17,25,14,9
49.70050,0.31465,-0.17203,0.00000,0.03196,0.97551,-0.19337,0.0,2023,6,7,17,25,14,20
49.70060,-0.01785,0.02047,0.00000,0.03209,0.97734,-0.18849,0.0,2023,6,7,17,25,14,31
49.70070,-0.08785,0.02047,0.00000,0.02879,0.97637,-0.18861,0.0,2023,6,7,17,25,14,42
49.70080,0.08715,0.12547,0.00000,0.03099,0.97722,-0.18751,0.0,2023,6,7,17,25,14,53
49.70090,0.08715,-0.10203,0.00000,0.03501,0.97771,-0.18751,0.0,2023,6,7,17,25,14,64
49.70100,-0.10535,-0.11953,0.00000,0.03026,0.97539,-0.19069,0.0,2023,6,7,17,25,14,75
49.70110,0.08715,0.00297,0.00000,0.03355,0.97698,-0.19166,0.0,2023,6,7,17,25,14,86
49.70120,-0.15785,0.31797,0.00000,0.03184,0.97661,-0.19008,0.0,2023,6,7,17,25,14,97
49.70130,-0.01785,0.12547,0.00000,0.03099,0.97698,-0.18910,0.0,2023,6,7,17,25,14,108
49.70140,-0.21035,0.09047,0.00000,0.03233,0.97698,-0.18788,0.0,2023,6,7,17,25,14,119
49.70150,0.12215,0.00297,0.00000,0.03001,0.97588,-0.18983,0.0,2023,6,7,17,25,14,130
49.70160,0.08715,-0.29453,0.00000,0.03440,0.97759,-0.18849,0.0,2023,6,7,17,25,14,141
49.70170,-0.24535,-0.08453,0.00000,0.03257,0.97600,-0.18788,0.0,2023,6,7,17,25,14,152
49.70180,0.06965,0.00297,0.00000,0.02928,0.97820,-0.18739,0.0,2023,6,7,17,25,14,163
49.70190,0.06965,0.05547,0.00000,0.03209,0.97710,-0.18825,0.0,2023,6,7,17,25,14,174
49.70200,0.03465,0.03797,0.00000,0.03428,0.97600,-0.18764,0.0,2023,6,7,17,25,14,185
49.70210,-0.01785,-0.15453,0.00000,0.03221,0.97649,-0.18898,0.0,2023,6,7,17,25,14,196
49.70220,-0.03535,0.09047,0.00000,0.03355,0.97698,-0.18886,0.0,2023,6,7,17,25,14,207
49.70230,0.13965,0.21297,0.00000,0.03135,0.97563,-0.18934,0.0,2023,6,7,17,25,14,218
49.70240,-0.00035,0.05547,0.00000,0.03111,0.97649,-0.18629,0.0,2023,6,7,17,25,14,229
49.70250,-0.17535,0.05547,0.00000,0.03026,0.97807,-0.18861,0.0,2023,6,7,17,25,14,240
49.70260,-0.05285,0.12547,0.00000,0.03196,0.97734,-0.18898,0.0,2023,6,7,17,25,14,251
49.70270,-0.03535,-0.01453,0.00000,0.03099,0.97612,-0.19044,0.0,2023,6,7,17,25,14,262
49.70280,-0.08785,-0.01453,0.00000,0.03257,0.97820,-0.18556,0.0,2023,6,7,17,25,14,273
49.70290,-0.15785,0.17797,0.00000,0.03294,0.97832,-0.18837,0.0,2023,6,7,17,25,14,284
49.70300,-0.03535,0.17797,0.00000,0.03050,0.97734,-0.18837,0.0,2023,6,7,17,25,14,295
49.70310,0.08715,-0.01453,0.00000,0.03074,0.97734,-0.18751,0.0,2023,6,7,17,25,14,306
49.70320,-0.05285,-0.04953,0.00000,0.03013,0.97820,-0.18654,0.0,2023,6,7,17,25,14,317
49.70330,-0.05285,-0.01453,0.00000,0.03367,0.97771,-0.19008,0.0,2023,6,7,17,25,14,328
49.70340,-0.05285,0.00297,0.00000,0.03087,0.97417,-0.19093,0.0,2023,6,7,17,25,14,339
49.70350,-0.05285,0.03797,0.00000,0.03074,0.97661,-0.18654,0.0,2023,6,7,17,25,14,350
49.70360,-0.08785,0.19547,0.00000,0.03087,0.97722,-0.18751,0.0,2023,6,7,17,25,14,361
49.70370,0.06965,-0.22453,0.00000,0.02952,0.98039,-0.19130,0.0,2023,6,7,17,25,14,372
49.70380,0.10465,-0.08453,0.00000,0.02904,0.97612,-0.19020,0.0,2023,6,7,17,25,14,383
49.70390,-0.19285,0.02047,0.00000,0.03001,0.97783,-0.18861,0.0,2023,6,7,17,25,14,394
49.70400,-0.07035,0.19547,0.00000,0.03184,0.97624,-0.18886,0.0,2023,6,7,17,25,14,405
49.70410,0.17465,-0.10203,0.00000,0.03099,0.97588,-0.18751,0.0,2023,6,7,17,25,14,416
49.70420,-0.05285,-0.06703,0.00000,0.03013,0.97698,-0.19154,0.0,2023,6,7,17,25,14,427
49.70430,0.15715,0.00297,0.00000,0.03245,0.97539,-0.18812,0.0,2023,6,7,17,25,14,438
49.70440,0.06965,-0.17203,0.00000,0.03184,0.97710,-0.18849,0.0,2023,6,7,17,25,14,449
49.70450,0.08715,-0.01453,0.00000,0.03233,0.97649,-0.19081,0.0,2023,6,7,17,25,14,460
49.70460,0.08715,0.10797,0.00000,0.03172,0.97612,-0.19117,0.0,2023,6,7,17,25,14,471
49.70470,0.05215,-0.18953,0.00000,0.03233,0.97661,-0.19056,0.0,2023,6,7,17,25,14,482
49.70480,0.06965,-0.08453,0.00000,0.03148,0.97429,-0.18995,0.0,2023,6,7,17,25,14,493
49.70490,0.29715,0.07297,0.00000,0.03257,0.97698,-0.18825,0.0,2023,6,7,17,25,14,504
49.70500,0.26215,-0.08453,0.00000,0.03209,0.97710,-0.18934,0.0,2023,6,7,17,25,14,515
49.70510,-0.07035,-0.08453,0.00000,0.02940,0.97673,-0.19520,0.0,2023,6,7,17,25,14,526
49.70520,-0.15785,0.05547,0.00000,0.03331,0.97258,-0.18605,0.0,2023,6,7,17,25,14,537
49.70530,-0.14035,-0.13703,0.00000,0.02989,0.97820,-0.19032,0.0,2023,6,7,17,25,14,548
49.70540,0.10465,-0.11953,0.00000,0.03196,0.97795,-0.18825,0.0,2023,6,7,17,25,14,559
49.70550,-0.03535,0.03797,0.00000,0.03233,0.97698,-0.18886,0.0,2023,6,7,17,25,14,570
49.70560,-0.10535,-0.06703,0.00000,0.03038,0.97515,-0.18983,0.0,2023,6,7,17,25,14,581
49.70570,0.03465,0.16047,0.00000,0.03013,0.97466,-0.19081,0.0,2023,6,7,17,25,14,592
49.70580,-0.01785,-0.10203,0.00000,0.02940,0.97722,-0.18898,0.0,2023,6,7,17,25,14,603
49.70590,-0.12285,0.05547,0.00000,0.03489,0.97722,-0.18825,0.0,2023,6,7,17,25,14,614
49.70600,-0.05285,-0.17203,0.00000,0.03294,0.97624,-0.19069,0.0,2023,6,7,17,25,14,625
49.70610,0.03465,-0.11953,0.00000,0.03331,0.97466,-0.19044,0.0,2023,6,7,17,25,14,636
49.70620,-0.01785,0.14297,0.00000,0.03221,0.97527,-0.19081,0.0,2023,6,7,17,25,14,647
49.70630,-0.10535,-0.10203,0.00000,0.03270,0.97771,-0.18776,0.0,2023,6,7,17,25,14,658
49.70640,-0.05285,-0.08453,0.00000,0.03026,0.97551,-0.18739,0.0,2023,6,7,17,25,14,669
49.70650,-0.07035,0.10797,0.00000,0.03160,0.97710,-0.19166,0.0,2023,6,7,17,25,14,680
49.70660,0.01715,0.17797,0.00000,0.03294,0.97380,-0.18922,0.0,2023,6,7,17,25,14,691
49.70670,-0.08785,0.07297,0.00000,0.03074,0.97563,-0.19300,0.0,2023,6,7,17,25,14,702
49.70680,0.41965,-0.08453,0.00000,0.03148,0.97734,-0.19544,0.0,2023,6,7,17,25,14,713
49.70690,0.41965,-0.13703,0.00000,0.03379,0.97600,-0.18812,0.0,2023,6,7,17,25,14,724
49.70700,-0.43785,-0.10203,0.00000,0.03392,0.97795,-0.18593,0.0,2023,6,7,17,25,14,735
49.70710,0.08715,-0.03203,0.00000,0.03233,0.97783,-0.19081,0.0,2023,6,7,17,25,14,746
49.70720,0.20965,-0.04953,0.00000,0.03087,0.97576,-0.19069,0.0,2023,6,7,17,25,14,757
49.70730,-0.35035,0.02047,0.00000,0.03013,0.97820,-0.18690,0.0,2023,6,7,17,25,14,768
49.70740,-0.10535,0.12547,0.00000,0.03013,0.97820,-0.18983,0.0,2023,6,7,17,25,14,779
49.70750,0.40215,0.03797,0.00000,0.03135,0.97685,-0.19032,0.0,2023,6,7,17,25,14,790
49.70760,0.06965,-0.10203,0.00000,0.03379,0.97624,-0.18617,0.0,2023,6,7,17,25,14,801
49.70770,-0.14035,0.10797,0.00000,0.03184,0.97783,-0.18934,0.0,2023,6,7,17,25,14,812
49.70780,0.05215,-0.13703,0.00000,0.03050,0.97527,-0.19239,0.0,2023,6,7,17,25,14,823
49.70790,0.10465,-0.25953,0.00000,0.03209,0.97771,-0.18812,0.0,2023,6,7,17,25,14,834
49.70800,-0.24535,0.07297,0.00000,0.03099,0.98003,-0.18703,0.0,2023,6,7,17,25,14,845
49.70810,-0.00035,0.21297,0.00000,0.02879,0.97515,-0.18959,0.0,2023,6,7,17,25,14,856
49.70820,0.13965,-0.20703,0.00000,0.02977,0.97746,-0.19081,0.0,2023,6,7,17,25,14,867
49.70830,0.05215,-0.03203,0.00000,0.03245,0.97393,-0.18690,0.0,2023,6,7,17,25,14,878
49.70840,-0.14035,0.03797,0.00000,0.03172,0.97563,-0.18910,0.0,2023,6,7,17,25,14,889
49.70850,0.17465,0.00297,0.00000,0.03221,0.97429,-0.18934,0.0,2023,6,7,17,25,14,900
49.70860,-0.01785,-0.03203,0.00000,0.03209,0.97576,-0.18739,0.0,2023,6,7,17,25,14,911
49.70870,-0.22785,0.05547,0.00000,0.03270,0.97588,-0.19178,0.0,2023,6,7,17,25,14,922
49.70880,-0.07035,-0.03203,0.00000,0.03062,0.97478,-0.19154,0.0,2023,6,7,17,25,14,933
49.70890,0.10465,0.02047,0.00000,0.03331,0.97649,-0.18910,0.0,2023,6,7,17,25,14,944
49.70900,-0.10535,0.05547,0.00000,0.02879,0.97673,-0.18971,0.0,2023,6,7,17,25,14,955
49.70910,0.12215,0.03797,0.00000,0.03172,0.97600,-0.18947,0.0,2023,6,7,17,25,14,966
49.70920,0.10465,-0.04953,0.00000,0.03184,0.97624,-0.18776,0.0,2023,6,7,17,25,14,977
49.70930,-0.33285,-0.11953,0.00000,0.03318,0.97759,-0.18764,0.0,2023,6,7,17,25,14,988
49.70940,0.03465,0.05547,0.00000,0.03013,0.97868,-0.18788,0.0,2023,6,7,17,25,15,9
49.70950,-0.19285,0.05547,0.00000,0.03221,0.97527,-0.18910,0.0,2023,6,7,17,25,15,20
49.70960,0.12215,-0.10203,0.00000,0.03160,0.97868,-0.19117,0.0,2023,6,7,17,25,15,31
49.70970,0.13965,-0.17203,0.00000,0.03123,0.97905,-0.18812,0.0,2023,6,7,17,25,15,42
49.70980,0.03465,-0.22453,0.00000,0.03209,0.97600,-0.18776,0.0,2023,6,7,17,25,15,53
49.70990,0.15715,0.14297,0.00000,0.03392,0.97893,-0.18983,0.0,2023,6,7,17,25,15,64
49.71000,-0.22785,0.02047,0.00000,0.03221,0.97856,-0.18495,0.0,2023,6,7,17,25,15,75
49.71010,0.12215,0.23047,0.00000,0.03074,0.97820,-0.18947,0.0,2023,6,7,17,25,15,86
49.71020,0.15715,0.03797,0.00000,0.03013,0.97783,-0.19117,0.0,2023,6,7,17,25,15,97
49.71030,-0.00035,-0.04953,0.00000,0.03209,0.97368,-0.19020,0.0,2023,6,7,17,25,15,108
49.71040,-0.05285,0.12547,0.00000,0.03026,0.97722,-0.18947,0.0,2023,6,7,17,25,15,119
49.71050,0.06965,0.05547,0.00000,0.02891,0.97807,-0.19105,0.0,2023,6,7,17,25,15,130
49.71060,0.08715,-0.04953,0.00000,0.03184,0.97466,-0.18617,0.0,2023,6,7,17,25,15,141
49.71070,-0.05285,-0.01453,0.00000,0.02940,0.97881,-0.19032,0.0,2023,6,7,17,25,15,152
49.71080,0.20965,0.16047,0.00000,0.03306,0.97807,-0.19215,0.0,2023,6,7,17,25,15,163
49.71090,-0.00035,0.07297,0.00000,0.03135,0.97539,-0.19032,0.0,2023,6,7,17,25,15,174
49.71100,-0.05285,0.33547,0.00000,0.03013,0.97734,-0.18922,0.0,2023,6,7,17,25,15,185
49.71110,0.10465,-0.04953,0.00000,0.03148,0.97661,-0.18715,0.0,2023,6,7,17,25,15,196
49.71120,0.05215,-0.10203,0.00000,0.03270,0.97502,-0.18837,0.0,2023,6,7,17,25,15,207
49.71130,0.08715,-0.03203,0.00000,0.03184,0.97490,-0.18837,0.0,2023,6,7,17,25,15,218
49.71140,0.10465,-0.08453,0.00000,0.03135,0.97759,-0.18861,0.0,2023,6,7,17,25,15,229
49.71150,-0.07035,0.03797,0.00000,0.03038,0.97490,-0.19044,0.0,2023,6,7,17,25,15,240
49.71160,0.03465,-0.03203,0.00000,0.02830,0.97490,-0.18556,0.0,2023,6,7,17,25,15,251
49.71170,0.03465,0.03797,0.00000,0.02940,0.97783,-0.18825,0.0,2023,6,7,17,25,15,262
49.71180,0.03465,0.16047,0.00000,0.02952,0.97832,-0.18947,0.0,2023,6,7,17,25,15,273
49.71190,-0.03535,-0.03203,0.00000,0.03221,0.97380,-0.18922,0.0,2023,6,7,17,25,15,284
49.71200,0.19215,0.05547,0.00000,0.03148,0.97771,-0.18922,0.0,2023,6,7,17,25,15,295
49.71210,0.01715,0.14297,0.00000,0.03123,0.98051,-0.19008,0.0,2023,6,7,17,25,15,306
49.71220,0.05215,0.00297,0.00000,0.03196,0.97734,-0.18483,0.0,2023,6,7,17,25,15,317
49.71230,0.03465,0.12547,0.00000,0.03111,0.97734,-0.18776,0.0,2023,6,7,17,25,15,328
49.71240,0.03465,0.02047,0.00000,0.03221,0.97698,-0.18947,0.0,2023,6,7,17,25,15,339
49.71250,-0.05285,0.14297,0.00000,0.03294,0.97637,-0.18922,0.0,2023,6,7,17,25,15,350
49.71260,-0.01785,0.12547,0.00000,0.03367,0.97844,-0.19166,0.0,2023,6,7,17,25,15,361
49.71270,-0.03535,0.05547,0.00000,0.03209,0.97746,-0.18715,0.0,2023,6,7,17,25,15,372
49.71280,-0.10535,-0.01453,0.00000,0.03087,0.97832,-0.18727,0.0,2023,6,7,17,25,15,383
49.71290,-0.07035,0.14297,0.00000,0.03355,0.97795,-0.18690,0.0,2023,6,7,17,25,15,394
49.71300,-0.07035,0.02047,0.00000,0.03099,0.97637,-0.18751,0.0,2023,6,7,17,25,15,405
49.71310,0.22715,-0.11953,0.00000,0.03209,0.97539,-0.18825,0.0,2023,6,7,17,25,15,416
49.71320,0.03465,-0.04953,0.00000,0.03013,0.97344,-0.18764,0.0,2023,6,7,17,25,15,427
49.71330,0.03465,0.21297,0.00000,0.03184,0.97771,-0.18922,0.0,2023,6,7,17,25,15,438
49.71340,-0.07035,0.10797,0.00000,0.03196,0.97771,-0.19020,0.0,2023,6,7,17,25,15,449
49.71350,0.03465,0.10797,0.00000,0.03074,0.97624,-0.18642,0.0,2023,6,7,17,25,15,460
49.71360,0.13965,-0.20703,0.00000,0.03245,0.97832,-0.18837,0.0,2023,6,7,17,25,15,471
49.71370,0.13965,-0.08453,0.00000,0.03074,0.97661,-0.19032,0.0,2023,6,7,17,25,15,482
49.71380,-0.22785,0.03797,0.00000,0.03111,0.97673,-0.18837,0.0,2023,6,7,17,25,15,493
49.71390,0.12215,0.03797,0.00000,0.03209,0.97624,-0.18642,0.0,2023,6,7,17,25,15,504
49.71400,0.01715,-0.15453,0.00000,0.03160,0.97380,-0.19069,0.0,2023,6,7,17,25,15,515
49.71410,-0.03535,-0.13703,0.00000,0.03074,0.97710,-0.18861,0.0,2023,6,7,17,25,15,526
49.71420,0.08715,0.24797,0.00000,0.03221,0.97685,-0.18837,0.0,2023,6,7,17,25,15,537
49.71430,-0.10535,0.05547,0.00000,0.03099,0.97417,-0.18788,0.0,2023,6,7,17,25,15,548
49.71440,-0.01785,-0.03203,0.00000,0.03245,0.97612,-0.19130,0.0,2023,6,7,17,25,15,559
49.71450,0.17465,-0.03203,0.00000,0.03160,0.97673,-0.18654,0.0,2023,6,7,17,25,15,570
49.71460,-0.10535,-0.06703,0.00000,0.03306,0.97478,-0.18568,0.0,2023,6,7,17,25,15,581
49.71470,0.08715,-0.01453,0.00000,0.03062,0.97685,-0.19044,0.0,2023,6,7,17,25,15,592
49.71480,0.06965,-0.27703,0.00000,0.03123,0.97783,-0.18764,0.0,2023,6,7,17,25,15,603
49.71490,-0.17535,-0.04953,0.00000,0.02989,0.97588,-0.19032,0.0,2023,6,7,17,25,15,614
49.71500,0.13965,0.10797,0.00000,0.03099,0.97917,-0.18971,0.0,2023,6,7,17,25,15,625
49.71510,-0.00035,0.10797,0.00000,0.03209,0.97759,-0.18922,0.0,2023,6,7,17,25,15,636
49.71520,0.08715,0.03797,0.00000,0.03111,0.97759,-0.18800,0.0,2023,6,7,17,25,15,647
49.71530,0.01715,0.03797,0.00000,0.03001,0.97820,-0.18898,0.0,2023,6,7,17,25,15,658
49.71540,-0.00035,0.00297,0.00000,0.03257,0.97746,-0.18764,0.0,2023,6,7,17,25,15,669
49.71550,-0.03535,-0.10203,0.00000,0.03233,0.97551,-0.18739,0.0,2023,6,7,17,25,15,680
49.71560,0.15715,0.07297,0.00000,0.03160,0.97600,-0.19032,0.0,2023,6,7,17,25,15,691
49.71570,0.27965,0.16047,0.00000,0.02952,0.97759,-0.18959,0.0,2023,6,7,17,25,15,702
49.71580,-0.21035,0.05547,0.00000,0.03172,0.97905,-0.19081,0.0,2023,6,7,17,25,15,713
49.71590,0.08715,-0.20703,0.00000,0.03257,0.97600,-0.19056,0.0,2023,6,7,17,25,15,724
49.71600,0.06965,-0.03203,0.00000,0.03245,0.97661,-0.18715,0.0,2023,6,7,17,25,15,735
49.71610,0.08715,-0.08453,0.00000,0.03062,0.97612,-0.19020,0.0,2023,6,7,17,25,15,746
49.71620,0.26215,-0.15453,0.00000,0.03270,0.97490,-0.19044,0.0,2023,6,7,17,25,15,757
49.71630,0.15715,-0.10203,0.00000,0.03050,0.97893,-0.19008,0.0,2023,6,7,17,25,15,768
49.71640,0.01715,0.09047,0.00000,0.03099,0.97612,-0.18959,0.0,2023,6,7,17,25,15,779
49.71650,0.17465,0.10797,0.00000,0.03160,0.97783,-0.18886,0.0,2023,6,7,17,25,15,790
49.71660,0.01715,0.05547,0.00000,0.03062,0.97661,-0.18922,0.0,2023,6,7,17,25,15,801
49.71670,-0.24535,0.35297,0.00000,0.02916,0.97685,-0.19044,0.0,2023,6,7,17,25,15,812
49.71680,0.06965,-0.15453,0.00000,0.03013,0.97588,-0.19130,0.0,2023,6,7,17,25,15,823
49.71690,-0.10535,0.05547,0.00000,0.03318,0.97600,-0.19020,0.0,2023,6,7,17,25,15,834
49.71700,0.01715,-0.20703,0.00000,0.03221,0.97466,-0.19081,0.0,2023,6,7,17,25,15,845
49.71710,0.01715,0.16047,0.00000,0.03306,0.97637,-0.19398,0.0,2023,6,7,17,25,15,856
49.71720,-0.01785,0.14297,0.00000,0.02952,0.97807,-0.18934,0.0,2023,6,7,17,25,15,867
49.71730,-0.07035,0.03797,0.00000,0.03257,0.97685,-0.18873,0.0,2023,6,7,17,25,15,878
49.71740,0.08715,0.19547,0.00000,0.03282,0.97685,-0.18959,0.0,2023,6,7,17,25,15,889
49.71750,0.05215,-0.11953,0.00000,0.03367,0.97746,-0.18934,0.0,2023,6,7,17,25,15,900
49.71760,-0.19285,0.07297,0.00000,0.03074,0.97807,-0.18825,0.0,2023,6,7,17,25,15,911
49.71770,0.10465,-0.08453,0.00000,0.03453,0.97673,-0.18886,0.0,2023,6,7,17,25,15,922
49.71780,0.08715,0.16047,0.00000,0.02989,0.97429,-0.19032,0.0,2023,6,7,17,25,15,933
49.71790,0.05215,-0.08453,0.00000,0.03013,0.97746,-0.18922,0.0,2023,6,7,17,25,15,944
49.71800,0.05215,-0.04953,0.00000,0.03257,0.97527,-0.19056,0.0,2023,6,7,17,25,15,955
49.71810,0.01715,-0.08453,0.00000,0.03123,0.97820,-0.19032,0.0,2023,6,7,17,25,15,966
49.71820,-0.03535,0.09047,0.00000,0.03135,0.97685,-0.18825,0.0,2023,6,7,17,25,15,977
49.71830,0.03465,-0.04953,0.00000,0.03257,0.97637,-0.18959,0.0,2023,6,7,17,25,15,988
49.71840,-0.08785,-0.03203,0.00000,0.03074,0.97783,-0.18983,0.0,2023,6,7,17,25,16,9
49.71850,0.01715,-0.11953,0.00000,0.02940,0.97881,-0.18947,0.0,2023,6,7,17,25,16,20
49.71860,-0.00035,0.17797,0.00000,0.03026,0.97673,-0.18861,0.0,2023,6,7,17,25,16,31
49.71870,0.08715,0.03797,0.00000,0.03013,0.97759,-0.19008,0.0,2023,6,7,17,25,16,42
49.71880,0.01715,0.09047,0.00000,0.03087,0.97624,-0.18800,0.0,2023,6,7,17,25,16,53
49.71890,-0.03535,0.07297,0.00000,0.03026,0.97710,-0.18678,0.0,2023,6,7,17,25,16,64
49.71900,0.03465,0.14297,0.00000,0.03160,0.97807,-0.19044,0.0,2023,6,7,17,25,16,75
49.71910,0.01715,0.05547,0.00000,0.03440,0.97661,-0.18751,0.0,2023,6,7,17,25,16,86
49.71920,-0.07035,0.09047,0.00000,0.03062,0.97783,-0.18666,0.0,2023,6,7,17,25,16,97
49.71930,0.01715,0.14297,0.00000,0.03013,0.97661,-0.18959,0.0,2023,6,7,17,25,16,108
49.71940,0.12215,0.02047,0.00000,0.03245,0.97612,-0.18898,0.0,2023,6,7,17,25,16,119
49.71950,-0.15785,-0.03203,0.00000,0.03379,0.97734,-0.18788,0.0,2023,6,7,17,25,16,130
49.71960,-0.08785,0.05547,0.00000,0.03233,0.97539,-0.18837,0.0,2023,6,7,17,25,16,141
49.71970,0.15715,0.10797,0.00000,0.03245,0.97698,-0.19044,0.0,2023,6,7,17,25,16,152
49.71980,0.19215,0.02047,0.00000,0.03038,0.97746,-0.18825,0.0,2023,6,7,17,25,16,163
49.71990,-0.01785,0.21297,0.00000,0.03074,0.97722,-0.18739,0.0,2023,6,7,17,25,16,174
49.72000,-0.17535,-0.10203,0.00000,0.03087,0.97759,-0.18910,0.0,2023,6,7,17,25,16,185
49.72010,-0.28035,0.26547,0.00000,0.03184,0.97527,-0.18971,0.0,2023,6,7,17,25,16,196
49.72020,0.03465,-0.11953,0.00000,0.03148,0.97515,-0.18873,0.0,2023,6,7,17,25,16,207
49.72030,-0.03535,0.02047,0.00000,0.03172,0.97417,-0.18837,0.0,2023,6,7,17,25,16,218
49.72040,0.08715,-0.06703,0.00000,0.03087,0.97893,-0.18983,0.0,2023,6,7,17,25,16,229
49.72050,-0.03535,-0.10203,0.00000,0.03209,0.97368,-0.18861,0.0,2023,6,7,17,25,16,240
49.72060,0.01715,-0.03203,0.00000,0.03062,0.97771,-0.19044,0.0,2023,6,7,17,25,16,251
49.72070,0.06965,0.03797,0.00000,0.03062,0.97612,-0.18788,0.0,2023,6,7,17,25,16,262
49.72080,0.01715,0.16047,0.00000,0.03172,0.97832,-0.18800,0.0,2023,6,7,17,25,16,273
49.72090,0.03465,0.14297,0.00000,0.03209,0.97807,-0.18971,0.0,2023,6,7,17,25,16,284
49.72100,-0.07035,0.07297,0.00000,0.03172,0.97820,-0.18922,0.0,2023,6,7,17,25,16,295
49.72110,0.03465,-0.13703,0.00000,0.03160,0.97783,-0.18861,0.0,2023,6,7,17,25,16,306
49.72120,0.01715,0.16047,0.00000,0.03172,0.97563,-0.18837,0.0,2023,6,7,17,25,16,317
49.72130,0.19215,-0.04953,0.00000,0.03221,0.97820,-0.18947,0.0,2023,6,7,17,25,16,328
49.72140,0.06965,0.09047,0.00000,0.03148,0.97917,-0.18947,0.0,2023,6,7,17,25,16,339
49.72150,0.03465,-0.15453,0.00000,0.03038,0.97783,-0.18568,0.0,2023,6,7,17,25,16,350
49.72160,0.17465,-0.22453,0.00000,0.03160,0.97734,-0.18947,0.0,2023,6,7,17,25,16,361
49.72170,-0.07035,0.26547,0.00000,0.03196,0.97698,-0.19032,0.0,2023,6,7,17,25,16,372
49.72180,0.12215,-0.10203,0.00000,0.03026,0.97466,-0.18873,0.0,2023,6,7,17,25,16,383
49.72190,-0.10535,-0.01453,0.00000,0.03087,0.97698,-0.18581,0.0,2023,6,7,17,25,16,394
49.72200,0.08715,0.12547,0.00000,0.03135,0.97820,-0.19117,0.0,2023,6,7,17,25,16,405
49.72210,-0.17535,0.10797,0.00000,0.03209,0.97527,-0.18812,0.0,2023,6,7,17,25,16,416
49.72220,-0.01785,-0.10203,0.00000,0.03221,0.97637,-0.18947,0.0,2023,6,7,17,25,16,427
49.72230,0.10465,0.00297,0.00000,0.03160,0.97771,-0.18971,0.0,2023,6,7,17,25,16,438
49.72240,-0.05285,-0.04953,0.00000,0.03013,0.97771,-0.18605,0.0,2023,6,7,17,25,16,449
49.72250,0.01715,0.09047,0.00000,0.03013,0.97393,-0.18971,0.0,2023,6,7,17,25,16,460
49.72260,0.10465,-0.06703,0.00000,0.03245,0.97820,-0.18873,0.0,2023,6,7,17,25,16,471
49.72270,0.15715,-0.10203,0.00000,0.03318,0.97746,-0.18825,0.0,2023,6,7,17,25,16,482
49.72280,0.17465,-0.10203,0.00000,0.03196,0.97759,-0.19178,0.0,2023,6,7,17,25,16,493
49.72290,0.05215,0.00297,0.00000,0.03318,0.97490,-0.18873,0.0,2023,6,7,17,25,16,504
49.72300,-0.12285,-0.20703,0.00000,0.03148,0.97661,-0.18849,0.0,2023,6,7,17,25,16,515
49.72310,-0.00035,0.09047,0.00000,0.03160,0.97685,-0.18800,0.0,2023,6,7,17,25,16,526
49.72320,0.19215,0.09047,0.00000,0.03306,0.97527,-0.18898,0.0,2023,6,7,17,25,16,537
49.72330,-0.12285,0.07297,0.00000,0.03074,0.97783,-0.18825,0.0,2023,6,7,17,25,16,548
49.72340,0.13965,-0.04953,0.00000,0.02989,0.97734,-0.18922,0.0,2023,6,7,17,25,16,559
49.72350,-0.10535,-0.25953,0.00000,0.03172,0.97661,-0.18886,0.0,2023,6,7,17,25,16,570
49.72360,-0.12285,0.09047,0.00000,0.03062,0.97698,-0.18873,0.0,2023,6,7,17,25,16,581
49.72370,0.12215,-0.04953,0.00000,0.03318,0.97685,-0.18825,0.0,2023,6,7,17,25,16,592
49.72380,-0.08785,0.37047,0.00000,0.03172,0.97588,-0.18983,0.0,2023,6,7,17,25,16,603
49.72390,-0.19285,0.17797,0.00000,0.03001,0.97563,-0.18959,0.0,2023,6,7,17,25,16,614
49.72400,0.08715,-0.13703,0.00000,0.03038,0.97734,-0.18764,0.0,2023,6,7,17,25,16,625
49.72410,0.05215,0.07297,0.00000,0.03013,0.97624,-0.18886,0.0,2023,6,7,17,25,16,636
49.72420,0.03465,-0.18953,0.00000,0.03221,0.97698,-0.18995,0.0,2023,6,7,17,25,16,647
49.72430,0.05215,-0.01453,0.00000,0.03209,0.97502,-0.18617,0.0,2023,6,7,17,25,16,658
49.72440,-0.08785,0.16047,0.00000,0.03245,0.97698,-0.18739,0.0,2023,6,7,17,25,16,669
49.72450,0.13965,-0.13703,0.00000,0.03160,0.97527,-0.18898,0.0,2023,6,7,17,25,16,680
49.72460,0.08715,-0.13703,0.00000,0.02952,0.97515,-0.18861,0.0,2023,6,7,17,25,16,691
49.72470,0.06965,0.05547,0.00000,0.02977,0.97649,-0.18678,0.0,2023,6,7,17,25,16,702
49.72480,0.06965,0.09047,0.00000,0.03392,0.97868,-0.18947,0.0,2023,6,7,17,25,16,713
49.72490,0.03465,-0.01453,0.00000,0.03184,0.97576,-0.18947,0.0,2023,6,7,17,25,16,724
49.72500,0.15715,0.26547,0.00000,0.03196,0.97722,-0.19081,0.0,2023,6,7,17,25,16,735
49.72510,0.05215,0.14297,0.00000,0.03111,0.97661,-0.18812,0.0,2023,6,7,17,25,16,746
49.72520,0.22715,0.00297,0.00000,0.03257,0.97576,-0.19032,0.0,2023,6,7,17,25,16,757
49.72530,-0.01785,-0.13703,0.00000,0.03099,0.97698,-0.18837,0.0,2023,6,7,17,25,16,768
49.72540,-0.03535,0.19547,0.00000,0.03245,0.97637,-0.19069,0.0,2023,6,7,17,25,16,779
49.72550,0.06965,-0.04953,0.00000,0.03001,0.97588,-0.19069,0.0,2023,6,7,17,25,16,790
49.72560,0.15715,-0.15453,0.00000,0.03221,0.97795,-0.19130,0.0,2023,6,7,17,25,16,801
49.72570,0.10465,0.16047,0.00000,0.03135,0.97759,-0.18995,0.0,2023,6,7,17,25,16,812
49.72580,0.08715,-0.03203,0.00000,0.03074,0.98027,-0.18751,0.0,2023,6,7,17,25,16,823
49.72590,-0.03535,0.07297,0.00000,0.03221,0.97515,-0.18947,0.0,2023,6,7,17,25,16,834
49.72600,-0.01785,-0.06703,0.00000,0.03074,0.97588,-0.19130,0.0,2023,6,7,17,25,16,845
49.72610,-0.05285,-0.13703,0.00000,0.03294,0.97527,-0.18617,0.0,2023,6,7,17,25,16,856
49.72620,-0.07035,-0.04953,0.00000,0.03294,0.97783,-0.18825,0.0,2023,6,7,17,25,16,867
49.72630,-0.03535,-0.01453,0.00000,0.03306,0.97502,-0.18995,0.0,2023,6,7,17,25,16,878
49.72640,0.03465,0.31797,0.00000,0.03111,0.97746,-0.18739,0.0,2023,6,7,17,25,16,889
49.72650,0.08715,-0.06703,0.00000,0.02794,0.97539,-0.18776,0.0,2023,6,7,17,25,16,900
49.72660,0.12215,0.14297,0.00000,0.03087,0.97771,-0.19044,0.0,2023,6,7,17,25,16,911
49.72670,-0.00035,-0.06703,0.00000,0.03184,0.97868,-0.18934,0.0,2023,6,7,17,25,16,922
49.72680,-0.19285,0.09047,0.00000,0.03038,0.97612,-0.18898,0.0,2023,6,7,17,25,16,933
49.72690,0.05215,0.14297,0.00000,0.03306,0.97478,-0.18971,0.0,2023,6,7,17,25,16,944
49.72700,-0.05285,-0.11953,0.00000,0.03184,0.97649,-0.18910,0.0,2023,6,7,17,25,16,955
49.72710,-0.01785,-0.04953,0.00000,0.03184,0.97380,-0.18654,0.0,2023,6,7,17,25,16,966
49.72720,0.03465,-0.03203,0.00000,0.03160,0.97844,-0.19154,0.0,2023,6,7,17,25,16,977
49.72730,-0.17535,0.16047,0.00000,0.03367,0.97759,-0.18971,0.0,2023,6,7,17,25,16,988
49.72740,-0.14035,0.09047,0.00000,0.03026,0.97624,-0.18593,0.0,2023,6,7,17,25,17,9
49.72750,0.01715,-0.11953,0.00000,0.03099,0.97795,-0.18983,0.0,2023,6,7,17,25,17,20
49.72760,0.26215,-0.17203,0.00000,0.03135,0.97710,-0.18837,0.0,2023,6,7,17,25,17,31
49.72770,-0.10535,-0.04953,0.00000,0.03257,0.97490,-0.18837,0.0,2023,6,7,17,25,17,42
49.72780,0.12215,0.05547,0.00000,0.03221,0.97698,-0.19154,0.0,2023,6,7,17,25,17,53
49.72790,0.20965,0.02047,0.00000,0.03306,0.97612,-0.18922,0.0,2023,6,7,17,25,17,64
49.72800,-0.01785,-0.01453,0.00000,0.03135,0.97649,-0.18788,0.0,2023,6,7,17,25,17,75
49.72810,0.10465,0.17797,0.00000,0.03074,0.97832,-0.18959,0.0,2023,6,7,17,25,17,86
49.72820,-0.17535,0.10797,0.00000,0.03160,0.97783,-0.18947,0.0,2023,6,7,17,25,17,97
49.72830,0.01715,0.24797,0.00000,0.03074,0.97551,-0.18971,0.0,2023,6,7,17,25,17,108
49.72840,0.26215,0.09047,0.00000,0.03538,0.98100,-0.18934,0.0,2023,6,7,17,25,17,119
49.72850,-0.08785,0.00297,0.00000,0.03184,0.97649,-0.18739,0.0,2023,6,7,17,25,17,130
49.72860,-0.10535,-0.06703,0.00000,0.03111,0.97588,-0.18751,0.0,2023,6,7,17,25,17,141
49.72870,0.08715,-0.03203,0.00000,0.03087,0.97380,-0.18922,0.0,2023,6,7,17,25,17,152
49.72880,-0.05285,0.23047,0.00000,0.02977,0.98112,-0.19191,0.0,2023,6,7,17,25,17,163
49.72890,-0.14035,0.07297,0.00000,0.03306,0.97563,-0.19008,0.0,2023,6,7,17,25,17,174
49.72900,-0.12285,0.05547,0.00000,0.03257,0.97856,-0.18922,0.0,2023,6,7,17,25,17,185
49.72910,-0.14035,0.05547,0.00000,0.03099,0.97759,-0.18873,0.0,2023,6,7,17,25,17,196
49.72920,0.03465,-0.06703,0.00000,0.03111,0.97649,-0.18910,0.0,2023,6,7,17,25,17,207
49.72930,-0.19285,0.21297,0.00000,0.02965,0.97917,-0.19044,0.0,2023,6,7,17,25,17,218
49.72940,0.10465,-0.04953,0.00000,0.03148,0.97612,-0.19056,0.0,2023,6,7,17,25,17,229
49.72950,0.20965,-0.10203,0.00000,0.02977,0.97783,-0.18873,0.0,2023,6,7,17,25,17,240
49.72960,-0.12285,-0.13703,0.00000,0.03318,0.97661,-0.18971,0.0,2023,6,7,17,25,17,251
49.72970,-0.12285,0.02047,0.00000,0.03318,0.97624,-0.18727,0.0,2023,6,7,17,25,17,262
49.72980,0.10465,0.21297,0.00000,0.03184,0.97929,-0.19105,0.0,2023,6,7,17,25,17,273
49.72990,0.01715,-0.01453,0.00000,0.03404,0.97710,-0.18886,0.0,2023,6,7,17,25,17,284
49.73000,-0.12285,0.10797,0.00000,0.03233,0.97868,-0.18995,0.0,2023,6,7,17,25,17,295
49.73010,0.01715,-0.01453,0.00000,0.03013,0.97649,-0.18971,0.0,2023,6,7,17,25,17,306
49.73020,-0.01785,0.03797,0.00000,0.03196,0.97576,-0.18825,0.0,2023,6,7,17,25,17,317
49.73030,-0.01785,-0.10203,0.00000,0.02940,0.97515,-0.18690,0.0,2023,6,7,17,25,17,328
49.73040,-0.05285,-0.01453,0.00000,0.03306,0.97734,-0.19069,0.0,2023,6,7,17,25,17,339
49.73050,0.19215,0.09047,0.00000,0.03355,0.97405,-0.18934,0.0,2023,6,7,17,25,17,350
49.73060,-0.22785,0.14297,0.00000,0.03233,0.97624,-0.18922,0.0,2023,6,7,17,25,17,361
49.73070,0.12215,0.09047,0.00000,0.03135,0.97588,-0.18971,0.0,2023,6,7,17,25,17,372
49.73080,0.03465,0.14297,0.00000,0.03270,0.97734,-0.18922,0.0,2023,6,7,17,25,17,383
49.73090,-0.03535,0.02047,0.00000,0.03270,0.97527,-0.18751,0.0,2023,6,7,17,25,17,394
49.73100,0.19215,0.07297,0.00000,0.03001,0.97771,-0.19093,0.0,2023,6,7,17,25,17,405
49.73110,0.03465,-0.01453,0.00000,0.03196,0.97685,-0.18873,0.0,2023,6,7,17,25,17,416
49.73120,0.10465,-0.01453,0.00000,0.03050,0.97807,-0.19142,0.0,2023,6,7,17,25,17,427
49.73130,0.08715,-0.10203,0.00000,0.03099,0.97698,-0.19178,0.0,2023,6,7,17,25,17,438
49.73140,0.08715,0.00297,0.00000,0.03148,0.97673,-0.18995,0.0,2023,6,7,17,25,17,449
49.73150,0.03465,0.09047,0.00000,0.03282,0.97856,-0.18971,0.0,2023,6,7,17,25,17,460
49.73160,0.20965,-0.10203,0.00000,0.03221,0.97734,-0.18666,0.0,2023,6,7,17,25,17,471
49.73170,0.03465,-0.08453,0.00000,0.03184,0.97795,-0.18886,0.0,2023,6,7,17,25,17,482
49.73180,-0.01785,0.09047,0.00000,0.03245,0.98015,-0.19142,0.0,2023,6,7,17,25,17,493
49.73190,-0.15785,-0.06703,0.00000,0.03160,0.97612,-0.19105,0.0,2023,6,7,17,25,17,504
49.73200,0.06965,0.09047,0.00000,0.03196,0.97673,-0.18910,0.0,2023,6,7,17,25,17,515
49.73210,-0.10535,-0.01453,0.00000,0.03099,0.97673,-0.18873,0.0,2023,6,7,17,25,17,526
49.73220,0.22715,-0.03203,0.00000,0.03135,0.97734,-0.18788,0.0,2023,6,7,17,25,17,537
49.73230,-0.07035,0.09047,0.00000,0.03099,0.97856,-0.18910,0.0,2023,6,7,17,25,17,548
49.73240,-0.00035,0.17797,0.00000,0.03196,0.97527,-0.18861,0.0,2023,6,7,17,25,17,559
49.73250,-0.03535,-0.01453,0.00000,0.03257,0.97734,-0.18800,0.0,2023,6,7,17,25,17,570
49.73260,0.03465,-0.17203,0.00000,0.03318,0.97661,-0.19044,0.0,2023,6,7,17,25,17,581
49.73270,-0.12285,-0.08453,0.00000,0.03245,0.97588,-0.18666,0.0,2023,6,7,17,25,17,592
49.73280,-0.08785,0.07297,0.00000,0.02977,0.97844,-0.18849,0.0,2023,6,7,17,25,17,603
49.73290,-0.00035,-0.20703,0.00000,0.03013,0.97746,-0.19203,0.0,2023,6,7,17,25,17,614
49.73300,0.06965,0.00297,0.00000,0.03270,0.97820,-0.18886,0.0,2023,6,7,17,25,17,625
49.73310,-0.01785,0.14297,0.00000,0.03026,0.97746,-0.18861,0.0,2023,6,7,17,25,17,636
49.73320,0.10465,0.14297,0.00000,0.03172,0.97783,-0.19154,0.0,2023,6,7,17,25,17,647
49.73330,0.12215,0.07297,0.00000,0.02989,0.97600,-0.19203,0.0,2023,6,7,17,25,17,658
49.73340,-0.00035,-0.06703,0.00000,0.03257,0.97685,-0.18849,0.0,2023,6,7,17,25,17,669
49.73350,0.08715,0.02047,0.00000,0.03221,0.97990,-0.18947,0.0,2023,6,7,17,25,17,680
49.73360,-0.07035,0.05547,0.00000,0.03196,0.97698,-0.18825,0.0,2023,6,7,17,25,17,691
49.73370,0.03465,0.09047,0.00000,0.03160,0.97673,-0.18886,0.0,2023,6,7,17,25,17,702
49.73380,-0.19285,-0.01453,0.00000,0.03184,0.97673,-0.18959,0.0,2023,6,7,17,25,17,713
49.73390,0.15715,-0.10203,0.00000,0.03221,0.97783,-0.19093,0.0,2023,6,7,17,25,17,724
49.73400,-0.07035,-0.11953,0.00000,0.02879,0.97612,-0.19069,0.0,2023,6,7,17,25,17,735
49.73410,0.01715,-0.13703,0.00000,0.03062,0.97746,-0.19105,0.0,2023,6,7,17,25,17,746
49.73420,0.03465,0.07297,0.00000,0.03270,0.97600,-0.18776,0.0,2023,6,7,17,25,17,757
49.73430,0.01715,0.07297,0.00000,0.03318,0.97600,-0.18971,0.0,2023,6,7,17,25,17,768
49.73440,0.22715,-0.01453,0.00000,0.03233,0.97563,-0.18886,0.0,2023,6,7,17,25,17,779
49.73450,0.06965,-0.13703,0.00000,0.02928,0.97661,-0.18995,0.0,2023,6,7,17,25,17,790
49.73460,-0.05285,0.03797,0.00000,0.03087,0.97563,-0.18788,0.0,2023,6,7,17,25,17,801
49.73470,0.05215,0.09047,0.00000,0.03123,0.97661,-0.19069,0.0,2023,6,7,17,25,17,812
49.73480,-0.03535,-0.08453,0.00000,0.03111,0.97637,-0.19056,0.0,2023,6,7,17,25,17,823
49.73490,-0.08785,0.26547,0.00000,0.03099,0.97576,-0.19069,0.0,2023,6,7,17,25,17,834
49.73500,-0.03535,-0.04953,0.00000,0.03123,0.97722,-0.18739,0.0,2023,6,7,17,25,17,845
49.73510,-0.03535,0.16047,0.00000,0.03367,0.97795,-0.18959,0.0,2023,6,7,17,25,17,856
49.73520,-0.05285,0.03797,0.00000,0.03221,0.97600,-0.18861,0.0,2023,6,7,17,25,17,867
49.73530,0.06965,0.00297,0.00000,0.03367,0.97649,-0.18788,0.0,2023,6,7,17,25,17,878
49.73540,-0.00035,-0.18953,0.00000,0.03428,0.97868,-0.18971,0.0,2023,6,7,17,25,17,889
49.73550,0.08715,-0.11953,0.00000,0.03184,0.97515,-0.18666,0.0,2023,6,7,17,25,17,900
49.73560,-0.07035,0.00297,0.00000,0.03306,0.97576,-0.18678,0.0,2023,6,7,17,25,17,911
49.73570,0.10465,0.02047,0.00000,0.03062,0.97649,-0.18849,0.0,2023,6,7,17,25,17,922
49.73580,-0.03535,0.12547,0.00000,0.03184,0.97783,-0.18837,0.0,2023,6,7,17,25,17,933
49.73590,-0.14035,-0.20703,0.00000,0.03257,0.97990,-0.18800,0.0,2023,6,7,17,25,17,944
49.73600,0.10465,-0.03203,0.00000,0.02989,0.97637,-0.19154,0.0,2023,6,7,17,25,17,955
49.73610,-0.03535,-0.10203,0.00000,0.03001,0.97649,-0.18715,0.0,2023,6,7,17,25,17,966
49.73620,-0.07035,0.03797,0.00000,0.03123,0.97820,-0.18934,0.0,2023,6,7,17,25,17,977
49.73630,-0.14035,-0.06703,0.00000,0.03148,0.97515,-0.18983,0.0,2023,6,7,17,25,17,988
49.73640,-0.19285,0.12547,0.00000,0.03440,0.97624,-0.18898,0.0,2023,6,7,17,25,18,9
49.73650,-0.24535,0.14297,0.00000,0.02977,0.97588,-0.18715,0.0,2023,6,7,17,25,18,20
49.73660,0.08715,0.19547,0.00000,0.03148,0.97612,-0.19154,0.0,2023,6,7,17,25,18,31
49.73670,-0.14035,0.00297,0.00000,0.03233,0.97783,-0.18922,0.0,2023,6,7,17,25,18,42
49.73680,-0.10535,-0.06703,0.00000,0.03123,0.97380,-0.18861,0.0,2023,6,7,17,25,18,53
49.73690,0.19215,0.02047,0.00000,0.03172,0.98003,-0.18837,0.0,2023,6,7,17,25,18,64
49.73700,0.13965,0.17797,0.00000,0.03221,0.97771,-0.18727,0.0,2023,6,7,17,25,18,75
49.73710,-0.10535,0.26547,0.00000,0.02940,0.97271,-0.19032,0.0,2023,6,7,17,25,18,86
49.73720,0.06965,-0.04953,0.00000,0.03123,0.97527,-0.19069,0.0,2023,6,7,17,25,18,97
49.73730,-0.01785,0.17797,0.00000,0.03148,0.97746,-0.18788,0.0,2023,6,7,17,25,18,108
49.73740,-0.01785,-0.06703,0.00000,0.03331,0.97368,-0.18983,0.0,2023,6,7,17,25,18,119
49.73750,0.06965,0.05547,0.00000,0.03245,0.97856,-0.18678,0.0,2023,6,7,17,25,18,130
49.73760,-0.05285,-0.18953,0.00000,0.02904,0.97393,-0.18922,0.0,2023,6,7,17,25,18,141
49.73770,-0.00035,0.17797,0.00000,0.03074,0.97844,-0.18800,0.0,2023,6,7,17,25,18,152
49.73780,-0.08785,0.05547,0.00000,0.03111,0.97502,-0.18629,0.0,2023,6,7,17,25,18,163
49.73790,0.08715,-0.22453,0.00000,0.03160,0.97490,-0.19105,0.0,2023,6,7,17,25,18,174
49.73800,0.15715,-0.08453,0.00000,0.03087,0.97600,-0.19008,0.0,2023,6,7,17,25,18,185
49.73810,0.10465,-0.22453,0.00000,0.03001,0.97685,-0.18910,0.0,2023,6,7,17,25,18,196
49.73820,-0.08785,0.00297,0.00000,0.03099,0.97600,-0.18690,0.0,2023,6,7,17,25,18,207
49.73830,-0.05285,-0.04953,0.00000,0.03160,0.97539,-0.18983,0.0,2023,6,7,17,25,18,218
49.73840,-0.03535,-0.04953,0.00000,0.03270,0.97576,-0.18751,0.0,2023,6,7,17,25,18,229
49.73850,-0.00035,-0.10203,0.00000,0.03331,0.97429,-0.18483,0.0,2023,6,7,17,25,18,240
49.73860,-0.07035,0.16047,0.00000,0.03245,0.97954,-0.19044,0.0,2023,6,7,17,25,18,251
49.73870,0.15715,-0.01453,0.00000,0.03172,0.97783,-0.18812,0.0,2023,6,7,17,25,18,262
49.73880,0.03465,-0.01453,0.00000,0.03379,0.97478,-0.18715,0.0,2023,6,7,17,25,18,273
49.73890,0.03465,-0.10203,0.00000,0.03135,0.97698,-0.18727,0.0,2023,6,7,17,25,18,284
49.73900,-0.03535,0.05547,0.00000,0.03062,0.97722,-0.18971,0.0,2023,6,7,17,25,18,295
49.73910,0.19215,-0.01453,0.00000,0.03087,0.97637,-0.18703,0.0,2023,6,7,17,25,18,306
49.73920,-0.07035,-0.10203,0.00000,0.03050,0.97746,-0.18666,0.0,2023,6,7,17,25,18,317
49.73930,-0.08785,-0.10203,0.00000,0.03135,0.97783,-0.19069,0.0,2023,6,7,17,25,18,328
49.73940,0.03465,0.12547,0.00000,0.02965,0.97466,-0.18873,0.0,2023,6,7,17,25,18,339
49.73950,0.06965,0.10797,0.00000,0.03367,0.97502,-0.18666,0.0,2023,6,7,17,25,18,350
49.73960,-0.08785,0.00297,0.00000,0.03099,0.97746,-0.19044,0.0,2023,6,7,17,25,18,361
49.73970,0.03465,-0.01453,0.00000,0.03050,0.97856,-0.18971,0.0,2023,6,7,17,25,18,372
49.73980,0.03465,-0.03203,0.00000,0.03160,0.97588,-0.19032,0.0,2023,6,7,17,25,18,383
49.73990,0.13965,-0.18953,0.00000,0.03318,0.97563,-0.18886,0.0,2023,6,7,17,25,18,394
49.74000,-0.01785,0.10797,0.00000,0.03331,0.97637,-0.19056,0.0,2023,6,7,17,25,18,405
49.74010,0.29715,-0.11953,0.00000,0.03184,0.97527,-0.18959,0.0,2023,6,7,17,25,18,416
49.74020,0.15715,0.24797,0.00000,0.03087,0.98137,-0.18715,0.0,2023,6,7,17,25,18,427
49.74030,0.01715,0.03797,0.00000,0.03233,0.97661,-0.18703,0.0,2023,6,7,17,25,18,438
49.74040,-0.12285,0.19547,0.00000,0.03099,0.97649,-0.18886,0.0,2023,6,7,17,25,18,449
49.74050,-0.01785,0.07297,0.00000,0.03196,0.97527,-0.18849,0.0,2023,6,7,17,25,18,460
49.74060,-0.01785,-0.18953,0.00000,0.03221,0.97710,-0.18764,0.0,2023,6,7,17,25,18,471
49.74070,-0.01785,0.40547,0.00000,0.02940,0.97527,-0.19130,0.0,2023,6,7,17,25,18,482
49.74080,-0.12285,0.10797,0.00000,0.03221,0.97405,-0.18947,0.0,2023,6,7,17,25,18,493
49.74090,-0.01785,0.07297,0.00000,0.03514,0.97649,-0.18861,0.0,2023,6,7,17,25,18,504
49.74100,-0.01785,0.21297,0.00000,0.02989,0.97856,-0.18947,0.0,2023,6,7,17,25,18,515
49.74110,-0.10535,0.07297,0.00000,0.03135,0.97734,-0.18739,0.0,2023,6,7,17,25,18,526
49.74120,-0.10535,0.03797,0.00000,0.03099,0.97515,-0.18849,0.0,2023,6,7,17,25,18,537
49.74130,0.01715,0.12547,0.00000,0.03050,0.97649,-0.18959,0.0,2023,6,7,17,25,18,548
49.74140,0.10465,0.00297,0.00000,0.02904,0.97771,-0.18849,0.0,2023,6,7,17,25,18,559
49.74150,-0.01785,-0.11953,0.00000,0.03184,0.97746,-0.18642,0.0,2023,6,7,17,25,18,570
49.74160,-0.07035,0.12547,0.00000,0.03148,0.97539,-0.18959,0.0,2023,6,7,17,25,18,581
49.74170,-0.10535,-0.04953,0.00000,0.03123,0.97551,-0.19008,0.0,2023,6,7,17,25,18,592
49.74180,-0.07035,-0.03203,0.00000,0.03172,0.97746,-0.18568,0.0,2023,6,7,17,25,18,603
49.74190,-0.08785,0.05547,0.00000,0.03343,0.97612,-0.19008,0.0,2023,6,7,17,25,18,614
49.74200,0.10465,-0.01453,0.00000,0.03282,0.97637,-0.18910,0.0,2023,6,7,17,25,18,625
49.74210,-0.14035,0.12547,0.00000,0.03099,0.97368,-0.18812,0.0,2023,6,7,17,25,18,636
49.74220,0.03465,0.09047,0.00000,0.03111,0.97905,-0.19081,0.0,2023,6,7,17,25,18,647
49.74230,-0.01785,-0.06703,0.00000,0.03123,0.97685,-0.18947,0.0,2023,6,7,17,25,18,658
49.74240,-0.00035,0.19547,0.00000,0.03221,0.97563,-0.18849,0.0,2023,6,7,17,25,18,669
49.74250,0.22715,-0.22453,0.00000,0.03196,0.97746,-0.18812,0.0,2023,6,7,17,25,18,680
49.74260,0.17465,-0.01453,0.00000,0.03233,0.97685,-0.18593,0.0,2023,6,7,17,25,18,691
49.74270,-0.00035,-0.08453,0.00000,0.03099,0.97673,-0.18727,0.0,2023,6,7,17,25,18,702
49.74280,0.19215,-0.01453,0.00000,0.03184,0.97929,-0.19032,0.0,2023,6,7,17,25,18,713
49.74290,-0.03535,0.23047,0.00000,0.03209,0.97490,-0.18922,0.0,2023,6,7,17,25,18,724
49.74300,-0.03535,-0.11953,0.00000,0.03087,0.97563,-0.18934,0.0,2023,6,7,17,25,18,735
49.74310,-0.01785,-0.01453,0.00000,0.03184,0.97856,-0.18886,0.0,2023,6,7,17,25,18,746
49.74320,-0.01785,0.07297,0.00000,0.02928,0.97466,-0.19215,0.0,2023,6,7,17,25,18,757
49.74330,0.10465,0.09047,0.00000,0.03135,0.97649,-0.18764,0.0,2023,6,7,17,25,18,768
49.74340,0.12215,-0.13703,0.00000,0.03221,0.97429,-0.18873,0.0,2023,6,7,17,25,18,779
49.74350,-0.19285,0.05547,0.00000,0.02916,0.97612,-0.18947,0.0,2023,6,7,17,25,18,790
49.74360,-0.17535,-0.15453,0.00000,0.02977,0.97600,-0.18898,0.0,2023,6,7,17,25,18,801
49.74370,0.01715,-0.15453,0.00000,0.03148,0.97820,-0.18703,0.0,2023,6,7,17,25,18,812
49.74380,0.06965,-0.11953,0.00000,0.03392,0.97649,-0.18886,0.0,2023,6,7,17,25,18,823
49.74390,0.12215,-0.08453,0.00000,0.03111,0.97539,-0.18934,0.0,2023,6,7,17,25,18,834
49.74400,-0.08785,-0.08453,0.00000,0.03294,0.97722,-0.18837,0.0,2023,6,7,17,25,18,845
49.74410,-0.08785,0.07297,0.00000,0.02891,0.97734,-0.18995,0.0,2023,6,7,17,25,18,856
49.74420,-0.08785,-0.08453,0.00000,0.02916,0.97734,-0.19117,0.0,2023,6,7,17,25,18,867
49.74430,0.26215,-0.17203,0.00000,0.03257,0.97734,-0.18849,0.0,2023,6,7,17,25,18,878
49.74440,0.01715,-0.11953,0.00000,0.03184,0.97502,-0.18703,0.0,2023,6,7,17,25,18,889
49.74450,0.08715,0.14297,0.00000,0.03038,0.97588,-0.18727,0.0,2023,6,7,17,25,18,900
49.74460,-0.15785,-0.22453,0.00000,0.03257,0.97624,-0.18776,0.0,2023,6,7,17,25,18,911
49.74470,-0.12285,0.03797,0.00000,0.03074,0.97661,-0.18873,0.0,2023,6,7,17,25,18,922
49.74480,0.01715,-0.06703,0.00000,0.03087,0.97783,-0.18873,0.0,2023,6,7,17,25,18,933
49.74490,-0.08785,-0.22453,0.00000,0.03038,0.97454,-0.18898,0.0,2023,6,7,17,25,18,944
49.74500,-0.08785,-0.04953,0.00000,0.03209,0.97832,-0.18678,0.0,2023,6,7,17,25,18,955
49.74510,-0.05285,0.00297,0.00000,0.03111,0.97637,-0.18959,0.0,2023,6,7,17,25,18,966
49.74520,0.03465,0.14297,0.00000,0.03331,0.97905,-0.18788,0.0,2023,6,7,17,25,18,977
49.74530,-0.08785,-0.08453,0.00000,0.03038,0.97685,-0.18971,0.0,2023,6,7,17,25,18,988
49.74540,0.20965,-0.10203,0.00000,0.03038,0.97673,-0.18995,0.0,2023,6,7,17,25,19,9
49.74550,0.13965,-0.08453,0.00000,0.03209,0.97807,-0.18934,0.0,2023,6,7,17,25,19,20
49.74560,-0.07035,-0.20703,0.00000,0.03294,0.97502,-0.18751,0.0,2023,6,7,17,25,19,31
49.74570,-0.08785,-0.01453,0.00000,0.02965,0.97673,-0.19008,0.0,2023,6,7,17,25,19,42
49.74580,0.10465,-0.08453,0.00000,0.02891,0.98039,-0.19166,0.0,2023,6,7,17,25,19,53
49.74590,-0.22785,-0.03203,0.00000,0.03209,0.97283,-0.18739,0.0,2023,6,7,17,25,19,64
49.74600,-0.08785,0.00297,0.00000,0.03013,0.97917,-0.18934,0.0,2023,6,7,17,25,19,75
49.74610,0.08715,0.07297,0.00000,0.03257,0.97771,-0.18947,0.0,2023,6,7,17,25,19,86
49.74620,-0.26285,0.16047,0.00000,0.03282,0.97441,-0.18947,0.0,2023,6,7,17,25,19,97
49.74630,-0.00035,0.14297,0.00000,0.03123,0.97441,-0.18727,0.0,2023,6,7,17,25,19,108
49.74640,0.10465,0.14297,0.00000,0.03099,0.97612,-0.18471,0.0,2023,6,7,17,25,19,119
49.74650,-0.08785,-0.15453,0.00000,0.03404,0.97612,-0.18861,0.0,2023,6,7,17,25,19,130
49.74660,-0.03535,0.05547,0.00000,0.03111,0.97868,-0.19020,0.0,2023,6,7,17,25,19,141
49.74670,0.10465,-0.11953,0.00000,0.03135,0.97673,-0.18581,0.0,2023,6,7,17,25,19,152
49.74680,-0.00035,-0.03203,0.00000,0.03209,0.97661,-0.18898,0.0,2023,6,7,17,25,19,163
49.74690,0.24465,-0.17203,0.00000,0.03087,0.97588,-0.18861,0.0,2023,6,7,17,25,19,174
49.74700,-0.08785,0.07297,0.00000,0.03465,0.97600,-0.18983,0.0,2023,6,7,17,25,19,185
49.74710,-0.08785,-0.04953,0.00000,0.03135,0.97600,-0.18837,0.0,2023,6,7,17,25,19,196
49.74720,-0.00035,0.02047,0.00000,0.03282,0.97368,-0.18629,0.0,2023,6,7,17,25,19,207
49.74730,-0.05285,-0.01453,0.00000,0.03111,0.97722,-0.18776,0.0,2023,6,7,17,25,19,218
49.74740,0.03465,0.05547,0.00000,0.03562,0.97490,-0.18934,0.0,2023,6,7,17,25,19,229
49.74750,0.06965,-0.01453,0.00000,0.03148,0.97600,-0.18715,0.0,2023,6,7,17,25,19,240
49.74760,-0.26285,0.05547,0.00000,0.03148,0.97588,-0.18727,0.0,2023,6,7,17,25,19,251
49.74770,0.06965,0.10797,0.00000,0.03233,0.97710,-0.18922,0.0,2023,6,7,17,25,19,262
49.74780,0.05215,0.09047,0.00000,0.03306,0.97661,-0.18947,0.0,2023,6,7,17,25,19,273
49.74790,-0.01785,0.00297,0.00000,0.03074,0.97832,-0.18837,0.0,2023,6,7,17,25,19,284
49.74800,0.06965,-0.10203,0.00000,0.03099,0.97661,-0.18800,0.0,2023,6,7,17,25,19,295
49.74810,0.17465,-0.03203,0.00000,0.03318,0.97527,-0.18934,0.0,2023,6,7,17,25,19,306
49.74820,-0.07035,0.03797,0.00000,0.03270,0.97576,-0.18617,0.0,2023,6,7,17,25,19,317
49.74830,-0.01785,0.07297,0.00000,0.03233,0.97698,-0.18959,0.0,2023,6,7,17,25,19,328
49.74840,-0.00035,-0.04953,0.00000,0.02989,0.97515,-0.18971,0.0,2023,6,7,17,25,19,339
49.74850,-0.07035,0.00297,0.00000,0.03196,0.97539,-0.18812,0.0,2023,6,7,17,25,19,350
49.74860,0.05215,-0.10203,0.00000,0.03209,0.97393,-0.18825,0.0,2023,6,7,17,25,19,361
49.74870,0.08715,0.14297,0.00000,0.03331,0.97771,-0.19032,0.0,2023,6,7,17,25,19,372
49.74880,-0.01785,0.03797,0.00000,0.03221,0.97734,-0.18678,0.0,2023,6,7,17,25,19,383
49.74890,0.05215,-0.08453,0.00000,0.03270,0.97661,-0.18751,0.0,2023,6,7,17,25,19,394
49.74900,0.10465,0.19547,0.00000,0.03111,0.97893,-0.18751,0.0,2023,6,7,17,25,19,405
49.74910,0.05215,-0.04953,0.00000,0.03026,0.97893,-0.18825,0.0,2023,6,7,17,25,19,416
49.74920,0.01715,0.00297,0.00000,0.03172,0.97844,-0.18690,0.0,2023,6,7,17,25,19,427
49.74930,-0.28035,-0.01453,0.00000,0.03160,0.97600,-0.18849,0.0,2023,6,7,17,25,19,438
49.74940,0.01715,0.02047,0.00000,0.03135,0.97685,-0.18934,0.0,2023,6,7,17,25,19,449
49.74950,0.10465,-0.08453,0.00000,0.03294,0.97539,-0.18605,0.0,2023,6,7,17,25,19,460
49.74960,0.10465,-0.13703,0.00000,0.03294,0.97539,-0.18751,0.0,2023,6,7,17,25,19,471
49.74970,-0.01785,0.03797,0.00000,0.03123,0.97771,-0.18886,0.0,2023,6,7,17,25,19,482
49.74980,-0.08785,0.07297,0.00000,0.03196,0.97685,-0.18861,0.0,2023,6,7,17,25,19,493
49.74990,0.06965,-0.08453,0.00000,0.03294,0.97771,-0.18873,0.0,2023,6,7,17,25,19,504
49.75000,-0.01785,-0.01453,0.00000,0.03245,0.97588,-0.18690,0.0,2023,6,7,17,25,19,515
49.75010,-0.00035,0.30047,0.00000,0.03233,0.97563,-0.18934,0.0,2023,6,7,17,25,19,526
49.75020,-0.03535,0.09047,0.00000,0.03135,0.97502,-0.18861,0.0,2023,6,7,17,25,19,537
49.75030,0.19215,-0.10203,0.00000,0.03087,0.98015,-0.18629,0.0,2023,6,7,17,25,19,548
49.75040,0.03465,-0.01453,0.00000,0.03270,0.97844,-0.18788,0.0,2023,6,7,17,25,19,559
49.75050,-0.12285,-0.11953,0.00000,0.02940,0.97661,-0.19130,0.0,2023,6,7,17,25,19,570
49.75060,0.03465,0.09047,0.00000,0.03172,0.97637,-0.18605,0.0,2023,6,7,17,25,19,581
49.75070,-0.00035,-0.04953,0.00000,0.03148,0.97722,-0.18593,0.0,2023,6,7,17,25,19,592
49.75080,0.24465,0.02047,0.00000,0.03123,0.97661,-0.18861,0.0,2023,6,7,17,25,19,603
49.75090,-0.00035,-0.06703,0.00000,0.03270,0.97612,-0.18715,0.0,2023,6,7,17,25,19,614
49.75100,-0.21035,0.21297,0.00000,0.03282,0.97576,-0.18825,0.0,2023,6,7,17,25,19,625
49.75110,-0.19285,0.21297,0.00000,0.03172,0.97563,-0.18666,0.0,2023,6,7,17,25,19,636
49.75120,-0.14035,-0.13703,0.00000,0.03123,0.97588,-0.18849,0.0,2023,6,7,17,25,19,647
49.75130,0.01715,0.09047,0.00000,0.03172,0.97454,-0.18910,0.0,2023,6,7,17,25,19,658
49.75140,0.01715,0.07297,0.00000,0.03160,0.97710,-0.18959,0.0,2023,6,7,17,25,19,669
49.75150,-0.17535,0.10797,0.00000,0.03196,0.97746,-0.18690,0.0,2023,6,7,17,25,19,680
49.75160,-0.21035,0.21297,0.00000,0.03196,0.97551,-0.18873,0.0,2023,6,7,17,25,19,691
49.75170,-0.10535,0.00297,0.00000,0.03331,0.97527,-0.18812,0.0,2023,6,7,17,25,19,702
49.75180,0.13965,-0.17203,0.00000,0.03282,0.97710,-0.18727,0.0,2023,6,7,17,25,19,713
49.75190,-0.07035,0.00297,0.00000,0.03050,0.97685,-0.18910,0.0,2023,6,7,17,25,19,724
49.75200,0.15715,0.07297,0.00000,0.03062,0.97710,-0.18837,0.0,2023,6,7,17,25,19,735
49.75210,-0.21035,-0.06703,0.00000,0.03221,0.97612,-0.18642,0.0,2023,6,7,17,25,19,746
49.75220,0.05215,0.02047,0.00000,0.02891,0.97600,-0.18837,0.0,2023,6,7,17,25,19,757
49.75230,0.12215,0.00297,0.00000,0.03209,0.97624,-0.18654,0.0,2023,6,7,17,25,19,768
49.75240,-0.26285,0.12547,0.00000,0.03038,0.97576,-0.18654,0.0,2023,6,7,17,25,19,779
49.75250,0.06965,-0.31203,0.00000,0.03135,0.97673,-0.18703,0.0,2023,6,7,17,25,19,790
49.75260,0.22715,-0.04953,0.00000,0.03318,0.97454,-0.18800,0.0,2023,6,7,17,25,19,801
49.75270,0.10465,0.07297,0.00000,0.03221,0.97612,-0.18556,0.0,2023,6,7,17,25,19,812
49.75280,-0.01785,-0.03203,0.00000,0.03209,0.97783,-0.18690,0.0,2023,6,7,17,25,19,823
49.75290,-0.05285,-0.08453,0.00000,0.03318,0.97698,-0.18873,0.0,2023,6,7,17,25,19,834
49.75300,-0.05285,0.17797,0.00000,0.03013,0.97807,-0.19008,0.0,2023,6,7,17,25,19,845
49.75310,0.05215,-0.13703,0.00000,0.03135,0.97637,-0.18739,0.0,2023,6,7,17,25,19,856
49.75320,-0.10535,0.17797,0.00000,0.03148,0.97490,-0.18751,0.0,2023,6,7,17,25,19,867
49.75330,-0.19285,0.12547,0.00000,0.03343,0.97710,-0.19008,0.0,2023,6,7,17,25,19,878
49.75340,-0.05285,0.07297,0.00000,0.03221,0.97661,-0.18654,0.0,2023,6,7,17,25,19,889
49.75350,0.05215,-0.24203,0.00000,0.03123,0.97807,-0.18873,0.0,2023,6,7,17,25,19,900
49.75360,0.10465,0.07297,0.00000,0.02977,0.97685,-0.18788,0.0,2023,6,7,17,25,19,911
49.75370,0.01715,0.00297,0.00000,0.03026,0.97673,-0.18947,0.0,2023,6,7,17,25,19,922
49.75380,0.20965,-0.08453,0.00000,0.03172,0.97710,-0.18690,0.0,2023,6,7,17,25,19,933
49.75390,-0.01785,-0.20703,0.00000,0.03123,0.97539,-0.18800,0.0,2023,6,7,17,25,19,944
49.75400,0.19215,0.03797,0.00000,0.03135,0.97746,-0.18666,0.0,2023,6,7,17,25,19,955
49.75410,-0.21035,0.02047,0.00000,0.03184,0.97527,-0.18764,0.0,2023,6,7,17,25,19,966
49.75420,-0.05285,0.05547,0.00000,0.03196,0.97759,-0.18910,0.0,2023,6,7,17,25,19,977
49.75430,0.12215,-0.08453,0.00000,0.02989,0.97527,-0.18678,0.0,2023,6,7,17,25,19,988
49.75440,-0.17535,0.24797,0.00000,0.03379,0.97673,-0.18873,0.0,2023,6,7,17,25,20,9
49.75450,-0.19285,0.00297,0.00000,0.03270,0.97820,-0.18959,0.0,2023,6,7,17,25,20,20
49.75460,-0.14035,0.14297,0.00000,0.03148,0.97649,-0.18947,0.0,2023,6,7,17,25,20,31
49.75470,-0.17535,0.10797,0.00000,0.03062,0.97612,-0.19069,0.0,2023,6,7,17,25,20,42
49.75480,-0.10535,0.21297,0.00000,0.03221,0.97734,-0.18971,0.0,2023,6,7,17,25,20,53
49.75490,0.10465,-0.01453,0.00000,0.03074,0.97502,-0.18764,0.0,2023,6,7,17,25,20,64
49.75500,-0.03535,0.10797,0.00000,0.03148,0.97905,-0.18934,0.0,2023,6,7,17,25,20,75
49.75510,-0.03535,-0.15453,0.00000,0.03184,0.97600,-0.18934,0.0,2023,6,7,17,25,20,86
49.75520,-0.03535,0.02047,0.00000,0.03013,0.97722,-0.18983,0.0,2023,6,7,17,25,20,97
49.75530,-0.00035,0.16047,0.00000,0.03257,0.97771,-0.18910,0.0,2023,6,7,17,25,20,108
49.75540,-0.07035,0.02047,0.00000,0.03026,0.97515,-0.18861,0.0,2023,6,7,17,25,20,119
49.75550,-0.14035,-0.08453,0.00000,0.03099,0.97722,-0.18764,0.0,2023,6,7,17,25,20,130
49.75560,-0.03535,0.09047,0.00000,0.03379,0.97490,-0.18947,0.0,2023,6,7,17,25,20,141
49.75570,-0.17535,-0.06703,0.00000,0.03087,0.97710,-0.19032,0.0,2023,6,7,17,25,20,152
49.75580,0.13965,-0.17203,0.00000,0.03148,0.97490,-0.18764,0.0,2023,6,7,17,25,20,163
49.75590,0.05215,-0.03203,0.00000,0.03026,0.97905,-0.18776,0.0,2023,6,7,17,25,20,174
49.75600,0.03465,-0.13703,0.00000,0.03282,0.97698,-0.18739,0.0,2023,6,7,17,25,20,185
49.75610,0.13965,-0.10203,0.00000,0.03074,0.97685,-0.19069,0.0,2023,6,7,17,25,20,196
49.75620,0.06965,0.07297,0.00000,0.03245,0.97405,-0.18861,0.0,2023,6,7,17,25,20,207
49.75630,-0.01785,0.07297,0.00000,0.03233,0.97820,-0.18934,0.0,2023,6,7,17,25,20,218
49.75640,-0.00035,-0.04953,0.00000,0.03148,0.97832,-0.18922,0.0,2023,6,7,17,25,20,229
49.75650,0.08715,0.02047,0.00000,0.03111,0.97673,-0.19093,0.0,2023,6,7,17,25,20,240
49.75660,-0.26285,0.10797,0.00000,0.03331,0.97673,-0.18690,0.0,2023,6,7,17,25,20,251
49.75670,-0.08785,0.05547,0.00000,0.03245,0.97637,-0.19032,0.0,2023,6,7,17,25,20,262
49.75680,0.17465,-0.10203,0.00000,0.03196,0.97588,-0.18825,0.0,2023,6,7,17,25,20,273
49.75690,0.06965,0.07297,0.00000,0.03099,0.97820,-0.18642,0.0,2023,6,7,17,25,20,284
49.75700,0.05215,-0.06703,0.00000,0.03392,0.97783,-0.18654,0.0,2023,6,7,17,25,20,295
49.75710,0.08715,-0.03203,0.00000,0.03099,0.97551,-0.18751,0.0,2023,6,7,17,25,20,306
49.75720,0.06965,0.09047,0.00000,0.03160,0.97893,-0.18703,0.0,2023,6,7,17,25,20,317
49.75730,0.15715,0.02047,0.00000,0.03062,0.97673,-0.19105,0.0,2023,6,7,17,25,20,328
49.75740,-0.00035,-0.01453,0.00000,0.03160,0.97588,-0.18910,0.0,2023,6,7,17,25,20,339
49.75750,-0.12285,-0.18953,0.00000,0.03099,0.97929,-0.18959,0.0,2023,6,7,17,25,20,350
49.75760,0.22715,0.05547,0.00000,0.02916,0.97576,-0.19093,0.0,2023,6,7,17,25,20,361
49.75770,-0.03535,0.05547,0.00000,0.03123,0.97600,-0.18873,0.0,2023,6,7,17,25,20,372
49.75780,-0.15785,0.03797,0.00000,0.03306,0.97734,-0.18690,0.0,2023,6,7,17,25,20,383
49.75790,0.19215,-0.17203,0.00000,0.03233,0.97673,-0.19056,0.0,2023,6,7,17,25,20,394
49.75800,-0.08785,0.10797,0.00000,0.02977,0.97856,-0.18959,0.0,2023,6,7,17,25,20,405
49.75810,-0.01785,-0.15453,0.00000,0.03172,0.97527,-0.18934,0.0,2023,6,7,17,25,20,416
49.75820,0.10465,0.07297,0.00000,0.03099,0.97563,-0.18898,0.0,2023,6,7,17,25,20,427
49.75830,0.01715,-0.11953,0.00000,0.03440,0.97746,-0.19044,0.0,2023,6,7,17,25,20,438
49.75840,-0.15785,0.19547,0.00000,0.03306,0.97454,-0.19056,0.0,2023,6,7,17,25,20,449
49.75850,-0.01785,-0.24203,0.00000,0.03123,0.97637,-0.18593,0.0,2023,6,7,17,25,20,460
49.75860,0.13965,-0.22453,0.00000,0.03062,0.97844,-0.19093,0.0,2023,6,7,17,25,20,471
49.75870,0.08715,0.10797,0.00000,0.03135,0.97612,-0.18861,0.0,2023,6,7,17,25,20,482
49.75880,-0.12285,0.16047,0.00000,0.03257,0.97600,-0.18995,0.0,2023,6,7,17,25,20,493
49.75890,-0.12285,-0.22453,0.00000,0.03209,0.97405,-0.18715,0.0,2023,6,7,17,25,20,504
49.75900,-0.12285,-0.24203,0.00000,0.03160,0.97868,-0.18715,0.0,2023,6,7,17,25,20,515
49.75910,0.12215,0.16047,0.00000,0.03404,0.97600,-0.19056,0.0,2023,6,7,17,25,20,526
49.75920,0.06965,0.02047,0.00000,0.03294,0.97868,-0.18556,0.0,2023,6,7,17,25,20,537
49.75930,-0.19285,0.00297,0.00000,0.03245,0.97624,-0.18983,0.0,2023,6,7,17,25,20,548
49.75940,0.05215,0.03797,0.00000,0.03379,0.97783,-0.18727,0.0,2023,6,7,17,25,20,559
49.75950,-0.12285,-0.17203,0.00000,0.03294,0.97539,-0.18886,0.0,2023,6,7,17,25,20,570
49.75960,-0.12285,-0.13703,0.00000,0.03135,0.97612,-0.18654,0.0,2023,6,7,17,25,20,581
49.75970,0.01715,-0.15453,0.00000,0.03087,0.97820,-0.19069,0.0,2023,6,7,17,25,20,592
49.75980,-0.01785,0.14297,0.00000,0.02965,0.97893,-0.18593,0.0,2023,6,7,17,25,20,603
49.75990,0.12215,-0.18953,0.00000,0.03245,0.97637,-0.18703,0.0,2023,6,7,17,25,20,614
49.76000,0.17465,0.02047,0.00000,0.03294,0.97563,-0.18739,0.0,2023,6,7,17,25,20,625
49.76010,0.06965,0.02047,0.00000,0.03026,0.97746,-0.18995,0.0,2023,6,7,17,25,20,636
49.76020,0.20965,0.00297,0.00000,0.03172,0.97820,-0.18812,0.0,2023,6,7,17,25,20,647
49.76030,-0.08785,0.10797,0.00000,0.03306,0.97563,-0.18861,0.0,2023,6,7,17,25,20,658
49.76040,-0.00035,0.00297,0.00000,0.03184,0.97673,-0.18886,0.0,2023,6,7,17,25,20,669
49.76050,-0.08785,-0.03203,0.00000,0.03148,0.97710,-0.19056,0.0,2023,6,7,17,25,20,680
49.76060,-0.14035,-0.20703,0.00000,0.03148,0.97722,-0.19093,0.0,2023,6,7,17,25,20,691
49.76070,-0.12285,0.24797,0.00000,0.03233,0.97624,-0.18446,0.0,2023,6,7,17,25,20,702
49.76080,-0.21035,0.05547,0.00000,0.03087,0.97698,-0.18776,0.0,2023,6,7,17,25,20,713
49.76090,-0.07035,0.12547,0.00000,0.03245,0.97722,-0.18873,0.0,2023,6,7,17,25,20,724
49.76100,0.06965,-0.04953,0.00000,0.03087,0.97624,-0.18825,0.0,2023,6,7,17,25,20,735
49.76110,-0.01785,-0.04953,0.00000,0.03367,0.97649,-0.18947,0.0,2023,6,7,17,25,20,746
49.76120,0.03465,-0.04953,0.00000,0.03306,0.97661,-0.18886,0.0,2023,6,7,17,25,20,757
49.76130,-0.07035,0.03797,0.00000,0.03318,0.97734,-0.18861,0.0,2023,6,7,17,25,20,768
49.76140,-0.05285,0.03797,0.00000,0.03184,0.97722,-0.19117,0.0,2023,6,7,17,25,20,779
49.76150,-0.12285,0.05547,0.00000,0.03196,0.97685,-0.18764,0.0,2023,6,7,17,25,20,790
49.76160,0.12215,-0.08453,0.00000,0.03270,0.97820,-0.18825,0.0,2023,6,7,17,25,20,801
49.76170,-0.12285,-0.03203,0.00000,0.03270,0.97624,-0.18727,0.0,2023,6,7,17,25,20,812
49.76180,0.01715,-0.03203,0.00000,0.03404,0.97624,-0.18898,0.0,2023,6,7,17,25,20,823
49.76190,-0.00035,0.03797,0.00000,0.03270,0.97759,-0.18995,0.0,2023,6,7,17,25,20,834
49.76200,-0.05285,-0.06703,0.00000,0.03013,0.97698,-0.18751,0.0,2023,6,7,17,25,20,845
49.76210,-0.05285,-0.01453,0.00000,0.03148,0.97832,-0.19008,0.0,2023,6,7,17,25,20,856
49.76220,-0.08785,0.12547,0.00000,0.03221,0.97685,-0.19020,0.0,2023,6,7,17,25,20,867
49.76230,-0.01785,-0.24203,0.00000,0.03196,0.97673,-0.19020,0.0,2023,6,7,17,25,20,878
49.76240,-0.15785,-0.03203,0.00000,0.03221,0.97710,-0.19044,0.0,2023,6,7,17,25,20,889
49.76250,-0.10535,-0.06703,0.00000,0.03087,0.97563,-0.18776,0.0,2023,6,7,17,25,20,900
49.76260,-0.03535,0.31797,0.00000,0.03184,0.97783,-0.19300,0.0,2023,6,7,17,25,20,911
49.76270,-0.03535,-0.06703,0.00000,0.03306,0.97734,-0.19081,0.0,2023,6,7,17,25,20,922
49.76280,0.06965,0.07297,0.00000,0.03160,0.97685,-0.18751,0.0,2023,6,7,17,25,20,933
49.76290,-0.07035,-0.06703,0.00000,0.03343,0.97893,-0.19215,0.0,2023,6,7,17,25,20,944
49.76300,0.06965,0.26547,0.00000,0.03257,0.97771,-0.19117,0.0,2023,6,7,17,25,20,955
49.76310,0.06965,0.02047,0.00000,0.03099,0.97576,-0.19032,0.0,2023,6,7,17,25,20,966
49.76320,-0.07035,0.17797,0.00000,0.03343,0.97722,-0.18947,0.0,2023,6,7,17,25,20,977
49.76330,0.01715,-0.25953,0.00000,0.03257,0.97454,-0.18886,0.0,2023,6,7,17,25,21,8
49.76340,-0.05285,-0.08453,0.00000,0.03270,0.97807,-0.18995,0.0,2023,6,7,17,25,21,19
49.76350,-0.12285,0.14297,0.00000,0.03270,0.97600,-0.19069,0.0,2023,6,7,17,25,21,30
49.76360,-0.01785,0.14297,0.00000,0.03367,0.97612,-0.18995,0.0,2023,6,7,17,25,21,41
49.76370,0.01715,0.09047,0.00000,0.02940,0.97807,-0.19239,0.0,2023,6,7,17,25,21,52
49.76380,0.01715,0.19547,0.00000,0.03135,0.97539,-0.18898,0.0,2023,6,7,17,25,21,63
49.76390,-0.08785,0.07297,0.00000,0.03038,0.97637,-0.19056,0.0,2023,6,7,17,25,21,74
49.76400,-0.07035,-0.11953,0.00000,0.03135,0.97807,-0.18995,0.0,2023,6,7,17,25,21,85
49.76410,-0.07035,0.02047,0.00000,0.03111,0.97746,-0.18910,0.0,2023,6,7,17,25,21,96
49.76420,0.05215,0.00297,0.00000,0.03172,0.97515,-0.18861,0.0,2023,6,7,17,25,21,107
49.76430,-0.00035,0.00297,0.00000,0.03404,0.97454,-0.18727,0.0,2023,6,7,17,25,21,118
49.76440,0.03465,0.03797,0.00000,0.02989,0.97661,-0.18922,0.0,2023,6,7,17,25,21,129
49.76450,-0.05285,-0.01453,0.00000,0.03135,0.97746,-0.19032,0.0,2023,6,7,17,25,21,140
49.76460,0.03465,0.17797,0.00000,0.03343,0.97539,-0.18959,0.0,2023,6,7,17,25,21,151
49.76470,0.08715,-0.20703,0.00000,0.03172,0.97795,-0.18934,0.0,2023,6,7,17,25,21,162
49.76480,-0.01785,0.21297,0.00000,0.03160,0.97637,-0.19020,0.0,2023,6,7,17,25,21,173
49.76490,-0.10535,0.02047,0.00000,0.02989,0.97576,-0.19008,0.0,2023,6,7,17,25,21,184
49.76500,0.05215,0.02047,0.00000,0.03050,0.97783,-0.19191,0.0,2023,6,7,17,25,21,195
49.76510,0.10465,-0.10203,0.00000,0.03318,0.97832,-0.18629,0.0,2023,6,7,17,25,21,206
49.76520,0.20965,-0.04953,0.00000,0.03038,0.97795,-0.18934,0.0,2023,6,7,17,25,21,217
49.76530,-0.15785,0.00297,0.00000,0.03306,0.97734,-0.18971,0.0,2023,6,7,17,25,21,228
49.76540,0.08715,-0.15453,0.00000,0.03318,0.97685,-0.19044,0.0,2023,6,7,17,25,21,239
49.76550,-0.07035,0.02047,0.00000,0.02989,0.97576,-0.18837,0.0,2023,6,7,17,25,21,250
49.76560,-0.08785,0.33547,0.00000,0.03001,0.97637,-0.19166,0.0,2023,6,7,17,25,21,261
49.76570,-0.19285,0.16047,0.00000,0.03135,0.97746,-0.19008,0.0,2023,6,7,17,25,21,272
49.76580,-0.00035,0.26547,0.00000,0.03099,0.97539,-0.19044,0.0,2023,6,7,17,25,21,283
49.76590,-0.08785,0.21297,0.00000,0.02965,0.97600,-0.18947,0.0,2023,6,7,17,25,21,294
49.76600,0.10465,0.05547,0.00000,0.03148,0.97807,-0.18764,0.0,2023,6,7,17,25,21,305
49.76610,0.01715,-0.10203,0.00000,0.03221,0.97734,-0.18837,0.0,2023,6,7,17,25,21,316
49.76620,-0.07035,0.07297,0.00000,0.03062,0.97649,-0.19117,0.0,2023,6,7,17,25,21,327
49.76630,0.10465,0.17797,0.00000,0.03270,0.97722,-0.19093,0.0,2023,6,7,17,25,21,338
49.76640,-0.05285,-0.06703,0.00000,0.03111,0.97600,-0.19020,0.0,2023,6,7,17,25,21,349
49.76650,-0.10535,0.07297,0.00000,0.03160,0.97588,-0.18922,0.0,2023,6,7,17,25,21,360
49.76660,-0.01785,-0.11953,0.00000,0.03135,0.97490,-0.18788,0.0,2023,6,7,17,25,21,371
49.76670,0.22715,-0.17203,0.00000,0.03074,0.97490,-0.18910,0.0,2023,6,7,17,25,21,382
49.76680,-0.03535,0.14297,0.00000,0.03355,0.97673,-0.18837,0.0,2023,6,7,17,25,21,393
49.76690,-0.12285,0.07297,0.00000,0.03233,0.97856,-0.18849,0.0,2023,6,7,17,25,21,404
49.76700,0.01715,-0.15453,0.00000,0.03196,0.97502,-0.19105,0.0,2023,6,7,17,25,21,415
49.76710,0.19215,-0.13703,0.00000,0.03123,0.97795,-0.19044,0.0,2023,6,7,17,25,21,426
49.76720,-0.12285,0.07297,0.00000,0.03099,0.97551,-0.18922,0.0,2023,6,7,17,25,21,437
49.76730,0.08715,-0.04953,0.00000,0.03270,0.97881,-0.18873,0.0,2023,6,7,17,25,21,448
49.76740,0.06965,-0.27703,0.00000,0.03233,0.97600,-0.18947,0.0,2023,6,7,17,25,21,459
49.76750,-0.15785,0.03797,0.00000,0.03135,0.97685,-0.18800,0.0,2023,6,7,17,25,21,470
49.76760,0.20965,0.00297,0.00000,0.03074,0.97405,-0.19069,0.0,2023,6,7,17,25,21,481
49.76770,0.26215,-0.13703,0.00000,0.03196,0.97832,-0.18678,0.0,2023,6,7,17,25,21,492
49.76780,-0.12285,-0.10203,0.00000,0.03184,0.97710,-0.18861,0.0,2023,6,7,17,25,21,503
49.76790,-0.05285,0.03797,0.00000,0.03196,0.97563,-0.18873,0.0,2023,6,7,17,25,21,514
49.76800,0.17465,0.17797,0.00000,0.03172,0.97624,-0.18776,0.0,2023,6,7,17,25,21,525
49.76810,0.06965,-0.13703,0.00000,0.03062,0.97527,-0.18934,0.0,2023,6,7,17,25,21,536
49.76820,-0.03535,0.03797,0.00000,0.03135,0.97454,-0.18581,0.0,2023,6,7,17,25,21,547
49.76830,0.03465,-0.06703,0.00000,0.03111,0.97466,-0.18837,0.0,2023,6,7,17,25,21,558
49.76840,0.24465,-0.04953,0.00000,0.03221,0.97454,-0.18934,0.0,2023,6,7,17,25,21,569
49.76850,0.33215,-0.08453,0.00000,0.03196,0.97795,-0.19008,0.0,2023,6,7,17,25,21,580
49.76860,0.06965,0.07297,0.00000,0.03172,0.97783,-0.18861,0.0,2023,6,7,17,25,21,591
49.76870,-0.00035,-0.18953,0.00000,0.03184,0.97746,-0.18788,0.0,2023,6,7,17,25,21,602
49.76880,0.01715,-0.13703,0.00000,0.03221,0.97856,-0.18971,0.0,2023,6,7,17,25,21,613
49.76890,0.06965,0.02047,0.00000,0.03135,0.97820,-0.18873,0.0,2023,6,7,17,25,21,624
49.76900,-0.17535,0.09047,0.00000,0.03196,0.97551,-0.18898,0.0,2023,6,7,17,25,21,635
49.76910,0.03465,-0.15453,0.00000,0.02940,0.97710,-0.18654,0.0,2023,6,7,17,25,21,646
49.76920,0.03465,0.05547,0.00000,0.03099,0.97539,-0.18727,0.0,2023,6,7,17,25,21,657
49.76930,-0.01785,0.09047,0.00000,0.03074,0.97612,-0.18886,0.0,2023,6,7,17,25,21,668
49.76940,0.13965,-0.04953,0.00000,0.03172,0.97490,-0.18776,0.0,2023,6,7,17,25,21,679
49.76950,-0.00035,0.26547,0.00000,0.03111,0.97698,-0.18934,0.0,2023,6,7,17,25,21,690
49.76960,0.01715,0.02047,0.00000,0.03294,0.97527,-0.18715,0.0,2023,6,7,17,25,21,701
49.76970,-0.01785,0.12547,0.00000,0.02904,0.97624,-0.18995,0.0,2023,6,7,17,25,21,712
49.76980,-0.00035,0.03797,0.00000,0.03013,0.97893,-0.18861,0.0,2023,6,7,17,25,21,723
49.76990,0.01715,0.02047,0.00000,0.03245,0.97710,-0.18922,0.0,2023,6,7,17,25,21,734
49.77000,0.10465,-0.04953,0.00000,0.03221,0.97576,-0.18934,0.0,2023,6,7,17,25,21,745
49.77010,0.31465,-0.01453,0.00000,0.03270,0.97734,-0.19069,0.0,2023,6,7,17,25,21,756
49.77020,0.08715,0.05547,0.00000,0.03355,0.97698,-0.19239,0.0,2023,6,7,17,25,21,767
49.77030,0.01715,-0.11953,0.00000,0.03318,0.97600,-0.18751,0.0,2023,6,7,17,25,21,778
49.77040,0.15715,0.10797,0.00000,0.03270,0.97771,-0.18898,0.0,2023,6,7,17,25,21,789
49.77050,0.05215,-0.13703,0.00000,0.03184,0.97588,-0.18654,0.0,2023,6,7,17,25,21,800
49.77060,0.08715,-0.03203,0.00000,0.03209,0.97746,-0.18934,0.0,2023,6,7,17,25,21,811
49.77070,0.22715,-0.04953,0.00000,0.03196,0.97661,-0.19142,0.0,2023,6,7,17,25,21,822
49.77080,0.15715,-0.06703,0.00000,0.03209,0.97405,-0.18739,0.0,2023,6,7,17,25,21,833
49.77090,-0.15785,0.26547,0.00000,0.03038,0.97490,-0.18764,0.0,2023,6,7,17,25,21,844
49.77100,0.26215,0.05547,0.00000,0.02989,0.97734,-0.18788,0.0,2023,6,7,17,25,21,855
49.77110,-0.01785,0.09047,0.00000,0.03306,0.97661,-0.18959,0.0,2023,6,7,17,25,21,866
49.77120,-0.08785,0.02047,0.00000,0.02916,0.97820,-0.19032,0.0,2023,6,7,17,25,21,877
49.77130,-0.07035,0.03797,0.00000,0.03428,0.97637,-0.19105,0.0,2023,6,7,17,25,21,888
49.77140,0.01715,-0.01453,0.00000,0.03270,0.97576,-0.18849,0.0,2023,6,7,17,25,21,899
49.77150,-0.10535,0.09047,0.00000,0.03294,0.97685,-0.18593,0.0,2023,6,7,17,25,21,910
49.77160,0.05215,-0.20703,0.00000,0.02904,0.97807,-0.19154,0.0,2023,6,7,17,25,21,921
49.77170,-0.03535,-0.01453,0.00000,0.03209,0.97405,-0.18898,0.0,2023,6,7,17,25,21,932
49.77180,0.08715,0.14297,0.00000,0.02904,0.97820,-0.18947,0.0,2023,6,7,17,25,21,943
49.77190,0.19215,-0.08453,0.00000,0.03294,0.97502,-0.18861,0.0,2023,6,7,17,25,21,954
49.77200,-0.12285,0.10797,0.00000,0.03343,0.97685,-0.18812,0.0,2023,6,7,17,25,21,965
49.77210,-0.12285,0.00297,0.00000,0.03111,0.97905,-0.19142,0.0,2023,6,7,17,25,21,976
49.77220,0.06965,0.05547,0.00000,0.03038,0.98003,-0.18995,0.0,2023,6,7,17,25,21,987
49.77230,-0.12285,0.09047,0.00000,0.03392,0.97649,-0.18861,0.0,2023,6,7,17,25,22,8
49.77240,-0.07035,0.05547,0.00000,0.03306,0.97868,-0.18837,0.0,2023,6,7,17,25,22,19
49.77250,-0.01785,0.07297,0.00000,0.03379,0.97612,-0.18800,0.0,2023,6,7,17,25,22,30
49.77260,-0.08785,0.00297,0.00000,0.03209,0.97283,-0.18886,0.0,2023,6,7,17,25,22,41
49.77270,0.08715,-0.04953,0.00000,0.03062,0.97649,-0.19130,0.0,2023,6,7,17,25,22,52
49.77280,0.05215,-0.08453,0.00000,0.03294,0.97820,-0.18861,0.0,2023,6,7,17,25,22,63
49.77290,0.08715,0.05547,0.00000,0.02952,0.97722,-0.18739,0.0,2023,6,7,17,25,22,74
49.77300,0.05215,-0.10203,0.00000,0.03184,0.97649,-0.19008,0.0,2023,6,7,17,25,22,85
49.77310,0.01715,0.21297,0.00000,0.03026,0.97917,-0.18800,0.0,2023,6,7,17,25,22,96
49.77320,-0.10535,-0.08453,0.00000,0.03209,0.97515,-0.18898,0.0,2023,6,7,17,25,22,107
49.77330,-0.03535,-0.15453,0.00000,0.02977,0.97685,-0.19154,0.0,2023,6,7,17,25,22,118
49.77340,-0.01785,-0.04953,0.00000,0.02891,0.97588,-0.19227,0.0,2023,6,7,17,25,22,129
49.77350,-0.17535,-0.11953,0.00000,0.02928,0.97698,-0.18959,0.0,2023,6,7,17,25,22,140
49.77360,0.13965,0.05547,0.00000,0.03111,0.97551,-0.19020,0.0,2023,6,7,17,25,22,151
49.77370,-0.07035,-0.01453,0.00000,0.03160,0.97942,-0.19056,0.0,2023,6,7,17,25,22,162
49.77380,0.05215,0.05547,0.00000,0.03026,0.97515,-0.18678,0.0,2023,6,7,17,25,22,173
49.77390,-0.15785,0.02047,0.00000,0.03209,0.97807,-0.18995,0.0,2023,6,7,17,25,22,184
49.77400,0.05215,-0.10203,0.00000,0.03233,0.97844,-0.18825,0.0,2023,6,7,17,25,22,195
49.77410,-0.12285,0.28297,0.00000,0.02952,0.97759,-0.18837,0.0,2023,6,7,17,25,22,206
49.77420,0.22715,0.00297,0.00000,0.03367,0.97527,-0.19300,0.0,2023,6,7,17,25,22,217
49.77430,-0.03535,0.07297,0.00000,0.03196,0.97405,-0.18825,0.0,2023,6,7,17,25,22,228
49.77440,-0.08785,-0.08453,0.00000,0.03184,0.97722,-0.18959,0.0,2023,6,7,17,25,22,239
49.77450,0.13965,-0.06703,0.00000,0.03270,0.97685,-0.19300,0.0,2023,6,7,17,25,22,250
49.77460,0.05215,-0.06703,0.00000,0.03196,0.97844,-0.18922,0.0,2023,6,7,17,25,22,261
49.77470,-0.05285,0.00297,0.00000,0.03306,0.97832,-0.19044,0.0,2023,6,7,17,25,22,272
49.77480,-0.05285,-0.03203,0.00000,0.03111,0.97795,-0.18947,0.0,2023,6,7,17,25,22,283
49.77490,0.03465,-0.08453,0.00000,0.03196,0.97551,-0.19081,0.0,2023,6,7,17,25,22,294
49.77500,0.12215,-0.08453,0.00000,0.03184,0.97710,-0.18873,0.0,2023,6,7,17,25,22,305
49.77510,-0.03535,-0.06703,0.00000,0.03184,0.97539,-0.19044,0.0,2023,6,7,17,25,22,316
49.77520,0.01715,-0.06703,0.00000,0.03209,0.97783,-0.18922,0.0,2023,6,7,17,25,22,327
49.77530,-0.03535,-0.06703,0.00000,0.03087,0.97954,-0.18776,0.0,2023,6,7,17,25,22,338
49.77540,-0.00035,-0.03203,0.00000,0.03123,0.97649,-0.18910,0.0,2023,6,7,17,25,22,349
49.77550,0.15715,-0.08453,0.00000,0.03270,0.97685,-0.19032,0.0,2023,6,7,17,25,22,360
49.77560,0.05215,-0.01453,0.00000,0.03062,0.97612,-0.18947,0.0,2023,6,7,17,25,22,371
49.77570,0.12215,0.19547,0.00000,0.02965,0.97795,-0.19300,0.0,2023,6,7,17,25,22,382
49.77580,-0.03535,0.05547,0.00000,0.03087,0.97551,-0.19093,0.0,2023,6,7,17,25,22,393
49.77590,0.17465,-0.04953,0.00000,0.03209,0.97685,-0.19020,0.0,2023,6,7,17,25,22,404
49.77600,0.12215,0.14297,0.00000,0.03233,0.97393,-0.18849,0.0,2023,6,7,17,25,22,415
49.77610,-0.05285,0.05547,0.00000,0.03160,0.97966,-0.18825,0.0,2023,6,7,17,25,22,426
49.77620,0.05215,-0.20703,0.00000,0.03038,0.97649,-0.18886,0.0,2023,6,7,17,25,22,437
49.77630,-0.05285,0.02047,0.00000,0.03245,0.97722,-0.18959,0.0,2023,6,7,17,25,22,448
49.77640,-0.01785,-0.10203,0.00000,0.03331,0.97759,-0.18776,0.0,2023,6,7,17,25,22,459
49.77650,0.03465,0.12547,0.00000,0.03123,0.97673,-0.19105,0.0,2023,6,7,17,25,22,470
49.77660,0.03465,-0.03203,0.00000,0.03172,0.97637,-0.18800,0.0,2023,6,7,17,25,22,481
49.77670,-0.15785,-0.15453,0.00000,0.03050,0.97759,-0.18922,0.0,2023,6,7,17,25,22,492
49.77680,-0.03535,-0.11953,0.00000,0.03111,0.97637,-0.19166,0.0,2023,6,7,17,25,22,503
49.77690,0.01715,-0.11953,0.00000,0.02940,0.97698,-0.18971,0.0,2023,6,7,17,25,22,514
49.77700,0.05215,-0.17203,0.00000,0.03074,0.97820,-0.18983,0.0,2023,6,7,17,25,22,525
49.77710,-0.15785,0.00297,0.00000,0.02916,0.97685,-0.19105,0.0,2023,6,7,17,25,22,536
49.77720,-0.01785,0.00297,0.00000,0.03087,0.97588,-0.19093,0.0,2023,6,7,17,25,22,547
49.77730,0.12215,-0.20703,0.00000,0.03038,0.97344,-0.18837,0.0,2023,6,7,17,25,22,558
49.77740,0.10465,-0.15453,0.00000,0.03221,0.97478,-0.19215,0.0,2023,6,7,17,25,22,569
49.77750,-0.00035,0.12547,0.00000,0.03294,0.97710,-0.18983,0.0,2023,6,7,17,25,22,580
49.77760,-0.10535,0.03797,0.00000,0.02855,0.97466,-0.19154,0.0,2023,6,7,17,25,22,591
49.77770,-0.10535,0.21297,0.00000,0.03135,0.97673,-0.18629,0.0,2023,6,7,17,25,22,602
49.77780,-0.08785,0.17797,0.00000,0.03123,0.97637,-0.18727,0.0,2023,6,7,17,25,22,613
49.77790,0.06965,-0.11953,0.00000,0.03209,0.97673,-0.18678,0.0,2023,6,7,17,25,22,624
49.77800,-0.12285,-0.13703,0.00000,0.03099,0.97734,-0.19288,0.0,2023,6,7,17,25,22,635
49.77810,-0.03535,-0.03203,0.00000,0.03050,0.97807,-0.18739,0.0,2023,6,7,17,25,22,646
49.77820,-0.15785,-0.08453,0.00000,0.03343,0.97734,-0.18812,0.0,2023,6,7,17,25,22,657
49.77830,-0.03535,0.16047,0.00000,0.03209,0.97612,-0.18812,0.0,2023,6,7,17,25,22,668
49.77840,0.19215,-0.10203,0.00000,0.03318,0.97759,-0.18861,0.0,2023,6,7,17,25,22,679
49.77850,-0.03535,-0.01453,0.00000,0.03074,0.97637,-0.19130,0.0,2023,6,7,17,25,22,690
49.77860,-0.05285,-0.01453,0.00000,0.03270,0.97698,-0.18873,0.0,2023,6,7,17,25,22,701
49.77870,-0.08785,0.09047,0.00000,0.03294,0.97393,-0.18971,0.0,2023,6,7,17,25,22,712
49.77880,-0.01785,-0.06703,0.00000,0.03160,0.97685,-0.18886,0.0,2023,6,7,17,25,22,723
49.77890,0.03465,0.00297,0.00000,0.03160,0.97759,-0.18751,0.0,2023,6,7,17,25,22,734
49.77900,0.05215,-0.04953,0.00000,0.02940,0.97637,-0.18910,0.0,2023,6,7,17,25,22,745
49.77910,0.01715,-0.10203,0.00000,0.03196,0.97649,-0.18690,0.0,2023,6,7,17,25,22,756
49.77920,-0.07035,-0.10203,0.00000,0.03245,0.97563,-0.19142,0.0,2023,6,7,17,25,22,767
49.77930,-0.00035,-0.06703,0.00000,0.03282,0.97661,-0.18983,0.0,2023,6,7,17,25,22,778
49.77940,0.05215,0.03797,0.00000,0.03074,0.97673,-0.18764,0.0,2023,6,7,17,25,22,789
49.77950,0.13965,-0.06703,0.00000,0.03062,0.97527,-0.18873,0.0,2023,6,7,17,25,22,800
49.77960,-0.00035,0.00297,0.00000,0.03111,0.97600,-0.18934,0.0,2023,6,7,17,25,22,811
49.77970,0.08715,-0.22453,0.00000,0.03270,0.97795,-0.19032,0.0,2023,6,7,17,25,22,822
49.77980,-0.19285,0.07297,0.00000,0.03135,0.97612,-0.19056,0.0,2023,6,7,17,25,22,833
49.77990,0.03465,0.05547,0.00000,0.03270,0.97502,-0.18788,0.0,2023,6,7,17,25,22,844
49.78000,-0.01785,-0.01453,0.00000,0.03245,0.97661,-0.18861,0.0,2023,6,7,17,25,22,855
49.78010,0.05215,0.00297,0.00000,0.03135,0.97600,-0.18983,0.0,2023,6,7,17,25,22,866
49.78020,0.13965,-0.03203,0.00000,0.03160,0.97612,-0.19044,0.0,2023,6,7,17,25,22,877
49.78030,-0.12285,0.12547,0.00000,0.03233,0.97466,-0.18873,0.0,2023,6,7,17,25,22,888
49.78040,0.12215,-0.06703,0.00000,0.03062,0.97624,-0.18849,0.0,2023,6,7,17,25,22,899
49.78050,0.10465,-0.20703,0.00000,0.03135,0.97649,-0.19130,0.0,2023,6,7,17,25,22,910
49.78060,0.12215,0.00297,0.00000,0.03294,0.97539,-0.19142,0.0,2023,6,7,17,25,22,921
49.78070,0.08715,-0.10203,0.00000,0.03184,0.97685,-0.19130,0.0,2023,6,7,17,25,22,932
49.78080,0.12215,0.00297,0.00000,0.02952,0.97722,-0.18751,0.0,2023,6,7,17,25,22,943
49.78090,0.06965,0.10797,0.00000,0.03270,0.97612,-0.18800,0.0,2023,6,7,17,25,22,954
49.78100,-0.07035,-0.04953,0.00000,0.02965,0.97710,-0.18898,0.0,2023,6,7,17,25,22,965
49.78110,0.19215,-0.10203,0.00000,0.03184,0.97600,-0.18861,0.0,2023,6,7,17,25,22,976
49.78120,-0.07035,0.35297,0.00000,0.03355,0.97649,-0.18703,0.0,2023,6,7,17,25,22,987
49.78130,-0.10535,-0.22453,0.00000,0.03087,0.97685,-0.19008,0.0,2023,6,7,17,25,22,998
49.78140,0.17465,0.05547,0.00000,0.03050,0.97771,-0.18995,0.0,2023,6,7,17,25,23,9
49.78150,-0.10535,-0.04953,0.00000,0.03257,0.97478,-0.18898,0.0,2023,6,7,17,25,23,20
49.78160,-0.00035,-0.15453,0.00000,0.03038,0.97624,-0.19008,0.0,2023,6,7,17,25,23,31
49.78170,0.01715,-0.11953,0.00000,0.03331,0.97905,-0.18837,0.0,2023,6,7,17,25,23,42
49.78180,-0.07035,0.00297,0.00000,0.03233,0.97637,-0.18764,0.0,2023,6,7,17,25,23,53
49.78190,0.05215,-0.10203,0.00000,0.03245,0.97771,-0.19069,0.0,2023,6,7,17,25,23,64
49.78200,0.06965,-0.08453,0.00000,0.03026,0.97405,-0.18764,0.0,2023,6,7,17,25,23,75
49.78210,-0.08785,-0.18953,0.00000,0.03233,0.97612,-0.18764,0.0,2023,6,7,17,25,23,86
49.78220,-0.17535,0.09047,0.00000,0.03318,0.97637,-0.18727,0.0,2023,6,7,17,25,23,97
49.78230,0.06965,-0.31203,0.00000,0.03221,0.97600,-0.19032,0.0,2023,6,7,17,25,23,108
49.78240,-0.14035,0.14297,0.00000,0.03160,0.97515,-0.19154,0.0,2023,6,7,17,25,23,119
49.78250,-0.05285,-0.24203,0.00000,0.03270,0.97685,-0.18800,0.0,2023,6,7,17,25,23,130
49.78260,-0.17535,0.16047,0.00000,0.03270,0.97649,-0.18983,0.0,2023,6,7,17,25,23,141
49.78270,-0.14035,0.09047,0.00000,0.03148,0.97600,-0.18922,0.0,2023,6,7,17,25,23,152
49.78280,-0.03535,-0.06703,0.00000,0.02952,0.97685,-0.18947,0.0,2023,6,7,17,25,23,163
49.78290,-0.12285,0.16047,0.00000,0.03111,0.97539,-0.18593,0.0,2023,6,7,17,25,23,174
49.78300,0.10465,0.07297,0.00000,0.03184,0.97710,-0.18800,0.0,2023,6,7,17,25,23,185
49.78310,-0.12285,-0.06703,0.00000,0.03135,0.97539,-0.18800,0.0,2023,6,7,17,25,23,196
49.78320,-0.05285,0.17797,0.00000,0.03294,0.97698,-0.18642,0.0,2023,6,7,17,25,23,207
49.78330,-0.08785,0.19547,0.00000,0.03062,0.97600,-0.18995,0.0,2023,6,7,17,25,23,218
49.78340,-0.00035,-0.04953,0.00000,0.03440,0.97637,-0.18825,0.0,2023,6,7,17,25,23,229
49.78350,-0.22785,0.03797,0.00000,0.03135,0.97466,-0.18861,0.0,2023,6,7,17,25,23,240
49.78360,0.01715,-0.03203,0.00000,0.03160,0.97624,-0.18886,0.0,2023,6,7,17,25,23,251
49.78370,-0.08785,-0.27703,0.00000,0.03196,0.97576,-0.18861,0.0,2023,6,7,17,25,23,262
49.78380,-0.08785,-0.04953,0.00000,0.03099,0.97563,-0.18764,0.0,2023,6,7,17,25,23,273
49.78390,-0.05285,0.24797,0.00000,0.02928,0.97405,-0.18898,0.0,2023,6,7,17,25,23,284
49.78400,-0.10535,0.17797,0.00000,0.03087,0.97441,-0.18837,0.0,2023,6,7,17,25,23,295
49.78410,0.01715,0.05547,0.00000,0.02891,0.97698,-0.19032,0.0,2023,6,7,17,25,23,306
49.78420,0.19215,-0.04953,0.00000,0.03270,0.97807,-0.18898,0.0,2023,6,7,17,25,23,317
49.78430,-0.01785,-0.15453,0.00000,0.03001,0.97563,-0.18751,0.0,2023,6,7,17,25,23,328
49.78440,-0.19285,-0.01453,0.00000,0.03148,0.97612,-0.18690,0.0,2023,6,7,17,25,23,339
49.78450,-0.07035,0.03797,0.00000,0.03160,0.97576,-0.18751,0.0,2023,6,7,17,25,23,350
49.78460,-0.01785,0.07297,0.00000,0.02965,0.97868,-0.19130,0.0,2023,6,7,17,25,23,361
49.78470,0.10465,0.12547,0.00000,0.03209,0.97685,-0.19044,0.0,2023,6,7,17,25,23,372
49.78480,-0.22785,-0.08453,0.00000,0.03062,0.97649,-0.18910,0.0,2023,6,7,17,25,23,383
49.78490,0.17465,-0.04953,0.00000,0.03148,0.97637,-0.18837,0.0,2023,6,7,17,25,23,394
49.78500,-0.01785,0.05547,0.00000,0.03172,0.97624,-0.18886,0.0,2023,6,7,17,25,23,405
49.78510,-0.07035,-0.01453,0.00000,0.03050,0.97649,-0.18861,0.0,2023,6,7,17,25,23,416
49.78520,0.19215,-0.31203,0.00000,0.02940,0.97551,-0.19069,0.0,2023,6,7,17,25,23,427
49.78530,-0.00035,-0.08453,0.00000,0.03123,0.97722,-0.18715,0.0,2023,6,7,17,25,23,438
49.78540,-0.08785,-0.06703,0.00000,0.03404,0.97454,-0.18886,0.0,2023,6,7,17,25,23,449
49.78550,0.03465,0.10797,0.00000,0.02867,0.97588,-0.19044,0.0,2023,6,7,17,25,23,460
49.78560,-0.07035,0.00297,0.00000,0.03184,0.97661,-0.18934,0.0,2023,6,7,17,25,23,471
49.78570,-0.15785,-0.18953,0.00000,0.03172,0.97612,-0.18825,0.0,2023,6,7,17,25,23,482
49.78580,0.12215,-0.17203,0.00000,0.03111,0.97954,-0.18776,0.0,2023,6,7,17,25,23,493
49.78590,-0.00035,0.03797,0.00000,0.03245,0.97844,-0.19069,0.0,2023,6,7,17,25,23,504
49.78600,-0.14035,0.09047,0.00000,0.03001,0.97844,-0.18995,0.0,2023,6,7,17,25,23,515
49.78610,0.15715,0.00297,0.00000,0.03038,0.97698,-0.19105,0.0,2023,6,7,17,25,23,526
49.78620,-0.21035,-0.15453,0.00000,0.03160,0.97661,-0.18971,0.0,2023,6,7,17,25,23,537
49.78630,-0.00035,0.09047,0.00000,0.03245,0.97917,-0.18934,0.0,2023,6,7,17,25,23,548
49.78640,0.08715,-0.01453,0.00000,0.03135,0.97649,-0.19105,0.0,2023,6,7,17,25,23,559
49.78650,0.15715,-0.18953,0.00000,0.03245,0.97807,-0.19117,0.0,2023,6,7,17,25,23,570
49.78660,-0.07035,0.07297,0.00000,0.03038,0.97600,-0.18788,0.0,2023,6,7,17,25,23,581
49.78670,0.17465,-0.15453,0.00000,0.02965,0.97600,-0.18959,0.0,2023,6,7,17,25,23,592
49.78680,-0.15785,-0.11953,0.00000,0.03172,0.97929,-0.19044,0.0,2023,6,7,17,25,23,603
49.78690,-0.14035,0.10797,0.00000,0.03087,0.97551,-0.18886,0.0,2023,6,7,17,25,23,614
49.78700,0.12215,0.09047,0.00000,0.03257,0.97405,-0.18922,0.0,2023,6,7,17,25,23,625
49.78710,0.01715,-0.10203,0.00000,0.03111,0.97661,-0.18922,0.0,2023,6,7,17,25,23,636
49.78720,-0.17535,-0.08453,0.00000,0.02916,0.97673,-0.18934,0.0,2023,6,7,17,25,23,647
49.78730,-0.07035,-0.01453,0.00000,0.03123,0.97588,-0.19008,0.0,2023,6,7,17,25,23,658
49.78740,0.08715,-0.08453,0.00000,0.03245,0.97734,-0.18776,0.0,2023,6,7,17,25,23,669
49.78750,-0.31535,0.05547,0.00000,0.03209,0.97881,-0.19069,0.0,2023,6,7,17,25,23,680
49.78760,0.06965,-0.13703,0.00000,0.03013,0.97783,-0.19142,0.0,2023,6,7,17,25,23,691
49.78770,-0.03535,-0.15453,0.00000,0.03038,0.97698,-0.18934,0.0,2023,6,7,17,25,23,702
49.78780,-0.01785,0.12547,0.00000,0.03087,0.97649,-0.18971,0.0,2023,6,7,17,25,23,713
49.78790,0.20965,-0.08453,0.00000,0.03074,0.97637,-0.19008,0.0,2023,6,7,17,25,23,724
49.78800,-0.15785,0.10797,0.00000,0.03148,0.97624,-0.18959,0.0,2023,6,7,17,25,23,735
49.78810,0.06965,0.00297,0.00000,0.03062,0.98003,-0.19178,0.0,2023,6,7,17,25,23,746
49.78820,-0.01785,0.03797,0.00000,0.03331,0.97734,-0.19032,0.0,2023,6,7,17,25,23,757
49.78830,-0.07035,0.17797,0.00000,0.03087,0.97771,-0.18703,0.0,2023,6,7,17,25,23,768
49.78840,-0.00035,0.17797,0.00000,0.03233,0.97673,-0.18922,0.0,2023,6,7,17,25,23,779
49.78850,0.01715,0.07297,0.00000,0.03135,0.97807,-0.18861,0.0,2023,6,7,17,25,23,790
49.78860,-0.03535,0.07297,0.00000,0.03306,0.97624,-0.19349,0.0,2023,6,7,17,25,23,801
49.78870,-0.00035,0.16047,0.00000,0.03111,0.97612,-0.19105,0.0,2023,6,7,17,25,23,812
49.78880,0.03465,0.23047,0.00000,0.03148,0.97905,-0.18922,0.0,2023,6,7,17,25,23,823
49.78890,-0.05285,-0.15453,0.00000,0.03172,0.97771,-0.18947,0.0,2023,6,7,17,25,23,834
49.78900,0.03465,0.05547,0.00000,0.03245,0.97515,-0.19044,0.0,2023,6,7,17,25,23,845
49.78910,-0.08785,0.17797,0.00000,0.03111,0.97795,-0.18922,0.0,2023,6,7,17,25,23,856
49.78920,0.05215,-0.06703,0.00000,0.03026,0.97698,-0.19300,0.0,2023,6,7,17,25,23,867
49.78930,-0.01785,-0.15453,0.00000,0.03221,0.97515,-0.18886,0.0,2023,6,7,17,25,23,878
49.78940,-0.14035,0.24797,0.00000,0.03001,0.97759,-0.19105,0.0,2023,6,7,17,25,23,889
49.78950,0.03465,-0.01453,0.00000,0.03282,0.97478,-0.18849,0.0,2023,6,7,17,25,23,900
49.78960,0.03465,0.03797,0.00000,0.02916,0.97576,-0.19081,0.0,2023,6,7,17,25,23,911
49.78970,-0.00035,0.14297,0.00000,0.02989,0.97905,-0.18959,0.0,2023,6,7,17,25,23,922
49.78980,-0.03535,-0.08453,0.00000,0.03123,0.97844,-0.18898,0.0,2023,6,7,17,25,23,933
49.78990,-0.01785,-0.17203,0.00000,0.03257,0.97563,-0.19069,0.0,2023,6,7,17,25,23,944
49.79000,0.05215,0.05547,0.00000,0.03123,0.97624,-0.18995,0.0,2023,6,7,17,25,23,955
49.79010,-0.08785,0.00297,0.00000,0.03270,0.97771,-0.19056,0.0,2023,6,7,17,25,23,966
49.79020,-0.03535,-0.06703,0.00000,0.03245,0.97649,-0.19154,0.0,2023,6,7,17,25,23,977
49.79030,-0.03535,0.21297,0.00000,0.03233,0.97710,-0.18837,0.0,2023,6,7,17,25,24,8
49.79040,-0.03535,0.12547,0.00000,0.03160,0.97722,-0.18873,0.0,2023,6,7,17,25,24,19
49.79050,0.20965,-0.25953,0.00000,0.03245,0.97551,-0.18971,0.0,2023,6,7,17,25,24,30
49.79060,0.10465,0.24797,0.00000,0.03294,0.97759,-0.19008,0.0,2023,6,7,17,25,24,41
49.79070,-0.00035,-0.06703,0.00000,0.03196,0.97624,-0.18751,0.0,2023,6,7,17,25,24,52
49.79080,-0.00035,0.10797,0.00000,0.03306,0.97612,-0.18959,0.0,2023,6,7,17,25,24,63
49.79090,0.03465,0.09047,0.00000,0.03062,0.97600,-0.18654,0.0,2023,6,7,17,25,24,74
49.79100,0.19215,-0.17203,0.00000,0.02989,0.97868,-0.19069,0.0,2023,6,7,17,25,24,85
49.79110,-0.00035,-0.18953,0.00000,0.03074,0.97600,-0.19227,0.0,2023,6,7,17,25,24,96
49.79120,0.19215,-0.13703,0.00000,0.03038,0.97795,-0.18825,0.0,2023,6,7,17,25,24,107
49.79130,-0.19285,0.05547,0.00000,0.03196,0.97734,-0.18825,0.0,2023,6,7,17,25,24,118
49.79140,-0.03535,-0.08453,0.00000,0.03196,0.97661,-0.19203,0.0,2023,6,7,17,25,24,129
49.79150,0.12215,0.07297,0.00000,0.03416,0.97661,-0.18922,0.0,2023,6,7,17,25,24,140
49.79160,0.10465,-0.08453,0.00000,0.03160,0.97783,-0.19239,0.0,2023,6,7,17,25,24,151
49.79170,-0.01785,-0.08453,0.00000,0.02965,0.97783,-0.19081,0.0,2023,6,7,17,25,24,162
49.79180,-0.01785,-0.17203,0.00000,0.03135,0.97685,-0.18947,0.0,2023,6,7,17,25,24,173
49.79190,-0.01785,-0.01453,0.00000,0.03123,0.97783,-0.18959,0.0,2023,6,7,17,25,24,184
49.79200,0.17465,-0.01453,0.00000,0.03038,0.97746,-0.18995,0.0,2023,6,7,17,25,24,195
49.79210,-0.00035,0.07297,0.00000,0.03245,0.97576,-0.19349,0.0,2023,6,7,17,25,24,206
49.79220,-0.05285,-0.08453,0.00000,0.03160,0.97783,-0.19178,0.0,2023,6,7,17,25,24,217
49.79230,0.08715,0.09047,0.00000,0.03148,0.97649,-0.19008,0.0,2023,6,7,17,25,24,228
49.79240,0.13965,-0.06703,0.00000,0.02989,0.97771,-0.19178,0.0,2023,6,7,17,25,24,239
49.79250,-0.05285,0.17797,0.00000,0.03099,0.97563,-0.19044,0.0,2023,6,7,17,25,24,250
49.79260,-0.01785,0.05547,0.00000,0.03184,0.97807,-0.19093,0.0,2023,6,7,17,25,24,261
49.79270,0.03465,0.07297,0.00000,0.03111,0.97856,-0.18751,0.0,2023,6,7,17,25,24,272
49.79280,-0.05285,0.16047,0.00000,0.03160,0.97490,-0.19093,0.0,2023,6,7,17,25,24,283
49.79290,-0.03535,0.00297,0.00000,0.03209,0.97722,-0.18739,0.0,2023,6,7,17,25,24,294
49.79300,0.17465,-0.10203,0.00000,0.03355,0.97759,-0.19264,0.0,2023,6,7,17,25,24,305
49.79310,-0.00035,0.05547,0.00000,0.03111,0.97502,-0.18825,0.0,2023,6,7,17,25,24,316
49.79320,-0.21035,0.28297,0.00000,0.03160,0.97576,-0.19117,0.0,2023,6,7,17,25,24,327
49.79330,-0.07035,0.14297,0.00000,0.03294,0.97649,-0.18703,0.0,2023,6,7,17,25,24,338
49.79340,-0.10535,0.26547,0.00000,0.03026,0.97612,-0.18873,0.0,2023,6,7,17,25,24,349
49.79350,0.12215,-0.04953,0.00000,0.03245,0.97661,-0.19142,0.0,2023,6,7,17,25,24,360
49.79360,0.13965,-0.01453,0.00000,0.03282,0.97893,-0.18861,0.0,2023,6,7,17,25,24,371
49.79370,-0.00035,0.19547,0.00000,0.03172,0.97612,-0.19069,0.0,2023,6,7,17,25,24,382
49.79380,0.01715,0.07297,0.00000,0.03087,0.97832,-0.18703,0.0,2023,6,7,17,25,24,393
49.79390,-0.08785,0.24797,0.00000,0.03196,0.97393,-0.19008,0.0,2023,6,7,17,25,24,404
49.79400,0.03465,0.14297,0.00000,0.03123,0.97466,-0.18849,0.0,2023,6,7,17,25,24,415
49.79410,-0.21035,0.14297,0.00000,0.02891,0.97576,-0.18934,0.0,2023,6,7,17,25,24,426
49.79420,0.08715,-0.10203,0.00000,0.02904,0.97478,-0.18910,0.0,2023,6,7,17,25,24,437
49.79430,0.12215,-0.17203,0.00000,0.02965,0.97734,-0.18825,0.0,2023,6,7,17,25,24,448
49.79440,-0.07035,-0.27703,0.00000,0.02879,0.97807,-0.18898,0.0,2023,6,7,17,25,24,459
49.79450,0.06965,-0.11953,0.00000,0.03135,0.97637,-0.19203,0.0,2023,6,7,17,25,24,470
49.79460,0.10465,-0.13703,0.00000,0.03343,0.97868,-0.18959,0.0,2023,6,7,17,25,24,481
49.79470,-0.12285,0.09047,0.00000,0.03233,0.97576,-0.18971,0.0,2023,6,7,17,25,24,492
49.79480,0.12215,-0.11953,0.00000,0.03221,0.97893,-0.19020,0.0,2023,6,7,17,25,24,503
49.79490,-0.08785,0.10797,0.00000,0.03087,0.97612,-0.18837,0.0,2023,6,7,17,25,24,514
49.79500,-0.10535,0.07297,0.00000,0.03135,0.97673,-0.18776,0.0,2023,6,7,17,25,24,525
49.79510,0.08715,0.02047,0.00000,0.03270,0.97649,-0.19008,0.0,2023,6,7,17,25,24,536
49.79520,-0.12285,0.07297,0.00000,0.03111,0.97600,-0.19093,0.0,2023,6,7,17,25,24,547
49.79530,-0.05285,0.02047,0.00000,0.03148,0.97661,-0.18910,0.0,2023,6,7,17,25,24,558
49.79540,0.08715,0.03797,0.00000,0.03196,0.97551,-0.19276,0.0,2023,6,7,17,25,24,569
49.79550,-0.19285,0.23047,0.00000,0.03233,0.97673,-0.18898,0.0,2023,6,7,17,25,24,580
49.79560,0.06965,-0.29453,0.00000,0.03050,0.97746,-0.19069,0.0,2023,6,7,17,25,24,591
49.79570,0.05215,-0.01453,0.00000,0.02989,0.97612,-0.19300,0.0,2023,6,7,17,25,24,602
49.79580,0.06965,-0.08453,0.00000,0.03221,0.97746,-0.18898,0.0,2023,6,7,17,25,24,613
49.79590,-0.00035,0.16047,0.00000,0.03123,0.97856,-0.19142,0.0,2023,6,7,17,25,24,624
49.79600,0.15715,-0.31203,0.00000,0.03392,0.97856,-0.18971,0.0,2023,6,7,17,25,24,635
49.79610,0.01715,0.23047,0.00000,0.03184,0.97624,-0.18532,0.0,2023,6,7,17,25,24,646
49.79620,-0.19285,-0.01453,0.00000,0.03111,0.97673,-0.18898,0.0,2023,6,7,17,25,24,657
49.79630,0.10465,0.12547,0.00000,0.03221,0.97783,-0.18837,0.0,2023,6,7,17,25,24,668
49.79640,-0.17535,0.00297,0.00000,0.03209,0.97881,-0.18593,0.0,2023,6,7,17,25,24,679
49.79650,-0.14035,-0.06703,0.00000,0.03172,0.97783,-0.18873,0.0,2023,6,7,17,25,24,690
49.79660,0.17465,0.09047,0.00000,0.03160,0.97832,-0.19069,0.0,2023,6,7,17,25,24,701
49.79670,-0.01785,0.12547,0.00000,0.03087,0.97478,-0.19105,0.0,2023,6,7,17,25,24,712
49.79680,0.12215,0.16047,0.00000,0.03160,0.97710,-0.19215,0.0,2023,6,7,17,25,24,723
49.79690,0.10465,-0.06703,0.00000,0.03392,0.97710,-0.19154,0.0,2023,6,7,17,25,24,734
49.79700,-0.03535,-0.03203,0.00000,0.03355,0.97515,-0.18995,0.0,2023,6,7,17,25,24,745
49.79710,-0.01785,-0.03203,0.00000,0.03306,0.97515,-0.19093,0.0,2023,6,7,17,25,24,756
49.79720,0.01715,0.05547,0.00000,0.02989,0.97746,-0.19008,0.0,2023,6,7,17,25,24,767
49.79730,-0.07035,0.00297,0.00000,0.03270,0.97637,-0.19154,0.0,2023,6,7,17,25,24,778
49.79740,-0.15785,-0.18953,0.00000,0.03087,0.97576,-0.18959,0.0,2023,6,7,17,25,24,789
49.79750,0.17465,0.02047,0.00000,0.03282,0.97393,-0.19069,0.0,2023,6,7,17,25,24,800
49.79760,-0.10535,0.09047,0.00000,0.03184,0.97576,-0.18849,0.0,2023,6,7,17,25,24,811
49.79770,-0.00035,0.26547,0.00000,0.03087,0.97624,-0.19191,0.0,2023,6,7,17,25,24,822
49.79780,0.03465,-0.15453,0.00000,0.03196,0.97868,-0.18764,0.0,2023,6,7,17,25,24,833
49.79790,-0.03535,-0.03203,0.00000,0.03331,0.97563,-0.18837,0.0,2023,6,7,17,25,24,844
49.79800,0.06965,-0.18953,0.00000,0.03050,0.97759,-0.18947,0.0,2023,6,7,17,25,24,855
49.79810,0.08715,-0.01453,0.00000,0.03331,0.97637,-0.18995,0.0,2023,6,7,17,25,24,866
49.79820,-0.08785,0.23047,0.00000,0.03233,0.97685,-0.18947,0.0,2023,6,7,17,25,24,877
49.79830,0.22715,0.02047,0.00000,0.03111,0.97490,-0.18995,0.0,2023,6,7,17,25,24,888
49.79840,-0.07035,0.16047,0.00000,0.03111,0.97685,-0.19154,0.0,2023,6,7,17,25,24,899
49.79850,-0.17535,0.12547,0.00000,0.03257,0.97307,-0.18605,0.0,2023,6,7,17,25,24,910
49.79860,0.12215,-0.11953,0.00000,0.03245,0.97685,-0.19069,0.0,2023,6,7,17,25,24,921
49.79870,-0.03535,0.02047,0.00000,0.03087,0.97673,-0.19008,0.0,2023,6,7,17,25,24,932
49.79880,-0.08785,-0.01453,0.00000,0.03245,0.97466,-0.18825,0.0,2023,6,7,17,25,24,943
49.79890,-0.00035,-0.18953,0.00000,0.03257,0.97746,-0.18959,0.0,2023,6,7,17,25,24,954
49.79900,-0.05285,-0.11953,0.00000,0.03416,0.97844,-0.19020,0.0,2023,6,7,17,25,24,965
49.79910,-0.15785,0.21297,0.00000,0.02916,0.97746,-0.19203,0.0,2023,6,7,17,25,24,976
49.79920,-0.10535,0.00297,0.00000,0.03221,0.97588,-0.19203,0.0,2023,6,7,17,25,24,987
49.79930,0.17465,0.02047,0.00000,0.03196,0.97502,-0.18861,0.0,2023,6,7,17,25,25,8
49.79940,-0.03535,0.00297,0.00000,0.03184,0.97563,-0.18800,0.0,2023,6,7,17,25,25,19
49.79950,0.06965,0.02047,0.00000,0.03440,0.97698,-0.18922,0.0,2023,6,7,17,25,25,30
49.79960,-0.01785,-0.06703,0.00000,0.02989,0.97588,-0.18886,0.0,2023,6,7,17,25,25,41
49.79970,0.08715,0.19547,0.00000,0.03233,0.97624,-0.19178,0.0,2023,6,7,17,25,25,52
49.79980,-0.15785,0.07297,0.00000,0.02989,0.97527,-0.18751,0.0,2023,6,7,17,25,25,63
49.79990,-0.00035,-0.01453,0.00000,0.03135,0.97673,-0.18983,0.0,2023,6,7,17,25,25,74
49.80000,0.15715,0.12547,0.00000,0.03074,0.97576,-0.19191,0.0,2023,6,7,17,25,25,85
49.80010,-0.08785,-0.15453,0.00000,0.02855,0.97722,-0.18800,0.0,2023,6,7,17,25,25,96
49.80020,-0.03535,-0.15453,0.00000,0.03038,0.97868,-0.19008,0.0,2023,6,7,17,25,25,107
49.80030,0.17465,0.12547,0.00000,0.03318,0.97637,-0.18971,0.0,2023,6,7,17,25,25,118
49.80040,-0.08785,0.10797,0.00000,0.03233,0.97795,-0.19008,0.0,2023,6,7,17,25,25,129
49.80050,0.20965,-0.13703,0.00000,0.02879,0.97698,-0.19093,0.0,2023,6,7,17,25,25,140
49.80060,-0.14035,0.02047,0.00000,0.03111,0.97795,-0.19093,0.0,2023,6,7,17,25,25,151
49.80070,-0.12285,0.02047,0.00000,0.03148,0.97368,-0.18959,0.0,2023,6,7,17,25,25,162
49.80080,-0.01785,-0.18953,0.00000,0.03196,0.97698,-0.19081,0.0,2023,6,7,17,25,25,173
49.80090,-0.14035,0.10797,0.00000,0.03196,0.97527,-0.18886,0.0,2023,6,7,17,25,25,184
49.80100,-0.07035,0.03797,0.00000,0.03001,0.97698,-0.19117,0.0,2023,6,7,17,25,25,195
49.80110,-0.07035,-0.06703,0.00000,0.03160,0.97661,-0.19300,0.0,2023,6,7,17,25,25,206
49.80120,-0.17535,-0.06703,0.00000,0.03038,0.97454,-0.18812,0.0,2023,6,7,17,25,25,217
49.80130,-0.14035,0.09047,0.00000,0.03294,0.97734,-0.19056,0.0,2023,6,7,17,25,25,228
49.80140,0.19215,-0.31203,0.00000,0.03148,0.97612,-0.18861,0.0,2023,6,7,17,25,25,239
49.80150,-0.07035,-0.13703,0.00000,0.03184,0.98003,-0.19032,0.0,2023,6,7,17,25,25,250
49.80160,0.27965,-0.13703,0.00000,0.03148,0.97734,-0.19032,0.0,2023,6,7,17,25,25,261
49.80170,-0.12285,-0.03203,0.00000,0.03135,0.97637,-0.18703,0.0,2023,6,7,17,25,25,272
49.80180,-0.10535,0.10797,0.00000,0.03453,0.97515,-0.19166,0.0,2023,6,7,17,25,25,283
49.80190,0.05215,-0.11953,0.00000,0.03184,0.97405,-0.19020,0.0,2023,6,7,17,25,25,294
49.80200,-0.12285,0.02047,0.00000,0.02794,0.97576,-0.18825,0.0,2023,6,7,17,25,25,305
49.80210,-0.12285,-0.04953,0.00000,0.03209,0.97710,-0.18788,0.0,2023,6,7,17,25,25,316
49.80220,-0.00035,0.05547,0.00000,0.03196,0.97624,-0.18873,0.0,2023,6,7,17,25,25,327
49.80230,-0.01785,0.14297,0.00000,0.03233,0.97722,-0.19081,0.0,2023,6,7,17,25,25,338
49.80240,0.03465,0.02047,0.00000,0.03184,0.97576,-0.19227,0.0,2023,6,7,17,25,25,349
49.80250,-0.01785,0.14297,0.00000,0.03111,0.97685,-0.19032,0.0,2023,6,7,17,25,25,360
49.80260,0.10465,-0.06703,0.00000,0.03062,0.97795,-0.18837,0.0,2023,6,7,17,25,25,371
49.80270,-0.05285,-0.01453,0.00000,0.03123,0.97722,-0.19056,0.0,2023,6,7,17,25,25,382
49.80280,-0.08785,-0.01453,0.00000,0.03160,0.97722,-0.18825,0.0,2023,6,7,17,25,25,393
49.80290,-0.00035,-0.08453,0.00000,0.03318,0.97429,-0.18812,0.0,2023,6,7,17,25,25,404
49.80300,0.15715,-0.08453,0.00000,0.02916,0.97344,-0.18727,0.0,2023,6,7,17,25,25,415
49.80310,-0.17535,-0.17203,0.00000,0.03282,0.97698,-0.18886,0.0,2023,6,7,17,25,25,426
49.80320,-0.03535,0.10797,0.00000,0.03282,0.97673,-0.19130,0.0,2023,6,7,17,25,25,437
49.80330,-0.08785,0.05547,0.00000,0.02916,0.97710,-0.18947,0.0,2023,6,7,17,25,25,448
49.80340,-0.01785,0.16047,0.00000,0.03050,0.97515,-0.18837,0.0,2023,6,7,17,25,25,459
49.80350,0.03465,-0.10203,0.00000,0.03160,0.97771,-0.18898,0.0,2023,6,7,17,25,25,470
49.80360,-0.10535,0.02047,0.00000,0.03087,0.97441,-0.19008,0.0,2023,6,7,17,25,25,481
49.80370,-0.01785,0.02047,0.00000,0.03148,0.97649,-0.18995,0.0,2023,6,7,17,25,25,492
49.80380,0.15715,-0.15453,0.00000,0.03172,0.97710,-0.19325,0.0,2023,6,7,17,25,25,503
49.80390,-0.07035,-0.04953,0.00000,0.03074,0.97771,-0.18947,0.0,2023,6,7,17,25,25,514
49.80400,0.29715,-0.04953,0.00000,0.03257,0.97734,-0.19044,0.0,2023,6,7,17,25,25,525
49.80410,0.13965,0.24797,0.00000,0.03331,0.97820,-0.19056,0.0,2023,6,7,17,25,25,536
49.80420,0.06965,-0.24203,0.00000,0.03257,0.97588,-0.19142,0.0,2023,6,7,17,25,25,547
49.80430,0.01715,-0.04953,0.00000,0.03099,0.97466,-0.19069,0.0,2023,6,7,17,25,25,558
49.80440,-0.17535,-0.03203,0.00000,0.03038,0.97588,-0.19410,0.0,2023,6,7,17,25,25,569
49.80450,0.01715,-0.13703,0.00000,0.03074,0.97698,-0.18873,0.0,2023,6,7,17,25,25,580
49.80460,0.05215,0.03797,0.00000,0.02916,0.97649,-0.19081,0.0,2023,6,7,17,25,25,591
49.80470,0.08715,-0.11953,0.00000,0.03123,0.97771,-0.19056,0.0,2023,6,7,17,25,25,602
49.80480,-0.03535,0.07297,0.00000,0.03087,0.97502,-0.19227,0.0,2023,6,7,17,25,25,613
49.80490,0.15715,-0.08453,0.00000,0.03233,0.97820,-0.19227,0.0,2023,6,7,17,25,25,624
49.80500,0.10465,-0.04953,0.00000,0.03099,0.97539,-0.19020,0.0,2023,6,7,17,25,25,635
49.80510,-0.12285,0.05547,0.00000,0.03440,0.97539,-0.19166,0.0,2023,6,7,17,25,25,646
49.80520,-0.01785,-0.03203,0.00000,0.03135,0.97734,-0.18995,0.0,2023,6,7,17,25,25,657
49.80530,0.12215,-0.04953,0.00000,0.03050,0.97698,-0.18666,0.0,2023,6,7,17,25,25,668
49.80540,0.01715,0.00297,0.00000,0.03123,0.97734,-0.18873,0.0,2023,6,7,17,25,25,679
49.80550,-0.21035,0.17797,0.00000,0.03392,0.97685,-0.18898,0.0,2023,6,7,17,25,25,690
49.80560,0.08715,0.05547,0.00000,0.03123,0.97771,-0.19056,0.0,2023,6,7,17,25,25,701
49.80570,0.03465,-0.03203,0.00000,0.03184,0.97600,-0.18983,0.0,2023,6,7,17,25,25,712
49.80580,-0.03535,0.09047,0.00000,0.03245,0.97527,-0.18776,0.0,2023,6,7,17,25,25,723
49.80590,0.05215,0.12547,0.00000,0.03148,0.97649,-0.18910,0.0,2023,6,7,17,25,25,734
49.80600,0.06965,-0.06703,0.00000,0.03221,0.97515,-0.18886,0.0,2023,6,7,17,25,25,745
49.80610,0.13965,0.02047,0.00000,0.02965,0.97783,-0.19044,0.0,2023,6,7,17,25,25,756
49.80620,0.06965,0.05547,0.00000,0.03184,0.97624,-0.19020,0.0,2023,6,7,17,25,25,767
49.80630,-0.12285,0.16047,0.00000,0.03355,0.97576,-0.19069,0.0,2023,6,7,17,25,25,778
49.80640,0.05215,-0.03203,0.00000,0.03160,0.97832,-0.18776,0.0,2023,6,7,17,25,25,789
49.80650,0.01715,-0.08453,0.00000,0.03270,0.97771,-0.19154,0.0,2023,6,7,17,25,25,800
49.80660,0.06965,-0.04953,0.00000,0.03294,0.97624,-0.19117,0.0,2023,6,7,17,25,25,811
49.80670,0.01715,0.07297,0.00000,0.02989,0.97576,-0.19203,0.0,2023,6,7,17,25,25,822
49.80680,0.12215,-0.08453,0.00000,0.03221,0.97637,-0.19288,0.0,2023,6,7,17,25,25,833
49.80690,0.08715,0.03797,0.00000,0.02952,0.97746,-0.18898,0.0,2023,6,7,17,25,25,844
49.80700,0.03465,-0.03203,0.00000,0.03172,0.97539,-0.19008,0.0,2023,6,7,17,25,25,855
49.80710,0.05215,0.16047,0.00000,0.02916,0.97637,-0.18934,0.0,2023,6,7,17,25,25,866
49.80720,-0.05285,-0.10203,0.00000,0.03074,0.97759,-0.19105,0.0,2023,6,7,17,25,25,877
49.80730,-0.07035,0.24797,0.00000,0.03050,0.97539,-0.19154,0.0,2023,6,7,17,25,25,888
49.80740,-0.03535,-0.08453,0.00000,0.03257,0.97576,-0.18873,0.0,2023,6,7,17,25,25,899
49.80750,-0.03535,-0.22453,0.00000,0.03135,0.97490,-0.18849,0.0,2023,6,7,17,25,25,910
49.80760,-0.15785,-0.03203,0.00000,0.03111,0.97405,-0.18873,0.0,2023,6,7,17,25,25,921
49.80770,0.17465,0.10797,0.00000,0.03404,0.97759,-0.19105,0.0,2023,6,7,17,25,25,932
49.80780,-0.01785,0.09047,0.00000,0.03196,0.97624,-0.18959,0.0,2023,6,7,17,25,25,943
49.80790,-0.01785,0.02047,0.00000,0.03355,0.97563,-0.18837,0.0,2023,6,7,17,25,25,954
49.80800,0.20965,-0.01453,0.00000,0.03184,0.97856,-0.19044,0.0,2023,6,7,17,25,25,965
49.80810,0.12215,-0.11953,0.00000,0.02989,0.97795,-0.19044,0.0,2023,6,7,17,25,25,976
49.80820,0.12215,-0.10203,0.00000,0.03245,0.97600,-0.19398,0.0,2023,6,7,17,25,25,987
49.80830,0.13965,-0.08453,0.00000,0.02891,0.97929,-0.19178,0.0,2023,6,7,17,25,26,8
49.80840,0.06965,0.00297,0.00000,0.03209,0.97820,-0.19093,0.0,2023,6,7,17,25,26,19
49.80850,0.01715,-0.18953,0.00000,0.03270,0.97820,-0.19008,0.0,2023,6,7,17,25,26,30
49.80860,-0.00035,0.07297,0.00000,0.03135,0.97600,-0.19008,0.0,2023,6,7,17,25,26,41
49.80870,0.01715,-0.01453,0.00000,0.03184,0.97698,-0.19020,0.0,2023,6,7,17,25,26,52
49.80880,0.03465,0.05547,0.00000,0.03038,0.97563,-0.19081,0.0,2023,6,7,17,25,26,63
49.80890,-0.00035,0.10797,0.00000,0.03209,0.97539,-0.18678,0.0,2023,6,7,17,25,26,74
49.80900,0.01715,0.00297,0.00000,0.03184,0.97832,-0.18971,0.0,2023,6,7,17,25,26,85
49.80910,-0.26285,0.19547,0.00000,0.03099,0.97515,-0.18995,0.0,2023,6,7,17,25,26,96
49.80920,-0.21035,-0.08453,0.00000,0.03233,0.97832,-0.19276,0.0,2023,6,7,17,25,26,107
49.80930,-0.00035,0.12547,0.00000,0.03196,0.97588,-0.19142,0.0,2023,6,7,17,25,26,118
49.80940,0.05215,0.19547,0.00000,0.03087,0.97600,-0.18995,0.0,2023,6,7,17,25,26,129
49.80950,0.05215,0.07297,0.00000,0.03282,0.97563,-0.18751,0.0,2023,6,7,17,25,26,140
49.80960,-0.00035,-0.24203,0.00000,0.03123,0.97466,-0.18886,0.0,2023,6,7,17,25,26,151
49.80970,-0.21035,0.16047,0.00000,0.03026,0.97612,-0.18934,0.0,2023,6,7,17,25,26,162
49.80980,0.10465,-0.08453,0.00000,0.02916,0.97649,-0.19276,0.0,2023,6,7,17,25,26,173
49.80990,0.03465,-0.18953,0.00000,0.03257,0.97844,-0.18934,0.0,2023,6,7,17,25,26,184
49.81000,-0.10535,0.09047,0.00000,0.03270,0.97441,-0.19117,0.0,2023,6,7,17,25,26,195
49.81010,-0.01785,-0.08453,0.00000,0.03404,0.97685,-0.18934,0.0,2023,6,7,17,25,26,206
49.81020,0.08715,0.02047,0.00000,0.03148,0.97783,-0.19142,0.0,2023,6,7,17,25,26,217
49.81030,0.12215,0.12547,0.00000,0.03233,0.97588,-0.19032,0.0,2023,6,7,17,25,26,228
49.81040,0.13965,-0.03203,0.00000,0.03184,0.97563,-0.18678,0.0,2023,6,7,17,25,26,239
49.81050,-0.19285,0.00297,0.00000,0.03306,0.97405,-0.19056,0.0,2023,6,7,17,25,26,250
49.81060,0.08715,0.12547,0.00000,0.03050,0.97722,-0.19239,0.0,2023,6,7,17,25,26,261
49.81070,-0.10535,-0.18953,0.00000,0.03135,0.97722,-0.19069,0.0,2023,6,7,17,25,26,272
49.81080,-0.03535,0.17797,0.00000,0.03099,0.97868,-0.19313,0.0,2023,6,7,17,25,26,283
49.81090,-0.07035,0.05547,0.00000,0.03233,0.97807,-0.18959,0.0,2023,6,7,17,25,26,294
49.81100,0.13965,-0.08453,0.00000,0.03245,0.97563,-0.19081,0.0,2023,6,7,17,25,26,305
49.81110,-0.26285,0.09047,0.00000,0.03111,0.97966,-0.18788,0.0,2023,6,7,17,25,26,316
49.81120,-0.00035,0.12547,0.00000,0.03172,0.97685,-0.19154,0.0,2023,6,7,17,25,26,327
49.81130,0.01715,-0.03203,0.00000,0.03148,0.97502,-0.18922,0.0,2023,6,7,17,25,26,338
49.81140,-0.29785,0.00297,0.00000,0.03392,0.97490,-0.18886,0.0,2023,6,7,17,25,26,349
49.81150,0.03465,0.10797,0.00000,0.03074,0.97759,-0.19154,0.0,2023,6,7,17,25,26,360
49.81160,-0.01785,0.17797,0.00000,0.03209,0.97649,-0.19117,0.0,2023,6,7,17,25,26,371
49.81170,0.01715,-0.13703,0.00000,0.03135,0.97539,-0.19020,0.0,2023,6,7,17,25,26,382
49.81180,0.05215,-0.04953,0.00000,0.03001,0.97551,-0.19203,0.0,2023,6,7,17,25,26,393
49.81190,0.03465,0.16047,0.00000,0.03367,0.97759,-0.18947,0.0,2023,6,7,17,25,26,404
49.81200,-0.21035,0.03797,0.00000,0.03257,0.97649,-0.18947,0.0,2023,6,7,17,25,26,415
49.81210,0.08715,-0.15453,0.00000,0.03050,0.97637,-0.19178,0.0,2023,6,7,17,25,26,426
49.81220,-0.03535,-0.11953,0.00000,0.03184,0.97490,-0.18910,0.0,2023,6,7,17,25,26,437
49.81230,-0.07035,0.14297,0.00000,0.03355,0.97698,-0.18837,0.0,2023,6,7,17,25,26,448
49.81240,-0.05285,-0.04953,0.00000,0.02977,0.97685,-0.19032,0.0,2023,6,7,17,25,26,459
49.81250,0.06965,0.00297,0.00000,0.03233,0.97783,-0.19154,0.0,2023,6,7,17,25,26,470
49.81260,0.13965,-0.06703,0.00000,0.03318,0.97637,-0.19191,0.0,2023,6,7,17,25,26,481
49.81270,0.01715,0.05547,0.00000,0.03160,0.97844,-0.19069,0.0,2023,6,7,17,25,26,492
49.81280,0.15715,0.02047,0.00000,0.03135,0.97551,-0.19032,0.0,2023,6,7,17,25,26,503
49.81290,-0.10535,0.07297,0.00000,0.03196,0.97515,-0.19154,0.0,2023,6,7,17,25,26,514
49.81300,-0.08785,0.07297,0.00000,0.03087,0.97588,-0.19166,0.0,2023,6,7,17,25,26,525
49.81310,0.12215,-0.01453,0.00000,0.03184,0.97563,-0.18983,0.0,2023,6,7,17,25,26,536
49.81320,0.05215,0.02047,0.00000,0.03245,0.97515,-0.19191,0.0,2023,6,7,17,25,26,547
49.81330,-0.15785,-0.01453,0.00000,0.03038,0.97649,-0.18947,0.0,2023,6,7,17,25,26,558
49.81340,-0.15785,0.21297,0.00000,0.03233,0.97576,-0.19020,0.0,2023,6,7,17,25,26,569
49.81350,0.19215,-0.08453,0.00000,0.03209,0.97417,-0.18873,0.0,2023,6,7,17,25,26,580
49.81360,-0.15785,0.12547,0.00000,0.03233,0.97807,-0.18934,0.0,2023,6,7,17,25,26,591
49.81370,-0.00035,0.14297,0.00000,0.03135,0.97490,-0.18788,0.0,2023,6,7,17,25,26,602
49.81380,0.10465,-0.15453,0.00000,0.03099,0.97649,-0.19117,0.0,2023,6,7,17,25,26,613
49.81390,0.17465,-0.20703,0.00000,0.03135,0.97783,-0.19081,0.0,2023,6,7,17,25,26,624
49.81400,0.15715,0.00297,0.00000,0.03184,0.97661,-0.19056,0.0,2023,6,7,17,25,26,635
49.81410,-0.03535,0.17797,0.00000,0.03221,0.97588,-0.19044,0.0,2023,6,7,17,25,26,646
49.81420,-0.08785,0.23047,0.00000,0.03404,0.97515,-0.18873,0.0,2023,6,7,17,25,26,657
49.81430,-0.01785,-0.01453,0.00000,0.03233,0.97746,-0.18910,0.0,2023,6,7,17,25,26,668
49.81440,-0.01785,-0.03203,0.00000,0.03172,0.97649,-0.19056,0.0,2023,6,7,17,25,26,679
49.81450,-0.07035,0.07297,0.00000,0.02989,0.97539,-0.18971,0.0,2023,6,7,17,25,26,690
49.81460,-0.07035,0.19547,0.00000,0.03379,0.97746,-0.18934,0.0,2023,6,7,17,25,26,701
49.81470,-0.07035,0.14297,0.00000,0.02977,0.97612,-0.19130,0.0,2023,6,7,17,25,26,712
49.81480,0.08715,-0.03203,0.00000,0.02989,0.97685,-0.19386,0.0,2023,6,7,17,25,26,723
49.81490,0.12215,0.02047,0.00000,0.03087,0.97710,-0.18861,0.0,2023,6,7,17,25,26,734
49.81500,-0.19285,0.03797,0.00000,0.03172,0.97576,-0.18898,0.0,2023,6,7,17,25,26,745
49.81510,0.17465,-0.15453,0.00000,0.03221,0.97661,-0.19288,0.0,2023,6,7,17,25,26,756
49.81520,-0.05285,-0.03203,0.00000,0.03050,0.97673,-0.18910,0.0,2023,6,7,17,25,26,767
49.81530,-0.14035,0.02047,0.00000,0.03172,0.97637,-0.18959,0.0,2023,6,7,17,25,26,778
49.81540,-0.00035,0.05547,0.00000,0.03428,0.97710,-0.19154,0.0,2023,6,7,17,25,26,789
49.81550,0.19215,-0.25953,0.00000,0.03123,0.97685,-0.19020,0.0,2023,6,7,17,25,26,800
49.81560,-0.15785,-0.17203,0.00000,0.03062,0.97307,-0.19191,0.0,2023,6,7,17,25,26,811
49.81570,-0.01785,-0.11953,0.00000,0.03123,0.97649,-0.18751,0.0,2023,6,7,17,25,26,822
49.81580,-0.05285,0.00297,0.00000,0.03221,0.97698,-0.19178,0.0,2023,6,7,17,25,26,833
49.81590,-0.19285,0.07297,0.00000,0.03013,0.97856,-0.18849,0.0,2023,6,7,17,25,26,844
49.81600,0.17465,-0.03203,0.00000,0.03160,0.97722,-0.19081,0.0,2023,6,7,17,25,26,855
49.81610,-0.00035,0.30047,0.00000,0.02965,0.97820,-0.18886,0.0,2023,6,7,17,25,26,866
49.81620,-0.00035,0.05547,0.00000,0.03160,0.97844,-0.19032,0.0,2023,6,7,17,25,26,877
49.81630,-0.05285,-0.06703,0.00000,0.03221,0.97405,-0.18898,0.0,2023,6,7,17,25,26,888
49.81640,0.12215,0.10797,0.00000,0.03282,0.97393,-0.19081,0.0,2023,6,7,17,25,26,899
49.81650,0.05215,-0.01453,0.00000,0.03050,0.97551,-0.19191,0.0,2023,6,7,17,25,26,910
49.81660,-0.05285,-0.22453,0.00000,0.03294,0.97673,-0.19203,0.0,2023,6,7,17,25,26,921
49.81670,-0.17535,0.24797,0.00000,0.03184,0.97490,-0.18971,0.0,2023,6,7,17,25,26,932
49.81680,-0.24535,0.07297,0.00000,0.03074,0.97759,-0.18995,0.0,2023,6,7,17,25,26,943
49.81690,0.05215,0.14297,0.00000,0.03135,0.97722,-0.19178,0.0,2023,6,7,17,25,26,954
49.81700,-0.08785,-0.03203,0.00000,0.03099,0.97734,-0.19020,0.0,2023,6,7,17,25,26,965
49.81710,-0.05285,-0.03203,0.00000,0.03209,0.97722,-0.19398,0.0,2023,6,7,17,25,26,976
49.81720,0.03465,0.12547,0.00000,0.03233,0.97722,-0.19044,0.0,2023,6,7,17,25,27,7
49.81730,0.03465,0.02047,0.00000,0.03099,0.97734,-0.19105,0.0,2023,6,7,17,25,27,18
49.81740,0.17465,0.10797,0.00000,0.03477,0.97734,-0.19032,0.0,2023,6,7,17,25,27,29
49.81750,0.03465,-0.06703,0.00000,0.03099,0.97588,-0.19044,0.0,2023,6,7,17,25,27,40
49.81760,-0.10535,0.10797,0.00000,0.03172,0.97515,-0.19191,0.0,2023,6,7,17,25,27,51
49.81770,0.01715,0.03797,0.00000,0.03087,0.97515,-0.19435,0.0,2023,6,7,17,25,27,62
49.81780,-0.12285,0.03797,0.00000,0.03196,0.97685,-0.19044,0.0,2023,6,7,17,25,27,73
49.81790,0.12215,-0.01453,0.00000,0.03013,0.97673,-0.19166,0.0,2023,6,7,17,25,27,84
49.81800,0.10465,0.00297,0.00000,0.03013,0.97710,-0.19166,0.0,2023,6,7,17,25,27,95
49.81810,0.01715,-0.11953,0.00000,0.03184,0.97539,-0.19178,0.0,2023,6,7,17,25,27,106
49.81820,0.08715,-0.10203,0.00000,0.03318,0.97515,-0.19069,0.0,2023,6,7,17,25,27,117
49.81830,-0.01785,-0.11953,0.00000,0.03245,0.97576,-0.19325,0.0,2023,6,7,17,25,27,128
49.81840,0.03465,-0.25953,0.00000,0.02977,0.97685,-0.19191,0.0,2023,6,7,17,25,27,139
49.81850,-0.01785,-0.01453,0.00000,0.03074,0.97698,-0.19008,0.0,2023,6,7,17,25,27,150
49.81860,-0.05285,0.07297,0.00000,0.03184,0.97722,-0.19154,0.0,2023,6,7,17,25,27,161
49.81870,0.10465,-0.01453,0.00000,0.02916,0.97600,-0.18910,0.0,2023,6,7,17,25,27,172
49.81880,0.03465,-0.03203,0.00000,0.03209,0.97441,-0.19264,0.0,2023,6,7,17,25,27,183
49.81890,0.01715,0.03797,0.00000,0.03087,0.97649,-0.19166,0.0,2023,6,7,17,25,27,194
49.81900,0.15715,0.03797,0.00000,0.02928,0.97441,-0.19300,0.0,2023,6,7,17,25,27,205
49.81910,0.12215,-0.08453,0.00000,0.03294,0.97612,-0.19422,0.0,2023,6,7,17,25,27,216
49.81920,0.15715,-0.20703,0.00000,0.03221,0.97600,-0.19093,0.0,2023,6,7,17,25,27,227
49.81930,-0.00035,-0.17203,0.00000,0.03074,0.97661,-0.18959,0.0,2023,6,7,17,25,27,238
49.81940,-0.00035,-0.04953,0.00000,0.03184,0.97844,-0.19130,0.0,2023,6,7,17,25,27,249
49.81950,0.01715,-0.10203,0.00000,0.02855,0.97710,-0.18812,0.0,2023,6,7,17,25,27,260
49.81960,0.08715,-0.06703,0.00000,0.03026,0.97624,-0.19105,0.0,2023,6,7,17,25,27,271
49.81970,0.05215,-0.15453,0.00000,0.03172,0.97624,-0.19105,0.0,2023,6,7,17,25,27,282
49.81980,-0.08785,0.10797,0.00000,0.03392,0.97783,-0.19008,0.0,2023,6,7,17,25,27,293
49.81990,0.13965,-0.13703,0.00000,0.03343,0.97624,-0.19130,0.0,2023,6,7,17,25,27,304
49.82000,-0.14035,0.05547,0.00000,0.02965,0.97722,-0.19154,0.0,2023,6,7,17,25,27,315
49.82010,-0.03535,0.14297,0.00000,0.03135,0.97576,-0.18971,0.0,2023,6,7,17,25,27,326
49.82020,-0.12285,-0.10203,0.00000,0.03209,0.97820,-0.19020,0.0,2023,6,7,17,25,27,337
49.82030,-0.05285,-0.11953,0.00000,0.03294,0.97551,-0.18654,0.0,2023,6,7,17,25,27,348
49.82040,-0.07035,0.02047,0.00000,0.03074,0.97600,-0.19142,0.0,2023,6,7,17,25,27,359
49.82050,0.01715,-0.10203,0.00000,0.03135,0.97966,-0.19069,0.0,2023,6,7,17,25,27,370
49.82060,-0.03535,-0.13703,0.00000,0.03209,0.97661,-0.19069,0.0,2023,6,7,17,25,27,381
49.82070,-0.08785,-0.03203,0.00000,0.03270,0.97881,-0.19191,0.0,2023,6,7,17,25,27,392
49.82080,0.10465,0.00297,0.00000,0.03294,0.97551,-0.19056,0.0,2023,6,7,17,25,27,403
49.82090,-0.10535,0.19547,0.00000,0.03026,0.97759,-0.18922,0.0,2023,6,7,17,25,27,414
49.82100,0.17465,-0.10203,0.00000,0.02952,0.97685,-0.19227,0.0,2023,6,7,17,25,27,425
49.82110,-0.05285,-0.06703,0.00000,0.03379,0.97710,-0.19203,0.0,2023,6,7,17,25,27,436
49.82120,-0.00035,0.10797,0.00000,0.03221,0.97502,-0.19044,0.0,2023,6,7,17,25,27,447
49.82130,0.12215,-0.06703,0.00000,0.03062,0.97551,-0.19130,0.0,2023,6,7,17,25,27,458
49.82140,0.05215,-0.03203,0.00000,0.03245,0.97649,-0.18934,0.0,2023,6,7,17,25,27,469
49.82150,-0.01785,0.02047,0.00000,0.03196,0.97612,-0.19178,0.0,2023,6,7,17,25,27,480
49.82160,0.26215,-0.06703,0.00000,0.03087,0.97710,-0.19044,0.0,2023,6,7,17,25,27,491
49.82170,0.03465,-0.10203,0.00000,0.03209,0.97380,-0.18995,0.0,2023,6,7,17,25,27,502
49.82180,-0.24535,-0.06703,0.00000,0.03331,0.97551,-0.19130,0.0,2023,6,7,17,25,27,513
49.82190,0.08715,-0.01453,0.00000,0.03099,0.97649,-0.19044,0.0,2023,6,7,17,25,27,524
49.82200,-0.01785,-0.03203,0.00000,0.03111,0.97673,-0.18995,0.0,2023,6,7,17,25,27,535
49.82210,0.15715,-0.10203,0.00000,0.03001,0.97612,-0.19069,0.0,2023,6,7,17,25,27,546
49.82220,0.06965,-0.06703,0.00000,0.03209,0.97576,-0.18934,0.0,2023,6,7,17,25,27,557
49.82230,0.01715,-0.01453,0.00000,0.03416,0.97661,-0.18739,0.0,2023,6,7,17,25,27,568
49.82240,-0.08785,0.00297,0.00000,0.03172,0.97478,-0.18922,0.0,2023,6,7,17,25,27,579
49.82250,0.08715,0.10797,0.00000,0.03282,0.97551,-0.19191,0.0,2023,6,7,17,25,27,590
49.82260,0.22715,0.02047,0.00000,0.03074,0.97673,-0.19288,0.0,2023,6,7,17,25,27,601
49.82270,-0.08785,0.17797,0.00000,0.03099,0.97746,-0.19276,0.0,2023,6,7,17,25,27,612
49.82280,-0.22785,0.12547,0.00000,0.03026,0.97722,-0.18849,0.0,2023,6,7,17,25,27,623
49.82290,0.03465,0.12547,0.00000,0.03123,0.97637,-0.18800,0.0,2023,6,7,17,25,27,634
49.82300,-0.15785,0.05547,0.00000,0.03184,0.97612,-0.19056,0.0,2023,6,7,17,25,27,645
49.82310,0.08715,0.05547,0.00000,0.03111,0.97734,-0.19239,0.0,2023,6,7,17,25,27,656
49.82320,0.10465,-0.13703,0.00000,0.03160,0.97539,-0.18959,0.0,2023,6,7,17,25,27,667
49.82330,0.15715,-0.01453,0.00000,0.03282,0.97698,-0.18776,0.0,2023,6,7,17,25,27,678
49.82340,0.13965,-0.08453,0.00000,0.02818,0.97612,-0.19032,0.0,2023,6,7,17,25,27,689
49.82350,0.06965,0.05547,0.00000,0.03123,0.97624,-0.18886,0.0,2023,6,7,17,25,27,700
49.82360,0.01715,-0.08453,0.00000,0.03221,0.97515,-0.18971,0.0,2023,6,7,17,25,27,711
49.82370,0.08715,0.12547,0.00000,0.03221,0.97527,-0.18837,0.0,2023,6,7,17,25,27,722
49.82380,-0.07035,0.16047,0.00000,0.02989,0.97771,-0.18971,0.0,2023,6,7,17,25,27,733
49.82390,-0.10535,-0.15453,0.00000,0.02916,0.97527,-0.19130,0.0,2023,6,7,17,25,27,744
49.82400,0.08715,0.07297,0.00000,0.03013,0.97661,-0.19154,0.0,2023,6,7,17,25,27,755
49.82410,-0.01785,0.03797,0.00000,0.03294,0.97576,-0.18971,0.0,2023,6,7,17,25,27,766
49.82420,-0.05285,0.00297,0.00000,0.02940,0.97685,-0.18715,0.0,2023,6,7,17,25,27,777
49.82430,0.01715,-0.11953,0.00000,0.03416,0.97478,-0.19142,0.0,2023,6,7,17,25,27,788
49.82440,-0.19285,0.17797,0.00000,0.02891,0.97759,-0.19020,0.0,2023,6,7,17,25,27,799
49.82450,-0.12285,-0.11953,0.00000,0.03172,0.97527,-0.19239,0.0,2023,6,7,17,25,27,810
49.82460,-0.00035,-0.01453,0.00000,0.03306,0.97783,-0.18971,0.0,2023,6,7,17,25,27,821
49.82470,0.08715,-0.01453,0.00000,0.03221,0.97722,-0.19239,0.0,2023,6,7,17,25,27,832
49.82480,0.24465,0.03797,0.00000,0.03306,0.97771,-0.19154,0.0,2023,6,7,17,25,27,843
49.82490,0.08715,-0.17203,0.00000,0.03038,0.97868,-0.19105,0.0,2023,6,7,17,25,27,854
49.82500,-0.03535,0.09047,0.00000,0.03318,0.97673,-0.19142,0.0,2023,6,7,17,25,27,865
49.82510,-0.12285,-0.10203,0.00000,0.02965,0.97759,-0.18971,0.0,2023,6,7,17,25,27,876
49.82520,0.05215,0.12547,0.00000,0.03282,0.97734,-0.19313,0.0,2023,6,7,17,25,27,887
49.82530,0.20965,0.07297,0.00000,0.03026,0.97490,-0.19154,0.0,2023,6,7,17,25,27,898
49.82540,0.03465,0.05547,0.00000,0.02989,0.97820,-0.19215,0.0,2023,6,7,17,25,27,909
49.82550,-0.19285,0.02047,0.00000,0.03001,0.97685,-0.19130,0.0,2023,6,7,17,25,27,920
49.82560,-0.03535,0.10797,0.00000,0.03062,0.97649,-0.18959,0.0,2023,6,7,17,25,27,931
49.82570,0.12215,-0.25953,0.00000,0.02830,0.97368,-0.19276,0.0,2023,6,7,17,25,27,942
49.82580,-0.01785,-0.01453,0.00000,0.03074,0.97563,-0.19313,0.0,2023,6,7,17,25,27,953
49.82590,-0.05285,-0.03203,0.00000,0.03026,0.97454,-0.19056,0.0,2023,6,7,17,25,27,964
49.82600,0.05215,0.05547,0.00000,0.03148,0.97710,-0.19191,0.0,2023,6,7,17,25,27,975
49.82610,-0.07035,0.14297,0.00000,0.02952,0.97527,-0.19093,0.0,2023,6,7,17,25,27,986
49.82620,-0.01785,-0.13703,0.00000,0.03148,0.97698,-0.18886,0.0,2023,6,7,17,25,28,7
49.82630,0.08715,0.16047,0.00000,0.03306,0.97881,-0.18837,0.0,2023,6,7,17,25,28,18
49.82640,0.01715,0.02047,0.00000,0.03135,0.97905,-0.18800,0.0,2023,6,7,17,25,28,29
49.82650,-0.12285,-0.01453,0.00000,0.03282,0.97466,-0.19081,0.0,2023,6,7,17,25,28,40
49.82660,0.13965,-0.06703,0.00000,0.03074,0.97466,-0.19349,0.0,2023,6,7,17,25,28,51
49.82670,0.08715,0.03797,0.00000,0.03099,0.97783,-0.19056,0.0,2023,6,7,17,25,28,62
49.82680,0.01715,0.03797,0.00000,0.03135,0.97417,-0.18983,0.0,2023,6,7,17,25,28,73
49.82690,0.03465,-0.17203,0.00000,0.03196,0.97783,-0.19044,0.0,2023,6,7,17,25,28,84
49.82700,-0.12285,-0.03203,0.00000,0.03318,0.97746,-0.18947,0.0,2023,6,7,17,25,28,95
49.82710,-0.03535,0.10797,0.00000,0.03233,0.97539,-0.18959,0.0,2023,6,7,17,25,28,106
49.82720,-0.07035,0.14297,0.00000,0.03209,0.97612,-0.19142,0.0,2023,6,7,17,25,28,117
49.82730,0.01715,0.05547,0.00000,0.03221,0.97637,-0.18776,0.0,2023,6,7,17,25,28,128
49.82740,0.06965,-0.01453,0.00000,0.02977,0.97649,-0.19117,0.0,2023,6,7,17,25,28,139
49.82750,0.10465,0.07297,0.00000,0.03062,0.97527,-0.19081,0.0,2023,6,7,17,25,28,150
49.82760,-0.00035,0.24797,0.00000,0.03135,0.97539,-0.18959,0.0,2023,6,7,17,25,28,161
49.82770,-0.14035,-0.06703,0.00000,0.03087,0.97441,-0.18983,0.0,2023,6,7,17,25,28,172
49.82780,0.15715,0.02047,0.00000,0.03111,0.97624,-0.18886,0.0,2023,6,7,17,25,28,183
49.82790,0.01715,-0.06703,0.00000,0.03221,0.97807,-0.18934,0.0,2023,6,7,17,25,28,194
49.82800,0.10465,0.05547,0.00000,0.03257,0.97576,-0.18898,0.0,2023,6,7,17,25,28,205
49.82810,0.10465,0.03797,0.00000,0.03331,0.97893,-0.19081,0.0,2023,6,7,17,25,28,216
49.82820,0.03465,0.05547,0.00000,0.02928,0.97576,-0.18934,0.0,2023,6,7,17,25,28,227
49.82830,-0.01785,-0.18953,0.00000,0.02940,0.97649,-0.19191,0.0,2023,6,7,17,25,28,238
49.82840,-0.01785,-0.13703,0.00000,0.03123,0.97649,-0.19044,0.0,2023,6,7,17,25,28,249
49.82850,-0.21035,0.02047,0.00000,0.03123,0.97454,-0.18983,0.0,2023,6,7,17,25,28,260
49.82860,-0.03535,-0.03203,0.00000,0.03196,0.97685,-0.19117,0.0,2023,6,7,17,25,28,271
49.82870,0.19215,0.05547,0.00000,0.03038,0.97954,-0.18812,0.0,2023,6,7,17,25,28,282
49.82880,-0.00035,-0.11953,0.00000,0.03111,0.97746,-0.19008,0.0,2023,6,7,17,25,28,293
49.82890,0.03465,-0.03203,0.00000,0.02989,0.97600,-0.19178,0.0,2023,6,7,17,25,28,304
49.82900,-0.08785,-0.03203,0.00000,0.03087,0.97502,-0.18886,0.0,2023,6,7,17,25,28,315
49.82910,0.13965,-0.24203,0.00000,0.03172,0.97734,-0.18898,0.0,2023,6,7,17,25,28,326
49.82920,-0.08785,0.23047,0.00000,0.02989,0.97527,-0.19008,0.0,2023,6,7,17,25,28,337
49.82930,0.08715,-0.11953,0.00000,0.03160,0.97563,-0.19166,0.0,2023,6,7,17,25,28,348
49.82940,-0.03535,0.12547,0.00000,0.03135,0.97624,-0.19008,0.0,2023,6,7,17,25,28,359
49.82950,0.05215,-0.08453,0.00000,0.03001,0.97771,-0.18849,0.0,2023,6,7,17,25,28,370
49.82960,-0.07035,-0.04953,0.00000,0.02989,0.97954,-0.18520,0.0,2023,6,7,17,25,28,381
49.82970,-0.15785,0.12547,0.00000,0.03013,0.97429,-0.18983,0.0,2023,6,7,17,25,28,392
49.82980,0.19215,0.05547,0.00000,0.03111,0.97563,-0.19032,0.0,2023,6,7,17,25,28,403
49.82990,-0.00035,0.02047,0.00000,0.03318,0.97637,-0.18861,0.0,2023,6,7,17,25,28,414
49.83000,0.01715,0.07297,0.00000,0.03306,0.97795,-0.18861,0.0,2023,6,7,17,25,28,425
49.83010,0.17465,0.10797,0.00000,0.03160,0.97917,-0.18910,0.0,2023,6,7,17,25,28,436
49.83020,0.10465,-0.17203,0.00000,0.03160,0.97807,-0.19093,0.0,2023,6,7,17,25,28,447
49.83030,-0.07035,-0.25953,0.00000,0.03221,0.97698,-0.18922,0.0,2023,6,7,17,25,28,458
49.83040,-0.14035,-0.06703,0.00000,0.03209,0.97771,-0.18959,0.0,2023,6,7,17,25,28,469
49.83050,-0.01785,0.14297,0.00000,0.02977,0.97710,-0.18886,0.0,2023,6,7,17,25,28,480
49.83060,-0.15785,0.19547,0.00000,0.03026,0.97478,-0.18812,0.0,2023,6,7,17,25,28,491
49.83070,0.17465,-0.24203,0.00000,0.03184,0.97515,-0.18861,0.0,2023,6,7,17,25,28,502
49.83080,-0.05285,0.05547,0.00000,0.02989,0.97734,-0.18886,0.0,2023,6,7,17,25,28,513
49.83090,0.08715,0.19547,0.00000,0.03233,0.97515,-0.19117,0.0,2023,6,7,17,25,28,524
49.83100,0.01715,0.00297,0.00000,0.03453,0.97649,-0.18837,0.0,2023,6,7,17,25,28,535
49.83110,0.01715,0.17797,0.00000,0.03172,0.97515,-0.18934,0.0,2023,6,7,17,25,28,546
49.83120,0.13965,-0.04953,0.00000,0.03196,0.97649,-0.19032,0.0,2023,6,7,17,25,28,557
49.83130,-0.03535,0.14297,0.00000,0.03209,0.97710,-0.18776,0.0,2023,6,7,17,25,28,568
49.83140,-0.05285,-0.01453,0.00000,0.03123,0.97551,-0.19227,0.0,2023,6,7,17,25,28,579
49.83150,-0.05285,0.03797,0.00000,0.03148,0.97759,-0.18873,0.0,2023,6,7,17,25,28,590
49.83160,0.03465,0.10797,0.00000,0.03099,0.97466,-0.18983,0.0,2023,6,7,17,25,28,601
49.83170,0.01715,0.14297,0.00000,0.03306,0.97515,-0.18861,0.0,2023,6,7,17,25,28,612
49.83180,-0.01785,0.02047,0.00000,0.03221,0.97685,-0.18715,0.0,2023,6,7,17,25,28,623
49.83190,0.08715,-0.11953,0.00000,0.03416,0.97600,-0.19227,0.0,2023,6,7,17,25,28,634
49.83200,0.01715,0.07297,0.00000,0.03245,0.97685,-0.19142,0.0,2023,6,7,17,25,28,645
49.83210,-0.14035,0.07297,0.00000,0.03526,0.97490,-0.19154,0.0,2023,6,7,17,25,28,656
49.83220,-0.00035,0.03797,0.00000,0.03306,0.97783,-0.18995,0.0,2023,6,7,17,25,28,667
49.83230,0.13965,0.02047,0.00000,0.03111,0.97563,-0.18703,0.0,2023,6,7,17,25,28,678
49.83240,0.01715,0.00297,0.00000,0.03184,0.97844,-0.19081,0.0,2023,6,7,17,25,28,689
49.83250,0.01715,0.09047,0.00000,0.03392,0.97539,-0.19288,0.0,2023,6,7,17,25,28,700
49.83260,0.01715,-0.08453,0.00000,0.03062,0.97673,-0.18751,0.0,2023,6,7,17,25,28,711
49.83270,-0.08785,0.02047,0.00000,0.02989,0.97612,-0.18983,0.0,2023,6,7,17,25,28,722
49.83280,0.33215,-0.01453,0.00000,0.03270,0.98991,-0.19166,0.0,2023,6,7,17,25,28,733
49.83290,-0.64785,0.17797,0.00000,0.03026,0.96990,-0.18544,0.0,2023,6,7,17,25,28,744
49.83300,1.04965,-0.17203,0.00000,0.03038,0.97868,-0.19715,0.0,2023,6,7,17,25,28,755
49.83310,-0.29785,-0.10203,0.00000,0.03392,0.97222,-0.18459,0.0,2023,6,7,17,25,28,766
49.83320,-0.29785,0.02047,0.00000,0.02952,0.97271,-0.19349,0.0,2023,6,7,17,25,28,777
49.83330,0.92715,-0.11953,0.00000,0.03257,0.98295,-0.19447,0.0,2023,6,7,17,25,28,788
49.83340,-0.73535,0.17797,0.00000,0.03343,0.97344,-0.18556,0.0,2023,6,7,17,25,28,799
49.83350,0.43715,-0.11953,0.00000,0.02830,0.97454,-0.20008,0.0,2023,6,7,17,25,28,810
49.83360,0.82215,-0.01453,0.00000,0.02879,0.97942,-0.19252,0.0,2023,6,7,17,25,28,821
49.83370,-0.91035,0.28297,0.00000,0.03257,0.97222,-0.18385,0.0,2023,6,7,17,25,28,832
49.83380,0.38465,-0.08453,0.00000,0.03172,0.97637,-0.19605,0.0,2023,6,7,17,25,28,843
49.83390,0.33215,0.02047,0.00000,0.03111,0.97893,-0.18812,0.0,2023,6,7,17,25,28,854
49.83400,-0.35035,0.05547,0.00000,0.02965,0.97515,-0.18764,0.0,2023,6,7,17,25,28,865
49.83410,0.36715,-0.10203,0.00000,0.02904,0.97710,-0.19142,0.0,2023,6,7,17,25,28,876
49.83420,-0.19285,-0.06703,0.00000,0.03294,0.97405,-0.18459,0.0,2023,6,7,17,25,28,887
49.83430,0.05215,-0.11953,0.00000,0.03184,0.97942,-0.19032,0.0,2023,6,7,17,25,28,898
49.83440,0.19215,-0.17203,0.00000,0.03123,0.97612,-0.19178,0.0,2023,6,7,17,25,28,909
