#2023/06/07 16:59:18
time,wx,wy,wz,ax,ay,az,yy,MM,dd,hh,mm,ss,ms
47.90340,-0.14455,-0.04742,0.00000,0.02928,0.97612,-0.18556,0.0,2023,6,7,16,59,19,80
47.90350,-0.12705,-0.01242,0.00000,0.03148,0.97759,-0.18764,0.0,2023,6,7,16,59,19,91
47.90360,0.15295,0.18008,0.00000,0.03270,0.97710,-0.18800,0.0,2023,6,7,16,59,19,102
47.90370,-0.12705,-0.13492,0.00000,0.02989,0.97454,-0.18434,0.0,2023,6,7,16,59,19,113
47.90380,0.04795,-0.09992,0.00000,0.02928,0.97661,-0.18983,0.0,2023,6,7,16,59,19,124
47.90390,0.15295,-0.02992,0.00000,0.03294,0.97649,-0.18520,0.0,2023,6,7,16,59,19,135
47.90400,-0.19705,0.07508,0.00000,0.03111,0.97515,-0.18629,0.0,2023,6,7,16,59,19,146
47.90410,0.04795,-0.16992,0.00000,0.03306,0.97881,-0.19020,0.0,2023,6,7,16,59,19,157
47.90420,0.10045,0.16258,0.00000,0.03318,0.97502,-0.18507,0.0,2023,6,7,16,59,19,168
47.90430,-0.21455,-0.06492,0.00000,0.03099,0.97710,-0.18642,0.0,2023,6,7,16,59,19,179
47.90440,0.10045,0.05758,0.00000,0.02977,0.97637,-0.19081,0.0,2023,6,7,16,59,19,190
47.90450,-0.00455,-0.01242,0.00000,0.03013,0.97612,-0.18812,0.0,2023,6,7,16,59,19,201
47.90460,-0.07455,0.11008,0.00000,0.03123,0.97673,-0.18739,0.0,2023,6,7,16,59,19,212
47.90470,0.13545,-0.13492,0.00000,0.03282,0.97710,-0.18959,0.0,2023,6,7,16,59,19,223
47.90480,-0.10955,0.00508,0.00000,0.03209,0.98027,-0.18605,0.0,2023,6,7,16,59,19,234
47.90490,0.11795,-0.13492,0.00000,0.03196,0.97332,-0.18751,0.0,2023,6,7,16,59,19,245
47.90500,0.13545,0.16258,0.00000,0.03233,0.97600,-0.18861,0.0,2023,6,7,16,59,19,256
47.90510,-0.30205,0.12758,0.00000,0.03172,0.97673,-0.18800,0.0,2023,6,7,16,59,19,267
47.90520,0.04795,-0.11742,0.00000,0.02952,0.97405,-0.19093,0.0,2023,6,7,16,59,19,278
47.90530,-0.10955,0.09258,0.00000,0.03270,0.97551,-0.18483,0.0,2023,6,7,16,59,19,289
47.90540,-0.30205,-0.06492,0.00000,0.03233,0.97539,-0.18544,0.0,2023,6,7,16,59,19,300
47.90550,-0.05705,0.05758,0.00000,0.03062,0.97624,-0.18934,0.0,2023,6,7,16,59,19,311
47.90560,0.01295,-0.06492,0.00000,0.03392,0.97588,-0.18727,0.0,2023,6,7,16,59,19,322
47.90570,-0.38955,0.09258,0.00000,0.03245,0.97868,-0.18751,0.0,2023,6,7,16,59,19,333
47.90580,0.13545,0.19758,0.00000,0.03196,0.97563,-0.19300,0.0,2023,6,7,16,59,19,344
47.90590,0.15295,-0.01242,0.00000,0.03123,0.97490,-0.18654,0.0,2023,6,7,16,59,19,355
47.90600,-0.31955,0.14508,0.00000,0.03135,0.97832,-0.18666,0.0,2023,6,7,16,59,19,366
47.90610,0.15295,-0.09992,0.00000,0.03135,0.97429,-0.19191,0.0,2023,6,7,16,59,19,377
47.90620,-0.03955,0.11008,0.00000,0.03282,0.97466,-0.18715,0.0,2023,6,7,16,59,19,388
47.90630,-0.07455,-0.23992,0.00000,0.03013,0.97588,-0.18605,0.0,2023,6,7,16,59,19,399
47.90640,0.15295,0.02258,0.00000,0.03074,0.97356,-0.18605,0.0,2023,6,7,16,59,19,410
47.90650,0.08295,0.19758,0.00000,0.02879,0.97746,-0.18764,0.0,2023,6,7,16,59,19,421
47.90660,0.11795,0.16258,0.00000,0.03026,0.97576,-0.18849,0.0,2023,6,7,16,59,19,432
47.90670,0.24045,-0.09992,0.00000,0.03013,0.97612,-0.19154,0.0,2023,6,7,16,59,19,443
47.90680,-0.12705,0.07508,0.00000,0.03050,0.97490,-0.18776,0.0,2023,6,7,16,59,19,454
47.90690,-0.07455,0.07508,0.00000,0.03282,0.97820,-0.18629,0.0,2023,6,7,16,59,19,465
47.90700,0.15295,0.00508,0.00000,0.03221,0.97710,-0.18361,0.0,2023,6,7,16,59,19,476
47.90710,0.08295,-0.04742,0.00000,0.03160,0.97722,-0.18507,0.0,2023,6,7,16,59,19,487
47.90720,0.36295,-0.06492,0.00000,0.03087,0.97563,-0.18739,0.0,2023,6,7,16,59,19,498
47.90730,0.10045,0.07508,0.00000,0.03099,0.97515,-0.19117,0.0,2023,6,7,16,59,19,509
47.90740,0.27545,-0.13492,0.00000,0.02989,0.97563,-0.18837,0.0,2023,6,7,16,59,19,520
47.90750,-0.00455,-0.23992,0.00000,0.03050,0.97588,-0.18764,0.0,2023,6,7,16,59,19,531
47.90760,0.04795,-0.08242,0.00000,0.03392,0.97588,-0.18666,0.0,2023,6,7,16,59,19,542
47.90770,-0.37205,0.07508,0.00000,0.03294,0.97515,-0.18568,0.0,2023,6,7,16,59,19,553
47.90780,0.13545,-0.04742,0.00000,0.02989,0.97734,-0.19044,0.0,2023,6,7,16,59,19,564
47.90790,0.08295,0.04008,0.00000,0.03135,0.97600,-0.18642,0.0,2023,6,7,16,59,19,575
47.90800,-0.05705,0.11008,0.00000,0.03013,0.97685,-0.18544,0.0,2023,6,7,16,59,19,586
47.90810,0.10045,-0.15242,0.00000,0.03172,0.97807,-0.18751,0.0,2023,6,7,16,59,19,597
47.90820,-0.09205,0.00508,0.00000,0.03111,0.97527,-0.18800,0.0,2023,6,7,16,59,19,608
47.90830,-0.05705,-0.09992,0.00000,0.03111,0.97429,-0.18642,0.0,2023,6,7,16,59,19,619
47.90840,-0.02205,0.09258,0.00000,0.03184,0.97868,-0.18837,0.0,2023,6,7,16,59,19,630
47.90850,0.01295,-0.08242,0.00000,0.03099,0.97722,-0.18825,0.0,2023,6,7,16,59,19,641
47.90860,-0.24955,0.18008,0.00000,0.03074,0.97393,-0.18715,0.0,2023,6,7,16,59,19,652
47.90870,-0.03955,0.18008,0.00000,0.03148,0.97710,-0.18678,0.0,2023,6,7,16,59,19,663
47.90880,-0.02205,-0.01242,0.00000,0.03270,0.97685,-0.18544,0.0,2023,6,7,16,59,19,674
47.90890,-0.12705,0.05758,0.00000,0.03245,0.97685,-0.18678,0.0,2023,6,7,16,59,19,685
47.90900,0.20545,-0.02992,0.00000,0.02989,0.97661,-0.18947,0.0,2023,6,7,16,59,19,696
47.90910,-0.23205,-0.06492,0.00000,0.02965,0.97820,-0.18837,0.0,2023,6,7,16,59,19,707
47.90920,-0.10955,-0.20492,0.00000,0.03062,0.97734,-0.18983,0.0,2023,6,7,16,59,19,718
47.90930,0.22295,-0.09992,0.00000,0.02794,0.97685,-0.18861,0.0,2023,6,7,16,59,19,729
47.90940,-0.12705,-0.11742,0.00000,0.03172,0.97539,-0.18520,0.0,2023,6,7,16,59,19,740
47.90950,0.01295,0.11008,0.00000,0.03148,0.97698,-0.18654,0.0,2023,6,7,16,59,19,751
47.90960,-0.03955,-0.01242,0.00000,0.03318,0.97673,-0.18568,0.0,2023,6,7,16,59,19,762
47.90970,-0.05705,0.00508,0.00000,0.03282,0.97515,-0.18922,0.0,2023,6,7,16,59,19,773
47.90980,-0.00455,-0.01242,0.00000,0.03111,0.97795,-0.18910,0.0,2023,6,7,16,59,19,784
47.90990,0.01295,-0.08242,0.00000,0.02879,0.97429,-0.18678,0.0,2023,6,7,16,59,19,795
47.91000,0.08295,0.05758,0.00000,0.03184,0.97661,-0.18788,0.0,2023,6,7,16,59,19,806
47.91010,0.10045,0.02258,0.00000,0.03013,0.97722,-0.18727,0.0,2023,6,7,16,59,19,817
47.91020,0.06545,-0.13492,0.00000,0.03257,0.97551,-0.18617,0.0,2023,6,7,16,59,19,828
47.91030,0.01295,0.11008,0.00000,0.03099,0.97746,-0.19020,0.0,2023,6,7,16,59,19,839
47.91040,0.06545,-0.09992,0.00000,0.03257,0.97600,-0.18959,0.0,2023,6,7,16,59,19,850
47.91050,0.06545,-0.13492,0.00000,0.03160,0.97649,-0.18800,0.0,2023,6,7,16,59,19,861
47.91060,-0.14455,0.04008,0.00000,0.03392,0.97649,-0.18654,0.0,2023,6,7,16,59,19,872
47.91070,0.01295,-0.06492,0.00000,0.03160,0.97624,-0.18849,0.0,2023,6,7,16,59,19,883
47.91080,-0.05705,-0.04742,0.00000,0.03013,0.97576,-0.18776,0.0,2023,6,7,16,59,19,894
47.91090,-0.03955,-0.11742,0.00000,0.02952,0.97661,-0.18703,0.0,2023,6,7,16,59,19,905
47.91100,-0.02205,0.16258,0.00000,0.03172,0.97539,-0.18629,0.0,2023,6,7,16,59,19,916
47.91110,-0.07455,-0.01242,0.00000,0.03062,0.97698,-0.18886,0.0,2023,6,7,16,59,19,927
47.91120,-0.02205,0.19758,0.00000,0.03184,0.97661,-0.18825,0.0,2023,6,7,16,59,19,938
47.91130,0.10045,-0.04742,0.00000,0.02867,0.97588,-0.18764,0.0,2023,6,7,16,59,19,949
47.91140,0.03045,0.30258,0.00000,0.03160,0.97673,-0.19008,0.0,2023,6,7,16,59,19,960
47.91150,-0.02205,0.09258,0.00000,0.02965,0.97576,-0.18739,0.0,2023,6,7,16,59,19,971
47.91160,0.08295,-0.51992,0.00000,0.03282,0.97771,-0.18459,0.0,2023,6,7,16,59,19,982
47.91170,-0.10955,-0.13492,0.00000,0.03099,0.97490,-0.18727,0.0,2023,6,7,16,59,20,3
47.91180,0.10045,0.05758,0.00000,0.03160,0.97637,-0.18983,0.0,2023,6,7,16,59,20,14
47.91190,0.18795,0.00508,0.00000,0.03123,0.97722,-0.18861,0.0,2023,6,7,16,59,20,25
47.91200,0.03045,-0.04742,0.00000,0.02818,0.97710,-0.18727,0.0,2023,6,7,16,59,20,36
47.91210,0.38045,-0.09992,0.00000,0.03111,0.97551,-0.18581,0.0,2023,6,7,16,59,20,47
47.91220,-0.16205,0.14508,0.00000,0.03318,0.97454,-0.18666,0.0,2023,6,7,16,59,20,58
47.91230,0.11795,0.09258,0.00000,0.03172,0.97588,-0.18739,0.0,2023,6,7,16,59,20,69
47.91240,0.22295,0.04008,0.00000,0.03148,0.97746,-0.18642,0.0,2023,6,7,16,59,20,80
47.91250,-0.02205,0.05758,0.00000,0.03184,0.97710,-0.18568,0.0,2023,6,7,16,59,20,91
47.91260,-0.09205,-0.08242,0.00000,0.03074,0.97698,-0.18788,0.0,2023,6,7,16,59,20,102
47.91270,0.01295,-0.22242,0.00000,0.03038,0.97722,-0.18861,0.0,2023,6,7,16,59,20,113
47.91280,-0.17955,0.04008,0.00000,0.03111,0.97624,-0.18898,0.0,2023,6,7,16,59,20,124
47.91290,-0.00455,0.02258,0.00000,0.03294,0.97466,-0.18800,0.0,2023,6,7,16,59,20,135
47.91300,-0.12705,0.12758,0.00000,0.02965,0.97771,-0.18556,0.0,2023,6,7,16,59,20,146
47.91310,0.20545,-0.01242,0.00000,0.03209,0.97661,-0.18703,0.0,2023,6,7,16,59,20,157
47.91320,-0.05705,-0.02992,0.00000,0.03148,0.97746,-0.18812,0.0,2023,6,7,16,59,20,168
47.91330,0.15295,-0.04742,0.00000,0.02940,0.97856,-0.18764,0.0,2023,6,7,16,59,20,179
47.91340,0.13545,-0.15242,0.00000,0.03062,0.97576,-0.19056,0.0,2023,6,7,16,59,20,190
47.91350,0.03045,0.11008,0.00000,0.03209,0.97502,-0.18837,0.0,2023,6,7,16,59,20,201
47.91360,-0.05705,-0.16992,0.00000,0.03233,0.97673,-0.18690,0.0,2023,6,7,16,59,20,212
47.91370,-0.03955,0.00508,0.00000,0.03245,0.97637,-0.18642,0.0,2023,6,7,16,59,20,223
47.91380,-0.09205,-0.15242,0.00000,0.03001,0.97576,-0.18532,0.0,2023,6,7,16,59,20,234
47.91390,0.01295,-0.09992,0.00000,0.03111,0.97612,-0.18861,0.0,2023,6,7,16,59,20,245
47.91400,-0.07455,0.05758,0.00000,0.03074,0.97612,-0.18947,0.0,2023,6,7,16,59,20,256
47.91410,0.15295,0.07508,0.00000,0.03221,0.97600,-0.18812,0.0,2023,6,7,16,59,20,267
47.91420,-0.24955,0.02258,0.00000,0.03135,0.97893,-0.18666,0.0,2023,6,7,16,59,20,278
47.91430,0.13545,-0.04742,0.00000,0.03013,0.97527,-0.18849,0.0,2023,6,7,16,59,20,289
47.91440,0.08295,0.05758,0.00000,0.03209,0.97746,-0.18910,0.0,2023,6,7,16,59,20,300
47.91450,0.11795,-0.06492,0.00000,0.03160,0.97722,-0.18837,0.0,2023,6,7,16,59,20,311
47.91460,0.04795,-0.04742,0.00000,0.03184,0.97490,-0.18995,0.0,2023,6,7,16,59,20,322
47.91470,-0.03955,0.00508,0.00000,0.03050,0.97612,-0.18654,0.0,2023,6,7,16,59,20,333
47.91480,0.01295,0.05758,0.00000,0.03221,0.97917,-0.18556,0.0,2023,6,7,16,59,20,344
47.91490,-0.10955,-0.09992,0.00000,0.03184,0.97832,-0.18605,0.0,2023,6,7,16,59,20,355
47.91500,-0.07455,-0.23992,0.00000,0.03087,0.97527,-0.18886,0.0,2023,6,7,16,59,20,366
47.91510,0.13545,0.18008,0.00000,0.02904,0.97563,-0.18727,0.0,2023,6,7,16,59,20,377
47.91520,0.01295,0.00508,0.00000,0.03074,0.97612,-0.18971,0.0,2023,6,7,16,59,20,388
47.91530,-0.05705,-0.09992,0.00000,0.03160,0.97600,-0.18837,0.0,2023,6,7,16,59,20,399
47.91540,0.29295,0.00508,0.00000,0.03257,0.97490,-0.18873,0.0,2023,6,7,16,59,20,410
47.91550,0.13545,0.04008,0.00000,0.03099,0.97722,-0.18812,0.0,2023,6,7,16,59,20,421
47.91560,-0.10955,0.07508,0.00000,0.03270,0.97673,-0.18703,0.0,2023,6,7,16,59,20,432
47.91570,0.08295,-0.15242,0.00000,0.03318,0.97905,-0.18947,0.0,2023,6,7,16,59,20,443
47.91580,0.20545,-0.22242,0.00000,0.03209,0.97490,-0.18959,0.0,2023,6,7,16,59,20,454
47.91590,-0.12705,0.05758,0.00000,0.03209,0.97441,-0.19056,0.0,2023,6,7,16,59,20,465
47.91600,-0.02205,0.02258,0.00000,0.03270,0.97856,-0.18947,0.0,2023,6,7,16,59,20,476
47.91610,0.03045,0.05758,0.00000,0.03184,0.97832,-0.18764,0.0,2023,6,7,16,59,20,487
47.91620,-0.10955,0.04008,0.00000,0.03099,0.97673,-0.18727,0.0,2023,6,7,16,59,20,498
47.91630,0.17045,-0.13492,0.00000,0.03160,0.97429,-0.18751,0.0,2023,6,7,16,59,20,509
47.91640,-0.05705,0.12758,0.00000,0.03318,0.97515,-0.18727,0.0,2023,6,7,16,59,20,520
47.91650,0.08295,0.02258,0.00000,0.03221,0.97783,-0.18751,0.0,2023,6,7,16,59,20,531
47.91660,-0.02205,-0.02992,0.00000,0.03233,0.97490,-0.18849,0.0,2023,6,7,16,59,20,542
47.91670,-0.21455,-0.09992,0.00000,0.03062,0.97539,-0.18861,0.0,2023,6,7,16,59,20,553
47.91680,-0.14455,-0.01242,0.00000,0.03184,0.97551,-0.18690,0.0,2023,6,7,16,59,20,564
47.91690,-0.14455,0.04008,0.00000,0.03306,0.97685,-0.18581,0.0,2023,6,7,16,59,20,575
47.91700,-0.45955,0.23258,0.00000,0.03306,0.97917,-0.18739,0.0,2023,6,7,16,59,20,586
47.91710,0.03045,0.05758,0.00000,0.03087,0.97588,-0.19008,0.0,2023,6,7,16,59,20,597
47.91720,0.13545,0.00508,0.00000,0.03135,0.97539,-0.18837,0.0,2023,6,7,16,59,20,608
47.91730,-0.03955,0.12758,0.00000,0.03001,0.97856,-0.18825,0.0,2023,6,7,16,59,20,619
47.91740,0.11795,0.02258,0.00000,0.02989,0.97563,-0.18605,0.0,2023,6,7,16,59,20,630
47.91750,-0.09205,0.07508,0.00000,0.03111,0.97466,-0.18715,0.0,2023,6,7,16,59,20,641
47.91760,-0.07455,-0.20492,0.00000,0.03331,0.97722,-0.18715,0.0,2023,6,7,16,59,20,652
47.91770,0.08295,0.00508,0.00000,0.03013,0.97807,-0.18995,0.0,2023,6,7,16,59,20,663
47.91780,0.04795,-0.02992,0.00000,0.03038,0.97551,-0.19081,0.0,2023,6,7,16,59,20,674
47.91790,-0.00455,-0.06492,0.00000,0.03123,0.97527,-0.18715,0.0,2023,6,7,16,59,20,685
47.91800,-0.05705,-0.04742,0.00000,0.03026,0.97722,-0.18922,0.0,2023,6,7,16,59,20,696
47.91810,0.06545,-0.25742,0.00000,0.03331,0.97490,-0.18507,0.0,2023,6,7,16,59,20,707
47.91820,0.22295,0.02258,0.00000,0.03062,0.97527,-0.19105,0.0,2023,6,7,16,59,20,718
47.91830,0.03045,0.14508,0.00000,0.03087,0.97576,-0.18959,0.0,2023,6,7,16,59,20,729
47.91840,-0.02205,0.04008,0.00000,0.03050,0.97673,-0.18910,0.0,2023,6,7,16,59,20,740
47.91850,-0.10955,0.02258,0.00000,0.03135,0.97612,-0.19020,0.0,2023,6,7,16,59,20,751
47.91860,0.06545,-0.16992,0.00000,0.03001,0.97576,-0.18947,0.0,2023,6,7,16,59,20,762
47.91870,-0.31955,0.12758,0.00000,0.03331,0.97624,-0.18739,0.0,2023,6,7,16,59,20,773
47.91880,-0.12705,0.11008,0.00000,0.03038,0.97746,-0.18800,0.0,2023,6,7,16,59,20,784
47.91890,0.17045,-0.11742,0.00000,0.02940,0.97478,-0.18983,0.0,2023,6,7,16,59,20,795
47.91900,-0.02205,0.14508,0.00000,0.03050,0.97466,-0.18812,0.0,2023,6,7,16,59,20,806
47.91910,0.03045,-0.15242,0.00000,0.03257,0.97820,-0.18788,0.0,2023,6,7,16,59,20,817
47.91920,0.18795,-0.04742,0.00000,0.03501,0.97527,-0.18825,0.0,2023,6,7,16,59,20,828
47.91930,-0.26705,0.00508,0.00000,0.03245,0.97515,-0.18739,0.0,2023,6,7,16,59,20,839
47.91940,-0.00455,0.02258,0.00000,0.03050,0.97502,-0.18898,0.0,2023,6,7,16,59,20,850
47.91950,-0.02205,0.30258,0.00000,0.03318,0.97759,-0.18947,0.0,2023,6,7,16,59,20,861
47.91960,-0.03955,-0.09992,0.00000,0.03221,0.97588,-0.18703,0.0,2023,6,7,16,59,20,872
47.91970,0.11795,0.05758,0.00000,0.03282,0.97502,-0.18934,0.0,2023,6,7,16,59,20,883
47.91980,0.06545,-0.08242,0.00000,0.03257,0.97698,-0.18715,0.0,2023,6,7,16,59,20,894
47.91990,-0.03955,0.00508,0.00000,0.03148,0.97844,-0.19032,0.0,2023,6,7,16,59,20,905
47.92000,0.03045,-0.08242,0.00000,0.03135,0.97698,-0.18715,0.0,2023,6,7,16,59,20,916
47.92010,0.01295,0.00508,0.00000,0.03135,0.97624,-0.19032,0.0,2023,6,7,16,59,20,927
47.92020,0.24045,0.04008,0.00000,0.03489,0.97478,-0.18934,0.0,2023,6,7,16,59,20,938
47.92030,-0.07455,0.09258,0.00000,0.03184,0.97515,-0.18410,0.0,2023,6,7,16,59,20,949
47.92040,-0.00455,0.16258,0.00000,0.03306,0.97515,-0.18727,0.0,2023,6,7,16,59,20,960
47.92050,0.01295,0.00508,0.00000,0.03196,0.97576,-0.18751,0.0,2023,6,7,16,59,20,971
47.92060,0.20545,-0.02992,0.00000,0.02965,0.97417,-0.18812,0.0,2023,6,7,16,59,20,982
47.92070,0.10045,-0.16992,0.00000,0.03111,0.97759,-0.18995,0.0,2023,6,7,16,59,21,3
47.92080,0.11795,0.18008,0.00000,0.02806,0.97588,-0.18995,0.0,2023,6,7,16,59,21,14
47.92090,-0.02205,-0.30992,0.00000,0.02952,0.97771,-0.18788,0.0,2023,6,7,16,59,21,25
47.92100,-0.09205,0.07508,0.00000,0.02855,0.97868,-0.18739,0.0,2023,6,7,16,59,21,36
47.92110,-0.14455,-0.11742,0.00000,0.03184,0.97563,-0.18995,0.0,2023,6,7,16,59,21,47
47.92120,0.17045,-0.20492,0.00000,0.02977,0.97661,-0.18739,0.0,2023,6,7,16,59,21,58
47.92130,0.13545,0.18008,0.00000,0.03331,0.97673,-0.18739,0.0,2023,6,7,16,59,21,69
47.92140,0.11795,-0.08242,0.00000,0.03038,0.97649,-0.18825,0.0,2023,6,7,16,59,21,80
47.92150,-0.03955,0.26758,0.00000,0.02989,0.97881,-0.18751,0.0,2023,6,7,16,59,21,91
47.92160,0.13545,-0.16992,0.00000,0.03148,0.97576,-0.18898,0.0,2023,6,7,16,59,21,102
47.92170,-0.07455,0.19758,0.00000,0.03026,0.97515,-0.18837,0.0,2023,6,7,16,59,21,113
47.92180,0.06545,-0.02992,0.00000,0.03367,0.97685,-0.18959,0.0,2023,6,7,16,59,21,124
47.92190,0.08295,0.07508,0.00000,0.03270,0.97588,-0.18983,0.0,2023,6,7,16,59,21,135
47.92200,-0.02205,-0.34492,0.00000,0.03184,0.97502,-0.18825,0.0,2023,6,7,16,59,21,146
47.92210,-0.03955,0.04008,0.00000,0.03196,0.97807,-0.18971,0.0,2023,6,7,16,59,21,157
47.92220,0.10045,-0.13492,0.00000,0.02952,0.97588,-0.18739,0.0,2023,6,7,16,59,21,168
47.92230,-0.02205,0.00508,0.00000,0.02904,0.97734,-0.18886,0.0,2023,6,7,16,59,21,179
47.92240,0.04795,-0.01242,0.00000,0.03099,0.97502,-0.18666,0.0,2023,6,7,16,59,21,190
47.92250,-0.14455,0.04008,0.00000,0.03148,0.97429,-0.18715,0.0,2023,6,7,16,59,21,201
47.92260,-0.00455,-0.02992,0.00000,0.03111,0.97832,-0.18800,0.0,2023,6,7,16,59,21,212
47.92270,0.04795,0.04008,0.00000,0.03111,0.97771,-0.18593,0.0,2023,6,7,16,59,21,223
47.92280,-0.16205,0.11008,0.00000,0.03123,0.97722,-0.18934,0.0,2023,6,7,16,59,21,234
47.92290,0.04795,-0.04742,0.00000,0.03111,0.97698,-0.18983,0.0,2023,6,7,16,59,21,245
47.92300,-0.14455,0.02258,0.00000,0.03148,0.97527,-0.18739,0.0,2023,6,7,16,59,21,256
47.92310,-0.03955,0.16258,0.00000,0.02916,0.97624,-0.18800,0.0,2023,6,7,16,59,21,267
47.92320,0.15295,0.00508,0.00000,0.03038,0.97417,-0.18751,0.0,2023,6,7,16,59,21,278
47.92330,-0.02205,-0.01242,0.00000,0.03099,0.97600,-0.18507,0.0,2023,6,7,16,59,21,289
47.92340,-0.02205,-0.01242,0.00000,0.03221,0.97746,-0.18861,0.0,2023,6,7,16,59,21,300
47.92350,0.10045,0.05758,0.00000,0.02928,0.97637,-0.18898,0.0,2023,6,7,16,59,21,311
47.92360,0.01295,0.00508,0.00000,0.02977,0.97588,-0.18751,0.0,2023,6,7,16,59,21,322
47.92370,-0.03955,-0.06492,0.00000,0.03221,0.97868,-0.18837,0.0,2023,6,7,16,59,21,333
47.92380,0.01295,0.04008,0.00000,0.03245,0.97661,-0.18715,0.0,2023,6,7,16,59,21,344
47.92390,-0.10955,-0.08242,0.00000,0.03001,0.97759,-0.18959,0.0,2023,6,7,16,59,21,355
47.92400,0.22295,-0.11742,0.00000,0.03013,0.97649,-0.18861,0.0,2023,6,7,16,59,21,366
47.92410,-0.28455,0.11008,0.00000,0.03172,0.97441,-0.18520,0.0,2023,6,7,16,59,21,377
47.92420,-0.03955,-0.15242,0.00000,0.03172,0.97820,-0.18922,0.0,2023,6,7,16,59,21,388
47.92430,0.18795,-0.02992,0.00000,0.03367,0.97685,-0.19044,0.0,2023,6,7,16,59,21,399
47.92440,-0.26705,-0.06492,0.00000,0.03343,0.97454,-0.18727,0.0,2023,6,7,16,59,21,410
47.92450,-0.07455,-0.06492,0.00000,0.02904,0.97966,-0.19191,0.0,2023,6,7,16,59,21,421
47.92460,0.03045,0.19758,0.00000,0.03209,0.97600,-0.18922,0.0,2023,6,7,16,59,21,432
47.92470,-0.10955,-0.08242,0.00000,0.03245,0.97722,-0.18959,0.0,2023,6,7,16,59,21,443
47.92480,0.11795,0.02258,0.00000,0.03209,0.97685,-0.18934,0.0,2023,6,7,16,59,21,454
47.92490,-0.02205,-0.18742,0.00000,0.03013,0.97649,-0.18739,0.0,2023,6,7,16,59,21,465
47.92500,-0.12705,0.21508,0.00000,0.03221,0.97649,-0.18873,0.0,2023,6,7,16,59,21,476
47.92510,0.13545,-0.09992,0.00000,0.03196,0.97698,-0.18751,0.0,2023,6,7,16,59,21,487
47.92520,-0.12705,-0.01242,0.00000,0.03343,0.97685,-0.18898,0.0,2023,6,7,16,59,21,498
47.92530,0.17045,0.23258,0.00000,0.03196,0.97539,-0.19117,0.0,2023,6,7,16,59,21,509
47.92540,0.01295,0.11008,0.00000,0.03355,0.97722,-0.18764,0.0,2023,6,7,16,59,21,520
47.92550,-0.17955,0.00508,0.00000,0.02928,0.97612,-0.18800,0.0,2023,6,7,16,59,21,531
47.92560,-0.02205,0.09258,0.00000,0.03087,0.97612,-0.18812,0.0,2023,6,7,16,59,21,542
47.92570,-0.03955,0.04008,0.00000,0.02989,0.97502,-0.18581,0.0,2023,6,7,16,59,21,553
47.92580,-0.12705,0.07508,0.00000,0.03013,0.97746,-0.18873,0.0,2023,6,7,16,59,21,564
47.92590,0.08295,0.02258,0.00000,0.03001,0.97637,-0.18934,0.0,2023,6,7,16,59,21,575
47.92600,-0.16205,-0.06492,0.00000,0.03245,0.97393,-0.18678,0.0,2023,6,7,16,59,21,586
47.92610,0.11795,-0.04742,0.00000,0.03209,0.97698,-0.18666,0.0,2023,6,7,16,59,21,597
47.92620,-0.02205,-0.25742,0.00000,0.03209,0.97832,-0.18678,0.0,2023,6,7,16,59,21,608
47.92630,-0.00455,-0.01242,0.00000,0.02952,0.97722,-0.18812,0.0,2023,6,7,16,59,21,619
47.92640,0.32795,-0.13492,0.00000,0.02940,0.97490,-0.18959,0.0,2023,6,7,16,59,21,630
47.92650,0.04795,-0.06492,0.00000,0.03148,0.97576,-0.18703,0.0,2023,6,7,16,59,21,641
47.92660,-0.02205,-0.16992,0.00000,0.03172,0.97795,-0.18934,0.0,2023,6,7,16,59,21,652
47.92670,-0.03955,0.02258,0.00000,0.03209,0.97612,-0.18715,0.0,2023,6,7,16,59,21,663
47.92680,-0.12705,-0.06492,0.00000,0.03111,0.97588,-0.19020,0.0,2023,6,7,16,59,21,674
47.92690,0.11795,-0.01242,0.00000,0.02965,0.97734,-0.19044,0.0,2023,6,7,16,59,21,685
47.92700,-0.19705,0.12758,0.00000,0.02977,0.97673,-0.18666,0.0,2023,6,7,16,59,21,696
47.92710,-0.02205,0.14508,0.00000,0.03233,0.97515,-0.18934,0.0,2023,6,7,16,59,21,707
47.92720,-0.03955,0.09258,0.00000,0.02830,0.97942,-0.18873,0.0,2023,6,7,16,59,21,718
47.92730,0.08295,-0.13492,0.00000,0.03270,0.97698,-0.18861,0.0,2023,6,7,16,59,21,729
47.92740,0.04795,-0.06492,0.00000,0.03062,0.97576,-0.18715,0.0,2023,6,7,16,59,21,740
47.92750,-0.14455,0.14508,0.00000,0.03416,0.97771,-0.18690,0.0,2023,6,7,16,59,21,751
47.92760,0.06545,-0.01242,0.00000,0.03135,0.97393,-0.19069,0.0,2023,6,7,16,59,21,762
47.92770,-0.14455,0.00508,0.00000,0.03111,0.97527,-0.18849,0.0,2023,6,7,16,59,21,773
47.92780,-0.16205,0.07508,0.00000,0.03062,0.97441,-0.18922,0.0,2023,6,7,16,59,21,784
47.92790,0.01295,0.09258,0.00000,0.03160,0.97588,-0.19020,0.0,2023,6,7,16,59,21,795
47.92800,0.03045,-0.29242,0.00000,0.03392,0.97576,-0.18849,0.0,2023,6,7,16,59,21,806
47.92810,-0.14455,0.04008,0.00000,0.03172,0.97673,-0.18873,0.0,2023,6,7,16,59,21,817
47.92820,-0.14455,0.16258,0.00000,0.02965,0.97393,-0.18959,0.0,2023,6,7,16,59,21,828
47.92830,-0.10955,0.02258,0.00000,0.03160,0.97734,-0.18776,0.0,2023,6,7,16,59,21,839
47.92840,-0.09205,-0.13492,0.00000,0.03038,0.97881,-0.18739,0.0,2023,6,7,16,59,21,850
47.92850,-0.03955,0.16258,0.00000,0.03318,0.97551,-0.19008,0.0,2023,6,7,16,59,21,861
47.92860,0.04795,0.00508,0.00000,0.03184,0.97490,-0.18825,0.0,2023,6,7,16,59,21,872
47.92870,0.06545,-0.06492,0.00000,0.03245,0.97734,-0.18812,0.0,2023,6,7,16,59,21,883
47.92880,-0.05705,-0.08242,0.00000,0.02940,0.97746,-0.18739,0.0,2023,6,7,16,59,21,894
47.92890,-0.00455,-0.18742,0.00000,0.03123,0.97466,-0.18837,0.0,2023,6,7,16,59,21,905
47.92900,0.06545,-0.11742,0.00000,0.03111,0.97515,-0.18886,0.0,2023,6,7,16,59,21,916
47.92910,0.08295,-0.02992,0.00000,0.03379,0.97393,-0.18690,0.0,2023,6,7,16,59,21,927
47.92920,-0.19705,0.05758,0.00000,0.03111,0.97710,-0.18861,0.0,2023,6,7,16,59,21,938
47.92930,-0.05705,0.11008,0.00000,0.03184,0.97746,-0.18898,0.0,2023,6,7,16,59,21,949
47.92940,0.17045,-0.06492,0.00000,0.02965,0.97771,-0.18751,0.0,2023,6,7,16,59,21,960
47.92950,-0.05705,0.07508,0.00000,0.03001,0.97820,-0.18861,0.0,2023,6,7,16,59,21,971
47.92960,0.03045,0.05758,0.00000,0.02965,0.97576,-0.18739,0.0,2023,6,7,16,59,22,2
47.92970,0.01295,0.02258,0.00000,0.03221,0.97454,-0.18666,0.0,2023,6,7,16,59,22,13
47.92980,-0.12705,0.07508,0.00000,0.03196,0.97820,-0.18642,0.0,2023,6,7,16,59,22,24
47.92990,-0.05705,-0.11742,0.00000,0.03074,0.97856,-0.18690,0.0,2023,6,7,16,59,22,35
47.93000,0.04795,-0.04742,0.00000,0.03233,0.97685,-0.19117,0.0,2023,6,7,16,59,22,46
47.93010,0.08295,-0.06492,0.00000,0.03123,0.97661,-0.18922,0.0,2023,6,7,16,59,22,57
47.93020,-0.03955,0.07508,0.00000,0.03013,0.97576,-0.18910,0.0,2023,6,7,16,59,22,68
47.93030,-0.02205,0.16258,0.00000,0.02977,0.97624,-0.18910,0.0,2023,6,7,16,59,22,79
47.93040,-0.10955,0.35508,0.00000,0.03111,0.97698,-0.18873,0.0,2023,6,7,16,59,22,90
47.93050,-0.00455,0.02258,0.00000,0.03013,0.97344,-0.18959,0.0,2023,6,7,16,59,22,101
47.93060,-0.05705,0.09258,0.00000,0.03013,0.97759,-0.18922,0.0,2023,6,7,16,59,22,112
47.93070,0.11795,0.07508,0.00000,0.03270,0.97820,-0.18898,0.0,2023,6,7,16,59,22,123
47.93080,-0.03955,0.16258,0.00000,0.03135,0.97710,-0.18947,0.0,2023,6,7,16,59,22,134
47.93090,-0.10955,0.05758,0.00000,0.03331,0.97771,-0.18764,0.0,2023,6,7,16,59,22,145
47.93100,0.08295,-0.11742,0.00000,0.03379,0.97588,-0.19032,0.0,2023,6,7,16,59,22,156
47.93110,-0.05705,0.21508,0.00000,0.03050,0.97649,-0.18703,0.0,2023,6,7,16,59,22,167
47.93120,0.06545,0.07508,0.00000,0.03099,0.97673,-0.18922,0.0,2023,6,7,16,59,22,178
47.93130,-0.23205,0.37258,0.00000,0.03123,0.97734,-0.18666,0.0,2023,6,7,16,59,22,189
47.93140,0.03045,-0.04742,0.00000,0.03270,0.97685,-0.18776,0.0,2023,6,7,16,59,22,200
47.93150,-0.02205,0.02258,0.00000,0.03233,0.97698,-0.18837,0.0,2023,6,7,16,59,22,211
47.93160,-0.09205,-0.16992,0.00000,0.03026,0.97698,-0.19044,0.0,2023,6,7,16,59,22,222
47.93170,-0.07455,0.11008,0.00000,0.03257,0.97624,-0.18873,0.0,2023,6,7,16,59,22,233
47.93180,0.32795,-0.15242,0.00000,0.03428,0.97795,-0.18715,0.0,2023,6,7,16,59,22,244
47.93190,0.20545,0.04008,0.00000,0.03160,0.97637,-0.18678,0.0,2023,6,7,16,59,22,255
47.93200,-0.05705,-0.06492,0.00000,0.02965,0.97637,-0.18727,0.0,2023,6,7,16,59,22,266
47.93210,-0.03955,0.05758,0.00000,0.03050,0.97832,-0.18995,0.0,2023,6,7,16,59,22,277
47.93220,0.03045,-0.04742,0.00000,0.03172,0.97490,-0.18764,0.0,2023,6,7,16,59,22,288
47.93230,-0.00455,0.09258,0.00000,0.03148,0.97710,-0.18971,0.0,2023,6,7,16,59,22,299
47.93240,-0.23205,-0.18742,0.00000,0.03233,0.97893,-0.18837,0.0,2023,6,7,16,59,22,310
47.93250,-0.09205,0.07508,0.00000,0.03074,0.97393,-0.18873,0.0,2023,6,7,16,59,22,321
47.93260,-0.05705,-0.09992,0.00000,0.03135,0.97600,-0.18776,0.0,2023,6,7,16,59,22,332
47.93270,-0.17955,-0.01242,0.00000,0.02818,0.97685,-0.18727,0.0,2023,6,7,16,59,22,343
47.93280,-0.05705,0.00508,0.00000,0.02989,0.97844,-0.18898,0.0,2023,6,7,16,59,22,354
47.93290,0.17045,-0.04742,0.00000,0.03318,0.97576,-0.18751,0.0,2023,6,7,16,59,22,365
47.93300,-0.05705,0.00508,0.00000,0.03001,0.97454,-0.18727,0.0,2023,6,7,16,59,22,376
47.93310,0.03045,-0.16992,0.00000,0.03160,0.97539,-0.18776,0.0,2023,6,7,16,59,22,387
47.93320,-0.16205,-0.15242,0.00000,0.03148,0.97832,-0.18581,0.0,2023,6,7,16,59,22,398
47.93330,-0.24955,0.32008,0.00000,0.03013,0.97600,-0.18739,0.0,2023,6,7,16,59,22,409
47.93340,0.11795,-0.11742,0.00000,0.03135,0.97649,-0.18947,0.0,2023,6,7,16,59,22,420
47.93350,-0.10955,-0.04742,0.00000,0.03245,0.97539,-0.18581,0.0,2023,6,7,16,59,22,431
47.93360,-0.12705,-0.02992,0.00000,0.03270,0.97624,-0.18873,0.0,2023,6,7,16,59,22,442
47.93370,0.04795,-0.08242,0.00000,0.03294,0.97344,-0.19044,0.0,2023,6,7,16,59,22,453
47.93380,0.01295,-0.04742,0.00000,0.03367,0.97759,-0.18837,0.0,2023,6,7,16,59,22,464
47.93390,0.03045,0.00508,0.00000,0.03196,0.97685,-0.18934,0.0,2023,6,7,16,59,22,475
47.93400,0.06545,-0.04742,0.00000,0.02904,0.97356,-0.18910,0.0,2023,6,7,16,59,22,486
47.93410,-0.24955,0.23258,0.00000,0.03160,0.97563,-0.18703,0.0,2023,6,7,16,59,22,497
47.93420,-0.26705,0.09258,0.00000,0.02989,0.97539,-0.18764,0.0,2023,6,7,16,59,22,508
47.93430,-0.14455,0.04008,0.00000,0.03148,0.97466,-0.18947,0.0,2023,6,7,16,59,22,519
47.93440,0.04795,0.02258,0.00000,0.03282,0.97807,-0.19154,0.0,2023,6,7,16,59,22,530
47.93450,0.10045,-0.04742,0.00000,0.02867,0.97649,-0.19008,0.0,2023,6,7,16,59,22,541
47.93460,-0.33705,-0.01242,0.00000,0.03172,0.97490,-0.18520,0.0,2023,6,7,16,59,22,552
47.93470,-0.03955,-0.11742,0.00000,0.03062,0.97673,-0.18788,0.0,2023,6,7,16,59,22,563
47.93480,0.27545,-0.08242,0.00000,0.03270,0.97502,-0.18861,0.0,2023,6,7,16,59,22,574
47.93490,0.06545,-0.02992,0.00000,0.03184,0.97673,-0.18825,0.0,2023,6,7,16,59,22,585
47.93500,-0.26705,-0.08242,0.00000,0.02867,0.97637,-0.18861,0.0,2023,6,7,16,59,22,596
47.93510,0.24045,-0.02992,0.00000,0.03123,0.97673,-0.18751,0.0,2023,6,7,16,59,22,607
47.93520,-0.17955,0.04008,0.00000,0.03013,0.97637,-0.18544,0.0,2023,6,7,16,59,22,618
47.93530,-0.07455,-0.04742,0.00000,0.03318,0.97502,-0.18825,0.0,2023,6,7,16,59,22,629
47.93540,0.32795,0.00508,0.00000,0.03184,0.97612,-0.18971,0.0,2023,6,7,16,59,22,640
47.93550,-0.07455,-0.01242,0.00000,0.03221,0.97563,-0.18812,0.0,2023,6,7,16,59,22,651
47.93560,-0.24955,0.07508,0.00000,0.03172,0.97490,-0.18764,0.0,2023,6,7,16,59,22,662
47.93570,0.22295,-0.22242,0.00000,0.03135,0.97649,-0.19081,0.0,2023,6,7,16,59,22,673
47.93580,0.06545,-0.09992,0.00000,0.03172,0.97515,-0.18715,0.0,2023,6,7,16,59,22,684
47.93590,-0.30205,0.04008,0.00000,0.02989,0.97649,-0.18849,0.0,2023,6,7,16,59,22,695
47.93600,-0.00455,-0.02992,0.00000,0.02965,0.97722,-0.18898,0.0,2023,6,7,16,59,22,706
47.93610,0.17045,0.00508,0.00000,0.02989,0.97624,-0.18849,0.0,2023,6,7,16,59,22,717
47.93620,0.08295,0.05758,0.00000,0.03233,0.97649,-0.18690,0.0,2023,6,7,16,59,22,728
47.93630,0.11795,-0.15242,0.00000,0.03160,0.97563,-0.18873,0.0,2023,6,7,16,59,22,739
47.93640,-0.07455,0.23258,0.00000,0.03209,0.97502,-0.18800,0.0,2023,6,7,16,59,22,750
47.93650,-0.05705,0.00508,0.00000,0.02940,0.97685,-0.18934,0.0,2023,6,7,16,59,22,761
47.93660,-0.03955,-0.04742,0.00000,0.03087,0.97417,-0.18678,0.0,2023,6,7,16,59,22,772
47.93670,-0.10955,-0.04742,0.00000,0.03111,0.97649,-0.18593,0.0,2023,6,7,16,59,22,783
47.93680,-0.02205,0.12758,0.00000,0.03074,0.97710,-0.18800,0.0,2023,6,7,16,59,22,794
47.93690,0.10045,-0.06492,0.00000,0.03379,0.97649,-0.18703,0.0,2023,6,7,16,59,22,805
47.93700,0.15295,-0.13492,0.00000,0.03087,0.97661,-0.18812,0.0,2023,6,7,16,59,22,816
47.93710,0.06545,-0.09992,0.00000,0.02916,0.97563,-0.18715,0.0,2023,6,7,16,59,22,827
47.93720,0.11795,-0.02992,0.00000,0.03379,0.97881,-0.18800,0.0,2023,6,7,16,59,22,838
47.93730,-0.02205,0.12758,0.00000,0.03306,0.97759,-0.18690,0.0,2023,6,7,16,59,22,849
47.93740,-0.09205,-0.06492,0.00000,0.03062,0.97746,-0.18605,0.0,2023,6,7,16,59,22,860
47.93750,0.10045,0.16258,0.00000,0.03099,0.97673,-0.18849,0.0,2023,6,7,16,59,22,871
47.93760,0.20545,-0.20492,0.00000,0.03074,0.97502,-0.18776,0.0,2023,6,7,16,59,22,882
47.93770,-0.19705,0.05758,0.00000,0.03282,0.97807,-0.18593,0.0,2023,6,7,16,59,22,893
47.93780,0.08295,-0.04742,0.00000,0.03294,0.97527,-0.18727,0.0,2023,6,7,16,59,22,904
47.93790,0.17045,0.02258,0.00000,0.03087,0.97624,-0.19069,0.0,2023,6,7,16,59,22,915
47.93800,0.06545,-0.18742,0.00000,0.03233,0.97490,-0.18495,0.0,2023,6,7,16,59,22,926
47.93810,-0.12705,-0.08242,0.00000,0.02928,0.97637,-0.18739,0.0,2023,6,7,16,59,22,937
47.93820,0.01295,0.07508,0.00000,0.03038,0.97759,-0.18837,0.0,2023,6,7,16,59,22,948
47.93830,0.01295,-0.02992,0.00000,0.03135,0.97795,-0.18812,0.0,2023,6,7,16,59,22,959
47.93840,-0.21455,0.18008,0.00000,0.03013,0.97795,-0.18800,0.0,2023,6,7,16,59,22,970
47.93850,-0.02205,0.00508,0.00000,0.03135,0.97746,-0.18703,0.0,2023,6,7,16,59,22,981
47.93860,0.01295,-0.13492,0.00000,0.02977,0.97746,-0.18642,0.0,2023,6,7,16,59,23,2
47.93870,-0.10955,0.14508,0.00000,0.02977,0.97661,-0.18922,0.0,2023,6,7,16,59,23,13
47.93880,0.10045,-0.11742,0.00000,0.03038,0.97563,-0.18715,0.0,2023,6,7,16,59,23,24
47.93890,0.01295,0.18008,0.00000,0.03062,0.97746,-0.18947,0.0,2023,6,7,16,59,23,35
47.93900,-0.23205,-0.15242,0.00000,0.03148,0.97722,-0.18703,0.0,2023,6,7,16,59,23,46
47.93910,-0.03955,-0.15242,0.00000,0.03074,0.97417,-0.18861,0.0,2023,6,7,16,59,23,57
47.93920,-0.21455,0.00508,0.00000,0.03257,0.97722,-0.18898,0.0,2023,6,7,16,59,23,68
47.93930,0.17045,-0.06492,0.00000,0.03062,0.97661,-0.18764,0.0,2023,6,7,16,59,23,79
47.93940,-0.12705,-0.13492,0.00000,0.03050,0.97771,-0.18605,0.0,2023,6,7,16,59,23,90
47.93950,0.15295,0.00508,0.00000,0.03099,0.97649,-0.18873,0.0,2023,6,7,16,59,23,101
47.93960,0.10045,-0.27492,0.00000,0.03209,0.97502,-0.18715,0.0,2023,6,7,16,59,23,112
47.93970,-0.03955,0.16258,0.00000,0.03148,0.97624,-0.18642,0.0,2023,6,7,16,59,23,123
47.93980,0.13545,-0.01242,0.00000,0.03087,0.97795,-0.19020,0.0,2023,6,7,16,59,23,134
47.93990,0.01295,0.02258,0.00000,0.03062,0.97588,-0.18837,0.0,2023,6,7,16,59,23,145
47.94000,-0.09205,-0.18742,0.00000,0.03001,0.97649,-0.18605,0.0,2023,6,7,16,59,23,156
47.94010,0.08295,0.18008,0.00000,0.03123,0.97820,-0.18800,0.0,2023,6,7,16,59,23,167
47.94020,0.18795,-0.06492,0.00000,0.03062,0.97771,-0.18812,0.0,2023,6,7,16,59,23,178
47.94030,0.17045,-0.18742,0.00000,0.03160,0.97698,-0.18666,0.0,2023,6,7,16,59,23,189
47.94040,0.03045,0.02258,0.00000,0.03209,0.97624,-0.18995,0.0,2023,6,7,16,59,23,200
47.94050,-0.12705,0.18008,0.00000,0.03282,0.97771,-0.18764,0.0,2023,6,7,16,59,23,211
47.94060,-0.14455,0.09258,0.00000,0.03221,0.97698,-0.18947,0.0,2023,6,7,16,59,23,222
47.94070,-0.07455,0.00508,0.00000,0.03270,0.97563,-0.19191,0.0,2023,6,7,16,59,23,233
47.94080,0.01295,0.11008,0.00000,0.03148,0.97795,-0.18654,0.0,2023,6,7,16,59,23,244
47.94090,0.08295,0.09258,0.00000,0.03026,0.97624,-0.18800,0.0,2023,6,7,16,59,23,255
47.94100,-0.00455,-0.04742,0.00000,0.03099,0.97673,-0.18812,0.0,2023,6,7,16,59,23,266
47.94110,0.10045,0.04008,0.00000,0.03379,0.97759,-0.18898,0.0,2023,6,7,16,59,23,277
47.94120,0.11795,-0.04742,0.00000,0.02952,0.97490,-0.18849,0.0,2023,6,7,16,59,23,288
47.94130,0.06545,0.11008,0.00000,0.03087,0.97722,-0.18764,0.0,2023,6,7,16,59,23,299
47.94140,0.11795,0.02258,0.00000,0.03038,0.97576,-0.18971,0.0,2023,6,7,16,59,23,310
47.94150,0.01295,0.21508,0.00000,0.03257,0.97649,-0.18703,0.0,2023,6,7,16,59,23,321
47.94160,0.13545,-0.27492,0.00000,0.03294,0.97759,-0.18703,0.0,2023,6,7,16,59,23,332
47.94170,0.11795,-0.13492,0.00000,0.03196,0.97612,-0.18751,0.0,2023,6,7,16,59,23,343
47.94180,0.13545,0.00508,0.00000,0.03111,0.97454,-0.18739,0.0,2023,6,7,16,59,23,354
47.94190,-0.12705,0.12758,0.00000,0.02989,0.97685,-0.18825,0.0,2023,6,7,16,59,23,365
47.94200,0.01295,-0.13492,0.00000,0.03099,0.97502,-0.18934,0.0,2023,6,7,16,59,23,376
47.94210,-0.16205,0.19758,0.00000,0.03209,0.97551,-0.18922,0.0,2023,6,7,16,59,23,387
47.94220,0.06545,0.18008,0.00000,0.03123,0.97881,-0.18764,0.0,2023,6,7,16,59,23,398
47.94230,-0.00455,-0.22242,0.00000,0.02928,0.97649,-0.18886,0.0,2023,6,7,16,59,23,409
47.94240,0.04795,0.00508,0.00000,0.03245,0.97344,-0.18727,0.0,2023,6,7,16,59,23,420
47.94250,0.15295,0.07508,0.00000,0.03087,0.97673,-0.18788,0.0,2023,6,7,16,59,23,431
47.94260,0.08295,0.00508,0.00000,0.02977,0.97649,-0.18873,0.0,2023,6,7,16,59,23,442
47.94270,-0.12705,0.04008,0.00000,0.03074,0.97563,-0.18812,0.0,2023,6,7,16,59,23,453
47.94280,-0.10955,-0.08242,0.00000,0.03172,0.97807,-0.18825,0.0,2023,6,7,16,59,23,464
47.94290,0.01295,0.12758,0.00000,0.02940,0.97759,-0.18837,0.0,2023,6,7,16,59,23,475
47.94300,0.11795,-0.02992,0.00000,0.03135,0.97649,-0.18764,0.0,2023,6,7,16,59,23,486
47.94310,-0.07455,-0.06492,0.00000,0.02940,0.97734,-0.18764,0.0,2023,6,7,16,59,23,497
47.94320,-0.12705,-0.15242,0.00000,0.03392,0.97454,-0.18629,0.0,2023,6,7,16,59,23,508
47.94330,-0.02205,-0.08242,0.00000,0.03111,0.97734,-0.18678,0.0,2023,6,7,16,59,23,519
47.94340,0.13545,-0.01242,0.00000,0.03245,0.97820,-0.18995,0.0,2023,6,7,16,59,23,530
47.94350,-0.09205,0.05758,0.00000,0.03160,0.97624,-0.18825,0.0,2023,6,7,16,59,23,541
47.94360,-0.09205,0.09258,0.00000,0.03221,0.97417,-0.18861,0.0,2023,6,7,16,59,23,552
47.94370,-0.07455,0.18008,0.00000,0.02891,0.97685,-0.18983,0.0,2023,6,7,16,59,23,563
47.94380,-0.05705,-0.13492,0.00000,0.03050,0.97710,-0.18727,0.0,2023,6,7,16,59,23,574
47.94390,-0.00455,-0.11742,0.00000,0.03087,0.97759,-0.18959,0.0,2023,6,7,16,59,23,585
47.94400,-0.12705,-0.09992,0.00000,0.03001,0.97783,-0.18495,0.0,2023,6,7,16,59,23,596
47.94410,0.10045,0.02258,0.00000,0.03196,0.97783,-0.18751,0.0,2023,6,7,16,59,23,607
47.94420,-0.09205,0.02258,0.00000,0.03013,0.97490,-0.18776,0.0,2023,6,7,16,59,23,618
47.94430,0.17045,-0.30992,0.00000,0.03013,0.97612,-0.18593,0.0,2023,6,7,16,59,23,629
47.94440,0.06545,-0.11742,0.00000,0.03099,0.97881,-0.18837,0.0,2023,6,7,16,59,23,640
47.94450,0.13545,-0.29242,0.00000,0.03172,0.97600,-0.18825,0.0,2023,6,7,16,59,23,651
47.94460,-0.09205,0.07508,0.00000,0.03111,0.97698,-0.18764,0.0,2023,6,7,16,59,23,662
47.94470,-0.05705,-0.01242,0.00000,0.03062,0.97856,-0.18861,0.0,2023,6,7,16,59,23,673
47.94480,0.06545,0.04008,0.00000,0.02952,0.97563,-0.18751,0.0,2023,6,7,16,59,23,684
47.94490,-0.05705,-0.11742,0.00000,0.03209,0.97515,-0.18715,0.0,2023,6,7,16,59,23,695
47.94500,0.01295,-0.01242,0.00000,0.03135,0.97820,-0.18678,0.0,2023,6,7,16,59,23,706
47.94510,0.06545,0.09258,0.00000,0.03050,0.97759,-0.18886,0.0,2023,6,7,16,59,23,717
47.94520,-0.26705,-0.01242,0.00000,0.03233,0.97295,-0.18703,0.0,2023,6,7,16,59,23,728
47.94530,-0.14455,0.09258,0.00000,0.03123,0.97759,-0.18886,0.0,2023,6,7,16,59,23,739
47.94540,-0.02205,-0.18742,0.00000,0.03111,0.97734,-0.18739,0.0,2023,6,7,16,59,23,750
47.94550,-0.05705,0.00508,0.00000,0.02928,0.97612,-0.18751,0.0,2023,6,7,16,59,23,761
47.94560,0.06545,0.12758,0.00000,0.03099,0.97502,-0.18800,0.0,2023,6,7,16,59,23,772
47.94570,0.08295,0.09258,0.00000,0.03282,0.97734,-0.18825,0.0,2023,6,7,16,59,23,783
47.94580,-0.14455,0.23258,0.00000,0.03306,0.97612,-0.18812,0.0,2023,6,7,16,59,23,794
47.94590,0.03045,0.05758,0.00000,0.02904,0.97673,-0.18861,0.0,2023,6,7,16,59,23,805
47.94600,0.27545,-0.09992,0.00000,0.03026,0.97673,-0.18898,0.0,2023,6,7,16,59,23,816
47.94610,-0.07455,-0.22242,0.00000,0.03196,0.97795,-0.18886,0.0,2023,6,7,16,59,23,827
47.94620,0.04795,0.11008,0.00000,0.03135,0.97588,-0.18666,0.0,2023,6,7,16,59,23,838
47.94630,0.11795,-0.01242,0.00000,0.03184,0.97771,-0.18678,0.0,2023,6,7,16,59,23,849
47.94640,0.04795,-0.02992,0.00000,0.03160,0.97417,-0.18910,0.0,2023,6,7,16,59,23,860
47.94650,-0.10955,-0.08242,0.00000,0.03135,0.97563,-0.18947,0.0,2023,6,7,16,59,23,871
47.94660,0.11795,-0.16992,0.00000,0.03306,0.97759,-0.18727,0.0,2023,6,7,16,59,23,882
47.94670,-0.23205,-0.16992,0.00000,0.03001,0.97649,-0.18898,0.0,2023,6,7,16,59,23,893
47.94680,0.03045,0.09258,0.00000,0.02952,0.97600,-0.19008,0.0,2023,6,7,16,59,23,904
47.94690,0.04795,-0.11742,0.00000,0.03331,0.97820,-0.18629,0.0,2023,6,7,16,59,23,915
47.94700,0.01295,0.12758,0.00000,0.03416,0.97844,-0.18800,0.0,2023,6,7,16,59,23,926
47.94710,-0.12705,0.02258,0.00000,0.03160,0.97771,-0.18873,0.0,2023,6,7,16,59,23,937
47.94720,-0.00455,0.05758,0.00000,0.03099,0.97600,-0.18727,0.0,2023,6,7,16,59,23,948
47.94730,-0.05705,0.04008,0.00000,0.03111,0.97698,-0.18886,0.0,2023,6,7,16,59,23,959
47.94740,-0.16205,-0.11742,0.00000,0.02989,0.97576,-0.18873,0.0,2023,6,7,16,59,23,970
47.94750,0.13545,-0.30992,0.00000,0.03050,0.97795,-0.18642,0.0,2023,6,7,16,59,23,981
47.94760,0.03045,0.09258,0.00000,0.03135,0.97722,-0.18971,0.0,2023,6,7,16,59,23,992
47.94770,0.36295,-0.18742,0.00000,0.03184,0.97710,-0.18886,0.0,2023,6,7,16,59,24,3
47.94780,-0.23205,0.00508,0.00000,0.03233,0.97551,-0.18788,0.0,2023,6,7,16,59,24,14
47.94790,-0.09205,0.04008,0.00000,0.03282,0.97881,-0.18886,0.0,2023,6,7,16,59,24,25
47.94800,0.03045,0.16258,0.00000,0.03355,0.97356,-0.18800,0.0,2023,6,7,16,59,24,36
47.94810,0.13545,-0.13492,0.00000,0.03184,0.97710,-0.19032,0.0,2023,6,7,16,59,24,47
47.94820,-0.07455,-0.06492,0.00000,0.03074,0.97649,-0.18886,0.0,2023,6,7,16,59,24,58
47.94830,-0.00455,0.02258,0.00000,0.03038,0.97649,-0.18483,0.0,2023,6,7,16,59,24,69
47.94840,-0.02205,-0.16992,0.00000,0.02989,0.97734,-0.18739,0.0,2023,6,7,16,59,24,80
47.94850,0.04795,0.23258,0.00000,0.03233,0.97698,-0.18995,0.0,2023,6,7,16,59,24,91
47.94860,0.06545,0.04008,0.00000,0.03099,0.97502,-0.19044,0.0,2023,6,7,16,59,24,102
47.94870,0.08295,-0.04742,0.00000,0.03257,0.97637,-0.18678,0.0,2023,6,7,16,59,24,113
47.94880,-0.03955,-0.02992,0.00000,0.03123,0.97551,-0.18764,0.0,2023,6,7,16,59,24,124
47.94890,-0.14455,0.02258,0.00000,0.02952,0.97673,-0.18898,0.0,2023,6,7,16,59,24,135
47.94900,0.06545,-0.08242,0.00000,0.03160,0.97710,-0.18776,0.0,2023,6,7,16,59,24,146
47.94910,0.01295,-0.16992,0.00000,0.03001,0.97929,-0.18886,0.0,2023,6,7,16,59,24,157
47.94920,-0.16205,0.04008,0.00000,0.03306,0.97612,-0.18910,0.0,2023,6,7,16,59,24,168
47.94930,-0.00455,0.04008,0.00000,0.03123,0.97685,-0.18849,0.0,2023,6,7,16,59,24,179
47.94940,0.03045,-0.09992,0.00000,0.03257,0.97661,-0.18751,0.0,2023,6,7,16,59,24,190
47.94950,0.10045,-0.11742,0.00000,0.03099,0.97637,-0.18629,0.0,2023,6,7,16,59,24,201
47.94960,-0.12705,0.00508,0.00000,0.03294,0.97624,-0.18910,0.0,2023,6,7,16,59,24,212
47.94970,-0.19705,-0.04742,0.00000,0.03050,0.97600,-0.18764,0.0,2023,6,7,16,59,24,223
47.94980,0.03045,0.09258,0.00000,0.03099,0.97673,-0.18800,0.0,2023,6,7,16,59,24,234
47.94990,0.08295,0.11008,0.00000,0.03331,0.97685,-0.19154,0.0,2023,6,7,16,59,24,245
47.95000,0.11795,-0.13492,0.00000,0.03001,0.97637,-0.18995,0.0,2023,6,7,16,59,24,256
47.95010,-0.07455,0.05758,0.00000,0.03257,0.97868,-0.18532,0.0,2023,6,7,16,59,24,267
47.95020,-0.17955,0.14508,0.00000,0.03306,0.97661,-0.18507,0.0,2023,6,7,16,59,24,278
47.95030,-0.02205,0.11008,0.00000,0.03209,0.97795,-0.18739,0.0,2023,6,7,16,59,24,289
47.95040,0.20545,-0.13492,0.00000,0.03062,0.97600,-0.19056,0.0,2023,6,7,16,59,24,300
47.95050,0.11795,0.04008,0.00000,0.03331,0.97771,-0.18788,0.0,2023,6,7,16,59,24,311
47.95060,-0.02205,0.09258,0.00000,0.03172,0.97588,-0.18617,0.0,2023,6,7,16,59,24,322
47.95070,-0.05705,0.11008,0.00000,0.03196,0.97624,-0.18788,0.0,2023,6,7,16,59,24,333
47.95080,0.01295,0.00508,0.00000,0.03111,0.97417,-0.18703,0.0,2023,6,7,16,59,24,344
47.95090,-0.12705,0.05758,0.00000,0.03209,0.97783,-0.18886,0.0,2023,6,7,16,59,24,355
47.95100,0.06545,-0.11742,0.00000,0.03306,0.97661,-0.18849,0.0,2023,6,7,16,59,24,366
47.95110,0.01295,0.07508,0.00000,0.03087,0.97624,-0.18751,0.0,2023,6,7,16,59,24,377
47.95120,-0.00455,-0.22242,0.00000,0.03172,0.97539,-0.18861,0.0,2023,6,7,16,59,24,388
47.95130,-0.21455,-0.11742,0.00000,0.03135,0.97551,-0.18947,0.0,2023,6,7,16,59,24,399
47.95140,0.08295,-0.11742,0.00000,0.02916,0.97502,-0.18922,0.0,2023,6,7,16,59,24,410
47.95150,-0.02205,-0.01242,0.00000,0.03038,0.97527,-0.18800,0.0,2023,6,7,16,59,24,421
47.95160,0.01295,0.04008,0.00000,0.02989,0.97820,-0.18764,0.0,2023,6,7,16,59,24,432
47.95170,-0.14455,-0.11742,0.00000,0.02989,0.97551,-0.18788,0.0,2023,6,7,16,59,24,443
47.95180,-0.07455,-0.08242,0.00000,0.03172,0.97685,-0.18873,0.0,2023,6,7,16,59,24,454
47.95190,0.17045,-0.08242,0.00000,0.03282,0.97710,-0.19093,0.0,2023,6,7,16,59,24,465
47.95200,0.15295,-0.09992,0.00000,0.03123,0.97807,-0.18959,0.0,2023,6,7,16,59,24,476
47.95210,-0.26705,0.28508,0.00000,0.03013,0.97600,-0.18532,0.0,2023,6,7,16,59,24,487
47.95220,-0.05705,0.09258,0.00000,0.03209,0.97917,-0.18776,0.0,2023,6,7,16,59,24,498
47.95230,0.03045,-0.16992,0.00000,0.02965,0.97588,-0.18812,0.0,2023,6,7,16,59,24,509
47.95240,-0.14455,0.18008,0.00000,0.03013,0.97624,-0.18812,0.0,2023,6,7,16,59,24,520
47.95250,0.01295,-0.06492,0.00000,0.03099,0.97698,-0.18898,0.0,2023,6,7,16,59,24,531
47.95260,-0.07455,0.02258,0.00000,0.03099,0.97710,-0.18568,0.0,2023,6,7,16,59,24,542
47.95270,0.06545,-0.13492,0.00000,0.03123,0.97746,-0.18715,0.0,2023,6,7,16,59,24,553
47.95280,0.01295,0.14508,0.00000,0.03013,0.97624,-0.18934,0.0,2023,6,7,16,59,24,564
47.95290,0.04795,0.12758,0.00000,0.03111,0.97502,-0.18898,0.0,2023,6,7,16,59,24,575
47.95300,-0.07455,-0.06492,0.00000,0.02940,0.97734,-0.18910,0.0,2023,6,7,16,59,24,586
47.95310,-0.19705,0.14508,0.00000,0.03026,0.97466,-0.19056,0.0,2023,6,7,16,59,24,597
47.95320,0.13545,-0.22242,0.00000,0.03196,0.97527,-0.18861,0.0,2023,6,7,16,59,24,608
47.95330,0.11795,-0.01242,0.00000,0.03001,0.97698,-0.18837,0.0,2023,6,7,16,59,24,619
47.95340,-0.07455,0.00508,0.00000,0.03257,0.97551,-0.18605,0.0,2023,6,7,16,59,24,630
47.95350,-0.02205,-0.16992,0.00000,0.03123,0.97502,-0.18666,0.0,2023,6,7,16,59,24,641
47.95360,-0.14455,0.11008,0.00000,0.03172,0.97551,-0.18849,0.0,2023,6,7,16,59,24,652
47.95370,-0.07455,0.11008,0.00000,0.03209,0.97612,-0.18532,0.0,2023,6,7,16,59,24,663
47.95380,-0.14455,-0.01242,0.00000,0.03050,0.97710,-0.18886,0.0,2023,6,7,16,59,24,674
47.95390,-0.02205,0.05758,0.00000,0.03087,0.97734,-0.18971,0.0,2023,6,7,16,59,24,685
47.95400,-0.02205,0.09258,0.00000,0.03038,0.97771,-0.18922,0.0,2023,6,7,16,59,24,696
47.95410,0.10045,-0.25742,0.00000,0.03294,0.97588,-0.18690,0.0,2023,6,7,16,59,24,707
47.95420,-0.09205,-0.04742,0.00000,0.03172,0.97612,-0.18654,0.0,2023,6,7,16,59,24,718
47.95430,0.03045,0.00508,0.00000,0.03172,0.97771,-0.18947,0.0,2023,6,7,16,59,24,729
47.95440,0.03045,-0.13492,0.00000,0.02904,0.97820,-0.18776,0.0,2023,6,7,16,59,24,740
47.95450,0.08295,-0.04742,0.00000,0.03196,0.97515,-0.18605,0.0,2023,6,7,16,59,24,751
47.95460,0.10045,0.05758,0.00000,0.02989,0.97698,-0.18642,0.0,2023,6,7,16,59,24,762
47.95470,-0.23205,0.04008,0.00000,0.03074,0.97832,-0.18825,0.0,2023,6,7,16,59,24,773
47.95480,0.24045,-0.09992,0.00000,0.03001,0.97661,-0.18764,0.0,2023,6,7,16,59,24,784
47.95490,0.08295,-0.04742,0.00000,0.02989,0.97515,-0.18727,0.0,2023,6,7,16,59,24,795
47.95500,-0.05705,0.18008,0.00000,0.03221,0.97441,-0.19105,0.0,2023,6,7,16,59,24,806
47.95510,0.15295,-0.04742,0.00000,0.03196,0.97478,-0.18886,0.0,2023,6,7,16,59,24,817
47.95520,0.03045,-0.16992,0.00000,0.03099,0.97673,-0.18898,0.0,2023,6,7,16,59,24,828
47.95530,0.08295,0.05758,0.00000,0.03160,0.97624,-0.19142,0.0,2023,6,7,16,59,24,839
47.95540,0.10045,0.00508,0.00000,0.02952,0.97759,-0.18873,0.0,2023,6,7,16,59,24,850
47.95550,-0.09205,-0.04742,0.00000,0.03416,0.97795,-0.18910,0.0,2023,6,7,16,59,24,861
47.95560,-0.16205,0.05758,0.00000,0.03160,0.97759,-0.18581,0.0,2023,6,7,16,59,24,872
47.95570,0.03045,0.00508,0.00000,0.03160,0.97417,-0.18764,0.0,2023,6,7,16,59,24,883
47.95580,0.08295,-0.09992,0.00000,0.03233,0.97673,-0.18898,0.0,2023,6,7,16,59,24,894
47.95590,0.01295,0.05758,0.00000,0.03184,0.97698,-0.18593,0.0,2023,6,7,16,59,24,905
47.95600,0.06545,0.14508,0.00000,0.02928,0.97624,-0.18654,0.0,2023,6,7,16,59,24,916
47.95610,0.15295,-0.22242,0.00000,0.03209,0.97868,-0.18690,0.0,2023,6,7,16,59,24,927
47.95620,0.01295,-0.16992,0.00000,0.03123,0.97502,-0.18581,0.0,2023,6,7,16,59,24,938
47.95630,-0.05705,-0.01242,0.00000,0.03111,0.97759,-0.18556,0.0,2023,6,7,16,59,24,949
47.95640,-0.07455,0.02258,0.00000,0.03074,0.97624,-0.18703,0.0,2023,6,7,16,59,24,960
47.95650,-0.03955,0.02258,0.00000,0.03099,0.97624,-0.18715,0.0,2023,6,7,16,59,24,971
47.95660,-0.03955,0.04008,0.00000,0.03282,0.97746,-0.18727,0.0,2023,6,7,16,59,25,2
47.95670,-0.10955,0.04008,0.00000,0.03209,0.97637,-0.18837,0.0,2023,6,7,16,59,25,13
47.95680,0.06545,0.00508,0.00000,0.03135,0.97734,-0.18690,0.0,2023,6,7,16,59,25,24
47.95690,0.13545,0.14508,0.00000,0.03172,0.97600,-0.18800,0.0,2023,6,7,16,59,25,35
47.95700,0.06545,-0.18742,0.00000,0.03172,0.97698,-0.18849,0.0,2023,6,7,16,59,25,46
47.95710,0.13545,-0.11742,0.00000,0.03123,0.97795,-0.18776,0.0,2023,6,7,16,59,25,57
47.95720,-0.00455,0.00508,0.00000,0.03355,0.97685,-0.18617,0.0,2023,6,7,16,59,25,68
47.95730,-0.12705,0.00508,0.00000,0.03209,0.97563,-0.18629,0.0,2023,6,7,16,59,25,79
47.95740,-0.14455,-0.08242,0.00000,0.03123,0.97624,-0.18934,0.0,2023,6,7,16,59,25,90
47.95750,0.27545,0.02258,0.00000,0.02952,0.97624,-0.18910,0.0,2023,6,7,16,59,25,101
47.95760,0.04795,-0.15242,0.00000,0.02891,0.97661,-0.18776,0.0,2023,6,7,16,59,25,112
47.95770,-0.05705,0.07508,0.00000,0.03355,0.97515,-0.18776,0.0,2023,6,7,16,59,25,123
47.95780,-0.14455,0.07508,0.00000,0.03074,0.97698,-0.18617,0.0,2023,6,7,16,59,25,134
47.95790,0.10045,-0.15242,0.00000,0.03160,0.97881,-0.18703,0.0,2023,6,7,16,59,25,145
47.95800,0.08295,0.02258,0.00000,0.03135,0.97759,-0.19178,0.0,2023,6,7,16,59,25,156
47.95810,-0.02205,0.00508,0.00000,0.03001,0.97551,-0.18739,0.0,2023,6,7,16,59,25,167
47.95820,-0.03955,-0.06492,0.00000,0.03245,0.97490,-0.18776,0.0,2023,6,7,16,59,25,178
47.95830,-0.07455,-0.02992,0.00000,0.03294,0.97698,-0.18898,0.0,2023,6,7,16,59,25,189
47.95840,0.11795,0.02258,0.00000,0.03135,0.97746,-0.18825,0.0,2023,6,7,16,59,25,200
47.95850,-0.14455,0.07508,0.00000,0.03196,0.97393,-0.18654,0.0,2023,6,7,16,59,25,211
47.95860,-0.03955,0.00508,0.00000,0.03013,0.97673,-0.18654,0.0,2023,6,7,16,59,25,222
47.95870,0.04795,-0.02992,0.00000,0.03184,0.97612,-0.18849,0.0,2023,6,7,16,59,25,233
47.95880,-0.14455,-0.09992,0.00000,0.03013,0.97441,-0.18727,0.0,2023,6,7,16,59,25,244
47.95890,-0.03955,-0.08242,0.00000,0.03087,0.97563,-0.19056,0.0,2023,6,7,16,59,25,255
47.95900,0.36295,-0.16992,0.00000,0.03135,0.97722,-0.18776,0.0,2023,6,7,16,59,25,266
47.95910,-0.35455,-0.13492,0.00000,0.03026,0.97393,-0.18581,0.0,2023,6,7,16,59,25,277
47.95920,-0.10955,-0.02992,0.00000,0.03172,0.97832,-0.19044,0.0,2023,6,7,16,59,25,288
47.95930,0.03045,0.23258,0.00000,0.03294,0.97734,-0.18459,0.0,2023,6,7,16,59,25,299
47.95940,-0.30205,0.02258,0.00000,0.03001,0.97576,-0.18873,0.0,2023,6,7,16,59,25,310
47.95950,0.06545,0.18008,0.00000,0.03111,0.97466,-0.19203,0.0,2023,6,7,16,59,25,321
47.95960,-0.28455,0.09258,0.00000,0.02989,0.97649,-0.18495,0.0,2023,6,7,16,59,25,332
47.95970,-0.26705,0.04008,0.00000,0.03270,0.97600,-0.18886,0.0,2023,6,7,16,59,25,343
47.95980,0.32795,-0.15242,0.00000,0.03074,0.97478,-0.18629,0.0,2023,6,7,16,59,25,354
47.95990,-0.30205,0.11008,0.00000,0.02891,0.97637,-0.18532,0.0,2023,6,7,16,59,25,365
47.96000,0.10045,-0.22242,0.00000,0.03013,0.97673,-0.18922,0.0,2023,6,7,16,59,25,376
47.96010,0.11795,-0.04742,0.00000,0.03282,0.97649,-0.18544,0.0,2023,6,7,16,59,25,387
47.96020,-0.45955,-0.02992,0.00000,0.03282,0.97576,-0.18849,0.0,2023,6,7,16,59,25,398
47.96030,0.24045,0.12758,0.00000,0.03099,0.97759,-0.18934,0.0,2023,6,7,16,59,25,409
47.96040,0.08295,-0.09992,0.00000,0.03160,0.97600,-0.18703,0.0,2023,6,7,16,59,25,420
47.96050,-0.17955,0.04008,0.00000,0.03001,0.97917,-0.18837,0.0,2023,6,7,16,59,25,431
47.96060,0.01295,-0.01242,0.00000,0.03123,0.97637,-0.18947,0.0,2023,6,7,16,59,25,442
47.96070,-0.05705,-0.02992,0.00000,0.03111,0.97661,-0.18434,0.0,2023,6,7,16,59,25,453
47.96080,0.01295,0.00508,0.00000,0.02989,0.97722,-0.19056,0.0,2023,6,7,16,59,25,464
47.96090,-0.05705,-0.04742,0.00000,0.03184,0.97612,-0.18727,0.0,2023,6,7,16,59,25,475
47.96100,-0.35455,0.00508,0.00000,0.03184,0.97478,-0.18483,0.0,2023,6,7,16,59,25,486
47.96110,0.03045,-0.08242,0.00000,0.03270,0.97441,-0.18947,0.0,2023,6,7,16,59,25,497
47.96120,0.06545,-0.08242,0.00000,0.02989,0.97771,-0.18751,0.0,2023,6,7,16,59,25,508
47.96130,-0.12705,-0.04742,0.00000,0.03111,0.97722,-0.18617,0.0,2023,6,7,16,59,25,519
47.96140,0.06545,-0.01242,0.00000,0.03074,0.97917,-0.18727,0.0,2023,6,7,16,59,25,530
47.96150,-0.07455,-0.02992,0.00000,0.03148,0.97771,-0.18495,0.0,2023,6,7,16,59,25,541
47.96160,0.10045,-0.01242,0.00000,0.02977,0.97990,-0.18837,0.0,2023,6,7,16,59,25,552
47.96170,-0.12705,-0.09992,0.00000,0.02867,0.97490,-0.18812,0.0,2023,6,7,16,59,25,563
47.96180,-0.07455,-0.01242,0.00000,0.02952,0.97637,-0.18861,0.0,2023,6,7,16,59,25,574
47.96190,-0.19705,0.21508,0.00000,0.03135,0.97807,-0.18568,0.0,2023,6,7,16,59,25,585
47.96200,-0.09205,-0.16992,0.00000,0.02989,0.97673,-0.18605,0.0,2023,6,7,16,59,25,596
47.96210,-0.03955,0.04008,0.00000,0.03001,0.97515,-0.18544,0.0,2023,6,7,16,59,25,607
47.96220,-0.05705,0.12758,0.00000,0.03087,0.97698,-0.19142,0.0,2023,6,7,16,59,25,618
47.96230,-0.05705,-0.13492,0.00000,0.03013,0.97551,-0.19178,0.0,2023,6,7,16,59,25,629
47.96240,-0.00455,-0.25742,0.00000,0.03160,0.97515,-0.18825,0.0,2023,6,7,16,59,25,640
47.96250,-0.02205,-0.08242,0.00000,0.03148,0.97563,-0.18873,0.0,2023,6,7,16,59,25,651
47.96260,-0.02205,0.02258,0.00000,0.03196,0.97746,-0.18910,0.0,2023,6,7,16,59,25,662
47.96270,0.03045,-0.04742,0.00000,0.03013,0.97612,-0.18947,0.0,2023,6,7,16,59,25,673
47.96280,-0.12705,0.23258,0.00000,0.02879,0.97515,-0.18556,0.0,2023,6,7,16,59,25,684
47.96290,0.01295,-0.01242,0.00000,0.03123,0.97698,-0.18471,0.0,2023,6,7,16,59,25,695
47.96300,-0.16205,0.02258,0.00000,0.03038,0.97795,-0.18825,0.0,2023,6,7,16,59,25,706
47.96310,-0.19705,-0.02992,0.00000,0.03392,0.97576,-0.18568,0.0,2023,6,7,16,59,25,717
47.96320,0.22295,0.00508,0.00000,0.02989,0.97600,-0.18971,0.0,2023,6,7,16,59,25,728
47.96330,0.10045,0.09258,0.00000,0.03209,0.97612,-0.19130,0.0,2023,6,7,16,59,25,739
47.96340,-0.10955,-0.18742,0.00000,0.03135,0.97576,-0.18995,0.0,2023,6,7,16,59,25,750
47.96350,0.20545,-0.06492,0.00000,0.03245,0.97746,-0.18666,0.0,2023,6,7,16,59,25,761
47.96360,0.01295,-0.15242,0.00000,0.03111,0.97771,-0.18983,0.0,2023,6,7,16,59,25,772
47.96370,0.13545,-0.15242,0.00000,0.03233,0.97722,-0.18703,0.0,2023,6,7,16,59,25,783
47.96380,0.01295,0.07508,0.00000,0.03148,0.97698,-0.18812,0.0,2023,6,7,16,59,25,794
47.96390,-0.02205,-0.20492,0.00000,0.02916,0.97710,-0.18849,0.0,2023,6,7,16,59,25,805
47.96400,-0.26705,0.11008,0.00000,0.03026,0.97734,-0.18727,0.0,2023,6,7,16,59,25,816
47.96410,0.17045,-0.08242,0.00000,0.03160,0.97429,-0.18690,0.0,2023,6,7,16,59,25,827
47.96420,0.03045,0.05758,0.00000,0.02952,0.97624,-0.18800,0.0,2023,6,7,16,59,25,838
47.96430,0.11795,-0.18742,0.00000,0.03172,0.97527,-0.18995,0.0,2023,6,7,16,59,25,849
47.96440,0.03045,0.00508,0.00000,0.03062,0.97698,-0.18873,0.0,2023,6,7,16,59,25,860
47.96450,-0.00455,-0.01242,0.00000,0.03013,0.97539,-0.18898,0.0,2023,6,7,16,59,25,871
47.96460,-0.07455,0.02258,0.00000,0.03184,0.97771,-0.18788,0.0,2023,6,7,16,59,25,882
47.96470,0.04795,0.02258,0.00000,0.03013,0.97844,-0.19032,0.0,2023,6,7,16,59,25,893
47.96480,-0.10955,-0.01242,0.00000,0.02891,0.97637,-0.18654,0.0,2023,6,7,16,59,25,904
47.96490,-0.05705,0.09258,0.00000,0.03123,0.97649,-0.18678,0.0,2023,6,7,16,59,25,915
47.96500,0.03045,-0.01242,0.00000,0.03087,0.97502,-0.18934,0.0,2023,6,7,16,59,25,926
47.96510,0.08295,0.14508,0.00000,0.03233,0.97795,-0.18727,0.0,2023,6,7,16,59,25,937
47.96520,-0.17955,0.09258,0.00000,0.03160,0.97783,-0.18776,0.0,2023,6,7,16,59,25,948
47.96530,0.11795,0.11008,0.00000,0.02879,0.97527,-0.18812,0.0,2023,6,7,16,59,25,959
47.96540,-0.19705,0.28508,0.00000,0.02867,0.97783,-0.18654,0.0,2023,6,7,16,59,25,970
47.96550,0.13545,-0.01242,0.00000,0.03001,0.97917,-0.18776,0.0,2023,6,7,16,59,26,1
47.96560,-0.14455,-0.01242,0.00000,0.03477,0.97771,-0.18800,0.0,2023,6,7,16,59,26,12
47.96570,-0.00455,-0.06492,0.00000,0.03038,0.97734,-0.18886,0.0,2023,6,7,16,59,26,23
47.96580,0.20545,0.05758,0.00000,0.03379,0.97710,-0.18825,0.0,2023,6,7,16,59,26,34
47.96590,-0.19705,0.07508,0.00000,0.03270,0.97332,-0.18825,0.0,2023,6,7,16,59,26,45
47.96600,-0.02205,-0.09992,0.00000,0.03038,0.97710,-0.18861,0.0,2023,6,7,16,59,26,56
47.96610,0.08295,0.05758,0.00000,0.02818,0.97649,-0.18849,0.0,2023,6,7,16,59,26,67
47.96620,0.20545,-0.16992,0.00000,0.03026,0.97515,-0.18934,0.0,2023,6,7,16,59,26,78
47.96630,-0.12705,0.16258,0.00000,0.03282,0.97466,-0.18861,0.0,2023,6,7,16,59,26,89
47.96640,-0.02205,0.09258,0.00000,0.02940,0.97795,-0.18837,0.0,2023,6,7,16,59,26,100
47.96650,-0.10955,0.09258,0.00000,0.03172,0.97807,-0.18678,0.0,2023,6,7,16,59,26,111
47.96660,-0.30205,0.30258,0.00000,0.03196,0.97576,-0.18922,0.0,2023,6,7,16,59,26,122
47.96670,0.18795,-0.11742,0.00000,0.03172,0.97710,-0.18825,0.0,2023,6,7,16,59,26,133
47.96680,-0.02205,-0.04742,0.00000,0.03453,0.97722,-0.18581,0.0,2023,6,7,16,59,26,144
47.96690,-0.09205,0.19758,0.00000,0.03257,0.97759,-0.18861,0.0,2023,6,7,16,59,26,155
47.96700,0.03045,0.00508,0.00000,0.03257,0.97649,-0.18934,0.0,2023,6,7,16,59,26,166
47.96710,-0.10955,0.14508,0.00000,0.03050,0.97722,-0.18861,0.0,2023,6,7,16,59,26,177
47.96720,-0.09205,0.11008,0.00000,0.02940,0.97661,-0.18703,0.0,2023,6,7,16,59,26,188
47.96730,-0.03955,0.12758,0.00000,0.03111,0.97600,-0.18605,0.0,2023,6,7,16,59,26,199
47.96740,-0.02205,0.11008,0.00000,0.03099,0.97673,-0.18446,0.0,2023,6,7,16,59,26,210
47.96750,0.17045,0.05758,0.00000,0.03270,0.97527,-0.18959,0.0,2023,6,7,16,59,26,221
47.96760,0.15295,-0.27492,0.00000,0.03184,0.97844,-0.18776,0.0,2023,6,7,16,59,26,232
47.96770,-0.14455,0.11008,0.00000,0.03038,0.97600,-0.18861,0.0,2023,6,7,16,59,26,243
47.96780,0.15295,-0.06492,0.00000,0.03245,0.97539,-0.18886,0.0,2023,6,7,16,59,26,254
47.96790,0.03045,-0.08242,0.00000,0.03172,0.97600,-0.18800,0.0,2023,6,7,16,59,26,265
47.96800,0.01295,0.23258,0.00000,0.03111,0.97515,-0.18666,0.0,2023,6,7,16,59,26,276
47.96810,-0.19705,0.11008,0.00000,0.03379,0.97734,-0.18446,0.0,2023,6,7,16,59,26,287
47.96820,0.08295,0.12758,0.00000,0.03111,0.97502,-0.18532,0.0,2023,6,7,16,59,26,298
47.96830,0.06545,-0.06492,0.00000,0.03196,0.97795,-0.18788,0.0,2023,6,7,16,59,26,309
47.96840,0.11795,0.12758,0.00000,0.03343,0.97539,-0.19020,0.0,2023,6,7,16,59,26,320
47.96850,-0.05705,-0.18742,0.00000,0.03038,0.97539,-0.18617,0.0,2023,6,7,16,59,26,331
47.96860,-0.10955,0.07508,0.00000,0.03331,0.97563,-0.18654,0.0,2023,6,7,16,59,26,342
47.96870,-0.21455,0.25008,0.00000,0.03087,0.97576,-0.18812,0.0,2023,6,7,16,59,26,353
47.96880,-0.26705,-0.25742,0.00000,0.03245,0.97417,-0.18825,0.0,2023,6,7,16,59,26,364
47.96890,0.06545,-0.22242,0.00000,0.03306,0.97490,-0.18654,0.0,2023,6,7,16,59,26,375
47.96900,-0.28455,-0.16992,0.00000,0.02916,0.97624,-0.18556,0.0,2023,6,7,16,59,26,386
47.96910,-0.12705,-0.09992,0.00000,0.03074,0.97929,-0.18751,0.0,2023,6,7,16,59,26,397
47.96920,0.01295,0.16258,0.00000,0.03196,0.97734,-0.19093,0.0,2023,6,7,16,59,26,408
47.96930,-0.10955,-0.20492,0.00000,0.03306,0.97478,-0.18922,0.0,2023,6,7,16,59,26,419
47.96940,-0.16205,0.25008,0.00000,0.03148,0.97710,-0.18727,0.0,2023,6,7,16,59,26,430
47.96950,0.15295,0.05758,0.00000,0.03038,0.97502,-0.18971,0.0,2023,6,7,16,59,26,441
47.96960,0.03045,-0.08242,0.00000,0.02891,0.97600,-0.18812,0.0,2023,6,7,16,59,26,452
47.96970,-0.03955,-0.15242,0.00000,0.03160,0.97502,-0.18825,0.0,2023,6,7,16,59,26,463
47.96980,0.10045,-0.02992,0.00000,0.03404,0.97527,-0.18593,0.0,2023,6,7,16,59,26,474
47.96990,-0.03955,-0.20492,0.00000,0.03465,0.97600,-0.18751,0.0,2023,6,7,16,59,26,485
47.97000,0.20545,-0.15242,0.00000,0.03087,0.97551,-0.19008,0.0,2023,6,7,16,59,26,496
47.97010,0.08295,0.11008,0.00000,0.02952,0.97746,-0.18995,0.0,2023,6,7,16,59,26,507
47.97020,-0.05705,-0.04742,0.00000,0.03306,0.97783,-0.18922,0.0,2023,6,7,16,59,26,518
47.97030,-0.10955,-0.08242,0.00000,0.03013,0.97722,-0.18751,0.0,2023,6,7,16,59,26,529
47.97040,-0.09205,0.00508,0.00000,0.03074,0.97722,-0.18764,0.0,2023,6,7,16,59,26,540
47.97050,0.32795,0.05758,0.00000,0.03270,0.97588,-0.18959,0.0,2023,6,7,16,59,26,551
47.97060,-0.02205,-0.04742,0.00000,0.03087,0.97673,-0.18861,0.0,2023,6,7,16,59,26,562
47.97070,-0.05705,0.05758,0.00000,0.03209,0.97637,-0.18776,0.0,2023,6,7,16,59,26,573
47.97080,0.27545,-0.18742,0.00000,0.03196,0.97661,-0.18910,0.0,2023,6,7,16,59,26,584
47.97090,-0.10955,-0.22242,0.00000,0.03196,0.97698,-0.18861,0.0,2023,6,7,16,59,26,595
47.97100,0.10045,-0.11742,0.00000,0.03050,0.97685,-0.18812,0.0,2023,6,7,16,59,26,606
47.97110,-0.02205,0.00508,0.00000,0.03148,0.97746,-0.18678,0.0,2023,6,7,16,59,26,617
47.97120,-0.10955,-0.01242,0.00000,0.02928,0.97771,-0.18788,0.0,2023,6,7,16,59,26,628
47.97130,-0.00455,-0.02992,0.00000,0.03282,0.97759,-0.18605,0.0,2023,6,7,16,59,26,639
47.97140,0.13545,-0.25742,0.00000,0.03196,0.97539,-0.18849,0.0,2023,6,7,16,59,26,650
47.97150,-0.19705,0.14508,0.00000,0.03184,0.97685,-0.18654,0.0,2023,6,7,16,59,26,661
47.97160,0.08295,-0.02992,0.00000,0.03257,0.97612,-0.18837,0.0,2023,6,7,16,59,26,672
47.97170,-0.02205,0.04008,0.00000,0.03172,0.97844,-0.18776,0.0,2023,6,7,16,59,26,683
47.97180,-0.05705,0.04008,0.00000,0.03196,0.97649,-0.18934,0.0,2023,6,7,16,59,26,694
47.97190,-0.02205,-0.11742,0.00000,0.03026,0.97698,-0.18849,0.0,2023,6,7,16,59,26,705
47.97200,0.11795,-0.25742,0.00000,0.03099,0.97515,-0.18995,0.0,2023,6,7,16,59,26,716
47.97210,0.08295,-0.06492,0.00000,0.03209,0.97600,-0.18581,0.0,2023,6,7,16,59,26,727
47.97220,-0.03955,-0.04742,0.00000,0.03062,0.97759,-0.18788,0.0,2023,6,7,16,59,26,738
47.97230,0.03045,0.14508,0.00000,0.03257,0.97429,-0.18703,0.0,2023,6,7,16,59,26,749
47.97240,0.01295,0.25008,0.00000,0.02977,0.97685,-0.18947,0.0,2023,6,7,16,59,26,760
47.97250,0.17045,-0.20492,0.00000,0.03270,0.97698,-0.18873,0.0,2023,6,7,16,59,26,771
47.97260,-0.17955,0.09258,0.00000,0.03111,0.97734,-0.18812,0.0,2023,6,7,16,59,26,782
47.97270,-0.03955,-0.01242,0.00000,0.03294,0.97685,-0.18825,0.0,2023,6,7,16,59,26,793
47.97280,0.15295,-0.13492,0.00000,0.02916,0.97685,-0.18849,0.0,2023,6,7,16,59,26,804
47.97290,-0.02205,0.07508,0.00000,0.03172,0.97685,-0.18825,0.0,2023,6,7,16,59,26,815
47.97300,0.13545,-0.16992,0.00000,0.03367,0.97722,-0.18642,0.0,2023,6,7,16,59,26,826
47.97310,-0.03955,-0.11742,0.00000,0.03184,0.97722,-0.18788,0.0,2023,6,7,16,59,26,837
47.97320,0.17045,0.00508,0.00000,0.03074,0.97673,-0.18959,0.0,2023,6,7,16,59,26,848
47.97330,-0.07455,0.04008,0.00000,0.03099,0.97783,-0.18922,0.0,2023,6,7,16,59,26,859
47.97340,-0.02205,0.14508,0.00000,0.03038,0.97527,-0.18690,0.0,2023,6,7,16,59,26,870
47.97350,0.11795,-0.20492,0.00000,0.03062,0.97929,-0.19056,0.0,2023,6,7,16,59,26,881
47.97360,0.03045,-0.13492,0.00000,0.02867,0.97710,-0.18849,0.0,2023,6,7,16,59,26,892
47.97370,0.03045,-0.06492,0.00000,0.03013,0.97673,-0.19008,0.0,2023,6,7,16,59,26,903
47.97380,0.01295,-0.04742,0.00000,0.03233,0.97746,-0.18495,0.0,2023,6,7,16,59,26,914
47.97390,0.06545,-0.01242,0.00000,0.03245,0.97624,-0.18520,0.0,2023,6,7,16,59,26,925
47.97400,0.15295,-0.08242,0.00000,0.03270,0.97466,-0.19044,0.0,2023,6,7,16,59,26,936
47.97410,0.04795,0.14508,0.00000,0.03111,0.97990,-0.18983,0.0,2023,6,7,16,59,26,947
47.97420,-0.16205,0.09258,0.00000,0.03233,0.97832,-0.18764,0.0,2023,6,7,16,59,26,958
47.97430,-0.00455,-0.08242,0.00000,0.03111,0.97624,-0.19056,0.0,2023,6,7,16,59,26,969
47.97440,0.15295,0.00508,0.00000,0.03099,0.97624,-0.18898,0.0,2023,6,7,16,59,26,980
47.97450,0.11795,-0.15242,0.00000,0.03087,0.97539,-0.19008,0.0,2023,6,7,16,59,26,991
47.97460,-0.00455,0.18008,0.00000,0.02952,0.97710,-0.18812,0.0,2023,6,7,16,59,27,2
47.97470,-0.00455,-0.06492,0.00000,0.03257,0.97344,-0.18727,0.0,2023,6,7,16,59,27,13
47.97480,-0.03955,0.00508,0.00000,0.03379,0.97673,-0.18617,0.0,2023,6,7,16,59,27,24
47.97490,-0.07455,0.02258,0.00000,0.03209,0.97649,-0.18678,0.0,2023,6,7,16,59,27,35
47.97500,-0.00455,0.12758,0.00000,0.03196,0.97698,-0.18873,0.0,2023,6,7,16,59,27,46
47.97510,-0.09205,0.05758,0.00000,0.03184,0.97441,-0.18703,0.0,2023,6,7,16,59,27,57
47.97520,0.13545,0.11008,0.00000,0.02965,0.97515,-0.18947,0.0,2023,6,7,16,59,27,68
47.97530,0.01295,-0.09992,0.00000,0.03209,0.97734,-0.19008,0.0,2023,6,7,16,59,27,79
47.97540,-0.07455,0.18008,0.00000,0.03184,0.97515,-0.18703,0.0,2023,6,7,16,59,27,90
47.97550,-0.00455,0.04008,0.00000,0.03184,0.97673,-0.18837,0.0,2023,6,7,16,59,27,101
47.97560,0.04795,-0.16992,0.00000,0.03111,0.97881,-0.18544,0.0,2023,6,7,16,59,27,112
47.97570,0.04795,-0.08242,0.00000,0.03233,0.97576,-0.19032,0.0,2023,6,7,16,59,27,123
47.97580,0.20545,-0.11742,0.00000,0.03221,0.97795,-0.18886,0.0,2023,6,7,16,59,27,134
47.97590,-0.07455,0.00508,0.00000,0.03270,0.97527,-0.18666,0.0,2023,6,7,16,59,27,145
47.97600,-0.09205,0.16258,0.00000,0.03221,0.97539,-0.18849,0.0,2023,6,7,16,59,27,156
47.97610,-0.05705,0.05758,0.00000,0.03135,0.97661,-0.18812,0.0,2023,6,7,16,59,27,167
47.97620,-0.17955,0.12758,0.00000,0.03099,0.97881,-0.18690,0.0,2023,6,7,16,59,27,178
47.97630,-0.09205,-0.13492,0.00000,0.02928,0.97441,-0.19130,0.0,2023,6,7,16,59,27,189
47.97640,0.03045,0.11008,0.00000,0.03184,0.97441,-0.18556,0.0,2023,6,7,16,59,27,200
47.97650,0.03045,0.00508,0.00000,0.03135,0.97685,-0.18666,0.0,2023,6,7,16,59,27,211
47.97660,0.04795,0.25008,0.00000,0.03184,0.97868,-0.18971,0.0,2023,6,7,16,59,27,222
47.97670,-0.05705,0.07508,0.00000,0.03111,0.97576,-0.18666,0.0,2023,6,7,16,59,27,233
47.97680,0.03045,0.02258,0.00000,0.03111,0.97563,-0.18800,0.0,2023,6,7,16,59,27,244
47.97690,0.03045,-0.15242,0.00000,0.03123,0.97710,-0.18642,0.0,2023,6,7,16,59,27,255
47.97700,0.18795,0.07508,0.00000,0.03123,0.97746,-0.18507,0.0,2023,6,7,16,59,27,266
47.97710,-0.02205,0.04008,0.00000,0.03026,0.97783,-0.18934,0.0,2023,6,7,16,59,27,277
47.97720,-0.09205,0.04008,0.00000,0.03111,0.97637,-0.18971,0.0,2023,6,7,16,59,27,288
47.97730,-0.02205,0.00508,0.00000,0.03270,0.97612,-0.18800,0.0,2023,6,7,16,59,27,299
47.97740,-0.28455,0.18008,0.00000,0.03306,0.97515,-0.18739,0.0,2023,6,7,16,59,27,310
47.97750,-0.07455,0.11008,0.00000,0.03111,0.97734,-0.18776,0.0,2023,6,7,16,59,27,321
47.97760,-0.09205,0.02258,0.00000,0.03074,0.97722,-0.18849,0.0,2023,6,7,16,59,27,332
47.97770,0.10045,-0.11742,0.00000,0.03013,0.97807,-0.18861,0.0,2023,6,7,16,59,27,343
47.97780,-0.21455,-0.20492,0.00000,0.03111,0.97771,-0.18629,0.0,2023,6,7,16,59,27,354
47.97790,0.01295,0.04008,0.00000,0.03221,0.97551,-0.18861,0.0,2023,6,7,16,59,27,365
47.97800,-0.16205,-0.04742,0.00000,0.03026,0.98015,-0.18861,0.0,2023,6,7,16,59,27,376
47.97810,0.13545,-0.08242,0.00000,0.03221,0.97454,-0.18983,0.0,2023,6,7,16,59,27,387
47.97820,0.01295,-0.18742,0.00000,0.03148,0.97563,-0.18947,0.0,2023,6,7,16,59,27,398
47.97830,-0.03955,0.05758,0.00000,0.02879,0.97673,-0.19069,0.0,2023,6,7,16,59,27,409
47.97840,-0.07455,0.16258,0.00000,0.03257,0.97466,-0.18715,0.0,2023,6,7,16,59,27,420
47.97850,0.11795,-0.01242,0.00000,0.03233,0.97771,-0.18727,0.0,2023,6,7,16,59,27,431
47.97860,0.03045,0.07508,0.00000,0.03318,0.97527,-0.18922,0.0,2023,6,7,16,59,27,442
47.97870,0.17045,-0.04742,0.00000,0.03099,0.97673,-0.19008,0.0,2023,6,7,16,59,27,453
47.97880,-0.00455,0.09258,0.00000,0.02928,0.97551,-0.18910,0.0,2023,6,7,16,59,27,464
47.97890,0.11795,0.11008,0.00000,0.03221,0.97759,-0.18861,0.0,2023,6,7,16,59,27,475
47.97900,-0.03955,-0.13492,0.00000,0.03245,0.97624,-0.18739,0.0,2023,6,7,16,59,27,486
47.97910,0.04795,0.04008,0.00000,0.03013,0.97832,-0.18959,0.0,2023,6,7,16,59,27,497
47.97920,-0.00455,-0.15242,0.00000,0.03282,0.97576,-0.18837,0.0,2023,6,7,16,59,27,508
47.97930,-0.00455,0.04008,0.00000,0.03331,0.97563,-0.19032,0.0,2023,6,7,16,59,27,519
47.97940,0.01295,-0.02992,0.00000,0.03099,0.97722,-0.18947,0.0,2023,6,7,16,59,27,530
47.97950,-0.07455,-0.08242,0.00000,0.03221,0.97637,-0.18666,0.0,2023,6,7,16,59,27,541
47.97960,0.08295,-0.11742,0.00000,0.03099,0.97478,-0.18922,0.0,2023,6,7,16,59,27,552
47.97970,-0.00455,0.05758,0.00000,0.02989,0.97649,-0.18849,0.0,2023,6,7,16,59,27,563
47.97980,0.06545,0.11008,0.00000,0.03013,0.97795,-0.19069,0.0,2023,6,7,16,59,27,574
47.97990,-0.03955,0.12758,0.00000,0.03123,0.97722,-0.18910,0.0,2023,6,7,16,59,27,585
47.98000,-0.12705,0.04008,0.00000,0.03270,0.97783,-0.18678,0.0,2023,6,7,16,59,27,596
47.98010,-0.12705,0.25008,0.00000,0.02965,0.97685,-0.18715,0.0,2023,6,7,16,59,27,607
47.98020,0.11795,-0.13492,0.00000,0.03062,0.97539,-0.19044,0.0,2023,6,7,16,59,27,618
47.98030,0.03045,-0.01242,0.00000,0.03306,0.97893,-0.18812,0.0,2023,6,7,16,59,27,629
47.98040,-0.00455,0.00508,0.00000,0.03245,0.97844,-0.18727,0.0,2023,6,7,16,59,27,640
47.98050,-0.05705,-0.08242,0.00000,0.02989,0.97844,-0.18825,0.0,2023,6,7,16,59,27,651
47.98060,-0.07455,0.02258,0.00000,0.03001,0.97551,-0.18520,0.0,2023,6,7,16,59,27,662
47.98070,-0.12705,0.04008,0.00000,0.03074,0.97490,-0.18678,0.0,2023,6,7,16,59,27,673
47.98080,-0.09205,-0.02992,0.00000,0.03111,0.97515,-0.18825,0.0,2023,6,7,16,59,27,684
47.98090,-0.00455,-0.15242,0.00000,0.03026,0.97527,-0.18910,0.0,2023,6,7,16,59,27,695
47.98100,-0.00455,0.04008,0.00000,0.03331,0.97685,-0.18776,0.0,2023,6,7,16,59,27,706
47.98110,0.11795,0.14508,0.00000,0.03001,0.97661,-0.18800,0.0,2023,6,7,16,59,27,717
47.98120,-0.07455,0.05758,0.00000,0.03148,0.97515,-0.18776,0.0,2023,6,7,16,59,27,728
47.98130,-0.14455,-0.01242,0.00000,0.03270,0.97795,-0.18886,0.0,2023,6,7,16,59,27,739
47.98140,-0.07455,-0.01242,0.00000,0.03001,0.97612,-0.18495,0.0,2023,6,7,16,59,27,750
47.98150,0.11795,-0.09992,0.00000,0.03099,0.97600,-0.18837,0.0,2023,6,7,16,59,27,761
47.98160,0.06545,0.00508,0.00000,0.03294,0.97624,-0.18666,0.0,2023,6,7,16,59,27,772
47.98170,0.04795,-0.04742,0.00000,0.02928,0.97624,-0.18898,0.0,2023,6,7,16,59,27,783
47.98180,-0.17955,-0.01242,0.00000,0.02965,0.97649,-0.18861,0.0,2023,6,7,16,59,27,794
47.98190,-0.00455,-0.02992,0.00000,0.03245,0.97600,-0.18983,0.0,2023,6,7,16,59,27,805
47.98200,0.20545,-0.15242,0.00000,0.03184,0.97466,-0.18764,0.0,2023,6,7,16,59,27,816
47.98210,-0.05705,-0.04742,0.00000,0.03087,0.97673,-0.18910,0.0,2023,6,7,16,59,27,827
47.98220,0.06545,-0.01242,0.00000,0.03306,0.97771,-0.19008,0.0,2023,6,7,16,59,27,838
47.98230,-0.05705,0.05758,0.00000,0.03209,0.97698,-0.18764,0.0,2023,6,7,16,59,27,849
47.98240,-0.09205,-0.01242,0.00000,0.02843,0.97661,-0.18788,0.0,2023,6,7,16,59,27,860
47.98250,0.11795,-0.11742,0.00000,0.03331,0.97661,-0.18764,0.0,2023,6,7,16,59,27,871
47.98260,0.13545,-0.06492,0.00000,0.03074,0.97649,-0.18861,0.0,2023,6,7,16,59,27,882
47.98270,-0.14455,0.26758,0.00000,0.03233,0.97417,-0.18959,0.0,2023,6,7,16,59,27,893
47.98280,0.03045,-0.02992,0.00000,0.02989,0.97466,-0.18788,0.0,2023,6,7,16,59,27,904
47.98290,0.04795,-0.04742,0.00000,0.02660,0.97844,-0.18739,0.0,2023,6,7,16,59,27,915
47.98300,-0.07455,-0.08242,0.00000,0.03135,0.97734,-0.18703,0.0,2023,6,7,16,59,27,926
47.98310,0.13545,-0.16992,0.00000,0.03135,0.97710,-0.19093,0.0,2023,6,7,16,59,27,937
47.98320,-0.12705,-0.09992,0.00000,0.03196,0.97722,-0.18800,0.0,2023,6,7,16,59,27,948
47.98330,-0.19705,0.16258,0.00000,0.03367,0.97661,-0.18861,0.0,2023,6,7,16,59,27,959
47.98340,-0.03955,-0.04742,0.00000,0.03306,0.97783,-0.18849,0.0,2023,6,7,16,59,27,970
47.98350,0.04795,0.00508,0.00000,0.03221,0.97478,-0.18666,0.0,2023,6,7,16,59,27,981
47.98360,0.11795,-0.13492,0.00000,0.03026,0.97722,-0.19044,0.0,2023,6,7,16,59,27,992
47.98370,-0.02205,0.05758,0.00000,0.03123,0.97685,-0.18886,0.0,2023,6,7,16,59,28,3
47.98380,0.15295,0.09258,0.00000,0.03074,0.97551,-0.18776,0.0,2023,6,7,16,59,28,14
47.98390,0.25795,-0.02992,0.00000,0.02904,0.97746,-0.18947,0.0,2023,6,7,16,59,28,25
47.98400,0.04795,0.02258,0.00000,0.03294,0.97539,-0.19044,0.0,2023,6,7,16,59,28,36
47.98410,-0.02205,-0.04742,0.00000,0.02965,0.97820,-0.18727,0.0,2023,6,7,16,59,28,47
47.98420,-0.05705,-0.23992,0.00000,0.03111,0.97600,-0.18837,0.0,2023,6,7,16,59,28,58
47.98430,-0.12705,0.26758,0.00000,0.03318,0.97515,-0.19069,0.0,2023,6,7,16,59,28,69
47.98440,-0.09205,-0.04742,0.00000,0.03160,0.97576,-0.18934,0.0,2023,6,7,16,59,28,80
47.98450,0.06545,0.04008,0.00000,0.03160,0.97527,-0.18837,0.0,2023,6,7,16,59,28,91
47.98460,0.01295,0.05758,0.00000,0.03331,0.97795,-0.18739,0.0,2023,6,7,16,59,28,102
47.98470,0.03045,-0.04742,0.00000,0.03038,0.97807,-0.18959,0.0,2023,6,7,16,59,28,113
47.98480,-0.09205,0.16258,0.00000,0.03245,0.97881,-0.18678,0.0,2023,6,7,16,59,28,124
47.98490,-0.19705,0.18008,0.00000,0.03123,0.97673,-0.18788,0.0,2023,6,7,16,59,28,135
47.98500,0.01295,-0.25742,0.00000,0.03233,0.97661,-0.18715,0.0,2023,6,7,16,59,28,146
47.98510,0.03045,0.00508,0.00000,0.03172,0.97661,-0.18654,0.0,2023,6,7,16,59,28,157
47.98520,-0.12705,-0.22242,0.00000,0.03148,0.97551,-0.18861,0.0,2023,6,7,16,59,28,168
47.98530,-0.10955,-0.09992,0.00000,0.03331,0.97515,-0.18922,0.0,2023,6,7,16,59,28,179
47.98540,0.03045,0.11008,0.00000,0.03148,0.97685,-0.18861,0.0,2023,6,7,16,59,28,190
47.98550,-0.02205,0.19758,0.00000,0.03245,0.97576,-0.18715,0.0,2023,6,7,16,59,28,201
47.98560,0.10045,-0.27492,0.00000,0.03123,0.97539,-0.18971,0.0,2023,6,7,16,59,28,212
47.98570,-0.05705,-0.04742,0.00000,0.03087,0.97759,-0.18837,0.0,2023,6,7,16,59,28,223
47.98580,0.01295,0.14508,0.00000,0.03221,0.97393,-0.18812,0.0,2023,6,7,16,59,28,234
47.98590,0.03045,-0.01242,0.00000,0.03294,0.97466,-0.19105,0.0,2023,6,7,16,59,28,245
47.98600,0.04795,0.02258,0.00000,0.03392,0.97722,-0.18873,0.0,2023,6,7,16,59,28,256
47.98610,-0.05705,0.19758,0.00000,0.02940,0.97722,-0.19117,0.0,2023,6,7,16,59,28,267
47.98620,-0.14455,0.12758,0.00000,0.02916,0.97600,-0.18849,0.0,2023,6,7,16,59,28,278
47.98630,-0.02205,-0.18742,0.00000,0.03135,0.97551,-0.18776,0.0,2023,6,7,16,59,28,289
47.98640,0.08295,-0.11742,0.00000,0.03026,0.97868,-0.18837,0.0,2023,6,7,16,59,28,300
47.98650,0.01295,0.05758,0.00000,0.03013,0.97881,-0.18764,0.0,2023,6,7,16,59,28,311
47.98660,-0.19705,0.33758,0.00000,0.03196,0.97734,-0.18703,0.0,2023,6,7,16,59,28,322
47.98670,0.11795,-0.02992,0.00000,0.03331,0.97478,-0.19117,0.0,2023,6,7,16,59,28,333
47.98680,-0.00455,0.05758,0.00000,0.03148,0.97563,-0.18581,0.0,2023,6,7,16,59,28,344
47.98690,0.17045,-0.16992,0.00000,0.03196,0.97673,-0.18825,0.0,2023,6,7,16,59,28,355
47.98700,-0.14455,-0.04742,0.00000,0.03013,0.97783,-0.18837,0.0,2023,6,7,16,59,28,366
47.98710,-0.24955,0.26758,0.00000,0.02855,0.97539,-0.18971,0.0,2023,6,7,16,59,28,377
47.98720,-0.02205,-0.04742,0.00000,0.03172,0.97637,-0.18642,0.0,2023,6,7,16,59,28,388
47.98730,0.03045,-0.20492,0.00000,0.03184,0.97746,-0.18495,0.0,2023,6,7,16,59,28,399
47.98740,-0.09205,0.09258,0.00000,0.03111,0.97588,-0.18800,0.0,2023,6,7,16,59,28,410
47.98750,-0.16205,0.07508,0.00000,0.03196,0.97576,-0.19008,0.0,2023,6,7,16,59,28,421
47.98760,0.03045,-0.22242,0.00000,0.03123,0.97649,-0.18922,0.0,2023,6,7,16,59,28,432
47.98770,-0.05705,-0.06492,0.00000,0.02952,0.97612,-0.18776,0.0,2023,6,7,16,59,28,443
47.98780,-0.12705,0.14508,0.00000,0.03209,0.97649,-0.18617,0.0,2023,6,7,16,59,28,454
47.98790,0.22295,-0.18742,0.00000,0.03160,0.97698,-0.18837,0.0,2023,6,7,16,59,28,465
47.98800,0.25795,-0.13492,0.00000,0.03160,0.97820,-0.18568,0.0,2023,6,7,16,59,28,476
47.98810,0.10045,-0.13492,0.00000,0.03209,0.97563,-0.18507,0.0,2023,6,7,16,59,28,487
47.98820,-0.10955,-0.06492,0.00000,0.03196,0.97783,-0.18666,0.0,2023,6,7,16,59,28,498
47.98830,0.06545,0.05758,0.00000,0.03062,0.97612,-0.18947,0.0,2023,6,7,16,59,28,509
47.98840,-0.07455,0.04008,0.00000,0.03221,0.97734,-0.18837,0.0,2023,6,7,16,59,28,520
47.98850,-0.07455,0.11008,0.00000,0.03196,0.97637,-0.18703,0.0,2023,6,7,16,59,28,531
47.98860,-0.09205,-0.02992,0.00000,0.03331,0.97563,-0.18654,0.0,2023,6,7,16,59,28,542
47.98870,0.13545,-0.04742,0.00000,0.02977,0.97356,-0.18593,0.0,2023,6,7,16,59,28,553
47.98880,-0.12705,-0.08242,0.00000,0.03111,0.97722,-0.18947,0.0,2023,6,7,16,59,28,564
47.98890,-0.17955,0.04008,0.00000,0.03184,0.97539,-0.18922,0.0,2023,6,7,16,59,28,575
47.98900,0.11795,-0.11742,0.00000,0.03221,0.97551,-0.18764,0.0,2023,6,7,16,59,28,586
47.98910,-0.02205,0.02258,0.00000,0.03111,0.97637,-0.18520,0.0,2023,6,7,16,59,28,597
47.98920,-0.12705,0.11008,0.00000,0.03221,0.97746,-0.18849,0.0,2023,6,7,16,59,28,608
47.98930,-0.05705,0.18008,0.00000,0.03172,0.97466,-0.18812,0.0,2023,6,7,16,59,28,619
47.98940,0.13545,0.11008,0.00000,0.02855,0.97588,-0.18971,0.0,2023,6,7,16,59,28,630
47.98950,0.03045,0.07508,0.00000,0.02977,0.97795,-0.18934,0.0,2023,6,7,16,59,28,641
47.98960,-0.00455,0.16258,0.00000,0.03001,0.97734,-0.18666,0.0,2023,6,7,16,59,28,652
47.98970,-0.17955,-0.06492,0.00000,0.02965,0.97832,-0.18873,0.0,2023,6,7,16,59,28,663
47.98980,0.11795,-0.16992,0.00000,0.03160,0.97649,-0.18764,0.0,2023,6,7,16,59,28,674
47.98990,0.22295,-0.06492,0.00000,0.03111,0.97612,-0.18898,0.0,2023,6,7,16,59,28,685
47.99000,-0.03955,-0.01242,0.00000,0.03209,0.97783,-0.18678,0.0,2023,6,7,16,59,28,696
47.99010,0.15295,-0.11742,0.00000,0.03209,0.97502,-0.18593,0.0,2023,6,7,16,59,28,707
47.99020,0.18795,-0.04742,0.00000,0.03087,0.97868,-0.18690,0.0,2023,6,7,16,59,28,718
47.99030,0.10045,0.04008,0.00000,0.03123,0.97795,-0.18581,0.0,2023,6,7,16,59,28,729
47.99040,0.18795,-0.18742,0.00000,0.03111,0.97466,-0.18861,0.0,2023,6,7,16,59,28,740
47.99050,0.08295,-0.06492,0.00000,0.03038,0.97685,-0.18703,0.0,2023,6,7,16,59,28,751
47.99060,-0.10955,-0.11742,0.00000,0.03135,0.97490,-0.18532,0.0,2023,6,7,16,59,28,762
47.99070,0.06545,-0.04742,0.00000,0.03026,0.97795,-0.18934,0.0,2023,6,7,16,59,28,773
47.99080,0.06545,-0.02992,0.00000,0.03026,0.97429,-0.18861,0.0,2023,6,7,16,59,28,784
47.99090,-0.05705,0.07508,0.00000,0.03026,0.97588,-0.18947,0.0,2023,6,7,16,59,28,795
47.99100,-0.12705,-0.02992,0.00000,0.03184,0.97734,-0.18861,0.0,2023,6,7,16,59,28,806
47.99110,-0.03955,-0.08242,0.00000,0.03074,0.97856,-0.18703,0.0,2023,6,7,16,59,28,817
47.99120,-0.09205,0.18008,0.00000,0.03087,0.97588,-0.18934,0.0,2023,6,7,16,59,28,828
47.99130,-0.00455,0.02258,0.00000,0.03221,0.97600,-0.18764,0.0,2023,6,7,16,59,28,839
47.99140,-0.00455,-0.02992,0.00000,0.02977,0.97685,-0.18764,0.0,2023,6,7,16,59,28,850
47.99150,-0.05705,-0.15242,0.00000,0.03099,0.97490,-0.18727,0.0,2023,6,7,16,59,28,861
47.99160,-0.21455,0.11008,0.00000,0.02977,0.97746,-0.18788,0.0,2023,6,7,16,59,28,872
47.99170,-0.10955,0.04008,0.00000,0.03270,0.97600,-0.18812,0.0,2023,6,7,16,59,28,883
47.99180,0.10045,-0.08242,0.00000,0.03306,0.97942,-0.18873,0.0,2023,6,7,16,59,28,894
47.99190,-0.00455,-0.02992,0.00000,0.03172,0.97612,-0.19008,0.0,2023,6,7,16,59,28,905
47.99200,-0.12705,0.09258,0.00000,0.03074,0.97685,-0.18727,0.0,2023,6,7,16,59,28,916
47.99210,0.10045,-0.04742,0.00000,0.03343,0.97624,-0.18812,0.0,2023,6,7,16,59,28,927
47.99220,-0.09205,-0.01242,0.00000,0.03233,0.97771,-0.18861,0.0,2023,6,7,16,59,28,938
47.99230,-0.05705,-0.01242,0.00000,0.03379,0.97502,-0.18678,0.0,2023,6,7,16,59,28,949
47.99240,0.27545,-0.04742,0.00000,0.03026,0.97637,-0.18971,0.0,2023,6,7,16,59,28,960
47.99250,-0.09205,0.18008,0.00000,0.03233,0.97624,-0.18654,0.0,2023,6,7,16,59,28,971
47.99260,0.03045,0.00508,0.00000,0.02965,0.97502,-0.18873,0.0,2023,6,7,16,59,29,2
47.99270,-0.03955,0.09258,0.00000,0.03379,0.97576,-0.18861,0.0,2023,6,7,16,59,29,13
47.99280,0.11795,0.05758,0.00000,0.02928,0.97661,-0.18800,0.0,2023,6,7,16,59,29,24
47.99290,-0.03955,-0.04742,0.00000,0.03087,0.97441,-0.18593,0.0,2023,6,7,16,59,29,35
47.99300,-0.00455,-0.04742,0.00000,0.03184,0.97734,-0.18788,0.0,2023,6,7,16,59,29,46
47.99310,0.04795,0.00508,0.00000,0.03099,0.97722,-0.18654,0.0,2023,6,7,16,59,29,57
47.99320,-0.21455,0.02258,0.00000,0.03367,0.97637,-0.18861,0.0,2023,6,7,16,59,29,68
47.99330,-0.09205,0.11008,0.00000,0.03062,0.97588,-0.18825,0.0,2023,6,7,16,59,29,79
47.99340,0.11795,-0.18742,0.00000,0.03013,0.97454,-0.18983,0.0,2023,6,7,16,59,29,90
47.99350,-0.10955,-0.01242,0.00000,0.03062,0.97624,-0.19081,0.0,2023,6,7,16,59,29,101
47.99360,-0.03955,-0.01242,0.00000,0.03148,0.97710,-0.18727,0.0,2023,6,7,16,59,29,112
47.99370,-0.12705,-0.01242,0.00000,0.03160,0.97624,-0.18715,0.0,2023,6,7,16,59,29,123
47.99380,0.11795,-0.02992,0.00000,0.03099,0.97759,-0.18995,0.0,2023,6,7,16,59,29,134
47.99390,0.01295,0.11008,0.00000,0.03172,0.97502,-0.18959,0.0,2023,6,7,16,59,29,145
47.99400,-0.10955,0.12758,0.00000,0.03331,0.97563,-0.18703,0.0,2023,6,7,16,59,29,156
47.99410,-0.05705,-0.08242,0.00000,0.02965,0.97783,-0.18507,0.0,2023,6,7,16,59,29,167
47.99420,-0.07455,0.09258,0.00000,0.03245,0.97576,-0.18727,0.0,2023,6,7,16,59,29,178
47.99430,-0.05705,0.04008,0.00000,0.03026,0.97649,-0.18837,0.0,2023,6,7,16,59,29,189
47.99440,0.13545,0.12758,0.00000,0.03282,0.97539,-0.18812,0.0,2023,6,7,16,59,29,200
47.99450,-0.09205,-0.15242,0.00000,0.03099,0.97600,-0.18800,0.0,2023,6,7,16,59,29,211
47.99460,0.15295,-0.30992,0.00000,0.03087,0.97637,-0.18776,0.0,2023,6,7,16,59,29,222
47.99470,0.01295,-0.11742,0.00000,0.03184,0.97478,-0.18764,0.0,2023,6,7,16,59,29,233
47.99480,-0.03955,0.14508,0.00000,0.03196,0.97722,-0.18739,0.0,2023,6,7,16,59,29,244
47.99490,-0.14455,0.09258,0.00000,0.03196,0.97746,-0.19008,0.0,2023,6,7,16,59,29,255
47.99500,0.04795,0.04008,0.00000,0.03099,0.97698,-0.18922,0.0,2023,6,7,16,59,29,266
47.99510,-0.00455,0.02258,0.00000,0.03026,0.97551,-0.18666,0.0,2023,6,7,16,59,29,277
47.99520,0.11795,0.18008,0.00000,0.03026,0.97624,-0.18605,0.0,2023,6,7,16,59,29,288
47.99530,0.01295,0.07508,0.00000,0.03331,0.97710,-0.18910,0.0,2023,6,7,16,59,29,299
47.99540,0.06545,0.11008,0.00000,0.03270,0.97612,-0.18898,0.0,2023,6,7,16,59,29,310
47.99550,0.11795,0.00508,0.00000,0.03184,0.97661,-0.18739,0.0,2023,6,7,16,59,29,321
47.99560,-0.16205,0.09258,0.00000,0.03221,0.97551,-0.18666,0.0,2023,6,7,16,59,29,332
47.99570,0.06545,-0.01242,0.00000,0.03062,0.97759,-0.18690,0.0,2023,6,7,16,59,29,343
47.99580,0.03045,-0.20492,0.00000,0.03209,0.97539,-0.18727,0.0,2023,6,7,16,59,29,354
47.99590,0.04795,0.11008,0.00000,0.03209,0.97868,-0.18678,0.0,2023,6,7,16,59,29,365
47.99600,0.34545,-0.23992,0.00000,0.03123,0.97612,-0.18788,0.0,2023,6,7,16,59,29,376
47.99610,0.04795,-0.20492,0.00000,0.03062,0.97637,-0.18788,0.0,2023,6,7,16,59,29,387
47.99620,-0.21455,-0.04742,0.00000,0.03233,0.97478,-0.18751,0.0,2023,6,7,16,59,29,398
47.99630,-0.02205,0.07508,0.00000,0.03013,0.97661,-0.18910,0.0,2023,6,7,16,59,29,409
47.99640,0.08295,0.07508,0.00000,0.03318,0.97600,-0.18849,0.0,2023,6,7,16,59,29,420
47.99650,-0.05705,-0.09992,0.00000,0.03087,0.97515,-0.18764,0.0,2023,6,7,16,59,29,431
47.99660,-0.02205,-0.11742,0.00000,0.03221,0.97673,-0.18776,0.0,2023,6,7,16,59,29,442
47.99670,0.06545,0.09258,0.00000,0.03453,0.97600,-0.18764,0.0,2023,6,7,16,59,29,453
47.99680,0.01295,0.00508,0.00000,0.03404,0.97673,-0.18776,0.0,2023,6,7,16,59,29,464
47.99690,0.10045,-0.01242,0.00000,0.03001,0.97746,-0.18947,0.0,2023,6,7,16,59,29,475
47.99700,0.08295,0.11008,0.00000,0.03001,0.97710,-0.18898,0.0,2023,6,7,16,59,29,486
47.99710,-0.24955,-0.01242,0.00000,0.02928,0.97417,-0.18764,0.0,2023,6,7,16,59,29,497
47.99720,0.11795,0.07508,0.00000,0.03160,0.97673,-0.18654,0.0,2023,6,7,16,59,29,508
47.99730,0.01295,0.30258,0.00000,0.03184,0.97661,-0.18825,0.0,2023,6,7,16,59,29,519
47.99740,-0.02205,0.00508,0.00000,0.03111,0.97454,-0.18947,0.0,2023,6,7,16,59,29,530
47.99750,0.08295,0.11008,0.00000,0.02965,0.97783,-0.19117,0.0,2023,6,7,16,59,29,541
47.99760,-0.05705,-0.06492,0.00000,0.03123,0.97405,-0.18739,0.0,2023,6,7,16,59,29,552
47.99770,-0.02205,0.02258,0.00000,0.03013,0.97771,-0.18861,0.0,2023,6,7,16,59,29,563
47.99780,-0.00455,-0.09992,0.00000,0.03038,0.97673,-0.18800,0.0,2023,6,7,16,59,29,574
47.99790,0.01295,0.14508,0.00000,0.03135,0.97515,-0.18776,0.0,2023,6,7,16,59,29,585
47.99800,0.04795,-0.09992,0.00000,0.03221,0.97576,-0.18703,0.0,2023,6,7,16,59,29,596
47.99810,-0.03955,0.05758,0.00000,0.03123,0.97478,-0.18605,0.0,2023,6,7,16,59,29,607
47.99820,-0.09205,-0.08242,0.00000,0.03013,0.97417,-0.18629,0.0,2023,6,7,16,59,29,618
47.99830,0.15295,0.16258,0.00000,0.03135,0.97966,-0.19105,0.0,2023,6,7,16,59,29,629
47.99840,0.06545,-0.04742,0.00000,0.03160,0.97649,-0.18727,0.0,2023,6,7,16,59,29,640
47.99850,-0.02205,0.19758,0.00000,0.03209,0.97576,-0.18593,0.0,2023,6,7,16,59,29,651
47.99860,-0.02205,-0.27492,0.00000,0.03184,0.97698,-0.18812,0.0,2023,6,7,16,59,29,662
47.99870,-0.05705,0.16258,0.00000,0.03026,0.97551,-0.18715,0.0,2023,6,7,16,59,29,673
47.99880,0.10045,-0.13492,0.00000,0.03111,0.97612,-0.18861,0.0,2023,6,7,16,59,29,684
47.99890,0.03045,0.04008,0.00000,0.03184,0.97466,-0.18739,0.0,2023,6,7,16,59,29,695
47.99900,-0.07455,0.05758,0.00000,0.03013,0.97746,-0.18727,0.0,2023,6,7,16,59,29,706
47.99910,-0.02205,-0.06492,0.00000,0.03294,0.97978,-0.18678,0.0,2023,6,7,16,59,29,717
47.99920,-0.00455,-0.13492,0.00000,0.02708,0.97856,-0.18861,0.0,2023,6,7,16,59,29,728
47.99930,-0.00455,0.14508,0.00000,0.02952,0.97563,-0.18751,0.0,2023,6,7,16,59,29,739
47.99940,-0.14455,-0.06492,0.00000,0.03306,0.97588,-0.18800,0.0,2023,6,7,16,59,29,750
47.99950,-0.03955,-0.02992,0.00000,0.03160,0.97624,-0.18666,0.0,2023,6,7,16,59,29,761
47.99960,-0.24955,0.14508,0.00000,0.03318,0.97368,-0.18849,0.0,2023,6,7,16,59,29,772
47.99970,0.01295,0.04008,0.00000,0.03306,0.97478,-0.18922,0.0,2023,6,7,16,59,29,783
47.99980,0.25795,-0.01242,0.00000,0.03050,0.97429,-0.18812,0.0,2023,6,7,16,59,29,794
47.99990,0.08295,-0.15242,0.00000,0.03257,0.97698,-0.18751,0.0,2023,6,7,16,59,29,805
48.00000,-0.00455,-0.01242,0.00000,0.03282,0.97807,-0.18825,0.0,2023,6,7,16,59,29,816
48.00010,0.06545,-0.02992,0.00000,0.03233,0.97746,-0.18788,0.0,2023,6,7,16,59,29,827
48.00020,0.08295,-0.06492,0.00000,0.02965,0.97746,-0.18654,0.0,2023,6,7,16,59,29,838
48.00030,0.04795,-0.09992,0.00000,0.03184,0.97795,-0.18995,0.0,2023,6,7,16,59,29,849
48.00040,0.15295,0.32008,0.00000,0.03233,0.97710,-0.18544,0.0,2023,6,7,16,59,29,860
48.00050,-0.05705,0.00508,0.00000,0.03135,0.97722,-0.18629,0.0,2023,6,7,16,59,29,871
48.00060,0.11795,-0.08242,0.00000,0.03013,0.97600,-0.18983,0.0,2023,6,7,16,59,29,882
48.00070,0.01295,-0.25742,0.00000,0.03184,0.97685,-0.18727,0.0,2023,6,7,16,59,29,893
48.00080,-0.02205,-0.11742,0.00000,0.03209,0.97600,-0.18581,0.0,2023,6,7,16,59,29,904
48.00090,-0.16205,0.05758,0.00000,0.03196,0.97527,-0.18690,0.0,2023,6,7,16,59,29,915
48.00100,-0.02205,0.30258,0.00000,0.03050,0.97624,-0.18934,0.0,2023,6,7,16,59,29,926
48.00110,0.13545,-0.20492,0.00000,0.03038,0.97722,-0.18739,0.0,2023,6,7,16,59,29,937
48.00120,-0.03955,-0.04742,0.00000,0.02989,0.97600,-0.18788,0.0,2023,6,7,16,59,29,948
48.00130,-0.02205,0.00508,0.00000,0.03062,0.97783,-0.18812,0.0,2023,6,7,16,59,29,959
48.00140,-0.12705,0.18008,0.00000,0.03135,0.97600,-0.18922,0.0,2023,6,7,16,59,29,970
48.00150,-0.02205,-0.13492,0.00000,0.03087,0.97600,-0.18690,0.0,2023,6,7,16,59,30,1
48.00160,0.04795,0.14508,0.00000,0.02977,0.97637,-0.18690,0.0,2023,6,7,16,59,30,12
48.00170,-0.00455,0.07508,0.00000,0.03135,0.97612,-0.18605,0.0,2023,6,7,16,59,30,23
48.00180,-0.17955,0.14508,0.00000,0.03196,0.97661,-0.18739,0.0,2023,6,7,16,59,30,34
48.00190,0.24045,-0.04742,0.00000,0.03148,0.97820,-0.18873,0.0,2023,6,7,16,59,30,45
48.00200,-0.02205,0.11008,0.00000,0.03074,0.97576,-0.18666,0.0,2023,6,7,16,59,30,56
48.00210,-0.03955,0.09258,0.00000,0.03233,0.97685,-0.18837,0.0,2023,6,7,16,59,30,67
48.00220,0.15295,-0.09992,0.00000,0.03001,0.97844,-0.18983,0.0,2023,6,7,16,59,30,78
48.00230,0.17045,-0.27492,0.00000,0.03196,0.97612,-0.19044,0.0,2023,6,7,16,59,30,89
48.00240,0.22295,-0.11742,0.00000,0.03270,0.97600,-0.19227,0.0,2023,6,7,16,59,30,100
48.00250,0.01295,-0.04742,0.00000,0.03416,0.97429,-0.18690,0.0,2023,6,7,16,59,30,111
48.00260,-0.00455,0.18008,0.00000,0.03099,0.97820,-0.18751,0.0,2023,6,7,16,59,30,122
48.00270,-0.17955,0.04008,0.00000,0.03245,0.97576,-0.18605,0.0,2023,6,7,16,59,30,133
48.00280,0.15295,-0.11742,0.00000,0.03038,0.97661,-0.19020,0.0,2023,6,7,16,59,30,144
48.00290,-0.05705,0.12758,0.00000,0.03050,0.97661,-0.18642,0.0,2023,6,7,16,59,30,155
48.00300,-0.10955,0.04008,0.00000,0.03050,0.97075,-0.18812,0.0,2023,6,7,16,59,30,166
48.00310,0.04795,-0.04742,0.00000,0.03062,0.97637,-0.18605,0.0,2023,6,7,16,59,30,177
48.00320,-0.05705,0.09258,0.00000,0.03135,0.97502,-0.18568,0.0,2023,6,7,16,59,30,188
48.00330,-0.00455,0.18008,0.00000,0.03038,0.97551,-0.18776,0.0,2023,6,7,16,59,30,199
48.00340,-0.09205,-0.04742,0.00000,0.03001,0.97637,-0.19117,0.0,2023,6,7,16,59,30,210
48.00350,0.06545,-0.02992,0.00000,0.03306,0.97405,-0.18812,0.0,2023,6,7,16,59,30,221
48.00360,-0.16205,0.00508,0.00000,0.03001,0.97722,-0.18910,0.0,2023,6,7,16,59,30,232
48.00370,-0.16205,0.00508,0.00000,0.03148,0.97588,-0.18886,0.0,2023,6,7,16,59,30,243
48.00380,0.20545,0.19758,0.00000,0.03026,0.97746,-0.18995,0.0,2023,6,7,16,59,30,254
48.00390,0.20545,-0.08242,0.00000,0.03087,0.97685,-0.18922,0.0,2023,6,7,16,59,30,265
48.00400,0.01295,-0.06492,0.00000,0.03074,0.97393,-0.18642,0.0,2023,6,7,16,59,30,276
48.00410,-0.10955,-0.08242,0.00000,0.03148,0.97759,-0.18654,0.0,2023,6,7,16,59,30,287
48.00420,-0.03955,-0.06492,0.00000,0.03087,0.97551,-0.18959,0.0,2023,6,7,16,59,30,298
48.00430,0.17045,-0.02992,0.00000,0.03074,0.97783,-0.18922,0.0,2023,6,7,16,59,30,309
48.00440,-0.03955,-0.09992,0.00000,0.03123,0.97563,-0.18690,0.0,2023,6,7,16,59,30,320
48.00450,0.01295,0.02258,0.00000,0.03099,0.97429,-0.18629,0.0,2023,6,7,16,59,30,331
48.00460,-0.21455,0.07508,0.00000,0.03196,0.97490,-0.18861,0.0,2023,6,7,16,59,30,342
48.00470,0.18795,0.05758,0.00000,0.03074,0.97673,-0.19069,0.0,2023,6,7,16,59,30,353
48.00480,0.13545,0.02258,0.00000,0.02904,0.97588,-0.18922,0.0,2023,6,7,16,59,30,364
48.00490,-0.24955,0.02258,0.00000,0.03331,0.97649,-0.18629,0.0,2023,6,7,16,59,30,375
48.00500,-0.02205,0.02258,0.00000,0.03270,0.97685,-0.18507,0.0,2023,6,7,16,59,30,386
48.00510,0.06545,-0.15242,0.00000,0.02928,0.97441,-0.18666,0.0,2023,6,7,16,59,30,397
48.00520,-0.17955,0.09258,0.00000,0.03026,0.97771,-0.18934,0.0,2023,6,7,16,59,30,408
48.00530,0.10045,-0.09992,0.00000,0.02855,0.97661,-0.18776,0.0,2023,6,7,16,59,30,419
48.00540,-0.07455,-0.02992,0.00000,0.03160,0.97746,-0.18593,0.0,2023,6,7,16,59,30,430
48.00550,0.06545,-0.11742,0.00000,0.03135,0.97832,-0.18690,0.0,2023,6,7,16,59,30,441
48.00560,-0.02205,-0.16992,0.00000,0.03074,0.97649,-0.19081,0.0,2023,6,7,16,59,30,452
48.00570,-0.09205,-0.01242,0.00000,0.03160,0.97515,-0.18910,0.0,2023,6,7,16,59,30,463
48.00580,-0.00455,-0.27492,0.00000,0.03074,0.97673,-0.18861,0.0,2023,6,7,16,59,30,474
48.00590,-0.10955,0.09258,0.00000,0.03026,0.97771,-0.18873,0.0,2023,6,7,16,59,30,485
48.00600,-0.07455,0.26758,0.00000,0.03087,0.97868,-0.18666,0.0,2023,6,7,16,59,30,496
48.00610,-0.09205,0.18008,0.00000,0.02830,0.97600,-0.18861,0.0,2023,6,7,16,59,30,507
48.00620,-0.03955,-0.09992,0.00000,0.03367,0.97502,-0.18873,0.0,2023,6,7,16,59,30,518
48.00630,-0.09205,-0.04742,0.00000,0.03184,0.97563,-0.18983,0.0,2023,6,7,16,59,30,529
48.00640,-0.00455,0.00508,0.00000,0.03087,0.97807,-0.18690,0.0,2023,6,7,16,59,30,540
48.00650,0.10045,-0.13492,0.00000,0.03160,0.97734,-0.18703,0.0,2023,6,7,16,59,30,551
48.00660,0.13545,-0.04742,0.00000,0.03294,0.97380,-0.18947,0.0,2023,6,7,16,59,30,562
48.00670,-0.12705,0.04008,0.00000,0.03074,0.97527,-0.18971,0.0,2023,6,7,16,59,30,573
48.00680,0.01295,0.02258,0.00000,0.03074,0.97820,-0.18849,0.0,2023,6,7,16,59,30,584
48.00690,-0.03955,0.05758,0.00000,0.03160,0.97832,-0.18690,0.0,2023,6,7,16,59,30,595
48.00700,-0.03955,-0.06492,0.00000,0.03111,0.97588,-0.18690,0.0,2023,6,7,16,59,30,606
48.00710,0.17045,-0.11742,0.00000,0.03135,0.97661,-0.18825,0.0,2023,6,7,16,59,30,617
48.00720,-0.05705,0.09258,0.00000,0.03062,0.97771,-0.18739,0.0,2023,6,7,16,59,30,628
48.00730,0.10045,-0.04742,0.00000,0.02806,0.97820,-0.18983,0.0,2023,6,7,16,59,30,639
48.00740,0.03045,0.00508,0.00000,0.03233,0.97576,-0.18666,0.0,2023,6,7,16,59,30,650
48.00750,0.04795,0.26758,0.00000,0.03111,0.97893,-0.18727,0.0,2023,6,7,16,59,30,661
48.00760,0.11795,-0.18742,0.00000,0.03233,0.97624,-0.18886,0.0,2023,6,7,16,59,30,672
48.00770,0.08295,0.00508,0.00000,0.02989,0.97576,-0.18910,0.0,2023,6,7,16,59,30,683
48.00780,-0.02205,0.04008,0.00000,0.03038,0.97576,-0.18776,0.0,2023,6,7,16,59,30,694
48.00790,-0.10955,0.05758,0.00000,0.03038,0.97368,-0.18666,0.0,2023,6,7,16,59,30,705
48.00800,-0.09205,0.02258,0.00000,0.03245,0.97637,-0.18642,0.0,2023,6,7,16,59,30,716
48.00810,-0.10955,-0.09992,0.00000,0.03257,0.97588,-0.18959,0.0,2023,6,7,16,59,30,727
48.00820,0.22295,0.14508,0.00000,0.02904,0.97649,-0.19117,0.0,2023,6,7,16,59,30,738
48.00830,0.10045,0.05758,0.00000,0.02867,0.97490,-0.18776,0.0,2023,6,7,16,59,30,749
48.00840,-0.19705,0.19758,0.00000,0.03087,0.97820,-0.18617,0.0,2023,6,7,16,59,30,760
48.00850,0.06545,-0.02992,0.00000,0.03233,0.97746,-0.18666,0.0,2023,6,7,16,59,30,771
48.00860,-0.12705,0.21508,0.00000,0.02879,0.97759,-0.18947,0.0,2023,6,7,16,59,30,782
48.00870,0.13545,-0.09992,0.00000,0.03233,0.97710,-0.18898,0.0,2023,6,7,16,59,30,793
48.00880,-0.03955,0.25008,0.00000,0.03172,0.97576,-0.18825,0.0,2023,6,7,16,59,30,804
48.00890,0.04795,0.02258,0.00000,0.03062,0.97612,-0.18690,0.0,2023,6,7,16,59,30,815
48.00900,-0.03955,-0.08242,0.00000,0.03172,0.97685,-0.18849,0.0,2023,6,7,16,59,30,826
48.00910,-0.02205,0.02258,0.00000,0.03111,0.97600,-0.18995,0.0,2023,6,7,16,59,30,837
48.00920,0.11795,-0.02992,0.00000,0.03135,0.97832,-0.18812,0.0,2023,6,7,16,59,30,848
48.00930,-0.09205,-0.02992,0.00000,0.03160,0.97441,-0.18690,0.0,2023,6,7,16,59,30,859
48.00940,-0.14455,0.11008,0.00000,0.03184,0.97588,-0.18812,0.0,2023,6,7,16,59,30,870
48.00950,-0.02205,0.04008,0.00000,0.02989,0.97673,-0.18678,0.0,2023,6,7,16,59,30,881
48.00960,-0.00455,0.00508,0.00000,0.02989,0.97649,-0.18581,0.0,2023,6,7,16,59,30,892
48.00970,-0.00455,-0.16992,0.00000,0.03160,0.97795,-0.18837,0.0,2023,6,7,16,59,30,903
48.00980,0.06545,0.02258,0.00000,0.03013,0.97637,-0.19008,0.0,2023,6,7,16,59,30,914
48.00990,0.03045,0.09258,0.00000,0.03087,0.97576,-0.18593,0.0,2023,6,7,16,59,30,925
48.01000,0.08295,-0.02992,0.00000,0.03123,0.97637,-0.18776,0.0,2023,6,7,16,59,30,936
48.01010,0.11795,0.00508,0.00000,0.03074,0.97771,-0.18727,0.0,2023,6,7,16,59,30,947
48.01020,0.17045,-0.02992,0.00000,0.02867,0.97893,-0.18751,0.0,2023,6,7,16,59,30,958
48.01030,0.04795,-0.15242,0.00000,0.02794,0.97502,-0.19105,0.0,2023,6,7,16,59,30,969
48.01040,0.13545,0.04008,0.00000,0.03038,0.97490,-0.18800,0.0,2023,6,7,16,59,30,980
48.01050,-0.09205,-0.23992,0.00000,0.03148,0.97576,-0.18666,0.0,2023,6,7,16,59,31,1
48.01060,0.08295,-0.01242,0.00000,0.03087,0.97661,-0.18849,0.0,2023,6,7,16,59,31,12
48.01070,-0.17955,-0.09992,0.00000,0.03135,0.97527,-0.18898,0.0,2023,6,7,16,59,31,23
48.01080,-0.10955,0.05758,0.00000,0.03038,0.97661,-0.18800,0.0,2023,6,7,16,59,31,34
48.01090,0.11795,0.04008,0.00000,0.03233,0.97563,-0.18800,0.0,2023,6,7,16,59,31,45
48.01100,-0.02205,0.05758,0.00000,0.03257,0.97783,-0.18666,0.0,2023,6,7,16,59,31,56
48.01110,-0.03955,-0.02992,0.00000,0.03099,0.97771,-0.18898,0.0,2023,6,7,16,59,31,67
48.01120,-0.07455,-0.09992,0.00000,0.03148,0.97368,-0.18788,0.0,2023,6,7,16,59,31,78
48.01130,-0.12705,-0.04742,0.00000,0.02977,0.97771,-0.18751,0.0,2023,6,7,16,59,31,89
48.01140,-0.23205,0.00508,0.00000,0.03184,0.97405,-0.18947,0.0,2023,6,7,16,59,31,100
48.01150,-0.10955,-0.02992,0.00000,0.03318,0.97490,-0.18739,0.0,2023,6,7,16,59,31,111
48.01160,-0.23205,0.30258,0.00000,0.03013,0.97466,-0.18568,0.0,2023,6,7,16,59,31,122
48.01170,0.01295,0.07508,0.00000,0.02940,0.97685,-0.19093,0.0,2023,6,7,16,59,31,133
48.01180,0.11795,0.02258,0.00000,0.03148,0.97807,-0.18886,0.0,2023,6,7,16,59,31,144
48.01190,-0.12705,0.12758,0.00000,0.03209,0.97673,-0.18715,0.0,2023,6,7,16,59,31,155
48.01200,-0.10955,0.11008,0.00000,0.03062,0.97539,-0.18703,0.0,2023,6,7,16,59,31,166
48.01210,0.03045,0.00508,0.00000,0.03111,0.97710,-0.18703,0.0,2023,6,7,16,59,31,177
48.01220,0.04795,-0.06492,0.00000,0.03123,0.97563,-0.18861,0.0,2023,6,7,16,59,31,188
48.01230,0.03045,0.00508,0.00000,0.03050,0.97673,-0.18922,0.0,2023,6,7,16,59,31,199
48.01240,-0.07455,-0.13492,0.00000,0.03233,0.97624,-0.19142,0.0,2023,6,7,16,59,31,210
48.01250,-0.05705,-0.13492,0.00000,0.03196,0.97893,-0.18800,0.0,2023,6,7,16,59,31,221
48.01260,-0.03955,-0.04742,0.00000,0.03038,0.97673,-0.18922,0.0,2023,6,7,16,59,31,232
48.01270,-0.07455,0.11008,0.00000,0.03111,0.97881,-0.19020,0.0,2023,6,7,16,59,31,243
48.01280,-0.24955,-0.02992,0.00000,0.02989,0.97502,-0.18739,0.0,2023,6,7,16,59,31,254
48.01290,0.10045,-0.13492,0.00000,0.03026,0.97612,-0.18898,0.0,2023,6,7,16,59,31,265
48.01300,0.04795,0.05758,0.00000,0.03062,0.97600,-0.18739,0.0,2023,6,7,16,59,31,276
48.01310,-0.05705,0.02258,0.00000,0.03416,0.97612,-0.18959,0.0,2023,6,7,16,59,31,287
48.01320,0.13545,0.02258,0.00000,0.03172,0.97515,-0.19130,0.0,2023,6,7,16,59,31,298
48.01330,-0.07455,0.04008,0.00000,0.03123,0.97649,-0.18739,0.0,2023,6,7,16,59,31,309
48.01340,-0.05705,0.04008,0.00000,0.02916,0.97551,-0.18666,0.0,2023,6,7,16,59,31,320
48.01350,0.10045,-0.23992,0.00000,0.03111,0.97478,-0.18971,0.0,2023,6,7,16,59,31,331
48.01360,-0.19705,0.12758,0.00000,0.03074,0.97844,-0.18764,0.0,2023,6,7,16,59,31,342
48.01370,0.01295,0.05758,0.00000,0.03233,0.97466,-0.18910,0.0,2023,6,7,16,59,31,353
48.01380,0.08295,0.16258,0.00000,0.02977,0.97673,-0.18739,0.0,2023,6,7,16,59,31,364
48.01390,0.10045,-0.06492,0.00000,0.03209,0.97502,-0.18849,0.0,2023,6,7,16,59,31,375
48.01400,-0.05705,-0.06492,0.00000,0.03184,0.97771,-0.18995,0.0,2023,6,7,16,59,31,386
48.01410,0.04795,0.07508,0.00000,0.03050,0.97429,-0.18922,0.0,2023,6,7,16,59,31,397
48.01420,0.01295,-0.02992,0.00000,0.03172,0.97722,-0.18666,0.0,2023,6,7,16,59,31,408
48.01430,-0.03955,-0.16992,0.00000,0.02977,0.97612,-0.18971,0.0,2023,6,7,16,59,31,419
48.01440,0.04795,-0.13492,0.00000,0.03026,0.97563,-0.18678,0.0,2023,6,7,16,59,31,430
48.01450,-0.03955,0.04008,0.00000,0.02977,0.97661,-0.18776,0.0,2023,6,7,16,59,31,441
48.01460,0.13545,-0.01242,0.00000,0.03074,0.97722,-0.18910,0.0,2023,6,7,16,59,31,452
48.01470,0.04795,-0.23992,0.00000,0.03184,0.97551,-0.18605,0.0,2023,6,7,16,59,31,463
48.01480,-0.09205,0.05758,0.00000,0.02989,0.97600,-0.18837,0.0,2023,6,7,16,59,31,474
48.01490,-0.00455,0.11008,0.00000,0.02965,0.97759,-0.18825,0.0,2023,6,7,16,59,31,485
48.01500,0.04795,0.16258,0.00000,0.03245,0.97563,-0.18886,0.0,2023,6,7,16,59,31,496
48.01510,-0.17955,0.18008,0.00000,0.03526,0.97563,-0.18678,0.0,2023,6,7,16,59,31,507
48.01520,-0.05705,-0.06492,0.00000,0.03123,0.97661,-0.19154,0.0,2023,6,7,16,59,31,518
48.01530,0.15295,0.14508,0.00000,0.03026,0.97917,-0.18971,0.0,2023,6,7,16,59,31,529
48.01540,-0.07455,-0.11742,0.00000,0.03087,0.97576,-0.18959,0.0,2023,6,7,16,59,31,540
48.01550,0.10045,0.12758,0.00000,0.02818,0.97685,-0.19117,0.0,2023,6,7,16,59,31,551
48.01560,0.04795,-0.11742,0.00000,0.03343,0.97710,-0.18764,0.0,2023,6,7,16,59,31,562
48.01570,-0.19705,0.05758,0.00000,0.03099,0.97454,-0.18837,0.0,2023,6,7,16,59,31,573
48.01580,0.13545,-0.02992,0.00000,0.03013,0.97576,-0.19252,0.0,2023,6,7,16,59,31,584
48.01590,0.08295,-0.18742,0.00000,0.03257,0.97515,-0.18910,0.0,2023,6,7,16,59,31,595
48.01600,-0.00455,0.09258,0.00000,0.03355,0.97515,-0.18825,0.0,2023,6,7,16,59,31,606
48.01610,-0.03955,0.04008,0.00000,0.03172,0.97746,-0.18898,0.0,2023,6,7,16,59,31,617
48.01620,-0.09205,-0.16992,0.00000,0.03050,0.97637,-0.18873,0.0,2023,6,7,16,59,31,628
48.01630,0.01295,-0.01242,0.00000,0.03062,0.97685,-0.18861,0.0,2023,6,7,16,59,31,639
48.01640,0.22295,-0.08242,0.00000,0.03270,0.97698,-0.19008,0.0,2023,6,7,16,59,31,650
48.01650,-0.10955,-0.13492,0.00000,0.03026,0.97454,-0.18666,0.0,2023,6,7,16,59,31,661
48.01660,-0.19705,-0.02992,0.00000,0.02928,0.97515,-0.18776,0.0,2023,6,7,16,59,31,672
48.01670,0.04795,-0.08242,0.00000,0.02879,0.97649,-0.18910,0.0,2023,6,7,16,59,31,683
48.01680,-0.03955,0.07508,0.00000,0.03074,0.97673,-0.19020,0.0,2023,6,7,16,59,31,694
48.01690,0.01295,-0.09992,0.00000,0.03111,0.97710,-0.18971,0.0,2023,6,7,16,59,31,705
48.01700,0.04795,-0.08242,0.00000,0.02940,0.97600,-0.18544,0.0,2023,6,7,16,59,31,716
48.01710,-0.12705,-0.09992,0.00000,0.02965,0.97515,-0.19020,0.0,2023,6,7,16,59,31,727
48.01720,0.08295,-0.13492,0.00000,0.03062,0.97576,-0.19044,0.0,2023,6,7,16,59,31,738
48.01730,-0.05705,0.05758,0.00000,0.03062,0.97527,-0.18873,0.0,2023,6,7,16,59,31,749
48.01740,-0.05705,-0.06492,0.00000,0.03172,0.97734,-0.19008,0.0,2023,6,7,16,59,31,760
48.01750,-0.14455,0.21508,0.00000,0.03074,0.97905,-0.18788,0.0,2023,6,7,16,59,31,771
48.01760,-0.10955,0.07508,0.00000,0.03233,0.97698,-0.18776,0.0,2023,6,7,16,59,31,782
48.01770,0.04795,-0.15242,0.00000,0.02977,0.97673,-0.18934,0.0,2023,6,7,16,59,31,793
48.01780,0.01295,-0.02992,0.00000,0.02952,0.97637,-0.18788,0.0,2023,6,7,16,59,31,804
48.01790,-0.09205,-0.02992,0.00000,0.03184,0.97820,-0.18593,0.0,2023,6,7,16,59,31,815
48.01800,0.08295,-0.04742,0.00000,0.02879,0.97454,-0.19239,0.0,2023,6,7,16,59,31,826
48.01810,-0.03955,0.04008,0.00000,0.03172,0.97612,-0.18934,0.0,2023,6,7,16,59,31,837
48.01820,-0.10955,0.16258,0.00000,0.03074,0.97661,-0.18837,0.0,2023,6,7,16,59,31,848
48.01830,-0.00455,-0.02992,0.00000,0.03062,0.97661,-0.18739,0.0,2023,6,7,16,59,31,859
48.01840,-0.16205,-0.06492,0.00000,0.03209,0.97441,-0.18861,0.0,2023,6,7,16,59,31,870
48.01850,-0.21455,0.04008,0.00000,0.03087,0.97807,-0.18727,0.0,2023,6,7,16,59,31,881
48.01860,-0.02205,-0.04742,0.00000,0.03160,0.97588,-0.19020,0.0,2023,6,7,16,59,31,892
48.01870,-0.23205,0.19758,0.00000,0.03087,0.97563,-0.18983,0.0,2023,6,7,16,59,31,903
48.01880,0.10045,0.05758,0.00000,0.03026,0.97588,-0.19288,0.0,2023,6,7,16,59,31,914
48.01890,0.11795,-0.13492,0.00000,0.03111,0.97637,-0.18959,0.0,2023,6,7,16,59,31,925
48.01900,0.13545,-0.01242,0.00000,0.03135,0.97466,-0.19020,0.0,2023,6,7,16,59,31,936
48.01910,-0.19705,0.02258,0.00000,0.03074,0.97612,-0.18825,0.0,2023,6,7,16,59,31,947
48.01920,0.03045,0.16258,0.00000,0.03050,0.97576,-0.19178,0.0,2023,6,7,16,59,31,958
48.01930,-0.00455,0.00508,0.00000,0.03099,0.97490,-0.18922,0.0,2023,6,7,16,59,31,969
48.01940,-0.12705,0.05758,0.00000,0.03270,0.97673,-0.19044,0.0,2023,6,7,16,59,31,980
48.01950,-0.14455,-0.09992,0.00000,0.03416,0.97576,-0.18873,0.0,2023,6,7,16,59,32,1
48.01960,-0.14455,-0.01242,0.00000,0.03209,0.97637,-0.19105,0.0,2023,6,7,16,59,32,12
48.01970,-0.07455,-0.09992,0.00000,0.03221,0.97466,-0.18873,0.0,2023,6,7,16,59,32,23
48.01980,-0.16205,0.11008,0.00000,0.03087,0.97893,-0.18995,0.0,2023,6,7,16,59,32,34
48.01990,-0.12705,0.05758,0.00000,0.03099,0.97539,-0.18922,0.0,2023,6,7,16,59,32,45
48.02000,0.11795,-0.06492,0.00000,0.03160,0.97600,-0.18788,0.0,2023,6,7,16,59,32,56
48.02010,0.01295,0.14508,0.00000,0.02965,0.97807,-0.19032,0.0,2023,6,7,16,59,32,67
48.02020,0.11795,0.07508,0.00000,0.03050,0.97649,-0.18825,0.0,2023,6,7,16,59,32,78
48.02030,-0.02205,0.04008,0.00000,0.02989,0.97649,-0.18776,0.0,2023,6,7,16,59,32,89
48.02040,-0.05705,0.02258,0.00000,0.03196,0.97771,-0.18861,0.0,2023,6,7,16,59,32,100
48.02050,0.27545,0.00508,0.00000,0.03160,0.97759,-0.19032,0.0,2023,6,7,16,59,32,111
48.02060,0.10045,-0.27492,0.00000,0.02952,0.97563,-0.18886,0.0,2023,6,7,16,59,32,122
48.02070,-0.10955,-0.16992,0.00000,0.02916,0.97722,-0.19142,0.0,2023,6,7,16,59,32,133
48.02080,0.13545,0.16258,0.00000,0.02952,0.97698,-0.19020,0.0,2023,6,7,16,59,32,144
48.02090,-0.12705,-0.08242,0.00000,0.02952,0.97795,-0.18947,0.0,2023,6,7,16,59,32,155
48.02100,-0.00455,-0.08242,0.00000,0.03074,0.97832,-0.18886,0.0,2023,6,7,16,59,32,166
48.02110,0.17045,-0.16992,0.00000,0.02940,0.97600,-0.18873,0.0,2023,6,7,16,59,32,177
48.02120,-0.02205,0.07508,0.00000,0.03038,0.97685,-0.18812,0.0,2023,6,7,16,59,32,188
48.02130,-0.07455,0.07508,0.00000,0.02940,0.97844,-0.18788,0.0,2023,6,7,16,59,32,199
48.02140,0.06545,-0.20492,0.00000,0.03318,0.97673,-0.18751,0.0,2023,6,7,16,59,32,210
48.02150,0.08295,-0.01242,0.00000,0.03282,0.97795,-0.18849,0.0,2023,6,7,16,59,32,221
48.02160,-0.02205,-0.11742,0.00000,0.03257,0.97441,-0.19008,0.0,2023,6,7,16,59,32,232
48.02170,0.11795,-0.32742,0.00000,0.02965,0.97576,-0.19032,0.0,2023,6,7,16,59,32,243
48.02180,-0.05705,0.05758,0.00000,0.02867,0.97539,-0.18690,0.0,2023,6,7,16,59,32,254
48.02190,0.04795,-0.13492,0.00000,0.03013,0.97563,-0.19069,0.0,2023,6,7,16,59,32,265
48.02200,-0.14455,0.12758,0.00000,0.02989,0.97563,-0.18922,0.0,2023,6,7,16,59,32,276
48.02210,0.13545,-0.04742,0.00000,0.02989,0.97893,-0.18739,0.0,2023,6,7,16,59,32,287
48.02220,0.20545,-0.32742,0.00000,0.03062,0.97710,-0.18983,0.0,2023,6,7,16,59,32,298
48.02230,0.11795,0.14508,0.00000,0.03074,0.97771,-0.18788,0.0,2023,6,7,16,59,32,309
48.02240,-0.00455,0.12758,0.00000,0.03196,0.97771,-0.18739,0.0,2023,6,7,16,59,32,320
48.02250,-0.07455,0.23258,0.00000,0.02989,0.97649,-0.18678,0.0,2023,6,7,16,59,32,331
48.02260,0.08295,-0.06492,0.00000,0.02952,0.97807,-0.18751,0.0,2023,6,7,16,59,32,342
48.02270,0.03045,0.02258,0.00000,0.03099,0.97576,-0.18983,0.0,2023,6,7,16,59,32,353
48.02280,0.10045,-0.18742,0.00000,0.03135,0.97759,-0.18812,0.0,2023,6,7,16,59,32,364
48.02290,-0.03955,0.00508,0.00000,0.03245,0.97539,-0.18922,0.0,2023,6,7,16,59,32,375
48.02300,-0.05705,-0.02992,0.00000,0.03270,0.97673,-0.18849,0.0,2023,6,7,16,59,32,386
48.02310,-0.10955,-0.09992,0.00000,0.03233,0.97588,-0.18934,0.0,2023,6,7,16,59,32,397
48.02320,0.03045,0.00508,0.00000,0.02818,0.97417,-0.19081,0.0,2023,6,7,16,59,32,408
48.02330,0.08295,-0.34492,0.00000,0.02843,0.97527,-0.18922,0.0,2023,6,7,16,59,32,419
48.02340,0.04795,-0.01242,0.00000,0.03209,0.97563,-0.18739,0.0,2023,6,7,16,59,32,430
48.02350,0.03045,-0.02992,0.00000,0.03257,0.97576,-0.18715,0.0,2023,6,7,16,59,32,441
48.02360,-0.14455,0.14508,0.00000,0.03184,0.97563,-0.18812,0.0,2023,6,7,16,59,32,452
48.02370,-0.19705,0.09258,0.00000,0.03123,0.97637,-0.18959,0.0,2023,6,7,16,59,32,463
48.02380,-0.12705,0.25008,0.00000,0.03282,0.97563,-0.19044,0.0,2023,6,7,16,59,32,474
48.02390,-0.17955,-0.06492,0.00000,0.02916,0.97685,-0.18642,0.0,2023,6,7,16,59,32,485
48.02400,-0.00455,-0.23992,0.00000,0.03184,0.97563,-0.18947,0.0,2023,6,7,16,59,32,496
48.02410,0.11795,0.04008,0.00000,0.03026,0.97588,-0.19105,0.0,2023,6,7,16,59,32,507
48.02420,-0.07455,0.11008,0.00000,0.03123,0.97600,-0.18886,0.0,2023,6,7,16,59,32,518
48.02430,-0.05705,0.16258,0.00000,0.03123,0.97942,-0.19081,0.0,2023,6,7,16,59,32,529
48.02440,0.06545,-0.13492,0.00000,0.03148,0.97844,-0.18751,0.0,2023,6,7,16,59,32,540
48.02450,-0.17955,0.04008,0.00000,0.03196,0.97661,-0.18739,0.0,2023,6,7,16,59,32,551
48.02460,-0.03955,-0.02992,0.00000,0.03074,0.97600,-0.18727,0.0,2023,6,7,16,59,32,562
48.02470,0.04795,0.04008,0.00000,0.03062,0.97868,-0.18934,0.0,2023,6,7,16,59,32,573
48.02480,-0.00455,-0.23992,0.00000,0.03257,0.97661,-0.19117,0.0,2023,6,7,16,59,32,584
48.02490,-0.00455,0.18008,0.00000,0.03233,0.97478,-0.18995,0.0,2023,6,7,16,59,32,595
48.02500,-0.12705,-0.08242,0.00000,0.02879,0.97600,-0.18886,0.0,2023,6,7,16,59,32,606
48.02510,0.11795,-0.04742,0.00000,0.03209,0.97637,-0.18825,0.0,2023,6,7,16,59,32,617
48.02520,0.11795,-0.08242,0.00000,0.03282,0.97722,-0.18898,0.0,2023,6,7,16,59,32,628
48.02530,0.01295,0.02258,0.00000,0.03135,0.97600,-0.18971,0.0,2023,6,7,16,59,32,639
48.02540,-0.23205,0.00508,0.00000,0.03111,0.97746,-0.18947,0.0,2023,6,7,16,59,32,650
48.02550,-0.10955,-0.18742,0.00000,0.03221,0.97783,-0.19093,0.0,2023,6,7,16,59,32,661
48.02560,-0.19705,0.25008,0.00000,0.03318,0.97417,-0.19008,0.0,2023,6,7,16,59,32,672
48.02570,0.13545,-0.02992,0.00000,0.02989,0.97539,-0.18995,0.0,2023,6,7,16,59,32,683
48.02580,0.04795,-0.02992,0.00000,0.03404,0.97820,-0.18922,0.0,2023,6,7,16,59,32,694
48.02590,-0.07455,-0.16992,0.00000,0.03209,0.97917,-0.19117,0.0,2023,6,7,16,59,32,705
48.02600,-0.00455,-0.34492,0.00000,0.03282,0.97490,-0.19008,0.0,2023,6,7,16,59,32,716
48.02610,0.01295,-0.13492,0.00000,0.03062,0.97454,-0.18983,0.0,2023,6,7,16,59,32,727
48.02620,-0.09205,0.02258,0.00000,0.03318,0.97649,-0.18983,0.0,2023,6,7,16,59,32,738
48.02630,0.06545,-0.01242,0.00000,0.03209,0.97527,-0.19178,0.0,2023,6,7,16,59,32,749
48.02640,-0.03955,0.02258,0.00000,0.03123,0.97600,-0.18825,0.0,2023,6,7,16,59,32,760
48.02650,-0.12705,0.12758,0.00000,0.03306,0.97783,-0.19032,0.0,2023,6,7,16,59,32,771
48.02660,0.03045,0.02258,0.00000,0.03282,0.97673,-0.18898,0.0,2023,6,7,16,59,32,782
48.02670,0.01295,0.14508,0.00000,0.03038,0.97795,-0.18886,0.0,2023,6,7,16,59,32,793
48.02680,0.10045,-0.09992,0.00000,0.03196,0.97466,-0.19215,0.0,2023,6,7,16,59,32,804
48.02690,-0.16205,0.02258,0.00000,0.03318,0.97734,-0.18873,0.0,2023,6,7,16,59,32,815
48.02700,-0.03955,0.04008,0.00000,0.03196,0.97588,-0.18910,0.0,2023,6,7,16,59,32,826
48.02710,0.10045,-0.09992,0.00000,0.02891,0.97856,-0.19349,0.0,2023,6,7,16,59,32,837
48.02720,-0.02205,-0.16992,0.00000,0.03062,0.97600,-0.18983,0.0,2023,6,7,16,59,32,848
48.02730,0.04795,0.05758,0.00000,0.03038,0.97698,-0.19203,0.0,2023,6,7,16,59,32,859
48.02740,-0.00455,-0.16992,0.00000,0.03148,0.97624,-0.18825,0.0,2023,6,7,16,59,32,870
48.02750,-0.10955,-0.20492,0.00000,0.03148,0.97588,-0.18922,0.0,2023,6,7,16,59,32,881
48.02760,0.04795,-0.04742,0.00000,0.03038,0.97698,-0.18971,0.0,2023,6,7,16,59,32,892
48.02770,-0.16205,0.19758,0.00000,0.03148,0.97576,-0.18910,0.0,2023,6,7,16,59,32,903
48.02780,-0.05705,0.09258,0.00000,0.03355,0.97551,-0.18861,0.0,2023,6,7,16,59,32,914
48.02790,-0.21455,0.12758,0.00000,0.03135,0.97441,-0.19008,0.0,2023,6,7,16,59,32,925
48.02800,-0.07455,-0.04742,0.00000,0.03074,0.97612,-0.19056,0.0,2023,6,7,16,59,32,936
48.02810,0.11795,-0.13492,0.00000,0.03233,0.97490,-0.18983,0.0,2023,6,7,16,59,32,947
48.02820,-0.16205,0.25008,0.00000,0.03074,0.97576,-0.18825,0.0,2023,6,7,16,59,32,958
48.02830,-0.03955,0.02258,0.00000,0.02830,0.97637,-0.18910,0.0,2023,6,7,16,59,32,969
48.02840,-0.12705,-0.04742,0.00000,0.03172,0.97917,-0.18629,0.0,2023,6,7,16,59,32,980
48.02850,0.01295,0.02258,0.00000,0.03111,0.97734,-0.19130,0.0,2023,6,7,16,59,33,1
48.02860,-0.12705,0.04008,0.00000,0.03392,0.97807,-0.18764,0.0,2023,6,7,16,59,33,12
48.02870,-0.02205,0.11008,0.00000,0.03306,0.97563,-0.18764,0.0,2023,6,7,16,59,33,23
48.02880,0.01295,-0.08242,0.00000,0.03196,0.97612,-0.19032,0.0,2023,6,7,16,59,33,34
48.02890,0.18795,-0.15242,0.00000,0.03331,0.97527,-0.18727,0.0,2023,6,7,16,59,33,45
48.02900,-0.02205,-0.01242,0.00000,0.02952,0.97417,-0.18739,0.0,2023,6,7,16,59,33,56
48.02910,0.03045,-0.01242,0.00000,0.03221,0.97490,-0.18886,0.0,2023,6,7,16,59,33,67
48.02920,0.01295,-0.04742,0.00000,0.03038,0.97563,-0.19044,0.0,2023,6,7,16,59,33,78
48.02930,0.20545,-0.06492,0.00000,0.03160,0.97588,-0.19191,0.0,2023,6,7,16,59,33,89
48.02940,0.11795,0.02258,0.00000,0.03172,0.97600,-0.19264,0.0,2023,6,7,16,59,33,100
48.02950,0.01295,0.14508,0.00000,0.03245,0.97710,-0.18849,0.0,2023,6,7,16,59,33,111
48.02960,-0.03955,-0.01242,0.00000,0.03196,0.97722,-0.19020,0.0,2023,6,7,16,59,33,122
48.02970,0.17045,-0.16992,0.00000,0.03135,0.97685,-0.18837,0.0,2023,6,7,16,59,33,133
48.02980,-0.03955,0.18008,0.00000,0.03318,0.97783,-0.19069,0.0,2023,6,7,16,59,33,144
48.02990,-0.05705,0.02258,0.00000,0.03184,0.97612,-0.18971,0.0,2023,6,7,16,59,33,155
48.03000,0.13545,-0.04742,0.00000,0.03038,0.97344,-0.19008,0.0,2023,6,7,16,59,33,166
48.03010,-0.12705,-0.13492,0.00000,0.03135,0.97649,-0.18959,0.0,2023,6,7,16,59,33,177
48.03020,0.01295,-0.04742,0.00000,0.03172,0.97588,-0.18873,0.0,2023,6,7,16,59,33,188
48.03030,-0.00455,0.00508,0.00000,0.03245,0.97551,-0.18922,0.0,2023,6,7,16,59,33,199
48.03040,-0.09205,0.12758,0.00000,0.03221,0.97685,-0.18995,0.0,2023,6,7,16,59,33,210
48.03050,-0.10955,-0.01242,0.00000,0.03172,0.97637,-0.19081,0.0,2023,6,7,16,59,33,221
48.03060,-0.24955,-0.06492,0.00000,0.03111,0.97698,-0.18703,0.0,2023,6,7,16,59,33,232
48.03070,0.11795,0.05758,0.00000,0.02855,0.97698,-0.18959,0.0,2023,6,7,16,59,33,243
48.03080,0.11795,-0.04742,0.00000,0.03087,0.97710,-0.18751,0.0,2023,6,7,16,59,33,254
48.03090,-0.03955,-0.02992,0.00000,0.03172,0.97551,-0.18898,0.0,2023,6,7,16,59,33,265
48.03100,0.03045,0.00508,0.00000,0.03062,0.97698,-0.19093,0.0,2023,6,7,16,59,33,276
48.03110,-0.12705,0.14508,0.00000,0.03087,0.97820,-0.18544,0.0,2023,6,7,16,59,33,287
48.03120,-0.16205,0.05758,0.00000,0.03123,0.97380,-0.18971,0.0,2023,6,7,16,59,33,298
48.03130,0.13545,0.02258,0.00000,0.03245,0.97820,-0.18959,0.0,2023,6,7,16,59,33,309
48.03140,-0.02205,0.07508,0.00000,0.03196,0.97502,-0.18849,0.0,2023,6,7,16,59,33,320
48.03150,-0.21455,0.04008,0.00000,0.02916,0.97478,-0.18788,0.0,2023,6,7,16,59,33,331
48.03160,0.29295,-0.25742,0.00000,0.03282,0.97637,-0.18715,0.0,2023,6,7,16,59,33,342
48.03170,-0.12705,-0.01242,0.00000,0.03196,0.97673,-0.18825,0.0,2023,6,7,16,59,33,353
48.03180,-0.17955,-0.06492,0.00000,0.03001,0.97746,-0.19032,0.0,2023,6,7,16,59,33,364
48.03190,0.11795,0.07508,0.00000,0.03050,0.97393,-0.19069,0.0,2023,6,7,16,59,33,375
48.03200,0.13545,0.05758,0.00000,0.03270,0.97637,-0.19020,0.0,2023,6,7,16,59,33,386
48.03210,-0.14455,0.07508,0.00000,0.03160,0.97490,-0.18788,0.0,2023,6,7,16,59,33,397
48.03220,-0.00455,0.11008,0.00000,0.03379,0.97649,-0.18934,0.0,2023,6,7,16,59,33,408
48.03230,0.06545,-0.01242,0.00000,0.03184,0.97783,-0.18593,0.0,2023,6,7,16,59,33,419
48.03240,0.04795,0.00508,0.00000,0.03111,0.97539,-0.18666,0.0,2023,6,7,16,59,33,430
48.03250,0.04795,0.11008,0.00000,0.02977,0.97490,-0.19081,0.0,2023,6,7,16,59,33,441
48.03260,-0.07455,0.14508,0.00000,0.03148,0.97661,-0.18873,0.0,2023,6,7,16,59,33,452
48.03270,-0.14455,-0.01242,0.00000,0.02940,0.97527,-0.18947,0.0,2023,6,7,16,59,33,463
48.03280,-0.03955,0.07508,0.00000,0.03343,0.97771,-0.19081,0.0,2023,6,7,16,59,33,474
48.03290,-0.03955,0.16258,0.00000,0.02904,0.97527,-0.18825,0.0,2023,6,7,16,59,33,485
48.03300,0.03045,-0.37992,0.00000,0.02952,0.97490,-0.18995,0.0,2023,6,7,16,59,33,496
48.03310,0.03045,0.14508,0.00000,0.03160,0.97710,-0.18825,0.0,2023,6,7,16,59,33,507
48.03320,-0.09205,-0.16992,0.00000,0.03196,0.97832,-0.19154,0.0,2023,6,7,16,59,33,518
48.03330,-0.10955,0.12758,0.00000,0.03221,0.97685,-0.18959,0.0,2023,6,7,16,59,33,529
48.03340,0.08295,0.05758,0.00000,0.03184,0.97820,-0.18739,0.0,2023,6,7,16,59,33,540
48.03350,-0.07455,-0.23992,0.00000,0.03184,0.97466,-0.18800,0.0,2023,6,7,16,59,33,551
48.03360,0.20545,0.02258,0.00000,0.03172,0.97490,-0.18947,0.0,2023,6,7,16,59,33,562
48.03370,-0.12705,0.07508,0.00000,0.03367,0.97661,-0.18898,0.0,2023,6,7,16,59,33,573
48.03380,-0.16205,0.04008,0.00000,0.03111,0.97539,-0.18959,0.0,2023,6,7,16,59,33,584
48.03390,-0.00455,0.05758,0.00000,0.03160,0.97515,-0.18922,0.0,2023,6,7,16,59,33,595
48.03400,0.10045,0.02258,0.00000,0.03160,0.97649,-0.18873,0.0,2023,6,7,16,59,33,606
48.03410,-0.09205,0.04008,0.00000,0.02965,0.97515,-0.19056,0.0,2023,6,7,16,59,33,617
48.03420,-0.00455,0.09258,0.00000,0.03428,0.97502,-0.18910,0.0,2023,6,7,16,59,33,628
48.03430,0.08295,0.05758,0.00000,0.03001,0.97722,-0.18934,0.0,2023,6,7,16,59,33,639
48.03440,-0.17955,-0.13492,0.00000,0.03160,0.97637,-0.18861,0.0,2023,6,7,16,59,33,650
48.03450,0.11795,-0.02992,0.00000,0.02928,0.97698,-0.18849,0.0,2023,6,7,16,59,33,661
48.03460,-0.07455,-0.11742,0.00000,0.03099,0.97417,-0.18593,0.0,2023,6,7,16,59,33,672
48.03470,0.17045,-0.22242,0.00000,0.03001,0.97600,-0.18898,0.0,2023,6,7,16,59,33,683
48.03480,0.15295,0.14508,0.00000,0.03331,0.97673,-0.18800,0.0,2023,6,7,16,59,33,694
48.03490,-0.17955,0.26758,0.00000,0.03257,0.97746,-0.18849,0.0,2023,6,7,16,59,33,705
48.03500,-0.10955,0.05758,0.00000,0.03245,0.97661,-0.18959,0.0,2023,6,7,16,59,33,716
48.03510,0.29295,-0.08242,0.00000,0.03355,0.97722,-0.18971,0.0,2023,6,7,16,59,33,727
48.03520,-0.00455,0.11008,0.00000,0.03196,0.97478,-0.18812,0.0,2023,6,7,16,59,33,738
48.03530,0.06545,-0.27492,0.00000,0.02879,0.97844,-0.19105,0.0,2023,6,7,16,59,33,749
48.03540,0.13545,-0.04742,0.00000,0.03221,0.97539,-0.19056,0.0,2023,6,7,16,59,33,760
48.03550,-0.17955,-0.09992,0.00000,0.03001,0.97820,-0.18690,0.0,2023,6,7,16,59,33,771
48.03560,0.04795,-0.23992,0.00000,0.03184,0.97746,-0.18873,0.0,2023,6,7,16,59,33,782
48.03570,0.06545,0.07508,0.00000,0.03196,0.97722,-0.18934,0.0,2023,6,7,16,59,33,793
48.03580,0.06545,-0.02992,0.00000,0.03062,0.97734,-0.18947,0.0,2023,6,7,16,59,33,804
48.03590,0.06545,-0.18742,0.00000,0.03428,0.97588,-0.18873,0.0,2023,6,7,16,59,33,815
48.03600,0.01295,0.07508,0.00000,0.03123,0.97454,-0.18849,0.0,2023,6,7,16,59,33,826
48.03610,-0.31955,0.07508,0.00000,0.03184,0.97661,-0.18764,0.0,2023,6,7,16,59,33,837
48.03620,0.01295,0.00508,0.00000,0.03209,0.97746,-0.18910,0.0,2023,6,7,16,59,33,848
48.03630,0.13545,-0.13492,0.00000,0.02977,0.97673,-0.18849,0.0,2023,6,7,16,59,33,859
48.03640,-0.07455,0.07508,0.00000,0.03282,0.97271,-0.18788,0.0,2023,6,7,16,59,33,870
48.03650,-0.05705,-0.01242,0.00000,0.03123,0.97710,-0.18812,0.0,2023,6,7,16,59,33,881
48.03660,-0.00455,0.02258,0.00000,0.03038,0.97624,-0.18837,0.0,2023,6,7,16,59,33,892
48.03670,-0.05705,-0.06492,0.00000,0.03148,0.97771,-0.18776,0.0,2023,6,7,16,59,33,903
48.03680,0.03045,0.05758,0.00000,0.03099,0.97600,-0.18605,0.0,2023,6,7,16,59,33,914
48.03690,-0.02205,-0.04742,0.00000,0.03172,0.97795,-0.18727,0.0,2023,6,7,16,59,33,925
48.03700,0.06545,-0.25742,0.00000,0.03135,0.97612,-0.18788,0.0,2023,6,7,16,59,33,936
48.03710,0.06545,0.09258,0.00000,0.03111,0.97441,-0.18825,0.0,2023,6,7,16,59,33,947
48.03720,-0.02205,-0.06492,0.00000,0.03221,0.97490,-0.19093,0.0,2023,6,7,16,59,33,958
48.03730,-0.00455,0.04008,0.00000,0.03026,0.97624,-0.18873,0.0,2023,6,7,16,59,33,969
48.03740,-0.02205,-0.04742,0.00000,0.03233,0.97527,-0.18581,0.0,2023,6,7,16,59,33,980
48.03750,-0.10955,-0.01242,0.00000,0.03062,0.97600,-0.19056,0.0,2023,6,7,16,59,34,1
48.03760,0.22295,0.00508,0.00000,0.03184,0.97466,-0.18556,0.0,2023,6,7,16,59,34,12
48.03770,0.01295,-0.02992,0.00000,0.03087,0.97563,-0.18873,0.0,2023,6,7,16,59,34,23
48.03780,-0.12705,0.05758,0.00000,0.03270,0.97771,-0.18886,0.0,2023,6,7,16,59,34,34
48.03790,-0.05705,-0.02992,0.00000,0.03111,0.97649,-0.18947,0.0,2023,6,7,16,59,34,45
48.03800,0.01295,-0.13492,0.00000,0.02891,0.97685,-0.18971,0.0,2023,6,7,16,59,34,56
48.03810,-0.07455,0.00508,0.00000,0.03135,0.97710,-0.18825,0.0,2023,6,7,16,59,34,67
48.03820,-0.12705,-0.20492,0.00000,0.03172,0.97759,-0.18520,0.0,2023,6,7,16,59,34,78
48.03830,0.01295,-0.08242,0.00000,0.03233,0.97844,-0.18715,0.0,2023,6,7,16,59,34,89
48.03840,-0.03955,-0.06492,0.00000,0.03148,0.97612,-0.18886,0.0,2023,6,7,16,59,34,100
48.03850,-0.03955,0.00508,0.00000,0.02952,0.97807,-0.18873,0.0,2023,6,7,16,59,34,111
48.03860,0.15295,-0.04742,0.00000,0.03245,0.97624,-0.18654,0.0,2023,6,7,16,59,34,122
48.03870,-0.31955,0.07508,0.00000,0.03343,0.97588,-0.18715,0.0,2023,6,7,16,59,34,133
48.03880,0.03045,0.09258,0.00000,0.03111,0.97771,-0.18812,0.0,2023,6,7,16,59,34,144
48.03890,0.08295,-0.11742,0.00000,0.03001,0.97624,-0.18812,0.0,2023,6,7,16,59,34,155
48.03900,-0.05705,0.14508,0.00000,0.02928,0.97637,-0.18995,0.0,2023,6,7,16,59,34,166
48.03910,-0.09205,0.33758,0.00000,0.03196,0.97868,-0.18800,0.0,2023,6,7,16,59,34,177
48.03920,-0.09205,-0.02992,0.00000,0.03148,0.97478,-0.18764,0.0,2023,6,7,16,59,34,188
48.03930,-0.14455,0.19758,0.00000,0.03111,0.97759,-0.18959,0.0,2023,6,7,16,59,34,199
48.03940,0.04795,-0.02992,0.00000,0.03172,0.97771,-0.18654,0.0,2023,6,7,16,59,34,210
48.03950,-0.05705,-0.22242,0.00000,0.03355,0.97698,-0.18873,0.0,2023,6,7,16,59,34,221
48.03960,0.04795,0.00508,0.00000,0.03026,0.97698,-0.18812,0.0,2023,6,7,16,59,34,232
48.03970,-0.07455,-0.20492,0.00000,0.03062,0.97685,-0.19056,0.0,2023,6,7,16,59,34,243
48.03980,0.01295,0.14508,0.00000,0.03074,0.97576,-0.18861,0.0,2023,6,7,16,59,34,254
48.03990,0.06545,-0.06492,0.00000,0.03087,0.97734,-0.18764,0.0,2023,6,7,16,59,34,265
48.04000,0.13545,-0.09992,0.00000,0.02867,0.97734,-0.18788,0.0,2023,6,7,16,59,34,276
48.04010,-0.12705,0.18008,0.00000,0.03184,0.97820,-0.18678,0.0,2023,6,7,16,59,34,287
48.04020,0.15295,0.02258,0.00000,0.03123,0.97673,-0.18727,0.0,2023,6,7,16,59,34,298
48.04030,-0.07455,0.02258,0.00000,0.03245,0.97612,-0.18568,0.0,2023,6,7,16,59,34,309
48.04040,0.08295,0.19758,0.00000,0.03184,0.97441,-0.18873,0.0,2023,6,7,16,59,34,320
48.04050,0.04795,-0.06492,0.00000,0.03062,0.97820,-0.18849,0.0,2023,6,7,16,59,34,331
48.04060,-0.00455,0.05758,0.00000,0.03233,0.97673,-0.18849,0.0,2023,6,7,16,59,34,342
48.04070,-0.00455,0.00508,0.00000,0.02940,0.97929,-0.18593,0.0,2023,6,7,16,59,34,353
48.04080,-0.07455,-0.04742,0.00000,0.03062,0.97551,-0.18837,0.0,2023,6,7,16,59,34,364
48.04090,0.06545,0.05758,0.00000,0.03306,0.97637,-0.18617,0.0,2023,6,7,16,59,34,375
48.04100,0.10045,-0.09992,0.00000,0.03148,0.97441,-0.18947,0.0,2023,6,7,16,59,34,386
48.04110,0.04795,-0.06492,0.00000,0.03148,0.97588,-0.18751,0.0,2023,6,7,16,59,34,397
48.04120,-0.10955,0.09258,0.00000,0.02940,0.97588,-0.18812,0.0,2023,6,7,16,59,34,408
48.04130,0.06545,0.09258,0.00000,0.02952,0.97600,-0.18703,0.0,2023,6,7,16,59,34,419
48.04140,0.03045,0.02258,0.00000,0.03172,0.97624,-0.18764,0.0,2023,6,7,16,59,34,430
48.04150,0.08295,0.09258,0.00000,0.03160,0.97710,-0.18849,0.0,2023,6,7,16,59,34,441
48.04160,-0.00455,0.05758,0.00000,0.03111,0.97771,-0.18764,0.0,2023,6,7,16,59,34,452
48.04170,-0.10955,-0.15242,0.00000,0.03074,0.97649,-0.18825,0.0,2023,6,7,16,59,34,463
48.04180,0.25795,-0.09992,0.00000,0.03148,0.97637,-0.18995,0.0,2023,6,7,16,59,34,474
48.04190,0.11795,0.00508,0.00000,0.03123,0.97661,-0.18776,0.0,2023,6,7,16,59,34,485
48.04200,-0.05705,-0.15242,0.00000,0.02989,0.97405,-0.18800,0.0,2023,6,7,16,59,34,496
48.04210,-0.03955,0.25008,0.00000,0.03148,0.97832,-0.18483,0.0,2023,6,7,16,59,34,507
48.04220,-0.16205,0.00508,0.00000,0.03087,0.97393,-0.18617,0.0,2023,6,7,16,59,34,518
48.04230,0.01295,0.19758,0.00000,0.02904,0.97490,-0.18983,0.0,2023,6,7,16,59,34,529
48.04240,0.13545,-0.15242,0.00000,0.03001,0.97624,-0.18629,0.0,2023,6,7,16,59,34,540
48.04250,-0.07455,0.14508,0.00000,0.03233,0.97417,-0.18947,0.0,2023,6,7,16,59,34,551
48.04260,-0.02205,-0.02992,0.00000,0.03050,0.97673,-0.18776,0.0,2023,6,7,16,59,34,562
48.04270,-0.03955,-0.13492,0.00000,0.03050,0.97624,-0.18605,0.0,2023,6,7,16,59,34,573
48.04280,-0.19705,-0.11742,0.00000,0.03294,0.97637,-0.18849,0.0,2023,6,7,16,59,34,584
48.04290,0.10045,0.14508,0.00000,0.03099,0.97539,-0.18666,0.0,2023,6,7,16,59,34,595
48.04300,0.15295,0.00508,0.00000,0.03160,0.97612,-0.18617,0.0,2023,6,7,16,59,34,606
48.04310,-0.00455,0.00508,0.00000,0.03087,0.97576,-0.18800,0.0,2023,6,7,16,59,34,617
48.04320,-0.00455,0.05758,0.00000,0.03160,0.97649,-0.18837,0.0,2023,6,7,16,59,34,628
48.04330,-0.02205,-0.18742,0.00000,0.03099,0.97661,-0.18617,0.0,2023,6,7,16,59,34,639
48.04340,-0.10955,-0.09992,0.00000,0.03087,0.97576,-0.18739,0.0,2023,6,7,16,59,34,650
48.04350,-0.05705,0.12758,0.00000,0.03416,0.97820,-0.18654,0.0,2023,6,7,16,59,34,661
48.04360,0.22295,-0.02992,0.00000,0.03087,0.97441,-0.18995,0.0,2023,6,7,16,59,34,672
48.04370,0.08295,-0.06492,0.00000,0.03050,0.97624,-0.18751,0.0,2023,6,7,16,59,34,683
48.04380,0.06545,0.05758,0.00000,0.03111,0.97649,-0.18629,0.0,2023,6,7,16,59,34,694
48.04390,-0.05705,0.02258,0.00000,0.03416,0.97685,-0.18861,0.0,2023,6,7,16,59,34,705
48.04400,0.01295,0.12758,0.00000,0.03111,0.97551,-0.18739,0.0,2023,6,7,16,59,34,716
48.04410,-0.00455,0.07508,0.00000,0.03282,0.97502,-0.18715,0.0,2023,6,7,16,59,34,727
48.04420,-0.17955,0.11008,0.00000,0.02904,0.97673,-0.18837,0.0,2023,6,7,16,59,34,738
48.04430,-0.05705,0.02258,0.00000,0.03172,0.97612,-0.18666,0.0,2023,6,7,16,59,34,749
48.04440,0.11795,0.00508,0.00000,0.03221,0.97454,-0.18788,0.0,2023,6,7,16,59,34,760
48.04450,-0.00455,-0.01242,0.00000,0.03196,0.97966,-0.18947,0.0,2023,6,7,16,59,34,771
