#2023/06/07 13:55:39
time,wx,wy,wz,ax,ay,az,yy,MM,dd,hh,mm,ss,ms
40.19920,-0.04620,0.15820,0.00000,0.03623,0.98198,-0.16116,0.0,2023,6,7,13,55,40,733
40.19930,0.05880,0.07070,0.00000,0.03465,0.98210,-0.16189,0.0,2023,6,7,13,55,40,753
40.19940,-0.22120,0.12320,0.00000,0.03221,0.98283,-0.16177,0.0,2023,6,7,13,55,40,773
40.19950,-0.08120,0.19320,0.00000,0.03306,0.98186,-0.16226,0.0,2023,6,7,13,55,40,793
40.19960,-0.09870,0.00070,0.00000,0.03196,0.98222,-0.16067,0.0,2023,6,7,13,55,40,813
40.19970,-0.06370,-0.03430,0.00000,0.03416,0.98308,-0.16080,0.0,2023,6,7,13,55,40,833
40.19980,-0.04620,0.21070,0.00000,0.03465,0.98039,-0.16019,0.0,2023,6,7,13,55,40,853
40.19990,0.00630,0.03570,0.00000,0.03270,0.98161,-0.16141,0.0,2023,6,7,13,55,40,873
40.20000,0.07630,-0.13930,0.00000,0.03343,0.98271,-0.15872,0.0,2023,6,7,13,55,40,893
40.20010,-0.02870,0.24570,0.00000,0.03489,0.98076,-0.15811,0.0,2023,6,7,13,55,40,913
40.20020,-0.15120,0.07070,0.00000,0.03209,0.98466,-0.15884,0.0,2023,6,7,13,55,40,933
40.20030,-0.02870,0.00070,0.00000,0.03538,0.98173,-0.16250,0.0,2023,6,7,13,55,40,953
40.20040,0.11130,-0.01680,0.00000,0.03062,0.98308,-0.16372,0.0,2023,6,7,13,55,40,973
40.20050,0.00630,-0.03430,0.00000,0.03379,0.97929,-0.16238,0.0,2023,6,7,13,55,40,993
40.20060,-0.13370,0.15820,0.00000,0.03257,0.97783,-0.16214,0.0,2023,6,7,13,55,40,13
40.20070,-0.04620,0.17570,0.00000,0.03538,0.98283,-0.16177,0.0,2023,6,7,13,55,40,33
40.20080,0.14630,-0.08680,0.00000,0.03111,0.98698,-0.16141,0.0,2023,6,7,13,55,40,53
40.20090,0.14630,0.19320,0.00000,0.03099,0.98661,-0.16690,0.0,2023,6,7,13,55,40,73
40.20100,-0.20370,-0.06930,0.00000,0.03026,0.98552,-0.15945,0.0,2023,6,7,13,55,40,93
40.20110,-0.20370,0.00070,0.00000,0.03221,0.98137,-0.15738,0.0,2023,6,7,13,55,40,113
40.20120,-0.08120,-0.12180,0.00000,0.03270,0.98137,-0.15994,0.0,2023,6,7,13,55,40,133
40.20130,0.00630,-0.19180,0.00000,0.03404,0.98356,-0.15945,0.0,2023,6,7,13,55,40,153
40.20140,0.18130,0.00070,0.00000,0.03270,0.98137,-0.16372,0.0,2023,6,7,13,55,40,173
40.20150,0.07630,0.12320,0.00000,0.03294,0.98234,-0.16202,0.0,2023,6,7,13,55,40,193
40.20160,-0.08120,0.15820,0.00000,0.03367,0.98161,-0.16458,0.0,2023,6,7,13,55,40,213
40.20170,0.04130,0.14070,0.00000,0.03318,0.97917,-0.15897,0.0,2023,6,7,13,55,40,233
40.20180,0.21630,0.01820,0.00000,0.03306,0.98234,-0.16153,0.0,2023,6,7,13,55,40,253
40.20190,0.04130,0.08820,0.00000,0.03440,0.98210,-0.16043,0.0,2023,6,7,13,55,40,273
40.20200,0.16380,-0.13930,0.00000,0.03465,0.98271,-0.16324,0.0,2023,6,7,13,55,40,293
40.20210,-0.11620,-0.19180,0.00000,0.03453,0.98283,-0.16348,0.0,2023,6,7,13,55,40,313
40.20220,0.04130,-0.06930,0.00000,0.03514,0.98064,-0.16031,0.0,2023,6,7,13,55,40,333
40.20230,-0.04620,-0.03430,0.00000,0.03318,0.98320,-0.16482,0.0,2023,6,7,13,55,40,353
40.20240,0.07630,0.10570,0.00000,0.03514,0.98234,-0.16092,0.0,2023,6,7,13,55,40,373
40.20250,-0.04620,-0.01680,0.00000,0.03306,0.98198,-0.15982,0.0,2023,6,7,13,55,40,393
40.20260,0.18130,-0.22680,0.00000,0.03233,0.98234,-0.16067,0.0,2023,6,7,13,55,40,413
40.20270,0.07630,0.07070,0.00000,0.03440,0.98234,-0.15994,0.0,2023,6,7,13,55,40,433
40.20280,0.04130,0.03570,0.00000,0.03257,0.98308,-0.16031,0.0,2023,6,7,13,55,40,453
40.20290,0.14630,-0.06930,0.00000,0.03160,0.97990,-0.16128,0.0,2023,6,7,13,55,40,473
40.20300,0.09380,-0.24430,0.00000,0.03294,0.98222,-0.16263,0.0,2023,6,7,13,55,40,493
40.20310,0.09380,0.08820,0.00000,0.03123,0.98234,-0.16214,0.0,2023,6,7,13,55,40,513
40.20320,-0.02870,-0.05180,0.00000,0.03160,0.98137,-0.16311,0.0,2023,6,7,13,55,40,533
40.20330,-0.06370,0.21070,0.00000,0.03416,0.98088,-0.16153,0.0,2023,6,7,13,55,40,553
40.20340,0.05880,-0.26180,0.00000,0.02989,0.98430,-0.16482,0.0,2023,6,7,13,55,41,573
40.20350,0.18130,-0.01680,0.00000,0.03196,0.98088,-0.16153,0.0,2023,6,7,13,55,41,593
40.20360,0.05880,0.00070,0.00000,0.03489,0.98064,-0.16128,0.0,2023,6,7,13,55,41,613
40.20370,-0.13370,0.07070,0.00000,0.03282,0.98076,-0.16165,0.0,2023,6,7,13,55,41,633
40.20380,0.26880,-0.17430,0.00000,0.03367,0.98247,-0.16177,0.0,2023,6,7,13,55,41,653
40.20390,-0.01120,0.17570,0.00000,0.03453,0.98247,-0.16189,0.0,2023,6,7,13,55,41,673
40.20400,0.02380,0.00070,0.00000,0.03379,0.98295,-0.16299,0.0,2023,6,7,13,55,41,693
40.20410,-0.01120,-0.01680,0.00000,0.03196,0.98100,-0.16128,0.0,2023,6,7,13,55,41,713
40.20420,-0.06370,-0.05180,0.00000,0.03501,0.98112,-0.16311,0.0,2023,6,7,13,55,41,733
40.20430,0.14630,-0.15680,0.00000,0.03184,0.98393,-0.16104,0.0,2023,6,7,13,55,41,753
40.20440,0.16380,-0.03430,0.00000,0.03233,0.98234,-0.16348,0.0,2023,6,7,13,55,41,773
40.20450,-0.01120,-0.22680,0.00000,0.03294,0.98112,-0.16104,0.0,2023,6,7,13,55,41,793
40.20460,0.05880,-0.10430,0.00000,0.03587,0.98259,-0.16202,0.0,2023,6,7,13,55,41,813
40.20470,0.04130,0.01820,0.00000,0.03538,0.98222,-0.15970,0.0,2023,6,7,13,55,41,833
40.20480,-0.06370,0.10570,0.00000,0.03538,0.98076,-0.16116,0.0,2023,6,7,13,55,41,853
40.20490,0.16380,-0.05180,0.00000,0.03343,0.98295,-0.16238,0.0,2023,6,7,13,55,41,873
40.20500,0.07630,-0.05180,0.00000,0.03013,0.98295,-0.16470,0.0,2023,6,7,13,55,41,893
40.20510,-0.04620,-0.13930,0.00000,0.03489,0.98064,-0.16275,0.0,2023,6,7,13,55,41,913
40.20520,-0.11620,-0.03430,0.00000,0.03428,0.98112,-0.16226,0.0,2023,6,7,13,55,41,933
40.20530,-0.04620,0.01820,0.00000,0.03257,0.98100,-0.16202,0.0,2023,6,7,13,55,41,953
40.20540,-0.08120,-0.12180,0.00000,0.03465,0.98100,-0.16202,0.0,2023,6,7,13,55,41,973
40.20550,0.07630,0.10570,0.00000,0.03367,0.98149,-0.16275,0.0,2023,6,7,13,55,41,993
40.20560,0.05880,-0.19180,0.00000,0.03257,0.98198,-0.16080,0.0,2023,6,7,13,55,41,13
40.20570,0.19880,-0.06930,0.00000,0.03416,0.98186,-0.16055,0.0,2023,6,7,13,55,41,33
40.20580,-0.01120,0.08820,0.00000,0.03453,0.98271,-0.16421,0.0,2023,6,7,13,55,41,53
40.20590,0.04130,-0.05180,0.00000,0.03379,0.98320,-0.16043,0.0,2023,6,7,13,55,41,73
40.20600,0.04130,0.07070,0.00000,0.03270,0.98112,-0.16177,0.0,2023,6,7,13,55,41,93
40.20610,-0.08120,0.00070,0.00000,0.03392,0.98161,-0.16299,0.0,2023,6,7,13,55,41,113
40.20620,-0.04620,0.08820,0.00000,0.03428,0.98125,-0.16141,0.0,2023,6,7,13,55,41,133
40.20630,0.12880,0.03570,0.00000,0.03306,0.98222,-0.16287,0.0,2023,6,7,13,55,41,153
40.20640,-0.09870,-0.15680,0.00000,0.03367,0.98222,-0.16067,0.0,2023,6,7,13,55,41,173
40.20650,-0.01120,-0.17430,0.00000,0.03270,0.98149,-0.16153,0.0,2023,6,7,13,55,41,193
40.20660,0.11130,0.01820,0.00000,0.03294,0.98015,-0.16287,0.0,2023,6,7,13,55,41,213
40.20670,-0.09870,-0.01680,0.00000,0.03404,0.98283,-0.15994,0.0,2023,6,7,13,55,41,233
40.20680,-0.08120,-0.12180,0.00000,0.03453,0.98173,-0.16348,0.0,2023,6,7,13,55,41,253
40.20690,0.11130,0.01820,0.00000,0.03245,0.98210,-0.16128,0.0,2023,6,7,13,55,41,273
40.20700,0.02380,-0.12180,0.00000,0.03245,0.98393,-0.16299,0.0,2023,6,7,13,55,41,293
40.20710,0.00630,0.00070,0.00000,0.03343,0.98112,-0.15860,0.0,2023,6,7,13,55,41,313
40.20720,-0.04620,0.03570,0.00000,0.03355,0.98198,-0.16019,0.0,2023,6,7,13,55,41,333
40.20730,0.11130,-0.05180,0.00000,0.03294,0.98417,-0.15909,0.0,2023,6,7,13,55,41,353
40.20740,0.00630,-0.26180,0.00000,0.03440,0.98125,-0.16055,0.0,2023,6,7,13,55,41,373
40.20750,0.11130,0.21070,0.00000,0.03538,0.98198,-0.16019,0.0,2023,6,7,13,55,41,393
40.20760,-0.13370,0.10570,0.00000,0.03416,0.98283,-0.16092,0.0,2023,6,7,13,55,41,413
40.20770,-0.08120,0.10570,0.00000,0.03453,0.98149,-0.15860,0.0,2023,6,7,13,55,41,433
40.20780,0.04130,-0.08680,0.00000,0.03550,0.98173,-0.16189,0.0,2023,6,7,13,55,41,453
40.20790,-0.06370,0.10570,0.00000,0.03282,0.98222,-0.16348,0.0,2023,6,7,13,55,41,473
40.20800,0.04130,0.15820,0.00000,0.03367,0.98198,-0.16238,0.0,2023,6,7,13,55,41,493
40.20810,-0.04620,0.01820,0.00000,0.03404,0.97966,-0.16275,0.0,2023,6,7,13,55,41,513
40.20820,-0.15120,-0.08680,0.00000,0.03379,0.98149,-0.16214,0.0,2023,6,7,13,55,41,533
40.20830,-0.08120,-0.01680,0.00000,0.03245,0.98186,-0.16165,0.0,2023,6,7,13,55,41,553
40.20840,-0.13370,0.07070,0.00000,0.03087,0.98149,-0.15884,0.0,2023,6,7,13,55,41,573
40.20850,0.05880,0.05320,0.00000,0.03684,0.98295,-0.16116,0.0,2023,6,7,13,55,41,593
40.20860,-0.20370,0.07070,0.00000,0.03501,0.98161,-0.16128,0.0,2023,6,7,13,55,41,613
40.20870,-0.20370,0.05320,0.00000,0.03477,0.98210,-0.16128,0.0,2023,6,7,13,55,41,633
40.20880,-0.23870,-0.01680,0.00000,0.03209,0.98539,-0.16153,0.0,2023,6,7,13,55,41,653
40.20890,-0.11620,0.00070,0.00000,0.03477,0.98076,-0.16311,0.0,2023,6,7,13,55,41,673
40.20900,0.19880,-0.15680,0.00000,0.03245,0.98234,-0.15958,0.0,2023,6,7,13,55,41,693
40.20910,0.04130,-0.15680,0.00000,0.03440,0.98283,-0.16324,0.0,2023,6,7,13,55,41,713
40.20920,-0.15120,-0.01680,0.00000,0.03282,0.98003,-0.16141,0.0,2023,6,7,13,55,41,733
40.20930,-0.02870,-0.08680,0.00000,0.03148,0.98332,-0.16043,0.0,2023,6,7,13,55,41,753
40.20940,0.16380,-0.05180,0.00000,0.03270,0.98283,-0.16128,0.0,2023,6,7,13,55,41,773
40.20950,0.26880,-0.08680,0.00000,0.03245,0.98247,-0.16311,0.0,2023,6,7,13,55,41,793
40.20960,-0.09870,-0.20930,0.00000,0.03306,0.98356,-0.16116,0.0,2023,6,7,13,55,41,813
40.20970,0.02380,0.19320,0.00000,0.03501,0.98100,-0.16165,0.0,2023,6,7,13,55,41,833
40.20980,0.04130,-0.12180,0.00000,0.03282,0.98259,-0.16116,0.0,2023,6,7,13,55,41,853
40.20990,-0.16870,-0.05180,0.00000,0.03318,0.98210,-0.16275,0.0,2023,6,7,13,55,41,873
40.21000,-0.13370,0.03570,0.00000,0.03331,0.98149,-0.16336,0.0,2023,6,7,13,55,41,893
40.21010,-0.01120,-0.01680,0.00000,0.03270,0.98222,-0.15860,0.0,2023,6,7,13,55,41,913
40.21020,0.11130,-0.24430,0.00000,0.03404,0.98320,-0.16104,0.0,2023,6,7,13,55,41,933
40.21030,0.16380,-0.01680,0.00000,0.03074,0.98186,-0.16092,0.0,2023,6,7,13,55,41,953
40.21040,-0.04620,-0.10430,0.00000,0.03209,0.98100,-0.16080,0.0,2023,6,7,13,55,41,973
40.21050,0.07630,-0.12180,0.00000,0.03282,0.98442,-0.16141,0.0,2023,6,7,13,55,41,993
40.21060,0.04130,-0.10430,0.00000,0.03440,0.98381,-0.16019,0.0,2023,6,7,13,55,41,13
40.21070,0.04130,0.05320,0.00000,0.03294,0.98430,-0.16019,0.0,2023,6,7,13,55,41,33
40.21080,-0.02870,0.21070,0.00000,0.03160,0.98186,-0.16006,0.0,2023,6,7,13,55,41,53
40.21090,0.04130,0.08820,0.00000,0.03453,0.98173,-0.16263,0.0,2023,6,7,13,55,41,73
40.21100,-0.06370,-0.08680,0.00000,0.03294,0.98100,-0.16263,0.0,2023,6,7,13,55,41,93
40.21110,-0.04620,0.14070,0.00000,0.03428,0.98198,-0.15982,0.0,2023,6,7,13,55,41,113
40.21120,-0.18620,0.21070,0.00000,0.03270,0.98100,-0.16165,0.0,2023,6,7,13,55,41,133
40.21130,-0.01120,0.07070,0.00000,0.03294,0.98015,-0.16189,0.0,2023,6,7,13,55,41,153
40.21140,0.14630,0.19320,0.00000,0.03294,0.98271,-0.16324,0.0,2023,6,7,13,55,41,173
40.21150,0.04130,-0.19180,0.00000,0.03306,0.97990,-0.15933,0.0,2023,6,7,13,55,41,193
40.21160,0.14630,-0.10430,0.00000,0.03306,0.98198,-0.15982,0.0,2023,6,7,13,55,41,213
40.21170,-0.02870,0.17570,0.00000,0.03209,0.98210,-0.16080,0.0,2023,6,7,13,55,41,233
40.21180,-0.20370,0.22820,0.00000,0.03404,0.98234,-0.16324,0.0,2023,6,7,13,55,41,253
40.21190,-0.02870,-0.08680,0.00000,0.03209,0.98332,-0.16080,0.0,2023,6,7,13,55,41,273
40.21200,0.16380,-0.12180,0.00000,0.03440,0.97942,-0.16153,0.0,2023,6,7,13,55,41,293
40.21210,0.02380,-0.03430,0.00000,0.03440,0.98149,-0.16324,0.0,2023,6,7,13,55,41,313
40.21220,0.11130,0.10570,0.00000,0.03294,0.98064,-0.15982,0.0,2023,6,7,13,55,41,333
40.21230,0.04130,-0.05180,0.00000,0.03367,0.98247,-0.16165,0.0,2023,6,7,13,55,41,353
40.21240,0.02380,-0.03430,0.00000,0.03379,0.98478,-0.16153,0.0,2023,6,7,13,55,42,373
40.21250,-0.01120,-0.17430,0.00000,0.03270,0.98393,-0.16202,0.0,2023,6,7,13,55,42,393
40.21260,-0.04620,0.07070,0.00000,0.03196,0.98283,-0.16177,0.0,2023,6,7,13,55,42,413
40.21270,-0.01120,-0.27930,0.00000,0.03257,0.98405,-0.16128,0.0,2023,6,7,13,55,42,433
40.21280,0.05880,0.05320,0.00000,0.03270,0.98332,-0.16189,0.0,2023,6,7,13,55,42,453
40.21290,0.02380,0.01820,0.00000,0.03172,0.98332,-0.16006,0.0,2023,6,7,13,55,42,473
40.21300,0.00630,-0.10430,0.00000,0.03294,0.98417,-0.16141,0.0,2023,6,7,13,55,42,493
40.21310,-0.16870,0.10570,0.00000,0.03501,0.98161,-0.16299,0.0,2023,6,7,13,55,42,513
40.21320,-0.06370,-0.15680,0.00000,0.03428,0.98173,-0.16153,0.0,2023,6,7,13,55,42,533
40.21330,0.07630,0.10570,0.00000,0.03282,0.98222,-0.16165,0.0,2023,6,7,13,55,42,553
40.21340,0.18130,-0.15680,0.00000,0.03587,0.98064,-0.16263,0.0,2023,6,7,13,55,42,573
40.21350,-0.02870,-0.15680,0.00000,0.03404,0.97917,-0.16360,0.0,2023,6,7,13,55,42,593
40.21360,-0.29120,0.00070,0.00000,0.03148,0.98027,-0.16275,0.0,2023,6,7,13,55,42,613
40.21370,0.07630,0.00070,0.00000,0.03184,0.98344,-0.16458,0.0,2023,6,7,13,55,42,633
40.21380,0.05880,0.05320,0.00000,0.03404,0.98295,-0.16055,0.0,2023,6,7,13,55,42,653
40.21390,-0.18620,0.08820,0.00000,0.03538,0.98491,-0.16226,0.0,2023,6,7,13,55,42,673
40.21400,0.05880,-0.12180,0.00000,0.03379,0.98137,-0.16299,0.0,2023,6,7,13,55,42,693
40.21410,0.04130,-0.05180,0.00000,0.03221,0.98064,-0.16360,0.0,2023,6,7,13,55,42,713
40.21420,-0.13370,0.01820,0.00000,0.03465,0.98271,-0.16104,0.0,2023,6,7,13,55,42,733
40.21430,0.00630,0.05320,0.00000,0.03184,0.98344,-0.16202,0.0,2023,6,7,13,55,42,753
40.21440,0.19880,-0.33180,0.00000,0.03245,0.98234,-0.16214,0.0,2023,6,7,13,55,42,773
40.21450,0.12880,-0.01680,0.00000,0.03404,0.98149,-0.16006,0.0,2023,6,7,13,55,42,793
40.21460,-0.13370,0.08820,0.00000,0.03233,0.97917,-0.16177,0.0,2023,6,7,13,55,42,813
40.21470,-0.13370,-0.15680,0.00000,0.03367,0.98283,-0.16116,0.0,2023,6,7,13,55,42,833
40.21480,0.07630,-0.12180,0.00000,0.03196,0.98442,-0.16189,0.0,2023,6,7,13,55,42,853
40.21490,0.02380,0.14070,0.00000,0.03392,0.98186,-0.16214,0.0,2023,6,7,13,55,42,873
40.21500,-0.02870,-0.05180,0.00000,0.03270,0.98417,-0.16031,0.0,2023,6,7,13,55,42,893
40.21510,0.14630,0.05320,0.00000,0.03148,0.98234,-0.16165,0.0,2023,6,7,13,55,42,913
40.21520,0.07630,-0.06930,0.00000,0.03489,0.98283,-0.15994,0.0,2023,6,7,13,55,42,933
40.21530,0.04130,0.17570,0.00000,0.03209,0.98039,-0.16299,0.0,2023,6,7,13,55,42,953
40.21540,0.07630,-0.19180,0.00000,0.03282,0.98173,-0.16116,0.0,2023,6,7,13,55,42,973
40.21550,-0.02870,-0.03430,0.00000,0.03331,0.98173,-0.16275,0.0,2023,6,7,13,55,42,993
40.21560,0.09380,0.10570,0.00000,0.03343,0.98161,-0.16080,0.0,2023,6,7,13,55,42,13
40.21570,-0.02870,-0.15680,0.00000,0.03209,0.98064,-0.16311,0.0,2023,6,7,13,55,42,33
40.21580,0.02380,0.05320,0.00000,0.03062,0.98137,-0.16019,0.0,2023,6,7,13,55,42,53
40.21590,0.05880,0.24570,0.00000,0.03575,0.98112,-0.16043,0.0,2023,6,7,13,55,42,73
40.21600,-0.06370,-0.15680,0.00000,0.03270,0.98173,-0.15823,0.0,2023,6,7,13,55,42,93
40.21610,0.07630,0.01820,0.00000,0.03355,0.98100,-0.16116,0.0,2023,6,7,13,55,42,113
40.21620,0.14630,0.07070,0.00000,0.03221,0.97954,-0.16067,0.0,2023,6,7,13,55,42,133
40.21630,0.12880,-0.05180,0.00000,0.03526,0.98369,-0.16092,0.0,2023,6,7,13,55,42,153
40.21640,0.05880,-0.19180,0.00000,0.03062,0.98186,-0.15958,0.0,2023,6,7,13,55,42,173
40.21650,0.07630,0.14070,0.00000,0.03209,0.98405,-0.16055,0.0,2023,6,7,13,55,42,193
40.21660,0.05880,-0.06930,0.00000,0.03294,0.97942,-0.16141,0.0,2023,6,7,13,55,42,213
40.21670,0.14630,-0.12180,0.00000,0.03172,0.98320,-0.16043,0.0,2023,6,7,13,55,42,233
40.21680,-0.01120,-0.12180,0.00000,0.03550,0.98064,-0.16336,0.0,2023,6,7,13,55,42,253
40.21690,0.23380,0.00070,0.00000,0.03331,0.98149,-0.16080,0.0,2023,6,7,13,55,42,273
40.21700,0.14630,0.12320,0.00000,0.03257,0.98088,-0.15982,0.0,2023,6,7,13,55,42,293
40.21710,0.05880,0.19320,0.00000,0.03453,0.98076,-0.15970,0.0,2023,6,7,13,55,42,313
40.21720,-0.08120,-0.03430,0.00000,0.03428,0.97881,-0.16189,0.0,2023,6,7,13,55,42,333
40.21730,-0.11620,0.07070,0.00000,0.03428,0.98186,-0.16128,0.0,2023,6,7,13,55,42,353
40.21740,0.05880,0.12320,0.00000,0.03318,0.98222,-0.16080,0.0,2023,6,7,13,55,42,373
40.21750,-0.08120,0.12320,0.00000,0.03355,0.98356,-0.16189,0.0,2023,6,7,13,55,42,393
40.21760,-0.01120,0.05320,0.00000,0.03099,0.98259,-0.16250,0.0,2023,6,7,13,55,42,413
40.21770,-0.08120,0.01820,0.00000,0.03318,0.98369,-0.15933,0.0,2023,6,7,13,55,42,433
40.21780,0.07630,-0.06930,0.00000,0.03416,0.98295,-0.16189,0.0,2023,6,7,13,55,42,453
40.21790,0.02380,-0.24430,0.00000,0.03196,0.98149,-0.16263,0.0,2023,6,7,13,55,42,473
40.21800,-0.06370,-0.03430,0.00000,0.03379,0.98198,-0.16214,0.0,2023,6,7,13,55,42,493
40.21810,-0.18620,-0.15680,0.00000,0.03331,0.97856,-0.16043,0.0,2023,6,7,13,55,42,513
40.21820,0.12880,-0.13930,0.00000,0.03318,0.98320,-0.16226,0.0,2023,6,7,13,55,42,533
40.21830,0.05880,-0.13930,0.00000,0.03209,0.98320,-0.16177,0.0,2023,6,7,13,55,42,553
40.21840,0.02380,0.01820,0.00000,0.03367,0.98295,-0.16397,0.0,2023,6,7,13,55,42,573
40.21850,-0.09870,0.03570,0.00000,0.03160,0.98405,-0.16202,0.0,2023,6,7,13,55,42,593
40.21860,0.09380,0.19320,0.00000,0.03294,0.98332,-0.16165,0.0,2023,6,7,13,55,42,613
40.21870,-0.06370,-0.01680,0.00000,0.03209,0.98137,-0.16165,0.0,2023,6,7,13,55,42,633
40.21880,0.00630,-0.17430,0.00000,0.03416,0.98369,-0.16128,0.0,2023,6,7,13,55,42,653
40.21890,0.14630,-0.10430,0.00000,0.03282,0.98295,-0.16055,0.0,2023,6,7,13,55,42,673
40.21900,0.02380,0.07070,0.00000,0.03257,0.98161,-0.16055,0.0,2023,6,7,13,55,42,693
40.21910,0.12880,0.24570,0.00000,0.03233,0.98247,-0.15933,0.0,2023,6,7,13,55,42,713
40.21920,0.00630,0.15820,0.00000,0.03501,0.98271,-0.16238,0.0,2023,6,7,13,55,42,733
40.21930,0.09380,-0.13930,0.00000,0.03111,0.98039,-0.16031,0.0,2023,6,7,13,55,42,753
40.21940,-0.06370,0.21070,0.00000,0.03135,0.98393,-0.16092,0.0,2023,6,7,13,55,42,773
40.21950,0.11130,0.03570,0.00000,0.03489,0.98295,-0.16141,0.0,2023,6,7,13,55,42,793
40.21960,-0.15120,-0.03430,0.00000,0.03221,0.98332,-0.16043,0.0,2023,6,7,13,55,42,813
40.21970,0.07630,0.12320,0.00000,0.03477,0.98259,-0.16153,0.0,2023,6,7,13,55,42,833
40.21980,0.02380,-0.01680,0.00000,0.03428,0.97954,-0.16202,0.0,2023,6,7,13,55,42,853
40.21990,0.18130,0.00070,0.00000,0.03294,0.98234,-0.16055,0.0,2023,6,7,13,55,42,873
40.22000,0.09380,-0.05180,0.00000,0.03270,0.98210,-0.16128,0.0,2023,6,7,13,55,42,893
40.22010,-0.04620,0.12320,0.00000,0.03294,0.98247,-0.16055,0.0,2023,6,7,13,55,42,913
40.22020,0.00630,-0.12180,0.00000,0.03404,0.98222,-0.15958,0.0,2023,6,7,13,55,42,933
40.22030,-0.01120,0.15820,0.00000,0.03270,0.98051,-0.16067,0.0,2023,6,7,13,55,42,953
40.22040,0.00630,0.10570,0.00000,0.03343,0.98161,-0.16067,0.0,2023,6,7,13,55,42,973
40.22050,-0.04620,0.05320,0.00000,0.03575,0.97990,-0.16019,0.0,2023,6,7,13,55,42,993
40.22060,-0.08120,0.24570,0.00000,0.03245,0.98210,-0.16128,0.0,2023,6,7,13,55,42,13
40.22070,0.14630,-0.15680,0.00000,0.03343,0.98222,-0.16226,0.0,2023,6,7,13,55,42,33
40.22080,0.14630,-0.06930,0.00000,0.03294,0.98430,-0.16214,0.0,2023,6,7,13,55,42,53
40.22090,-0.06370,-0.03430,0.00000,0.03575,0.98234,-0.16189,0.0,2023,6,7,13,55,42,73
40.22100,0.09380,0.05320,0.00000,0.03233,0.98259,-0.16189,0.0,2023,6,7,13,55,42,93
40.22110,0.04130,0.22820,0.00000,0.03233,0.98271,-0.16043,0.0,2023,6,7,13,55,42,113
40.22120,0.00630,-0.03430,0.00000,0.03209,0.98125,-0.16153,0.0,2023,6,7,13,55,43,133
40.22130,0.12880,-0.24430,0.00000,0.03367,0.98295,-0.16055,0.0,2023,6,7,13,55,43,153
40.22140,0.02380,0.01820,0.00000,0.03331,0.98405,-0.15884,0.0,2023,6,7,13,55,43,173
40.22150,0.21630,-0.05180,0.00000,0.03453,0.98344,-0.16104,0.0,2023,6,7,13,55,43,193
40.22160,0.05880,0.24570,0.00000,0.03489,0.98088,-0.16055,0.0,2023,6,7,13,55,43,213
40.22170,-0.02870,0.05320,0.00000,0.03440,0.98283,-0.16141,0.0,2023,6,7,13,55,43,233
40.22180,0.02380,-0.06930,0.00000,0.03379,0.98295,-0.16141,0.0,2023,6,7,13,55,43,253
40.22190,-0.08120,-0.08680,0.00000,0.03453,0.98137,-0.16311,0.0,2023,6,7,13,55,43,273
40.22200,0.05880,0.05320,0.00000,0.03416,0.98076,-0.16177,0.0,2023,6,7,13,55,43,293
40.22210,-0.09870,-0.01680,0.00000,0.03270,0.98112,-0.16214,0.0,2023,6,7,13,55,43,313
40.22220,-0.04620,-0.13930,0.00000,0.03294,0.98234,-0.16214,0.0,2023,6,7,13,55,43,333
40.22230,0.02380,0.12320,0.00000,0.03306,0.98015,-0.16202,0.0,2023,6,7,13,55,43,353
40.22240,0.05880,0.01820,0.00000,0.03440,0.98320,-0.16128,0.0,2023,6,7,13,55,43,373
40.22250,-0.06370,0.08820,0.00000,0.03392,0.98320,-0.15982,0.0,2023,6,7,13,55,43,393
40.22260,0.00630,0.05320,0.00000,0.03428,0.98320,-0.16336,0.0,2023,6,7,13,55,43,413
40.22270,0.05880,-0.13930,0.00000,0.03355,0.98259,-0.16287,0.0,2023,6,7,13,55,43,433
40.22280,-0.06370,0.14070,0.00000,0.03160,0.98381,-0.16055,0.0,2023,6,7,13,55,43,453
40.22290,0.04130,-0.22680,0.00000,0.03306,0.97795,-0.16141,0.0,2023,6,7,13,55,43,473
40.22300,0.04130,0.01820,0.00000,0.03538,0.98466,-0.16226,0.0,2023,6,7,13,55,43,493
40.22310,0.16380,-0.10430,0.00000,0.03160,0.98222,-0.16263,0.0,2023,6,7,13,55,43,513
40.22320,-0.09870,0.12320,0.00000,0.03465,0.98051,-0.16141,0.0,2023,6,7,13,55,43,533
40.22330,-0.11620,0.01820,0.00000,0.03343,0.98369,-0.16226,0.0,2023,6,7,13,55,43,553
40.22340,0.05880,0.05320,0.00000,0.03294,0.98027,-0.16214,0.0,2023,6,7,13,55,43,573
40.22350,-0.06370,-0.01680,0.00000,0.03318,0.98393,-0.16177,0.0,2023,6,7,13,55,43,593
40.22360,0.04130,-0.15680,0.00000,0.03111,0.98088,-0.16348,0.0,2023,6,7,13,55,43,613
40.22370,0.21630,-0.19180,0.00000,0.03343,0.98247,-0.16116,0.0,2023,6,7,13,55,43,633
40.22380,0.16380,0.03570,0.00000,0.03318,0.98149,-0.16189,0.0,2023,6,7,13,55,43,653
40.22390,0.14630,-0.24430,0.00000,0.03270,0.98222,-0.15897,0.0,2023,6,7,13,55,43,673
40.22400,-0.02870,-0.12180,0.00000,0.03550,0.98125,-0.16116,0.0,2023,6,7,13,55,43,693
40.22410,-0.09870,0.15820,0.00000,0.03318,0.98125,-0.16165,0.0,2023,6,7,13,55,43,713
40.22420,0.04130,-0.13930,0.00000,0.03294,0.98491,-0.15970,0.0,2023,6,7,13,55,43,733
40.22430,0.12880,0.15820,0.00000,0.03306,0.98051,-0.16189,0.0,2023,6,7,13,55,43,753
40.22440,-0.15120,-0.06930,0.00000,0.03367,0.98198,-0.16214,0.0,2023,6,7,13,55,43,773
40.22450,0.02380,0.21070,0.00000,0.03343,0.98064,-0.15970,0.0,2023,6,7,13,55,43,793
40.22460,0.05880,-0.24430,0.00000,0.03367,0.98234,-0.16128,0.0,2023,6,7,13,55,43,813
40.22470,-0.02870,-0.06930,0.00000,0.03221,0.98222,-0.16067,0.0,2023,6,7,13,55,43,833
40.22480,-0.13370,0.12320,0.00000,0.03428,0.98149,-0.16104,0.0,2023,6,7,13,55,43,853
40.22490,0.09380,0.15820,0.00000,0.03392,0.98173,-0.16336,0.0,2023,6,7,13,55,43,873
40.22500,-0.01120,0.01820,0.00000,0.03392,0.98161,-0.16019,0.0,2023,6,7,13,55,43,893
40.22510,-0.09870,-0.03430,0.00000,0.03331,0.97856,-0.16336,0.0,2023,6,7,13,55,43,913
40.22520,-0.18620,-0.17430,0.00000,0.03270,0.98076,-0.16311,0.0,2023,6,7,13,55,43,933
40.22530,0.05880,-0.22680,0.00000,0.03221,0.98539,-0.16433,0.0,2023,6,7,13,55,43,953
40.22540,-0.06370,-0.03430,0.00000,0.03587,0.98039,-0.16348,0.0,2023,6,7,13,55,43,973
40.22550,-0.08120,0.12320,0.00000,0.03245,0.98100,-0.15872,0.0,2023,6,7,13,55,43,993
40.22560,0.04130,-0.13930,0.00000,0.03514,0.98381,-0.16055,0.0,2023,6,7,13,55,43,13
40.22570,-0.01120,-0.06930,0.00000,0.03306,0.98076,-0.16104,0.0,2023,6,7,13,55,43,33
40.22580,-0.02870,0.15820,0.00000,0.03440,0.98283,-0.15884,0.0,2023,6,7,13,55,43,53
40.22590,0.09380,0.03570,0.00000,0.03379,0.98198,-0.16141,0.0,2023,6,7,13,55,43,73
40.22600,0.05880,0.00070,0.00000,0.03099,0.98210,-0.16019,0.0,2023,6,7,13,55,43,93
40.22610,-0.01120,0.19320,0.00000,0.03343,0.98173,-0.15970,0.0,2023,6,7,13,55,43,113
40.22620,-0.15120,-0.26180,0.00000,0.03221,0.98356,-0.16116,0.0,2023,6,7,13,55,43,133
40.22630,0.23380,-0.05180,0.00000,0.03282,0.98100,-0.16458,0.0,2023,6,7,13,55,43,153
40.22640,-0.04620,0.21070,0.00000,0.03416,0.98222,-0.16067,0.0,2023,6,7,13,55,43,173
40.22650,0.05880,-0.08680,0.00000,0.03257,0.98186,-0.16202,0.0,2023,6,7,13,55,43,193
40.22660,0.04130,0.07070,0.00000,0.03477,0.98210,-0.16116,0.0,2023,6,7,13,55,43,213
40.22670,-0.08120,-0.10430,0.00000,0.03282,0.98271,-0.16189,0.0,2023,6,7,13,55,43,233
40.22680,-0.13370,-0.13930,0.00000,0.03331,0.98149,-0.16031,0.0,2023,6,7,13,55,43,253
40.22690,-0.11620,-0.08680,0.00000,0.03331,0.98125,-0.16153,0.0,2023,6,7,13,55,43,273
40.22700,-0.06370,0.14070,0.00000,0.03257,0.98247,-0.16263,0.0,2023,6,7,13,55,43,293
40.22710,-0.04620,-0.05180,0.00000,0.03306,0.98271,-0.16141,0.0,2023,6,7,13,55,43,313
40.22720,-0.08120,-0.01680,0.00000,0.03392,0.98259,-0.16092,0.0,2023,6,7,13,55,43,333
40.22730,0.19880,-0.17430,0.00000,0.03331,0.98186,-0.16250,0.0,2023,6,7,13,55,43,353
40.22740,0.11130,-0.01680,0.00000,0.03465,0.98356,-0.16238,0.0,2023,6,7,13,55,43,373
40.22750,-0.08120,0.05320,0.00000,0.03306,0.98186,-0.16250,0.0,2023,6,7,13,55,43,393
40.22760,-0.09870,0.03570,0.00000,0.03343,0.98369,-0.16153,0.0,2023,6,7,13,55,43,413
40.22770,0.07630,0.07070,0.00000,0.03062,0.98137,-0.16263,0.0,2023,6,7,13,55,43,433
40.22780,-0.01120,0.24570,0.00000,0.03257,0.98100,-0.16311,0.0,2023,6,7,13,55,43,453
40.22790,-0.04620,-0.10430,0.00000,0.03526,0.98051,-0.16482,0.0,2023,6,7,13,55,43,473
40.22800,0.11130,-0.05180,0.00000,0.03392,0.98491,-0.16336,0.0,2023,6,7,13,55,43,493
40.22810,0.07630,-0.12180,0.00000,0.03172,0.98283,-0.16104,0.0,2023,6,7,13,55,43,513
40.22820,-0.20370,-0.06930,0.00000,0.03367,0.98173,-0.16214,0.0,2023,6,7,13,55,43,533
40.22830,0.07630,0.05320,0.00000,0.03440,0.98088,-0.16263,0.0,2023,6,7,13,55,43,553
40.22840,-0.04620,0.17570,0.00000,0.03343,0.98222,-0.16287,0.0,2023,6,7,13,55,43,573
40.22850,0.05880,-0.13930,0.00000,0.03184,0.98076,-0.16165,0.0,2023,6,7,13,55,43,593
40.22860,0.11130,-0.01680,0.00000,0.03392,0.98259,-0.16031,0.0,2023,6,7,13,55,43,613
40.22870,0.09380,-0.01680,0.00000,0.03379,0.98234,-0.16311,0.0,2023,6,7,13,55,43,633
40.22880,-0.02870,-0.17430,0.00000,0.03392,0.98295,-0.16055,0.0,2023,6,7,13,55,43,653
40.22890,-0.02870,0.05320,0.00000,0.03562,0.98356,-0.16214,0.0,2023,6,7,13,55,43,673
40.22900,-0.08120,-0.22680,0.00000,0.03526,0.98271,-0.16324,0.0,2023,6,7,13,55,43,693
40.22910,0.02380,-0.19180,0.00000,0.03062,0.98137,-0.16348,0.0,2023,6,7,13,55,43,713
40.22920,0.21630,-0.10430,0.00000,0.03355,0.98454,-0.16348,0.0,2023,6,7,13,55,43,733
40.22930,-0.11620,0.00070,0.00000,0.03489,0.98320,-0.16421,0.0,2023,6,7,13,55,43,753
40.22940,-0.16870,-0.05180,0.00000,0.03404,0.98186,-0.16153,0.0,2023,6,7,13,55,43,773
40.22950,-0.04620,-0.03430,0.00000,0.03294,0.98356,-0.16128,0.0,2023,6,7,13,55,43,793
40.22960,0.04130,0.19320,0.00000,0.03245,0.98210,-0.16275,0.0,2023,6,7,13,55,43,813
40.22970,0.04130,-0.06930,0.00000,0.03428,0.98332,-0.16299,0.0,2023,6,7,13,55,43,833
40.22980,0.02380,-0.01680,0.00000,0.03367,0.98344,-0.16433,0.0,2023,6,7,13,55,43,853
40.22990,-0.15120,0.26320,0.00000,0.03538,0.98064,-0.15958,0.0,2023,6,7,13,55,43,873
40.23000,0.04130,-0.22680,0.00000,0.03538,0.98454,-0.16446,0.0,2023,6,7,13,55,43,893
40.23010,-0.13370,-0.26180,0.00000,0.03526,0.98222,-0.16226,0.0,2023,6,7,13,55,43,913
40.23020,0.14630,0.05320,0.00000,0.03148,0.98161,-0.16250,0.0,2023,6,7,13,55,43,933
40.23030,0.14630,-0.10430,0.00000,0.03440,0.98405,-0.16189,0.0,2023,6,7,13,55,44,953
40.23040,-0.15120,-0.01680,0.00000,0.03416,0.98125,-0.16555,0.0,2023,6,7,13,55,44,973
40.23050,0.05880,-0.03430,0.00000,0.03379,0.98417,-0.16324,0.0,2023,6,7,13,55,44,993
40.23060,0.16380,-0.10430,0.00000,0.03428,0.98210,-0.16372,0.0,2023,6,7,13,55,44,13
40.23070,-0.16870,-0.13930,0.00000,0.03416,0.98112,-0.16031,0.0,2023,6,7,13,55,44,33
40.23080,0.00630,0.01820,0.00000,0.03404,0.98393,-0.15933,0.0,2023,6,7,13,55,44,53
40.23090,-0.02870,-0.17430,0.00000,0.03416,0.98295,-0.16055,0.0,2023,6,7,13,55,44,73
40.23100,-0.06370,0.14070,0.00000,0.03526,0.98222,-0.16165,0.0,2023,6,7,13,55,44,93
40.23110,0.12880,-0.13930,0.00000,0.03453,0.98222,-0.16263,0.0,2023,6,7,13,55,44,113
40.23120,0.19880,-0.20930,0.00000,0.03233,0.98076,-0.15872,0.0,2023,6,7,13,55,44,133
40.23130,0.09380,-0.05180,0.00000,0.03392,0.98283,-0.16287,0.0,2023,6,7,13,55,44,153
40.23140,-0.16870,0.14070,0.00000,0.03257,0.98271,-0.16104,0.0,2023,6,7,13,55,44,173
40.23150,-0.11620,0.01820,0.00000,0.03233,0.98064,-0.16141,0.0,2023,6,7,13,55,44,193
40.23160,0.21630,-0.08680,0.00000,0.03221,0.98161,-0.16238,0.0,2023,6,7,13,55,44,213
40.23170,-0.30870,0.26320,0.00000,0.03611,0.98320,-0.16153,0.0,2023,6,7,13,55,44,233
40.23180,-0.15120,0.05320,0.00000,0.03440,0.98332,-0.16385,0.0,2023,6,7,13,55,44,253
40.23190,-0.20370,0.14070,0.00000,0.03306,0.98076,-0.16507,0.0,2023,6,7,13,55,44,273
40.23200,-0.11620,-0.05180,0.00000,0.03099,0.98417,-0.16238,0.0,2023,6,7,13,55,44,293
40.23210,0.05880,0.00070,0.00000,0.03465,0.98222,-0.16031,0.0,2023,6,7,13,55,44,313
40.23220,0.00630,-0.06930,0.00000,0.03318,0.98259,-0.16165,0.0,2023,6,7,13,55,44,333
40.23230,0.05880,-0.15680,0.00000,0.03245,0.98295,-0.16202,0.0,2023,6,7,13,55,44,353
40.23240,-0.01120,0.05320,0.00000,0.03392,0.98088,-0.16092,0.0,2023,6,7,13,55,44,373
40.23250,0.04130,0.00070,0.00000,0.03514,0.98283,-0.16177,0.0,2023,6,7,13,55,44,393
40.23260,0.21630,0.03570,0.00000,0.03501,0.98210,-0.16092,0.0,2023,6,7,13,55,44,413
40.23270,-0.02870,0.08820,0.00000,0.03270,0.98125,-0.16080,0.0,2023,6,7,13,55,44,433
40.23280,-0.08120,0.01820,0.00000,0.03428,0.97929,-0.16189,0.0,2023,6,7,13,55,44,453
40.23290,0.12880,-0.15680,0.00000,0.03160,0.98332,-0.16104,0.0,2023,6,7,13,55,44,473
40.23300,-0.04620,-0.08680,0.00000,0.03514,0.98234,-0.16104,0.0,2023,6,7,13,55,44,493
40.23310,-0.04620,-0.26180,0.00000,0.03428,0.98332,-0.15909,0.0,2023,6,7,13,55,44,513
40.23320,0.02380,-0.06930,0.00000,0.03221,0.98344,-0.16250,0.0,2023,6,7,13,55,44,533
40.23330,0.16380,-0.15680,0.00000,0.03367,0.98051,-0.16019,0.0,2023,6,7,13,55,44,553
40.23340,-0.22120,0.01820,0.00000,0.03550,0.98198,-0.15884,0.0,2023,6,7,13,55,44,573
40.23350,-0.13370,0.26320,0.00000,0.03282,0.98222,-0.16116,0.0,2023,6,7,13,55,44,593
40.23360,-0.06370,-0.01680,0.00000,0.03343,0.98027,-0.15994,0.0,2023,6,7,13,55,44,613
40.23370,0.12880,0.03570,0.00000,0.03379,0.98137,-0.16141,0.0,2023,6,7,13,55,44,633
40.23380,0.04130,-0.01680,0.00000,0.03477,0.98137,-0.16238,0.0,2023,6,7,13,55,44,653
40.23390,-0.04620,-0.08680,0.00000,0.03306,0.98186,-0.16336,0.0,2023,6,7,13,55,44,673
40.23400,0.05880,-0.15680,0.00000,0.03404,0.98198,-0.16299,0.0,2023,6,7,13,55,44,693
40.23410,-0.18620,0.15820,0.00000,0.03514,0.98064,-0.16189,0.0,2023,6,7,13,55,44,713
40.23420,0.09380,0.10570,0.00000,0.03428,0.98295,-0.16006,0.0,2023,6,7,13,55,44,733
40.23430,-0.09870,-0.10430,0.00000,0.03465,0.98320,-0.15933,0.0,2023,6,7,13,55,44,753
40.23440,0.05880,0.08820,0.00000,0.03013,0.98369,-0.16031,0.0,2023,6,7,13,55,44,773
40.23450,0.04130,-0.06930,0.00000,0.03355,0.98112,-0.15848,0.0,2023,6,7,13,55,44,793
40.23460,0.14630,-0.05180,0.00000,0.03282,0.98210,-0.16092,0.0,2023,6,7,13,55,44,813
40.23470,-0.02870,-0.13930,0.00000,0.03209,0.98161,-0.16067,0.0,2023,6,7,13,55,44,833
40.23480,-0.13370,0.00070,0.00000,0.03453,0.98369,-0.16128,0.0,2023,6,7,13,55,44,853
40.23490,0.04130,-0.06930,0.00000,0.03062,0.98271,-0.16116,0.0,2023,6,7,13,55,44,873
40.23500,-0.11620,0.03570,0.00000,0.03318,0.98088,-0.16226,0.0,2023,6,7,13,55,44,893
40.23510,-0.02870,0.22820,0.00000,0.03379,0.98222,-0.16153,0.0,2023,6,7,13,55,44,913
40.23520,-0.06370,0.01820,0.00000,0.03318,0.98417,-0.15823,0.0,2023,6,7,13,55,44,933
40.23530,-0.01120,0.14070,0.00000,0.03379,0.98491,-0.16104,0.0,2023,6,7,13,55,44,953
40.23540,0.12880,0.03570,0.00000,0.03318,0.98393,-0.15945,0.0,2023,6,7,13,55,44,973
40.23550,0.23380,0.08820,0.00000,0.03440,0.98088,-0.16324,0.0,2023,6,7,13,55,44,993
40.23560,0.09380,0.10570,0.00000,0.03501,0.98064,-0.16128,0.0,2023,6,7,13,55,44,13
40.23570,0.07630,-0.05180,0.00000,0.03343,0.98149,-0.16214,0.0,2023,6,7,13,55,44,33
40.23580,-0.04620,-0.03430,0.00000,0.03123,0.98308,-0.16263,0.0,2023,6,7,13,55,44,53
40.23590,-0.06370,-0.05180,0.00000,0.03282,0.98454,-0.16202,0.0,2023,6,7,13,55,44,73
40.23600,0.09380,-0.08680,0.00000,0.03257,0.98186,-0.16055,0.0,2023,6,7,13,55,44,93
40.23610,0.07630,-0.08680,0.00000,0.03331,0.98173,-0.16177,0.0,2023,6,7,13,55,44,113
40.23620,0.00630,0.12320,0.00000,0.03160,0.98137,-0.16189,0.0,2023,6,7,13,55,44,133
40.23630,-0.01120,0.07070,0.00000,0.03257,0.98491,-0.15897,0.0,2023,6,7,13,55,44,153
40.23640,-0.04620,-0.05180,0.00000,0.03611,0.98161,-0.16202,0.0,2023,6,7,13,55,44,173
40.23650,-0.04620,-0.01680,0.00000,0.03270,0.98271,-0.15994,0.0,2023,6,7,13,55,44,193
40.23660,-0.15120,0.07070,0.00000,0.03379,0.98198,-0.16080,0.0,2023,6,7,13,55,44,213
40.23670,-0.08120,0.08820,0.00000,0.03538,0.98466,-0.16043,0.0,2023,6,7,13,55,44,233
40.23680,0.23380,0.05320,0.00000,0.03257,0.98198,-0.16067,0.0,2023,6,7,13,55,44,253
40.23690,0.00630,0.10570,0.00000,0.03379,0.98552,-0.15970,0.0,2023,6,7,13,55,44,273
40.23700,0.04130,-0.19180,0.00000,0.03148,0.97917,-0.16287,0.0,2023,6,7,13,55,44,293
40.23710,-0.11620,0.21070,0.00000,0.03257,0.98198,-0.16214,0.0,2023,6,7,13,55,44,313
40.23720,-0.01120,0.10570,0.00000,0.03367,0.98051,-0.16116,0.0,2023,6,7,13,55,44,333
40.23730,-0.02870,0.10570,0.00000,0.03501,0.98112,-0.16116,0.0,2023,6,7,13,55,44,353
40.23740,-0.04620,0.21070,0.00000,0.03050,0.98064,-0.16141,0.0,2023,6,7,13,55,44,373
40.23750,0.02380,-0.15680,0.00000,0.03233,0.98381,-0.16299,0.0,2023,6,7,13,55,44,393
40.23760,0.02380,-0.05180,0.00000,0.03379,0.98247,-0.16153,0.0,2023,6,7,13,55,44,413
40.23770,0.00630,0.05320,0.00000,0.03440,0.98308,-0.16141,0.0,2023,6,7,13,55,44,433
40.23780,0.09380,-0.05180,0.00000,0.03245,0.97990,-0.16067,0.0,2023,6,7,13,55,44,453
40.23790,0.11130,0.00070,0.00000,0.03233,0.98112,-0.16202,0.0,2023,6,7,13,55,44,473
40.23800,0.02380,-0.06930,0.00000,0.03489,0.98125,-0.16263,0.0,2023,6,7,13,55,44,493
40.23810,-0.04620,-0.08680,0.00000,0.03416,0.98308,-0.16299,0.0,2023,6,7,13,55,44,513
40.23820,-0.08120,0.26320,0.00000,0.03416,0.98381,-0.16104,0.0,2023,6,7,13,55,44,533
40.23830,-0.08120,0.01820,0.00000,0.03440,0.98137,-0.16043,0.0,2023,6,7,13,55,44,553
40.23840,-0.04620,0.05320,0.00000,0.03416,0.98259,-0.15994,0.0,2023,6,7,13,55,44,573
40.23850,0.00630,0.08820,0.00000,0.03294,0.98186,-0.16092,0.0,2023,6,7,13,55,44,593
40.23860,0.11130,-0.03430,0.00000,0.03306,0.98283,-0.16287,0.0,2023,6,7,13,55,44,613
40.23870,0.04130,0.10570,0.00000,0.03318,0.98283,-0.16226,0.0,2023,6,7,13,55,44,633
40.23880,0.16380,-0.33180,0.00000,0.03379,0.98210,-0.16250,0.0,2023,6,7,13,55,44,653
40.23890,-0.15120,0.17570,0.00000,0.03209,0.98210,-0.16153,0.0,2023,6,7,13,55,44,673
40.23900,0.00630,-0.06930,0.00000,0.03440,0.98308,-0.15750,0.0,2023,6,7,13,55,44,693
40.23910,-0.01120,-0.22680,0.00000,0.03416,0.98320,-0.16055,0.0,2023,6,7,13,55,44,713
40.23920,0.00630,0.01820,0.00000,0.03392,0.98198,-0.16031,0.0,2023,6,7,13,55,45,733
40.23930,0.04130,0.00070,0.00000,0.03148,0.98381,-0.16104,0.0,2023,6,7,13,55,45,753
40.23940,0.05880,0.07070,0.00000,0.03294,0.98051,-0.15970,0.0,2023,6,7,13,55,45,773
40.23950,-0.11620,0.12320,0.00000,0.03404,0.98295,-0.16165,0.0,2023,6,7,13,55,45,793
40.23960,-0.02870,0.21070,0.00000,0.03148,0.98247,-0.16128,0.0,2023,6,7,13,55,45,813
40.23970,0.02380,-0.03430,0.00000,0.03245,0.98137,-0.16153,0.0,2023,6,7,13,55,45,833
40.23980,0.25130,-0.08680,0.00000,0.03379,0.98088,-0.16128,0.0,2023,6,7,13,55,45,853
40.23990,-0.11620,-0.22680,0.00000,0.03343,0.98198,-0.16214,0.0,2023,6,7,13,55,45,873
40.24000,0.11130,0.05320,0.00000,0.03404,0.98125,-0.16214,0.0,2023,6,7,13,55,45,893
40.24010,0.07630,0.07070,0.00000,0.03501,0.98320,-0.16250,0.0,2023,6,7,13,55,45,913
40.24020,0.11130,0.07070,0.00000,0.03257,0.98344,-0.16360,0.0,2023,6,7,13,55,45,933
40.24030,0.05880,-0.08680,0.00000,0.03318,0.98173,-0.16250,0.0,2023,6,7,13,55,45,953
40.24040,-0.20370,0.28070,0.00000,0.03489,0.98320,-0.16238,0.0,2023,6,7,13,55,45,973
40.24050,0.05880,0.14070,0.00000,0.03282,0.97942,-0.16104,0.0,2023,6,7,13,55,45,993
40.24060,-0.11620,0.15820,0.00000,0.03367,0.98210,-0.16299,0.0,2023,6,7,13,55,45,13
40.24070,-0.09870,-0.06930,0.00000,0.03428,0.98222,-0.16214,0.0,2023,6,7,13,55,45,33
40.24080,0.07630,0.00070,0.00000,0.03282,0.98088,-0.16043,0.0,2023,6,7,13,55,45,53
40.24090,-0.06370,0.01820,0.00000,0.03148,0.98332,-0.15701,0.0,2023,6,7,13,55,45,73
40.24100,0.05880,0.01820,0.00000,0.03575,0.98027,-0.15994,0.0,2023,6,7,13,55,45,93
40.24110,-0.01120,0.05320,0.00000,0.03148,0.98137,-0.16019,0.0,2023,6,7,13,55,45,113
40.24120,-0.09870,-0.12180,0.00000,0.03489,0.97966,-0.16202,0.0,2023,6,7,13,55,45,133
40.24130,-0.09870,0.01820,0.00000,0.03404,0.98405,-0.15994,0.0,2023,6,7,13,55,45,153
40.24140,-0.13370,0.05320,0.00000,0.03367,0.98137,-0.16067,0.0,2023,6,7,13,55,45,173
40.24150,-0.02870,0.12320,0.00000,0.03453,0.98198,-0.16043,0.0,2023,6,7,13,55,45,193
40.24160,0.09380,0.12320,0.00000,0.03367,0.98247,-0.16214,0.0,2023,6,7,13,55,45,213
40.24170,-0.04620,-0.03430,0.00000,0.03331,0.98112,-0.15994,0.0,2023,6,7,13,55,45,233
40.24180,-0.16870,0.12320,0.00000,0.03257,0.98210,-0.15799,0.0,2023,6,7,13,55,45,253
40.24190,0.00630,0.03570,0.00000,0.03294,0.98430,-0.15836,0.0,2023,6,7,13,55,45,273
40.24200,0.11130,-0.03430,0.00000,0.03184,0.98295,-0.16116,0.0,2023,6,7,13,55,45,293
40.24210,0.14630,-0.05180,0.00000,0.03331,0.98186,-0.15811,0.0,2023,6,7,13,55,45,313
40.24220,0.07630,0.05320,0.00000,0.03184,0.98112,-0.15909,0.0,2023,6,7,13,55,45,333
40.24230,0.05880,-0.08680,0.00000,0.03355,0.98064,-0.16311,0.0,2023,6,7,13,55,45,353
40.24240,-0.09870,-0.06930,0.00000,0.03343,0.98234,-0.16189,0.0,2023,6,7,13,55,45,373
40.24250,0.11130,0.00070,0.00000,0.03331,0.98186,-0.16116,0.0,2023,6,7,13,55,45,393
40.24260,0.04130,0.07070,0.00000,0.03306,0.98369,-0.15872,0.0,2023,6,7,13,55,45,413
40.24270,0.07630,0.01820,0.00000,0.03331,0.98198,-0.16275,0.0,2023,6,7,13,55,45,433
40.24280,0.19880,-0.06930,0.00000,0.03538,0.98186,-0.16055,0.0,2023,6,7,13,55,45,453
40.24290,0.02380,0.05320,0.00000,0.03428,0.98247,-0.16104,0.0,2023,6,7,13,55,45,473
40.24300,-0.02870,-0.06930,0.00000,0.03416,0.98222,-0.16092,0.0,2023,6,7,13,55,45,493
40.24310,-0.27370,-0.01680,0.00000,0.03221,0.98015,-0.16104,0.0,2023,6,7,13,55,45,513
40.24320,0.12880,0.03570,0.00000,0.03477,0.98478,-0.15994,0.0,2023,6,7,13,55,45,533
40.24330,-0.02870,0.07070,0.00000,0.03392,0.98308,-0.16055,0.0,2023,6,7,13,55,45,553
40.24340,-0.13370,0.19320,0.00000,0.03355,0.98125,-0.16141,0.0,2023,6,7,13,55,45,573
40.24350,-0.08120,-0.05180,0.00000,0.03538,0.98271,-0.16202,0.0,2023,6,7,13,55,45,593
40.24360,0.05880,0.08820,0.00000,0.03404,0.98137,-0.16202,0.0,2023,6,7,13,55,45,613
40.24370,0.11130,0.26320,0.00000,0.03233,0.98259,-0.16080,0.0,2023,6,7,13,55,45,633
40.24380,0.09380,0.03570,0.00000,0.03440,0.98088,-0.16031,0.0,2023,6,7,13,55,45,653
40.24390,0.02380,0.01820,0.00000,0.03318,0.98186,-0.16104,0.0,2023,6,7,13,55,45,673
40.24400,-0.09870,-0.08680,0.00000,0.03282,0.98381,-0.16006,0.0,2023,6,7,13,55,45,693
40.24410,-0.27370,-0.01680,0.00000,0.03318,0.98088,-0.16360,0.0,2023,6,7,13,55,45,713
40.24420,-0.13370,-0.17430,0.00000,0.03257,0.98247,-0.16031,0.0,2023,6,7,13,55,45,733
40.24430,0.09380,0.05320,0.00000,0.03575,0.98344,-0.16104,0.0,2023,6,7,13,55,45,753
40.24440,-0.04620,0.01820,0.00000,0.03148,0.98332,-0.15933,0.0,2023,6,7,13,55,45,773
40.24450,0.05880,0.01820,0.00000,0.03306,0.97978,-0.15884,0.0,2023,6,7,13,55,45,793
40.24460,-0.06370,0.15820,0.00000,0.03392,0.98478,-0.16141,0.0,2023,6,7,13,55,45,813
40.24470,-0.04620,0.03570,0.00000,0.03367,0.98186,-0.15945,0.0,2023,6,7,13,55,45,833
40.24480,-0.04620,-0.01680,0.00000,0.03392,0.98210,-0.16055,0.0,2023,6,7,13,55,45,853
40.24490,0.19880,-0.20930,0.00000,0.03257,0.98417,-0.16104,0.0,2023,6,7,13,55,45,873
40.24500,0.12880,-0.01680,0.00000,0.03367,0.98247,-0.15799,0.0,2023,6,7,13,55,45,893
40.24510,0.12880,0.03570,0.00000,0.03294,0.98149,-0.16092,0.0,2023,6,7,13,55,45,913
40.24520,0.09380,-0.08680,0.00000,0.03233,0.98259,-0.15994,0.0,2023,6,7,13,55,45,933
40.24530,-0.11620,-0.12180,0.00000,0.03245,0.98149,-0.16116,0.0,2023,6,7,13,55,45,953
40.24540,-0.04620,-0.08680,0.00000,0.03575,0.98039,-0.16141,0.0,2023,6,7,13,55,45,973
40.24550,-0.13370,-0.10430,0.00000,0.03428,0.98198,-0.15982,0.0,2023,6,7,13,55,45,993
40.24560,-0.02870,-0.01680,0.00000,0.03172,0.98149,-0.16080,0.0,2023,6,7,13,55,45,13
40.24570,0.05880,-0.03430,0.00000,0.03355,0.98222,-0.15909,0.0,2023,6,7,13,55,45,33
40.24580,-0.06370,-0.10430,0.00000,0.03245,0.98308,-0.15787,0.0,2023,6,7,13,55,45,53
40.24590,-0.04620,0.15820,0.00000,0.03367,0.98210,-0.15884,0.0,2023,6,7,13,55,45,73
40.24600,-0.11620,0.01820,0.00000,0.03184,0.98161,-0.16055,0.0,2023,6,7,13,55,45,93
40.24610,-0.06370,0.01820,0.00000,0.03270,0.98491,-0.15848,0.0,2023,6,7,13,55,45,113
40.24620,-0.09870,-0.15680,0.00000,0.03355,0.98356,-0.15811,0.0,2023,6,7,13,55,45,133
40.24630,0.12880,0.05320,0.00000,0.03367,0.98356,-0.15884,0.0,2023,6,7,13,55,45,153
40.24640,0.14630,0.01820,0.00000,0.03001,0.98186,-0.15884,0.0,2023,6,7,13,55,45,173
40.24650,-0.22120,0.26320,0.00000,0.03318,0.98259,-0.15909,0.0,2023,6,7,13,55,45,193
40.24660,-0.01120,-0.17430,0.00000,0.03184,0.98308,-0.15872,0.0,2023,6,7,13,55,45,213
40.24670,-0.04620,-0.01680,0.00000,0.03123,0.98149,-0.15958,0.0,2023,6,7,13,55,45,233
40.24680,0.21630,-0.19180,0.00000,0.03465,0.98076,-0.15775,0.0,2023,6,7,13,55,45,253
40.24690,0.04130,-0.08680,0.00000,0.03416,0.98076,-0.16006,0.0,2023,6,7,13,55,45,273
40.24700,-0.06370,-0.01680,0.00000,0.03489,0.98283,-0.16019,0.0,2023,6,7,13,55,45,293
40.24710,0.09380,0.05320,0.00000,0.03587,0.98161,-0.15738,0.0,2023,6,7,13,55,45,313
40.24720,0.11130,-0.05180,0.00000,0.03501,0.98222,-0.15738,0.0,2023,6,7,13,55,45,333
40.24730,0.11130,0.12320,0.00000,0.03306,0.97966,-0.16141,0.0,2023,6,7,13,55,45,353
40.24740,0.02380,0.12320,0.00000,0.03270,0.98234,-0.15738,0.0,2023,6,7,13,55,45,373
40.24750,0.00630,-0.10430,0.00000,0.03233,0.98308,-0.15970,0.0,2023,6,7,13,55,45,393
40.24760,0.23380,-0.08680,0.00000,0.03392,0.98125,-0.15884,0.0,2023,6,7,13,55,45,413
40.24770,-0.02870,-0.03430,0.00000,0.03477,0.98125,-0.15921,0.0,2023,6,7,13,55,45,433
40.24780,0.00630,0.03570,0.00000,0.03282,0.98161,-0.15884,0.0,2023,6,7,13,55,45,453
40.24790,0.02380,0.00070,0.00000,0.03501,0.98088,-0.15945,0.0,2023,6,7,13,55,45,473
40.24800,-0.23870,-0.03430,0.00000,0.03294,0.98369,-0.16165,0.0,2023,6,7,13,55,45,493
40.24810,-0.02870,0.01820,0.00000,0.03306,0.98112,-0.16165,0.0,2023,6,7,13,55,45,513
40.24820,0.02380,-0.26180,0.00000,0.03501,0.98430,-0.15921,0.0,2023,6,7,13,55,46,533
40.24830,0.02380,-0.06930,0.00000,0.03111,0.98308,-0.15982,0.0,2023,6,7,13,55,46,553
40.24840,-0.02870,0.05320,0.00000,0.03453,0.98332,-0.15836,0.0,2023,6,7,13,55,46,573
40.24850,-0.01120,0.03570,0.00000,0.03111,0.98356,-0.15872,0.0,2023,6,7,13,55,46,593
40.24860,0.09380,0.00070,0.00000,0.03233,0.98015,-0.15872,0.0,2023,6,7,13,55,46,613
40.24870,0.04130,-0.03430,0.00000,0.03233,0.98186,-0.16055,0.0,2023,6,7,13,55,46,633
40.24880,-0.02870,-0.12180,0.00000,0.03636,0.98198,-0.15738,0.0,2023,6,7,13,55,46,653
40.24890,-0.15120,0.01820,0.00000,0.03245,0.98442,-0.15848,0.0,2023,6,7,13,55,46,673
40.24900,0.00630,-0.10430,0.00000,0.03355,0.98149,-0.15775,0.0,2023,6,7,13,55,46,693
40.24910,0.00630,0.01820,0.00000,0.03318,0.98332,-0.15994,0.0,2023,6,7,13,55,46,713
40.24920,0.04130,0.22820,0.00000,0.03233,0.98100,-0.15921,0.0,2023,6,7,13,55,46,733
40.24930,-0.13370,0.01820,0.00000,0.03379,0.97990,-0.15823,0.0,2023,6,7,13,55,46,753
40.24940,0.18130,0.08820,0.00000,0.03501,0.98295,-0.15860,0.0,2023,6,7,13,55,46,773
40.24950,-0.09870,-0.06930,0.00000,0.03489,0.98247,-0.15750,0.0,2023,6,7,13,55,46,793
40.24960,0.25130,-0.13930,0.00000,0.03196,0.98442,-0.15799,0.0,2023,6,7,13,55,46,813
40.24970,-0.09870,0.10570,0.00000,0.03257,0.98356,-0.16214,0.0,2023,6,7,13,55,46,833
40.24980,-0.04620,0.05320,0.00000,0.03379,0.98112,-0.16043,0.0,2023,6,7,13,55,46,853
40.24990,0.12880,-0.33180,0.00000,0.03416,0.98015,-0.15933,0.0,2023,6,7,13,55,46,873
40.25000,0.04130,-0.08680,0.00000,0.03514,0.98344,-0.15860,0.0,2023,6,7,13,55,46,893
40.25010,0.05880,-0.15680,0.00000,0.03123,0.98393,-0.15958,0.0,2023,6,7,13,55,46,913
40.25020,-0.01120,0.03570,0.00000,0.03282,0.98112,-0.15823,0.0,2023,6,7,13,55,46,933
40.25030,-0.15120,0.07070,0.00000,0.03306,0.98222,-0.15994,0.0,2023,6,7,13,55,46,953
40.25040,0.11130,0.17570,0.00000,0.03331,0.98173,-0.16116,0.0,2023,6,7,13,55,46,973
40.25050,-0.02870,-0.03430,0.00000,0.03477,0.98186,-0.15945,0.0,2023,6,7,13,55,46,993
40.25060,0.02380,0.01820,0.00000,0.03257,0.98283,-0.15884,0.0,2023,6,7,13,55,46,13
40.25070,0.09380,-0.05180,0.00000,0.03331,0.98234,-0.15860,0.0,2023,6,7,13,55,46,33
40.25080,-0.08120,0.10570,0.00000,0.03245,0.98393,-0.15945,0.0,2023,6,7,13,55,46,53
40.25090,0.00630,0.08820,0.00000,0.03392,0.98222,-0.15848,0.0,2023,6,7,13,55,46,73
40.25100,0.02380,-0.01680,0.00000,0.03440,0.98125,-0.16031,0.0,2023,6,7,13,55,46,93
40.25110,0.16380,-0.17430,0.00000,0.03306,0.98271,-0.15872,0.0,2023,6,7,13,55,46,113
40.25120,-0.01120,-0.22680,0.00000,0.03270,0.98369,-0.15909,0.0,2023,6,7,13,55,46,133
40.25130,-0.08120,-0.01680,0.00000,0.03465,0.98100,-0.15860,0.0,2023,6,7,13,55,46,153
40.25140,0.23380,0.05320,0.00000,0.03343,0.97990,-0.16092,0.0,2023,6,7,13,55,46,173
40.25150,0.07630,0.00070,0.00000,0.03087,0.98259,-0.15958,0.0,2023,6,7,13,55,46,193
40.25160,0.05880,-0.03430,0.00000,0.03514,0.98356,-0.15945,0.0,2023,6,7,13,55,46,213
40.25170,-0.16870,0.01820,0.00000,0.03526,0.98466,-0.15994,0.0,2023,6,7,13,55,46,233
40.25180,-0.22120,0.24570,0.00000,0.03392,0.98186,-0.16031,0.0,2023,6,7,13,55,46,253
40.25190,0.07630,-0.20930,0.00000,0.03379,0.98137,-0.16128,0.0,2023,6,7,13,55,46,273
40.25200,-0.09870,0.15820,0.00000,0.03135,0.98332,-0.16043,0.0,2023,6,7,13,55,46,293
40.25210,-0.02870,-0.13930,0.00000,0.03233,0.98369,-0.16080,0.0,2023,6,7,13,55,46,313
40.25220,0.04130,0.24570,0.00000,0.03367,0.98222,-0.15848,0.0,2023,6,7,13,55,46,333
40.25230,-0.02870,0.00070,0.00000,0.03428,0.98076,-0.16348,0.0,2023,6,7,13,55,46,353
40.25240,-0.08120,-0.15680,0.00000,0.03123,0.98100,-0.16165,0.0,2023,6,7,13,55,46,373
40.25250,0.02380,0.00070,0.00000,0.03282,0.98198,-0.16055,0.0,2023,6,7,13,55,46,393
40.25260,-0.01120,0.03570,0.00000,0.03440,0.97954,-0.16080,0.0,2023,6,7,13,55,46,413
40.25270,0.12880,-0.05180,0.00000,0.03318,0.98271,-0.16043,0.0,2023,6,7,13,55,46,433
40.25280,-0.08120,0.12320,0.00000,0.03477,0.98027,-0.16128,0.0,2023,6,7,13,55,46,453
40.25290,0.05880,-0.05180,0.00000,0.03282,0.98405,-0.16080,0.0,2023,6,7,13,55,46,473
40.25300,0.05880,-0.06930,0.00000,0.03233,0.98234,-0.16226,0.0,2023,6,7,13,55,46,493
40.25310,0.05880,0.00070,0.00000,0.03355,0.98161,-0.15945,0.0,2023,6,7,13,55,46,513
40.25320,0.04130,-0.13930,0.00000,0.03428,0.98247,-0.15909,0.0,2023,6,7,13,55,46,533
40.25330,-0.06370,-0.06930,0.00000,0.03331,0.98198,-0.15848,0.0,2023,6,7,13,55,46,553
40.25340,0.07630,-0.15680,0.00000,0.03477,0.98149,-0.15945,0.0,2023,6,7,13,55,46,573
40.25350,0.05880,-0.03430,0.00000,0.03428,0.98161,-0.15994,0.0,2023,6,7,13,55,46,593
40.25360,0.04130,0.31570,0.00000,0.03270,0.98283,-0.16067,0.0,2023,6,7,13,55,46,613
40.25370,0.18130,0.33320,0.00000,0.03514,0.98295,-0.16128,0.0,2023,6,7,13,55,46,633
40.25380,-0.04620,-0.06930,0.00000,0.03367,0.98393,-0.16104,0.0,2023,6,7,13,55,46,653
40.25390,0.18130,-0.10430,0.00000,0.03331,0.98259,-0.15970,0.0,2023,6,7,13,55,46,673
40.25400,-0.02870,-0.15680,0.00000,0.03331,0.97990,-0.16104,0.0,2023,6,7,13,55,46,693
40.25410,0.02380,0.03570,0.00000,0.03257,0.98283,-0.15958,0.0,2023,6,7,13,55,46,713
40.25420,0.07630,-0.17430,0.00000,0.03184,0.98271,-0.15933,0.0,2023,6,7,13,55,46,733
40.25430,-0.02870,-0.06930,0.00000,0.03294,0.98356,-0.15897,0.0,2023,6,7,13,55,46,753
40.25440,0.07630,0.10570,0.00000,0.03331,0.98088,-0.16104,0.0,2023,6,7,13,55,46,773
40.25450,-0.13370,0.01820,0.00000,0.03477,0.98112,-0.15860,0.0,2023,6,7,13,55,46,793
40.25460,0.07630,0.03570,0.00000,0.03379,0.98247,-0.16067,0.0,2023,6,7,13,55,46,813
40.25470,0.12880,-0.13930,0.00000,0.03550,0.98332,-0.15738,0.0,2023,6,7,13,55,46,833
40.25480,-0.02870,0.00070,0.00000,0.03318,0.98393,-0.15811,0.0,2023,6,7,13,55,46,853
40.25490,-0.06370,0.07070,0.00000,0.03270,0.98515,-0.16006,0.0,2023,6,7,13,55,46,873
40.25500,0.19880,-0.06930,0.00000,0.03501,0.98039,-0.16177,0.0,2023,6,7,13,55,46,893
40.25510,-0.01120,0.07070,0.00000,0.03148,0.97954,-0.15897,0.0,2023,6,7,13,55,46,913
40.25520,0.14630,-0.20930,0.00000,0.03257,0.98417,-0.15921,0.0,2023,6,7,13,55,46,933
40.25530,0.02380,-0.01680,0.00000,0.03428,0.98027,-0.16055,0.0,2023,6,7,13,55,46,953
40.25540,0.18130,0.08820,0.00000,0.03184,0.98356,-0.15811,0.0,2023,6,7,13,55,46,973
40.25550,0.16380,-0.13930,0.00000,0.03501,0.98454,-0.15787,0.0,2023,6,7,13,55,46,993
40.25560,-0.06370,0.03570,0.00000,0.03318,0.98393,-0.15836,0.0,2023,6,7,13,55,46,13
40.25570,-0.18620,0.07070,0.00000,0.03245,0.98112,-0.16226,0.0,2023,6,7,13,55,46,33
40.25580,-0.06370,0.17570,0.00000,0.03184,0.98393,-0.15811,0.0,2023,6,7,13,55,46,53
40.25590,-0.08120,-0.06930,0.00000,0.03306,0.98478,-0.16177,0.0,2023,6,7,13,55,46,73
40.25600,-0.09870,-0.10430,0.00000,0.03367,0.98222,-0.15836,0.0,2023,6,7,13,55,46,93
40.25610,-0.18620,0.01820,0.00000,0.03184,0.98222,-0.15958,0.0,2023,6,7,13,55,46,113
40.25620,0.02380,0.10570,0.00000,0.03575,0.98295,-0.15994,0.0,2023,6,7,13,55,46,133
40.25630,0.00630,0.15820,0.00000,0.03538,0.98234,-0.16055,0.0,2023,6,7,13,55,46,153
40.25640,-0.09870,0.08820,0.00000,0.03355,0.98271,-0.15750,0.0,2023,6,7,13,55,46,173
40.25650,-0.08120,0.07070,0.00000,0.03331,0.98112,-0.15860,0.0,2023,6,7,13,55,46,193
40.25660,-0.09870,0.01820,0.00000,0.03331,0.98417,-0.15982,0.0,2023,6,7,13,55,46,213
40.25670,-0.06370,-0.03430,0.00000,0.03270,0.98466,-0.16043,0.0,2023,6,7,13,55,46,233
40.25680,0.05880,0.01820,0.00000,0.03331,0.98271,-0.16153,0.0,2023,6,7,13,55,46,253
40.25690,-0.02870,0.14070,0.00000,0.03453,0.98381,-0.16043,0.0,2023,6,7,13,55,46,273
40.25700,0.11130,-0.12180,0.00000,0.03331,0.98247,-0.16080,0.0,2023,6,7,13,55,46,293
40.25710,-0.04620,-0.01680,0.00000,0.03367,0.98186,-0.15884,0.0,2023,6,7,13,55,46,313
40.25720,0.07630,-0.03430,0.00000,0.03343,0.98259,-0.15994,0.0,2023,6,7,13,55,46,333
40.25730,0.04130,0.05320,0.00000,0.03196,0.98369,-0.15799,0.0,2023,6,7,13,55,47,353
40.25740,0.04130,-0.17430,0.00000,0.03367,0.98064,-0.15933,0.0,2023,6,7,13,55,47,373
40.25750,-0.13370,0.15820,0.00000,0.03245,0.97990,-0.15750,0.0,2023,6,7,13,55,47,393
40.25760,-0.01120,0.17570,0.00000,0.03453,0.98283,-0.15884,0.0,2023,6,7,13,55,47,413
40.25770,0.00630,0.12320,0.00000,0.03477,0.98039,-0.15909,0.0,2023,6,7,13,55,47,433
40.25780,0.14630,-0.13930,0.00000,0.03221,0.98271,-0.15799,0.0,2023,6,7,13,55,47,453
40.25790,0.18130,-0.08680,0.00000,0.03587,0.98308,-0.15958,0.0,2023,6,7,13,55,47,473
40.25800,0.07630,0.19320,0.00000,0.03196,0.98332,-0.16141,0.0,2023,6,7,13,55,47,493
40.25810,0.00630,0.10570,0.00000,0.03575,0.98186,-0.15860,0.0,2023,6,7,13,55,47,513
40.25820,-0.02870,-0.03430,0.00000,0.03318,0.98295,-0.15933,0.0,2023,6,7,13,55,47,533
40.25830,0.02380,0.17570,0.00000,0.03245,0.98393,-0.15872,0.0,2023,6,7,13,55,47,553
40.25840,0.00630,0.19320,0.00000,0.03416,0.98088,-0.16080,0.0,2023,6,7,13,55,47,573
40.25850,-0.11620,0.05320,0.00000,0.03270,0.98186,-0.16055,0.0,2023,6,7,13,55,47,593
40.25860,-0.11620,-0.01680,0.00000,0.03270,0.98137,-0.15945,0.0,2023,6,7,13,55,47,613
40.25870,0.07630,-0.01680,0.00000,0.03257,0.98198,-0.15921,0.0,2023,6,7,13,55,47,633
40.25880,0.02380,0.10570,0.00000,0.03270,0.98234,-0.15884,0.0,2023,6,7,13,55,47,653
40.25890,-0.20370,0.07070,0.00000,0.03257,0.98295,-0.16189,0.0,2023,6,7,13,55,47,673
40.25900,-0.09870,0.10570,0.00000,0.03379,0.98076,-0.16043,0.0,2023,6,7,13,55,47,693
40.25910,0.04130,-0.03430,0.00000,0.03575,0.98283,-0.16019,0.0,2023,6,7,13,55,47,713
40.25920,-0.15120,0.17570,0.00000,0.03282,0.98222,-0.15933,0.0,2023,6,7,13,55,47,733
40.25930,0.00630,0.12320,0.00000,0.03526,0.97929,-0.16141,0.0,2023,6,7,13,55,47,753
40.25940,-0.09870,-0.03430,0.00000,0.03379,0.98393,-0.15945,0.0,2023,6,7,13,55,47,773
40.25950,-0.16870,0.07070,0.00000,0.03562,0.98186,-0.15897,0.0,2023,6,7,13,55,47,793
40.25960,-0.04620,0.10570,0.00000,0.03392,0.98198,-0.15775,0.0,2023,6,7,13,55,47,813
40.25970,-0.08120,-0.15680,0.00000,0.03392,0.98173,-0.16104,0.0,2023,6,7,13,55,47,833
40.25980,0.09380,-0.08680,0.00000,0.03453,0.98259,-0.16177,0.0,2023,6,7,13,55,47,853
40.25990,0.14630,-0.19180,0.00000,0.03501,0.98198,-0.15848,0.0,2023,6,7,13,55,47,873
40.26000,0.14630,-0.12180,0.00000,0.03221,0.98149,-0.16006,0.0,2023,6,7,13,55,47,893
40.26010,-0.04620,-0.13930,0.00000,0.03379,0.98173,-0.16031,0.0,2023,6,7,13,55,47,913
40.26020,-0.09870,0.07070,0.00000,0.03209,0.98259,-0.15714,0.0,2023,6,7,13,55,47,933
40.26030,-0.16870,0.17570,0.00000,0.03270,0.98076,-0.16080,0.0,2023,6,7,13,55,47,953
40.26040,0.04130,-0.06930,0.00000,0.03392,0.98271,-0.15884,0.0,2023,6,7,13,55,47,973
40.26050,-0.13370,0.03570,0.00000,0.03587,0.98198,-0.15958,0.0,2023,6,7,13,55,47,993
40.26060,-0.13370,-0.06930,0.00000,0.03306,0.98271,-0.15994,0.0,2023,6,7,13,55,47,13
40.26070,-0.06370,-0.13930,0.00000,0.03257,0.98417,-0.16043,0.0,2023,6,7,13,55,47,33
40.26080,0.05880,-0.01680,0.00000,0.03135,0.98210,-0.16006,0.0,2023,6,7,13,55,47,53
40.26090,0.00630,0.10570,0.00000,0.03233,0.98442,-0.15945,0.0,2023,6,7,13,55,47,73
40.26100,0.05880,0.05320,0.00000,0.03514,0.98259,-0.15897,0.0,2023,6,7,13,55,47,93
40.26110,-0.06370,0.21070,0.00000,0.03282,0.98491,-0.15848,0.0,2023,6,7,13,55,47,113
40.26120,0.02380,-0.03430,0.00000,0.03245,0.98210,-0.15799,0.0,2023,6,7,13,55,47,133
40.26130,0.14630,-0.13930,0.00000,0.03501,0.98320,-0.15945,0.0,2023,6,7,13,55,47,153
40.26140,-0.01120,0.07070,0.00000,0.03453,0.98295,-0.16189,0.0,2023,6,7,13,55,47,173
40.26150,0.14630,-0.08680,0.00000,0.03221,0.98222,-0.16006,0.0,2023,6,7,13,55,47,193
40.26160,0.05880,0.01820,0.00000,0.03428,0.98039,-0.16019,0.0,2023,6,7,13,55,47,213
40.26170,0.07630,0.22820,0.00000,0.03282,0.98466,-0.15836,0.0,2023,6,7,13,55,47,233
40.26180,0.05880,0.14070,0.00000,0.03392,0.98356,-0.15579,0.0,2023,6,7,13,55,47,253
40.26190,0.18130,-0.10430,0.00000,0.03514,0.98064,-0.15823,0.0,2023,6,7,13,55,47,273
40.26200,-0.25620,0.07070,0.00000,0.03538,0.98076,-0.15921,0.0,2023,6,7,13,55,47,293
40.26210,0.04130,0.01820,0.00000,0.03233,0.98247,-0.15823,0.0,2023,6,7,13,55,47,313
40.26220,0.09380,-0.08680,0.00000,0.03501,0.98295,-0.15994,0.0,2023,6,7,13,55,47,333
40.26230,-0.06370,0.00070,0.00000,0.03355,0.98088,-0.15933,0.0,2023,6,7,13,55,47,353
40.26240,-0.06370,-0.13930,0.00000,0.03636,0.98356,-0.15982,0.0,2023,6,7,13,55,47,373
40.26250,0.02380,-0.10430,0.00000,0.03221,0.98271,-0.15799,0.0,2023,6,7,13,55,47,393
40.26260,-0.01120,0.14070,0.00000,0.03526,0.98332,-0.15787,0.0,2023,6,7,13,55,47,413
40.26270,0.00630,0.00070,0.00000,0.03294,0.97978,-0.15945,0.0,2023,6,7,13,55,47,433
40.26280,0.16380,-0.17430,0.00000,0.03221,0.98308,-0.16043,0.0,2023,6,7,13,55,47,453
40.26290,0.02380,0.07070,0.00000,0.03331,0.98308,-0.16043,0.0,2023,6,7,13,55,47,473
40.26300,0.07630,0.15820,0.00000,0.03453,0.98222,-0.15958,0.0,2023,6,7,13,55,47,493
40.26310,-0.04620,-0.05180,0.00000,0.03367,0.98247,-0.15897,0.0,2023,6,7,13,55,47,513
40.26320,-0.08120,0.08820,0.00000,0.03343,0.98161,-0.16141,0.0,2023,6,7,13,55,47,533
40.26330,-0.09870,-0.15680,0.00000,0.03440,0.98198,-0.16067,0.0,2023,6,7,13,55,47,553
40.26340,0.16380,-0.13930,0.00000,0.03245,0.98137,-0.16006,0.0,2023,6,7,13,55,47,573
40.26350,-0.09870,-0.12180,0.00000,0.03416,0.98186,-0.15811,0.0,2023,6,7,13,55,47,593
40.26360,-0.13370,0.05320,0.00000,0.03245,0.98198,-0.15823,0.0,2023,6,7,13,55,47,613
40.26370,-0.08120,0.10570,0.00000,0.03379,0.98454,-0.16006,0.0,2023,6,7,13,55,47,633
40.26380,0.09380,0.05320,0.00000,0.03026,0.98222,-0.15994,0.0,2023,6,7,13,55,47,653
40.26390,0.02380,-0.15680,0.00000,0.03562,0.98173,-0.15994,0.0,2023,6,7,13,55,47,673
40.26400,0.05880,-0.17430,0.00000,0.03294,0.98173,-0.15958,0.0,2023,6,7,13,55,47,693
40.26410,0.12880,-0.01680,0.00000,0.03465,0.98149,-0.15860,0.0,2023,6,7,13,55,47,713
40.26420,0.05880,-0.01680,0.00000,0.03428,0.98234,-0.15665,0.0,2023,6,7,13,55,47,733
40.26430,-0.06370,-0.08680,0.00000,0.03306,0.98259,-0.15799,0.0,2023,6,7,13,55,47,753
40.26440,0.07630,0.05320,0.00000,0.03282,0.98442,-0.15750,0.0,2023,6,7,13,55,47,773
40.26450,0.02380,0.05320,0.00000,0.03404,0.98088,-0.15860,0.0,2023,6,7,13,55,47,793
40.26460,-0.20370,0.01820,0.00000,0.03477,0.98405,-0.15860,0.0,2023,6,7,13,55,47,813
40.26470,0.09380,0.00070,0.00000,0.03270,0.98320,-0.15897,0.0,2023,6,7,13,55,47,833
40.26480,-0.22120,0.00070,0.00000,0.03233,0.97990,-0.15677,0.0,2023,6,7,13,55,47,853
40.26490,-0.02870,-0.05180,0.00000,0.03318,0.98478,-0.15860,0.0,2023,6,7,13,55,47,873
40.26500,-0.01120,0.08820,0.00000,0.03428,0.98295,-0.15689,0.0,2023,6,7,13,55,47,893
40.26510,0.05880,0.08820,0.00000,0.03209,0.98015,-0.15640,0.0,2023,6,7,13,55,47,913
40.26520,-0.08120,0.00070,0.00000,0.03245,0.98210,-0.15872,0.0,2023,6,7,13,55,47,933
40.26530,-0.18620,0.12320,0.00000,0.03501,0.98186,-0.15592,0.0,2023,6,7,13,55,47,953
40.26540,-0.04620,-0.12180,0.00000,0.03355,0.98210,-0.15945,0.0,2023,6,7,13,55,47,973
40.26550,0.04130,-0.12180,0.00000,0.03148,0.98320,-0.15726,0.0,2023,6,7,13,55,47,993
40.26560,-0.09870,-0.06930,0.00000,0.03087,0.98295,-0.15884,0.0,2023,6,7,13,55,47,13
40.26570,-0.08120,0.01820,0.00000,0.03379,0.98271,-0.15738,0.0,2023,6,7,13,55,47,33
40.26580,0.02380,-0.05180,0.00000,0.03477,0.97881,-0.15762,0.0,2023,6,7,13,55,47,53
40.26590,0.21630,-0.20930,0.00000,0.03331,0.98039,-0.15848,0.0,2023,6,7,13,55,47,73
40.26600,-0.18620,-0.12180,0.00000,0.03623,0.98149,-0.15921,0.0,2023,6,7,13,55,47,93
40.26610,-0.01120,0.15820,0.00000,0.03453,0.98234,-0.15945,0.0,2023,6,7,13,55,47,113
40.26620,-0.08120,0.10570,0.00000,0.03343,0.98173,-0.15958,0.0,2023,6,7,13,55,47,133
40.26630,0.14630,0.21070,0.00000,0.03416,0.98149,-0.15787,0.0,2023,6,7,13,55,48,153
40.26640,-0.08120,0.07070,0.00000,0.03355,0.98527,-0.15799,0.0,2023,6,7,13,55,48,173
40.26650,-0.08120,0.05320,0.00000,0.03233,0.98210,-0.15799,0.0,2023,6,7,13,55,48,193
40.26660,-0.08120,-0.17430,0.00000,0.03550,0.98149,-0.15933,0.0,2023,6,7,13,55,48,213
40.26670,0.18130,-0.17430,0.00000,0.03416,0.98259,-0.15701,0.0,2023,6,7,13,55,48,233
40.26680,0.02380,-0.01680,0.00000,0.03392,0.98393,-0.15933,0.0,2023,6,7,13,55,48,253
40.26690,-0.02870,-0.05180,0.00000,0.03355,0.98259,-0.15970,0.0,2023,6,7,13,55,48,273
40.26700,-0.06370,0.03570,0.00000,0.03270,0.98076,-0.15994,0.0,2023,6,7,13,55,48,293
40.26710,0.12880,0.10570,0.00000,0.03306,0.98454,-0.15823,0.0,2023,6,7,13,55,48,313
40.26720,0.11130,-0.12180,0.00000,0.03392,0.98198,-0.15994,0.0,2023,6,7,13,55,48,333
40.26730,0.11130,-0.12180,0.00000,0.03270,0.98369,-0.15762,0.0,2023,6,7,13,55,48,353
40.26740,0.07630,-0.05180,0.00000,0.03343,0.98173,-0.15750,0.0,2023,6,7,13,55,48,373
40.26750,0.00630,0.05320,0.00000,0.03416,0.98442,-0.16019,0.0,2023,6,7,13,55,48,393
40.26760,0.02380,0.01820,0.00000,0.03172,0.98247,-0.16019,0.0,2023,6,7,13,55,48,413
40.26770,-0.01120,-0.08680,0.00000,0.03270,0.98186,-0.16006,0.0,2023,6,7,13,55,48,433
40.26780,-0.09870,-0.01680,0.00000,0.03538,0.98112,-0.15884,0.0,2023,6,7,13,55,48,453
40.26790,0.21630,0.00070,0.00000,0.03367,0.98344,-0.15848,0.0,2023,6,7,13,55,48,473
40.26800,0.14630,0.07070,0.00000,0.03294,0.98015,-0.15848,0.0,2023,6,7,13,55,48,493
40.26810,0.00630,0.15820,0.00000,0.03233,0.98161,-0.15933,0.0,2023,6,7,13,55,48,513
40.26820,0.11130,0.07070,0.00000,0.03111,0.98051,-0.15872,0.0,2023,6,7,13,55,48,533
40.26830,0.18130,-0.03430,0.00000,0.03404,0.98234,-0.15994,0.0,2023,6,7,13,55,48,553
40.26840,-0.18620,0.07070,0.00000,0.03282,0.98137,-0.15823,0.0,2023,6,7,13,55,48,573
40.26850,-0.08120,0.12320,0.00000,0.03318,0.97966,-0.15872,0.0,2023,6,7,13,55,48,593
40.26860,0.12880,-0.13930,0.00000,0.03428,0.98430,-0.15738,0.0,2023,6,7,13,55,48,613
40.26870,-0.09870,-0.13930,0.00000,0.03331,0.98308,-0.16067,0.0,2023,6,7,13,55,48,633
40.26880,-0.09870,0.21070,0.00000,0.03428,0.98247,-0.15897,0.0,2023,6,7,13,55,48,653
40.26890,0.04130,0.01820,0.00000,0.03306,0.98259,-0.15909,0.0,2023,6,7,13,55,48,673
40.26900,0.04130,-0.03430,0.00000,0.03245,0.98478,-0.15921,0.0,2023,6,7,13,55,48,693
40.26910,0.02380,0.05320,0.00000,0.03160,0.98222,-0.15848,0.0,2023,6,7,13,55,48,713
40.26920,-0.02870,-0.12180,0.00000,0.03404,0.98198,-0.15982,0.0,2023,6,7,13,55,48,733
40.26930,0.14630,-0.06930,0.00000,0.03233,0.97868,-0.15836,0.0,2023,6,7,13,55,48,753
40.26940,0.05880,0.03570,0.00000,0.03379,0.98247,-0.15860,0.0,2023,6,7,13,55,48,773
40.26950,0.11130,0.07070,0.00000,0.03306,0.98125,-0.16019,0.0,2023,6,7,13,55,48,793
40.26960,0.00630,0.00070,0.00000,0.03270,0.98320,-0.15945,0.0,2023,6,7,13,55,48,813
40.26970,-0.15120,0.00070,0.00000,0.03648,0.98247,-0.15958,0.0,2023,6,7,13,55,48,833
40.26980,0.04130,0.05320,0.00000,0.03428,0.98222,-0.15762,0.0,2023,6,7,13,55,48,853
40.26990,-0.13370,0.22820,0.00000,0.03306,0.98259,-0.15738,0.0,2023,6,7,13,55,48,873
40.27000,-0.04620,0.17570,0.00000,0.03404,0.98064,-0.15811,0.0,2023,6,7,13,55,48,893
40.27010,-0.02870,-0.10430,0.00000,0.03196,0.98308,-0.16043,0.0,2023,6,7,13,55,48,913
40.27020,0.04130,0.00070,0.00000,0.03355,0.98186,-0.15982,0.0,2023,6,7,13,55,48,933
40.27030,0.11130,-0.08680,0.00000,0.03196,0.98222,-0.15811,0.0,2023,6,7,13,55,48,953
40.27040,-0.08120,-0.10430,0.00000,0.03526,0.98271,-0.15738,0.0,2023,6,7,13,55,48,973
40.27050,-0.08120,-0.01680,0.00000,0.03404,0.98173,-0.15836,0.0,2023,6,7,13,55,48,993
40.27060,0.26880,0.08820,0.00000,0.03538,0.98478,-0.16080,0.0,2023,6,7,13,55,48,13
40.27070,-0.09870,0.00070,0.00000,0.03477,0.98344,-0.15921,0.0,2023,6,7,13,55,48,33
40.27080,-0.08120,0.01820,0.00000,0.03428,0.97966,-0.16104,0.0,2023,6,7,13,55,48,53
40.27090,-0.09870,0.15820,0.00000,0.03306,0.98393,-0.16092,0.0,2023,6,7,13,55,48,73
40.27100,-0.06370,-0.01680,0.00000,0.03526,0.98271,-0.16177,0.0,2023,6,7,13,55,48,93
40.27110,-0.08120,0.00070,0.00000,0.03172,0.98356,-0.15848,0.0,2023,6,7,13,55,48,113
40.27120,-0.02870,0.01820,0.00000,0.03318,0.98137,-0.15872,0.0,2023,6,7,13,55,48,133
40.27130,0.14630,-0.13930,0.00000,0.03404,0.98137,-0.15970,0.0,2023,6,7,13,55,48,153
40.27140,0.19880,-0.13930,0.00000,0.03306,0.98283,-0.16128,0.0,2023,6,7,13,55,48,173
40.27150,0.12880,0.07070,0.00000,0.03611,0.98405,-0.15872,0.0,2023,6,7,13,55,48,193
40.27160,-0.09870,-0.03430,0.00000,0.03379,0.97917,-0.15909,0.0,2023,6,7,13,55,48,213
40.27170,0.02380,0.05320,0.00000,0.03477,0.98247,-0.16141,0.0,2023,6,7,13,55,48,233
40.27180,-0.04620,0.07070,0.00000,0.03331,0.98247,-0.15921,0.0,2023,6,7,13,55,48,253
40.27190,0.00630,-0.19180,0.00000,0.03367,0.98430,-0.15860,0.0,2023,6,7,13,55,48,273
40.27200,0.02380,-0.10430,0.00000,0.03404,0.98198,-0.15958,0.0,2023,6,7,13,55,48,293
40.27210,0.05880,0.10570,0.00000,0.03501,0.98015,-0.15897,0.0,2023,6,7,13,55,48,313
40.27220,0.04130,-0.19180,0.00000,0.03294,0.98271,-0.15921,0.0,2023,6,7,13,55,48,333
40.27230,0.02380,-0.17430,0.00000,0.03294,0.98381,-0.16153,0.0,2023,6,7,13,55,48,353
40.27240,-0.01120,0.01820,0.00000,0.03392,0.98039,-0.15970,0.0,2023,6,7,13,55,48,373
40.27250,0.07630,-0.08680,0.00000,0.03514,0.98088,-0.15811,0.0,2023,6,7,13,55,48,393
40.27260,-0.13370,0.01820,0.00000,0.03343,0.98210,-0.16080,0.0,2023,6,7,13,55,48,413
40.27270,-0.09870,-0.01680,0.00000,0.03245,0.98442,-0.15921,0.0,2023,6,7,13,55,48,433
40.27280,0.12880,0.05320,0.00000,0.03428,0.98478,-0.15860,0.0,2023,6,7,13,55,48,453
40.27290,0.02380,-0.10430,0.00000,0.03111,0.98003,-0.16031,0.0,2023,6,7,13,55,48,473
40.27300,0.07630,0.10570,0.00000,0.03453,0.98149,-0.15848,0.0,2023,6,7,13,55,48,493
40.27310,0.05880,0.07070,0.00000,0.03404,0.98088,-0.15872,0.0,2023,6,7,13,55,48,513
40.27320,-0.04620,-0.08680,0.00000,0.03562,0.98210,-0.15933,0.0,2023,6,7,13,55,48,533
40.27330,0.00630,-0.01680,0.00000,0.03160,0.98356,-0.15860,0.0,2023,6,7,13,55,48,553
40.27340,0.11130,-0.03430,0.00000,0.03306,0.98149,-0.15714,0.0,2023,6,7,13,55,48,573
40.27350,0.11130,-0.01680,0.00000,0.03257,0.98222,-0.15750,0.0,2023,6,7,13,55,48,593
40.27360,0.00630,-0.01680,0.00000,0.03306,0.98381,-0.16043,0.0,2023,6,7,13,55,48,613
40.27370,-0.04620,-0.19180,0.00000,0.03306,0.98283,-0.15921,0.0,2023,6,7,13,55,48,633
40.27380,-0.04620,0.12320,0.00000,0.03416,0.97917,-0.16067,0.0,2023,6,7,13,55,48,653
40.27390,-0.08120,-0.13930,0.00000,0.03379,0.98356,-0.16019,0.0,2023,6,7,13,55,48,673
40.27400,-0.02870,0.10570,0.00000,0.03392,0.98076,-0.15701,0.0,2023,6,7,13,55,48,693
40.27410,0.00630,-0.29680,0.00000,0.03343,0.98369,-0.15921,0.0,2023,6,7,13,55,48,713
40.27420,-0.06370,0.12320,0.00000,0.03282,0.98198,-0.15909,0.0,2023,6,7,13,55,48,733
40.27430,-0.22120,0.29820,0.00000,0.03318,0.98356,-0.15653,0.0,2023,6,7,13,55,48,753
40.27440,0.05880,-0.22680,0.00000,0.03416,0.98344,-0.16153,0.0,2023,6,7,13,55,48,773
40.27450,0.02380,0.29820,0.00000,0.03465,0.98442,-0.15945,0.0,2023,6,7,13,55,48,793
40.27460,0.14630,-0.26180,0.00000,0.03331,0.98222,-0.16128,0.0,2023,6,7,13,55,48,813
40.27470,0.00630,0.00070,0.00000,0.03379,0.98234,-0.16092,0.0,2023,6,7,13,55,48,833
40.27480,0.02380,-0.08680,0.00000,0.03160,0.98100,-0.16214,0.0,2023,6,7,13,55,48,853
40.27490,-0.06370,0.00070,0.00000,0.03648,0.98173,-0.15994,0.0,2023,6,7,13,55,48,873
40.27500,-0.06370,-0.05180,0.00000,0.03209,0.98295,-0.16226,0.0,2023,6,7,13,55,48,893
40.27510,-0.04620,0.22820,0.00000,0.03245,0.97844,-0.16177,0.0,2023,6,7,13,55,48,913
40.27520,0.16380,0.10570,0.00000,0.03379,0.98064,-0.16128,0.0,2023,6,7,13,55,48,933
40.27530,0.16380,-0.24430,0.00000,0.03221,0.98271,-0.16055,0.0,2023,6,7,13,55,49,953
40.27540,0.12880,-0.17430,0.00000,0.03526,0.98161,-0.16263,0.0,2023,6,7,13,55,49,973
40.27550,0.07630,-0.12180,0.00000,0.03587,0.98125,-0.16043,0.0,2023,6,7,13,55,49,993
40.27560,0.12880,-0.01680,0.00000,0.03404,0.98051,-0.15909,0.0,2023,6,7,13,55,49,13
40.27570,0.02380,-0.01680,0.00000,0.03367,0.98247,-0.16055,0.0,2023,6,7,13,55,49,33
40.27580,0.11130,-0.19180,0.00000,0.03379,0.98478,-0.15994,0.0,2023,6,7,13,55,49,53
40.27590,-0.06370,0.08820,0.00000,0.03672,0.97893,-0.15994,0.0,2023,6,7,13,55,49,73
40.27600,-0.06370,0.19320,0.00000,0.03270,0.98283,-0.16067,0.0,2023,6,7,13,55,49,93
40.27610,0.14630,-0.19180,0.00000,0.03379,0.98088,-0.16104,0.0,2023,6,7,13,55,49,113
40.27620,-0.04620,-0.10430,0.00000,0.03440,0.98076,-0.15982,0.0,2023,6,7,13,55,49,133
40.27630,-0.13370,-0.03430,0.00000,0.03184,0.98478,-0.15848,0.0,2023,6,7,13,55,49,153
40.27640,-0.01120,0.07070,0.00000,0.03379,0.98112,-0.16043,0.0,2023,6,7,13,55,49,173
40.27650,-0.06370,0.08820,0.00000,0.03318,0.98430,-0.15958,0.0,2023,6,7,13,55,49,193
40.27660,0.05880,0.07070,0.00000,0.03135,0.98356,-0.16080,0.0,2023,6,7,13,55,49,213
40.27670,-0.08120,0.08820,0.00000,0.03343,0.98271,-0.16031,0.0,2023,6,7,13,55,49,233
40.27680,-0.11620,0.05320,0.00000,0.03392,0.98247,-0.16128,0.0,2023,6,7,13,55,49,253
40.27690,-0.13370,0.03570,0.00000,0.03562,0.98247,-0.15848,0.0,2023,6,7,13,55,49,273
40.27700,-0.15120,-0.17430,0.00000,0.03367,0.98161,-0.15970,0.0,2023,6,7,13,55,49,293
40.27710,0.00630,0.17570,0.00000,0.03404,0.98332,-0.16116,0.0,2023,6,7,13,55,49,313
40.27720,-0.11620,-0.01680,0.00000,0.03306,0.98491,-0.16116,0.0,2023,6,7,13,55,49,333
40.27730,-0.02870,0.01820,0.00000,0.03306,0.98137,-0.16128,0.0,2023,6,7,13,55,49,353
40.27740,0.02380,0.00070,0.00000,0.03343,0.98234,-0.16165,0.0,2023,6,7,13,55,49,373
40.27750,-0.11620,0.10570,0.00000,0.03367,0.98173,-0.16397,0.0,2023,6,7,13,55,49,393
40.27760,-0.09870,0.00070,0.00000,0.03367,0.98259,-0.16116,0.0,2023,6,7,13,55,49,413
40.27770,-0.01120,-0.17430,0.00000,0.03221,0.98430,-0.16031,0.0,2023,6,7,13,55,49,433
40.27780,0.18130,-0.08680,0.00000,0.03257,0.98186,-0.16031,0.0,2023,6,7,13,55,49,453
40.27790,0.00630,0.05320,0.00000,0.03355,0.98064,-0.16153,0.0,2023,6,7,13,55,49,473
40.27800,0.07630,-0.01680,0.00000,0.03343,0.98173,-0.16287,0.0,2023,6,7,13,55,49,493
40.27810,0.26880,-0.05180,0.00000,0.03355,0.98064,-0.16336,0.0,2023,6,7,13,55,49,513
40.27820,-0.01120,-0.22680,0.00000,0.03282,0.98503,-0.16141,0.0,2023,6,7,13,55,49,533
40.27830,-0.02870,-0.06930,0.00000,0.03587,0.98369,-0.16226,0.0,2023,6,7,13,55,49,553
40.27840,0.05880,0.01820,0.00000,0.03477,0.98466,-0.16214,0.0,2023,6,7,13,55,49,573
40.27850,-0.06370,0.08820,0.00000,0.03221,0.98149,-0.16104,0.0,2023,6,7,13,55,49,593
40.27860,-0.06370,0.00070,0.00000,0.03221,0.98247,-0.16275,0.0,2023,6,7,13,55,49,613
40.27870,-0.11620,0.10570,0.00000,0.03514,0.98003,-0.16019,0.0,2023,6,7,13,55,49,633
40.27880,-0.34370,0.24570,0.00000,0.03148,0.98222,-0.16360,0.0,2023,6,7,13,55,49,653
40.27890,0.07630,0.17570,0.00000,0.03367,0.98125,-0.16299,0.0,2023,6,7,13,55,49,673
40.27900,0.00630,-0.10430,0.00000,0.03465,0.98137,-0.16055,0.0,2023,6,7,13,55,49,693
40.27910,0.00630,0.03570,0.00000,0.03379,0.98320,-0.16104,0.0,2023,6,7,13,55,49,713
#2023/06/07 13:55:49
