#2023/06/07 15:34:22
time,wx,wy,wz,ax,ay,az,yy,MM,dd,hh,mm,ss,ms
42.81720,0.14770,0.24465,0.00000,0.03172,0.97637,-0.19130,0.0,2023,6,7,15,34,23,299
42.81730,0.07770,-0.00035,0.00000,0.03087,0.97551,-0.19166,0.0,2023,6,7,15,34,23,309
42.81740,0.06020,-0.07035,0.00000,0.03270,0.97673,-0.19032,0.0,2023,6,7,15,34,23,319
42.81750,0.23520,-0.26285,0.00000,0.03111,0.97539,-0.19166,0.0,2023,6,7,15,34,23,329
42.81760,0.18270,-0.07035,0.00000,0.03331,0.97551,-0.19276,0.0,2023,6,7,15,34,23,339
42.81770,0.04270,0.13965,0.00000,0.03050,0.97759,-0.19288,0.0,2023,6,7,15,34,23,349
42.81780,0.07770,0.08715,0.00000,0.03074,0.97637,-0.19117,0.0,2023,6,7,15,34,23,359
42.81790,0.02520,-0.05285,0.00000,0.03050,0.97637,-0.19203,0.0,2023,6,7,15,34,23,369
42.81800,-0.21980,0.12215,0.00000,0.03111,0.97563,-0.19166,0.0,2023,6,7,15,34,23,379
42.81810,0.09520,-0.00035,0.00000,0.03123,0.97551,-0.19020,0.0,2023,6,7,15,34,23,389
42.81820,-0.02730,0.20965,0.00000,0.03013,0.97551,-0.19117,0.0,2023,6,7,15,34,23,399
42.81830,0.13020,-0.15785,0.00000,0.03160,0.97441,-0.19008,0.0,2023,6,7,15,34,23,409
42.81840,0.07770,-0.14035,0.00000,0.03245,0.97539,-0.18910,0.0,2023,6,7,15,34,23,419
42.81850,-0.07980,-0.01785,0.00000,0.03001,0.97600,-0.18886,0.0,2023,6,7,15,34,23,429
42.81860,-0.06230,-0.24535,0.00000,0.02916,0.97624,-0.18995,0.0,2023,6,7,15,34,23,439
42.81870,0.23520,-0.00035,0.00000,0.03172,0.97490,-0.18788,0.0,2023,6,7,15,34,23,449
42.81880,-0.02730,-0.01785,0.00000,0.02952,0.97710,-0.19203,0.0,2023,6,7,15,34,23,459
42.81890,-0.02730,-0.00035,0.00000,0.03087,0.97624,-0.18812,0.0,2023,6,7,15,34,23,469
42.81900,0.06020,-0.03535,0.00000,0.03111,0.97661,-0.18800,0.0,2023,6,7,15,34,23,479
42.81910,0.20020,-0.17535,0.00000,0.03306,0.97673,-0.18910,0.0,2023,6,7,15,34,23,489
42.81920,0.02520,-0.01785,0.00000,0.03257,0.97612,-0.19142,0.0,2023,6,7,15,34,23,499
42.81930,-0.13230,0.05215,0.00000,0.03099,0.97600,-0.19081,0.0,2023,6,7,15,34,23,509
42.81940,0.02520,-0.12285,0.00000,0.03135,0.97612,-0.18934,0.0,2023,6,7,15,34,23,519
42.81950,0.06020,0.12215,0.00000,0.02989,0.97563,-0.18971,0.0,2023,6,7,15,34,23,529
42.81960,-0.09730,-0.07035,0.00000,0.03221,0.97856,-0.18947,0.0,2023,6,7,15,34,23,539
42.81970,-0.11480,0.06965,0.00000,0.03160,0.97661,-0.18959,0.0,2023,6,7,15,34,23,549
42.81980,0.04270,-0.10535,0.00000,0.03318,0.97917,-0.18934,0.0,2023,6,7,15,34,23,559
42.81990,0.11270,-0.05285,0.00000,0.03087,0.97759,-0.18971,0.0,2023,6,7,15,34,23,569
42.82000,-0.13230,-0.00035,0.00000,0.03160,0.97637,-0.18800,0.0,2023,6,7,15,34,23,579
42.82010,-0.06230,0.08715,0.00000,0.03172,0.97600,-0.19056,0.0,2023,6,7,15,34,23,589
42.82020,0.13020,0.08715,0.00000,0.03196,0.97673,-0.18947,0.0,2023,6,7,15,34,23,599
42.82030,-0.09730,0.01715,0.00000,0.03099,0.97600,-0.18849,0.0,2023,6,7,15,34,23,609
42.82040,0.07770,-0.22785,0.00000,0.03135,0.97661,-0.18971,0.0,2023,6,7,15,34,23,619
42.82050,-0.04480,-0.01785,0.00000,0.03013,0.97795,-0.18983,0.0,2023,6,7,15,34,23,629
42.82060,-0.00980,0.20965,0.00000,0.03404,0.97454,-0.19166,0.0,2023,6,7,15,34,23,639
42.82070,-0.20230,0.15715,0.00000,0.02965,0.97710,-0.18983,0.0,2023,6,7,15,34,23,649
42.82080,-0.00980,0.20965,0.00000,0.03245,0.97795,-0.18983,0.0,2023,6,7,15,34,23,659
42.82090,0.06020,-0.00035,0.00000,0.03221,0.97746,-0.19081,0.0,2023,6,7,15,34,23,669
42.82100,-0.18480,-0.10535,0.00000,0.03245,0.97502,-0.18922,0.0,2023,6,7,15,34,23,679
42.82110,-0.07980,0.03465,0.00000,0.03331,0.97502,-0.19227,0.0,2023,6,7,15,34,23,689
42.82120,-0.20230,-0.01785,0.00000,0.03172,0.97515,-0.18995,0.0,2023,6,7,15,34,23,699
42.82130,0.07770,-0.08785,0.00000,0.03001,0.97624,-0.19081,0.0,2023,6,7,15,34,23,709
42.82140,0.02520,0.19215,0.00000,0.03123,0.97380,-0.19008,0.0,2023,6,7,15,34,23,719
42.82150,0.09520,0.10465,0.00000,0.03440,0.97624,-0.19032,0.0,2023,6,7,15,34,23,729
42.82160,0.02520,0.01715,0.00000,0.03367,0.97637,-0.19093,0.0,2023,6,7,15,34,23,739
42.82170,0.06020,-0.07035,0.00000,0.03172,0.97698,-0.19130,0.0,2023,6,7,15,34,23,749
42.82180,0.11270,-0.12285,0.00000,0.02757,0.97746,-0.18922,0.0,2023,6,7,15,34,23,759
42.82190,-0.07980,0.19215,0.00000,0.03331,0.97612,-0.19069,0.0,2023,6,7,15,34,23,769
42.82200,-0.06230,0.12215,0.00000,0.03172,0.97515,-0.19142,0.0,2023,6,7,15,34,23,779
42.82210,0.13020,0.08715,0.00000,0.03087,0.97563,-0.19105,0.0,2023,6,7,15,34,23,789
42.82220,-0.13230,-0.07035,0.00000,0.03245,0.97673,-0.19056,0.0,2023,6,7,15,34,23,799
42.82230,-0.27230,0.20965,0.00000,0.03209,0.97576,-0.18983,0.0,2023,6,7,15,34,23,809
42.82240,-0.16730,0.15715,0.00000,0.03404,0.97563,-0.18995,0.0,2023,6,7,15,34,23,819
42.82250,0.06020,0.12215,0.00000,0.03026,0.97478,-0.18971,0.0,2023,6,7,15,34,23,829
42.82260,-0.06230,-0.08785,0.00000,0.03282,0.97515,-0.18861,0.0,2023,6,7,15,34,23,839
42.82270,-0.09730,0.29715,0.00000,0.03062,0.97856,-0.19130,0.0,2023,6,7,15,34,23,849
42.82280,0.06020,0.03465,0.00000,0.03209,0.97576,-0.19227,0.0,2023,6,7,15,34,23,859
42.82290,-0.11480,0.20965,0.00000,0.03184,0.97563,-0.19044,0.0,2023,6,7,15,34,23,869
42.82300,0.00770,0.05215,0.00000,0.03331,0.97502,-0.19239,0.0,2023,6,7,15,34,23,879
42.82310,-0.02730,-0.00035,0.00000,0.03123,0.97612,-0.18971,0.0,2023,6,7,15,34,23,889
42.82320,-0.06230,-0.12285,0.00000,0.03148,0.97746,-0.18959,0.0,2023,6,7,15,34,23,899
42.82330,0.14770,-0.26285,0.00000,0.03440,0.97454,-0.19264,0.0,2023,6,7,15,34,23,909
42.82340,0.00770,0.03465,0.00000,0.03233,0.97746,-0.19093,0.0,2023,6,7,15,34,23,919
42.82350,0.07770,-0.21035,0.00000,0.02965,0.97722,-0.18886,0.0,2023,6,7,15,34,23,929
42.82360,0.14770,-0.07035,0.00000,0.02891,0.97551,-0.19105,0.0,2023,6,7,15,34,23,939
42.82370,-0.06230,-0.17535,0.00000,0.02952,0.97539,-0.18995,0.0,2023,6,7,15,34,23,949
42.82380,-0.00980,-0.05285,0.00000,0.03184,0.97624,-0.18861,0.0,2023,6,7,15,34,23,959
42.82390,-0.02730,-0.05285,0.00000,0.03257,0.97588,-0.18947,0.0,2023,6,7,15,34,23,969
42.82400,0.20020,-0.03535,0.00000,0.03050,0.97380,-0.18776,0.0,2023,6,7,15,34,23,979
42.82410,0.16520,0.15715,0.00000,0.03477,0.97637,-0.19154,0.0,2023,6,7,15,34,23,989
42.82420,0.11270,0.03465,0.00000,0.03160,0.97624,-0.18776,0.0,2023,6,7,15,34,23,999
42.82430,0.07770,-0.03535,0.00000,0.03160,0.97624,-0.18800,0.0,2023,6,7,15,34,23,9
42.82440,-0.06230,0.12215,0.00000,0.03160,0.97319,-0.19008,0.0,2023,6,7,15,34,23,19
42.82450,0.02520,-0.00035,0.00000,0.02904,0.97405,-0.19069,0.0,2023,6,7,15,34,23,29
42.82460,-0.13230,0.15715,0.00000,0.02818,0.97624,-0.18886,0.0,2023,6,7,15,34,23,39
42.82470,-0.02730,0.08715,0.00000,0.03270,0.97722,-0.19215,0.0,2023,6,7,15,34,23,49
42.82480,0.16520,-0.01785,0.00000,0.03123,0.97539,-0.19093,0.0,2023,6,7,15,34,23,59
42.82490,-0.02730,-0.03535,0.00000,0.03001,0.97612,-0.18800,0.0,2023,6,7,15,34,23,69
42.82500,-0.13230,0.26215,0.00000,0.03062,0.97441,-0.19069,0.0,2023,6,7,15,34,23,79
42.82510,-0.02730,0.03465,0.00000,0.03343,0.97551,-0.19166,0.0,2023,6,7,15,34,24,89
42.82520,-0.04480,0.06965,0.00000,0.03221,0.97893,-0.19117,0.0,2023,6,7,15,34,24,99
42.82530,-0.14980,0.03465,0.00000,0.03172,0.97722,-0.19325,0.0,2023,6,7,15,34,24,109
42.82540,0.16520,0.08715,0.00000,0.03306,0.97649,-0.18873,0.0,2023,6,7,15,34,24,119
42.82550,-0.00980,0.05215,0.00000,0.03074,0.97771,-0.19239,0.0,2023,6,7,15,34,24,129
42.82560,-0.00980,-0.03535,0.00000,0.03087,0.97356,-0.19093,0.0,2023,6,7,15,34,24,139
42.82570,0.04270,-0.10535,0.00000,0.03196,0.97563,-0.18947,0.0,2023,6,7,15,34,24,149
42.82580,-0.02730,-0.03535,0.00000,0.03233,0.97820,-0.18837,0.0,2023,6,7,15,34,24,159
42.82590,-0.07980,-0.21035,0.00000,0.03135,0.97795,-0.19130,0.0,2023,6,7,15,34,24,169
42.82600,-0.25480,-0.00035,0.00000,0.03196,0.97527,-0.18995,0.0,2023,6,7,15,34,24,179
42.82610,-0.04480,0.17465,0.00000,0.03099,0.97502,-0.19154,0.0,2023,6,7,15,34,24,189
42.82620,-0.07980,-0.08785,0.00000,0.03172,0.97649,-0.19044,0.0,2023,6,7,15,34,24,199
42.82630,-0.27230,0.24465,0.00000,0.02928,0.97600,-0.18934,0.0,2023,6,7,15,34,24,209
42.82640,-0.09730,0.10465,0.00000,0.03074,0.97380,-0.19227,0.0,2023,6,7,15,34,24,219
42.82650,0.02520,0.03465,0.00000,0.03318,0.97466,-0.19081,0.0,2023,6,7,15,34,24,229
42.82660,0.00770,0.10465,0.00000,0.03343,0.97649,-0.18959,0.0,2023,6,7,15,34,24,239
42.82670,-0.11480,0.08715,0.00000,0.03416,0.97734,-0.18971,0.0,2023,6,7,15,34,24,249
42.82680,0.13020,-0.15785,0.00000,0.03196,0.97612,-0.19227,0.0,2023,6,7,15,34,24,259
42.82690,0.02520,-0.07035,0.00000,0.02952,0.97661,-0.18947,0.0,2023,6,7,15,34,24,269
42.82700,-0.21980,-0.08785,0.00000,0.03172,0.97820,-0.19081,0.0,2023,6,7,15,34,24,279
42.82710,-0.00980,0.01715,0.00000,0.03074,0.97649,-0.19056,0.0,2023,6,7,15,34,24,289
42.82720,-0.00980,-0.07035,0.00000,0.03233,0.97600,-0.18947,0.0,2023,6,7,15,34,24,299
42.82730,-0.06230,-0.05285,0.00000,0.03270,0.97698,-0.18837,0.0,2023,6,7,15,34,24,309
42.82740,-0.09730,-0.07035,0.00000,0.03245,0.97332,-0.18898,0.0,2023,6,7,15,34,24,319
42.82750,-0.06230,0.08715,0.00000,0.03135,0.97868,-0.19020,0.0,2023,6,7,15,34,24,329
42.82760,-0.11480,0.01715,0.00000,0.03257,0.97685,-0.18995,0.0,2023,6,7,15,34,24,339
42.82770,-0.04480,-0.03535,0.00000,0.03209,0.97685,-0.19215,0.0,2023,6,7,15,34,24,349
42.82780,0.16520,-0.21035,0.00000,0.03221,0.97673,-0.18873,0.0,2023,6,7,15,34,24,359
42.82790,0.06020,0.06965,0.00000,0.02940,0.97783,-0.19032,0.0,2023,6,7,15,34,24,369
42.82800,0.07770,0.06965,0.00000,0.03087,0.97441,-0.19032,0.0,2023,6,7,15,34,24,379
42.82810,-0.06230,-0.07035,0.00000,0.03453,0.97612,-0.18983,0.0,2023,6,7,15,34,24,389
42.82820,-0.20230,0.05215,0.00000,0.03270,0.97649,-0.19081,0.0,2023,6,7,15,34,24,399
42.82830,-0.04480,-0.03535,0.00000,0.03001,0.97746,-0.18898,0.0,2023,6,7,15,34,24,409
42.82840,-0.13230,-0.10535,0.00000,0.03111,0.97734,-0.19056,0.0,2023,6,7,15,34,24,419
42.82850,0.14770,0.05215,0.00000,0.02965,0.97746,-0.18886,0.0,2023,6,7,15,34,24,429
42.82860,0.11270,-0.01785,0.00000,0.03148,0.97820,-0.19056,0.0,2023,6,7,15,34,24,439
42.82870,-0.00980,-0.05285,0.00000,0.03123,0.97820,-0.18971,0.0,2023,6,7,15,34,24,449
42.82880,-0.06230,0.03465,0.00000,0.03160,0.97807,-0.19105,0.0,2023,6,7,15,34,24,459
42.82890,-0.00980,0.03465,0.00000,0.03245,0.97466,-0.18544,0.0,2023,6,7,15,34,24,469
42.82900,-0.11480,-0.14035,0.00000,0.03416,0.97612,-0.18849,0.0,2023,6,7,15,34,24,479
42.82910,0.00770,0.19215,0.00000,0.03428,0.97600,-0.18959,0.0,2023,6,7,15,34,24,489
42.82920,0.00770,0.05215,0.00000,0.02977,0.97856,-0.18837,0.0,2023,6,7,15,34,24,499
42.82930,-0.21980,0.03465,0.00000,0.03026,0.97978,-0.19203,0.0,2023,6,7,15,34,24,509
42.82940,-0.07980,0.08715,0.00000,0.03184,0.97454,-0.18934,0.0,2023,6,7,15,34,24,519
42.82950,-0.14980,0.13965,0.00000,0.02965,0.97722,-0.18666,0.0,2023,6,7,15,34,24,529
42.82960,0.02520,-0.07035,0.00000,0.03233,0.97746,-0.19142,0.0,2023,6,7,15,34,24,539
42.82970,0.20020,-0.15785,0.00000,0.03282,0.97722,-0.18971,0.0,2023,6,7,15,34,24,549
42.82980,0.02520,0.13965,0.00000,0.03013,0.97856,-0.18837,0.0,2023,6,7,15,34,24,559
42.82990,0.00770,0.03465,0.00000,0.03440,0.97698,-0.18690,0.0,2023,6,7,15,34,24,569
42.83000,-0.04480,0.06965,0.00000,0.03001,0.97405,-0.18849,0.0,2023,6,7,15,34,24,579
42.83010,0.09520,-0.08785,0.00000,0.03038,0.97746,-0.18886,0.0,2023,6,7,15,34,24,589
42.83020,-0.11480,-0.07035,0.00000,0.03209,0.97405,-0.18556,0.0,2023,6,7,15,34,24,599
42.83030,0.09520,-0.21035,0.00000,0.03135,0.97637,-0.18837,0.0,2023,6,7,15,34,24,609
42.83040,0.06020,-0.21035,0.00000,0.03184,0.97759,-0.18910,0.0,2023,6,7,15,34,24,619
42.83050,0.07770,-0.03535,0.00000,0.03160,0.97466,-0.18776,0.0,2023,6,7,15,34,24,629
42.83060,0.09520,-0.03535,0.00000,0.03111,0.97624,-0.18886,0.0,2023,6,7,15,34,24,639
42.83070,-0.00980,-0.00035,0.00000,0.03135,0.97478,-0.18898,0.0,2023,6,7,15,34,24,649
42.83080,-0.02730,-0.03535,0.00000,0.03172,0.97454,-0.19032,0.0,2023,6,7,15,34,24,659
42.83090,-0.18480,0.26215,0.00000,0.03209,0.97685,-0.18788,0.0,2023,6,7,15,34,24,669
42.83100,0.14770,-0.08785,0.00000,0.03453,0.97539,-0.18898,0.0,2023,6,7,15,34,24,679
42.83110,-0.04480,-0.07035,0.00000,0.03135,0.97722,-0.18654,0.0,2023,6,7,15,34,24,689
42.83120,0.04270,-0.08785,0.00000,0.03184,0.97771,-0.18922,0.0,2023,6,7,15,34,24,699
42.83130,0.09520,-0.00035,0.00000,0.03257,0.97502,-0.19069,0.0,2023,6,7,15,34,24,709
42.83140,-0.06230,-0.05285,0.00000,0.03026,0.97612,-0.18910,0.0,2023,6,7,15,34,24,719
42.83150,-0.00980,-0.05285,0.00000,0.03331,0.97588,-0.18690,0.0,2023,6,7,15,34,24,729
42.83160,-0.11480,0.05215,0.00000,0.03221,0.97624,-0.18812,0.0,2023,6,7,15,34,24,739
42.83170,-0.11480,-0.07035,0.00000,0.03233,0.98015,-0.18959,0.0,2023,6,7,15,34,24,749
42.83180,0.16520,-0.14035,0.00000,0.03074,0.97661,-0.18776,0.0,2023,6,7,15,34,24,759
42.83190,0.13020,0.12215,0.00000,0.03221,0.97551,-0.18812,0.0,2023,6,7,15,34,24,769
42.83200,-0.09730,0.05215,0.00000,0.02965,0.97673,-0.18764,0.0,2023,6,7,15,34,24,779
42.83210,-0.13230,0.03465,0.00000,0.03050,0.97539,-0.18849,0.0,2023,6,7,15,34,24,789
42.83220,0.04270,-0.03535,0.00000,0.03294,0.97649,-0.18751,0.0,2023,6,7,15,34,24,799
42.83230,0.06020,-0.00035,0.00000,0.03282,0.97405,-0.18751,0.0,2023,6,7,15,34,24,809
42.83240,0.02520,-0.03535,0.00000,0.03184,0.97307,-0.18934,0.0,2023,6,7,15,34,24,819
42.83250,-0.04480,-0.03535,0.00000,0.03026,0.97942,-0.18739,0.0,2023,6,7,15,34,24,829
42.83260,0.06020,-0.21035,0.00000,0.02891,0.97612,-0.18995,0.0,2023,6,7,15,34,24,839
42.83270,0.11270,-0.15785,0.00000,0.03099,0.97710,-0.18886,0.0,2023,6,7,15,34,24,849
42.83280,0.00770,0.05215,0.00000,0.03026,0.97417,-0.18959,0.0,2023,6,7,15,34,24,859
42.83290,-0.04480,0.08715,0.00000,0.03038,0.97624,-0.18947,0.0,2023,6,7,15,34,24,869
42.83300,-0.09730,-0.15785,0.00000,0.03184,0.97515,-0.18934,0.0,2023,6,7,15,34,24,879
42.83310,-0.00980,0.15715,0.00000,0.03123,0.97624,-0.18568,0.0,2023,6,7,15,34,24,889
42.83320,0.34020,0.15715,0.00000,0.03099,0.97722,-0.18934,0.0,2023,6,7,15,34,24,899
42.83330,-0.11480,-0.07035,0.00000,0.03038,0.97600,-0.19069,0.0,2023,6,7,15,34,24,909
42.83340,0.14770,0.05215,0.00000,0.02879,0.97490,-0.18910,0.0,2023,6,7,15,34,24,919
42.83350,-0.07980,0.17465,0.00000,0.03270,0.97454,-0.19081,0.0,2023,6,7,15,34,24,929
42.83360,0.02520,0.01715,0.00000,0.03123,0.97600,-0.18995,0.0,2023,6,7,15,34,24,939
42.83370,-0.07980,0.15715,0.00000,0.03331,0.97710,-0.18825,0.0,2023,6,7,15,34,24,949
42.83380,-0.09730,-0.07035,0.00000,0.03257,0.97759,-0.18690,0.0,2023,6,7,15,34,24,959
42.83390,-0.20230,-0.12285,0.00000,0.03404,0.97539,-0.18825,0.0,2023,6,7,15,34,24,969
42.83400,0.21770,-0.21035,0.00000,0.03062,0.97295,-0.18837,0.0,2023,6,7,15,34,24,979
42.83410,0.06020,0.13965,0.00000,0.03062,0.97661,-0.18947,0.0,2023,6,7,15,34,25,989
42.83420,0.00770,0.22715,0.00000,0.03050,0.97746,-0.18678,0.0,2023,6,7,15,34,25,999
42.83430,-0.04480,-0.19285,0.00000,0.03184,0.97734,-0.19008,0.0,2023,6,7,15,34,25,9
42.83440,-0.27230,0.20965,0.00000,0.03233,0.97612,-0.18642,0.0,2023,6,7,15,34,25,19
42.83450,0.09520,0.08715,0.00000,0.02977,0.97612,-0.18886,0.0,2023,6,7,15,34,25,29
42.83460,-0.04480,0.03465,0.00000,0.03099,0.97600,-0.18642,0.0,2023,6,7,15,34,25,39
42.83470,-0.09730,0.06965,0.00000,0.03148,0.97771,-0.18690,0.0,2023,6,7,15,34,25,49
42.83480,-0.04480,-0.14035,0.00000,0.03038,0.97685,-0.18800,0.0,2023,6,7,15,34,25,59
42.83490,0.00770,-0.01785,0.00000,0.03074,0.97490,-0.18922,0.0,2023,6,7,15,34,25,69
42.83500,0.04270,-0.24535,0.00000,0.03233,0.97771,-0.18715,0.0,2023,6,7,15,34,25,79
42.83510,0.11270,-0.05285,0.00000,0.03379,0.97807,-0.18727,0.0,2023,6,7,15,34,25,89
42.83520,-0.07980,-0.05285,0.00000,0.03099,0.97637,-0.18922,0.0,2023,6,7,15,34,25,99
42.83530,0.16520,0.13965,0.00000,0.03257,0.97771,-0.18727,0.0,2023,6,7,15,34,25,109
42.83540,-0.07980,-0.07035,0.00000,0.03282,0.97710,-0.18934,0.0,2023,6,7,15,34,25,119
42.83550,-0.21980,0.03465,0.00000,0.03111,0.97661,-0.18873,0.0,2023,6,7,15,34,25,129
42.83560,0.07770,0.10465,0.00000,0.03038,0.97795,-0.18776,0.0,2023,6,7,15,34,25,139
42.83570,0.02520,0.05215,0.00000,0.03257,0.97661,-0.18703,0.0,2023,6,7,15,34,25,149
42.83580,-0.06230,-0.14035,0.00000,0.03233,0.97893,-0.18568,0.0,2023,6,7,15,34,25,159
42.83590,-0.07980,0.27965,0.00000,0.03245,0.97527,-0.18910,0.0,2023,6,7,15,34,25,169
42.83600,0.04270,0.05215,0.00000,0.03123,0.97600,-0.18776,0.0,2023,6,7,15,34,25,179
42.83610,0.09520,-0.24535,0.00000,0.03087,0.97612,-0.18947,0.0,2023,6,7,15,34,25,189
42.83620,0.16520,0.03465,0.00000,0.03257,0.97844,-0.18605,0.0,2023,6,7,15,34,25,199
42.83630,0.18270,-0.00035,0.00000,0.03379,0.97441,-0.18934,0.0,2023,6,7,15,34,25,209
42.83640,-0.07980,0.12215,0.00000,0.03209,0.97539,-0.18934,0.0,2023,6,7,15,34,25,219
42.83650,-0.02730,0.10465,0.00000,0.03123,0.97637,-0.18507,0.0,2023,6,7,15,34,25,229
42.83660,-0.04480,-0.08785,0.00000,0.03062,0.97661,-0.18788,0.0,2023,6,7,15,34,25,239
42.83670,0.27020,-0.15785,0.00000,0.03038,0.97612,-0.18825,0.0,2023,6,7,15,34,25,249
42.83680,0.00770,0.06965,0.00000,0.02965,0.97576,-0.18751,0.0,2023,6,7,15,34,25,259
42.83690,-0.25480,0.13965,0.00000,0.03245,0.97393,-0.18934,0.0,2023,6,7,15,34,25,269
42.83700,-0.14980,-0.05285,0.00000,0.03099,0.97661,-0.18776,0.0,2023,6,7,15,34,25,279
42.83710,0.06020,0.17465,0.00000,0.03026,0.97966,-0.18751,0.0,2023,6,7,15,34,25,289
42.83720,0.02520,-0.05285,0.00000,0.03148,0.97771,-0.18898,0.0,2023,6,7,15,34,25,299
42.83730,-0.14980,0.10465,0.00000,0.03087,0.97722,-0.19032,0.0,2023,6,7,15,34,25,309
42.83740,-0.00980,0.12215,0.00000,0.03233,0.97527,-0.18690,0.0,2023,6,7,15,34,25,319
42.83750,0.04270,0.15715,0.00000,0.03172,0.97710,-0.18764,0.0,2023,6,7,15,34,25,329
42.83760,0.06020,-0.05285,0.00000,0.03099,0.97466,-0.18690,0.0,2023,6,7,15,34,25,339
42.83770,-0.04480,-0.01785,0.00000,0.03209,0.97454,-0.19044,0.0,2023,6,7,15,34,25,349
42.83780,-0.09730,-0.05285,0.00000,0.03367,0.97807,-0.18703,0.0,2023,6,7,15,34,25,359
42.83790,-0.18480,0.12215,0.00000,0.03172,0.97502,-0.18690,0.0,2023,6,7,15,34,25,369
42.83800,0.21770,0.01715,0.00000,0.03074,0.97332,-0.18715,0.0,2023,6,7,15,34,25,379
42.83810,0.11270,-0.01785,0.00000,0.02977,0.97722,-0.18861,0.0,2023,6,7,15,34,25,389
42.83820,0.00770,0.12215,0.00000,0.03160,0.97502,-0.18983,0.0,2023,6,7,15,34,25,399
42.83830,0.14770,-0.01785,0.00000,0.03221,0.97441,-0.18886,0.0,2023,6,7,15,34,25,409
42.83840,-0.11480,-0.10535,0.00000,0.03148,0.97917,-0.18861,0.0,2023,6,7,15,34,25,419
42.83850,-0.02730,0.01715,0.00000,0.03135,0.97698,-0.18642,0.0,2023,6,7,15,34,25,429
42.83860,-0.14980,-0.08785,0.00000,0.03135,0.97539,-0.18837,0.0,2023,6,7,15,34,25,439
42.83870,-0.16730,0.06965,0.00000,0.03270,0.97685,-0.19203,0.0,2023,6,7,15,34,25,449
42.83880,-0.02730,-0.17535,0.00000,0.03184,0.97746,-0.18812,0.0,2023,6,7,15,34,25,459
42.83890,-0.09730,0.10465,0.00000,0.03062,0.97551,-0.18800,0.0,2023,6,7,15,34,25,469
42.83900,-0.00980,-0.00035,0.00000,0.03001,0.97868,-0.18812,0.0,2023,6,7,15,34,25,479
42.83910,-0.16730,-0.07035,0.00000,0.03099,0.97612,-0.18837,0.0,2023,6,7,15,34,25,489
42.83920,-0.09730,-0.10535,0.00000,0.03099,0.97624,-0.18873,0.0,2023,6,7,15,34,25,499
42.83930,0.00770,-0.15785,0.00000,0.02965,0.97649,-0.18568,0.0,2023,6,7,15,34,25,509
42.83940,0.07770,0.01715,0.00000,0.03245,0.97539,-0.18788,0.0,2023,6,7,15,34,25,519
42.83950,0.21770,-0.43785,0.00000,0.03050,0.97356,-0.18800,0.0,2023,6,7,15,34,25,529
42.83960,0.00770,-0.01785,0.00000,0.03062,0.97466,-0.18715,0.0,2023,6,7,15,34,25,539
42.83970,0.02520,-0.28035,0.00000,0.03440,0.97612,-0.19044,0.0,2023,6,7,15,34,25,549
42.83980,-0.00980,-0.10535,0.00000,0.03148,0.97734,-0.18825,0.0,2023,6,7,15,34,25,559
42.83990,0.04270,-0.03535,0.00000,0.03148,0.97746,-0.18873,0.0,2023,6,7,15,34,25,569
42.84000,0.18270,-0.05285,0.00000,0.03343,0.97441,-0.18934,0.0,2023,6,7,15,34,25,579
42.84010,-0.09730,0.12215,0.00000,0.03123,0.97917,-0.18703,0.0,2023,6,7,15,34,25,589
42.84020,0.00770,-0.05285,0.00000,0.03196,0.97759,-0.18886,0.0,2023,6,7,15,34,25,599
42.84030,-0.06230,0.08715,0.00000,0.03453,0.97478,-0.18995,0.0,2023,6,7,15,34,25,609
42.84040,-0.20230,0.17465,0.00000,0.03355,0.97893,-0.18873,0.0,2023,6,7,15,34,25,619
42.84050,-0.14980,0.12215,0.00000,0.03013,0.97710,-0.19008,0.0,2023,6,7,15,34,25,629
42.84060,-0.23730,-0.05285,0.00000,0.02940,0.97502,-0.18812,0.0,2023,6,7,15,34,25,639
42.84070,-0.07980,-0.10535,0.00000,0.03111,0.97502,-0.18898,0.0,2023,6,7,15,34,25,649
42.84080,0.11270,-0.22785,0.00000,0.03172,0.97795,-0.18764,0.0,2023,6,7,15,34,25,659
42.84090,-0.16730,-0.14035,0.00000,0.03050,0.97588,-0.18922,0.0,2023,6,7,15,34,25,669
42.84100,-0.28980,0.06965,0.00000,0.03282,0.97539,-0.18776,0.0,2023,6,7,15,34,25,679
42.84110,-0.09730,0.10465,0.00000,0.02928,0.97588,-0.18849,0.0,2023,6,7,15,34,25,689
42.84120,-0.02730,-0.22785,0.00000,0.03172,0.97710,-0.18776,0.0,2023,6,7,15,34,25,699
42.84130,-0.04480,-0.03535,0.00000,0.03111,0.97295,-0.18715,0.0,2023,6,7,15,34,25,709
42.84140,0.20020,-0.00035,0.00000,0.03233,0.97893,-0.19178,0.0,2023,6,7,15,34,25,719
42.84150,-0.02730,-0.05285,0.00000,0.03184,0.97917,-0.18898,0.0,2023,6,7,15,34,25,729
42.84160,0.00770,-0.14035,0.00000,0.03233,0.97637,-0.18922,0.0,2023,6,7,15,34,25,739
42.84170,0.02520,0.12215,0.00000,0.03111,0.97673,-0.19008,0.0,2023,6,7,15,34,25,749
42.84180,-0.18480,-0.00035,0.00000,0.02916,0.97576,-0.19008,0.0,2023,6,7,15,34,25,759
42.84190,-0.06230,-0.05285,0.00000,0.03160,0.97380,-0.18629,0.0,2023,6,7,15,34,25,769
42.84200,0.20020,-0.29785,0.00000,0.03282,0.97722,-0.19093,0.0,2023,6,7,15,34,25,779
42.84210,0.14770,-0.21035,0.00000,0.03074,0.97490,-0.18922,0.0,2023,6,7,15,34,25,789
42.84220,-0.06230,0.01715,0.00000,0.03148,0.97661,-0.18703,0.0,2023,6,7,15,34,25,799
42.84230,-0.11480,0.01715,0.00000,0.03160,0.97990,-0.18947,0.0,2023,6,7,15,34,25,809
42.84240,-0.02730,0.05215,0.00000,0.03282,0.97612,-0.18898,0.0,2023,6,7,15,34,25,819
42.84250,0.14770,-0.15785,0.00000,0.03184,0.97673,-0.18995,0.0,2023,6,7,15,34,25,829
42.84260,0.09520,-0.03535,0.00000,0.03123,0.97490,-0.18788,0.0,2023,6,7,15,34,25,839
42.84270,0.14770,-0.00035,0.00000,0.02806,0.97685,-0.18812,0.0,2023,6,7,15,34,25,849
42.84280,0.00770,0.01715,0.00000,0.03257,0.97685,-0.18861,0.0,2023,6,7,15,34,25,859
42.84290,0.20020,-0.14035,0.00000,0.03123,0.97698,-0.18739,0.0,2023,6,7,15,34,25,869
42.84300,0.11270,0.01715,0.00000,0.03318,0.97795,-0.18715,0.0,2023,6,7,15,34,26,879
42.84310,0.09520,-0.01785,0.00000,0.03184,0.97771,-0.18898,0.0,2023,6,7,15,34,26,889
42.84320,0.04270,0.17465,0.00000,0.03135,0.97551,-0.18947,0.0,2023,6,7,15,34,26,899
42.84330,-0.04480,-0.24535,0.00000,0.03196,0.97368,-0.18825,0.0,2023,6,7,15,34,26,909
42.84340,0.04270,-0.01785,0.00000,0.03184,0.97710,-0.18995,0.0,2023,6,7,15,34,26,919
42.84350,-0.13230,0.08715,0.00000,0.03209,0.97832,-0.18788,0.0,2023,6,7,15,34,26,929
42.84360,-0.00980,0.13965,0.00000,0.03209,0.97502,-0.18922,0.0,2023,6,7,15,34,26,939
42.84370,-0.02730,-0.19285,0.00000,0.03209,0.97637,-0.18800,0.0,2023,6,7,15,34,26,949
42.84380,-0.07980,0.06965,0.00000,0.03074,0.97783,-0.19032,0.0,2023,6,7,15,34,26,959
42.84390,-0.20230,-0.21035,0.00000,0.03135,0.97502,-0.18861,0.0,2023,6,7,15,34,26,969
42.84400,-0.27230,0.19215,0.00000,0.03160,0.97759,-0.18959,0.0,2023,6,7,15,34,26,979
42.84410,-0.20230,0.03465,0.00000,0.03257,0.97502,-0.18788,0.0,2023,6,7,15,34,26,989
42.84420,0.02520,-0.01785,0.00000,0.03294,0.97783,-0.18678,0.0,2023,6,7,15,34,26,999
42.84430,-0.07980,0.10465,0.00000,0.03306,0.97612,-0.18812,0.0,2023,6,7,15,34,26,9
42.84440,-0.02730,0.08715,0.00000,0.03196,0.97478,-0.18849,0.0,2023,6,7,15,34,26,19
42.84450,-0.07980,-0.01785,0.00000,0.03026,0.97624,-0.18776,0.0,2023,6,7,15,34,26,29
42.84460,-0.11480,0.10465,0.00000,0.03050,0.97271,-0.18995,0.0,2023,6,7,15,34,26,39
42.84470,-0.09730,0.06965,0.00000,0.03001,0.97649,-0.18825,0.0,2023,6,7,15,34,26,49
42.84480,0.07770,0.01715,0.00000,0.03062,0.97820,-0.18910,0.0,2023,6,7,15,34,26,59
42.84490,-0.02730,0.15715,0.00000,0.03196,0.97551,-0.18727,0.0,2023,6,7,15,34,26,69
42.84500,0.18270,-0.14035,0.00000,0.03172,0.97515,-0.18873,0.0,2023,6,7,15,34,26,79
42.84510,0.21770,0.03465,0.00000,0.03196,0.97722,-0.19069,0.0,2023,6,7,15,34,26,89
42.84520,0.09520,0.15715,0.00000,0.03099,0.97454,-0.18654,0.0,2023,6,7,15,34,26,99
42.84530,0.02520,0.26215,0.00000,0.03392,0.97563,-0.18849,0.0,2023,6,7,15,34,26,109
42.84540,0.00770,0.08715,0.00000,0.03148,0.97551,-0.18849,0.0,2023,6,7,15,34,26,119
42.84550,-0.07980,-0.01785,0.00000,0.03050,0.97515,-0.18788,0.0,2023,6,7,15,34,26,129
42.84560,-0.06230,-0.10535,0.00000,0.03074,0.97795,-0.19044,0.0,2023,6,7,15,34,26,139
42.84570,-0.04480,0.12215,0.00000,0.03099,0.97576,-0.18995,0.0,2023,6,7,15,34,26,149
42.84580,0.04270,-0.12285,0.00000,0.03099,0.97722,-0.18959,0.0,2023,6,7,15,34,26,159
42.84590,-0.02730,-0.03535,0.00000,0.03111,0.97551,-0.18971,0.0,2023,6,7,15,34,26,169
42.84600,-0.00980,0.13965,0.00000,0.03160,0.97612,-0.19020,0.0,2023,6,7,15,34,26,179
42.84610,-0.13230,0.05215,0.00000,0.03099,0.97746,-0.18959,0.0,2023,6,7,15,34,26,189
42.84620,0.07770,0.05215,0.00000,0.02928,0.97807,-0.18849,0.0,2023,6,7,15,34,26,199
42.84630,-0.09730,-0.01785,0.00000,0.03111,0.97734,-0.18873,0.0,2023,6,7,15,34,26,209
42.84640,-0.04480,0.08715,0.00000,0.03282,0.97551,-0.19044,0.0,2023,6,7,15,34,26,219
42.84650,-0.18480,0.12215,0.00000,0.03367,0.97698,-0.18922,0.0,2023,6,7,15,34,26,229
42.84660,0.04270,-0.28035,0.00000,0.03221,0.97661,-0.18849,0.0,2023,6,7,15,34,26,239
42.84670,-0.02730,0.05215,0.00000,0.03013,0.97868,-0.18837,0.0,2023,6,7,15,34,26,249
42.84680,-0.20230,0.19215,0.00000,0.03135,0.97490,-0.18922,0.0,2023,6,7,15,34,26,259
42.84690,-0.06230,-0.08785,0.00000,0.03270,0.97637,-0.18849,0.0,2023,6,7,15,34,26,269
42.84700,-0.11480,0.08715,0.00000,0.03013,0.97295,-0.18788,0.0,2023,6,7,15,34,26,279
42.84710,-0.13230,-0.03535,0.00000,0.03123,0.97588,-0.18898,0.0,2023,6,7,15,34,26,289
42.84720,-0.04480,0.12215,0.00000,0.03038,0.97612,-0.19056,0.0,2023,6,7,15,34,26,299
42.84730,0.09520,0.08715,0.00000,0.03294,0.97661,-0.18873,0.0,2023,6,7,15,34,26,309
42.84740,-0.04480,-0.12285,0.00000,0.03343,0.97661,-0.18886,0.0,2023,6,7,15,34,26,319
42.84750,0.02520,0.03465,0.00000,0.03148,0.97563,-0.18812,0.0,2023,6,7,15,34,26,329
42.84760,-0.25480,0.08715,0.00000,0.03001,0.97515,-0.18922,0.0,2023,6,7,15,34,26,339
42.84770,-0.09730,0.15715,0.00000,0.03062,0.97502,-0.18812,0.0,2023,6,7,15,34,26,349
42.84780,0.14770,-0.12285,0.00000,0.03111,0.97600,-0.18886,0.0,2023,6,7,15,34,26,359
42.84790,0.13020,-0.22785,0.00000,0.03257,0.97539,-0.18959,0.0,2023,6,7,15,34,26,369
42.84800,0.04270,-0.01785,0.00000,0.02965,0.97685,-0.19069,0.0,2023,6,7,15,34,26,379
42.84810,0.04270,-0.00035,0.00000,0.03196,0.97405,-0.18983,0.0,2023,6,7,15,34,26,389
42.84820,0.00770,-0.03535,0.00000,0.03245,0.97673,-0.18690,0.0,2023,6,7,15,34,26,399
42.84830,0.09520,0.05215,0.00000,0.03184,0.97576,-0.18886,0.0,2023,6,7,15,34,26,409
42.84840,0.02520,0.13965,0.00000,0.03233,0.97612,-0.19117,0.0,2023,6,7,15,34,26,419
42.84850,0.09520,0.03465,0.00000,0.03135,0.97502,-0.18825,0.0,2023,6,7,15,34,26,429
42.84860,-0.07980,0.15715,0.00000,0.03050,0.97624,-0.18715,0.0,2023,6,7,15,34,26,439
42.84870,-0.13230,0.03465,0.00000,0.03050,0.97490,-0.18776,0.0,2023,6,7,15,34,26,449
42.84880,0.18270,-0.22785,0.00000,0.03087,0.97795,-0.18800,0.0,2023,6,7,15,34,26,459
42.84890,0.09520,-0.12285,0.00000,0.03160,0.97710,-0.18873,0.0,2023,6,7,15,34,26,469
42.84900,-0.13230,-0.03535,0.00000,0.03160,0.97649,-0.18934,0.0,2023,6,7,15,34,26,479
42.84910,0.09520,0.01715,0.00000,0.03026,0.97673,-0.18886,0.0,2023,6,7,15,34,26,489
42.84920,0.04270,-0.03535,0.00000,0.02977,0.97710,-0.18886,0.0,2023,6,7,15,34,26,499
42.84930,-0.07980,0.08715,0.00000,0.03038,0.97746,-0.18910,0.0,2023,6,7,15,34,26,509
42.84940,0.07770,0.05215,0.00000,0.03148,0.97710,-0.18788,0.0,2023,6,7,15,34,26,519
42.84950,0.00770,0.05215,0.00000,0.03196,0.97661,-0.18849,0.0,2023,6,7,15,34,26,529
42.84960,-0.04480,0.01715,0.00000,0.03184,0.97417,-0.18995,0.0,2023,6,7,15,34,26,539
42.84970,0.11270,-0.00035,0.00000,0.03209,0.97637,-0.18703,0.0,2023,6,7,15,34,26,549
42.84980,-0.07980,-0.01785,0.00000,0.02952,0.97771,-0.18727,0.0,2023,6,7,15,34,26,559
42.84990,-0.06230,0.19215,0.00000,0.03026,0.97771,-0.18690,0.0,2023,6,7,15,34,26,569
42.85000,-0.04480,-0.14035,0.00000,0.03221,0.97600,-0.18654,0.0,2023,6,7,15,34,26,579
42.85010,-0.16730,0.01715,0.00000,0.03209,0.97746,-0.18947,0.0,2023,6,7,15,34,26,589
42.85020,0.04270,-0.03535,0.00000,0.03111,0.97612,-0.18739,0.0,2023,6,7,15,34,26,599
42.85030,0.00770,-0.03535,0.00000,0.03099,0.97844,-0.18800,0.0,2023,6,7,15,34,26,609
42.85040,0.16520,0.13965,0.00000,0.03184,0.97893,-0.18886,0.0,2023,6,7,15,34,26,619
42.85050,0.13020,-0.08785,0.00000,0.03172,0.97612,-0.18800,0.0,2023,6,7,15,34,26,629
42.85060,0.00770,0.13965,0.00000,0.02794,0.97576,-0.18751,0.0,2023,6,7,15,34,26,639
42.85070,0.00770,-0.03535,0.00000,0.02904,0.97612,-0.18812,0.0,2023,6,7,15,34,26,649
42.85080,0.06020,-0.05285,0.00000,0.03221,0.97527,-0.19044,0.0,2023,6,7,15,34,26,659
42.85090,0.00770,0.20965,0.00000,0.03026,0.97441,-0.18788,0.0,2023,6,7,15,34,26,669
42.85100,0.07770,0.22715,0.00000,0.03135,0.97563,-0.18751,0.0,2023,6,7,15,34,26,679
42.85110,-0.00980,0.17465,0.00000,0.03135,0.97637,-0.18751,0.0,2023,6,7,15,34,26,689
42.85120,-0.14980,-0.05285,0.00000,0.03209,0.97502,-0.18788,0.0,2023,6,7,15,34,26,699
42.85130,0.11270,-0.01785,0.00000,0.03392,0.97710,-0.18959,0.0,2023,6,7,15,34,26,709
42.85140,0.00770,0.17465,0.00000,0.03184,0.97588,-0.18715,0.0,2023,6,7,15,34,26,719
42.85150,-0.18480,0.10465,0.00000,0.03038,0.97771,-0.19008,0.0,2023,6,7,15,34,26,729
42.85160,-0.06230,-0.05285,0.00000,0.03209,0.97698,-0.18886,0.0,2023,6,7,15,34,26,739
42.85170,-0.02730,-0.14035,0.00000,0.03221,0.97685,-0.18495,0.0,2023,6,7,15,34,26,749
42.85180,-0.02730,-0.03535,0.00000,0.03318,0.97551,-0.18617,0.0,2023,6,7,15,34,26,759
42.85190,0.13020,-0.00035,0.00000,0.03331,0.97466,-0.19032,0.0,2023,6,7,15,34,26,769
42.85200,0.14770,-0.07035,0.00000,0.02977,0.97649,-0.18666,0.0,2023,6,7,15,34,27,779
42.85210,0.23520,-0.14035,0.00000,0.03196,0.97673,-0.18788,0.0,2023,6,7,15,34,27,789
42.85220,-0.11480,-0.03535,0.00000,0.03050,0.97527,-0.18642,0.0,2023,6,7,15,34,27,799
42.85230,-0.00980,0.13965,0.00000,0.03245,0.97734,-0.18825,0.0,2023,6,7,15,34,27,809
42.85240,0.16520,-0.10535,0.00000,0.03026,0.97661,-0.18849,0.0,2023,6,7,15,34,27,819
42.85250,0.02520,-0.07035,0.00000,0.03099,0.97417,-0.18666,0.0,2023,6,7,15,34,27,829
42.85260,-0.06230,-0.14035,0.00000,0.02757,0.97856,-0.18788,0.0,2023,6,7,15,34,27,839
42.85270,0.18270,-0.21035,0.00000,0.03526,0.97649,-0.18495,0.0,2023,6,7,15,34,27,849
42.85280,-0.13230,-0.03535,0.00000,0.03074,0.97722,-0.18666,0.0,2023,6,7,15,34,27,859
42.85290,0.04270,0.15715,0.00000,0.03318,0.97624,-0.18800,0.0,2023,6,7,15,34,27,869
42.85300,0.04270,-0.00035,0.00000,0.03099,0.97612,-0.18666,0.0,2023,6,7,15,34,27,879
42.85310,-0.04480,0.01715,0.00000,0.03221,0.97380,-0.18568,0.0,2023,6,7,15,34,27,889
42.85320,-0.07980,0.10465,0.00000,0.03379,0.97917,-0.18995,0.0,2023,6,7,15,34,27,899
42.85330,0.00770,-0.05285,0.00000,0.03062,0.97576,-0.18776,0.0,2023,6,7,15,34,27,909
42.85340,0.07770,0.06965,0.00000,0.03135,0.97795,-0.18776,0.0,2023,6,7,15,34,27,919
42.85350,0.00770,-0.03535,0.00000,0.03026,0.97807,-0.18727,0.0,2023,6,7,15,34,27,929
42.85360,-0.11480,0.05215,0.00000,0.03196,0.97478,-0.18861,0.0,2023,6,7,15,34,27,939
42.85370,-0.06230,-0.05285,0.00000,0.03196,0.97844,-0.18825,0.0,2023,6,7,15,34,27,949
42.85380,-0.06230,-0.00035,0.00000,0.03050,0.97429,-0.18849,0.0,2023,6,7,15,34,27,959
42.85390,-0.16730,-0.05285,0.00000,0.03282,0.97563,-0.18654,0.0,2023,6,7,15,34,27,969
42.85400,-0.13230,0.10465,0.00000,0.03196,0.97759,-0.18873,0.0,2023,6,7,15,34,27,979
42.85410,0.20020,-0.12285,0.00000,0.03160,0.97649,-0.18776,0.0,2023,6,7,15,34,27,989
42.85420,0.06020,-0.08785,0.00000,0.03087,0.97783,-0.18764,0.0,2023,6,7,15,34,27,999
42.85430,-0.07980,0.01715,0.00000,0.03233,0.97746,-0.18812,0.0,2023,6,7,15,34,27,9
42.85440,0.07770,-0.24535,0.00000,0.03257,0.97527,-0.18605,0.0,2023,6,7,15,34,27,19
42.85450,-0.11480,-0.15785,0.00000,0.03196,0.97466,-0.18690,0.0,2023,6,7,15,34,27,29
42.85460,-0.02730,-0.05285,0.00000,0.03257,0.97515,-0.18886,0.0,2023,6,7,15,34,27,39
42.85470,0.09520,-0.05285,0.00000,0.02928,0.97783,-0.18788,0.0,2023,6,7,15,34,27,49
42.85480,0.04270,0.12215,0.00000,0.03001,0.97685,-0.18898,0.0,2023,6,7,15,34,27,59
42.85490,0.11270,-0.01785,0.00000,0.03233,0.97588,-0.18886,0.0,2023,6,7,15,34,27,69
42.85500,-0.14980,0.06965,0.00000,0.03160,0.97746,-0.18873,0.0,2023,6,7,15,34,27,79
42.85510,-0.00980,0.01715,0.00000,0.02952,0.97576,-0.18910,0.0,2023,6,7,15,34,27,89
42.85520,0.06020,0.22715,0.00000,0.03026,0.97612,-0.18617,0.0,2023,6,7,15,34,27,99
42.85530,-0.14980,0.08715,0.00000,0.03196,0.97722,-0.18886,0.0,2023,6,7,15,34,27,109
42.85540,0.04270,0.13965,0.00000,0.03111,0.97771,-0.18898,0.0,2023,6,7,15,34,27,119
42.85550,0.07770,0.08715,0.00000,0.02879,0.97746,-0.19020,0.0,2023,6,7,15,34,27,129
42.85560,0.00770,0.06965,0.00000,0.03074,0.97661,-0.18703,0.0,2023,6,7,15,34,27,139
42.85570,-0.06230,0.13965,0.00000,0.03233,0.97551,-0.18642,0.0,2023,6,7,15,34,27,149
42.85580,0.11270,-0.12285,0.00000,0.03074,0.97698,-0.18825,0.0,2023,6,7,15,34,27,159
42.85590,0.07770,-0.05285,0.00000,0.03123,0.97673,-0.18849,0.0,2023,6,7,15,34,27,169
42.85600,-0.14980,0.01715,0.00000,0.03074,0.97405,-0.18910,0.0,2023,6,7,15,34,27,179
42.85610,-0.11480,0.03465,0.00000,0.03184,0.97759,-0.18751,0.0,2023,6,7,15,34,27,189
42.85620,0.13020,0.10465,0.00000,0.03306,0.97588,-0.18886,0.0,2023,6,7,15,34,27,199
42.85630,-0.02730,-0.14035,0.00000,0.03245,0.97576,-0.19117,0.0,2023,6,7,15,34,27,209
42.85640,0.00770,-0.07035,0.00000,0.03196,0.97637,-0.18581,0.0,2023,6,7,15,34,27,219
42.85650,0.02520,-0.05285,0.00000,0.03160,0.97771,-0.18837,0.0,2023,6,7,15,34,27,229
42.85660,0.06020,0.12215,0.00000,0.03184,0.97563,-0.18812,0.0,2023,6,7,15,34,27,239
42.85670,-0.18480,-0.05285,0.00000,0.02916,0.97698,-0.18690,0.0,2023,6,7,15,34,27,249
42.85680,-0.04480,0.03465,0.00000,0.03074,0.97673,-0.18739,0.0,2023,6,7,15,34,27,259
42.85690,0.06020,-0.15785,0.00000,0.03257,0.97356,-0.18703,0.0,2023,6,7,15,34,27,269
42.85700,-0.00980,-0.00035,0.00000,0.03306,0.97722,-0.18703,0.0,2023,6,7,15,34,27,279
42.85710,-0.00980,-0.05285,0.00000,0.03160,0.97600,-0.18837,0.0,2023,6,7,15,34,27,289
42.85720,-0.06230,0.03465,0.00000,0.03050,0.97478,-0.18861,0.0,2023,6,7,15,34,27,299
42.85730,-0.14980,-0.10535,0.00000,0.03331,0.97673,-0.18788,0.0,2023,6,7,15,34,27,309
42.85740,-0.14980,0.08715,0.00000,0.03123,0.97624,-0.18898,0.0,2023,6,7,15,34,27,319
42.85750,-0.25480,-0.05285,0.00000,0.03038,0.97624,-0.18825,0.0,2023,6,7,15,34,27,329
42.85760,0.07770,0.20965,0.00000,0.03367,0.97673,-0.18788,0.0,2023,6,7,15,34,27,339
42.85770,-0.06230,0.06965,0.00000,0.03221,0.97576,-0.18837,0.0,2023,6,7,15,34,27,349
42.85780,0.13020,0.06965,0.00000,0.03209,0.97490,-0.18910,0.0,2023,6,7,15,34,27,359
42.85790,-0.14980,-0.08785,0.00000,0.03172,0.97588,-0.18849,0.0,2023,6,7,15,34,27,369
42.85800,-0.11480,-0.10535,0.00000,0.03233,0.97612,-0.18751,0.0,2023,6,7,15,34,27,379
42.85810,-0.07980,0.01715,0.00000,0.03111,0.97673,-0.18715,0.0,2023,6,7,15,34,27,389
42.85820,-0.04480,-0.10535,0.00000,0.03343,0.97807,-0.18861,0.0,2023,6,7,15,34,27,399
42.85830,-0.14980,0.19215,0.00000,0.03428,0.97856,-0.18812,0.0,2023,6,7,15,34,27,409
42.85840,-0.00980,0.01715,0.00000,0.02989,0.97515,-0.18959,0.0,2023,6,7,15,34,27,419
42.85850,0.04270,0.03465,0.00000,0.03160,0.97539,-0.18788,0.0,2023,6,7,15,34,27,429
42.85860,0.06020,0.08715,0.00000,0.03233,0.97539,-0.18788,0.0,2023,6,7,15,34,27,439
42.85870,0.04270,0.10465,0.00000,0.03184,0.97515,-0.18715,0.0,2023,6,7,15,34,27,449
42.85880,0.23520,-0.14035,0.00000,0.03245,0.97380,-0.18812,0.0,2023,6,7,15,34,27,459
42.85890,-0.02730,-0.10535,0.00000,0.03184,0.97734,-0.18995,0.0,2023,6,7,15,34,27,469
42.85900,-0.06230,-0.24535,0.00000,0.03062,0.97734,-0.19056,0.0,2023,6,7,15,34,27,479
42.85910,-0.02730,0.08715,0.00000,0.03160,0.97454,-0.18629,0.0,2023,6,7,15,34,27,489
42.85920,-0.06230,-0.01785,0.00000,0.03038,0.97722,-0.18544,0.0,2023,6,7,15,34,27,499
42.85930,-0.00980,-0.17535,0.00000,0.03196,0.97820,-0.18812,0.0,2023,6,7,15,34,27,509
42.85940,-0.18480,0.15715,0.00000,0.03087,0.97588,-0.19008,0.0,2023,6,7,15,34,27,519
42.85950,-0.06230,-0.15785,0.00000,0.03135,0.97734,-0.18739,0.0,2023,6,7,15,34,27,529
42.85960,0.20020,0.10465,0.00000,0.03135,0.97490,-0.18690,0.0,2023,6,7,15,34,27,539
42.85970,-0.06230,0.13965,0.00000,0.03270,0.97441,-0.18715,0.0,2023,6,7,15,34,27,549
42.85980,0.02520,-0.19285,0.00000,0.03013,0.97649,-0.18629,0.0,2023,6,7,15,34,27,559
42.85990,-0.06230,0.27965,0.00000,0.03123,0.97734,-0.18983,0.0,2023,6,7,15,34,27,569
42.86000,0.04270,0.05215,0.00000,0.03135,0.97685,-0.18837,0.0,2023,6,7,15,34,27,579
42.86010,0.13020,-0.14035,0.00000,0.03367,0.97893,-0.18678,0.0,2023,6,7,15,34,27,589
42.86020,0.09520,0.01715,0.00000,0.03221,0.97893,-0.18825,0.0,2023,6,7,15,34,27,599
42.86030,-0.14980,0.22715,0.00000,0.03209,0.97551,-0.18666,0.0,2023,6,7,15,34,27,609
42.86040,0.14770,-0.00035,0.00000,0.03160,0.97698,-0.18727,0.0,2023,6,7,15,34,27,619
42.86050,-0.02730,-0.07035,0.00000,0.03038,0.97685,-0.18715,0.0,2023,6,7,15,34,27,629
42.86060,0.13020,0.17465,0.00000,0.03392,0.97734,-0.19008,0.0,2023,6,7,15,34,27,639
42.86070,0.09520,-0.01785,0.00000,0.03111,0.97283,-0.18629,0.0,2023,6,7,15,34,27,649
42.86080,-0.07980,0.03465,0.00000,0.03392,0.97466,-0.19008,0.0,2023,6,7,15,34,27,659
42.86090,-0.11480,0.22715,0.00000,0.03099,0.97502,-0.18873,0.0,2023,6,7,15,34,27,669
42.86100,0.02520,0.10465,0.00000,0.03245,0.97820,-0.18812,0.0,2023,6,7,15,34,27,679
42.86110,0.00770,0.08715,0.00000,0.03172,0.97612,-0.18788,0.0,2023,6,7,15,34,28,689
42.86120,-0.04480,0.06965,0.00000,0.02977,0.97429,-0.18739,0.0,2023,6,7,15,34,28,699
42.86130,-0.14980,-0.08785,0.00000,0.03087,0.97502,-0.18764,0.0,2023,6,7,15,34,28,709
42.86140,0.09520,-0.08785,0.00000,0.03099,0.97722,-0.18886,0.0,2023,6,7,15,34,28,719
42.86150,-0.04480,-0.00035,0.00000,0.03050,0.97929,-0.18764,0.0,2023,6,7,15,34,28,729
42.86160,0.07770,-0.24535,0.00000,0.03099,0.97783,-0.18849,0.0,2023,6,7,15,34,28,739
42.86170,0.09520,0.10465,0.00000,0.03367,0.97539,-0.18812,0.0,2023,6,7,15,34,28,749
42.86180,-0.00980,-0.01785,0.00000,0.03148,0.97771,-0.18666,0.0,2023,6,7,15,34,28,759
42.86190,0.06020,-0.03535,0.00000,0.03026,0.97783,-0.18825,0.0,2023,6,7,15,34,28,769
42.86200,0.09520,0.15715,0.00000,0.03099,0.97759,-0.18727,0.0,2023,6,7,15,34,28,779
42.86210,0.09520,-0.19285,0.00000,0.02977,0.97454,-0.18776,0.0,2023,6,7,15,34,28,789
42.86220,-0.00980,-0.01785,0.00000,0.03062,0.97795,-0.18788,0.0,2023,6,7,15,34,28,799
42.86230,-0.13230,0.01715,0.00000,0.02891,0.97710,-0.18776,0.0,2023,6,7,15,34,28,809
42.86240,-0.16730,0.08715,0.00000,0.03355,0.97551,-0.18873,0.0,2023,6,7,15,34,28,819
42.86250,0.02520,-0.10535,0.00000,0.03050,0.97624,-0.18776,0.0,2023,6,7,15,34,28,829
42.86260,0.07770,-0.07035,0.00000,0.03257,0.97795,-0.18739,0.0,2023,6,7,15,34,28,839
42.86270,-0.09730,0.03465,0.00000,0.03013,0.97502,-0.18898,0.0,2023,6,7,15,34,28,849
42.86280,-0.06230,-0.05285,0.00000,0.02916,0.97698,-0.18873,0.0,2023,6,7,15,34,28,859
42.86290,-0.13230,0.13965,0.00000,0.03111,0.97637,-0.18861,0.0,2023,6,7,15,34,28,869
42.86300,0.11270,0.03465,0.00000,0.03087,0.97624,-0.18727,0.0,2023,6,7,15,34,28,879
42.86310,0.07770,0.06965,0.00000,0.03196,0.97722,-0.18886,0.0,2023,6,7,15,34,28,889
42.86320,0.04270,-0.00035,0.00000,0.03038,0.97649,-0.19032,0.0,2023,6,7,15,34,28,899
42.86330,-0.21980,0.08715,0.00000,0.03318,0.97734,-0.18739,0.0,2023,6,7,15,34,28,909
42.86340,0.14770,0.01715,0.00000,0.03221,0.97527,-0.18959,0.0,2023,6,7,15,34,28,919
42.86350,0.04270,0.12215,0.00000,0.02928,0.97832,-0.19020,0.0,2023,6,7,15,34,28,929
42.86360,-0.02730,-0.10535,0.00000,0.03062,0.97673,-0.18922,0.0,2023,6,7,15,34,28,939
42.86370,0.04270,0.12215,0.00000,0.03148,0.97429,-0.18947,0.0,2023,6,7,15,34,28,949
42.86380,-0.06230,-0.00035,0.00000,0.03123,0.97673,-0.18642,0.0,2023,6,7,15,34,28,959
42.86390,0.02520,-0.12285,0.00000,0.03050,0.97637,-0.18788,0.0,2023,6,7,15,34,28,969
42.86400,0.11270,-0.07035,0.00000,0.03196,0.97722,-0.18812,0.0,2023,6,7,15,34,28,979
42.86410,0.00770,-0.03535,0.00000,0.03233,0.97576,-0.18776,0.0,2023,6,7,15,34,28,989
42.86420,-0.07980,-0.19285,0.00000,0.03270,0.97539,-0.18873,0.0,2023,6,7,15,34,28,999
42.86430,0.13020,-0.15785,0.00000,0.03270,0.97844,-0.18849,0.0,2023,6,7,15,34,28,9
42.86440,0.07770,0.12215,0.00000,0.03209,0.97734,-0.18739,0.0,2023,6,7,15,34,28,19
42.86450,-0.04480,-0.21035,0.00000,0.03074,0.97734,-0.18776,0.0,2023,6,7,15,34,28,29
42.86460,-0.02730,-0.01785,0.00000,0.03160,0.97405,-0.18934,0.0,2023,6,7,15,34,28,39
42.86470,0.20020,0.06965,0.00000,0.03148,0.97563,-0.18898,0.0,2023,6,7,15,34,28,49
42.86480,-0.07980,0.17465,0.00000,0.03111,0.97795,-0.18434,0.0,2023,6,7,15,34,28,59
42.86490,-0.00980,-0.01785,0.00000,0.03184,0.97820,-0.18922,0.0,2023,6,7,15,34,28,69
42.86500,0.00770,0.05215,0.00000,0.03148,0.97685,-0.18812,0.0,2023,6,7,15,34,28,79
42.86510,0.23520,-0.19285,0.00000,0.03257,0.97502,-0.18812,0.0,2023,6,7,15,34,28,89
42.86520,-0.07980,0.06965,0.00000,0.03489,0.97685,-0.18690,0.0,2023,6,7,15,34,28,99
42.86530,0.07770,-0.00035,0.00000,0.03379,0.97637,-0.18812,0.0,2023,6,7,15,34,28,109
42.86540,0.00770,0.15715,0.00000,0.03184,0.97612,-0.18971,0.0,2023,6,7,15,34,28,119
42.86550,-0.00980,-0.08785,0.00000,0.03184,0.97624,-0.18898,0.0,2023,6,7,15,34,28,129
42.86560,0.11270,-0.01785,0.00000,0.03196,0.97295,-0.18971,0.0,2023,6,7,15,34,28,139
42.86570,0.04270,-0.05285,0.00000,0.03233,0.97600,-0.18959,0.0,2023,6,7,15,34,28,149
42.86580,-0.02730,-0.07035,0.00000,0.03062,0.97527,-0.18605,0.0,2023,6,7,15,34,28,159
42.86590,-0.11480,-0.00035,0.00000,0.03257,0.97820,-0.19008,0.0,2023,6,7,15,34,28,169
42.86600,-0.16730,-0.05285,0.00000,0.03074,0.97698,-0.18581,0.0,2023,6,7,15,34,28,179
42.86610,0.09520,-0.08785,0.00000,0.03087,0.97685,-0.18764,0.0,2023,6,7,15,34,28,189
42.86620,0.00770,-0.07035,0.00000,0.03196,0.97637,-0.19008,0.0,2023,6,7,15,34,28,199
42.86630,0.11270,-0.08785,0.00000,0.02891,0.97515,-0.19093,0.0,2023,6,7,15,34,28,209
42.86640,0.02520,0.19215,0.00000,0.03282,0.97905,-0.18959,0.0,2023,6,7,15,34,28,219
42.86650,-0.04480,-0.07035,0.00000,0.03026,0.97734,-0.18886,0.0,2023,6,7,15,34,28,229
42.86660,-0.07980,-0.05285,0.00000,0.03001,0.97612,-0.18715,0.0,2023,6,7,15,34,28,239
42.86670,-0.16730,0.03465,0.00000,0.03233,0.97771,-0.18703,0.0,2023,6,7,15,34,28,249
42.86680,0.02520,-0.05285,0.00000,0.03087,0.97637,-0.18703,0.0,2023,6,7,15,34,28,259
42.86690,-0.00980,0.19215,0.00000,0.03087,0.97783,-0.18776,0.0,2023,6,7,15,34,28,269
42.86700,0.09520,0.15715,0.00000,0.03221,0.97637,-0.18898,0.0,2023,6,7,15,34,28,279
42.86710,-0.16730,0.22715,0.00000,0.03074,0.97795,-0.18727,0.0,2023,6,7,15,34,28,289
42.86720,-0.04480,-0.01785,0.00000,0.03135,0.97576,-0.18800,0.0,2023,6,7,15,34,28,299
42.86730,0.04270,0.03465,0.00000,0.03123,0.97734,-0.18727,0.0,2023,6,7,15,34,28,309
42.86740,-0.06230,0.10465,0.00000,0.03282,0.97746,-0.18751,0.0,2023,6,7,15,34,28,319
42.86750,0.04270,0.22715,0.00000,0.03294,0.97551,-0.18947,0.0,2023,6,7,15,34,28,329
42.86760,0.00770,0.08715,0.00000,0.03355,0.97454,-0.18715,0.0,2023,6,7,15,34,28,339
42.86770,0.20020,0.17465,0.00000,0.03257,0.97759,-0.18715,0.0,2023,6,7,15,34,28,349
42.86780,-0.09730,-0.00035,0.00000,0.03111,0.97673,-0.19020,0.0,2023,6,7,15,34,28,359
42.86790,0.00770,-0.15785,0.00000,0.03367,0.97722,-0.18764,0.0,2023,6,7,15,34,28,369
42.86800,-0.04480,0.06965,0.00000,0.03172,0.97685,-0.18788,0.0,2023,6,7,15,34,28,379
42.86810,0.06020,0.06965,0.00000,0.03257,0.97637,-0.18849,0.0,2023,6,7,15,34,28,389
42.86820,0.09520,0.10465,0.00000,0.03099,0.97637,-0.18825,0.0,2023,6,7,15,34,28,399
42.86830,0.16520,0.01715,0.00000,0.03209,0.97637,-0.18800,0.0,2023,6,7,15,34,28,409
42.86840,-0.11480,0.15715,0.00000,0.03050,0.97551,-0.18959,0.0,2023,6,7,15,34,28,419
42.86850,0.04270,0.03465,0.00000,0.03379,0.97661,-0.19008,0.0,2023,6,7,15,34,28,429
42.86860,-0.14980,-0.03535,0.00000,0.03135,0.97515,-0.18666,0.0,2023,6,7,15,34,28,439
42.86870,-0.11480,0.10465,0.00000,0.03135,0.97734,-0.18995,0.0,2023,6,7,15,34,28,449
42.86880,0.07770,-0.07035,0.00000,0.03233,0.97832,-0.18934,0.0,2023,6,7,15,34,28,459
42.86890,0.18270,-0.03535,0.00000,0.03062,0.97698,-0.18690,0.0,2023,6,7,15,34,28,469
42.86900,0.04270,-0.05285,0.00000,0.03038,0.97783,-0.18837,0.0,2023,6,7,15,34,28,479
42.86910,0.13020,-0.10535,0.00000,0.03221,0.97527,-0.18837,0.0,2023,6,7,15,34,28,489
42.86920,0.09520,-0.14035,0.00000,0.03233,0.97478,-0.18934,0.0,2023,6,7,15,34,28,499
42.86930,-0.00980,-0.08785,0.00000,0.03282,0.97844,-0.19008,0.0,2023,6,7,15,34,28,509
42.86940,-0.02730,0.12215,0.00000,0.03245,0.97795,-0.18788,0.0,2023,6,7,15,34,28,519
42.86950,-0.06230,0.12215,0.00000,0.02940,0.97466,-0.18910,0.0,2023,6,7,15,34,28,529
42.86960,0.00770,0.05215,0.00000,0.03196,0.97673,-0.18922,0.0,2023,6,7,15,34,28,539
42.86970,0.07770,-0.03535,0.00000,0.03270,0.97746,-0.18800,0.0,2023,6,7,15,34,28,549
42.86980,-0.14980,0.27965,0.00000,0.03087,0.97722,-0.18642,0.0,2023,6,7,15,34,28,559
42.86990,0.04270,0.15715,0.00000,0.03221,0.97759,-0.18861,0.0,2023,6,7,15,34,28,569
42.87000,0.07770,-0.08785,0.00000,0.03111,0.97502,-0.19056,0.0,2023,6,7,15,34,28,579
42.87010,-0.09730,-0.01785,0.00000,0.03196,0.97588,-0.18934,0.0,2023,6,7,15,34,29,589
42.87020,-0.09730,0.15715,0.00000,0.03123,0.97588,-0.18886,0.0,2023,6,7,15,34,29,599
42.87030,0.00770,0.22715,0.00000,0.03135,0.97698,-0.18800,0.0,2023,6,7,15,34,29,609
42.87040,-0.13230,-0.01785,0.00000,0.03111,0.97673,-0.18727,0.0,2023,6,7,15,34,29,619
42.87050,-0.14980,0.20965,0.00000,0.03160,0.97490,-0.19008,0.0,2023,6,7,15,34,29,629
42.87060,-0.18480,-0.12285,0.00000,0.03184,0.97820,-0.18971,0.0,2023,6,7,15,34,29,639
42.87070,-0.00980,0.08715,0.00000,0.03514,0.97637,-0.18959,0.0,2023,6,7,15,34,29,649
42.87080,0.16520,-0.19285,0.00000,0.03123,0.97612,-0.18922,0.0,2023,6,7,15,34,29,659
42.87090,-0.09730,0.05215,0.00000,0.03233,0.97466,-0.18922,0.0,2023,6,7,15,34,29,669
42.87100,-0.09730,0.29715,0.00000,0.03148,0.97551,-0.19032,0.0,2023,6,7,15,34,29,679
42.87110,-0.11480,0.10465,0.00000,0.03318,0.97527,-0.18837,0.0,2023,6,7,15,34,29,689
42.87120,0.18270,0.03465,0.00000,0.03148,0.97795,-0.18934,0.0,2023,6,7,15,34,29,699
42.87130,-0.02730,0.05215,0.00000,0.03196,0.97527,-0.18971,0.0,2023,6,7,15,34,29,709
42.87140,-0.00980,0.08715,0.00000,0.03184,0.97563,-0.18898,0.0,2023,6,7,15,34,29,719
42.87150,0.16520,-0.07035,0.00000,0.03172,0.97502,-0.18910,0.0,2023,6,7,15,34,29,729
42.87160,0.11270,-0.07035,0.00000,0.03087,0.97478,-0.18886,0.0,2023,6,7,15,34,29,739
42.87170,0.13020,0.22715,0.00000,0.03135,0.97820,-0.18678,0.0,2023,6,7,15,34,29,749
42.87180,-0.11480,0.06965,0.00000,0.03233,0.97624,-0.18800,0.0,2023,6,7,15,34,29,759
42.87190,-0.00980,0.10465,0.00000,0.03087,0.97576,-0.18690,0.0,2023,6,7,15,34,29,769
42.87200,-0.00980,-0.01785,0.00000,0.03343,0.97832,-0.18666,0.0,2023,6,7,15,34,29,779
42.87210,0.02520,-0.12285,0.00000,0.03416,0.97905,-0.18849,0.0,2023,6,7,15,34,29,789
42.87220,0.02520,-0.01785,0.00000,0.03123,0.97978,-0.18983,0.0,2023,6,7,15,34,29,799
42.87230,-0.14980,0.19215,0.00000,0.03123,0.97429,-0.18934,0.0,2023,6,7,15,34,29,809
42.87240,-0.06230,0.15715,0.00000,0.03001,0.97637,-0.18825,0.0,2023,6,7,15,34,29,819
42.87250,-0.00980,0.12215,0.00000,0.03148,0.97417,-0.18666,0.0,2023,6,7,15,34,29,829
42.87260,-0.04480,0.12215,0.00000,0.03306,0.97466,-0.18873,0.0,2023,6,7,15,34,29,839
42.87270,0.16520,0.05215,0.00000,0.03123,0.97698,-0.18666,0.0,2023,6,7,15,34,29,849
42.87280,0.13020,-0.03535,0.00000,0.03184,0.97502,-0.18886,0.0,2023,6,7,15,34,29,859
42.87290,0.04270,0.01715,0.00000,0.03209,0.97734,-0.18764,0.0,2023,6,7,15,34,29,869
42.87300,-0.06230,-0.03535,0.00000,0.03270,0.97551,-0.18983,0.0,2023,6,7,15,34,29,879
42.87310,-0.04480,-0.12285,0.00000,0.03184,0.97576,-0.18947,0.0,2023,6,7,15,34,29,889
42.87320,-0.11480,0.05215,0.00000,0.03379,0.97454,-0.19020,0.0,2023,6,7,15,34,29,899
42.87330,-0.06230,-0.05285,0.00000,0.03148,0.97637,-0.18898,0.0,2023,6,7,15,34,29,909
42.87340,0.07770,-0.01785,0.00000,0.03245,0.97771,-0.19142,0.0,2023,6,7,15,34,29,919
42.87350,0.07770,-0.10535,0.00000,0.03270,0.97783,-0.18800,0.0,2023,6,7,15,34,29,929
42.87360,0.06020,-0.01785,0.00000,0.03209,0.97649,-0.19008,0.0,2023,6,7,15,34,29,939
42.87370,-0.00980,0.01715,0.00000,0.03184,0.97722,-0.18776,0.0,2023,6,7,15,34,29,949
42.87380,-0.13230,0.03465,0.00000,0.03123,0.97698,-0.18739,0.0,2023,6,7,15,34,29,959
42.87390,0.13020,-0.19285,0.00000,0.03196,0.97710,-0.18812,0.0,2023,6,7,15,34,29,969
42.87400,-0.02730,-0.08785,0.00000,0.03123,0.97576,-0.19008,0.0,2023,6,7,15,34,29,979
42.87410,0.18270,-0.12285,0.00000,0.03257,0.97380,-0.18886,0.0,2023,6,7,15,34,29,989
42.87420,0.13020,-0.08785,0.00000,0.02867,0.97637,-0.18776,0.0,2023,6,7,15,34,29,999
42.87430,0.13020,0.24465,0.00000,0.03221,0.97624,-0.18873,0.0,2023,6,7,15,34,29,9
42.87440,-0.06230,0.12215,0.00000,0.03160,0.97722,-0.18776,0.0,2023,6,7,15,34,29,19
42.87450,-0.06230,-0.03535,0.00000,0.03172,0.97527,-0.18886,0.0,2023,6,7,15,34,29,29
42.87460,0.18270,-0.01785,0.00000,0.03087,0.97417,-0.18715,0.0,2023,6,7,15,34,29,39
42.87470,-0.06230,0.01715,0.00000,0.03209,0.97393,-0.18898,0.0,2023,6,7,15,34,29,49
42.87480,0.02520,-0.03535,0.00000,0.02916,0.97685,-0.19008,0.0,2023,6,7,15,34,29,59
42.87490,0.16520,-0.01785,0.00000,0.03257,0.97673,-0.18825,0.0,2023,6,7,15,34,29,69
42.87500,-0.11480,0.05215,0.00000,0.03379,0.97185,-0.18788,0.0,2023,6,7,15,34,29,79
42.87510,-0.02730,0.08715,0.00000,0.03148,0.97649,-0.18837,0.0,2023,6,7,15,34,29,89
42.87520,-0.06230,-0.00035,0.00000,0.02977,0.97624,-0.18922,0.0,2023,6,7,15,34,29,99
42.87530,0.14770,-0.10535,0.00000,0.03233,0.97673,-0.18739,0.0,2023,6,7,15,34,29,109
42.87540,0.04270,0.05215,0.00000,0.03270,0.97759,-0.18910,0.0,2023,6,7,15,34,29,119
42.87550,-0.06230,0.40215,0.00000,0.03148,0.97795,-0.18593,0.0,2023,6,7,15,34,29,129
42.87560,-0.16730,-0.03535,0.00000,0.03050,0.97673,-0.18800,0.0,2023,6,7,15,34,29,139
42.87570,0.04270,-0.07035,0.00000,0.03184,0.97600,-0.18727,0.0,2023,6,7,15,34,29,149
42.87580,-0.00980,-0.19285,0.00000,0.03184,0.97637,-0.18959,0.0,2023,6,7,15,34,29,159
42.87590,0.14770,-0.15785,0.00000,0.03282,0.97685,-0.18934,0.0,2023,6,7,15,34,29,169
42.87600,0.07770,-0.00035,0.00000,0.03050,0.97624,-0.18788,0.0,2023,6,7,15,34,29,179
42.87610,-0.20230,0.20965,0.00000,0.03087,0.97844,-0.18934,0.0,2023,6,7,15,34,29,189
42.87620,0.13020,-0.10535,0.00000,0.03172,0.97673,-0.18934,0.0,2023,6,7,15,34,29,199
42.87630,-0.06230,-0.01785,0.00000,0.03184,0.97698,-0.18666,0.0,2023,6,7,15,34,29,209
42.87640,0.04270,0.08715,0.00000,0.03306,0.97893,-0.18739,0.0,2023,6,7,15,34,29,219
42.87650,0.00770,-0.00035,0.00000,0.03294,0.97759,-0.18861,0.0,2023,6,7,15,34,29,229
42.87660,-0.04480,-0.28035,0.00000,0.03038,0.97539,-0.18910,0.0,2023,6,7,15,34,29,239
42.87670,0.07770,-0.03535,0.00000,0.03062,0.97685,-0.18947,0.0,2023,6,7,15,34,29,249
42.87680,0.30520,-0.21035,0.00000,0.02977,0.97234,-0.18764,0.0,2023,6,7,15,34,29,259
42.87690,-0.07980,0.01715,0.00000,0.03099,0.97563,-0.18922,0.0,2023,6,7,15,34,29,269
42.87700,-0.00980,-0.00035,0.00000,0.02928,0.97576,-0.18776,0.0,2023,6,7,15,34,29,279
42.87710,-0.14980,-0.10535,0.00000,0.03001,0.97832,-0.18422,0.0,2023,6,7,15,34,29,289
42.87720,-0.06230,0.05215,0.00000,0.03135,0.97722,-0.18751,0.0,2023,6,7,15,34,29,299
42.87730,0.21770,0.10465,0.00000,0.03123,0.97478,-0.18764,0.0,2023,6,7,15,34,29,309
42.87740,0.04270,0.06965,0.00000,0.03221,0.97746,-0.18788,0.0,2023,6,7,15,34,29,319
42.87750,-0.06230,0.15715,0.00000,0.03489,0.97685,-0.18800,0.0,2023,6,7,15,34,29,329
42.87760,-0.14980,0.06965,0.00000,0.03148,0.97734,-0.18922,0.0,2023,6,7,15,34,29,339
42.87770,0.09520,-0.26285,0.00000,0.03501,0.97624,-0.18825,0.0,2023,6,7,15,34,29,349
42.87780,-0.20230,0.13965,0.00000,0.03062,0.97893,-0.18934,0.0,2023,6,7,15,34,29,359
42.87790,0.00770,0.03465,0.00000,0.03038,0.97685,-0.19044,0.0,2023,6,7,15,34,29,369
42.87800,0.06020,0.15715,0.00000,0.03160,0.97637,-0.18727,0.0,2023,6,7,15,34,29,379
42.87810,0.04270,-0.12285,0.00000,0.03160,0.97576,-0.18886,0.0,2023,6,7,15,34,29,389
42.87820,-0.06230,-0.00035,0.00000,0.03123,0.97612,-0.18995,0.0,2023,6,7,15,34,29,399
42.87830,0.14770,0.06965,0.00000,0.02952,0.97490,-0.18849,0.0,2023,6,7,15,34,29,409
42.87840,-0.02730,-0.24535,0.00000,0.03245,0.97515,-0.18947,0.0,2023,6,7,15,34,29,419
42.87850,-0.14980,0.03465,0.00000,0.03221,0.97588,-0.18861,0.0,2023,6,7,15,34,29,429
42.87860,0.18270,-0.22785,0.00000,0.03026,0.97380,-0.19142,0.0,2023,6,7,15,34,29,439
42.87870,0.09520,-0.08785,0.00000,0.03367,0.97734,-0.19032,0.0,2023,6,7,15,34,29,449
42.87880,-0.09730,-0.14035,0.00000,0.03257,0.97698,-0.19008,0.0,2023,6,7,15,34,29,459
42.87890,-0.09730,-0.03535,0.00000,0.03050,0.97685,-0.18971,0.0,2023,6,7,15,34,29,469
42.87900,0.07770,-0.03535,0.00000,0.03221,0.97563,-0.18947,0.0,2023,6,7,15,34,29,479
42.87910,0.02520,-0.05285,0.00000,0.03013,0.97441,-0.19154,0.0,2023,6,7,15,34,30,489
42.87920,-0.16730,0.03465,0.00000,0.03062,0.97734,-0.18922,0.0,2023,6,7,15,34,30,499
42.87930,-0.04480,0.06965,0.00000,0.03172,0.97563,-0.18898,0.0,2023,6,7,15,34,30,509
42.87940,0.00770,-0.10535,0.00000,0.03233,0.97515,-0.19032,0.0,2023,6,7,15,34,30,519
42.87950,-0.07980,-0.22785,0.00000,0.03245,0.97771,-0.19044,0.0,2023,6,7,15,34,30,529
42.87960,-0.06230,0.06965,0.00000,0.03050,0.97637,-0.19008,0.0,2023,6,7,15,34,30,539
42.87970,-0.21980,0.15715,0.00000,0.03233,0.97685,-0.19081,0.0,2023,6,7,15,34,30,549
42.87980,0.06020,-0.07035,0.00000,0.03001,0.97429,-0.19227,0.0,2023,6,7,15,34,30,559
42.87990,0.04270,-0.15785,0.00000,0.03123,0.97661,-0.19056,0.0,2023,6,7,15,34,30,569
42.88000,0.04270,-0.05285,0.00000,0.03318,0.97551,-0.19069,0.0,2023,6,7,15,34,30,579
42.88010,-0.06230,0.05215,0.00000,0.03099,0.97576,-0.19069,0.0,2023,6,7,15,34,30,589
42.88020,0.09520,0.19215,0.00000,0.03306,0.97368,-0.18995,0.0,2023,6,7,15,34,30,599
42.88030,0.06020,-0.07035,0.00000,0.03209,0.97734,-0.19056,0.0,2023,6,7,15,34,30,609
42.88040,0.02520,0.03465,0.00000,0.03355,0.97539,-0.19191,0.0,2023,6,7,15,34,30,619
42.88050,0.07770,-0.21035,0.00000,0.02977,0.97905,-0.19093,0.0,2023,6,7,15,34,30,629
42.88060,0.02520,0.03465,0.00000,0.03221,0.97612,-0.18995,0.0,2023,6,7,15,34,30,639
42.88070,0.06020,-0.03535,0.00000,0.03172,0.97978,-0.19056,0.0,2023,6,7,15,34,30,649
42.88080,-0.13230,0.27965,0.00000,0.03221,0.97905,-0.19093,0.0,2023,6,7,15,34,30,659
42.88090,0.13020,0.15715,0.00000,0.03294,0.97722,-0.18873,0.0,2023,6,7,15,34,30,669
42.88100,-0.25480,0.17465,0.00000,0.03318,0.97661,-0.18947,0.0,2023,6,7,15,34,30,679
42.88110,-0.13230,0.08715,0.00000,0.03087,0.97600,-0.18849,0.0,2023,6,7,15,34,30,689
42.88120,-0.14980,0.08715,0.00000,0.03270,0.97551,-0.18922,0.0,2023,6,7,15,34,30,699
42.88130,0.00770,-0.00035,0.00000,0.03123,0.97454,-0.18971,0.0,2023,6,7,15,34,30,709
42.88140,-0.00980,0.17465,0.00000,0.02977,0.97783,-0.18947,0.0,2023,6,7,15,34,30,719
42.88150,0.06020,0.17465,0.00000,0.03294,0.97612,-0.18959,0.0,2023,6,7,15,34,30,729
42.88160,0.00770,0.06965,0.00000,0.03160,0.97759,-0.18849,0.0,2023,6,7,15,34,30,739
42.88170,0.16520,0.20965,0.00000,0.03221,0.97515,-0.18983,0.0,2023,6,7,15,34,30,749
42.88180,-0.04480,-0.03535,0.00000,0.03074,0.97612,-0.18947,0.0,2023,6,7,15,34,30,759
42.88190,-0.09730,0.10465,0.00000,0.03038,0.97527,-0.19044,0.0,2023,6,7,15,34,30,769
42.88200,-0.23730,-0.01785,0.00000,0.03196,0.97795,-0.19105,0.0,2023,6,7,15,34,30,779
42.88210,-0.02730,-0.07035,0.00000,0.03257,0.97624,-0.18861,0.0,2023,6,7,15,34,30,789
42.88220,0.09520,0.03465,0.00000,0.03270,0.97588,-0.19117,0.0,2023,6,7,15,34,30,799
42.88230,-0.00980,-0.01785,0.00000,0.02855,0.97685,-0.19252,0.0,2023,6,7,15,34,30,809
42.88240,0.06020,-0.10535,0.00000,0.03184,0.97563,-0.19056,0.0,2023,6,7,15,34,30,819
42.88250,-0.09730,0.01715,0.00000,0.03257,0.97917,-0.18703,0.0,2023,6,7,15,34,30,829
42.88260,-0.04480,-0.00035,0.00000,0.03562,0.97868,-0.18971,0.0,2023,6,7,15,34,30,839
42.88270,0.02520,0.01715,0.00000,0.03245,0.97490,-0.19130,0.0,2023,6,7,15,34,30,849
42.88280,0.02520,0.05215,0.00000,0.03209,0.97673,-0.18751,0.0,2023,6,7,15,34,30,859
42.88290,-0.00980,0.03465,0.00000,0.03318,0.97527,-0.18971,0.0,2023,6,7,15,34,30,869
42.88300,-0.04480,0.06965,0.00000,0.03172,0.97771,-0.19044,0.0,2023,6,7,15,34,30,879
42.88310,-0.18480,0.27965,0.00000,0.03331,0.97722,-0.18971,0.0,2023,6,7,15,34,30,889
42.88320,0.13020,0.08715,0.00000,0.03245,0.97466,-0.19069,0.0,2023,6,7,15,34,30,899
42.88330,0.07770,-0.01785,0.00000,0.03257,0.97466,-0.19166,0.0,2023,6,7,15,34,30,909
42.88340,0.07770,-0.05285,0.00000,0.03294,0.97588,-0.19154,0.0,2023,6,7,15,34,30,919
42.88350,-0.06230,-0.01785,0.00000,0.03148,0.97478,-0.19044,0.0,2023,6,7,15,34,30,929
42.88360,0.04270,0.06965,0.00000,0.03111,0.97624,-0.19056,0.0,2023,6,7,15,34,30,939
42.88370,0.00770,-0.05285,0.00000,0.03233,0.97502,-0.18861,0.0,2023,6,7,15,34,30,949
42.88380,-0.02730,0.03465,0.00000,0.03184,0.97710,-0.19044,0.0,2023,6,7,15,34,30,959
42.88390,0.07770,-0.07035,0.00000,0.03184,0.97563,-0.18934,0.0,2023,6,7,15,34,30,969
42.88400,0.11270,-0.00035,0.00000,0.03221,0.97466,-0.18849,0.0,2023,6,7,15,34,30,979
42.88410,0.00770,-0.10535,0.00000,0.03209,0.97759,-0.19069,0.0,2023,6,7,15,34,30,989
42.88420,0.07770,-0.00035,0.00000,0.03221,0.97783,-0.18812,0.0,2023,6,7,15,34,30,999
42.88430,-0.04480,0.01715,0.00000,0.03099,0.97527,-0.19191,0.0,2023,6,7,15,34,30,9
42.88440,-0.02730,-0.12285,0.00000,0.03050,0.97417,-0.19020,0.0,2023,6,7,15,34,30,19
42.88450,0.04270,0.06965,0.00000,0.03331,0.98015,-0.19252,0.0,2023,6,7,15,34,30,29
42.88460,0.06020,-0.08785,0.00000,0.03257,0.97502,-0.19044,0.0,2023,6,7,15,34,30,39
42.88470,0.07770,-0.03535,0.00000,0.03038,0.97637,-0.19020,0.0,2023,6,7,15,34,30,49
42.88480,-0.13230,-0.07035,0.00000,0.03135,0.97868,-0.19008,0.0,2023,6,7,15,34,30,59
42.88490,-0.09730,0.12215,0.00000,0.03233,0.97649,-0.19105,0.0,2023,6,7,15,34,30,69
42.88500,-0.00980,0.08715,0.00000,0.03270,0.97417,-0.19008,0.0,2023,6,7,15,34,30,79
42.88510,0.04270,-0.07035,0.00000,0.03148,0.97527,-0.19105,0.0,2023,6,7,15,34,30,89
42.88520,-0.13230,-0.10535,0.00000,0.03355,0.97490,-0.18837,0.0,2023,6,7,15,34,30,99
42.88530,0.11270,-0.00035,0.00000,0.03013,0.97698,-0.18849,0.0,2023,6,7,15,34,30,109
42.88540,0.09520,-0.21035,0.00000,0.03379,0.97661,-0.19105,0.0,2023,6,7,15,34,30,119
42.88550,0.23520,-0.03535,0.00000,0.03282,0.97795,-0.18837,0.0,2023,6,7,15,34,30,129
42.88560,0.04270,0.10465,0.00000,0.03099,0.97844,-0.18812,0.0,2023,6,7,15,34,30,139
42.88570,-0.06230,-0.12285,0.00000,0.03294,0.97637,-0.18971,0.0,2023,6,7,15,34,30,149
42.88580,0.02520,0.05215,0.00000,0.03148,0.97612,-0.19081,0.0,2023,6,7,15,34,30,159
42.88590,0.00770,0.13965,0.00000,0.03160,0.97612,-0.19093,0.0,2023,6,7,15,34,30,169
42.88600,-0.18480,0.17465,0.00000,0.03270,0.97710,-0.19056,0.0,2023,6,7,15,34,30,179
42.88610,-0.06230,-0.17535,0.00000,0.03221,0.97795,-0.18995,0.0,2023,6,7,15,34,30,189
42.88620,-0.06230,0.12215,0.00000,0.03123,0.97466,-0.19081,0.0,2023,6,7,15,34,30,199
42.88630,-0.04480,-0.07035,0.00000,0.03221,0.97661,-0.18654,0.0,2023,6,7,15,34,30,209
42.88640,-0.20230,0.10465,0.00000,0.03074,0.97563,-0.18934,0.0,2023,6,7,15,34,30,219
42.88650,-0.09730,-0.12285,0.00000,0.03026,0.97807,-0.19069,0.0,2023,6,7,15,34,30,229
42.88660,0.00770,0.05215,0.00000,0.03062,0.97795,-0.19020,0.0,2023,6,7,15,34,30,239
42.88670,-0.16730,0.06965,0.00000,0.03294,0.97588,-0.18727,0.0,2023,6,7,15,34,30,249
42.88680,-0.09730,0.05215,0.00000,0.03270,0.97502,-0.19044,0.0,2023,6,7,15,34,30,259
42.88690,-0.16730,-0.07035,0.00000,0.03245,0.97551,-0.19081,0.0,2023,6,7,15,34,30,269
42.88700,-0.02730,-0.10535,0.00000,0.03135,0.97624,-0.18776,0.0,2023,6,7,15,34,30,279
42.88710,-0.06230,-0.05285,0.00000,0.03038,0.97649,-0.19056,0.0,2023,6,7,15,34,30,289
42.88720,0.07770,-0.00035,0.00000,0.03355,0.97588,-0.19154,0.0,2023,6,7,15,34,30,299
42.88730,0.00770,-0.07035,0.00000,0.03087,0.97783,-0.19081,0.0,2023,6,7,15,34,30,309
42.88740,0.09520,-0.28035,0.00000,0.03196,0.97661,-0.18837,0.0,2023,6,7,15,34,30,319
42.88750,-0.04480,0.08715,0.00000,0.03050,0.97551,-0.19105,0.0,2023,6,7,15,34,30,329
42.88760,0.04270,-0.03535,0.00000,0.03160,0.97685,-0.18849,0.0,2023,6,7,15,34,30,339
42.88770,-0.04480,-0.29785,0.00000,0.03099,0.97673,-0.18861,0.0,2023,6,7,15,34,30,349
42.88780,0.06020,-0.19285,0.00000,0.03331,0.97868,-0.18825,0.0,2023,6,7,15,34,30,359
42.88790,0.14770,0.15715,0.00000,0.02952,0.97832,-0.19008,0.0,2023,6,7,15,34,30,369
42.88800,-0.06230,-0.12285,0.00000,0.02916,0.97527,-0.18837,0.0,2023,6,7,15,34,30,379
42.88810,-0.11480,-0.05285,0.00000,0.03233,0.97673,-0.19093,0.0,2023,6,7,15,34,31,389
42.88820,-0.04480,0.05215,0.00000,0.03062,0.97856,-0.19142,0.0,2023,6,7,15,34,31,399
42.88830,-0.04480,0.06965,0.00000,0.02940,0.97441,-0.18983,0.0,2023,6,7,15,34,31,409
42.88840,0.16520,0.01715,0.00000,0.03257,0.97393,-0.18825,0.0,2023,6,7,15,34,31,419
42.88850,-0.09730,-0.17535,0.00000,0.03038,0.97624,-0.18934,0.0,2023,6,7,15,34,31,429
42.88860,0.11270,0.15715,0.00000,0.03160,0.97685,-0.18812,0.0,2023,6,7,15,34,31,439
42.88870,0.00770,-0.05285,0.00000,0.03001,0.97966,-0.18934,0.0,2023,6,7,15,34,31,449
42.88880,-0.04480,0.08715,0.00000,0.03172,0.97783,-0.19032,0.0,2023,6,7,15,34,31,459
42.88890,0.28770,-0.12285,0.00000,0.03062,0.97624,-0.19044,0.0,2023,6,7,15,34,31,469
42.88900,-0.06230,0.12215,0.00000,0.02952,0.97527,-0.18995,0.0,2023,6,7,15,34,31,479
42.88910,-0.06230,0.10465,0.00000,0.03160,0.97332,-0.18776,0.0,2023,6,7,15,34,31,489
42.88920,-0.09730,0.12215,0.00000,0.03379,0.97417,-0.18922,0.0,2023,6,7,15,34,31,499
42.88930,0.04270,0.13965,0.00000,0.03001,0.97637,-0.18764,0.0,2023,6,7,15,34,31,509
42.88940,-0.16730,-0.03535,0.00000,0.03074,0.97759,-0.18910,0.0,2023,6,7,15,34,31,519
42.88950,-0.07980,-0.08785,0.00000,0.03099,0.97612,-0.18934,0.0,2023,6,7,15,34,31,529
42.88960,-0.07980,0.06965,0.00000,0.03367,0.97490,-0.18995,0.0,2023,6,7,15,34,31,539
42.88970,0.11270,0.08715,0.00000,0.03270,0.97673,-0.18959,0.0,2023,6,7,15,34,31,549
42.88980,-0.00980,-0.01785,0.00000,0.03221,0.97539,-0.18947,0.0,2023,6,7,15,34,31,559
42.88990,0.14770,0.05215,0.00000,0.03477,0.97905,-0.19008,0.0,2023,6,7,15,34,31,569
42.89000,0.11270,0.12215,0.00000,0.03209,0.97637,-0.18910,0.0,2023,6,7,15,34,31,579
42.89010,0.09520,0.03465,0.00000,0.02843,0.97563,-0.18971,0.0,2023,6,7,15,34,31,589
42.89020,-0.09730,0.06965,0.00000,0.03196,0.97563,-0.18934,0.0,2023,6,7,15,34,31,599
42.89030,-0.11480,0.15715,0.00000,0.03087,0.97868,-0.18764,0.0,2023,6,7,15,34,31,609
42.89040,0.30520,-0.24535,0.00000,0.03123,0.97515,-0.18849,0.0,2023,6,7,15,34,31,619
42.89050,0.14770,-0.00035,0.00000,0.03209,0.97624,-0.18910,0.0,2023,6,7,15,34,31,629
42.89060,-0.00980,0.20965,0.00000,0.03050,0.97844,-0.18825,0.0,2023,6,7,15,34,31,639
42.89070,0.04270,-0.12285,0.00000,0.03196,0.97624,-0.18959,0.0,2023,6,7,15,34,31,649
42.89080,-0.07980,-0.08785,0.00000,0.03306,0.97502,-0.18727,0.0,2023,6,7,15,34,31,659
42.89090,0.06020,-0.00035,0.00000,0.03050,0.97746,-0.19032,0.0,2023,6,7,15,34,31,669
42.89100,-0.18480,-0.01785,0.00000,0.03062,0.97600,-0.18910,0.0,2023,6,7,15,34,31,679
42.89110,0.06020,-0.05285,0.00000,0.03099,0.97795,-0.18861,0.0,2023,6,7,15,34,31,689
42.89120,-0.00980,-0.05285,0.00000,0.03026,0.97771,-0.19178,0.0,2023,6,7,15,34,31,699
42.89130,0.04270,-0.05285,0.00000,0.03099,0.97576,-0.18776,0.0,2023,6,7,15,34,31,709
42.89140,-0.20230,0.03465,0.00000,0.03074,0.97783,-0.18812,0.0,2023,6,7,15,34,31,719
42.89150,-0.06230,0.06965,0.00000,0.03294,0.97710,-0.19044,0.0,2023,6,7,15,34,31,729
42.89160,-0.07980,0.33215,0.00000,0.03355,0.97600,-0.18776,0.0,2023,6,7,15,34,31,739
42.89170,-0.07980,0.03465,0.00000,0.03062,0.97698,-0.18812,0.0,2023,6,7,15,34,31,749
42.89180,-0.04480,0.10465,0.00000,0.03160,0.97820,-0.18703,0.0,2023,6,7,15,34,31,759
42.89190,0.00770,0.19215,0.00000,0.03270,0.97527,-0.18959,0.0,2023,6,7,15,34,31,769
42.89200,-0.11480,0.08715,0.00000,0.03184,0.97563,-0.18886,0.0,2023,6,7,15,34,31,779
42.89210,-0.11480,-0.07035,0.00000,0.03245,0.97698,-0.18959,0.0,2023,6,7,15,34,31,789
42.89220,0.13020,-0.08785,0.00000,0.03257,0.97710,-0.18690,0.0,2023,6,7,15,34,31,799
42.89230,0.14770,-0.17535,0.00000,0.03428,0.97515,-0.19117,0.0,2023,6,7,15,34,31,809
42.89240,-0.02730,-0.15785,0.00000,0.03221,0.97685,-0.19008,0.0,2023,6,7,15,34,31,819
42.89250,-0.00980,0.01715,0.00000,0.03135,0.97673,-0.18690,0.0,2023,6,7,15,34,31,829
42.89260,0.11270,0.05215,0.00000,0.03099,0.97929,-0.18837,0.0,2023,6,7,15,34,31,839
42.89270,-0.14980,0.01715,0.00000,0.03038,0.97807,-0.19020,0.0,2023,6,7,15,34,31,849
42.89280,0.00770,-0.12285,0.00000,0.03062,0.97881,-0.19032,0.0,2023,6,7,15,34,31,859
42.89290,-0.00980,-0.03535,0.00000,0.03306,0.97600,-0.18910,0.0,2023,6,7,15,34,31,869
42.89300,-0.11480,-0.12285,0.00000,0.03135,0.97759,-0.18849,0.0,2023,6,7,15,34,31,879
42.89310,0.16520,-0.03535,0.00000,0.03062,0.97783,-0.18898,0.0,2023,6,7,15,34,31,889
42.89320,-0.06230,-0.26285,0.00000,0.03282,0.97515,-0.19008,0.0,2023,6,7,15,34,31,899
42.89330,-0.00980,-0.01785,0.00000,0.03270,0.97698,-0.18983,0.0,2023,6,7,15,34,31,909
42.89340,-0.02730,0.15715,0.00000,0.03404,0.97612,-0.18995,0.0,2023,6,7,15,34,31,919
42.89350,-0.02730,-0.22785,0.00000,0.03038,0.97649,-0.19069,0.0,2023,6,7,15,34,31,929
42.89360,-0.06230,0.13965,0.00000,0.03221,0.97527,-0.18959,0.0,2023,6,7,15,34,31,939
42.89370,-0.06230,0.15715,0.00000,0.03135,0.97356,-0.18873,0.0,2023,6,7,15,34,31,949
42.89380,0.09520,-0.05285,0.00000,0.03062,0.97990,-0.18739,0.0,2023,6,7,15,34,31,959
42.89390,-0.18480,0.05215,0.00000,0.03331,0.97795,-0.18934,0.0,2023,6,7,15,34,31,969
42.89400,0.09520,-0.08785,0.00000,0.03135,0.97588,-0.18959,0.0,2023,6,7,15,34,31,979
42.89410,-0.20230,-0.08785,0.00000,0.03099,0.97612,-0.18983,0.0,2023,6,7,15,34,31,989
42.89420,0.02520,0.05215,0.00000,0.03245,0.97710,-0.18910,0.0,2023,6,7,15,34,31,999
42.89430,0.00770,0.06965,0.00000,0.03257,0.97746,-0.18751,0.0,2023,6,7,15,34,31,9
42.89440,0.07770,-0.00035,0.00000,0.03148,0.97515,-0.18971,0.0,2023,6,7,15,34,31,19
42.89450,-0.23730,-0.12285,0.00000,0.03257,0.97588,-0.18898,0.0,2023,6,7,15,34,31,29
42.89460,0.06020,0.01715,0.00000,0.03196,0.97417,-0.18898,0.0,2023,6,7,15,34,31,39
42.89470,-0.00980,0.03465,0.00000,0.03099,0.97710,-0.18678,0.0,2023,6,7,15,34,31,49
42.89480,0.02520,-0.26285,0.00000,0.02855,0.97783,-0.18703,0.0,2023,6,7,15,34,31,59
42.89490,0.04270,-0.15785,0.00000,0.03148,0.97478,-0.18837,0.0,2023,6,7,15,34,31,69
42.89500,-0.16730,0.13965,0.00000,0.03184,0.97710,-0.19081,0.0,2023,6,7,15,34,31,79
42.89510,-0.13230,0.06965,0.00000,0.03221,0.97710,-0.18605,0.0,2023,6,7,15,34,31,89
42.89520,-0.06230,-0.01785,0.00000,0.03318,0.97649,-0.18959,0.0,2023,6,7,15,34,31,99
42.89530,0.00770,0.05215,0.00000,0.03245,0.97527,-0.18825,0.0,2023,6,7,15,34,31,109
42.89540,0.07770,-0.03535,0.00000,0.03343,0.97783,-0.19020,0.0,2023,6,7,15,34,31,119
42.89550,0.06020,-0.15785,0.00000,0.03294,0.97771,-0.18922,0.0,2023,6,7,15,34,31,129
42.89560,0.16520,0.06965,0.00000,0.03135,0.97746,-0.18776,0.0,2023,6,7,15,34,31,139
42.89570,-0.11480,0.03465,0.00000,0.03087,0.97868,-0.18971,0.0,2023,6,7,15,34,31,149
42.89580,0.00770,0.03465,0.00000,0.02977,0.97734,-0.18520,0.0,2023,6,7,15,34,31,159
42.89590,0.04270,0.03465,0.00000,0.03209,0.97685,-0.18642,0.0,2023,6,7,15,34,31,169
42.89600,-0.20230,0.19215,0.00000,0.03038,0.97624,-0.18947,0.0,2023,6,7,15,34,31,179
42.89610,0.00770,-0.15785,0.00000,0.02867,0.97734,-0.18837,0.0,2023,6,7,15,34,31,189
42.89620,-0.11480,0.13965,0.00000,0.03318,0.97612,-0.18812,0.0,2023,6,7,15,34,31,199
42.89630,-0.21980,0.03465,0.00000,0.03196,0.97685,-0.18886,0.0,2023,6,7,15,34,31,209
42.89640,-0.04480,-0.05285,0.00000,0.03379,0.97466,-0.18776,0.0,2023,6,7,15,34,31,219
42.89650,-0.11480,0.15715,0.00000,0.03074,0.97624,-0.18886,0.0,2023,6,7,15,34,31,229
42.89660,0.06020,-0.03535,0.00000,0.03074,0.97429,-0.18995,0.0,2023,6,7,15,34,31,239
42.89670,-0.02730,-0.24535,0.00000,0.03184,0.97637,-0.18825,0.0,2023,6,7,15,34,31,249
42.89680,0.11270,0.08715,0.00000,0.02977,0.97637,-0.18873,0.0,2023,6,7,15,34,31,259
42.89690,-0.07980,0.22715,0.00000,0.03111,0.97661,-0.18629,0.0,2023,6,7,15,34,31,269
42.89700,-0.06230,0.19215,0.00000,0.03245,0.97490,-0.18751,0.0,2023,6,7,15,34,31,279
42.89710,0.00770,-0.00035,0.00000,0.03135,0.97710,-0.18934,0.0,2023,6,7,15,34,31,289
42.89720,-0.18480,0.17465,0.00000,0.03038,0.97600,-0.18617,0.0,2023,6,7,15,34,31,299
42.89730,-0.23730,0.24465,0.00000,0.03343,0.97990,-0.18800,0.0,2023,6,7,15,34,32,309
42.89740,0.13020,-0.05285,0.00000,0.03416,0.97600,-0.18983,0.0,2023,6,7,15,34,32,319
42.89750,0.02520,-0.19285,0.00000,0.03270,0.97502,-0.18922,0.0,2023,6,7,15,34,32,329
42.89760,0.00770,0.10465,0.00000,0.03087,0.97649,-0.18971,0.0,2023,6,7,15,34,32,339
42.89770,0.07770,-0.12285,0.00000,0.03331,0.97722,-0.18727,0.0,2023,6,7,15,34,32,349
42.89780,-0.11480,0.26215,0.00000,0.03331,0.97441,-0.18825,0.0,2023,6,7,15,34,32,359
42.89790,-0.23730,0.08715,0.00000,0.03416,0.97649,-0.18837,0.0,2023,6,7,15,34,32,369
42.89800,-0.20230,-0.05285,0.00000,0.03233,0.97771,-0.18739,0.0,2023,6,7,15,34,32,379
42.89810,-0.11480,0.01715,0.00000,0.03148,0.97441,-0.18898,0.0,2023,6,7,15,34,32,389
42.89820,-0.02730,-0.01785,0.00000,0.03111,0.97502,-0.18825,0.0,2023,6,7,15,34,32,399
42.89830,-0.27230,0.08715,0.00000,0.03111,0.97795,-0.18825,0.0,2023,6,7,15,34,32,409
42.89840,0.00770,0.13965,0.00000,0.03282,0.97624,-0.18873,0.0,2023,6,7,15,34,32,419
42.89850,0.02520,-0.03535,0.00000,0.03148,0.97393,-0.18764,0.0,2023,6,7,15,34,32,429
42.89860,-0.09730,-0.01785,0.00000,0.03050,0.97820,-0.18727,0.0,2023,6,7,15,34,32,439
42.89870,0.11270,-0.10535,0.00000,0.03416,0.97759,-0.18837,0.0,2023,6,7,15,34,32,449
42.89880,-0.00980,0.10465,0.00000,0.03026,0.97624,-0.18971,0.0,2023,6,7,15,34,32,459
42.89890,-0.18480,0.10465,0.00000,0.03209,0.97612,-0.18934,0.0,2023,6,7,15,34,32,469
42.89900,0.07770,-0.01785,0.00000,0.03209,0.97746,-0.18910,0.0,2023,6,7,15,34,32,479
42.89910,0.06020,0.01715,0.00000,0.03099,0.97612,-0.18947,0.0,2023,6,7,15,34,32,489
42.89920,0.02520,-0.01785,0.00000,0.03160,0.97673,-0.18825,0.0,2023,6,7,15,34,32,499
42.89930,0.09520,-0.01785,0.00000,0.03306,0.97856,-0.18910,0.0,2023,6,7,15,34,32,509
42.89940,-0.16730,-0.00035,0.00000,0.03087,0.97551,-0.18678,0.0,2023,6,7,15,34,32,519
42.89950,0.13020,-0.07035,0.00000,0.03172,0.97612,-0.18654,0.0,2023,6,7,15,34,32,529
42.89960,-0.02730,-0.19285,0.00000,0.03087,0.97807,-0.18739,0.0,2023,6,7,15,34,32,539
42.89970,0.16520,-0.17535,0.00000,0.03233,0.97454,-0.18654,0.0,2023,6,7,15,34,32,549
42.89980,-0.14980,0.03465,0.00000,0.02989,0.97637,-0.19178,0.0,2023,6,7,15,34,32,559
42.89990,0.06020,0.01715,0.00000,0.03135,0.97466,-0.18922,0.0,2023,6,7,15,34,32,569
42.90000,0.07770,-0.01785,0.00000,0.03062,0.97405,-0.18861,0.0,2023,6,7,15,34,32,579
42.90010,0.14770,-0.03535,0.00000,0.03123,0.97746,-0.18703,0.0,2023,6,7,15,34,32,589
42.90020,0.00770,-0.01785,0.00000,0.03123,0.97490,-0.18995,0.0,2023,6,7,15,34,32,599
42.90030,-0.06230,0.13965,0.00000,0.03148,0.97563,-0.18934,0.0,2023,6,7,15,34,32,609
42.90040,0.02520,-0.03535,0.00000,0.03331,0.97551,-0.18910,0.0,2023,6,7,15,34,32,619
42.90050,0.02520,-0.08785,0.00000,0.03087,0.97783,-0.19008,0.0,2023,6,7,15,34,32,629
42.90060,-0.02730,-0.07035,0.00000,0.03123,0.97649,-0.18922,0.0,2023,6,7,15,34,32,639
42.90070,0.18270,0.01715,0.00000,0.03160,0.97722,-0.18995,0.0,2023,6,7,15,34,32,649
42.90080,0.04270,0.01715,0.00000,0.03367,0.97820,-0.18764,0.0,2023,6,7,15,34,32,659
42.90090,0.04270,0.26215,0.00000,0.03282,0.97746,-0.18727,0.0,2023,6,7,15,34,32,669
42.90100,-0.21980,0.06965,0.00000,0.03221,0.97515,-0.18971,0.0,2023,6,7,15,34,32,679
42.90110,-0.07980,-0.01785,0.00000,0.03062,0.97478,-0.18898,0.0,2023,6,7,15,34,32,689
42.90120,0.16520,-0.05285,0.00000,0.03087,0.97649,-0.18898,0.0,2023,6,7,15,34,32,699
42.90130,-0.16730,-0.14035,0.00000,0.03257,0.97588,-0.18861,0.0,2023,6,7,15,34,32,709
42.90140,-0.06230,-0.00035,0.00000,0.03196,0.97746,-0.19191,0.0,2023,6,7,15,34,32,719
42.90150,-0.07980,0.03465,0.00000,0.02977,0.97710,-0.19081,0.0,2023,6,7,15,34,32,729
42.90160,-0.00980,-0.00035,0.00000,0.03111,0.97685,-0.19069,0.0,2023,6,7,15,34,32,739
42.90170,0.09520,0.01715,0.00000,0.03148,0.97649,-0.18764,0.0,2023,6,7,15,34,32,749
42.90180,-0.16730,0.10465,0.00000,0.03416,0.97624,-0.18812,0.0,2023,6,7,15,34,32,759
42.90190,0.06020,0.10465,0.00000,0.03343,0.97734,-0.19203,0.0,2023,6,7,15,34,32,769
42.90200,0.06020,0.03465,0.00000,0.03111,0.97429,-0.18715,0.0,2023,6,7,15,34,32,779
42.90210,-0.04480,-0.01785,0.00000,0.03245,0.97844,-0.18995,0.0,2023,6,7,15,34,32,789
42.90220,-0.21980,0.15715,0.00000,0.02965,0.97563,-0.18837,0.0,2023,6,7,15,34,32,799
42.90230,-0.06230,-0.01785,0.00000,0.03172,0.97722,-0.18690,0.0,2023,6,7,15,34,32,809
42.90240,0.09520,-0.17535,0.00000,0.02782,0.97612,-0.19069,0.0,2023,6,7,15,34,32,819
42.90250,-0.04480,-0.07035,0.00000,0.03050,0.97783,-0.19020,0.0,2023,6,7,15,34,32,829
42.90260,0.07770,0.06965,0.00000,0.03257,0.97417,-0.18910,0.0,2023,6,7,15,34,32,839
42.90270,-0.27230,0.10465,0.00000,0.03026,0.97844,-0.18812,0.0,2023,6,7,15,34,32,849
42.90280,0.09520,0.06965,0.00000,0.03135,0.97576,-0.18776,0.0,2023,6,7,15,34,32,859
42.90290,-0.18480,-0.00035,0.00000,0.03062,0.97710,-0.18690,0.0,2023,6,7,15,34,32,869
42.90300,-0.07980,0.12215,0.00000,0.03038,0.97527,-0.18922,0.0,2023,6,7,15,34,32,879
42.90310,-0.23730,0.03465,0.00000,0.03062,0.97454,-0.18947,0.0,2023,6,7,15,34,32,889
42.90320,0.02520,-0.03535,0.00000,0.03160,0.97454,-0.18751,0.0,2023,6,7,15,34,32,899
42.90330,-0.00980,0.08715,0.00000,0.03306,0.97661,-0.18812,0.0,2023,6,7,15,34,32,909
42.90340,-0.16730,-0.01785,0.00000,0.03013,0.97441,-0.18849,0.0,2023,6,7,15,34,32,919
42.90350,-0.04480,0.12215,0.00000,0.03160,0.97588,-0.18861,0.0,2023,6,7,15,34,32,929
42.90360,0.20020,-0.00035,0.00000,0.03148,0.97832,-0.18715,0.0,2023,6,7,15,34,32,939
42.90370,0.20020,0.06965,0.00000,0.03062,0.97771,-0.18678,0.0,2023,6,7,15,34,32,949
42.90380,0.07770,-0.10535,0.00000,0.02989,0.97637,-0.18886,0.0,2023,6,7,15,34,32,959
42.90390,0.07770,-0.03535,0.00000,0.02989,0.97917,-0.18776,0.0,2023,6,7,15,34,32,969
42.90400,-0.06230,0.01715,0.00000,0.03172,0.97502,-0.19093,0.0,2023,6,7,15,34,32,979
42.90410,0.00770,-0.08785,0.00000,0.03123,0.97685,-0.18910,0.0,2023,6,7,15,34,32,989
42.90420,-0.09730,0.03465,0.00000,0.03282,0.97612,-0.18751,0.0,2023,6,7,15,34,32,999
42.90430,-0.06230,-0.05285,0.00000,0.03477,0.97661,-0.18922,0.0,2023,6,7,15,34,32,9
42.90440,0.02520,0.03465,0.00000,0.03367,0.97515,-0.18812,0.0,2023,6,7,15,34,32,19
42.90450,0.06020,0.03465,0.00000,0.03196,0.97673,-0.18959,0.0,2023,6,7,15,34,32,29
42.90460,-0.25480,-0.05285,0.00000,0.03135,0.97624,-0.18666,0.0,2023,6,7,15,34,32,39
42.90470,-0.02730,0.12215,0.00000,0.03123,0.97624,-0.18849,0.0,2023,6,7,15,34,32,49
42.90480,0.06020,-0.01785,0.00000,0.03111,0.97502,-0.18788,0.0,2023,6,7,15,34,32,59
42.90490,0.04270,0.01715,0.00000,0.03087,0.97795,-0.18922,0.0,2023,6,7,15,34,32,69
42.90500,-0.07980,0.06965,0.00000,0.03038,0.97515,-0.18995,0.0,2023,6,7,15,34,32,79
42.90510,-0.20230,0.17465,0.00000,0.03135,0.97917,-0.18825,0.0,2023,6,7,15,34,32,89
42.90520,-0.21980,0.15715,0.00000,0.03294,0.97783,-0.18727,0.0,2023,6,7,15,34,32,99
42.90530,0.11270,0.05215,0.00000,0.03282,0.97722,-0.18910,0.0,2023,6,7,15,34,32,109
42.90540,-0.18480,0.10465,0.00000,0.03123,0.97710,-0.18873,0.0,2023,6,7,15,34,32,119
42.90550,0.04270,0.03465,0.00000,0.03123,0.97624,-0.18642,0.0,2023,6,7,15,34,32,129
42.90560,-0.04480,0.08715,0.00000,0.03355,0.97649,-0.18690,0.0,2023,6,7,15,34,32,139
42.90570,0.06020,0.06965,0.00000,0.03038,0.97637,-0.18666,0.0,2023,6,7,15,34,32,149
42.90580,-0.02730,-0.00035,0.00000,0.03050,0.97380,-0.18849,0.0,2023,6,7,15,34,32,159
42.90590,0.13020,0.27965,0.00000,0.03184,0.97722,-0.19020,0.0,2023,6,7,15,34,32,169
42.90600,-0.02730,0.15715,0.00000,0.03148,0.97478,-0.19020,0.0,2023,6,7,15,34,32,179
42.90610,-0.11480,0.06965,0.00000,0.02977,0.97637,-0.19154,0.0,2023,6,7,15,34,32,189
42.90620,0.00770,0.19215,0.00000,0.03245,0.97661,-0.18788,0.0,2023,6,7,15,34,33,199
42.90630,-0.09730,0.03465,0.00000,0.03148,0.97722,-0.19069,0.0,2023,6,7,15,34,33,209
42.90640,0.02520,0.20965,0.00000,0.03111,0.97637,-0.18886,0.0,2023,6,7,15,34,33,219
42.90650,0.04270,-0.21035,0.00000,0.03001,0.97600,-0.18825,0.0,2023,6,7,15,34,33,229
42.90660,-0.13230,0.13965,0.00000,0.03135,0.97649,-0.18898,0.0,2023,6,7,15,34,33,239
42.90670,-0.07980,-0.00035,0.00000,0.03221,0.97771,-0.18861,0.0,2023,6,7,15,34,33,249
42.90680,0.23520,-0.03535,0.00000,0.03123,0.97917,-0.18873,0.0,2023,6,7,15,34,33,259
42.90690,0.07770,0.13965,0.00000,0.03257,0.97600,-0.18886,0.0,2023,6,7,15,34,33,269
42.90700,-0.06230,-0.05285,0.00000,0.03318,0.97502,-0.18678,0.0,2023,6,7,15,34,33,279
42.90710,0.11270,0.03465,0.00000,0.03343,0.97722,-0.19081,0.0,2023,6,7,15,34,33,289
42.90720,-0.02730,-0.14035,0.00000,0.03282,0.97771,-0.18837,0.0,2023,6,7,15,34,33,299
42.90730,-0.06230,0.13965,0.00000,0.03257,0.97612,-0.18837,0.0,2023,6,7,15,34,33,309
42.90740,-0.14980,0.01715,0.00000,0.03270,0.97746,-0.18776,0.0,2023,6,7,15,34,33,319
42.90750,0.13020,-0.17535,0.00000,0.03172,0.97917,-0.18703,0.0,2023,6,7,15,34,33,329
42.90760,-0.04480,0.10465,0.00000,0.03355,0.97698,-0.18861,0.0,2023,6,7,15,34,33,339
42.90770,0.14770,0.08715,0.00000,0.03184,0.97612,-0.18849,0.0,2023,6,7,15,34,33,349
42.90780,0.02520,0.15715,0.00000,0.03245,0.97637,-0.18873,0.0,2023,6,7,15,34,33,359
42.90790,-0.00980,0.27965,0.00000,0.03233,0.97868,-0.19020,0.0,2023,6,7,15,34,33,369
42.90800,-0.07980,-0.00035,0.00000,0.03123,0.97515,-0.18666,0.0,2023,6,7,15,34,33,379
42.90810,0.00770,-0.07035,0.00000,0.03209,0.97722,-0.18886,0.0,2023,6,7,15,34,33,389
42.90820,-0.20230,-0.07035,0.00000,0.03306,0.97710,-0.18764,0.0,2023,6,7,15,34,33,399
42.90830,0.00770,-0.08785,0.00000,0.03062,0.97551,-0.18764,0.0,2023,6,7,15,34,33,409
42.90840,-0.09730,-0.10535,0.00000,0.03367,0.97515,-0.18873,0.0,2023,6,7,15,34,33,419
42.90850,-0.02730,-0.07035,0.00000,0.03050,0.97832,-0.19081,0.0,2023,6,7,15,34,33,429
42.90860,-0.00980,0.03465,0.00000,0.03209,0.97820,-0.19044,0.0,2023,6,7,15,34,33,439
42.90870,-0.04480,-0.15785,0.00000,0.03379,0.97649,-0.18739,0.0,2023,6,7,15,34,33,449
42.90880,-0.02730,0.15715,0.00000,0.03221,0.97612,-0.18861,0.0,2023,6,7,15,34,33,459
42.90890,-0.13230,-0.01785,0.00000,0.03294,0.97734,-0.18788,0.0,2023,6,7,15,34,33,469
42.90900,-0.13230,0.08715,0.00000,0.02830,0.97685,-0.18825,0.0,2023,6,7,15,34,33,479
42.90910,0.13020,-0.00035,0.00000,0.03087,0.97600,-0.19020,0.0,2023,6,7,15,34,33,489
42.90920,0.04270,0.06965,0.00000,0.03148,0.97466,-0.19154,0.0,2023,6,7,15,34,33,499
42.90930,-0.11480,-0.00035,0.00000,0.03184,0.97441,-0.18800,0.0,2023,6,7,15,34,33,509
42.90940,0.13020,-0.08785,0.00000,0.03209,0.97600,-0.18788,0.0,2023,6,7,15,34,33,519
42.90950,0.04270,-0.03535,0.00000,0.03111,0.97588,-0.18825,0.0,2023,6,7,15,34,33,529
42.90960,-0.00980,-0.01785,0.00000,0.03306,0.97588,-0.18678,0.0,2023,6,7,15,34,33,539
42.90970,-0.14980,-0.01785,0.00000,0.03123,0.97734,-0.18971,0.0,2023,6,7,15,34,33,549
42.90980,-0.00980,-0.15785,0.00000,0.03184,0.97478,-0.18654,0.0,2023,6,7,15,34,33,559
42.90990,-0.00980,0.15715,0.00000,0.03184,0.97795,-0.18800,0.0,2023,6,7,15,34,33,569
42.91000,0.06020,0.05215,0.00000,0.03318,0.97539,-0.18995,0.0,2023,6,7,15,34,33,579
42.91010,-0.06230,-0.05285,0.00000,0.03160,0.97685,-0.18800,0.0,2023,6,7,15,34,33,589
42.91020,-0.14980,0.06965,0.00000,0.03099,0.97563,-0.18812,0.0,2023,6,7,15,34,33,599
42.91030,0.14770,0.01715,0.00000,0.03343,0.97734,-0.18995,0.0,2023,6,7,15,34,33,609
42.91040,-0.27230,-0.00035,0.00000,0.03135,0.97624,-0.18861,0.0,2023,6,7,15,34,33,619
42.91050,-0.02730,0.01715,0.00000,0.02794,0.97673,-0.18739,0.0,2023,6,7,15,34,33,629
42.91060,0.06020,-0.07035,0.00000,0.03123,0.97429,-0.18727,0.0,2023,6,7,15,34,33,639
42.91070,-0.20230,0.15715,0.00000,0.03233,0.97771,-0.18849,0.0,2023,6,7,15,34,33,649
42.91080,-0.28980,0.05215,0.00000,0.03233,0.97612,-0.18812,0.0,2023,6,7,15,34,33,659
42.91090,-0.09730,-0.08785,0.00000,0.03026,0.97685,-0.18764,0.0,2023,6,7,15,34,33,669
42.91100,-0.13230,-0.05285,0.00000,0.03294,0.97600,-0.18678,0.0,2023,6,7,15,34,33,679
42.91110,0.09520,-0.05285,0.00000,0.03221,0.97539,-0.18849,0.0,2023,6,7,15,34,33,689
42.91120,-0.13230,0.06965,0.00000,0.03257,0.97734,-0.18739,0.0,2023,6,7,15,34,33,699
42.91130,0.11270,0.15715,0.00000,0.03270,0.97759,-0.18812,0.0,2023,6,7,15,34,33,709
42.91140,-0.00980,-0.19285,0.00000,0.03294,0.97441,-0.18910,0.0,2023,6,7,15,34,33,719
42.91150,0.16520,0.03465,0.00000,0.03013,0.97502,-0.19142,0.0,2023,6,7,15,34,33,729
42.91160,-0.07980,0.03465,0.00000,0.03099,0.97441,-0.18873,0.0,2023,6,7,15,34,33,739
42.91170,0.09520,0.19215,0.00000,0.02867,0.97698,-0.18751,0.0,2023,6,7,15,34,33,749
42.91180,0.18270,0.08715,0.00000,0.03148,0.97576,-0.18861,0.0,2023,6,7,15,34,33,759
42.91190,-0.21980,0.19215,0.00000,0.03038,0.97673,-0.19020,0.0,2023,6,7,15,34,33,769
42.91200,0.07770,0.10465,0.00000,0.03038,0.97637,-0.18788,0.0,2023,6,7,15,34,33,779
42.91210,-0.18480,-0.01785,0.00000,0.03209,0.97734,-0.19008,0.0,2023,6,7,15,34,33,789
42.91220,0.04270,0.06965,0.00000,0.03062,0.97661,-0.18764,0.0,2023,6,7,15,34,33,799
42.91230,0.16520,-0.10535,0.00000,0.03111,0.97673,-0.18617,0.0,2023,6,7,15,34,33,809
42.91240,0.13020,0.05215,0.00000,0.03062,0.97734,-0.18800,0.0,2023,6,7,15,34,33,819
42.91250,-0.06230,0.05215,0.00000,0.03221,0.97612,-0.18629,0.0,2023,6,7,15,34,33,829
42.91260,0.04270,0.15715,0.00000,0.03135,0.97515,-0.18934,0.0,2023,6,7,15,34,33,839
42.91270,0.07770,-0.03535,0.00000,0.03209,0.97832,-0.19056,0.0,2023,6,7,15,34,33,849
42.91280,-0.07980,-0.07035,0.00000,0.03172,0.97600,-0.18886,0.0,2023,6,7,15,34,33,859
42.91290,-0.06230,0.15715,0.00000,0.03233,0.97576,-0.19105,0.0,2023,6,7,15,34,33,869
42.91300,-0.00980,0.03465,0.00000,0.03074,0.97527,-0.19081,0.0,2023,6,7,15,34,33,879
42.91310,0.16520,-0.10535,0.00000,0.03367,0.97685,-0.18739,0.0,2023,6,7,15,34,33,889
42.91320,0.00770,-0.10535,0.00000,0.03233,0.97710,-0.18751,0.0,2023,6,7,15,34,33,899
42.91330,0.00770,-0.10535,0.00000,0.03135,0.97539,-0.18886,0.0,2023,6,7,15,34,33,909
42.91340,-0.04480,0.24465,0.00000,0.03099,0.97539,-0.18947,0.0,2023,6,7,15,34,33,919
42.91350,0.02520,0.03465,0.00000,0.03123,0.97734,-0.18715,0.0,2023,6,7,15,34,33,929
42.91360,0.09520,-0.00035,0.00000,0.03294,0.97710,-0.18910,0.0,2023,6,7,15,34,33,939
42.91370,-0.20230,0.12215,0.00000,0.03172,0.97795,-0.18812,0.0,2023,6,7,15,34,33,949
42.91380,0.13020,-0.14035,0.00000,0.02977,0.97783,-0.18751,0.0,2023,6,7,15,34,33,959
42.91390,-0.09730,-0.03535,0.00000,0.03221,0.97795,-0.18947,0.0,2023,6,7,15,34,33,969
42.91400,-0.09730,0.20965,0.00000,0.03050,0.97417,-0.18703,0.0,2023,6,7,15,34,33,979
42.91410,-0.04480,0.01715,0.00000,0.03184,0.97612,-0.18849,0.0,2023,6,7,15,34,33,989
42.91420,-0.02730,0.03465,0.00000,0.03233,0.97771,-0.18873,0.0,2023,6,7,15,34,33,999
42.91430,-0.00980,-0.24535,0.00000,0.03306,0.97527,-0.18751,0.0,2023,6,7,15,34,33,9
42.91440,0.07770,0.06965,0.00000,0.03306,0.97649,-0.18678,0.0,2023,6,7,15,34,33,19
42.91450,-0.00980,0.03465,0.00000,0.03026,0.97490,-0.18886,0.0,2023,6,7,15,34,33,29
42.91460,0.11270,-0.01785,0.00000,0.03099,0.97661,-0.18861,0.0,2023,6,7,15,34,33,39
42.91470,0.35770,-0.01785,0.00000,0.03074,0.97478,-0.18861,0.0,2023,6,7,15,34,33,49
42.91480,0.16520,0.03465,0.00000,0.03123,0.97771,-0.18727,0.0,2023,6,7,15,34,33,59
42.91490,0.16520,-0.07035,0.00000,0.03184,0.97588,-0.19008,0.0,2023,6,7,15,34,33,69
42.91500,-0.07980,0.12215,0.00000,0.03135,0.97515,-0.18886,0.0,2023,6,7,15,34,33,79
42.91510,-0.13230,0.05215,0.00000,0.03135,0.97649,-0.18983,0.0,2023,6,7,15,34,33,89
42.91520,0.20020,-0.19285,0.00000,0.03245,0.97722,-0.18727,0.0,2023,6,7,15,34,34,99
42.91530,-0.14980,-0.15785,0.00000,0.03050,0.97624,-0.18751,0.0,2023,6,7,15,34,34,109
42.91540,0.07770,-0.07035,0.00000,0.03172,0.97649,-0.18849,0.0,2023,6,7,15,34,34,119
42.91550,0.02520,-0.14035,0.00000,0.03172,0.97295,-0.18922,0.0,2023,6,7,15,34,34,129
42.91560,-0.09730,-0.03535,0.00000,0.03038,0.97539,-0.18849,0.0,2023,6,7,15,34,34,139
42.91570,-0.00980,0.05215,0.00000,0.03074,0.97771,-0.18873,0.0,2023,6,7,15,34,34,149
42.91580,-0.09730,-0.07035,0.00000,0.03245,0.97612,-0.18690,0.0,2023,6,7,15,34,34,159
42.91590,-0.02730,0.05215,0.00000,0.03123,0.97405,-0.18727,0.0,2023,6,7,15,34,34,169
42.91600,-0.04480,0.22715,0.00000,0.03184,0.97905,-0.18898,0.0,2023,6,7,15,34,34,179
42.91610,0.13020,-0.05285,0.00000,0.03209,0.97673,-0.18898,0.0,2023,6,7,15,34,34,189
42.91620,-0.16730,-0.01785,0.00000,0.03001,0.97673,-0.18715,0.0,2023,6,7,15,34,34,199
42.91630,-0.07980,-0.08785,0.00000,0.03087,0.97563,-0.18995,0.0,2023,6,7,15,34,34,209
42.91640,0.13020,-0.00035,0.00000,0.03209,0.97454,-0.18886,0.0,2023,6,7,15,34,34,219
42.91650,-0.06230,0.24465,0.00000,0.02904,0.97539,-0.18764,0.0,2023,6,7,15,34,34,229
42.91660,0.04270,-0.12285,0.00000,0.03001,0.97820,-0.19020,0.0,2023,6,7,15,34,34,239
42.91670,-0.06230,0.05215,0.00000,0.03050,0.97576,-0.18849,0.0,2023,6,7,15,34,34,249
42.91680,-0.14980,-0.03535,0.00000,0.03026,0.97685,-0.18873,0.0,2023,6,7,15,34,34,259
42.91690,-0.18480,0.06965,0.00000,0.03355,0.97844,-0.18800,0.0,2023,6,7,15,34,34,269
42.91700,-0.14980,0.17465,0.00000,0.03294,0.97624,-0.18739,0.0,2023,6,7,15,34,34,279
42.91710,-0.00980,-0.05285,0.00000,0.03111,0.97600,-0.19178,0.0,2023,6,7,15,34,34,289
42.91720,-0.21980,0.40215,0.00000,0.03331,0.97746,-0.18922,0.0,2023,6,7,15,34,34,299
42.91730,-0.09730,0.12215,0.00000,0.03013,0.97698,-0.19178,0.0,2023,6,7,15,34,34,309
42.91740,0.20020,0.08715,0.00000,0.03013,0.97624,-0.18727,0.0,2023,6,7,15,34,34,319
42.91750,0.06020,0.06965,0.00000,0.02989,0.97649,-0.19166,0.0,2023,6,7,15,34,34,329
42.91760,-0.09730,0.17465,0.00000,0.03257,0.97868,-0.18666,0.0,2023,6,7,15,34,34,339
42.91770,0.09520,0.03465,0.00000,0.03355,0.97478,-0.18861,0.0,2023,6,7,15,34,34,349
42.91780,-0.06230,-0.26285,0.00000,0.03135,0.97698,-0.18837,0.0,2023,6,7,15,34,34,359
42.91790,0.13020,-0.03535,0.00000,0.03367,0.97649,-0.19056,0.0,2023,6,7,15,34,34,369
42.91800,0.00770,-0.05285,0.00000,0.03257,0.97746,-0.18776,0.0,2023,6,7,15,34,34,379
42.91810,-0.02730,0.06965,0.00000,0.03074,0.97710,-0.18764,0.0,2023,6,7,15,34,34,389
42.91820,-0.06230,-0.08785,0.00000,0.02965,0.97771,-0.18947,0.0,2023,6,7,15,34,34,399
42.91830,0.06020,0.01715,0.00000,0.03196,0.97478,-0.19032,0.0,2023,6,7,15,34,34,409
42.91840,-0.06230,0.06965,0.00000,0.02891,0.97783,-0.19008,0.0,2023,6,7,15,34,34,419
42.91850,-0.13230,0.15715,0.00000,0.03331,0.97734,-0.18751,0.0,2023,6,7,15,34,34,429
42.91860,-0.02730,-0.08785,0.00000,0.03135,0.97612,-0.18715,0.0,2023,6,7,15,34,34,439
42.91870,-0.09730,0.13965,0.00000,0.03257,0.97722,-0.18971,0.0,2023,6,7,15,34,34,449
42.91880,-0.02730,-0.05285,0.00000,0.03209,0.97868,-0.18873,0.0,2023,6,7,15,34,34,459
42.91890,-0.20230,0.01715,0.00000,0.03294,0.97710,-0.18849,0.0,2023,6,7,15,34,34,469
42.91900,0.09520,0.03465,0.00000,0.03111,0.97783,-0.18995,0.0,2023,6,7,15,34,34,479
42.91910,-0.04480,0.12215,0.00000,0.03074,0.97478,-0.19069,0.0,2023,6,7,15,34,34,489
42.91920,0.13020,0.12215,0.00000,0.03160,0.97746,-0.19117,0.0,2023,6,7,15,34,34,499
42.91930,0.02520,-0.07035,0.00000,0.03270,0.97746,-0.18751,0.0,2023,6,7,15,34,34,509
42.91940,-0.07980,0.03465,0.00000,0.03282,0.97649,-0.19032,0.0,2023,6,7,15,34,34,519
42.91950,0.02520,-0.08785,0.00000,0.03013,0.97673,-0.18922,0.0,2023,6,7,15,34,34,529
42.91960,-0.00980,-0.14035,0.00000,0.03123,0.97746,-0.18898,0.0,2023,6,7,15,34,34,539
42.91970,0.06020,0.06965,0.00000,0.03148,0.97795,-0.18715,0.0,2023,6,7,15,34,34,549
42.91980,0.14770,0.05215,0.00000,0.03270,0.97490,-0.18825,0.0,2023,6,7,15,34,34,559
42.91990,0.07770,-0.17535,0.00000,0.03209,0.97551,-0.18910,0.0,2023,6,7,15,34,34,569
42.92000,-0.09730,-0.07035,0.00000,0.03013,0.97795,-0.18971,0.0,2023,6,7,15,34,34,579
42.92010,-0.11480,0.12215,0.00000,0.03257,0.97551,-0.19020,0.0,2023,6,7,15,34,34,589
42.92020,0.06020,0.01715,0.00000,0.03148,0.97673,-0.18776,0.0,2023,6,7,15,34,34,599
42.92030,0.13020,0.08715,0.00000,0.02952,0.97722,-0.19081,0.0,2023,6,7,15,34,34,609
42.92040,0.04270,0.03465,0.00000,0.03282,0.97685,-0.18995,0.0,2023,6,7,15,34,34,619
42.92050,-0.07980,-0.14035,0.00000,0.03148,0.97685,-0.18788,0.0,2023,6,7,15,34,34,629
42.92060,0.09520,-0.01785,0.00000,0.03221,0.97417,-0.18898,0.0,2023,6,7,15,34,34,639
42.92070,-0.07980,-0.12285,0.00000,0.03367,0.97673,-0.18642,0.0,2023,6,7,15,34,34,649
42.92080,-0.00980,0.08715,0.00000,0.03135,0.97527,-0.18934,0.0,2023,6,7,15,34,34,659
42.92090,0.07770,-0.05285,0.00000,0.03379,0.97563,-0.19178,0.0,2023,6,7,15,34,34,669
42.92100,-0.18480,-0.07035,0.00000,0.03245,0.97637,-0.18764,0.0,2023,6,7,15,34,34,679
42.92110,0.02520,-0.03535,0.00000,0.03013,0.97649,-0.18861,0.0,2023,6,7,15,34,34,689
42.92120,0.11270,0.13965,0.00000,0.03196,0.97710,-0.18861,0.0,2023,6,7,15,34,34,699
42.92130,-0.06230,0.13965,0.00000,0.03245,0.97551,-0.19105,0.0,2023,6,7,15,34,34,709
42.92140,-0.13230,-0.03535,0.00000,0.03257,0.97612,-0.18751,0.0,2023,6,7,15,34,34,719
42.92150,0.02520,-0.19285,0.00000,0.03331,0.97856,-0.19020,0.0,2023,6,7,15,34,34,729
42.92160,-0.20230,0.19215,0.00000,0.03172,0.97698,-0.18873,0.0,2023,6,7,15,34,34,739
42.92170,0.02520,-0.08785,0.00000,0.03111,0.97722,-0.18922,0.0,2023,6,7,15,34,34,749
42.92180,-0.00980,0.08715,0.00000,0.03172,0.97795,-0.18727,0.0,2023,6,7,15,34,34,759
42.92190,0.13020,0.05215,0.00000,0.03050,0.97576,-0.18849,0.0,2023,6,7,15,34,34,769
42.92200,-0.00980,-0.12285,0.00000,0.03184,0.97722,-0.18934,0.0,2023,6,7,15,34,34,779
42.92210,0.00770,-0.03535,0.00000,0.03221,0.97673,-0.18715,0.0,2023,6,7,15,34,34,789
42.92220,0.00770,0.15715,0.00000,0.03514,0.97820,-0.19069,0.0,2023,6,7,15,34,34,799
42.92230,0.13020,0.10465,0.00000,0.03123,0.97637,-0.18788,0.0,2023,6,7,15,34,34,809
42.92240,-0.02730,0.05215,0.00000,0.03050,0.97576,-0.18703,0.0,2023,6,7,15,34,34,819
42.92250,-0.09730,-0.17535,0.00000,0.02977,0.97844,-0.18788,0.0,2023,6,7,15,34,34,829
42.92260,0.06020,0.12215,0.00000,0.03135,0.97441,-0.18727,0.0,2023,6,7,15,34,34,839
42.92270,-0.11480,0.10465,0.00000,0.02818,0.97685,-0.18776,0.0,2023,6,7,15,34,34,849
42.92280,0.00770,0.05215,0.00000,0.03196,0.97649,-0.18898,0.0,2023,6,7,15,34,34,859
42.92290,0.00770,0.10465,0.00000,0.03148,0.97734,-0.18971,0.0,2023,6,7,15,34,34,869
42.92300,0.11270,-0.01785,0.00000,0.03074,0.97527,-0.19020,0.0,2023,6,7,15,34,34,879
42.92310,-0.18480,0.13965,0.00000,0.03099,0.97368,-0.19008,0.0,2023,6,7,15,34,34,889
42.92320,-0.07980,-0.01785,0.00000,0.03026,0.97405,-0.18764,0.0,2023,6,7,15,34,34,899
42.92330,0.13020,-0.05285,0.00000,0.03453,0.97771,-0.18812,0.0,2023,6,7,15,34,34,909
42.92340,0.02520,0.05215,0.00000,0.03184,0.97551,-0.18873,0.0,2023,6,7,15,34,34,919
42.92350,0.02520,0.06965,0.00000,0.03148,0.97661,-0.19020,0.0,2023,6,7,15,34,34,929
42.92360,0.13020,-0.00035,0.00000,0.03026,0.97515,-0.18800,0.0,2023,6,7,15,34,34,939
42.92370,0.14770,-0.10535,0.00000,0.03074,0.97722,-0.18910,0.0,2023,6,7,15,34,34,949
42.92380,0.21770,0.03465,0.00000,0.02940,0.97771,-0.18898,0.0,2023,6,7,15,34,34,959
42.92390,-0.07980,-0.05285,0.00000,0.03184,0.97685,-0.18788,0.0,2023,6,7,15,34,34,969
42.92400,-0.09730,0.17465,0.00000,0.03135,0.97356,-0.18971,0.0,2023,6,7,15,34,35,979
42.92410,0.00770,0.01715,0.00000,0.03306,0.97600,-0.18910,0.0,2023,6,7,15,34,35,989
42.92420,-0.02730,0.20965,0.00000,0.02830,0.97600,-0.19020,0.0,2023,6,7,15,34,35,999
42.92430,-0.20230,0.08715,0.00000,0.03172,0.97539,-0.18947,0.0,2023,6,7,15,34,35,9
42.92440,-0.14980,0.01715,0.00000,0.03111,0.97490,-0.18849,0.0,2023,6,7,15,34,35,19
42.92450,0.02520,0.08715,0.00000,0.03270,0.97685,-0.18934,0.0,2023,6,7,15,34,35,29
42.92460,-0.16730,0.01715,0.00000,0.03038,0.97490,-0.18947,0.0,2023,6,7,15,34,35,39
42.92470,0.04270,-0.12285,0.00000,0.03221,0.97563,-0.18800,0.0,2023,6,7,15,34,35,49
42.92480,-0.14980,0.10465,0.00000,0.03306,0.97722,-0.19069,0.0,2023,6,7,15,34,35,59
42.92490,-0.11480,-0.12285,0.00000,0.03233,0.97417,-0.18947,0.0,2023,6,7,15,34,35,69
42.92500,-0.11480,0.22715,0.00000,0.03062,0.97527,-0.18825,0.0,2023,6,7,15,34,35,79
42.92510,-0.20230,0.06965,0.00000,0.03062,0.97527,-0.18837,0.0,2023,6,7,15,34,35,89
42.92520,0.07770,0.03465,0.00000,0.03233,0.97612,-0.18959,0.0,2023,6,7,15,34,35,99
42.92530,-0.04480,0.19215,0.00000,0.03026,0.97661,-0.18642,0.0,2023,6,7,15,34,35,109
42.92540,-0.07980,-0.14035,0.00000,0.03282,0.97698,-0.18812,0.0,2023,6,7,15,34,35,119
42.92550,0.18270,-0.12285,0.00000,0.03184,0.97746,-0.18959,0.0,2023,6,7,15,34,35,129
42.92560,0.07770,-0.05285,0.00000,0.03160,0.97637,-0.18837,0.0,2023,6,7,15,34,35,139
42.92570,0.04270,0.06965,0.00000,0.03233,0.97710,-0.18873,0.0,2023,6,7,15,34,35,149
42.92580,0.13020,0.08715,0.00000,0.03257,0.97563,-0.18666,0.0,2023,6,7,15,34,35,159
42.92590,-0.07980,0.10465,0.00000,0.03282,0.97563,-0.18959,0.0,2023,6,7,15,34,35,169
42.92600,0.06020,-0.05285,0.00000,0.03270,0.97746,-0.18556,0.0,2023,6,7,15,34,35,179
42.92610,0.04270,-0.05285,0.00000,0.03233,0.97502,-0.18825,0.0,2023,6,7,15,34,35,189
42.92620,-0.07980,0.08715,0.00000,0.02977,0.97710,-0.19008,0.0,2023,6,7,15,34,35,199
42.92630,-0.00980,-0.03535,0.00000,0.03135,0.97734,-0.18849,0.0,2023,6,7,15,34,35,209
42.92640,-0.02730,0.01715,0.00000,0.03148,0.97637,-0.18959,0.0,2023,6,7,15,34,35,219
42.92650,-0.06230,0.13965,0.00000,0.03111,0.97356,-0.18812,0.0,2023,6,7,15,34,35,229
42.92660,-0.11480,-0.08785,0.00000,0.03160,0.97539,-0.18837,0.0,2023,6,7,15,34,35,239
42.92670,-0.13230,-0.01785,0.00000,0.03331,0.97551,-0.18837,0.0,2023,6,7,15,34,35,249
42.92680,-0.23730,-0.01785,0.00000,0.03270,0.97746,-0.18788,0.0,2023,6,7,15,34,35,259
42.92690,-0.04480,-0.03535,0.00000,0.03379,0.97746,-0.18825,0.0,2023,6,7,15,34,35,269
42.92700,-0.00980,0.06965,0.00000,0.03294,0.97576,-0.18837,0.0,2023,6,7,15,34,35,279
42.92710,0.06020,0.15715,0.00000,0.03245,0.97576,-0.18800,0.0,2023,6,7,15,34,35,289
42.92720,0.13020,0.08715,0.00000,0.03160,0.97576,-0.18617,0.0,2023,6,7,15,34,35,299
42.92730,-0.02730,-0.01785,0.00000,0.03221,0.97441,-0.18715,0.0,2023,6,7,15,34,35,309
42.92740,-0.00980,0.13965,0.00000,0.03306,0.97746,-0.18898,0.0,2023,6,7,15,34,35,319
42.92750,-0.02730,0.05215,0.00000,0.03026,0.97539,-0.18959,0.0,2023,6,7,15,34,35,329
42.92760,0.09520,-0.05285,0.00000,0.02843,0.97600,-0.18739,0.0,2023,6,7,15,34,35,339
42.92770,-0.13230,-0.17535,0.00000,0.03062,0.97502,-0.18812,0.0,2023,6,7,15,34,35,349
42.92780,0.04270,-0.17535,0.00000,0.03331,0.98015,-0.18849,0.0,2023,6,7,15,34,35,359
42.92790,-0.06230,0.13965,0.00000,0.03001,0.97515,-0.18873,0.0,2023,6,7,15,34,35,369
42.92800,-0.20230,-0.08785,0.00000,0.03196,0.97771,-0.18837,0.0,2023,6,7,15,34,35,379
42.92810,0.00770,-0.07035,0.00000,0.03135,0.97637,-0.18849,0.0,2023,6,7,15,34,35,389
42.92820,0.02520,0.13965,0.00000,0.03233,0.97685,-0.18983,0.0,2023,6,7,15,34,35,399
42.92830,0.04270,-0.03535,0.00000,0.03050,0.97478,-0.18825,0.0,2023,6,7,15,34,35,409
42.92840,-0.09730,0.06965,0.00000,0.03001,0.97661,-0.18837,0.0,2023,6,7,15,34,35,419
42.92850,-0.14980,0.01715,0.00000,0.03013,0.97759,-0.18690,0.0,2023,6,7,15,34,35,429
42.92860,0.02520,0.06965,0.00000,0.03257,0.97515,-0.18800,0.0,2023,6,7,15,34,35,439
42.92870,0.07770,0.03465,0.00000,0.03160,0.97466,-0.18764,0.0,2023,6,7,15,34,35,449
42.92880,-0.20230,0.36715,0.00000,0.03038,0.97515,-0.18995,0.0,2023,6,7,15,34,35,459
42.92890,-0.02730,-0.17535,0.00000,0.03233,0.97771,-0.18934,0.0,2023,6,7,15,34,35,469
42.92900,0.13020,0.06965,0.00000,0.03111,0.97795,-0.18971,0.0,2023,6,7,15,34,35,479
42.92910,-0.09730,0.19215,0.00000,0.03038,0.97576,-0.18849,0.0,2023,6,7,15,34,35,489
42.92920,0.06020,-0.08785,0.00000,0.03318,0.97588,-0.18983,0.0,2023,6,7,15,34,35,499
42.92930,0.04270,0.12215,0.00000,0.03257,0.97624,-0.18910,0.0,2023,6,7,15,34,35,509
42.92940,0.07770,-0.00035,0.00000,0.03318,0.97685,-0.19044,0.0,2023,6,7,15,34,35,519
42.92950,-0.02730,0.01715,0.00000,0.03282,0.97600,-0.18739,0.0,2023,6,7,15,34,35,529
42.92960,-0.09730,0.13965,0.00000,0.03135,0.97417,-0.18739,0.0,2023,6,7,15,34,35,539
42.92970,0.11270,0.10465,0.00000,0.03209,0.97698,-0.18947,0.0,2023,6,7,15,34,35,549
42.92980,-0.02730,0.06965,0.00000,0.03184,0.97612,-0.18544,0.0,2023,6,7,15,34,35,559
42.92990,-0.02730,0.22715,0.00000,0.03184,0.97661,-0.18861,0.0,2023,6,7,15,34,35,569
42.93000,-0.09730,0.12215,0.00000,0.03196,0.97502,-0.18715,0.0,2023,6,7,15,34,35,579
42.93010,-0.13230,-0.08785,0.00000,0.03111,0.97588,-0.18837,0.0,2023,6,7,15,34,35,589
42.93020,0.06020,-0.08785,0.00000,0.02940,0.97600,-0.18898,0.0,2023,6,7,15,34,35,599
42.93030,-0.06230,0.27965,0.00000,0.03099,0.97637,-0.18520,0.0,2023,6,7,15,34,35,609
42.93040,-0.11480,0.12215,0.00000,0.03160,0.97588,-0.18715,0.0,2023,6,7,15,34,35,619
42.93050,0.14770,-0.05285,0.00000,0.03148,0.97515,-0.18642,0.0,2023,6,7,15,34,35,629
42.93060,0.07770,-0.05285,0.00000,0.03026,0.97515,-0.18934,0.0,2023,6,7,15,34,35,639
42.93070,0.11270,0.13965,0.00000,0.03245,0.97710,-0.19069,0.0,2023,6,7,15,34,35,649
42.93080,-0.00980,0.12215,0.00000,0.03294,0.97563,-0.18873,0.0,2023,6,7,15,34,35,659
42.93090,-0.16730,0.13965,0.00000,0.03306,0.97490,-0.18739,0.0,2023,6,7,15,34,35,669
42.93100,0.11270,-0.05285,0.00000,0.03123,0.97624,-0.18812,0.0,2023,6,7,15,34,35,679
42.93110,-0.02730,-0.01785,0.00000,0.03038,0.97673,-0.18800,0.0,2023,6,7,15,34,35,689
42.93120,-0.16730,-0.07035,0.00000,0.03416,0.97490,-0.18715,0.0,2023,6,7,15,34,35,699
42.93130,-0.06230,-0.05285,0.00000,0.03099,0.97563,-0.18825,0.0,2023,6,7,15,34,35,709
42.93140,0.11270,-0.08785,0.00000,0.03123,0.97881,-0.19044,0.0,2023,6,7,15,34,35,719
42.93150,-0.02730,-0.03535,0.00000,0.03050,0.97722,-0.18678,0.0,2023,6,7,15,34,35,729
42.93160,0.07770,0.01715,0.00000,0.03209,0.97478,-0.18995,0.0,2023,6,7,15,34,35,739
42.93170,-0.14980,0.03465,0.00000,0.02928,0.97576,-0.18703,0.0,2023,6,7,15,34,35,749
42.93180,0.00770,-0.03535,0.00000,0.03087,0.97588,-0.18788,0.0,2023,6,7,15,34,35,759
42.93190,-0.00980,-0.03535,0.00000,0.03123,0.97698,-0.18739,0.0,2023,6,7,15,34,35,769
42.93200,0.21770,0.12215,0.00000,0.03221,0.97576,-0.18776,0.0,2023,6,7,15,34,35,779
42.93210,-0.18480,0.19215,0.00000,0.03135,0.97759,-0.18727,0.0,2023,6,7,15,34,35,789
42.93220,-0.02730,0.05215,0.00000,0.03270,0.97649,-0.18849,0.0,2023,6,7,15,34,35,799
42.93230,0.11270,-0.07035,0.00000,0.03526,0.97759,-0.18959,0.0,2023,6,7,15,34,35,809
42.93240,0.14770,0.12215,0.00000,0.03062,0.97612,-0.18581,0.0,2023,6,7,15,34,35,819
42.93250,-0.28980,0.26215,0.00000,0.03184,0.97283,-0.18812,0.0,2023,6,7,15,34,35,829
42.93260,-0.02730,-0.17535,0.00000,0.03257,0.97588,-0.18678,0.0,2023,6,7,15,34,35,839
42.93270,0.09520,-0.07035,0.00000,0.03087,0.97685,-0.18629,0.0,2023,6,7,15,34,35,849
42.93280,-0.18480,0.13965,0.00000,0.03087,0.97698,-0.18898,0.0,2023,6,7,15,34,35,859
42.93290,-0.02730,0.12215,0.00000,0.03026,0.97795,-0.18898,0.0,2023,6,7,15,34,35,869
42.93300,0.04270,-0.03535,0.00000,0.02989,0.97698,-0.18971,0.0,2023,6,7,15,34,35,879
42.93310,-0.37730,0.24465,0.00000,0.02928,0.97820,-0.18727,0.0,2023,6,7,15,34,36,889
42.93320,0.07770,0.17465,0.00000,0.02940,0.97844,-0.18776,0.0,2023,6,7,15,34,36,899
42.93330,0.06020,-0.01785,0.00000,0.03099,0.97807,-0.18751,0.0,2023,6,7,15,34,36,909
42.93340,0.14770,-0.05285,0.00000,0.03404,0.97588,-0.18776,0.0,2023,6,7,15,34,36,919
42.93350,0.00770,-0.17535,0.00000,0.03111,0.97441,-0.18971,0.0,2023,6,7,15,34,36,929
42.93360,0.02520,-0.10535,0.00000,0.03209,0.97637,-0.18959,0.0,2023,6,7,15,34,36,939
42.93370,0.02520,0.01715,0.00000,0.03367,0.97612,-0.18873,0.0,2023,6,7,15,34,36,949
42.93380,-0.20230,0.06965,0.00000,0.03172,0.97673,-0.18593,0.0,2023,6,7,15,34,36,959
42.93390,0.00770,0.19215,0.00000,0.02965,0.97722,-0.19044,0.0,2023,6,7,15,34,36,969
42.93400,0.09520,-0.05285,0.00000,0.03026,0.97746,-0.18776,0.0,2023,6,7,15,34,36,979
42.93410,-0.06230,-0.12285,0.00000,0.03123,0.97563,-0.18666,0.0,2023,6,7,15,34,36,989
42.93420,0.11270,-0.01785,0.00000,0.03172,0.97783,-0.18849,0.0,2023,6,7,15,34,36,999
42.93430,0.06020,0.10465,0.00000,0.03318,0.97600,-0.18776,0.0,2023,6,7,15,34,36,9
42.93440,0.00770,0.29715,0.00000,0.03160,0.97624,-0.18690,0.0,2023,6,7,15,34,36,19
42.93450,0.04270,0.06965,0.00000,0.03331,0.97637,-0.18898,0.0,2023,6,7,15,34,36,29
42.93460,-0.09730,-0.08785,0.00000,0.03062,0.97685,-0.18788,0.0,2023,6,7,15,34,36,39
42.93470,0.04270,0.12215,0.00000,0.03233,0.97734,-0.18812,0.0,2023,6,7,15,34,36,49
42.93480,0.02520,0.01715,0.00000,0.03099,0.97539,-0.18776,0.0,2023,6,7,15,34,36,59
42.93490,-0.16730,-0.03535,0.00000,0.03184,0.97478,-0.18727,0.0,2023,6,7,15,34,36,69
42.93500,0.02520,-0.00035,0.00000,0.03245,0.97478,-0.18800,0.0,2023,6,7,15,34,36,79
42.93510,0.06020,-0.14035,0.00000,0.03050,0.97734,-0.18959,0.0,2023,6,7,15,34,36,89
42.93520,0.00770,-0.07035,0.00000,0.03050,0.97759,-0.18922,0.0,2023,6,7,15,34,36,99
42.93530,-0.04480,0.29715,0.00000,0.03062,0.97746,-0.18642,0.0,2023,6,7,15,34,36,109
42.93540,-0.09730,0.12215,0.00000,0.03453,0.97844,-0.18788,0.0,2023,6,7,15,34,36,119
42.93550,0.04270,0.03465,0.00000,0.03245,0.97612,-0.18886,0.0,2023,6,7,15,34,36,129
42.93560,-0.09730,0.05215,0.00000,0.03160,0.97563,-0.18849,0.0,2023,6,7,15,34,36,139
42.93570,-0.16730,-0.05285,0.00000,0.03379,0.97771,-0.18800,0.0,2023,6,7,15,34,36,149
42.93580,-0.07980,0.08715,0.00000,0.03184,0.97527,-0.18922,0.0,2023,6,7,15,34,36,159
42.93590,-0.00980,0.06965,0.00000,0.03404,0.97527,-0.18617,0.0,2023,6,7,15,34,36,169
42.93600,-0.04480,-0.08785,0.00000,0.03148,0.97490,-0.18825,0.0,2023,6,7,15,34,36,179
42.93610,-0.21980,0.12215,0.00000,0.03428,0.97649,-0.18849,0.0,2023,6,7,15,34,36,189
42.93620,-0.00980,0.12215,0.00000,0.03050,0.97502,-0.18727,0.0,2023,6,7,15,34,36,199
42.93630,-0.21980,0.08715,0.00000,0.03318,0.97868,-0.18995,0.0,2023,6,7,15,34,36,209
42.93640,-0.06230,-0.00035,0.00000,0.03184,0.97649,-0.18910,0.0,2023,6,7,15,34,36,219
42.93650,-0.04480,-0.00035,0.00000,0.03111,0.97637,-0.18715,0.0,2023,6,7,15,34,36,229
42.93660,-0.23730,-0.00035,0.00000,0.03111,0.97832,-0.18947,0.0,2023,6,7,15,34,36,239
42.93670,-0.02730,0.03465,0.00000,0.03148,0.97783,-0.18837,0.0,2023,6,7,15,34,36,249
42.93680,0.02520,0.03465,0.00000,0.03294,0.97551,-0.18678,0.0,2023,6,7,15,34,36,259
42.93690,0.04270,0.01715,0.00000,0.03160,0.97783,-0.18873,0.0,2023,6,7,15,34,36,269
42.93700,-0.04480,-0.00035,0.00000,0.03062,0.97661,-0.18703,0.0,2023,6,7,15,34,36,279
42.93710,0.06020,-0.01785,0.00000,0.03404,0.97478,-0.18788,0.0,2023,6,7,15,34,36,289
42.93720,-0.09730,-0.03535,0.00000,0.03099,0.97624,-0.18934,0.0,2023,6,7,15,34,36,299
42.93730,-0.00980,-0.08785,0.00000,0.03026,0.97612,-0.18800,0.0,2023,6,7,15,34,36,309
42.93740,0.25270,-0.14035,0.00000,0.03001,0.97490,-0.18788,0.0,2023,6,7,15,34,36,319
42.93750,-0.02730,-0.10535,0.00000,0.03331,0.97624,-0.19081,0.0,2023,6,7,15,34,36,329
42.93760,-0.11480,-0.08785,0.00000,0.03050,0.97856,-0.18739,0.0,2023,6,7,15,34,36,339
42.93770,0.06020,-0.12285,0.00000,0.03013,0.97783,-0.18959,0.0,2023,6,7,15,34,36,349
42.93780,-0.00980,-0.05285,0.00000,0.03160,0.97771,-0.18703,0.0,2023,6,7,15,34,36,359
42.93790,-0.11480,0.10465,0.00000,0.03209,0.97490,-0.19093,0.0,2023,6,7,15,34,36,369
42.93800,-0.27230,0.27965,0.00000,0.03245,0.97649,-0.18654,0.0,2023,6,7,15,34,36,379
42.93810,-0.14980,0.12215,0.00000,0.03111,0.97502,-0.19069,0.0,2023,6,7,15,34,36,389
42.93820,-0.02730,0.19215,0.00000,0.03123,0.97673,-0.18959,0.0,2023,6,7,15,34,36,399
42.93830,0.02520,-0.22785,0.00000,0.03367,0.97539,-0.18861,0.0,2023,6,7,15,34,36,409
42.93840,-0.16730,0.15715,0.00000,0.03087,0.97637,-0.18873,0.0,2023,6,7,15,34,36,419
42.93850,-0.20230,0.10465,0.00000,0.03062,0.97612,-0.18873,0.0,2023,6,7,15,34,36,429
42.93860,0.00770,0.13965,0.00000,0.03282,0.97759,-0.18898,0.0,2023,6,7,15,34,36,439
42.93870,0.21770,-0.21035,0.00000,0.03257,0.97624,-0.19044,0.0,2023,6,7,15,34,36,449
42.93880,0.04270,0.10465,0.00000,0.02965,0.97515,-0.18959,0.0,2023,6,7,15,34,36,459
42.93890,0.00770,0.19215,0.00000,0.02916,0.97502,-0.18727,0.0,2023,6,7,15,34,36,469
42.93900,-0.06230,0.05215,0.00000,0.03184,0.97563,-0.18995,0.0,2023,6,7,15,34,36,479
42.93910,0.07770,0.01715,0.00000,0.03318,0.97332,-0.18812,0.0,2023,6,7,15,34,36,489
42.93920,-0.14980,0.12215,0.00000,0.03233,0.97490,-0.18861,0.0,2023,6,7,15,34,36,499
42.93930,-0.00980,-0.05285,0.00000,0.03306,0.97502,-0.18825,0.0,2023,6,7,15,34,36,509
42.93940,0.00770,-0.05285,0.00000,0.03270,0.97685,-0.19044,0.0,2023,6,7,15,34,36,519
42.93950,-0.16730,-0.08785,0.00000,0.03013,0.97441,-0.18934,0.0,2023,6,7,15,34,36,529
42.93960,-0.09730,0.10465,0.00000,0.03050,0.97576,-0.18873,0.0,2023,6,7,15,34,36,539
42.93970,0.07770,0.10465,0.00000,0.03270,0.97820,-0.18703,0.0,2023,6,7,15,34,36,549
42.93980,0.02520,0.01715,0.00000,0.03294,0.97515,-0.18934,0.0,2023,6,7,15,34,36,559
42.93990,0.04270,0.10465,0.00000,0.03306,0.97856,-0.18825,0.0,2023,6,7,15,34,36,569
42.94000,-0.04480,0.10465,0.00000,0.03257,0.97710,-0.18690,0.0,2023,6,7,15,34,36,579
42.94010,0.06020,-0.01785,0.00000,0.02940,0.97466,-0.18715,0.0,2023,6,7,15,34,36,589
42.94020,-0.07980,0.06965,0.00000,0.03184,0.97807,-0.18788,0.0,2023,6,7,15,34,36,599
42.94030,-0.09730,0.03465,0.00000,0.02904,0.97759,-0.18886,0.0,2023,6,7,15,34,36,609
42.94040,0.06020,-0.03535,0.00000,0.03221,0.97429,-0.18934,0.0,2023,6,7,15,34,36,619
42.94050,0.02520,-0.22785,0.00000,0.03135,0.97551,-0.18983,0.0,2023,6,7,15,34,36,629
42.94060,-0.20230,-0.07035,0.00000,0.03013,0.97563,-0.19008,0.0,2023,6,7,15,34,36,639
42.94070,-0.07980,-0.14035,0.00000,0.03135,0.97600,-0.18934,0.0,2023,6,7,15,34,36,649
42.94080,-0.04480,-0.26285,0.00000,0.03135,0.97637,-0.18910,0.0,2023,6,7,15,34,36,659
42.94090,0.04270,-0.14035,0.00000,0.03160,0.97783,-0.18971,0.0,2023,6,7,15,34,36,669
42.94100,-0.13230,-0.00035,0.00000,0.03196,0.97685,-0.18861,0.0,2023,6,7,15,34,36,679
42.94110,0.02520,-0.01785,0.00000,0.03416,0.97698,-0.18898,0.0,2023,6,7,15,34,36,689
42.94120,-0.00980,-0.08785,0.00000,0.03172,0.97881,-0.19032,0.0,2023,6,7,15,34,36,699
42.94130,-0.09730,-0.03535,0.00000,0.03074,0.97881,-0.19105,0.0,2023,6,7,15,34,36,709
42.94140,-0.04480,-0.01785,0.00000,0.03416,0.97405,-0.18947,0.0,2023,6,7,15,34,36,719
42.94150,-0.04480,0.17465,0.00000,0.03355,0.97466,-0.18898,0.0,2023,6,7,15,34,36,729
42.94160,-0.06230,-0.10535,0.00000,0.03050,0.97624,-0.18971,0.0,2023,6,7,15,34,36,739
42.94170,-0.00980,0.03465,0.00000,0.03294,0.97783,-0.18959,0.0,2023,6,7,15,34,36,749
42.94180,0.04270,-0.03535,0.00000,0.03245,0.97673,-0.18934,0.0,2023,6,7,15,34,36,759
42.94190,-0.09730,-0.01785,0.00000,0.03148,0.97612,-0.18776,0.0,2023,6,7,15,34,36,769
42.94200,0.06020,-0.05285,0.00000,0.03343,0.97673,-0.18861,0.0,2023,6,7,15,34,36,779
42.94210,0.13020,-0.21035,0.00000,0.03257,0.97783,-0.19020,0.0,2023,6,7,15,34,37,789
42.94220,0.06020,-0.05285,0.00000,0.03087,0.97673,-0.18764,0.0,2023,6,7,15,34,37,799
42.94230,-0.16730,0.15715,0.00000,0.03026,0.97624,-0.18739,0.0,2023,6,7,15,34,37,809
42.94240,-0.09730,-0.21035,0.00000,0.03087,0.97649,-0.19032,0.0,2023,6,7,15,34,37,819
42.94250,0.14770,-0.07035,0.00000,0.03404,0.97771,-0.18922,0.0,2023,6,7,15,34,37,829
42.94260,-0.06230,0.20965,0.00000,0.03074,0.97478,-0.18873,0.0,2023,6,7,15,34,37,839
42.94270,-0.02730,0.08715,0.00000,0.03257,0.97868,-0.18910,0.0,2023,6,7,15,34,37,849
42.94280,0.09520,-0.00035,0.00000,0.03148,0.97746,-0.18898,0.0,2023,6,7,15,34,37,859
42.94290,0.11270,-0.05285,0.00000,0.03111,0.97710,-0.18776,0.0,2023,6,7,15,34,37,869
42.94300,0.16520,0.06965,0.00000,0.02891,0.97405,-0.18922,0.0,2023,6,7,15,34,37,879
42.94310,-0.13230,-0.03535,0.00000,0.03257,0.97380,-0.18861,0.0,2023,6,7,15,34,37,889
42.94320,-0.07980,0.27965,0.00000,0.03087,0.97771,-0.18910,0.0,2023,6,7,15,34,37,899
42.94330,-0.16730,-0.01785,0.00000,0.03172,0.97685,-0.18910,0.0,2023,6,7,15,34,37,909
42.94340,-0.25480,-0.01785,0.00000,0.03026,0.97783,-0.18849,0.0,2023,6,7,15,34,37,919
42.94350,0.11270,0.20965,0.00000,0.03038,0.97734,-0.18703,0.0,2023,6,7,15,34,37,929
42.94360,-0.00980,-0.05285,0.00000,0.03221,0.97637,-0.19081,0.0,2023,6,7,15,34,37,939
42.94370,-0.07980,-0.05285,0.00000,0.03160,0.97417,-0.18727,0.0,2023,6,7,15,34,37,949
42.94380,-0.06230,-0.14035,0.00000,0.03099,0.97673,-0.18849,0.0,2023,6,7,15,34,37,959
42.94390,-0.04480,0.03465,0.00000,0.03428,0.97515,-0.18800,0.0,2023,6,7,15,34,37,969
42.94400,0.11270,0.08715,0.00000,0.03245,0.97698,-0.19032,0.0,2023,6,7,15,34,37,979
42.94410,-0.02730,-0.00035,0.00000,0.03111,0.97441,-0.18788,0.0,2023,6,7,15,34,37,989
42.94420,-0.18480,-0.01785,0.00000,0.03233,0.97563,-0.18727,0.0,2023,6,7,15,34,37,999
42.94430,-0.00980,0.06965,0.00000,0.03233,0.97551,-0.18837,0.0,2023,6,7,15,34,37,9
42.94440,0.02520,-0.14035,0.00000,0.03123,0.97722,-0.18983,0.0,2023,6,7,15,34,37,19
42.94450,0.07770,0.01715,0.00000,0.03172,0.97405,-0.18788,0.0,2023,6,7,15,34,37,29
42.94460,0.02520,0.05215,0.00000,0.03428,0.97673,-0.18910,0.0,2023,6,7,15,34,37,39
42.94470,-0.18480,0.20965,0.00000,0.03062,0.97832,-0.18922,0.0,2023,6,7,15,34,37,49
42.94480,0.02520,-0.00035,0.00000,0.03050,0.97576,-0.18788,0.0,2023,6,7,15,34,37,59
42.94490,0.04270,-0.17535,0.00000,0.03221,0.97771,-0.19130,0.0,2023,6,7,15,34,37,69
42.94500,-0.02730,-0.00035,0.00000,0.03331,0.97649,-0.19130,0.0,2023,6,7,15,34,37,79
42.94510,-0.00980,-0.05285,0.00000,0.03184,0.97515,-0.18861,0.0,2023,6,7,15,34,37,89
42.94520,-0.07980,0.12215,0.00000,0.03196,0.97405,-0.18959,0.0,2023,6,7,15,34,37,99
42.94530,-0.06230,-0.10535,0.00000,0.03453,0.97807,-0.19227,0.0,2023,6,7,15,34,37,109
42.94540,0.00770,-0.01785,0.00000,0.03184,0.97502,-0.18873,0.0,2023,6,7,15,34,37,119
42.94550,-0.02730,0.10465,0.00000,0.03160,0.97685,-0.18886,0.0,2023,6,7,15,34,37,129
42.94560,-0.07980,0.24465,0.00000,0.02891,0.97539,-0.18922,0.0,2023,6,7,15,34,37,139
42.94570,-0.00980,0.05215,0.00000,0.03184,0.97429,-0.18995,0.0,2023,6,7,15,34,37,149
42.94580,-0.00980,-0.12285,0.00000,0.02940,0.97722,-0.18690,0.0,2023,6,7,15,34,37,159
42.94590,0.02520,0.13965,0.00000,0.03257,0.97466,-0.19008,0.0,2023,6,7,15,34,37,169
42.94600,-0.16730,0.01715,0.00000,0.03270,0.97527,-0.19093,0.0,2023,6,7,15,34,37,179
42.94610,0.02520,0.05215,0.00000,0.03184,0.97222,-0.18788,0.0,2023,6,7,15,34,37,189
42.94620,0.11270,0.15715,0.00000,0.03123,0.97856,-0.19056,0.0,2023,6,7,15,34,37,199
42.94630,-0.11480,0.15715,0.00000,0.03245,0.97527,-0.19020,0.0,2023,6,7,15,34,37,209
42.94640,-0.06230,0.01715,0.00000,0.03331,0.97624,-0.18947,0.0,2023,6,7,15,34,37,219
42.94650,0.21770,-0.10535,0.00000,0.03477,0.97759,-0.19032,0.0,2023,6,7,15,34,37,229
42.94660,-0.13230,0.22715,0.00000,0.03209,0.97783,-0.19056,0.0,2023,6,7,15,34,37,239
42.94670,-0.09730,0.06965,0.00000,0.03160,0.97539,-0.19081,0.0,2023,6,7,15,34,37,249
42.94680,0.00770,0.10465,0.00000,0.03209,0.97551,-0.18825,0.0,2023,6,7,15,34,37,259
42.94690,0.00770,-0.21035,0.00000,0.03123,0.97893,-0.18934,0.0,2023,6,7,15,34,37,269
42.94700,-0.02730,-0.07035,0.00000,0.02879,0.97600,-0.19008,0.0,2023,6,7,15,34,37,279
42.94710,-0.00980,0.03465,0.00000,0.03038,0.97612,-0.18861,0.0,2023,6,7,15,34,37,289
42.94720,-0.11480,0.10465,0.00000,0.02782,0.97600,-0.18825,0.0,2023,6,7,15,34,37,299
42.94730,-0.07980,0.03465,0.00000,0.03318,0.97820,-0.19117,0.0,2023,6,7,15,34,37,309
42.94740,-0.06230,-0.10535,0.00000,0.03099,0.97405,-0.18898,0.0,2023,6,7,15,34,37,319
42.94750,-0.16730,0.13965,0.00000,0.02977,0.97612,-0.18898,0.0,2023,6,7,15,34,37,329
42.94760,-0.06230,0.08715,0.00000,0.03282,0.97356,-0.18959,0.0,2023,6,7,15,34,37,339
42.94770,-0.25480,0.05215,0.00000,0.03038,0.97466,-0.18837,0.0,2023,6,7,15,34,37,349
42.94780,-0.09730,-0.00035,0.00000,0.03074,0.97490,-0.18800,0.0,2023,6,7,15,34,37,359
42.94790,0.13020,-0.07035,0.00000,0.03343,0.97588,-0.18861,0.0,2023,6,7,15,34,37,369
42.94800,-0.04480,0.15715,0.00000,0.03294,0.97539,-0.18910,0.0,2023,6,7,15,34,37,379
42.94810,0.02520,-0.12285,0.00000,0.02916,0.97734,-0.18934,0.0,2023,6,7,15,34,37,389
42.94820,0.02520,0.03465,0.00000,0.03087,0.97722,-0.18776,0.0,2023,6,7,15,34,37,399
42.94830,0.21770,-0.00035,0.00000,0.03209,0.97868,-0.18849,0.0,2023,6,7,15,34,37,409
42.94840,0.14770,0.01715,0.00000,0.03148,0.97502,-0.18886,0.0,2023,6,7,15,34,37,419
42.94850,0.04270,-0.14035,0.00000,0.03172,0.97612,-0.18873,0.0,2023,6,7,15,34,37,429
42.94860,-0.06230,-0.01785,0.00000,0.03050,0.97673,-0.18825,0.0,2023,6,7,15,34,37,439
42.94870,0.04270,0.01715,0.00000,0.03099,0.97722,-0.18544,0.0,2023,6,7,15,34,37,449
42.94880,-0.18480,0.22715,0.00000,0.03306,0.97832,-0.18715,0.0,2023,6,7,15,34,37,459
42.94890,-0.06230,0.05215,0.00000,0.03135,0.97722,-0.18934,0.0,2023,6,7,15,34,37,469
42.94900,-0.06230,-0.03535,0.00000,0.03257,0.97563,-0.18678,0.0,2023,6,7,15,34,37,479
42.94910,-0.06230,0.01715,0.00000,0.03062,0.97661,-0.18812,0.0,2023,6,7,15,34,37,489
42.94920,0.02520,-0.12285,0.00000,0.03233,0.97210,-0.18800,0.0,2023,6,7,15,34,37,499
42.94930,-0.14980,-0.03535,0.00000,0.03184,0.97478,-0.18971,0.0,2023,6,7,15,34,37,509
42.94940,-0.09730,0.12215,0.00000,0.03160,0.97417,-0.18898,0.0,2023,6,7,15,34,37,519
42.94950,0.06020,0.01715,0.00000,0.03221,0.97600,-0.18983,0.0,2023,6,7,15,34,37,529
42.94960,-0.20230,-0.08785,0.00000,0.03172,0.97600,-0.18715,0.0,2023,6,7,15,34,37,539
42.94970,0.02520,-0.05285,0.00000,0.02952,0.97649,-0.18959,0.0,2023,6,7,15,34,37,549
42.94980,-0.07980,-0.00035,0.00000,0.03331,0.97685,-0.18959,0.0,2023,6,7,15,34,37,559
42.94990,0.00770,-0.08785,0.00000,0.03294,0.97710,-0.18983,0.0,2023,6,7,15,34,37,569
42.95000,-0.06230,0.05215,0.00000,0.03062,0.97820,-0.18861,0.0,2023,6,7,15,34,37,579
42.95010,0.07770,-0.03535,0.00000,0.03233,0.97649,-0.18788,0.0,2023,6,7,15,34,37,589
42.95020,-0.02730,0.06965,0.00000,0.03306,0.97942,-0.18776,0.0,2023,6,7,15,34,37,599
42.95030,-0.13230,-0.00035,0.00000,0.03001,0.97502,-0.18825,0.0,2023,6,7,15,34,37,609
42.95040,0.11270,0.01715,0.00000,0.03087,0.97637,-0.18837,0.0,2023,6,7,15,34,37,619
42.95050,-0.14980,0.12215,0.00000,0.03026,0.97844,-0.18886,0.0,2023,6,7,15,34,37,629
42.95060,-0.06230,-0.01785,0.00000,0.03184,0.97673,-0.18751,0.0,2023,6,7,15,34,37,639
42.95070,0.11270,-0.07035,0.00000,0.03379,0.97527,-0.18776,0.0,2023,6,7,15,34,37,649
42.95080,-0.07980,0.03465,0.00000,0.03135,0.97368,-0.18983,0.0,2023,6,7,15,34,37,659
42.95090,-0.13230,0.12215,0.00000,0.03111,0.97563,-0.18886,0.0,2023,6,7,15,34,37,669
42.95100,-0.23730,0.03465,0.00000,0.03123,0.97551,-0.18837,0.0,2023,6,7,15,34,37,679
42.95110,-0.18480,0.08715,0.00000,0.03099,0.97820,-0.18873,0.0,2023,6,7,15,34,37,689
42.95120,0.14770,-0.17535,0.00000,0.03245,0.97441,-0.18983,0.0,2023,6,7,15,34,38,699
42.95130,0.09520,0.06965,0.00000,0.03196,0.97624,-0.18934,0.0,2023,6,7,15,34,38,709
42.95140,0.04270,-0.03535,0.00000,0.03233,0.97710,-0.18849,0.0,2023,6,7,15,34,38,719
42.95150,-0.16730,0.05215,0.00000,0.03233,0.97563,-0.19032,0.0,2023,6,7,15,34,38,729
42.95160,-0.04480,0.03465,0.00000,0.03184,0.97771,-0.18825,0.0,2023,6,7,15,34,38,739
42.95170,-0.02730,0.06965,0.00000,0.03160,0.97637,-0.18947,0.0,2023,6,7,15,34,38,749
42.95180,0.00770,-0.08785,0.00000,0.03172,0.97624,-0.19081,0.0,2023,6,7,15,34,38,759
42.95190,-0.06230,0.19215,0.00000,0.03306,0.97759,-0.18605,0.0,2023,6,7,15,34,38,769
42.95200,-0.00980,0.06965,0.00000,0.03196,0.97515,-0.18825,0.0,2023,6,7,15,34,38,779
42.95210,-0.00980,0.20965,0.00000,0.03062,0.97673,-0.18959,0.0,2023,6,7,15,34,38,789
42.95220,0.00770,0.03465,0.00000,0.03196,0.97710,-0.18995,0.0,2023,6,7,15,34,38,799
42.95230,-0.02730,0.03465,0.00000,0.03233,0.97624,-0.18971,0.0,2023,6,7,15,34,38,809
42.95240,0.02520,-0.31535,0.00000,0.03270,0.97868,-0.18934,0.0,2023,6,7,15,34,38,819
42.95250,-0.16730,-0.17535,0.00000,0.03270,0.97490,-0.18690,0.0,2023,6,7,15,34,38,829
42.95260,0.07770,-0.01785,0.00000,0.03111,0.97759,-0.18788,0.0,2023,6,7,15,34,38,839
42.95270,0.06020,0.05215,0.00000,0.03160,0.97624,-0.18629,0.0,2023,6,7,15,34,38,849
42.95280,0.11270,-0.08785,0.00000,0.03355,0.97624,-0.18751,0.0,2023,6,7,15,34,38,859
42.95290,-0.04480,-0.05285,0.00000,0.03428,0.97551,-0.19093,0.0,2023,6,7,15,34,38,869
42.95300,0.09520,-0.01785,0.00000,0.03294,0.97637,-0.18873,0.0,2023,6,7,15,34,38,879
42.95310,-0.13230,0.06965,0.00000,0.03331,0.97551,-0.18788,0.0,2023,6,7,15,34,38,889
42.95320,0.00770,0.03465,0.00000,0.02965,0.97710,-0.19081,0.0,2023,6,7,15,34,38,899
42.95330,-0.02730,0.10465,0.00000,0.03306,0.97624,-0.18739,0.0,2023,6,7,15,34,38,909
42.95340,-0.04480,0.03465,0.00000,0.03331,0.97795,-0.18873,0.0,2023,6,7,15,34,38,919
42.95350,0.00770,0.03465,0.00000,0.03123,0.97551,-0.18800,0.0,2023,6,7,15,34,38,929
42.95360,-0.00980,-0.01785,0.00000,0.03184,0.97515,-0.18837,0.0,2023,6,7,15,34,38,939
42.95370,0.00770,-0.14035,0.00000,0.03013,0.97600,-0.18800,0.0,2023,6,7,15,34,38,949
42.95380,0.18270,-0.21035,0.00000,0.03050,0.97832,-0.18861,0.0,2023,6,7,15,34,38,959
42.95390,-0.14980,0.12215,0.00000,0.03172,0.97527,-0.18800,0.0,2023,6,7,15,34,38,969
42.95400,0.13020,0.06965,0.00000,0.03148,0.97283,-0.18654,0.0,2023,6,7,15,34,38,979
42.95410,0.04270,0.06965,0.00000,0.03282,0.97856,-0.18837,0.0,2023,6,7,15,34,38,989
42.95420,0.14770,-0.12285,0.00000,0.03331,0.97807,-0.18849,0.0,2023,6,7,15,34,38,999
42.95430,0.11270,0.06965,0.00000,0.03123,0.97551,-0.18886,0.0,2023,6,7,15,34,38,9
42.95440,0.11270,-0.19285,0.00000,0.03184,0.97417,-0.18837,0.0,2023,6,7,15,34,38,19
42.95450,-0.11480,0.13965,0.00000,0.03294,0.97771,-0.18886,0.0,2023,6,7,15,34,38,29
42.95460,-0.09730,0.15715,0.00000,0.03160,0.97649,-0.18812,0.0,2023,6,7,15,34,38,39
42.95470,0.09520,-0.07035,0.00000,0.03148,0.97759,-0.18666,0.0,2023,6,7,15,34,38,49
42.95480,0.02520,-0.01785,0.00000,0.03160,0.97478,-0.18800,0.0,2023,6,7,15,34,38,59
42.95490,0.06020,-0.12285,0.00000,0.03050,0.97588,-0.18751,0.0,2023,6,7,15,34,38,69
42.95500,0.32270,0.13965,0.00000,0.03257,0.97844,-0.18959,0.0,2023,6,7,15,34,38,79
42.95510,-0.20230,0.13965,0.00000,0.03135,0.97820,-0.18825,0.0,2023,6,7,15,34,38,89
42.95520,-0.02730,-0.17535,0.00000,0.03135,0.97771,-0.18751,0.0,2023,6,7,15,34,38,99
42.95530,0.14770,-0.10535,0.00000,0.02916,0.97844,-0.18861,0.0,2023,6,7,15,34,38,109
42.95540,-0.16730,0.10465,0.00000,0.03099,0.97698,-0.18654,0.0,2023,6,7,15,34,38,119
42.95550,-0.14980,-0.05285,0.00000,0.03233,0.97746,-0.18703,0.0,2023,6,7,15,34,38,129
42.95560,-0.14980,-0.19285,0.00000,0.03099,0.98015,-0.18812,0.0,2023,6,7,15,34,38,139
42.95570,-0.18480,0.03465,0.00000,0.03221,0.97551,-0.18983,0.0,2023,6,7,15,34,38,149
42.95580,-0.32480,0.13965,0.00000,0.03196,0.97722,-0.18739,0.0,2023,6,7,15,34,38,159
42.95590,-0.02730,-0.10535,0.00000,0.03099,0.97734,-0.18776,0.0,2023,6,7,15,34,38,169
42.95600,-0.04480,0.20965,0.00000,0.03233,0.97551,-0.19020,0.0,2023,6,7,15,34,38,179
42.95610,-0.09730,0.03465,0.00000,0.03026,0.97929,-0.18812,0.0,2023,6,7,15,34,38,189
42.95620,-0.07980,0.13965,0.00000,0.03221,0.97795,-0.18776,0.0,2023,6,7,15,34,38,199
42.95630,0.14770,0.03465,0.00000,0.03270,0.97698,-0.18910,0.0,2023,6,7,15,34,38,209
42.95640,-0.13230,0.03465,0.00000,0.03233,0.97990,-0.18971,0.0,2023,6,7,15,34,38,219
42.95650,-0.04480,0.01715,0.00000,0.03013,0.97539,-0.19093,0.0,2023,6,7,15,34,38,229
42.95660,-0.09730,-0.05285,0.00000,0.02952,0.97612,-0.18751,0.0,2023,6,7,15,34,38,239
42.95670,-0.00980,0.06965,0.00000,0.03209,0.97539,-0.18922,0.0,2023,6,7,15,34,38,249
42.95680,-0.06230,-0.03535,0.00000,0.03148,0.97844,-0.18751,0.0,2023,6,7,15,34,38,259
42.95690,-0.13230,0.12215,0.00000,0.03013,0.97649,-0.18959,0.0,2023,6,7,15,34,38,269
42.95700,0.02520,-0.08785,0.00000,0.02989,0.97710,-0.18910,0.0,2023,6,7,15,34,38,279
42.95710,0.00770,-0.01785,0.00000,0.03087,0.97844,-0.18861,0.0,2023,6,7,15,34,38,289
42.95720,-0.11480,-0.00035,0.00000,0.03196,0.97649,-0.18861,0.0,2023,6,7,15,34,38,299
42.95730,-0.00980,0.08715,0.00000,0.03270,0.97820,-0.18812,0.0,2023,6,7,15,34,38,309
42.95740,-0.18480,0.08715,0.00000,0.03026,0.97734,-0.18837,0.0,2023,6,7,15,34,38,319
42.95750,0.11270,-0.08785,0.00000,0.03135,0.97441,-0.18983,0.0,2023,6,7,15,34,38,329
42.95760,0.09520,-0.03535,0.00000,0.02977,0.97563,-0.18947,0.0,2023,6,7,15,34,38,339
42.95770,0.00770,0.20965,0.00000,0.03050,0.97637,-0.19069,0.0,2023,6,7,15,34,38,349
42.95780,0.00770,-0.14035,0.00000,0.03221,0.97454,-0.18873,0.0,2023,6,7,15,34,38,359
42.95790,-0.06230,-0.07035,0.00000,0.03270,0.97576,-0.19105,0.0,2023,6,7,15,34,38,369
42.95800,0.02520,0.01715,0.00000,0.03294,0.97685,-0.18849,0.0,2023,6,7,15,34,38,379
42.95810,0.11270,-0.12285,0.00000,0.03050,0.97649,-0.18922,0.0,2023,6,7,15,34,38,389
42.95820,-0.07980,0.27965,0.00000,0.03209,0.97600,-0.18837,0.0,2023,6,7,15,34,38,399
42.95830,-0.04480,0.26215,0.00000,0.03245,0.97551,-0.19264,0.0,2023,6,7,15,34,38,409
