#2023/06/07 15:40:35
time,wx,wy,wz,ax,ay,az,yy,MM,dd,hh,mm,ss,ms
43.08010,0.00070,-0.07665,0.00000,0.03245,0.97527,-0.19178,0.0,2023,6,7,15,40,36,332
43.08020,-0.06930,0.04585,0.00000,0.02989,0.97673,-0.19300,0.0,2023,6,7,15,40,36,342
43.08030,-0.22680,0.06335,0.00000,0.03184,0.97515,-0.19044,0.0,2023,6,7,15,40,36,352
43.08040,-0.03430,0.09835,0.00000,0.03196,0.97942,-0.19410,0.0,2023,6,7,15,40,36,362
43.08050,0.19320,-0.28665,0.00000,0.03111,0.97637,-0.18873,0.0,2023,6,7,15,40,36,372
43.08060,-0.01680,-0.05915,0.00000,0.03026,0.97417,-0.19056,0.0,2023,6,7,15,40,36,382
43.08070,0.10570,-0.18165,0.00000,0.03087,0.97612,-0.19142,0.0,2023,6,7,15,40,36,392
43.08080,-0.17430,-0.07665,0.00000,0.03233,0.97759,-0.19227,0.0,2023,6,7,15,40,36,402
43.08090,-0.31430,-0.02415,0.00000,0.03148,0.97441,-0.19032,0.0,2023,6,7,15,40,36,412
43.08100,0.05320,0.04585,0.00000,0.03209,0.97600,-0.19032,0.0,2023,6,7,15,40,36,422
43.08110,-0.03430,0.01085,0.00000,0.03245,0.97417,-0.19105,0.0,2023,6,7,15,40,36,432
43.08120,-0.01680,-0.04165,0.00000,0.03087,0.97649,-0.19032,0.0,2023,6,7,15,40,36,442
43.08130,0.12320,-0.02415,0.00000,0.03196,0.97490,-0.19008,0.0,2023,6,7,15,40,36,452
43.08140,-0.06930,-0.02415,0.00000,0.03294,0.97515,-0.18861,0.0,2023,6,7,15,40,36,462
43.08150,-0.13930,0.11585,0.00000,0.03062,0.97539,-0.19203,0.0,2023,6,7,15,40,36,472
43.08160,0.03570,0.30835,0.00000,0.03111,0.97661,-0.19374,0.0,2023,6,7,15,40,36,482
43.08170,-0.17430,0.09835,0.00000,0.03123,0.97673,-0.19032,0.0,2023,6,7,15,40,36,492
43.08180,0.00070,-0.00665,0.00000,0.03135,0.97734,-0.19093,0.0,2023,6,7,15,40,36,502
43.08190,0.01820,0.02835,0.00000,0.03318,0.97734,-0.19056,0.0,2023,6,7,15,40,36,512
43.08200,-0.10430,0.30835,0.00000,0.03013,0.97832,-0.19166,0.0,2023,6,7,15,40,36,522
43.08210,0.01820,-0.00665,0.00000,0.03184,0.97624,-0.18886,0.0,2023,6,7,15,40,36,532
43.08220,-0.01680,0.04585,0.00000,0.03306,0.97685,-0.18861,0.0,2023,6,7,15,40,36,542
43.08230,-0.10430,0.04585,0.00000,0.03257,0.97478,-0.19032,0.0,2023,6,7,15,40,36,552
43.08240,-0.03430,-0.04165,0.00000,0.03050,0.97527,-0.18861,0.0,2023,6,7,15,40,36,562
43.08250,-0.03430,0.01085,0.00000,0.03001,0.97429,-0.19105,0.0,2023,6,7,15,40,36,572
43.08260,0.05320,-0.18165,0.00000,0.03135,0.97685,-0.18873,0.0,2023,6,7,15,40,36,582
43.08270,0.00070,0.11585,0.00000,0.03270,0.97624,-0.18764,0.0,2023,6,7,15,40,36,592
43.08280,-0.08680,0.06335,0.00000,0.03270,0.97551,-0.18690,0.0,2023,6,7,15,40,36,602
43.08290,-0.01680,-0.16415,0.00000,0.03160,0.97478,-0.19044,0.0,2023,6,7,15,40,36,612
43.08300,0.05320,0.22085,0.00000,0.03270,0.97685,-0.18983,0.0,2023,6,7,15,40,36,622
43.08310,0.00070,-0.02415,0.00000,0.03343,0.97588,-0.18934,0.0,2023,6,7,15,40,36,632
43.08320,0.05320,-0.18165,0.00000,0.03148,0.97807,-0.19178,0.0,2023,6,7,15,40,36,642
43.08330,0.07070,-0.12915,0.00000,0.03172,0.97661,-0.18849,0.0,2023,6,7,15,40,36,652
43.08340,0.00070,-0.09415,0.00000,0.03013,0.97722,-0.18995,0.0,2023,6,7,15,40,36,662
43.08350,0.00070,0.08085,0.00000,0.03135,0.97551,-0.18861,0.0,2023,6,7,15,40,36,672
43.08360,-0.13930,-0.04165,0.00000,0.03160,0.97624,-0.18861,0.0,2023,6,7,15,40,36,682
43.08370,-0.10430,0.04585,0.00000,0.03184,0.97612,-0.19239,0.0,2023,6,7,15,40,36,692
43.08380,0.07070,0.22085,0.00000,0.03233,0.97624,-0.19056,0.0,2023,6,7,15,40,36,702
43.08390,-0.05180,-0.07665,0.00000,0.03123,0.97673,-0.18959,0.0,2023,6,7,15,40,36,712
43.08400,-0.05180,-0.16415,0.00000,0.02977,0.97795,-0.19325,0.0,2023,6,7,15,40,36,722
43.08410,-0.08680,0.13335,0.00000,0.03160,0.97539,-0.18971,0.0,2023,6,7,15,40,36,732
43.08420,0.05320,0.01085,0.00000,0.03367,0.97661,-0.18776,0.0,2023,6,7,15,40,36,742
43.08430,-0.12180,0.15085,0.00000,0.03074,0.97649,-0.19166,0.0,2023,6,7,15,40,36,752
43.08440,0.05320,-0.02415,0.00000,0.03209,0.97417,-0.19069,0.0,2023,6,7,15,40,36,762
43.08450,-0.08680,0.11585,0.00000,0.03026,0.97368,-0.18910,0.0,2023,6,7,15,40,36,772
43.08460,0.14070,-0.18165,0.00000,0.03270,0.97502,-0.19056,0.0,2023,6,7,15,40,36,782
43.08470,-0.17430,0.11585,0.00000,0.03294,0.97710,-0.18947,0.0,2023,6,7,15,40,36,792
43.08480,-0.15680,0.09835,0.00000,0.03196,0.97563,-0.19008,0.0,2023,6,7,15,40,36,802
43.08490,-0.29680,0.01085,0.00000,0.03038,0.97612,-0.19252,0.0,2023,6,7,15,40,36,812
43.08500,0.00070,0.02835,0.00000,0.03221,0.97478,-0.19154,0.0,2023,6,7,15,40,36,822
43.08510,-0.06930,0.15085,0.00000,0.03001,0.97393,-0.19154,0.0,2023,6,7,15,40,36,832
43.08520,0.00070,-0.11165,0.00000,0.03050,0.97844,-0.18837,0.0,2023,6,7,15,40,36,842
43.08530,0.08820,-0.11165,0.00000,0.03148,0.97612,-0.19215,0.0,2023,6,7,15,40,36,852
43.08540,0.14070,-0.11165,0.00000,0.03111,0.97807,-0.19300,0.0,2023,6,7,15,40,36,862
43.08550,-0.05180,0.09835,0.00000,0.03111,0.97539,-0.19093,0.0,2023,6,7,15,40,36,872
43.08560,0.15820,-0.02415,0.00000,0.03245,0.97527,-0.19276,0.0,2023,6,7,15,40,36,882
43.08570,-0.01680,0.06335,0.00000,0.03245,0.97649,-0.18995,0.0,2023,6,7,15,40,37,892
43.08580,-0.01680,0.04585,0.00000,0.03184,0.97563,-0.19227,0.0,2023,6,7,15,40,37,902
43.08590,0.05320,-0.09415,0.00000,0.03062,0.97844,-0.19008,0.0,2023,6,7,15,40,37,912
43.08600,-0.15680,0.18585,0.00000,0.03062,0.97746,-0.19008,0.0,2023,6,7,15,40,37,922
43.08610,-0.06930,0.02835,0.00000,0.03062,0.97551,-0.18873,0.0,2023,6,7,15,40,37,932
43.08620,-0.13930,-0.04165,0.00000,0.02977,0.97417,-0.19069,0.0,2023,6,7,15,40,37,942
43.08630,0.07070,-0.26915,0.00000,0.03160,0.97393,-0.19020,0.0,2023,6,7,15,40,37,952
43.08640,0.03570,0.02835,0.00000,0.03013,0.97600,-0.19044,0.0,2023,6,7,15,40,37,962
43.08650,-0.20930,-0.05915,0.00000,0.03148,0.97612,-0.19154,0.0,2023,6,7,15,40,37,972
43.08660,-0.05180,0.15085,0.00000,0.03050,0.97478,-0.19105,0.0,2023,6,7,15,40,37,982
43.08670,-0.06930,-0.09415,0.00000,0.02989,0.97637,-0.19117,0.0,2023,6,7,15,40,37,992
43.08680,-0.03430,0.06335,0.00000,0.03123,0.97515,-0.18776,0.0,2023,6,7,15,40,37,2
43.08690,0.03570,0.02835,0.00000,0.03221,0.97454,-0.19093,0.0,2023,6,7,15,40,37,12
43.08700,-0.15680,0.27335,0.00000,0.03196,0.97698,-0.18922,0.0,2023,6,7,15,40,37,22
43.08710,-0.08680,-0.12915,0.00000,0.02904,0.97429,-0.18910,0.0,2023,6,7,15,40,37,32
43.08720,-0.05180,-0.12915,0.00000,0.02879,0.97722,-0.18959,0.0,2023,6,7,15,40,37,42
43.08730,-0.19180,0.25585,0.00000,0.02965,0.97685,-0.19008,0.0,2023,6,7,15,40,37,52
43.08740,-0.12180,0.08085,0.00000,0.03087,0.97698,-0.19008,0.0,2023,6,7,15,40,37,62
43.08750,0.22820,0.01085,0.00000,0.03148,0.97588,-0.19203,0.0,2023,6,7,15,40,37,72
43.08760,0.08820,-0.00665,0.00000,0.03074,0.97844,-0.18629,0.0,2023,6,7,15,40,37,82
43.08770,0.03570,0.01085,0.00000,0.03087,0.97685,-0.19178,0.0,2023,6,7,15,40,37,92
43.08780,-0.03430,-0.00665,0.00000,0.03123,0.97466,-0.19081,0.0,2023,6,7,15,40,37,102
43.08790,-0.22680,-0.04165,0.00000,0.02916,0.97539,-0.19044,0.0,2023,6,7,15,40,37,112
43.08800,0.07070,0.06335,0.00000,0.03148,0.97563,-0.18849,0.0,2023,6,7,15,40,37,122
43.08810,0.12320,0.01085,0.00000,0.03209,0.97527,-0.18703,0.0,2023,6,7,15,40,37,132
43.08820,-0.20930,0.08085,0.00000,0.03355,0.97685,-0.19093,0.0,2023,6,7,15,40,37,142
43.08830,-0.01680,-0.07665,0.00000,0.03062,0.97795,-0.18947,0.0,2023,6,7,15,40,37,152
43.08840,0.15820,-0.02415,0.00000,0.03245,0.97502,-0.18971,0.0,2023,6,7,15,40,37,162
43.08850,-0.06930,0.13335,0.00000,0.03074,0.97551,-0.18898,0.0,2023,6,7,15,40,37,172
43.08860,0.03570,0.15085,0.00000,0.03453,0.97881,-0.18922,0.0,2023,6,7,15,40,37,182
43.08870,0.00070,0.08085,0.00000,0.03038,0.97612,-0.18800,0.0,2023,6,7,15,40,37,192
43.08880,-0.08680,-0.07665,0.00000,0.03062,0.97722,-0.18983,0.0,2023,6,7,15,40,37,202
43.08890,-0.06930,-0.04165,0.00000,0.03135,0.97478,-0.18934,0.0,2023,6,7,15,40,37,212
43.08900,-0.01680,0.01085,0.00000,0.03282,0.97698,-0.18861,0.0,2023,6,7,15,40,37,222
43.08910,-0.08680,-0.18165,0.00000,0.03233,0.97612,-0.18751,0.0,2023,6,7,15,40,37,232
43.08920,0.15820,0.29085,0.00000,0.03294,0.97515,-0.18837,0.0,2023,6,7,15,40,37,242
43.08930,-0.03430,0.18585,0.00000,0.02916,0.97576,-0.18825,0.0,2023,6,7,15,40,37,252
43.08940,-0.01680,-0.26915,0.00000,0.02952,0.97600,-0.18910,0.0,2023,6,7,15,40,37,262
43.08950,0.03570,-0.11165,0.00000,0.03270,0.97746,-0.18959,0.0,2023,6,7,15,40,37,272
43.08960,-0.03430,0.08085,0.00000,0.03038,0.98003,-0.18556,0.0,2023,6,7,15,40,37,282
43.08970,0.10570,-0.04165,0.00000,0.03026,0.97856,-0.18886,0.0,2023,6,7,15,40,37,292
43.08980,0.14070,-0.09415,0.00000,0.03062,0.97563,-0.18922,0.0,2023,6,7,15,40,37,302
43.08990,0.05320,0.08085,0.00000,0.03099,0.97637,-0.18910,0.0,2023,6,7,15,40,37,312
43.09000,0.05320,0.06335,0.00000,0.03209,0.97942,-0.18873,0.0,2023,6,7,15,40,37,322
43.09010,0.03570,-0.07665,0.00000,0.03160,0.97783,-0.19020,0.0,2023,6,7,15,40,37,332
43.09020,-0.13930,0.15085,0.00000,0.03184,0.97588,-0.18922,0.0,2023,6,7,15,40,37,342
43.09030,-0.13930,0.15085,0.00000,0.03184,0.97807,-0.18983,0.0,2023,6,7,15,40,37,352
43.09040,0.07070,-0.16415,0.00000,0.03038,0.97746,-0.18812,0.0,2023,6,7,15,40,37,362
43.09050,0.00070,-0.00665,0.00000,0.03099,0.97356,-0.19008,0.0,2023,6,7,15,40,37,372
43.09060,0.00070,0.02835,0.00000,0.03135,0.97807,-0.18886,0.0,2023,6,7,15,40,37,382
43.09070,-0.10430,0.08085,0.00000,0.03221,0.97429,-0.18849,0.0,2023,6,7,15,40,37,392
43.09080,0.19320,-0.00665,0.00000,0.03196,0.97551,-0.18886,0.0,2023,6,7,15,40,37,402
43.09090,0.05320,0.11585,0.00000,0.03257,0.97576,-0.18678,0.0,2023,6,7,15,40,37,412
43.09100,-0.15680,-0.00665,0.00000,0.03135,0.97661,-0.18898,0.0,2023,6,7,15,40,37,422
43.09110,0.05320,-0.07665,0.00000,0.03148,0.97685,-0.18849,0.0,2023,6,7,15,40,37,432
43.09120,-0.06930,-0.05915,0.00000,0.02940,0.97624,-0.18825,0.0,2023,6,7,15,40,37,442
43.09130,-0.15680,0.01085,0.00000,0.03038,0.97368,-0.18715,0.0,2023,6,7,15,40,37,452
43.09140,-0.06930,-0.21665,0.00000,0.03184,0.97881,-0.18642,0.0,2023,6,7,15,40,37,462
43.09150,-0.05180,0.32585,0.00000,0.03221,0.97832,-0.18849,0.0,2023,6,7,15,40,37,472
43.09160,-0.03430,-0.11165,0.00000,0.03087,0.97698,-0.19056,0.0,2023,6,7,15,40,37,482
43.09170,-0.13930,0.06335,0.00000,0.03062,0.97576,-0.18947,0.0,2023,6,7,15,40,37,492
43.09180,-0.05180,-0.14665,0.00000,0.03074,0.97490,-0.18837,0.0,2023,6,7,15,40,37,502
43.09190,-0.19180,0.15085,0.00000,0.03038,0.97527,-0.18873,0.0,2023,6,7,15,40,37,512
43.09200,-0.10430,0.18585,0.00000,0.03221,0.97746,-0.18788,0.0,2023,6,7,15,40,37,522
43.09210,0.17570,0.02835,0.00000,0.03160,0.97795,-0.18971,0.0,2023,6,7,15,40,37,532
43.09220,0.19320,-0.16415,0.00000,0.03087,0.97527,-0.18764,0.0,2023,6,7,15,40,37,542
43.09230,0.07070,-0.09415,0.00000,0.03111,0.97539,-0.18715,0.0,2023,6,7,15,40,37,552
43.09240,-0.01680,-0.00665,0.00000,0.03148,0.97661,-0.18922,0.0,2023,6,7,15,40,37,562
43.09250,-0.15680,0.18585,0.00000,0.03282,0.97515,-0.18873,0.0,2023,6,7,15,40,37,572
43.09260,0.07070,-0.09415,0.00000,0.03026,0.97673,-0.18825,0.0,2023,6,7,15,40,37,582
43.09270,-0.03430,-0.02415,0.00000,0.03343,0.97637,-0.18739,0.0,2023,6,7,15,40,37,592
43.09280,0.00070,0.13335,0.00000,0.03111,0.97685,-0.18703,0.0,2023,6,7,15,40,37,602
43.09290,0.03570,-0.04165,0.00000,0.03135,0.97649,-0.18971,0.0,2023,6,7,15,40,37,612
43.09300,-0.13930,0.11585,0.00000,0.03123,0.97515,-0.18825,0.0,2023,6,7,15,40,37,622
43.09310,0.03570,-0.09415,0.00000,0.03209,0.97624,-0.18934,0.0,2023,6,7,15,40,37,632
43.09320,0.07070,-0.00665,0.00000,0.03099,0.97502,-0.18788,0.0,2023,6,7,15,40,37,642
43.09330,0.10570,-0.23415,0.00000,0.03099,0.97685,-0.18886,0.0,2023,6,7,15,40,37,652
43.09340,0.19320,0.02835,0.00000,0.03209,0.97722,-0.19117,0.0,2023,6,7,15,40,37,662
43.09350,-0.05180,0.02835,0.00000,0.03465,0.97734,-0.18812,0.0,2023,6,7,15,40,37,672
43.09360,0.05320,-0.05915,0.00000,0.03221,0.97515,-0.19069,0.0,2023,6,7,15,40,37,682
43.09370,0.07070,-0.09415,0.00000,0.03404,0.97624,-0.18703,0.0,2023,6,7,15,40,37,692
43.09380,-0.01680,-0.07665,0.00000,0.03074,0.97600,-0.19154,0.0,2023,6,7,15,40,37,702
43.09390,0.12320,0.08085,0.00000,0.03172,0.97502,-0.18849,0.0,2023,6,7,15,40,37,712
43.09400,-0.01680,-0.11165,0.00000,0.02989,0.97563,-0.18825,0.0,2023,6,7,15,40,37,722
43.09410,0.10570,-0.00665,0.00000,0.02952,0.97685,-0.18873,0.0,2023,6,7,15,40,37,732
43.09420,-0.10430,-0.05915,0.00000,0.03111,0.97600,-0.18703,0.0,2023,6,7,15,40,37,742
43.09430,-0.26180,-0.12915,0.00000,0.03038,0.97710,-0.18812,0.0,2023,6,7,15,40,37,752
43.09440,0.05320,0.08085,0.00000,0.03013,0.97478,-0.18825,0.0,2023,6,7,15,40,37,762
43.09450,-0.08680,-0.04165,0.00000,0.03270,0.97832,-0.18837,0.0,2023,6,7,15,40,37,772
43.09460,-0.15680,0.20335,0.00000,0.03233,0.97698,-0.19044,0.0,2023,6,7,15,40,37,782
43.09470,0.17570,-0.11165,0.00000,0.03184,0.97795,-0.18788,0.0,2023,6,7,15,40,38,792
43.09480,-0.20930,0.09835,0.00000,0.03062,0.97722,-0.18764,0.0,2023,6,7,15,40,38,802
43.09490,0.22820,0.01085,0.00000,0.03087,0.97673,-0.18873,0.0,2023,6,7,15,40,38,812
43.09500,0.14070,0.09835,0.00000,0.03099,0.97759,-0.18910,0.0,2023,6,7,15,40,38,822
43.09510,-0.20930,0.01085,0.00000,0.03318,0.97539,-0.18825,0.0,2023,6,7,15,40,38,832
43.09520,-0.26180,0.01085,0.00000,0.03306,0.97624,-0.19044,0.0,2023,6,7,15,40,38,842
43.09530,-0.15680,0.15085,0.00000,0.02904,0.97637,-0.19008,0.0,2023,6,7,15,40,38,852
43.09540,0.10570,-0.04165,0.00000,0.03050,0.97710,-0.19203,0.0,2023,6,7,15,40,38,862
43.09550,-0.06930,-0.00665,0.00000,0.03013,0.97637,-0.18995,0.0,2023,6,7,15,40,38,872
43.09560,-0.12180,0.15085,0.00000,0.03160,0.97734,-0.18861,0.0,2023,6,7,15,40,38,882
43.09570,0.10570,0.16835,0.00000,0.03343,0.97771,-0.19117,0.0,2023,6,7,15,40,38,892
43.09580,0.07070,0.08085,0.00000,0.03172,0.97502,-0.18898,0.0,2023,6,7,15,40,38,902
43.09590,-0.13930,-0.04165,0.00000,0.03038,0.97527,-0.18776,0.0,2023,6,7,15,40,38,912
43.09600,0.26320,-0.09415,0.00000,0.02952,0.97893,-0.19032,0.0,2023,6,7,15,40,38,922
43.09610,-0.05180,-0.02415,0.00000,0.03087,0.97649,-0.18934,0.0,2023,6,7,15,40,38,932
43.09620,-0.13930,0.11585,0.00000,0.03599,0.97515,-0.19020,0.0,2023,6,7,15,40,38,942
43.09630,-0.20930,-0.00665,0.00000,0.03184,0.97515,-0.18837,0.0,2023,6,7,15,40,38,952
43.09640,-0.19180,0.02835,0.00000,0.03062,0.97612,-0.18983,0.0,2023,6,7,15,40,38,962
43.09650,0.22820,-0.25165,0.00000,0.03050,0.97588,-0.19300,0.0,2023,6,7,15,40,38,972
43.09660,-0.12180,0.18585,0.00000,0.03026,0.97441,-0.19044,0.0,2023,6,7,15,40,38,982
43.09670,-0.12180,0.04585,0.00000,0.03184,0.97576,-0.18764,0.0,2023,6,7,15,40,38,992
43.09680,0.03570,0.01085,0.00000,0.03160,0.97698,-0.19105,0.0,2023,6,7,15,40,38,2
43.09690,0.12320,0.04585,0.00000,0.03050,0.97637,-0.18995,0.0,2023,6,7,15,40,38,12
43.09700,0.26320,-0.05915,0.00000,0.03111,0.97698,-0.18837,0.0,2023,6,7,15,40,38,22
43.09710,-0.06930,-0.04165,0.00000,0.03172,0.97685,-0.19008,0.0,2023,6,7,15,40,38,32
43.09720,-0.01680,0.02835,0.00000,0.03257,0.97820,-0.18959,0.0,2023,6,7,15,40,38,42
43.09730,0.00070,0.01085,0.00000,0.03135,0.97624,-0.18983,0.0,2023,6,7,15,40,38,52
43.09740,-0.10430,0.08085,0.00000,0.03282,0.97673,-0.19117,0.0,2023,6,7,15,40,38,62
43.09750,0.12320,-0.21665,0.00000,0.03160,0.97783,-0.19008,0.0,2023,6,7,15,40,38,72
43.09760,-0.24430,0.23835,0.00000,0.03123,0.97612,-0.18910,0.0,2023,6,7,15,40,38,82
43.09770,-0.15680,-0.07665,0.00000,0.03343,0.97466,-0.18825,0.0,2023,6,7,15,40,38,92
43.09780,0.00070,0.01085,0.00000,0.03306,0.97624,-0.18959,0.0,2023,6,7,15,40,38,102
43.09790,-0.08680,-0.23415,0.00000,0.03172,0.97551,-0.18800,0.0,2023,6,7,15,40,38,112
43.09800,0.01820,0.06335,0.00000,0.03160,0.97527,-0.18995,0.0,2023,6,7,15,40,38,122
43.09810,0.21070,-0.16415,0.00000,0.03148,0.97734,-0.19215,0.0,2023,6,7,15,40,38,132
43.09820,0.07070,0.20335,0.00000,0.03087,0.97673,-0.19117,0.0,2023,6,7,15,40,38,142
43.09830,-0.01680,-0.05915,0.00000,0.03148,0.97600,-0.18971,0.0,2023,6,7,15,40,38,152
43.09840,-0.08680,0.11585,0.00000,0.03209,0.97771,-0.18934,0.0,2023,6,7,15,40,38,162
43.09850,-0.17430,-0.02415,0.00000,0.03160,0.97759,-0.19105,0.0,2023,6,7,15,40,38,172
43.09860,0.01820,-0.09415,0.00000,0.03160,0.97551,-0.19032,0.0,2023,6,7,15,40,38,182
43.09870,0.28070,-0.14665,0.00000,0.03026,0.97759,-0.19130,0.0,2023,6,7,15,40,38,192
43.09880,0.12320,-0.05915,0.00000,0.03245,0.97600,-0.19056,0.0,2023,6,7,15,40,38,202
43.09890,-0.22680,-0.09415,0.00000,0.03257,0.97685,-0.18959,0.0,2023,6,7,15,40,38,212
43.09900,0.21070,0.15085,0.00000,0.03221,0.97624,-0.19056,0.0,2023,6,7,15,40,38,222
43.09910,-0.13930,-0.16415,0.00000,0.03367,0.97527,-0.18934,0.0,2023,6,7,15,40,38,232
43.09920,-0.20930,0.11585,0.00000,0.03013,0.97746,-0.18861,0.0,2023,6,7,15,40,38,242
43.09930,-0.03430,-0.05915,0.00000,0.03013,0.97685,-0.19020,0.0,2023,6,7,15,40,38,252
43.09940,0.08820,-0.05915,0.00000,0.03404,0.97624,-0.18788,0.0,2023,6,7,15,40,38,262
43.09950,-0.10430,-0.05915,0.00000,0.03135,0.97490,-0.18825,0.0,2023,6,7,15,40,38,272
43.09960,-0.05180,0.22085,0.00000,0.03282,0.97527,-0.18995,0.0,2023,6,7,15,40,38,282
43.09970,0.03570,0.02835,0.00000,0.03172,0.97563,-0.18764,0.0,2023,6,7,15,40,38,292
43.09980,-0.10430,0.09835,0.00000,0.02989,0.97734,-0.18910,0.0,2023,6,7,15,40,38,302
43.09990,-0.06930,-0.04165,0.00000,0.03148,0.97441,-0.19264,0.0,2023,6,7,15,40,38,312
43.10000,0.07070,-0.11165,0.00000,0.03111,0.97637,-0.18947,0.0,2023,6,7,15,40,38,322
43.10010,-0.03430,0.01085,0.00000,0.03026,0.97515,-0.19020,0.0,2023,6,7,15,40,38,332
43.10020,0.21070,-0.12915,0.00000,0.03257,0.97624,-0.18995,0.0,2023,6,7,15,40,38,342
43.10030,-0.15680,-0.00665,0.00000,0.03050,0.97795,-0.18922,0.0,2023,6,7,15,40,38,352
43.10040,-0.03430,0.04585,0.00000,0.03050,0.97576,-0.19069,0.0,2023,6,7,15,40,38,362
43.10050,0.19320,-0.14665,0.00000,0.03062,0.97649,-0.18959,0.0,2023,6,7,15,40,38,372
43.10060,-0.10430,-0.00665,0.00000,0.03184,0.97539,-0.18837,0.0,2023,6,7,15,40,38,382
43.10070,0.08820,0.01085,0.00000,0.02977,0.97746,-0.19142,0.0,2023,6,7,15,40,38,392
43.10080,0.24570,-0.16415,0.00000,0.03160,0.97551,-0.19056,0.0,2023,6,7,15,40,38,402
43.10090,-0.13930,-0.16415,0.00000,0.03172,0.97783,-0.18886,0.0,2023,6,7,15,40,38,412
43.10100,-0.10430,0.13335,0.00000,0.03013,0.97734,-0.18971,0.0,2023,6,7,15,40,38,422
43.10110,0.03570,-0.11165,0.00000,0.03160,0.97820,-0.19178,0.0,2023,6,7,15,40,38,432
43.10120,0.05320,0.06335,0.00000,0.03013,0.97856,-0.18959,0.0,2023,6,7,15,40,38,442
43.10130,0.14070,0.01085,0.00000,0.02940,0.97539,-0.19056,0.0,2023,6,7,15,40,38,452
43.10140,-0.08680,0.15085,0.00000,0.03196,0.97527,-0.18947,0.0,2023,6,7,15,40,38,462
43.10150,-0.20930,-0.12915,0.00000,0.03074,0.97673,-0.19008,0.0,2023,6,7,15,40,38,472
43.10160,0.08820,0.18585,0.00000,0.03099,0.97612,-0.18971,0.0,2023,6,7,15,40,38,482
43.10170,-0.01680,-0.02415,0.00000,0.03257,0.97673,-0.18971,0.0,2023,6,7,15,40,38,492
43.10180,0.00070,0.06335,0.00000,0.03050,0.97710,-0.18959,0.0,2023,6,7,15,40,38,502
43.10190,-0.08680,0.02835,0.00000,0.02977,0.97612,-0.19008,0.0,2023,6,7,15,40,38,512
43.10200,0.05320,0.01085,0.00000,0.02989,0.97746,-0.18910,0.0,2023,6,7,15,40,38,522
43.10210,-0.15680,0.11585,0.00000,0.03160,0.97820,-0.19069,0.0,2023,6,7,15,40,38,532
43.10220,-0.05180,0.01085,0.00000,0.03306,0.97771,-0.19386,0.0,2023,6,7,15,40,38,542
43.10230,0.07070,0.16835,0.00000,0.03038,0.97734,-0.18739,0.0,2023,6,7,15,40,38,552
43.10240,-0.01680,0.02835,0.00000,0.03233,0.97441,-0.19117,0.0,2023,6,7,15,40,38,562
43.10250,-0.03430,-0.12915,0.00000,0.02952,0.97746,-0.19044,0.0,2023,6,7,15,40,38,572
43.10260,0.14070,0.02835,0.00000,0.03221,0.97673,-0.19239,0.0,2023,6,7,15,40,38,582
43.10270,-0.29680,0.16835,0.00000,0.03294,0.97746,-0.18898,0.0,2023,6,7,15,40,38,592
43.10280,-0.12180,0.09835,0.00000,0.03087,0.97600,-0.19239,0.0,2023,6,7,15,40,38,602
43.10290,0.17570,-0.09415,0.00000,0.03001,0.97710,-0.18959,0.0,2023,6,7,15,40,38,612
43.10300,-0.10430,0.01085,0.00000,0.03282,0.97417,-0.18776,0.0,2023,6,7,15,40,38,622
43.10310,0.08820,-0.07665,0.00000,0.03270,0.97673,-0.19264,0.0,2023,6,7,15,40,38,632
43.10320,-0.06930,0.09835,0.00000,0.03233,0.97832,-0.19032,0.0,2023,6,7,15,40,38,642
43.10330,-0.12180,-0.02415,0.00000,0.03038,0.97344,-0.18983,0.0,2023,6,7,15,40,38,652
43.10340,0.19320,0.15085,0.00000,0.02940,0.97563,-0.18873,0.0,2023,6,7,15,40,38,662
43.10350,-0.20930,0.16835,0.00000,0.03111,0.97771,-0.18715,0.0,2023,6,7,15,40,38,672
43.10360,0.03570,-0.04165,0.00000,0.03111,0.97490,-0.19337,0.0,2023,6,7,15,40,39,682
43.10370,0.15820,0.01085,0.00000,0.03160,0.97393,-0.18690,0.0,2023,6,7,15,40,39,692
43.10380,-0.31430,-0.02415,0.00000,0.03087,0.97478,-0.19227,0.0,2023,6,7,15,40,39,702
43.10390,0.35070,0.08085,0.00000,0.03294,0.97734,-0.19215,0.0,2023,6,7,15,40,39,712
43.10400,-0.45430,0.13335,0.00000,0.03123,0.97527,-0.18629,0.0,2023,6,7,15,40,39,722
43.10410,-0.17430,-0.00665,0.00000,0.02965,0.97820,-0.19191,0.0,2023,6,7,15,40,39,732
43.10420,0.17570,0.22085,0.00000,0.03050,0.97868,-0.18764,0.0,2023,6,7,15,40,39,742
43.10430,-0.43680,0.16835,0.00000,0.03050,0.97661,-0.18800,0.0,2023,6,7,15,40,39,752
43.10440,0.08820,-0.09415,0.00000,0.02891,0.97551,-0.19154,0.0,2023,6,7,15,40,39,762
43.10450,-0.29680,-0.00665,0.00000,0.03148,0.97563,-0.18788,0.0,2023,6,7,15,40,39,772
43.10460,-0.13930,-0.11165,0.00000,0.03160,0.97856,-0.19044,0.0,2023,6,7,15,40,39,782
43.10470,0.24570,-0.00665,0.00000,0.02989,0.97698,-0.19239,0.0,2023,6,7,15,40,39,792
43.10480,-0.43680,0.18585,0.00000,0.03306,0.97795,-0.18849,0.0,2023,6,7,15,40,39,802
43.10490,-0.05180,0.08085,0.00000,0.03123,0.97795,-0.19093,0.0,2023,6,7,15,40,39,812
43.10500,0.05320,0.02835,0.00000,0.03233,0.97856,-0.18849,0.0,2023,6,7,15,40,39,822
43.10510,-0.26180,0.08085,0.00000,0.03184,0.97502,-0.18581,0.0,2023,6,7,15,40,39,832
43.10520,0.43820,0.02835,0.00000,0.03123,0.97393,-0.19154,0.0,2023,6,7,15,40,39,842
43.10530,-0.10430,-0.09415,0.00000,0.03148,0.97771,-0.18678,0.0,2023,6,7,15,40,39,852
43.10540,-0.08680,-0.02415,0.00000,0.03087,0.97710,-0.18910,0.0,2023,6,7,15,40,39,862
43.10550,-0.12180,0.22085,0.00000,0.03209,0.97515,-0.18959,0.0,2023,6,7,15,40,39,872
43.10560,-0.12180,0.09835,0.00000,0.03038,0.97515,-0.18825,0.0,2023,6,7,15,40,39,882
43.10570,0.17570,0.11585,0.00000,0.03026,0.97685,-0.19154,0.0,2023,6,7,15,40,39,892
43.10580,0.12320,-0.09415,0.00000,0.03318,0.97649,-0.18678,0.0,2023,6,7,15,40,39,902
43.10590,-0.08680,-0.11165,0.00000,0.02916,0.97417,-0.18995,0.0,2023,6,7,15,40,39,912
43.10600,0.42070,-0.23415,0.00000,0.03172,0.97734,-0.18959,0.0,2023,6,7,15,40,39,922
43.10610,0.05320,-0.23415,0.00000,0.03123,0.97600,-0.18800,0.0,2023,6,7,15,40,39,932
43.10620,-0.22680,0.11585,0.00000,0.03026,0.97637,-0.19105,0.0,2023,6,7,15,40,39,942
43.10630,0.24570,-0.09415,0.00000,0.03306,0.97405,-0.18910,0.0,2023,6,7,15,40,39,952
43.10640,-0.31430,-0.14665,0.00000,0.03135,0.97649,-0.18873,0.0,2023,6,7,15,40,39,962
43.10650,0.29820,-0.04165,0.00000,0.02904,0.97588,-0.19264,0.0,2023,6,7,15,40,39,972
43.10660,-0.22680,0.16835,0.00000,0.03245,0.97600,-0.18410,0.0,2023,6,7,15,40,39,982
43.10670,-0.40180,0.01085,0.00000,0.02855,0.97685,-0.19069,0.0,2023,6,7,15,40,39,992
43.10680,0.36820,0.04585,0.00000,0.02916,0.97783,-0.19276,0.0,2023,6,7,15,40,39,2
43.10690,-0.26180,-0.07665,0.00000,0.03123,0.97637,-0.18751,0.0,2023,6,7,15,40,39,12
43.10700,0.10570,-0.07665,0.00000,0.03160,0.97746,-0.19288,0.0,2023,6,7,15,40,39,22
43.10710,0.38570,0.04585,0.00000,0.03331,0.97612,-0.18898,0.0,2023,6,7,15,40,39,32
43.10720,-0.27930,0.09835,0.00000,0.03038,0.97759,-0.18654,0.0,2023,6,7,15,40,39,42
43.10730,0.21070,0.08085,0.00000,0.02867,0.97673,-0.19191,0.0,2023,6,7,15,40,39,52
43.10740,0.21070,-0.16415,0.00000,0.03257,0.97673,-0.18959,0.0,2023,6,7,15,40,39,62
43.10750,-0.50680,0.04585,0.00000,0.03050,0.97795,-0.18861,0.0,2023,6,7,15,40,39,72
43.10760,0.29820,0.04585,0.00000,0.03111,0.97759,-0.19252,0.0,2023,6,7,15,40,39,82
43.10770,0.03570,0.23835,0.00000,0.03172,0.97746,-0.18715,0.0,2023,6,7,15,40,39,92
43.10780,-0.38430,-0.18165,0.00000,0.03196,0.97576,-0.18886,0.0,2023,6,7,15,40,39,102
43.10790,0.42070,-0.00665,0.00000,0.03050,0.97661,-0.19032,0.0,2023,6,7,15,40,39,112
43.10800,-0.43680,0.04585,0.00000,0.03331,0.97673,-0.18617,0.0,2023,6,7,15,40,39,122
43.10810,-0.13930,-0.04165,0.00000,0.03087,0.97698,-0.19374,0.0,2023,6,7,15,40,39,132
43.10820,0.17570,0.06335,0.00000,0.03099,0.97624,-0.19008,0.0,2023,6,7,15,40,39,142
43.10830,-0.24430,-0.04165,0.00000,0.03282,0.97783,-0.18739,0.0,2023,6,7,15,40,39,152
43.10840,0.15820,-0.11165,0.00000,0.02965,0.97551,-0.19191,0.0,2023,6,7,15,40,39,162
43.10850,0.12320,0.02835,0.00000,0.03282,0.97454,-0.18995,0.0,2023,6,7,15,40,39,172
43.10860,-0.22680,-0.07665,0.00000,0.03074,0.97868,-0.18812,0.0,2023,6,7,15,40,39,182
43.10870,0.29820,0.13335,0.00000,0.03221,0.97807,-0.19215,0.0,2023,6,7,15,40,39,192
43.10880,0.12320,0.16835,0.00000,0.03282,0.97429,-0.18837,0.0,2023,6,7,15,40,39,202
43.10890,-0.19180,-0.12915,0.00000,0.03209,0.97783,-0.19044,0.0,2023,6,7,15,40,39,212
43.10900,0.10570,0.04585,0.00000,0.03135,0.97502,-0.19008,0.0,2023,6,7,15,40,39,222
43.10910,-0.01680,0.13335,0.00000,0.03221,0.97710,-0.19130,0.0,2023,6,7,15,40,39,232
43.10920,-0.43680,0.02835,0.00000,0.03050,0.97771,-0.18776,0.0,2023,6,7,15,40,39,242
43.10930,-0.10430,-0.12915,0.00000,0.03184,0.97710,-0.18983,0.0,2023,6,7,15,40,39,252
43.10940,0.03570,-0.02415,0.00000,0.03160,0.97588,-0.18922,0.0,2023,6,7,15,40,39,262
43.10950,-0.03430,-0.00665,0.00000,0.03062,0.97539,-0.18983,0.0,2023,6,7,15,40,39,272
43.10960,0.15820,0.01085,0.00000,0.03196,0.97637,-0.19044,0.0,2023,6,7,15,40,39,282
43.10970,-0.15680,0.15085,0.00000,0.03160,0.97649,-0.19105,0.0,2023,6,7,15,40,39,292
43.10980,-0.06930,-0.04165,0.00000,0.03209,0.97661,-0.19069,0.0,2023,6,7,15,40,39,302
43.10990,0.00070,-0.09415,0.00000,0.03318,0.97856,-0.18959,0.0,2023,6,7,15,40,39,312
43.11000,0.10570,-0.02415,0.00000,0.03209,0.97527,-0.18581,0.0,2023,6,7,15,40,39,322
43.11010,-0.19180,0.09835,0.00000,0.03209,0.97539,-0.19044,0.0,2023,6,7,15,40,39,332
43.11020,0.03570,0.01085,0.00000,0.03074,0.97685,-0.18995,0.0,2023,6,7,15,40,39,342
43.11030,-0.03430,0.13335,0.00000,0.03282,0.97600,-0.18898,0.0,2023,6,7,15,40,39,352
43.11040,0.05320,-0.04165,0.00000,0.03001,0.97637,-0.18825,0.0,2023,6,7,15,40,39,362
43.11050,0.14070,0.02835,0.00000,0.03135,0.97685,-0.18983,0.0,2023,6,7,15,40,39,372
43.11060,-0.15680,-0.05915,0.00000,0.03367,0.97454,-0.18739,0.0,2023,6,7,15,40,39,382
43.11070,-0.05180,0.04585,0.00000,0.03184,0.97600,-0.19105,0.0,2023,6,7,15,40,39,392
43.11080,0.05320,0.06335,0.00000,0.03306,0.97600,-0.18788,0.0,2023,6,7,15,40,39,402
43.11090,-0.08680,0.02835,0.00000,0.03416,0.97612,-0.19130,0.0,2023,6,7,15,40,39,412
43.11100,-0.08680,0.08085,0.00000,0.03001,0.97576,-0.19154,0.0,2023,6,7,15,40,39,422
43.11110,0.05320,-0.12915,0.00000,0.03160,0.97600,-0.18995,0.0,2023,6,7,15,40,39,432
43.11120,0.01820,0.04585,0.00000,0.02965,0.97832,-0.19117,0.0,2023,6,7,15,40,39,442
43.11130,0.17570,0.08085,0.00000,0.03184,0.97551,-0.19398,0.0,2023,6,7,15,40,39,452
43.11140,-0.24430,0.04585,0.00000,0.03160,0.97600,-0.19081,0.0,2023,6,7,15,40,39,462
43.11150,-0.01680,0.02835,0.00000,0.03221,0.97710,-0.19093,0.0,2023,6,7,15,40,39,472
43.11160,-0.01680,0.13335,0.00000,0.03001,0.97454,-0.19239,0.0,2023,6,7,15,40,39,482
43.11170,0.10570,-0.02415,0.00000,0.03221,0.97344,-0.19288,0.0,2023,6,7,15,40,39,492
43.11180,0.07070,-0.12915,0.00000,0.03062,0.97637,-0.19032,0.0,2023,6,7,15,40,39,502
43.11190,-0.05180,-0.00665,0.00000,0.02891,0.97771,-0.19020,0.0,2023,6,7,15,40,39,512
43.11200,-0.13930,-0.05915,0.00000,0.03013,0.97551,-0.19203,0.0,2023,6,7,15,40,39,522
43.11210,-0.01680,0.04585,0.00000,0.03196,0.97612,-0.18898,0.0,2023,6,7,15,40,39,532
43.11220,-0.05180,-0.07665,0.00000,0.03160,0.97698,-0.19117,0.0,2023,6,7,15,40,39,542
43.11230,0.07070,-0.02415,0.00000,0.03062,0.97734,-0.19081,0.0,2023,6,7,15,40,39,552
43.11240,0.12320,-0.11165,0.00000,0.02977,0.97746,-0.18959,0.0,2023,6,7,15,40,39,562
43.11250,0.01820,0.16835,0.00000,0.03013,0.97759,-0.18971,0.0,2023,6,7,15,40,40,572
43.11260,0.15820,-0.12915,0.00000,0.03062,0.97612,-0.18947,0.0,2023,6,7,15,40,40,582
43.11270,-0.05180,0.20335,0.00000,0.03233,0.97673,-0.19081,0.0,2023,6,7,15,40,40,592
43.11280,-0.13930,0.08085,0.00000,0.03245,0.97795,-0.19227,0.0,2023,6,7,15,40,40,602
43.11290,0.14070,-0.14665,0.00000,0.02989,0.97661,-0.18873,0.0,2023,6,7,15,40,40,612
43.11300,-0.26180,-0.11165,0.00000,0.03135,0.97771,-0.19020,0.0,2023,6,7,15,40,40,622
43.11310,0.01820,-0.11165,0.00000,0.03245,0.97441,-0.19178,0.0,2023,6,7,15,40,40,632
43.11320,0.07070,-0.02415,0.00000,0.02952,0.97637,-0.18971,0.0,2023,6,7,15,40,40,642
43.11330,-0.03430,0.04585,0.00000,0.03355,0.97710,-0.19020,0.0,2023,6,7,15,40,40,652
43.11340,0.05320,-0.14665,0.00000,0.03233,0.97673,-0.19130,0.0,2023,6,7,15,40,40,662
43.11350,0.05320,0.06335,0.00000,0.03233,0.97588,-0.19081,0.0,2023,6,7,15,40,40,672
43.11360,-0.20930,0.18585,0.00000,0.03135,0.97710,-0.18983,0.0,2023,6,7,15,40,40,682
43.11370,0.19320,0.08085,0.00000,0.03209,0.97612,-0.19203,0.0,2023,6,7,15,40,40,692
43.11380,-0.19180,0.15085,0.00000,0.03148,0.97417,-0.18703,0.0,2023,6,7,15,40,40,702
43.11390,0.03570,-0.11165,0.00000,0.03001,0.97661,-0.19154,0.0,2023,6,7,15,40,40,712
43.11400,-0.12180,0.20335,0.00000,0.03001,0.97807,-0.18776,0.0,2023,6,7,15,40,40,722
43.11410,-0.17430,0.11585,0.00000,0.03001,0.97807,-0.18629,0.0,2023,6,7,15,40,40,732
43.11420,0.07070,-0.04165,0.00000,0.03331,0.97673,-0.18971,0.0,2023,6,7,15,40,40,742
43.11430,-0.03430,-0.09415,0.00000,0.03123,0.97685,-0.18910,0.0,2023,6,7,15,40,40,752
43.11440,-0.01680,-0.11165,0.00000,0.03099,0.97490,-0.19020,0.0,2023,6,7,15,40,40,762
43.11450,-0.03430,-0.12915,0.00000,0.03087,0.97722,-0.18715,0.0,2023,6,7,15,40,40,772
43.11460,-0.13930,0.09835,0.00000,0.03331,0.97563,-0.19252,0.0,2023,6,7,15,40,40,782
43.11470,0.00070,-0.02415,0.00000,0.03099,0.97588,-0.19081,0.0,2023,6,7,15,40,40,792
43.11480,0.03570,0.13335,0.00000,0.03318,0.97637,-0.19032,0.0,2023,6,7,15,40,40,802
43.11490,-0.06930,0.04585,0.00000,0.03074,0.97795,-0.19020,0.0,2023,6,7,15,40,40,812
43.11500,0.00070,-0.07665,0.00000,0.03038,0.97698,-0.19142,0.0,2023,6,7,15,40,40,822
43.11510,-0.15680,0.08085,0.00000,0.03221,0.97661,-0.18898,0.0,2023,6,7,15,40,40,832
43.11520,-0.03430,0.01085,0.00000,0.03160,0.97685,-0.19239,0.0,2023,6,7,15,40,40,842
43.11530,-0.01680,0.36085,0.00000,0.03038,0.97698,-0.19044,0.0,2023,6,7,15,40,40,852
43.11540,0.05320,-0.12915,0.00000,0.03282,0.97478,-0.19166,0.0,2023,6,7,15,40,40,862
43.11550,-0.06930,-0.07665,0.00000,0.03062,0.97515,-0.19264,0.0,2023,6,7,15,40,40,872
43.11560,-0.15680,0.02835,0.00000,0.03111,0.97661,-0.19252,0.0,2023,6,7,15,40,40,882
43.11570,0.17570,-0.16415,0.00000,0.03087,0.97637,-0.19154,0.0,2023,6,7,15,40,40,892
43.11580,-0.05180,-0.00665,0.00000,0.03160,0.97673,-0.18910,0.0,2023,6,7,15,40,40,902
43.11590,-0.24430,0.06335,0.00000,0.03160,0.97637,-0.19191,0.0,2023,6,7,15,40,40,912
43.11600,-0.03430,0.18585,0.00000,0.03245,0.97551,-0.18983,0.0,2023,6,7,15,40,40,922
43.11610,-0.01680,-0.05915,0.00000,0.03257,0.97588,-0.19032,0.0,2023,6,7,15,40,40,932
43.11620,-0.20930,-0.11165,0.00000,0.03245,0.97856,-0.18971,0.0,2023,6,7,15,40,40,942
43.11630,0.10570,-0.02415,0.00000,0.03038,0.97490,-0.18837,0.0,2023,6,7,15,40,40,952
43.11640,0.14070,0.02835,0.00000,0.03270,0.97746,-0.18947,0.0,2023,6,7,15,40,40,962
43.11650,-0.13930,0.16835,0.00000,0.03184,0.97734,-0.19081,0.0,2023,6,7,15,40,40,972
43.11660,0.22820,-0.00665,0.00000,0.03135,0.97637,-0.19166,0.0,2023,6,7,15,40,40,982
43.11670,-0.12180,0.08085,0.00000,0.02891,0.97490,-0.18971,0.0,2023,6,7,15,40,40,992
43.11680,-0.08680,0.08085,0.00000,0.03026,0.97624,-0.18837,0.0,2023,6,7,15,40,40,2
43.11690,-0.06930,0.04585,0.00000,0.03318,0.97771,-0.19008,0.0,2023,6,7,15,40,40,12
43.11700,-0.10430,-0.07665,0.00000,0.03050,0.97527,-0.19093,0.0,2023,6,7,15,40,40,22
43.11710,-0.05180,0.01085,0.00000,0.03062,0.97490,-0.18715,0.0,2023,6,7,15,40,40,32
43.11720,0.21070,-0.02415,0.00000,0.03184,0.97771,-0.18983,0.0,2023,6,7,15,40,40,42
43.11730,0.08820,0.11585,0.00000,0.03135,0.97954,-0.18776,0.0,2023,6,7,15,40,40,52
43.11740,0.03570,0.15085,0.00000,0.02916,0.97844,-0.19178,0.0,2023,6,7,15,40,40,62
43.11750,-0.19180,0.11585,0.00000,0.03209,0.97746,-0.18654,0.0,2023,6,7,15,40,40,72
43.11760,0.03570,0.02835,0.00000,0.03074,0.97673,-0.19032,0.0,2023,6,7,15,40,40,82
43.11770,0.05320,-0.16415,0.00000,0.02977,0.97905,-0.18886,0.0,2023,6,7,15,40,40,92
43.11780,-0.20930,0.20335,0.00000,0.03111,0.97576,-0.19020,0.0,2023,6,7,15,40,40,102
43.11790,-0.05180,0.01085,0.00000,0.03172,0.97490,-0.18837,0.0,2023,6,7,15,40,40,112
43.11800,0.07070,0.08085,0.00000,0.03270,0.97441,-0.19069,0.0,2023,6,7,15,40,40,122
43.11810,-0.12180,-0.11165,0.00000,0.03453,0.97380,-0.19081,0.0,2023,6,7,15,40,40,132
43.11820,0.00070,0.27335,0.00000,0.03001,0.97783,-0.18751,0.0,2023,6,7,15,40,40,142
43.11830,0.01820,-0.05915,0.00000,0.03245,0.97649,-0.19020,0.0,2023,6,7,15,40,40,152
43.11840,0.12320,0.09835,0.00000,0.03111,0.97380,-0.18861,0.0,2023,6,7,15,40,40,162
43.11850,0.03570,-0.00665,0.00000,0.03172,0.97332,-0.18593,0.0,2023,6,7,15,40,40,172
43.11860,-0.06930,-0.07665,0.00000,0.02989,0.97344,-0.19178,0.0,2023,6,7,15,40,40,182
43.11870,-0.06930,-0.21665,0.00000,0.02916,0.97905,-0.18971,0.0,2023,6,7,15,40,40,192
43.11880,0.12320,-0.05915,0.00000,0.03062,0.97820,-0.19093,0.0,2023,6,7,15,40,40,202
43.11890,0.15820,-0.00665,0.00000,0.03245,0.97661,-0.18861,0.0,2023,6,7,15,40,40,212
43.11900,-0.12180,0.01085,0.00000,0.03318,0.97795,-0.18837,0.0,2023,6,7,15,40,40,222
43.11910,0.08820,-0.19915,0.00000,0.03282,0.97734,-0.19178,0.0,2023,6,7,15,40,40,232
43.11920,0.01820,0.06335,0.00000,0.03172,0.97563,-0.18910,0.0,2023,6,7,15,40,40,242
43.11930,0.10570,-0.07665,0.00000,0.03245,0.97685,-0.19130,0.0,2023,6,7,15,40,40,252
43.11940,-0.10430,0.18585,0.00000,0.03196,0.97417,-0.18751,0.0,2023,6,7,15,40,40,262
43.11950,-0.10430,0.09835,0.00000,0.03221,0.97710,-0.18971,0.0,2023,6,7,15,40,40,272
43.11960,-0.03430,-0.11165,0.00000,0.03013,0.97454,-0.19239,0.0,2023,6,7,15,40,40,282
43.11970,-0.19180,0.25585,0.00000,0.03062,0.97820,-0.19117,0.0,2023,6,7,15,40,40,292
43.11980,-0.03430,0.06335,0.00000,0.03440,0.97502,-0.19008,0.0,2023,6,7,15,40,40,302
43.11990,-0.12180,0.20335,0.00000,0.03221,0.97698,-0.18812,0.0,2023,6,7,15,40,40,312
43.12000,0.12320,0.06335,0.00000,0.03135,0.97539,-0.19020,0.0,2023,6,7,15,40,40,322
43.12010,-0.08680,-0.14665,0.00000,0.03135,0.97893,-0.19081,0.0,2023,6,7,15,40,40,332
43.12020,-0.01680,-0.00665,0.00000,0.03184,0.97551,-0.18922,0.0,2023,6,7,15,40,40,342
43.12030,-0.08680,-0.12915,0.00000,0.03148,0.97710,-0.19227,0.0,2023,6,7,15,40,40,352
43.12040,-0.19180,0.27335,0.00000,0.03453,0.97698,-0.18703,0.0,2023,6,7,15,40,40,362
43.12050,0.03570,-0.00665,0.00000,0.03416,0.97710,-0.18898,0.0,2023,6,7,15,40,40,372
43.12060,0.00070,-0.09415,0.00000,0.03209,0.97698,-0.18959,0.0,2023,6,7,15,40,40,382
43.12070,-0.01680,0.13335,0.00000,0.03074,0.97637,-0.18837,0.0,2023,6,7,15,40,40,392
43.12080,0.08820,-0.09415,0.00000,0.02904,0.97576,-0.18983,0.0,2023,6,7,15,40,40,402
43.12090,-0.01680,0.01085,0.00000,0.03074,0.97649,-0.18873,0.0,2023,6,7,15,40,40,412
43.12100,0.22820,0.09835,0.00000,0.03013,0.97734,-0.18800,0.0,2023,6,7,15,40,40,422
43.12110,-0.01680,-0.11165,0.00000,0.02879,0.97698,-0.19117,0.0,2023,6,7,15,40,40,432
43.12120,-0.15680,-0.02415,0.00000,0.03050,0.97734,-0.19020,0.0,2023,6,7,15,40,40,442
43.12130,-0.38430,0.08085,0.00000,0.03099,0.97563,-0.18934,0.0,2023,6,7,15,40,40,452
43.12140,-0.12180,0.20335,0.00000,0.03245,0.97368,-0.18788,0.0,2023,6,7,15,40,40,462
43.12150,0.28070,-0.09415,0.00000,0.03123,0.97551,-0.18849,0.0,2023,6,7,15,40,41,472
43.12160,0.05320,0.01085,0.00000,0.03221,0.97771,-0.18849,0.0,2023,6,7,15,40,41,482
43.12170,0.12320,0.01085,0.00000,0.03245,0.97698,-0.19044,0.0,2023,6,7,15,40,41,492
43.12180,-0.01680,-0.09415,0.00000,0.03074,0.97698,-0.19008,0.0,2023,6,7,15,40,41,502
43.12190,0.10570,0.15085,0.00000,0.02916,0.97429,-0.18995,0.0,2023,6,7,15,40,41,512
43.12200,-0.19180,0.06335,0.00000,0.03135,0.97502,-0.18849,0.0,2023,6,7,15,40,41,522
43.12210,-0.15680,0.08085,0.00000,0.02989,0.97612,-0.18776,0.0,2023,6,7,15,40,41,532
43.12220,-0.20930,0.34335,0.00000,0.03245,0.97661,-0.18837,0.0,2023,6,7,15,40,41,542
43.12230,0.03570,-0.07665,0.00000,0.03050,0.97490,-0.18971,0.0,2023,6,7,15,40,41,552
43.12240,-0.10430,-0.05915,0.00000,0.03026,0.97990,-0.19032,0.0,2023,6,7,15,40,41,562
43.12250,0.08820,-0.02415,0.00000,0.03099,0.97722,-0.18825,0.0,2023,6,7,15,40,41,572
43.12260,-0.05180,-0.07665,0.00000,0.03050,0.97868,-0.18825,0.0,2023,6,7,15,40,41,582
43.12270,-0.17430,0.06335,0.00000,0.02989,0.97661,-0.18910,0.0,2023,6,7,15,40,41,592
43.12280,0.03570,0.06335,0.00000,0.03038,0.97588,-0.19069,0.0,2023,6,7,15,40,41,602
43.12290,-0.05180,-0.14665,0.00000,0.03013,0.97515,-0.18898,0.0,2023,6,7,15,40,41,612
43.12300,-0.08680,-0.02415,0.00000,0.03135,0.97661,-0.19008,0.0,2023,6,7,15,40,41,622
43.12310,-0.19180,0.22085,0.00000,0.03209,0.97771,-0.18959,0.0,2023,6,7,15,40,41,632
43.12320,-0.19180,0.25585,0.00000,0.03123,0.97405,-0.18971,0.0,2023,6,7,15,40,41,642
43.12330,0.05320,0.11585,0.00000,0.02940,0.97649,-0.18812,0.0,2023,6,7,15,40,41,652
43.12340,-0.17430,0.01085,0.00000,0.03062,0.97515,-0.18922,0.0,2023,6,7,15,40,41,662
43.12350,-0.24430,-0.07665,0.00000,0.03184,0.97746,-0.19117,0.0,2023,6,7,15,40,41,672
43.12360,0.26320,-0.07665,0.00000,0.03245,0.97368,-0.18922,0.0,2023,6,7,15,40,41,682
43.12370,-0.15680,0.22085,0.00000,0.03306,0.97515,-0.18861,0.0,2023,6,7,15,40,41,692
43.12380,-0.05180,0.04585,0.00000,0.03099,0.97624,-0.18849,0.0,2023,6,7,15,40,41,702
43.12390,0.01820,-0.04165,0.00000,0.03050,0.97710,-0.18825,0.0,2023,6,7,15,40,41,712
43.12400,-0.01680,-0.07665,0.00000,0.03221,0.97600,-0.19300,0.0,2023,6,7,15,40,41,722
43.12410,-0.13930,0.06335,0.00000,0.03074,0.97576,-0.19154,0.0,2023,6,7,15,40,41,732
43.12420,-0.06930,0.09835,0.00000,0.03221,0.97490,-0.18690,0.0,2023,6,7,15,40,41,742
43.12430,-0.03430,0.02835,0.00000,0.03196,0.97441,-0.19032,0.0,2023,6,7,15,40,41,752
43.12440,-0.13930,-0.02415,0.00000,0.03184,0.97637,-0.19130,0.0,2023,6,7,15,40,41,762
43.12450,0.05320,-0.02415,0.00000,0.03196,0.97759,-0.18910,0.0,2023,6,7,15,40,41,772
43.12460,-0.20930,-0.09415,0.00000,0.03013,0.97868,-0.19069,0.0,2023,6,7,15,40,41,782
43.12470,-0.15680,0.08085,0.00000,0.03160,0.97490,-0.18947,0.0,2023,6,7,15,40,41,792
43.12480,-0.10430,0.16835,0.00000,0.03123,0.97698,-0.18654,0.0,2023,6,7,15,40,41,802
43.12490,-0.08680,0.18585,0.00000,0.03294,0.97588,-0.19081,0.0,2023,6,7,15,40,41,812
43.12500,-0.03430,0.25585,0.00000,0.03087,0.97734,-0.19044,0.0,2023,6,7,15,40,41,822
43.12510,-0.13930,0.11585,0.00000,0.03099,0.97746,-0.18703,0.0,2023,6,7,15,40,41,832
43.12520,0.05320,0.13335,0.00000,0.03343,0.97551,-0.18837,0.0,2023,6,7,15,40,41,842
43.12530,-0.06930,0.11585,0.00000,0.03111,0.97990,-0.18800,0.0,2023,6,7,15,40,41,852
43.12540,0.08820,0.04585,0.00000,0.03331,0.97612,-0.18654,0.0,2023,6,7,15,40,41,862
43.12550,0.08820,0.01085,0.00000,0.03160,0.97685,-0.18776,0.0,2023,6,7,15,40,41,872
43.12560,-0.10430,0.02835,0.00000,0.03209,0.97685,-0.18959,0.0,2023,6,7,15,40,41,882
43.12570,0.00070,0.20335,0.00000,0.03172,0.97673,-0.19117,0.0,2023,6,7,15,40,41,892
43.12580,-0.06930,0.08085,0.00000,0.03038,0.97624,-0.18849,0.0,2023,6,7,15,40,41,902
43.12590,-0.22680,0.15085,0.00000,0.03196,0.97380,-0.18959,0.0,2023,6,7,15,40,41,912
43.12600,-0.10430,0.01085,0.00000,0.03099,0.97637,-0.19069,0.0,2023,6,7,15,40,41,922
43.12610,0.21070,0.01085,0.00000,0.03050,0.97600,-0.18995,0.0,2023,6,7,15,40,41,932
43.12620,-0.13930,0.06335,0.00000,0.03038,0.97893,-0.19044,0.0,2023,6,7,15,40,41,942
43.12630,-0.03430,0.23835,0.00000,0.03245,0.97551,-0.19056,0.0,2023,6,7,15,40,41,952
43.12640,0.07070,0.01085,0.00000,0.02965,0.97502,-0.18898,0.0,2023,6,7,15,40,41,962
43.12650,-0.15680,0.01085,0.00000,0.03270,0.97429,-0.19044,0.0,2023,6,7,15,40,41,972
43.12660,-0.05180,0.20335,0.00000,0.03172,0.97637,-0.18690,0.0,2023,6,7,15,40,41,982
43.12670,-0.10430,0.11585,0.00000,0.03087,0.97820,-0.19008,0.0,2023,6,7,15,40,41,992
43.12680,0.12320,0.01085,0.00000,0.03221,0.97771,-0.19044,0.0,2023,6,7,15,40,41,2
43.12690,-0.17430,0.01085,0.00000,0.03331,0.97466,-0.18922,0.0,2023,6,7,15,40,41,12
43.12700,-0.15680,-0.04165,0.00000,0.03111,0.97527,-0.18971,0.0,2023,6,7,15,40,41,22
43.12710,0.00070,0.13335,0.00000,0.03294,0.97515,-0.19069,0.0,2023,6,7,15,40,41,32
43.12720,-0.26180,0.20335,0.00000,0.03160,0.97588,-0.18654,0.0,2023,6,7,15,40,41,42
43.12730,0.05320,-0.09415,0.00000,0.02965,0.98015,-0.19178,0.0,2023,6,7,15,40,41,52
43.12740,0.14070,-0.19915,0.00000,0.03111,0.97502,-0.18886,0.0,2023,6,7,15,40,41,62
43.12750,-0.12180,0.02835,0.00000,0.03062,0.97490,-0.18886,0.0,2023,6,7,15,40,41,72
43.12760,0.03570,0.11585,0.00000,0.03013,0.97612,-0.19325,0.0,2023,6,7,15,40,41,82
43.12770,-0.12180,-0.14665,0.00000,0.02952,0.97734,-0.18703,0.0,2023,6,7,15,40,41,92
43.12780,-0.03430,0.01085,0.00000,0.03221,0.97551,-0.19032,0.0,2023,6,7,15,40,41,102
43.12790,0.15820,0.01085,0.00000,0.03123,0.97710,-0.18873,0.0,2023,6,7,15,40,41,112
43.12800,-0.27930,0.01085,0.00000,0.03026,0.97551,-0.19020,0.0,2023,6,7,15,40,41,122
43.12810,0.12320,0.08085,0.00000,0.02977,0.97783,-0.18873,0.0,2023,6,7,15,40,41,132
43.12820,0.05320,0.15085,0.00000,0.03196,0.97332,-0.18825,0.0,2023,6,7,15,40,41,142
43.12830,-0.22680,0.04585,0.00000,0.03282,0.97563,-0.18971,0.0,2023,6,7,15,40,41,152
43.12840,0.00070,0.11585,0.00000,0.02989,0.97649,-0.19044,0.0,2023,6,7,15,40,41,162
43.12850,-0.13930,0.01085,0.00000,0.03087,0.97771,-0.18861,0.0,2023,6,7,15,40,41,172
43.12860,-0.13930,-0.07665,0.00000,0.03172,0.97649,-0.19215,0.0,2023,6,7,15,40,41,182
43.12870,-0.01680,-0.00665,0.00000,0.03148,0.97563,-0.18727,0.0,2023,6,7,15,40,41,192
43.12880,-0.10430,0.04585,0.00000,0.03245,0.97698,-0.18861,0.0,2023,6,7,15,40,41,202
43.12890,-0.01680,-0.00665,0.00000,0.03087,0.97685,-0.19422,0.0,2023,6,7,15,40,41,212
43.12900,0.05320,-0.07665,0.00000,0.03331,0.97637,-0.18703,0.0,2023,6,7,15,40,41,222
43.12910,-0.03430,0.08085,0.00000,0.03135,0.97563,-0.18922,0.0,2023,6,7,15,40,41,232
43.12920,0.03570,-0.02415,0.00000,0.03062,0.97661,-0.19142,0.0,2023,6,7,15,40,41,242
43.12930,0.10570,-0.09415,0.00000,0.03318,0.97868,-0.18959,0.0,2023,6,7,15,40,41,252
43.12940,-0.15680,-0.04165,0.00000,0.03343,0.97551,-0.18873,0.0,2023,6,7,15,40,41,262
43.12950,-0.06930,0.11585,0.00000,0.03135,0.97600,-0.19093,0.0,2023,6,7,15,40,41,272
43.12960,0.00070,0.04585,0.00000,0.03013,0.97698,-0.18825,0.0,2023,6,7,15,40,41,282
43.12970,0.00070,0.01085,0.00000,0.03209,0.97454,-0.19300,0.0,2023,6,7,15,40,41,292
43.12980,0.12320,0.25585,0.00000,0.02843,0.97356,-0.18886,0.0,2023,6,7,15,40,41,302
43.12990,-0.38430,0.16835,0.00000,0.03196,0.97576,-0.19056,0.0,2023,6,7,15,40,41,312
43.13000,0.24570,0.01085,0.00000,0.03233,0.97478,-0.19288,0.0,2023,6,7,15,40,41,322
43.13010,-0.03430,0.08085,0.00000,0.03331,0.97734,-0.18715,0.0,2023,6,7,15,40,41,332
43.13020,0.05320,-0.09415,0.00000,0.03172,0.97783,-0.19435,0.0,2023,6,7,15,40,41,342
43.13030,0.17570,0.02835,0.00000,0.03257,0.97820,-0.18983,0.0,2023,6,7,15,40,41,352
43.13040,-0.52430,-0.00665,0.00000,0.03087,0.97490,-0.18617,0.0,2023,6,7,15,40,41,362
43.13050,0.35070,0.08085,0.00000,0.02745,0.97417,-0.19422,0.0,2023,6,7,15,40,41,372
43.13060,0.33320,-0.02415,0.00000,0.03392,0.97698,-0.18678,0.0,2023,6,7,15,40,42,382
43.13070,-0.54180,-0.12915,0.00000,0.03062,0.97649,-0.18642,0.0,2023,6,7,15,40,42,392
43.13080,0.35070,0.04585,0.00000,0.02843,0.97600,-0.19581,0.0,2023,6,7,15,40,42,402
43.13090,-0.15680,0.04585,0.00000,0.03318,0.97332,-0.18532,0.0,2023,6,7,15,40,42,412
43.13100,-0.52430,0.02835,0.00000,0.02977,0.97673,-0.18922,0.0,2023,6,7,15,40,42,422
43.13110,0.40320,-0.09415,0.00000,0.03135,0.97368,-0.19117,0.0,2023,6,7,15,40,42,432
43.13120,-0.43680,-0.11165,0.00000,0.03282,0.97759,-0.18739,0.0,2023,6,7,15,40,42,442
43.13130,-0.06930,-0.02415,0.00000,0.03001,0.97624,-0.19117,0.0,2023,6,7,15,40,42,452
43.13140,0.21070,0.11585,0.00000,0.03526,0.97673,-0.18483,0.0,2023,6,7,15,40,42,462
43.13150,-0.34930,-0.00665,0.00000,0.02928,0.97441,-0.18971,0.0,2023,6,7,15,40,42,472
43.13160,0.17570,0.02835,0.00000,0.03087,0.97710,-0.19191,0.0,2023,6,7,15,40,42,482
43.13170,0.28070,-0.07665,0.00000,0.03331,0.97698,-0.18764,0.0,2023,6,7,15,40,42,492
43.13180,-0.66430,-0.04165,0.00000,0.03013,0.97722,-0.18934,0.0,2023,6,7,15,40,42,502
43.13190,0.29820,-0.14665,0.00000,0.03209,0.97856,-0.19300,0.0,2023,6,7,15,40,42,512
43.13200,-0.13930,0.01085,0.00000,0.03184,0.97551,-0.18483,0.0,2023,6,7,15,40,42,522
43.13210,-0.20930,-0.00665,0.00000,0.03514,0.97722,-0.18812,0.0,2023,6,7,15,40,42,532
43.13220,0.15820,-0.09415,0.00000,0.03355,0.97954,-0.18959,0.0,2023,6,7,15,40,42,542
43.13230,-0.01680,0.08085,0.00000,0.03294,0.97563,-0.18788,0.0,2023,6,7,15,40,42,552
43.13240,-0.38430,0.25585,0.00000,0.03123,0.97698,-0.18947,0.0,2023,6,7,15,40,42,562
43.13250,0.17570,-0.16415,0.00000,0.03123,0.97673,-0.19215,0.0,2023,6,7,15,40,42,572
43.13260,-0.22680,0.23835,0.00000,0.03221,0.97563,-0.18837,0.0,2023,6,7,15,40,42,582
43.13270,0.07070,0.02835,0.00000,0.03184,0.97759,-0.19020,0.0,2023,6,7,15,40,42,592
43.13280,0.28070,0.09835,0.00000,0.03111,0.97893,-0.19008,0.0,2023,6,7,15,40,42,602
43.13290,-0.15680,0.20335,0.00000,0.03282,0.97563,-0.19239,0.0,2023,6,7,15,40,42,612
43.13300,0.00070,0.22085,0.00000,0.03318,0.97588,-0.18898,0.0,2023,6,7,15,40,42,622
43.13310,-0.22680,0.04585,0.00000,0.03221,0.97722,-0.18983,0.0,2023,6,7,15,40,42,632
43.13320,0.12320,-0.05915,0.00000,0.03135,0.97490,-0.19056,0.0,2023,6,7,15,40,42,642
43.13330,-0.08680,0.09835,0.00000,0.03062,0.97600,-0.18800,0.0,2023,6,7,15,40,42,652
43.13340,-0.20930,0.09835,0.00000,0.03196,0.97429,-0.18898,0.0,2023,6,7,15,40,42,662
43.13350,0.17570,0.09835,0.00000,0.03087,0.97563,-0.18825,0.0,2023,6,7,15,40,42,672
43.13360,0.05320,-0.12915,0.00000,0.03001,0.97429,-0.18898,0.0,2023,6,7,15,40,42,682
43.13370,-0.12180,0.06335,0.00000,0.03026,0.97624,-0.18910,0.0,2023,6,7,15,40,42,692
43.13380,0.08820,-0.05915,0.00000,0.03196,0.97685,-0.18837,0.0,2023,6,7,15,40,42,702
43.13390,-0.08680,-0.02415,0.00000,0.03087,0.97527,-0.18861,0.0,2023,6,7,15,40,42,712
43.13400,0.17570,-0.16415,0.00000,0.03221,0.97429,-0.19081,0.0,2023,6,7,15,40,42,722
43.13410,-0.26180,0.18585,0.00000,0.03233,0.97478,-0.18886,0.0,2023,6,7,15,40,42,732
43.13420,-0.06930,0.18585,0.00000,0.03135,0.97661,-0.18983,0.0,2023,6,7,15,40,42,742
43.13430,0.17570,-0.05915,0.00000,0.03209,0.97710,-0.19008,0.0,2023,6,7,15,40,42,752
43.13440,-0.12180,0.09835,0.00000,0.03392,0.97783,-0.18751,0.0,2023,6,7,15,40,42,762
43.13450,-0.06930,-0.02415,0.00000,0.02952,0.97551,-0.19069,0.0,2023,6,7,15,40,42,772
43.13460,0.08820,-0.05915,0.00000,0.03257,0.97502,-0.18959,0.0,2023,6,7,15,40,42,782
43.13470,-0.13930,-0.00665,0.00000,0.03221,0.97734,-0.18849,0.0,2023,6,7,15,40,42,792
43.13480,0.01820,0.06335,0.00000,0.03038,0.97539,-0.18934,0.0,2023,6,7,15,40,42,802
43.13490,-0.17430,-0.02415,0.00000,0.03111,0.97588,-0.19020,0.0,2023,6,7,15,40,42,812
43.13500,-0.08680,-0.09415,0.00000,0.03196,0.97685,-0.18947,0.0,2023,6,7,15,40,42,822
43.13510,0.08820,0.01085,0.00000,0.02940,0.97637,-0.19117,0.0,2023,6,7,15,40,42,832
43.13520,-0.08680,-0.11165,0.00000,0.03172,0.97759,-0.18690,0.0,2023,6,7,15,40,42,842
43.13530,0.12320,-0.16415,0.00000,0.03001,0.97490,-0.19081,0.0,2023,6,7,15,40,42,852
43.13540,-0.03430,0.08085,0.00000,0.03245,0.97624,-0.18959,0.0,2023,6,7,15,40,42,862
43.13550,-0.06930,0.04585,0.00000,0.03184,0.97417,-0.18959,0.0,2023,6,7,15,40,42,872
43.13560,0.00070,-0.14665,0.00000,0.03013,0.97746,-0.19105,0.0,2023,6,7,15,40,42,882
43.13570,0.10570,0.06335,0.00000,0.03050,0.97502,-0.18922,0.0,2023,6,7,15,40,42,892
43.13580,-0.10430,-0.00665,0.00000,0.03099,0.97454,-0.18886,0.0,2023,6,7,15,40,42,902
43.13590,-0.03430,-0.09415,0.00000,0.03123,0.97746,-0.19081,0.0,2023,6,7,15,40,42,912
43.13600,0.12320,0.01085,0.00000,0.03074,0.97368,-0.18703,0.0,2023,6,7,15,40,42,922
43.13610,-0.12180,-0.04165,0.00000,0.03270,0.97759,-0.19008,0.0,2023,6,7,15,40,42,932
43.13620,-0.10430,0.13335,0.00000,0.03087,0.97722,-0.18959,0.0,2023,6,7,15,40,42,942
43.13630,0.05320,0.02835,0.00000,0.03245,0.97624,-0.18764,0.0,2023,6,7,15,40,42,952
43.13640,-0.27930,0.39585,0.00000,0.03111,0.97710,-0.18898,0.0,2023,6,7,15,40,42,962
43.13650,0.05320,-0.04165,0.00000,0.03074,0.97600,-0.19191,0.0,2023,6,7,15,40,42,972
43.13660,-0.05180,-0.25165,0.00000,0.02904,0.97515,-0.18873,0.0,2023,6,7,15,40,42,982
43.13670,-0.10430,0.15085,0.00000,0.03038,0.97393,-0.18812,0.0,2023,6,7,15,40,42,992
43.13680,-0.06930,-0.04165,0.00000,0.03270,0.97600,-0.18922,0.0,2023,6,7,15,40,42,2
43.13690,-0.13930,0.08085,0.00000,0.03233,0.97405,-0.18995,0.0,2023,6,7,15,40,42,12
43.13700,-0.03430,0.01085,0.00000,0.03257,0.97710,-0.19020,0.0,2023,6,7,15,40,42,22
43.13710,0.12320,-0.16415,0.00000,0.03257,0.97600,-0.18995,0.0,2023,6,7,15,40,42,32
43.13720,-0.17430,0.13335,0.00000,0.02867,0.97649,-0.19008,0.0,2023,6,7,15,40,42,42
43.13730,-0.01680,0.25585,0.00000,0.03160,0.97466,-0.18910,0.0,2023,6,7,15,40,42,52
43.13740,0.05320,0.18585,0.00000,0.03196,0.97710,-0.18593,0.0,2023,6,7,15,40,42,62
43.13750,-0.13930,-0.09415,0.00000,0.03001,0.97832,-0.19069,0.0,2023,6,7,15,40,42,72
43.13760,0.26320,-0.28665,0.00000,0.03160,0.97844,-0.18971,0.0,2023,6,7,15,40,42,82
43.13770,-0.12180,-0.11165,0.00000,0.03062,0.97722,-0.18520,0.0,2023,6,7,15,40,42,92
43.13780,-0.13930,0.01085,0.00000,0.03087,0.97942,-0.19239,0.0,2023,6,7,15,40,42,102
43.13790,0.12320,0.09835,0.00000,0.03196,0.97527,-0.18642,0.0,2023,6,7,15,40,42,112
43.13800,-0.43680,0.11585,0.00000,0.03013,0.97502,-0.18471,0.0,2023,6,7,15,40,42,122
43.13810,-0.05180,0.09835,0.00000,0.02879,0.97612,-0.19105,0.0,2023,6,7,15,40,42,132
43.13820,0.03570,0.04585,0.00000,0.02989,0.97502,-0.18764,0.0,2023,6,7,15,40,42,142
43.13830,-0.41930,-0.07665,0.00000,0.03221,0.97661,-0.18788,0.0,2023,6,7,15,40,42,152
43.13840,0.08820,-0.00665,0.00000,0.02989,0.97600,-0.19117,0.0,2023,6,7,15,40,42,162
43.13850,-0.15680,0.08085,0.00000,0.03209,0.97759,-0.18666,0.0,2023,6,7,15,40,42,172
43.13860,-0.17430,-0.12915,0.00000,0.03099,0.97685,-0.18861,0.0,2023,6,7,15,40,42,182
43.13870,0.33320,0.08085,0.00000,0.03221,0.97698,-0.19020,0.0,2023,6,7,15,40,42,192
43.13880,-0.31430,0.30835,0.00000,0.03306,0.97698,-0.18471,0.0,2023,6,7,15,40,42,202
43.13890,0.14070,0.06335,0.00000,0.03343,0.97710,-0.19227,0.0,2023,6,7,15,40,42,212
43.13900,0.21070,-0.02415,0.00000,0.03416,0.97551,-0.18751,0.0,2023,6,7,15,40,42,222
43.13910,-0.45430,-0.11165,0.00000,0.03196,0.97588,-0.18727,0.0,2023,6,7,15,40,42,232
43.13920,0.26320,-0.32165,0.00000,0.02952,0.97905,-0.19178,0.0,2023,6,7,15,40,42,242
43.13930,-0.13930,0.01085,0.00000,0.03453,0.97783,-0.18324,0.0,2023,6,7,15,40,42,252
43.13940,-0.34930,-0.07665,0.00000,0.03099,0.97466,-0.18886,0.0,2023,6,7,15,40,42,262
43.13950,0.45570,-0.19915,0.00000,0.03172,0.97734,-0.18983,0.0,2023,6,7,15,40,43,272
43.13960,-0.31430,0.27335,0.00000,0.03367,0.97649,-0.18507,0.0,2023,6,7,15,40,43,282
43.13970,-0.34930,0.02835,0.00000,0.03099,0.97612,-0.19008,0.0,2023,6,7,15,40,43,292
43.13980,0.22820,0.01085,0.00000,0.03184,0.97649,-0.18837,0.0,2023,6,7,15,40,43,302
43.13990,-0.48930,-0.02415,0.00000,0.03026,0.97600,-0.18629,0.0,2023,6,7,15,40,43,312
43.14000,0.21070,0.09835,0.00000,0.03001,0.97685,-0.19008,0.0,2023,6,7,15,40,43,322
43.14010,0.14070,-0.21665,0.00000,0.03233,0.97868,-0.18605,0.0,2023,6,7,15,40,43,332
43.14020,-0.33180,-0.04165,0.00000,0.03099,0.97576,-0.18837,0.0,2023,6,7,15,40,43,342
43.14030,0.21070,-0.04165,0.00000,0.03245,0.97661,-0.19166,0.0,2023,6,7,15,40,43,352
43.14040,-0.31430,0.09835,0.00000,0.03172,0.97624,-0.18446,0.0,2023,6,7,15,40,43,362
43.14050,-0.06930,-0.02415,0.00000,0.03001,0.97527,-0.18898,0.0,2023,6,7,15,40,43,372
43.14060,0.26320,-0.09415,0.00000,0.02977,0.97844,-0.18861,0.0,2023,6,7,15,40,43,382
43.14070,-0.41930,0.01085,0.00000,0.03379,0.97649,-0.18471,0.0,2023,6,7,15,40,43,392
43.14080,0.03570,0.18585,0.00000,0.03135,0.97637,-0.19252,0.0,2023,6,7,15,40,43,402
43.14090,0.24570,0.01085,0.00000,0.03038,0.97917,-0.18605,0.0,2023,6,7,15,40,43,412
43.14100,-0.38430,-0.09415,0.00000,0.03257,0.97795,-0.18959,0.0,2023,6,7,15,40,43,422
43.14110,0.05320,0.20335,0.00000,0.03087,0.97759,-0.18886,0.0,2023,6,7,15,40,43,432
43.14120,-0.19180,0.02835,0.00000,0.03257,0.97612,-0.18605,0.0,2023,6,7,15,40,43,442
43.14130,-0.01680,-0.02415,0.00000,0.03392,0.97746,-0.19032,0.0,2023,6,7,15,40,43,452
43.14140,-0.03430,0.22085,0.00000,0.03135,0.97795,-0.18678,0.0,2023,6,7,15,40,43,462
43.14150,-0.31430,0.08085,0.00000,0.03123,0.97759,-0.19020,0.0,2023,6,7,15,40,43,472
43.14160,0.10570,-0.18165,0.00000,0.03026,0.97771,-0.18947,0.0,2023,6,7,15,40,43,482
43.14170,-0.06930,-0.02415,0.00000,0.03318,0.97600,-0.18410,0.0,2023,6,7,15,40,43,492
43.14180,-0.12180,0.20335,0.00000,0.03270,0.97710,-0.18898,0.0,2023,6,7,15,40,43,502
43.14190,0.14070,0.29085,0.00000,0.03050,0.97954,-0.19008,0.0,2023,6,7,15,40,43,512
43.14200,-0.13930,0.20335,0.00000,0.03050,0.97783,-0.18959,0.0,2023,6,7,15,40,43,522
43.14210,0.21070,-0.19915,0.00000,0.03379,0.97624,-0.19081,0.0,2023,6,7,15,40,43,532
43.14220,-0.03430,-0.07665,0.00000,0.02977,0.97746,-0.18959,0.0,2023,6,7,15,40,43,542
43.14230,-0.26180,0.16835,0.00000,0.03135,0.97746,-0.18983,0.0,2023,6,7,15,40,43,552
43.14240,0.07070,-0.05915,0.00000,0.03209,0.97685,-0.19032,0.0,2023,6,7,15,40,43,562
43.14250,0.00070,-0.12915,0.00000,0.02891,0.97746,-0.19020,0.0,2023,6,7,15,40,43,572
43.14260,0.17570,-0.19915,0.00000,0.03135,0.97637,-0.18825,0.0,2023,6,7,15,40,43,582
43.14270,0.10570,-0.00665,0.00000,0.03148,0.97820,-0.18934,0.0,2023,6,7,15,40,43,592
43.14280,-0.12180,-0.11165,0.00000,0.03331,0.97539,-0.18861,0.0,2023,6,7,15,40,43,602
43.14290,-0.08680,-0.02415,0.00000,0.03026,0.97783,-0.19178,0.0,2023,6,7,15,40,43,612
43.14300,-0.01680,0.06335,0.00000,0.03294,0.97685,-0.18800,0.0,2023,6,7,15,40,43,622
43.14310,-0.10430,0.11585,0.00000,0.03111,0.97454,-0.18800,0.0,2023,6,7,15,40,43,632
43.14320,-0.06930,-0.07665,0.00000,0.03196,0.97734,-0.19020,0.0,2023,6,7,15,40,43,642
43.14330,-0.05180,-0.12915,0.00000,0.03172,0.97563,-0.18983,0.0,2023,6,7,15,40,43,652
43.14340,-0.01680,-0.09415,0.00000,0.02965,0.97759,-0.19105,0.0,2023,6,7,15,40,43,662
43.14350,-0.03430,0.15085,0.00000,0.03013,0.97661,-0.19032,0.0,2023,6,7,15,40,43,672
43.14360,-0.05180,0.13335,0.00000,0.03050,0.97539,-0.18837,0.0,2023,6,7,15,40,43,682
43.14370,-0.06930,0.27335,0.00000,0.03270,0.97417,-0.19093,0.0,2023,6,7,15,40,43,692
43.14380,-0.01680,0.16835,0.00000,0.03074,0.97624,-0.18812,0.0,2023,6,7,15,40,43,702
43.14390,0.03570,-0.09415,0.00000,0.02965,0.97563,-0.18703,0.0,2023,6,7,15,40,43,712
43.14400,-0.12180,0.30835,0.00000,0.03318,0.97637,-0.18861,0.0,2023,6,7,15,40,43,722
43.14410,-0.01680,0.02835,0.00000,0.02965,0.97710,-0.18788,0.0,2023,6,7,15,40,43,732
43.14420,0.05320,-0.00665,0.00000,0.03270,0.97527,-0.18947,0.0,2023,6,7,15,40,43,742
43.14430,0.05320,0.15085,0.00000,0.03257,0.97502,-0.18764,0.0,2023,6,7,15,40,43,752
43.14440,0.12320,0.06335,0.00000,0.03221,0.97685,-0.18861,0.0,2023,6,7,15,40,43,762
43.14450,-0.01680,0.01085,0.00000,0.03233,0.97295,-0.18959,0.0,2023,6,7,15,40,43,772
43.14460,0.08820,0.06335,0.00000,0.03160,0.97673,-0.18995,0.0,2023,6,7,15,40,43,782
43.14470,0.05320,-0.07665,0.00000,0.03282,0.97478,-0.18727,0.0,2023,6,7,15,40,43,792
43.14480,-0.01680,0.13335,0.00000,0.03026,0.97795,-0.18593,0.0,2023,6,7,15,40,43,802
43.14490,-0.19180,0.37835,0.00000,0.02940,0.97612,-0.19008,0.0,2023,6,7,15,40,43,812
43.14500,0.05320,0.02835,0.00000,0.03087,0.97576,-0.19093,0.0,2023,6,7,15,40,43,822
43.14510,0.14070,-0.02415,0.00000,0.03257,0.97527,-0.19008,0.0,2023,6,7,15,40,43,832
43.14520,-0.03430,0.04585,0.00000,0.03123,0.97405,-0.18788,0.0,2023,6,7,15,40,43,842
43.14530,-0.19180,0.32585,0.00000,0.02879,0.97576,-0.19056,0.0,2023,6,7,15,40,43,852
43.14540,-0.05180,0.01085,0.00000,0.03416,0.97649,-0.18983,0.0,2023,6,7,15,40,43,862
43.14550,-0.06930,0.09835,0.00000,0.03245,0.97795,-0.18788,0.0,2023,6,7,15,40,43,872
43.14560,-0.10430,-0.11165,0.00000,0.03392,0.97515,-0.18849,0.0,2023,6,7,15,40,43,882
43.14570,0.00070,0.08085,0.00000,0.03074,0.97844,-0.19093,0.0,2023,6,7,15,40,43,892
43.14580,0.00070,0.22085,0.00000,0.03050,0.97624,-0.18861,0.0,2023,6,7,15,40,43,902
43.14590,-0.01680,0.22085,0.00000,0.03245,0.97588,-0.18666,0.0,2023,6,7,15,40,43,912
43.14600,0.05320,-0.00665,0.00000,0.02965,0.97734,-0.18886,0.0,2023,6,7,15,40,43,922
43.14610,-0.20930,0.13335,0.00000,0.03160,0.97661,-0.19008,0.0,2023,6,7,15,40,43,932
43.14620,0.01820,0.04585,0.00000,0.03026,0.97661,-0.18788,0.0,2023,6,7,15,40,43,942
43.14630,-0.01680,0.09835,0.00000,0.03209,0.97881,-0.19008,0.0,2023,6,7,15,40,43,952
43.14640,-0.03430,0.08085,0.00000,0.03160,0.97649,-0.18971,0.0,2023,6,7,15,40,43,962
43.14650,-0.08680,0.11585,0.00000,0.03257,0.97746,-0.18898,0.0,2023,6,7,15,40,43,972
43.14660,0.07070,0.06335,0.00000,0.03074,0.97783,-0.18934,0.0,2023,6,7,15,40,43,982
43.14670,-0.03430,0.20335,0.00000,0.03111,0.97624,-0.18983,0.0,2023,6,7,15,40,43,992
43.14680,-0.13930,0.13335,0.00000,0.02965,0.97356,-0.18812,0.0,2023,6,7,15,40,43,2
43.14690,-0.10430,0.15085,0.00000,0.03209,0.97588,-0.18983,0.0,2023,6,7,15,40,43,12
43.14700,-0.08680,0.09835,0.00000,0.03038,0.97746,-0.18922,0.0,2023,6,7,15,40,43,22
43.14710,0.07070,-0.16415,0.00000,0.03111,0.97685,-0.19020,0.0,2023,6,7,15,40,43,32
43.14720,0.14070,-0.02415,0.00000,0.03233,0.97405,-0.18922,0.0,2023,6,7,15,40,43,42
43.14730,-0.05180,0.06335,0.00000,0.03026,0.97783,-0.18886,0.0,2023,6,7,15,40,43,52
43.14740,0.03570,-0.00665,0.00000,0.03148,0.97759,-0.19008,0.0,2023,6,7,15,40,43,62
43.14750,0.12320,0.01085,0.00000,0.03062,0.98125,-0.18739,0.0,2023,6,7,15,40,43,72
43.14760,-0.26180,-0.02415,0.00000,0.03135,0.97685,-0.18715,0.0,2023,6,7,15,40,43,82
43.14770,-0.17430,0.08085,0.00000,0.03074,0.97746,-0.19008,0.0,2023,6,7,15,40,43,92
43.14780,-0.06930,0.11585,0.00000,0.03026,0.97673,-0.18898,0.0,2023,6,7,15,40,43,102
43.14790,-0.06930,0.02835,0.00000,0.03074,0.97771,-0.18922,0.0,2023,6,7,15,40,43,112
43.14800,0.31570,-0.04165,0.00000,0.02904,0.97673,-0.19178,0.0,2023,6,7,15,40,43,122
43.14810,-0.01680,-0.07665,0.00000,0.03148,0.97612,-0.18825,0.0,2023,6,7,15,40,43,132
43.14820,0.08820,-0.09415,0.00000,0.03074,0.97673,-0.18800,0.0,2023,6,7,15,40,43,142
43.14830,0.22820,0.04585,0.00000,0.02965,0.97746,-0.18812,0.0,2023,6,7,15,40,43,152
43.14840,-0.08680,0.13335,0.00000,0.03245,0.97405,-0.18934,0.0,2023,6,7,15,40,43,162
43.14850,0.12320,-0.02415,0.00000,0.02952,0.97722,-0.19020,0.0,2023,6,7,15,40,44,172
43.14860,0.01820,-0.14665,0.00000,0.03087,0.97515,-0.18849,0.0,2023,6,7,15,40,44,182
43.14870,-0.24430,0.02835,0.00000,0.03026,0.97722,-0.18995,0.0,2023,6,7,15,40,44,192
43.14880,0.19320,-0.11165,0.00000,0.03050,0.97820,-0.19300,0.0,2023,6,7,15,40,44,202
43.14890,-0.26180,0.04585,0.00000,0.03160,0.97441,-0.18642,0.0,2023,6,7,15,40,44,212
43.14900,-0.20930,0.01085,0.00000,0.03245,0.97746,-0.19142,0.0,2023,6,7,15,40,44,222
43.14910,0.14070,-0.11165,0.00000,0.03379,0.97783,-0.18812,0.0,2023,6,7,15,40,44,232
43.14920,-0.27930,0.18585,0.00000,0.03062,0.97380,-0.18837,0.0,2023,6,7,15,40,44,242
43.14930,0.10570,0.13335,0.00000,0.03013,0.97673,-0.18983,0.0,2023,6,7,15,40,44,252
43.14940,-0.31430,-0.19915,0.00000,0.03001,0.97624,-0.18605,0.0,2023,6,7,15,40,44,262
43.14950,-0.06930,-0.07665,0.00000,0.03221,0.97490,-0.19081,0.0,2023,6,7,15,40,44,272
43.14960,0.36820,-0.09415,0.00000,0.02952,0.97600,-0.19215,0.0,2023,6,7,15,40,44,282
43.14970,-0.31430,0.01085,0.00000,0.03038,0.97734,-0.18812,0.0,2023,6,7,15,40,44,292
43.14980,0.10570,-0.02415,0.00000,0.02952,0.97771,-0.19105,0.0,2023,6,7,15,40,44,302
43.14990,0.01820,0.09835,0.00000,0.03501,0.97710,-0.18471,0.0,2023,6,7,15,40,44,312
43.15000,-0.03430,0.15085,0.00000,0.03306,0.97600,-0.19081,0.0,2023,6,7,15,40,44,322
43.15010,0.00070,0.08085,0.00000,0.03233,0.97685,-0.19227,0.0,2023,6,7,15,40,44,332
43.15020,-0.41930,0.08085,0.00000,0.03087,0.97795,-0.18593,0.0,2023,6,7,15,40,44,342
43.15030,-0.20930,-0.00665,0.00000,0.03050,0.97807,-0.19166,0.0,2023,6,7,15,40,44,352
43.15040,0.21070,0.04585,0.00000,0.03062,0.97661,-0.19044,0.0,2023,6,7,15,40,44,362
43.15050,-0.52430,0.23835,0.00000,0.02928,0.97563,-0.18739,0.0,2023,6,7,15,40,44,372
43.15060,0.08820,0.15085,0.00000,0.03050,0.97515,-0.19166,0.0,2023,6,7,15,40,44,382
43.15070,-0.05180,-0.12915,0.00000,0.03306,0.97515,-0.18581,0.0,2023,6,7,15,40,44,392
43.15080,-0.27930,0.18585,0.00000,0.02782,0.97576,-0.19239,0.0,2023,6,7,15,40,44,402
43.15090,0.10570,0.13335,0.00000,0.02989,0.97917,-0.19056,0.0,2023,6,7,15,40,44,412
43.15100,-0.38430,0.13335,0.00000,0.03135,0.97551,-0.18776,0.0,2023,6,7,15,40,44,422
43.15110,0.17570,-0.12915,0.00000,0.02965,0.97649,-0.18849,0.0,2023,6,7,15,40,44,432
43.15120,-0.05180,0.16835,0.00000,0.02830,0.97771,-0.18825,0.0,2023,6,7,15,40,44,442
43.15130,-0.20930,0.06335,0.00000,0.02928,0.97563,-0.18703,0.0,2023,6,7,15,40,44,452
43.15140,-0.05180,-0.12915,0.00000,0.03013,0.97600,-0.19093,0.0,2023,6,7,15,40,44,462
43.15150,0.14070,-0.05915,0.00000,0.03026,0.97685,-0.18934,0.0,2023,6,7,15,40,44,472
43.15160,-0.15680,-0.05915,0.00000,0.03013,0.97685,-0.18776,0.0,2023,6,7,15,40,44,482
43.15170,0.08820,-0.14665,0.00000,0.03026,0.97746,-0.18861,0.0,2023,6,7,15,40,44,492
43.15180,-0.10430,0.18585,0.00000,0.03318,0.97539,-0.18776,0.0,2023,6,7,15,40,44,502
43.15190,0.05320,0.09835,0.00000,0.03123,0.97380,-0.18922,0.0,2023,6,7,15,40,44,512
43.15200,-0.03430,-0.14665,0.00000,0.03355,0.97612,-0.18971,0.0,2023,6,7,15,40,44,522
43.15210,-0.05180,0.04585,0.00000,0.03221,0.97722,-0.18629,0.0,2023,6,7,15,40,44,532
43.15220,-0.12180,-0.09415,0.00000,0.03306,0.97600,-0.18642,0.0,2023,6,7,15,40,44,542
43.15230,-0.29680,0.09835,0.00000,0.03111,0.97624,-0.18788,0.0,2023,6,7,15,40,44,552
43.15240,-0.05180,0.02835,0.00000,0.03074,0.97917,-0.19069,0.0,2023,6,7,15,40,44,562
43.15250,0.00070,0.02835,0.00000,0.03038,0.97527,-0.18776,0.0,2023,6,7,15,40,44,572
43.15260,-0.17430,-0.11165,0.00000,0.03135,0.97576,-0.18922,0.0,2023,6,7,15,40,44,582
43.15270,-0.17430,0.23835,0.00000,0.03306,0.97966,-0.18788,0.0,2023,6,7,15,40,44,592
43.15280,0.01820,0.09835,0.00000,0.03099,0.97454,-0.18764,0.0,2023,6,7,15,40,44,602
43.15290,0.10570,0.08085,0.00000,0.03270,0.97661,-0.18739,0.0,2023,6,7,15,40,44,612
43.15300,0.08820,0.13335,0.00000,0.03209,0.97893,-0.18788,0.0,2023,6,7,15,40,44,622
43.15310,-0.06930,-0.07665,0.00000,0.02977,0.97527,-0.18898,0.0,2023,6,7,15,40,44,632
43.15320,-0.08680,-0.05915,0.00000,0.03282,0.97368,-0.18886,0.0,2023,6,7,15,40,44,642
43.15330,0.10570,-0.00665,0.00000,0.03245,0.97722,-0.18837,0.0,2023,6,7,15,40,44,652
43.15340,-0.01680,0.16835,0.00000,0.03196,0.97588,-0.18800,0.0,2023,6,7,15,40,44,662
43.15350,0.00070,0.32585,0.00000,0.03099,0.97429,-0.18776,0.0,2023,6,7,15,40,44,672
43.15360,-0.01680,0.01085,0.00000,0.03148,0.97698,-0.19069,0.0,2023,6,7,15,40,44,682
43.15370,-0.10430,0.34335,0.00000,0.03282,0.97527,-0.18459,0.0,2023,6,7,15,40,44,692
43.15380,-0.05180,0.11585,0.00000,0.03172,0.97551,-0.18471,0.0,2023,6,7,15,40,44,702
43.15390,0.10570,0.06335,0.00000,0.03221,0.97539,-0.18971,0.0,2023,6,7,15,40,44,712
43.15400,-0.12180,-0.00665,0.00000,0.03123,0.97637,-0.18995,0.0,2023,6,7,15,40,44,722
43.15410,-0.15680,0.01085,0.00000,0.03001,0.97637,-0.18861,0.0,2023,6,7,15,40,44,732
43.15420,0.05320,-0.07665,0.00000,0.03318,0.97820,-0.19020,0.0,2023,6,7,15,40,44,742
43.15430,-0.06930,0.04585,0.00000,0.03087,0.97490,-0.18971,0.0,2023,6,7,15,40,44,752
43.15440,0.05320,-0.18165,0.00000,0.03050,0.97710,-0.18971,0.0,2023,6,7,15,40,44,762
43.15450,-0.03430,0.09835,0.00000,0.03257,0.97698,-0.18837,0.0,2023,6,7,15,40,44,772
43.15460,-0.03430,-0.04165,0.00000,0.03123,0.97783,-0.18861,0.0,2023,6,7,15,40,44,782
43.15470,0.00070,-0.00665,0.00000,0.03367,0.97710,-0.18922,0.0,2023,6,7,15,40,44,792
43.15480,-0.29680,0.11585,0.00000,0.03257,0.97454,-0.18739,0.0,2023,6,7,15,40,44,802
43.15490,0.08820,-0.18165,0.00000,0.03233,0.97600,-0.18922,0.0,2023,6,7,15,40,44,812
43.15500,-0.03430,0.08085,0.00000,0.03306,0.97649,-0.18800,0.0,2023,6,7,15,40,44,822
43.15510,-0.22680,-0.11165,0.00000,0.03233,0.97563,-0.18910,0.0,2023,6,7,15,40,44,832
43.15520,0.12320,0.01085,0.00000,0.03111,0.97185,-0.18886,0.0,2023,6,7,15,40,44,842
43.15530,-0.20930,0.02835,0.00000,0.03257,0.97539,-0.18995,0.0,2023,6,7,15,40,44,852
43.15540,-0.05180,-0.00665,0.00000,0.03209,0.97844,-0.19044,0.0,2023,6,7,15,40,44,862
43.15550,0.26320,0.01085,0.00000,0.03050,0.97759,-0.18812,0.0,2023,6,7,15,40,44,872
43.15560,-0.03430,-0.09415,0.00000,0.03270,0.97454,-0.18764,0.0,2023,6,7,15,40,44,882
43.15570,-0.12180,-0.07665,0.00000,0.03331,0.97612,-0.18800,0.0,2023,6,7,15,40,44,892
43.15580,-0.15680,-0.00665,0.00000,0.03050,0.97612,-0.18751,0.0,2023,6,7,15,40,44,902
43.15590,-0.05180,0.01085,0.00000,0.03160,0.97722,-0.19264,0.0,2023,6,7,15,40,44,912
43.15600,0.15820,0.20335,0.00000,0.03343,0.97795,-0.18727,0.0,2023,6,7,15,40,44,922
43.15610,-0.27930,0.04585,0.00000,0.03123,0.97600,-0.18947,0.0,2023,6,7,15,40,44,932
43.15620,0.28070,-0.12915,0.00000,0.02818,0.97295,-0.18886,0.0,2023,6,7,15,40,44,942
43.15630,-0.13930,-0.02415,0.00000,0.03087,0.97710,-0.18666,0.0,2023,6,7,15,40,44,952
43.15640,-0.19180,0.16835,0.00000,0.03038,0.97710,-0.18861,0.0,2023,6,7,15,40,44,962
43.15650,-0.01680,0.25585,0.00000,0.03282,0.97832,-0.18825,0.0,2023,6,7,15,40,44,972
43.15660,-0.13930,0.09835,0.00000,0.03209,0.97466,-0.18690,0.0,2023,6,7,15,40,44,982
43.15670,0.08820,0.01085,0.00000,0.03099,0.97722,-0.18886,0.0,2023,6,7,15,40,44,992
43.15680,0.00070,0.11585,0.00000,0.03221,0.97612,-0.18812,0.0,2023,6,7,15,40,44,2
43.15690,-0.20930,0.06335,0.00000,0.03172,0.97832,-0.19203,0.0,2023,6,7,15,40,44,12
43.15700,0.19320,0.08085,0.00000,0.02904,0.97551,-0.18910,0.0,2023,6,7,15,40,44,22
43.15710,0.08820,0.13335,0.00000,0.03428,0.97795,-0.18483,0.0,2023,6,7,15,40,44,32
43.15720,-0.48930,0.04585,0.00000,0.02928,0.97612,-0.18812,0.0,2023,6,7,15,40,44,42
43.15730,0.35070,-0.02415,0.00000,0.03270,0.97856,-0.18861,0.0,2023,6,7,15,40,44,52
43.15740,-0.17430,0.04585,0.00000,0.03306,0.97807,-0.18568,0.0,2023,6,7,15,40,44,62
43.15750,0.12320,0.06335,0.00000,0.02904,0.97576,-0.18983,0.0,2023,6,7,15,40,45,72
43.15760,-0.01680,-0.12915,0.00000,0.03148,0.97563,-0.18849,0.0,2023,6,7,15,40,45,82
43.15770,-0.05180,0.08085,0.00000,0.03233,0.97746,-0.18873,0.0,2023,6,7,15,40,45,92
43.15780,0.12320,-0.09415,0.00000,0.03196,0.97429,-0.19130,0.0,2023,6,7,15,40,45,102
43.15790,-0.05180,0.08085,0.00000,0.03160,0.97637,-0.18922,0.0,2023,6,7,15,40,45,112
43.15800,-0.13930,-0.07665,0.00000,0.03001,0.97527,-0.18995,0.0,2023,6,7,15,40,45,122
43.15810,0.24570,0.01085,0.00000,0.03087,0.97490,-0.18934,0.0,2023,6,7,15,40,45,132
43.15820,-0.27930,0.25585,0.00000,0.03074,0.97405,-0.18593,0.0,2023,6,7,15,40,45,142
43.15830,-0.10430,-0.05915,0.00000,0.03282,0.97612,-0.19032,0.0,2023,6,7,15,40,45,152
43.15840,0.03570,-0.05915,0.00000,0.03209,0.97563,-0.18886,0.0,2023,6,7,15,40,45,162
43.15850,-0.22680,-0.00665,0.00000,0.03184,0.97734,-0.18800,0.0,2023,6,7,15,40,45,172
43.15860,0.22820,-0.19915,0.00000,0.03111,0.97515,-0.19069,0.0,2023,6,7,15,40,45,182
43.15870,-0.19180,-0.09415,0.00000,0.03245,0.97527,-0.18605,0.0,2023,6,7,15,40,45,192
43.15880,-0.20930,-0.09415,0.00000,0.02867,0.97795,-0.18959,0.0,2023,6,7,15,40,45,202
43.15890,0.22820,-0.07665,0.00000,0.03416,0.97649,-0.18727,0.0,2023,6,7,15,40,45,212
43.15900,-0.33180,0.20335,0.00000,0.03148,0.97502,-0.18666,0.0,2023,6,7,15,40,45,222
43.15910,-0.17430,0.01085,0.00000,0.02940,0.97820,-0.18959,0.0,2023,6,7,15,40,45,232
43.15920,-0.24430,0.16835,0.00000,0.03306,0.97588,-0.18690,0.0,2023,6,7,15,40,45,242
43.15930,-0.08680,-0.07665,0.00000,0.03160,0.97673,-0.18690,0.0,2023,6,7,15,40,45,252
43.15940,0.01820,-0.02415,0.00000,0.03184,0.97734,-0.18690,0.0,2023,6,7,15,40,45,262
43.15950,-0.19180,-0.05915,0.00000,0.03013,0.97441,-0.18739,0.0,2023,6,7,15,40,45,272
43.15960,0.12320,0.13335,0.00000,0.03184,0.97856,-0.19032,0.0,2023,6,7,15,40,45,282
43.15970,-0.05180,-0.00665,0.00000,0.02867,0.97771,-0.18886,0.0,2023,6,7,15,40,45,292
43.15980,-0.20930,0.09835,0.00000,0.03343,0.97734,-0.18910,0.0,2023,6,7,15,40,45,302
43.15990,0.14070,0.06335,0.00000,0.03282,0.97612,-0.18605,0.0,2023,6,7,15,40,45,312
43.16000,-0.08680,0.01085,0.00000,0.03135,0.97551,-0.18398,0.0,2023,6,7,15,40,45,322
43.16010,0.08820,0.08085,0.00000,0.03367,0.97807,-0.19130,0.0,2023,6,7,15,40,45,332
43.16020,0.12320,0.01085,0.00000,0.03062,0.97746,-0.18703,0.0,2023,6,7,15,40,45,342
43.16030,-0.40180,0.16835,0.00000,0.03245,0.97368,-0.18886,0.0,2023,6,7,15,40,45,352
43.16040,0.21070,0.13335,0.00000,0.03135,0.98003,-0.18886,0.0,2023,6,7,15,40,45,362
43.16050,-0.12180,-0.07665,0.00000,0.03123,0.97600,-0.18727,0.0,2023,6,7,15,40,45,372
43.16060,-0.13930,-0.04165,0.00000,0.03062,0.97868,-0.18849,0.0,2023,6,7,15,40,45,382
43.16070,0.07070,0.15085,0.00000,0.03209,0.97612,-0.18934,0.0,2023,6,7,15,40,45,392
43.16080,-0.17430,0.01085,0.00000,0.03026,0.97734,-0.18703,0.0,2023,6,7,15,40,45,402
43.16090,0.15820,0.08085,0.00000,0.03001,0.97722,-0.19215,0.0,2023,6,7,15,40,45,412
43.16100,-0.17430,-0.07665,0.00000,0.03379,0.97612,-0.18556,0.0,2023,6,7,15,40,45,422
43.16110,-0.20930,-0.04165,0.00000,0.03074,0.97466,-0.18593,0.0,2023,6,7,15,40,45,432
43.16120,0.01820,0.15085,0.00000,0.03306,0.97515,-0.18959,0.0,2023,6,7,15,40,45,442
43.16130,-0.05180,0.01085,0.00000,0.03343,0.97637,-0.18629,0.0,2023,6,7,15,40,45,452
43.16140,-0.06930,-0.02415,0.00000,0.03062,0.97490,-0.19264,0.0,2023,6,7,15,40,45,462
43.16150,-0.01680,-0.09415,0.00000,0.02940,0.97795,-0.18751,0.0,2023,6,7,15,40,45,472
43.16160,-0.47180,0.13335,0.00000,0.03343,0.97612,-0.18556,0.0,2023,6,7,15,40,45,482
43.16170,-0.05180,-0.05915,0.00000,0.02696,0.97673,-0.18898,0.0,2023,6,7,15,40,45,492
43.16180,0.08820,0.08085,0.00000,0.03148,0.97698,-0.18764,0.0,2023,6,7,15,40,45,502
43.16190,-0.08680,0.11585,0.00000,0.03135,0.97539,-0.18764,0.0,2023,6,7,15,40,45,512
43.16200,0.01820,0.25585,0.00000,0.02977,0.97685,-0.18898,0.0,2023,6,7,15,40,45,522
43.16210,0.08820,0.08085,0.00000,0.03111,0.97612,-0.18715,0.0,2023,6,7,15,40,45,532
43.16220,-0.13930,0.06335,0.00000,0.03209,0.97515,-0.18703,0.0,2023,6,7,15,40,45,542
43.16230,0.00070,0.02835,0.00000,0.03135,0.97771,-0.18837,0.0,2023,6,7,15,40,45,552
43.16240,0.01820,-0.02415,0.00000,0.03257,0.97771,-0.18556,0.0,2023,6,7,15,40,45,562
43.16250,-0.26180,0.13335,0.00000,0.03001,0.97490,-0.18788,0.0,2023,6,7,15,40,45,572
43.16260,0.07070,0.01085,0.00000,0.03026,0.97820,-0.18800,0.0,2023,6,7,15,40,45,582
43.16270,0.03570,0.06335,0.00000,0.03184,0.97563,-0.18886,0.0,2023,6,7,15,40,45,592
43.16280,-0.01680,-0.04165,0.00000,0.03135,0.97759,-0.18947,0.0,2023,6,7,15,40,45,602
43.16290,0.19320,0.02835,0.00000,0.03135,0.97685,-0.18861,0.0,2023,6,7,15,40,45,612
43.16300,-0.22680,0.01085,0.00000,0.03318,0.98076,-0.18886,0.0,2023,6,7,15,40,45,622
43.16310,-0.12180,-0.02415,0.00000,0.03221,0.97624,-0.18910,0.0,2023,6,7,15,40,45,632
43.16320,-0.06930,0.02835,0.00000,0.03050,0.97771,-0.18703,0.0,2023,6,7,15,40,45,642
43.16330,-0.10430,0.04585,0.00000,0.02965,0.97637,-0.18776,0.0,2023,6,7,15,40,45,652
43.16340,0.14070,-0.05915,0.00000,0.02879,0.97685,-0.18764,0.0,2023,6,7,15,40,45,662
43.16350,0.07070,-0.05915,0.00000,0.03013,0.97539,-0.18947,0.0,2023,6,7,15,40,45,672
43.16360,-0.06930,0.04585,0.00000,0.02928,0.97673,-0.18776,0.0,2023,6,7,15,40,45,682
43.16370,-0.06930,-0.07665,0.00000,0.03184,0.97515,-0.19142,0.0,2023,6,7,15,40,45,692
43.16380,0.21070,-0.18165,0.00000,0.03282,0.97454,-0.19081,0.0,2023,6,7,15,40,45,702
43.16390,0.17570,0.01085,0.00000,0.03367,0.97612,-0.18629,0.0,2023,6,7,15,40,45,712
43.16400,-0.45430,0.13335,0.00000,0.03245,0.97783,-0.18812,0.0,2023,6,7,15,40,45,722
43.16410,0.17570,-0.07665,0.00000,0.02904,0.97734,-0.18934,0.0,2023,6,7,15,40,45,732
43.16420,0.08820,-0.21665,0.00000,0.03013,0.97539,-0.18629,0.0,2023,6,7,15,40,45,742
43.16430,-0.31430,-0.00665,0.00000,0.02818,0.97551,-0.18593,0.0,2023,6,7,15,40,45,752
43.16440,0.31570,-0.28665,0.00000,0.02989,0.97759,-0.19142,0.0,2023,6,7,15,40,45,762
43.16450,-0.34930,-0.07665,0.00000,0.03233,0.97868,-0.18605,0.0,2023,6,7,15,40,45,772
43.16460,-0.24430,-0.04165,0.00000,0.03087,0.97405,-0.18825,0.0,2023,6,7,15,40,45,782
43.16470,0.21070,-0.04165,0.00000,0.03196,0.97783,-0.18629,0.0,2023,6,7,15,40,45,792
43.16480,-0.45430,-0.11165,0.00000,0.03379,0.97856,-0.18666,0.0,2023,6,7,15,40,45,802
43.16490,0.14070,0.04585,0.00000,0.02818,0.97771,-0.19130,0.0,2023,6,7,15,40,45,812
43.16500,0.08820,-0.07665,0.00000,0.03270,0.97612,-0.18715,0.0,2023,6,7,15,40,45,822
43.16510,-0.17430,0.02835,0.00000,0.02806,0.97698,-0.18971,0.0,2023,6,7,15,40,45,832
43.16520,0.19320,-0.11165,0.00000,0.03209,0.97807,-0.18898,0.0,2023,6,7,15,40,45,842
43.16530,-0.19180,0.09835,0.00000,0.03306,0.97722,-0.18227,0.0,2023,6,7,15,40,45,852
43.16540,0.07070,-0.11165,0.00000,0.03001,0.97856,-0.19069,0.0,2023,6,7,15,40,45,862
43.16550,0.47320,-0.16415,0.00000,0.03257,0.97710,-0.18507,0.0,2023,6,7,15,40,45,872
43.16560,-0.43680,0.22085,0.00000,0.03172,0.97698,-0.18337,0.0,2023,6,7,15,40,45,882
43.16570,0.08820,0.08085,0.00000,0.03111,0.97576,-0.19288,0.0,2023,6,7,15,40,45,892
43.16580,0.03570,0.04585,0.00000,0.03257,0.97844,-0.18556,0.0,2023,6,7,15,40,45,902
43.16590,-0.48930,0.08085,0.00000,0.03355,0.97563,-0.18666,0.0,2023,6,7,15,40,45,912
43.16600,0.12320,-0.02415,0.00000,0.03379,0.97759,-0.18959,0.0,2023,6,7,15,40,45,922
43.16610,-0.01680,0.01085,0.00000,0.03294,0.97661,-0.18605,0.0,2023,6,7,15,40,45,932
43.16620,-0.12180,0.09835,0.00000,0.03331,0.97454,-0.18690,0.0,2023,6,7,15,40,45,942
43.16630,0.26320,0.06335,0.00000,0.03123,0.97515,-0.19032,0.0,2023,6,7,15,40,45,952
43.16640,-0.20930,0.25585,0.00000,0.03111,0.97332,-0.18568,0.0,2023,6,7,15,40,45,962
43.16650,0.05320,0.08085,0.00000,0.03306,0.97661,-0.18995,0.0,2023,6,7,15,40,46,972
43.16660,-0.03430,0.06335,0.00000,0.03087,0.97698,-0.18568,0.0,2023,6,7,15,40,46,982
43.16670,-0.20930,0.08085,0.00000,0.03416,0.97612,-0.18764,0.0,2023,6,7,15,40,46,992
43.16680,-0.10430,-0.00665,0.00000,0.02989,0.97698,-0.19081,0.0,2023,6,7,15,40,46,2
43.16690,0.12320,-0.12915,0.00000,0.03416,0.97417,-0.18532,0.0,2023,6,7,15,40,46,12
43.16700,-0.40180,0.36085,0.00000,0.03050,0.97893,-0.18971,0.0,2023,6,7,15,40,46,22
43.16710,0.17570,-0.09415,0.00000,0.02928,0.97710,-0.18849,0.0,2023,6,7,15,40,46,32
43.16720,-0.13930,-0.11165,0.00000,0.03013,0.97515,-0.18617,0.0,2023,6,7,15,40,46,42
43.16730,-0.06930,-0.05915,0.00000,0.03221,0.97624,-0.18861,0.0,2023,6,7,15,40,46,52
43.16740,0.21070,-0.16415,0.00000,0.02891,0.97710,-0.18617,0.0,2023,6,7,15,40,46,62
43.16750,0.01820,0.04585,0.00000,0.03196,0.97246,-0.18629,0.0,2023,6,7,15,40,46,72
43.16760,-0.03430,0.01085,0.00000,0.02977,0.97844,-0.18971,0.0,2023,6,7,15,40,46,82
43.16770,0.12320,-0.09415,0.00000,0.03087,0.97612,-0.18739,0.0,2023,6,7,15,40,46,92
43.16780,-0.13930,0.23835,0.00000,0.03111,0.97661,-0.18873,0.0,2023,6,7,15,40,46,102
43.16790,0.17570,0.06335,0.00000,0.03099,0.97600,-0.18642,0.0,2023,6,7,15,40,46,112
43.16800,-0.05180,0.06335,0.00000,0.03343,0.97295,-0.18654,0.0,2023,6,7,15,40,46,122
43.16810,0.05320,0.11585,0.00000,0.03160,0.97539,-0.18934,0.0,2023,6,7,15,40,46,132
43.16820,-0.01680,0.16835,0.00000,0.03343,0.97466,-0.18764,0.0,2023,6,7,15,40,46,142
43.16830,-0.22680,-0.19915,0.00000,0.03233,0.97783,-0.18666,0.0,2023,6,7,15,40,46,152
43.16840,0.17570,-0.02415,0.00000,0.03209,0.97551,-0.18715,0.0,2023,6,7,15,40,46,162
43.16850,-0.19180,0.01085,0.00000,0.03050,0.97380,-0.18727,0.0,2023,6,7,15,40,46,172
43.16860,0.03570,0.09835,0.00000,0.03148,0.97502,-0.18837,0.0,2023,6,7,15,40,46,182
43.16870,0.03570,0.04585,0.00000,0.03245,0.97844,-0.18934,0.0,2023,6,7,15,40,46,192
43.16880,-0.12180,0.18585,0.00000,0.03306,0.97685,-0.18849,0.0,2023,6,7,15,40,46,202
43.16890,0.05320,-0.25165,0.00000,0.02843,0.97563,-0.18715,0.0,2023,6,7,15,40,46,212
43.16900,0.00070,0.16835,0.00000,0.03050,0.97698,-0.18837,0.0,2023,6,7,15,40,46,222
43.16910,0.01820,-0.11165,0.00000,0.03209,0.97576,-0.18959,0.0,2023,6,7,15,40,46,232
43.16920,-0.05180,0.16835,0.00000,0.03148,0.97478,-0.18849,0.0,2023,6,7,15,40,46,242
43.16930,-0.08680,0.11585,0.00000,0.03160,0.97734,-0.18666,0.0,2023,6,7,15,40,46,252
43.16940,0.22820,-0.05915,0.00000,0.03099,0.97734,-0.18703,0.0,2023,6,7,15,40,46,262
43.16950,0.10570,0.01085,0.00000,0.03099,0.97527,-0.18617,0.0,2023,6,7,15,40,46,272
43.16960,0.00070,-0.11165,0.00000,0.03196,0.97759,-0.18812,0.0,2023,6,7,15,40,46,282
43.16970,-0.03430,0.13335,0.00000,0.03209,0.97746,-0.18764,0.0,2023,6,7,15,40,46,292
43.16980,-0.13930,0.29085,0.00000,0.03123,0.97746,-0.18886,0.0,2023,6,7,15,40,46,302
43.16990,0.14070,-0.00665,0.00000,0.02940,0.97637,-0.18764,0.0,2023,6,7,15,40,46,312
43.17000,-0.08680,0.01085,0.00000,0.03355,0.97637,-0.18922,0.0,2023,6,7,15,40,46,322
43.17010,0.01820,0.02835,0.00000,0.03331,0.97612,-0.19117,0.0,2023,6,7,15,40,46,332
43.17020,0.01820,0.11585,0.00000,0.03196,0.97539,-0.18873,0.0,2023,6,7,15,40,46,342
43.17030,-0.22680,-0.12915,0.00000,0.02965,0.97698,-0.18703,0.0,2023,6,7,15,40,46,352
43.17040,-0.33180,-0.05915,0.00000,0.03111,0.97515,-0.18837,0.0,2023,6,7,15,40,46,362
43.17050,-0.08680,-0.02415,0.00000,0.03318,0.97685,-0.18947,0.0,2023,6,7,15,40,46,372
43.17060,-0.12180,-0.00665,0.00000,0.03099,0.97820,-0.19056,0.0,2023,6,7,15,40,46,382
43.17070,0.17570,0.01085,0.00000,0.03062,0.97759,-0.18947,0.0,2023,6,7,15,40,46,392
43.17080,0.03570,-0.14665,0.00000,0.03123,0.97722,-0.18898,0.0,2023,6,7,15,40,46,402
43.17090,0.01820,-0.05915,0.00000,0.03270,0.97612,-0.18825,0.0,2023,6,7,15,40,46,412
43.17100,-0.06930,-0.12915,0.00000,0.03209,0.97868,-0.18703,0.0,2023,6,7,15,40,46,422
43.17110,-0.19180,-0.04165,0.00000,0.03209,0.97734,-0.18715,0.0,2023,6,7,15,40,46,432
43.17120,-0.17430,-0.07665,0.00000,0.03050,0.97393,-0.18837,0.0,2023,6,7,15,40,46,442
43.17130,0.08820,0.04585,0.00000,0.03209,0.97698,-0.18873,0.0,2023,6,7,15,40,46,452
43.17140,-0.05180,-0.05915,0.00000,0.03209,0.97722,-0.18837,0.0,2023,6,7,15,40,46,462
43.17150,0.03570,-0.09415,0.00000,0.03318,0.97795,-0.18873,0.0,2023,6,7,15,40,46,472
43.17160,0.08820,-0.00665,0.00000,0.03148,0.97600,-0.18825,0.0,2023,6,7,15,40,46,482
43.17170,-0.19180,0.09835,0.00000,0.03221,0.97563,-0.18873,0.0,2023,6,7,15,40,46,492
43.17180,-0.05180,0.18585,0.00000,0.03184,0.97759,-0.19032,0.0,2023,6,7,15,40,46,502
43.17190,-0.08680,-0.02415,0.00000,0.03111,0.97868,-0.18666,0.0,2023,6,7,15,40,46,512
43.17200,-0.26180,0.09835,0.00000,0.03111,0.97588,-0.18873,0.0,2023,6,7,15,40,46,522
43.17210,-0.15680,0.11585,0.00000,0.03148,0.97563,-0.18995,0.0,2023,6,7,15,40,46,532
43.17220,0.00070,0.18585,0.00000,0.03209,0.97490,-0.18593,0.0,2023,6,7,15,40,46,542
43.17230,-0.17430,0.01085,0.00000,0.02928,0.97868,-0.19105,0.0,2023,6,7,15,40,46,552
43.17240,0.26320,-0.12915,0.00000,0.03184,0.97868,-0.18983,0.0,2023,6,7,15,40,46,562
43.17250,-0.20930,0.11585,0.00000,0.03282,0.97710,-0.18605,0.0,2023,6,7,15,40,46,572
43.17260,-0.10430,0.22085,0.00000,0.03148,0.97771,-0.19154,0.0,2023,6,7,15,40,46,582
43.17270,0.07070,0.23835,0.00000,0.03148,0.97551,-0.18947,0.0,2023,6,7,15,40,46,592
43.17280,-0.27930,-0.00665,0.00000,0.03257,0.97612,-0.18910,0.0,2023,6,7,15,40,46,602
43.17290,0.12320,0.04585,0.00000,0.03392,0.98015,-0.19044,0.0,2023,6,7,15,40,46,612
43.17300,-0.05180,-0.11165,0.00000,0.03074,0.97600,-0.18995,0.0,2023,6,7,15,40,46,622
43.17310,-0.01680,-0.00665,0.00000,0.03099,0.97368,-0.19130,0.0,2023,6,7,15,40,46,632
43.17320,0.21070,-0.11165,0.00000,0.03160,0.97661,-0.18837,0.0,2023,6,7,15,40,46,642
43.17330,-0.15680,0.02835,0.00000,0.03282,0.97649,-0.18690,0.0,2023,6,7,15,40,46,652
43.17340,-0.05180,-0.04165,0.00000,0.03221,0.97551,-0.19008,0.0,2023,6,7,15,40,46,662
43.17350,0.17570,-0.18165,0.00000,0.03087,0.97649,-0.18812,0.0,2023,6,7,15,40,46,672
43.17360,-0.27930,0.16835,0.00000,0.03196,0.97502,-0.18642,0.0,2023,6,7,15,40,46,682
43.17370,0.14070,-0.14665,0.00000,0.02977,0.97649,-0.18910,0.0,2023,6,7,15,40,46,692
43.17380,0.00070,-0.00665,0.00000,0.03184,0.97612,-0.18751,0.0,2023,6,7,15,40,46,702
43.17390,-0.17430,0.18585,0.00000,0.03026,0.97905,-0.18825,0.0,2023,6,7,15,40,46,712
43.17400,0.01820,0.09835,0.00000,0.02965,0.97844,-0.18922,0.0,2023,6,7,15,40,46,722
43.17410,-0.15680,0.27335,0.00000,0.03233,0.97722,-0.18568,0.0,2023,6,7,15,40,46,732
43.17420,-0.12180,-0.07665,0.00000,0.02989,0.97685,-0.18861,0.0,2023,6,7,15,40,46,742
43.17430,0.07070,-0.09415,0.00000,0.03026,0.97661,-0.18886,0.0,2023,6,7,15,40,46,752
43.17440,-0.24430,0.11585,0.00000,0.03172,0.97722,-0.18739,0.0,2023,6,7,15,40,46,762
43.17450,-0.03430,-0.04165,0.00000,0.03257,0.97624,-0.19117,0.0,2023,6,7,15,40,46,772
43.17460,0.15820,0.13335,0.00000,0.03233,0.97734,-0.18849,0.0,2023,6,7,15,40,46,782
43.17470,-0.06930,0.16835,0.00000,0.03160,0.97368,-0.18922,0.0,2023,6,7,15,40,46,792
43.17480,-0.05180,-0.05915,0.00000,0.03099,0.97600,-0.19252,0.0,2023,6,7,15,40,46,802
43.17490,0.19320,-0.00665,0.00000,0.03001,0.97490,-0.18947,0.0,2023,6,7,15,40,46,812
43.17500,-0.19180,-0.02415,0.00000,0.03099,0.97612,-0.18666,0.0,2023,6,7,15,40,46,822
43.17510,0.07070,0.06335,0.00000,0.03087,0.97893,-0.18873,0.0,2023,6,7,15,40,46,832
43.17520,-0.01680,-0.04165,0.00000,0.03294,0.97612,-0.18983,0.0,2023,6,7,15,40,46,842
43.17530,0.03570,0.01085,0.00000,0.03026,0.97527,-0.19032,0.0,2023,6,7,15,40,46,852
43.17540,0.07070,-0.02415,0.00000,0.02965,0.97698,-0.19105,0.0,2023,6,7,15,40,46,862
43.17550,-0.31430,0.15085,0.00000,0.03270,0.97820,-0.18800,0.0,2023,6,7,15,40,47,872
43.17560,-0.17430,0.11585,0.00000,0.03026,0.97515,-0.19142,0.0,2023,6,7,15,40,47,882
43.17570,0.03570,-0.09415,0.00000,0.03062,0.97771,-0.18947,0.0,2023,6,7,15,40,47,892
43.17580,-0.15680,0.11585,0.00000,0.03221,0.97832,-0.18837,0.0,2023,6,7,15,40,47,902
43.17590,-0.03430,-0.02415,0.00000,0.03123,0.97624,-0.19081,0.0,2023,6,7,15,40,47,912
43.17600,0.17570,-0.05915,0.00000,0.03209,0.97698,-0.18886,0.0,2023,6,7,15,40,47,922
43.17610,-0.05180,0.01085,0.00000,0.03111,0.97466,-0.18666,0.0,2023,6,7,15,40,47,932
43.17620,0.22820,0.06335,0.00000,0.03172,0.97576,-0.19239,0.0,2023,6,7,15,40,47,942
43.17630,0.22820,0.01085,0.00000,0.03111,0.97600,-0.18837,0.0,2023,6,7,15,40,47,952
43.17640,-0.17430,0.04585,0.00000,0.03038,0.97820,-0.19008,0.0,2023,6,7,15,40,47,962
43.17650,0.21070,-0.00665,0.00000,0.03306,0.97698,-0.19154,0.0,2023,6,7,15,40,47,972
43.17660,0.00070,0.01085,0.00000,0.02879,0.97441,-0.18837,0.0,2023,6,7,15,40,47,982
43.17670,-0.05180,-0.07665,0.00000,0.03196,0.97441,-0.18837,0.0,2023,6,7,15,40,47,992
43.17680,-0.15680,0.02835,0.00000,0.03135,0.97807,-0.18922,0.0,2023,6,7,15,40,47,2
43.17690,0.07070,-0.05915,0.00000,0.03050,0.97685,-0.18861,0.0,2023,6,7,15,40,47,12
43.17700,-0.01680,-0.07665,0.00000,0.02977,0.97685,-0.18947,0.0,2023,6,7,15,40,47,22
43.17710,0.05320,-0.00665,0.00000,0.03343,0.97515,-0.18983,0.0,2023,6,7,15,40,47,32
43.17720,0.05320,0.09835,0.00000,0.03196,0.97978,-0.19154,0.0,2023,6,7,15,40,47,42
43.17730,0.12320,-0.11165,0.00000,0.03209,0.97844,-0.18995,0.0,2023,6,7,15,40,47,52
43.17740,0.03570,0.08085,0.00000,0.03294,0.97588,-0.18922,0.0,2023,6,7,15,40,47,62
43.17750,0.19320,-0.07665,0.00000,0.03172,0.97710,-0.18739,0.0,2023,6,7,15,40,47,72
43.17760,-0.24430,0.11585,0.00000,0.03087,0.97539,-0.18715,0.0,2023,6,7,15,40,47,82
43.17770,-0.05180,-0.05915,0.00000,0.03001,0.97588,-0.18971,0.0,2023,6,7,15,40,47,92
43.17780,0.08820,-0.23415,0.00000,0.02989,0.97624,-0.18727,0.0,2023,6,7,15,40,47,102
43.17790,-0.20930,0.06335,0.00000,0.03257,0.97685,-0.18751,0.0,2023,6,7,15,40,47,112
43.17800,-0.13930,0.11585,0.00000,0.03233,0.97685,-0.18947,0.0,2023,6,7,15,40,47,122
43.17810,0.05320,0.13335,0.00000,0.03282,0.97795,-0.18727,0.0,2023,6,7,15,40,47,132
43.17820,0.05320,0.06335,0.00000,0.02989,0.97515,-0.18825,0.0,2023,6,7,15,40,47,142
43.17830,0.21070,-0.21665,0.00000,0.03172,0.97478,-0.18690,0.0,2023,6,7,15,40,47,152
43.17840,-0.06930,-0.16415,0.00000,0.03172,0.97722,-0.18642,0.0,2023,6,7,15,40,47,162
43.17850,0.24570,-0.05915,0.00000,0.03343,0.98003,-0.19069,0.0,2023,6,7,15,40,47,172
43.17860,0.17570,0.16835,0.00000,0.03318,0.97637,-0.18751,0.0,2023,6,7,15,40,47,182
43.17870,-0.45430,0.15085,0.00000,0.03196,0.97588,-0.18654,0.0,2023,6,7,15,40,47,192
43.17880,0.36820,-0.04165,0.00000,0.02952,0.97637,-0.19117,0.0,2023,6,7,15,40,47,202
43.17890,0.03570,0.08085,0.00000,0.03245,0.97637,-0.18690,0.0,2023,6,7,15,40,47,212
43.17900,-0.43680,0.22085,0.00000,0.03355,0.97673,-0.18849,0.0,2023,6,7,15,40,47,222
43.17910,0.26320,-0.18165,0.00000,0.03160,0.98039,-0.18812,0.0,2023,6,7,15,40,47,232
43.17920,-0.22680,0.06335,0.00000,0.03172,0.97710,-0.18385,0.0,2023,6,7,15,40,47,242
43.17930,-0.12180,-0.00665,0.00000,0.03087,0.97380,-0.19191,0.0,2023,6,7,15,40,47,252
43.17940,0.31570,-0.04165,0.00000,0.03245,0.97405,-0.18837,0.0,2023,6,7,15,40,47,262
43.17950,-0.29680,0.08085,0.00000,0.03209,0.97454,-0.18703,0.0,2023,6,7,15,40,47,272
43.17960,-0.03430,0.15085,0.00000,0.03148,0.97783,-0.19020,0.0,2023,6,7,15,40,47,282
43.17970,0.03570,-0.07665,0.00000,0.03184,0.97685,-0.18568,0.0,2023,6,7,15,40,47,292
43.17980,-0.13930,-0.05915,0.00000,0.03038,0.97576,-0.18605,0.0,2023,6,7,15,40,47,302
43.17990,0.12320,0.09835,0.00000,0.03270,0.97527,-0.18727,0.0,2023,6,7,15,40,47,312
43.18000,0.10570,0.09835,0.00000,0.03160,0.97637,-0.18751,0.0,2023,6,7,15,40,47,322
43.18010,-0.27930,0.08085,0.00000,0.03196,0.97527,-0.18849,0.0,2023,6,7,15,40,47,332
43.18020,0.01820,-0.21665,0.00000,0.03148,0.97490,-0.18715,0.0,2023,6,7,15,40,47,342
43.18030,-0.01680,0.06335,0.00000,0.03123,0.97685,-0.18727,0.0,2023,6,7,15,40,47,352
43.18040,-0.10430,-0.00665,0.00000,0.02952,0.97868,-0.18886,0.0,2023,6,7,15,40,47,362
43.18050,-0.15680,-0.02415,0.00000,0.03172,0.97490,-0.18788,0.0,2023,6,7,15,40,47,372
43.18060,0.17570,-0.05915,0.00000,0.03257,0.97368,-0.18495,0.0,2023,6,7,15,40,47,382
43.18070,-0.22680,-0.11165,0.00000,0.03489,0.97588,-0.18556,0.0,2023,6,7,15,40,47,392
43.18080,0.22820,-0.09415,0.00000,0.03013,0.97380,-0.19386,0.0,2023,6,7,15,40,47,402
43.18090,0.01820,0.09835,0.00000,0.03331,0.97649,-0.18593,0.0,2023,6,7,15,40,47,412
43.18100,-0.62930,-0.09415,0.00000,0.03184,0.97637,-0.18788,0.0,2023,6,7,15,40,47,422
43.18110,0.24570,-0.09415,0.00000,0.02940,0.97710,-0.18898,0.0,2023,6,7,15,40,47,432
43.18120,0.10570,-0.05915,0.00000,0.03428,0.97734,-0.18349,0.0,2023,6,7,15,40,47,442
43.18130,-0.20930,-0.05915,0.00000,0.02989,0.97795,-0.18788,0.0,2023,6,7,15,40,47,452
43.18140,0.28070,-0.00665,0.00000,0.02904,0.97649,-0.18934,0.0,2023,6,7,15,40,47,462
43.18150,-0.10430,-0.05915,0.00000,0.03257,0.97710,-0.18276,0.0,2023,6,7,15,40,47,472
43.18160,-0.08680,0.09835,0.00000,0.03135,0.97624,-0.19142,0.0,2023,6,7,15,40,47,482
43.18170,0.15820,0.15085,0.00000,0.03343,0.97661,-0.18776,0.0,2023,6,7,15,40,47,492
43.18180,-0.43680,0.02835,0.00000,0.03196,0.97759,-0.18373,0.0,2023,6,7,15,40,47,502
43.18190,0.14070,0.08085,0.00000,0.02928,0.97649,-0.19178,0.0,2023,6,7,15,40,47,512
43.18200,0.03570,-0.18165,0.00000,0.03074,0.97563,-0.18605,0.0,2023,6,7,15,40,47,522
43.18210,-0.31430,0.06335,0.00000,0.02940,0.97368,-0.18532,0.0,2023,6,7,15,40,47,532
43.18220,0.08820,0.15085,0.00000,0.02916,0.97551,-0.19166,0.0,2023,6,7,15,40,47,542
43.18230,-0.22680,0.11585,0.00000,0.03013,0.97795,-0.18324,0.0,2023,6,7,15,40,47,552
43.18240,-0.17430,0.20335,0.00000,0.03074,0.97771,-0.18849,0.0,2023,6,7,15,40,47,562
43.18250,0.42070,0.01085,0.00000,0.03184,0.97710,-0.19032,0.0,2023,6,7,15,40,47,572
43.18260,-0.38430,0.01085,0.00000,0.03148,0.97673,-0.18678,0.0,2023,6,7,15,40,47,582
43.18270,-0.20930,0.16835,0.00000,0.03196,0.97673,-0.18715,0.0,2023,6,7,15,40,47,592
43.18280,0.17570,0.04585,0.00000,0.03148,0.97820,-0.18727,0.0,2023,6,7,15,40,47,602
43.18290,-0.29680,0.16835,0.00000,0.03245,0.97539,-0.18666,0.0,2023,6,7,15,40,47,612
43.18300,0.15820,-0.19915,0.00000,0.02904,0.97685,-0.18739,0.0,2023,6,7,15,40,47,622
43.18310,0.17570,0.04585,0.00000,0.03172,0.97576,-0.18690,0.0,2023,6,7,15,40,47,632
43.18320,-0.12180,-0.02415,0.00000,0.03257,0.97942,-0.18825,0.0,2023,6,7,15,40,47,642
43.18330,-0.05180,0.13335,0.00000,0.03172,0.97771,-0.18617,0.0,2023,6,7,15,40,47,652
43.18340,-0.06930,0.13335,0.00000,0.03221,0.97539,-0.18507,0.0,2023,6,7,15,40,47,662
43.18350,-0.06930,0.11585,0.00000,0.03209,0.97478,-0.18959,0.0,2023,6,7,15,40,47,672
43.18360,0.01820,0.01085,0.00000,0.03196,0.97502,-0.18886,0.0,2023,6,7,15,40,47,682
43.18370,-0.13930,-0.11165,0.00000,0.03123,0.97502,-0.18922,0.0,2023,6,7,15,40,47,692
43.18380,-0.15680,0.16835,0.00000,0.03087,0.97734,-0.19093,0.0,2023,6,7,15,40,47,702
43.18390,-0.01680,-0.00665,0.00000,0.03099,0.97405,-0.18581,0.0,2023,6,7,15,40,47,712
43.18400,-0.22680,-0.14665,0.00000,0.02977,0.97783,-0.18861,0.0,2023,6,7,15,40,47,722
43.18410,0.12320,0.06335,0.00000,0.03074,0.97661,-0.18983,0.0,2023,6,7,15,40,47,732
43.18420,-0.22680,0.02835,0.00000,0.03099,0.97551,-0.18849,0.0,2023,6,7,15,40,47,742
43.18430,-0.12180,-0.05915,0.00000,0.03221,0.97490,-0.18971,0.0,2023,6,7,15,40,47,752
43.18440,0.05320,-0.04165,0.00000,0.03087,0.97576,-0.18776,0.0,2023,6,7,15,40,48,762
43.18450,0.03570,-0.18165,0.00000,0.03135,0.97698,-0.18751,0.0,2023,6,7,15,40,48,772
43.18460,0.22820,-0.00665,0.00000,0.03099,0.97905,-0.19008,0.0,2023,6,7,15,40,48,782
43.18470,0.01820,-0.14665,0.00000,0.02989,0.97685,-0.18605,0.0,2023,6,7,15,40,48,792
43.18480,-0.12180,0.09835,0.00000,0.03050,0.97649,-0.19081,0.0,2023,6,7,15,40,48,802
43.18490,-0.03430,0.04585,0.00000,0.03099,0.97771,-0.18678,0.0,2023,6,7,15,40,48,812
43.18500,-0.13930,0.13335,0.00000,0.03050,0.97624,-0.18727,0.0,2023,6,7,15,40,48,822
43.18510,-0.08680,-0.02415,0.00000,0.03270,0.97637,-0.19020,0.0,2023,6,7,15,40,48,832
43.18520,0.17570,-0.02415,0.00000,0.03318,0.97576,-0.18703,0.0,2023,6,7,15,40,48,842
43.18530,-0.10430,0.30835,0.00000,0.03160,0.97649,-0.18837,0.0,2023,6,7,15,40,48,852
43.18540,0.08820,0.11585,0.00000,0.03148,0.97417,-0.18825,0.0,2023,6,7,15,40,48,862
43.18550,0.05320,0.02835,0.00000,0.03038,0.97820,-0.18959,0.0,2023,6,7,15,40,48,872
43.18560,0.07070,0.02835,0.00000,0.03196,0.97649,-0.18715,0.0,2023,6,7,15,40,48,882
43.18570,0.08820,-0.04165,0.00000,0.03196,0.97856,-0.18959,0.0,2023,6,7,15,40,48,892
43.18580,-0.17430,0.04585,0.00000,0.03282,0.97588,-0.18812,0.0,2023,6,7,15,40,48,902
43.18590,-0.13930,0.20335,0.00000,0.03221,0.97478,-0.18751,0.0,2023,6,7,15,40,48,912
43.18600,0.33320,-0.04165,0.00000,0.03221,0.97771,-0.19069,0.0,2023,6,7,15,40,48,922
43.18610,-0.27930,0.09835,0.00000,0.03392,0.97929,-0.18276,0.0,2023,6,7,15,40,48,932
43.18620,-0.15680,0.30835,0.00000,0.03172,0.97698,-0.18995,0.0,2023,6,7,15,40,48,942
43.18630,0.57820,-0.18165,0.00000,0.02989,0.97563,-0.19105,0.0,2023,6,7,15,40,48,952
43.18640,-0.64680,-0.00665,0.00000,0.03428,0.97405,-0.18495,0.0,2023,6,7,15,40,48,962
43.18650,0.10570,0.02835,0.00000,0.03099,0.97759,-0.18947,0.0,2023,6,7,15,40,48,972
43.18660,0.17570,0.11585,0.00000,0.03355,0.97649,-0.18727,0.0,2023,6,7,15,40,48,982
43.18670,-0.59430,0.22085,0.00000,0.03026,0.97661,-0.18410,0.0,2023,6,7,15,40,48,992
43.18680,0.19320,-0.11165,0.00000,0.03282,0.97746,-0.19093,0.0,2023,6,7,15,40,48,2
43.18690,-0.17430,-0.00665,0.00000,0.03257,0.97795,-0.18581,0.0,2023,6,7,15,40,48,12
43.18700,-0.33180,0.04585,0.00000,0.03160,0.97759,-0.18715,0.0,2023,6,7,15,40,48,22
43.18710,0.26320,0.08085,0.00000,0.03172,0.97649,-0.18922,0.0,2023,6,7,15,40,48,32
43.18720,-0.22680,-0.07665,0.00000,0.03111,0.97612,-0.18446,0.0,2023,6,7,15,40,48,42
43.18730,0.05320,-0.11165,0.00000,0.03148,0.97722,-0.18886,0.0,2023,6,7,15,40,48,52
43.18740,0.29820,0.02835,0.00000,0.02965,0.97868,-0.18495,0.0,2023,6,7,15,40,48,62
43.18750,-0.33180,0.20335,0.00000,0.03099,0.97954,-0.18947,0.0,2023,6,7,15,40,48,72
43.18760,0.33320,0.11585,0.00000,0.03074,0.97527,-0.19276,0.0,2023,6,7,15,40,48,82
43.18770,-0.01680,0.02835,0.00000,0.03343,0.97454,-0.18605,0.0,2023,6,7,15,40,48,92
43.18780,-0.43680,-0.04165,0.00000,0.03416,0.97539,-0.18459,0.0,2023,6,7,15,40,48,102
43.18790,0.38570,-0.14665,0.00000,0.03196,0.97563,-0.18983,0.0,2023,6,7,15,40,48,112
43.18800,-0.10430,-0.02415,0.00000,0.03013,0.97588,-0.18605,0.0,2023,6,7,15,40,48,122
43.18810,-0.12180,0.02835,0.00000,0.03196,0.97698,-0.18995,0.0,2023,6,7,15,40,48,132
43.18820,0.17570,0.02835,0.00000,0.03172,0.97685,-0.19008,0.0,2023,6,7,15,40,48,142
43.18830,-0.19180,0.20335,0.00000,0.03123,0.97563,-0.18703,0.0,2023,6,7,15,40,48,152
43.18840,0.10570,0.04585,0.00000,0.03233,0.97637,-0.18983,0.0,2023,6,7,15,40,48,162
43.18850,-0.13930,0.02835,0.00000,0.03282,0.97795,-0.18483,0.0,2023,6,7,15,40,48,172
43.18860,-0.27930,-0.11165,0.00000,0.03282,0.97466,-0.18751,0.0,2023,6,7,15,40,48,182
43.18870,0.64820,-0.09415,0.00000,0.03001,0.97856,-0.19130,0.0,2023,6,7,15,40,48,192
43.18880,-0.61180,0.15085,0.00000,0.03318,0.97710,-0.18471,0.0,2023,6,7,15,40,48,202
43.18890,0.03570,0.16835,0.00000,0.03172,0.97551,-0.19215,0.0,2023,6,7,15,40,48,212
43.18900,0.40320,-0.04165,0.00000,0.03343,0.97685,-0.18959,0.0,2023,6,7,15,40,48,222
43.18910,-0.26180,-0.04165,0.00000,0.03013,0.97429,-0.18581,0.0,2023,6,7,15,40,48,232
43.18920,0.12320,-0.00665,0.00000,0.03013,0.97722,-0.18947,0.0,2023,6,7,15,40,48,242
43.18930,0.14070,0.16835,0.00000,0.03074,0.97929,-0.18593,0.0,2023,6,7,15,40,48,252
43.18940,-0.41930,0.16835,0.00000,0.03160,0.97539,-0.18971,0.0,2023,6,7,15,40,48,262
43.18950,0.45570,0.13335,0.00000,0.03074,0.97844,-0.19032,0.0,2023,6,7,15,40,48,272
43.18960,-0.19180,0.11585,0.00000,0.03209,0.97649,-0.18678,0.0,2023,6,7,15,40,48,282
43.18970,-0.40180,0.13335,0.00000,0.02965,0.97417,-0.19117,0.0,2023,6,7,15,40,48,292
43.18980,0.33320,-0.14665,0.00000,0.03318,0.97588,-0.18800,0.0,2023,6,7,15,40,48,302
43.18990,-0.47180,-0.07665,0.00000,0.03343,0.97600,-0.18507,0.0,2023,6,7,15,40,48,312
43.19000,0.21070,0.11585,0.00000,0.02940,0.97661,-0.19300,0.0,2023,6,7,15,40,48,322
43.19010,0.15820,-0.09415,0.00000,0.03160,0.97637,-0.19154,0.0,2023,6,7,15,40,48,332
43.19020,-0.22680,-0.16415,0.00000,0.03257,0.97685,-0.18959,0.0,2023,6,7,15,40,48,342
43.19030,0.42070,-0.37415,0.00000,0.02952,0.97783,-0.19142,0.0,2023,6,7,15,40,48,352
43.19040,-0.03430,0.06335,0.00000,0.03294,0.97685,-0.18715,0.0,2023,6,7,15,40,48,362
43.19050,-0.10430,0.06335,0.00000,0.02916,0.97734,-0.18873,0.0,2023,6,7,15,40,48,372
43.19060,0.28070,0.09835,0.00000,0.03221,0.97563,-0.18886,0.0,2023,6,7,15,40,48,382
43.19070,-0.15680,-0.11165,0.00000,0.03221,0.97576,-0.18495,0.0,2023,6,7,15,40,48,392
43.19080,0.15820,-0.35665,0.00000,0.02977,0.97844,-0.19032,0.0,2023,6,7,15,40,48,402
43.19090,0.19320,0.09835,0.00000,0.03282,0.97783,-0.18715,0.0,2023,6,7,15,40,48,412
43.19100,-0.13930,-0.00665,0.00000,0.03184,0.97637,-0.18886,0.0,2023,6,7,15,40,48,422
43.19110,0.14070,0.11585,0.00000,0.02867,0.97673,-0.18886,0.0,2023,6,7,15,40,48,432
43.19120,0.00070,-0.09415,0.00000,0.03135,0.97710,-0.18995,0.0,2023,6,7,15,40,48,442
43.19130,-0.26180,-0.02415,0.00000,0.03087,0.97698,-0.18873,0.0,2023,6,7,15,40,48,452
43.19140,-0.01680,-0.07665,0.00000,0.03221,0.97661,-0.18825,0.0,2023,6,7,15,40,48,462
43.19150,-0.10430,-0.07665,0.00000,0.03233,0.97429,-0.18800,0.0,2023,6,7,15,40,48,472
43.19160,-0.17430,-0.12915,0.00000,0.03050,0.97527,-0.18751,0.0,2023,6,7,15,40,48,482
43.19170,0.00070,0.15085,0.00000,0.03172,0.97490,-0.18715,0.0,2023,6,7,15,40,48,492
43.19180,-0.24430,-0.25165,0.00000,0.03123,0.97563,-0.18825,0.0,2023,6,7,15,40,48,502
43.19190,0.08820,0.20335,0.00000,0.03001,0.97722,-0.19081,0.0,2023,6,7,15,40,48,512
43.19200,0.01820,-0.18165,0.00000,0.03148,0.97454,-0.18764,0.0,2023,6,7,15,40,48,522
43.19210,-0.03430,0.11585,0.00000,0.03196,0.97478,-0.19008,0.0,2023,6,7,15,40,48,532
43.19220,0.05320,-0.05915,0.00000,0.03050,0.97515,-0.18861,0.0,2023,6,7,15,40,48,542
43.19230,-0.12180,0.02835,0.00000,0.03367,0.97490,-0.18873,0.0,2023,6,7,15,40,48,552
43.19240,-0.03430,-0.16415,0.00000,0.03184,0.97661,-0.18849,0.0,2023,6,7,15,40,48,562
43.19250,-0.08680,0.02835,0.00000,0.03282,0.97771,-0.18434,0.0,2023,6,7,15,40,48,572
43.19260,-0.08680,0.25585,0.00000,0.03135,0.97759,-0.18715,0.0,2023,6,7,15,40,48,582
43.19270,-0.08680,0.08085,0.00000,0.03221,0.97832,-0.18910,0.0,2023,6,7,15,40,48,592
43.19280,0.19320,0.01085,0.00000,0.03062,0.97868,-0.18654,0.0,2023,6,7,15,40,48,602
43.19290,-0.13930,0.13335,0.00000,0.03148,0.97929,-0.19154,0.0,2023,6,7,15,40,48,612
43.19300,-0.15680,0.08085,0.00000,0.03184,0.97515,-0.18654,0.0,2023,6,7,15,40,48,622
43.19310,0.10570,-0.00665,0.00000,0.03221,0.97588,-0.18971,0.0,2023,6,7,15,40,48,632
43.19320,0.15820,0.04585,0.00000,0.03355,0.97661,-0.18873,0.0,2023,6,7,15,40,48,642
43.19330,-0.12180,0.18585,0.00000,0.03111,0.97746,-0.18886,0.0,2023,6,7,15,40,49,652
43.19340,0.10570,-0.33915,0.00000,0.03123,0.97588,-0.18837,0.0,2023,6,7,15,40,49,662
43.19350,-0.03430,-0.07665,0.00000,0.03074,0.97685,-0.18495,0.0,2023,6,7,15,40,49,672
43.19360,-0.05180,0.20335,0.00000,0.02916,0.97515,-0.18739,0.0,2023,6,7,15,40,49,682
43.19370,-0.06930,0.08085,0.00000,0.02989,0.97454,-0.18861,0.0,2023,6,7,15,40,49,692
43.19380,-0.05180,0.02835,0.00000,0.03123,0.97563,-0.18886,0.0,2023,6,7,15,40,49,702
43.19390,-0.26180,0.04585,0.00000,0.03270,0.97417,-0.19008,0.0,2023,6,7,15,40,49,712
43.19400,0.03570,-0.16415,0.00000,0.03111,0.97429,-0.18764,0.0,2023,6,7,15,40,49,722
43.19410,-0.10430,-0.09415,0.00000,0.03282,0.97649,-0.19081,0.0,2023,6,7,15,40,49,732
43.19420,0.00070,-0.05915,0.00000,0.03111,0.97600,-0.18690,0.0,2023,6,7,15,40,49,742
43.19430,-0.05180,-0.04165,0.00000,0.03172,0.97551,-0.19032,0.0,2023,6,7,15,40,49,752
43.19440,0.22820,-0.04165,0.00000,0.03160,0.97515,-0.18922,0.0,2023,6,7,15,40,49,762
43.19450,0.00070,0.29085,0.00000,0.02855,0.97685,-0.18934,0.0,2023,6,7,15,40,49,772
43.19460,-0.10430,-0.09415,0.00000,0.03282,0.97576,-0.18678,0.0,2023,6,7,15,40,49,782
43.19470,0.00070,0.11585,0.00000,0.03074,0.97954,-0.18654,0.0,2023,6,7,15,40,49,792
43.19480,0.10570,0.15085,0.00000,0.03294,0.97771,-0.18849,0.0,2023,6,7,15,40,49,802
43.19490,-0.01680,-0.00665,0.00000,0.03135,0.97661,-0.19032,0.0,2023,6,7,15,40,49,812
43.19500,-0.15680,0.29085,0.00000,0.03074,0.97698,-0.18678,0.0,2023,6,7,15,40,49,822
43.19510,0.12320,-0.19915,0.00000,0.02977,0.97673,-0.18678,0.0,2023,6,7,15,40,49,832
43.19520,0.01820,0.02835,0.00000,0.03526,0.97734,-0.18654,0.0,2023,6,7,15,40,49,842
43.19530,0.07070,0.22085,0.00000,0.03270,0.97868,-0.18947,0.0,2023,6,7,15,40,49,852
43.19540,0.00070,-0.07665,0.00000,0.02989,0.97746,-0.18886,0.0,2023,6,7,15,40,49,862
43.19550,0.00070,-0.04165,0.00000,0.03074,0.97649,-0.18849,0.0,2023,6,7,15,40,49,872
43.19560,0.05320,-0.07665,0.00000,0.03148,0.97942,-0.18495,0.0,2023,6,7,15,40,49,882
43.19570,-0.15680,0.25585,0.00000,0.03172,0.97551,-0.18959,0.0,2023,6,7,15,40,49,892
43.19580,-0.03430,-0.00665,0.00000,0.03074,0.97600,-0.18873,0.0,2023,6,7,15,40,49,902
43.19590,0.14070,0.04585,0.00000,0.03306,0.97771,-0.18934,0.0,2023,6,7,15,40,49,912
43.19600,-0.19180,0.08085,0.00000,0.02940,0.97929,-0.18812,0.0,2023,6,7,15,40,49,922
43.19610,-0.08680,-0.09415,0.00000,0.03477,0.97685,-0.18812,0.0,2023,6,7,15,40,49,932
43.19620,-0.06930,0.06335,0.00000,0.03050,0.97563,-0.18886,0.0,2023,6,7,15,40,49,942
43.19630,-0.10430,0.08085,0.00000,0.03038,0.97527,-0.18654,0.0,2023,6,7,15,40,49,952
43.19640,0.12320,-0.02415,0.00000,0.03318,0.97771,-0.18886,0.0,2023,6,7,15,40,49,962
43.19650,0.12320,-0.04165,0.00000,0.03270,0.97612,-0.18776,0.0,2023,6,7,15,40,49,972
43.19660,-0.05180,0.11585,0.00000,0.03379,0.97527,-0.18739,0.0,2023,6,7,15,40,49,982
43.19670,0.00070,-0.04165,0.00000,0.03209,0.97576,-0.18837,0.0,2023,6,7,15,40,49,992
43.19680,-0.17430,0.02835,0.00000,0.03209,0.97539,-0.18776,0.0,2023,6,7,15,40,49,2
43.19690,0.05320,0.02835,0.00000,0.03050,0.97698,-0.18581,0.0,2023,6,7,15,40,49,12
43.19700,0.19320,0.27335,0.00000,0.03111,0.97466,-0.18556,0.0,2023,6,7,15,40,49,22
43.19710,-0.05180,0.20335,0.00000,0.03087,0.97759,-0.18593,0.0,2023,6,7,15,40,49,32
43.19720,0.10570,0.18585,0.00000,0.03270,0.97624,-0.18776,0.0,2023,6,7,15,40,49,42
43.19730,0.21070,-0.09415,0.00000,0.03196,0.97405,-0.18886,0.0,2023,6,7,15,40,49,52
43.19740,-0.08680,0.04585,0.00000,0.03050,0.97661,-0.18776,0.0,2023,6,7,15,40,49,62
43.19750,0.00070,0.15085,0.00000,0.02855,0.97478,-0.18910,0.0,2023,6,7,15,40,49,72
43.19760,-0.26180,0.30835,0.00000,0.03050,0.97356,-0.19008,0.0,2023,6,7,15,40,49,82
43.19770,-0.05180,-0.12915,0.00000,0.03172,0.97624,-0.18837,0.0,2023,6,7,15,40,49,92
43.19780,-0.05180,0.09835,0.00000,0.02952,0.97551,-0.18849,0.0,2023,6,7,15,40,49,102
43.19790,-0.05180,-0.05915,0.00000,0.03233,0.97637,-0.18751,0.0,2023,6,7,15,40,49,112
43.19800,-0.01680,0.16835,0.00000,0.03331,0.97722,-0.18910,0.0,2023,6,7,15,40,49,122
43.19810,-0.17430,0.01085,0.00000,0.03160,0.97661,-0.18629,0.0,2023,6,7,15,40,49,132
43.19820,-0.06930,0.18585,0.00000,0.03367,0.97515,-0.18751,0.0,2023,6,7,15,40,49,142
43.19830,0.05320,-0.07665,0.00000,0.03233,0.97588,-0.18910,0.0,2023,6,7,15,40,49,152
43.19840,-0.15680,0.16835,0.00000,0.03233,0.97710,-0.18642,0.0,2023,6,7,15,40,49,162
43.19850,-0.15680,-0.12915,0.00000,0.03001,0.97746,-0.18995,0.0,2023,6,7,15,40,49,172
43.19860,0.00070,-0.07665,0.00000,0.03062,0.97856,-0.18971,0.0,2023,6,7,15,40,49,182
43.19870,-0.24430,-0.07665,0.00000,0.03270,0.97685,-0.18934,0.0,2023,6,7,15,40,49,192
43.19880,0.01820,0.13335,0.00000,0.03477,0.97624,-0.18837,0.0,2023,6,7,15,40,49,202
43.19890,-0.05180,-0.07665,0.00000,0.03160,0.97820,-0.18922,0.0,2023,6,7,15,40,49,212
43.19900,-0.08680,0.15085,0.00000,0.03221,0.97820,-0.18764,0.0,2023,6,7,15,40,49,222
43.19910,0.00070,-0.07665,0.00000,0.03282,0.97698,-0.18922,0.0,2023,6,7,15,40,49,232
43.19920,0.12320,-0.07665,0.00000,0.03318,0.97734,-0.18873,0.0,2023,6,7,15,40,49,242
43.19930,0.00070,-0.00665,0.00000,0.03099,0.97917,-0.18800,0.0,2023,6,7,15,40,49,252
43.19940,0.08820,0.16835,0.00000,0.03148,0.97527,-0.18751,0.0,2023,6,7,15,40,49,262
43.19950,0.17570,0.06335,0.00000,0.03074,0.97685,-0.18666,0.0,2023,6,7,15,40,49,272
43.19960,-0.13930,0.01085,0.00000,0.03135,0.97698,-0.18483,0.0,2023,6,7,15,40,49,282
43.19970,-0.10430,-0.09415,0.00000,0.03038,0.97722,-0.18788,0.0,2023,6,7,15,40,49,292
43.19980,0.14070,-0.09415,0.00000,0.03148,0.97612,-0.18837,0.0,2023,6,7,15,40,49,302
43.19990,-0.26180,0.18585,0.00000,0.03196,0.97661,-0.18471,0.0,2023,6,7,15,40,49,312
43.20000,-0.26180,0.02835,0.00000,0.03196,0.97600,-0.19020,0.0,2023,6,7,15,40,49,322
43.20010,0.03570,0.04585,0.00000,0.03099,0.97917,-0.18666,0.0,2023,6,7,15,40,49,332
43.20020,-0.15680,0.08085,0.00000,0.03245,0.97624,-0.18556,0.0,2023,6,7,15,40,49,342
43.20030,-0.12180,-0.00665,0.00000,0.03233,0.97698,-0.18800,0.0,2023,6,7,15,40,49,352
43.20040,0.10570,-0.09415,0.00000,0.03209,0.97722,-0.18654,0.0,2023,6,7,15,40,49,362
43.20050,-0.41930,0.20335,0.00000,0.03282,0.97539,-0.18715,0.0,2023,6,7,15,40,49,372
43.20060,-0.12180,-0.05915,0.00000,0.03026,0.97685,-0.18739,0.0,2023,6,7,15,40,49,382
43.20070,0.14070,-0.12915,0.00000,0.03050,0.97502,-0.18727,0.0,2023,6,7,15,40,49,392
43.20080,-0.31430,0.15085,0.00000,0.03099,0.97856,-0.18995,0.0,2023,6,7,15,40,49,402
43.20090,0.10570,0.11585,0.00000,0.03172,0.97917,-0.18751,0.0,2023,6,7,15,40,49,412
43.20100,0.17570,-0.18165,0.00000,0.03074,0.97393,-0.18666,0.0,2023,6,7,15,40,49,422
43.20110,-0.12180,0.06335,0.00000,0.03062,0.97600,-0.18703,0.0,2023,6,7,15,40,49,432
43.20120,0.12320,-0.11165,0.00000,0.03245,0.97746,-0.18886,0.0,2023,6,7,15,40,49,442
43.20130,-0.20930,-0.02415,0.00000,0.02977,0.97673,-0.18654,0.0,2023,6,7,15,40,49,452
43.20140,-0.13930,0.08085,0.00000,0.03196,0.97600,-0.18727,0.0,2023,6,7,15,40,49,462
43.20150,-0.01680,0.01085,0.00000,0.03343,0.97661,-0.18544,0.0,2023,6,7,15,40,49,472
43.20160,-0.29680,0.02835,0.00000,0.03416,0.97783,-0.18568,0.0,2023,6,7,15,40,49,482
43.20170,-0.17430,0.06335,0.00000,0.03099,0.97441,-0.19081,0.0,2023,6,7,15,40,49,492
43.20180,0.07070,-0.09415,0.00000,0.03257,0.97661,-0.18739,0.0,2023,6,7,15,40,49,502
43.20190,0.01820,-0.30415,0.00000,0.03074,0.97685,-0.18825,0.0,2023,6,7,15,40,49,512
43.20200,0.19320,-0.04165,0.00000,0.02965,0.97844,-0.18593,0.0,2023,6,7,15,40,49,522
43.20210,0.00070,0.09835,0.00000,0.03148,0.97868,-0.19044,0.0,2023,6,7,15,40,49,532
43.20220,-0.20930,0.08085,0.00000,0.03245,0.97502,-0.19008,0.0,2023,6,7,15,40,49,542
43.20230,0.00070,0.02835,0.00000,0.03050,0.97783,-0.18873,0.0,2023,6,7,15,40,50,552
43.20240,-0.15680,0.01085,0.00000,0.03111,0.97441,-0.18544,0.0,2023,6,7,15,40,50,562
43.20250,0.07070,0.01085,0.00000,0.03074,0.97746,-0.18825,0.0,2023,6,7,15,40,50,572
43.20260,-0.03430,-0.12915,0.00000,0.03062,0.97624,-0.18776,0.0,2023,6,7,15,40,50,582
43.20270,0.07070,0.01085,0.00000,0.03160,0.97527,-0.18934,0.0,2023,6,7,15,40,50,592
43.20280,-0.06930,0.20335,0.00000,0.03355,0.97734,-0.18934,0.0,2023,6,7,15,40,50,602
43.20290,-0.08680,0.04585,0.00000,0.03184,0.97685,-0.18837,0.0,2023,6,7,15,40,50,612
43.20300,-0.05180,-0.04165,0.00000,0.03209,0.97917,-0.18837,0.0,2023,6,7,15,40,50,622
43.20310,-0.05180,-0.00665,0.00000,0.03026,0.97685,-0.19032,0.0,2023,6,7,15,40,50,632
43.20320,-0.12180,0.15085,0.00000,0.03233,0.97612,-0.18861,0.0,2023,6,7,15,40,50,642
43.20330,-0.13930,-0.05915,0.00000,0.03050,0.97624,-0.18581,0.0,2023,6,7,15,40,50,652
43.20340,-0.06930,0.15085,0.00000,0.03172,0.97600,-0.18898,0.0,2023,6,7,15,40,50,662
43.20350,-0.15680,0.23835,0.00000,0.03221,0.97734,-0.18568,0.0,2023,6,7,15,40,50,672
43.20360,-0.01680,0.11585,0.00000,0.03001,0.97844,-0.18666,0.0,2023,6,7,15,40,50,682
43.20370,0.08820,0.13335,0.00000,0.03013,0.97539,-0.18703,0.0,2023,6,7,15,40,50,692
43.20380,-0.10430,0.04585,0.00000,0.03233,0.97600,-0.18678,0.0,2023,6,7,15,40,50,702
43.20390,-0.03430,0.02835,0.00000,0.03331,0.97759,-0.18715,0.0,2023,6,7,15,40,50,712
43.20400,-0.15680,-0.02415,0.00000,0.03221,0.97576,-0.18898,0.0,2023,6,7,15,40,50,722
43.20410,-0.13930,0.11585,0.00000,0.03062,0.97868,-0.18849,0.0,2023,6,7,15,40,50,732
43.20420,0.08820,-0.00665,0.00000,0.03001,0.97612,-0.18959,0.0,2023,6,7,15,40,50,742
43.20430,-0.03430,-0.07665,0.00000,0.03087,0.97673,-0.18715,0.0,2023,6,7,15,40,50,752
43.20440,-0.06930,0.01085,0.00000,0.03428,0.97710,-0.18873,0.0,2023,6,7,15,40,50,762
43.20450,-0.15680,0.01085,0.00000,0.03111,0.97307,-0.18837,0.0,2023,6,7,15,40,50,772
43.20460,-0.03430,-0.18165,0.00000,0.03209,0.97734,-0.18764,0.0,2023,6,7,15,40,50,782
43.20470,0.05320,-0.09415,0.00000,0.03038,0.97685,-0.18995,0.0,2023,6,7,15,40,50,792
43.20480,-0.15680,-0.09415,0.00000,0.03050,0.97478,-0.18910,0.0,2023,6,7,15,40,50,802
43.20490,-0.15680,0.15085,0.00000,0.03282,0.97844,-0.18947,0.0,2023,6,7,15,40,50,812
43.20500,-0.05180,0.09835,0.00000,0.03135,0.97807,-0.18910,0.0,2023,6,7,15,40,50,822
43.20510,-0.01680,-0.11165,0.00000,0.03392,0.97673,-0.18800,0.0,2023,6,7,15,40,50,832
43.20520,0.01820,-0.00665,0.00000,0.03099,0.97612,-0.18886,0.0,2023,6,7,15,40,50,842
43.20530,-0.13930,-0.14665,0.00000,0.03245,0.97771,-0.18922,0.0,2023,6,7,15,40,50,852
43.20540,0.08820,-0.04165,0.00000,0.03270,0.97441,-0.18727,0.0,2023,6,7,15,40,50,862
43.20550,-0.05180,0.27335,0.00000,0.03148,0.97710,-0.18959,0.0,2023,6,7,15,40,50,872
43.20560,-0.10430,0.16835,0.00000,0.03221,0.97429,-0.18556,0.0,2023,6,7,15,40,50,882
43.20570,-0.01680,0.18585,0.00000,0.03062,0.97454,-0.18861,0.0,2023,6,7,15,40,50,892
43.20580,0.10570,0.08085,0.00000,0.03111,0.97563,-0.18617,0.0,2023,6,7,15,40,50,902
43.20590,-0.06930,0.16835,0.00000,0.03318,0.97490,-0.18861,0.0,2023,6,7,15,40,50,912
43.20600,0.03570,-0.07665,0.00000,0.03209,0.97685,-0.18837,0.0,2023,6,7,15,40,50,922
43.20610,-0.08680,0.13335,0.00000,0.03074,0.97759,-0.18703,0.0,2023,6,7,15,40,50,932
43.20620,-0.15680,-0.11165,0.00000,0.03306,0.97478,-0.18873,0.0,2023,6,7,15,40,50,942
43.20630,0.05320,0.06335,0.00000,0.02977,0.97661,-0.18837,0.0,2023,6,7,15,40,50,952
43.20640,0.08820,-0.09415,0.00000,0.03160,0.97527,-0.18812,0.0,2023,6,7,15,40,50,962
43.20650,-0.05180,0.04585,0.00000,0.03282,0.97600,-0.18971,0.0,2023,6,7,15,40,50,972
43.20660,-0.06930,-0.05915,0.00000,0.03123,0.97795,-0.19081,0.0,2023,6,7,15,40,50,982
43.20670,-0.15680,0.02835,0.00000,0.03355,0.97771,-0.18593,0.0,2023,6,7,15,40,50,992
43.20680,-0.19180,0.30835,0.00000,0.03343,0.97478,-0.18776,0.0,2023,6,7,15,40,50,2
43.20690,-0.01680,0.02835,0.00000,0.02989,0.97771,-0.18690,0.0,2023,6,7,15,40,50,12
43.20700,-0.15680,0.02835,0.00000,0.03135,0.97783,-0.18910,0.0,2023,6,7,15,40,50,22
43.20710,-0.01680,0.13335,0.00000,0.03074,0.97795,-0.18873,0.0,2023,6,7,15,40,50,32
43.20720,-0.05180,-0.19915,0.00000,0.03184,0.97563,-0.18520,0.0,2023,6,7,15,40,50,42
43.20730,-0.01680,0.08085,0.00000,0.03038,0.97722,-0.18764,0.0,2023,6,7,15,40,50,52
43.20740,0.07070,0.15085,0.00000,0.03001,0.97673,-0.18654,0.0,2023,6,7,15,40,50,62
43.20750,-0.06930,-0.04165,0.00000,0.03050,0.97539,-0.18739,0.0,2023,6,7,15,40,50,72
43.20760,-0.05180,0.08085,0.00000,0.03404,0.97759,-0.18715,0.0,2023,6,7,15,40,50,82
43.20770,-0.10430,0.02835,0.00000,0.03123,0.97624,-0.18812,0.0,2023,6,7,15,40,50,92
43.20780,-0.20930,-0.02415,0.00000,0.03160,0.97551,-0.18861,0.0,2023,6,7,15,40,50,102
43.20790,0.05320,0.18585,0.00000,0.03245,0.97698,-0.18959,0.0,2023,6,7,15,40,50,112
43.20800,0.05320,0.01085,0.00000,0.03282,0.97563,-0.18739,0.0,2023,6,7,15,40,50,122
43.20810,-0.05180,0.08085,0.00000,0.03050,0.97746,-0.18727,0.0,2023,6,7,15,40,50,132
43.20820,-0.03430,-0.02415,0.00000,0.03184,0.97588,-0.18751,0.0,2023,6,7,15,40,50,142
43.20830,-0.12180,0.01085,0.00000,0.03343,0.97673,-0.18751,0.0,2023,6,7,15,40,50,152
43.20840,0.05320,0.09835,0.00000,0.03270,0.97539,-0.18776,0.0,2023,6,7,15,40,50,162
43.20850,0.05320,0.01085,0.00000,0.03245,0.97771,-0.18886,0.0,2023,6,7,15,40,50,172
43.20860,-0.05180,-0.11165,0.00000,0.03221,0.97563,-0.18873,0.0,2023,6,7,15,40,50,182
43.20870,0.03570,-0.12915,0.00000,0.03148,0.97441,-0.18764,0.0,2023,6,7,15,40,50,192
43.20880,-0.10430,-0.07665,0.00000,0.03160,0.97832,-0.18800,0.0,2023,6,7,15,40,50,202
43.20890,-0.05180,0.11585,0.00000,0.03282,0.97661,-0.18934,0.0,2023,6,7,15,40,50,212
43.20900,0.03570,-0.11165,0.00000,0.03501,0.97746,-0.18812,0.0,2023,6,7,15,40,50,222
43.20910,0.00070,-0.04165,0.00000,0.03233,0.97478,-0.18861,0.0,2023,6,7,15,40,50,232
43.20920,0.17570,-0.19915,0.00000,0.03184,0.97563,-0.18910,0.0,2023,6,7,15,40,50,242
43.20930,-0.31430,-0.04165,0.00000,0.03038,0.97966,-0.18947,0.0,2023,6,7,15,40,50,252
43.20940,0.07070,0.23835,0.00000,0.03038,0.97673,-0.18934,0.0,2023,6,7,15,40,50,262
43.20950,-0.12180,-0.05915,0.00000,0.03221,0.97551,-0.18837,0.0,2023,6,7,15,40,50,272
43.20960,0.05320,0.01085,0.00000,0.02989,0.97393,-0.18739,0.0,2023,6,7,15,40,50,282
43.20970,0.05320,0.01085,0.00000,0.03099,0.97722,-0.18837,0.0,2023,6,7,15,40,50,292
43.20980,0.08820,-0.00665,0.00000,0.03062,0.97868,-0.18910,0.0,2023,6,7,15,40,50,302
43.20990,0.10570,-0.07665,0.00000,0.03160,0.98051,-0.18898,0.0,2023,6,7,15,40,50,312
43.21000,-0.03430,0.11585,0.00000,0.03257,0.97820,-0.18715,0.0,2023,6,7,15,40,50,322
43.21010,-0.19180,0.01085,0.00000,0.03087,0.97807,-0.18642,0.0,2023,6,7,15,40,50,332
43.21020,0.21070,0.06335,0.00000,0.02952,0.97722,-0.18983,0.0,2023,6,7,15,40,50,342
43.21030,-0.10430,-0.04165,0.00000,0.03416,0.97771,-0.19056,0.0,2023,6,7,15,40,50,352
43.21040,-0.05180,0.02835,0.00000,0.03148,0.97783,-0.18971,0.0,2023,6,7,15,40,50,362
43.21050,0.19320,0.06335,0.00000,0.03282,0.97734,-0.18849,0.0,2023,6,7,15,40,50,372
43.21060,-0.15680,0.20335,0.00000,0.03367,0.97502,-0.18507,0.0,2023,6,7,15,40,50,382
43.21070,-0.08680,-0.11165,0.00000,0.03160,0.97698,-0.18739,0.0,2023,6,7,15,40,50,392
43.21080,0.03570,0.18585,0.00000,0.03111,0.97722,-0.18654,0.0,2023,6,7,15,40,50,402
43.21090,-0.13930,-0.05915,0.00000,0.03221,0.97905,-0.18861,0.0,2023,6,7,15,40,50,412
43.21100,0.14070,-0.04165,0.00000,0.03282,0.97881,-0.18849,0.0,2023,6,7,15,40,50,422
43.21110,-0.06930,0.22085,0.00000,0.03123,0.97588,-0.18666,0.0,2023,6,7,15,40,50,432
43.21120,-0.17430,0.06335,0.00000,0.03233,0.97600,-0.18922,0.0,2023,6,7,15,40,51,442
43.21130,-0.17430,0.02835,0.00000,0.03245,0.97637,-0.18581,0.0,2023,6,7,15,40,51,452
43.21140,-0.17430,-0.00665,0.00000,0.03111,0.97856,-0.18739,0.0,2023,6,7,15,40,51,462
43.21150,0.17570,0.01085,0.00000,0.02977,0.97588,-0.18788,0.0,2023,6,7,15,40,51,472
43.21160,-0.15680,0.13335,0.00000,0.03379,0.97685,-0.18629,0.0,2023,6,7,15,40,51,482
43.21170,-0.12180,-0.04165,0.00000,0.03306,0.97588,-0.18776,0.0,2023,6,7,15,40,51,492
43.21180,-0.03430,0.08085,0.00000,0.03270,0.97661,-0.18922,0.0,2023,6,7,15,40,51,502
43.21190,-0.01680,0.23835,0.00000,0.03160,0.97417,-0.18471,0.0,2023,6,7,15,40,51,512
43.21200,0.07070,0.04585,0.00000,0.02989,0.97649,-0.19117,0.0,2023,6,7,15,40,51,522
43.21210,0.00070,0.29085,0.00000,0.03013,0.97539,-0.18617,0.0,2023,6,7,15,40,51,532
43.21220,-0.08680,-0.00665,0.00000,0.03306,0.97905,-0.18764,0.0,2023,6,7,15,40,51,542
43.21230,0.07070,0.16835,0.00000,0.03172,0.97807,-0.18751,0.0,2023,6,7,15,40,51,552
43.21240,-0.05180,0.13335,0.00000,0.03099,0.97710,-0.18544,0.0,2023,6,7,15,40,51,562
43.21250,0.03570,-0.14665,0.00000,0.03050,0.97429,-0.19093,0.0,2023,6,7,15,40,51,572
43.21260,0.31570,0.04585,0.00000,0.03087,0.97515,-0.18751,0.0,2023,6,7,15,40,51,582
43.21270,-0.29680,0.02835,0.00000,0.03062,0.97881,-0.18715,0.0,2023,6,7,15,40,51,592
43.21280,-0.06930,0.11585,0.00000,0.03099,0.97588,-0.19191,0.0,2023,6,7,15,40,51,602
43.21290,0.10570,0.20335,0.00000,0.03074,0.97734,-0.18703,0.0,2023,6,7,15,40,51,612
43.21300,-0.05180,0.11585,0.00000,0.03221,0.97637,-0.18690,0.0,2023,6,7,15,40,51,622
43.21310,0.22820,-0.14665,0.00000,0.02989,0.97734,-0.18873,0.0,2023,6,7,15,40,51,632
43.21320,-0.36680,-0.00665,0.00000,0.03209,0.97734,-0.18751,0.0,2023,6,7,15,40,51,642
43.21330,-0.27930,-0.09415,0.00000,0.03001,0.97661,-0.19020,0.0,2023,6,7,15,40,51,652
43.21340,0.15820,-0.09415,0.00000,0.03160,0.97990,-0.18898,0.0,2023,6,7,15,40,51,662
43.21350,-0.20930,-0.04165,0.00000,0.03196,0.97771,-0.18715,0.0,2023,6,7,15,40,51,672
43.21360,0.05320,0.02835,0.00000,0.02977,0.97527,-0.19081,0.0,2023,6,7,15,40,51,682
43.21370,0.08820,0.06335,0.00000,0.03013,0.97820,-0.18800,0.0,2023,6,7,15,40,51,692
43.21380,-0.17430,0.13335,0.00000,0.03087,0.97515,-0.18812,0.0,2023,6,7,15,40,51,702
43.21390,0.00070,0.13335,0.00000,0.03087,0.97698,-0.18764,0.0,2023,6,7,15,40,51,712
43.21400,-0.13930,0.15085,0.00000,0.03160,0.97685,-0.18971,0.0,2023,6,7,15,40,51,722
43.21410,-0.01680,0.16835,0.00000,0.03111,0.97600,-0.18849,0.0,2023,6,7,15,40,51,732
43.21420,0.15820,0.01085,0.00000,0.03172,0.97624,-0.18898,0.0,2023,6,7,15,40,51,742
43.21430,-0.19180,-0.00665,0.00000,0.03331,0.97490,-0.18934,0.0,2023,6,7,15,40,51,752
43.21440,-0.08680,0.08085,0.00000,0.03087,0.97637,-0.18971,0.0,2023,6,7,15,40,51,762
43.21450,0.12320,-0.04165,0.00000,0.02843,0.97527,-0.19056,0.0,2023,6,7,15,40,51,772
43.21460,0.15820,-0.18165,0.00000,0.03233,0.97551,-0.18959,0.0,2023,6,7,15,40,51,782
43.21470,-0.06930,-0.04165,0.00000,0.03074,0.97661,-0.18922,0.0,2023,6,7,15,40,51,792
43.21480,-0.15680,-0.05915,0.00000,0.03099,0.97759,-0.18837,0.0,2023,6,7,15,40,51,802
43.21490,-0.03430,-0.00665,0.00000,0.03099,0.97759,-0.18666,0.0,2023,6,7,15,40,51,812
43.21500,-0.05180,-0.09415,0.00000,0.03087,0.97588,-0.18959,0.0,2023,6,7,15,40,51,822
43.21510,0.10570,0.13335,0.00000,0.03270,0.97466,-0.18764,0.0,2023,6,7,15,40,51,832
43.21520,-0.08680,0.01085,0.00000,0.02904,0.97624,-0.18715,0.0,2023,6,7,15,40,51,842
43.21530,-0.17430,0.04585,0.00000,0.03270,0.97746,-0.19093,0.0,2023,6,7,15,40,51,852
43.21540,0.05320,-0.00665,0.00000,0.03013,0.97832,-0.19117,0.0,2023,6,7,15,40,51,862
43.21550,-0.03430,-0.00665,0.00000,0.03123,0.97673,-0.18825,0.0,2023,6,7,15,40,51,872
43.21560,0.14070,-0.07665,0.00000,0.03111,0.97563,-0.19142,0.0,2023,6,7,15,40,51,882
43.21570,0.01820,-0.02415,0.00000,0.03001,0.97795,-0.18910,0.0,2023,6,7,15,40,51,892
43.21580,-0.08680,0.06335,0.00000,0.03135,0.97673,-0.18800,0.0,2023,6,7,15,40,51,902
43.21590,-0.29680,0.01085,0.00000,0.02867,0.97698,-0.19105,0.0,2023,6,7,15,40,51,912
43.21600,0.22820,-0.05915,0.00000,0.03074,0.97722,-0.18849,0.0,2023,6,7,15,40,51,922
43.21610,-0.29680,0.15085,0.00000,0.03123,0.97563,-0.18886,0.0,2023,6,7,15,40,51,932
43.21620,0.00070,-0.04165,0.00000,0.03026,0.97722,-0.19154,0.0,2023,6,7,15,40,51,942
43.21630,-0.05180,-0.05915,0.00000,0.03477,0.97539,-0.18751,0.0,2023,6,7,15,40,51,952
43.21640,-0.45430,-0.11165,0.00000,0.02928,0.97612,-0.18861,0.0,2023,6,7,15,40,51,962
43.21650,0.07070,-0.02415,0.00000,0.03221,0.97771,-0.19130,0.0,2023,6,7,15,40,51,972
43.21660,-0.06930,0.09835,0.00000,0.03099,0.97466,-0.18642,0.0,2023,6,7,15,40,51,982
43.21670,-0.24430,0.01085,0.00000,0.02952,0.97795,-0.19154,0.0,2023,6,7,15,40,51,992
43.21680,0.28070,-0.12915,0.00000,0.03160,0.97454,-0.19154,0.0,2023,6,7,15,40,51,2
43.21690,-0.05180,-0.21665,0.00000,0.03416,0.97722,-0.18471,0.0,2023,6,7,15,40,51,12
43.21700,0.03570,0.02835,0.00000,0.03135,0.97771,-0.19276,0.0,2023,6,7,15,40,51,22
43.21710,0.33320,-0.11165,0.00000,0.03318,0.97624,-0.19056,0.0,2023,6,7,15,40,51,32
43.21720,-0.45430,0.11585,0.00000,0.02879,0.97807,-0.18825,0.0,2023,6,7,15,40,51,42
43.21730,0.14070,-0.14665,0.00000,0.03270,0.97722,-0.19130,0.0,2023,6,7,15,40,51,52
43.21740,-0.06930,-0.00665,0.00000,0.03050,0.97576,-0.18666,0.0,2023,6,7,15,40,51,62
43.21750,-0.29680,0.04585,0.00000,0.03135,0.97710,-0.19105,0.0,2023,6,7,15,40,51,72
43.21760,0.07070,0.06335,0.00000,0.02977,0.97746,-0.18934,0.0,2023,6,7,15,40,51,82
43.21770,-0.27930,-0.02415,0.00000,0.03148,0.97844,-0.18800,0.0,2023,6,7,15,40,51,92
43.21780,0.19320,-0.12915,0.00000,0.03001,0.97576,-0.18983,0.0,2023,6,7,15,40,51,102
43.21790,0.05320,-0.02415,0.00000,0.03270,0.97673,-0.18544,0.0,2023,6,7,15,40,51,112
43.21800,-0.36680,0.01085,0.00000,0.03343,0.97539,-0.18593,0.0,2023,6,7,15,40,51,122
43.21810,-0.13930,-0.05915,0.00000,0.03099,0.97771,-0.18666,0.0,2023,6,7,15,40,51,132
43.21820,0.05320,0.04585,0.00000,0.03282,0.97515,-0.18678,0.0,2023,6,7,15,40,51,142
43.21830,-0.17430,0.02835,0.00000,0.03270,0.97844,-0.18898,0.0,2023,6,7,15,40,51,152
43.21840,-0.20930,0.06335,0.00000,0.03013,0.97624,-0.18666,0.0,2023,6,7,15,40,51,162
43.21850,0.08820,0.13335,0.00000,0.03294,0.97698,-0.19191,0.0,2023,6,7,15,40,51,172
43.21860,0.26320,-0.00665,0.00000,0.03196,0.97405,-0.18922,0.0,2023,6,7,15,40,51,182
43.21870,-0.34930,-0.07665,0.00000,0.03087,0.97832,-0.18751,0.0,2023,6,7,15,40,51,192
43.21880,0.12320,0.20335,0.00000,0.03135,0.97795,-0.19178,0.0,2023,6,7,15,40,51,202
43.21890,-0.10430,0.01085,0.00000,0.03221,0.97478,-0.18495,0.0,2023,6,7,15,40,51,212
43.21900,-0.48930,-0.04165,0.00000,0.03172,0.97600,-0.18629,0.0,2023,6,7,15,40,51,222
#2023/06/07 15:40:51
