#2023/06/07 14:35:16
time,wx,wy,wz,ax,ay,az,yy,MM,dd,hh,mm,ss,ms
40.57390,-0.03640,-0.22015,0.00000,0.02989,0.97405,-0.19081,0.0,2023,6,7,14,35,17,248
40.57400,0.22610,0.11235,0.00000,0.03038,0.97722,-0.19154,0.0,2023,6,7,14,35,17,258
40.57410,-0.28140,-0.02765,0.00000,0.03184,0.97563,-0.18788,0.0,2023,6,7,14,35,17,268
40.57420,-0.28140,0.14735,0.00000,0.03135,0.97905,-0.19069,0.0,2023,6,7,14,35,17,278
40.57430,0.12110,-0.16765,0.00000,0.03160,0.97673,-0.19325,0.0,2023,6,7,14,35,17,288
40.57440,-0.19390,0.14735,0.00000,0.03392,0.97380,-0.18654,0.0,2023,6,7,14,35,17,298
40.57450,-0.00140,-0.06265,0.00000,0.03453,0.97551,-0.19276,0.0,2023,6,7,14,35,17,308
40.57460,0.31360,-0.09765,0.00000,0.02965,0.97673,-0.19105,0.0,2023,6,7,14,35,17,318
40.57470,-0.22890,0.09485,0.00000,0.03001,0.97600,-0.18715,0.0,2023,6,7,14,35,17,328
40.57480,0.05110,-0.11515,0.00000,0.03050,0.97344,-0.19154,0.0,2023,6,7,14,35,17,338
40.57490,0.01610,0.11235,0.00000,0.03013,0.97771,-0.19056,0.0,2023,6,7,14,35,17,348
40.57500,-0.07140,0.05985,0.00000,0.03209,0.97685,-0.19020,0.0,2023,6,7,14,35,17,358
40.57510,0.10360,-0.09765,0.00000,0.03306,0.97649,-0.19178,0.0,2023,6,7,14,35,17,368
40.57520,-0.10640,0.02485,0.00000,0.03343,0.97673,-0.18690,0.0,2023,6,7,14,35,17,378
40.57530,-0.17640,-0.04515,0.00000,0.03355,0.97661,-0.19044,0.0,2023,6,7,14,35,17,388
40.57540,0.05110,0.00735,0.00000,0.02928,0.97515,-0.19227,0.0,2023,6,7,14,35,17,398
40.57550,-0.12390,-0.23765,0.00000,0.03135,0.97685,-0.18715,0.0,2023,6,7,14,35,17,408
40.57560,0.06860,0.00735,0.00000,0.03148,0.97868,-0.19093,0.0,2023,6,7,14,35,17,418
40.57570,0.34860,-0.08015,0.00000,0.03111,0.97417,-0.19325,0.0,2023,6,7,14,35,17,428
40.57580,-0.08890,-0.08015,0.00000,0.03245,0.97527,-0.18971,0.0,2023,6,7,14,35,17,438
40.57590,0.06860,-0.02765,0.00000,0.03148,0.97942,-0.19178,0.0,2023,6,7,14,35,17,448
40.57600,0.08610,0.11235,0.00000,0.03270,0.97576,-0.18959,0.0,2023,6,7,14,35,17,458
40.57610,-0.26390,0.12985,0.00000,0.03087,0.97551,-0.18886,0.0,2023,6,7,14,35,17,468
40.57620,0.08610,0.02485,0.00000,0.03331,0.97588,-0.19154,0.0,2023,6,7,14,35,17,478
40.57630,0.33110,0.02485,0.00000,0.03062,0.97307,-0.18873,0.0,2023,6,7,14,35,17,488
40.57640,-0.31640,0.11235,0.00000,0.02952,0.97844,-0.19032,0.0,2023,6,7,14,35,17,498
40.57650,0.29610,0.07735,0.00000,0.02904,0.97649,-0.19386,0.0,2023,6,7,14,35,17,508
40.57660,0.10360,-0.02765,0.00000,0.03367,0.97600,-0.18751,0.0,2023,6,7,14,35,17,518
40.57670,-0.08890,0.16485,0.00000,0.02928,0.97624,-0.18837,0.0,2023,6,7,14,35,17,528
40.57680,0.36610,0.05985,0.00000,0.03233,0.97820,-0.19117,0.0,2023,6,7,14,35,17,538
40.57690,-0.14140,-0.02765,0.00000,0.03209,0.97576,-0.18800,0.0,2023,6,7,14,35,17,548
40.57700,-0.17640,-0.13265,0.00000,0.03233,0.97576,-0.18947,0.0,2023,6,7,14,35,17,558
40.57710,0.31360,0.11235,0.00000,0.03318,0.97600,-0.18764,0.0,2023,6,7,14,35,17,568
40.57720,-0.14140,0.14735,0.00000,0.03087,0.97759,-0.18788,0.0,2023,6,7,14,35,17,578
40.57730,0.01610,-0.11515,0.00000,0.03196,0.97637,-0.19069,0.0,2023,6,7,14,35,17,588
40.57740,0.24360,0.09485,0.00000,0.03209,0.97527,-0.19093,0.0,2023,6,7,14,35,17,598
40.57750,-0.12390,0.09485,0.00000,0.03111,0.97734,-0.19081,0.0,2023,6,7,14,35,17,608
40.57760,0.01610,0.05985,0.00000,0.03135,0.97478,-0.19178,0.0,2023,6,7,14,35,17,618
40.57770,-0.03640,0.05985,0.00000,0.03172,0.97551,-0.18861,0.0,2023,6,7,14,35,17,628
40.57780,-0.05390,0.00735,0.00000,0.03209,0.97368,-0.18727,0.0,2023,6,7,14,35,17,638
40.57790,0.15610,-0.09765,0.00000,0.03099,0.97661,-0.19142,0.0,2023,6,7,14,35,17,648
40.57800,0.19110,-0.13265,0.00000,0.03111,0.97490,-0.19215,0.0,2023,6,7,14,35,17,658
40.57810,-0.03640,-0.02765,0.00000,0.02989,0.97515,-0.18971,0.0,2023,6,7,14,35,17,668
40.57820,0.08610,-0.09765,0.00000,0.03074,0.97478,-0.19044,0.0,2023,6,7,14,35,17,678
40.57830,-0.12390,0.25235,0.00000,0.03282,0.97588,-0.18776,0.0,2023,6,7,14,35,17,688
40.57840,-0.08890,0.16485,0.00000,0.03148,0.97393,-0.18849,0.0,2023,6,7,14,35,17,698
40.57850,0.12110,0.04235,0.00000,0.03050,0.97710,-0.18983,0.0,2023,6,7,14,35,17,708
40.57860,0.24360,-0.09765,0.00000,0.03135,0.97637,-0.19056,0.0,2023,6,7,14,35,17,718
40.57870,-0.15890,0.09485,0.00000,0.03013,0.97771,-0.19191,0.0,2023,6,7,14,35,17,728
40.57880,0.17360,-0.13265,0.00000,0.03123,0.97637,-0.19032,0.0,2023,6,7,14,35,17,738
40.57890,-0.07140,0.19985,0.00000,0.03245,0.97527,-0.18898,0.0,2023,6,7,14,35,17,748
40.57900,0.03360,-0.02765,0.00000,0.03184,0.97734,-0.19020,0.0,2023,6,7,14,35,17,758
40.57910,0.12110,-0.02765,0.00000,0.03111,0.97551,-0.18910,0.0,2023,6,7,14,35,17,768
40.57920,0.12110,-0.06265,0.00000,0.02989,0.97685,-0.18727,0.0,2023,6,7,14,35,17,778
40.57930,0.20860,0.11235,0.00000,0.03074,0.97637,-0.18739,0.0,2023,6,7,14,35,17,788
40.57940,-0.01890,-0.09765,0.00000,0.03099,0.97722,-0.18800,0.0,2023,6,7,14,35,17,798
40.57950,0.20860,-0.13265,0.00000,0.03245,0.97624,-0.18910,0.0,2023,6,7,14,35,17,808
40.57960,0.15610,-0.09765,0.00000,0.03245,0.97612,-0.19008,0.0,2023,6,7,14,35,17,818
40.57970,0.12110,0.07735,0.00000,0.03074,0.97893,-0.18837,0.0,2023,6,7,14,35,17,828
40.57980,-0.05390,0.05985,0.00000,0.02928,0.97490,-0.18959,0.0,2023,6,7,14,35,17,838
40.57990,-0.05390,0.05985,0.00000,0.03038,0.97722,-0.18849,0.0,2023,6,7,14,35,17,848
40.58000,0.22610,-0.02765,0.00000,0.03270,0.97454,-0.19093,0.0,2023,6,7,14,35,17,858
40.58010,-0.08890,-0.08015,0.00000,0.03184,0.97929,-0.18873,0.0,2023,6,7,14,35,17,868
40.58020,-0.19390,0.02485,0.00000,0.03087,0.97685,-0.19044,0.0,2023,6,7,14,35,17,878
40.58030,0.15610,-0.20265,0.00000,0.03160,0.97710,-0.19081,0.0,2023,6,7,14,35,17,888
40.58040,-0.03640,-0.04515,0.00000,0.03111,0.97807,-0.18934,0.0,2023,6,7,14,35,17,898
40.58050,-0.12390,0.11235,0.00000,0.03245,0.97624,-0.18886,0.0,2023,6,7,14,35,17,908
40.58060,-0.03640,0.11235,0.00000,0.02989,0.97576,-0.19117,0.0,2023,6,7,14,35,17,918
40.58070,-0.29890,0.11235,0.00000,0.03148,0.97710,-0.18947,0.0,2023,6,7,14,35,17,928
40.58080,-0.17640,-0.08015,0.00000,0.03184,0.97795,-0.19093,0.0,2023,6,7,14,35,17,938
40.58090,0.12110,0.14735,0.00000,0.03087,0.97588,-0.18825,0.0,2023,6,7,14,35,17,948
40.58100,-0.00140,0.00735,0.00000,0.03209,0.97637,-0.19142,0.0,2023,6,7,14,35,17,958
40.58110,-0.00140,-0.02765,0.00000,0.03172,0.97820,-0.19130,0.0,2023,6,7,14,35,17,968
40.58120,-0.14140,0.16485,0.00000,0.03001,0.97478,-0.18873,0.0,2023,6,7,14,35,17,978
40.58130,-0.15890,-0.01015,0.00000,0.03160,0.97624,-0.19178,0.0,2023,6,7,14,35,17,988
40.58140,-0.00140,0.02485,0.00000,0.03465,0.97661,-0.18934,0.0,2023,6,7,14,35,17,998
40.58150,0.17360,-0.13265,0.00000,0.03367,0.97783,-0.18934,0.0,2023,6,7,14,35,17,8
40.58160,0.01610,-0.32515,0.00000,0.03172,0.97649,-0.18995,0.0,2023,6,7,14,35,17,18
40.58170,-0.14140,-0.04515,0.00000,0.03282,0.97612,-0.18947,0.0,2023,6,7,14,35,17,28
40.58180,0.08610,0.00735,0.00000,0.03135,0.97832,-0.19044,0.0,2023,6,7,14,35,17,38
40.58190,0.12110,-0.20265,0.00000,0.03123,0.97283,-0.19154,0.0,2023,6,7,14,35,17,48
40.58200,-0.08890,-0.29015,0.00000,0.03294,0.97722,-0.18898,0.0,2023,6,7,14,35,17,58
40.58210,0.22610,-0.01015,0.00000,0.03013,0.97746,-0.19154,0.0,2023,6,7,14,35,17,68
40.58220,-0.15890,0.23485,0.00000,0.03148,0.97856,-0.18617,0.0,2023,6,7,14,35,17,78
40.58230,0.13860,-0.06265,0.00000,0.03172,0.97698,-0.19130,0.0,2023,6,7,14,35,17,88
40.58240,0.54110,-0.02765,0.00000,0.03318,0.97722,-0.19264,0.0,2023,6,7,14,35,18,98
40.58250,-0.33390,0.09485,0.00000,0.03331,0.97624,-0.18544,0.0,2023,6,7,14,35,18,108
40.58260,-0.19390,0.05985,0.00000,0.03038,0.97783,-0.19117,0.0,2023,6,7,14,35,18,118
40.58270,0.33110,0.19985,0.00000,0.03392,0.97734,-0.19020,0.0,2023,6,7,14,35,18,128
40.58280,-0.29890,-0.02765,0.00000,0.03160,0.97685,-0.18727,0.0,2023,6,7,14,35,18,138
40.58290,0.06860,-0.06265,0.00000,0.03062,0.97502,-0.19203,0.0,2023,6,7,14,35,18,148
40.58300,0.03360,-0.04515,0.00000,0.03257,0.97551,-0.18581,0.0,2023,6,7,14,35,18,158
40.58310,-0.57890,0.02485,0.00000,0.03221,0.97539,-0.18800,0.0,2023,6,7,14,35,18,168
40.58320,0.38360,0.12985,0.00000,0.03306,0.97588,-0.19154,0.0,2023,6,7,14,35,18,178
40.58330,-0.00140,0.07735,0.00000,0.03331,0.97576,-0.18849,0.0,2023,6,7,14,35,18,188
40.58340,-0.40390,-0.04515,0.00000,0.03172,0.97795,-0.19032,0.0,2023,6,7,14,35,18,198
40.58350,0.26110,-0.02765,0.00000,0.03343,0.97490,-0.19117,0.0,2023,6,7,14,35,18,208
40.58360,-0.14140,-0.15015,0.00000,0.03074,0.97698,-0.18629,0.0,2023,6,7,14,35,18,218
40.58370,-0.29890,0.18235,0.00000,0.03270,0.97820,-0.19020,0.0,2023,6,7,14,35,18,228
40.58380,0.33110,0.05985,0.00000,0.03135,0.98161,-0.19130,0.0,2023,6,7,14,35,18,238
40.58390,-0.31640,0.04235,0.00000,0.03148,0.97942,-0.18715,0.0,2023,6,7,14,35,18,248
40.58400,0.38360,-0.08015,0.00000,0.02965,0.97307,-0.18861,0.0,2023,6,7,14,35,18,258
40.58410,0.38360,0.02485,0.00000,0.03013,0.97515,-0.19056,0.0,2023,6,7,14,35,18,268
40.58420,-0.17640,-0.04515,0.00000,0.03135,0.97673,-0.18703,0.0,2023,6,7,14,35,18,278
40.58430,0.27860,-0.11515,0.00000,0.03160,0.97612,-0.19288,0.0,2023,6,7,14,35,18,288
40.58440,0.29610,-0.11515,0.00000,0.03148,0.97771,-0.18873,0.0,2023,6,7,14,35,18,298
40.58450,-0.14140,-0.01015,0.00000,0.03294,0.97661,-0.18751,0.0,2023,6,7,14,35,18,308
40.58460,0.22610,-0.01015,0.00000,0.03148,0.97710,-0.18971,0.0,2023,6,7,14,35,18,318
40.58470,0.13860,-0.04515,0.00000,0.03233,0.97722,-0.18898,0.0,2023,6,7,14,35,18,328
40.58480,-0.26390,0.02485,0.00000,0.03257,0.97466,-0.18776,0.0,2023,6,7,14,35,18,338
40.58490,-0.01890,0.12985,0.00000,0.03123,0.97722,-0.19093,0.0,2023,6,7,14,35,18,348
40.58500,0.10360,0.04235,0.00000,0.03245,0.97624,-0.18788,0.0,2023,6,7,14,35,18,358
40.58510,-0.10640,-0.04515,0.00000,0.03282,0.97612,-0.18898,0.0,2023,6,7,14,35,18,368
40.58520,-0.07140,-0.08015,0.00000,0.03123,0.97527,-0.18861,0.0,2023,6,7,14,35,18,378
40.58530,-0.08890,0.11235,0.00000,0.03318,0.97576,-0.18715,0.0,2023,6,7,14,35,18,388
40.58540,-0.21140,0.07735,0.00000,0.03172,0.97405,-0.19117,0.0,2023,6,7,14,35,18,398
40.58550,-0.03640,0.05985,0.00000,0.03013,0.97710,-0.18983,0.0,2023,6,7,14,35,18,408
40.58560,0.05110,-0.08015,0.00000,0.03233,0.97515,-0.18995,0.0,2023,6,7,14,35,18,418
40.58570,-0.08890,-0.18515,0.00000,0.03233,0.97490,-0.18959,0.0,2023,6,7,14,35,18,428
40.58580,0.13860,-0.23765,0.00000,0.03306,0.97490,-0.19203,0.0,2023,6,7,14,35,18,438
40.58590,0.08610,0.00735,0.00000,0.03135,0.97576,-0.18812,0.0,2023,6,7,14,35,18,448
40.58600,-0.10640,0.02485,0.00000,0.03111,0.97576,-0.19008,0.0,2023,6,7,14,35,18,458
40.58610,-0.08890,-0.08015,0.00000,0.02940,0.97795,-0.18922,0.0,2023,6,7,14,35,18,468
40.58620,-0.03640,0.05985,0.00000,0.03233,0.97649,-0.18922,0.0,2023,6,7,14,35,18,478
40.58630,-0.22890,0.11235,0.00000,0.03294,0.97868,-0.18995,0.0,2023,6,7,14,35,18,488
40.58640,0.10360,0.19985,0.00000,0.03087,0.97698,-0.18764,0.0,2023,6,7,14,35,18,498
40.58650,-0.03640,-0.13265,0.00000,0.03111,0.97490,-0.18788,0.0,2023,6,7,14,35,18,508
40.58660,0.05110,0.07735,0.00000,0.03282,0.97685,-0.19020,0.0,2023,6,7,14,35,18,518
40.58670,0.20860,-0.01015,0.00000,0.03282,0.97649,-0.18898,0.0,2023,6,7,14,35,18,528
40.58680,-0.26390,0.02485,0.00000,0.03184,0.97600,-0.18690,0.0,2023,6,7,14,35,18,538
40.58690,-0.14140,-0.08015,0.00000,0.03160,0.97722,-0.19008,0.0,2023,6,7,14,35,18,548
40.58700,0.17360,0.00735,0.00000,0.03257,0.97515,-0.18886,0.0,2023,6,7,14,35,18,558
40.58710,-0.26390,0.04235,0.00000,0.03099,0.97698,-0.18617,0.0,2023,6,7,14,35,18,568
40.58720,0.05110,-0.20265,0.00000,0.03148,0.97539,-0.19227,0.0,2023,6,7,14,35,18,578
40.58730,0.01610,-0.01015,0.00000,0.03209,0.97478,-0.18642,0.0,2023,6,7,14,35,18,588
40.58740,-0.22890,0.04235,0.00000,0.03184,0.97612,-0.18654,0.0,2023,6,7,14,35,18,598
40.58750,0.05110,0.21735,0.00000,0.03026,0.97649,-0.19166,0.0,2023,6,7,14,35,18,608
40.58760,-0.01890,-0.06265,0.00000,0.03233,0.97551,-0.18825,0.0,2023,6,7,14,35,18,618
40.58770,-0.08890,0.00735,0.00000,0.03160,0.97722,-0.18922,0.0,2023,6,7,14,35,18,628
40.58780,0.05110,-0.11515,0.00000,0.02977,0.97661,-0.18971,0.0,2023,6,7,14,35,18,638
40.58790,-0.14140,0.37485,0.00000,0.03160,0.97710,-0.18788,0.0,2023,6,7,14,35,18,648
40.58800,0.06860,0.09485,0.00000,0.03148,0.97771,-0.18995,0.0,2023,6,7,14,35,18,658
40.58810,-0.03640,0.16485,0.00000,0.02965,0.97722,-0.18898,0.0,2023,6,7,14,35,18,668
40.58820,-0.31640,0.07735,0.00000,0.03294,0.97649,-0.18837,0.0,2023,6,7,14,35,18,678
40.58830,0.24360,-0.16765,0.00000,0.03050,0.97893,-0.18837,0.0,2023,6,7,14,35,18,688
40.58840,0.10360,0.04235,0.00000,0.03123,0.97734,-0.18873,0.0,2023,6,7,14,35,18,698
40.58850,-0.17640,0.04235,0.00000,0.03331,0.97661,-0.18751,0.0,2023,6,7,14,35,18,708
40.58860,0.10360,0.07735,0.00000,0.03270,0.97942,-0.18947,0.0,2023,6,7,14,35,18,718
40.58870,-0.01890,-0.02765,0.00000,0.03148,0.97490,-0.18751,0.0,2023,6,7,14,35,18,728
40.58880,-0.10640,-0.08015,0.00000,0.03074,0.97759,-0.18764,0.0,2023,6,7,14,35,18,738
40.58890,0.24360,0.00735,0.00000,0.03050,0.97783,-0.19252,0.0,2023,6,7,14,35,18,748
40.58900,-0.26390,0.11235,0.00000,0.03282,0.97722,-0.18642,0.0,2023,6,7,14,35,18,758
40.58910,-0.05390,-0.01015,0.00000,0.03111,0.97649,-0.19093,0.0,2023,6,7,14,35,18,768
40.58920,0.24360,0.05985,0.00000,0.03160,0.97563,-0.18971,0.0,2023,6,7,14,35,18,778
40.58930,-0.19390,0.02485,0.00000,0.03233,0.97539,-0.18520,0.0,2023,6,7,14,35,18,788
40.58940,-0.01890,0.11235,0.00000,0.03196,0.97710,-0.19215,0.0,2023,6,7,14,35,18,798
40.58950,0.22610,-0.01015,0.00000,0.03087,0.97588,-0.18666,0.0,2023,6,7,14,35,18,808
40.58960,-0.31640,0.09485,0.00000,0.03135,0.97563,-0.18849,0.0,2023,6,7,14,35,18,818
40.58970,0.33110,-0.09765,0.00000,0.03355,0.97612,-0.19008,0.0,2023,6,7,14,35,18,828
40.58980,0.06860,0.00735,0.00000,0.03196,0.97380,-0.18788,0.0,2023,6,7,14,35,18,838
40.58990,-0.35140,0.07735,0.00000,0.03160,0.97698,-0.18788,0.0,2023,6,7,14,35,18,848
40.59000,0.43610,-0.15015,0.00000,0.03233,0.97429,-0.18666,0.0,2023,6,7,14,35,18,858
40.59010,-0.33390,-0.20265,0.00000,0.03416,0.97515,-0.18544,0.0,2023,6,7,14,35,18,868
40.59020,-0.29890,-0.08015,0.00000,0.02830,0.97734,-0.19166,0.0,2023,6,7,14,35,18,878
40.59030,0.13860,0.04235,0.00000,0.03135,0.97576,-0.18825,0.0,2023,6,7,14,35,18,888
40.59040,-0.31640,-0.09765,0.00000,0.03087,0.97698,-0.18544,0.0,2023,6,7,14,35,18,898
40.59050,0.17360,-0.15015,0.00000,0.03294,0.97783,-0.19020,0.0,2023,6,7,14,35,18,908
40.59060,0.13860,-0.04515,0.00000,0.03440,0.97551,-0.18495,0.0,2023,6,7,14,35,18,918
40.59070,-0.21140,-0.04515,0.00000,0.03050,0.97600,-0.18764,0.0,2023,6,7,14,35,18,928
40.59080,0.12110,-0.01015,0.00000,0.03074,0.97746,-0.19203,0.0,2023,6,7,14,35,18,938
40.59090,-0.15890,-0.02765,0.00000,0.03257,0.97563,-0.18751,0.0,2023,6,7,14,35,18,948
40.59100,-0.17640,0.21735,0.00000,0.03294,0.97502,-0.18910,0.0,2023,6,7,14,35,18,958
40.59110,0.34860,-0.02765,0.00000,0.03038,0.97673,-0.19056,0.0,2023,6,7,14,35,18,968
40.59120,-0.12390,0.19985,0.00000,0.03282,0.97429,-0.18629,0.0,2023,6,7,14,35,19,978
40.59130,0.05110,0.19985,0.00000,0.03013,0.97649,-0.19239,0.0,2023,6,7,14,35,19,988
40.59140,0.20860,-0.09765,0.00000,0.03123,0.97551,-0.19069,0.0,2023,6,7,14,35,19,998
40.59150,-0.19390,-0.04515,0.00000,0.03184,0.97649,-0.18849,0.0,2023,6,7,14,35,19,8
40.59160,0.12110,0.11235,0.00000,0.03026,0.97710,-0.19008,0.0,2023,6,7,14,35,19,18
40.59170,-0.03640,-0.02765,0.00000,0.03270,0.97722,-0.18922,0.0,2023,6,7,14,35,19,28
40.59180,-0.15890,0.16485,0.00000,0.03270,0.97332,-0.18947,0.0,2023,6,7,14,35,19,38
40.59190,-0.03640,0.11235,0.00000,0.03148,0.97698,-0.19020,0.0,2023,6,7,14,35,19,48
40.59200,0.10360,-0.16765,0.00000,0.03257,0.97515,-0.18886,0.0,2023,6,7,14,35,19,58
40.59210,-0.05390,0.14735,0.00000,0.03148,0.97673,-0.18934,0.0,2023,6,7,14,35,19,68
40.59220,0.15610,-0.04515,0.00000,0.03111,0.97612,-0.18873,0.0,2023,6,7,14,35,19,78
40.59230,0.06860,-0.06265,0.00000,0.03026,0.97405,-0.18837,0.0,2023,6,7,14,35,19,88
40.59240,-0.07140,0.12985,0.00000,0.03099,0.97380,-0.18873,0.0,2023,6,7,14,35,19,98
40.59250,-0.03640,0.18235,0.00000,0.03270,0.97600,-0.18983,0.0,2023,6,7,14,35,19,108
40.59260,-0.07140,0.00735,0.00000,0.03160,0.97405,-0.19130,0.0,2023,6,7,14,35,19,118
40.59270,0.10360,0.04235,0.00000,0.03148,0.97661,-0.18751,0.0,2023,6,7,14,35,19,128
40.59280,-0.00140,-0.04515,0.00000,0.03233,0.97612,-0.19069,0.0,2023,6,7,14,35,19,138
40.59290,-0.10640,0.14735,0.00000,0.03294,0.97551,-0.18825,0.0,2023,6,7,14,35,19,148
40.59300,-0.12390,0.11235,0.00000,0.02977,0.97820,-0.18971,0.0,2023,6,7,14,35,19,158
40.59310,0.17360,0.21735,0.00000,0.03209,0.97832,-0.19032,0.0,2023,6,7,14,35,19,168
40.59320,-0.15890,0.00735,0.00000,0.03135,0.97759,-0.18751,0.0,2023,6,7,14,35,19,178
40.59330,-0.01890,-0.01015,0.00000,0.03111,0.97649,-0.18983,0.0,2023,6,7,14,35,19,188
40.59340,0.06860,-0.01015,0.00000,0.02965,0.97734,-0.19044,0.0,2023,6,7,14,35,19,198
40.59350,0.08610,-0.01015,0.00000,0.03135,0.97515,-0.18751,0.0,2023,6,7,14,35,19,208
40.59360,-0.01890,0.14735,0.00000,0.03318,0.97771,-0.18971,0.0,2023,6,7,14,35,19,218
40.59370,-0.00140,0.07735,0.00000,0.03038,0.97820,-0.18922,0.0,2023,6,7,14,35,19,228
40.59380,-0.05390,0.05985,0.00000,0.03172,0.97393,-0.19032,0.0,2023,6,7,14,35,19,238
40.59390,0.08610,-0.20265,0.00000,0.03257,0.97429,-0.19032,0.0,2023,6,7,14,35,19,248
40.59400,-0.24640,-0.18515,0.00000,0.03160,0.97454,-0.18703,0.0,2023,6,7,14,35,19,258
40.59410,-0.03640,-0.09765,0.00000,0.03294,0.97783,-0.19154,0.0,2023,6,7,14,35,19,268
40.59420,0.08610,0.09485,0.00000,0.03001,0.97661,-0.18910,0.0,2023,6,7,14,35,19,278
40.59430,-0.15890,-0.15015,0.00000,0.03135,0.97649,-0.19008,0.0,2023,6,7,14,35,19,288
40.59440,0.22610,-0.01015,0.00000,0.03135,0.97954,-0.19117,0.0,2023,6,7,14,35,19,298
40.59450,0.22610,-0.06265,0.00000,0.03087,0.97405,-0.18898,0.0,2023,6,7,14,35,19,308
40.59460,0.13860,-0.15015,0.00000,0.02989,0.97441,-0.18971,0.0,2023,6,7,14,35,19,318
40.59470,-0.03640,-0.13265,0.00000,0.03270,0.97698,-0.18886,0.0,2023,6,7,14,35,19,328
40.59480,-0.01890,-0.15015,0.00000,0.03318,0.97624,-0.18947,0.0,2023,6,7,14,35,19,338
40.59490,-0.05390,0.04235,0.00000,0.03148,0.97612,-0.18898,0.0,2023,6,7,14,35,19,348
40.59500,0.03360,-0.09765,0.00000,0.03282,0.97771,-0.18910,0.0,2023,6,7,14,35,19,358
40.59510,-0.01890,-0.09765,0.00000,0.03306,0.97588,-0.18873,0.0,2023,6,7,14,35,19,368
40.59520,-0.17640,0.00735,0.00000,0.03196,0.97722,-0.18800,0.0,2023,6,7,14,35,19,378
40.59530,-0.01890,-0.01015,0.00000,0.03172,0.97539,-0.18788,0.0,2023,6,7,14,35,19,388
40.59540,-0.21140,-0.04515,0.00000,0.03221,0.97600,-0.19069,0.0,2023,6,7,14,35,19,398
40.59550,0.12110,-0.08015,0.00000,0.02904,0.97490,-0.18910,0.0,2023,6,7,14,35,19,408
40.59560,0.12110,0.02485,0.00000,0.03343,0.97759,-0.18971,0.0,2023,6,7,14,35,19,418
40.59570,-0.17640,0.09485,0.00000,0.03392,0.97551,-0.19069,0.0,2023,6,7,14,35,19,428
40.59580,0.10360,-0.11515,0.00000,0.03172,0.97502,-0.18849,0.0,2023,6,7,14,35,19,438
40.59590,0.12110,-0.09765,0.00000,0.03123,0.97478,-0.19130,0.0,2023,6,7,14,35,19,448
40.59600,0.05110,0.00735,0.00000,0.03184,0.97710,-0.18934,0.0,2023,6,7,14,35,19,458
40.59610,-0.05390,0.12985,0.00000,0.03196,0.97478,-0.18971,0.0,2023,6,7,14,35,19,468
40.59620,-0.12390,-0.02765,0.00000,0.03209,0.97710,-0.18910,0.0,2023,6,7,14,35,19,478
40.59630,-0.05390,0.07735,0.00000,0.03184,0.97661,-0.18764,0.0,2023,6,7,14,35,19,488
40.59640,-0.07140,-0.11515,0.00000,0.03282,0.97624,-0.18983,0.0,2023,6,7,14,35,19,498
40.59650,0.06860,-0.13265,0.00000,0.03367,0.97576,-0.18910,0.0,2023,6,7,14,35,19,508
40.59660,-0.03640,-0.09765,0.00000,0.03135,0.97515,-0.18983,0.0,2023,6,7,14,35,19,518
40.59670,-0.10640,0.16485,0.00000,0.03001,0.97807,-0.18849,0.0,2023,6,7,14,35,19,528
40.59680,0.01610,0.02485,0.00000,0.03135,0.97405,-0.18837,0.0,2023,6,7,14,35,19,538
40.59690,0.12110,0.11235,0.00000,0.03099,0.97319,-0.19166,0.0,2023,6,7,14,35,19,548
40.59700,-0.05390,0.14735,0.00000,0.03172,0.97551,-0.18788,0.0,2023,6,7,14,35,19,558
40.59710,-0.05390,0.14735,0.00000,0.03257,0.97600,-0.18898,0.0,2023,6,7,14,35,19,568
40.59720,0.12110,0.07735,0.00000,0.03209,0.97612,-0.19008,0.0,2023,6,7,14,35,19,578
40.59730,0.06860,-0.08015,0.00000,0.03392,0.97722,-0.19056,0.0,2023,6,7,14,35,19,588
40.59740,-0.15890,0.21735,0.00000,0.03184,0.97661,-0.18934,0.0,2023,6,7,14,35,19,598
40.59750,0.10360,-0.02765,0.00000,0.03148,0.97405,-0.18971,0.0,2023,6,7,14,35,19,608
40.59760,0.05110,-0.09765,0.00000,0.03001,0.97661,-0.19020,0.0,2023,6,7,14,35,19,618
40.59770,-0.08890,-0.02765,0.00000,0.03355,0.97551,-0.19105,0.0,2023,6,7,14,35,19,628
40.59780,0.12110,0.04235,0.00000,0.03026,0.98015,-0.19081,0.0,2023,6,7,14,35,19,638
40.59790,-0.07140,0.09485,0.00000,0.03245,0.97759,-0.18751,0.0,2023,6,7,14,35,19,648
40.59800,0.03360,-0.29015,0.00000,0.03257,0.97649,-0.18812,0.0,2023,6,7,14,35,19,658
40.59810,0.08610,-0.06265,0.00000,0.03318,0.97661,-0.19154,0.0,2023,6,7,14,35,19,668
40.59820,0.20860,-0.02765,0.00000,0.03404,0.97454,-0.18910,0.0,2023,6,7,14,35,19,678
40.59830,-0.24640,0.14735,0.00000,0.03148,0.97539,-0.18971,0.0,2023,6,7,14,35,19,688
40.59840,0.27860,0.00735,0.00000,0.03160,0.97649,-0.19130,0.0,2023,6,7,14,35,19,698
40.59850,0.01610,0.04235,0.00000,0.03074,0.97332,-0.18837,0.0,2023,6,7,14,35,19,708
40.59860,-0.42140,0.28735,0.00000,0.03050,0.97807,-0.18934,0.0,2023,6,7,14,35,19,718
40.59870,0.20860,-0.08015,0.00000,0.03111,0.97624,-0.19069,0.0,2023,6,7,14,35,19,728
40.59880,-0.19390,0.02485,0.00000,0.03111,0.97380,-0.18678,0.0,2023,6,7,14,35,19,738
40.59890,-0.17640,-0.01015,0.00000,0.03331,0.97539,-0.18825,0.0,2023,6,7,14,35,19,748
40.59900,0.03360,-0.08015,0.00000,0.03318,0.97600,-0.19105,0.0,2023,6,7,14,35,19,758
40.59910,-0.22890,0.04235,0.00000,0.03367,0.97527,-0.18849,0.0,2023,6,7,14,35,19,768
40.59920,0.01610,-0.09765,0.00000,0.03367,0.97576,-0.19325,0.0,2023,6,7,14,35,19,778
40.59930,0.19110,-0.06265,0.00000,0.03135,0.97844,-0.19130,0.0,2023,6,7,14,35,19,788
40.59940,-0.10640,-0.06265,0.00000,0.03050,0.97746,-0.18861,0.0,2023,6,7,14,35,19,798
40.59950,0.05110,-0.01015,0.00000,0.03221,0.97637,-0.19032,0.0,2023,6,7,14,35,19,808
40.59960,-0.14140,-0.01015,0.00000,0.03209,0.97478,-0.18959,0.0,2023,6,7,14,35,19,818
40.59970,-0.07140,0.05985,0.00000,0.03123,0.97978,-0.18666,0.0,2023,6,7,14,35,19,828
40.59980,-0.03640,-0.02765,0.00000,0.03099,0.97368,-0.19020,0.0,2023,6,7,14,35,19,838
40.59990,-0.10640,-0.01015,0.00000,0.03379,0.97588,-0.18983,0.0,2023,6,7,14,35,19,848
40.60000,-0.08890,-0.01015,0.00000,0.03221,0.97624,-0.18983,0.0,2023,6,7,14,35,19,858
40.60010,0.10360,0.12985,0.00000,0.03148,0.97893,-0.19105,0.0,2023,6,7,14,35,19,868
40.60020,-0.01890,-0.08015,0.00000,0.03184,0.97478,-0.18776,0.0,2023,6,7,14,35,19,878
40.60030,-0.24640,0.02485,0.00000,0.03038,0.97759,-0.19008,0.0,2023,6,7,14,35,20,888
40.60040,0.05110,-0.13265,0.00000,0.03123,0.97502,-0.18934,0.0,2023,6,7,14,35,20,898
40.60050,-0.01890,-0.15015,0.00000,0.03306,0.97454,-0.18605,0.0,2023,6,7,14,35,20,908
40.60060,-0.14140,-0.06265,0.00000,0.03331,0.97612,-0.19203,0.0,2023,6,7,14,35,20,918
40.60070,0.03360,0.11235,0.00000,0.03087,0.97734,-0.19166,0.0,2023,6,7,14,35,20,928
40.60080,0.01610,0.02485,0.00000,0.03355,0.97673,-0.19252,0.0,2023,6,7,14,35,20,938
40.60090,0.12110,0.14735,0.00000,0.03087,0.97515,-0.19032,0.0,2023,6,7,14,35,20,948
40.60100,0.15610,-0.18515,0.00000,0.03026,0.97466,-0.19093,0.0,2023,6,7,14,35,20,958
40.60110,-0.00140,0.04235,0.00000,0.03001,0.97649,-0.19020,0.0,2023,6,7,14,35,20,968
40.60120,-0.03640,-0.02765,0.00000,0.03099,0.97868,-0.18959,0.0,2023,6,7,14,35,20,978
40.60130,0.15610,0.07735,0.00000,0.03331,0.97515,-0.18971,0.0,2023,6,7,14,35,20,988
40.60140,-0.00140,-0.13265,0.00000,0.03062,0.97637,-0.18861,0.0,2023,6,7,14,35,20,998
40.60150,-0.17640,0.18235,0.00000,0.03074,0.97368,-0.19166,0.0,2023,6,7,14,35,20,8
40.60160,0.12110,-0.09765,0.00000,0.03074,0.97746,-0.19093,0.0,2023,6,7,14,35,20,18
40.60170,-0.26390,0.07735,0.00000,0.03074,0.97624,-0.18959,0.0,2023,6,7,14,35,20,28
40.60180,-0.08890,0.30485,0.00000,0.03233,0.97917,-0.19154,0.0,2023,6,7,14,35,20,38
40.60190,0.01610,-0.08015,0.00000,0.03148,0.97807,-0.18873,0.0,2023,6,7,14,35,20,48
40.60200,-0.10640,-0.08015,0.00000,0.03099,0.97478,-0.18898,0.0,2023,6,7,14,35,20,58
40.60210,-0.14140,-0.11515,0.00000,0.03074,0.97759,-0.19081,0.0,2023,6,7,14,35,20,68
40.60220,0.06860,0.05985,0.00000,0.02989,0.97490,-0.19093,0.0,2023,6,7,14,35,20,78
40.60230,-0.08890,-0.11515,0.00000,0.03087,0.97539,-0.19056,0.0,2023,6,7,14,35,20,88
40.60240,-0.26390,0.11235,0.00000,0.03404,0.97649,-0.19081,0.0,2023,6,7,14,35,20,98
40.60250,-0.12390,0.09485,0.00000,0.03160,0.97454,-0.19069,0.0,2023,6,7,14,35,20,108
40.60260,-0.00140,0.02485,0.00000,0.03221,0.97429,-0.19020,0.0,2023,6,7,14,35,20,118
40.60270,-0.19390,-0.09765,0.00000,0.03148,0.97624,-0.19130,0.0,2023,6,7,14,35,20,128
40.60280,0.12110,-0.16765,0.00000,0.03123,0.97893,-0.18678,0.0,2023,6,7,14,35,20,138
40.60290,-0.03640,-0.20265,0.00000,0.03367,0.97856,-0.18764,0.0,2023,6,7,14,35,20,148
40.60300,0.13860,-0.04515,0.00000,0.03074,0.97649,-0.19105,0.0,2023,6,7,14,35,20,158
40.60310,-0.14140,0.05985,0.00000,0.03050,0.97490,-0.18886,0.0,2023,6,7,14,35,20,168
40.60320,-0.12390,-0.08015,0.00000,0.03001,0.97685,-0.19264,0.0,2023,6,7,14,35,20,178
40.60330,0.01610,0.09485,0.00000,0.02989,0.97649,-0.18873,0.0,2023,6,7,14,35,20,188
40.60340,0.13860,0.02485,0.00000,0.03062,0.97539,-0.19056,0.0,2023,6,7,14,35,20,198
40.60350,-0.12390,0.00735,0.00000,0.03184,0.97673,-0.19032,0.0,2023,6,7,14,35,20,208
40.60360,0.03360,0.14735,0.00000,0.03270,0.97759,-0.18849,0.0,2023,6,7,14,35,20,218
40.60370,-0.14140,-0.13265,0.00000,0.03148,0.97441,-0.19117,0.0,2023,6,7,14,35,20,228
40.60380,-0.03640,0.02485,0.00000,0.03209,0.97515,-0.18861,0.0,2023,6,7,14,35,20,238
40.60390,0.05110,-0.20265,0.00000,0.03196,0.97820,-0.18886,0.0,2023,6,7,14,35,20,248
40.60400,-0.03640,-0.15015,0.00000,0.03257,0.97600,-0.18934,0.0,2023,6,7,14,35,20,258
40.60410,-0.07140,0.18235,0.00000,0.03245,0.97637,-0.18971,0.0,2023,6,7,14,35,20,268
40.60420,0.19110,0.07735,0.00000,0.03184,0.97612,-0.19056,0.0,2023,6,7,14,35,20,278
40.60430,0.08610,0.00735,0.00000,0.02843,0.97515,-0.18861,0.0,2023,6,7,14,35,20,288
40.60440,0.20860,-0.11515,0.00000,0.03026,0.97588,-0.18995,0.0,2023,6,7,14,35,20,298
40.60450,0.03360,-0.01015,0.00000,0.03209,0.97637,-0.18837,0.0,2023,6,7,14,35,20,308
40.60460,0.13860,-0.09765,0.00000,0.03257,0.97624,-0.19154,0.0,2023,6,7,14,35,20,318
40.60470,0.15610,-0.23765,0.00000,0.03050,0.97649,-0.19032,0.0,2023,6,7,14,35,20,328
40.60480,0.01610,0.12985,0.00000,0.03270,0.97685,-0.18959,0.0,2023,6,7,14,35,20,338
40.60490,-0.05390,0.05985,0.00000,0.03453,0.97661,-0.19044,0.0,2023,6,7,14,35,20,348
40.60500,-0.05390,-0.04515,0.00000,0.03111,0.97551,-0.19044,0.0,2023,6,7,14,35,20,358
40.60510,-0.17640,0.14735,0.00000,0.03172,0.97698,-0.19276,0.0,2023,6,7,14,35,20,368
40.60520,0.03360,-0.04515,0.00000,0.03221,0.97417,-0.19056,0.0,2023,6,7,14,35,20,378
40.60530,-0.12390,-0.02765,0.00000,0.03245,0.97649,-0.19166,0.0,2023,6,7,14,35,20,388
40.60540,-0.01890,-0.09765,0.00000,0.03221,0.97807,-0.19130,0.0,2023,6,7,14,35,20,398
40.60550,0.03360,-0.01015,0.00000,0.03196,0.97807,-0.18934,0.0,2023,6,7,14,35,20,408
40.60560,-0.07140,0.16485,0.00000,0.03148,0.97783,-0.18849,0.0,2023,6,7,14,35,20,418
40.60570,0.13860,-0.18515,0.00000,0.03026,0.97661,-0.19056,0.0,2023,6,7,14,35,20,428
40.60580,-0.12390,0.11235,0.00000,0.03306,0.97698,-0.19239,0.0,2023,6,7,14,35,20,438
40.60590,0.06860,-0.09765,0.00000,0.02965,0.97624,-0.19166,0.0,2023,6,7,14,35,20,448
40.60600,0.01610,0.21735,0.00000,0.03087,0.97661,-0.18947,0.0,2023,6,7,14,35,20,458
40.60610,-0.03640,0.23485,0.00000,0.03148,0.97380,-0.19117,0.0,2023,6,7,14,35,20,468
40.60620,0.13860,-0.11515,0.00000,0.03257,0.97454,-0.18934,0.0,2023,6,7,14,35,20,478
40.60630,0.05110,0.11235,0.00000,0.02818,0.97515,-0.19178,0.0,2023,6,7,14,35,20,488
40.60640,-0.17640,-0.08015,0.00000,0.03245,0.97490,-0.18959,0.0,2023,6,7,14,35,20,498
40.60650,-0.03640,-0.13265,0.00000,0.03099,0.97856,-0.19020,0.0,2023,6,7,14,35,20,508
40.60660,-0.07140,-0.02765,0.00000,0.03343,0.97698,-0.19081,0.0,2023,6,7,14,35,20,518
40.60670,-0.01890,-0.04515,0.00000,0.03416,0.97649,-0.19044,0.0,2023,6,7,14,35,20,528
40.60680,0.20860,-0.18515,0.00000,0.03135,0.97673,-0.19069,0.0,2023,6,7,14,35,20,538
40.60690,0.10360,-0.08015,0.00000,0.03087,0.97563,-0.19130,0.0,2023,6,7,14,35,20,548
40.60700,0.20860,-0.15015,0.00000,0.03074,0.97515,-0.19020,0.0,2023,6,7,14,35,20,558
40.60710,0.13860,-0.13265,0.00000,0.03245,0.97588,-0.18934,0.0,2023,6,7,14,35,20,568
40.60720,-0.03640,-0.13265,0.00000,0.03282,0.97771,-0.18861,0.0,2023,6,7,14,35,20,578
40.60730,0.24360,-0.16765,0.00000,0.03135,0.97563,-0.19105,0.0,2023,6,7,14,35,20,588
40.60740,-0.03640,0.02485,0.00000,0.03379,0.97942,-0.18983,0.0,2023,6,7,14,35,20,598
40.60750,-0.01890,-0.06265,0.00000,0.03221,0.97893,-0.19178,0.0,2023,6,7,14,35,20,608
40.60760,0.20860,0.05985,0.00000,0.03062,0.97771,-0.18898,0.0,2023,6,7,14,35,20,618
40.60770,-0.07140,-0.08015,0.00000,0.03160,0.97807,-0.19142,0.0,2023,6,7,14,35,20,628
40.60780,0.01610,0.21735,0.00000,0.03233,0.97820,-0.19166,0.0,2023,6,7,14,35,20,638
40.60790,-0.00140,0.09485,0.00000,0.03209,0.97637,-0.19032,0.0,2023,6,7,14,35,20,648
40.60800,-0.00140,-0.02765,0.00000,0.03135,0.97856,-0.19252,0.0,2023,6,7,14,35,20,658
40.60810,0.06860,0.18235,0.00000,0.03074,0.97527,-0.18934,0.0,2023,6,7,14,35,20,668
40.60820,0.19110,0.02485,0.00000,0.03050,0.97759,-0.19056,0.0,2023,6,7,14,35,20,678
40.60830,-0.10640,0.04235,0.00000,0.03050,0.97771,-0.18886,0.0,2023,6,7,14,35,20,688
40.60840,0.13860,0.09485,0.00000,0.03074,0.97685,-0.18971,0.0,2023,6,7,14,35,20,698
40.60850,0.17360,0.02485,0.00000,0.03160,0.97722,-0.19044,0.0,2023,6,7,14,35,20,708
40.60860,0.01610,-0.18515,0.00000,0.03233,0.97563,-0.18947,0.0,2023,6,7,14,35,20,718
40.60870,-0.01890,-0.04515,0.00000,0.03013,0.97600,-0.19008,0.0,2023,6,7,14,35,20,728
40.60880,-0.01890,-0.01015,0.00000,0.03135,0.97551,-0.19191,0.0,2023,6,7,14,35,20,738
40.60890,-0.01890,-0.23765,0.00000,0.03221,0.97551,-0.18837,0.0,2023,6,7,14,35,20,748
40.60900,-0.03640,-0.16765,0.00000,0.03221,0.97942,-0.19020,0.0,2023,6,7,14,35,20,758
40.60910,-0.12390,0.23485,0.00000,0.03233,0.97527,-0.19166,0.0,2023,6,7,14,35,21,768
40.60920,-0.19390,0.19985,0.00000,0.03221,0.97673,-0.19105,0.0,2023,6,7,14,35,21,778
40.60930,0.08610,-0.06265,0.00000,0.03123,0.97356,-0.18886,0.0,2023,6,7,14,35,21,788
40.60940,0.12110,0.00735,0.00000,0.03160,0.97502,-0.18971,0.0,2023,6,7,14,35,21,798
40.60950,0.05110,-0.13265,0.00000,0.02965,0.97746,-0.18886,0.0,2023,6,7,14,35,21,808
40.60960,-0.12390,-0.06265,0.00000,0.03160,0.97673,-0.19056,0.0,2023,6,7,14,35,21,818
40.60970,-0.14140,0.16485,0.00000,0.03038,0.97502,-0.19020,0.0,2023,6,7,14,35,21,828
40.60980,-0.01890,-0.02765,0.00000,0.03026,0.97685,-0.18995,0.0,2023,6,7,14,35,21,838
40.60990,0.10360,0.00735,0.00000,0.03331,0.97710,-0.19056,0.0,2023,6,7,14,35,21,848
40.61000,-0.03640,0.16485,0.00000,0.03099,0.97539,-0.19008,0.0,2023,6,7,14,35,21,858
40.61010,-0.12390,0.05985,0.00000,0.03074,0.97380,-0.19056,0.0,2023,6,7,14,35,21,868
40.61020,0.12110,-0.04515,0.00000,0.03148,0.97490,-0.18715,0.0,2023,6,7,14,35,21,878
40.61030,0.12110,0.12985,0.00000,0.03160,0.97685,-0.18764,0.0,2023,6,7,14,35,21,888
40.61040,-0.08890,0.00735,0.00000,0.03013,0.97759,-0.19032,0.0,2023,6,7,14,35,21,898
40.61050,0.06860,-0.09765,0.00000,0.03111,0.97441,-0.19020,0.0,2023,6,7,14,35,21,908
40.61060,0.01610,-0.06265,0.00000,0.03148,0.97673,-0.18776,0.0,2023,6,7,14,35,21,918
40.61070,-0.01890,-0.13265,0.00000,0.03318,0.97502,-0.18995,0.0,2023,6,7,14,35,21,928
40.61080,0.19110,0.04235,0.00000,0.03172,0.97710,-0.18959,0.0,2023,6,7,14,35,21,938
40.61090,-0.05390,-0.11515,0.00000,0.02818,0.97746,-0.18971,0.0,2023,6,7,14,35,21,948
40.61100,-0.03640,-0.18515,0.00000,0.03318,0.97771,-0.18922,0.0,2023,6,7,14,35,21,958
40.61110,-0.03640,-0.09765,0.00000,0.03318,0.97868,-0.18922,0.0,2023,6,7,14,35,21,968
40.61120,0.01610,-0.01015,0.00000,0.03172,0.97771,-0.19154,0.0,2023,6,7,14,35,21,978
40.61130,0.08610,0.00735,0.00000,0.03074,0.97612,-0.18898,0.0,2023,6,7,14,35,21,988
40.61140,-0.01890,-0.18515,0.00000,0.03160,0.97441,-0.19020,0.0,2023,6,7,14,35,21,998
40.61150,0.12110,0.16485,0.00000,0.03282,0.97685,-0.18861,0.0,2023,6,7,14,35,21,8
40.61160,-0.08890,0.04235,0.00000,0.03270,0.97588,-0.18934,0.0,2023,6,7,14,35,21,18
40.61170,0.03360,0.07735,0.00000,0.03099,0.97600,-0.18849,0.0,2023,6,7,14,35,21,28
40.61180,-0.01890,0.00735,0.00000,0.03221,0.97576,-0.18837,0.0,2023,6,7,14,35,21,38
40.61190,-0.03640,-0.15015,0.00000,0.03062,0.97722,-0.19069,0.0,2023,6,7,14,35,21,48
40.61200,0.20860,-0.06265,0.00000,0.03087,0.97576,-0.19166,0.0,2023,6,7,14,35,21,58
40.61210,-0.03640,-0.16765,0.00000,0.03294,0.97954,-0.19044,0.0,2023,6,7,14,35,21,68
40.61220,-0.05390,0.04235,0.00000,0.02916,0.97441,-0.19093,0.0,2023,6,7,14,35,21,78
40.61230,-0.15890,-0.09765,0.00000,0.03355,0.97637,-0.19081,0.0,2023,6,7,14,35,21,88
40.61240,-0.12390,0.04235,0.00000,0.02989,0.97612,-0.18922,0.0,2023,6,7,14,35,21,98
40.61250,0.01610,-0.06265,0.00000,0.03221,0.97490,-0.18971,0.0,2023,6,7,14,35,21,108
40.61260,-0.15890,0.09485,0.00000,0.03294,0.97368,-0.18800,0.0,2023,6,7,14,35,21,118
40.61270,0.06860,0.09485,0.00000,0.03257,0.97624,-0.18898,0.0,2023,6,7,14,35,21,128
40.61280,-0.17640,-0.09765,0.00000,0.03209,0.97490,-0.19032,0.0,2023,6,7,14,35,21,138
40.61290,0.03360,0.02485,0.00000,0.03257,0.97722,-0.18886,0.0,2023,6,7,14,35,21,148
40.61300,-0.15890,-0.01015,0.00000,0.03087,0.97685,-0.18922,0.0,2023,6,7,14,35,21,158
40.61310,-0.07140,-0.06265,0.00000,0.02952,0.97405,-0.19203,0.0,2023,6,7,14,35,21,168
40.61320,0.17360,-0.04515,0.00000,0.03099,0.97649,-0.18910,0.0,2023,6,7,14,35,21,178
40.61330,0.01610,-0.01015,0.00000,0.03440,0.97820,-0.18995,0.0,2023,6,7,14,35,21,188
40.61340,0.08610,-0.15015,0.00000,0.03160,0.97527,-0.19020,0.0,2023,6,7,14,35,21,198
40.61350,0.01610,-0.01015,0.00000,0.03135,0.97746,-0.18873,0.0,2023,6,7,14,35,21,208
40.61360,0.13860,-0.01015,0.00000,0.03099,0.97576,-0.18873,0.0,2023,6,7,14,35,21,218
40.61370,-0.10640,-0.08015,0.00000,0.03038,0.97673,-0.18886,0.0,2023,6,7,14,35,21,228
40.61380,0.03360,0.04235,0.00000,0.03184,0.97417,-0.19008,0.0,2023,6,7,14,35,21,238
40.61390,-0.07140,0.07735,0.00000,0.03318,0.97576,-0.18995,0.0,2023,6,7,14,35,21,248
40.61400,-0.03640,-0.20265,0.00000,0.03087,0.97380,-0.19215,0.0,2023,6,7,14,35,21,258
40.61410,-0.00140,-0.06265,0.00000,0.03257,0.97368,-0.18922,0.0,2023,6,7,14,35,21,268
40.61420,-0.07140,-0.01015,0.00000,0.03123,0.97637,-0.19093,0.0,2023,6,7,14,35,21,278
40.61430,0.08610,0.09485,0.00000,0.03209,0.97661,-0.19032,0.0,2023,6,7,14,35,21,288
40.61440,0.06860,-0.13265,0.00000,0.03026,0.97551,-0.19130,0.0,2023,6,7,14,35,21,298
40.61450,-0.12390,0.19985,0.00000,0.03050,0.97429,-0.19020,0.0,2023,6,7,14,35,21,308
40.61460,0.03360,-0.08015,0.00000,0.03294,0.97673,-0.19093,0.0,2023,6,7,14,35,21,318
40.61470,-0.05390,0.04235,0.00000,0.02904,0.97588,-0.19105,0.0,2023,6,7,14,35,21,328
40.61480,-0.03640,0.12985,0.00000,0.03135,0.97612,-0.19154,0.0,2023,6,7,14,35,21,338
40.61490,-0.07140,0.02485,0.00000,0.02940,0.97929,-0.19056,0.0,2023,6,7,14,35,21,348
40.61500,0.03360,-0.15015,0.00000,0.03062,0.97539,-0.19069,0.0,2023,6,7,14,35,21,358
40.61510,0.10360,-0.11515,0.00000,0.03148,0.97246,-0.19020,0.0,2023,6,7,14,35,21,368
40.61520,0.08610,0.11235,0.00000,0.03245,0.97551,-0.18715,0.0,2023,6,7,14,35,21,378
40.61530,-0.10640,0.00735,0.00000,0.02965,0.97759,-0.19203,0.0,2023,6,7,14,35,21,388
40.61540,0.38360,-0.06265,0.00000,0.03294,0.97502,-0.19032,0.0,2023,6,7,14,35,21,398
40.61550,-0.26390,0.00735,0.00000,0.03074,0.97637,-0.18703,0.0,2023,6,7,14,35,21,408
40.61560,0.47110,0.12985,0.00000,0.03172,0.97551,-0.19508,0.0,2023,6,7,14,35,21,418
40.61570,0.24360,-0.13265,0.00000,0.03367,0.97612,-0.18934,0.0,2023,6,7,14,35,21,428
40.61580,-0.36890,0.00735,0.00000,0.03392,0.97820,-0.19203,0.0,2023,6,7,14,35,21,438
40.61590,0.48860,0.09485,0.00000,0.03074,0.97588,-0.19276,0.0,2023,6,7,14,35,21,448
40.61600,-0.00140,-0.02765,0.00000,0.03233,0.97649,-0.18812,0.0,2023,6,7,14,35,21,458
40.61610,-0.24640,-0.23765,0.00000,0.03111,0.97624,-0.19447,0.0,2023,6,7,14,35,21,468
40.61620,0.50610,0.07735,0.00000,0.03270,0.97380,-0.18812,0.0,2023,6,7,14,35,21,478
40.61630,-0.29890,0.07735,0.00000,0.03233,0.97637,-0.18483,0.0,2023,6,7,14,35,21,488
40.61640,0.17360,-0.04515,0.00000,0.03245,0.97551,-0.19313,0.0,2023,6,7,14,35,21,498
40.61650,0.01610,0.14735,0.00000,0.03465,0.97637,-0.18703,0.0,2023,6,7,14,35,21,508
40.61660,-0.40390,-0.18515,0.00000,0.03087,0.97807,-0.18788,0.0,2023,6,7,14,35,21,518
40.61670,0.40110,-0.09765,0.00000,0.03184,0.97576,-0.18764,0.0,2023,6,7,14,35,21,528
40.61680,0.17360,-0.22015,0.00000,0.03282,0.97612,-0.18812,0.0,2023,6,7,14,35,21,538
40.61690,-0.38640,-0.02765,0.00000,0.03087,0.97624,-0.19203,0.0,2023,6,7,14,35,21,548
40.61700,0.27860,-0.11515,0.00000,0.03026,0.97466,-0.18934,0.0,2023,6,7,14,35,21,558
40.61710,0.01610,0.09485,0.00000,0.03196,0.97454,-0.18873,0.0,2023,6,7,14,35,21,568
40.61720,-0.14140,-0.01015,0.00000,0.02940,0.97881,-0.19008,0.0,2023,6,7,14,35,21,578
40.61730,0.15610,-0.27265,0.00000,0.03233,0.97710,-0.19044,0.0,2023,6,7,14,35,21,588
40.61740,-0.15890,-0.09765,0.00000,0.03294,0.97649,-0.19008,0.0,2023,6,7,14,35,21,598
40.61750,0.24360,-0.01015,0.00000,0.03233,0.97576,-0.19008,0.0,2023,6,7,14,35,21,608
40.61760,0.13860,-0.25515,0.00000,0.03148,0.97454,-0.18959,0.0,2023,6,7,14,35,21,618
40.61770,-0.08890,-0.09765,0.00000,0.03184,0.97527,-0.18666,0.0,2023,6,7,14,35,21,628
40.61780,-0.14140,0.14735,0.00000,0.02891,0.97600,-0.19032,0.0,2023,6,7,14,35,21,638
40.61790,-0.03640,-0.11515,0.00000,0.03172,0.97393,-0.19130,0.0,2023,6,7,14,35,21,648
40.61800,0.06860,-0.11515,0.00000,0.02916,0.97502,-0.19105,0.0,2023,6,7,14,35,21,658
40.61810,0.19110,-0.04515,0.00000,0.02989,0.97380,-0.18764,0.0,2023,6,7,14,35,21,668
40.61820,-0.08890,0.14735,0.00000,0.03172,0.97624,-0.18861,0.0,2023,6,7,14,35,22,678
40.61830,-0.15890,-0.02765,0.00000,0.03294,0.97624,-0.19081,0.0,2023,6,7,14,35,22,688
40.61840,0.06860,-0.08015,0.00000,0.03123,0.97759,-0.19032,0.0,2023,6,7,14,35,22,698
40.61850,-0.07140,0.12985,0.00000,0.03294,0.97454,-0.18861,0.0,2023,6,7,14,35,22,708
40.61860,0.15610,0.12985,0.00000,0.03331,0.97710,-0.18922,0.0,2023,6,7,14,35,22,718
40.61870,-0.00140,0.00735,0.00000,0.03062,0.97649,-0.18910,0.0,2023,6,7,14,35,22,728
40.61880,-0.26390,0.02485,0.00000,0.02843,0.97588,-0.18886,0.0,2023,6,7,14,35,22,738
40.61890,-0.15890,-0.15015,0.00000,0.03245,0.97759,-0.18825,0.0,2023,6,7,14,35,22,748
40.61900,0.19110,-0.09765,0.00000,0.03282,0.97685,-0.18983,0.0,2023,6,7,14,35,22,758
40.61910,-0.00140,0.07735,0.00000,0.03148,0.97661,-0.18837,0.0,2023,6,7,14,35,22,768
40.61920,-0.01890,0.09485,0.00000,0.03148,0.97356,-0.19154,0.0,2023,6,7,14,35,22,778
40.61930,0.20860,-0.39515,0.00000,0.03111,0.97563,-0.19142,0.0,2023,6,7,14,35,22,788
40.61940,-0.15890,0.23485,0.00000,0.02989,0.97795,-0.18800,0.0,2023,6,7,14,35,22,798
40.61950,-0.00140,-0.09765,0.00000,0.03233,0.97405,-0.18947,0.0,2023,6,7,14,35,22,808
40.61960,0.01610,-0.11515,0.00000,0.03135,0.97624,-0.18971,0.0,2023,6,7,14,35,22,818
40.61970,-0.15890,-0.06265,0.00000,0.03245,0.97624,-0.18947,0.0,2023,6,7,14,35,22,828
40.61980,0.03360,0.16485,0.00000,0.03392,0.97783,-0.19020,0.0,2023,6,7,14,35,22,838
40.61990,0.19110,-0.11515,0.00000,0.03062,0.97685,-0.19008,0.0,2023,6,7,14,35,22,848
40.62000,0.12110,-0.08015,0.00000,0.03343,0.97710,-0.18837,0.0,2023,6,7,14,35,22,858
40.62010,0.01610,-0.06265,0.00000,0.03148,0.97807,-0.18861,0.0,2023,6,7,14,35,22,868
40.62020,-0.00140,-0.11515,0.00000,0.03172,0.97649,-0.18873,0.0,2023,6,7,14,35,22,878
40.62030,-0.03640,0.09485,0.00000,0.03294,0.97624,-0.18959,0.0,2023,6,7,14,35,22,888
40.62040,0.06860,-0.22015,0.00000,0.03099,0.97637,-0.18788,0.0,2023,6,7,14,35,22,898
40.62050,0.06860,-0.22015,0.00000,0.03160,0.97673,-0.19069,0.0,2023,6,7,14,35,22,908
40.62060,-0.15890,0.16485,0.00000,0.02891,0.97539,-0.18812,0.0,2023,6,7,14,35,22,918
40.62070,0.05110,-0.11515,0.00000,0.02928,0.97661,-0.19032,0.0,2023,6,7,14,35,22,928
40.62080,-0.03640,-0.06265,0.00000,0.03062,0.97673,-0.18849,0.0,2023,6,7,14,35,22,938
40.62090,-0.03640,-0.01015,0.00000,0.03257,0.97576,-0.18873,0.0,2023,6,7,14,35,22,948
40.62100,0.01610,0.19985,0.00000,0.03038,0.97405,-0.18995,0.0,2023,6,7,14,35,22,958
40.62110,-0.22890,0.18235,0.00000,0.03196,0.97807,-0.18886,0.0,2023,6,7,14,35,22,968
40.62120,-0.07140,-0.09765,0.00000,0.03074,0.97893,-0.18873,0.0,2023,6,7,14,35,22,978
40.62130,0.05110,0.04235,0.00000,0.03282,0.97661,-0.18886,0.0,2023,6,7,14,35,22,988
40.62140,-0.12390,0.09485,0.00000,0.03245,0.97624,-0.19008,0.0,2023,6,7,14,35,22,998
40.62150,-0.03640,-0.02765,0.00000,0.03111,0.97393,-0.18776,0.0,2023,6,7,14,35,22,8
40.62160,0.08610,-0.02765,0.00000,0.03282,0.97380,-0.18642,0.0,2023,6,7,14,35,22,18
40.62170,-0.01890,-0.01015,0.00000,0.03318,0.97515,-0.18910,0.0,2023,6,7,14,35,22,28
40.62180,-0.10640,-0.04515,0.00000,0.03221,0.97637,-0.18947,0.0,2023,6,7,14,35,22,38
40.62190,0.22610,-0.15015,0.00000,0.03172,0.97502,-0.19044,0.0,2023,6,7,14,35,22,48
40.62200,-0.03640,-0.16765,0.00000,0.03062,0.97673,-0.18751,0.0,2023,6,7,14,35,22,58
40.62210,0.26110,-0.06265,0.00000,0.03379,0.97515,-0.19276,0.0,2023,6,7,14,35,22,68
40.62220,-0.10640,-0.06265,0.00000,0.03465,0.97746,-0.18947,0.0,2023,6,7,14,35,22,78
40.62230,-0.28140,0.07735,0.00000,0.03160,0.97637,-0.18886,0.0,2023,6,7,14,35,22,88
40.62240,0.15610,-0.04515,0.00000,0.03209,0.97600,-0.19008,0.0,2023,6,7,14,35,22,98
40.62250,-0.00140,0.09485,0.00000,0.03160,0.97576,-0.18654,0.0,2023,6,7,14,35,22,108
40.62260,-0.14140,0.02485,0.00000,0.03074,0.97624,-0.19020,0.0,2023,6,7,14,35,22,118
40.62270,0.43610,-0.34265,0.00000,0.03160,0.97527,-0.19093,0.0,2023,6,7,14,35,22,128
40.62280,0.08610,-0.16765,0.00000,0.03318,0.97698,-0.18605,0.0,2023,6,7,14,35,22,138
40.62290,-0.49140,0.04235,0.00000,0.03160,0.97771,-0.19215,0.0,2023,6,7,14,35,22,148
40.62300,0.01610,0.04235,0.00000,0.03148,0.97612,-0.18959,0.0,2023,6,7,14,35,22,158
40.62310,-0.10640,0.02485,0.00000,0.03038,0.97454,-0.18764,0.0,2023,6,7,14,35,22,168
40.62320,-0.03640,0.05985,0.00000,0.03172,0.97734,-0.19105,0.0,2023,6,7,14,35,22,178
40.62330,-0.07140,0.07735,0.00000,0.03318,0.97929,-0.18739,0.0,2023,6,7,14,35,22,188
40.62340,-0.00140,-0.06265,0.00000,0.03135,0.97905,-0.18812,0.0,2023,6,7,14,35,22,198
40.62350,0.17360,-0.02765,0.00000,0.03184,0.97454,-0.19178,0.0,2023,6,7,14,35,22,208
40.62360,0.10360,0.18235,0.00000,0.03379,0.97563,-0.18922,0.0,2023,6,7,14,35,22,218
40.62370,-0.10640,-0.01015,0.00000,0.03245,0.97759,-0.19081,0.0,2023,6,7,14,35,22,228
40.62380,0.12110,-0.01015,0.00000,0.03013,0.97783,-0.19069,0.0,2023,6,7,14,35,22,238
40.62390,-0.08890,0.05985,0.00000,0.03221,0.97759,-0.18654,0.0,2023,6,7,14,35,22,248
40.62400,-0.03640,-0.06265,0.00000,0.03196,0.97673,-0.19117,0.0,2023,6,7,14,35,22,258
40.62410,0.12110,-0.39515,0.00000,0.03257,0.97661,-0.19239,0.0,2023,6,7,14,35,22,268
40.62420,-0.10640,-0.06265,0.00000,0.03453,0.97368,-0.19081,0.0,2023,6,7,14,35,22,278
40.62430,-0.15890,0.00735,0.00000,0.03160,0.97466,-0.19056,0.0,2023,6,7,14,35,22,288
40.62440,0.05110,0.11235,0.00000,0.03160,0.97771,-0.19069,0.0,2023,6,7,14,35,22,298
40.62450,-0.15890,-0.01015,0.00000,0.03257,0.97685,-0.18776,0.0,2023,6,7,14,35,22,308
40.62460,-0.12390,-0.02765,0.00000,0.02977,0.97649,-0.18922,0.0,2023,6,7,14,35,22,318
40.62470,0.01610,0.04235,0.00000,0.03087,0.97746,-0.18849,0.0,2023,6,7,14,35,22,328
40.62480,-0.07140,-0.04515,0.00000,0.03282,0.97441,-0.18739,0.0,2023,6,7,14,35,22,338
40.62490,-0.21140,-0.11515,0.00000,0.03184,0.97734,-0.18947,0.0,2023,6,7,14,35,22,348
40.62500,0.24360,0.02485,0.00000,0.03404,0.97576,-0.18934,0.0,2023,6,7,14,35,22,358
40.62510,-0.05390,0.07735,0.00000,0.02965,0.97685,-0.18727,0.0,2023,6,7,14,35,22,368
40.62520,0.12110,-0.02765,0.00000,0.03099,0.97576,-0.18995,0.0,2023,6,7,14,35,22,378
40.62530,-0.05390,0.07735,0.00000,0.03074,0.97466,-0.18764,0.0,2023,6,7,14,35,22,388
40.62540,0.06860,-0.06265,0.00000,0.02989,0.97576,-0.18861,0.0,2023,6,7,14,35,22,398
40.62550,0.01610,-0.01015,0.00000,0.03160,0.97661,-0.19105,0.0,2023,6,7,14,35,22,408
40.62560,-0.00140,0.00735,0.00000,0.03245,0.97783,-0.18715,0.0,2023,6,7,14,35,22,418
40.62570,-0.03640,-0.15015,0.00000,0.03257,0.97454,-0.18971,0.0,2023,6,7,14,35,22,428
40.62580,0.10360,0.05985,0.00000,0.03233,0.97820,-0.18812,0.0,2023,6,7,14,35,22,438
40.62590,-0.10640,-0.06265,0.00000,0.02989,0.97515,-0.19008,0.0,2023,6,7,14,35,22,448
40.62600,-0.01890,0.14735,0.00000,0.02830,0.97576,-0.18947,0.0,2023,6,7,14,35,22,458
40.62610,-0.05390,0.11235,0.00000,0.03221,0.97563,-0.18971,0.0,2023,6,7,14,35,22,468
40.62620,0.19110,0.07735,0.00000,0.03257,0.97539,-0.19239,0.0,2023,6,7,14,35,22,478
40.62630,0.06860,0.11235,0.00000,0.03050,0.97417,-0.18861,0.0,2023,6,7,14,35,22,488
40.62640,-0.03640,-0.04515,0.00000,0.03257,0.97478,-0.18983,0.0,2023,6,7,14,35,22,498
40.62650,-0.01890,-0.02765,0.00000,0.03062,0.97368,-0.18886,0.0,2023,6,7,14,35,22,508
40.62660,-0.03640,0.26985,0.00000,0.03282,0.97661,-0.18947,0.0,2023,6,7,14,35,22,518
40.62670,-0.14140,-0.09765,0.00000,0.03184,0.97637,-0.19069,0.0,2023,6,7,14,35,22,528
40.62680,-0.08890,-0.11515,0.00000,0.03160,0.97734,-0.18922,0.0,2023,6,7,14,35,22,538
40.62690,-0.08890,-0.11515,0.00000,0.03099,0.97783,-0.18922,0.0,2023,6,7,14,35,22,548
40.62700,0.06860,-0.06265,0.00000,0.03245,0.97588,-0.18837,0.0,2023,6,7,14,35,22,558
40.62710,0.08610,-0.09765,0.00000,0.03209,0.97600,-0.19044,0.0,2023,6,7,14,35,22,568
40.62720,-0.00140,0.02485,0.00000,0.03184,0.97637,-0.18971,0.0,2023,6,7,14,35,23,578
40.62730,0.17360,-0.09765,0.00000,0.03196,0.97490,-0.18886,0.0,2023,6,7,14,35,23,588
40.62740,-0.21140,0.21735,0.00000,0.02977,0.97710,-0.18873,0.0,2023,6,7,14,35,23,598
40.62750,-0.12390,0.00735,0.00000,0.03196,0.97734,-0.19081,0.0,2023,6,7,14,35,23,608
40.62760,-0.10640,0.00735,0.00000,0.03184,0.97771,-0.18812,0.0,2023,6,7,14,35,23,618
40.62770,0.06860,0.04235,0.00000,0.03331,0.97624,-0.19093,0.0,2023,6,7,14,35,23,628
40.62780,-0.00140,0.00735,0.00000,0.03099,0.97649,-0.18959,0.0,2023,6,7,14,35,23,638
40.62790,-0.15890,0.04235,0.00000,0.03416,0.97551,-0.18873,0.0,2023,6,7,14,35,23,648
40.62800,0.15610,-0.13265,0.00000,0.03123,0.97759,-0.19008,0.0,2023,6,7,14,35,23,658
40.62810,-0.03640,0.04235,0.00000,0.03013,0.97807,-0.19069,0.0,2023,6,7,14,35,23,668
40.62820,-0.14140,0.00735,0.00000,0.03221,0.97588,-0.18983,0.0,2023,6,7,14,35,23,678
40.62830,0.17360,0.02485,0.00000,0.03270,0.97661,-0.18898,0.0,2023,6,7,14,35,23,688
40.62840,0.05110,-0.01015,0.00000,0.03184,0.97527,-0.19166,0.0,2023,6,7,14,35,23,698
40.62850,-0.08890,0.05985,0.00000,0.03404,0.97417,-0.18751,0.0,2023,6,7,14,35,23,708
40.62860,0.01610,0.14735,0.00000,0.02928,0.97710,-0.18971,0.0,2023,6,7,14,35,23,718
40.62870,0.03360,0.14735,0.00000,0.03111,0.97576,-0.18947,0.0,2023,6,7,14,35,23,728
40.62880,-0.08890,0.05985,0.00000,0.03331,0.97539,-0.19044,0.0,2023,6,7,14,35,23,738
40.62890,0.01610,-0.09765,0.00000,0.02965,0.97685,-0.18715,0.0,2023,6,7,14,35,23,748
40.62900,0.24360,0.00735,0.00000,0.03270,0.97795,-0.18764,0.0,2023,6,7,14,35,23,758
40.62910,-0.01890,-0.18515,0.00000,0.03270,0.97807,-0.18654,0.0,2023,6,7,14,35,23,768
40.62920,0.05110,-0.16765,0.00000,0.03050,0.97685,-0.19044,0.0,2023,6,7,14,35,23,778
40.62930,-0.08890,0.04235,0.00000,0.03184,0.97466,-0.19069,0.0,2023,6,7,14,35,23,788
40.62940,-0.03640,-0.04515,0.00000,0.03282,0.97527,-0.18788,0.0,2023,6,7,14,35,23,798
40.62950,-0.10640,0.09485,0.00000,0.03074,0.97563,-0.19105,0.0,2023,6,7,14,35,23,808
40.62960,-0.01890,0.00735,0.00000,0.03331,0.97893,-0.19032,0.0,2023,6,7,14,35,23,818
40.62970,-0.10640,0.04235,0.00000,0.03062,0.97527,-0.19117,0.0,2023,6,7,14,35,23,828
40.62980,-0.00140,-0.11515,0.00000,0.03148,0.97600,-0.18837,0.0,2023,6,7,14,35,23,838
40.62990,-0.07140,0.11235,0.00000,0.03148,0.97637,-0.18971,0.0,2023,6,7,14,35,23,848
40.63000,0.10360,0.09485,0.00000,0.03123,0.97600,-0.18898,0.0,2023,6,7,14,35,23,858
40.63010,-0.10640,0.02485,0.00000,0.03209,0.97759,-0.19044,0.0,2023,6,7,14,35,23,868
40.63020,-0.03640,0.14735,0.00000,0.03148,0.97698,-0.18910,0.0,2023,6,7,14,35,23,878
40.63030,0.19110,0.02485,0.00000,0.03135,0.97588,-0.19105,0.0,2023,6,7,14,35,23,888
40.63040,0.03360,-0.27265,0.00000,0.03196,0.97807,-0.18751,0.0,2023,6,7,14,35,23,898
40.63050,0.06860,-0.16765,0.00000,0.03135,0.97624,-0.19032,0.0,2023,6,7,14,35,23,908
40.63060,0.03360,-0.08015,0.00000,0.03160,0.97600,-0.18886,0.0,2023,6,7,14,35,23,918
40.63070,0.19110,-0.01015,0.00000,0.03062,0.97539,-0.18849,0.0,2023,6,7,14,35,23,928
40.63080,-0.01890,0.12985,0.00000,0.03111,0.97661,-0.18849,0.0,2023,6,7,14,35,23,938
40.63090,-0.01890,0.00735,0.00000,0.03135,0.97417,-0.19032,0.0,2023,6,7,14,35,23,948
40.63100,-0.07140,-0.20265,0.00000,0.03257,0.97795,-0.19105,0.0,2023,6,7,14,35,23,958
40.63110,-0.12390,0.02485,0.00000,0.03184,0.97380,-0.18995,0.0,2023,6,7,14,35,23,968
40.63120,0.08610,0.00735,0.00000,0.03087,0.97576,-0.18959,0.0,2023,6,7,14,35,23,978
40.63130,-0.07140,0.14735,0.00000,0.02891,0.97820,-0.19154,0.0,2023,6,7,14,35,23,988
40.63140,0.08610,-0.13265,0.00000,0.03465,0.97710,-0.18995,0.0,2023,6,7,14,35,23,998
40.63150,-0.10640,-0.01015,0.00000,0.03001,0.97698,-0.19044,0.0,2023,6,7,14,35,23,8
40.63160,0.01610,0.12985,0.00000,0.03282,0.97685,-0.19117,0.0,2023,6,7,14,35,23,18
40.63170,0.20860,-0.11515,0.00000,0.03196,0.97551,-0.19349,0.0,2023,6,7,14,35,23,28
40.63180,0.13860,-0.16765,0.00000,0.02879,0.97722,-0.18959,0.0,2023,6,7,14,35,23,38
40.63190,0.05110,-0.01015,0.00000,0.03062,0.97698,-0.19069,0.0,2023,6,7,14,35,23,48
40.63200,0.08610,-0.01015,0.00000,0.03196,0.97661,-0.18861,0.0,2023,6,7,14,35,23,58
40.63210,-0.17640,-0.04515,0.00000,0.03050,0.97527,-0.19008,0.0,2023,6,7,14,35,23,68
40.63220,-0.10640,-0.02765,0.00000,0.03038,0.97612,-0.19130,0.0,2023,6,7,14,35,23,78
40.63230,0.12110,-0.13265,0.00000,0.03196,0.97820,-0.18947,0.0,2023,6,7,14,35,23,88
40.63240,0.10360,0.04235,0.00000,0.03148,0.97685,-0.19105,0.0,2023,6,7,14,35,23,98
40.63250,0.17360,0.02485,0.00000,0.03135,0.97478,-0.19227,0.0,2023,6,7,14,35,23,108
40.63260,-0.12390,0.02485,0.00000,0.03306,0.97478,-0.19154,0.0,2023,6,7,14,35,23,118
40.63270,-0.14140,0.04235,0.00000,0.03135,0.97734,-0.19142,0.0,2023,6,7,14,35,23,128
40.63280,0.03360,-0.06265,0.00000,0.03233,0.97685,-0.18934,0.0,2023,6,7,14,35,23,138
40.63290,-0.00140,0.21735,0.00000,0.03379,0.97722,-0.19142,0.0,2023,6,7,14,35,23,148
40.63300,-0.15890,-0.02765,0.00000,0.02855,0.97576,-0.19093,0.0,2023,6,7,14,35,23,158
40.63310,0.10360,-0.11515,0.00000,0.03099,0.97576,-0.19203,0.0,2023,6,7,14,35,23,168
40.63320,-0.03640,0.30485,0.00000,0.03172,0.97624,-0.19325,0.0,2023,6,7,14,35,23,178
40.63330,0.01610,0.02485,0.00000,0.03196,0.97990,-0.19093,0.0,2023,6,7,14,35,23,188
40.63340,-0.01890,-0.04515,0.00000,0.03111,0.97478,-0.19105,0.0,2023,6,7,14,35,23,198
40.63350,-0.14140,0.04235,0.00000,0.03245,0.97454,-0.19264,0.0,2023,6,7,14,35,23,208
40.63360,0.05110,-0.06265,0.00000,0.03209,0.97551,-0.19008,0.0,2023,6,7,14,35,23,218
40.63370,-0.03640,-0.23765,0.00000,0.02952,0.97722,-0.19166,0.0,2023,6,7,14,35,23,228
40.63380,0.05110,-0.13265,0.00000,0.03123,0.97612,-0.18910,0.0,2023,6,7,14,35,23,238
40.63390,0.08610,-0.06265,0.00000,0.03233,0.97673,-0.19032,0.0,2023,6,7,14,35,23,248
40.63400,0.06860,0.05985,0.00000,0.03196,0.97466,-0.19081,0.0,2023,6,7,14,35,23,258
40.63410,-0.07140,0.04235,0.00000,0.03172,0.97661,-0.18922,0.0,2023,6,7,14,35,23,268
40.63420,0.01610,0.18235,0.00000,0.03038,0.97868,-0.19081,0.0,2023,6,7,14,35,23,278
40.63430,-0.19390,0.11235,0.00000,0.03087,0.97539,-0.19093,0.0,2023,6,7,14,35,23,288
40.63440,0.03360,0.02485,0.00000,0.03111,0.97368,-0.19215,0.0,2023,6,7,14,35,23,298
40.63450,0.01610,-0.09765,0.00000,0.03038,0.97673,-0.18959,0.0,2023,6,7,14,35,23,308
40.63460,-0.08890,0.00735,0.00000,0.03233,0.97844,-0.18947,0.0,2023,6,7,14,35,23,318
40.63470,0.03360,-0.18515,0.00000,0.02989,0.97393,-0.19008,0.0,2023,6,7,14,35,23,328
40.63480,-0.12390,0.04235,0.00000,0.03270,0.97759,-0.19496,0.0,2023,6,7,14,35,23,338
40.63490,0.10360,0.00735,0.00000,0.03184,0.97551,-0.19142,0.0,2023,6,7,14,35,23,348
40.63500,0.03360,-0.04515,0.00000,0.03026,0.97746,-0.19032,0.0,2023,6,7,14,35,23,358
40.63510,-0.05390,0.04235,0.00000,0.03294,0.97710,-0.19020,0.0,2023,6,7,14,35,23,368
40.63520,-0.12390,0.32235,0.00000,0.03135,0.97637,-0.19191,0.0,2023,6,7,14,35,23,378
40.63530,0.15610,0.07735,0.00000,0.03148,0.97563,-0.19105,0.0,2023,6,7,14,35,23,388
40.63540,-0.14140,0.12985,0.00000,0.03184,0.97637,-0.18971,0.0,2023,6,7,14,35,23,398
40.63550,-0.07140,0.16485,0.00000,0.02965,0.97502,-0.19008,0.0,2023,6,7,14,35,23,408
40.63560,-0.05390,0.04235,0.00000,0.03245,0.97698,-0.19008,0.0,2023,6,7,14,35,23,418
40.63570,-0.07140,0.07735,0.00000,0.03123,0.97612,-0.18983,0.0,2023,6,7,14,35,23,428
40.63580,0.17360,-0.20265,0.00000,0.03050,0.97527,-0.19191,0.0,2023,6,7,14,35,23,438
40.63590,0.12110,-0.08015,0.00000,0.02977,0.97637,-0.19032,0.0,2023,6,7,14,35,23,448
40.63600,-0.00140,0.05985,0.00000,0.03111,0.97576,-0.18959,0.0,2023,6,7,14,35,23,458
40.63610,0.19110,-0.25515,0.00000,0.03160,0.97466,-0.19020,0.0,2023,6,7,14,35,23,468
40.63620,-0.08890,0.16485,0.00000,0.03184,0.97588,-0.18947,0.0,2023,6,7,14,35,24,478
40.63630,-0.14140,0.28735,0.00000,0.03001,0.97441,-0.19105,0.0,2023,6,7,14,35,24,488
40.63640,-0.01890,-0.29015,0.00000,0.03087,0.97624,-0.18971,0.0,2023,6,7,14,35,24,498
40.63650,0.06860,-0.08015,0.00000,0.03026,0.97649,-0.19044,0.0,2023,6,7,14,35,24,508
40.63660,0.03360,-0.08015,0.00000,0.02977,0.97515,-0.19081,0.0,2023,6,7,14,35,24,518
40.63670,0.01610,-0.01015,0.00000,0.03062,0.97612,-0.19239,0.0,2023,6,7,14,35,24,528
40.63680,-0.07140,0.14735,0.00000,0.03172,0.97563,-0.19166,0.0,2023,6,7,14,35,24,538
40.63690,0.05110,-0.02765,0.00000,0.03172,0.97710,-0.19227,0.0,2023,6,7,14,35,24,548
40.63700,0.08610,-0.15015,0.00000,0.03416,0.97734,-0.19032,0.0,2023,6,7,14,35,24,558
40.63710,-0.08890,0.04235,0.00000,0.03087,0.97698,-0.19154,0.0,2023,6,7,14,35,24,568
40.63720,0.20860,-0.02765,0.00000,0.02855,0.97942,-0.18983,0.0,2023,6,7,14,35,24,578
40.63730,-0.01890,-0.04515,0.00000,0.03013,0.97612,-0.19105,0.0,2023,6,7,14,35,24,588
40.63740,0.05110,0.04235,0.00000,0.03026,0.97576,-0.19117,0.0,2023,6,7,14,35,24,598
40.63750,0.10360,0.11235,0.00000,0.03038,0.97563,-0.19154,0.0,2023,6,7,14,35,24,608
40.63760,0.17360,-0.04515,0.00000,0.03099,0.97502,-0.19191,0.0,2023,6,7,14,35,24,618
40.63770,0.01610,0.00735,0.00000,0.03257,0.97759,-0.19056,0.0,2023,6,7,14,35,24,628
40.63780,0.12110,0.04235,0.00000,0.03123,0.97600,-0.19093,0.0,2023,6,7,14,35,24,638
40.63790,0.01610,-0.20265,0.00000,0.03087,0.97637,-0.18922,0.0,2023,6,7,14,35,24,648
40.63800,-0.15890,0.12985,0.00000,0.03111,0.97454,-0.19288,0.0,2023,6,7,14,35,24,658
40.63810,-0.01890,-0.01015,0.00000,0.03196,0.97771,-0.19105,0.0,2023,6,7,14,35,24,668
40.63820,-0.15890,0.09485,0.00000,0.03038,0.97563,-0.18934,0.0,2023,6,7,14,35,24,678
40.63830,0.22610,-0.06265,0.00000,0.03111,0.97466,-0.19349,0.0,2023,6,7,14,35,24,688
40.63840,-0.10640,0.05985,0.00000,0.03111,0.97624,-0.18947,0.0,2023,6,7,14,35,24,698
40.63850,-0.07140,-0.11515,0.00000,0.03233,0.97722,-0.18971,0.0,2023,6,7,14,35,24,708
40.63860,0.12110,-0.16765,0.00000,0.03257,0.97637,-0.18825,0.0,2023,6,7,14,35,24,718
40.63870,-0.01890,0.04235,0.00000,0.03379,0.97612,-0.18983,0.0,2023,6,7,14,35,24,728
40.63880,-0.03640,-0.02765,0.00000,0.03209,0.97441,-0.18983,0.0,2023,6,7,14,35,24,738
40.63890,-0.05390,0.07735,0.00000,0.03135,0.97478,-0.19032,0.0,2023,6,7,14,35,24,748
40.63900,0.06860,0.11235,0.00000,0.03050,0.97673,-0.19081,0.0,2023,6,7,14,35,24,758
40.63910,0.01610,-0.18515,0.00000,0.03123,0.97698,-0.19008,0.0,2023,6,7,14,35,24,768
40.63920,0.01610,0.23485,0.00000,0.03135,0.97746,-0.18812,0.0,2023,6,7,14,35,24,778
40.63930,0.20860,-0.02765,0.00000,0.03355,0.97698,-0.18947,0.0,2023,6,7,14,35,24,788
40.63940,0.01610,0.09485,0.00000,0.03209,0.97698,-0.18849,0.0,2023,6,7,14,35,24,798
40.63950,-0.05390,0.19985,0.00000,0.03148,0.97746,-0.19178,0.0,2023,6,7,14,35,24,808
40.63960,0.05110,-0.06265,0.00000,0.03270,0.97563,-0.18971,0.0,2023,6,7,14,35,24,818
40.63970,-0.08890,-0.06265,0.00000,0.02989,0.97624,-0.18983,0.0,2023,6,7,14,35,24,828
40.63980,-0.22890,0.04235,0.00000,0.03172,0.97722,-0.18983,0.0,2023,6,7,14,35,24,838
40.63990,0.01610,-0.11515,0.00000,0.03209,0.97820,-0.18788,0.0,2023,6,7,14,35,24,848
40.64000,-0.17640,0.05985,0.00000,0.03160,0.97710,-0.19130,0.0,2023,6,7,14,35,24,858
40.64010,-0.01890,-0.08015,0.00000,0.02989,0.97844,-0.19093,0.0,2023,6,7,14,35,24,868
40.64020,0.08610,0.02485,0.00000,0.03306,0.97673,-0.19020,0.0,2023,6,7,14,35,24,878
40.64030,0.05110,0.18235,0.00000,0.03196,0.97637,-0.18947,0.0,2023,6,7,14,35,24,888
40.64040,0.15610,-0.11515,0.00000,0.03270,0.97466,-0.18886,0.0,2023,6,7,14,35,24,898
40.64050,-0.01890,-0.04515,0.00000,0.03160,0.97600,-0.18983,0.0,2023,6,7,14,35,24,908
40.64060,0.03360,0.00735,0.00000,0.03294,0.97551,-0.18947,0.0,2023,6,7,14,35,24,918
40.64070,-0.08890,-0.04515,0.00000,0.03172,0.97600,-0.18873,0.0,2023,6,7,14,35,24,928
40.64080,-0.03640,-0.13265,0.00000,0.03245,0.97380,-0.18922,0.0,2023,6,7,14,35,24,938
40.64090,-0.00140,-0.16765,0.00000,0.03062,0.97881,-0.18800,0.0,2023,6,7,14,35,24,948
40.64100,-0.00140,0.00735,0.00000,0.03160,0.97539,-0.19154,0.0,2023,6,7,14,35,24,958
40.64110,-0.00140,-0.01015,0.00000,0.03270,0.97490,-0.18739,0.0,2023,6,7,14,35,24,968
40.64120,0.20860,-0.18515,0.00000,0.03013,0.97698,-0.19093,0.0,2023,6,7,14,35,24,978
40.64130,-0.14140,-0.04515,0.00000,0.03160,0.97746,-0.18910,0.0,2023,6,7,14,35,24,988
40.64140,0.03360,-0.02765,0.00000,0.03257,0.97478,-0.19117,0.0,2023,6,7,14,35,24,998
40.64150,0.10360,-0.02765,0.00000,0.03209,0.97795,-0.18886,0.0,2023,6,7,14,35,24,8
40.64160,0.08610,-0.13265,0.00000,0.03343,0.97612,-0.19105,0.0,2023,6,7,14,35,24,18
40.64170,0.01610,0.00735,0.00000,0.03221,0.97710,-0.19044,0.0,2023,6,7,14,35,24,28
40.64180,-0.03640,-0.06265,0.00000,0.03062,0.97576,-0.18959,0.0,2023,6,7,14,35,24,38
40.64190,0.22610,-0.16765,0.00000,0.03233,0.97490,-0.18898,0.0,2023,6,7,14,35,24,48
40.64200,-0.15890,0.12985,0.00000,0.03148,0.97734,-0.19154,0.0,2023,6,7,14,35,24,58
40.64210,-0.17640,0.00735,0.00000,0.03148,0.97698,-0.18995,0.0,2023,6,7,14,35,24,68
40.64220,-0.10640,0.25235,0.00000,0.03184,0.98003,-0.18959,0.0,2023,6,7,14,35,24,78
40.64230,0.19110,-0.16765,0.00000,0.03270,0.97783,-0.18947,0.0,2023,6,7,14,35,24,88
40.64240,-0.10640,0.14735,0.00000,0.03233,0.97649,-0.18910,0.0,2023,6,7,14,35,24,98
40.64250,0.01610,-0.06265,0.00000,0.03087,0.97612,-0.18861,0.0,2023,6,7,14,35,24,108
40.64260,-0.12390,0.16485,0.00000,0.03209,0.97649,-0.18812,0.0,2023,6,7,14,35,24,118
40.64270,0.01610,-0.02765,0.00000,0.02989,0.97746,-0.18910,0.0,2023,6,7,14,35,24,128
40.64280,0.08610,0.16485,0.00000,0.02965,0.97600,-0.18556,0.0,2023,6,7,14,35,24,138
40.64290,-0.17640,0.16485,0.00000,0.03233,0.97588,-0.18873,0.0,2023,6,7,14,35,24,148
40.64300,-0.10640,-0.01015,0.00000,0.03196,0.97673,-0.18886,0.0,2023,6,7,14,35,24,158
40.64310,-0.00140,0.23485,0.00000,0.03184,0.97612,-0.18678,0.0,2023,6,7,14,35,24,168
40.64320,-0.00140,-0.01015,0.00000,0.03221,0.97515,-0.19032,0.0,2023,6,7,14,35,24,178
40.64330,0.15610,-0.06265,0.00000,0.02940,0.97966,-0.18812,0.0,2023,6,7,14,35,24,188
40.64340,0.08610,-0.13265,0.00000,0.03196,0.97685,-0.19020,0.0,2023,6,7,14,35,24,198
40.64350,0.06860,-0.09765,0.00000,0.03416,0.97624,-0.18922,0.0,2023,6,7,14,35,24,208
40.64360,0.13860,0.07735,0.00000,0.03160,0.97527,-0.18947,0.0,2023,6,7,14,35,24,218
40.64370,0.12110,-0.08015,0.00000,0.03099,0.97759,-0.18922,0.0,2023,6,7,14,35,24,228
40.64380,-0.10640,-0.15015,0.00000,0.03148,0.97710,-0.18825,0.0,2023,6,7,14,35,24,238
40.64390,-0.08890,-0.04515,0.00000,0.03404,0.97624,-0.18947,0.0,2023,6,7,14,35,24,248
40.64400,0.17360,-0.11515,0.00000,0.03038,0.97637,-0.18825,0.0,2023,6,7,14,35,24,258
40.64410,0.17360,-0.22015,0.00000,0.03111,0.97685,-0.18898,0.0,2023,6,7,14,35,24,268
40.64420,0.05110,0.16485,0.00000,0.03123,0.97710,-0.18873,0.0,2023,6,7,14,35,24,278
40.64430,-0.00140,0.02485,0.00000,0.03270,0.97661,-0.18898,0.0,2023,6,7,14,35,24,288
40.64440,-0.03640,0.00735,0.00000,0.03245,0.97771,-0.18751,0.0,2023,6,7,14,35,24,298
40.64450,0.13860,0.02485,0.00000,0.03392,0.97649,-0.19130,0.0,2023,6,7,14,35,24,308
40.64460,-0.01890,-0.06265,0.00000,0.03001,0.97624,-0.18910,0.0,2023,6,7,14,35,24,318
40.64470,-0.19390,-0.13265,0.00000,0.03111,0.97746,-0.18910,0.0,2023,6,7,14,35,24,328
40.64480,-0.15890,0.02485,0.00000,0.03233,0.97612,-0.18788,0.0,2023,6,7,14,35,24,338
40.64490,-0.05390,0.14735,0.00000,0.03123,0.97576,-0.18715,0.0,2023,6,7,14,35,24,348
40.64500,0.01610,0.19985,0.00000,0.03001,0.97502,-0.19178,0.0,2023,6,7,14,35,24,358
40.64510,-0.08890,0.02485,0.00000,0.03184,0.97673,-0.18898,0.0,2023,6,7,14,35,24,368
40.64520,-0.10640,-0.01015,0.00000,0.02965,0.97771,-0.18800,0.0,2023,6,7,14,35,24,378
40.64530,0.10360,0.16485,0.00000,0.03343,0.97771,-0.18678,0.0,2023,6,7,14,35,25,388
40.64540,0.06860,0.00735,0.00000,0.03111,0.97466,-0.19008,0.0,2023,6,7,14,35,25,398
40.64550,0.06860,-0.13265,0.00000,0.03404,0.97600,-0.18849,0.0,2023,6,7,14,35,25,408
40.64560,0.13860,-0.29015,0.00000,0.03013,0.97612,-0.18739,0.0,2023,6,7,14,35,25,418
40.64570,0.01610,-0.04515,0.00000,0.03038,0.97844,-0.19239,0.0,2023,6,7,14,35,25,428
40.64580,-0.19390,0.11235,0.00000,0.03099,0.97576,-0.19142,0.0,2023,6,7,14,35,25,438
40.64590,0.08610,-0.04515,0.00000,0.03111,0.97417,-0.18934,0.0,2023,6,7,14,35,25,448
40.64600,0.05110,0.07735,0.00000,0.03221,0.97502,-0.18788,0.0,2023,6,7,14,35,25,458
40.64610,0.03360,-0.08015,0.00000,0.03038,0.97429,-0.18971,0.0,2023,6,7,14,35,25,468
40.64620,-0.07140,0.14735,0.00000,0.03026,0.97527,-0.19008,0.0,2023,6,7,14,35,25,478
40.64630,0.01610,-0.09765,0.00000,0.02904,0.97771,-0.18983,0.0,2023,6,7,14,35,25,488
40.64640,-0.07140,0.11235,0.00000,0.03209,0.97588,-0.18873,0.0,2023,6,7,14,35,25,498
40.64650,0.03360,0.30485,0.00000,0.03038,0.97466,-0.18983,0.0,2023,6,7,14,35,25,508
40.64660,-0.10640,0.07735,0.00000,0.03135,0.97673,-0.19093,0.0,2023,6,7,14,35,25,518
40.64670,-0.19390,0.07735,0.00000,0.03026,0.97661,-0.18971,0.0,2023,6,7,14,35,25,528
40.64680,-0.15890,-0.01015,0.00000,0.03160,0.97502,-0.19081,0.0,2023,6,7,14,35,25,538
40.64690,0.10360,-0.11515,0.00000,0.03172,0.97405,-0.18873,0.0,2023,6,7,14,35,25,548
40.64700,0.13860,-0.11515,0.00000,0.03575,0.97820,-0.18849,0.0,2023,6,7,14,35,25,558
40.64710,0.06860,-0.11515,0.00000,0.02916,0.97722,-0.19020,0.0,2023,6,7,14,35,25,568
40.64720,0.06860,-0.08015,0.00000,0.03245,0.97722,-0.19081,0.0,2023,6,7,14,35,25,578
40.64730,0.05110,-0.11515,0.00000,0.03282,0.97710,-0.18788,0.0,2023,6,7,14,35,25,588
40.64740,-0.07140,-0.06265,0.00000,0.03270,0.97649,-0.19069,0.0,2023,6,7,14,35,25,598
40.64750,-0.10640,0.02485,0.00000,0.03135,0.97551,-0.19093,0.0,2023,6,7,14,35,25,608
40.64760,0.12110,-0.30765,0.00000,0.03001,0.97734,-0.19044,0.0,2023,6,7,14,35,25,618
40.64770,-0.05390,-0.04515,0.00000,0.03123,0.97710,-0.19044,0.0,2023,6,7,14,35,25,628
40.64780,-0.05390,-0.11515,0.00000,0.03160,0.97624,-0.19044,0.0,2023,6,7,14,35,25,638
40.64790,-0.00140,-0.16765,0.00000,0.03148,0.97515,-0.19081,0.0,2023,6,7,14,35,25,648
40.64800,-0.17640,0.21735,0.00000,0.02952,0.97563,-0.19093,0.0,2023,6,7,14,35,25,658
40.64810,-0.10640,-0.09765,0.00000,0.03135,0.97722,-0.19105,0.0,2023,6,7,14,35,25,668
40.64820,-0.05390,0.00735,0.00000,0.03062,0.97868,-0.18849,0.0,2023,6,7,14,35,25,678
40.64830,-0.10640,0.19985,0.00000,0.03257,0.97820,-0.18910,0.0,2023,6,7,14,35,25,688
40.64840,-0.00140,0.05985,0.00000,0.03294,0.97490,-0.18812,0.0,2023,6,7,14,35,25,698
40.64850,-0.05390,0.16485,0.00000,0.03294,0.97698,-0.18959,0.0,2023,6,7,14,35,25,708
40.64860,0.06860,-0.18515,0.00000,0.03306,0.97734,-0.18849,0.0,2023,6,7,14,35,25,718
40.64870,-0.15890,0.18235,0.00000,0.03026,0.97881,-0.19056,0.0,2023,6,7,14,35,25,728
40.64880,-0.12390,0.04235,0.00000,0.03001,0.97783,-0.18971,0.0,2023,6,7,14,35,25,738
40.64890,-0.01890,-0.11515,0.00000,0.03318,0.97661,-0.18959,0.0,2023,6,7,14,35,25,748
40.64900,0.03360,-0.13265,0.00000,0.03196,0.97746,-0.19178,0.0,2023,6,7,14,35,25,758
40.64910,-0.19390,-0.01015,0.00000,0.03331,0.97344,-0.19032,0.0,2023,6,7,14,35,25,768
40.64920,0.08610,0.16485,0.00000,0.03282,0.97612,-0.19386,0.0,2023,6,7,14,35,25,778
40.64930,-0.10640,-0.11515,0.00000,0.03135,0.97563,-0.18995,0.0,2023,6,7,14,35,25,788
40.64940,-0.03640,0.16485,0.00000,0.03221,0.97356,-0.19032,0.0,2023,6,7,14,35,25,798
40.64950,0.19110,-0.09765,0.00000,0.03209,0.97515,-0.19008,0.0,2023,6,7,14,35,25,808
40.64960,-0.08890,-0.18515,0.00000,0.03331,0.97576,-0.18947,0.0,2023,6,7,14,35,25,818
40.64970,-0.08890,0.07735,0.00000,0.03172,0.97612,-0.18995,0.0,2023,6,7,14,35,25,828
40.64980,0.05110,-0.06265,0.00000,0.03306,0.97563,-0.19032,0.0,2023,6,7,14,35,25,838
40.64990,-0.08890,0.04235,0.00000,0.03184,0.97649,-0.19215,0.0,2023,6,7,14,35,25,848
40.65000,-0.07140,-0.08015,0.00000,0.03196,0.97539,-0.18873,0.0,2023,6,7,14,35,25,858
40.65010,-0.01890,0.02485,0.00000,0.03196,0.97466,-0.18983,0.0,2023,6,7,14,35,25,868
40.65020,-0.12390,-0.06265,0.00000,0.03343,0.97734,-0.18959,0.0,2023,6,7,14,35,25,878
40.65030,-0.08890,0.00735,0.00000,0.03160,0.97502,-0.18849,0.0,2023,6,7,14,35,25,888
40.65040,-0.07140,-0.02765,0.00000,0.03465,0.97710,-0.19130,0.0,2023,6,7,14,35,25,898
40.65050,-0.14140,-0.08015,0.00000,0.03026,0.97710,-0.19081,0.0,2023,6,7,14,35,25,908
40.65060,0.08610,-0.08015,0.00000,0.03404,0.97698,-0.19044,0.0,2023,6,7,14,35,25,918
40.65070,0.03360,0.12985,0.00000,0.03221,0.97637,-0.18837,0.0,2023,6,7,14,35,25,928
40.65080,-0.07140,0.09485,0.00000,0.02928,0.97734,-0.19093,0.0,2023,6,7,14,35,25,938
40.65090,-0.03640,0.12985,0.00000,0.03026,0.97527,-0.19203,0.0,2023,6,7,14,35,25,948
40.65100,0.01610,-0.04515,0.00000,0.03172,0.97539,-0.18727,0.0,2023,6,7,14,35,25,958
40.65110,0.01610,-0.01015,0.00000,0.03270,0.97405,-0.18922,0.0,2023,6,7,14,35,25,968
40.65120,0.08610,-0.23765,0.00000,0.03233,0.97649,-0.19069,0.0,2023,6,7,14,35,25,978
40.65130,-0.07140,-0.08015,0.00000,0.03282,0.97734,-0.18849,0.0,2023,6,7,14,35,25,988
40.65140,-0.10640,-0.04515,0.00000,0.03233,0.97746,-0.18764,0.0,2023,6,7,14,35,25,998
40.65150,0.06860,0.11235,0.00000,0.03233,0.97637,-0.18776,0.0,2023,6,7,14,35,25,8
40.65160,0.06860,-0.09765,0.00000,0.03148,0.97661,-0.18947,0.0,2023,6,7,14,35,25,18
40.65170,-0.05390,-0.11515,0.00000,0.03343,0.97539,-0.18947,0.0,2023,6,7,14,35,25,28
40.65180,-0.17640,-0.06265,0.00000,0.03099,0.97673,-0.18861,0.0,2023,6,7,14,35,25,38
40.65190,-0.05390,-0.04515,0.00000,0.03123,0.97759,-0.18751,0.0,2023,6,7,14,35,25,48
40.65200,-0.07140,0.04235,0.00000,0.03013,0.97685,-0.18971,0.0,2023,6,7,14,35,25,58
40.65210,0.05110,0.16485,0.00000,0.03123,0.97649,-0.18995,0.0,2023,6,7,14,35,25,68
40.65220,-0.24640,0.19985,0.00000,0.03050,0.97515,-0.18776,0.0,2023,6,7,14,35,25,78
40.65230,0.19110,-0.06265,0.00000,0.03257,0.97600,-0.18825,0.0,2023,6,7,14,35,25,88
40.65240,-0.07140,0.05985,0.00000,0.03099,0.97649,-0.19008,0.0,2023,6,7,14,35,25,98
40.65250,-0.03640,0.07735,0.00000,0.03209,0.97624,-0.18666,0.0,2023,6,7,14,35,25,108
40.65260,-0.03640,-0.02765,0.00000,0.03062,0.97698,-0.18800,0.0,2023,6,7,14,35,25,118
40.65270,0.06860,-0.06265,0.00000,0.03233,0.97698,-0.18727,0.0,2023,6,7,14,35,25,128
40.65280,-0.08890,-0.01015,0.00000,0.03245,0.97649,-0.18898,0.0,2023,6,7,14,35,25,138
40.65290,0.05110,0.00735,0.00000,0.03428,0.97722,-0.18873,0.0,2023,6,7,14,35,25,148
40.65300,0.06860,-0.18515,0.00000,0.03282,0.97454,-0.19069,0.0,2023,6,7,14,35,25,158
40.65310,-0.07140,-0.02765,0.00000,0.03245,0.97612,-0.19093,0.0,2023,6,7,14,35,25,168
40.65320,0.08610,0.19985,0.00000,0.03196,0.97844,-0.18971,0.0,2023,6,7,14,35,25,178
40.65330,-0.07140,-0.11515,0.00000,0.03196,0.97551,-0.19008,0.0,2023,6,7,14,35,25,188
40.65340,0.12110,0.05985,0.00000,0.03050,0.97515,-0.18898,0.0,2023,6,7,14,35,25,198
40.65350,0.08610,0.02485,0.00000,0.03221,0.97673,-0.18873,0.0,2023,6,7,14,35,25,208
40.65360,0.12110,-0.13265,0.00000,0.03111,0.97820,-0.18886,0.0,2023,6,7,14,35,25,218
40.65370,0.03360,0.04235,0.00000,0.03184,0.97539,-0.18971,0.0,2023,6,7,14,35,25,228
40.65380,0.17360,-0.20265,0.00000,0.03111,0.97490,-0.19044,0.0,2023,6,7,14,35,25,238
40.65390,-0.07140,0.05985,0.00000,0.03196,0.97478,-0.18800,0.0,2023,6,7,14,35,25,248
40.65400,0.03360,0.09485,0.00000,0.03038,0.97576,-0.18910,0.0,2023,6,7,14,35,25,258
40.65410,0.12110,0.07735,0.00000,0.02977,0.97820,-0.19044,0.0,2023,6,7,14,35,25,268
40.65420,-0.01890,-0.06265,0.00000,0.03026,0.97563,-0.18995,0.0,2023,6,7,14,35,26,278
40.65430,-0.01890,-0.06265,0.00000,0.03160,0.97637,-0.18873,0.0,2023,6,7,14,35,26,288
40.65440,-0.08890,0.05985,0.00000,0.03184,0.97637,-0.18947,0.0,2023,6,7,14,35,26,298
40.65450,0.06860,-0.06265,0.00000,0.03184,0.97795,-0.18861,0.0,2023,6,7,14,35,26,308
40.65460,0.17360,0.11235,0.00000,0.03196,0.97905,-0.18861,0.0,2023,6,7,14,35,26,318
40.65470,-0.17640,-0.11515,0.00000,0.03135,0.97710,-0.19081,0.0,2023,6,7,14,35,26,328
40.65480,-0.14140,0.05985,0.00000,0.03331,0.97759,-0.18800,0.0,2023,6,7,14,35,26,338
40.65490,-0.21140,-0.16765,0.00000,0.03111,0.97551,-0.18849,0.0,2023,6,7,14,35,26,348
40.65500,-0.10640,0.09485,0.00000,0.03245,0.97551,-0.18886,0.0,2023,6,7,14,35,26,358
40.65510,-0.24640,0.12985,0.00000,0.03184,0.97563,-0.18971,0.0,2023,6,7,14,35,26,368
40.65520,0.08610,0.02485,0.00000,0.03209,0.97624,-0.19056,0.0,2023,6,7,14,35,26,378
40.65530,0.19110,-0.11515,0.00000,0.03392,0.97624,-0.18971,0.0,2023,6,7,14,35,26,388
40.65540,-0.05390,0.19985,0.00000,0.03294,0.97600,-0.18934,0.0,2023,6,7,14,35,26,398
40.65550,0.10360,-0.01015,0.00000,0.03099,0.97588,-0.19130,0.0,2023,6,7,14,35,26,408
40.65560,0.13860,0.05985,0.00000,0.03221,0.97673,-0.19008,0.0,2023,6,7,14,35,26,418
40.65570,0.13860,0.00735,0.00000,0.03172,0.97600,-0.18947,0.0,2023,6,7,14,35,26,428
40.65580,0.08610,-0.09765,0.00000,0.03074,0.97759,-0.19020,0.0,2023,6,7,14,35,26,438
40.65590,-0.00140,0.05985,0.00000,0.03172,0.97722,-0.18825,0.0,2023,6,7,14,35,26,448
40.65600,-0.19390,0.21735,0.00000,0.03233,0.97600,-0.18837,0.0,2023,6,7,14,35,26,458
40.65610,0.01610,0.19985,0.00000,0.02952,0.97637,-0.18886,0.0,2023,6,7,14,35,26,468
40.65620,-0.35140,0.21735,0.00000,0.03257,0.97637,-0.18861,0.0,2023,6,7,14,35,26,478
40.65630,0.01610,-0.13265,0.00000,0.03331,0.97685,-0.19069,0.0,2023,6,7,14,35,26,488
40.65640,0.01610,0.12985,0.00000,0.03038,0.97502,-0.18995,0.0,2023,6,7,14,35,26,498
40.65650,-0.08890,-0.13265,0.00000,0.03111,0.97527,-0.18861,0.0,2023,6,7,14,35,26,508
40.65660,-0.08890,-0.08015,0.00000,0.03087,0.97734,-0.18788,0.0,2023,6,7,14,35,26,518
40.65670,0.06860,-0.11515,0.00000,0.03062,0.97478,-0.19081,0.0,2023,6,7,14,35,26,528
40.65680,0.03360,0.02485,0.00000,0.03318,0.97661,-0.18654,0.0,2023,6,7,14,35,26,538
40.65690,0.20860,0.02485,0.00000,0.03294,0.97722,-0.18812,0.0,2023,6,7,14,35,26,548
40.65700,-0.00140,-0.02765,0.00000,0.03148,0.97661,-0.18764,0.0,2023,6,7,14,35,26,558
40.65710,-0.15890,-0.06265,0.00000,0.03306,0.97759,-0.19032,0.0,2023,6,7,14,35,26,568
40.65720,0.10360,0.00735,0.00000,0.03233,0.97283,-0.18922,0.0,2023,6,7,14,35,26,578
40.65730,0.05110,-0.01015,0.00000,0.02879,0.97576,-0.18886,0.0,2023,6,7,14,35,26,588
40.65740,-0.07140,0.16485,0.00000,0.02940,0.97600,-0.18764,0.0,2023,6,7,14,35,26,598
40.65750,0.08610,0.07735,0.00000,0.03050,0.97515,-0.18776,0.0,2023,6,7,14,35,26,608
40.65760,0.13860,-0.09765,0.00000,0.03148,0.97624,-0.18995,0.0,2023,6,7,14,35,26,618
40.65770,-0.19390,0.19985,0.00000,0.03135,0.97307,-0.19130,0.0,2023,6,7,14,35,26,628
40.65780,0.10360,0.02485,0.00000,0.03221,0.97490,-0.19081,0.0,2023,6,7,14,35,26,638
40.65790,0.10360,-0.15015,0.00000,0.03343,0.97478,-0.18910,0.0,2023,6,7,14,35,26,648
40.65800,-0.15890,0.19985,0.00000,0.03135,0.97612,-0.18934,0.0,2023,6,7,14,35,26,658
40.65810,0.06860,0.02485,0.00000,0.03062,0.97600,-0.18934,0.0,2023,6,7,14,35,26,668
40.65820,-0.00140,0.02485,0.00000,0.03270,0.97405,-0.18800,0.0,2023,6,7,14,35,26,678
40.65830,-0.03640,-0.08015,0.00000,0.02952,0.97722,-0.18739,0.0,2023,6,7,14,35,26,688
40.65840,-0.00140,0.25235,0.00000,0.03074,0.97661,-0.18861,0.0,2023,6,7,14,35,26,698
40.65850,-0.07140,-0.06265,0.00000,0.03233,0.97600,-0.18849,0.0,2023,6,7,14,35,26,708
40.65860,-0.07140,-0.16765,0.00000,0.03172,0.97612,-0.19191,0.0,2023,6,7,14,35,26,718
40.65870,-0.03640,-0.06265,0.00000,0.03257,0.97600,-0.18983,0.0,2023,6,7,14,35,26,728
40.65880,-0.22890,-0.01015,0.00000,0.03294,0.97868,-0.18947,0.0,2023,6,7,14,35,26,738
40.65890,-0.24640,0.02485,0.00000,0.03135,0.97563,-0.19093,0.0,2023,6,7,14,35,26,748
40.65900,-0.00140,-0.09765,0.00000,0.03123,0.97685,-0.19081,0.0,2023,6,7,14,35,26,758
40.65910,0.05110,-0.32515,0.00000,0.03074,0.97515,-0.19154,0.0,2023,6,7,14,35,26,768
40.65920,-0.07140,0.04235,0.00000,0.03221,0.97795,-0.18776,0.0,2023,6,7,14,35,26,778
40.65930,0.01610,-0.08015,0.00000,0.03123,0.97624,-0.18715,0.0,2023,6,7,14,35,26,788
40.65940,0.24360,-0.16765,0.00000,0.03196,0.97649,-0.18800,0.0,2023,6,7,14,35,26,798
40.65950,-0.19390,0.18235,0.00000,0.03135,0.97588,-0.19093,0.0,2023,6,7,14,35,26,808
40.65960,0.01610,-0.01015,0.00000,0.03184,0.97783,-0.18690,0.0,2023,6,7,14,35,26,818
40.65970,-0.07140,0.05985,0.00000,0.03184,0.97673,-0.18861,0.0,2023,6,7,14,35,26,828
40.65980,0.08610,-0.15015,0.00000,0.03038,0.97478,-0.18971,0.0,2023,6,7,14,35,26,838
40.65990,0.15610,-0.30765,0.00000,0.03270,0.97417,-0.19020,0.0,2023,6,7,14,35,26,848
40.66000,-0.07140,0.11235,0.00000,0.03062,0.97746,-0.18812,0.0,2023,6,7,14,35,26,858
40.66010,0.05110,0.02485,0.00000,0.03099,0.97832,-0.18995,0.0,2023,6,7,14,35,26,868
40.66020,0.03360,-0.16765,0.00000,0.03172,0.97612,-0.18959,0.0,2023,6,7,14,35,26,878
40.66030,0.05110,-0.01015,0.00000,0.03123,0.97954,-0.18886,0.0,2023,6,7,14,35,26,888
40.66040,0.13860,-0.16765,0.00000,0.03331,0.97698,-0.18959,0.0,2023,6,7,14,35,26,898
40.66050,0.01610,-0.18515,0.00000,0.03306,0.97563,-0.18947,0.0,2023,6,7,14,35,26,908
40.66060,-0.10640,0.12985,0.00000,0.03013,0.97722,-0.18617,0.0,2023,6,7,14,35,26,918
40.66070,-0.08890,-0.08015,0.00000,0.03233,0.97685,-0.19069,0.0,2023,6,7,14,35,26,928
40.66080,0.01610,-0.04515,0.00000,0.03111,0.97820,-0.19093,0.0,2023,6,7,14,35,26,938
40.66090,0.05110,0.05985,0.00000,0.03038,0.97612,-0.18812,0.0,2023,6,7,14,35,26,948
40.66100,-0.17640,-0.04515,0.00000,0.03123,0.97746,-0.18715,0.0,2023,6,7,14,35,26,958
40.66110,0.08610,-0.20265,0.00000,0.03026,0.97588,-0.18886,0.0,2023,6,7,14,35,26,968
40.66120,-0.00140,0.16485,0.00000,0.03074,0.97429,-0.18922,0.0,2023,6,7,14,35,26,978
40.66130,0.03360,-0.23765,0.00000,0.03257,0.97515,-0.19020,0.0,2023,6,7,14,35,26,988
40.66140,-0.10640,0.11235,0.00000,0.03318,0.97722,-0.18800,0.0,2023,6,7,14,35,26,998
40.66150,-0.00140,-0.01015,0.00000,0.03282,0.97783,-0.18947,0.0,2023,6,7,14,35,26,8
40.66160,-0.07140,-0.06265,0.00000,0.03184,0.97429,-0.18934,0.0,2023,6,7,14,35,26,18
40.66170,-0.03640,-0.16765,0.00000,0.03184,0.97563,-0.18922,0.0,2023,6,7,14,35,26,28
40.66180,-0.05390,-0.02765,0.00000,0.03062,0.97576,-0.18776,0.0,2023,6,7,14,35,26,38
40.66190,0.19110,-0.01015,0.00000,0.03160,0.97624,-0.18898,0.0,2023,6,7,14,35,26,48
40.66200,0.10360,0.04235,0.00000,0.03184,0.97344,-0.18825,0.0,2023,6,7,14,35,26,58
40.66210,-0.05390,-0.01015,0.00000,0.03294,0.97649,-0.18995,0.0,2023,6,7,14,35,26,68
40.66220,-0.01890,0.04235,0.00000,0.03111,0.97734,-0.18739,0.0,2023,6,7,14,35,26,78
40.66230,-0.05390,-0.02765,0.00000,0.03172,0.97649,-0.18971,0.0,2023,6,7,14,35,26,88
40.66240,-0.00140,0.02485,0.00000,0.03233,0.97515,-0.18971,0.0,2023,6,7,14,35,26,98
40.66250,0.08610,-0.02765,0.00000,0.03099,0.97710,-0.18825,0.0,2023,6,7,14,35,26,108
40.66260,-0.03640,-0.06265,0.00000,0.03245,0.97783,-0.18837,0.0,2023,6,7,14,35,26,118
40.66270,0.13860,0.00735,0.00000,0.03160,0.97661,-0.19056,0.0,2023,6,7,14,35,26,128
40.66280,0.12110,0.02485,0.00000,0.03440,0.97673,-0.18861,0.0,2023,6,7,14,35,26,138
40.66290,0.06860,0.00735,0.00000,0.02977,0.97637,-0.18715,0.0,2023,6,7,14,35,26,148
40.66300,-0.03640,0.11235,0.00000,0.03148,0.97600,-0.18800,0.0,2023,6,7,14,35,26,158
40.66310,-0.00140,0.00735,0.00000,0.03087,0.97515,-0.19008,0.0,2023,6,7,14,35,27,168
40.66320,-0.10640,0.16485,0.00000,0.03306,0.97576,-0.18959,0.0,2023,6,7,14,35,27,178
40.66330,-0.14140,-0.18515,0.00000,0.03294,0.97771,-0.19032,0.0,2023,6,7,14,35,27,188
40.66340,0.06860,0.18235,0.00000,0.03074,0.97759,-0.18849,0.0,2023,6,7,14,35,27,198
40.66350,-0.07140,0.05985,0.00000,0.03123,0.97478,-0.19020,0.0,2023,6,7,14,35,27,208
40.66360,-0.01890,-0.06265,0.00000,0.03135,0.97551,-0.18849,0.0,2023,6,7,14,35,27,218
40.66370,-0.10640,-0.22015,0.00000,0.03160,0.97551,-0.18886,0.0,2023,6,7,14,35,27,228
40.66380,-0.05390,0.04235,0.00000,0.03343,0.97661,-0.18959,0.0,2023,6,7,14,35,27,238
40.66390,0.19110,0.00735,0.00000,0.03428,0.97563,-0.19093,0.0,2023,6,7,14,35,27,248
40.66400,-0.00140,-0.18515,0.00000,0.03196,0.97551,-0.18910,0.0,2023,6,7,14,35,27,258
40.66410,-0.07140,-0.06265,0.00000,0.03343,0.97673,-0.19130,0.0,2023,6,7,14,35,27,268
40.66420,0.03360,0.00735,0.00000,0.02952,0.97624,-0.19056,0.0,2023,6,7,14,35,27,278
40.66430,0.01610,0.12985,0.00000,0.03074,0.97844,-0.19044,0.0,2023,6,7,14,35,27,288
40.66440,0.27860,-0.06265,0.00000,0.03270,0.97637,-0.19044,0.0,2023,6,7,14,35,27,298
40.66450,-0.10640,-0.08015,0.00000,0.03160,0.97527,-0.18910,0.0,2023,6,7,14,35,27,308
40.66460,-0.07140,0.14735,0.00000,0.03282,0.97795,-0.18886,0.0,2023,6,7,14,35,27,318
40.66470,0.08610,0.04235,0.00000,0.03343,0.97563,-0.18837,0.0,2023,6,7,14,35,27,328
40.66480,0.08610,0.04235,0.00000,0.03111,0.97612,-0.19044,0.0,2023,6,7,14,35,27,338
40.66490,-0.00140,0.05985,0.00000,0.03392,0.97771,-0.19020,0.0,2023,6,7,14,35,27,348
40.66500,-0.10640,-0.06265,0.00000,0.03099,0.97710,-0.18922,0.0,2023,6,7,14,35,27,358
40.66510,-0.07140,-0.01015,0.00000,0.03209,0.97661,-0.18886,0.0,2023,6,7,14,35,27,368
40.66520,-0.07140,0.02485,0.00000,0.03111,0.97893,-0.18837,0.0,2023,6,7,14,35,27,378
40.66530,-0.14140,-0.04515,0.00000,0.03135,0.97820,-0.18861,0.0,2023,6,7,14,35,27,388
40.66540,-0.07140,-0.01015,0.00000,0.03428,0.97637,-0.19020,0.0,2023,6,7,14,35,27,398
40.66550,-0.17640,0.07735,0.00000,0.03184,0.97527,-0.18922,0.0,2023,6,7,14,35,27,408
40.66560,0.01610,-0.02765,0.00000,0.03148,0.97612,-0.18873,0.0,2023,6,7,14,35,27,418
40.66570,-0.03640,-0.08015,0.00000,0.02794,0.97624,-0.18849,0.0,2023,6,7,14,35,27,428
40.66580,-0.14140,0.09485,0.00000,0.03379,0.97539,-0.18922,0.0,2023,6,7,14,35,27,438
40.66590,-0.08890,-0.23765,0.00000,0.03172,0.97673,-0.18812,0.0,2023,6,7,14,35,27,448
40.66600,0.05110,0.07735,0.00000,0.03245,0.97563,-0.18788,0.0,2023,6,7,14,35,27,458
40.66610,-0.26390,0.23485,0.00000,0.03257,0.97685,-0.19044,0.0,2023,6,7,14,35,27,468
40.66620,-0.12390,0.05985,0.00000,0.03233,0.97759,-0.18910,0.0,2023,6,7,14,35,27,478
40.66630,0.10360,-0.02765,0.00000,0.03245,0.97771,-0.18861,0.0,2023,6,7,14,35,27,488
40.66640,-0.03640,-0.06265,0.00000,0.03111,0.97588,-0.18751,0.0,2023,6,7,14,35,27,498
40.66650,-0.03640,0.09485,0.00000,0.03257,0.97405,-0.19044,0.0,2023,6,7,14,35,27,508
40.66660,-0.03640,0.28735,0.00000,0.03001,0.97807,-0.18898,0.0,2023,6,7,14,35,27,518
40.66670,-0.03640,0.04235,0.00000,0.03196,0.97649,-0.18971,0.0,2023,6,7,14,35,27,528
40.66680,0.05110,-0.13265,0.00000,0.03257,0.97722,-0.18983,0.0,2023,6,7,14,35,27,538
40.66690,-0.17640,-0.04515,0.00000,0.03172,0.97649,-0.18861,0.0,2023,6,7,14,35,27,548
40.66700,0.03360,-0.13265,0.00000,0.03099,0.97271,-0.18983,0.0,2023,6,7,14,35,27,558
40.66710,-0.03640,0.02485,0.00000,0.02977,0.97405,-0.19020,0.0,2023,6,7,14,35,27,568
40.66720,0.10360,-0.15015,0.00000,0.03013,0.97637,-0.18971,0.0,2023,6,7,14,35,27,578
40.66730,0.20860,-0.09765,0.00000,0.03038,0.97429,-0.18922,0.0,2023,6,7,14,35,27,588
40.66740,0.08610,0.00735,0.00000,0.03233,0.97795,-0.18861,0.0,2023,6,7,14,35,27,598
40.66750,0.13860,-0.01015,0.00000,0.03184,0.97734,-0.19032,0.0,2023,6,7,14,35,27,608
40.66760,0.06860,-0.11515,0.00000,0.03367,0.97478,-0.18666,0.0,2023,6,7,14,35,27,618
40.66770,0.01610,-0.04515,0.00000,0.03123,0.97637,-0.18788,0.0,2023,6,7,14,35,27,628
40.66780,0.24360,-0.09765,0.00000,0.03111,0.97588,-0.19032,0.0,2023,6,7,14,35,27,638
40.66790,-0.01890,-0.11515,0.00000,0.02977,0.97624,-0.18812,0.0,2023,6,7,14,35,27,648
40.66800,-0.07140,-0.09765,0.00000,0.03221,0.97527,-0.19069,0.0,2023,6,7,14,35,27,658
40.66810,0.12110,-0.01015,0.00000,0.03123,0.97698,-0.18873,0.0,2023,6,7,14,35,27,668
40.66820,-0.19390,0.14735,0.00000,0.03233,0.97673,-0.19044,0.0,2023,6,7,14,35,27,678
40.66830,0.22610,-0.04515,0.00000,0.03196,0.97783,-0.18788,0.0,2023,6,7,14,35,27,688
40.66840,0.20860,-0.09765,0.00000,0.03050,0.97698,-0.18825,0.0,2023,6,7,14,35,27,698
40.66850,-0.10640,-0.02765,0.00000,0.03282,0.97637,-0.18959,0.0,2023,6,7,14,35,27,708
40.66860,0.13860,-0.01015,0.00000,0.03135,0.97771,-0.19008,0.0,2023,6,7,14,35,27,718
40.66870,-0.00140,0.12985,0.00000,0.03062,0.97734,-0.18910,0.0,2023,6,7,14,35,27,728
40.66880,-0.05390,0.00735,0.00000,0.03245,0.97576,-0.19081,0.0,2023,6,7,14,35,27,738
40.66890,0.12110,-0.11515,0.00000,0.03257,0.97856,-0.18605,0.0,2023,6,7,14,35,27,748
40.66900,-0.05390,0.14735,0.00000,0.03062,0.97905,-0.18837,0.0,2023,6,7,14,35,27,758
40.66910,0.01610,0.04235,0.00000,0.03172,0.97405,-0.19020,0.0,2023,6,7,14,35,27,768
40.66920,-0.14140,0.04235,0.00000,0.03160,0.97539,-0.19178,0.0,2023,6,7,14,35,27,778
40.66930,-0.05390,-0.11515,0.00000,0.03074,0.97759,-0.18788,0.0,2023,6,7,14,35,27,788
40.66940,-0.03640,-0.02765,0.00000,0.03294,0.97661,-0.19020,0.0,2023,6,7,14,35,27,798
40.66950,0.03360,-0.15015,0.00000,0.03172,0.97759,-0.18886,0.0,2023,6,7,14,35,27,808
40.66960,0.12110,-0.01015,0.00000,0.02928,0.97527,-0.18800,0.0,2023,6,7,14,35,27,818
40.66970,0.10360,-0.20265,0.00000,0.02977,0.97698,-0.18849,0.0,2023,6,7,14,35,27,828
40.66980,0.03360,-0.08015,0.00000,0.03160,0.97673,-0.18849,0.0,2023,6,7,14,35,27,838
40.66990,0.03360,-0.08015,0.00000,0.03123,0.97515,-0.18666,0.0,2023,6,7,14,35,27,848
40.67000,-0.15890,0.02485,0.00000,0.03270,0.97685,-0.18825,0.0,2023,6,7,14,35,27,858
40.67010,0.08610,0.02485,0.00000,0.03160,0.97637,-0.19069,0.0,2023,6,7,14,35,27,868
40.67020,-0.19390,0.09485,0.00000,0.03379,0.97795,-0.18861,0.0,2023,6,7,14,35,27,878
40.67030,-0.14140,-0.04515,0.00000,0.03172,0.97673,-0.18727,0.0,2023,6,7,14,35,27,888
40.67040,-0.15890,0.04235,0.00000,0.03318,0.97515,-0.19178,0.0,2023,6,7,14,35,27,898
40.67050,-0.05390,-0.09765,0.00000,0.03074,0.97539,-0.18886,0.0,2023,6,7,14,35,27,908
40.67060,0.01610,0.09485,0.00000,0.03148,0.97661,-0.18849,0.0,2023,6,7,14,35,27,918
40.67070,-0.01890,-0.01015,0.00000,0.03282,0.97734,-0.18837,0.0,2023,6,7,14,35,27,928
40.67080,-0.07140,-0.06265,0.00000,0.03209,0.97551,-0.18800,0.0,2023,6,7,14,35,27,938
40.67090,0.06860,-0.01015,0.00000,0.03355,0.97673,-0.18947,0.0,2023,6,7,14,35,27,948
40.67100,-0.03640,-0.02765,0.00000,0.03245,0.97490,-0.18947,0.0,2023,6,7,14,35,27,958
40.67110,-0.07140,0.05985,0.00000,0.03245,0.97576,-0.18910,0.0,2023,6,7,14,35,27,968
40.67120,0.10360,-0.15015,0.00000,0.03184,0.97588,-0.19044,0.0,2023,6,7,14,35,27,978
40.67130,-0.10640,0.21735,0.00000,0.03074,0.97734,-0.18764,0.0,2023,6,7,14,35,27,988
40.67140,0.05110,0.05985,0.00000,0.03123,0.97612,-0.19044,0.0,2023,6,7,14,35,27,998
40.67150,-0.00140,-0.13265,0.00000,0.03062,0.97612,-0.18910,0.0,2023,6,7,14,35,27,8
40.67160,-0.05390,-0.13265,0.00000,0.03257,0.97539,-0.19142,0.0,2023,6,7,14,35,27,18
40.67170,0.12110,0.14735,0.00000,0.03026,0.97722,-0.19081,0.0,2023,6,7,14,35,27,28
40.67180,0.06860,-0.01015,0.00000,0.03160,0.97734,-0.19032,0.0,2023,6,7,14,35,27,38
40.67190,-0.05390,-0.15015,0.00000,0.03196,0.97698,-0.18825,0.0,2023,6,7,14,35,27,48
40.67200,0.05110,-0.04515,0.00000,0.02989,0.97673,-0.19166,0.0,2023,6,7,14,35,27,58
40.67210,-0.05390,0.02485,0.00000,0.03099,0.97393,-0.18971,0.0,2023,6,7,14,35,28,68
40.67220,0.06860,-0.16765,0.00000,0.03099,0.97588,-0.18849,0.0,2023,6,7,14,35,28,78
40.67230,-0.03640,-0.16765,0.00000,0.03111,0.97417,-0.18971,0.0,2023,6,7,14,35,28,88
40.67240,-0.24640,0.04235,0.00000,0.03038,0.97600,-0.18922,0.0,2023,6,7,14,35,28,98
40.67250,-0.05390,0.09485,0.00000,0.03160,0.97478,-0.18800,0.0,2023,6,7,14,35,28,108
40.67260,0.03360,0.11235,0.00000,0.03013,0.97466,-0.18837,0.0,2023,6,7,14,35,28,118
40.67270,-0.21140,0.04235,0.00000,0.03245,0.97441,-0.19020,0.0,2023,6,7,14,35,28,128
40.67280,-0.14140,0.00735,0.00000,0.03087,0.97685,-0.18849,0.0,2023,6,7,14,35,28,138
40.67290,0.13860,-0.20265,0.00000,0.02916,0.97527,-0.18959,0.0,2023,6,7,14,35,28,148
40.67300,0.01610,0.07735,0.00000,0.03135,0.97649,-0.18898,0.0,2023,6,7,14,35,28,158
40.67310,0.19110,0.00735,0.00000,0.03148,0.97478,-0.19056,0.0,2023,6,7,14,35,28,168
40.67320,-0.07140,-0.04515,0.00000,0.03050,0.97649,-0.18703,0.0,2023,6,7,14,35,28,178
40.67330,-0.14140,0.33985,0.00000,0.03172,0.97795,-0.19020,0.0,2023,6,7,14,35,28,188
40.67340,-0.00140,0.12985,0.00000,0.03331,0.97710,-0.18983,0.0,2023,6,7,14,35,28,198
40.67350,-0.12390,0.21735,0.00000,0.03013,0.97441,-0.18703,0.0,2023,6,7,14,35,28,208
40.67360,0.05110,0.07735,0.00000,0.03135,0.97771,-0.19056,0.0,2023,6,7,14,35,28,218
40.67370,0.01610,0.05985,0.00000,0.03148,0.97332,-0.18934,0.0,2023,6,7,14,35,28,228
40.67380,-0.08890,-0.01015,0.00000,0.03099,0.97576,-0.18886,0.0,2023,6,7,14,35,28,238
40.67390,0.01610,-0.04515,0.00000,0.03172,0.97551,-0.18764,0.0,2023,6,7,14,35,28,248
40.67400,0.27860,-0.20265,0.00000,0.03099,0.97551,-0.18861,0.0,2023,6,7,14,35,28,258
40.67410,-0.01890,0.02485,0.00000,0.03209,0.97612,-0.18727,0.0,2023,6,7,14,35,28,268
40.67420,-0.05390,-0.09765,0.00000,0.03123,0.97527,-0.18776,0.0,2023,6,7,14,35,28,278
40.67430,-0.14140,0.28735,0.00000,0.03184,0.97661,-0.18959,0.0,2023,6,7,14,35,28,288
40.67440,-0.00140,0.02485,0.00000,0.03087,0.97685,-0.18971,0.0,2023,6,7,14,35,28,298
40.67450,-0.01890,0.11235,0.00000,0.03111,0.97844,-0.18727,0.0,2023,6,7,14,35,28,308
40.67460,-0.12390,0.21735,0.00000,0.03306,0.97563,-0.18922,0.0,2023,6,7,14,35,28,318
40.67470,-0.07140,0.07735,0.00000,0.03099,0.97698,-0.18800,0.0,2023,6,7,14,35,28,328
40.67480,-0.00140,0.00735,0.00000,0.03013,0.97258,-0.18959,0.0,2023,6,7,14,35,28,338
40.67490,-0.01890,-0.15015,0.00000,0.03270,0.97588,-0.19008,0.0,2023,6,7,14,35,28,348
40.67500,-0.08890,0.00735,0.00000,0.03111,0.97588,-0.18800,0.0,2023,6,7,14,35,28,358
40.67510,0.10360,0.09485,0.00000,0.03135,0.97783,-0.18715,0.0,2023,6,7,14,35,28,368
40.67520,-0.05390,-0.01015,0.00000,0.03026,0.97612,-0.18922,0.0,2023,6,7,14,35,28,378
40.67530,-0.03640,0.05985,0.00000,0.02952,0.97661,-0.19008,0.0,2023,6,7,14,35,28,388
40.67540,-0.12390,0.11235,0.00000,0.03184,0.97661,-0.18934,0.0,2023,6,7,14,35,28,398
40.67550,0.05110,-0.15015,0.00000,0.03221,0.97685,-0.18837,0.0,2023,6,7,14,35,28,408
40.67560,0.03360,0.11235,0.00000,0.02867,0.97710,-0.18837,0.0,2023,6,7,14,35,28,418
40.67570,-0.03640,0.00735,0.00000,0.03379,0.97527,-0.18788,0.0,2023,6,7,14,35,28,428
40.67580,0.05110,-0.16765,0.00000,0.03160,0.97722,-0.18873,0.0,2023,6,7,14,35,28,438
40.67590,-0.33390,0.19985,0.00000,0.03453,0.97576,-0.18678,0.0,2023,6,7,14,35,28,448
40.67600,0.08610,0.19985,0.00000,0.03209,0.97600,-0.18995,0.0,2023,6,7,14,35,28,458
40.67610,-0.14140,0.02485,0.00000,0.03440,0.97746,-0.18739,0.0,2023,6,7,14,35,28,468
40.67620,-0.22890,0.09485,0.00000,0.03196,0.97393,-0.18971,0.0,2023,6,7,14,35,28,478
40.67630,-0.12390,-0.02765,0.00000,0.03379,0.97649,-0.18995,0.0,2023,6,7,14,35,28,488
40.67640,-0.12390,-0.27265,0.00000,0.03404,0.97722,-0.18739,0.0,2023,6,7,14,35,28,498
40.67650,0.10360,0.05985,0.00000,0.03135,0.97624,-0.18910,0.0,2023,6,7,14,35,28,508
40.67660,0.12110,-0.13265,0.00000,0.03209,0.97563,-0.18849,0.0,2023,6,7,14,35,28,518
40.67670,0.13860,-0.11515,0.00000,0.03233,0.97502,-0.18690,0.0,2023,6,7,14,35,28,528
40.67680,0.01610,-0.29015,0.00000,0.03196,0.97563,-0.18861,0.0,2023,6,7,14,35,28,538
40.67690,0.03360,-0.01015,0.00000,0.03318,0.97783,-0.19032,0.0,2023,6,7,14,35,28,548
40.67700,0.10360,-0.11515,0.00000,0.03074,0.97698,-0.18873,0.0,2023,6,7,14,35,28,558
40.67710,-0.12390,0.09485,0.00000,0.03074,0.97454,-0.18922,0.0,2023,6,7,14,35,28,568
40.67720,0.01610,-0.08015,0.00000,0.03074,0.97771,-0.18788,0.0,2023,6,7,14,35,28,578
40.67730,-0.00140,0.09485,0.00000,0.03160,0.97600,-0.18959,0.0,2023,6,7,14,35,28,588
40.67740,0.01610,-0.02765,0.00000,0.03135,0.97502,-0.18922,0.0,2023,6,7,14,35,28,598
40.67750,0.15610,0.23485,0.00000,0.03245,0.97454,-0.18800,0.0,2023,6,7,14,35,28,608
40.67760,0.12110,-0.08015,0.00000,0.03245,0.97539,-0.18959,0.0,2023,6,7,14,35,28,618
40.67770,-0.21140,0.04235,0.00000,0.03343,0.97649,-0.18751,0.0,2023,6,7,14,35,28,628
40.67780,0.15610,0.00735,0.00000,0.03233,0.97515,-0.18617,0.0,2023,6,7,14,35,28,638
40.67790,0.20860,-0.18515,0.00000,0.03221,0.97807,-0.19056,0.0,2023,6,7,14,35,28,648
40.67800,-0.17640,0.32235,0.00000,0.03111,0.97454,-0.18837,0.0,2023,6,7,14,35,28,658
40.67810,0.03360,0.14735,0.00000,0.03001,0.97698,-0.18995,0.0,2023,6,7,14,35,28,668
40.67820,-0.07140,-0.15015,0.00000,0.03135,0.97734,-0.18971,0.0,2023,6,7,14,35,28,678
40.67830,-0.00140,0.00735,0.00000,0.03306,0.97710,-0.18922,0.0,2023,6,7,14,35,28,688
40.67840,0.12110,0.02485,0.00000,0.03038,0.97673,-0.18873,0.0,2023,6,7,14,35,28,698
40.67850,-0.21140,0.19985,0.00000,0.03123,0.97661,-0.18837,0.0,2023,6,7,14,35,28,708
40.67860,-0.00140,-0.13265,0.00000,0.03196,0.97624,-0.19081,0.0,2023,6,7,14,35,28,718
40.67870,0.08610,0.09485,0.00000,0.03062,0.97454,-0.18959,0.0,2023,6,7,14,35,28,728
40.67880,-0.00140,0.04235,0.00000,0.03270,0.97624,-0.18983,0.0,2023,6,7,14,35,28,738
40.67890,0.12110,0.00735,0.00000,0.03123,0.97759,-0.19081,0.0,2023,6,7,14,35,28,748
40.67900,-0.05390,0.00735,0.00000,0.03404,0.97600,-0.18898,0.0,2023,6,7,14,35,28,758
40.67910,0.06860,-0.13265,0.00000,0.03013,0.97966,-0.18910,0.0,2023,6,7,14,35,28,768
40.67920,0.10360,0.05985,0.00000,0.03099,0.97551,-0.18800,0.0,2023,6,7,14,35,28,778
40.67930,0.12110,0.11235,0.00000,0.03196,0.97368,-0.18922,0.0,2023,6,7,14,35,28,788
40.67940,-0.03640,-0.16765,0.00000,0.03184,0.97771,-0.18751,0.0,2023,6,7,14,35,28,798
40.67950,0.12110,-0.09765,0.00000,0.03135,0.97844,-0.18886,0.0,2023,6,7,14,35,28,808
40.67960,0.01610,0.02485,0.00000,0.03245,0.97344,-0.19154,0.0,2023,6,7,14,35,28,818
40.67970,-0.33390,0.23485,0.00000,0.03209,0.97344,-0.18837,0.0,2023,6,7,14,35,28,828
40.67980,-0.28140,0.14735,0.00000,0.03282,0.97820,-0.19203,0.0,2023,6,7,14,35,28,838
40.67990,0.19110,-0.16765,0.00000,0.03160,0.97441,-0.18898,0.0,2023,6,7,14,35,28,848
40.68000,-0.10640,0.12985,0.00000,0.03184,0.97612,-0.18800,0.0,2023,6,7,14,35,28,858
40.68010,0.17360,-0.04515,0.00000,0.02989,0.97563,-0.19056,0.0,2023,6,7,14,35,28,868
40.68020,0.06860,-0.02765,0.00000,0.03123,0.97454,-0.18837,0.0,2023,6,7,14,35,28,878
40.68030,-0.05390,-0.22015,0.00000,0.03160,0.97893,-0.18995,0.0,2023,6,7,14,35,28,888
40.68040,-0.03640,-0.02765,0.00000,0.03233,0.97612,-0.18959,0.0,2023,6,7,14,35,28,898
40.68050,-0.10640,0.07735,0.00000,0.03196,0.97783,-0.18861,0.0,2023,6,7,14,35,28,908
40.68060,0.05110,0.11235,0.00000,0.03257,0.97563,-0.19056,0.0,2023,6,7,14,35,28,918
40.68070,0.08610,-0.29015,0.00000,0.03013,0.97771,-0.18861,0.0,2023,6,7,14,35,28,928
40.68080,-0.03640,-0.16765,0.00000,0.02904,0.97576,-0.19069,0.0,2023,6,7,14,35,28,938
40.68090,0.03360,-0.16765,0.00000,0.02891,0.97734,-0.19130,0.0,2023,6,7,14,35,28,948
40.68100,0.03360,0.02485,0.00000,0.03245,0.97624,-0.18764,0.0,2023,6,7,14,35,29,958
40.68110,-0.14140,0.02485,0.00000,0.03318,0.97795,-0.18849,0.0,2023,6,7,14,35,29,968
40.68120,-0.03640,0.16485,0.00000,0.03172,0.97661,-0.19130,0.0,2023,6,7,14,35,29,978
40.68130,-0.00140,-0.09765,0.00000,0.03111,0.97612,-0.19044,0.0,2023,6,7,14,35,29,988
40.68140,-0.14140,0.16485,0.00000,0.03038,0.97673,-0.18837,0.0,2023,6,7,14,35,29,998
40.68150,0.10360,-0.16765,0.00000,0.03160,0.97466,-0.18898,0.0,2023,6,7,14,35,29,8
40.68160,0.01610,0.16485,0.00000,0.03087,0.97600,-0.19020,0.0,2023,6,7,14,35,29,18
40.68170,-0.07140,-0.01015,0.00000,0.03196,0.97661,-0.18910,0.0,2023,6,7,14,35,29,28
40.68180,0.10360,-0.08015,0.00000,0.03294,0.97576,-0.18959,0.0,2023,6,7,14,35,29,38
40.68190,-0.00140,0.16485,0.00000,0.03355,0.97698,-0.18849,0.0,2023,6,7,14,35,29,48
40.68200,-0.03640,-0.02765,0.00000,0.03209,0.97515,-0.18837,0.0,2023,6,7,14,35,29,58
40.68210,0.06860,-0.23765,0.00000,0.03282,0.97905,-0.18971,0.0,2023,6,7,14,35,29,68
40.68220,0.05110,0.02485,0.00000,0.03050,0.97637,-0.18837,0.0,2023,6,7,14,35,29,78
40.68230,-0.08890,0.18235,0.00000,0.03282,0.97637,-0.19008,0.0,2023,6,7,14,35,29,88
40.68240,-0.15890,0.14735,0.00000,0.03099,0.97746,-0.18971,0.0,2023,6,7,14,35,29,98
40.68250,-0.01890,0.12985,0.00000,0.03196,0.97466,-0.19032,0.0,2023,6,7,14,35,29,108
40.68260,0.10360,0.16485,0.00000,0.03038,0.97698,-0.18861,0.0,2023,6,7,14,35,29,118
40.68270,-0.08890,-0.16765,0.00000,0.03074,0.97588,-0.19105,0.0,2023,6,7,14,35,29,128
40.68280,0.05110,-0.11515,0.00000,0.02855,0.97734,-0.19056,0.0,2023,6,7,14,35,29,138
40.68290,-0.24640,-0.20265,0.00000,0.03355,0.97661,-0.18739,0.0,2023,6,7,14,35,29,148
40.68300,0.01610,-0.08015,0.00000,0.03026,0.97856,-0.18898,0.0,2023,6,7,14,35,29,158
40.68310,0.06860,0.04235,0.00000,0.03038,0.97539,-0.19166,0.0,2023,6,7,14,35,29,168
40.68320,0.03360,-0.25515,0.00000,0.03270,0.97539,-0.19008,0.0,2023,6,7,14,35,29,178
40.68330,0.12110,-0.23765,0.00000,0.03245,0.97746,-0.18812,0.0,2023,6,7,14,35,29,188
40.68340,0.03360,-0.01015,0.00000,0.03233,0.97490,-0.18666,0.0,2023,6,7,14,35,29,198
40.68350,-0.14140,0.07735,0.00000,0.03050,0.97490,-0.18971,0.0,2023,6,7,14,35,29,208
40.68360,-0.00140,0.09485,0.00000,0.03099,0.97576,-0.18873,0.0,2023,6,7,14,35,29,218
40.68370,0.12110,0.05985,0.00000,0.02952,0.97673,-0.18788,0.0,2023,6,7,14,35,29,228
40.68380,-0.05390,-0.11515,0.00000,0.02940,0.97746,-0.18910,0.0,2023,6,7,14,35,29,238
40.68390,-0.03640,-0.11515,0.00000,0.03050,0.97734,-0.18934,0.0,2023,6,7,14,35,29,248
40.68400,-0.00140,-0.08015,0.00000,0.03184,0.97515,-0.19069,0.0,2023,6,7,14,35,29,258
40.68410,-0.00140,-0.08015,0.00000,0.03306,0.97661,-0.18983,0.0,2023,6,7,14,35,29,268
40.68420,-0.14140,0.05985,0.00000,0.03099,0.97637,-0.18849,0.0,2023,6,7,14,35,29,278
40.68430,0.03360,-0.04515,0.00000,0.03123,0.97563,-0.18825,0.0,2023,6,7,14,35,29,288
40.68440,-0.28140,0.12985,0.00000,0.03355,0.97588,-0.18654,0.0,2023,6,7,14,35,29,298
40.68450,-0.00140,0.21735,0.00000,0.03184,0.97588,-0.18947,0.0,2023,6,7,14,35,29,308
40.68460,0.08610,-0.01015,0.00000,0.03123,0.97649,-0.19069,0.0,2023,6,7,14,35,29,318
40.68470,-0.12390,0.07735,0.00000,0.02965,0.97515,-0.18812,0.0,2023,6,7,14,35,29,328
40.68480,-0.01890,-0.08015,0.00000,0.03196,0.97844,-0.18764,0.0,2023,6,7,14,35,29,338
40.68490,-0.17640,0.09485,0.00000,0.03209,0.97929,-0.18849,0.0,2023,6,7,14,35,29,348
40.68500,-0.00140,0.07735,0.00000,0.03074,0.97527,-0.18776,0.0,2023,6,7,14,35,29,358
40.68510,0.15610,0.11235,0.00000,0.03111,0.97649,-0.18971,0.0,2023,6,7,14,35,29,368
40.68520,0.20860,-0.08015,0.00000,0.03282,0.97783,-0.18910,0.0,2023,6,7,14,35,29,378
40.68530,0.01610,-0.04515,0.00000,0.03062,0.97551,-0.18873,0.0,2023,6,7,14,35,29,388
40.68540,0.03360,-0.08015,0.00000,0.03148,0.97698,-0.18751,0.0,2023,6,7,14,35,29,398
40.68550,-0.03640,-0.13265,0.00000,0.03282,0.97576,-0.18678,0.0,2023,6,7,14,35,29,408
40.68560,0.01610,0.26985,0.00000,0.03038,0.97710,-0.19008,0.0,2023,6,7,14,35,29,418
40.68570,0.03360,0.19985,0.00000,0.03148,0.97820,-0.19069,0.0,2023,6,7,14,35,29,428
40.68580,0.01610,-0.09765,0.00000,0.03111,0.97795,-0.18703,0.0,2023,6,7,14,35,29,438
40.68590,-0.08890,0.00735,0.00000,0.03209,0.97551,-0.18800,0.0,2023,6,7,14,35,29,448
40.68600,0.10360,-0.04515,0.00000,0.03135,0.97637,-0.18886,0.0,2023,6,7,14,35,29,458
40.68610,0.01610,0.25235,0.00000,0.03087,0.97881,-0.18947,0.0,2023,6,7,14,35,29,468
40.68620,0.12110,-0.02765,0.00000,0.03453,0.97649,-0.19178,0.0,2023,6,7,14,35,29,478
40.68630,0.15610,-0.04515,0.00000,0.03013,0.97539,-0.18629,0.0,2023,6,7,14,35,29,488
40.68640,-0.00140,0.05985,0.00000,0.03331,0.97588,-0.18910,0.0,2023,6,7,14,35,29,498
40.68650,-0.08890,0.19985,0.00000,0.03087,0.97783,-0.18934,0.0,2023,6,7,14,35,29,508
40.68660,0.08610,0.16485,0.00000,0.03001,0.97649,-0.18800,0.0,2023,6,7,14,35,29,518
40.68670,-0.17640,0.04235,0.00000,0.03196,0.97283,-0.19032,0.0,2023,6,7,14,35,29,528
40.68680,0.13860,0.19985,0.00000,0.02867,0.97637,-0.18898,0.0,2023,6,7,14,35,29,538
40.68690,-0.12390,0.07735,0.00000,0.03087,0.97795,-0.18849,0.0,2023,6,7,14,35,29,548
40.68700,0.01610,0.04235,0.00000,0.03135,0.97612,-0.19020,0.0,2023,6,7,14,35,29,558
40.68710,-0.01890,-0.11515,0.00000,0.03123,0.97844,-0.19069,0.0,2023,6,7,14,35,29,568
40.68720,-0.17640,-0.15015,0.00000,0.03257,0.97588,-0.18727,0.0,2023,6,7,14,35,29,578
40.68730,-0.15890,0.19985,0.00000,0.03172,0.97759,-0.18873,0.0,2023,6,7,14,35,29,588
40.68740,0.06860,-0.20265,0.00000,0.03245,0.97649,-0.19081,0.0,2023,6,7,14,35,29,598
40.68750,-0.01890,-0.13265,0.00000,0.03074,0.97563,-0.18886,0.0,2023,6,7,14,35,29,608
40.68760,-0.10640,0.07735,0.00000,0.02940,0.97612,-0.18922,0.0,2023,6,7,14,35,29,618
40.68770,-0.22890,0.02485,0.00000,0.03221,0.97673,-0.18715,0.0,2023,6,7,14,35,29,628
40.68780,-0.07140,0.11235,0.00000,0.03160,0.97551,-0.18983,0.0,2023,6,7,14,35,29,638
40.68790,-0.05390,-0.09765,0.00000,0.03318,0.97637,-0.19008,0.0,2023,6,7,14,35,29,648
40.68800,-0.05390,0.23485,0.00000,0.03087,0.97490,-0.18764,0.0,2023,6,7,14,35,29,658
40.68810,-0.10640,0.21735,0.00000,0.03013,0.97795,-0.19020,0.0,2023,6,7,14,35,29,668
40.68820,0.19110,-0.04515,0.00000,0.02843,0.97563,-0.18800,0.0,2023,6,7,14,35,29,678
40.68830,-0.00140,0.16485,0.00000,0.03331,0.97746,-0.18739,0.0,2023,6,7,14,35,29,688
40.68840,-0.01890,0.05985,0.00000,0.03306,0.97490,-0.19008,0.0,2023,6,7,14,35,29,698
40.68850,0.12110,-0.11515,0.00000,0.03233,0.97539,-0.19020,0.0,2023,6,7,14,35,29,708
40.68860,0.13860,0.11235,0.00000,0.03196,0.97356,-0.18715,0.0,2023,6,7,14,35,29,718
40.68870,0.01610,-0.13265,0.00000,0.03392,0.97454,-0.18861,0.0,2023,6,7,14,35,29,728
40.68880,-0.08890,-0.09765,0.00000,0.03318,0.97917,-0.18812,0.0,2023,6,7,14,35,29,738
40.68890,-0.05390,-0.16765,0.00000,0.03196,0.97795,-0.18861,0.0,2023,6,7,14,35,29,748
40.68900,0.24360,-0.23765,0.00000,0.03209,0.97478,-0.19093,0.0,2023,6,7,14,35,29,758
40.68910,0.10360,0.04235,0.00000,0.03184,0.97502,-0.18947,0.0,2023,6,7,14,35,29,768
40.68920,-0.01890,0.12985,0.00000,0.03172,0.97527,-0.18849,0.0,2023,6,7,14,35,29,778
40.68930,-0.07140,0.12985,0.00000,0.03257,0.97393,-0.18788,0.0,2023,6,7,14,35,29,788
40.68940,0.06860,0.02485,0.00000,0.03245,0.97490,-0.18971,0.0,2023,6,7,14,35,29,798
40.68950,-0.01890,0.04235,0.00000,0.03050,0.97576,-0.18812,0.0,2023,6,7,14,35,29,808
40.68960,-0.08890,-0.04515,0.00000,0.03099,0.97588,-0.18812,0.0,2023,6,7,14,35,29,818
40.68970,0.15610,-0.15015,0.00000,0.03160,0.97405,-0.19069,0.0,2023,6,7,14,35,29,828
40.68980,-0.05390,0.09485,0.00000,0.03270,0.97820,-0.18849,0.0,2023,6,7,14,35,29,838
40.68990,0.17360,-0.16765,0.00000,0.03453,0.97685,-0.18934,0.0,2023,6,7,14,35,29,848
40.69000,0.13860,-0.01015,0.00000,0.02965,0.97551,-0.18849,0.0,2023,6,7,14,35,29,858
40.69010,-0.01890,-0.09765,0.00000,0.03404,0.97515,-0.19154,0.0,2023,6,7,14,35,30,868
40.69020,0.08610,-0.08015,0.00000,0.02940,0.97661,-0.18910,0.0,2023,6,7,14,35,30,878
40.69030,-0.07140,0.16485,0.00000,0.03026,0.97661,-0.19044,0.0,2023,6,7,14,35,30,888
40.69040,0.10360,0.11235,0.00000,0.03123,0.97685,-0.18837,0.0,2023,6,7,14,35,30,898
40.69050,-0.01890,-0.01015,0.00000,0.03282,0.97588,-0.18666,0.0,2023,6,7,14,35,30,908
40.69060,0.29610,-0.01015,0.00000,0.03367,0.97576,-0.18837,0.0,2023,6,7,14,35,30,918
40.69070,0.03360,0.09485,0.00000,0.03111,0.97563,-0.18837,0.0,2023,6,7,14,35,30,928
40.69080,0.17360,-0.06265,0.00000,0.03233,0.97734,-0.18788,0.0,2023,6,7,14,35,30,938
40.69090,-0.21140,0.14735,0.00000,0.03172,0.97539,-0.19020,0.0,2023,6,7,14,35,30,948
40.69100,0.31360,-0.18515,0.00000,0.03160,0.97612,-0.18776,0.0,2023,6,7,14,35,30,958
40.69110,0.06860,0.00735,0.00000,0.03245,0.97478,-0.18995,0.0,2023,6,7,14,35,30,968
40.69120,0.15610,-0.01015,0.00000,0.02818,0.97502,-0.19032,0.0,2023,6,7,14,35,30,978
40.69130,-0.17640,-0.04515,0.00000,0.03209,0.97661,-0.18715,0.0,2023,6,7,14,35,30,988
40.69140,0.03360,0.02485,0.00000,0.03221,0.97795,-0.19032,0.0,2023,6,7,14,35,30,998
40.69150,-0.01890,0.07735,0.00000,0.03099,0.97576,-0.18788,0.0,2023,6,7,14,35,30,8
40.69160,-0.19390,0.12985,0.00000,0.02940,0.97783,-0.19020,0.0,2023,6,7,14,35,30,18
40.69170,0.24360,-0.11515,0.00000,0.03379,0.97746,-0.19069,0.0,2023,6,7,14,35,30,28
40.69180,-0.01890,-0.09765,0.00000,0.03501,0.97478,-0.18642,0.0,2023,6,7,14,35,30,38
40.69190,0.12110,0.14735,0.00000,0.03135,0.97490,-0.18971,0.0,2023,6,7,14,35,30,48
40.69200,0.08610,0.19985,0.00000,0.03233,0.97551,-0.18849,0.0,2023,6,7,14,35,30,58
40.69210,-0.22890,0.05985,0.00000,0.03160,0.97563,-0.18715,0.0,2023,6,7,14,35,30,68
40.69220,0.10360,-0.16765,0.00000,0.03160,0.97661,-0.19044,0.0,2023,6,7,14,35,30,78
40.69230,0.01610,-0.29015,0.00000,0.03111,0.97502,-0.18727,0.0,2023,6,7,14,35,30,88
40.69240,-0.22890,0.05985,0.00000,0.03135,0.97588,-0.18629,0.0,2023,6,7,14,35,30,98
40.69250,0.22610,-0.16765,0.00000,0.03294,0.97588,-0.18934,0.0,2023,6,7,14,35,30,108
40.69260,-0.08890,-0.23765,0.00000,0.03196,0.97637,-0.18776,0.0,2023,6,7,14,35,30,118
40.69270,0.01610,-0.32515,0.00000,0.03245,0.97661,-0.19069,0.0,2023,6,7,14,35,30,128
40.69280,0.15610,0.07735,0.00000,0.03294,0.97710,-0.19032,0.0,2023,6,7,14,35,30,138
40.69290,-0.14140,-0.09765,0.00000,0.03148,0.97673,-0.18690,0.0,2023,6,7,14,35,30,148
40.69300,0.17360,0.04235,0.00000,0.03209,0.97624,-0.19166,0.0,2023,6,7,14,35,30,158
40.69310,0.05110,-0.15015,0.00000,0.03343,0.97637,-0.18715,0.0,2023,6,7,14,35,30,168
40.69320,0.24360,-0.01015,0.00000,0.03123,0.97368,-0.18825,0.0,2023,6,7,14,35,30,178
40.69330,-0.00140,0.07735,0.00000,0.03221,0.97698,-0.19069,0.0,2023,6,7,14,35,30,188
40.69340,0.06860,-0.06265,0.00000,0.03465,0.97637,-0.18788,0.0,2023,6,7,14,35,30,198
40.69350,-0.17640,-0.08015,0.00000,0.03477,0.97649,-0.18910,0.0,2023,6,7,14,35,30,208
40.69360,0.01610,0.00735,0.00000,0.03123,0.97673,-0.18812,0.0,2023,6,7,14,35,30,218
40.69370,-0.12390,-0.01015,0.00000,0.03135,0.97685,-0.18886,0.0,2023,6,7,14,35,30,228
40.69380,-0.19390,0.09485,0.00000,0.03160,0.97527,-0.18995,0.0,2023,6,7,14,35,30,238
40.69390,-0.00140,0.00735,0.00000,0.03257,0.97661,-0.19313,0.0,2023,6,7,14,35,30,248
40.69400,-0.08890,-0.08015,0.00000,0.03123,0.97661,-0.18849,0.0,2023,6,7,14,35,30,258
40.69410,-0.08890,0.05985,0.00000,0.02965,0.97746,-0.19215,0.0,2023,6,7,14,35,30,268
40.69420,0.08610,-0.04515,0.00000,0.03233,0.97661,-0.18959,0.0,2023,6,7,14,35,30,278
40.69430,0.08610,0.07735,0.00000,0.03099,0.97661,-0.19032,0.0,2023,6,7,14,35,30,288
40.69440,0.13860,-0.04515,0.00000,0.03001,0.97527,-0.18971,0.0,2023,6,7,14,35,30,298
40.69450,-0.10640,0.12985,0.00000,0.03209,0.97734,-0.18788,0.0,2023,6,7,14,35,30,308
40.69460,-0.03640,0.05985,0.00000,0.03074,0.97466,-0.18959,0.0,2023,6,7,14,35,30,318
40.69470,0.08610,-0.22015,0.00000,0.03087,0.97917,-0.18910,0.0,2023,6,7,14,35,30,328
40.69480,-0.10640,0.18235,0.00000,0.03050,0.97624,-0.18812,0.0,2023,6,7,14,35,30,338
40.69490,-0.26390,0.02485,0.00000,0.03050,0.97551,-0.18947,0.0,2023,6,7,14,35,30,348
40.69500,-0.08890,0.04235,0.00000,0.03111,0.97527,-0.19093,0.0,2023,6,7,14,35,30,358
40.69510,0.10360,-0.18515,0.00000,0.03294,0.97722,-0.18861,0.0,2023,6,7,14,35,30,368
40.69520,-0.14140,0.14735,0.00000,0.03099,0.97588,-0.18812,0.0,2023,6,7,14,35,30,378
40.69530,0.12110,0.09485,0.00000,0.03001,0.97502,-0.18934,0.0,2023,6,7,14,35,30,388
40.69540,-0.01890,-0.09765,0.00000,0.03343,0.97551,-0.19239,0.0,2023,6,7,14,35,30,398
40.69550,-0.00140,0.07735,0.00000,0.03343,0.97600,-0.19142,0.0,2023,6,7,14,35,30,408
40.69560,-0.01890,0.02485,0.00000,0.03270,0.97551,-0.18934,0.0,2023,6,7,14,35,30,418
40.69570,-0.05390,-0.15015,0.00000,0.02916,0.97722,-0.19227,0.0,2023,6,7,14,35,30,428
40.69580,-0.01890,-0.01015,0.00000,0.02989,0.97649,-0.19178,0.0,2023,6,7,14,35,30,438
40.69590,-0.10640,-0.08015,0.00000,0.03013,0.97673,-0.18849,0.0,2023,6,7,14,35,30,448
40.69600,-0.01890,-0.01015,0.00000,0.03233,0.97478,-0.18873,0.0,2023,6,7,14,35,30,458
40.69610,-0.05390,0.00735,0.00000,0.03392,0.97502,-0.18995,0.0,2023,6,7,14,35,30,468
40.69620,0.06860,-0.04515,0.00000,0.03343,0.97624,-0.18947,0.0,2023,6,7,14,35,30,478
40.69630,0.13860,-0.15015,0.00000,0.03050,0.97673,-0.18837,0.0,2023,6,7,14,35,30,488
40.69640,0.03360,-0.22015,0.00000,0.03062,0.97661,-0.19032,0.0,2023,6,7,14,35,30,498
40.69650,-0.17640,0.14735,0.00000,0.02855,0.97539,-0.18837,0.0,2023,6,7,14,35,30,508
40.69660,-0.01890,0.00735,0.00000,0.03111,0.97685,-0.19178,0.0,2023,6,7,14,35,30,518
40.69670,0.10360,0.14735,0.00000,0.03245,0.97576,-0.19032,0.0,2023,6,7,14,35,30,528
40.69680,-0.00140,-0.02765,0.00000,0.03111,0.97210,-0.18812,0.0,2023,6,7,14,35,30,538
40.69690,0.03360,0.16485,0.00000,0.03172,0.97746,-0.19056,0.0,2023,6,7,14,35,30,548
40.69700,0.01610,-0.04515,0.00000,0.02806,0.97527,-0.18849,0.0,2023,6,7,14,35,30,558
40.69710,0.12110,0.02485,0.00000,0.03099,0.97661,-0.18825,0.0,2023,6,7,14,35,30,568
40.69720,-0.12390,-0.01015,0.00000,0.03013,0.97807,-0.18971,0.0,2023,6,7,14,35,30,578
40.69730,0.08610,-0.30765,0.00000,0.02989,0.97905,-0.18886,0.0,2023,6,7,14,35,30,588
40.69740,0.15610,-0.13265,0.00000,0.03331,0.97502,-0.18910,0.0,2023,6,7,14,35,30,598
40.69750,-0.10640,-0.08015,0.00000,0.03184,0.97527,-0.18751,0.0,2023,6,7,14,35,30,608
40.69760,0.12110,-0.34265,0.00000,0.03050,0.97783,-0.18947,0.0,2023,6,7,14,35,30,618
40.69770,0.13860,0.11235,0.00000,0.03367,0.97722,-0.19008,0.0,2023,6,7,14,35,30,628
40.69780,-0.15890,-0.11515,0.00000,0.03123,0.97649,-0.19008,0.0,2023,6,7,14,35,30,638
40.69790,0.06860,0.09485,0.00000,0.03343,0.97637,-0.19069,0.0,2023,6,7,14,35,30,648
40.69800,0.05110,0.09485,0.00000,0.03343,0.97588,-0.19008,0.0,2023,6,7,14,35,30,658
40.69810,-0.05390,0.14735,0.00000,0.03111,0.97649,-0.18873,0.0,2023,6,7,14,35,30,668
40.69820,-0.14140,0.21735,0.00000,0.02977,0.97551,-0.19020,0.0,2023,6,7,14,35,30,678
40.69830,-0.00140,0.12985,0.00000,0.03209,0.97600,-0.18898,0.0,2023,6,7,14,35,30,688
40.69840,-0.08890,-0.02765,0.00000,0.03209,0.97881,-0.18922,0.0,2023,6,7,14,35,30,698
40.69850,0.01610,0.05985,0.00000,0.03221,0.97698,-0.18654,0.0,2023,6,7,14,35,30,708
40.69860,-0.12390,-0.04515,0.00000,0.03306,0.97429,-0.18959,0.0,2023,6,7,14,35,30,718
40.69870,0.05110,-0.15015,0.00000,0.03221,0.97637,-0.18849,0.0,2023,6,7,14,35,30,728
40.69880,-0.01890,-0.02765,0.00000,0.03367,0.97539,-0.18947,0.0,2023,6,7,14,35,30,738
40.69890,0.20860,-0.08015,0.00000,0.03343,0.97563,-0.18947,0.0,2023,6,7,14,35,30,748
40.69900,0.01610,-0.08015,0.00000,0.03087,0.97637,-0.19154,0.0,2023,6,7,14,35,30,758
40.69910,-0.15890,0.05985,0.00000,0.03135,0.97771,-0.18922,0.0,2023,6,7,14,35,30,768
40.69920,-0.10640,0.11235,0.00000,0.03172,0.97685,-0.18812,0.0,2023,6,7,14,35,31,778
40.69930,0.33110,-0.18515,0.00000,0.03172,0.97673,-0.18947,0.0,2023,6,7,14,35,31,788
40.69940,0.20860,-0.11515,0.00000,0.03074,0.97600,-0.18751,0.0,2023,6,7,14,35,31,798
40.69950,-0.12390,0.04235,0.00000,0.03306,0.97441,-0.18971,0.0,2023,6,7,14,35,31,808
40.69960,0.12110,-0.13265,0.00000,0.03135,0.97637,-0.19069,0.0,2023,6,7,14,35,31,818
40.69970,-0.03640,0.04235,0.00000,0.03111,0.97783,-0.18727,0.0,2023,6,7,14,35,31,828
40.69980,-0.00140,-0.11515,0.00000,0.03148,0.97417,-0.18886,0.0,2023,6,7,14,35,31,838
40.69990,-0.01890,0.00735,0.00000,0.03111,0.97661,-0.18800,0.0,2023,6,7,14,35,31,848
40.70000,-0.17640,0.14735,0.00000,0.03245,0.97478,-0.18617,0.0,2023,6,7,14,35,31,858
40.70010,-0.00140,-0.02765,0.00000,0.02965,0.97893,-0.18812,0.0,2023,6,7,14,35,31,868
40.70020,-0.00140,0.05985,0.00000,0.03245,0.97673,-0.19081,0.0,2023,6,7,14,35,31,878
40.70030,0.05110,-0.20265,0.00000,0.03038,0.97734,-0.18934,0.0,2023,6,7,14,35,31,888
40.70040,-0.08890,-0.09765,0.00000,0.03343,0.97515,-0.18727,0.0,2023,6,7,14,35,31,898
40.70050,0.13860,-0.04515,0.00000,0.03245,0.97698,-0.18983,0.0,2023,6,7,14,35,31,908
40.70060,-0.24640,-0.01015,0.00000,0.03099,0.97539,-0.18861,0.0,2023,6,7,14,35,31,918
40.70070,0.17360,0.09485,0.00000,0.02977,0.97563,-0.19069,0.0,2023,6,7,14,35,31,928
40.70080,0.15610,-0.13265,0.00000,0.03087,0.97710,-0.18715,0.0,2023,6,7,14,35,31,938
40.70090,-0.12390,-0.02765,0.00000,0.03001,0.97649,-0.18861,0.0,2023,6,7,14,35,31,948
40.70100,-0.15890,0.12985,0.00000,0.03026,0.97515,-0.18886,0.0,2023,6,7,14,35,31,958
40.70110,-0.08890,0.05985,0.00000,0.03111,0.97722,-0.18861,0.0,2023,6,7,14,35,31,968
40.70120,0.08610,-0.02765,0.00000,0.03233,0.97563,-0.18739,0.0,2023,6,7,14,35,31,978
40.70130,0.12110,-0.22015,0.00000,0.03453,0.97478,-0.19032,0.0,2023,6,7,14,35,31,988
40.70140,0.06860,0.23485,0.00000,0.03294,0.97612,-0.18971,0.0,2023,6,7,14,35,31,998
40.70150,0.05110,-0.06265,0.00000,0.03135,0.97527,-0.18898,0.0,2023,6,7,14,35,31,8
40.70160,-0.00140,-0.08015,0.00000,0.03172,0.97563,-0.19056,0.0,2023,6,7,14,35,31,18
40.70170,0.19110,-0.11515,0.00000,0.03221,0.97661,-0.18837,0.0,2023,6,7,14,35,31,28
40.70180,0.20860,-0.09765,0.00000,0.03013,0.97612,-0.18849,0.0,2023,6,7,14,35,31,38
40.70190,-0.21140,-0.18515,0.00000,0.03318,0.97551,-0.18703,0.0,2023,6,7,14,35,31,48
40.70200,-0.14140,0.02485,0.00000,0.03050,0.97685,-0.18898,0.0,2023,6,7,14,35,31,58
40.70210,-0.01890,-0.02765,0.00000,0.03001,0.97722,-0.18898,0.0,2023,6,7,14,35,31,68
40.70220,-0.01890,-0.06265,0.00000,0.03233,0.97429,-0.18886,0.0,2023,6,7,14,35,31,78
40.70230,0.12110,0.04235,0.00000,0.03062,0.97685,-0.18898,0.0,2023,6,7,14,35,31,88
40.70240,0.05110,-0.04515,0.00000,0.03257,0.97624,-0.19008,0.0,2023,6,7,14,35,31,98
40.70250,0.01610,-0.13265,0.00000,0.03306,0.97612,-0.18751,0.0,2023,6,7,14,35,31,108
40.70260,-0.07140,-0.16765,0.00000,0.03111,0.97600,-0.19020,0.0,2023,6,7,14,35,31,118
40.70270,0.22610,0.07735,0.00000,0.03196,0.97685,-0.18837,0.0,2023,6,7,14,35,31,128
40.70280,0.03360,0.07735,0.00000,0.02977,0.97637,-0.18654,0.0,2023,6,7,14,35,31,138
40.70290,-0.01890,0.04235,0.00000,0.03087,0.97417,-0.19044,0.0,2023,6,7,14,35,31,148
40.70300,0.08610,0.00735,0.00000,0.03160,0.97734,-0.19069,0.0,2023,6,7,14,35,31,158
40.70310,-0.05390,0.07735,0.00000,0.03135,0.97527,-0.18959,0.0,2023,6,7,14,35,31,168
40.70320,0.03360,-0.04515,0.00000,0.03282,0.97563,-0.18995,0.0,2023,6,7,14,35,31,178
40.70330,0.10360,0.02485,0.00000,0.03184,0.97600,-0.18886,0.0,2023,6,7,14,35,31,188
40.70340,-0.07140,-0.15015,0.00000,0.03099,0.97868,-0.18776,0.0,2023,6,7,14,35,31,198
40.70350,-0.05390,0.00735,0.00000,0.03221,0.97685,-0.18861,0.0,2023,6,7,14,35,31,208
40.70360,-0.10640,0.16485,0.00000,0.02989,0.97600,-0.18837,0.0,2023,6,7,14,35,31,218
40.70370,-0.07140,-0.01015,0.00000,0.03184,0.97515,-0.18886,0.0,2023,6,7,14,35,31,228
40.70380,-0.17640,0.12985,0.00000,0.03160,0.97380,-0.18910,0.0,2023,6,7,14,35,31,238
40.70390,-0.01890,0.07735,0.00000,0.03404,0.97637,-0.18971,0.0,2023,6,7,14,35,31,248
40.70400,-0.05390,0.16485,0.00000,0.03184,0.97527,-0.19020,0.0,2023,6,7,14,35,31,258
40.70410,-0.07140,0.04235,0.00000,0.03148,0.97746,-0.18934,0.0,2023,6,7,14,35,31,268
40.70420,0.27860,-0.13265,0.00000,0.03148,0.97722,-0.18971,0.0,2023,6,7,14,35,31,278
40.70430,0.08610,0.04235,0.00000,0.03087,0.97441,-0.18947,0.0,2023,6,7,14,35,31,288
40.70440,-0.07140,0.00735,0.00000,0.03026,0.97807,-0.18690,0.0,2023,6,7,14,35,31,298
40.70450,-0.10640,-0.04515,0.00000,0.03074,0.97673,-0.18971,0.0,2023,6,7,14,35,31,308
40.70460,0.13860,-0.04515,0.00000,0.03209,0.97478,-0.18898,0.0,2023,6,7,14,35,31,318
40.70470,0.10360,-0.08015,0.00000,0.03062,0.97661,-0.19069,0.0,2023,6,7,14,35,31,328
40.70480,0.01610,-0.01015,0.00000,0.03355,0.97393,-0.19032,0.0,2023,6,7,14,35,31,338
40.70490,-0.12390,0.00735,0.00000,0.03123,0.97624,-0.18922,0.0,2023,6,7,14,35,31,348
40.70500,-0.01890,-0.02765,0.00000,0.03245,0.97637,-0.18947,0.0,2023,6,7,14,35,31,358
40.70510,-0.01890,0.19985,0.00000,0.03074,0.97710,-0.18837,0.0,2023,6,7,14,35,31,368
40.70520,-0.07140,-0.13265,0.00000,0.03209,0.97441,-0.18898,0.0,2023,6,7,14,35,31,378
40.70530,-0.05390,0.16485,0.00000,0.03062,0.97820,-0.18800,0.0,2023,6,7,14,35,31,388
40.70540,-0.12390,-0.18515,0.00000,0.03062,0.97539,-0.18910,0.0,2023,6,7,14,35,31,398
40.70550,0.05110,0.04235,0.00000,0.03172,0.97734,-0.19020,0.0,2023,6,7,14,35,31,408
40.70560,0.10360,-0.09765,0.00000,0.03135,0.97795,-0.19081,0.0,2023,6,7,14,35,31,418
40.70570,0.13860,0.09485,0.00000,0.03111,0.97515,-0.18971,0.0,2023,6,7,14,35,31,428
40.70580,-0.17640,0.02485,0.00000,0.02977,0.97441,-0.18861,0.0,2023,6,7,14,35,31,438
40.70590,0.10360,-0.16765,0.00000,0.03221,0.97795,-0.18947,0.0,2023,6,7,14,35,31,448
40.70600,0.01610,-0.11515,0.00000,0.03148,0.97637,-0.19166,0.0,2023,6,7,14,35,31,458
40.70610,0.26110,-0.02765,0.00000,0.03038,0.97710,-0.19020,0.0,2023,6,7,14,35,31,468
40.70620,0.05110,-0.06265,0.00000,0.03026,0.97710,-0.18971,0.0,2023,6,7,14,35,31,478
40.70630,0.05110,-0.23765,0.00000,0.03233,0.97551,-0.18947,0.0,2023,6,7,14,35,31,488
40.70640,0.08610,-0.01015,0.00000,0.03062,0.97551,-0.19081,0.0,2023,6,7,14,35,31,498
40.70650,0.26110,0.05985,0.00000,0.03135,0.97380,-0.18861,0.0,2023,6,7,14,35,31,508
40.70660,-0.08890,-0.01015,0.00000,0.03135,0.97661,-0.18825,0.0,2023,6,7,14,35,31,518
40.70670,-0.12390,-0.39515,0.00000,0.03160,0.97515,-0.19081,0.0,2023,6,7,14,35,31,528
40.70680,0.27860,-0.04515,0.00000,0.03257,0.97783,-0.19032,0.0,2023,6,7,14,35,31,538
40.70690,-0.01890,-0.09765,0.00000,0.03111,0.97515,-0.19056,0.0,2023,6,7,14,35,31,548
40.70700,-0.08890,0.12985,0.00000,0.02952,0.97722,-0.19239,0.0,2023,6,7,14,35,31,558
40.70710,0.15610,0.04235,0.00000,0.03257,0.97734,-0.19032,0.0,2023,6,7,14,35,31,568
40.70720,-0.21140,-0.08015,0.00000,0.03233,0.97576,-0.19020,0.0,2023,6,7,14,35,31,578
40.70730,0.15610,0.07735,0.00000,0.03355,0.97454,-0.19252,0.0,2023,6,7,14,35,31,588
40.70740,0.01610,-0.04515,0.00000,0.02989,0.97539,-0.18715,0.0,2023,6,7,14,35,31,598
40.70750,-0.12390,0.00735,0.00000,0.03001,0.97624,-0.19032,0.0,2023,6,7,14,35,31,608
40.70760,0.08610,-0.22015,0.00000,0.03026,0.97624,-0.18971,0.0,2023,6,7,14,35,31,618
40.70770,0.01610,0.07735,0.00000,0.03221,0.97624,-0.18495,0.0,2023,6,7,14,35,31,628
40.70780,0.06860,0.11235,0.00000,0.02977,0.97637,-0.19252,0.0,2023,6,7,14,35,31,638
40.70790,-0.00140,0.16485,0.00000,0.03123,0.97624,-0.18995,0.0,2023,6,7,14,35,31,648
40.70800,-0.19390,-0.02765,0.00000,0.03209,0.97661,-0.18971,0.0,2023,6,7,14,35,31,658
40.70810,0.22610,-0.13265,0.00000,0.03111,0.97649,-0.19166,0.0,2023,6,7,14,35,31,668
40.70820,0.15610,-0.02765,0.00000,0.03087,0.97551,-0.18703,0.0,2023,6,7,14,35,32,678
40.70830,-0.12390,0.12985,0.00000,0.02940,0.97710,-0.19215,0.0,2023,6,7,14,35,32,688
40.70840,0.15610,-0.02765,0.00000,0.02977,0.97771,-0.19154,0.0,2023,6,7,14,35,32,698
40.70850,0.03360,-0.01015,0.00000,0.03123,0.97734,-0.18837,0.0,2023,6,7,14,35,32,708
40.70860,-0.24640,0.11235,0.00000,0.02952,0.97832,-0.18959,0.0,2023,6,7,14,35,32,718
40.70870,0.33110,-0.02765,0.00000,0.03221,0.97820,-0.19056,0.0,2023,6,7,14,35,32,728
40.70880,-0.08890,-0.01015,0.00000,0.03184,0.97673,-0.18776,0.0,2023,6,7,14,35,32,738
40.70890,0.10360,0.09485,0.00000,0.03123,0.97307,-0.18922,0.0,2023,6,7,14,35,32,748
40.70900,-0.00140,0.14735,0.00000,0.03196,0.97710,-0.18739,0.0,2023,6,7,14,35,32,758
40.70910,-0.12390,-0.04515,0.00000,0.03331,0.97527,-0.18934,0.0,2023,6,7,14,35,32,768
40.70920,0.01610,-0.06265,0.00000,0.03038,0.97576,-0.19154,0.0,2023,6,7,14,35,32,778
40.70930,0.05110,0.11235,0.00000,0.03221,0.97551,-0.18959,0.0,2023,6,7,14,35,32,788
40.70940,0.03360,-0.04515,0.00000,0.03184,0.97454,-0.18898,0.0,2023,6,7,14,35,32,798
40.70950,0.08610,-0.08015,0.00000,0.03221,0.97832,-0.18849,0.0,2023,6,7,14,35,32,808
40.70960,-0.31640,-0.02765,0.00000,0.03416,0.97539,-0.18947,0.0,2023,6,7,14,35,32,818
40.70970,-0.03640,-0.02765,0.00000,0.03294,0.97685,-0.18934,0.0,2023,6,7,14,35,32,828
40.70980,0.03360,0.11235,0.00000,0.03257,0.97344,-0.18983,0.0,2023,6,7,14,35,32,838
40.70990,0.12110,-0.30765,0.00000,0.03233,0.97734,-0.18849,0.0,2023,6,7,14,35,32,848
40.71000,0.17360,-0.16765,0.00000,0.03294,0.97539,-0.18995,0.0,2023,6,7,14,35,32,858
40.71010,0.26110,-0.15015,0.00000,0.03074,0.97734,-0.18947,0.0,2023,6,7,14,35,32,868
40.71020,-0.12390,-0.20265,0.00000,0.03270,0.97710,-0.19020,0.0,2023,6,7,14,35,32,878
40.71030,0.03360,0.04235,0.00000,0.03038,0.97612,-0.19325,0.0,2023,6,7,14,35,32,888
40.71040,0.01610,-0.16765,0.00000,0.03221,0.97600,-0.18788,0.0,2023,6,7,14,35,32,898
40.71050,-0.08890,-0.06265,0.00000,0.03111,0.97612,-0.19178,0.0,2023,6,7,14,35,32,908
40.71060,0.26110,-0.04515,0.00000,0.03111,0.97649,-0.19227,0.0,2023,6,7,14,35,32,918
40.71070,-0.01890,-0.18515,0.00000,0.03294,0.97380,-0.18507,0.0,2023,6,7,14,35,32,928
40.71080,-0.21140,0.05985,0.00000,0.03074,0.97698,-0.18971,0.0,2023,6,7,14,35,32,938
40.71090,0.31360,0.04235,0.00000,0.03111,0.97649,-0.19105,0.0,2023,6,7,14,35,32,948
40.71100,-0.24640,0.14735,0.00000,0.03026,0.97588,-0.18812,0.0,2023,6,7,14,35,32,958
40.71110,-0.01890,-0.09765,0.00000,0.03050,0.97710,-0.18934,0.0,2023,6,7,14,35,32,968
40.71120,0.08610,0.28735,0.00000,0.03184,0.97698,-0.19081,0.0,2023,6,7,14,35,32,978
40.71130,-0.01890,0.07735,0.00000,0.03270,0.97698,-0.19020,0.0,2023,6,7,14,35,32,988
40.71140,0.15610,0.00735,0.00000,0.03038,0.97515,-0.19117,0.0,2023,6,7,14,35,32,998
40.71150,-0.21140,0.23485,0.00000,0.03160,0.97637,-0.18861,0.0,2023,6,7,14,35,32,8
40.71160,0.12110,-0.09765,0.00000,0.03099,0.97637,-0.18934,0.0,2023,6,7,14,35,32,18
40.71170,0.17360,-0.15015,0.00000,0.03209,0.97746,-0.19032,0.0,2023,6,7,14,35,32,28
40.71180,0.10360,-0.08015,0.00000,0.03209,0.97673,-0.18886,0.0,2023,6,7,14,35,32,38
40.71190,-0.40390,0.16485,0.00000,0.02952,0.97332,-0.19069,0.0,2023,6,7,14,35,32,48
40.71200,0.26110,0.00735,0.00000,0.03087,0.97624,-0.18788,0.0,2023,6,7,14,35,32,58
40.71210,0.01610,-0.09765,0.00000,0.03172,0.97722,-0.18825,0.0,2023,6,7,14,35,32,68
40.71220,-0.07140,-0.04515,0.00000,0.03123,0.97588,-0.19032,0.0,2023,6,7,14,35,32,78
40.71230,0.06860,-0.02765,0.00000,0.03233,0.97734,-0.19008,0.0,2023,6,7,14,35,32,88
40.71240,-0.36890,-0.16765,0.00000,0.03038,0.97649,-0.18776,0.0,2023,6,7,14,35,32,98
40.71250,0.24360,-0.22015,0.00000,0.03062,0.97917,-0.18995,0.0,2023,6,7,14,35,32,108
40.71260,-0.00140,0.07735,0.00000,0.03257,0.97588,-0.18886,0.0,2023,6,7,14,35,32,118
40.71270,-0.01890,-0.08015,0.00000,0.03123,0.97563,-0.18886,0.0,2023,6,7,14,35,32,128
40.71280,0.08610,0.04235,0.00000,0.03306,0.97600,-0.19105,0.0,2023,6,7,14,35,32,138
40.71290,0.12110,-0.06265,0.00000,0.03111,0.97759,-0.18873,0.0,2023,6,7,14,35,32,148
40.71300,-0.17640,-0.02765,0.00000,0.02977,0.97637,-0.19081,0.0,2023,6,7,14,35,32,158
40.71310,-0.01890,0.14735,0.00000,0.03148,0.97649,-0.18849,0.0,2023,6,7,14,35,32,168
40.71320,0.08610,-0.11515,0.00000,0.02989,0.97417,-0.18837,0.0,2023,6,7,14,35,32,178
40.71330,-0.08890,0.09485,0.00000,0.03367,0.97502,-0.18995,0.0,2023,6,7,14,35,32,188
40.71340,-0.08890,0.14735,0.00000,0.03013,0.97844,-0.18849,0.0,2023,6,7,14,35,32,198
40.71350,-0.10640,0.14735,0.00000,0.03135,0.97746,-0.18886,0.0,2023,6,7,14,35,32,208
40.71360,0.01610,-0.04515,0.00000,0.03123,0.97441,-0.18983,0.0,2023,6,7,14,35,32,218
40.71370,0.01610,-0.06265,0.00000,0.03062,0.97551,-0.18983,0.0,2023,6,7,14,35,32,228
40.71380,0.05110,-0.02765,0.00000,0.02879,0.97771,-0.19056,0.0,2023,6,7,14,35,32,238
40.71390,0.10360,0.00735,0.00000,0.03123,0.97466,-0.19044,0.0,2023,6,7,14,35,32,248
40.71400,0.05110,0.07735,0.00000,0.03172,0.97734,-0.18825,0.0,2023,6,7,14,35,32,258
40.71410,-0.01890,-0.11515,0.00000,0.03148,0.97881,-0.19154,0.0,2023,6,7,14,35,32,268
40.71420,0.15610,0.00735,0.00000,0.03257,0.97698,-0.19178,0.0,2023,6,7,14,35,32,278
40.71430,0.12110,-0.20265,0.00000,0.03026,0.97649,-0.18995,0.0,2023,6,7,14,35,32,288
40.71440,-0.05390,-0.22015,0.00000,0.03026,0.97478,-0.18825,0.0,2023,6,7,14,35,32,298
40.71450,0.01610,0.18235,0.00000,0.02977,0.97807,-0.18971,0.0,2023,6,7,14,35,32,308
40.71460,-0.07140,0.02485,0.00000,0.03099,0.97734,-0.18654,0.0,2023,6,7,14,35,32,318
40.71470,-0.17640,0.23485,0.00000,0.03062,0.97539,-0.18886,0.0,2023,6,7,14,35,32,328
40.71480,0.20860,-0.27265,0.00000,0.03331,0.97783,-0.19215,0.0,2023,6,7,14,35,32,338
40.71490,-0.26390,0.16485,0.00000,0.03087,0.97502,-0.18617,0.0,2023,6,7,14,35,32,348
