#2023/06/07 17:51:36
time,wx,wy,wz,ax,ay,az,yy,MM,dd,hh,mm,ss,ms
50.80850,0.09818,0.03377,0.00000,0.03062,0.97624,-0.18922,0.0,2023,6,7,17,51,36,262
50.80860,-0.07682,-0.01873,0.00000,0.02940,0.97539,-0.18849,0.0,2023,6,7,17,51,36,273
50.80870,-0.16432,0.08627,0.00000,0.03196,0.97661,-0.18764,0.0,2023,6,7,17,51,36,284
50.80880,0.06318,-0.03623,0.00000,0.03184,0.97771,-0.19105,0.0,2023,6,7,17,51,37,5
50.80890,0.06318,0.03377,0.00000,0.03221,0.97307,-0.18934,0.0,2023,6,7,17,51,37,16
50.80900,-0.00682,-0.15873,0.00000,0.03026,0.97820,-0.19166,0.0,2023,6,7,17,51,37,27
50.80910,0.36068,-0.15873,0.00000,0.03099,0.97710,-0.19410,0.0,2023,6,7,17,51,37,38
50.80920,0.08068,-0.08873,0.00000,0.03196,0.97466,-0.19154,0.0,2023,6,7,17,51,37,49
50.80930,-0.02432,-0.01873,0.00000,0.03111,0.97563,-0.18715,0.0,2023,6,7,17,51,37,60
50.80940,0.15068,-0.10623,0.00000,0.03172,0.97612,-0.19020,0.0,2023,6,7,17,51,37,72
50.80950,0.09818,-0.28123,0.00000,0.03440,0.97734,-0.18593,0.0,2023,6,7,17,51,37,83
50.80960,-0.09432,0.01627,0.00000,0.03184,0.97746,-0.18959,0.0,2023,6,7,17,51,37,94
50.80970,-0.05932,0.08627,0.00000,0.03160,0.97429,-0.19044,0.0,2023,6,7,17,51,37,105
50.80980,-0.11182,-0.17623,0.00000,0.03306,0.97441,-0.18873,0.0,2023,6,7,17,51,37,116
50.80990,-0.04182,-0.07123,0.00000,0.03026,0.97441,-0.18873,0.0,2023,6,7,17,51,37,127
50.81000,0.04568,0.05127,0.00000,0.03160,0.97527,-0.18947,0.0,2023,6,7,17,51,37,138
50.81010,0.04568,0.26127,0.00000,0.03172,0.97685,-0.18983,0.0,2023,6,7,17,51,37,149
50.81020,-0.04182,-0.05373,0.00000,0.03221,0.97759,-0.18898,0.0,2023,6,7,17,51,37,160
50.81030,-0.11182,0.05127,0.00000,0.03233,0.97588,-0.18898,0.0,2023,6,7,17,51,37,172
50.81040,-0.18182,-0.01873,0.00000,0.03257,0.97612,-0.18837,0.0,2023,6,7,17,51,37,183
50.81050,-0.11182,0.03377,0.00000,0.03221,0.97429,-0.18825,0.0,2023,6,7,17,51,37,194
50.81060,0.08068,0.05127,0.00000,0.03209,0.97466,-0.18849,0.0,2023,6,7,17,51,37,205
50.81070,-0.12932,0.19127,0.00000,0.03196,0.97527,-0.19117,0.0,2023,6,7,17,51,37,216
50.81080,0.06318,-0.03623,0.00000,0.03135,0.97539,-0.19020,0.0,2023,6,7,17,51,37,227
50.81090,0.08068,0.10377,0.00000,0.03038,0.97844,-0.19044,0.0,2023,6,7,17,51,37,238
50.81100,-0.21682,-0.01873,0.00000,0.03245,0.97637,-0.18751,0.0,2023,6,7,17,51,37,249
50.81110,-0.18182,0.22627,0.00000,0.03087,0.97356,-0.18739,0.0,2023,6,7,17,51,37,260
50.81120,0.01068,-0.08873,0.00000,0.03318,0.97661,-0.18800,0.0,2023,6,7,17,51,37,272
50.81130,0.01068,0.06877,0.00000,0.03123,0.97466,-0.18666,0.0,2023,6,7,17,51,37,283
50.81140,0.04568,0.03377,0.00000,0.03196,0.97722,-0.18861,0.0,2023,6,7,17,51,37,294
50.81150,0.04568,-0.28123,0.00000,0.02916,0.97429,-0.18886,0.0,2023,6,7,17,51,37,305
50.81160,0.04568,-0.00123,0.00000,0.03074,0.97515,-0.18812,0.0,2023,6,7,17,51,37,316
50.81170,0.06318,-0.19373,0.00000,0.03111,0.97624,-0.18922,0.0,2023,6,7,17,51,37,327
50.81180,0.16818,-0.17623,0.00000,0.03135,0.97600,-0.18995,0.0,2023,6,7,17,51,37,338
50.81190,-0.02432,-0.00123,0.00000,0.03111,0.97551,-0.18886,0.0,2023,6,7,17,51,37,349
50.81200,0.15068,0.20877,0.00000,0.02867,0.97563,-0.18995,0.0,2023,6,7,17,51,37,360
50.81210,0.15068,-0.05373,0.00000,0.03099,0.97380,-0.18654,0.0,2023,6,7,17,51,37,372
50.81220,0.09818,-0.28123,0.00000,0.03270,0.97612,-0.18581,0.0,2023,6,7,17,51,37,383
50.81230,0.06318,-0.03623,0.00000,0.03379,0.97746,-0.19069,0.0,2023,6,7,17,51,37,394
50.81240,-0.09432,0.01627,0.00000,0.03306,0.97612,-0.18654,0.0,2023,6,7,17,51,37,405
50.81250,0.16818,-0.19373,0.00000,0.03099,0.97759,-0.19142,0.0,2023,6,7,17,51,37,416
50.81260,-0.04182,0.03377,0.00000,0.02830,0.97551,-0.19191,0.0,2023,6,7,17,51,37,427
50.81270,0.15068,-0.01873,0.00000,0.02806,0.97563,-0.18983,0.0,2023,6,7,17,51,37,438
50.81280,0.09818,-0.03623,0.00000,0.03026,0.97734,-0.18703,0.0,2023,6,7,17,51,37,449
50.81290,-0.14682,0.08627,0.00000,0.03233,0.97661,-0.18617,0.0,2023,6,7,17,51,37,460
50.81300,-0.04182,0.03377,0.00000,0.03233,0.97783,-0.18690,0.0,2023,6,7,17,51,37,472
50.81310,0.04568,-0.15873,0.00000,0.02977,0.97844,-0.18764,0.0,2023,6,7,17,51,37,483
50.81320,0.01068,0.13877,0.00000,0.03099,0.97856,-0.18995,0.0,2023,6,7,17,51,37,494
50.81330,0.11568,0.01627,0.00000,0.02830,0.97661,-0.18751,0.0,2023,6,7,17,51,37,505
50.81340,-0.16432,-0.12373,0.00000,0.02989,0.97454,-0.18825,0.0,2023,6,7,17,51,37,516
50.81350,-0.04182,0.24377,0.00000,0.02977,0.97673,-0.18983,0.0,2023,6,7,17,51,37,527
50.81360,-0.00682,-0.17623,0.00000,0.02977,0.97649,-0.19239,0.0,2023,6,7,17,51,37,538
50.81370,0.01068,0.13877,0.00000,0.03062,0.97527,-0.19178,0.0,2023,6,7,17,51,37,549
50.81380,0.06318,-0.00123,0.00000,0.02684,0.97551,-0.18873,0.0,2023,6,7,17,51,37,560
50.81390,-0.30432,0.01627,0.00000,0.03404,0.97576,-0.18605,0.0,2023,6,7,17,51,37,572
50.81400,-0.04182,-0.03623,0.00000,0.03062,0.97698,-0.18910,0.0,2023,6,7,17,51,37,583
50.81410,0.06318,-0.15873,0.00000,0.03135,0.97527,-0.18873,0.0,2023,6,7,17,51,37,594
50.81420,-0.05932,0.10377,0.00000,0.03099,0.97454,-0.18861,0.0,2023,6,7,17,51,37,605
50.81430,0.13318,-0.05373,0.00000,0.03306,0.97637,-0.18995,0.0,2023,6,7,17,51,37,616
50.81440,-0.16432,0.08627,0.00000,0.03392,0.97685,-0.18849,0.0,2023,6,7,17,51,37,627
50.81450,-0.09432,0.29627,0.00000,0.03257,0.97722,-0.18581,0.0,2023,6,7,17,51,37,638
50.81460,-0.09432,0.13877,0.00000,0.03257,0.97624,-0.19191,0.0,2023,6,7,17,51,37,649
50.81470,-0.07682,0.19127,0.00000,0.03099,0.97673,-0.19117,0.0,2023,6,7,17,51,37,660
50.81480,-0.04182,0.03377,0.00000,0.03026,0.97844,-0.19239,0.0,2023,6,7,17,51,37,672
50.81490,-0.18182,-0.12373,0.00000,0.03013,0.97576,-0.19203,0.0,2023,6,7,17,51,37,683
50.81500,-0.11182,0.03377,0.00000,0.03001,0.97588,-0.19130,0.0,2023,6,7,17,51,37,694
50.81510,0.01068,-0.10623,0.00000,0.02940,0.97722,-0.19117,0.0,2023,6,7,17,51,37,705
50.81520,-0.04182,0.13877,0.00000,0.03209,0.97783,-0.18849,0.0,2023,6,7,17,51,37,716
50.81530,-0.14682,-0.05373,0.00000,0.03111,0.97746,-0.18812,0.0,2023,6,7,17,51,37,727
50.81540,-0.04182,0.26127,0.00000,0.03318,0.97795,-0.18886,0.0,2023,6,7,17,51,37,738
50.81550,0.13318,-0.05373,0.00000,0.02965,0.97393,-0.19313,0.0,2023,6,7,17,51,37,749
50.81560,-0.05932,-0.01873,0.00000,0.03001,0.97673,-0.19325,0.0,2023,6,7,17,51,37,760
50.81570,-0.02432,0.03377,0.00000,0.03062,0.97661,-0.19337,0.0,2023,6,7,17,51,37,772
50.81580,0.09818,0.05127,0.00000,0.03062,0.97527,-0.19044,0.0,2023,6,7,17,51,37,783
50.81590,0.01068,0.08627,0.00000,0.03062,0.97405,-0.18837,0.0,2023,6,7,17,51,37,794
50.81600,-0.04182,-0.17623,0.00000,0.03245,0.97576,-0.18922,0.0,2023,6,7,17,51,37,805
50.81610,-0.07682,0.06877,0.00000,0.03318,0.97685,-0.19032,0.0,2023,6,7,17,51,37,816
50.81620,-0.14682,0.10377,0.00000,0.03038,0.97600,-0.18825,0.0,2023,6,7,17,51,37,827
50.81630,-0.23432,0.06877,0.00000,0.03160,0.97771,-0.18764,0.0,2023,6,7,17,51,37,838
50.81640,0.15068,-0.05373,0.00000,0.03245,0.97881,-0.18947,0.0,2023,6,7,17,51,37,849
50.81650,0.01068,-0.07123,0.00000,0.03196,0.97490,-0.19337,0.0,2023,6,7,17,51,37,860
50.81660,-0.00682,0.06877,0.00000,0.02965,0.97624,-0.19020,0.0,2023,6,7,17,51,37,872
50.81670,-0.02432,-0.08873,0.00000,0.03087,0.97527,-0.19142,0.0,2023,6,7,17,51,37,883
50.81680,0.02818,-0.10623,0.00000,0.03111,0.97783,-0.19276,0.0,2023,6,7,17,51,37,894
50.81690,0.18568,-0.10623,0.00000,0.03038,0.97588,-0.18910,0.0,2023,6,7,17,51,37,905
50.81700,0.15068,-0.10623,0.00000,0.03148,0.97466,-0.18983,0.0,2023,6,7,17,51,37,916
50.81710,-0.07682,0.12127,0.00000,0.03160,0.97722,-0.18812,0.0,2023,6,7,17,51,37,927
50.81720,-0.09432,-0.12373,0.00000,0.03172,0.97771,-0.19032,0.0,2023,6,7,17,51,37,938
50.81730,-0.04182,-0.00123,0.00000,0.03331,0.97576,-0.18886,0.0,2023,6,7,17,51,37,949
50.81740,0.01068,0.17377,0.00000,0.03209,0.97637,-0.18922,0.0,2023,6,7,17,51,37,960
50.81750,0.13318,-0.05373,0.00000,0.03099,0.97673,-0.19117,0.0,2023,6,7,17,51,37,972
50.81760,0.13318,-0.14123,0.00000,0.02989,0.97649,-0.19081,0.0,2023,6,7,17,51,37,983
50.81770,0.04568,0.06877,0.00000,0.02904,0.97698,-0.19252,0.0,2023,6,7,17,51,37,994
50.81780,0.11568,-0.14123,0.00000,0.02952,0.97429,-0.19154,0.0,2023,6,7,17,51,38,5
50.81790,0.23818,-0.03623,0.00000,0.03111,0.97478,-0.19239,0.0,2023,6,7,17,51,38,16
50.81800,-0.02432,0.01627,0.00000,0.03160,0.97746,-0.18959,0.0,2023,6,7,17,51,38,27
50.81810,-0.12932,0.17377,0.00000,0.03172,0.97685,-0.18666,0.0,2023,6,7,17,51,38,38
50.81820,0.06318,0.01627,0.00000,0.03026,0.97673,-0.19239,0.0,2023,6,7,17,51,38,49
50.81830,-0.05932,-0.01873,0.00000,0.03392,0.97368,-0.19093,0.0,2023,6,7,17,51,38,60
50.81840,-0.11182,0.01627,0.00000,0.03184,0.97429,-0.19166,0.0,2023,6,7,17,51,38,72
50.81850,-0.00682,0.22627,0.00000,0.03184,0.97746,-0.19410,0.0,2023,6,7,17,51,38,83
50.81860,0.18568,-0.12373,0.00000,0.03050,0.97746,-0.19276,0.0,2023,6,7,17,51,38,94
50.81870,-0.11182,0.20877,0.00000,0.03087,0.97759,-0.19386,0.0,2023,6,7,17,51,38,105
50.81880,-0.12932,0.08627,0.00000,0.03111,0.97490,-0.19117,0.0,2023,6,7,17,51,38,116
50.81890,-0.18182,-0.01873,0.00000,0.03038,0.97759,-0.19081,0.0,2023,6,7,17,51,38,127
50.81900,-0.02432,0.08627,0.00000,0.03172,0.97685,-0.18934,0.0,2023,6,7,17,51,38,138
50.81910,-0.00682,-0.00123,0.00000,0.03013,0.97393,-0.19020,0.0,2023,6,7,17,51,38,149
50.81920,-0.04182,-0.14123,0.00000,0.03257,0.97759,-0.18959,0.0,2023,6,7,17,51,38,160
50.81930,-0.18182,0.01627,0.00000,0.03038,0.97722,-0.19239,0.0,2023,6,7,17,51,38,172
50.81940,0.15068,0.10377,0.00000,0.03062,0.97624,-0.19252,0.0,2023,6,7,17,51,38,183
50.81950,0.02818,0.12127,0.00000,0.02818,0.97771,-0.19105,0.0,2023,6,7,17,51,38,194
50.81960,-0.11182,0.17377,0.00000,0.03074,0.97576,-0.18873,0.0,2023,6,7,17,51,38,205
50.81970,0.09818,0.13877,0.00000,0.03123,0.97722,-0.19398,0.0,2023,6,7,17,51,38,216
50.81980,0.16818,-0.12373,0.00000,0.03026,0.97478,-0.19337,0.0,2023,6,7,17,51,38,227
50.81990,-0.02432,-0.03623,0.00000,0.03184,0.97734,-0.19666,0.0,2023,6,7,17,51,38,238
50.82000,0.01068,0.06877,0.00000,0.03148,0.97624,-0.19544,0.0,2023,6,7,17,51,38,249
50.82010,0.11568,-0.12373,0.00000,0.03196,0.97478,-0.19215,0.0,2023,6,7,17,51,38,260
50.82020,-0.12932,0.24377,0.00000,0.03123,0.97612,-0.19227,0.0,2023,6,7,17,51,38,272
50.82030,-0.11182,0.01627,0.00000,0.02965,0.97454,-0.19166,0.0,2023,6,7,17,51,38,283
50.82040,-0.00682,-0.03623,0.00000,0.03343,0.97722,-0.19020,0.0,2023,6,7,17,51,38,294
50.82050,-0.07682,-0.12373,0.00000,0.03026,0.97576,-0.19081,0.0,2023,6,7,17,51,38,305
50.82060,-0.02432,-0.00123,0.00000,0.03318,0.97649,-0.19227,0.0,2023,6,7,17,51,38,316
50.82070,-0.07682,-0.03623,0.00000,0.03318,0.97771,-0.18922,0.0,2023,6,7,17,51,38,327
50.82080,-0.18182,0.12127,0.00000,0.03270,0.97710,-0.19203,0.0,2023,6,7,17,51,38,338
50.82090,0.18568,0.08627,0.00000,0.03221,0.97502,-0.19386,0.0,2023,6,7,17,51,38,349
50.82100,-0.00682,0.03377,0.00000,0.02843,0.97759,-0.19215,0.0,2023,6,7,17,51,38,360
50.82110,0.06318,0.08627,0.00000,0.03221,0.97527,-0.19300,0.0,2023,6,7,17,51,38,372
50.82120,0.04568,-0.00123,0.00000,0.03001,0.97332,-0.19130,0.0,2023,6,7,17,51,38,383
50.82130,0.01068,0.10377,0.00000,0.03074,0.97734,-0.19008,0.0,2023,6,7,17,51,38,394
50.82140,0.15068,-0.19373,0.00000,0.03343,0.97393,-0.19300,0.0,2023,6,7,17,51,38,405
50.82150,-0.05932,-0.00123,0.00000,0.03172,0.97576,-0.19313,0.0,2023,6,7,17,51,38,416
50.82160,0.09818,-0.05373,0.00000,0.03184,0.97502,-0.19142,0.0,2023,6,7,17,51,38,427
50.82170,-0.05932,-0.03623,0.00000,0.03196,0.97490,-0.19252,0.0,2023,6,7,17,51,38,438
50.82180,-0.18182,0.10377,0.00000,0.03135,0.97832,-0.18800,0.0,2023,6,7,17,51,38,449
50.82190,-0.16432,-0.05373,0.00000,0.03135,0.97600,-0.18898,0.0,2023,6,7,17,51,38,460
50.82200,0.01068,-0.08873,0.00000,0.03099,0.97661,-0.18947,0.0,2023,6,7,17,51,38,472
50.82210,-0.02432,-0.00123,0.00000,0.03062,0.97673,-0.19300,0.0,2023,6,7,17,51,38,483
50.82220,-0.00682,-0.05373,0.00000,0.03001,0.97441,-0.18983,0.0,2023,6,7,17,51,38,494
50.82230,0.02818,-0.08873,0.00000,0.03050,0.97588,-0.19239,0.0,2023,6,7,17,51,38,505
50.82240,0.18568,-0.26373,0.00000,0.03184,0.97759,-0.19032,0.0,2023,6,7,17,51,38,516
50.82250,0.13318,-0.03623,0.00000,0.03135,0.97576,-0.19032,0.0,2023,6,7,17,51,38,527
50.82260,-0.09432,0.08627,0.00000,0.03001,0.97600,-0.19227,0.0,2023,6,7,17,51,38,538
50.82270,-0.09432,0.24377,0.00000,0.03245,0.97710,-0.19203,0.0,2023,6,7,17,51,38,549
50.82280,0.11568,-0.05373,0.00000,0.03148,0.97600,-0.18776,0.0,2023,6,7,17,51,38,560
50.82290,0.13318,-0.12373,0.00000,0.03184,0.97844,-0.18715,0.0,2023,6,7,17,51,38,572
50.82300,0.13318,-0.10623,0.00000,0.03245,0.97405,-0.19130,0.0,2023,6,7,17,51,38,583
50.82310,-0.11182,0.15627,0.00000,0.03172,0.97490,-0.19178,0.0,2023,6,7,17,51,38,594
50.82320,0.09818,0.01627,0.00000,0.03123,0.97624,-0.19056,0.0,2023,6,7,17,51,38,605
50.82330,-0.33932,0.12127,0.00000,0.03111,0.97734,-0.18922,0.0,2023,6,7,17,51,38,616
50.82340,-0.02432,0.15627,0.00000,0.03160,0.97661,-0.19105,0.0,2023,6,7,17,51,38,627
50.82350,0.11568,0.06877,0.00000,0.03050,0.97612,-0.18800,0.0,2023,6,7,17,51,38,638
50.82360,0.01068,-0.00123,0.00000,0.03209,0.97807,-0.18995,0.0,2023,6,7,17,51,38,649
50.82370,0.04568,0.17377,0.00000,0.02879,0.97673,-0.19300,0.0,2023,6,7,17,51,38,660
50.82380,0.08068,-0.07123,0.00000,0.03111,0.97551,-0.19239,0.0,2023,6,7,17,51,38,672
50.82390,0.08068,-0.03623,0.00000,0.03087,0.97673,-0.19130,0.0,2023,6,7,17,51,38,683
50.82400,-0.33932,0.05127,0.00000,0.03282,0.97673,-0.19117,0.0,2023,6,7,17,51,38,694
50.82410,0.02818,-0.22873,0.00000,0.02940,0.97539,-0.19154,0.0,2023,6,7,17,51,38,705
50.82420,0.04568,-0.07123,0.00000,0.03074,0.97661,-0.19203,0.0,2023,6,7,17,51,38,716
50.82430,0.08068,-0.19373,0.00000,0.03331,0.97576,-0.18934,0.0,2023,6,7,17,51,38,727
50.82440,-0.00682,0.05127,0.00000,0.03257,0.97807,-0.18971,0.0,2023,6,7,17,51,38,738
50.82450,0.06318,0.05127,0.00000,0.02989,0.97527,-0.18642,0.0,2023,6,7,17,51,38,749
50.82460,0.13318,-0.03623,0.00000,0.03123,0.97539,-0.18947,0.0,2023,6,7,17,51,38,760
50.82470,0.02818,0.05127,0.00000,0.03001,0.97612,-0.19252,0.0,2023,6,7,17,51,38,772
50.82480,0.04568,0.05127,0.00000,0.03074,0.97759,-0.19069,0.0,2023,6,7,17,51,38,783
50.82490,0.04568,-0.05373,0.00000,0.02879,0.97746,-0.19191,0.0,2023,6,7,17,51,38,794
50.82500,-0.11182,0.03377,0.00000,0.03221,0.97685,-0.18886,0.0,2023,6,7,17,51,38,805
50.82510,-0.00682,0.12127,0.00000,0.03123,0.97417,-0.19020,0.0,2023,6,7,17,51,38,816
50.82520,-0.16432,-0.01873,0.00000,0.03306,0.97673,-0.18947,0.0,2023,6,7,17,51,38,827
50.82530,-0.04182,0.17377,0.00000,0.02891,0.97551,-0.19020,0.0,2023,6,7,17,51,38,838
50.82540,0.08068,-0.10623,0.00000,0.03050,0.97539,-0.19008,0.0,2023,6,7,17,51,38,849
50.82550,-0.16432,0.08627,0.00000,0.03184,0.97478,-0.18934,0.0,2023,6,7,17,51,38,860
50.82560,0.11568,-0.05373,0.00000,0.03111,0.97661,-0.19117,0.0,2023,6,7,17,51,38,872
50.82570,-0.09432,0.19127,0.00000,0.02989,0.97551,-0.18715,0.0,2023,6,7,17,51,38,883
50.82580,0.18568,-0.14123,0.00000,0.03318,0.97637,-0.19130,0.0,2023,6,7,17,51,38,894
50.82590,0.25568,-0.12373,0.00000,0.03209,0.97515,-0.19203,0.0,2023,6,7,17,51,38,905
50.82600,0.08068,-0.07123,0.00000,0.02952,0.97612,-0.19056,0.0,2023,6,7,17,51,38,916
50.82610,0.09818,-0.07123,0.00000,0.03135,0.97612,-0.18995,0.0,2023,6,7,17,51,38,927
50.82620,-0.00682,0.03377,0.00000,0.03074,0.97722,-0.18727,0.0,2023,6,7,17,51,38,938
50.82630,-0.07682,0.22627,0.00000,0.03184,0.97441,-0.18617,0.0,2023,6,7,17,51,38,949
50.82640,-0.11182,0.08627,0.00000,0.03184,0.97612,-0.18654,0.0,2023,6,7,17,51,38,960
50.82650,-0.00682,-0.07123,0.00000,0.02989,0.97759,-0.18910,0.0,2023,6,7,17,51,38,972
50.82660,0.18568,-0.21123,0.00000,0.03050,0.97795,-0.18983,0.0,2023,6,7,17,51,38,983
50.82670,-0.02432,0.27877,0.00000,0.02891,0.97539,-0.19227,0.0,2023,6,7,17,51,38,994
50.82680,0.08068,0.01627,0.00000,0.03013,0.97502,-0.18947,0.0,2023,6,7,17,51,39,5
50.82690,0.01068,0.03377,0.00000,0.03050,0.97844,-0.19117,0.0,2023,6,7,17,51,39,16
50.82700,0.04568,-0.15873,0.00000,0.03184,0.97600,-0.19032,0.0,2023,6,7,17,51,39,27
50.82710,0.06318,-0.07123,0.00000,0.03184,0.97429,-0.18934,0.0,2023,6,7,17,51,39,38
50.82720,0.09818,-0.17623,0.00000,0.03392,0.97710,-0.18703,0.0,2023,6,7,17,51,39,49
50.82730,-0.07682,-0.05373,0.00000,0.03282,0.97649,-0.18617,0.0,2023,6,7,17,51,39,60
50.82740,-0.09432,0.19127,0.00000,0.02904,0.97405,-0.19203,0.0,2023,6,7,17,51,39,72
50.82750,-0.00682,0.03377,0.00000,0.03001,0.97515,-0.18788,0.0,2023,6,7,17,51,39,83
50.82760,0.34318,-0.17623,0.00000,0.03123,0.97746,-0.19105,0.0,2023,6,7,17,51,39,94
50.82770,-0.04182,0.03377,0.00000,0.03160,0.97576,-0.18910,0.0,2023,6,7,17,51,39,105
50.82780,-0.00682,-0.01873,0.00000,0.03123,0.97734,-0.18849,0.0,2023,6,7,17,51,39,116
50.82790,0.04568,-0.24623,0.00000,0.03135,0.97429,-0.19020,0.0,2023,6,7,17,51,39,127
50.82800,0.09818,-0.12373,0.00000,0.03074,0.97576,-0.18959,0.0,2023,6,7,17,51,39,138
50.82810,0.01068,0.19127,0.00000,0.03135,0.97759,-0.18947,0.0,2023,6,7,17,51,39,149
50.82820,0.15068,-0.01873,0.00000,0.03184,0.97563,-0.19154,0.0,2023,6,7,17,51,39,160
50.82830,0.13318,-0.08873,0.00000,0.03233,0.97673,-0.18751,0.0,2023,6,7,17,51,39,172
50.82840,0.08068,0.20877,0.00000,0.03184,0.97563,-0.19166,0.0,2023,6,7,17,51,39,183
50.82850,-0.12932,0.10377,0.00000,0.03184,0.97576,-0.18922,0.0,2023,6,7,17,51,39,194
50.82860,-0.00682,-0.10623,0.00000,0.03038,0.97722,-0.18995,0.0,2023,6,7,17,51,39,205
50.82870,-0.09432,0.15627,0.00000,0.03111,0.97319,-0.19410,0.0,2023,6,7,17,51,39,216
50.82880,0.02818,-0.07123,0.00000,0.03038,0.97661,-0.18849,0.0,2023,6,7,17,51,39,227
50.82890,-0.05932,-0.07123,0.00000,0.02904,0.97783,-0.18886,0.0,2023,6,7,17,51,39,238
50.82900,-0.07682,-0.08873,0.00000,0.03160,0.97637,-0.18910,0.0,2023,6,7,17,51,39,249
50.82910,-0.09432,-0.00123,0.00000,0.03135,0.97502,-0.19154,0.0,2023,6,7,17,51,39,260
50.82920,-0.05932,0.26127,0.00000,0.03062,0.97844,-0.19325,0.0,2023,6,7,17,51,39,272
50.82930,-0.21682,0.08627,0.00000,0.02867,0.97576,-0.19227,0.0,2023,6,7,17,51,39,283
50.82940,0.06318,0.26127,0.00000,0.03160,0.97795,-0.19081,0.0,2023,6,7,17,51,39,294
50.82950,0.15068,-0.10623,0.00000,0.03148,0.97673,-0.19008,0.0,2023,6,7,17,51,39,305
50.82960,-0.16432,-0.03623,0.00000,0.03135,0.97783,-0.19166,0.0,2023,6,7,17,51,39,316
50.82970,0.01068,0.01627,0.00000,0.03135,0.97698,-0.19276,0.0,2023,6,7,17,51,39,327
50.82980,-0.02432,0.06877,0.00000,0.02989,0.97746,-0.19203,0.0,2023,6,7,17,51,39,338
50.82990,0.06318,0.22627,0.00000,0.02977,0.97637,-0.19239,0.0,2023,6,7,17,51,39,349
50.83000,0.11568,-0.10623,0.00000,0.03050,0.97893,-0.19178,0.0,2023,6,7,17,51,39,360
50.83010,-0.19932,0.13877,0.00000,0.03270,0.97685,-0.19337,0.0,2023,6,7,17,51,39,372
50.83020,-0.00682,-0.07123,0.00000,0.02965,0.97710,-0.19227,0.0,2023,6,7,17,51,39,383
50.83030,0.04568,-0.03623,0.00000,0.03233,0.97698,-0.19056,0.0,2023,6,7,17,51,39,394
50.83040,-0.09432,-0.08873,0.00000,0.03135,0.97405,-0.18934,0.0,2023,6,7,17,51,39,405
50.83050,0.01068,0.12127,0.00000,0.03026,0.97783,-0.19044,0.0,2023,6,7,17,51,39,416
50.83060,-0.02432,0.06877,0.00000,0.03038,0.97661,-0.18812,0.0,2023,6,7,17,51,39,427
50.83070,0.15068,-0.08873,0.00000,0.03148,0.97393,-0.18971,0.0,2023,6,7,17,51,39,438
50.83080,0.08068,0.10377,0.00000,0.03050,0.97490,-0.19166,0.0,2023,6,7,17,51,39,449
50.83090,0.18568,-0.05373,0.00000,0.03013,0.97832,-0.19032,0.0,2023,6,7,17,51,39,460
50.83100,-0.12932,0.12127,0.00000,0.03074,0.97429,-0.18873,0.0,2023,6,7,17,51,39,472
50.83110,-0.05932,-0.01873,0.00000,0.03331,0.97246,-0.18873,0.0,2023,6,7,17,51,39,483
50.83120,0.04568,0.03377,0.00000,0.03172,0.97661,-0.18666,0.0,2023,6,7,17,51,39,494
50.83130,-0.12932,-0.07123,0.00000,0.03245,0.97673,-0.18947,0.0,2023,6,7,17,51,39,505
50.83140,0.23818,0.05127,0.00000,0.02879,0.97539,-0.19081,0.0,2023,6,7,17,51,39,516
50.83150,-0.14682,0.12127,0.00000,0.03026,0.97539,-0.19032,0.0,2023,6,7,17,51,39,527
50.83160,0.01068,0.05127,0.00000,0.03196,0.97454,-0.19239,0.0,2023,6,7,17,51,39,538
50.83170,0.29068,-0.01873,0.00000,0.03087,0.97759,-0.18727,0.0,2023,6,7,17,51,39,549
50.83180,-0.16432,-0.14123,0.00000,0.03001,0.97600,-0.18873,0.0,2023,6,7,17,51,39,560
50.83190,0.02818,-0.00123,0.00000,0.03209,0.97515,-0.19056,0.0,2023,6,7,17,51,39,572
50.83200,0.11568,0.15627,0.00000,0.03209,0.97759,-0.19032,0.0,2023,6,7,17,51,39,583
50.83210,0.01068,-0.00123,0.00000,0.03135,0.97722,-0.19081,0.0,2023,6,7,17,51,39,594
50.83220,0.11568,-0.14123,0.00000,0.03148,0.97307,-0.19056,0.0,2023,6,7,17,51,39,605
50.83230,-0.12932,-0.07123,0.00000,0.03013,0.97612,-0.18825,0.0,2023,6,7,17,51,39,616
50.83240,-0.11182,0.13877,0.00000,0.03257,0.97527,-0.18934,0.0,2023,6,7,17,51,39,627
50.83250,-0.00682,-0.10623,0.00000,0.03343,0.97515,-0.18910,0.0,2023,6,7,17,51,39,638
50.83260,0.25568,-0.10623,0.00000,0.03233,0.97539,-0.18861,0.0,2023,6,7,17,51,39,649
50.83270,0.06318,0.10377,0.00000,0.02952,0.97563,-0.19020,0.0,2023,6,7,17,51,39,660
50.83280,0.22068,0.06877,0.00000,0.03074,0.97649,-0.18971,0.0,2023,6,7,17,51,39,672
50.83290,-0.09432,0.13877,0.00000,0.03209,0.97624,-0.18788,0.0,2023,6,7,17,51,39,683
50.83300,0.09818,0.10377,0.00000,0.03257,0.97746,-0.18983,0.0,2023,6,7,17,51,39,694
50.83310,-0.02432,0.06877,0.00000,0.03062,0.97612,-0.18788,0.0,2023,6,7,17,51,39,705
50.83320,-0.04182,0.03377,0.00000,0.03209,0.97478,-0.18898,0.0,2023,6,7,17,51,39,716
50.83330,-0.05932,-0.05373,0.00000,0.03099,0.97515,-0.18898,0.0,2023,6,7,17,51,39,727
50.83340,-0.02432,0.13877,0.00000,0.02977,0.97417,-0.19215,0.0,2023,6,7,17,51,39,738
50.83350,0.02818,0.05127,0.00000,0.02952,0.97490,-0.18788,0.0,2023,6,7,17,51,39,749
50.83360,0.18568,-0.05373,0.00000,0.03392,0.97551,-0.19093,0.0,2023,6,7,17,51,39,760
50.83370,0.08068,0.01627,0.00000,0.03062,0.97661,-0.18703,0.0,2023,6,7,17,51,39,772
50.83380,-0.12932,0.12127,0.00000,0.03111,0.97551,-0.19117,0.0,2023,6,7,17,51,39,783
50.83390,-0.05932,0.05127,0.00000,0.02928,0.97746,-0.18983,0.0,2023,6,7,17,51,39,794
50.83400,-0.04182,0.15627,0.00000,0.03001,0.97722,-0.19032,0.0,2023,6,7,17,51,39,805
50.83410,0.04568,-0.01873,0.00000,0.03050,0.97649,-0.18971,0.0,2023,6,7,17,51,39,816
50.83420,0.01068,0.06877,0.00000,0.03062,0.97624,-0.19032,0.0,2023,6,7,17,51,39,827
50.83430,-0.12932,-0.17623,0.00000,0.03257,0.97502,-0.18995,0.0,2023,6,7,17,51,39,838
50.83440,-0.07682,0.06877,0.00000,0.03123,0.97624,-0.18837,0.0,2023,6,7,17,51,39,849
50.83450,0.08068,-0.07123,0.00000,0.03062,0.97746,-0.18690,0.0,2023,6,7,17,51,39,860
50.83460,-0.05932,0.05127,0.00000,0.02965,0.97698,-0.18959,0.0,2023,6,7,17,51,39,872
50.83470,0.11568,0.12127,0.00000,0.03062,0.97661,-0.19020,0.0,2023,6,7,17,51,39,883
50.83480,0.13318,-0.03623,0.00000,0.03221,0.97454,-0.19044,0.0,2023,6,7,17,51,39,894
50.83490,0.04568,0.17377,0.00000,0.02916,0.97576,-0.19032,0.0,2023,6,7,17,51,39,905
50.83500,-0.09432,-0.08873,0.00000,0.03331,0.97807,-0.18849,0.0,2023,6,7,17,51,39,916
50.83510,0.04568,0.12127,0.00000,0.03172,0.97563,-0.18849,0.0,2023,6,7,17,51,39,927
50.83520,0.01068,-0.01873,0.00000,0.03111,0.97649,-0.18837,0.0,2023,6,7,17,51,39,938
50.83530,-0.09432,0.01627,0.00000,0.03038,0.97759,-0.18910,0.0,2023,6,7,17,51,39,949
50.83540,0.01068,0.15627,0.00000,0.03013,0.97673,-0.18617,0.0,2023,6,7,17,51,39,960
50.83550,-0.16432,-0.01873,0.00000,0.03050,0.97454,-0.19166,0.0,2023,6,7,17,51,39,972
50.83560,-0.07682,0.27877,0.00000,0.03196,0.97600,-0.18800,0.0,2023,6,7,17,51,40,3
50.83570,-0.04182,-0.05373,0.00000,0.03184,0.97844,-0.18861,0.0,2023,6,7,17,51,40,14
50.83580,0.01068,-0.10623,0.00000,0.03074,0.97551,-0.18971,0.0,2023,6,7,17,51,40,25
50.83590,0.02818,-0.22873,0.00000,0.03038,0.97990,-0.18678,0.0,2023,6,7,17,51,40,36
50.83600,0.11568,0.03377,0.00000,0.03123,0.97698,-0.18581,0.0,2023,6,7,17,51,40,47
50.83610,-0.04182,-0.05373,0.00000,0.03172,0.97856,-0.18983,0.0,2023,6,7,17,51,40,58
50.83620,0.08068,-0.12373,0.00000,0.03123,0.97746,-0.18666,0.0,2023,6,7,17,51,40,69
50.83630,-0.12932,-0.10623,0.00000,0.03184,0.97429,-0.18690,0.0,2023,6,7,17,51,40,80
50.83640,-0.12932,0.19127,0.00000,0.03148,0.97527,-0.18715,0.0,2023,6,7,17,51,40,92
50.83650,0.08068,0.10377,0.00000,0.03087,0.97478,-0.18886,0.0,2023,6,7,17,51,40,103
50.83660,0.04568,0.03377,0.00000,0.02965,0.97649,-0.18947,0.0,2023,6,7,17,51,40,114
50.83670,-0.23432,0.19127,0.00000,0.03184,0.97868,-0.18837,0.0,2023,6,7,17,51,40,125
50.83680,-0.05932,-0.24623,0.00000,0.03196,0.97734,-0.18934,0.0,2023,6,7,17,51,40,136
50.83690,0.11568,-0.07123,0.00000,0.03160,0.97563,-0.18788,0.0,2023,6,7,17,51,40,147
50.83700,-0.00682,-0.05373,0.00000,0.03135,0.97746,-0.18605,0.0,2023,6,7,17,51,40,158
50.83710,-0.14682,-0.17623,0.00000,0.03160,0.97588,-0.18617,0.0,2023,6,7,17,51,40,169
50.83720,0.18568,-0.03623,0.00000,0.02843,0.97637,-0.18959,0.0,2023,6,7,17,51,40,180
50.83730,0.18568,-0.10623,0.00000,0.03062,0.97710,-0.18800,0.0,2023,6,7,17,51,40,192
50.83740,0.13318,0.10377,0.00000,0.03209,0.97454,-0.18959,0.0,2023,6,7,17,51,40,203
50.83750,-0.12932,-0.08873,0.00000,0.02940,0.97722,-0.19154,0.0,2023,6,7,17,51,40,214
50.83760,0.16818,0.17377,0.00000,0.03160,0.97624,-0.18971,0.0,2023,6,7,17,51,40,225
50.83770,-0.16432,0.13877,0.00000,0.03099,0.97405,-0.18605,0.0,2023,6,7,17,51,40,236
50.83780,0.18568,0.01627,0.00000,0.02989,0.97783,-0.18715,0.0,2023,6,7,17,51,40,247
50.83790,0.06318,-0.15873,0.00000,0.03099,0.97502,-0.18703,0.0,2023,6,7,17,51,40,258
50.83800,-0.12932,0.01627,0.00000,0.03013,0.97600,-0.18800,0.0,2023,6,7,17,51,40,269
50.83810,-0.02432,0.20877,0.00000,0.03209,0.97637,-0.18983,0.0,2023,6,7,17,51,40,280
50.83820,0.20318,0.06877,0.00000,0.03074,0.97746,-0.18642,0.0,2023,6,7,17,51,40,292
50.83830,0.13318,0.05127,0.00000,0.03038,0.97844,-0.18812,0.0,2023,6,7,17,51,40,303
50.83840,-0.09432,0.06877,0.00000,0.03221,0.97746,-0.18678,0.0,2023,6,7,17,51,40,314
50.83850,0.02818,-0.03623,0.00000,0.03099,0.97429,-0.18751,0.0,2023,6,7,17,51,40,325
50.83860,0.13318,-0.17623,0.00000,0.03087,0.97624,-0.18849,0.0,2023,6,7,17,51,40,336
50.83870,-0.07682,0.10377,0.00000,0.03135,0.97551,-0.18520,0.0,2023,6,7,17,51,40,347
50.83880,-0.12932,-0.15873,0.00000,0.03026,0.97527,-0.18959,0.0,2023,6,7,17,51,40,358
50.83890,0.04568,0.08627,0.00000,0.03184,0.97563,-0.18654,0.0,2023,6,7,17,51,40,369
50.83900,-0.14682,0.08627,0.00000,0.03001,0.97588,-0.18764,0.0,2023,6,7,17,51,40,380
50.83910,0.01068,-0.15873,0.00000,0.02989,0.97722,-0.18995,0.0,2023,6,7,17,51,40,392
50.83920,-0.05932,0.13877,0.00000,0.03196,0.97673,-0.18922,0.0,2023,6,7,17,51,40,403
50.83930,-0.16432,0.24377,0.00000,0.03282,0.97698,-0.18947,0.0,2023,6,7,17,51,40,414
50.83940,-0.07682,0.01627,0.00000,0.03038,0.97673,-0.18922,0.0,2023,6,7,17,51,40,425
50.83950,-0.09432,0.05127,0.00000,0.03245,0.97600,-0.18593,0.0,2023,6,7,17,51,40,436
50.83960,-0.11182,0.08627,0.00000,0.03318,0.97502,-0.18581,0.0,2023,6,7,17,51,40,447
50.83970,-0.09432,0.05127,0.00000,0.03087,0.97710,-0.18922,0.0,2023,6,7,17,51,40,458
50.83980,0.11568,-0.01873,0.00000,0.03270,0.97710,-0.19044,0.0,2023,6,7,17,51,40,469
50.83990,-0.11182,0.06877,0.00000,0.02830,0.97612,-0.18703,0.0,2023,6,7,17,51,40,480
50.84000,-0.11182,0.15627,0.00000,0.03099,0.97710,-0.18886,0.0,2023,6,7,17,51,40,492
50.84010,0.09818,-0.01873,0.00000,0.03062,0.97649,-0.18825,0.0,2023,6,7,17,51,40,503
50.84020,-0.02432,0.10377,0.00000,0.03184,0.97710,-0.18727,0.0,2023,6,7,17,51,40,514
50.84030,0.09818,0.08627,0.00000,0.03282,0.97661,-0.19020,0.0,2023,6,7,17,51,40,525
50.84040,0.22068,0.12127,0.00000,0.03282,0.97637,-0.18898,0.0,2023,6,7,17,51,40,536
50.84050,-0.04182,-0.21123,0.00000,0.03257,0.97612,-0.18788,0.0,2023,6,7,17,51,40,547
50.84060,-0.18182,0.20877,0.00000,0.03087,0.97551,-0.18654,0.0,2023,6,7,17,51,40,558
50.84070,-0.09432,0.06877,0.00000,0.03160,0.97905,-0.19008,0.0,2023,6,7,17,51,40,569
50.84080,-0.11182,0.10377,0.00000,0.03050,0.97624,-0.18617,0.0,2023,6,7,17,51,40,580
50.84090,0.04568,0.13877,0.00000,0.03013,0.97490,-0.19105,0.0,2023,6,7,17,51,40,592
50.84100,0.02818,0.01627,0.00000,0.03221,0.97734,-0.19105,0.0,2023,6,7,17,51,40,603
50.84110,-0.04182,0.10377,0.00000,0.03135,0.97710,-0.18666,0.0,2023,6,7,17,51,40,614
50.84120,0.23818,0.06877,0.00000,0.02830,0.97661,-0.18788,0.0,2023,6,7,17,51,40,625
50.84130,0.02818,-0.19373,0.00000,0.03050,0.97856,-0.18739,0.0,2023,6,7,17,51,40,636
50.84140,0.22068,0.05127,0.00000,0.03099,0.97576,-0.18825,0.0,2023,6,7,17,51,40,647
50.84150,-0.04182,-0.00123,0.00000,0.03123,0.97539,-0.18788,0.0,2023,6,7,17,51,40,658
50.84160,0.04568,0.20877,0.00000,0.03135,0.97466,-0.19008,0.0,2023,6,7,17,51,40,669
50.84170,-0.16432,0.08627,0.00000,0.03135,0.97405,-0.18751,0.0,2023,6,7,17,51,40,680
50.84180,0.02818,-0.08873,0.00000,0.03318,0.97734,-0.18739,0.0,2023,6,7,17,51,40,692
50.84190,0.13318,-0.00123,0.00000,0.03087,0.97551,-0.18800,0.0,2023,6,7,17,51,40,703
50.84200,0.02818,0.24377,0.00000,0.03087,0.97441,-0.18800,0.0,2023,6,7,17,51,40,714
50.84210,0.06318,0.17377,0.00000,0.03135,0.97661,-0.18910,0.0,2023,6,7,17,51,40,725
50.84220,0.08068,-0.00123,0.00000,0.03160,0.97441,-0.18422,0.0,2023,6,7,17,51,40,736
50.84230,-0.00682,-0.08873,0.00000,0.03038,0.97466,-0.18764,0.0,2023,6,7,17,51,40,747
50.84240,0.01068,0.05127,0.00000,0.03123,0.97539,-0.18739,0.0,2023,6,7,17,51,40,758
50.84250,0.02818,0.10377,0.00000,0.03196,0.97624,-0.18776,0.0,2023,6,7,17,51,40,769
50.84260,-0.32182,0.06877,0.00000,0.03196,0.97588,-0.18654,0.0,2023,6,7,17,51,40,780
50.84270,0.11568,-0.01873,0.00000,0.03196,0.97539,-0.18849,0.0,2023,6,7,17,51,40,792
50.84280,-0.14682,0.03377,0.00000,0.02965,0.97551,-0.18825,0.0,2023,6,7,17,51,40,803
50.84290,0.02818,-0.01873,0.00000,0.03233,0.97905,-0.18849,0.0,2023,6,7,17,51,40,814
50.84300,-0.07682,0.17377,0.00000,0.03026,0.97759,-0.18690,0.0,2023,6,7,17,51,40,825
50.84310,-0.11182,0.05127,0.00000,0.03233,0.97661,-0.18690,0.0,2023,6,7,17,51,40,836
50.84320,0.09818,-0.14123,0.00000,0.03245,0.97893,-0.18654,0.0,2023,6,7,17,51,40,847
50.84330,-0.02432,-0.07123,0.00000,0.03270,0.97612,-0.18629,0.0,2023,6,7,17,51,40,858
50.84340,-0.21682,-0.05373,0.00000,0.03489,0.97624,-0.18666,0.0,2023,6,7,17,51,40,869
50.84350,0.08068,-0.15873,0.00000,0.03026,0.97685,-0.18873,0.0,2023,6,7,17,51,40,880
50.84360,0.29068,-0.26373,0.00000,0.03038,0.97502,-0.18825,0.0,2023,6,7,17,51,40,892
50.84370,-0.05932,-0.36873,0.00000,0.03050,0.97685,-0.18703,0.0,2023,6,7,17,51,40,903
50.84380,0.08068,-0.01873,0.00000,0.03172,0.97466,-0.18922,0.0,2023,6,7,17,51,40,914
50.84390,0.01068,-0.05373,0.00000,0.03050,0.97624,-0.18715,0.0,2023,6,7,17,51,40,925
50.84400,-0.00682,-0.12373,0.00000,0.02952,0.97637,-0.19056,0.0,2023,6,7,17,51,40,936
50.84410,0.15068,0.24377,0.00000,0.03257,0.97698,-0.18690,0.0,2023,6,7,17,51,40,947
50.84420,-0.23432,0.19127,0.00000,0.03184,0.97551,-0.18849,0.0,2023,6,7,17,51,40,958
50.84430,-0.12932,0.13877,0.00000,0.03184,0.97490,-0.19008,0.0,2023,6,7,17,51,40,969
50.84440,0.08068,0.08627,0.00000,0.03404,0.97661,-0.18886,0.0,2023,6,7,17,51,40,980
50.84450,-0.05932,0.08627,0.00000,0.03074,0.97600,-0.18800,0.0,2023,6,7,17,51,40,992
50.84460,0.09818,0.08627,0.00000,0.03233,0.97441,-0.18947,0.0,2023,6,7,17,51,41,3
50.84470,0.13318,-0.07123,0.00000,0.03221,0.97490,-0.18788,0.0,2023,6,7,17,51,41,14
50.84480,-0.02432,-0.01873,0.00000,0.03013,0.97734,-0.18788,0.0,2023,6,7,17,51,41,25
50.84490,0.25568,0.01627,0.00000,0.03087,0.97710,-0.18959,0.0,2023,6,7,17,51,41,36
50.84500,-0.07682,0.10377,0.00000,0.03123,0.97649,-0.18898,0.0,2023,6,7,17,51,41,47
50.84510,0.06318,-0.01873,0.00000,0.03221,0.97710,-0.18764,0.0,2023,6,7,17,51,41,58
50.84520,0.11568,0.08627,0.00000,0.02879,0.97356,-0.18605,0.0,2023,6,7,17,51,41,69
50.84530,0.01068,-0.01873,0.00000,0.03160,0.97502,-0.18800,0.0,2023,6,7,17,51,41,80
50.84540,0.06318,0.03377,0.00000,0.03074,0.97612,-0.18947,0.0,2023,6,7,17,51,41,92
50.84550,0.06318,-0.14123,0.00000,0.03026,0.97515,-0.18788,0.0,2023,6,7,17,51,41,103
50.84560,-0.09432,-0.12373,0.00000,0.03111,0.97661,-0.18861,0.0,2023,6,7,17,51,41,114
50.84570,0.09818,0.06877,0.00000,0.03026,0.97441,-0.18861,0.0,2023,6,7,17,51,41,125
50.84580,-0.16432,0.10377,0.00000,0.03209,0.97515,-0.18983,0.0,2023,6,7,17,51,41,136
50.84590,0.11568,-0.08873,0.00000,0.02977,0.97624,-0.19203,0.0,2023,6,7,17,51,41,147
50.84600,0.02818,-0.01873,0.00000,0.03184,0.97637,-0.18690,0.0,2023,6,7,17,51,41,158
50.84610,0.16818,0.06877,0.00000,0.03172,0.97722,-0.18751,0.0,2023,6,7,17,51,41,169
50.84620,-0.00682,0.10377,0.00000,0.02977,0.97771,-0.18715,0.0,2023,6,7,17,51,41,180
50.84630,0.16818,-0.07123,0.00000,0.03074,0.97832,-0.19044,0.0,2023,6,7,17,51,41,192
50.84640,-0.02432,0.03377,0.00000,0.03026,0.97649,-0.18898,0.0,2023,6,7,17,51,41,203
50.84650,-0.05932,-0.03623,0.00000,0.03160,0.97734,-0.18812,0.0,2023,6,7,17,51,41,214
50.84660,0.08068,-0.08873,0.00000,0.03050,0.97649,-0.18812,0.0,2023,6,7,17,51,41,225
50.84670,-0.04182,0.01627,0.00000,0.02977,0.97417,-0.18922,0.0,2023,6,7,17,51,41,236
50.84680,0.09818,-0.10623,0.00000,0.03050,0.97515,-0.18703,0.0,2023,6,7,17,51,41,247
50.84690,-0.04182,0.24377,0.00000,0.03196,0.97624,-0.18690,0.0,2023,6,7,17,51,41,258
50.84700,-0.21682,0.01627,0.00000,0.03087,0.97783,-0.18471,0.0,2023,6,7,17,51,41,269
50.84710,0.06318,0.20877,0.00000,0.02965,0.97490,-0.18983,0.0,2023,6,7,17,51,41,280
50.84720,-0.07682,0.15627,0.00000,0.03026,0.97759,-0.18947,0.0,2023,6,7,17,51,41,292
50.84730,-0.02432,0.01627,0.00000,0.03270,0.97368,-0.18629,0.0,2023,6,7,17,51,41,303
50.84740,0.02818,0.01627,0.00000,0.03013,0.97454,-0.18751,0.0,2023,6,7,17,51,41,314
50.84750,0.06318,0.06877,0.00000,0.03209,0.97393,-0.18922,0.0,2023,6,7,17,51,41,325
50.84760,-0.09432,0.15627,0.00000,0.03270,0.97466,-0.18873,0.0,2023,6,7,17,51,41,336
50.84770,-0.05932,0.03377,0.00000,0.03306,0.97551,-0.18764,0.0,2023,6,7,17,51,41,347
50.84780,-0.11182,-0.05373,0.00000,0.03209,0.97600,-0.18886,0.0,2023,6,7,17,51,41,358
50.84790,0.18568,-0.05373,0.00000,0.03294,0.97588,-0.18703,0.0,2023,6,7,17,51,41,369
50.84800,-0.12932,0.01627,0.00000,0.03062,0.97563,-0.18861,0.0,2023,6,7,17,51,41,380
50.84810,0.06318,-0.03623,0.00000,0.03099,0.97502,-0.18739,0.0,2023,6,7,17,51,41,392
50.84820,-0.14682,0.13877,0.00000,0.03013,0.97710,-0.18922,0.0,2023,6,7,17,51,41,403
50.84830,0.09818,-0.01873,0.00000,0.03074,0.97441,-0.19105,0.0,2023,6,7,17,51,41,414
50.84840,-0.07682,-0.03623,0.00000,0.03184,0.97466,-0.18788,0.0,2023,6,7,17,51,41,425
50.84850,0.09818,0.13877,0.00000,0.03001,0.97502,-0.19166,0.0,2023,6,7,17,51,41,436
50.84860,-0.11182,0.19127,0.00000,0.03294,0.97832,-0.18739,0.0,2023,6,7,17,51,41,447
50.84870,0.13318,0.03377,0.00000,0.03172,0.97856,-0.18788,0.0,2023,6,7,17,51,41,458
50.84880,-0.07682,0.10377,0.00000,0.03318,0.97624,-0.18934,0.0,2023,6,7,17,51,41,469
50.84890,0.01068,0.06877,0.00000,0.03196,0.97710,-0.18544,0.0,2023,6,7,17,51,41,480
50.84900,-0.14682,-0.19373,0.00000,0.03099,0.97698,-0.18617,0.0,2023,6,7,17,51,41,492
50.84910,0.01068,-0.07123,0.00000,0.03062,0.97478,-0.18715,0.0,2023,6,7,17,51,41,503
50.84920,0.02818,-0.07123,0.00000,0.02977,0.97576,-0.19020,0.0,2023,6,7,17,51,41,514
50.84930,-0.04182,-0.00123,0.00000,0.02952,0.97527,-0.18800,0.0,2023,6,7,17,51,41,525
50.84940,-0.07682,-0.14123,0.00000,0.02952,0.97405,-0.18873,0.0,2023,6,7,17,51,41,536
50.84950,0.02818,0.12127,0.00000,0.03233,0.97441,-0.18983,0.0,2023,6,7,17,51,41,547
50.84960,0.08068,0.01627,0.00000,0.03013,0.97771,-0.18849,0.0,2023,6,7,17,51,41,558
50.84970,0.09818,0.03377,0.00000,0.03160,0.97637,-0.19154,0.0,2023,6,7,17,51,41,569
50.84980,-0.09432,-0.07123,0.00000,0.03135,0.97661,-0.18800,0.0,2023,6,7,17,51,41,580
50.84990,-0.12932,0.08627,0.00000,0.03099,0.97734,-0.18898,0.0,2023,6,7,17,51,41,592
50.85000,0.06318,0.03377,0.00000,0.03367,0.97576,-0.18812,0.0,2023,6,7,17,51,41,603
50.85010,0.09818,-0.17623,0.00000,0.02952,0.97698,-0.18983,0.0,2023,6,7,17,51,41,614
50.85020,-0.05932,0.13877,0.00000,0.03050,0.97722,-0.18898,0.0,2023,6,7,17,51,41,625
50.85030,-0.02432,0.05127,0.00000,0.03099,0.97710,-0.19105,0.0,2023,6,7,17,51,41,636
50.85040,0.34318,-0.03623,0.00000,0.03331,0.97637,-0.18947,0.0,2023,6,7,17,51,41,647
50.85050,0.08068,0.19127,0.00000,0.03221,0.97429,-0.19008,0.0,2023,6,7,17,51,41,658
50.85060,-0.05932,-0.00123,0.00000,0.03160,0.97576,-0.19020,0.0,2023,6,7,17,51,41,669
50.85070,-0.21682,0.20877,0.00000,0.03111,0.97637,-0.18812,0.0,2023,6,7,17,51,41,680
50.85080,-0.04182,-0.07123,0.00000,0.03245,0.97685,-0.18617,0.0,2023,6,7,17,51,41,692
50.85090,0.06318,-0.01873,0.00000,0.03318,0.97746,-0.19117,0.0,2023,6,7,17,51,41,703
50.85100,0.11568,-0.22873,0.00000,0.03135,0.97698,-0.18642,0.0,2023,6,7,17,51,41,714
50.85110,0.09818,-0.14123,0.00000,0.03282,0.97527,-0.18751,0.0,2023,6,7,17,51,41,725
50.85120,-0.04182,0.05127,0.00000,0.03294,0.97612,-0.18776,0.0,2023,6,7,17,51,41,736
50.85130,-0.02432,0.01627,0.00000,0.03221,0.97490,-0.18703,0.0,2023,6,7,17,51,41,747
50.85140,-0.14682,-0.24623,0.00000,0.02977,0.97576,-0.19044,0.0,2023,6,7,17,51,41,758
50.85150,-0.07682,0.10377,0.00000,0.03306,0.97588,-0.18922,0.0,2023,6,7,17,51,41,769
50.85160,-0.07682,0.12127,0.00000,0.03062,0.97588,-0.19093,0.0,2023,6,7,17,51,41,780
50.85170,-0.12932,-0.01873,0.00000,0.03196,0.97527,-0.18788,0.0,2023,6,7,17,51,41,792
50.85180,0.01068,-0.03623,0.00000,0.03135,0.97661,-0.18971,0.0,2023,6,7,17,51,41,803
50.85190,0.16818,-0.08873,0.00000,0.02977,0.97868,-0.19130,0.0,2023,6,7,17,51,41,814
50.85200,-0.04182,0.03377,0.00000,0.03123,0.97820,-0.18886,0.0,2023,6,7,17,51,41,825
50.85210,-0.04182,-0.05373,0.00000,0.03148,0.97600,-0.18825,0.0,2023,6,7,17,51,41,836
50.85220,-0.00682,-0.15873,0.00000,0.03172,0.97466,-0.18776,0.0,2023,6,7,17,51,41,847
50.85230,-0.04182,-0.01873,0.00000,0.03038,0.97673,-0.18837,0.0,2023,6,7,17,51,41,858
50.85240,0.11568,0.10377,0.00000,0.02989,0.97929,-0.18837,0.0,2023,6,7,17,51,41,869
50.85250,0.18568,-0.28123,0.00000,0.03013,0.97673,-0.18581,0.0,2023,6,7,17,51,41,880
50.85260,-0.12932,0.01627,0.00000,0.03221,0.97698,-0.18825,0.0,2023,6,7,17,51,41,892
50.85270,0.01068,0.06877,0.00000,0.03196,0.97954,-0.18764,0.0,2023,6,7,17,51,41,903
50.85280,0.08068,0.08627,0.00000,0.03257,0.97624,-0.19044,0.0,2023,6,7,17,51,41,914
50.85290,-0.02432,-0.10623,0.00000,0.03343,0.97698,-0.18934,0.0,2023,6,7,17,51,41,925
50.85300,0.01068,-0.15873,0.00000,0.03172,0.97576,-0.18532,0.0,2023,6,7,17,51,41,936
50.85310,-0.11182,-0.00123,0.00000,0.03074,0.97685,-0.18837,0.0,2023,6,7,17,51,41,947
50.85320,0.04568,0.10377,0.00000,0.03123,0.97734,-0.18934,0.0,2023,6,7,17,51,41,958
50.85330,0.09818,0.06877,0.00000,0.03087,0.97746,-0.18947,0.0,2023,6,7,17,51,41,969
50.85340,0.18568,-0.00123,0.00000,0.03209,0.97612,-0.18910,0.0,2023,6,7,17,51,41,980
50.85350,-0.21682,-0.00123,0.00000,0.03160,0.97624,-0.18788,0.0,2023,6,7,17,51,41,992
50.85360,0.01068,-0.01873,0.00000,0.03233,0.97612,-0.18605,0.0,2023,6,7,17,51,42,3
50.85370,0.02818,0.03377,0.00000,0.03318,0.97734,-0.18703,0.0,2023,6,7,17,51,42,14
50.85380,-0.04182,0.19127,0.00000,0.02952,0.97759,-0.18886,0.0,2023,6,7,17,51,42,25
50.85390,-0.02432,0.05127,0.00000,0.03013,0.97734,-0.18800,0.0,2023,6,7,17,51,42,36
50.85400,-0.07682,0.06877,0.00000,0.03087,0.97649,-0.18751,0.0,2023,6,7,17,51,42,47
50.85410,0.18568,0.10377,0.00000,0.03270,0.97612,-0.18703,0.0,2023,6,7,17,51,42,58
50.85420,0.16818,-0.12373,0.00000,0.03355,0.97588,-0.18812,0.0,2023,6,7,17,51,42,69
50.85430,0.09818,0.27877,0.00000,0.03099,0.97624,-0.18898,0.0,2023,6,7,17,51,42,80
50.85440,0.04568,0.10377,0.00000,0.03172,0.97698,-0.18898,0.0,2023,6,7,17,51,42,92
50.85450,-0.04182,-0.05373,0.00000,0.03160,0.97454,-0.18971,0.0,2023,6,7,17,51,42,103
50.85460,-0.05932,-0.03623,0.00000,0.03026,0.97563,-0.18800,0.0,2023,6,7,17,51,42,114
50.85470,0.09818,0.03377,0.00000,0.03172,0.97490,-0.19215,0.0,2023,6,7,17,51,42,125
50.85480,0.08068,0.03377,0.00000,0.03160,0.97576,-0.18959,0.0,2023,6,7,17,51,42,136
50.85490,-0.05932,-0.07123,0.00000,0.03172,0.97490,-0.18849,0.0,2023,6,7,17,51,42,147
50.85500,-0.05932,0.05127,0.00000,0.03282,0.97783,-0.18629,0.0,2023,6,7,17,51,42,158
50.85510,-0.00682,-0.08873,0.00000,0.02830,0.97576,-0.18959,0.0,2023,6,7,17,51,42,169
50.85520,0.04568,-0.07123,0.00000,0.03245,0.97539,-0.18983,0.0,2023,6,7,17,51,42,180
50.85530,0.20318,-0.00123,0.00000,0.03270,0.97454,-0.18581,0.0,2023,6,7,17,51,42,192
50.85540,0.04568,0.10377,0.00000,0.02952,0.97588,-0.18654,0.0,2023,6,7,17,51,42,203
50.85550,0.15068,-0.21123,0.00000,0.02916,0.97624,-0.18764,0.0,2023,6,7,17,51,42,214
50.85560,0.04568,0.08627,0.00000,0.02879,0.97649,-0.19032,0.0,2023,6,7,17,51,42,225
50.85570,-0.11182,-0.05373,0.00000,0.02891,0.97551,-0.19117,0.0,2023,6,7,17,51,42,236
50.85580,-0.07682,-0.10623,0.00000,0.03026,0.97356,-0.18703,0.0,2023,6,7,17,51,42,247
50.85590,-0.11182,0.05127,0.00000,0.03026,0.97588,-0.18788,0.0,2023,6,7,17,51,42,258
50.85600,0.09818,-0.14123,0.00000,0.03001,0.97698,-0.18971,0.0,2023,6,7,17,51,42,269
50.85610,-0.04182,0.01627,0.00000,0.03172,0.97624,-0.18922,0.0,2023,6,7,17,51,42,280
50.85620,0.04568,-0.17623,0.00000,0.03087,0.97576,-0.18593,0.0,2023,6,7,17,51,42,292
50.85630,-0.04182,0.08627,0.00000,0.03050,0.97478,-0.19227,0.0,2023,6,7,17,51,42,303
50.85640,0.02818,0.01627,0.00000,0.03062,0.97441,-0.19276,0.0,2023,6,7,17,51,42,314
50.85650,-0.12932,-0.01873,0.00000,0.02904,0.97588,-0.19154,0.0,2023,6,7,17,51,42,325
50.85660,0.16818,-0.07123,0.00000,0.03172,0.97600,-0.19056,0.0,2023,6,7,17,51,42,336
50.85670,-0.04182,0.12127,0.00000,0.03026,0.97868,-0.18873,0.0,2023,6,7,17,51,42,347
50.85680,-0.02432,0.26127,0.00000,0.03111,0.97734,-0.18959,0.0,2023,6,7,17,51,42,358
50.85690,0.30818,-0.07123,0.00000,0.03123,0.97637,-0.19069,0.0,2023,6,7,17,51,42,369
50.85700,0.01068,-0.08873,0.00000,0.03135,0.97588,-0.18605,0.0,2023,6,7,17,51,42,380
50.85710,-0.09432,0.06877,0.00000,0.03172,0.97722,-0.18483,0.0,2023,6,7,17,51,42,392
50.85720,-0.09432,0.13877,0.00000,0.03038,0.97661,-0.18898,0.0,2023,6,7,17,51,42,403
50.85730,0.06318,-0.15873,0.00000,0.03196,0.97685,-0.18910,0.0,2023,6,7,17,51,42,414
50.85740,0.04568,0.03377,0.00000,0.02977,0.97954,-0.18898,0.0,2023,6,7,17,51,42,425
50.85750,0.09818,-0.12373,0.00000,0.02977,0.97576,-0.18934,0.0,2023,6,7,17,51,42,436
50.85760,0.08068,0.01627,0.00000,0.02977,0.97624,-0.18703,0.0,2023,6,7,17,51,42,447
50.85770,-0.09432,0.17377,0.00000,0.03184,0.97685,-0.18812,0.0,2023,6,7,17,51,42,458
50.85780,0.18568,-0.08873,0.00000,0.03172,0.97624,-0.19252,0.0,2023,6,7,17,51,42,469
50.85790,0.13318,0.05127,0.00000,0.03111,0.97698,-0.19130,0.0,2023,6,7,17,51,42,480
50.85800,0.08068,-0.03623,0.00000,0.02843,0.97356,-0.19130,0.0,2023,6,7,17,51,42,492
50.85810,0.02818,-0.01873,0.00000,0.03160,0.97673,-0.18837,0.0,2023,6,7,17,51,42,503
50.85820,-0.19932,0.05127,0.00000,0.03062,0.97502,-0.18837,0.0,2023,6,7,17,51,42,514
50.85830,-0.14682,0.06877,0.00000,0.03294,0.97820,-0.19081,0.0,2023,6,7,17,51,42,525
50.85840,0.15068,0.08627,0.00000,0.02916,0.97698,-0.18947,0.0,2023,6,7,17,51,42,536
50.85850,0.01068,0.01627,0.00000,0.03318,0.97539,-0.18971,0.0,2023,6,7,17,51,42,547
50.85860,0.11568,-0.03623,0.00000,0.02830,0.97868,-0.18825,0.0,2023,6,7,17,51,42,558
50.85870,-0.00682,-0.07123,0.00000,0.03318,0.97527,-0.18861,0.0,2023,6,7,17,51,42,569
50.85880,-0.09432,-0.07123,0.00000,0.02928,0.97539,-0.19081,0.0,2023,6,7,17,51,42,580
50.85890,-0.09432,0.22627,0.00000,0.03184,0.97734,-0.18995,0.0,2023,6,7,17,51,42,592
50.85900,-0.12932,-0.01873,0.00000,0.03148,0.97576,-0.18764,0.0,2023,6,7,17,51,42,603
50.85910,-0.23432,0.15627,0.00000,0.03282,0.97722,-0.18971,0.0,2023,6,7,17,51,42,614
50.85920,0.04568,0.12127,0.00000,0.03135,0.97637,-0.19117,0.0,2023,6,7,17,51,42,625
50.85930,0.15068,0.05127,0.00000,0.03087,0.97649,-0.19203,0.0,2023,6,7,17,51,42,636
50.85940,0.13318,-0.05373,0.00000,0.03318,0.97551,-0.18995,0.0,2023,6,7,17,51,42,647
50.85950,0.08068,-0.00123,0.00000,0.03135,0.97588,-0.19154,0.0,2023,6,7,17,51,42,658
50.85960,-0.18182,-0.05373,0.00000,0.03306,0.97490,-0.18971,0.0,2023,6,7,17,51,42,669
50.85970,-0.04182,-0.19373,0.00000,0.02965,0.97539,-0.19154,0.0,2023,6,7,17,51,42,680
50.85980,-0.07682,0.03377,0.00000,0.03257,0.97698,-0.18971,0.0,2023,6,7,17,51,42,692
50.85990,0.08068,0.01627,0.00000,0.03111,0.97417,-0.18873,0.0,2023,6,7,17,51,42,703
50.86000,-0.02432,0.15627,0.00000,0.03050,0.97685,-0.18898,0.0,2023,6,7,17,51,42,714
50.86010,-0.00682,0.03377,0.00000,0.03270,0.97734,-0.18995,0.0,2023,6,7,17,51,42,725
50.86020,0.09818,-0.00123,0.00000,0.03026,0.97929,-0.19178,0.0,2023,6,7,17,51,42,736
50.86030,0.02818,-0.03623,0.00000,0.03135,0.97746,-0.18812,0.0,2023,6,7,17,51,42,747
50.86040,0.09818,0.01627,0.00000,0.03074,0.97734,-0.18593,0.0,2023,6,7,17,51,42,758
50.86050,-0.04182,-0.03623,0.00000,0.03074,0.97783,-0.18959,0.0,2023,6,7,17,51,42,769
50.86060,-0.07682,0.01627,0.00000,0.03160,0.97624,-0.18764,0.0,2023,6,7,17,51,42,780
50.86070,-0.09432,0.05127,0.00000,0.02952,0.97490,-0.18898,0.0,2023,6,7,17,51,42,792
50.86080,0.11568,-0.12373,0.00000,0.03172,0.97576,-0.18751,0.0,2023,6,7,17,51,42,803
50.86090,0.06318,-0.01873,0.00000,0.03160,0.97515,-0.18727,0.0,2023,6,7,17,51,42,814
50.86100,0.11568,0.12127,0.00000,0.03038,0.97490,-0.19032,0.0,2023,6,7,17,51,42,825
50.86110,-0.05932,-0.19373,0.00000,0.03013,0.97612,-0.18971,0.0,2023,6,7,17,51,42,836
50.86120,-0.05932,0.12127,0.00000,0.03050,0.97795,-0.18971,0.0,2023,6,7,17,51,42,847
50.86130,0.02818,0.05127,0.00000,0.03013,0.97722,-0.18642,0.0,2023,6,7,17,51,42,858
50.86140,0.13318,-0.08873,0.00000,0.03038,0.97417,-0.18959,0.0,2023,6,7,17,51,42,869
50.86150,-0.05932,0.29627,0.00000,0.03270,0.97832,-0.18910,0.0,2023,6,7,17,51,42,880
50.86160,0.06318,-0.01873,0.00000,0.03038,0.97783,-0.18898,0.0,2023,6,7,17,51,42,892
50.86170,-0.11182,-0.01873,0.00000,0.03111,0.97698,-0.18837,0.0,2023,6,7,17,51,42,903
50.86180,-0.07682,-0.07123,0.00000,0.03172,0.97490,-0.18910,0.0,2023,6,7,17,51,42,914
50.86190,0.06318,0.01627,0.00000,0.03148,0.97746,-0.19044,0.0,2023,6,7,17,51,42,925
50.86200,-0.00682,-0.08873,0.00000,0.03135,0.97454,-0.19130,0.0,2023,6,7,17,51,42,936
50.86210,0.04568,0.19127,0.00000,0.03172,0.97673,-0.18666,0.0,2023,6,7,17,51,42,947
50.86220,-0.09432,0.05127,0.00000,0.03038,0.97563,-0.18861,0.0,2023,6,7,17,51,42,958
50.86230,0.06318,0.10377,0.00000,0.03087,0.97417,-0.19020,0.0,2023,6,7,17,51,42,969
50.86240,-0.14682,-0.03623,0.00000,0.02843,0.97637,-0.19056,0.0,2023,6,7,17,51,42,980
50.86250,0.04568,-0.05373,0.00000,0.03148,0.97600,-0.18727,0.0,2023,6,7,17,51,42,992
50.86260,-0.05932,-0.03623,0.00000,0.03245,0.97551,-0.19215,0.0,2023,6,7,17,51,43,3
50.86270,0.04568,0.05127,0.00000,0.02940,0.97698,-0.19008,0.0,2023,6,7,17,51,43,14
50.86280,0.13318,-0.03623,0.00000,0.03001,0.97563,-0.18861,0.0,2023,6,7,17,51,43,25
50.86290,-0.02432,-0.00123,0.00000,0.03257,0.97478,-0.18934,0.0,2023,6,7,17,51,43,36
50.86300,0.29068,-0.08873,0.00000,0.03026,0.97783,-0.18837,0.0,2023,6,7,17,51,43,47
50.86310,0.06318,0.06877,0.00000,0.03282,0.97832,-0.19044,0.0,2023,6,7,17,51,43,58
50.86320,0.02818,0.03377,0.00000,0.03087,0.97832,-0.19044,0.0,2023,6,7,17,51,43,69
50.86330,-0.09432,-0.12373,0.00000,0.03123,0.97734,-0.18995,0.0,2023,6,7,17,51,43,80
50.86340,0.04568,0.06877,0.00000,0.03038,0.97746,-0.18861,0.0,2023,6,7,17,51,43,92
50.86350,0.04568,0.06877,0.00000,0.03209,0.97844,-0.18983,0.0,2023,6,7,17,51,43,103
50.86360,0.01068,0.08627,0.00000,0.02916,0.97539,-0.18849,0.0,2023,6,7,17,51,43,114
50.86370,0.23818,-0.05373,0.00000,0.03160,0.97563,-0.19056,0.0,2023,6,7,17,51,43,125
50.86380,-0.09432,-0.00123,0.00000,0.02989,0.97441,-0.18910,0.0,2023,6,7,17,51,43,136
50.86390,0.01068,-0.01873,0.00000,0.03209,0.97637,-0.18886,0.0,2023,6,7,17,51,43,147
50.86400,-0.09432,-0.08873,0.00000,0.03209,0.97856,-0.18947,0.0,2023,6,7,17,51,43,158
50.86410,-0.12932,0.08627,0.00000,0.03160,0.97844,-0.18934,0.0,2023,6,7,17,51,43,169
50.86420,0.02818,-0.01873,0.00000,0.03184,0.97710,-0.19032,0.0,2023,6,7,17,51,43,180
50.86430,0.08068,0.19127,0.00000,0.03148,0.97722,-0.18995,0.0,2023,6,7,17,51,43,192
50.86440,-0.02432,0.22627,0.00000,0.03050,0.97527,-0.19020,0.0,2023,6,7,17,51,43,203
50.86450,-0.07682,0.08627,0.00000,0.03257,0.97515,-0.18751,0.0,2023,6,7,17,51,43,214
50.86460,-0.04182,-0.07123,0.00000,0.03111,0.97527,-0.18825,0.0,2023,6,7,17,51,43,225
50.86470,0.06318,0.03377,0.00000,0.03123,0.97795,-0.19008,0.0,2023,6,7,17,51,43,236
50.86480,0.13318,-0.05373,0.00000,0.03013,0.97466,-0.18910,0.0,2023,6,7,17,51,43,247
50.86490,0.15068,-0.05373,0.00000,0.03148,0.97637,-0.18764,0.0,2023,6,7,17,51,43,258
50.86500,0.15068,-0.22873,0.00000,0.03050,0.97673,-0.18764,0.0,2023,6,7,17,51,43,269
50.86510,-0.07682,0.01627,0.00000,0.03209,0.97576,-0.18837,0.0,2023,6,7,17,51,43,280
50.86520,-0.00682,-0.05373,0.00000,0.02879,0.97710,-0.18983,0.0,2023,6,7,17,51,43,292
50.86530,0.01068,0.05127,0.00000,0.03135,0.97783,-0.18934,0.0,2023,6,7,17,51,43,303
50.86540,-0.05932,0.06877,0.00000,0.02928,0.97637,-0.18788,0.0,2023,6,7,17,51,43,314
50.86550,-0.02432,-0.15873,0.00000,0.03074,0.97673,-0.19142,0.0,2023,6,7,17,51,43,325
50.86560,0.06318,0.08627,0.00000,0.03062,0.97844,-0.18983,0.0,2023,6,7,17,51,43,336
50.86570,-0.07682,0.13877,0.00000,0.03209,0.97612,-0.19020,0.0,2023,6,7,17,51,43,347
50.86580,-0.23432,0.05127,0.00000,0.03245,0.97746,-0.18751,0.0,2023,6,7,17,51,43,358
50.86590,0.13318,-0.00123,0.00000,0.03099,0.97722,-0.18654,0.0,2023,6,7,17,51,43,369
50.86600,-0.07682,0.10377,0.00000,0.03196,0.97673,-0.18849,0.0,2023,6,7,17,51,43,380
50.86610,0.02818,-0.01873,0.00000,0.03123,0.97612,-0.19008,0.0,2023,6,7,17,51,43,392
50.86620,-0.02432,0.03377,0.00000,0.03306,0.97624,-0.19178,0.0,2023,6,7,17,51,43,403
50.86630,0.04568,-0.01873,0.00000,0.02916,0.97600,-0.18922,0.0,2023,6,7,17,51,43,414
50.86640,0.02818,0.05127,0.00000,0.02989,0.97637,-0.19032,0.0,2023,6,7,17,51,43,425
50.86650,0.20318,-0.05373,0.00000,0.03148,0.97515,-0.19178,0.0,2023,6,7,17,51,43,436
50.86660,-0.18182,0.10377,0.00000,0.03379,0.97661,-0.18898,0.0,2023,6,7,17,51,43,447
50.86670,-0.14682,0.01627,0.00000,0.02928,0.97624,-0.18605,0.0,2023,6,7,17,51,43,458
50.86680,0.04568,0.17377,0.00000,0.03196,0.97393,-0.19093,0.0,2023,6,7,17,51,43,469
50.86690,0.13318,0.03377,0.00000,0.02977,0.97490,-0.18959,0.0,2023,6,7,17,51,43,480
50.86700,0.22068,-0.17623,0.00000,0.03160,0.97356,-0.18678,0.0,2023,6,7,17,51,43,492
50.86710,-0.04182,0.01627,0.00000,0.03099,0.97612,-0.18800,0.0,2023,6,7,17,51,43,503
50.86720,0.01068,-0.00123,0.00000,0.03013,0.97600,-0.19154,0.0,2023,6,7,17,51,43,514
50.86730,0.18568,-0.10623,0.00000,0.03196,0.97905,-0.19142,0.0,2023,6,7,17,51,43,525
50.86740,-0.23432,-0.10623,0.00000,0.03294,0.97734,-0.18739,0.0,2023,6,7,17,51,43,536
50.86750,0.09818,-0.07123,0.00000,0.03111,0.97490,-0.18788,0.0,2023,6,7,17,51,43,547
50.86760,0.11568,-0.07123,0.00000,0.03062,0.97502,-0.19020,0.0,2023,6,7,17,51,43,558
50.86770,0.06318,0.01627,0.00000,0.02940,0.97539,-0.19227,0.0,2023,6,7,17,51,43,569
50.86780,0.06318,0.34877,0.00000,0.02916,0.97698,-0.19032,0.0,2023,6,7,17,51,43,580
50.86790,-0.11182,0.26127,0.00000,0.03209,0.97368,-0.18678,0.0,2023,6,7,17,51,43,592
50.86800,0.06318,-0.03623,0.00000,0.02965,0.97746,-0.18983,0.0,2023,6,7,17,51,43,603
50.86810,0.08068,0.15627,0.00000,0.03026,0.97673,-0.18873,0.0,2023,6,7,17,51,43,614
50.86820,-0.23432,-0.03623,0.00000,0.03196,0.97759,-0.18995,0.0,2023,6,7,17,51,43,625
50.86830,0.02818,-0.00123,0.00000,0.02952,0.97661,-0.19008,0.0,2023,6,7,17,51,43,636
50.86840,0.08068,-0.21123,0.00000,0.03123,0.97820,-0.18520,0.0,2023,6,7,17,51,43,647
50.86850,0.01068,0.20877,0.00000,0.03270,0.97954,-0.18947,0.0,2023,6,7,17,51,43,658
50.86860,0.11568,-0.12373,0.00000,0.03111,0.97393,-0.18959,0.0,2023,6,7,17,51,43,669
50.86870,0.06318,0.05127,0.00000,0.02940,0.97820,-0.18800,0.0,2023,6,7,17,51,43,680
50.86880,0.01068,0.15627,0.00000,0.03123,0.97600,-0.19020,0.0,2023,6,7,17,51,43,692
50.86890,-0.00682,-0.01873,0.00000,0.03172,0.97624,-0.19191,0.0,2023,6,7,17,51,43,703
50.86900,0.13318,-0.21123,0.00000,0.03038,0.97454,-0.18837,0.0,2023,6,7,17,51,43,714
50.86910,-0.00682,-0.05373,0.00000,0.03038,0.97515,-0.18715,0.0,2023,6,7,17,51,43,725
50.86920,0.08068,-0.10623,0.00000,0.03123,0.97612,-0.18959,0.0,2023,6,7,17,51,43,736
50.86930,0.01068,-0.26373,0.00000,0.03026,0.97710,-0.19117,0.0,2023,6,7,17,51,43,747
50.86940,-0.05932,0.03377,0.00000,0.03038,0.97624,-0.19020,0.0,2023,6,7,17,51,43,758
50.86950,-0.05932,0.20877,0.00000,0.03074,0.97722,-0.18788,0.0,2023,6,7,17,51,43,769
50.86960,0.04568,0.03377,0.00000,0.03221,0.97490,-0.18849,0.0,2023,6,7,17,51,43,780
50.86970,-0.02432,0.05127,0.00000,0.03233,0.97429,-0.19313,0.0,2023,6,7,17,51,43,792
50.86980,-0.16432,-0.00123,0.00000,0.02879,0.97637,-0.18751,0.0,2023,6,7,17,51,43,803
50.86990,-0.09432,0.01627,0.00000,0.02977,0.97576,-0.18690,0.0,2023,6,7,17,51,43,814
50.87000,0.04568,-0.05373,0.00000,0.03221,0.97527,-0.18825,0.0,2023,6,7,17,51,43,825
50.87010,0.02818,-0.03623,0.00000,0.03111,0.97820,-0.18934,0.0,2023,6,7,17,51,43,836
50.87020,0.13318,-0.17623,0.00000,0.03135,0.97661,-0.18898,0.0,2023,6,7,17,51,43,847
50.87030,0.09818,0.03377,0.00000,0.03123,0.97722,-0.19008,0.0,2023,6,7,17,51,43,858
50.87040,-0.07682,-0.08873,0.00000,0.03050,0.97649,-0.18947,0.0,2023,6,7,17,51,43,869
50.87050,0.13318,0.01627,0.00000,0.03245,0.97368,-0.18983,0.0,2023,6,7,17,51,43,880
50.87060,0.13318,-0.22873,0.00000,0.03196,0.97624,-0.18995,0.0,2023,6,7,17,51,43,892
50.87070,-0.00682,0.12127,0.00000,0.03099,0.97771,-0.18751,0.0,2023,6,7,17,51,43,903
50.87080,0.08068,-0.15873,0.00000,0.03331,0.97441,-0.18873,0.0,2023,6,7,17,51,43,914
50.87090,0.25568,-0.08873,0.00000,0.03087,0.97649,-0.18983,0.0,2023,6,7,17,51,43,925
50.87100,0.04568,-0.01873,0.00000,0.03062,0.97624,-0.19130,0.0,2023,6,7,17,51,43,936
50.87110,-0.00682,-0.05373,0.00000,0.03282,0.97612,-0.19020,0.0,2023,6,7,17,51,43,947
50.87120,-0.07682,0.15627,0.00000,0.03184,0.97612,-0.18825,0.0,2023,6,7,17,51,43,958
50.87130,-0.07682,-0.01873,0.00000,0.02891,0.97685,-0.18995,0.0,2023,6,7,17,51,43,969
50.87140,0.01068,-0.05373,0.00000,0.03221,0.97685,-0.18727,0.0,2023,6,7,17,51,43,980
50.87150,-0.12932,-0.01873,0.00000,0.03062,0.97551,-0.18934,0.0,2023,6,7,17,51,43,992
50.87160,-0.23432,0.12127,0.00000,0.03050,0.97868,-0.18873,0.0,2023,6,7,17,51,43,3
50.87170,0.25568,-0.12373,0.00000,0.03160,0.97588,-0.18959,0.0,2023,6,7,17,51,43,14
50.87180,0.09818,-0.01873,0.00000,0.03074,0.97624,-0.18825,0.0,2023,6,7,17,51,44,5
50.87190,-0.05932,-0.01873,0.00000,0.03111,0.97454,-0.18849,0.0,2023,6,7,17,51,44,16
50.87200,-0.05932,0.12127,0.00000,0.02952,0.97929,-0.19142,0.0,2023,6,7,17,51,44,27
50.87210,0.09818,-0.07123,0.00000,0.02940,0.97551,-0.18922,0.0,2023,6,7,17,51,44,38
50.87220,0.16818,0.03377,0.00000,0.03038,0.97624,-0.19154,0.0,2023,6,7,17,51,44,49
50.87230,-0.07682,0.01627,0.00000,0.03026,0.97588,-0.18886,0.0,2023,6,7,17,51,44,60
50.87240,0.02818,0.08627,0.00000,0.03074,0.97673,-0.18666,0.0,2023,6,7,17,51,44,72
50.87250,0.06318,-0.07123,0.00000,0.03123,0.97612,-0.19264,0.0,2023,6,7,17,51,44,83
50.87260,0.02818,0.05127,0.00000,0.03111,0.97820,-0.18873,0.0,2023,6,7,17,51,44,94
50.87270,-0.05932,-0.05373,0.00000,0.03294,0.97466,-0.18886,0.0,2023,6,7,17,51,44,105
50.87280,0.09818,-0.07123,0.00000,0.02940,0.97673,-0.18703,0.0,2023,6,7,17,51,44,116
50.87290,-0.11182,-0.10623,0.00000,0.03038,0.97612,-0.18751,0.0,2023,6,7,17,51,44,127
50.87300,0.13318,-0.05373,0.00000,0.03050,0.97759,-0.19130,0.0,2023,6,7,17,51,44,138
50.87310,0.04568,0.20877,0.00000,0.03050,0.97332,-0.19008,0.0,2023,6,7,17,51,44,149
50.87320,-0.09432,-0.19373,0.00000,0.03257,0.97515,-0.18776,0.0,2023,6,7,17,51,44,160
50.87330,0.09818,-0.19373,0.00000,0.03196,0.97637,-0.18922,0.0,2023,6,7,17,51,44,172
50.87340,-0.00682,0.01627,0.00000,0.03087,0.97759,-0.18995,0.0,2023,6,7,17,51,44,183
50.87350,0.11568,0.03377,0.00000,0.02965,0.97478,-0.18739,0.0,2023,6,7,17,51,44,194
50.87360,0.04568,-0.01873,0.00000,0.03233,0.97588,-0.19154,0.0,2023,6,7,17,51,44,205
50.87370,-0.16432,-0.08873,0.00000,0.03026,0.97612,-0.18947,0.0,2023,6,7,17,51,44,216
50.87380,0.06318,-0.08873,0.00000,0.02940,0.97551,-0.19142,0.0,2023,6,7,17,51,44,227
50.87390,0.06318,0.19127,0.00000,0.03160,0.97649,-0.19325,0.0,2023,6,7,17,51,44,238
50.87400,-0.23432,0.17377,0.00000,0.03282,0.97539,-0.19203,0.0,2023,6,7,17,51,44,249
50.87410,0.04568,0.10377,0.00000,0.03331,0.97441,-0.19178,0.0,2023,6,7,17,51,44,260
50.87420,0.08068,0.08627,0.00000,0.03087,0.97795,-0.19008,0.0,2023,6,7,17,51,44,272
50.87430,-0.23432,0.19127,0.00000,0.03013,0.97612,-0.18983,0.0,2023,6,7,17,51,44,283
50.87440,-0.05932,-0.14123,0.00000,0.03172,0.97612,-0.19081,0.0,2023,6,7,17,51,44,294
50.87450,0.04568,-0.14123,0.00000,0.03038,0.97759,-0.18947,0.0,2023,6,7,17,51,44,305
50.87460,-0.25182,0.24377,0.00000,0.03111,0.97600,-0.19105,0.0,2023,6,7,17,51,44,316
50.87470,0.11568,-0.01873,0.00000,0.03074,0.97637,-0.19191,0.0,2023,6,7,17,51,44,327
50.87480,0.16818,0.20877,0.00000,0.02794,0.97795,-0.19142,0.0,2023,6,7,17,51,44,338
50.87490,-0.09432,0.08627,0.00000,0.03160,0.97673,-0.19093,0.0,2023,6,7,17,51,44,349
50.87500,-0.09432,0.03377,0.00000,0.03087,0.97698,-0.18727,0.0,2023,6,7,17,51,44,360
50.87510,-0.04182,0.03377,0.00000,0.03123,0.97624,-0.19008,0.0,2023,6,7,17,51,44,372
50.87520,-0.14682,0.08627,0.00000,0.03013,0.97551,-0.19008,0.0,2023,6,7,17,51,44,383
50.87530,-0.07682,0.08627,0.00000,0.03221,0.97685,-0.19093,0.0,2023,6,7,17,51,44,394
50.87540,-0.00682,-0.00123,0.00000,0.03196,0.97405,-0.18934,0.0,2023,6,7,17,51,44,405
50.87550,-0.05932,0.06877,0.00000,0.03087,0.97551,-0.18995,0.0,2023,6,7,17,51,44,416
50.87560,0.06318,0.13877,0.00000,0.03209,0.97466,-0.19093,0.0,2023,6,7,17,51,44,427
50.87570,0.11568,0.10377,0.00000,0.02952,0.97624,-0.19227,0.0,2023,6,7,17,51,44,438
50.87580,0.04568,-0.07123,0.00000,0.02952,0.97942,-0.19020,0.0,2023,6,7,17,51,44,449
50.87590,0.11568,-0.07123,0.00000,0.03245,0.97612,-0.19032,0.0,2023,6,7,17,51,44,460
50.87600,0.16818,0.13877,0.00000,0.02965,0.97637,-0.19081,0.0,2023,6,7,17,51,44,472
50.87610,-0.04182,-0.01873,0.00000,0.03148,0.97588,-0.19276,0.0,2023,6,7,17,51,44,483
50.87620,-0.07682,0.03377,0.00000,0.03209,0.97600,-0.19117,0.0,2023,6,7,17,51,44,494
50.87630,-0.18182,0.19127,0.00000,0.02952,0.97563,-0.19044,0.0,2023,6,7,17,51,44,505
50.87640,0.04568,0.08627,0.00000,0.02989,0.97649,-0.19288,0.0,2023,6,7,17,51,44,516
50.87650,0.04568,0.10377,0.00000,0.03062,0.97685,-0.19105,0.0,2023,6,7,17,51,44,527
50.87660,0.08068,-0.10623,0.00000,0.03245,0.97771,-0.19227,0.0,2023,6,7,17,51,44,538
50.87670,0.04568,0.15627,0.00000,0.03270,0.97612,-0.19203,0.0,2023,6,7,17,51,44,549
50.87680,-0.00682,-0.01873,0.00000,0.02891,0.97637,-0.18983,0.0,2023,6,7,17,51,44,560
50.87690,0.13318,-0.10623,0.00000,0.03233,0.97393,-0.19483,0.0,2023,6,7,17,51,44,572
50.87700,-0.07682,-0.21123,0.00000,0.03087,0.97624,-0.18922,0.0,2023,6,7,17,51,44,583
50.87710,-0.16432,0.12127,0.00000,0.02952,0.97563,-0.19081,0.0,2023,6,7,17,51,44,594
50.87720,-0.09432,-0.00123,0.00000,0.03209,0.97600,-0.19130,0.0,2023,6,7,17,51,44,605
50.87730,0.18568,-0.01873,0.00000,0.03233,0.97661,-0.19178,0.0,2023,6,7,17,51,44,616
50.87740,-0.07682,-0.21123,0.00000,0.03074,0.97942,-0.19252,0.0,2023,6,7,17,51,44,627
50.87750,-0.05932,-0.19373,0.00000,0.03233,0.97649,-0.19227,0.0,2023,6,7,17,51,44,638
50.87760,0.13318,-0.14123,0.00000,0.03111,0.97454,-0.19191,0.0,2023,6,7,17,51,44,649
50.87770,-0.04182,-0.10623,0.00000,0.03196,0.97612,-0.19337,0.0,2023,6,7,17,51,44,660
50.87780,0.04568,-0.03623,0.00000,0.02952,0.97588,-0.19056,0.0,2023,6,7,17,51,44,672
50.87790,0.04568,-0.07123,0.00000,0.03196,0.97661,-0.19081,0.0,2023,6,7,17,51,44,683
50.87800,0.18568,-0.10623,0.00000,0.03184,0.97649,-0.19056,0.0,2023,6,7,17,51,44,694
50.87810,0.11568,-0.10623,0.00000,0.03148,0.97295,-0.19154,0.0,2023,6,7,17,51,44,705
50.87820,0.20318,-0.03623,0.00000,0.03270,0.97637,-0.19130,0.0,2023,6,7,17,51,44,716
50.87830,-0.07682,0.13877,0.00000,0.03050,0.97673,-0.18922,0.0,2023,6,7,17,51,44,727
50.87840,-0.12932,-0.01873,0.00000,0.03270,0.97600,-0.18995,0.0,2023,6,7,17,51,44,738
50.87850,0.04568,0.01627,0.00000,0.03050,0.97868,-0.18995,0.0,2023,6,7,17,51,44,749
50.87860,-0.21682,0.13877,0.00000,0.03087,0.97539,-0.19008,0.0,2023,6,7,17,51,44,760
50.87870,0.01068,0.12127,0.00000,0.02940,0.97795,-0.18642,0.0,2023,6,7,17,51,44,772
50.87880,0.02818,-0.01873,0.00000,0.03087,0.97795,-0.19056,0.0,2023,6,7,17,51,44,783
50.87890,0.01068,0.05127,0.00000,0.03294,0.97588,-0.19056,0.0,2023,6,7,17,51,44,794
50.87900,0.09818,0.17377,0.00000,0.03050,0.97539,-0.18910,0.0,2023,6,7,17,51,44,805
50.87910,0.04568,0.19127,0.00000,0.02989,0.97844,-0.18910,0.0,2023,6,7,17,51,44,816
50.87920,-0.02432,0.26127,0.00000,0.02867,0.97807,-0.19008,0.0,2023,6,7,17,51,44,827
50.87930,-0.00682,-0.07123,0.00000,0.03123,0.97356,-0.19044,0.0,2023,6,7,17,51,44,838
50.87940,-0.16432,-0.10623,0.00000,0.03257,0.97600,-0.18947,0.0,2023,6,7,17,51,44,849
50.87950,0.04568,-0.10623,0.00000,0.02879,0.97612,-0.18861,0.0,2023,6,7,17,51,44,860
50.87960,0.09818,-0.10623,0.00000,0.03111,0.97698,-0.18983,0.0,2023,6,7,17,51,44,872
50.87970,-0.09432,0.05127,0.00000,0.03416,0.97405,-0.19191,0.0,2023,6,7,17,51,44,883
50.87980,0.01068,-0.05373,0.00000,0.03026,0.97820,-0.18922,0.0,2023,6,7,17,51,44,894
50.87990,-0.02432,0.01627,0.00000,0.02989,0.97539,-0.18703,0.0,2023,6,7,17,51,44,905
50.88000,0.22068,-0.10623,0.00000,0.02965,0.97429,-0.19008,0.0,2023,6,7,17,51,44,916
50.88010,0.09818,-0.03623,0.00000,0.03099,0.97624,-0.19142,0.0,2023,6,7,17,51,44,927
50.88020,0.02818,0.03377,0.00000,0.02916,0.97380,-0.19105,0.0,2023,6,7,17,51,44,938
50.88030,-0.05932,0.26127,0.00000,0.03172,0.97722,-0.18800,0.0,2023,6,7,17,51,44,949
50.88040,0.04568,-0.15873,0.00000,0.03392,0.97600,-0.19288,0.0,2023,6,7,17,51,44,960
50.88050,0.15068,0.05127,0.00000,0.02952,0.97624,-0.19117,0.0,2023,6,7,17,51,44,972
50.88060,-0.00682,0.10377,0.00000,0.02806,0.97588,-0.19056,0.0,2023,6,7,17,51,44,983
50.88070,0.04568,-0.08873,0.00000,0.03233,0.97612,-0.18959,0.0,2023,6,7,17,51,44,994
50.88080,0.01068,-0.00123,0.00000,0.03245,0.97539,-0.18861,0.0,2023,6,7,17,51,45,5
50.88090,-0.07682,0.06877,0.00000,0.03087,0.97624,-0.19032,0.0,2023,6,7,17,51,45,16
50.88100,-0.05932,-0.05373,0.00000,0.03099,0.97795,-0.18873,0.0,2023,6,7,17,51,45,27
50.88110,0.01068,-0.15873,0.00000,0.03111,0.97502,-0.19178,0.0,2023,6,7,17,51,45,38
50.88120,-0.04182,-0.00123,0.00000,0.03135,0.97429,-0.18788,0.0,2023,6,7,17,51,45,49
50.88130,-0.02432,-0.10623,0.00000,0.03209,0.97600,-0.19044,0.0,2023,6,7,17,51,45,60
50.88140,0.22068,-0.14123,0.00000,0.03099,0.97844,-0.19044,0.0,2023,6,7,17,51,45,72
50.88150,-0.14682,-0.05373,0.00000,0.03099,0.97698,-0.18971,0.0,2023,6,7,17,51,45,83
50.88160,0.06318,0.10377,0.00000,0.03135,0.97710,-0.18959,0.0,2023,6,7,17,51,45,94
50.88170,-0.00682,0.08627,0.00000,0.03087,0.97551,-0.18812,0.0,2023,6,7,17,51,45,105
50.88180,-0.11182,0.01627,0.00000,0.02928,0.97637,-0.18690,0.0,2023,6,7,17,51,45,116
50.88190,-0.12932,0.01627,0.00000,0.03245,0.97832,-0.19032,0.0,2023,6,7,17,51,45,127
50.88200,-0.09432,-0.07123,0.00000,0.03172,0.97490,-0.18934,0.0,2023,6,7,17,51,45,138
50.88210,0.04568,-0.08873,0.00000,0.03245,0.97454,-0.18959,0.0,2023,6,7,17,51,45,149
50.88220,-0.04182,-0.01873,0.00000,0.03184,0.97649,-0.18873,0.0,2023,6,7,17,51,45,160
50.88230,-0.02432,-0.05373,0.00000,0.02867,0.97795,-0.18971,0.0,2023,6,7,17,51,45,172
50.88240,-0.16432,0.06877,0.00000,0.02855,0.97759,-0.19081,0.0,2023,6,7,17,51,45,183
50.88250,0.30818,-0.03623,0.00000,0.03062,0.97612,-0.18849,0.0,2023,6,7,17,51,45,194
50.88260,0.02818,-0.10623,0.00000,0.03074,0.97734,-0.18739,0.0,2023,6,7,17,51,45,205
50.88270,0.15068,-0.08873,0.00000,0.03221,0.97978,-0.18812,0.0,2023,6,7,17,51,45,216
50.88280,-0.05932,0.12127,0.00000,0.03062,0.97649,-0.18959,0.0,2023,6,7,17,51,45,227
50.88290,0.20318,-0.14123,0.00000,0.03123,0.97563,-0.19105,0.0,2023,6,7,17,51,45,238
50.88300,0.08068,0.05127,0.00000,0.03087,0.97771,-0.18739,0.0,2023,6,7,17,51,45,249
50.88310,-0.00682,-0.12373,0.00000,0.03294,0.97722,-0.18849,0.0,2023,6,7,17,51,45,260
50.88320,-0.04182,0.05127,0.00000,0.03245,0.97466,-0.19130,0.0,2023,6,7,17,51,45,272
50.88330,0.08068,0.15627,0.00000,0.03233,0.97795,-0.19093,0.0,2023,6,7,17,51,45,283
50.88340,0.11568,-0.08873,0.00000,0.03026,0.97624,-0.19227,0.0,2023,6,7,17,51,45,294
50.88350,0.11568,0.10377,0.00000,0.03148,0.97698,-0.19227,0.0,2023,6,7,17,51,45,305
50.88360,0.09818,-0.17623,0.00000,0.03392,0.97624,-0.18959,0.0,2023,6,7,17,51,45,316
50.88370,0.01068,0.08627,0.00000,0.03026,0.97746,-0.18983,0.0,2023,6,7,17,51,45,327
50.88380,-0.09432,0.12127,0.00000,0.03026,0.97698,-0.18959,0.0,2023,6,7,17,51,45,338
50.88390,-0.02432,-0.07123,0.00000,0.03111,0.97624,-0.18898,0.0,2023,6,7,17,51,45,349
50.88400,0.02818,-0.01873,0.00000,0.03245,0.97600,-0.19044,0.0,2023,6,7,17,51,45,360
50.88410,-0.07682,0.03377,0.00000,0.03050,0.97588,-0.19032,0.0,2023,6,7,17,51,45,372
50.88420,0.01068,-0.01873,0.00000,0.03282,0.97588,-0.18910,0.0,2023,6,7,17,51,45,383
50.88430,0.22068,-0.17623,0.00000,0.03270,0.97832,-0.18995,0.0,2023,6,7,17,51,45,394
50.88440,-0.14682,0.03377,0.00000,0.03111,0.97600,-0.19361,0.0,2023,6,7,17,51,45,405
50.88450,0.04568,0.03377,0.00000,0.03050,0.97661,-0.19093,0.0,2023,6,7,17,51,45,416
50.88460,-0.09432,-0.19373,0.00000,0.02965,0.97527,-0.18654,0.0,2023,6,7,17,51,45,427
50.88470,-0.04182,0.17377,0.00000,0.03184,0.97600,-0.18849,0.0,2023,6,7,17,51,45,438
50.88480,0.16818,-0.14123,0.00000,0.02952,0.97759,-0.18825,0.0,2023,6,7,17,51,45,449
50.88490,-0.12932,0.22627,0.00000,0.03172,0.97698,-0.19020,0.0,2023,6,7,17,51,45,460
50.88500,0.02818,-0.08873,0.00000,0.03306,0.97600,-0.18861,0.0,2023,6,7,17,51,45,472
50.88510,0.15068,0.19127,0.00000,0.03233,0.97734,-0.18922,0.0,2023,6,7,17,51,45,483
50.88520,-0.05932,-0.01873,0.00000,0.03416,0.97563,-0.18605,0.0,2023,6,7,17,51,45,494
50.88530,0.13318,-0.14123,0.00000,0.02977,0.97649,-0.19056,0.0,2023,6,7,17,51,45,505
50.88540,0.29068,-0.08873,0.00000,0.02989,0.97722,-0.19154,0.0,2023,6,7,17,51,45,516
50.88550,0.08068,-0.12373,0.00000,0.03160,0.97661,-0.18788,0.0,2023,6,7,17,51,45,527
50.88560,0.06318,0.05127,0.00000,0.03135,0.97576,-0.18861,0.0,2023,6,7,17,51,45,538
50.88570,0.11568,-0.01873,0.00000,0.03111,0.97356,-0.18910,0.0,2023,6,7,17,51,45,549
50.88580,-0.00682,-0.07123,0.00000,0.03209,0.97588,-0.18764,0.0,2023,6,7,17,51,45,560
50.88590,0.15068,-0.10623,0.00000,0.03221,0.97563,-0.19105,0.0,2023,6,7,17,51,45,572
50.88600,0.01068,0.08627,0.00000,0.03270,0.97746,-0.18751,0.0,2023,6,7,17,51,45,583
50.88610,0.01068,0.15627,0.00000,0.03160,0.97661,-0.18947,0.0,2023,6,7,17,51,45,594
50.88620,-0.07682,-0.14123,0.00000,0.03416,0.97637,-0.18910,0.0,2023,6,7,17,51,45,605
50.88630,-0.12932,0.20877,0.00000,0.03038,0.97551,-0.19056,0.0,2023,6,7,17,51,45,616
50.88640,0.04568,0.13877,0.00000,0.03111,0.97588,-0.18971,0.0,2023,6,7,17,51,45,627
50.88650,0.01068,-0.03623,0.00000,0.03087,0.97441,-0.19105,0.0,2023,6,7,17,51,45,638
50.88660,0.04568,-0.10623,0.00000,0.03026,0.97454,-0.18739,0.0,2023,6,7,17,51,45,649
50.88670,-0.00682,-0.08873,0.00000,0.03196,0.97490,-0.18971,0.0,2023,6,7,17,51,45,660
50.88680,-0.04182,0.01627,0.00000,0.03209,0.97624,-0.18825,0.0,2023,6,7,17,51,45,672
50.88690,-0.04182,-0.12373,0.00000,0.02904,0.97539,-0.19008,0.0,2023,6,7,17,51,45,683
50.88700,-0.07682,0.06877,0.00000,0.02647,0.97673,-0.18947,0.0,2023,6,7,17,51,45,694
50.88710,0.04568,0.01627,0.00000,0.03148,0.97478,-0.18971,0.0,2023,6,7,17,51,45,705
50.88720,0.15068,-0.19373,0.00000,0.03135,0.97417,-0.18861,0.0,2023,6,7,17,51,45,716
50.88730,-0.12932,0.08627,0.00000,0.02952,0.97624,-0.18934,0.0,2023,6,7,17,51,45,727
50.88740,0.22068,-0.08873,0.00000,0.03196,0.97637,-0.19008,0.0,2023,6,7,17,51,45,738
50.88750,0.04568,0.06877,0.00000,0.03270,0.97881,-0.18886,0.0,2023,6,7,17,51,45,749
50.88760,0.02818,-0.15873,0.00000,0.03196,0.97490,-0.18837,0.0,2023,6,7,17,51,45,760
50.88770,0.02818,0.01627,0.00000,0.03257,0.97576,-0.18727,0.0,2023,6,7,17,51,45,772
50.88780,0.06318,-0.10623,0.00000,0.03257,0.97832,-0.18837,0.0,2023,6,7,17,51,45,783
50.88790,0.25568,-0.08873,0.00000,0.03123,0.97710,-0.18849,0.0,2023,6,7,17,51,45,794
50.88800,-0.00682,0.24377,0.00000,0.03062,0.97454,-0.19081,0.0,2023,6,7,17,51,45,805
50.88810,-0.16432,0.06877,0.00000,0.02867,0.97466,-0.18995,0.0,2023,6,7,17,51,45,816
50.88820,0.11568,0.13877,0.00000,0.03135,0.97881,-0.19020,0.0,2023,6,7,17,51,45,827
50.88830,0.13318,-0.14123,0.00000,0.03257,0.97490,-0.19008,0.0,2023,6,7,17,51,45,838
50.88840,0.08068,0.03377,0.00000,0.03172,0.97515,-0.18959,0.0,2023,6,7,17,51,45,849
50.88850,-0.00682,0.17377,0.00000,0.02867,0.97551,-0.19154,0.0,2023,6,7,17,51,45,860
50.88860,-0.00682,-0.01873,0.00000,0.03306,0.97624,-0.18849,0.0,2023,6,7,17,51,45,872
50.88870,0.06318,0.01627,0.00000,0.02977,0.97612,-0.19130,0.0,2023,6,7,17,51,45,883
50.88880,-0.02432,-0.01873,0.00000,0.03026,0.97698,-0.19032,0.0,2023,6,7,17,51,45,894
50.88890,0.01068,-0.17623,0.00000,0.03013,0.97539,-0.19069,0.0,2023,6,7,17,51,45,905
50.88900,-0.04182,0.15627,0.00000,0.03148,0.97563,-0.18812,0.0,2023,6,7,17,51,45,916
50.88910,-0.00682,-0.05373,0.00000,0.03038,0.97588,-0.18971,0.0,2023,6,7,17,51,45,927
50.88920,-0.26932,0.06877,0.00000,0.03013,0.97832,-0.19166,0.0,2023,6,7,17,51,45,938
50.88930,-0.12932,0.01627,0.00000,0.03221,0.97807,-0.19130,0.0,2023,6,7,17,51,45,949
50.88940,0.08068,0.03377,0.00000,0.03099,0.97478,-0.18934,0.0,2023,6,7,17,51,45,960
50.88950,-0.09432,0.01627,0.00000,0.02977,0.97673,-0.18886,0.0,2023,6,7,17,51,45,972
50.88960,-0.02432,-0.00123,0.00000,0.03209,0.97490,-0.18873,0.0,2023,6,7,17,51,45,983
50.88970,-0.16432,-0.08873,0.00000,0.03318,0.97746,-0.18995,0.0,2023,6,7,17,51,46,4
50.88980,0.15068,-0.08873,0.00000,0.03111,0.97527,-0.19044,0.0,2023,6,7,17,51,46,15
50.88990,-0.05932,0.01627,0.00000,0.03172,0.97637,-0.18739,0.0,2023,6,7,17,51,46,26
50.89000,-0.05932,-0.01873,0.00000,0.03172,0.97490,-0.18886,0.0,2023,6,7,17,51,46,37
50.89010,-0.05932,-0.05373,0.00000,0.03209,0.97600,-0.19008,0.0,2023,6,7,17,51,46,48
50.89020,-0.14682,0.17377,0.00000,0.03270,0.97881,-0.18971,0.0,2023,6,7,17,51,46,59
50.89030,0.22068,0.12127,0.00000,0.02928,0.97698,-0.19191,0.0,2023,6,7,17,51,46,70
50.89040,0.06318,-0.03623,0.00000,0.03001,0.97563,-0.19142,0.0,2023,6,7,17,51,46,82
50.89050,-0.19932,0.17377,0.00000,0.03148,0.97454,-0.18727,0.0,2023,6,7,17,51,46,93
50.89060,0.13318,0.24377,0.00000,0.03123,0.97746,-0.18983,0.0,2023,6,7,17,51,46,104
50.89070,-0.04182,-0.12373,0.00000,0.03062,0.97759,-0.19166,0.0,2023,6,7,17,51,46,115
50.89080,0.08068,-0.08873,0.00000,0.03172,0.97698,-0.19154,0.0,2023,6,7,17,51,46,126
50.89090,0.08068,-0.08873,0.00000,0.03013,0.97454,-0.19203,0.0,2023,6,7,17,51,46,137
50.89100,-0.07682,0.03377,0.00000,0.03172,0.97563,-0.18825,0.0,2023,6,7,17,51,46,148
50.89110,0.04568,-0.03623,0.00000,0.03123,0.97637,-0.18886,0.0,2023,6,7,17,51,46,159
50.89120,0.09818,0.01627,0.00000,0.03099,0.97393,-0.18959,0.0,2023,6,7,17,51,46,170
50.89130,0.01068,0.05127,0.00000,0.03184,0.97649,-0.18922,0.0,2023,6,7,17,51,46,182
50.89140,-0.11182,0.06877,0.00000,0.03111,0.97515,-0.18678,0.0,2023,6,7,17,51,46,193
50.89150,-0.02432,-0.14123,0.00000,0.03355,0.97612,-0.18873,0.0,2023,6,7,17,51,46,204
50.89160,0.27318,-0.14123,0.00000,0.03099,0.97576,-0.19093,0.0,2023,6,7,17,51,46,215
50.89170,0.15068,-0.08873,0.00000,0.03062,0.97783,-0.18800,0.0,2023,6,7,17,51,46,226
50.89180,-0.09432,-0.14123,0.00000,0.03074,0.97698,-0.19081,0.0,2023,6,7,17,51,46,237
50.89190,0.06318,-0.12373,0.00000,0.03026,0.97771,-0.18934,0.0,2023,6,7,17,51,46,248
50.89200,0.02818,0.03377,0.00000,0.03233,0.97563,-0.19081,0.0,2023,6,7,17,51,46,259
50.89210,0.04568,-0.05373,0.00000,0.03026,0.97698,-0.18898,0.0,2023,6,7,17,51,46,270
50.89220,0.29068,-0.29873,0.00000,0.03123,0.97588,-0.19032,0.0,2023,6,7,17,51,46,282
50.89230,-0.21682,-0.00123,0.00000,0.03184,0.97637,-0.18934,0.0,2023,6,7,17,51,46,293
50.89240,0.08068,0.12127,0.00000,0.03026,0.97649,-0.18654,0.0,2023,6,7,17,51,46,304
50.89250,-0.07682,0.15627,0.00000,0.03221,0.97319,-0.19008,0.0,2023,6,7,17,51,46,315
50.89260,0.04568,-0.10623,0.00000,0.02867,0.97649,-0.18971,0.0,2023,6,7,17,51,46,326
50.89270,-0.00682,0.06877,0.00000,0.02952,0.97710,-0.18703,0.0,2023,6,7,17,51,46,337
50.89280,0.06318,-0.24623,0.00000,0.03135,0.97588,-0.18812,0.0,2023,6,7,17,51,46,348
50.89290,-0.05932,0.03377,0.00000,0.03172,0.97563,-0.18825,0.0,2023,6,7,17,51,46,359
50.89300,0.02818,-0.07123,0.00000,0.03148,0.97466,-0.18934,0.0,2023,6,7,17,51,46,370
50.89310,-0.02432,-0.17623,0.00000,0.02977,0.97478,-0.19386,0.0,2023,6,7,17,51,46,382
50.89320,0.01068,-0.00123,0.00000,0.03038,0.97771,-0.19093,0.0,2023,6,7,17,51,46,393
50.89330,-0.11182,0.06877,0.00000,0.03038,0.97612,-0.18910,0.0,2023,6,7,17,51,46,404
50.89340,0.08068,-0.07123,0.00000,0.03270,0.97600,-0.18922,0.0,2023,6,7,17,51,46,415
50.89350,-0.09432,-0.05373,0.00000,0.03221,0.97551,-0.18983,0.0,2023,6,7,17,51,46,426
50.89360,0.15068,-0.00123,0.00000,0.03087,0.97515,-0.19008,0.0,2023,6,7,17,51,46,437
50.89370,0.08068,-0.07123,0.00000,0.03001,0.97515,-0.19020,0.0,2023,6,7,17,51,46,448
50.89380,0.04568,-0.08873,0.00000,0.03160,0.97795,-0.18934,0.0,2023,6,7,17,51,46,459
50.89390,0.01068,0.05127,0.00000,0.03233,0.97844,-0.18886,0.0,2023,6,7,17,51,46,470
50.89400,-0.16432,-0.10623,0.00000,0.03087,0.97600,-0.19008,0.0,2023,6,7,17,51,46,482
50.89410,0.04568,0.13877,0.00000,0.03038,0.97551,-0.18886,0.0,2023,6,7,17,51,46,493
50.89420,-0.05932,-0.10623,0.00000,0.03111,0.97429,-0.18898,0.0,2023,6,7,17,51,46,504
50.89430,0.06318,-0.07123,0.00000,0.03087,0.97856,-0.18947,0.0,2023,6,7,17,51,46,515
50.89440,0.01068,0.03377,0.00000,0.03026,0.97832,-0.19337,0.0,2023,6,7,17,51,46,526
50.89450,-0.09432,-0.12373,0.00000,0.03001,0.97661,-0.19166,0.0,2023,6,7,17,51,46,537
50.89460,0.15068,-0.17623,0.00000,0.03111,0.97710,-0.19032,0.0,2023,6,7,17,51,46,548
50.89470,0.06318,-0.22873,0.00000,0.02952,0.97576,-0.18642,0.0,2023,6,7,17,51,46,559
50.89480,-0.11182,-0.05373,0.00000,0.02904,0.97722,-0.19056,0.0,2023,6,7,17,51,46,570
50.89490,-0.09432,0.03377,0.00000,0.03209,0.97551,-0.19032,0.0,2023,6,7,17,51,46,582
50.89500,0.13318,0.06877,0.00000,0.02965,0.97929,-0.19154,0.0,2023,6,7,17,51,46,593
50.89510,0.13318,0.06877,0.00000,0.03099,0.97771,-0.19264,0.0,2023,6,7,17,51,46,604
50.89520,-0.07682,-0.07123,0.00000,0.03062,0.97600,-0.19020,0.0,2023,6,7,17,51,46,615
50.89530,0.06318,-0.12373,0.00000,0.03221,0.97771,-0.18971,0.0,2023,6,7,17,51,46,626
50.89540,-0.02432,-0.01873,0.00000,0.02879,0.97649,-0.19056,0.0,2023,6,7,17,51,46,637
50.89550,-0.09432,-0.14123,0.00000,0.03184,0.97722,-0.19252,0.0,2023,6,7,17,51,46,648
50.89560,0.02818,0.17377,0.00000,0.03196,0.97746,-0.18727,0.0,2023,6,7,17,51,46,659
50.89570,0.01068,-0.03623,0.00000,0.03050,0.97563,-0.18800,0.0,2023,6,7,17,51,46,670
50.89580,-0.02432,0.05127,0.00000,0.03318,0.97832,-0.18910,0.0,2023,6,7,17,51,46,682
50.89590,-0.02432,0.26127,0.00000,0.03050,0.97661,-0.19154,0.0,2023,6,7,17,51,46,693
50.89600,0.06318,-0.07123,0.00000,0.03160,0.97502,-0.18959,0.0,2023,6,7,17,51,46,704
50.89610,-0.04182,0.08627,0.00000,0.03318,0.97856,-0.19008,0.0,2023,6,7,17,51,46,715
50.89620,0.15068,-0.28123,0.00000,0.03038,0.97612,-0.18861,0.0,2023,6,7,17,51,46,726
50.89630,-0.07682,0.01627,0.00000,0.03196,0.97600,-0.18971,0.0,2023,6,7,17,51,46,737
50.89640,0.04568,-0.01873,0.00000,0.02952,0.98015,-0.19020,0.0,2023,6,7,17,51,46,748
50.89650,0.08068,-0.07123,0.00000,0.02879,0.97673,-0.18947,0.0,2023,6,7,17,51,46,759
50.89660,0.16818,-0.00123,0.00000,0.02952,0.97454,-0.18788,0.0,2023,6,7,17,51,46,770
50.89670,0.06318,-0.22873,0.00000,0.03062,0.97771,-0.18825,0.0,2023,6,7,17,51,46,782
50.89680,-0.09432,-0.08873,0.00000,0.03148,0.97661,-0.18751,0.0,2023,6,7,17,51,46,793
50.89690,-0.18182,0.08627,0.00000,0.02989,0.97661,-0.19020,0.0,2023,6,7,17,51,46,804
50.89700,0.02818,-0.07123,0.00000,0.03233,0.97551,-0.18898,0.0,2023,6,7,17,51,46,815
50.89710,-0.05932,0.05127,0.00000,0.03001,0.97771,-0.18873,0.0,2023,6,7,17,51,46,826
50.89720,0.04568,-0.07123,0.00000,0.03087,0.97417,-0.18776,0.0,2023,6,7,17,51,46,837
50.89730,0.08068,-0.00123,0.00000,0.02952,0.97783,-0.18910,0.0,2023,6,7,17,51,46,848
50.89740,0.11568,0.08627,0.00000,0.03050,0.97600,-0.19020,0.0,2023,6,7,17,51,46,859
50.89750,0.16818,-0.17623,0.00000,0.02952,0.97673,-0.18861,0.0,2023,6,7,17,51,46,870
50.89760,-0.05932,-0.01873,0.00000,0.03392,0.97673,-0.18849,0.0,2023,6,7,17,51,46,882
50.89770,0.01068,-0.14123,0.00000,0.03294,0.97588,-0.18910,0.0,2023,6,7,17,51,46,893
50.89780,0.27318,-0.10623,0.00000,0.03148,0.97722,-0.19044,0.0,2023,6,7,17,51,46,904
50.89790,-0.04182,0.13877,0.00000,0.03050,0.97783,-0.19203,0.0,2023,6,7,17,51,46,915
50.89800,-0.26932,0.20877,0.00000,0.03270,0.97368,-0.18934,0.0,2023,6,7,17,51,46,926
50.89810,-0.18182,0.15627,0.00000,0.03221,0.97649,-0.18605,0.0,2023,6,7,17,51,46,937
50.89820,0.02818,-0.08873,0.00000,0.03026,0.97600,-0.18959,0.0,2023,6,7,17,51,46,948
50.89830,0.13318,-0.00123,0.00000,0.03245,0.97527,-0.18825,0.0,2023,6,7,17,51,46,959
50.89840,0.09818,0.01627,0.00000,0.03123,0.97649,-0.19081,0.0,2023,6,7,17,51,46,970
50.89850,-0.00682,-0.08873,0.00000,0.03062,0.97576,-0.18739,0.0,2023,6,7,17,51,46,982
50.89860,-0.07682,-0.17623,0.00000,0.03123,0.97563,-0.18776,0.0,2023,6,7,17,51,46,993
50.89870,-0.19932,0.03377,0.00000,0.03294,0.97368,-0.19056,0.0,2023,6,7,17,51,47,4
50.89880,0.09818,-0.14123,0.00000,0.03135,0.97685,-0.19203,0.0,2023,6,7,17,51,47,15
50.89890,-0.04182,0.05127,0.00000,0.03257,0.97710,-0.18995,0.0,2023,6,7,17,51,47,26
50.89900,0.22068,-0.10623,0.00000,0.03038,0.97649,-0.18886,0.0,2023,6,7,17,51,47,37
50.89910,0.18568,-0.08873,0.00000,0.03148,0.97563,-0.18886,0.0,2023,6,7,17,51,47,48
50.89920,0.15068,-0.00123,0.00000,0.03184,0.97637,-0.19020,0.0,2023,6,7,17,51,47,59
50.89930,0.15068,-0.24623,0.00000,0.03160,0.97478,-0.18983,0.0,2023,6,7,17,51,47,70
50.89940,0.20318,-0.03623,0.00000,0.03038,0.97515,-0.19056,0.0,2023,6,7,17,51,47,82
50.89950,-0.11182,-0.00123,0.00000,0.03074,0.97527,-0.18727,0.0,2023,6,7,17,51,47,93
50.89960,-0.05932,0.08627,0.00000,0.02965,0.97673,-0.18593,0.0,2023,6,7,17,51,47,104
50.89970,0.16818,-0.07123,0.00000,0.03099,0.97698,-0.18983,0.0,2023,6,7,17,51,47,115
50.89980,0.09818,-0.05373,0.00000,0.02879,0.97563,-0.18947,0.0,2023,6,7,17,51,47,126
50.89990,-0.11182,0.06877,0.00000,0.03087,0.97563,-0.19252,0.0,2023,6,7,17,51,47,137
50.90000,0.04568,0.13877,0.00000,0.03294,0.97441,-0.18959,0.0,2023,6,7,17,51,47,148
50.90010,-0.05932,-0.01873,0.00000,0.03013,0.97612,-0.19117,0.0,2023,6,7,17,51,47,159
50.90020,-0.05932,0.06877,0.00000,0.03172,0.97722,-0.18898,0.0,2023,6,7,17,51,47,170
50.90030,0.13318,-0.05373,0.00000,0.03343,0.97649,-0.19056,0.0,2023,6,7,17,51,47,182
50.90040,-0.02432,-0.12373,0.00000,0.02977,0.97454,-0.19203,0.0,2023,6,7,17,51,47,193
50.90050,-0.12932,-0.19373,0.00000,0.03087,0.97637,-0.18886,0.0,2023,6,7,17,51,47,204
50.90060,0.18568,-0.36873,0.00000,0.03123,0.97698,-0.18886,0.0,2023,6,7,17,51,47,215
50.90070,0.04568,0.01627,0.00000,0.03245,0.97637,-0.18739,0.0,2023,6,7,17,51,47,226
50.90080,0.02818,-0.05373,0.00000,0.03123,0.97624,-0.18898,0.0,2023,6,7,17,51,47,237
50.90090,0.08068,-0.12373,0.00000,0.03123,0.97624,-0.18690,0.0,2023,6,7,17,51,47,248
50.90100,-0.14682,0.06877,0.00000,0.03294,0.97490,-0.18971,0.0,2023,6,7,17,51,47,259
50.90110,0.01068,-0.05373,0.00000,0.03172,0.97734,-0.19203,0.0,2023,6,7,17,51,47,270
50.90120,0.13318,-0.08873,0.00000,0.03148,0.97466,-0.19130,0.0,2023,6,7,17,51,47,282
50.90130,0.11568,-0.17623,0.00000,0.02891,0.97588,-0.19105,0.0,2023,6,7,17,51,47,293
50.90140,0.02818,-0.01873,0.00000,0.03026,0.97332,-0.19081,0.0,2023,6,7,17,51,47,304
50.90150,0.04568,-0.00123,0.00000,0.03074,0.97454,-0.19239,0.0,2023,6,7,17,51,47,315
50.90160,-0.19932,0.20877,0.00000,0.03062,0.97832,-0.19032,0.0,2023,6,7,17,51,47,326
50.90170,-0.00682,0.06877,0.00000,0.03148,0.97490,-0.19215,0.0,2023,6,7,17,51,47,337
50.90180,0.15068,-0.14123,0.00000,0.03135,0.97502,-0.18910,0.0,2023,6,7,17,51,47,348
50.90190,0.04568,0.06877,0.00000,0.03038,0.97588,-0.18861,0.0,2023,6,7,17,51,47,359
50.90200,-0.02432,-0.07123,0.00000,0.03318,0.97649,-0.18861,0.0,2023,6,7,17,51,47,370
50.90210,0.15068,-0.03623,0.00000,0.03050,0.97356,-0.19056,0.0,2023,6,7,17,51,47,382
50.90220,0.02818,-0.01873,0.00000,0.03050,0.97722,-0.19288,0.0,2023,6,7,17,51,47,393
50.90230,-0.12932,0.08627,0.00000,0.03209,0.97576,-0.19300,0.0,2023,6,7,17,51,47,404
50.90240,-0.09432,-0.03623,0.00000,0.03038,0.97612,-0.18861,0.0,2023,6,7,17,51,47,415
50.90250,0.04568,0.06877,0.00000,0.02940,0.97600,-0.19093,0.0,2023,6,7,17,51,47,426
50.90260,0.04568,-0.07123,0.00000,0.03001,0.97710,-0.19215,0.0,2023,6,7,17,51,47,437
50.90270,-0.02432,0.08627,0.00000,0.03026,0.97722,-0.19215,0.0,2023,6,7,17,51,47,448
50.90280,0.13318,0.05127,0.00000,0.02989,0.97856,-0.18983,0.0,2023,6,7,17,51,47,459
50.90290,0.08068,-0.00123,0.00000,0.03099,0.97905,-0.18727,0.0,2023,6,7,17,51,47,470
50.90300,-0.11182,0.03377,0.00000,0.03123,0.97710,-0.18959,0.0,2023,6,7,17,51,47,482
50.90310,-0.02432,0.22627,0.00000,0.02965,0.97710,-0.19069,0.0,2023,6,7,17,51,47,493
50.90320,0.02818,-0.17623,0.00000,0.03074,0.97685,-0.18886,0.0,2023,6,7,17,51,47,504
50.90330,-0.07682,0.15627,0.00000,0.03196,0.97722,-0.18751,0.0,2023,6,7,17,51,47,515
50.90340,0.15068,0.03377,0.00000,0.03087,0.97405,-0.18800,0.0,2023,6,7,17,51,47,526
50.90350,0.30818,-0.12373,0.00000,0.03233,0.97466,-0.18812,0.0,2023,6,7,17,51,47,537
50.90360,0.11568,0.13877,0.00000,0.03074,0.97551,-0.19069,0.0,2023,6,7,17,51,47,548
50.90370,0.08068,-0.12373,0.00000,0.03026,0.97454,-0.19093,0.0,2023,6,7,17,51,47,559
50.90380,0.08068,-0.07123,0.00000,0.03001,0.97490,-0.19020,0.0,2023,6,7,17,51,47,570
50.90390,-0.00682,0.03377,0.00000,0.03050,0.97734,-0.19117,0.0,2023,6,7,17,51,47,582
50.90400,0.15068,-0.00123,0.00000,0.03111,0.97734,-0.19239,0.0,2023,6,7,17,51,47,593
50.90410,0.25568,-0.12373,0.00000,0.03148,0.97722,-0.19154,0.0,2023,6,7,17,51,47,604
50.90420,0.09818,-0.21123,0.00000,0.03233,0.97881,-0.19154,0.0,2023,6,7,17,51,47,615
50.90430,-0.04182,-0.17623,0.00000,0.03282,0.97576,-0.18922,0.0,2023,6,7,17,51,47,626
50.90440,0.02818,0.03377,0.00000,0.03318,0.97612,-0.19044,0.0,2023,6,7,17,51,47,637
50.90450,-0.11182,0.03377,0.00000,0.03233,0.97551,-0.18703,0.0,2023,6,7,17,51,47,648
50.90460,0.08068,-0.15873,0.00000,0.03062,0.97734,-0.18910,0.0,2023,6,7,17,51,47,659
50.90470,-0.04182,0.05127,0.00000,0.03062,0.97698,-0.19044,0.0,2023,6,7,17,51,47,670
50.90480,-0.04182,-0.14123,0.00000,0.03172,0.97588,-0.18910,0.0,2023,6,7,17,51,47,682
50.90490,-0.02432,0.06877,0.00000,0.03148,0.97673,-0.19008,0.0,2023,6,7,17,51,47,693
50.90500,0.01068,0.15627,0.00000,0.02989,0.97783,-0.19239,0.0,2023,6,7,17,51,47,704
50.90510,0.20318,-0.05373,0.00000,0.03013,0.97502,-0.19178,0.0,2023,6,7,17,51,47,715
50.90520,-0.21682,0.12127,0.00000,0.03160,0.97710,-0.18971,0.0,2023,6,7,17,51,47,726
50.90530,-0.19932,-0.14123,0.00000,0.03160,0.97649,-0.19056,0.0,2023,6,7,17,51,47,737
50.90540,0.18568,0.08627,0.00000,0.03160,0.97807,-0.18959,0.0,2023,6,7,17,51,47,748
50.90550,-0.09432,-0.03623,0.00000,0.03148,0.97917,-0.19093,0.0,2023,6,7,17,51,47,759
50.90560,-0.05932,0.12127,0.00000,0.03026,0.97527,-0.19361,0.0,2023,6,7,17,51,47,770
50.90570,-0.09432,-0.10623,0.00000,0.03245,0.97490,-0.19325,0.0,2023,6,7,17,51,47,782
50.90580,-0.05932,0.08627,0.00000,0.03318,0.97405,-0.19166,0.0,2023,6,7,17,51,47,793
50.90590,0.08068,0.17377,0.00000,0.03233,0.97527,-0.19105,0.0,2023,6,7,17,51,47,804
50.90600,0.16818,-0.03623,0.00000,0.03184,0.97429,-0.19276,0.0,2023,6,7,17,51,47,815
50.90610,0.04568,-0.03623,0.00000,0.02940,0.97759,-0.19239,0.0,2023,6,7,17,51,47,826
50.90620,-0.00682,0.08627,0.00000,0.02940,0.97551,-0.19337,0.0,2023,6,7,17,51,47,837
50.90630,0.04568,0.01627,0.00000,0.03038,0.97954,-0.19032,0.0,2023,6,7,17,51,47,848
50.90640,0.01068,0.17377,0.00000,0.03099,0.97490,-0.19227,0.0,2023,6,7,17,51,47,859
50.90650,-0.00682,-0.05373,0.00000,0.03184,0.97673,-0.19008,0.0,2023,6,7,17,51,47,870
50.90660,0.02818,-0.07123,0.00000,0.03209,0.97942,-0.19020,0.0,2023,6,7,17,51,47,882
50.90670,-0.00682,-0.19373,0.00000,0.02952,0.97600,-0.19227,0.0,2023,6,7,17,51,47,893
50.90680,0.04568,-0.01873,0.00000,0.03099,0.97478,-0.19093,0.0,2023,6,7,17,51,47,904
50.90690,-0.02432,-0.03623,0.00000,0.03282,0.97539,-0.18861,0.0,2023,6,7,17,51,47,915
50.90700,-0.04182,-0.01873,0.00000,0.03245,0.97563,-0.19276,0.0,2023,6,7,17,51,47,926
50.90710,0.04568,-0.03623,0.00000,0.03013,0.97868,-0.19276,0.0,2023,6,7,17,51,47,937
50.90720,0.16818,0.06877,0.00000,0.03172,0.97393,-0.19313,0.0,2023,6,7,17,51,47,948
50.90730,-0.21682,0.15627,0.00000,0.03026,0.97673,-0.19069,0.0,2023,6,7,17,51,47,959
50.90740,-0.04182,-0.05373,0.00000,0.03184,0.97502,-0.18959,0.0,2023,6,7,17,51,47,970
50.90750,0.04568,0.05127,0.00000,0.03233,0.97649,-0.18983,0.0,2023,6,7,17,51,47,982
50.90760,-0.07682,0.24377,0.00000,0.03148,0.97649,-0.18739,0.0,2023,6,7,17,51,48,3
50.90770,0.04568,-0.17623,0.00000,0.03074,0.97563,-0.19178,0.0,2023,6,7,17,51,48,14
50.90780,-0.07682,-0.10623,0.00000,0.03087,0.97588,-0.19093,0.0,2023,6,7,17,51,48,25
50.90790,0.01068,0.20877,0.00000,0.03074,0.97612,-0.18715,0.0,2023,6,7,17,51,48,36
50.90800,-0.05932,0.08627,0.00000,0.03111,0.97783,-0.19154,0.0,2023,6,7,17,51,48,47
50.90810,0.04568,-0.03623,0.00000,0.03270,0.97685,-0.19056,0.0,2023,6,7,17,51,48,58
50.90820,-0.12932,0.01627,0.00000,0.03160,0.97698,-0.18983,0.0,2023,6,7,17,51,48,69
50.90830,-0.02432,-0.01873,0.00000,0.03221,0.97698,-0.18983,0.0,2023,6,7,17,51,48,80
50.90840,-0.09432,0.06877,0.00000,0.03221,0.97771,-0.18800,0.0,2023,6,7,17,51,48,92
50.90850,-0.04182,-0.12373,0.00000,0.03050,0.97893,-0.18971,0.0,2023,6,7,17,51,48,103
50.90860,0.06318,-0.07123,0.00000,0.03209,0.97295,-0.18825,0.0,2023,6,7,17,51,48,114
50.90870,-0.02432,0.05127,0.00000,0.03135,0.97527,-0.19313,0.0,2023,6,7,17,51,48,125
50.90880,0.02818,-0.00123,0.00000,0.03099,0.97807,-0.19166,0.0,2023,6,7,17,51,48,136
50.90890,-0.12932,-0.10623,0.00000,0.03257,0.98027,-0.18983,0.0,2023,6,7,17,51,48,147
50.90900,-0.07682,-0.12373,0.00000,0.03221,0.97649,-0.18861,0.0,2023,6,7,17,51,48,158
50.90910,0.09818,-0.03623,0.00000,0.03184,0.97563,-0.19056,0.0,2023,6,7,17,51,48,169
50.90920,0.09818,-0.08873,0.00000,0.03123,0.97759,-0.18971,0.0,2023,6,7,17,51,48,180
50.90930,-0.07682,-0.00123,0.00000,0.03087,0.97612,-0.18861,0.0,2023,6,7,17,51,48,192
50.90940,-0.11182,0.03377,0.00000,0.03111,0.97600,-0.18861,0.0,2023,6,7,17,51,48,203
50.90950,0.13318,0.06877,0.00000,0.03038,0.97759,-0.18800,0.0,2023,6,7,17,51,48,214
50.90960,0.06318,-0.14123,0.00000,0.03172,0.97576,-0.18922,0.0,2023,6,7,17,51,48,225
50.90970,0.18568,0.03377,0.00000,0.03111,0.97807,-0.19215,0.0,2023,6,7,17,51,48,236
50.90980,-0.05932,-0.00123,0.00000,0.03050,0.97820,-0.19081,0.0,2023,6,7,17,51,48,247
50.90990,-0.16432,0.03377,0.00000,0.03306,0.97563,-0.19008,0.0,2023,6,7,17,51,48,258
50.91000,0.20318,-0.03623,0.00000,0.03111,0.97637,-0.18995,0.0,2023,6,7,17,51,48,269
50.91010,-0.05932,-0.10623,0.00000,0.03160,0.97710,-0.18873,0.0,2023,6,7,17,51,48,280
50.91020,0.02818,0.29627,0.00000,0.03026,0.97856,-0.19056,0.0,2023,6,7,17,51,48,292
50.91030,0.02818,-0.00123,0.00000,0.03184,0.97698,-0.18703,0.0,2023,6,7,17,51,48,303
50.91040,-0.04182,0.06877,0.00000,0.03209,0.97722,-0.18934,0.0,2023,6,7,17,51,48,314
50.91050,0.11568,-0.08873,0.00000,0.03123,0.97576,-0.18995,0.0,2023,6,7,17,51,48,325
50.91060,0.22068,-0.08873,0.00000,0.02989,0.97600,-0.18983,0.0,2023,6,7,17,51,48,336
50.91070,0.08068,0.06877,0.00000,0.02952,0.97502,-0.18971,0.0,2023,6,7,17,51,48,347
50.91080,-0.00682,0.06877,0.00000,0.02757,0.97600,-0.19117,0.0,2023,6,7,17,51,48,358
50.91090,-0.07682,0.03377,0.00000,0.02891,0.97649,-0.18764,0.0,2023,6,7,17,51,48,369
50.91100,0.02818,-0.17623,0.00000,0.03270,0.97795,-0.18995,0.0,2023,6,7,17,51,48,380
50.91110,0.04568,0.12127,0.00000,0.02989,0.97685,-0.18849,0.0,2023,6,7,17,51,48,392
50.91120,0.02818,0.08627,0.00000,0.03050,0.97844,-0.18764,0.0,2023,6,7,17,51,48,403
50.91130,0.16818,0.01627,0.00000,0.02867,0.97698,-0.19008,0.0,2023,6,7,17,51,48,414
50.91140,-0.05932,0.19127,0.00000,0.03148,0.97746,-0.18800,0.0,2023,6,7,17,51,48,425
50.91150,0.06318,0.03377,0.00000,0.03160,0.97478,-0.18934,0.0,2023,6,7,17,51,48,436
50.91160,0.06318,-0.00123,0.00000,0.03148,0.97759,-0.18947,0.0,2023,6,7,17,51,48,447
50.91170,-0.04182,-0.07123,0.00000,0.03074,0.97319,-0.18617,0.0,2023,6,7,17,51,48,458
50.91180,-0.18182,0.10377,0.00000,0.03099,0.97795,-0.18703,0.0,2023,6,7,17,51,48,469
50.91190,-0.02432,0.05127,0.00000,0.02879,0.97441,-0.18934,0.0,2023,6,7,17,51,48,480
50.91200,0.13318,-0.08873,0.00000,0.03148,0.97698,-0.18678,0.0,2023,6,7,17,51,48,492
50.91210,-0.16432,0.01627,0.00000,0.03184,0.97551,-0.18898,0.0,2023,6,7,17,51,48,503
50.91220,-0.11182,-0.12373,0.00000,0.03233,0.97539,-0.18812,0.0,2023,6,7,17,51,48,514
50.91230,-0.18182,0.24377,0.00000,0.03270,0.97734,-0.18898,0.0,2023,6,7,17,51,48,525
50.91240,-0.09432,-0.08873,0.00000,0.02745,0.97551,-0.19166,0.0,2023,6,7,17,51,48,536
50.91250,0.08068,-0.00123,0.00000,0.03013,0.97624,-0.19069,0.0,2023,6,7,17,51,48,547
50.91260,0.04568,0.19127,0.00000,0.03148,0.97429,-0.18849,0.0,2023,6,7,17,51,48,558
50.91270,-0.14682,0.05127,0.00000,0.03123,0.97734,-0.18861,0.0,2023,6,7,17,51,48,569
50.91280,-0.18182,0.08627,0.00000,0.03135,0.97673,-0.19288,0.0,2023,6,7,17,51,48,580
50.91290,0.13318,0.12127,0.00000,0.03160,0.97502,-0.18971,0.0,2023,6,7,17,51,48,592
50.91300,0.22068,-0.14123,0.00000,0.03074,0.97576,-0.18800,0.0,2023,6,7,17,51,48,603
50.91310,0.02818,0.15627,0.00000,0.03135,0.97466,-0.18837,0.0,2023,6,7,17,51,48,614
50.91320,0.08068,-0.22873,0.00000,0.03001,0.97710,-0.18629,0.0,2023,6,7,17,51,48,625
50.91330,-0.09432,0.19127,0.00000,0.03245,0.97576,-0.18983,0.0,2023,6,7,17,51,48,636
50.91340,0.01068,-0.10623,0.00000,0.03074,0.97612,-0.18898,0.0,2023,6,7,17,51,48,647
50.91350,0.01068,-0.12373,0.00000,0.03099,0.97588,-0.18544,0.0,2023,6,7,17,51,48,658
50.91360,0.11568,-0.26373,0.00000,0.03087,0.97844,-0.18764,0.0,2023,6,7,17,51,48,669
50.91370,0.06318,0.13877,0.00000,0.03074,0.97734,-0.18727,0.0,2023,6,7,17,51,48,680
50.91380,-0.04182,-0.17623,0.00000,0.03099,0.97795,-0.18800,0.0,2023,6,7,17,51,48,692
50.91390,-0.04182,0.10377,0.00000,0.03050,0.97515,-0.18947,0.0,2023,6,7,17,51,48,703
50.91400,-0.04182,-0.07123,0.00000,0.03172,0.97368,-0.18837,0.0,2023,6,7,17,51,48,714
50.91410,-0.18182,0.05127,0.00000,0.03160,0.97612,-0.18788,0.0,2023,6,7,17,51,48,725
50.91420,-0.25182,-0.07123,0.00000,0.03038,0.97417,-0.18898,0.0,2023,6,7,17,51,48,736
50.91430,-0.07682,-0.01873,0.00000,0.03099,0.97685,-0.18934,0.0,2023,6,7,17,51,48,747
50.91440,0.06318,-0.12373,0.00000,0.02940,0.97771,-0.18678,0.0,2023,6,7,17,51,48,758
50.91450,-0.14682,0.12127,0.00000,0.02965,0.97344,-0.18837,0.0,2023,6,7,17,51,48,769
50.91460,-0.11182,0.20877,0.00000,0.03026,0.97746,-0.18764,0.0,2023,6,7,17,51,48,780
50.91470,-0.02432,-0.14123,0.00000,0.03050,0.97661,-0.18886,0.0,2023,6,7,17,51,48,792
50.91480,0.13318,0.03377,0.00000,0.03257,0.97698,-0.19081,0.0,2023,6,7,17,51,48,803
50.91490,0.18568,0.08627,0.00000,0.03160,0.97551,-0.19020,0.0,2023,6,7,17,51,48,814
50.91500,-0.07682,-0.19373,0.00000,0.03050,0.97685,-0.19093,0.0,2023,6,7,17,51,48,825
50.91510,0.11568,-0.05373,0.00000,0.03172,0.97966,-0.19117,0.0,2023,6,7,17,51,48,836
50.91520,0.04568,-0.35123,0.00000,0.02879,0.97624,-0.19203,0.0,2023,6,7,17,51,48,847
50.91530,0.15068,-0.00123,0.00000,0.02952,0.97771,-0.19178,0.0,2023,6,7,17,51,48,858
50.91540,0.04568,-0.05373,0.00000,0.03111,0.97661,-0.19081,0.0,2023,6,7,17,51,48,869
50.91550,0.09818,-0.01873,0.00000,0.03196,0.97698,-0.18532,0.0,2023,6,7,17,51,48,880
50.91560,0.11568,-0.17623,0.00000,0.03209,0.97820,-0.18849,0.0,2023,6,7,17,51,48,892
50.91570,0.04568,-0.17623,0.00000,0.03160,0.97734,-0.18849,0.0,2023,6,7,17,51,48,903
50.91580,-0.07682,0.13877,0.00000,0.03013,0.97710,-0.18934,0.0,2023,6,7,17,51,48,914
50.91590,-0.11182,-0.19373,0.00000,0.03026,0.97783,-0.18910,0.0,2023,6,7,17,51,48,925
50.91600,-0.12932,0.05127,0.00000,0.03001,0.97661,-0.18995,0.0,2023,6,7,17,51,48,936
50.91610,0.09818,0.01627,0.00000,0.03160,0.97783,-0.18983,0.0,2023,6,7,17,51,48,947
50.91620,0.09818,0.01627,0.00000,0.03050,0.97868,-0.18983,0.0,2023,6,7,17,51,48,958
50.91630,0.01068,-0.21123,0.00000,0.03123,0.97868,-0.19020,0.0,2023,6,7,17,51,48,969
50.91640,0.06318,0.15627,0.00000,0.02928,0.97490,-0.18837,0.0,2023,6,7,17,51,48,980
#2023/06/07 17:51:49
