#2023/06/07 13:58:27
time,wx,wy,wz,ax,ay,az,yy,MM,dd,hh,mm,ss,ms
40.29110,0.14647,0.02782,0.00000,0.03440,0.98076,-0.16275,0.0,2023,6,7,13,58,27,93
40.29120,-0.04603,-0.00717,0.00000,0.03257,0.98234,-0.16336,0.0,2023,6,7,13,58,27,103
40.29130,0.14647,-0.09467,0.00000,0.03318,0.98308,-0.16482,0.0,2023,6,7,13,58,27,113
40.29140,0.00647,0.06283,0.00000,0.03245,0.97917,-0.16153,0.0,2023,6,7,13,58,27,123
40.29150,0.09397,-0.05967,0.00000,0.03318,0.98356,-0.16055,0.0,2023,6,7,13,58,27,133
40.29160,0.05897,0.02782,0.00000,0.03257,0.97942,-0.16116,0.0,2023,6,7,13,58,27,143
40.29170,-0.09853,0.16783,0.00000,0.03489,0.98173,-0.16165,0.0,2023,6,7,13,58,27,153
40.29180,0.07647,-0.12967,0.00000,0.03050,0.98076,-0.16116,0.0,2023,6,7,13,58,27,163
40.29190,0.02397,0.08033,0.00000,0.03453,0.98112,-0.16421,0.0,2023,6,7,13,58,27,173
40.29200,-0.08103,0.02782,0.00000,0.03282,0.97990,-0.16214,0.0,2023,6,7,13,58,28,183
40.29210,0.11147,-0.11217,0.00000,0.03306,0.97917,-0.16104,0.0,2023,6,7,13,58,28,193
40.29220,0.07647,-0.05967,0.00000,0.03453,0.98222,-0.16092,0.0,2023,6,7,13,58,28,203
40.29230,0.02397,0.29033,0.00000,0.03636,0.98344,-0.16226,0.0,2023,6,7,13,58,28,213
40.29240,-0.04603,0.04533,0.00000,0.03318,0.98186,-0.16458,0.0,2023,6,7,13,58,28,223
40.29250,-0.08103,0.04533,0.00000,0.03526,0.98295,-0.16080,0.0,2023,6,7,13,58,28,233
40.29260,-0.08103,-0.18217,0.00000,0.03209,0.98064,-0.16238,0.0,2023,6,7,13,58,28,243
40.29270,0.05897,-0.02467,0.00000,0.03477,0.97954,-0.16421,0.0,2023,6,7,13,58,28,253
40.29280,-0.01103,-0.11217,0.00000,0.03526,0.98027,-0.15970,0.0,2023,6,7,13,58,28,263
40.29290,0.11147,-0.11217,0.00000,0.03233,0.98088,-0.16141,0.0,2023,6,7,13,58,28,273
40.29300,0.04147,-0.12967,0.00000,0.03331,0.98149,-0.15982,0.0,2023,6,7,13,58,28,283
40.29310,0.00647,-0.32217,0.00000,0.03062,0.98259,-0.16324,0.0,2023,6,7,13,58,28,293
40.29320,0.02397,0.06283,0.00000,0.03221,0.98271,-0.16141,0.0,2023,6,7,13,58,28,303
40.29330,-0.15103,0.06283,0.00000,0.03233,0.98356,-0.15994,0.0,2023,6,7,13,58,28,313
40.29340,-0.08103,0.01032,0.00000,0.03343,0.98222,-0.15994,0.0,2023,6,7,13,58,28,323
40.29350,0.16397,-0.26967,0.00000,0.03550,0.98283,-0.16263,0.0,2023,6,7,13,58,28,333
40.29360,0.02397,0.06283,0.00000,0.03111,0.98173,-0.16141,0.0,2023,6,7,13,58,28,343
40.29370,0.00647,-0.11217,0.00000,0.03196,0.98161,-0.16165,0.0,2023,6,7,13,58,28,353
40.29380,-0.06353,-0.05967,0.00000,0.03416,0.98247,-0.16275,0.0,2023,6,7,13,58,28,363
40.29390,-0.01103,-0.11217,0.00000,0.03514,0.97966,-0.16043,0.0,2023,6,7,13,58,28,373
40.29400,0.04147,-0.18217,0.00000,0.03477,0.98173,-0.16141,0.0,2023,6,7,13,58,28,383
40.29410,-0.11603,-0.05967,0.00000,0.03379,0.98039,-0.16092,0.0,2023,6,7,13,58,28,393
40.29420,-0.11603,-0.05967,0.00000,0.03306,0.98222,-0.16287,0.0,2023,6,7,13,58,28,403
40.29430,-0.01103,0.06283,0.00000,0.03209,0.98161,-0.16031,0.0,2023,6,7,13,58,28,413
40.29440,0.11147,-0.11217,0.00000,0.03404,0.98149,-0.15970,0.0,2023,6,7,13,58,28,423
40.29450,-0.01103,0.02782,0.00000,0.03343,0.98076,-0.16287,0.0,2023,6,7,13,58,28,433
40.29460,-0.04603,-0.07717,0.00000,0.03440,0.98369,-0.16336,0.0,2023,6,7,13,58,28,443
40.29470,-0.02853,0.02782,0.00000,0.03526,0.98210,-0.16385,0.0,2023,6,7,13,58,28,453
40.29480,-0.01103,0.08033,0.00000,0.03306,0.98039,-0.16275,0.0,2023,6,7,13,58,28,463
40.29490,0.02397,-0.02467,0.00000,0.03209,0.98088,-0.16214,0.0,2023,6,7,13,58,28,473
40.29500,-0.06353,-0.05967,0.00000,0.03343,0.98064,-0.16104,0.0,2023,6,7,13,58,28,483
40.29510,0.26897,0.04533,0.00000,0.03514,0.98125,-0.16238,0.0,2023,6,7,13,58,28,493
40.29520,0.16397,-0.09467,0.00000,0.03148,0.98332,-0.16019,0.0,2023,6,7,13,58,28,503
40.29530,-0.02853,-0.19968,0.00000,0.03453,0.98149,-0.16189,0.0,2023,6,7,13,58,28,513
40.29540,0.00647,-0.14717,0.00000,0.03160,0.98198,-0.15750,0.0,2023,6,7,13,58,28,523
40.29550,-0.01103,0.09783,0.00000,0.03282,0.98186,-0.16287,0.0,2023,6,7,13,58,28,533
40.29560,0.11147,0.01032,0.00000,0.03282,0.98088,-0.15933,0.0,2023,6,7,13,58,28,543
40.29570,-0.09853,-0.02467,0.00000,0.03221,0.98125,-0.16165,0.0,2023,6,7,13,58,28,553
40.29580,0.16397,-0.26967,0.00000,0.03404,0.98027,-0.16067,0.0,2023,6,7,13,58,28,563
40.29590,0.04147,0.06283,0.00000,0.03245,0.98332,-0.16165,0.0,2023,6,7,13,58,28,573
40.29600,0.19897,-0.16467,0.00000,0.03184,0.98076,-0.16397,0.0,2023,6,7,13,58,28,583
40.29610,-0.02853,0.08033,0.00000,0.03294,0.98173,-0.16202,0.0,2023,6,7,13,58,28,593
40.29620,-0.13353,0.13283,0.00000,0.03111,0.98295,-0.16043,0.0,2023,6,7,13,58,28,603
40.29630,0.16397,-0.14717,0.00000,0.03282,0.97905,-0.16104,0.0,2023,6,7,13,58,28,613
40.29640,-0.06353,0.09783,0.00000,0.03196,0.98015,-0.16141,0.0,2023,6,7,13,58,28,623
40.29650,0.00647,-0.14717,0.00000,0.03282,0.97942,-0.16141,0.0,2023,6,7,13,58,28,633
40.29660,0.00647,0.16783,0.00000,0.03355,0.98088,-0.16299,0.0,2023,6,7,13,58,28,643
40.29670,-0.04603,-0.02467,0.00000,0.03392,0.98234,-0.16006,0.0,2023,6,7,13,58,28,653
40.29680,-0.08103,-0.11217,0.00000,0.03331,0.98039,-0.16006,0.0,2023,6,7,13,58,28,663
40.29690,0.07647,0.09783,0.00000,0.03477,0.98259,-0.16214,0.0,2023,6,7,13,58,28,673
40.29700,0.02397,0.09783,0.00000,0.03428,0.98222,-0.15982,0.0,2023,6,7,13,58,28,683
40.29710,0.07647,-0.09467,0.00000,0.03282,0.98393,-0.15933,0.0,2023,6,7,13,58,28,693
40.29720,-0.08103,0.02782,0.00000,0.03172,0.98198,-0.16177,0.0,2023,6,7,13,58,28,703
40.29730,0.00647,-0.11217,0.00000,0.03501,0.98283,-0.16336,0.0,2023,6,7,13,58,28,713
40.29740,0.04147,0.01032,0.00000,0.03318,0.98051,-0.16263,0.0,2023,6,7,13,58,28,723
40.29750,0.09397,-0.16467,0.00000,0.03453,0.98125,-0.16263,0.0,2023,6,7,13,58,28,733
40.29760,-0.06353,-0.11217,0.00000,0.03453,0.98003,-0.16226,0.0,2023,6,7,13,58,28,743
40.29770,0.07647,-0.18217,0.00000,0.03294,0.98064,-0.16275,0.0,2023,6,7,13,58,28,753
40.29780,0.21647,-0.11217,0.00000,0.03538,0.97868,-0.16080,0.0,2023,6,7,13,58,28,763
40.29790,0.00647,-0.04217,0.00000,0.03404,0.98161,-0.16409,0.0,2023,6,7,13,58,28,773
40.29800,-0.15103,-0.02467,0.00000,0.03404,0.98259,-0.16214,0.0,2023,6,7,13,58,28,783
40.29810,-0.11603,-0.14717,0.00000,0.03148,0.98186,-0.16189,0.0,2023,6,7,13,58,28,793
40.29820,0.00647,0.11533,0.00000,0.03331,0.98271,-0.16080,0.0,2023,6,7,13,58,28,803
40.29830,-0.09853,-0.26967,0.00000,0.03440,0.97990,-0.15994,0.0,2023,6,7,13,58,28,813
40.29840,0.12897,-0.19968,0.00000,0.03428,0.98149,-0.16080,0.0,2023,6,7,13,58,28,823
40.29850,0.07647,0.11533,0.00000,0.03367,0.98222,-0.16104,0.0,2023,6,7,13,58,28,833
40.29860,-0.01103,-0.02467,0.00000,0.03636,0.98173,-0.16287,0.0,2023,6,7,13,58,28,843
40.29870,-0.18603,-0.04217,0.00000,0.03270,0.98259,-0.16080,0.0,2023,6,7,13,58,28,853
40.29880,-0.09853,-0.11217,0.00000,0.03489,0.97954,-0.16116,0.0,2023,6,7,13,58,28,863
40.29890,-0.11603,0.09783,0.00000,0.03306,0.98186,-0.15994,0.0,2023,6,7,13,58,28,873
40.29900,0.07647,-0.04217,0.00000,0.03172,0.98027,-0.16153,0.0,2023,6,7,13,58,28,883
40.29910,-0.01103,-0.11217,0.00000,0.03209,0.98149,-0.16214,0.0,2023,6,7,13,58,28,893
40.29920,-0.11603,-0.18217,0.00000,0.03099,0.98320,-0.15909,0.0,2023,6,7,13,58,28,903
40.29930,0.02397,-0.05967,0.00000,0.03221,0.98198,-0.16250,0.0,2023,6,7,13,58,28,913
40.29940,0.07647,0.02782,0.00000,0.03562,0.98112,-0.16141,0.0,2023,6,7,13,58,28,923
40.29950,0.12897,-0.02467,0.00000,0.03294,0.98417,-0.16153,0.0,2023,6,7,13,58,28,933
40.29960,0.02397,-0.18217,0.00000,0.03099,0.98137,-0.16141,0.0,2023,6,7,13,58,28,943
40.29970,-0.02853,-0.25217,0.00000,0.03270,0.98222,-0.16177,0.0,2023,6,7,13,58,28,953
40.29980,-0.02853,0.04533,0.00000,0.03172,0.98344,-0.16385,0.0,2023,6,7,13,58,28,963
40.29990,-0.04603,0.04533,0.00000,0.03087,0.98271,-0.16250,0.0,2023,6,7,13,58,28,973
40.30000,0.21647,0.11533,0.00000,0.03282,0.98186,-0.16385,0.0,2023,6,7,13,58,28,983
40.30010,-0.09853,-0.14717,0.00000,0.03135,0.98198,-0.16214,0.0,2023,6,7,13,58,28,993
40.30020,0.05897,0.08033,0.00000,0.03367,0.98112,-0.16263,0.0,2023,6,7,13,58,28,3
40.30030,0.07647,0.23782,0.00000,0.03282,0.97881,-0.16250,0.0,2023,6,7,13,58,28,13
40.30040,0.05897,-0.09467,0.00000,0.03221,0.98344,-0.16348,0.0,2023,6,7,13,58,28,23
40.30050,0.05897,-0.19968,0.00000,0.03416,0.98039,-0.15848,0.0,2023,6,7,13,58,28,33
40.30060,0.02397,0.04533,0.00000,0.03343,0.98027,-0.16385,0.0,2023,6,7,13,58,28,43
40.30070,0.16397,-0.05967,0.00000,0.03184,0.98100,-0.16299,0.0,2023,6,7,13,58,28,53
40.30080,0.07647,0.09783,0.00000,0.03367,0.97942,-0.15958,0.0,2023,6,7,13,58,28,63
40.30090,-0.11603,0.22032,0.00000,0.03379,0.98076,-0.16214,0.0,2023,6,7,13,58,29,73
40.30100,-0.18603,-0.04217,0.00000,0.03111,0.98198,-0.16019,0.0,2023,6,7,13,58,29,83
40.30110,0.05897,-0.07717,0.00000,0.03306,0.98356,-0.16067,0.0,2023,6,7,13,58,29,93
40.30120,0.12897,0.09783,0.00000,0.03404,0.98064,-0.16092,0.0,2023,6,7,13,58,29,103
40.30130,-0.08103,0.02782,0.00000,0.03477,0.98198,-0.16397,0.0,2023,6,7,13,58,29,113
40.30140,-0.13353,-0.16467,0.00000,0.03428,0.98039,-0.16031,0.0,2023,6,7,13,58,29,123
40.30150,0.12897,-0.04217,0.00000,0.03392,0.98259,-0.16104,0.0,2023,6,7,13,58,29,133
40.30160,0.00647,-0.14717,0.00000,0.03221,0.98234,-0.16287,0.0,2023,6,7,13,58,29,143
40.30170,-0.01103,0.15033,0.00000,0.03343,0.98015,-0.15958,0.0,2023,6,7,13,58,29,153
40.30180,-0.04603,0.04533,0.00000,0.03306,0.97954,-0.16214,0.0,2023,6,7,13,58,29,163
40.30190,-0.06353,-0.07717,0.00000,0.03184,0.98100,-0.16202,0.0,2023,6,7,13,58,29,173
40.30200,-0.01103,-0.07717,0.00000,0.03453,0.98283,-0.16189,0.0,2023,6,7,13,58,29,183
40.30210,-0.13353,0.22032,0.00000,0.03270,0.98283,-0.16080,0.0,2023,6,7,13,58,29,193
40.30220,-0.16853,0.04533,0.00000,0.03111,0.98051,-0.16116,0.0,2023,6,7,13,58,29,203
40.30230,0.00647,-0.05967,0.00000,0.03428,0.98100,-0.16385,0.0,2023,6,7,13,58,29,213
40.30240,0.16397,0.08033,0.00000,0.03440,0.98234,-0.16263,0.0,2023,6,7,13,58,29,223
40.30250,0.00647,-0.21718,0.00000,0.03318,0.98320,-0.16153,0.0,2023,6,7,13,58,29,233
40.30260,0.04147,-0.04217,0.00000,0.03245,0.98161,-0.16385,0.0,2023,6,7,13,58,29,243
40.30270,0.18147,-0.19968,0.00000,0.03270,0.98149,-0.16348,0.0,2023,6,7,13,58,29,253
40.30280,0.05897,-0.11217,0.00000,0.03379,0.98088,-0.16153,0.0,2023,6,7,13,58,29,263
40.30290,0.11147,-0.09467,0.00000,0.03257,0.97929,-0.15994,0.0,2023,6,7,13,58,29,273
40.30300,-0.02853,-0.02467,0.00000,0.03306,0.98259,-0.16214,0.0,2023,6,7,13,58,29,283
40.30310,0.11147,-0.35717,0.00000,0.03428,0.98149,-0.16189,0.0,2023,6,7,13,58,29,293
40.30320,0.05897,0.04533,0.00000,0.03270,0.98125,-0.16433,0.0,2023,6,7,13,58,29,303
40.30330,-0.08103,-0.12967,0.00000,0.03160,0.98112,-0.16397,0.0,2023,6,7,13,58,29,313
40.30340,-0.09853,-0.04217,0.00000,0.03367,0.98161,-0.16348,0.0,2023,6,7,13,58,29,323
40.30350,-0.06353,0.13283,0.00000,0.03392,0.98381,-0.16616,0.0,2023,6,7,13,58,29,333
40.30360,-0.15103,0.09783,0.00000,0.03294,0.97942,-0.16189,0.0,2023,6,7,13,58,29,343
40.30370,-0.08103,-0.05967,0.00000,0.03257,0.98100,-0.16226,0.0,2023,6,7,13,58,29,353
40.30380,0.19897,0.25533,0.00000,0.03270,0.98125,-0.16238,0.0,2023,6,7,13,58,29,363
40.30390,0.11147,-0.09467,0.00000,0.03367,0.98271,-0.16006,0.0,2023,6,7,13,58,29,373
40.30400,-0.02853,-0.00717,0.00000,0.03331,0.98027,-0.16202,0.0,2023,6,7,13,58,29,383
40.30410,-0.11603,-0.05967,0.00000,0.03233,0.98100,-0.16092,0.0,2023,6,7,13,58,29,393
40.30420,-0.08103,0.08033,0.00000,0.03148,0.98039,-0.16336,0.0,2023,6,7,13,58,29,403
40.30430,-0.09853,-0.12967,0.00000,0.03233,0.97868,-0.16031,0.0,2023,6,7,13,58,29,413
40.30440,-0.01103,0.04533,0.00000,0.03306,0.97978,-0.16189,0.0,2023,6,7,13,58,29,423
40.30450,-0.09853,0.09783,0.00000,0.03233,0.98186,-0.16250,0.0,2023,6,7,13,58,29,433
40.30460,0.02397,-0.11217,0.00000,0.03331,0.98076,-0.16250,0.0,2023,6,7,13,58,29,443
40.30470,-0.02853,0.29033,0.00000,0.03587,0.98149,-0.16104,0.0,2023,6,7,13,58,29,453
40.30480,0.04147,0.04533,0.00000,0.03270,0.98064,-0.15958,0.0,2023,6,7,13,58,29,463
40.30490,0.00647,0.01032,0.00000,0.03111,0.98320,-0.16226,0.0,2023,6,7,13,58,29,473
40.30500,0.09397,0.25533,0.00000,0.03099,0.98088,-0.16324,0.0,2023,6,7,13,58,29,483
40.30510,-0.02853,0.08033,0.00000,0.03062,0.98198,-0.16275,0.0,2023,6,7,13,58,29,493
40.30520,0.07647,0.02782,0.00000,0.03160,0.98186,-0.16202,0.0,2023,6,7,13,58,29,503
40.30530,-0.01103,0.01032,0.00000,0.03379,0.98088,-0.16324,0.0,2023,6,7,13,58,29,513
40.30540,-0.02853,-0.09467,0.00000,0.03245,0.98064,-0.16336,0.0,2023,6,7,13,58,29,523
40.30550,0.04147,-0.02467,0.00000,0.03440,0.98222,-0.16104,0.0,2023,6,7,13,58,29,533
40.30560,0.16397,-0.14717,0.00000,0.03111,0.97966,-0.16226,0.0,2023,6,7,13,58,29,543
40.30570,-0.08103,-0.14717,0.00000,0.03160,0.98381,-0.16311,0.0,2023,6,7,13,58,29,553
40.30580,0.00647,-0.04217,0.00000,0.03233,0.98112,-0.16055,0.0,2023,6,7,13,58,29,563
40.30590,-0.11603,-0.12967,0.00000,0.03257,0.98149,-0.16372,0.0,2023,6,7,13,58,29,573
40.30600,-0.04603,-0.18217,0.00000,0.03379,0.98320,-0.16397,0.0,2023,6,7,13,58,29,583
40.30610,-0.13353,-0.05967,0.00000,0.03221,0.98100,-0.16263,0.0,2023,6,7,13,58,29,593
40.30620,-0.16853,0.06283,0.00000,0.03245,0.98088,-0.16092,0.0,2023,6,7,13,58,29,603
40.30630,0.04147,-0.14717,0.00000,0.03392,0.98076,-0.16263,0.0,2023,6,7,13,58,29,613
40.30640,-0.11603,-0.09467,0.00000,0.03440,0.98222,-0.16409,0.0,2023,6,7,13,58,29,623
40.30650,0.19897,-0.02467,0.00000,0.03209,0.98344,-0.16397,0.0,2023,6,7,13,58,29,633
40.30660,0.04147,-0.05967,0.00000,0.03318,0.98186,-0.16433,0.0,2023,6,7,13,58,29,643
40.30670,-0.09853,-0.09467,0.00000,0.03135,0.98234,-0.16104,0.0,2023,6,7,13,58,29,653
40.30680,0.16397,-0.14717,0.00000,0.03245,0.97954,-0.16116,0.0,2023,6,7,13,58,29,663
40.30690,0.16397,-0.00717,0.00000,0.03550,0.98125,-0.16311,0.0,2023,6,7,13,58,29,673
40.30700,-0.09853,0.06283,0.00000,0.03392,0.98039,-0.16482,0.0,2023,6,7,13,58,29,683
40.30710,-0.11603,0.29033,0.00000,0.03111,0.98247,-0.16177,0.0,2023,6,7,13,58,29,693
40.30720,-0.06353,-0.07717,0.00000,0.03087,0.98332,-0.16019,0.0,2023,6,7,13,58,29,703
40.30730,0.05897,0.04533,0.00000,0.03514,0.97966,-0.16043,0.0,2023,6,7,13,58,29,713
40.30740,-0.15103,0.11533,0.00000,0.03196,0.97978,-0.15714,0.0,2023,6,7,13,58,29,723
40.30750,-0.16853,-0.12967,0.00000,0.03343,0.98234,-0.16360,0.0,2023,6,7,13,58,29,733
40.30760,0.04147,0.04533,0.00000,0.03331,0.98222,-0.16409,0.0,2023,6,7,13,58,29,743
40.30770,0.00647,0.02782,0.00000,0.03489,0.97942,-0.16226,0.0,2023,6,7,13,58,29,753
40.30780,0.04147,-0.16467,0.00000,0.03416,0.97929,-0.16031,0.0,2023,6,7,13,58,29,763
40.30790,0.05897,-0.04217,0.00000,0.03428,0.98210,-0.16092,0.0,2023,6,7,13,58,29,773
40.30800,-0.09853,-0.09467,0.00000,0.03233,0.98064,-0.15945,0.0,2023,6,7,13,58,29,783
40.30810,-0.09853,0.06283,0.00000,0.03099,0.98064,-0.16324,0.0,2023,6,7,13,58,29,793
40.30820,-0.13353,0.04533,0.00000,0.03233,0.98076,-0.16153,0.0,2023,6,7,13,58,29,803
40.30830,-0.04603,0.15033,0.00000,0.03404,0.98442,-0.16202,0.0,2023,6,7,13,58,29,813
40.30840,0.05897,0.08033,0.00000,0.03245,0.98247,-0.16433,0.0,2023,6,7,13,58,29,823
40.30850,-0.04603,0.01032,0.00000,0.03501,0.98112,-0.16104,0.0,2023,6,7,13,58,29,833
40.30860,-0.02853,-0.11217,0.00000,0.03440,0.98161,-0.16385,0.0,2023,6,7,13,58,29,843
40.30870,0.30397,-0.19968,0.00000,0.03477,0.98198,-0.16385,0.0,2023,6,7,13,58,29,853
40.30880,0.05897,-0.00717,0.00000,0.03172,0.97905,-0.15848,0.0,2023,6,7,13,58,29,863
40.30890,0.07647,-0.00717,0.00000,0.03416,0.98283,-0.16275,0.0,2023,6,7,13,58,29,873
40.30900,-0.06353,0.15033,0.00000,0.03343,0.97966,-0.16202,0.0,2023,6,7,13,58,29,883
40.30910,-0.02853,0.18533,0.00000,0.03367,0.98149,-0.16397,0.0,2023,6,7,13,58,29,893
40.30920,0.09397,-0.12967,0.00000,0.03355,0.98247,-0.16287,0.0,2023,6,7,13,58,29,903
40.30930,-0.09853,0.11533,0.00000,0.03453,0.98125,-0.16080,0.0,2023,6,7,13,58,29,913
40.30940,-0.13353,0.06283,0.00000,0.03392,0.98161,-0.16250,0.0,2023,6,7,13,58,29,923
40.30950,0.23397,-0.07717,0.00000,0.03294,0.98161,-0.16299,0.0,2023,6,7,13,58,29,933
40.30960,-0.01103,-0.02467,0.00000,0.03440,0.98137,-0.16324,0.0,2023,6,7,13,58,29,943
40.30970,-0.02853,-0.07717,0.00000,0.03245,0.98027,-0.16250,0.0,2023,6,7,13,58,29,953
40.30980,0.00647,0.08033,0.00000,0.03099,0.98308,-0.16226,0.0,2023,6,7,13,58,29,963
40.30990,0.14647,-0.07717,0.00000,0.03355,0.98186,-0.16336,0.0,2023,6,7,13,58,30,973
40.31000,0.00647,0.16783,0.00000,0.03160,0.98247,-0.16299,0.0,2023,6,7,13,58,30,983
40.31010,0.07647,-0.00717,0.00000,0.03318,0.97990,-0.16104,0.0,2023,6,7,13,58,30,993
40.31020,0.05897,0.02782,0.00000,0.03379,0.98503,-0.16372,0.0,2023,6,7,13,58,30,3
40.31030,-0.18603,0.09783,0.00000,0.03428,0.98332,-0.16287,0.0,2023,6,7,13,58,30,13
40.31040,0.05897,0.04533,0.00000,0.03111,0.98088,-0.16104,0.0,2023,6,7,13,58,30,23
40.31050,0.07647,-0.07717,0.00000,0.02977,0.98076,-0.16226,0.0,2023,6,7,13,58,30,33
40.31060,-0.08103,-0.04217,0.00000,0.03538,0.98015,-0.16006,0.0,2023,6,7,13,58,30,43
40.31070,0.09397,-0.05967,0.00000,0.03428,0.98234,-0.16250,0.0,2023,6,7,13,58,30,53
40.31080,0.04147,-0.04217,0.00000,0.03221,0.98137,-0.16104,0.0,2023,6,7,13,58,30,63
40.31090,0.18147,-0.05967,0.00000,0.03538,0.98234,-0.16458,0.0,2023,6,7,13,58,30,73
40.31100,-0.16853,0.25533,0.00000,0.03135,0.98222,-0.15982,0.0,2023,6,7,13,58,30,83
40.31110,0.11147,0.04533,0.00000,0.03123,0.98137,-0.16104,0.0,2023,6,7,13,58,30,93
40.31120,-0.02853,-0.02467,0.00000,0.03343,0.98186,-0.16128,0.0,2023,6,7,13,58,30,103
40.31130,0.02397,-0.05967,0.00000,0.03282,0.98076,-0.16409,0.0,2023,6,7,13,58,30,113
40.31140,-0.09853,0.11533,0.00000,0.03343,0.98198,-0.16080,0.0,2023,6,7,13,58,30,123
40.31150,-0.30853,0.11533,0.00000,0.03392,0.98381,-0.16202,0.0,2023,6,7,13,58,30,133
40.31160,0.02397,0.04533,0.00000,0.03221,0.98064,-0.16067,0.0,2023,6,7,13,58,30,143
40.31170,-0.15103,0.15033,0.00000,0.03233,0.97942,-0.16311,0.0,2023,6,7,13,58,30,153
40.31180,-0.16853,-0.04217,0.00000,0.03221,0.98027,-0.15823,0.0,2023,6,7,13,58,30,163
40.31190,-0.25603,-0.00717,0.00000,0.03001,0.98295,-0.15970,0.0,2023,6,7,13,58,30,173
40.31200,0.12897,0.16783,0.00000,0.03404,0.98198,-0.16275,0.0,2023,6,7,13,58,30,183
40.31210,0.02397,-0.02467,0.00000,0.03196,0.98356,-0.16433,0.0,2023,6,7,13,58,30,193
40.31220,0.02397,0.02782,0.00000,0.03294,0.98015,-0.16287,0.0,2023,6,7,13,58,30,203
40.31230,-0.13353,-0.05967,0.00000,0.03575,0.98198,-0.16165,0.0,2023,6,7,13,58,30,213
40.31240,-0.02853,-0.05967,0.00000,0.03331,0.97893,-0.16202,0.0,2023,6,7,13,58,30,223
40.31250,-0.15103,-0.07717,0.00000,0.03318,0.98198,-0.16677,0.0,2023,6,7,13,58,30,233
40.31260,-0.13353,-0.05967,0.00000,0.03257,0.98173,-0.15909,0.0,2023,6,7,13,58,30,243
40.31270,0.07647,0.18533,0.00000,0.03050,0.98283,-0.16080,0.0,2023,6,7,13,58,30,253
40.31280,-0.06353,0.08033,0.00000,0.03099,0.98320,-0.15982,0.0,2023,6,7,13,58,30,263
40.31290,0.00647,-0.05967,0.00000,0.03111,0.98161,-0.16311,0.0,2023,6,7,13,58,30,273
40.31300,-0.15103,0.16783,0.00000,0.03440,0.98076,-0.16177,0.0,2023,6,7,13,58,30,283
40.31310,-0.04603,-0.28717,0.00000,0.03318,0.98222,-0.16421,0.0,2023,6,7,13,58,30,293
40.31320,0.00647,0.08033,0.00000,0.03416,0.97868,-0.16177,0.0,2023,6,7,13,58,30,303
40.31330,-0.09853,0.04533,0.00000,0.03160,0.97820,-0.15921,0.0,2023,6,7,13,58,30,313
40.31340,-0.04603,-0.07717,0.00000,0.03477,0.98088,-0.16128,0.0,2023,6,7,13,58,30,323
40.31350,0.25147,-0.26967,0.00000,0.03331,0.98283,-0.16153,0.0,2023,6,7,13,58,30,333
40.31360,0.14647,-0.09467,0.00000,0.03001,0.98344,-0.15933,0.0,2023,6,7,13,58,30,343
40.31370,0.23397,-0.26967,0.00000,0.03282,0.97966,-0.15909,0.0,2023,6,7,13,58,30,353
40.31380,-0.18603,0.18533,0.00000,0.03514,0.97954,-0.16226,0.0,2023,6,7,13,58,30,363
40.31390,-0.09853,0.08033,0.00000,0.03428,0.98064,-0.16214,0.0,2023,6,7,13,58,30,373
40.31400,0.09397,-0.18217,0.00000,0.03331,0.98503,-0.15750,0.0,2023,6,7,13,58,30,383
40.31410,0.18147,-0.02467,0.00000,0.03392,0.98417,-0.16226,0.0,2023,6,7,13,58,30,393
40.31420,-0.22103,-0.00717,0.00000,0.03209,0.97990,-0.16128,0.0,2023,6,7,13,58,30,403
40.31430,-0.11603,-0.05967,0.00000,0.03172,0.98003,-0.15897,0.0,2023,6,7,13,58,30,413
40.31440,-0.06353,-0.14717,0.00000,0.03257,0.98161,-0.15775,0.0,2023,6,7,13,58,30,423
40.31450,-0.06353,0.02782,0.00000,0.03245,0.98539,-0.16092,0.0,2023,6,7,13,58,30,433
40.31460,-0.02853,-0.14717,0.00000,0.03282,0.98295,-0.16202,0.0,2023,6,7,13,58,30,443
40.31470,0.04147,0.04533,0.00000,0.03282,0.98039,-0.15994,0.0,2023,6,7,13,58,30,453
40.31480,-0.02853,-0.05967,0.00000,0.03355,0.98125,-0.16165,0.0,2023,6,7,13,58,30,463
40.31490,0.00647,0.08033,0.00000,0.03501,0.98100,-0.16116,0.0,2023,6,7,13,58,30,473
40.31500,-0.06353,-0.19968,0.00000,0.03209,0.98186,-0.16275,0.0,2023,6,7,13,58,30,483
40.31510,-0.01103,-0.05967,0.00000,0.03196,0.98198,-0.16128,0.0,2023,6,7,13,58,30,493
40.31520,0.07647,-0.18217,0.00000,0.03440,0.98198,-0.16238,0.0,2023,6,7,13,58,30,503
40.31530,0.02397,0.01032,0.00000,0.03294,0.98112,-0.16397,0.0,2023,6,7,13,58,30,513
40.31540,-0.01103,-0.14717,0.00000,0.03221,0.98283,-0.15884,0.0,2023,6,7,13,58,30,523
40.31550,0.11147,-0.11217,0.00000,0.03282,0.97917,-0.16043,0.0,2023,6,7,13,58,30,533
40.31560,0.09397,-0.09467,0.00000,0.03294,0.98259,-0.16238,0.0,2023,6,7,13,58,30,543
40.31570,0.04147,-0.02467,0.00000,0.03343,0.98027,-0.16141,0.0,2023,6,7,13,58,30,553
40.31580,-0.02853,-0.07717,0.00000,0.03282,0.98051,-0.16104,0.0,2023,6,7,13,58,30,563
40.31590,-0.02853,0.02782,0.00000,0.03343,0.98198,-0.16202,0.0,2023,6,7,13,58,30,573
40.31600,0.05897,0.01032,0.00000,0.03306,0.98161,-0.16385,0.0,2023,6,7,13,58,30,583
40.31610,0.21647,-0.21718,0.00000,0.03392,0.98173,-0.16128,0.0,2023,6,7,13,58,30,593
40.31620,0.11147,-0.21718,0.00000,0.03416,0.98271,-0.16141,0.0,2023,6,7,13,58,30,603
40.31630,0.04147,-0.16467,0.00000,0.03245,0.98295,-0.16238,0.0,2023,6,7,13,58,30,613
40.31640,0.00647,0.13283,0.00000,0.03123,0.98222,-0.16031,0.0,2023,6,7,13,58,30,623
40.31650,-0.06353,0.08033,0.00000,0.03172,0.98356,-0.16141,0.0,2023,6,7,13,58,30,633
40.31660,0.02397,-0.02467,0.00000,0.03099,0.98173,-0.16482,0.0,2023,6,7,13,58,30,643
40.31670,0.12897,-0.02467,0.00000,0.03501,0.98076,-0.16141,0.0,2023,6,7,13,58,30,653
40.31680,-0.08103,-0.07717,0.00000,0.03135,0.98271,-0.16043,0.0,2023,6,7,13,58,30,663
40.31690,0.02397,-0.14717,0.00000,0.03306,0.98308,-0.16226,0.0,2023,6,7,13,58,30,673
40.31700,0.12897,-0.25217,0.00000,0.03270,0.97929,-0.16177,0.0,2023,6,7,13,58,30,683
40.31710,0.02397,0.06283,0.00000,0.03074,0.98308,-0.15860,0.0,2023,6,7,13,58,30,693
40.31720,0.02397,-0.39217,0.00000,0.03221,0.98039,-0.16311,0.0,2023,6,7,13,58,30,703
40.31730,0.23397,0.01032,0.00000,0.03526,0.97929,-0.16104,0.0,2023,6,7,13,58,30,713
40.31740,0.16397,0.04533,0.00000,0.03148,0.98405,-0.15982,0.0,2023,6,7,13,58,30,723
40.31750,-0.16853,-0.16467,0.00000,0.03221,0.98173,-0.16189,0.0,2023,6,7,13,58,30,733
40.31760,-0.09853,0.20283,0.00000,0.03270,0.98320,-0.16214,0.0,2023,6,7,13,58,30,743
40.31770,0.04147,-0.21718,0.00000,0.03343,0.97978,-0.16226,0.0,2023,6,7,13,58,30,753
40.31780,-0.01103,0.09783,0.00000,0.03392,0.98039,-0.16080,0.0,2023,6,7,13,58,30,763
40.31790,0.02397,0.01032,0.00000,0.03282,0.97942,-0.15872,0.0,2023,6,7,13,58,30,773
40.31800,-0.15103,0.02782,0.00000,0.03331,0.98039,-0.15933,0.0,2023,6,7,13,58,30,783
40.31810,0.11147,-0.14717,0.00000,0.03245,0.98161,-0.15958,0.0,2023,6,7,13,58,30,793
40.31820,0.14647,-0.07717,0.00000,0.03270,0.98064,-0.16141,0.0,2023,6,7,13,58,30,803
40.31830,-0.20353,-0.00717,0.00000,0.03123,0.98259,-0.16043,0.0,2023,6,7,13,58,30,813
40.31840,0.14647,0.02782,0.00000,0.03270,0.98259,-0.16226,0.0,2023,6,7,13,58,30,823
40.31850,0.09397,-0.11217,0.00000,0.03404,0.98051,-0.16104,0.0,2023,6,7,13,58,30,833
40.31860,-0.13353,-0.04217,0.00000,0.03416,0.98088,-0.16177,0.0,2023,6,7,13,58,30,843
40.31870,0.14647,-0.07717,0.00000,0.03148,0.98405,-0.16299,0.0,2023,6,7,13,58,30,853
40.31880,-0.06353,0.13283,0.00000,0.03465,0.98112,-0.16104,0.0,2023,6,7,13,58,31,863
40.31890,0.00647,0.15033,0.00000,0.03331,0.97990,-0.16128,0.0,2023,6,7,13,58,31,873
40.31900,0.00647,-0.02467,0.00000,0.03282,0.98222,-0.16275,0.0,2023,6,7,13,58,31,883
40.31910,0.02397,-0.00717,0.00000,0.03306,0.98149,-0.16104,0.0,2023,6,7,13,58,31,893
40.31920,0.02397,0.06283,0.00000,0.03392,0.98320,-0.15970,0.0,2023,6,7,13,58,31,903
40.31930,0.04147,0.06283,0.00000,0.03514,0.98332,-0.16141,0.0,2023,6,7,13,58,31,913
40.31940,-0.04603,0.08033,0.00000,0.03465,0.98137,-0.16238,0.0,2023,6,7,13,58,31,923
40.31950,0.00647,-0.11217,0.00000,0.03306,0.97856,-0.16226,0.0,2023,6,7,13,58,31,933
40.31960,-0.08103,-0.26967,0.00000,0.03367,0.98259,-0.16116,0.0,2023,6,7,13,58,31,943
40.31970,-0.06353,-0.02467,0.00000,0.03331,0.98234,-0.16324,0.0,2023,6,7,13,58,31,953
40.31980,0.09397,0.20283,0.00000,0.03111,0.98125,-0.15945,0.0,2023,6,7,13,58,31,963
40.31990,-0.02853,0.01032,0.00000,0.03428,0.98198,-0.16250,0.0,2023,6,7,13,58,31,973
40.32000,0.09397,0.02782,0.00000,0.03392,0.98430,-0.16238,0.0,2023,6,7,13,58,31,983
40.32010,0.00647,0.34283,0.00000,0.03245,0.98051,-0.16055,0.0,2023,6,7,13,58,31,993
40.32020,0.14647,-0.00717,0.00000,0.03026,0.98064,-0.16043,0.0,2023,6,7,13,58,31,3
40.32030,0.09397,-0.02467,0.00000,0.03331,0.98186,-0.16153,0.0,2023,6,7,13,58,31,13
40.32040,0.12897,-0.04217,0.00000,0.03392,0.98198,-0.16348,0.0,2023,6,7,13,58,31,23
40.32050,0.05897,-0.23467,0.00000,0.03270,0.98064,-0.16177,0.0,2023,6,7,13,58,31,33
40.32060,0.07647,-0.14717,0.00000,0.03343,0.98247,-0.16226,0.0,2023,6,7,13,58,31,43
40.32070,-0.09853,-0.02467,0.00000,0.03221,0.98088,-0.16177,0.0,2023,6,7,13,58,31,53
40.32080,0.04147,0.22032,0.00000,0.03331,0.98137,-0.15958,0.0,2023,6,7,13,58,31,63
40.32090,0.05897,-0.02467,0.00000,0.03282,0.98173,-0.16165,0.0,2023,6,7,13,58,31,73
40.32100,0.04147,0.02782,0.00000,0.03257,0.97966,-0.15872,0.0,2023,6,7,13,58,31,83
40.32110,0.05897,-0.09467,0.00000,0.03245,0.98344,-0.16080,0.0,2023,6,7,13,58,31,93
40.32120,0.19897,-0.05967,0.00000,0.03428,0.98186,-0.16006,0.0,2023,6,7,13,58,31,103
40.32130,-0.11603,-0.05967,0.00000,0.03184,0.98088,-0.15909,0.0,2023,6,7,13,58,31,113
40.32140,0.00647,0.13283,0.00000,0.03672,0.98466,-0.16128,0.0,2023,6,7,13,58,31,123
40.32150,0.00647,0.02782,0.00000,0.03489,0.97978,-0.16104,0.0,2023,6,7,13,58,31,133
40.32160,0.11147,-0.19968,0.00000,0.03245,0.97917,-0.16128,0.0,2023,6,7,13,58,31,143
40.32170,-0.04603,0.25533,0.00000,0.03074,0.98308,-0.15897,0.0,2023,6,7,13,58,31,153
40.32180,0.11147,-0.19968,0.00000,0.03318,0.98027,-0.16214,0.0,2023,6,7,13,58,31,163
40.32190,-0.09853,0.01032,0.00000,0.03404,0.98247,-0.16019,0.0,2023,6,7,13,58,31,173
40.32200,0.04147,-0.09467,0.00000,0.03074,0.98295,-0.16116,0.0,2023,6,7,13,58,31,183
40.32210,0.00647,-0.07717,0.00000,0.03160,0.98186,-0.16397,0.0,2023,6,7,13,58,31,193
40.32220,-0.04603,0.01032,0.00000,0.03196,0.98161,-0.16202,0.0,2023,6,7,13,58,31,203
40.32230,-0.18603,0.06283,0.00000,0.03294,0.98125,-0.16080,0.0,2023,6,7,13,58,31,213
40.32240,-0.16853,-0.02467,0.00000,0.03367,0.98076,-0.16043,0.0,2023,6,7,13,58,31,223
40.32250,-0.06353,0.06283,0.00000,0.03257,0.97978,-0.16031,0.0,2023,6,7,13,58,31,233
40.32260,0.00647,-0.05967,0.00000,0.03453,0.98271,-0.15836,0.0,2023,6,7,13,58,31,243
40.32270,0.00647,-0.07717,0.00000,0.03196,0.97942,-0.16238,0.0,2023,6,7,13,58,31,253
40.32280,0.02397,0.02782,0.00000,0.03331,0.98112,-0.16226,0.0,2023,6,7,13,58,31,263
40.32290,-0.01103,0.06283,0.00000,0.03270,0.97966,-0.15823,0.0,2023,6,7,13,58,31,273
40.32300,-0.06353,-0.21718,0.00000,0.03184,0.98320,-0.15933,0.0,2023,6,7,13,58,31,283
40.32310,0.09397,-0.11217,0.00000,0.03416,0.98161,-0.15750,0.0,2023,6,7,13,58,31,293
40.32320,0.02397,0.15033,0.00000,0.03221,0.98039,-0.16080,0.0,2023,6,7,13,58,31,303
40.32330,0.11147,0.13283,0.00000,0.03074,0.98088,-0.16019,0.0,2023,6,7,13,58,31,313
40.32340,0.02397,0.15033,0.00000,0.03172,0.98320,-0.16104,0.0,2023,6,7,13,58,31,323
40.32350,0.21647,-0.02467,0.00000,0.03221,0.97990,-0.16214,0.0,2023,6,7,13,58,31,333
40.32360,0.04147,-0.04217,0.00000,0.03392,0.98137,-0.16202,0.0,2023,6,7,13,58,31,343
40.32370,-0.18603,-0.02467,0.00000,0.03135,0.98137,-0.16311,0.0,2023,6,7,13,58,31,353
40.32380,0.00647,-0.04217,0.00000,0.03367,0.98064,-0.16177,0.0,2023,6,7,13,58,31,363
40.32390,0.02397,0.08033,0.00000,0.03196,0.98222,-0.16080,0.0,2023,6,7,13,58,31,373
40.32400,0.02397,0.01032,0.00000,0.03282,0.98222,-0.15909,0.0,2023,6,7,13,58,31,383
40.32410,-0.15103,-0.00717,0.00000,0.03282,0.98393,-0.16226,0.0,2023,6,7,13,58,31,393
40.32420,-0.01103,0.02782,0.00000,0.03233,0.98186,-0.16446,0.0,2023,6,7,13,58,31,403
40.32430,0.16397,0.11533,0.00000,0.03282,0.98100,-0.16214,0.0,2023,6,7,13,58,31,413
40.32440,-0.18603,0.25533,0.00000,0.03135,0.97942,-0.15762,0.0,2023,6,7,13,58,31,423
40.32450,0.09397,-0.09467,0.00000,0.03221,0.98308,-0.16080,0.0,2023,6,7,13,58,31,433
40.32460,0.18147,-0.11217,0.00000,0.03404,0.98076,-0.16128,0.0,2023,6,7,13,58,31,443
40.32470,-0.02853,-0.19968,0.00000,0.03379,0.98051,-0.16031,0.0,2023,6,7,13,58,31,453
40.32480,-0.09853,-0.00717,0.00000,0.03306,0.98064,-0.15909,0.0,2023,6,7,13,58,31,463
40.32490,0.12897,-0.14717,0.00000,0.03318,0.98356,-0.16214,0.0,2023,6,7,13,58,31,473
40.32500,0.00647,0.15033,0.00000,0.03233,0.98125,-0.16104,0.0,2023,6,7,13,58,31,483
40.32510,-0.02853,-0.11217,0.00000,0.03343,0.98137,-0.15970,0.0,2023,6,7,13,58,31,493
40.32520,-0.04603,-0.16467,0.00000,0.03282,0.98381,-0.16189,0.0,2023,6,7,13,58,31,503
40.32530,-0.01103,0.06283,0.00000,0.03184,0.98234,-0.16324,0.0,2023,6,7,13,58,31,513
40.32540,-0.11603,-0.09467,0.00000,0.03294,0.98259,-0.16202,0.0,2023,6,7,13,58,31,523
40.32550,0.05897,-0.12967,0.00000,0.03465,0.97917,-0.15982,0.0,2023,6,7,13,58,31,533
40.32560,0.05897,-0.16467,0.00000,0.03355,0.98173,-0.16092,0.0,2023,6,7,13,58,31,543
40.32570,0.07647,-0.07717,0.00000,0.03209,0.98283,-0.16141,0.0,2023,6,7,13,58,31,553
40.32580,0.04147,-0.05967,0.00000,0.03318,0.98161,-0.16031,0.0,2023,6,7,13,58,31,563
40.32590,0.00647,-0.05967,0.00000,0.03404,0.98064,-0.15787,0.0,2023,6,7,13,58,31,573
40.32600,-0.04603,0.13283,0.00000,0.03355,0.98186,-0.16385,0.0,2023,6,7,13,58,31,583
40.32610,0.11147,0.08033,0.00000,0.03294,0.98344,-0.16165,0.0,2023,6,7,13,58,31,593
40.32620,0.04147,0.01032,0.00000,0.03294,0.98137,-0.16189,0.0,2023,6,7,13,58,31,603
40.32630,0.00647,0.09783,0.00000,0.03184,0.98430,-0.16092,0.0,2023,6,7,13,58,31,613
40.32640,-0.01103,-0.04217,0.00000,0.03416,0.98491,-0.16165,0.0,2023,6,7,13,58,31,623
40.32650,0.04147,0.18533,0.00000,0.03294,0.98112,-0.16202,0.0,2023,6,7,13,58,31,633
40.32660,-0.01103,0.08033,0.00000,0.03318,0.98003,-0.15823,0.0,2023,6,7,13,58,31,643
40.32670,0.02397,-0.00717,0.00000,0.03123,0.98161,-0.16104,0.0,2023,6,7,13,58,31,653
40.32680,-0.06353,0.06283,0.00000,0.03196,0.98112,-0.16372,0.0,2023,6,7,13,58,31,663
40.32690,0.07647,0.09783,0.00000,0.03233,0.98466,-0.16336,0.0,2023,6,7,13,58,31,673
40.32700,-0.11603,-0.02467,0.00000,0.03294,0.98222,-0.16189,0.0,2023,6,7,13,58,31,683
40.32710,-0.01103,0.09783,0.00000,0.03172,0.98527,-0.16019,0.0,2023,6,7,13,58,31,693
40.32720,0.05897,-0.21718,0.00000,0.03465,0.98125,-0.16324,0.0,2023,6,7,13,58,31,703
40.32730,-0.02853,0.02782,0.00000,0.03392,0.98015,-0.16202,0.0,2023,6,7,13,58,31,713
40.32740,0.07647,-0.09467,0.00000,0.03355,0.98051,-0.15848,0.0,2023,6,7,13,58,31,723
40.32750,-0.06353,0.09783,0.00000,0.03221,0.98247,-0.16263,0.0,2023,6,7,13,58,31,733
40.32760,0.11147,-0.11217,0.00000,0.03318,0.98100,-0.16238,0.0,2023,6,7,13,58,31,743
40.32770,0.00647,-0.18217,0.00000,0.03306,0.98271,-0.16214,0.0,2023,6,7,13,58,32,753
40.32780,-0.16853,0.09783,0.00000,0.03416,0.97966,-0.16226,0.0,2023,6,7,13,58,32,763
40.32790,-0.18603,0.02782,0.00000,0.03477,0.98186,-0.16299,0.0,2023,6,7,13,58,32,773
40.32800,-0.04603,0.01032,0.00000,0.03184,0.98161,-0.16421,0.0,2023,6,7,13,58,32,783
40.32810,-0.11603,-0.14717,0.00000,0.03026,0.98100,-0.16202,0.0,2023,6,7,13,58,32,793
40.32820,0.00647,0.04533,0.00000,0.03074,0.98442,-0.16238,0.0,2023,6,7,13,58,32,803
40.32830,-0.09853,-0.05967,0.00000,0.03111,0.98222,-0.16019,0.0,2023,6,7,13,58,32,813
40.32840,-0.02853,0.09783,0.00000,0.03318,0.98027,-0.16055,0.0,2023,6,7,13,58,32,823
40.32850,0.14647,0.02782,0.00000,0.03331,0.97856,-0.16458,0.0,2023,6,7,13,58,32,833
40.32860,0.04147,-0.18217,0.00000,0.03501,0.98125,-0.16299,0.0,2023,6,7,13,58,32,843
40.32870,0.02397,0.04533,0.00000,0.03343,0.98149,-0.16092,0.0,2023,6,7,13,58,32,853
40.32880,-0.11603,0.11533,0.00000,0.03099,0.98088,-0.16092,0.0,2023,6,7,13,58,32,863
40.32890,-0.15103,-0.04217,0.00000,0.03001,0.98271,-0.16092,0.0,2023,6,7,13,58,32,873
40.32900,-0.04603,-0.05967,0.00000,0.03221,0.97868,-0.16006,0.0,2023,6,7,13,58,32,883
40.32910,0.05897,-0.04217,0.00000,0.03257,0.98039,-0.15958,0.0,2023,6,7,13,58,32,893
40.32920,-0.02853,-0.07717,0.00000,0.03404,0.98283,-0.16226,0.0,2023,6,7,13,58,32,903
40.32930,0.07647,-0.00717,0.00000,0.03453,0.98112,-0.16226,0.0,2023,6,7,13,58,32,913
40.32940,0.07647,-0.19968,0.00000,0.03501,0.98015,-0.16372,0.0,2023,6,7,13,58,32,923
40.32950,-0.06353,0.06283,0.00000,0.03306,0.98369,-0.16360,0.0,2023,6,7,13,58,32,933
40.32960,-0.01103,0.02782,0.00000,0.03282,0.97966,-0.16263,0.0,2023,6,7,13,58,32,943
40.32970,-0.01103,0.15033,0.00000,0.03282,0.98161,-0.16336,0.0,2023,6,7,13,58,32,953
40.32980,0.04147,-0.04217,0.00000,0.03282,0.98186,-0.16263,0.0,2023,6,7,13,58,32,963
40.32990,0.21647,0.06283,0.00000,0.03270,0.98088,-0.16141,0.0,2023,6,7,13,58,32,973
40.33000,-0.09853,0.04533,0.00000,0.03404,0.98039,-0.16336,0.0,2023,6,7,13,58,32,983
40.33010,0.14647,-0.18217,0.00000,0.03514,0.98283,-0.16092,0.0,2023,6,7,13,58,32,993
40.33020,-0.09853,0.01032,0.00000,0.03416,0.98283,-0.16287,0.0,2023,6,7,13,58,32,3
40.33030,-0.11603,0.02782,0.00000,0.03233,0.98344,-0.16080,0.0,2023,6,7,13,58,32,13
40.33040,0.07647,-0.05967,0.00000,0.03233,0.98137,-0.16226,0.0,2023,6,7,13,58,32,23
40.33050,-0.01103,-0.14717,0.00000,0.03257,0.98442,-0.16153,0.0,2023,6,7,13,58,32,33
40.33060,-0.06353,0.08033,0.00000,0.03172,0.98088,-0.15897,0.0,2023,6,7,13,58,32,43
40.33070,-0.18603,-0.04217,0.00000,0.03196,0.98112,-0.16409,0.0,2023,6,7,13,58,32,53
40.33080,0.00647,-0.16467,0.00000,0.03282,0.98186,-0.16336,0.0,2023,6,7,13,58,32,63
40.33090,0.14647,-0.14717,0.00000,0.03160,0.98247,-0.16348,0.0,2023,6,7,13,58,32,73
40.33100,0.12897,-0.04217,0.00000,0.03440,0.98137,-0.16214,0.0,2023,6,7,13,58,32,83
40.33110,0.18147,-0.26967,0.00000,0.03123,0.98320,-0.16202,0.0,2023,6,7,13,58,32,93
40.33120,0.12897,-0.21718,0.00000,0.03245,0.98198,-0.16153,0.0,2023,6,7,13,58,32,103
40.33130,0.07647,-0.05967,0.00000,0.03001,0.98283,-0.16189,0.0,2023,6,7,13,58,32,113
40.33140,0.07647,-0.07717,0.00000,0.03245,0.98234,-0.16397,0.0,2023,6,7,13,58,32,123
40.33150,-0.04603,0.04533,0.00000,0.03428,0.98454,-0.16214,0.0,2023,6,7,13,58,32,133
40.33160,0.23397,0.02782,0.00000,0.03379,0.98539,-0.16031,0.0,2023,6,7,13,58,32,143
40.33170,-0.06353,0.04533,0.00000,0.03392,0.98356,-0.16177,0.0,2023,6,7,13,58,32,153
40.33180,-0.01103,-0.04217,0.00000,0.03318,0.98271,-0.16311,0.0,2023,6,7,13,58,32,163
40.33190,-0.06353,-0.11217,0.00000,0.03270,0.97966,-0.16202,0.0,2023,6,7,13,58,32,173
40.33200,-0.01103,-0.19968,0.00000,0.03367,0.98198,-0.15982,0.0,2023,6,7,13,58,32,183
40.33210,0.04147,0.04533,0.00000,0.03233,0.98112,-0.16287,0.0,2023,6,7,13,58,32,193
40.33220,0.05897,-0.19968,0.00000,0.03440,0.98137,-0.16299,0.0,2023,6,7,13,58,32,203
40.33230,-0.04603,-0.05967,0.00000,0.03526,0.98100,-0.16043,0.0,2023,6,7,13,58,32,213
40.33240,0.04147,0.25533,0.00000,0.03550,0.98064,-0.16116,0.0,2023,6,7,13,58,32,223
40.33250,-0.01103,-0.21718,0.00000,0.03355,0.97917,-0.16299,0.0,2023,6,7,13,58,32,233
40.33260,0.09397,0.15033,0.00000,0.03343,0.98100,-0.16177,0.0,2023,6,7,13,58,32,243
40.33270,0.04147,-0.09467,0.00000,0.03343,0.98149,-0.16287,0.0,2023,6,7,13,58,32,253
40.33280,0.02397,0.11533,0.00000,0.03318,0.98015,-0.16019,0.0,2023,6,7,13,58,32,263
40.33290,0.16397,-0.00717,0.00000,0.03160,0.98051,-0.16080,0.0,2023,6,7,13,58,32,273
40.33300,0.09397,-0.05967,0.00000,0.03343,0.98186,-0.16055,0.0,2023,6,7,13,58,32,283
40.33310,-0.06353,0.09783,0.00000,0.03257,0.98112,-0.15982,0.0,2023,6,7,13,58,32,293
40.33320,-0.15103,-0.14717,0.00000,0.03318,0.98137,-0.16214,0.0,2023,6,7,13,58,32,303
40.33330,0.09397,-0.00717,0.00000,0.03562,0.98271,-0.16299,0.0,2023,6,7,13,58,32,313
40.33340,0.00647,-0.05967,0.00000,0.03270,0.98112,-0.16043,0.0,2023,6,7,13,58,32,323
40.33350,0.23397,-0.19968,0.00000,0.03404,0.98027,-0.16360,0.0,2023,6,7,13,58,32,333
40.33360,0.04147,-0.37467,0.00000,0.03453,0.98381,-0.16141,0.0,2023,6,7,13,58,32,343
40.33370,-0.15103,-0.05967,0.00000,0.03282,0.98064,-0.16128,0.0,2023,6,7,13,58,32,353
40.33380,-0.04603,0.11533,0.00000,0.03123,0.98112,-0.16226,0.0,2023,6,7,13,58,32,363
40.33390,0.00647,-0.00717,0.00000,0.02977,0.98064,-0.16177,0.0,2023,6,7,13,58,32,373
40.33400,0.07647,-0.00717,0.00000,0.03428,0.98308,-0.16165,0.0,2023,6,7,13,58,32,383
40.33410,-0.02853,0.06283,0.00000,0.03343,0.98112,-0.16324,0.0,2023,6,7,13,58,32,393
40.33420,0.07647,0.02782,0.00000,0.03379,0.98222,-0.16043,0.0,2023,6,7,13,58,32,403
40.33430,-0.11603,0.06283,0.00000,0.03343,0.98064,-0.15970,0.0,2023,6,7,13,58,32,413
40.33440,-0.29103,0.06283,0.00000,0.03111,0.98039,-0.16238,0.0,2023,6,7,13,58,32,423
40.33450,-0.04603,-0.04217,0.00000,0.03184,0.98064,-0.16165,0.0,2023,6,7,13,58,32,433
40.33460,-0.02853,-0.23467,0.00000,0.03282,0.98039,-0.16067,0.0,2023,6,7,13,58,32,443
40.33470,-0.04603,0.11533,0.00000,0.03160,0.98149,-0.16177,0.0,2023,6,7,13,58,32,453
40.33480,0.09397,0.15033,0.00000,0.03343,0.98173,-0.16336,0.0,2023,6,7,13,58,32,463
40.33490,0.12897,-0.11217,0.00000,0.03245,0.98161,-0.16165,0.0,2023,6,7,13,58,32,473
40.33500,0.09397,0.13283,0.00000,0.03245,0.98015,-0.16263,0.0,2023,6,7,13,58,32,483
40.33510,0.00647,0.13283,0.00000,0.03599,0.98088,-0.16214,0.0,2023,6,7,13,58,32,493
40.33520,0.07647,0.08033,0.00000,0.03440,0.98051,-0.16043,0.0,2023,6,7,13,58,32,503
40.33530,-0.06353,0.08033,0.00000,0.03087,0.98210,-0.15970,0.0,2023,6,7,13,58,32,513
40.33540,0.04147,-0.02467,0.00000,0.03050,0.98051,-0.16153,0.0,2023,6,7,13,58,32,523
40.33550,0.11147,0.08033,0.00000,0.02952,0.98320,-0.16177,0.0,2023,6,7,13,58,32,533
40.33560,0.00647,-0.12967,0.00000,0.03587,0.97856,-0.15860,0.0,2023,6,7,13,58,32,543
40.33570,-0.02853,0.02782,0.00000,0.03453,0.98112,-0.16250,0.0,2023,6,7,13,58,32,553
40.33580,0.05897,-0.18217,0.00000,0.03477,0.98039,-0.16153,0.0,2023,6,7,13,58,32,563
40.33590,0.05897,-0.18217,0.00000,0.03367,0.97929,-0.16214,0.0,2023,6,7,13,58,32,573
40.33600,-0.11603,-0.00717,0.00000,0.03379,0.98125,-0.16202,0.0,2023,6,7,13,58,32,583
40.33610,0.09397,-0.14717,0.00000,0.03416,0.98186,-0.16226,0.0,2023,6,7,13,58,32,593
40.33620,-0.02853,0.06283,0.00000,0.03428,0.98051,-0.16165,0.0,2023,6,7,13,58,32,603
40.33630,0.02397,-0.11217,0.00000,0.03221,0.98112,-0.16385,0.0,2023,6,7,13,58,32,613
40.33640,0.11147,-0.09467,0.00000,0.03440,0.98064,-0.16385,0.0,2023,6,7,13,58,32,623
40.33650,0.18147,-0.18217,0.00000,0.03343,0.98112,-0.16336,0.0,2023,6,7,13,58,32,633
40.33660,-0.08103,0.06283,0.00000,0.03855,0.98271,-0.16067,0.0,2023,6,7,13,58,32,643
40.33670,0.02397,0.01032,0.00000,0.03416,0.98076,-0.16238,0.0,2023,6,7,13,58,33,653
40.33680,0.16397,0.13283,0.00000,0.03209,0.98198,-0.16006,0.0,2023,6,7,13,58,33,663
40.33690,0.00647,-0.23467,0.00000,0.03257,0.98210,-0.16189,0.0,2023,6,7,13,58,33,673
40.33700,-0.04603,-0.12967,0.00000,0.02989,0.98271,-0.16348,0.0,2023,6,7,13,58,33,683
40.33710,0.19897,-0.04217,0.00000,0.03050,0.98198,-0.16214,0.0,2023,6,7,13,58,33,693
40.33720,0.02397,-0.11217,0.00000,0.03257,0.98186,-0.16128,0.0,2023,6,7,13,58,33,703
40.33730,0.05897,-0.04217,0.00000,0.03355,0.98198,-0.16214,0.0,2023,6,7,13,58,33,713
40.33740,-0.09853,-0.05967,0.00000,0.03367,0.98308,-0.16275,0.0,2023,6,7,13,58,33,723
40.33750,0.11147,0.04533,0.00000,0.03294,0.97832,-0.16324,0.0,2023,6,7,13,58,33,733
40.33760,-0.04603,-0.25217,0.00000,0.03477,0.98149,-0.16019,0.0,2023,6,7,13,58,33,743
40.33770,-0.02853,-0.14717,0.00000,0.03233,0.98271,-0.16226,0.0,2023,6,7,13,58,33,753
40.33780,0.04147,-0.12967,0.00000,0.03123,0.98344,-0.16263,0.0,2023,6,7,13,58,33,763
40.33790,0.07647,-0.16467,0.00000,0.03233,0.97844,-0.16202,0.0,2023,6,7,13,58,33,773
40.33800,-0.04603,-0.02467,0.00000,0.03270,0.98051,-0.16092,0.0,2023,6,7,13,58,33,783
40.33810,0.18147,-0.09467,0.00000,0.03209,0.98344,-0.16177,0.0,2023,6,7,13,58,33,793
40.33820,0.12897,-0.16467,0.00000,0.03318,0.98210,-0.16055,0.0,2023,6,7,13,58,33,803
40.33830,0.02397,0.01032,0.00000,0.03404,0.98064,-0.16043,0.0,2023,6,7,13,58,33,813
40.33840,0.11147,-0.02467,0.00000,0.03453,0.98186,-0.16250,0.0,2023,6,7,13,58,33,823
40.33850,-0.01103,-0.14717,0.00000,0.03331,0.97844,-0.16348,0.0,2023,6,7,13,58,33,833
40.33860,0.14647,-0.05967,0.00000,0.03270,0.98234,-0.15970,0.0,2023,6,7,13,58,33,843
40.33870,0.07647,-0.11217,0.00000,0.03172,0.98088,-0.15848,0.0,2023,6,7,13,58,33,853
40.33880,0.00647,-0.11217,0.00000,0.03196,0.98064,-0.16165,0.0,2023,6,7,13,58,33,863
40.33890,0.05897,0.27283,0.00000,0.03343,0.97978,-0.16055,0.0,2023,6,7,13,58,33,873
40.33900,0.09397,-0.09467,0.00000,0.03562,0.98137,-0.16214,0.0,2023,6,7,13,58,33,883
40.33910,-0.02853,-0.12967,0.00000,0.03428,0.98295,-0.16360,0.0,2023,6,7,13,58,33,893
40.33920,0.16397,-0.21718,0.00000,0.03477,0.98149,-0.16397,0.0,2023,6,7,13,58,33,903
40.33930,-0.16853,0.22032,0.00000,0.03282,0.98100,-0.16165,0.0,2023,6,7,13,58,33,913
40.33940,-0.06353,0.15033,0.00000,0.03087,0.98161,-0.16128,0.0,2023,6,7,13,58,33,923
40.33950,0.25147,0.04533,0.00000,0.03123,0.98088,-0.15982,0.0,2023,6,7,13,58,33,933
40.33960,0.00647,-0.14717,0.00000,0.03196,0.98076,-0.16153,0.0,2023,6,7,13,58,33,943
40.33970,-0.09853,-0.21718,0.00000,0.03392,0.98064,-0.16433,0.0,2023,6,7,13,58,33,953
40.33980,0.23397,0.04533,0.00000,0.03489,0.98247,-0.16385,0.0,2023,6,7,13,58,33,963
40.33990,0.05897,0.09783,0.00000,0.03453,0.98088,-0.16153,0.0,2023,6,7,13,58,33,973
40.34000,-0.04603,-0.02467,0.00000,0.03526,0.98210,-0.16507,0.0,2023,6,7,13,58,33,983
40.34010,0.12897,-0.21718,0.00000,0.03538,0.98173,-0.16275,0.0,2023,6,7,13,58,33,993
40.34020,0.12897,0.04533,0.00000,0.03257,0.98137,-0.16385,0.0,2023,6,7,13,58,33,3
40.34030,0.07647,-0.09467,0.00000,0.03257,0.98259,-0.16031,0.0,2023,6,7,13,58,33,13
40.34040,0.25147,-0.12967,0.00000,0.03209,0.98137,-0.16165,0.0,2023,6,7,13,58,33,23
40.34050,0.00647,0.04533,0.00000,0.03331,0.97820,-0.16263,0.0,2023,6,7,13,58,33,33
40.34060,0.07647,-0.16467,0.00000,0.03489,0.98210,-0.16092,0.0,2023,6,7,13,58,33,43
40.34070,0.00647,0.13283,0.00000,0.03648,0.98125,-0.16189,0.0,2023,6,7,13,58,33,53
40.34080,-0.01103,0.01032,0.00000,0.03453,0.98125,-0.16372,0.0,2023,6,7,13,58,33,63
40.34090,0.11147,-0.12967,0.00000,0.03367,0.97990,-0.16165,0.0,2023,6,7,13,58,33,73
40.34100,0.19897,-0.09467,0.00000,0.03050,0.98125,-0.15872,0.0,2023,6,7,13,58,33,83
40.34110,0.25147,0.04533,0.00000,0.03050,0.98198,-0.16165,0.0,2023,6,7,13,58,33,93
40.34120,-0.06353,-0.04217,0.00000,0.03013,0.98320,-0.16275,0.0,2023,6,7,13,58,33,103
40.34130,0.04147,-0.00717,0.00000,0.03209,0.97942,-0.16080,0.0,2023,6,7,13,58,33,113
40.34140,-0.04603,0.08033,0.00000,0.03428,0.98332,-0.16275,0.0,2023,6,7,13,58,33,123
40.34150,0.07647,0.18533,0.00000,0.03392,0.98259,-0.16507,0.0,2023,6,7,13,58,33,133
40.34160,-0.20353,-0.00717,0.00000,0.03392,0.98161,-0.16543,0.0,2023,6,7,13,58,33,143
40.34170,-0.13353,0.01032,0.00000,0.03294,0.98112,-0.16324,0.0,2023,6,7,13,58,33,153
40.34180,-0.11603,-0.14717,0.00000,0.03148,0.98100,-0.16189,0.0,2023,6,7,13,58,33,163
40.34190,0.19897,0.06283,0.00000,0.03172,0.98039,-0.16189,0.0,2023,6,7,13,58,33,173
40.34200,0.04147,-0.09467,0.00000,0.03148,0.97795,-0.16336,0.0,2023,6,7,13,58,33,183
40.34210,0.16397,-0.09467,0.00000,0.03221,0.98088,-0.15884,0.0,2023,6,7,13,58,33,193
40.34220,0.14647,-0.14717,0.00000,0.03501,0.98100,-0.16141,0.0,2023,6,7,13,58,33,203
40.34230,0.04147,-0.00717,0.00000,0.03550,0.98320,-0.16141,0.0,2023,6,7,13,58,33,213
40.34240,0.04147,-0.25217,0.00000,0.03355,0.97990,-0.16238,0.0,2023,6,7,13,58,33,223
40.34250,0.00647,-0.21718,0.00000,0.03233,0.98149,-0.16458,0.0,2023,6,7,13,58,33,233
40.34260,0.12897,-0.04217,0.00000,0.03367,0.98222,-0.16128,0.0,2023,6,7,13,58,33,243
40.34270,-0.15103,-0.18217,0.00000,0.03294,0.98271,-0.16092,0.0,2023,6,7,13,58,33,253
40.34280,-0.02853,0.15033,0.00000,0.03233,0.98088,-0.15909,0.0,2023,6,7,13,58,33,263
40.34290,0.07647,-0.02467,0.00000,0.03331,0.98247,-0.16141,0.0,2023,6,7,13,58,33,273
40.34300,0.00647,-0.09467,0.00000,0.03355,0.97990,-0.16116,0.0,2023,6,7,13,58,33,283
40.34310,0.04147,-0.14717,0.00000,0.03355,0.98271,-0.16263,0.0,2023,6,7,13,58,33,293
40.34320,-0.16853,0.02782,0.00000,0.03550,0.98149,-0.15994,0.0,2023,6,7,13,58,33,303
40.34330,0.07647,-0.04217,0.00000,0.03270,0.98442,-0.16055,0.0,2023,6,7,13,58,33,313
40.34340,-0.13353,0.08033,0.00000,0.03257,0.98283,-0.16128,0.0,2023,6,7,13,58,33,323
40.34350,0.05897,-0.05967,0.00000,0.03331,0.98149,-0.16287,0.0,2023,6,7,13,58,33,333
40.34360,0.16397,-0.23467,0.00000,0.03160,0.98039,-0.16128,0.0,2023,6,7,13,58,33,343
40.34370,0.21647,-0.05967,0.00000,0.03392,0.98186,-0.16165,0.0,2023,6,7,13,58,33,353
40.34380,0.00647,0.15033,0.00000,0.03355,0.98393,-0.16128,0.0,2023,6,7,13,58,33,363
40.34390,-0.01103,0.11533,0.00000,0.03306,0.98125,-0.16311,0.0,2023,6,7,13,58,33,373
40.34400,0.12897,-0.07717,0.00000,0.03245,0.98222,-0.16006,0.0,2023,6,7,13,58,33,383
40.34410,0.18147,-0.12967,0.00000,0.03599,0.98308,-0.16043,0.0,2023,6,7,13,58,33,393
40.34420,-0.11603,0.01032,0.00000,0.03209,0.98405,-0.16043,0.0,2023,6,7,13,58,33,403
40.34430,0.05897,0.08033,0.00000,0.03172,0.98125,-0.16019,0.0,2023,6,7,13,58,33,413
40.34440,0.07647,0.16783,0.00000,0.03355,0.98222,-0.15982,0.0,2023,6,7,13,58,33,423
40.34450,-0.09853,-0.19968,0.00000,0.03221,0.98381,-0.16263,0.0,2023,6,7,13,58,33,433
40.34460,0.07647,-0.09467,0.00000,0.03184,0.97978,-0.15848,0.0,2023,6,7,13,58,33,443
40.34470,0.04147,-0.12967,0.00000,0.03209,0.98015,-0.16189,0.0,2023,6,7,13,58,33,453
40.34480,0.02397,0.04533,0.00000,0.03294,0.98149,-0.15982,0.0,2023,6,7,13,58,33,463
40.34490,0.30397,0.13283,0.00000,0.03428,0.98039,-0.16189,0.0,2023,6,7,13,58,33,473
40.34500,0.00647,-0.07717,0.00000,0.03489,0.98088,-0.16238,0.0,2023,6,7,13,58,33,483
40.34510,-0.01103,0.08033,0.00000,0.03416,0.98112,-0.16031,0.0,2023,6,7,13,58,33,493
40.34520,-0.16853,-0.05967,0.00000,0.03404,0.98381,-0.16238,0.0,2023,6,7,13,58,33,503
40.34530,-0.15103,0.13283,0.00000,0.03233,0.98125,-0.16153,0.0,2023,6,7,13,58,33,513
40.34540,-0.06353,0.16783,0.00000,0.03038,0.98149,-0.16214,0.0,2023,6,7,13,58,33,523
40.34550,0.04147,0.02782,0.00000,0.03196,0.98234,-0.16287,0.0,2023,6,7,13,58,33,533
40.34560,0.09397,-0.00717,0.00000,0.03465,0.98015,-0.16128,0.0,2023,6,7,13,58,33,543
40.34570,0.05897,-0.07717,0.00000,0.03257,0.98234,-0.16153,0.0,2023,6,7,13,58,34,553
40.34580,-0.06353,-0.02467,0.00000,0.03392,0.98076,-0.15775,0.0,2023,6,7,13,58,34,563
40.34590,0.09397,0.01032,0.00000,0.03294,0.98088,-0.16250,0.0,2023,6,7,13,58,34,573
40.34600,0.16397,0.09783,0.00000,0.03196,0.98234,-0.16238,0.0,2023,6,7,13,58,34,583
40.34610,0.09397,-0.00717,0.00000,0.03111,0.98027,-0.15982,0.0,2023,6,7,13,58,34,593
40.34620,-0.13353,0.09783,0.00000,0.03282,0.98186,-0.16165,0.0,2023,6,7,13,58,34,603
40.34630,0.12897,-0.23467,0.00000,0.03160,0.98076,-0.16287,0.0,2023,6,7,13,58,34,613
40.34640,-0.02853,0.23782,0.00000,0.03245,0.98088,-0.16324,0.0,2023,6,7,13,58,34,623
40.34650,-0.02853,0.04533,0.00000,0.03428,0.98222,-0.16238,0.0,2023,6,7,13,58,34,633
40.34660,0.14647,-0.07717,0.00000,0.02989,0.98064,-0.16250,0.0,2023,6,7,13,58,34,643
40.34670,0.16397,-0.09467,0.00000,0.03453,0.98125,-0.16177,0.0,2023,6,7,13,58,34,653
40.34680,-0.04603,-0.09467,0.00000,0.03257,0.98051,-0.16299,0.0,2023,6,7,13,58,34,663
40.34690,0.09397,-0.02467,0.00000,0.03392,0.98259,-0.16202,0.0,2023,6,7,13,58,34,673
40.34700,-0.08103,0.06283,0.00000,0.03538,0.98308,-0.16067,0.0,2023,6,7,13,58,34,683
40.34710,0.05897,-0.04217,0.00000,0.03099,0.98332,-0.16348,0.0,2023,6,7,13,58,34,693
40.34720,0.11147,0.01032,0.00000,0.03355,0.98149,-0.16031,0.0,2023,6,7,13,58,34,703
40.34730,-0.06353,0.04533,0.00000,0.03392,0.97820,-0.15994,0.0,2023,6,7,13,58,34,713
40.34740,0.05897,-0.05967,0.00000,0.03294,0.98064,-0.16324,0.0,2023,6,7,13,58,34,723
40.34750,0.14647,0.02782,0.00000,0.03306,0.98088,-0.16165,0.0,2023,6,7,13,58,34,733
40.34760,0.07647,-0.04217,0.00000,0.03367,0.98552,-0.16311,0.0,2023,6,7,13,58,34,743
40.34770,0.11147,-0.18217,0.00000,0.03148,0.98234,-0.16214,0.0,2023,6,7,13,58,34,753
40.34780,0.19897,-0.21718,0.00000,0.03331,0.98088,-0.16128,0.0,2023,6,7,13,58,34,763
40.34790,0.18147,-0.07717,0.00000,0.03233,0.98259,-0.16250,0.0,2023,6,7,13,58,34,773
40.34800,0.16397,-0.04217,0.00000,0.03331,0.98027,-0.16092,0.0,2023,6,7,13,58,34,783
40.34810,-0.06353,-0.02467,0.00000,0.03221,0.98271,-0.15970,0.0,2023,6,7,13,58,34,793
40.34820,-0.09853,0.20283,0.00000,0.03526,0.98271,-0.16092,0.0,2023,6,7,13,58,34,803
40.34830,-0.01103,-0.02467,0.00000,0.03245,0.98137,-0.16397,0.0,2023,6,7,13,58,34,813
40.34840,0.00647,-0.02467,0.00000,0.03196,0.98247,-0.16226,0.0,2023,6,7,13,58,34,823
40.34850,0.00647,0.02782,0.00000,0.03379,0.98161,-0.16104,0.0,2023,6,7,13,58,34,833
40.34860,0.09397,-0.00717,0.00000,0.03257,0.98381,-0.16214,0.0,2023,6,7,13,58,34,843
40.34870,0.25147,-0.11217,0.00000,0.03318,0.98198,-0.16202,0.0,2023,6,7,13,58,34,853
40.34880,0.04147,-0.25217,0.00000,0.03074,0.98222,-0.16006,0.0,2023,6,7,13,58,34,863
40.34890,0.07647,-0.21718,0.00000,0.03318,0.98222,-0.16177,0.0,2023,6,7,13,58,34,873
40.34900,-0.04603,-0.04217,0.00000,0.03489,0.98222,-0.16031,0.0,2023,6,7,13,58,34,883
40.34910,-0.06353,0.13283,0.00000,0.03282,0.98051,-0.16006,0.0,2023,6,7,13,58,34,893
40.34920,0.05897,-0.26967,0.00000,0.03367,0.98332,-0.16141,0.0,2023,6,7,13,58,34,903
40.34930,-0.02853,0.06283,0.00000,0.03453,0.98515,-0.15677,0.0,2023,6,7,13,58,34,913
40.34940,0.11147,-0.00717,0.00000,0.03184,0.98344,-0.16019,0.0,2023,6,7,13,58,34,923
40.34950,-0.02853,-0.07717,0.00000,0.03282,0.98112,-0.16287,0.0,2023,6,7,13,58,34,933
40.34960,0.07647,-0.04217,0.00000,0.03270,0.98100,-0.16263,0.0,2023,6,7,13,58,34,943
40.34970,0.07647,-0.12967,0.00000,0.03404,0.97966,-0.16177,0.0,2023,6,7,13,58,34,953
40.34980,0.07647,-0.19968,0.00000,0.03428,0.98112,-0.16250,0.0,2023,6,7,13,58,34,963
40.34990,-0.09853,0.01032,0.00000,0.03379,0.98198,-0.16153,0.0,2023,6,7,13,58,34,973
40.35000,-0.13353,-0.21718,0.00000,0.03270,0.98137,-0.16067,0.0,2023,6,7,13,58,34,983
40.35010,-0.04603,-0.05967,0.00000,0.03257,0.98210,-0.16238,0.0,2023,6,7,13,58,34,993
40.35020,-0.02853,0.13283,0.00000,0.03440,0.97832,-0.16104,0.0,2023,6,7,13,58,34,3
40.35030,0.19897,-0.11217,0.00000,0.03123,0.98283,-0.16311,0.0,2023,6,7,13,58,34,13
40.35040,0.02397,-0.07717,0.00000,0.03453,0.98210,-0.16470,0.0,2023,6,7,13,58,34,23
40.35050,-0.08103,-0.05967,0.00000,0.03257,0.98112,-0.16092,0.0,2023,6,7,13,58,34,33
40.35060,0.00647,-0.02467,0.00000,0.03209,0.98112,-0.15945,0.0,2023,6,7,13,58,34,43
40.35070,0.18147,0.13283,0.00000,0.03379,0.98100,-0.16092,0.0,2023,6,7,13,58,34,53
40.35080,0.07647,-0.07717,0.00000,0.03477,0.98369,-0.15897,0.0,2023,6,7,13,58,34,63
40.35090,0.07647,-0.09467,0.00000,0.03318,0.98186,-0.16043,0.0,2023,6,7,13,58,34,73
40.35100,0.05897,0.04533,0.00000,0.03050,0.98051,-0.16116,0.0,2023,6,7,13,58,34,83
40.35110,-0.01103,0.06283,0.00000,0.03392,0.98442,-0.16080,0.0,2023,6,7,13,58,34,93
40.35120,0.16397,-0.05967,0.00000,0.03196,0.98527,-0.16067,0.0,2023,6,7,13,58,34,103
40.35130,-0.13353,0.01032,0.00000,0.03233,0.97917,-0.16250,0.0,2023,6,7,13,58,34,113
40.35140,0.07647,0.02782,0.00000,0.03196,0.98088,-0.15799,0.0,2023,6,7,13,58,34,123
40.35150,-0.06353,0.13283,0.00000,0.03489,0.98112,-0.15775,0.0,2023,6,7,13,58,34,133
40.35160,-0.04603,0.02782,0.00000,0.03282,0.98088,-0.16189,0.0,2023,6,7,13,58,34,143
40.35170,0.09397,-0.00717,0.00000,0.03331,0.98356,-0.16238,0.0,2023,6,7,13,58,34,153
40.35180,0.09397,-0.28717,0.00000,0.03160,0.98161,-0.16189,0.0,2023,6,7,13,58,34,163
40.35190,0.18147,-0.14717,0.00000,0.03209,0.98149,-0.16104,0.0,2023,6,7,13,58,34,173
40.35200,0.09397,-0.21718,0.00000,0.03050,0.98149,-0.16080,0.0,2023,6,7,13,58,34,183
40.35210,0.05897,0.04533,0.00000,0.03355,0.97954,-0.15945,0.0,2023,6,7,13,58,34,193
40.35220,0.00647,0.04533,0.00000,0.03355,0.98088,-0.16165,0.0,2023,6,7,13,58,34,203
40.35230,0.02397,0.13283,0.00000,0.03270,0.98344,-0.16055,0.0,2023,6,7,13,58,34,213
40.35240,-0.09853,-0.07717,0.00000,0.03123,0.98112,-0.15909,0.0,2023,6,7,13,58,34,223
40.35250,0.00647,-0.11217,0.00000,0.03355,0.98369,-0.16275,0.0,2023,6,7,13,58,34,233
40.35260,0.16397,-0.12967,0.00000,0.03270,0.98344,-0.16177,0.0,2023,6,7,13,58,34,243
40.35270,-0.06353,0.02782,0.00000,0.03343,0.98064,-0.15933,0.0,2023,6,7,13,58,34,253
40.35280,0.02397,0.02782,0.00000,0.03331,0.98076,-0.15836,0.0,2023,6,7,13,58,34,263
40.35290,0.09397,-0.14717,0.00000,0.03270,0.98088,-0.16031,0.0,2023,6,7,13,58,34,273
40.35300,0.02397,-0.09467,0.00000,0.03087,0.98015,-0.15982,0.0,2023,6,7,13,58,34,283
40.35310,0.04147,0.02782,0.00000,0.03453,0.98112,-0.16324,0.0,2023,6,7,13,58,34,293
40.35320,0.07647,0.08033,0.00000,0.03379,0.98137,-0.16104,0.0,2023,6,7,13,58,34,303
40.35330,0.02397,-0.02467,0.00000,0.03343,0.98271,-0.16141,0.0,2023,6,7,13,58,34,313
40.35340,0.02397,0.08033,0.00000,0.03245,0.97734,-0.15958,0.0,2023,6,7,13,58,34,323
40.35350,-0.08103,-0.05967,0.00000,0.03355,0.98149,-0.16177,0.0,2023,6,7,13,58,34,333
40.35360,0.00647,0.08033,0.00000,0.03306,0.98076,-0.15860,0.0,2023,6,7,13,58,34,343
40.35370,-0.06353,-0.21718,0.00000,0.03355,0.98088,-0.15714,0.0,2023,6,7,13,58,34,353
40.35380,0.09397,-0.09467,0.00000,0.03404,0.98271,-0.16275,0.0,2023,6,7,13,58,34,363
40.35390,0.00647,0.04533,0.00000,0.03440,0.98381,-0.16189,0.0,2023,6,7,13,58,34,373
40.35400,0.09397,0.16783,0.00000,0.03196,0.98222,-0.15958,0.0,2023,6,7,13,58,34,383
40.35410,0.25147,0.04533,0.00000,0.03477,0.98125,-0.16177,0.0,2023,6,7,13,58,34,393
40.35420,0.00647,-0.12967,0.00000,0.03343,0.98161,-0.16043,0.0,2023,6,7,13,58,34,403
40.35430,-0.13353,0.04533,0.00000,0.03135,0.98173,-0.16116,0.0,2023,6,7,13,58,34,413
40.35440,-0.11603,0.04533,0.00000,0.03209,0.98137,-0.16067,0.0,2023,6,7,13,58,34,423
40.35450,-0.11603,-0.07717,0.00000,0.03453,0.98283,-0.16067,0.0,2023,6,7,13,58,34,433
40.35460,-0.01103,-0.12967,0.00000,0.03306,0.98064,-0.15970,0.0,2023,6,7,13,58,34,443
40.35470,-0.11603,0.13283,0.00000,0.03514,0.98100,-0.16141,0.0,2023,6,7,13,58,34,453
40.35480,0.16397,-0.11217,0.00000,0.03550,0.98112,-0.16128,0.0,2023,6,7,13,58,35,463
40.35490,-0.06353,0.04533,0.00000,0.03062,0.98234,-0.16250,0.0,2023,6,7,13,58,35,473
40.35500,-0.02853,0.04533,0.00000,0.03196,0.98247,-0.16226,0.0,2023,6,7,13,58,35,483
40.35510,0.04147,-0.04217,0.00000,0.03428,0.98015,-0.16067,0.0,2023,6,7,13,58,35,493
40.35520,-0.09853,-0.02467,0.00000,0.03270,0.97966,-0.15848,0.0,2023,6,7,13,58,35,503
40.35530,-0.09853,-0.14717,0.00000,0.03123,0.98064,-0.16080,0.0,2023,6,7,13,58,35,513
40.35540,-0.13353,-0.00717,0.00000,0.03221,0.98149,-0.15994,0.0,2023,6,7,13,58,35,523
40.35550,-0.04603,0.04533,0.00000,0.03001,0.98210,-0.15945,0.0,2023,6,7,13,58,35,533
40.35560,-0.11603,0.02782,0.00000,0.03184,0.98161,-0.15982,0.0,2023,6,7,13,58,35,543
40.35570,0.18147,-0.14717,0.00000,0.03355,0.98027,-0.16080,0.0,2023,6,7,13,58,35,553
40.35580,0.07647,0.01032,0.00000,0.03233,0.98222,-0.16165,0.0,2023,6,7,13,58,35,563
40.35590,0.09397,0.04533,0.00000,0.03099,0.98076,-0.16092,0.0,2023,6,7,13,58,35,573
40.35600,-0.06353,-0.00717,0.00000,0.03379,0.98308,-0.16128,0.0,2023,6,7,13,58,35,583
40.35610,0.11147,-0.02467,0.00000,0.03294,0.98234,-0.16141,0.0,2023,6,7,13,58,35,593
40.35620,-0.08103,-0.14717,0.00000,0.03026,0.98137,-0.15958,0.0,2023,6,7,13,58,35,603
40.35630,-0.15103,0.04533,0.00000,0.03453,0.97893,-0.16360,0.0,2023,6,7,13,58,35,613
40.35640,0.05897,-0.04217,0.00000,0.03379,0.98137,-0.16214,0.0,2023,6,7,13,58,35,623
40.35650,0.04147,-0.07717,0.00000,0.03294,0.98039,-0.16250,0.0,2023,6,7,13,58,35,633
40.35660,-0.02853,-0.07717,0.00000,0.03404,0.98198,-0.16019,0.0,2023,6,7,13,58,35,643
40.35670,-0.01103,-0.07717,0.00000,0.03404,0.98161,-0.16067,0.0,2023,6,7,13,58,35,653
40.35680,0.11147,0.02782,0.00000,0.03270,0.98259,-0.16275,0.0,2023,6,7,13,58,35,663
40.35690,-0.06353,0.02782,0.00000,0.03282,0.98198,-0.16275,0.0,2023,6,7,13,58,35,673
40.35700,-0.01103,-0.09467,0.00000,0.03318,0.97954,-0.16128,0.0,2023,6,7,13,58,35,683
40.35710,0.04147,-0.00717,0.00000,0.03428,0.98039,-0.15945,0.0,2023,6,7,13,58,35,693
40.35720,0.02397,-0.09467,0.00000,0.03440,0.98210,-0.15726,0.0,2023,6,7,13,58,35,703
40.35730,0.00647,-0.04217,0.00000,0.03257,0.98149,-0.16238,0.0,2023,6,7,13,58,35,713
40.35740,0.14647,-0.04217,0.00000,0.03294,0.98234,-0.16006,0.0,2023,6,7,13,58,35,723
40.35750,-0.04603,0.11533,0.00000,0.03270,0.97966,-0.16104,0.0,2023,6,7,13,58,35,733
40.35760,0.00647,0.06283,0.00000,0.03416,0.98478,-0.16214,0.0,2023,6,7,13,58,35,743
40.35770,0.09397,0.11533,0.00000,0.03318,0.98015,-0.16177,0.0,2023,6,7,13,58,35,753
40.35780,0.14647,-0.25217,0.00000,0.03343,0.98234,-0.16311,0.0,2023,6,7,13,58,35,763
40.35790,-0.16853,0.09783,0.00000,0.03501,0.98064,-0.16043,0.0,2023,6,7,13,58,35,773
40.35800,-0.16853,-0.00717,0.00000,0.03148,0.97954,-0.15921,0.0,2023,6,7,13,58,35,783
40.35810,0.11147,-0.02467,0.00000,0.03440,0.98137,-0.16104,0.0,2023,6,7,13,58,35,793
40.35820,0.00647,-0.02467,0.00000,0.03087,0.98369,-0.16311,0.0,2023,6,7,13,58,35,803
40.35830,-0.01103,-0.02467,0.00000,0.03245,0.98003,-0.15933,0.0,2023,6,7,13,58,35,813
40.35840,0.05897,-0.00717,0.00000,0.03404,0.98186,-0.15921,0.0,2023,6,7,13,58,35,823
40.35850,-0.09853,0.11533,0.00000,0.03123,0.98186,-0.16031,0.0,2023,6,7,13,58,35,833
40.35860,-0.01103,-0.07717,0.00000,0.03404,0.98283,-0.16238,0.0,2023,6,7,13,58,35,843
40.35870,0.00647,0.02782,0.00000,0.03404,0.97990,-0.16263,0.0,2023,6,7,13,58,35,853
40.35880,0.07647,-0.09467,0.00000,0.03428,0.98186,-0.16092,0.0,2023,6,7,13,58,35,863
40.35890,-0.06353,-0.11217,0.00000,0.03489,0.98064,-0.15958,0.0,2023,6,7,13,58,35,873
40.35900,-0.18603,-0.04217,0.00000,0.03294,0.98186,-0.15884,0.0,2023,6,7,13,58,35,883
40.35910,0.05897,-0.04217,0.00000,0.03331,0.98308,-0.15994,0.0,2023,6,7,13,58,35,893
40.35920,-0.04603,0.06283,0.00000,0.03294,0.98247,-0.16275,0.0,2023,6,7,13,58,35,903
40.35930,-0.11603,-0.05967,0.00000,0.03453,0.98283,-0.15994,0.0,2023,6,7,13,58,35,913
40.35940,0.05897,0.04533,0.00000,0.03306,0.98210,-0.16080,0.0,2023,6,7,13,58,35,923
40.35950,-0.08103,0.08033,0.00000,0.03306,0.98112,-0.16397,0.0,2023,6,7,13,58,35,933
40.35960,-0.01103,0.09783,0.00000,0.03245,0.98064,-0.16250,0.0,2023,6,7,13,58,35,943
40.35970,0.02397,0.22032,0.00000,0.03465,0.98259,-0.15872,0.0,2023,6,7,13,58,35,953
40.35980,0.04147,-0.04217,0.00000,0.03282,0.98149,-0.16250,0.0,2023,6,7,13,58,35,963
40.35990,0.14647,-0.21718,0.00000,0.03209,0.98320,-0.16019,0.0,2023,6,7,13,58,35,973
40.36000,-0.15103,0.04533,0.00000,0.03111,0.98076,-0.16189,0.0,2023,6,7,13,58,35,983
40.36010,-0.01103,-0.16467,0.00000,0.03245,0.98088,-0.15897,0.0,2023,6,7,13,58,35,993
40.36020,-0.13353,0.08033,0.00000,0.03379,0.98198,-0.16092,0.0,2023,6,7,13,58,35,3
40.36030,-0.06353,-0.16467,0.00000,0.03453,0.98125,-0.16177,0.0,2023,6,7,13,58,35,13
40.36040,-0.01103,-0.09467,0.00000,0.03331,0.98088,-0.16311,0.0,2023,6,7,13,58,35,23
40.36050,0.16397,-0.00717,0.00000,0.03453,0.98149,-0.16311,0.0,2023,6,7,13,58,35,33
40.36060,0.18147,-0.14717,0.00000,0.03233,0.98381,-0.16385,0.0,2023,6,7,13,58,35,43
40.36070,-0.09853,0.20283,0.00000,0.03196,0.97978,-0.15848,0.0,2023,6,7,13,58,35,53
40.36080,-0.18603,0.01032,0.00000,0.02989,0.98125,-0.16165,0.0,2023,6,7,13,58,35,63
40.36090,0.05897,0.08033,0.00000,0.03233,0.98027,-0.15945,0.0,2023,6,7,13,58,35,73
40.36100,0.19897,0.11533,0.00000,0.03550,0.98051,-0.16104,0.0,2023,6,7,13,58,35,83
40.36110,0.07647,0.09783,0.00000,0.03392,0.98161,-0.16116,0.0,2023,6,7,13,58,35,93
40.36120,0.07647,0.15033,0.00000,0.03343,0.98210,-0.16238,0.0,2023,6,7,13,58,35,103
40.36130,-0.02853,-0.00717,0.00000,0.03367,0.98332,-0.16116,0.0,2023,6,7,13,58,35,113
40.36140,-0.06353,0.08033,0.00000,0.03355,0.98271,-0.16311,0.0,2023,6,7,13,58,35,123
40.36150,-0.11603,-0.07717,0.00000,0.03257,0.98027,-0.16165,0.0,2023,6,7,13,58,35,133
40.36160,-0.16853,0.06283,0.00000,0.03123,0.98234,-0.15750,0.0,2023,6,7,13,58,35,143
40.36170,0.11147,0.06283,0.00000,0.03135,0.98039,-0.15884,0.0,2023,6,7,13,58,35,153
40.36180,-0.18603,0.16783,0.00000,0.03294,0.98478,-0.16141,0.0,2023,6,7,13,58,35,163
40.36190,0.11147,-0.07717,0.00000,0.03477,0.98308,-0.16080,0.0,2023,6,7,13,58,35,173
40.36200,-0.15103,-0.02467,0.00000,0.03648,0.98539,-0.15921,0.0,2023,6,7,13,58,35,183
40.36210,0.05897,-0.09467,0.00000,0.03392,0.98271,-0.15958,0.0,2023,6,7,13,58,35,193
40.36220,-0.11603,0.04533,0.00000,0.03318,0.98283,-0.16092,0.0,2023,6,7,13,58,35,203
40.36230,-0.08103,0.15033,0.00000,0.03465,0.98015,-0.16238,0.0,2023,6,7,13,58,35,213
40.36240,-0.22103,0.32533,0.00000,0.03257,0.98161,-0.16055,0.0,2023,6,7,13,58,35,223
40.36250,0.04147,0.02782,0.00000,0.03062,0.98064,-0.16067,0.0,2023,6,7,13,58,35,233
40.36260,-0.02853,-0.00717,0.00000,0.03257,0.98076,-0.16189,0.0,2023,6,7,13,58,35,243
40.36270,-0.04603,0.06283,0.00000,0.03306,0.98100,-0.16360,0.0,2023,6,7,13,58,35,253
40.36280,-0.04603,0.04533,0.00000,0.03538,0.98112,-0.16250,0.0,2023,6,7,13,58,35,263
40.36290,0.05897,0.02782,0.00000,0.03611,0.98186,-0.16263,0.0,2023,6,7,13,58,35,273
40.36300,-0.22103,0.04533,0.00000,0.03331,0.98210,-0.16116,0.0,2023,6,7,13,58,35,283
40.36310,-0.16853,0.22032,0.00000,0.03306,0.97868,-0.15994,0.0,2023,6,7,13,58,35,293
40.36320,0.04147,-0.11217,0.00000,0.03331,0.97942,-0.15970,0.0,2023,6,7,13,58,35,303
40.36330,-0.04603,0.01032,0.00000,0.03282,0.97966,-0.16153,0.0,2023,6,7,13,58,35,313
40.36340,-0.01103,-0.07717,0.00000,0.03294,0.97929,-0.16311,0.0,2023,6,7,13,58,35,323
40.36350,0.09397,-0.05967,0.00000,0.03489,0.98320,-0.16189,0.0,2023,6,7,13,58,35,333
40.36360,0.05897,-0.09467,0.00000,0.03270,0.98186,-0.16104,0.0,2023,6,7,13,58,35,343
40.36370,0.12897,0.01032,0.00000,0.03428,0.98137,-0.16250,0.0,2023,6,7,13,58,36,353
40.36380,-0.08103,0.16783,0.00000,0.03184,0.98088,-0.16189,0.0,2023,6,7,13,58,36,363
40.36390,-0.01103,0.16783,0.00000,0.03306,0.98015,-0.15982,0.0,2023,6,7,13,58,36,373
40.36400,-0.20353,0.22032,0.00000,0.03245,0.98015,-0.15860,0.0,2023,6,7,13,58,36,383
40.36410,0.07647,0.11533,0.00000,0.03306,0.98186,-0.16421,0.0,2023,6,7,13,58,36,393
40.36420,0.18147,-0.21718,0.00000,0.03489,0.98173,-0.16348,0.0,2023,6,7,13,58,36,403
40.36430,0.16397,-0.12967,0.00000,0.03343,0.98088,-0.16385,0.0,2023,6,7,13,58,36,413
40.36440,0.11147,0.06283,0.00000,0.03465,0.98173,-0.16287,0.0,2023,6,7,13,58,36,423
40.36450,-0.04603,-0.18217,0.00000,0.03343,0.98271,-0.16092,0.0,2023,6,7,13,58,36,433
40.36460,-0.04603,-0.05967,0.00000,0.03538,0.97942,-0.16287,0.0,2023,6,7,13,58,36,443
40.36470,-0.02853,-0.09467,0.00000,0.03257,0.98210,-0.16263,0.0,2023,6,7,13,58,36,453
40.36480,-0.09853,-0.14717,0.00000,0.03209,0.98198,-0.16128,0.0,2023,6,7,13,58,36,463
40.36490,-0.09853,0.09783,0.00000,0.03282,0.98356,-0.16128,0.0,2023,6,7,13,58,36,473
40.36500,-0.13353,-0.09467,0.00000,0.03294,0.98125,-0.16226,0.0,2023,6,7,13,58,36,483
40.36510,-0.13353,0.01032,0.00000,0.03184,0.98430,-0.16055,0.0,2023,6,7,13,58,36,493
40.36520,0.11147,-0.05967,0.00000,0.03294,0.98100,-0.16202,0.0,2023,6,7,13,58,36,503
40.36530,0.11147,0.11533,0.00000,0.03404,0.97929,-0.16690,0.0,2023,6,7,13,58,36,513
40.36540,0.11147,-0.07717,0.00000,0.03489,0.98149,-0.16250,0.0,2023,6,7,13,58,36,523
40.36550,-0.29103,0.06283,0.00000,0.03282,0.97978,-0.15945,0.0,2023,6,7,13,58,36,533
40.36560,-0.09853,0.06283,0.00000,0.03160,0.98039,-0.16165,0.0,2023,6,7,13,58,36,543
40.36570,0.09397,-0.07717,0.00000,0.03026,0.98381,-0.16324,0.0,2023,6,7,13,58,36,553
40.36580,-0.06353,-0.00717,0.00000,0.03355,0.98173,-0.16202,0.0,2023,6,7,13,58,36,563
40.36590,0.00647,-0.18217,0.00000,0.03306,0.98295,-0.15982,0.0,2023,6,7,13,58,36,573
40.36600,-0.01103,0.02782,0.00000,0.03367,0.98417,-0.16043,0.0,2023,6,7,13,58,36,583
40.36610,-0.04603,-0.04217,0.00000,0.03428,0.98039,-0.16324,0.0,2023,6,7,13,58,36,593
40.36620,0.12897,0.08033,0.00000,0.03221,0.97966,-0.16202,0.0,2023,6,7,13,58,36,603
40.36630,0.04147,0.02782,0.00000,0.03135,0.98173,-0.15945,0.0,2023,6,7,13,58,36,613
40.36640,0.18147,-0.12967,0.00000,0.03306,0.98186,-0.15811,0.0,2023,6,7,13,58,36,623
40.36650,-0.02853,-0.19968,0.00000,0.03343,0.98308,-0.16287,0.0,2023,6,7,13,58,36,633
40.36660,0.07647,-0.11217,0.00000,0.03172,0.98112,-0.16299,0.0,2023,6,7,13,58,36,643
40.36670,0.11147,-0.11217,0.00000,0.03111,0.98076,-0.16372,0.0,2023,6,7,13,58,36,653
40.36680,-0.08103,0.01032,0.00000,0.03306,0.97990,-0.16141,0.0,2023,6,7,13,58,36,663
40.36690,-0.02853,-0.00717,0.00000,0.03379,0.98320,-0.16275,0.0,2023,6,7,13,58,36,673
40.36700,-0.02853,0.06283,0.00000,0.03392,0.98210,-0.16141,0.0,2023,6,7,13,58,36,683
40.36710,-0.06353,0.04533,0.00000,0.03294,0.98259,-0.16177,0.0,2023,6,7,13,58,36,693
40.36720,0.14647,-0.16467,0.00000,0.03050,0.98271,-0.16336,0.0,2023,6,7,13,58,36,703
40.36730,-0.09853,-0.00717,0.00000,0.03221,0.98222,-0.16482,0.0,2023,6,7,13,58,36,713
40.36740,0.07647,-0.16467,0.00000,0.03379,0.97990,-0.16360,0.0,2023,6,7,13,58,36,723
40.36750,-0.04603,-0.07717,0.00000,0.03501,0.98015,-0.16189,0.0,2023,6,7,13,58,36,733
40.36760,0.00647,-0.07717,0.00000,0.03270,0.98100,-0.16421,0.0,2023,6,7,13,58,36,743
40.36770,0.05897,-0.04217,0.00000,0.03233,0.97978,-0.16287,0.0,2023,6,7,13,58,36,753
40.36780,-0.09853,-0.02467,0.00000,0.03318,0.98027,-0.16165,0.0,2023,6,7,13,58,36,763
40.36790,0.19897,-0.04217,0.00000,0.03245,0.98039,-0.16336,0.0,2023,6,7,13,58,36,773
40.36800,-0.29103,0.04533,0.00000,0.03477,0.98039,-0.16275,0.0,2023,6,7,13,58,36,783
40.36810,0.07647,0.02782,0.00000,0.03477,0.97905,-0.16214,0.0,2023,6,7,13,58,36,793
40.36820,0.02397,-0.02467,0.00000,0.03282,0.98064,-0.16238,0.0,2023,6,7,13,58,36,803
40.36830,-0.11603,-0.02467,0.00000,0.03294,0.98100,-0.16165,0.0,2023,6,7,13,58,36,813
40.36840,-0.11603,0.13283,0.00000,0.03453,0.98332,-0.16092,0.0,2023,6,7,13,58,36,823
40.36850,0.04147,0.02782,0.00000,0.03050,0.98039,-0.16214,0.0,2023,6,7,13,58,36,833
40.36860,-0.01103,-0.33967,0.00000,0.03001,0.98100,-0.16482,0.0,2023,6,7,13,58,36,843
40.36870,-0.18603,0.01032,0.00000,0.03209,0.98076,-0.16555,0.0,2023,6,7,13,58,36,853
40.36880,-0.15103,0.11533,0.00000,0.03184,0.98259,-0.16263,0.0,2023,6,7,13,58,36,863
40.36890,-0.06353,-0.19968,0.00000,0.03465,0.98283,-0.16055,0.0,2023,6,7,13,58,36,873
40.36900,0.30397,0.11533,0.00000,0.03099,0.97856,-0.16275,0.0,2023,6,7,13,58,36,883
40.36910,0.02397,-0.11217,0.00000,0.03233,0.98088,-0.16275,0.0,2023,6,7,13,58,36,893
40.36920,0.14647,-0.00717,0.00000,0.03331,0.98186,-0.16287,0.0,2023,6,7,13,58,36,903
40.36930,0.16397,-0.00717,0.00000,0.03209,0.98210,-0.16494,0.0,2023,6,7,13,58,36,913
40.36940,-0.15103,-0.00717,0.00000,0.03294,0.98381,-0.16409,0.0,2023,6,7,13,58,36,923
40.36950,-0.06353,-0.02467,0.00000,0.02989,0.97990,-0.16263,0.0,2023,6,7,13,58,36,933
40.36960,-0.06353,0.02782,0.00000,0.03221,0.98112,-0.16446,0.0,2023,6,7,13,58,36,943
40.36970,0.21647,-0.14717,0.00000,0.03062,0.97893,-0.16006,0.0,2023,6,7,13,58,36,953
40.36980,0.00647,0.06283,0.00000,0.03379,0.98186,-0.16482,0.0,2023,6,7,13,58,36,963
40.36990,0.05897,-0.00717,0.00000,0.03099,0.98222,-0.16324,0.0,2023,6,7,13,58,36,973
40.37000,-0.01103,0.23782,0.00000,0.03087,0.98198,-0.16311,0.0,2023,6,7,13,58,36,983
40.37010,-0.02853,-0.11217,0.00000,0.03343,0.98222,-0.16189,0.0,2023,6,7,13,58,36,993
40.37020,0.14647,-0.00717,0.00000,0.03233,0.98051,-0.16238,0.0,2023,6,7,13,58,36,3
40.37030,-0.11603,0.16783,0.00000,0.03404,0.98039,-0.16299,0.0,2023,6,7,13,58,36,13
40.37040,-0.09853,-0.23467,0.00000,0.03245,0.98137,-0.16153,0.0,2023,6,7,13,58,36,23
40.37050,0.14647,-0.28717,0.00000,0.03343,0.98125,-0.16116,0.0,2023,6,7,13,58,36,33
40.37060,-0.15103,0.18533,0.00000,0.03331,0.98137,-0.16165,0.0,2023,6,7,13,58,36,43
40.37070,-0.02853,-0.05967,0.00000,0.03184,0.98222,-0.16433,0.0,2023,6,7,13,58,36,53
40.37080,-0.01103,-0.04217,0.00000,0.03160,0.98027,-0.16287,0.0,2023,6,7,13,58,36,63
40.37090,-0.30853,-0.21718,0.00000,0.03331,0.98027,-0.16299,0.0,2023,6,7,13,58,36,73
40.37100,-0.09853,0.13283,0.00000,0.03416,0.98149,-0.16104,0.0,2023,6,7,13,58,36,83
40.37110,0.18147,-0.02467,0.00000,0.03501,0.97978,-0.16250,0.0,2023,6,7,13,58,36,93
40.37120,0.14647,-0.25217,0.00000,0.03135,0.98039,-0.16189,0.0,2023,6,7,13,58,36,103
40.37130,0.07647,0.02782,0.00000,0.03343,0.98234,-0.16421,0.0,2023,6,7,13,58,36,113
40.37140,-0.01103,-0.04217,0.00000,0.03318,0.98149,-0.16128,0.0,2023,6,7,13,58,36,123
40.37150,-0.04603,0.04533,0.00000,0.03282,0.98088,-0.16189,0.0,2023,6,7,13,58,36,133
40.37160,-0.13353,-0.02467,0.00000,0.03404,0.98247,-0.16092,0.0,2023,6,7,13,58,36,143
40.37170,-0.08103,0.16783,0.00000,0.03306,0.98210,-0.16092,0.0,2023,6,7,13,58,36,153
40.37180,0.00647,-0.18217,0.00000,0.03257,0.98125,-0.16019,0.0,2023,6,7,13,58,36,163
40.37190,0.19897,-0.05967,0.00000,0.03099,0.97905,-0.16458,0.0,2023,6,7,13,58,36,173
40.37200,-0.11603,-0.14717,0.00000,0.03379,0.98405,-0.16177,0.0,2023,6,7,13,58,36,183
40.37210,0.21647,-0.16467,0.00000,0.03282,0.98247,-0.16153,0.0,2023,6,7,13,58,36,193
40.37220,0.25147,-0.05967,0.00000,0.03294,0.98259,-0.16189,0.0,2023,6,7,13,58,36,203
40.37230,0.07647,-0.04217,0.00000,0.03355,0.98015,-0.16458,0.0,2023,6,7,13,58,36,213
40.37240,-0.09853,-0.00717,0.00000,0.03257,0.97990,-0.16519,0.0,2023,6,7,13,58,36,223
40.37250,-0.16853,0.09783,0.00000,0.03465,0.98222,-0.15787,0.0,2023,6,7,13,58,36,233
40.37260,-0.02853,0.09783,0.00000,0.03160,0.98417,-0.16287,0.0,2023,6,7,13,58,36,243
40.37270,0.02397,0.09783,0.00000,0.03282,0.98356,-0.16263,0.0,2023,6,7,13,58,37,253
40.37280,0.02397,-0.25217,0.00000,0.03343,0.98234,-0.16226,0.0,2023,6,7,13,58,37,263
40.37290,0.02397,0.15033,0.00000,0.03160,0.98186,-0.16019,0.0,2023,6,7,13,58,37,273
40.37300,-0.08103,0.20283,0.00000,0.03477,0.98137,-0.16214,0.0,2023,6,7,13,58,37,283
40.37310,-0.06353,-0.05967,0.00000,0.03184,0.98222,-0.16006,0.0,2023,6,7,13,58,37,293
40.37320,-0.15103,0.06283,0.00000,0.03379,0.98100,-0.16104,0.0,2023,6,7,13,58,37,303
40.37330,0.11147,-0.00717,0.00000,0.03306,0.97929,-0.16031,0.0,2023,6,7,13,58,37,313
40.37340,-0.16853,0.09783,0.00000,0.02989,0.98015,-0.16275,0.0,2023,6,7,13,58,37,323
40.37350,0.05897,-0.16467,0.00000,0.03111,0.98173,-0.16214,0.0,2023,6,7,13,58,37,333
40.37360,-0.04603,0.04533,0.00000,0.03489,0.98149,-0.16250,0.0,2023,6,7,13,58,37,343
40.37370,0.21647,-0.07717,0.00000,0.03148,0.98173,-0.16226,0.0,2023,6,7,13,58,37,353
40.37380,-0.04603,-0.04217,0.00000,0.03282,0.98137,-0.16299,0.0,2023,6,7,13,58,37,363
40.37390,0.07647,-0.11217,0.00000,0.03465,0.97881,-0.16299,0.0,2023,6,7,13,58,37,373
40.37400,0.04147,-0.04217,0.00000,0.03489,0.98271,-0.16189,0.0,2023,6,7,13,58,37,383
40.37410,0.00647,-0.37467,0.00000,0.03209,0.98112,-0.16080,0.0,2023,6,7,13,58,37,393
40.37420,-0.02853,-0.02467,0.00000,0.03428,0.98125,-0.16177,0.0,2023,6,7,13,58,37,403
40.37430,0.05897,0.01032,0.00000,0.03562,0.97881,-0.16202,0.0,2023,6,7,13,58,37,413
40.37440,0.00647,0.08033,0.00000,0.03270,0.98210,-0.16104,0.0,2023,6,7,13,58,37,423
40.37450,-0.06353,0.13283,0.00000,0.03355,0.98039,-0.16055,0.0,2023,6,7,13,58,37,433
40.37460,0.00647,0.09783,0.00000,0.03489,0.98173,-0.16202,0.0,2023,6,7,13,58,37,443
40.37470,0.00647,0.04533,0.00000,0.03843,0.98308,-0.16104,0.0,2023,6,7,13,58,37,453
40.37480,0.07647,-0.00717,0.00000,0.03233,0.98295,-0.16263,0.0,2023,6,7,13,58,37,463
40.37490,0.09397,-0.23467,0.00000,0.03331,0.98100,-0.16336,0.0,2023,6,7,13,58,37,473
40.37500,-0.04603,-0.09467,0.00000,0.03404,0.98064,-0.16031,0.0,2023,6,7,13,58,37,483
40.37510,-0.20353,-0.11217,0.00000,0.03440,0.98247,-0.16116,0.0,2023,6,7,13,58,37,493
40.37520,0.02397,-0.02467,0.00000,0.03306,0.98283,-0.16128,0.0,2023,6,7,13,58,37,503
40.37530,0.14647,0.01032,0.00000,0.03172,0.98222,-0.16189,0.0,2023,6,7,13,58,37,513
40.37540,0.04147,0.08033,0.00000,0.03306,0.98320,-0.16458,0.0,2023,6,7,13,58,37,523
40.37550,0.07647,-0.11217,0.00000,0.03270,0.98125,-0.16165,0.0,2023,6,7,13,58,37,533
40.37560,-0.04603,0.09783,0.00000,0.03379,0.98064,-0.16238,0.0,2023,6,7,13,58,37,543
40.37570,0.02397,0.04533,0.00000,0.03392,0.98381,-0.16336,0.0,2023,6,7,13,58,37,553
40.37580,0.09397,0.20283,0.00000,0.03599,0.98125,-0.16238,0.0,2023,6,7,13,58,37,563
40.37590,0.16397,-0.05967,0.00000,0.03392,0.98076,-0.16092,0.0,2023,6,7,13,58,37,573
40.37600,0.02397,0.13283,0.00000,0.03318,0.98003,-0.16189,0.0,2023,6,7,13,58,37,583
40.37610,0.21647,-0.32217,0.00000,0.03453,0.97893,-0.15994,0.0,2023,6,7,13,58,37,593
40.37620,-0.01103,-0.32217,0.00000,0.03404,0.98149,-0.16067,0.0,2023,6,7,13,58,37,603
40.37630,0.11147,-0.07717,0.00000,0.03233,0.98015,-0.16165,0.0,2023,6,7,13,58,37,613
40.37640,0.09397,-0.04217,0.00000,0.03428,0.98088,-0.15970,0.0,2023,6,7,13,58,37,623
40.37650,0.14647,-0.18217,0.00000,0.03331,0.98320,-0.16275,0.0,2023,6,7,13,58,37,633
40.37660,0.05897,-0.07717,0.00000,0.03282,0.98259,-0.16409,0.0,2023,6,7,13,58,37,643
40.37670,0.02397,-0.04217,0.00000,0.03562,0.98003,-0.16263,0.0,2023,6,7,13,58,37,653
40.37680,-0.18603,-0.05967,0.00000,0.03453,0.98271,-0.15958,0.0,2023,6,7,13,58,37,663
40.37690,-0.20353,0.02782,0.00000,0.03233,0.98039,-0.16153,0.0,2023,6,7,13,58,37,673
40.37700,0.05897,-0.07717,0.00000,0.03562,0.98051,-0.16324,0.0,2023,6,7,13,58,37,683
40.37710,0.30397,-0.11217,0.00000,0.03184,0.98259,-0.16385,0.0,2023,6,7,13,58,37,693
40.37720,0.04147,-0.07717,0.00000,0.03489,0.98173,-0.16336,0.0,2023,6,7,13,58,37,703
40.37730,0.12897,-0.18217,0.00000,0.03233,0.98039,-0.16153,0.0,2023,6,7,13,58,37,713
40.37740,0.05897,-0.09467,0.00000,0.03099,0.98137,-0.16019,0.0,2023,6,7,13,58,37,723
40.37750,-0.02853,0.22032,0.00000,0.03270,0.98369,-0.16104,0.0,2023,6,7,13,58,37,733
40.37760,0.04147,-0.02467,0.00000,0.03379,0.98088,-0.16250,0.0,2023,6,7,13,58,37,743
40.37770,0.02397,-0.14717,0.00000,0.03404,0.97929,-0.16665,0.0,2023,6,7,13,58,37,753
40.37780,0.12897,0.04533,0.00000,0.03257,0.98088,-0.16299,0.0,2023,6,7,13,58,37,763
40.37790,0.07647,-0.05967,0.00000,0.03196,0.98003,-0.16141,0.0,2023,6,7,13,58,37,773
40.37800,-0.08103,-0.00717,0.00000,0.03270,0.98088,-0.16092,0.0,2023,6,7,13,58,37,783
40.37810,0.02397,-0.04217,0.00000,0.03270,0.98112,-0.15775,0.0,2023,6,7,13,58,37,793
40.37820,0.00647,-0.11217,0.00000,0.03270,0.98381,-0.16348,0.0,2023,6,7,13,58,37,803
40.37830,-0.04603,-0.11217,0.00000,0.03160,0.98332,-0.16116,0.0,2023,6,7,13,58,37,813
40.37840,0.05897,-0.04217,0.00000,0.03440,0.98198,-0.16250,0.0,2023,6,7,13,58,37,823
40.37850,0.02397,0.01032,0.00000,0.03282,0.98015,-0.16604,0.0,2023,6,7,13,58,37,833
40.37860,0.11147,0.02782,0.00000,0.03355,0.98210,-0.16458,0.0,2023,6,7,13,58,37,843
40.37870,-0.02853,-0.16467,0.00000,0.03111,0.98076,-0.16031,0.0,2023,6,7,13,58,37,853
40.37880,0.04147,-0.11217,0.00000,0.03282,0.98234,-0.16311,0.0,2023,6,7,13,58,37,863
40.37890,0.00647,-0.02467,0.00000,0.03257,0.98369,-0.16226,0.0,2023,6,7,13,58,37,873
40.37900,-0.09853,-0.09467,0.00000,0.03233,0.98210,-0.16531,0.0,2023,6,7,13,58,37,883
40.37910,-0.06353,0.08033,0.00000,0.03282,0.98222,-0.15982,0.0,2023,6,7,13,58,37,893
40.37920,-0.02853,-0.05967,0.00000,0.03257,0.98125,-0.16006,0.0,2023,6,7,13,58,37,903
40.37930,0.02397,0.01032,0.00000,0.03404,0.97966,-0.16238,0.0,2023,6,7,13,58,37,913
40.37940,-0.01103,-0.05967,0.00000,0.03331,0.98271,-0.15921,0.0,2023,6,7,13,58,37,923
40.37950,0.11147,-0.07717,0.00000,0.03294,0.98088,-0.16324,0.0,2023,6,7,13,58,37,933
40.37960,-0.02853,0.02782,0.00000,0.03355,0.98064,-0.16226,0.0,2023,6,7,13,58,37,943
40.37970,0.14647,-0.14717,0.00000,0.03257,0.98015,-0.15787,0.0,2023,6,7,13,58,37,953
40.37980,0.00647,0.01032,0.00000,0.03184,0.98198,-0.16250,0.0,2023,6,7,13,58,37,963
40.37990,0.00647,0.04533,0.00000,0.03221,0.98186,-0.16397,0.0,2023,6,7,13,58,37,973
40.38000,-0.11603,-0.14717,0.00000,0.03477,0.98210,-0.16299,0.0,2023,6,7,13,58,37,983
40.38010,0.16397,-0.16467,0.00000,0.03294,0.98210,-0.16165,0.0,2023,6,7,13,58,37,993
40.38020,0.04147,0.06283,0.00000,0.03331,0.98100,-0.16397,0.0,2023,6,7,13,58,37,3
40.38030,-0.08103,-0.07717,0.00000,0.03477,0.98320,-0.16092,0.0,2023,6,7,13,58,37,13
40.38040,0.12897,-0.23467,0.00000,0.03294,0.98369,-0.16214,0.0,2023,6,7,13,58,37,23
40.38050,0.11147,-0.07717,0.00000,0.03392,0.97978,-0.16043,0.0,2023,6,7,13,58,37,33
40.38060,-0.02853,0.08033,0.00000,0.03233,0.98039,-0.15933,0.0,2023,6,7,13,58,37,43
40.38070,0.04147,-0.11217,0.00000,0.03196,0.98064,-0.15994,0.0,2023,6,7,13,58,37,53
40.38080,-0.01103,-0.14717,0.00000,0.03416,0.97942,-0.16287,0.0,2023,6,7,13,58,37,63
40.38090,-0.08103,0.22032,0.00000,0.03270,0.98271,-0.16324,0.0,2023,6,7,13,58,37,73
40.38100,0.07647,-0.09467,0.00000,0.03282,0.98149,-0.16299,0.0,2023,6,7,13,58,37,83
40.38110,0.02397,-0.12967,0.00000,0.03245,0.98161,-0.16214,0.0,2023,6,7,13,58,37,93
40.38120,0.00647,-0.32217,0.00000,0.03282,0.98344,-0.15982,0.0,2023,6,7,13,58,37,103
40.38130,-0.16853,0.13283,0.00000,0.03257,0.98088,-0.16238,0.0,2023,6,7,13,58,37,113
40.38140,-0.06353,0.09783,0.00000,0.03294,0.98100,-0.16141,0.0,2023,6,7,13,58,37,123
40.38150,0.00647,-0.12967,0.00000,0.03379,0.98295,-0.16202,0.0,2023,6,7,13,58,37,133
40.38160,-0.06353,0.08033,0.00000,0.03514,0.98015,-0.16043,0.0,2023,6,7,13,58,38,143
40.38170,-0.23853,-0.07717,0.00000,0.03367,0.98076,-0.15921,0.0,2023,6,7,13,58,38,153
40.38180,0.11147,-0.04217,0.00000,0.03196,0.98356,-0.16189,0.0,2023,6,7,13,58,38,163
40.38190,-0.04603,-0.07717,0.00000,0.03404,0.98320,-0.16275,0.0,2023,6,7,13,58,38,173
40.38200,0.05897,0.20283,0.00000,0.03562,0.98442,-0.16226,0.0,2023,6,7,13,58,38,183
40.38210,0.19897,-0.11217,0.00000,0.03172,0.98442,-0.16092,0.0,2023,6,7,13,58,38,193
40.38220,0.16397,0.09783,0.00000,0.03270,0.97978,-0.16324,0.0,2023,6,7,13,58,38,203
40.38230,-0.08103,0.08033,0.00000,0.03477,0.98222,-0.16238,0.0,2023,6,7,13,58,38,213
40.38240,0.07647,-0.21718,0.00000,0.03514,0.98405,-0.16214,0.0,2023,6,7,13,58,38,223
40.38250,0.19897,-0.04217,0.00000,0.03367,0.97978,-0.16226,0.0,2023,6,7,13,58,38,233
40.38260,0.09397,-0.05967,0.00000,0.03367,0.98308,-0.16116,0.0,2023,6,7,13,58,38,243
40.38270,0.09397,-0.07717,0.00000,0.03440,0.98393,-0.16189,0.0,2023,6,7,13,58,38,253
40.38280,0.25147,-0.19968,0.00000,0.03245,0.97844,-0.16568,0.0,2023,6,7,13,58,38,263
40.38290,-0.01103,-0.14717,0.00000,0.03318,0.98003,-0.16202,0.0,2023,6,7,13,58,38,273
40.38300,0.26897,-0.04217,0.00000,0.03306,0.98344,-0.16116,0.0,2023,6,7,13,58,38,283
40.38310,0.09397,-0.04217,0.00000,0.03501,0.98247,-0.16214,0.0,2023,6,7,13,58,38,293
40.38320,0.00647,0.15033,0.00000,0.03318,0.97832,-0.16372,0.0,2023,6,7,13,58,38,303
40.38330,0.07647,0.04533,0.00000,0.03209,0.98039,-0.16324,0.0,2023,6,7,13,58,38,313
40.38340,-0.01103,-0.12967,0.00000,0.03270,0.98234,-0.16141,0.0,2023,6,7,13,58,38,323
40.38350,-0.06353,-0.11217,0.00000,0.03465,0.98125,-0.16092,0.0,2023,6,7,13,58,38,333
40.38360,0.00647,0.20283,0.00000,0.03331,0.98210,-0.16128,0.0,2023,6,7,13,58,38,343
40.38370,-0.06353,-0.02467,0.00000,0.03172,0.98247,-0.16214,0.0,2023,6,7,13,58,38,353
40.38380,0.16397,-0.30467,0.00000,0.03306,0.98051,-0.16177,0.0,2023,6,7,13,58,38,363
40.38390,0.05897,-0.11217,0.00000,0.03526,0.98076,-0.16141,0.0,2023,6,7,13,58,38,373
40.38400,0.25147,-0.25217,0.00000,0.03294,0.98405,-0.16104,0.0,2023,6,7,13,58,38,383
40.38410,0.00647,-0.00717,0.00000,0.03318,0.98283,-0.16263,0.0,2023,6,7,13,58,38,393
40.38420,0.11147,0.23782,0.00000,0.03453,0.98149,-0.16348,0.0,2023,6,7,13,58,38,403
40.38430,0.16397,-0.02467,0.00000,0.03221,0.98064,-0.16202,0.0,2023,6,7,13,58,38,413
40.38440,0.09397,-0.04217,0.00000,0.03355,0.98271,-0.16214,0.0,2023,6,7,13,58,38,423
40.38450,0.04147,-0.00717,0.00000,0.03209,0.98112,-0.16202,0.0,2023,6,7,13,58,38,433
40.38460,0.07647,-0.00717,0.00000,0.03209,0.98039,-0.16153,0.0,2023,6,7,13,58,38,443
40.38470,0.14647,-0.04217,0.00000,0.03331,0.98271,-0.16067,0.0,2023,6,7,13,58,38,453
40.38480,0.11147,-0.18217,0.00000,0.03294,0.98051,-0.16080,0.0,2023,6,7,13,58,38,463
40.38490,0.16397,-0.12967,0.00000,0.03318,0.97990,-0.16372,0.0,2023,6,7,13,58,38,473
40.38500,0.28647,-0.25217,0.00000,0.03233,0.98161,-0.16385,0.0,2023,6,7,13,58,38,483
40.38510,-0.15103,0.02782,0.00000,0.03087,0.98064,-0.16189,0.0,2023,6,7,13,58,38,493
40.38520,0.07647,0.18533,0.00000,0.03257,0.98234,-0.16214,0.0,2023,6,7,13,58,38,503
40.38530,0.14647,-0.28717,0.00000,0.03233,0.98454,-0.16238,0.0,2023,6,7,13,58,38,513
40.38540,-0.08103,0.15033,0.00000,0.03111,0.98442,-0.16372,0.0,2023,6,7,13,58,38,523
40.38550,-0.15103,0.13283,0.00000,0.03355,0.98125,-0.16128,0.0,2023,6,7,13,58,38,533
40.38560,-0.01103,0.01032,0.00000,0.03428,0.98100,-0.15872,0.0,2023,6,7,13,58,38,543
40.38570,0.09397,-0.14717,0.00000,0.03465,0.98161,-0.16006,0.0,2023,6,7,13,58,38,553
40.38580,0.05897,0.04533,0.00000,0.03465,0.98003,-0.16153,0.0,2023,6,7,13,58,38,563
40.38590,-0.06353,0.04533,0.00000,0.03123,0.98051,-0.16141,0.0,2023,6,7,13,58,38,573
40.38600,-0.02853,-0.04217,0.00000,0.03514,0.98247,-0.16324,0.0,2023,6,7,13,58,38,583
40.38610,-0.13353,-0.02467,0.00000,0.03233,0.98064,-0.16031,0.0,2023,6,7,13,58,38,593
40.38620,-0.06353,0.22032,0.00000,0.03270,0.97990,-0.16238,0.0,2023,6,7,13,58,38,603
40.38630,-0.13353,-0.04217,0.00000,0.03428,0.97783,-0.16092,0.0,2023,6,7,13,58,38,613
40.38640,-0.06353,0.11533,0.00000,0.03196,0.98222,-0.16153,0.0,2023,6,7,13,58,38,623
40.38650,0.11147,-0.19968,0.00000,0.03318,0.97942,-0.16531,0.0,2023,6,7,13,58,38,633
40.38660,0.04147,-0.16467,0.00000,0.03367,0.98454,-0.16128,0.0,2023,6,7,13,58,38,643
40.38670,0.07647,0.04533,0.00000,0.03501,0.98393,-0.16275,0.0,2023,6,7,13,58,38,653
40.38680,0.02397,-0.32217,0.00000,0.03599,0.98295,-0.16116,0.0,2023,6,7,13,58,38,663
40.38690,-0.15103,-0.14717,0.00000,0.03282,0.98015,-0.16067,0.0,2023,6,7,13,58,38,673
40.38700,-0.02853,-0.07717,0.00000,0.03196,0.98112,-0.16006,0.0,2023,6,7,13,58,38,683
40.38710,0.07647,0.08033,0.00000,0.03306,0.97966,-0.16055,0.0,2023,6,7,13,58,38,693
40.38720,0.05897,-0.04217,0.00000,0.03331,0.98039,-0.16031,0.0,2023,6,7,13,58,38,703
40.38730,0.09397,0.08033,0.00000,0.03196,0.98100,-0.16397,0.0,2023,6,7,13,58,38,713
40.38740,-0.01103,0.20283,0.00000,0.03416,0.98112,-0.16397,0.0,2023,6,7,13,58,38,723
40.38750,0.02397,-0.18217,0.00000,0.03135,0.98064,-0.16031,0.0,2023,6,7,13,58,38,733
40.38760,-0.13353,-0.02467,0.00000,0.03209,0.98173,-0.16153,0.0,2023,6,7,13,58,38,743
40.38770,0.02397,-0.07717,0.00000,0.03331,0.98149,-0.16080,0.0,2023,6,7,13,58,38,753
40.38780,0.07647,-0.09467,0.00000,0.03294,0.98344,-0.16275,0.0,2023,6,7,13,58,38,763
40.38790,-0.11603,0.06283,0.00000,0.03318,0.98161,-0.16202,0.0,2023,6,7,13,58,38,773
40.38800,0.11147,0.04533,0.00000,0.03209,0.98295,-0.16226,0.0,2023,6,7,13,58,38,783
40.38810,0.02397,-0.02467,0.00000,0.03514,0.98283,-0.16189,0.0,2023,6,7,13,58,38,793
40.38820,-0.11603,-0.09467,0.00000,0.03453,0.98064,-0.16043,0.0,2023,6,7,13,58,38,803
40.38830,-0.18603,-0.00717,0.00000,0.03270,0.98027,-0.16238,0.0,2023,6,7,13,58,38,813
40.38840,-0.06353,0.09783,0.00000,0.03318,0.98064,-0.16348,0.0,2023,6,7,13,58,38,823
40.38850,0.00647,0.09783,0.00000,0.03416,0.98198,-0.16250,0.0,2023,6,7,13,58,38,833
40.38860,-0.01103,-0.02467,0.00000,0.03062,0.98222,-0.15970,0.0,2023,6,7,13,58,38,843
40.38870,0.00647,-0.28717,0.00000,0.03221,0.98173,-0.16385,0.0,2023,6,7,13,58,38,853
40.38880,0.02397,0.09783,0.00000,0.03440,0.98076,-0.16287,0.0,2023,6,7,13,58,38,863
40.38890,0.21647,-0.19968,0.00000,0.03245,0.98076,-0.16287,0.0,2023,6,7,13,58,38,873
40.38900,0.02397,-0.05967,0.00000,0.03209,0.98210,-0.16104,0.0,2023,6,7,13,58,38,883
40.38910,0.00647,-0.19968,0.00000,0.03221,0.98234,-0.16043,0.0,2023,6,7,13,58,38,893
40.38920,0.05897,-0.09467,0.00000,0.03245,0.98295,-0.16372,0.0,2023,6,7,13,58,38,903
40.38930,-0.06353,-0.21718,0.00000,0.03123,0.97966,-0.16360,0.0,2023,6,7,13,58,38,913
40.38940,0.00647,-0.07717,0.00000,0.03331,0.98015,-0.16299,0.0,2023,6,7,13,58,38,923
40.38950,-0.04603,-0.11217,0.00000,0.03135,0.98051,-0.15970,0.0,2023,6,7,13,58,38,933
40.38960,-0.08103,-0.11217,0.00000,0.03270,0.98149,-0.16311,0.0,2023,6,7,13,58,38,943
40.38970,0.14647,-0.09467,0.00000,0.03282,0.98015,-0.16238,0.0,2023,6,7,13,58,38,953
40.38980,-0.08103,-0.02467,0.00000,0.03465,0.98271,-0.16128,0.0,2023,6,7,13,58,38,963
40.38990,0.02397,0.13283,0.00000,0.03440,0.98369,-0.16385,0.0,2023,6,7,13,58,38,973
40.39000,-0.11603,-0.02467,0.00000,0.03355,0.98137,-0.16141,0.0,2023,6,7,13,58,38,983
40.39010,-0.01103,-0.14717,0.00000,0.03550,0.98125,-0.15945,0.0,2023,6,7,13,58,38,993
40.39020,0.11147,0.02782,0.00000,0.03379,0.98234,-0.16006,0.0,2023,6,7,13,58,38,3
40.39030,-0.01103,0.15033,0.00000,0.03416,0.98271,-0.16531,0.0,2023,6,7,13,58,38,13
40.39040,0.00647,0.09783,0.00000,0.03501,0.98112,-0.16202,0.0,2023,6,7,13,58,38,23
40.39050,-0.22103,0.25533,0.00000,0.03294,0.98234,-0.15799,0.0,2023,6,7,13,58,39,33
40.39060,0.11147,-0.12967,0.00000,0.03257,0.98186,-0.16226,0.0,2023,6,7,13,58,39,43
40.39070,0.07647,-0.09467,0.00000,0.03428,0.98247,-0.16104,0.0,2023,6,7,13,58,39,53
40.39080,0.05897,-0.14717,0.00000,0.03306,0.97868,-0.16409,0.0,2023,6,7,13,58,39,63
40.39090,-0.04603,-0.05967,0.00000,0.03331,0.98173,-0.16287,0.0,2023,6,7,13,58,39,73
40.39100,-0.09853,-0.12967,0.00000,0.03538,0.98173,-0.16165,0.0,2023,6,7,13,58,39,83
40.39110,-0.08103,0.02782,0.00000,0.03306,0.98015,-0.16006,0.0,2023,6,7,13,58,39,93
40.39120,0.14647,0.11533,0.00000,0.03233,0.98137,-0.16238,0.0,2023,6,7,13,58,39,103
40.39130,-0.13353,0.23782,0.00000,0.03343,0.97954,-0.16311,0.0,2023,6,7,13,58,39,113
40.39140,0.12897,-0.00717,0.00000,0.03270,0.97990,-0.16165,0.0,2023,6,7,13,58,39,123
40.39150,0.05897,-0.12967,0.00000,0.03196,0.98210,-0.16055,0.0,2023,6,7,13,58,39,133
40.39160,-0.11603,0.01032,0.00000,0.03294,0.98161,-0.16067,0.0,2023,6,7,13,58,39,143
40.39170,0.00647,-0.02467,0.00000,0.03270,0.98039,-0.16043,0.0,2023,6,7,13,58,39,153
40.39180,0.00647,-0.35717,0.00000,0.03392,0.98027,-0.16348,0.0,2023,6,7,13,58,39,163
40.39190,0.04147,0.13283,0.00000,0.03318,0.98173,-0.16104,0.0,2023,6,7,13,58,39,173
40.39200,-0.06353,-0.05967,0.00000,0.03318,0.98003,-0.16080,0.0,2023,6,7,13,58,39,183
40.39210,-0.06353,0.20283,0.00000,0.03379,0.98259,-0.16141,0.0,2023,6,7,13,58,39,193
40.39220,-0.04603,0.13283,0.00000,0.03343,0.98027,-0.16250,0.0,2023,6,7,13,58,39,203
40.39230,0.02397,-0.00717,0.00000,0.03538,0.98003,-0.16116,0.0,2023,6,7,13,58,39,213
40.39240,0.02397,0.02782,0.00000,0.03221,0.98064,-0.16153,0.0,2023,6,7,13,58,39,223
40.39250,0.07647,-0.12967,0.00000,0.03270,0.97942,-0.16067,0.0,2023,6,7,13,58,39,233
40.39260,0.09397,-0.02467,0.00000,0.03270,0.98247,-0.15958,0.0,2023,6,7,13,58,39,243
40.39270,0.00647,-0.07717,0.00000,0.03270,0.98149,-0.16287,0.0,2023,6,7,13,58,39,253
40.39280,-0.13353,-0.09467,0.00000,0.03233,0.98283,-0.16043,0.0,2023,6,7,13,58,39,263
40.39290,-0.11603,0.04533,0.00000,0.03526,0.98271,-0.16336,0.0,2023,6,7,13,58,39,273
40.39300,0.09397,-0.11217,0.00000,0.03099,0.98271,-0.16055,0.0,2023,6,7,13,58,39,283
40.39310,0.05897,-0.02467,0.00000,0.03318,0.98015,-0.15970,0.0,2023,6,7,13,58,39,293
40.39320,0.04147,-0.00717,0.00000,0.03355,0.98247,-0.16177,0.0,2023,6,7,13,58,39,303
40.39330,0.19897,0.08033,0.00000,0.03489,0.98198,-0.15958,0.0,2023,6,7,13,58,39,313
40.39340,-0.09853,0.02782,0.00000,0.03282,0.98137,-0.16446,0.0,2023,6,7,13,58,39,323
40.39350,-0.01103,-0.21718,0.00000,0.03392,0.98137,-0.16116,0.0,2023,6,7,13,58,39,333
40.39360,0.07647,0.18533,0.00000,0.03367,0.98064,-0.16189,0.0,2023,6,7,13,58,39,343
40.39370,0.16397,-0.28717,0.00000,0.03343,0.98003,-0.15982,0.0,2023,6,7,13,58,39,353
40.39380,-0.18603,0.13283,0.00000,0.03306,0.98259,-0.16275,0.0,2023,6,7,13,58,39,363
40.39390,0.07647,-0.04217,0.00000,0.03465,0.98198,-0.16006,0.0,2023,6,7,13,58,39,373
40.39400,-0.15103,-0.11217,0.00000,0.03343,0.97942,-0.16067,0.0,2023,6,7,13,58,39,383
40.39410,0.21647,-0.16467,0.00000,0.03135,0.98344,-0.16006,0.0,2023,6,7,13,58,39,393
40.39420,0.05897,-0.04217,0.00000,0.03416,0.98003,-0.16031,0.0,2023,6,7,13,58,39,403
40.39430,-0.27353,0.08033,0.00000,0.03428,0.98112,-0.15909,0.0,2023,6,7,13,58,39,413
40.39440,0.02397,0.06283,0.00000,0.03416,0.98356,-0.16080,0.0,2023,6,7,13,58,39,423
40.39450,-0.11603,0.08033,0.00000,0.03392,0.98210,-0.16189,0.0,2023,6,7,13,58,39,433
40.39460,0.02397,0.02782,0.00000,0.03245,0.98295,-0.16067,0.0,2023,6,7,13,58,39,443
40.39470,-0.04603,0.15033,0.00000,0.03379,0.98064,-0.16202,0.0,2023,6,7,13,58,39,453
40.39480,0.09397,-0.05967,0.00000,0.03392,0.98149,-0.15970,0.0,2023,6,7,13,58,39,463
40.39490,0.00647,-0.14717,0.00000,0.03099,0.98088,-0.16165,0.0,2023,6,7,13,58,39,473
40.39500,0.00647,-0.18217,0.00000,0.03196,0.98344,-0.16019,0.0,2023,6,7,13,58,39,483
40.39510,-0.11603,0.20283,0.00000,0.03318,0.98112,-0.16287,0.0,2023,6,7,13,58,39,493
40.39520,-0.02853,-0.07717,0.00000,0.03428,0.98198,-0.16385,0.0,2023,6,7,13,58,39,503
40.39530,-0.09853,-0.12967,0.00000,0.03392,0.98039,-0.15714,0.0,2023,6,7,13,58,39,513
40.39540,0.02397,-0.19968,0.00000,0.03209,0.98234,-0.15762,0.0,2023,6,7,13,58,39,523
40.39550,0.04147,-0.16467,0.00000,0.03331,0.98344,-0.16043,0.0,2023,6,7,13,58,39,533
40.39560,0.04147,0.06283,0.00000,0.03331,0.98210,-0.15994,0.0,2023,6,7,13,58,39,543
40.39570,0.07647,-0.14717,0.00000,0.03343,0.98198,-0.16214,0.0,2023,6,7,13,58,39,553
40.39580,-0.16853,0.27283,0.00000,0.03489,0.97832,-0.16080,0.0,2023,6,7,13,58,39,563
40.39590,0.12897,-0.16467,0.00000,0.03282,0.98161,-0.16433,0.0,2023,6,7,13,58,39,573
40.39600,-0.02853,-0.04217,0.00000,0.03270,0.97942,-0.16177,0.0,2023,6,7,13,58,39,583
40.39610,0.21647,-0.00717,0.00000,0.03270,0.98344,-0.16202,0.0,2023,6,7,13,58,39,593
40.39620,-0.08103,-0.00717,0.00000,0.03233,0.98308,-0.16067,0.0,2023,6,7,13,58,39,603
40.39630,-0.18603,-0.05967,0.00000,0.03367,0.98051,-0.16202,0.0,2023,6,7,13,58,39,613
40.39640,0.12897,0.11533,0.00000,0.03367,0.98125,-0.16006,0.0,2023,6,7,13,58,39,623
40.39650,0.07647,-0.18217,0.00000,0.03196,0.98100,-0.16202,0.0,2023,6,7,13,58,39,633
40.39660,-0.06353,-0.02467,0.00000,0.03318,0.98112,-0.16092,0.0,2023,6,7,13,58,39,643
40.39670,0.11147,-0.11217,0.00000,0.03221,0.98125,-0.16031,0.0,2023,6,7,13,58,39,653
40.39680,-0.22103,0.06283,0.00000,0.03343,0.98210,-0.16153,0.0,2023,6,7,13,58,39,663
40.39690,-0.02853,0.09783,0.00000,0.03294,0.98234,-0.15909,0.0,2023,6,7,13,58,39,673
40.39700,-0.06353,0.22032,0.00000,0.03416,0.98173,-0.15933,0.0,2023,6,7,13,58,39,683
40.39710,0.18147,-0.05967,0.00000,0.03257,0.97917,-0.15897,0.0,2023,6,7,13,58,39,693
40.39720,-0.08103,0.23782,0.00000,0.03428,0.98161,-0.15836,0.0,2023,6,7,13,58,39,703
40.39730,0.07647,0.01032,0.00000,0.03209,0.98356,-0.16080,0.0,2023,6,7,13,58,39,713
40.39740,-0.06353,0.06283,0.00000,0.03221,0.98308,-0.16006,0.0,2023,6,7,13,58,39,723
40.39750,0.02397,-0.02467,0.00000,0.03294,0.98149,-0.16250,0.0,2023,6,7,13,58,39,733
40.39760,0.14647,-0.16467,0.00000,0.03172,0.97966,-0.16202,0.0,2023,6,7,13,58,39,743
40.39770,-0.02853,0.01032,0.00000,0.03440,0.98344,-0.16128,0.0,2023,6,7,13,58,39,753
40.39780,-0.04603,0.02782,0.00000,0.03270,0.98247,-0.16189,0.0,2023,6,7,13,58,39,763
40.39790,0.11147,0.01032,0.00000,0.03184,0.98332,-0.16226,0.0,2023,6,7,13,58,39,773
40.39800,0.14647,-0.12967,0.00000,0.03221,0.98186,-0.16238,0.0,2023,6,7,13,58,39,783
40.39810,0.19897,-0.19968,0.00000,0.03392,0.98051,-0.16214,0.0,2023,6,7,13,58,39,793
40.39820,0.00647,0.01032,0.00000,0.03416,0.98210,-0.16141,0.0,2023,6,7,13,58,39,803
40.39830,0.07647,-0.00717,0.00000,0.03379,0.98015,-0.16165,0.0,2023,6,7,13,58,39,813
40.39840,0.04147,0.06283,0.00000,0.03282,0.98137,-0.16372,0.0,2023,6,7,13,58,39,823
40.39850,0.07647,-0.02467,0.00000,0.03099,0.98259,-0.16275,0.0,2023,6,7,13,58,39,833
40.39860,-0.22103,0.01032,0.00000,0.03233,0.98088,-0.15921,0.0,2023,6,7,13,58,39,843
40.39870,0.04147,0.06283,0.00000,0.03257,0.97929,-0.16128,0.0,2023,6,7,13,58,39,853
40.39880,0.09397,0.04533,0.00000,0.03440,0.98405,-0.16067,0.0,2023,6,7,13,58,39,863
40.39890,0.00647,-0.07717,0.00000,0.03416,0.98039,-0.16092,0.0,2023,6,7,13,58,39,873
40.39900,0.09397,-0.04217,0.00000,0.03367,0.98259,-0.16287,0.0,2023,6,7,13,58,39,883
40.39910,-0.02853,-0.00717,0.00000,0.03355,0.98344,-0.16092,0.0,2023,6,7,13,58,39,893
40.39920,-0.04603,0.08033,0.00000,0.03660,0.97954,-0.16263,0.0,2023,6,7,13,58,39,903
40.39930,-0.02853,-0.11217,0.00000,0.03184,0.97929,-0.16214,0.0,2023,6,7,13,58,39,913
40.39940,0.09397,-0.11217,0.00000,0.03416,0.98112,-0.16263,0.0,2023,6,7,13,58,40,923
40.39950,0.21647,0.11533,0.00000,0.03331,0.98466,-0.16543,0.0,2023,6,7,13,58,40,933
40.39960,-0.06353,0.22032,0.00000,0.03379,0.98112,-0.16287,0.0,2023,6,7,13,58,40,943
40.39970,0.02397,-0.09467,0.00000,0.03282,0.97856,-0.16250,0.0,2023,6,7,13,58,40,953
40.39980,-0.09853,-0.07717,0.00000,0.03343,0.98222,-0.15970,0.0,2023,6,7,13,58,40,963
40.39990,0.07647,-0.16467,0.00000,0.03135,0.98149,-0.16275,0.0,2023,6,7,13,58,40,973
40.40000,0.19897,-0.02467,0.00000,0.03440,0.98503,-0.16202,0.0,2023,6,7,13,58,40,983
40.40010,0.11147,-0.14717,0.00000,0.03331,0.98039,-0.16104,0.0,2023,6,7,13,58,40,993
40.40020,0.02397,0.08033,0.00000,0.03660,0.98320,-0.16287,0.0,2023,6,7,13,58,40,3
40.40030,0.04147,-0.09467,0.00000,0.03148,0.98198,-0.16189,0.0,2023,6,7,13,58,40,13
40.40040,-0.08103,-0.02467,0.00000,0.03087,0.98003,-0.16080,0.0,2023,6,7,13,58,40,23
40.40050,0.14647,-0.16467,0.00000,0.03343,0.98222,-0.16202,0.0,2023,6,7,13,58,40,33
40.40060,0.00647,-0.05967,0.00000,0.03270,0.98112,-0.16336,0.0,2023,6,7,13,58,40,43
40.40070,-0.08103,-0.00717,0.00000,0.03294,0.98027,-0.16226,0.0,2023,6,7,13,58,40,53
40.40080,0.05897,-0.32217,0.00000,0.03514,0.97917,-0.16031,0.0,2023,6,7,13,58,40,63
40.40090,0.02397,-0.14717,0.00000,0.03135,0.98051,-0.16165,0.0,2023,6,7,13,58,40,73
40.40100,-0.06353,-0.07717,0.00000,0.03392,0.98112,-0.16055,0.0,2023,6,7,13,58,40,83
40.40110,-0.20353,-0.16467,0.00000,0.03209,0.97966,-0.16080,0.0,2023,6,7,13,58,40,93
40.40120,-0.09853,0.13283,0.00000,0.03343,0.98003,-0.16433,0.0,2023,6,7,13,58,40,103
40.40130,-0.06353,0.01032,0.00000,0.03562,0.98247,-0.16311,0.0,2023,6,7,13,58,40,113
40.40140,0.28647,-0.04217,0.00000,0.03379,0.98247,-0.16409,0.0,2023,6,7,13,58,40,123
40.40150,-0.15103,-0.02467,0.00000,0.03209,0.97990,-0.16263,0.0,2023,6,7,13,58,40,133
40.40160,-0.01103,0.08033,0.00000,0.03331,0.98076,-0.16189,0.0,2023,6,7,13,58,40,143
40.40170,-0.09853,0.16783,0.00000,0.03453,0.98247,-0.16214,0.0,2023,6,7,13,58,40,153
40.40180,0.33897,0.02782,0.00000,0.03209,0.98161,-0.16726,0.0,2023,6,7,13,58,40,163
40.40190,0.19897,-0.07717,0.00000,0.03477,0.98112,-0.16153,0.0,2023,6,7,13,58,40,173
40.40200,0.02397,0.06283,0.00000,0.03282,0.98503,-0.16080,0.0,2023,6,7,13,58,40,183
40.40210,-0.04603,-0.14717,0.00000,0.03245,0.98051,-0.16006,0.0,2023,6,7,13,58,40,193
40.40220,0.07647,0.29033,0.00000,0.03489,0.97978,-0.16067,0.0,2023,6,7,13,58,40,203
40.40230,0.04147,0.11533,0.00000,0.03111,0.98137,-0.16214,0.0,2023,6,7,13,58,40,213
40.40240,0.11147,0.02782,0.00000,0.03111,0.97917,-0.16043,0.0,2023,6,7,13,58,40,223
40.40250,-0.06353,-0.00717,0.00000,0.03379,0.98271,-0.16433,0.0,2023,6,7,13,58,40,233
40.40260,0.16397,-0.12967,0.00000,0.03379,0.98210,-0.16568,0.0,2023,6,7,13,58,40,243
40.40270,-0.02853,-0.02467,0.00000,0.03514,0.98320,-0.16104,0.0,2023,6,7,13,58,40,253
40.40280,0.14647,-0.11217,0.00000,0.03123,0.98356,-0.16165,0.0,2023,6,7,13,58,40,263
40.40290,0.02397,0.22032,0.00000,0.03233,0.98259,-0.15994,0.0,2023,6,7,13,58,40,273
40.40300,-0.06353,0.06283,0.00000,0.03294,0.98027,-0.16189,0.0,2023,6,7,13,58,40,283
40.40310,0.04147,0.02782,0.00000,0.03245,0.98247,-0.16360,0.0,2023,6,7,13,58,40,293
40.40320,-0.01103,-0.21718,0.00000,0.03196,0.98137,-0.16031,0.0,2023,6,7,13,58,40,303
40.40330,0.12897,-0.00717,0.00000,0.03404,0.98295,-0.16031,0.0,2023,6,7,13,58,40,313
40.40340,0.02397,0.02782,0.00000,0.03318,0.98015,-0.16067,0.0,2023,6,7,13,58,40,323
40.40350,0.09397,-0.02467,0.00000,0.03270,0.98051,-0.16055,0.0,2023,6,7,13,58,40,333
40.40360,0.07647,0.04533,0.00000,0.03514,0.98088,-0.16202,0.0,2023,6,7,13,58,40,343
40.40370,-0.13353,-0.02467,0.00000,0.03440,0.98100,-0.16226,0.0,2023,6,7,13,58,40,353
40.40380,0.18147,-0.04217,0.00000,0.03318,0.98088,-0.16360,0.0,2023,6,7,13,58,40,363
40.40390,0.05897,-0.02467,0.00000,0.03514,0.98003,-0.16458,0.0,2023,6,7,13,58,40,373
40.40400,0.16397,-0.25217,0.00000,0.03123,0.98247,-0.16531,0.0,2023,6,7,13,58,40,383
40.40410,0.16397,-0.26967,0.00000,0.03367,0.98210,-0.16116,0.0,2023,6,7,13,58,40,393
40.40420,0.19897,-0.28717,0.00000,0.03477,0.98076,-0.15994,0.0,2023,6,7,13,58,40,403
40.40430,-0.06353,0.01032,0.00000,0.03343,0.98344,-0.16275,0.0,2023,6,7,13,58,40,413
40.40440,-0.01103,0.06283,0.00000,0.03221,0.98222,-0.16397,0.0,2023,6,7,13,58,40,423
40.40450,-0.09853,0.13283,0.00000,0.03367,0.97917,-0.16067,0.0,2023,6,7,13,58,40,433
40.40460,-0.01103,0.16783,0.00000,0.03270,0.98039,-0.16177,0.0,2023,6,7,13,58,40,443
40.40470,0.11147,0.04533,0.00000,0.03233,0.98149,-0.16263,0.0,2023,6,7,13,58,40,453
40.40480,0.07647,-0.07717,0.00000,0.03038,0.98088,-0.16385,0.0,2023,6,7,13,58,40,463
40.40490,0.16397,-0.16467,0.00000,0.03465,0.98210,-0.15945,0.0,2023,6,7,13,58,40,473
40.40500,-0.06353,0.04533,0.00000,0.03209,0.98076,-0.16067,0.0,2023,6,7,13,58,40,483
40.40510,0.00647,-0.05967,0.00000,0.03331,0.98210,-0.16080,0.0,2023,6,7,13,58,40,493
40.40520,-0.01103,-0.04217,0.00000,0.03074,0.98015,-0.16275,0.0,2023,6,7,13,58,40,503
40.40530,0.11147,0.13283,0.00000,0.03306,0.98076,-0.16360,0.0,2023,6,7,13,58,40,513
40.40540,0.18147,-0.05967,0.00000,0.03257,0.98125,-0.15970,0.0,2023,6,7,13,58,40,523
40.40550,0.00647,-0.25217,0.00000,0.03209,0.98161,-0.16324,0.0,2023,6,7,13,58,40,533
40.40560,0.02397,-0.07717,0.00000,0.03172,0.98259,-0.16458,0.0,2023,6,7,13,58,40,543
40.40570,0.02397,-0.19968,0.00000,0.03209,0.97868,-0.16153,0.0,2023,6,7,13,58,40,553
40.40580,-0.02853,0.06283,0.00000,0.03196,0.98100,-0.16250,0.0,2023,6,7,13,58,40,563
40.40590,-0.18603,0.18533,0.00000,0.03416,0.97990,-0.16128,0.0,2023,6,7,13,58,40,573
40.40600,-0.04603,-0.02467,0.00000,0.03343,0.98320,-0.16165,0.0,2023,6,7,13,58,40,583
40.40610,0.04147,0.09783,0.00000,0.03379,0.98320,-0.15982,0.0,2023,6,7,13,58,40,593
40.40620,-0.04603,0.13283,0.00000,0.03501,0.98161,-0.16409,0.0,2023,6,7,13,58,40,603
40.40630,0.11147,-0.04217,0.00000,0.03148,0.98039,-0.16226,0.0,2023,6,7,13,58,40,613
40.40640,-0.09853,-0.02467,0.00000,0.03184,0.98283,-0.16275,0.0,2023,6,7,13,58,40,623
40.40650,-0.06353,0.06283,0.00000,0.03636,0.98088,-0.16299,0.0,2023,6,7,13,58,40,633
40.40660,-0.01103,0.09783,0.00000,0.03331,0.97978,-0.16080,0.0,2023,6,7,13,58,40,643
40.40670,0.11147,-0.00717,0.00000,0.03306,0.97966,-0.16409,0.0,2023,6,7,13,58,40,653
40.40680,-0.16853,0.13283,0.00000,0.03489,0.98064,-0.16055,0.0,2023,6,7,13,58,40,663
40.40690,-0.09853,0.01032,0.00000,0.03416,0.98186,-0.16299,0.0,2023,6,7,13,58,40,673
40.40700,-0.11603,0.02782,0.00000,0.03416,0.97905,-0.16482,0.0,2023,6,7,13,58,40,683
40.40710,0.02397,0.02782,0.00000,0.03343,0.98137,-0.16055,0.0,2023,6,7,13,58,40,693
40.40720,-0.09853,-0.05967,0.00000,0.03367,0.98417,-0.16153,0.0,2023,6,7,13,58,40,703
40.40730,-0.11603,0.06283,0.00000,0.03306,0.97966,-0.16104,0.0,2023,6,7,13,58,40,713
40.40740,0.04147,0.11533,0.00000,0.03440,0.98369,-0.16116,0.0,2023,6,7,13,58,40,723
40.40750,0.07647,0.02782,0.00000,0.03270,0.98234,-0.16165,0.0,2023,6,7,13,58,40,733
40.40760,0.09397,0.22032,0.00000,0.03270,0.98161,-0.16202,0.0,2023,6,7,13,58,40,743
40.40770,-0.01103,-0.25217,0.00000,0.03233,0.98064,-0.16202,0.0,2023,6,7,13,58,40,753
40.40780,0.07647,0.02782,0.00000,0.03294,0.98430,-0.16177,0.0,2023,6,7,13,58,40,763
40.40790,0.12897,0.06283,0.00000,0.03367,0.98064,-0.16299,0.0,2023,6,7,13,58,40,773
40.40800,0.23397,0.22032,0.00000,0.03526,0.98259,-0.15933,0.0,2023,6,7,13,58,40,783
40.40810,0.09397,-0.02467,0.00000,0.03355,0.98173,-0.16128,0.0,2023,6,7,13,58,40,793
40.40820,-0.04603,-0.21718,0.00000,0.03270,0.98137,-0.16055,0.0,2023,6,7,13,58,40,803
40.40830,-0.09853,-0.05967,0.00000,0.03575,0.97856,-0.16275,0.0,2023,6,7,13,58,40,813
40.40840,0.12897,-0.19968,0.00000,0.03343,0.98234,-0.16433,0.0,2023,6,7,13,58,40,823
40.40850,0.00647,-0.09467,0.00000,0.03013,0.98039,-0.16214,0.0,2023,6,7,13,58,41,833
40.40860,0.00647,-0.25217,0.00000,0.03355,0.98039,-0.15872,0.0,2023,6,7,13,58,41,843
40.40870,0.02397,-0.07717,0.00000,0.03270,0.98076,-0.16421,0.0,2023,6,7,13,58,41,853
40.40880,0.04147,-0.23467,0.00000,0.03148,0.98454,-0.16153,0.0,2023,6,7,13,58,41,863
40.40890,0.02397,-0.00717,0.00000,0.03209,0.98308,-0.16409,0.0,2023,6,7,13,58,41,873
40.40900,-0.18603,-0.19968,0.00000,0.03221,0.97990,-0.16031,0.0,2023,6,7,13,58,41,883
40.40910,-0.15103,-0.02467,0.00000,0.03221,0.98369,-0.16165,0.0,2023,6,7,13,58,41,893
40.40920,0.09397,-0.04217,0.00000,0.03294,0.98051,-0.16275,0.0,2023,6,7,13,58,41,903
40.40930,0.00647,0.06283,0.00000,0.03465,0.98039,-0.16189,0.0,2023,6,7,13,58,41,913
40.40940,0.05897,0.01032,0.00000,0.03160,0.98173,-0.16250,0.0,2023,6,7,13,58,41,923
40.40950,0.23397,-0.11217,0.00000,0.03477,0.98112,-0.16250,0.0,2023,6,7,13,58,41,933
40.40960,0.37397,-0.09467,0.00000,0.03501,0.98088,-0.16311,0.0,2023,6,7,13,58,41,943
40.40970,0.11147,-0.05967,0.00000,0.03453,0.98271,-0.16189,0.0,2023,6,7,13,58,41,953
40.40980,-0.09853,-0.11217,0.00000,0.03355,0.97990,-0.15933,0.0,2023,6,7,13,58,41,963
40.40990,-0.16853,-0.07717,0.00000,0.03331,0.98125,-0.16226,0.0,2023,6,7,13,58,41,973
40.41000,0.02397,-0.02467,0.00000,0.03514,0.98259,-0.16360,0.0,2023,6,7,13,58,41,983
40.41010,-0.09853,0.04533,0.00000,0.03514,0.98161,-0.16141,0.0,2023,6,7,13,58,41,993
40.41020,0.30397,-0.21718,0.00000,0.03367,0.98210,-0.16324,0.0,2023,6,7,13,58,41,3
40.41030,-0.04603,-0.04217,0.00000,0.03343,0.98112,-0.16104,0.0,2023,6,7,13,58,41,13
40.41040,0.05897,-0.07717,0.00000,0.03404,0.98015,-0.16153,0.0,2023,6,7,13,58,41,23
40.41050,0.16397,-0.04217,0.00000,0.03331,0.98503,-0.16019,0.0,2023,6,7,13,58,41,33
40.41060,-0.01103,-0.25217,0.00000,0.03465,0.98271,-0.16165,0.0,2023,6,7,13,58,41,43
40.41070,0.14647,-0.05967,0.00000,0.03404,0.97966,-0.16189,0.0,2023,6,7,13,58,41,53
40.41080,-0.08103,-0.16467,0.00000,0.03562,0.98320,-0.16031,0.0,2023,6,7,13,58,41,63
40.41090,-0.06353,0.08033,0.00000,0.03501,0.98247,-0.16324,0.0,2023,6,7,13,58,41,73
40.41100,-0.09853,-0.00717,0.00000,0.03367,0.97893,-0.15897,0.0,2023,6,7,13,58,41,83
40.41110,-0.06353,0.04533,0.00000,0.03367,0.98173,-0.16385,0.0,2023,6,7,13,58,41,93
40.41120,-0.01103,0.01032,0.00000,0.03074,0.98210,-0.16458,0.0,2023,6,7,13,58,41,103
40.41130,0.07647,-0.07717,0.00000,0.03245,0.97966,-0.16202,0.0,2023,6,7,13,58,41,113
40.41140,-0.15103,0.04533,0.00000,0.03306,0.98247,-0.16458,0.0,2023,6,7,13,58,41,123
40.41150,-0.06353,-0.04217,0.00000,0.03331,0.98417,-0.15897,0.0,2023,6,7,13,58,41,133
40.41160,0.04147,0.11533,0.00000,0.03392,0.98161,-0.16067,0.0,2023,6,7,13,58,41,143
40.41170,0.04147,0.06283,0.00000,0.03294,0.97868,-0.16311,0.0,2023,6,7,13,58,41,153
40.41180,0.26897,-0.00717,0.00000,0.03245,0.98222,-0.16458,0.0,2023,6,7,13,58,41,163
40.41190,-0.04603,-0.02467,0.00000,0.03343,0.98064,-0.16324,0.0,2023,6,7,13,58,41,173
40.41200,0.02397,-0.16467,0.00000,0.03550,0.98027,-0.16165,0.0,2023,6,7,13,58,41,183
#2023/06/07 13:58:41
