#2023/06/09 14:12:09
time,wx,wy,wz,ax,ay,az,yy,MM,dd,hh,mm,ss,ms
0.00000,3.04500,-4.60250,0.00000,0.00647,0.96758,-0.22143,2023,6,9,14,12,19,231
0.00010,2.90500,-4.58500,0.00000,0.00573,0.97149,-0.22448,2023,6,9,14,12,19,242
0.00020,2.99250,-4.49750,0.00000,0.00622,0.96734,-0.22338,2023,6,9,14,12,19,253
0.00030,3.08000,-4.77750,0.00000,0.00561,0.96648,-0.22387,2023,6,9,14,12,19,264
0.00040,3.02750,-4.77750,0.00000,0.00647,0.96856,-0.22436,2023,6,9,14,12,19,275
0.00050,2.88750,-4.48000,0.00000,0.00512,0.96270,-0.22289,2023,6,9,14,12,19,286
0.00060,2.87000,-4.41000,0.00000,0.00525,0.96807,-0.22155,2023,6,9,14,12,19,297
0.00070,3.01000,-4.60250,0.00000,0.00683,0.96844,-0.22472,2023,6,9,14,12,19,308
0.00080,2.99250,-4.60250,0.00000,0.00488,0.96429,-0.22216,2023,6,9,14,12,19,319
0.00090,3.15000,-4.39250,0.00000,0.00744,0.97051,-0.22045,2023,6,9,14,12,19,330
0.00100,3.09750,-4.67250,0.00000,0.00500,0.96392,-0.21826,2023,6,9,14,12,19,342
0.00110,2.95750,-4.41000,0.00000,0.00586,0.97027,-0.21997,2023,6,9,14,12,19,353
0.00120,2.73000,-4.48000,0.00000,0.00622,0.96941,-0.22119,2023,6,9,14,12,19,364
0.00130,3.04500,-4.53250,0.00000,0.00342,0.96099,-0.21984,2023,6,9,14,12,19,375
0.00140,3.15000,-4.58500,0.00000,0.00830,0.97039,-0.22009,2023,6,9,14,12,19,386
0.00150,3.06250,-4.60250,0.00000,0.00525,0.96490,-0.22131,2023,6,9,14,12,19,397
0.00160,3.06250,-4.20000,0.00000,0.00512,0.96551,-0.22119,2023,6,9,14,12,19,408
0.00170,3.06250,-4.56750,0.00000,0.00610,0.96929,-0.22314,2023,6,9,14,12,19,419
0.00180,3.06250,-4.44500,0.00000,0.00525,0.96356,-0.22204,2023,6,9,14,12,19,430
0.00190,3.16750,-4.74250,0.00000,0.00488,0.96868,-0.21997,2023,6,9,14,12,19,442
0.00200,3.01000,-4.53250,0.00000,0.00451,0.96990,-0.22302,2023,6,9,14,12,19,453
0.00210,3.01000,-4.35750,0.00000,0.00451,0.96453,-0.21728,2023,6,9,14,12,19,464
0.00220,2.94000,-4.41000,0.00000,0.00549,0.97124,-0.22033,2023,6,9,14,12,19,475
0.00230,3.08000,-4.63750,0.00000,0.00622,0.96966,-0.22058,2023,6,9,14,12,19,486
0.00240,3.15000,-4.53250,0.00000,0.00427,0.96258,-0.22216,2023,6,9,14,12,19,497
0.00250,3.06250,-4.55000,0.00000,0.00671,0.96941,-0.22302,2023,6,9,14,12,19,508
0.00260,3.01000,-4.65500,0.00000,0.00464,0.96465,-0.22119,2023,6,9,14,12,19,519
0.00270,3.04500,-4.41000,0.00000,0.00549,0.96966,-0.22253,2023,6,9,14,12,19,530
0.00280,2.92250,-4.56750,0.00000,0.00634,0.96722,-0.22021,2023,6,9,14,12,19,542
0.00290,2.94000,-4.63750,0.00000,0.00390,0.96075,-0.21997,2023,6,9,14,12,19,553
0.00300,3.02750,-4.48000,0.00000,0.00756,0.97039,-0.22399,2023,6,9,14,12,19,564
0.00310,3.09750,-4.70750,0.00000,0.00525,0.96697,-0.22411,2023,6,9,14,12,19,575
0.00320,3.01000,-4.51500,0.00000,0.00537,0.96465,-0.21899,2023,6,9,14,12,19,586
0.00330,2.80000,-4.58500,0.00000,0.00573,0.96978,-0.22277,2023,6,9,14,12,19,597
0.00340,3.02750,-4.63750,0.00000,0.00390,0.96356,-0.22509,2023,6,9,14,12,19,608
0.00350,3.16750,-4.63750,0.00000,0.00634,0.96868,-0.22228,2023,6,9,14,12,19,619
0.00360,2.83500,-4.48000,0.00000,0.00488,0.96905,-0.22436,2023,6,9,14,12,19,630
0.00370,2.94000,-4.81250,0.00000,0.00366,0.96307,-0.21923,2023,6,9,14,12,19,642
0.00380,3.11500,-4.53250,0.00000,0.00805,0.96844,-0.21923,2023,6,9,14,12,19,653
0.00390,3.15000,-4.62000,0.00000,0.00378,0.96966,-0.22411,2023,6,9,14,12,19,664
0.00400,3.09750,-4.65500,0.00000,0.00512,0.96966,-0.22070,2023,6,9,14,12,19,675
0.00410,2.97500,-4.53250,0.00000,0.00695,0.97051,-0.22253,2023,6,9,14,12,19,686
0.00420,3.06250,-4.53250,0.00000,0.00451,0.96539,-0.22058,2023,6,9,14,12,19,697
0.00430,2.95750,-4.27000,0.00000,0.00403,0.96600,-0.22070,2023,6,9,14,12,19,708
0.00440,3.04500,-4.42750,0.00000,0.00549,0.96844,-0.22167,2023,6,9,14,12,19,719
0.00450,3.11500,-4.34000,0.00000,0.00634,0.96612,-0.22253,2023,6,9,14,12,19,730
0.00460,3.01000,-4.63750,0.00000,0.00598,0.96844,-0.22131,2023,6,9,14,12,19,742
0.00470,2.85250,-4.37500,0.00000,0.00732,0.96600,-0.22192,2023,6,9,14,12,19,753
0.00480,3.11500,-4.83000,0.00000,0.00390,0.96636,-0.22204,2023,6,9,14,12,19,764
0.00490,3.11500,-4.51500,0.00000,0.00805,0.97112,-0.22204,2023,6,9,14,12,19,775
0.00500,2.95750,-4.53250,0.00000,0.00464,0.96441,-0.22155,2023,6,9,14,12,19,786
0.00510,2.92250,-4.30500,0.00000,0.00439,0.96478,-0.22192,2023,6,9,14,12,19,797
0.00520,2.99250,-4.81250,0.00000,0.00659,0.96953,-0.22326,2023,6,9,14,12,19,808
0.00530,2.90500,-4.55000,0.00000,0.00451,0.96673,-0.22350,2023,6,9,14,12,19,819
0.00540,2.97500,-4.44500,0.00000,0.00390,0.96661,-0.21923,2023,6,9,14,12,19,830
0.00550,3.06250,-4.63750,0.00000,0.00598,0.97051,-0.22289,2023,6,9,14,12,19,842
0.00560,3.09750,-4.60250,0.00000,0.00464,0.96478,-0.22094,2023,6,9,14,12,19,853
0.00570,3.02750,-4.46250,0.00000,0.00476,0.97063,-0.22326,2023,6,9,14,12,19,864
0.00580,3.18500,-4.51500,0.00000,0.00769,0.96941,-0.22314,2023,6,9,14,12,19,875
0.00590,3.08000,-4.65500,0.00000,0.00512,0.96343,-0.22058,2023,6,9,14,12,19,886
0.00600,3.18500,-4.65500,0.00000,0.00647,0.97112,-0.22021,2023,6,9,14,12,19,897
0.00610,3.06250,-4.63750,0.00000,0.00537,0.96636,-0.22216,2023,6,9,14,12,19,908
0.00620,3.01000,-4.74250,0.00000,0.00500,0.96441,-0.22155,2023,6,9,14,12,19,919
0.00630,2.85250,-4.44500,0.00000,0.00671,0.96795,-0.22009,2023,6,9,14,12,19,930
0.00640,3.06250,-4.63750,0.00000,0.00354,0.96343,-0.21984,2023,6,9,14,12,19,942
0.00650,3.08000,-4.62000,0.00000,0.00634,0.96941,-0.22155,2023,6,9,14,12,19,953
0.00660,2.81750,-4.48000,0.00000,0.00598,0.97014,-0.22570,2023,6,9,14,12,19,964
0.00670,3.11500,-4.56750,0.00000,0.00634,0.96282,-0.21789,2023,6,9,14,12,19,975
0.00680,2.99250,-4.53250,0.00000,0.00610,0.97210,-0.22375,2023,6,9,14,12,19,986
0.00690,3.09750,-4.60250,0.00000,0.00439,0.96746,-0.21984,2023,6,9,14,12,19,997
0.00700,3.29000,-4.53250,0.00000,0.00537,0.96490,-0.21923,2023,6,9,14,12,19,8
0.00710,3.01000,-4.60250,0.00000,0.00732,0.97295,-0.22180,2023,6,9,14,12,19,19
0.00720,2.92250,-4.69000,0.00000,0.00464,0.96612,-0.22436,2023,6,9,14,12,19,30
0.00730,3.27250,-4.72500,0.00000,0.00403,0.96551,-0.22277,2023,6,9,14,12,19,42
0.00740,2.95750,-4.49750,0.00000,0.00622,0.97136,-0.22131,2023,6,9,14,12,19,53
0.00750,3.18500,-4.84750,0.00000,0.00183,0.96417,-0.22228,2023,6,9,14,12,19,64
0.00760,3.11500,-4.48000,0.00000,0.00549,0.96478,-0.22021,2023,6,9,14,12,19,75
0.00770,2.87000,-4.53250,0.00000,0.00622,0.97027,-0.22070,2023,6,9,14,12,19,86
0.00780,2.94000,-4.74250,0.00000,0.00403,0.96270,-0.22167,2023,6,9,14,12,19,97
0.00790,3.06250,-4.46250,0.00000,0.00573,0.96722,-0.22094,2023,6,9,14,12,19,108
0.00800,2.90500,-4.48000,0.00000,0.00439,0.96722,-0.21997,2023,6,9,14,12,19,119
0.00810,3.11500,-4.46250,0.00000,0.00476,0.96502,-0.21899,2023,6,9,14,12,19,130
0.00820,2.97500,-4.69000,0.00000,0.00622,0.97039,-0.22058,2023,6,9,14,12,19,142
0.00830,3.04500,-4.62000,0.00000,0.00695,0.96575,-0.22253,2023,6,9,14,12,19,153
0.00840,2.99250,-4.28750,0.00000,0.00525,0.96356,-0.21948,2023,6,9,14,12,19,164
0.00850,2.94000,-4.41000,0.00000,0.00830,0.96941,-0.22167,2023,6,9,14,12,19,175
0.00860,3.08000,-4.77750,0.00000,0.00293,0.96319,-0.22070,2023,6,9,14,12,19,186
0.00870,3.04500,-4.63750,0.00000,0.00610,0.96978,-0.21948,2023,6,9,14,12,19,197
0.00880,2.88750,-4.44500,0.00000,0.00647,0.97319,-0.22033,2023,6,9,14,12,19,208
0.00890,2.92250,-4.39250,0.00000,0.00512,0.96429,-0.21948,2023,6,9,14,12,19,219
0.00900,3.20250,-4.74250,0.00000,0.00634,0.97100,-0.22082,2023,6,9,14,12,19,230
0.00910,2.94000,-4.49750,0.00000,0.00744,0.96807,-0.22192,2023,6,9,14,12,19,242
0.00920,3.01000,-4.42750,0.00000,0.00573,0.96478,-0.21899,2023,6,9,14,12,19,253
0.00930,3.11500,-4.58500,0.00000,0.00586,0.97124,-0.22167,2023,6,9,14,12,19,264
0.00940,3.13250,-4.34000,0.00000,0.00207,0.96722,-0.21960,2023,6,9,14,12,19,275
0.00950,2.95750,-4.49750,0.00000,0.00500,0.96746,-0.22216,2023,6,9,14,12,19,286
0.00960,3.06250,-4.35750,0.00000,0.00647,0.96929,-0.22265,2023,6,9,14,12,19,297
0.00970,2.80000,-4.48000,0.00000,0.00512,0.96453,-0.21875,2023,6,9,14,12,19,308
0.00980,2.87000,-4.69000,0.00000,0.00732,0.97112,-0.22253,2023,6,9,14,12,19,319
0.00990,3.06250,-4.55000,0.00000,0.00647,0.96868,-0.22155,2023,6,9,14,12,19,330
0.01000,3.08000,-4.41000,0.00000,0.00293,0.96465,-0.22070,2023,6,9,14,12,19,342
0.01010,2.99250,-4.60250,0.00000,0.00586,0.97027,-0.22228,2023,6,9,14,12,19,353
0.01020,2.92250,-4.37500,0.00000,0.00744,0.96478,-0.22192,2023,6,9,14,12,19,364
0.01030,3.16750,-4.48000,0.00000,0.00756,0.96929,-0.21997,2023,6,9,14,12,19,375
0.01040,2.95750,-4.65500,0.00000,0.00647,0.96807,-0.22289,2023,6,9,14,12,19,386
0.01050,2.97500,-4.41000,0.00000,0.00476,0.96380,-0.22021,2023,6,9,14,12,19,397
0.01060,2.99250,-4.58500,0.00000,0.00586,0.97271,-0.21887,2023,6,9,14,12,19,408
0.01070,2.95750,-4.67250,0.00000,0.00342,0.96514,-0.21960,2023,6,9,14,12,19,419
0.01080,3.30750,-4.62000,0.00000,0.00537,0.96636,-0.21936,2023,6,9,14,12,19,430
0.01090,3.08000,-4.51500,0.00000,0.00525,0.97014,-0.22241,2023,6,9,14,12,19,442
0.01100,3.11500,-4.65500,0.00000,0.00464,0.96624,-0.22192,2023,6,9,14,12,19,453
0.01110,3.13250,-4.49750,0.00000,0.00598,0.96429,-0.22094,2023,6,9,14,12,19,464
0.01120,2.85250,-4.46250,0.00000,0.00634,0.96856,-0.22241,2023,6,9,14,12,19,475
0.01130,3.08000,-4.51500,0.00000,0.00354,0.96258,-0.22009,2023,6,9,14,12,19,486
0.01140,3.06250,-4.49750,0.00000,0.00598,0.96978,-0.22058,2023,6,9,14,12,19,497
0.01150,2.95750,-4.37500,0.00000,0.00622,0.96807,-0.22204,2023,6,9,14,12,19,508
0.01160,3.15000,-4.55000,0.00000,0.00378,0.96453,-0.22094,2023,6,9,14,12,19,519
0.01170,2.83500,-4.46250,0.00000,0.00695,0.97173,-0.22094,2023,6,9,14,12,19,530
0.01180,2.83500,-4.37500,0.00000,0.00537,0.96673,-0.21887,2023,6,9,14,12,19,542
0.01190,3.09750,-4.56750,0.00000,0.00622,0.96722,-0.22009,2023,6,9,14,12,19,553
0.01200,3.04500,-4.30500,0.00000,0.00500,0.96966,-0.22216,2023,6,9,14,12,19,564
0.01210,2.95750,-4.55000,0.00000,0.00390,0.96478,-0.22082,2023,6,9,14,12,19,575
0.01220,2.92250,-4.58500,0.00000,0.00781,0.97088,-0.22033,2023,6,9,14,12,19,586
0.01230,2.88750,-4.42750,0.00000,0.00708,0.96526,-0.21972,2023,6,9,14,12,19,597
0.01240,3.09750,-4.65500,0.00000,0.00561,0.96526,-0.21984,2023,6,9,14,12,19,608
0.01250,3.06250,-4.70750,0.00000,0.00854,0.97075,-0.22119,2023,6,9,14,12,19,619
0.01260,3.01000,-4.69000,0.00000,0.00281,0.96478,-0.22058,2023,6,9,14,12,19,630
0.01270,3.02750,-4.60250,0.00000,0.00500,0.96551,-0.22045,2023,6,9,14,12,19,642
0.01280,2.78250,-4.30500,0.00000,0.00549,0.96953,-0.21972,2023,6,9,14,12,19,653
0.01290,3.08000,-4.37500,0.00000,0.00415,0.96270,-0.22302,2023,6,9,14,12,19,664
0.01300,2.81750,-4.39250,0.00000,0.00622,0.96831,-0.22143,2023,6,9,14,12,19,675
0.01310,3.01000,-4.65500,0.00000,0.00720,0.96722,-0.21997,2023,6,9,14,12,19,686
0.01320,3.01000,-4.65500,0.00000,0.00500,0.96526,-0.21923,2023,6,9,14,12,19,697
0.01330,2.92250,-4.55000,0.00000,0.00683,0.97197,-0.22143,2023,6,9,14,12,19,708
0.01340,2.94000,-4.62000,0.00000,0.00598,0.96429,-0.21911,2023,6,9,14,12,19,719
0.01350,3.15000,-4.70750,0.00000,0.00476,0.96697,-0.22094,2023,6,9,14,12,19,730
0.01360,2.88750,-4.58500,0.00000,0.00622,0.96990,-0.22070,2023,6,9,14,12,19,742
0.01370,3.06250,-4.70750,0.00000,0.00329,0.96514,-0.21948,2023,6,9,14,12,19,753
0.01380,3.23750,-4.60250,0.00000,0.00573,0.97051,-0.22106,2023,6,9,14,12,19,764
0.01390,3.15000,-4.56750,0.00000,0.00488,0.96648,-0.22009,2023,6,9,14,12,19,775
0.01400,2.85250,-4.58500,0.00000,0.00573,0.96478,-0.22009,2023,6,9,14,12,19,786
0.01410,2.87000,-4.48000,0.00000,0.00708,0.97112,-0.22228,2023,6,9,14,12,19,797
0.01420,2.94000,-4.51500,0.00000,0.00342,0.96502,-0.22033,2023,6,9,14,12,19,808
0.01430,3.23750,-4.70750,0.00000,0.00610,0.96795,-0.22180,2023,6,9,14,12,19,819
0.01440,2.95750,-4.60250,0.00000,0.00537,0.97075,-0.22143,2023,6,9,14,12,19,830
0.01450,3.06250,-4.65500,0.00000,0.00476,0.96441,-0.22155,2023,6,9,14,12,19,842
0.01460,2.97500,-4.65500,0.00000,0.00683,0.96600,-0.22106,2023,6,9,14,12,19,853
0.01470,2.88750,-4.49750,0.00000,0.00573,0.96624,-0.22106,2023,6,9,14,12,19,864
0.01480,3.02750,-4.81250,0.00000,0.00525,0.96539,-0.22143,2023,6,9,14,12,19,875
0.01490,3.09750,-4.60250,0.00000,0.00842,0.96966,-0.22180,2023,6,9,14,12,19,886
0.01500,2.97500,-4.65500,0.00000,0.00598,0.96892,-0.22082,2023,6,9,14,12,19,897
0.01510,3.15000,-4.79500,0.00000,0.00683,0.96575,-0.22094,2023,6,9,14,12,19,908
0.01520,2.92250,-4.51500,0.00000,0.00634,0.96856,-0.22058,2023,6,9,14,12,19,919
0.01530,3.16750,-4.65500,0.00000,0.00537,0.96563,-0.22094,2023,6,9,14,12,19,930
0.01540,3.02750,-4.76000,0.00000,0.00329,0.96478,-0.22180,2023,6,9,14,12,19,942
0.01550,3.15000,-4.46250,0.00000,0.00512,0.96892,-0.22253,2023,6,9,14,12,19,953
0.01560,3.02750,-4.58500,0.00000,0.00586,0.96734,-0.22253,2023,6,9,14,12,19,964
0.01570,3.22000,-4.65500,0.00000,0.00451,0.96526,-0.22106,2023,6,9,14,12,19,975
0.01580,3.18500,-4.65500,0.00000,0.00622,0.97014,-0.22180,2023,6,9,14,12,19,986
0.01590,2.80000,-4.65500,0.00000,0.00476,0.96905,-0.22192,2023,6,9,14,12,19,997
0.01600,2.99250,-4.48000,0.00000,0.00512,0.96661,-0.22082,2023,6,9,14,12,19,8
0.01610,2.80000,-4.48000,0.00000,0.00744,0.96966,-0.22228,2023,6,9,14,12,19,19
0.01620,3.02750,-4.55000,0.00000,0.00317,0.96563,-0.22241,2023,6,9,14,12,19,30
0.01630,3.09750,-4.69000,0.00000,0.00244,0.96783,-0.22326,2023,6,9,14,12,19,42
0.01640,2.90500,-4.56750,0.00000,0.00769,0.96831,-0.22143,2023,6,9,14,12,19,53
0.01650,2.95750,-4.53250,0.00000,0.00488,0.96722,-0.22045,2023,6,9,14,12,19,64
0.01660,3.01000,-4.48000,0.00000,0.00500,0.96478,-0.22143,2023,6,9,14,12,19,75
0.01670,2.97500,-4.55000,0.00000,0.00549,0.96636,-0.22045,2023,6,9,14,12,19,86
0.01680,2.87000,-4.72500,0.00000,0.00525,0.96795,-0.21948,2023,6,9,14,12,19,97
0.01690,2.87000,-4.48000,0.00000,0.00415,0.96673,-0.22167,2023,6,9,14,12,19,108
0.01700,3.02750,-4.62000,0.00000,0.00525,0.96685,-0.22143,2023,6,9,14,12,19,119
0.01710,3.09750,-4.56750,0.00000,0.00586,0.96868,-0.22058,2023,6,9,14,12,19,130
0.01720,2.90500,-4.63750,0.00000,0.00683,0.96807,-0.22082,2023,6,9,14,12,19,142
0.01730,3.16750,-4.79500,0.00000,0.00537,0.96844,-0.22424,2023,6,9,14,12,19,153
0.01740,3.09750,-4.51500,0.00000,0.00512,0.96746,-0.22192,2023,6,9,14,12,19,164
0.01750,2.88750,-4.56750,0.00000,0.00439,0.96831,-0.22143,2023,6,9,14,12,19,175
0.01760,2.85250,-4.46250,0.00000,0.00366,0.96539,-0.22411,2023,6,9,14,12,19,186
0.01770,3.01000,-4.42750,0.00000,0.00793,0.96929,-0.21838,2023,6,9,14,12,19,197
0.01780,2.80000,-4.49750,0.00000,0.00500,0.96929,-0.22326,2023,6,9,14,12,19,208
0.01790,2.88750,-4.53250,0.00000,0.00415,0.96770,-0.22204,2023,6,9,14,12,19,219
0.01800,3.04500,-4.46250,0.00000,0.00610,0.96551,-0.22253,2023,6,9,14,12,19,230
0.01810,2.92250,-4.44500,0.00000,0.00500,0.96746,-0.22058,2023,6,9,14,12,19,242
0.01820,3.09750,-4.39250,0.00000,0.00281,0.96587,-0.22326,2023,6,9,14,12,19,253
0.01830,3.25500,-4.65500,0.00000,0.00525,0.96831,-0.22302,2023,6,9,14,12,19,264
0.01840,3.04500,-4.49750,0.00000,0.00610,0.96758,-0.22167,2023,6,9,14,12,19,275
0.01850,2.92250,-4.55000,0.00000,0.00476,0.96966,-0.22363,2023,6,9,14,12,19,286
0.01860,3.13250,-4.65500,0.00000,0.00549,0.96648,-0.22070,2023,6,9,14,12,19,297
0.01870,3.04500,-4.62000,0.00000,0.00537,0.96758,-0.21923,2023,6,9,14,12,19,308
0.01880,2.85250,-4.60250,0.00000,0.00573,0.96636,-0.21875,2023,6,9,14,12,19,319
0.01890,3.09750,-4.63750,0.00000,0.00671,0.96783,-0.22607,2023,6,9,14,12,19,330
0.01900,2.95750,-4.72500,0.00000,0.00476,0.96600,-0.22228,2023,6,9,14,12,19,342
0.01910,3.15000,-4.35750,0.00000,0.00720,0.96661,-0.22143,2023,6,9,14,12,19,353
0.01920,3.02750,-4.77750,0.00000,0.00598,0.96587,-0.22216,2023,6,9,14,12,19,364
0.01930,3.02750,-4.56750,0.00000,0.00439,0.96673,-0.22424,2023,6,9,14,12,19,375
0.01940,3.08000,-4.63750,0.00000,0.00342,0.96722,-0.22241,2023,6,9,14,12,19,386
0.01950,2.85250,-4.51500,0.00000,0.00671,0.97039,-0.22021,2023,6,9,14,12,19,397
0.01960,3.04500,-4.49750,0.00000,0.00561,0.96941,-0.22582,2023,6,9,14,12,19,408
0.01970,3.04500,-4.53250,0.00000,0.00586,0.96478,-0.22216,2023,6,9,14,12,19,419
0.01980,3.18500,-4.46250,0.00000,0.00695,0.96783,-0.22411,2023,6,9,14,12,19,430
0.01990,3.13250,-4.58500,0.00000,0.00561,0.96636,-0.22472,2023,6,9,14,12,19,442
0.02000,3.06250,-4.69000,0.00000,0.00390,0.96831,-0.22350,2023,6,9,14,12,19,453
0.02010,3.02750,-4.49750,0.00000,0.00683,0.96526,-0.22387,2023,6,9,14,12,19,464
0.02020,3.02750,-4.58500,0.00000,0.00793,0.96941,-0.22119,2023,6,9,14,12,19,475
0.02030,3.15000,-4.56750,0.00000,0.00476,0.96783,-0.22265,2023,6,9,14,12,19,486
0.02040,3.08000,-4.56750,0.00000,0.00451,0.96697,-0.22375,2023,6,9,14,12,19,497
0.02050,2.97500,-4.37500,0.00000,0.00610,0.96624,-0.22472,2023,6,9,14,12,19,508
0.02060,3.06250,-4.65500,0.00000,0.00561,0.96734,-0.22497,2023,6,9,14,12,19,519
0.02070,2.90500,-4.49750,0.00000,0.00512,0.96905,-0.22716,2023,6,9,14,12,19,530
0.02080,2.99250,-4.51500,0.00000,0.00573,0.96514,-0.22326,2023,6,9,14,12,19,542
0.02090,3.04500,-4.42750,0.00000,0.00525,0.96831,-0.22546,2023,6,9,14,12,19,553
0.02100,2.94000,-4.62000,0.00000,0.00573,0.96892,-0.22338,2023,6,9,14,12,19,564
0.02110,2.95750,-4.49750,0.00000,0.00537,0.96831,-0.22314,2023,6,9,14,12,19,575
0.02120,2.83500,-4.41000,0.00000,0.00549,0.96648,-0.22387,2023,6,9,14,12,19,586
0.02130,3.06250,-4.55000,0.00000,0.00647,0.96612,-0.22533,2023,6,9,14,12,19,597
0.02140,3.13250,-4.51500,0.00000,0.00512,0.96892,-0.22607,2023,6,9,14,12,19,608
0.02150,2.80000,-4.55000,0.00000,0.00659,0.96868,-0.22155,2023,6,9,14,12,19,619
0.02160,2.95750,-4.63750,0.00000,0.00756,0.96246,-0.22424,2023,6,9,14,12,19,630
0.02170,2.92250,-4.41000,0.00000,0.00317,0.96648,-0.22680,2023,6,9,14,12,19,642
0.02180,3.11500,-4.63750,0.00000,0.00732,0.96978,-0.22314,2023,6,9,14,12,19,653
0.02190,2.81750,-4.49750,0.00000,0.00683,0.96441,-0.22363,2023,6,9,14,12,19,664
0.02200,3.18500,-4.65500,0.00000,0.00403,0.96917,-0.22716,2023,6,9,14,12,19,675
0.02210,3.25500,-4.67250,0.00000,0.00817,0.96502,-0.22314,2023,6,9,14,12,19,686
0.02220,3.20250,-4.58500,0.00000,0.00756,0.97063,-0.22485,2023,6,9,14,12,19,697
0.02230,2.67750,-4.41000,0.00000,0.00598,0.96356,-0.22082,2023,6,9,14,12,19,708
0.02240,3.08000,-4.49750,0.00000,0.00561,0.96697,-0.22289,2023,6,9,14,12,19,719
0.02250,2.88750,-4.39250,0.00000,0.00366,0.96844,-0.22155,2023,6,9,14,12,19,730
0.02260,3.16750,-4.62000,0.00000,0.00610,0.96953,-0.22814,2023,6,9,14,12,19,742
0.02270,2.81750,-4.55000,0.00000,0.00756,0.96380,-0.22058,2023,6,9,14,12,19,753
0.02280,2.87000,-4.41000,0.00000,0.00244,0.96478,-0.22253,2023,6,9,14,12,19,764
0.02290,2.85250,-4.69000,0.00000,0.00634,0.96600,-0.22289,2023,6,9,14,12,19,775
0.02300,3.15000,-4.76000,0.00000,0.00342,0.96953,-0.22533,2023,6,9,14,12,19,786
0.02310,2.83500,-4.63750,0.00000,0.00622,0.96551,-0.22314,2023,6,9,14,12,19,797
0.02320,3.01000,-4.44500,0.00000,0.00537,0.96819,-0.22314,2023,6,9,14,12,19,808
0.02330,2.99250,-4.62000,0.00000,0.00708,0.96856,-0.22350,2023,6,9,14,12,19,819
0.02340,3.09750,-4.72500,0.00000,0.00537,0.96795,-0.22448,2023,6,9,14,12,19,830
0.02350,2.80000,-4.35750,0.00000,0.00525,0.96746,-0.22119,2023,6,9,14,12,19,842
0.02360,2.94000,-4.51500,0.00000,0.00549,0.96953,-0.22546,2023,6,9,14,12,19,853
0.02370,2.94000,-4.48000,0.00000,0.00512,0.96661,-0.22570,2023,6,9,14,12,19,864
0.02380,2.92250,-4.25250,0.00000,0.00354,0.96880,-0.22643,2023,6,9,14,12,19,875
0.02390,3.04500,-4.46250,0.00000,0.00683,0.96831,-0.22204,2023,6,9,14,12,19,886
0.02400,2.94000,-4.79500,0.00000,0.00647,0.96709,-0.22533,2023,6,9,14,12,19,897
0.02410,3.13250,-4.44500,0.00000,0.00464,0.96770,-0.22558,2023,6,9,14,12,19,908
0.02420,2.97500,-4.51500,0.00000,0.00342,0.96770,-0.22631,2023,6,9,14,12,19,919
0.02430,3.16750,-4.51500,0.00000,0.00537,0.96795,-0.22460,2023,6,9,14,12,19,930
0.02440,2.83500,-4.37500,0.00000,0.00500,0.96758,-0.22326,2023,6,9,14,12,19,942
0.02450,2.92250,-4.55000,0.00000,0.00500,0.96819,-0.22741,2023,6,9,14,12,19,953
0.02460,3.04500,-4.48000,0.00000,0.00561,0.96722,-0.22497,2023,6,9,14,12,19,964
0.02470,3.11500,-4.53250,0.00000,0.00378,0.96502,-0.22436,2023,6,9,14,12,19,975
0.02480,2.80000,-4.42750,0.00000,0.00695,0.96783,-0.22521,2023,6,9,14,12,19,986
0.02490,2.85250,-4.65500,0.00000,0.00549,0.96783,-0.22375,2023,6,9,14,12,19,997
0.02500,3.02750,-4.74250,0.00000,0.00683,0.96478,-0.22277,2023,6,9,14,12,19,8
0.02510,2.88750,-4.37500,0.00000,0.00561,0.96734,-0.22619,2023,6,9,14,12,19,19
0.02520,2.99250,-4.48000,0.00000,0.00586,0.96978,-0.22399,2023,6,9,14,12,19,30
0.02530,2.94000,-4.48000,0.00000,0.00525,0.96880,-0.22289,2023,6,9,14,12,19,42
0.02540,3.13250,-4.63750,0.00000,0.00403,0.96722,-0.22460,2023,6,9,14,12,19,53
0.02550,3.22000,-4.70750,0.00000,0.00671,0.96905,-0.22497,2023,6,9,14,12,19,64
0.02560,3.09750,-4.69000,0.00000,0.00573,0.96770,-0.22460,2023,6,9,14,12,19,75
0.02570,3.02750,-4.49750,0.00000,0.00390,0.97027,-0.22302,2023,6,9,14,12,19,86
0.02580,3.13250,-4.67250,0.00000,0.00354,0.96685,-0.22582,2023,6,9,14,12,19,97
0.02590,3.01000,-4.70750,0.00000,0.00476,0.96819,-0.22521,2023,6,9,14,12,19,108
0.02600,3.27250,-4.83000,0.00000,0.00708,0.97051,-0.22045,2023,6,9,14,12,19,119
0.02610,2.87000,-4.60250,0.00000,0.00769,0.96734,-0.22204,2023,6,9,14,12,19,130
0.02620,3.18500,-4.49750,0.00000,0.00561,0.96465,-0.22594,2023,6,9,14,12,19,142
0.02630,3.09750,-4.63750,0.00000,0.00525,0.96526,-0.22668,2023,6,9,14,12,19,153
0.02640,2.88750,-4.44500,0.00000,0.00561,0.96795,-0.22302,2023,6,9,14,12,19,164
0.02650,3.13250,-4.63750,0.00000,0.00561,0.96831,-0.22692,2023,6,9,14,12,19,175
0.02660,2.83500,-4.62000,0.00000,0.00329,0.96478,-0.22265,2023,6,9,14,12,19,186
0.02670,3.01000,-4.60250,0.00000,0.00659,0.97014,-0.22326,2023,6,9,14,12,19,197
0.02680,2.92250,-4.53250,0.00000,0.00415,0.96831,-0.22399,2023,6,9,14,12,19,208
0.02690,2.97500,-4.65500,0.00000,0.00720,0.96575,-0.22619,2023,6,9,14,12,19,219
0.02700,3.09750,-4.70750,0.00000,0.00744,0.96648,-0.22619,2023,6,9,14,12,19,230
0.02710,2.95750,-4.51500,0.00000,0.00464,0.96831,-0.22058,2023,6,9,14,12,19,242
0.02720,2.97500,-4.48000,0.00000,0.00439,0.96722,-0.22265,2023,6,9,14,12,19,253
0.02730,3.11500,-4.49750,0.00000,0.00451,0.96941,-0.22607,2023,6,9,14,12,19,264
0.02740,3.13250,-4.79500,0.00000,0.00354,0.96770,-0.22643,2023,6,9,14,12,19,275
0.02740,3.13250,-4.79500,0.00000,0.00354,0.96770,-0.22643,2023,6,9,14,12,19,275
0.09130,3.02750,-4.48000,0.00000,0.00610,0.96526,-0.21777,2023,6,9,14,12,19,297
0.09140,2.97500,-4.60250,0.00000,0.00464,0.96844,-0.22265,2023,6,9,14,12,19,308
0.09150,3.16750,-4.49750,0.00000,0.00659,0.96417,-0.22058,2023,6,9,14,12,19,319
0.09160,3.04500,-4.42750,0.00000,0.00720,0.97014,-0.22216,2023,6,9,14,12,19,330
0.09170,2.95750,-4.51500,0.00000,0.00622,0.96880,-0.22155,2023,6,9,14,12,19,342
0.09180,3.06250,-4.69000,0.00000,0.00695,0.96770,-0.21960,2023,6,9,14,12,19,353
0.09190,3.04500,-4.44500,0.00000,0.00537,0.96624,-0.22265,2023,6,9,14,12,19,364
0.09200,2.83500,-4.46250,0.00000,0.00500,0.96758,-0.22228,2023,6,9,14,12,19,375
0.09210,3.02750,-4.65500,0.00000,0.00525,0.96892,-0.22204,2023,6,9,14,12,19,386
0.09220,3.08000,-4.67250,0.00000,0.00439,0.96856,-0.22045,2023,6,9,14,12,19,397
0.09230,2.99250,-4.63750,0.00000,0.00610,0.96612,-0.22277,2023,6,9,14,12,19,408
0.09240,2.88750,-4.60250,0.00000,0.00573,0.96624,-0.22082,2023,6,9,14,12,19,419
0.09250,2.97500,-4.41000,0.00000,0.00305,0.96722,-0.22167,2023,6,9,14,12,19,430
0.09260,2.97500,-4.48000,0.00000,0.00573,0.96770,-0.22253,2023,6,9,14,12,19,442
0.09270,2.94000,-4.53250,0.00000,0.00476,0.96734,-0.22253,2023,6,9,14,12,19,453
0.09280,2.90500,-4.35750,0.00000,0.00695,0.96807,-0.22497,2023,6,9,14,12,19,464
0.09290,3.01000,-4.39250,0.00000,0.00561,0.96734,-0.22277,2023,6,9,14,12,19,475
0.09300,3.13250,-4.81250,0.00000,0.00744,0.96648,-0.22155,2023,6,9,14,12,19,486
0.09310,3.06250,-4.90000,0.00000,0.00512,0.97149,-0.22058,2023,6,9,14,12,19,497
0.09320,3.04500,-4.53250,0.00000,0.00671,0.96746,-0.22253,2023,6,9,14,12,19,508
0.09330,2.99250,-4.70750,0.00000,0.00354,0.96978,-0.22009,2023,6,9,14,12,19,519
0.09340,2.92250,-4.44500,0.00000,0.00756,0.96697,-0.22192,2023,6,9,14,12,20,0
0.09350,2.92250,-4.56750,0.00000,0.00695,0.96856,-0.22021,2023,6,9,14,12,20,12
0.09360,3.08000,-4.53250,0.00000,0.00537,0.96685,-0.22241,2023,6,9,14,12,20,23
0.09370,3.11500,-4.51500,0.00000,0.00378,0.96429,-0.22228,2023,6,9,14,12,20,34
0.09380,3.08000,-4.55000,0.00000,0.00415,0.96783,-0.22338,2023,6,9,14,12,20,45
0.09390,3.08000,-4.48000,0.00000,0.00561,0.96795,-0.22094,2023,6,9,14,12,20,56
0.09400,3.11500,-4.53250,0.00000,0.00903,0.96685,-0.22302,2023,6,9,14,12,20,67
0.09410,3.16750,-4.74250,0.00000,0.00403,0.96795,-0.22509,2023,6,9,14,12,20,78
0.09420,2.88750,-4.70750,0.00000,0.00756,0.96758,-0.22033,2023,6,9,14,12,20,89
0.09430,2.92250,-4.55000,0.00000,0.00537,0.96648,-0.22363,2023,6,9,14,12,20,100
0.09440,3.11500,-4.65500,0.00000,0.00488,0.96905,-0.22119,2023,6,9,14,12,20,112
0.09450,2.92250,-4.81250,0.00000,0.00390,0.96685,-0.22204,2023,6,9,14,12,20,123
0.09460,2.83500,-4.58500,0.00000,0.00451,0.96746,-0.22265,2023,6,9,14,12,20,134
0.09470,3.11500,-4.69000,0.00000,0.00683,0.96770,-0.22192,2023,6,9,14,12,20,145
0.09480,3.08000,-4.69000,0.00000,0.00403,0.96502,-0.22265,2023,6,9,14,12,20,156
0.09490,2.99250,-4.41000,0.00000,0.00476,0.96685,-0.21960,2023,6,9,14,12,20,167
0.09500,3.01000,-4.49750,0.00000,0.00598,0.96673,-0.22192,2023,6,9,14,12,20,178
0.09510,2.87000,-4.51500,0.00000,0.00537,0.96734,-0.21984,2023,6,9,14,12,20,189
0.09520,2.74750,-4.34000,0.00000,0.00476,0.96941,-0.22326,2023,6,9,14,12,20,200
0.09530,2.87000,-4.51500,0.00000,0.00573,0.96966,-0.22192,2023,6,9,14,12,20,212
0.09540,3.02750,-4.65500,0.00000,0.00610,0.96819,-0.22241,2023,6,9,14,12,20,223
0.09550,3.16750,-4.62000,0.00000,0.00500,0.96600,-0.22253,2023,6,9,14,12,20,234
0.09560,3.08000,-4.55000,0.00000,0.00512,0.96709,-0.22180,2023,6,9,14,12,20,245
0.09570,2.94000,-4.48000,0.00000,0.00561,0.96892,-0.22314,2023,6,9,14,12,20,256
0.09580,3.01000,-4.77750,0.00000,0.00586,0.96795,-0.22106,2023,6,9,14,12,20,267
0.09590,3.15000,-4.46250,0.00000,0.00573,0.96661,-0.22338,2023,6,9,14,12,20,278
0.09600,3.25500,-4.51500,0.00000,0.00403,0.96685,-0.22204,2023,6,9,14,12,20,289
0.09610,2.97500,-4.39250,0.00000,0.00598,0.96807,-0.22424,2023,6,9,14,12,20,300
0.09620,3.16750,-4.65500,0.00000,0.00415,0.96380,-0.22326,2023,6,9,14,12,20,312
0.09630,3.11500,-4.88250,0.00000,0.00659,0.96636,-0.22582,2023,6,9,14,12,20,323
0.09640,2.71250,-4.46250,0.00000,0.00708,0.96587,-0.22192,2023,6,9,14,12,20,334
0.09650,3.02750,-4.37500,0.00000,0.00451,0.96539,-0.22387,2023,6,9,14,12,20,345
0.09660,3.01000,-4.65500,0.00000,0.00512,0.96575,-0.22228,2023,6,9,14,12,20,356
0.09670,2.95750,-4.42750,0.00000,0.00512,0.96831,-0.21899,2023,6,9,14,12,20,367
0.09680,2.94000,-4.53250,0.00000,0.00476,0.96807,-0.22289,2023,6,9,14,12,20,378
0.09690,2.95750,-4.62000,0.00000,0.00671,0.96673,-0.22192,2023,6,9,14,12,20,389
0.09700,3.04500,-4.79500,0.00000,0.00573,0.96709,-0.22265,2023,6,9,14,12,20,400
0.09710,3.02750,-4.55000,0.00000,0.00817,0.96636,-0.22167,2023,6,9,14,12,20,412
0.09720,2.97500,-4.46250,0.00000,0.00390,0.96966,-0.22326,2023,6,9,14,12,20,423
0.09730,3.04500,-4.49750,0.00000,0.00647,0.96831,-0.22277,2023,6,9,14,12,20,434
0.09740,3.02750,-4.76000,0.00000,0.00537,0.96819,-0.22253,2023,6,9,14,12,20,445
0.09750,2.88750,-4.62000,0.00000,0.00610,0.96734,-0.22192,2023,6,9,14,12,20,456
0.09760,3.06250,-4.55000,0.00000,0.00720,0.96709,-0.22387,2023,6,9,14,12,20,467
0.09770,2.97500,-4.51500,0.00000,0.00464,0.96734,-0.22106,2023,6,9,14,12,20,478
0.09780,2.99250,-4.51500,0.00000,0.00586,0.96746,-0.22350,2023,6,9,14,12,20,489
0.09790,3.06250,-4.70750,0.00000,0.00525,0.96905,-0.22167,2023,6,9,14,12,20,500
0.09800,2.95750,-4.60250,0.00000,0.00464,0.96807,-0.22350,2023,6,9,14,12,20,512
0.09810,2.78250,-4.53250,0.00000,0.00537,0.96819,-0.22460,2023,6,9,14,12,20,523
0.09820,2.73000,-4.46250,0.00000,0.00305,0.96673,-0.22265,2023,6,9,14,12,20,534
0.09830,2.83500,-4.49750,0.00000,0.00512,0.96734,-0.22411,2023,6,9,14,12,20,545
0.09840,3.01000,-4.60250,0.00000,0.00525,0.96856,-0.22472,2023,6,9,14,12,20,556
0.09850,3.18500,-4.48000,0.00000,0.00659,0.96831,-0.22448,2023,6,9,14,12,20,567
0.09860,2.81750,-4.60250,0.00000,0.00622,0.96795,-0.22289,2023,6,9,14,12,20,578
0.09870,2.88750,-4.37500,0.00000,0.00525,0.96551,-0.22302,2023,6,9,14,12,20,589
0.09880,3.11500,-4.44500,0.00000,0.00476,0.96514,-0.22204,2023,6,9,14,12,20,600
0.09890,2.97500,-4.46250,0.00000,0.00537,0.96612,-0.22241,2023,6,9,14,12,20,612
0.09900,3.02750,-4.44500,0.00000,0.00634,0.96868,-0.22314,2023,6,9,14,12,20,623
0.09910,3.13250,-4.86500,0.00000,0.00500,0.96917,-0.22387,2023,6,9,14,12,20,634
0.09920,3.23750,-4.65500,0.00000,0.00342,0.96563,-0.22363,2023,6,9,14,12,20,645
0.09930,2.76500,-4.60250,0.00000,0.00586,0.96685,-0.22009,2023,6,9,14,12,20,656
0.09940,3.02750,-4.65500,0.00000,0.00464,0.96978,-0.22387,2023,6,9,14,12,20,667
0.09950,3.09750,-4.56750,0.00000,0.00512,0.96453,-0.22180,2023,6,9,14,12,20,678
0.09960,2.94000,-4.62000,0.00000,0.00293,0.96880,-0.22192,2023,6,9,14,12,20,689
0.09970,2.94000,-4.49750,0.00000,0.00610,0.96819,-0.22302,2023,6,9,14,12,20,700
0.09980,2.83500,-4.62000,0.00000,0.00256,0.96539,-0.22289,2023,6,9,14,12,20,712
0.09990,2.85250,-4.56750,0.00000,0.00512,0.96892,-0.22253,2023,6,9,14,12,20,723
0.10000,2.94000,-4.63750,0.00000,0.00647,0.96990,-0.22241,2023,6,9,14,12,20,734
0.10010,2.97500,-4.46250,0.00000,0.00512,0.96831,-0.22448,2023,6,9,14,12,20,745
0.10020,2.90500,-4.51500,0.00000,0.00415,0.96526,-0.22241,2023,6,9,14,12,20,756
0.10030,3.18500,-4.60250,0.00000,0.00598,0.96490,-0.22363,2023,6,9,14,12,20,767
0.10040,2.87000,-4.34000,0.00000,0.00659,0.96722,-0.22082,2023,6,9,14,12,20,778
0.10050,2.95750,-4.67250,0.00000,0.00366,0.96551,-0.22387,2023,6,9,14,12,20,789
0.10060,2.99250,-4.60250,0.00000,0.00451,0.96685,-0.22204,2023,6,9,14,12,20,800
0.10070,3.13250,-4.39250,0.00000,0.00744,0.96868,-0.22497,2023,6,9,14,12,20,812
0.10080,2.71250,-4.28750,0.00000,0.00622,0.96917,-0.22241,2023,6,9,14,12,20,823
0.10090,3.08000,-4.84750,0.00000,0.00634,0.96783,-0.22350,2023,6,9,14,12,20,834
0.10100,2.85250,-4.49750,0.00000,0.00512,0.96758,-0.22363,2023,6,9,14,12,20,845
0.10110,2.85250,-4.42750,0.00000,0.00525,0.96673,-0.22033,2023,6,9,14,12,20,856
0.10120,3.09750,-4.48000,0.00000,0.00415,0.96795,-0.22436,2023,6,9,14,12,20,867
0.10130,2.90500,-4.69000,0.00000,0.00586,0.96892,-0.22521,2023,6,9,14,12,20,878
0.10140,3.11500,-4.53250,0.00000,0.00586,0.96783,-0.22363,2023,6,9,14,12,20,889
0.10150,2.88750,-4.70750,0.00000,0.00549,0.96819,-0.22143,2023,6,9,14,12,20,900
0.10160,3.11500,-4.56750,0.00000,0.00720,0.96966,-0.22265,2023,6,9,14,12,20,912
0.10170,3.08000,-4.49750,0.00000,0.00464,0.96551,-0.22302,2023,6,9,14,12,20,923
0.10180,2.92250,-4.49750,0.00000,0.00476,0.96661,-0.22192,2023,6,9,14,12,20,934
0.10190,3.04500,-4.32250,0.00000,0.00720,0.96892,-0.22338,2023,6,9,14,12,20,945
0.10200,3.06250,-4.62000,0.00000,0.00549,0.96917,-0.22497,2023,6,9,14,12,20,956
0.10210,2.87000,-4.58500,0.00000,0.00512,0.96648,-0.22180,2023,6,9,14,12,20,967
0.10220,2.97500,-4.53250,0.00000,0.00512,0.96697,-0.22277,2023,6,9,14,12,20,978
0.10230,2.95750,-4.56750,0.00000,0.00732,0.96917,-0.22509,2023,6,9,14,12,20,989
0.10240,2.94000,-4.65500,0.00000,0.00439,0.96807,-0.22326,2023,6,9,14,12,20,0
0.10250,2.92250,-4.41000,0.00000,0.00622,0.96697,-0.22277,2023,6,9,14,12,20,12
0.10260,2.94000,-4.39250,0.00000,0.00793,0.96795,-0.22192,2023,6,9,14,12,20,23
0.10270,2.83500,-4.74250,0.00000,0.00708,0.97027,-0.22094,2023,6,9,14,12,20,34
0.10280,3.22000,-4.62000,0.00000,0.00549,0.96636,-0.22326,2023,6,9,14,12,20,45
0.10290,3.04500,-4.60250,0.00000,0.00842,0.96612,-0.22411,2023,6,9,14,12,20,56
0.10300,2.94000,-4.28750,0.00000,0.00500,0.96758,-0.22424,2023,6,9,14,12,20,67
0.10310,3.04500,-4.42750,0.00000,0.00598,0.96612,-0.22082,2023,6,9,14,12,20,78
0.10320,2.94000,-4.44500,0.00000,0.00500,0.96844,-0.22302,2023,6,9,14,12,20,89
0.10330,2.94000,-4.55000,0.00000,0.00537,0.96783,-0.22167,2023,6,9,14,12,20,100
0.10340,2.85250,-4.56750,0.00000,0.00549,0.96539,-0.22411,2023,6,9,14,12,20,112
0.10350,3.16750,-4.53250,0.00000,0.00512,0.96673,-0.22314,2023,6,9,14,12,20,123
0.10360,3.18500,-4.70750,0.00000,0.00744,0.97039,-0.22314,2023,6,9,14,12,20,134
0.10370,2.85250,-4.86500,0.00000,0.00586,0.96795,-0.22204,2023,6,9,14,12,20,145
0.10380,3.04500,-4.48000,0.00000,0.00573,0.96758,-0.22643,2023,6,9,14,12,20,156
0.10390,3.18500,-4.55000,0.00000,0.00500,0.96673,-0.22485,2023,6,9,14,12,20,167
0.10400,2.81750,-4.63750,0.00000,0.00598,0.96587,-0.22070,2023,6,9,14,12,20,178
0.10410,3.01000,-4.56750,0.00000,0.00476,0.96783,-0.22241,2023,6,9,14,12,20,189
0.10420,3.09750,-4.56750,0.00000,0.00439,0.96844,-0.22594,2023,6,9,14,12,20,200
0.10430,2.85250,-4.56750,0.00000,0.00622,0.97014,-0.22265,2023,6,9,14,12,20,212
0.10440,3.15000,-4.53250,0.00000,0.00695,0.96709,-0.22192,2023,6,9,14,12,20,223
0.10450,2.85250,-4.65500,0.00000,0.00439,0.97027,-0.22375,2023,6,9,14,12,20,234
0.10460,3.13250,-4.44500,0.00000,0.00573,0.96551,-0.21862,2023,6,9,14,12,20,245
0.10470,2.92250,-4.49750,0.00000,0.00500,0.96697,-0.22045,2023,6,9,14,12,20,256
0.10480,3.06250,-4.67250,0.00000,0.00549,0.96783,-0.22192,2023,6,9,14,12,20,267
0.10490,2.94000,-4.62000,0.00000,0.00488,0.96868,-0.22387,2023,6,9,14,12,20,278
0.10500,3.09750,-4.46250,0.00000,0.00586,0.96612,-0.22204,2023,6,9,14,12,20,289
0.10510,3.06250,-4.83000,0.00000,0.00427,0.96722,-0.22314,2023,6,9,14,12,20,300
0.10520,2.92250,-4.46250,0.00000,0.00573,0.97039,-0.22289,2023,6,9,14,12,20,312
0.10530,2.97500,-4.63750,0.00000,0.00744,0.96783,-0.22289,2023,6,9,14,12,20,323
0.10540,2.87000,-4.55000,0.00000,0.00537,0.96734,-0.22167,2023,6,9,14,12,20,334
0.10550,2.83500,-4.51500,0.00000,0.00769,0.96978,-0.22106,2023,6,9,14,12,20,345
0.10560,2.95750,-4.65500,0.00000,0.00573,0.96905,-0.22338,2023,6,9,14,12,20,356
0.10570,3.13250,-4.53250,0.00000,0.00695,0.96648,-0.22326,2023,6,9,14,12,20,367
0.10580,3.06250,-4.46250,0.00000,0.00671,0.96795,-0.22375,2023,6,9,14,12,20,378
0.10590,2.80000,-4.46250,0.00000,0.00586,0.96795,-0.22241,2023,6,9,14,12,20,389
0.10600,2.83500,-4.46250,0.00000,0.00439,0.96831,-0.22399,2023,6,9,14,12,20,400
0.10610,3.16750,-4.44500,0.00000,0.00537,0.96319,-0.22131,2023,6,9,14,12,20,412
0.10620,2.90500,-4.48000,0.00000,0.00342,0.96795,-0.22326,2023,6,9,14,12,20,423
0.10630,2.94000,-4.62000,0.00000,0.00549,0.96941,-0.22436,2023,6,9,14,12,20,434
0.10640,3.08000,-4.63750,0.00000,0.00683,0.96758,-0.22411,2023,6,9,14,12,20,445
0.10650,3.20250,-4.67250,0.00000,0.00500,0.96575,-0.22277,2023,6,9,14,12,20,456
0.10660,2.90500,-4.62000,0.00000,0.00610,0.96953,-0.22180,2023,6,9,14,12,20,467
0.10670,2.97500,-4.49750,0.00000,0.00634,0.96758,-0.22399,2023,6,9,14,12,20,478
0.10680,3.09750,-4.58500,0.00000,0.00354,0.96612,-0.22204,2023,6,9,14,12,20,489
0.10690,2.95750,-4.48000,0.00000,0.00342,0.96819,-0.21984,2023,6,9,14,12,20,500
0.10700,2.87000,-4.53250,0.00000,0.00573,0.96465,-0.22180,2023,6,9,14,12,20,512
0.10710,3.06250,-4.44500,0.00000,0.00476,0.96783,-0.22277,2023,6,9,14,12,20,523
0.10720,3.01000,-4.76000,0.00000,0.00647,0.96636,-0.22472,2023,6,9,14,12,20,534
0.10730,3.02750,-4.67250,0.00000,0.00708,0.96734,-0.22119,2023,6,9,14,12,20,545
0.10740,2.83500,-4.48000,0.00000,0.00561,0.96844,-0.22326,2023,6,9,14,12,20,556
0.10750,3.08000,-4.41000,0.00000,0.00500,0.96880,-0.22192,2023,6,9,14,12,21,7
0.10760,2.95750,-4.55000,0.00000,0.00268,0.96673,-0.22399,2023,6,9,14,12,21,18
0.10770,3.08000,-4.51500,0.00000,0.00720,0.96844,-0.22387,2023,6,9,14,12,21,29
0.10780,2.88750,-4.55000,0.00000,0.00451,0.96600,-0.22204,2023,6,9,14,12,21,40
0.10790,3.04500,-4.70750,0.00000,0.00598,0.96465,-0.22106,2023,6,9,14,12,21,52
0.10800,3.01000,-4.56750,0.00000,0.00683,0.96417,-0.22241,2023,6,9,14,12,21,63
0.10810,2.80000,-4.39250,0.00000,0.00366,0.96770,-0.22119,2023,6,9,14,12,21,74
0.10820,2.97500,-4.46250,0.00000,0.00598,0.96734,-0.22338,2023,6,9,14,12,21,85
0.10830,2.97500,-4.34000,0.00000,0.00720,0.96917,-0.22338,2023,6,9,14,12,21,96
0.10840,2.88750,-4.72500,0.00000,0.00512,0.96612,-0.22375,2023,6,9,14,12,21,107
0.10850,2.99250,-4.65500,0.00000,0.00366,0.96941,-0.22424,2023,6,9,14,12,21,118
0.10860,3.09750,-4.55000,0.00000,0.00500,0.96563,-0.22472,2023,6,9,14,12,21,129
0.10870,2.99250,-4.70750,0.00000,0.00781,0.96502,-0.22533,2023,6,9,14,12,21,140
0.10880,2.81750,-4.48000,0.00000,0.00720,0.96783,-0.22216,2023,6,9,14,12,21,152
0.10890,3.06250,-4.63750,0.00000,0.00464,0.96722,-0.22387,2023,6,9,14,12,21,163
0.10900,2.99250,-4.70750,0.00000,0.00305,0.96673,-0.22277,2023,6,9,14,12,21,174
0.10910,2.94000,-4.62000,0.00000,0.00634,0.96624,-0.22119,2023,6,9,14,12,21,185
0.10920,3.16750,-4.60250,0.00000,0.00415,0.96600,-0.22472,2023,6,9,14,12,21,196
0.10930,2.94000,-4.35750,0.00000,0.00586,0.96831,-0.22180,2023,6,9,14,12,21,207
0.10940,2.94000,-4.51500,0.00000,0.00756,0.96514,-0.22485,2023,6,9,14,12,21,218
0.10950,2.80000,-4.48000,0.00000,0.00805,0.96831,-0.22350,2023,6,9,14,12,21,229
0.10960,3.02750,-4.60250,0.00000,0.00378,0.96941,-0.22228,2023,6,9,14,12,21,240
0.10970,2.90500,-4.65500,0.00000,0.00610,0.96490,-0.22338,2023,6,9,14,12,21,252
0.10980,3.11500,-4.60250,0.00000,0.00610,0.97039,-0.22302,2023,6,9,14,12,21,263
0.10990,3.08000,-4.69000,0.00000,0.00732,0.97112,-0.22289,2023,6,9,14,12,21,274
0.11000,3.06250,-4.60250,0.00000,0.00537,0.96746,-0.22424,2023,6,9,14,12,21,285
0.11010,3.16750,-4.55000,0.00000,0.00403,0.96624,-0.22558,2023,6,9,14,12,21,296
0.11020,2.97500,-4.60250,0.00000,0.00525,0.96770,-0.22204,2023,6,9,14,12,21,307
0.11030,2.78250,-4.41000,0.00000,0.00305,0.96673,-0.22436,2023,6,9,14,12,21,318
0.11040,2.85250,-4.62000,0.00000,0.00634,0.96697,-0.22485,2023,6,9,14,12,21,329
0.11050,2.95750,-4.60250,0.00000,0.00537,0.96502,-0.22546,2023,6,9,14,12,21,340
0.11060,2.87000,-4.41000,0.00000,0.00537,0.96795,-0.22387,2023,6,9,14,12,21,352
0.11070,3.04500,-4.42750,0.00000,0.00415,0.96697,-0.22521,2023,6,9,14,12,21,363
0.11080,2.81750,-4.28750,0.00000,0.00427,0.96905,-0.22265,2023,6,9,14,12,21,374
0.11090,3.06250,-4.62000,0.00000,0.00817,0.96746,-0.22204,2023,6,9,14,12,21,385
0.11100,3.18500,-4.70750,0.00000,0.00403,0.96978,-0.22411,2023,6,9,14,12,21,396
0.11110,2.99250,-4.41000,0.00000,0.00451,0.96880,-0.22314,2023,6,9,14,12,21,407
0.11120,3.18500,-4.62000,0.00000,0.00342,0.96600,-0.22509,2023,6,9,14,12,21,418
0.11130,2.71250,-4.53250,0.00000,0.00622,0.96624,-0.22241,2023,6,9,14,12,21,429
0.11140,2.88750,-4.63750,0.00000,0.00634,0.97002,-0.22472,2023,6,9,14,12,21,440
0.11150,2.92250,-4.55000,0.00000,0.00476,0.96880,-0.22424,2023,6,9,14,12,21,452
0.11160,3.08000,-4.58500,0.00000,0.00378,0.97039,-0.22509,2023,6,9,14,12,21,463
0.11170,2.92250,-4.49750,0.00000,0.00415,0.96892,-0.22265,2023,6,9,14,12,21,474
0.11180,2.92250,-4.56750,0.00000,0.00427,0.96880,-0.22582,2023,6,9,14,12,21,485
0.11190,3.02750,-4.67250,0.00000,0.00610,0.96770,-0.22668,2023,6,9,14,12,21,496
0.11200,3.08000,-4.58500,0.00000,0.00427,0.96478,-0.22387,2023,6,9,14,12,21,507
0.11210,2.87000,-4.51500,0.00000,0.00647,0.96941,-0.22338,2023,6,9,14,12,21,518
0.11220,2.92250,-4.58500,0.00000,0.00500,0.96966,-0.22582,2023,6,9,14,12,21,529
0.11230,2.97500,-4.81250,0.00000,0.00512,0.96685,-0.22631,2023,6,9,14,12,21,540
0.11240,2.85250,-4.63750,0.00000,0.00659,0.96587,-0.22558,2023,6,9,14,12,21,552
0.11250,3.01000,-4.60250,0.00000,0.00451,0.96783,-0.22570,2023,6,9,14,12,21,563
0.11260,2.99250,-4.63750,0.00000,0.00622,0.96624,-0.22326,2023,6,9,14,12,21,574
0.11270,3.11500,-4.77750,0.00000,0.00573,0.96905,-0.22509,2023,6,9,14,12,21,585
0.11280,3.01000,-4.51500,0.00000,0.00586,0.96709,-0.22155,2023,6,9,14,12,21,596
0.11290,2.85250,-4.48000,0.00000,0.00549,0.97063,-0.22899,2023,6,9,14,12,21,607
0.11300,3.13250,-4.55000,0.00000,0.00671,0.96807,-0.22448,2023,6,9,14,12,21,618
0.11310,3.01000,-4.65500,0.00000,0.00561,0.96905,-0.22765,2023,6,9,14,12,21,629
0.11320,2.85250,-4.72500,0.00000,0.00476,0.96941,-0.22594,2023,6,9,14,12,21,640
0.11330,2.85250,-4.60250,0.00000,0.00415,0.96600,-0.22619,2023,6,9,14,12,21,652
0.11340,3.15000,-4.58500,0.00000,0.00512,0.96734,-0.22424,2023,6,9,14,12,21,663
0.11350,3.04500,-4.65500,0.00000,0.00744,0.96892,-0.22668,2023,6,9,14,12,21,674
0.11360,2.97500,-4.63750,0.00000,0.00610,0.96770,-0.22558,2023,6,9,14,12,21,685
0.11370,2.94000,-4.63750,0.00000,0.00537,0.96673,-0.22509,2023,6,9,14,12,21,696
0.11380,3.02750,-4.56750,0.00000,0.00488,0.96526,-0.22753,2023,6,9,14,12,21,707
0.11390,2.99250,-4.76000,0.00000,0.00390,0.96783,-0.22607,2023,6,9,14,12,21,718
0.11400,2.90500,-4.72500,0.00000,0.00415,0.96856,-0.22680,2023,6,9,14,12,21,729
0.11410,3.08000,-4.58500,0.00000,0.00708,0.96356,-0.22680,2023,6,9,14,12,21,740
0.11420,3.11500,-4.77750,0.00000,0.00537,0.96795,-0.22485,2023,6,9,14,12,21,752
0.11430,2.99250,-4.55000,0.00000,0.00683,0.96551,-0.22302,2023,6,9,14,12,21,763
0.11440,3.09750,-4.69000,0.00000,0.00549,0.96563,-0.22119,2023,6,9,14,12,21,774
0.11450,3.22000,-4.56750,0.00000,0.00464,0.96807,-0.22302,2023,6,9,14,12,21,785
0.11460,2.90500,-4.60250,0.00000,0.00525,0.96917,-0.22155,2023,6,9,14,12,21,796
0.11470,3.08000,-4.55000,0.00000,0.00598,0.96624,-0.22399,2023,6,9,14,12,21,807
0.11480,2.92250,-4.58500,0.00000,0.00439,0.96319,-0.22521,2023,6,9,14,12,21,818
0.11490,2.92250,-4.63750,0.00000,0.00598,0.96868,-0.22716,2023,6,9,14,12,21,829
0.11500,2.99250,-4.62000,0.00000,0.00647,0.96929,-0.22204,2023,6,9,14,12,21,840
0.11510,3.02750,-4.56750,0.00000,0.00427,0.96770,-0.22765,2023,6,9,14,12,21,852
0.11520,3.20250,-4.69000,0.00000,0.00476,0.96380,-0.22424,2023,6,9,14,12,21,863
0.11530,3.18500,-4.63750,0.00000,0.00476,0.96648,-0.22387,2023,6,9,14,12,21,874
0.11540,2.92250,-4.70750,0.00000,0.00403,0.96856,-0.22680,2023,6,9,14,12,21,885
0.11550,2.92250,-4.60250,0.00000,0.00683,0.96856,-0.22436,2023,6,9,14,12,21,896
0.11560,2.69500,-4.44500,0.00000,0.00537,0.96673,-0.22411,2023,6,9,14,12,21,907
0.11570,2.88750,-4.37500,0.00000,0.00610,0.96685,-0.22704,2023,6,9,14,12,21,918
0.11580,2.95750,-4.49750,0.00000,0.00622,0.96783,-0.22558,2023,6,9,14,12,21,929
0.11590,2.99250,-4.39250,0.00000,0.00561,0.96819,-0.22509,2023,6,9,14,12,21,940
0.11600,3.06250,-4.81250,0.00000,0.00622,0.96795,-0.22533,2023,6,9,14,12,21,952
0.11610,2.81750,-4.32250,0.00000,0.00659,0.96892,-0.22399,2023,6,9,14,12,21,963
0.11620,2.97500,-4.58500,0.00000,0.00500,0.96795,-0.22472,2023,6,9,14,12,21,974
0.11630,3.11500,-4.74250,0.00000,0.00525,0.96478,-0.22460,2023,6,9,14,12,21,985
0.11640,3.01000,-4.70750,0.00000,0.00464,0.96892,-0.22265,2023,6,9,14,12,21,996
0.11650,2.92250,-4.62000,0.00000,0.00720,0.96941,-0.22497,2023,6,9,14,12,22,7
0.11660,2.85250,-4.37500,0.00000,0.00598,0.96587,-0.22570,2023,6,9,14,12,22,18
0.11670,2.95750,-4.41000,0.00000,0.00512,0.96636,-0.22546,2023,6,9,14,12,22,29
0.11680,2.97500,-4.55000,0.00000,0.00500,0.96929,-0.22265,2023,6,9,14,12,22,40
0.11690,2.94000,-4.62000,0.00000,0.00403,0.96734,-0.22472,2023,6,9,14,12,22,52
0.11700,2.97500,-4.34000,0.00000,0.00378,0.96685,-0.22533,2023,6,9,14,12,22,63
0.11710,3.01000,-4.74250,0.00000,0.00744,0.96612,-0.22424,2023,6,9,14,12,22,74
0.11720,3.09750,-4.55000,0.00000,0.00403,0.96831,-0.22289,2023,6,9,14,12,22,85
0.11730,2.85250,-4.56750,0.00000,0.00586,0.96709,-0.22838,2023,6,9,14,12,22,96
0.11740,3.13250,-4.58500,0.00000,0.00525,0.96697,-0.22765,2023,6,9,14,12,22,107
0.11750,3.01000,-4.41000,0.00000,0.00720,0.96514,-0.22497,2023,6,9,14,12,22,118
0.11760,3.13250,-4.51500,0.00000,0.00634,0.96831,-0.22253,2023,6,9,14,12,22,129
0.11770,3.09750,-4.44500,0.00000,0.00598,0.96563,-0.22668,2023,6,9,14,12,22,140
0.11780,2.94000,-4.53250,0.00000,0.00378,0.96746,-0.22460,2023,6,9,14,12,22,152
0.11790,3.08000,-4.42750,0.00000,0.00537,0.96807,-0.22741,2023,6,9,14,12,22,163
0.11800,3.01000,-4.53250,0.00000,0.00781,0.96563,-0.22485,2023,6,9,14,12,22,174
0.11810,2.81750,-4.74250,0.00000,0.00573,0.97051,-0.22594,2023,6,9,14,12,22,185
0.11820,3.08000,-4.72500,0.00000,0.00732,0.96673,-0.22253,2023,6,9,14,12,22,196
0.11830,2.88750,-4.49750,0.00000,0.00683,0.96770,-0.22350,2023,6,9,14,12,22,207
0.11840,3.04500,-4.56750,0.00000,0.00586,0.97014,-0.22387,2023,6,9,14,12,22,218
0.11850,2.99250,-4.46250,0.00000,0.00476,0.96783,-0.22399,2023,6,9,14,12,22,229
0.11860,2.81750,-4.49750,0.00000,0.00549,0.96661,-0.22411,2023,6,9,14,12,22,240
0.11870,2.99250,-4.51500,0.00000,0.00451,0.96697,-0.22314,2023,6,9,14,12,22,252
0.11880,3.09750,-4.62000,0.00000,0.00586,0.96709,-0.22350,2023,6,9,14,12,22,263
0.11890,2.90500,-4.58500,0.00000,0.00537,0.96770,-0.22265,2023,6,9,14,12,22,274
0.11900,3.09750,-4.55000,0.00000,0.00793,0.96978,-0.22546,2023,6,9,14,12,22,285
0.11910,2.94000,-4.56750,0.00000,0.00488,0.96575,-0.22399,2023,6,9,14,12,22,296
0.11920,2.99250,-4.30500,0.00000,0.00390,0.96831,-0.22363,2023,6,9,14,12,22,307
0.11930,3.18500,-4.74250,0.00000,0.00573,0.96795,-0.22424,2023,6,9,14,12,22,318
0.11940,2.95750,-4.49750,0.00000,0.00427,0.96819,-0.22607,2023,6,9,14,12,22,329
0.11950,2.80000,-4.63750,0.00000,0.00744,0.96685,-0.22460,2023,6,9,14,12,22,340
0.11960,3.01000,-4.60250,0.00000,0.00439,0.96661,-0.22338,2023,6,9,14,12,22,352
0.11970,3.23750,-4.86500,0.00000,0.00647,0.96783,-0.22399,2023,6,9,14,12,22,363
0.11980,2.90500,-4.63750,0.00000,0.00342,0.97063,-0.22094,2023,6,9,14,12,22,374
0.11990,3.08000,-4.58500,0.00000,0.00671,0.96600,-0.22314,2023,6,9,14,12,22,385
0.12000,3.01000,-4.58500,0.00000,0.00671,0.96770,-0.22436,2023,6,9,14,12,22,396
0.12010,3.09750,-4.62000,0.00000,0.00573,0.96746,-0.22448,2023,6,9,14,12,22,407
0.12020,2.92250,-4.69000,0.00000,0.00293,0.96697,-0.22228,2023,6,9,14,12,22,418
0.12030,3.13250,-4.58500,0.00000,0.00537,0.96844,-0.22582,2023,6,9,14,12,22,429
0.12040,2.92250,-4.55000,0.00000,0.00622,0.96746,-0.22363,2023,6,9,14,12,22,440
0.12050,3.11500,-4.56750,0.00000,0.00586,0.96709,-0.22509,2023,6,9,14,12,22,452
0.12060,2.95750,-4.53250,0.00000,0.00647,0.96709,-0.21984,2023,6,9,14,12,22,463
0.12070,3.06250,-4.48000,0.00000,0.00525,0.96648,-0.22448,2023,6,9,14,12,22,474
0.12080,2.99250,-4.76000,0.00000,0.00464,0.96807,-0.22131,2023,6,9,14,12,22,485
0.12090,3.11500,-4.76000,0.00000,0.00622,0.96722,-0.22009,2023,6,9,14,12,22,496
0.12100,3.01000,-4.79500,0.00000,0.00488,0.96831,-0.22460,2023,6,9,14,12,22,507
0.12110,3.08000,-4.55000,0.00000,0.00378,0.96917,-0.22448,2023,6,9,14,12,22,518
0.12120,3.06250,-4.60250,0.00000,0.00439,0.96502,-0.22253,2023,6,9,14,12,22,529
0.12130,3.11500,-4.58500,0.00000,0.00342,0.96539,-0.22106,2023,6,9,14,12,22,540
0.12140,3.02750,-4.58500,0.00000,0.00781,0.96819,-0.22363,2023,6,9,14,12,22,552
0.12150,2.94000,-4.53250,0.00000,0.00622,0.96502,-0.22241,2023,6,9,14,12,22,563
0.12160,3.04500,-4.63750,0.00000,0.00403,0.96673,-0.22228,2023,6,9,14,12,22,574
0.12170,3.20250,-4.69000,0.00000,0.00525,0.96783,-0.22094,2023,6,9,14,12,22,585
0.12180,2.90500,-4.49750,0.00000,0.00537,0.96880,-0.22253,2023,6,9,14,12,22,596
0.12190,2.94000,-4.67250,0.00000,0.00525,0.96734,-0.22338,2023,6,9,14,12,22,607
0.12200,3.15000,-4.62000,0.00000,0.00512,0.96770,-0.22302,2023,6,9,14,12,22,618
0.12210,3.15000,-4.79500,0.00000,0.00293,0.96539,-0.21875,2023,6,9,14,12,22,629
0.12220,2.94000,-4.60250,0.00000,0.00561,0.97051,-0.22326,2023,6,9,14,12,22,640
0.12230,3.25500,-4.60250,0.00000,0.00439,0.96636,-0.22338,2023,6,9,14,12,22,652
0.12240,3.09750,-4.79500,0.00000,0.00427,0.97088,-0.22155,2023,6,9,14,12,22,663
0.12250,2.71250,-4.35750,0.00000,0.00525,0.96978,-0.21826,2023,6,9,14,12,22,674
0.12260,3.02750,-4.67250,0.00000,0.00598,0.96783,-0.22253,2023,6,9,14,12,22,685
0.12270,3.06250,-4.69000,0.00000,0.00317,0.96770,-0.22436,2023,6,9,14,12,22,696
0.12280,2.94000,-4.49750,0.00000,0.00732,0.96966,-0.22143,2023,6,9,14,12,22,707
0.12290,3.18500,-4.63750,0.00000,0.00622,0.96819,-0.22497,2023,6,9,14,12,22,718
0.12300,3.18500,-4.69000,0.00000,0.00281,0.96844,-0.22314,2023,6,9,14,12,22,729
0.12310,3.20250,-4.72500,0.00000,0.00476,0.96819,-0.22009,2023,6,9,14,12,22,740
0.12320,2.88750,-4.44500,0.00000,0.00549,0.96734,-0.21923,2023,6,9,14,12,22,752
0.12330,3.09750,-4.60250,0.00000,0.00598,0.96953,-0.22119,2023,6,9,14,12,22,763
0.12340,2.88750,-4.56750,0.00000,0.00573,0.96612,-0.22204,2023,6,9,14,12,22,774
0.12350,2.92250,-4.60250,0.00000,0.00525,0.96746,-0.22094,2023,6,9,14,12,22,785
0.12360,3.13250,-4.77750,0.00000,0.00732,0.96892,-0.22411,2023,6,9,14,12,22,796
0.12370,3.11500,-4.44500,0.00000,0.00329,0.96502,-0.22302,2023,6,9,14,12,22,807
0.12380,2.95750,-4.70750,0.00000,0.00403,0.96758,-0.22265,2023,6,9,14,12,22,818
0.12390,2.95750,-4.56750,0.00000,0.00732,0.96905,-0.22192,2023,6,9,14,12,22,829
0.12400,2.78250,-4.60250,0.00000,0.00512,0.96758,-0.22216,2023,6,9,14,12,22,840
0.12410,2.83500,-4.39250,0.00000,0.00634,0.96709,-0.22509,2023,6,9,14,12,22,852
0.12420,2.94000,-4.53250,0.00000,0.00720,0.96758,-0.22338,2023,6,9,14,12,22,863
0.12430,3.15000,-4.74250,0.00000,0.00525,0.96783,-0.22045,2023,6,9,14,12,22,874
0.12440,2.90500,-4.42750,0.00000,0.00622,0.96941,-0.22253,2023,6,9,14,12,22,885
0.12450,2.94000,-4.56750,0.00000,0.00403,0.96673,-0.21984,2023,6,9,14,12,22,896
0.12460,3.08000,-4.65500,0.00000,0.00573,0.96819,-0.22399,2023,6,9,14,12,22,907
0.12470,2.95750,-4.58500,0.00000,0.00830,0.96539,-0.22106,2023,6,9,14,12,22,918
0.12480,2.95750,-4.63750,0.00000,0.00598,0.96770,-0.22192,2023,6,9,14,12,22,929
0.12490,2.94000,-4.62000,0.00000,0.00586,0.96709,-0.22216,2023,6,9,14,12,22,940
0.12500,2.97500,-4.48000,0.00000,0.00488,0.96819,-0.22167,2023,6,9,14,12,22,952
0.12510,2.90500,-4.69000,0.00000,0.00512,0.96758,-0.22155,2023,6,9,14,12,22,963
0.12520,3.11500,-4.56750,0.00000,0.00317,0.96819,-0.22350,2023,6,9,14,12,22,974
0.12530,3.04500,-4.56750,0.00000,0.00366,0.96380,-0.22204,2023,6,9,14,12,22,985
0.12540,3.16750,-4.56750,0.00000,0.00488,0.96880,-0.22289,2023,6,9,14,12,22,996
0.12550,3.01000,-4.37500,0.00000,0.00500,0.96697,-0.22131,2023,6,9,14,12,23,7
0.12560,3.04500,-4.62000,0.00000,0.00427,0.96770,-0.22387,2023,6,9,14,12,23,18
0.12570,3.18500,-4.60250,0.00000,0.00451,0.96600,-0.22241,2023,6,9,14,12,23,29
0.12580,2.95750,-4.65500,0.00000,0.00695,0.96941,-0.22058,2023,6,9,14,12,23,40
0.12590,2.94000,-4.74250,0.00000,0.00769,0.96978,-0.22399,2023,6,9,14,12,23,52
0.12600,2.88750,-4.62000,0.00000,0.00390,0.96746,-0.22314,2023,6,9,14,12,23,63
0.12610,3.11500,-4.69000,0.00000,0.00708,0.96868,-0.22326,2023,6,9,14,12,23,74
0.12620,2.78250,-4.56750,0.00000,0.00732,0.96758,-0.22131,2023,6,9,14,12,23,85
0.12630,3.18500,-4.55000,0.00000,0.00683,0.96880,-0.22448,2023,6,9,14,12,23,96
0.12640,3.01000,-4.65500,0.00000,0.00695,0.96709,-0.22387,2023,6,9,14,12,23,107
0.12650,2.88750,-4.67250,0.00000,0.00549,0.96673,-0.22167,2023,6,9,14,12,23,118
0.12660,2.95750,-4.49750,0.00000,0.00634,0.96892,-0.22204,2023,6,9,14,12,23,129
0.12670,3.06250,-4.58500,0.00000,0.00537,0.96819,-0.22241,2023,6,9,14,12,23,140
0.12680,2.85250,-4.49750,0.00000,0.00561,0.96661,-0.22228,2023,6,9,14,12,23,152
0.12690,3.01000,-4.53250,0.00000,0.00708,0.96722,-0.22302,2023,6,9,14,12,23,163
0.12700,2.76500,-4.56750,0.00000,0.00647,0.96831,-0.22167,2023,6,9,14,12,23,174
0.12710,3.04500,-4.46250,0.00000,0.00781,0.97051,-0.22155,2023,6,9,14,12,23,185
0.12720,3.02750,-4.60250,0.00000,0.00744,0.96795,-0.22180,2023,6,9,14,12,23,196
0.12730,3.16750,-4.55000,0.00000,0.00671,0.96600,-0.22302,2023,6,9,14,12,23,207
0.12740,3.02750,-4.49750,0.00000,0.00671,0.96746,-0.22338,2023,6,9,14,12,23,218
0.12750,2.78250,-4.42750,0.00000,0.00525,0.96868,-0.22119,2023,6,9,14,12,23,229
0.12760,3.06250,-4.41000,0.00000,0.00561,0.96770,-0.22326,2023,6,9,14,12,23,240
0.12770,2.73000,-4.48000,0.00000,0.00720,0.96551,-0.22058,2023,6,9,14,12,23,252
0.12780,2.80000,-4.41000,0.00000,0.00671,0.96953,-0.22045,2023,6,9,14,12,23,263
0.12790,3.15000,-4.62000,0.00000,0.00512,0.96783,-0.22045,2023,6,9,14,12,23,274
0.12800,3.16750,-4.55000,0.00000,0.00708,0.96734,-0.22204,2023,6,9,14,12,23,285
0.12810,2.83500,-4.69000,0.00000,0.00598,0.96758,-0.21850,2023,6,9,14,12,23,296
0.12820,3.01000,-4.67250,0.00000,0.00573,0.97149,-0.22167,2023,6,9,14,12,23,307
0.12830,3.02750,-4.55000,0.00000,0.00476,0.96587,-0.22192,2023,6,9,14,12,23,318
0.12840,3.11500,-4.63750,0.00000,0.00622,0.96856,-0.22192,2023,6,9,14,12,23,329
0.12850,2.88750,-4.55000,0.00000,0.00366,0.96856,-0.21997,2023,6,9,14,12,23,340
0.12860,3.13250,-4.37500,0.00000,0.00561,0.96770,-0.22082,2023,6,9,14,12,23,352
0.12870,2.97500,-4.48000,0.00000,0.00439,0.96673,-0.22265,2023,6,9,14,12,23,363
0.12880,2.88750,-4.58500,0.00000,0.00586,0.96734,-0.21875,2023,6,9,14,12,23,374
0.12890,2.92250,-4.48000,0.00000,0.00671,0.96758,-0.22167,2023,6,9,14,12,23,385
0.12900,2.78250,-4.41000,0.00000,0.00488,0.96722,-0.22375,2023,6,9,14,12,23,396
0.12910,3.25500,-4.63750,0.00000,0.00464,0.96722,-0.22045,2023,6,9,14,12,23,407
0.12920,2.88750,-4.77750,0.00000,0.00634,0.96868,-0.21936,2023,6,9,14,12,23,418
0.12930,3.06250,-4.37500,0.00000,0.00634,0.96868,-0.22387,2023,6,9,14,12,23,429
0.12940,2.99250,-4.49750,0.00000,0.00549,0.96685,-0.22277,2023,6,9,14,12,23,440
0.12950,2.94000,-4.60250,0.00000,0.00464,0.96880,-0.22350,2023,6,9,14,12,23,452
0.12960,2.87000,-4.41000,0.00000,0.00439,0.96941,-0.22070,2023,6,9,14,12,23,463
0.12970,2.78250,-4.53250,0.00000,0.00537,0.96758,-0.22302,2023,6,9,14,12,23,474
0.12980,3.09750,-4.65500,0.00000,0.00403,0.96746,-0.22180,2023,6,9,14,12,23,485
0.12990,2.95750,-4.44500,0.00000,0.00854,0.96758,-0.22070,2023,6,9,14,12,23,496
0.13000,3.02750,-4.44500,0.00000,0.00476,0.96697,-0.22192,2023,6,9,14,12,23,507
0.13010,2.74750,-4.60250,0.00000,0.00366,0.96697,-0.22387,2023,6,9,14,12,23,518
0.13020,2.95750,-4.60250,0.00000,0.00512,0.96453,-0.22204,2023,6,9,14,12,23,529
0.13030,3.01000,-4.49750,0.00000,0.00549,0.96551,-0.22082,2023,6,9,14,12,23,540
0.13040,3.01000,-4.74250,0.00000,0.00403,0.96783,-0.22643,2023,6,9,14,12,23,552
0.13050,3.13250,-4.48000,0.00000,0.00403,0.96624,-0.22253,2023,6,9,14,12,23,563
0.13060,3.02750,-4.65500,0.00000,0.00488,0.96539,-0.22119,2023,6,9,14,12,23,574
0.13070,2.90500,-4.62000,0.00000,0.00634,0.96892,-0.22497,2023,6,9,14,12,23,585
0.13080,3.04500,-4.67250,0.00000,0.00549,0.96758,-0.22192,2023,6,9,14,12,23,596
0.13090,3.15000,-4.65500,0.00000,0.00793,0.96770,-0.22167,2023,6,9,14,12,23,607
0.13100,2.81750,-4.53250,0.00000,0.00549,0.96722,-0.22119,2023,6,9,14,12,23,618
0.13110,3.04500,-4.55000,0.00000,0.00744,0.96941,-0.22070,2023,6,9,14,12,23,629
0.13120,2.88750,-4.49750,0.00000,0.00293,0.96795,-0.22180,2023,6,9,14,12,23,640
0.13130,2.97500,-4.58500,0.00000,0.00573,0.96697,-0.22119,2023,6,9,14,12,23,652
0.13140,2.97500,-4.60250,0.00000,0.00439,0.96587,-0.22289,2023,6,9,14,12,23,663
0.13150,3.02750,-4.74250,0.00000,0.00415,0.96648,-0.22241,2023,6,9,14,12,23,674
0.13160,3.02750,-4.76000,0.00000,0.00573,0.96551,-0.22155,2023,6,9,14,12,23,685
0.13170,3.08000,-4.69000,0.00000,0.00671,0.96709,-0.22009,2023,6,9,14,12,23,696
0.13180,2.88750,-4.48000,0.00000,0.00549,0.96892,-0.22448,2023,6,9,14,12,23,707
0.13190,2.87000,-4.67250,0.00000,0.00634,0.96587,-0.22265,2023,6,9,14,12,23,718
0.13200,3.15000,-4.86500,0.00000,0.00500,0.96697,-0.22204,2023,6,9,14,12,23,729
0.13210,2.80000,-4.63750,0.00000,0.00695,0.96624,-0.22265,2023,6,9,14,12,23,740
0.13220,3.04500,-4.56750,0.00000,0.00464,0.96697,-0.22448,2023,6,9,14,12,23,752
0.13230,2.94000,-4.49750,0.00000,0.00549,0.96575,-0.22241,2023,6,9,14,12,23,763
0.13240,2.81750,-4.41000,0.00000,0.00512,0.96685,-0.22277,2023,6,9,14,12,23,774
0.13250,2.85250,-4.62000,0.00000,0.00671,0.96856,-0.22375,2023,6,9,14,12,23,785
0.13260,2.85250,-4.49750,0.00000,0.00415,0.96917,-0.22436,2023,6,9,14,12,23,796
0.13270,3.08000,-4.58500,0.00000,0.00610,0.96697,-0.22216,2023,6,9,14,12,23,807
0.13280,2.90500,-4.65500,0.00000,0.00427,0.96819,-0.22277,2023,6,9,14,12,23,818
0.13290,2.90500,-4.41000,0.00000,0.00390,0.96831,-0.22326,2023,6,9,14,12,23,829
0.13300,3.11500,-4.60250,0.00000,0.00256,0.96587,-0.22058,2023,6,9,14,12,23,840
0.13310,2.97500,-4.65500,0.00000,0.00427,0.96819,-0.22155,2023,6,9,14,12,23,852
0.13320,3.08000,-4.46250,0.00000,0.00512,0.96758,-0.22424,2023,6,9,14,12,23,863
0.13330,2.87000,-4.56750,0.00000,0.00439,0.96587,-0.22265,2023,6,9,14,12,23,874
0.13340,3.09750,-4.69000,0.00000,0.00622,0.96575,-0.22119,2023,6,9,14,12,23,885
0.13350,2.94000,-4.58500,0.00000,0.00512,0.96770,-0.22204,2023,6,9,14,12,23,896
0.13360,2.87000,-4.53250,0.00000,0.00610,0.96831,-0.22289,2023,6,9,14,12,23,907
0.13370,3.02750,-4.69000,0.00000,0.00561,0.96587,-0.22155,2023,6,9,14,12,23,918
0.13380,2.88750,-4.49750,0.00000,0.00842,0.96844,-0.22131,2023,6,9,14,12,23,929
0.13390,2.97500,-4.42750,0.00000,0.00756,0.96783,-0.22289,2023,6,9,14,12,23,940
0.13400,2.83500,-4.70750,0.00000,0.00610,0.96746,-0.22350,2023,6,9,14,12,23,952
0.13410,3.02750,-4.63750,0.00000,0.00573,0.96709,-0.22363,2023,6,9,14,12,23,963
0.13420,2.87000,-4.63750,0.00000,0.00573,0.96636,-0.22155,2023,6,9,14,12,23,974
0.13430,3.09750,-4.65500,0.00000,0.00256,0.96868,-0.22204,2023,6,9,14,12,23,985
0.13440,3.22000,-4.72500,0.00000,0.00317,0.96770,-0.22253,2023,6,9,14,12,23,996
0.13450,2.78250,-4.46250,0.00000,0.00756,0.96551,-0.22167,2023,6,9,14,12,24,7
0.13460,3.01000,-4.58500,0.00000,0.00817,0.96709,-0.22058,2023,6,9,14,12,24,18
0.13470,2.99250,-4.49750,0.00000,0.00427,0.96465,-0.22253,2023,6,9,14,12,24,29
0.13480,3.20250,-4.51500,0.00000,0.00634,0.96831,-0.22119,2023,6,9,14,12,24,40
0.13490,2.76500,-4.62000,0.00000,0.00634,0.96868,-0.22192,2023,6,9,14,12,24,52
0.13500,2.87000,-4.72500,0.00000,0.00683,0.96697,-0.22253,2023,6,9,14,12,24,63
0.13510,3.08000,-4.83000,0.00000,0.00427,0.96795,-0.22265,2023,6,9,14,12,24,74
0.13520,3.01000,-4.46250,0.00000,0.00439,0.96575,-0.22350,2023,6,9,14,12,24,85
0.13530,3.16750,-4.60250,0.00000,0.00598,0.96673,-0.22058,2023,6,9,14,12,24,96
0.13540,2.99250,-4.48000,0.00000,0.00476,0.96722,-0.22436,2023,6,9,14,12,24,107
0.13550,2.94000,-4.51500,0.00000,0.00695,0.96783,-0.22167,2023,6,9,14,12,24,118
0.13560,3.01000,-4.51500,0.00000,0.00793,0.96465,-0.22082,2023,6,9,14,12,24,129
0.13570,2.83500,-4.53250,0.00000,0.00500,0.96856,-0.22094,2023,6,9,14,12,24,140
0.13580,2.90500,-4.69000,0.00000,0.00525,0.96661,-0.22265,2023,6,9,14,12,24,152
0.13590,3.22000,-4.67250,0.00000,0.00537,0.96709,-0.22131,2023,6,9,14,12,24,163
0.13600,2.97500,-4.63750,0.00000,0.00403,0.96941,-0.22094,2023,6,9,14,12,24,174
0.13610,3.04500,-4.58500,0.00000,0.00512,0.97014,-0.22387,2023,6,9,14,12,24,185
0.13620,2.95750,-4.48000,0.00000,0.00720,0.96429,-0.22070,2023,6,9,14,12,24,196
0.13630,2.90500,-4.48000,0.00000,0.00476,0.96758,-0.22192,2023,6,9,14,12,24,207
0.13640,3.16750,-4.55000,0.00000,0.00512,0.96746,-0.22302,2023,6,9,14,12,24,218
0.13650,2.95750,-4.49750,0.00000,0.00390,0.96905,-0.22302,2023,6,9,14,12,24,229
0.13660,3.04500,-4.58500,0.00000,0.00451,0.96563,-0.22070,2023,6,9,14,12,24,240
0.13670,2.81750,-4.53250,0.00000,0.00610,0.96868,-0.22314,2023,6,9,14,12,24,252
0.13680,2.90500,-4.63750,0.00000,0.00744,0.96734,-0.22302,2023,6,9,14,12,24,263
0.13690,3.02750,-4.63750,0.00000,0.00671,0.96685,-0.22192,2023,6,9,14,12,24,274
0.13700,2.94000,-4.44500,0.00000,0.00866,0.96905,-0.22277,2023,6,9,14,12,24,285
0.13710,2.87000,-4.48000,0.00000,0.00610,0.96636,-0.21984,2023,6,9,14,12,24,296
0.13720,2.99250,-4.79500,0.00000,0.00451,0.96600,-0.22289,2023,6,9,14,12,24,307
0.13730,2.88750,-4.35750,0.00000,0.00427,0.96587,-0.22277,2023,6,9,14,12,24,318
0.13740,2.97500,-4.44500,0.00000,0.00598,0.96746,-0.22033,2023,6,9,14,12,24,329
0.13750,2.92250,-4.51500,0.00000,0.00732,0.96880,-0.22155,2023,6,9,14,12,24,340
0.13760,3.01000,-4.46250,0.00000,0.00415,0.96880,-0.22228,2023,6,9,14,12,24,352
0.13770,2.76500,-4.55000,0.00000,0.00500,0.96673,-0.22021,2023,6,9,14,12,24,363
0.13780,2.95750,-4.48000,0.00000,0.00451,0.96758,-0.22192,2023,6,9,14,12,24,374
0.13790,2.88750,-4.70750,0.00000,0.00439,0.96905,-0.22180,2023,6,9,14,12,24,385
0.13800,2.95750,-4.41000,0.00000,0.00329,0.96514,-0.22289,2023,6,9,14,12,24,396
0.13810,3.06250,-4.67250,0.00000,0.00512,0.96758,-0.22253,2023,6,9,14,12,24,407
0.13820,3.04500,-4.51500,0.00000,0.00500,0.96795,-0.22143,2023,6,9,14,12,24,418
0.13830,2.81750,-4.55000,0.00000,0.00476,0.96661,-0.22363,2023,6,9,14,12,24,429
0.13840,3.13250,-4.67250,0.00000,0.00598,0.96429,-0.22045,2023,6,9,14,12,24,440
0.13850,2.97500,-4.63750,0.00000,0.00708,0.96807,-0.22119,2023,6,9,14,12,24,452
0.13860,2.97500,-4.65500,0.00000,0.00451,0.96734,-0.22216,2023,6,9,14,12,24,463
0.13870,3.18500,-4.41000,0.00000,0.00427,0.96966,-0.22094,2023,6,9,14,12,24,474
0.13880,3.02750,-4.63750,0.00000,0.00464,0.96746,-0.22326,2023,6,9,14,12,24,485
0.13890,2.80000,-4.60250,0.00000,0.00573,0.96905,-0.22204,2023,6,9,14,12,24,496
0.13900,3.06250,-4.70750,0.00000,0.00378,0.96673,-0.22289,2023,6,9,14,12,24,507
0.13910,3.06250,-4.48000,0.00000,0.00525,0.96636,-0.22228,2023,6,9,14,12,24,518
0.13920,3.06250,-4.42750,0.00000,0.00732,0.96880,-0.22058,2023,6,9,14,12,24,529
0.13930,2.99250,-4.74250,0.00000,0.00671,0.96880,-0.22241,2023,6,9,14,12,24,540
0.13940,2.87000,-4.35750,0.00000,0.00305,0.96929,-0.22131,2023,6,9,14,12,24,552
0.13950,3.08000,-4.49750,0.00000,0.00427,0.96587,-0.22070,2023,6,9,14,12,24,563
0.13960,3.11500,-4.56750,0.00000,0.00659,0.96636,-0.22045,2023,6,9,14,12,24,574
0.13970,2.88750,-4.60250,0.00000,0.00512,0.96783,-0.22143,2023,6,9,14,12,24,585
0.13980,2.94000,-4.65500,0.00000,0.00549,0.96795,-0.22155,2023,6,9,14,12,24,596
0.13990,2.95750,-4.55000,0.00000,0.00549,0.96417,-0.22094,2023,6,9,14,12,24,607
0.14000,2.99250,-4.56750,0.00000,0.00708,0.96917,-0.22070,2023,6,9,14,12,24,618
0.14010,2.88750,-4.62000,0.00000,0.00683,0.96905,-0.22082,2023,6,9,14,12,24,629
0.14020,3.02750,-4.60250,0.00000,0.00720,0.96392,-0.22180,2023,6,9,14,12,24,640
0.14030,2.99250,-4.79500,0.00000,0.00573,0.96648,-0.22009,2023,6,9,14,12,24,652
0.14040,2.83500,-4.27000,0.00000,0.00622,0.96917,-0.22106,2023,6,9,14,12,24,663
0.14050,2.92250,-4.53250,0.00000,0.00390,0.96587,-0.22167,2023,6,9,14,12,24,674
0.14060,3.09750,-4.56750,0.00000,0.00476,0.96575,-0.22094,2023,6,9,14,12,24,685
0.14070,2.92250,-4.56750,0.00000,0.00878,0.97124,-0.22021,2023,6,9,14,12,24,696
0.14080,2.97500,-4.60250,0.00000,0.00403,0.96709,-0.22045,2023,6,9,14,12,24,707
0.14090,3.08000,-4.74250,0.00000,0.00451,0.96551,-0.22094,2023,6,9,14,12,24,718
0.14100,2.83500,-4.69000,0.00000,0.00537,0.96868,-0.22082,2023,6,9,14,12,24,729
0.14110,2.67750,-4.42750,0.00000,0.00744,0.96624,-0.22253,2023,6,9,14,12,24,740
0.14120,3.02750,-4.63750,0.00000,0.00378,0.96600,-0.22228,2023,6,9,14,12,24,752
0.14130,2.87000,-4.65500,0.00000,0.00683,0.96819,-0.22082,2023,6,9,14,12,24,763
0.14140,2.92250,-4.44500,0.00000,0.00671,0.97014,-0.22228,2023,6,9,14,12,24,774
0.14150,2.99250,-4.51500,0.00000,0.00512,0.96429,-0.22448,2023,6,9,14,12,24,785
0.14160,3.02750,-4.72500,0.00000,0.00537,0.96587,-0.22082,2023,6,9,14,12,24,796
0.14170,2.87000,-4.32250,0.00000,0.00598,0.97100,-0.22045,2023,6,9,14,12,24,807
0.14180,2.88750,-4.60250,0.00000,0.00647,0.96685,-0.22033,2023,6,9,14,12,24,818
0.14190,2.95750,-4.65500,0.00000,0.00500,0.96795,-0.22277,2023,6,9,14,12,24,829
0.14200,2.78250,-4.58500,0.00000,0.00732,0.96941,-0.22302,2023,6,9,14,12,24,840
0.14210,3.11500,-4.76000,0.00000,0.00403,0.96453,-0.22424,2023,6,9,14,12,24,852
0.14220,3.16750,-4.67250,0.00000,0.00439,0.96856,-0.22058,2023,6,9,14,12,24,863
0.14230,2.87000,-4.48000,0.00000,0.00769,0.96929,-0.21997,2023,6,9,14,12,24,874
0.14240,3.02750,-4.44500,0.00000,0.00622,0.96807,-0.22021,2023,6,9,14,12,24,885
0.14250,3.04500,-4.65500,0.00000,0.00500,0.96905,-0.22314,2023,6,9,14,12,24,896
0.14260,2.99250,-4.70750,0.00000,0.00439,0.96819,-0.22204,2023,6,9,14,12,24,907
0.14270,2.94000,-4.60250,0.00000,0.00586,0.96722,-0.22338,2023,6,9,14,12,24,918
0.14280,2.95750,-4.44500,0.00000,0.00586,0.96795,-0.22192,2023,6,9,14,12,24,929
0.14290,2.90500,-4.46250,0.00000,0.00439,0.96941,-0.22228,2023,6,9,14,12,24,940
0.14300,3.09750,-4.63750,0.00000,0.00427,0.96526,-0.22045,2023,6,9,14,12,24,952
0.14310,3.06250,-4.53250,0.00000,0.00464,0.96807,-0.22082,2023,6,9,14,12,24,963
0.14320,3.01000,-4.70750,0.00000,0.00561,0.96880,-0.22277,2023,6,9,14,12,24,974
0.14330,3.06250,-4.74250,0.00000,0.00573,0.96404,-0.22241,2023,6,9,14,12,24,985
0.14340,3.08000,-4.63750,0.00000,0.00598,0.96880,-0.22045,2023,6,9,14,12,24,996
0.14350,3.01000,-4.70750,0.00000,0.00476,0.96905,-0.22277,2023,6,9,14,12,25,7
0.14360,2.97500,-4.41000,0.00000,0.00305,0.96673,-0.22155,2023,6,9,14,12,25,18
0.14370,3.06250,-4.51500,0.00000,0.00342,0.96844,-0.22338,2023,6,9,14,12,25,29
0.14380,2.87000,-4.79500,0.00000,0.00622,0.96844,-0.22326,2023,6,9,14,12,25,40
0.14390,3.08000,-4.53250,0.00000,0.00256,0.96295,-0.22265,2023,6,9,14,12,25,52
0.14400,2.99250,-4.37500,0.00000,0.00988,0.96819,-0.22265,2023,6,9,14,12,25,63
0.14410,3.02750,-4.49750,0.00000,0.00744,0.96685,-0.22363,2023,6,9,14,12,25,74
0.14420,2.92250,-4.65500,0.00000,0.00525,0.96331,-0.22119,2023,6,9,14,12,25,85
0.14430,2.87000,-4.39250,0.00000,0.00720,0.97222,-0.22289,2023,6,9,14,12,25,96
0.14440,3.04500,-4.62000,0.00000,0.00512,0.96539,-0.22204,2023,6,9,14,12,25,107
0.14450,2.90500,-4.63750,0.00000,0.00427,0.96551,-0.22106,2023,6,9,14,12,25,118
0.14460,2.88750,-4.62000,0.00000,0.00549,0.96831,-0.22460,2023,6,9,14,12,25,129
0.14470,2.90500,-4.35750,0.00000,0.00366,0.96453,-0.22082,2023,6,9,14,12,25,140
0.14480,2.94000,-4.42750,0.00000,0.00451,0.96612,-0.22143,2023,6,9,14,12,25,152
0.14490,2.97500,-4.67250,0.00000,0.00415,0.97051,-0.22338,2023,6,9,14,12,25,163
0.14500,3.09750,-4.69000,0.00000,0.00195,0.96270,-0.22302,2023,6,9,14,12,25,174
0.14510,3.04500,-4.60250,0.00000,0.00525,0.96587,-0.22167,2023,6,9,14,12,25,185
0.14520,2.97500,-4.62000,0.00000,0.00500,0.96892,-0.22216,2023,6,9,14,12,25,196
0.14530,3.13250,-4.70750,0.00000,0.00342,0.96148,-0.22180,2023,6,9,14,12,25,207
0.14540,2.94000,-4.53250,0.00000,0.00939,0.96648,-0.22228,2023,6,9,14,12,25,218
0.14550,3.01000,-4.53250,0.00000,0.00586,0.96453,-0.22155,2023,6,9,14,12,25,229
0.14560,3.06250,-4.56750,0.00000,0.00622,0.96551,-0.22082,2023,6,9,14,12,25,240
0.14570,2.88750,-4.63750,0.00000,0.00537,0.97136,-0.22424,2023,6,9,14,12,25,252
0.14580,2.94000,-4.67250,0.00000,0.00390,0.96368,-0.22119,2023,6,9,14,12,25,263
0.14590,3.04500,-4.53250,0.00000,0.00647,0.96941,-0.22045,2023,6,9,14,12,25,274
0.14600,2.76500,-4.53250,0.00000,0.00769,0.96831,-0.22167,2023,6,9,14,12,25,285
0.14610,2.99250,-4.69000,0.00000,0.00305,0.96380,-0.22070,2023,6,9,14,12,25,296
0.14620,3.02750,-4.56750,0.00000,0.00537,0.97234,-0.22253,2023,6,9,14,12,25,307
0.14630,2.87000,-4.67250,0.00000,0.00512,0.96526,-0.22216,2023,6,9,14,12,25,318
0.14640,3.16750,-4.67250,0.00000,0.00439,0.96380,-0.22119,2023,6,9,14,12,25,329
0.14650,3.09750,-4.62000,0.00000,0.00683,0.97051,-0.22228,2023,6,9,14,12,25,340
0.14660,3.15000,-4.81250,0.00000,0.00305,0.96148,-0.22155,2023,6,9,14,12,25,352
0.14670,3.09750,-4.62000,0.00000,0.00586,0.96697,-0.22265,2023,6,9,14,12,25,363
0.14680,3.02750,-4.56750,0.00000,0.00647,0.96490,-0.21948,2023,6,9,14,12,25,374
0.14690,2.95750,-4.55000,0.00000,0.00659,0.96636,-0.22314,2023,6,9,14,12,25,385
0.14700,2.94000,-4.67250,0.00000,0.00695,0.96795,-0.22167,2023,6,9,14,12,25,396
0.14710,3.11500,-4.72500,0.00000,0.00488,0.96465,-0.22094,2023,6,9,14,12,25,407
0.14720,2.99250,-4.51500,0.00000,0.00525,0.96868,-0.21838,2023,6,9,14,12,25,418
0.14730,2.81750,-4.56750,0.00000,0.00647,0.97332,-0.22448,2023,6,9,14,12,25,429
0.14740,2.76500,-4.69000,0.00000,0.00586,0.96453,-0.22119,2023,6,9,14,12,25,440
0.14750,3.01000,-4.51500,0.00000,0.00647,0.97283,-0.22094,2023,6,9,14,12,25,452
0.14760,2.83500,-4.48000,0.00000,0.00110,0.96587,-0.22143,2023,6,9,14,12,25,463
0.14770,3.08000,-4.63750,0.00000,0.00610,0.96587,-0.22180,2023,6,9,14,12,25,474
0.14780,2.95750,-4.49750,0.00000,0.00683,0.97161,-0.22143,2023,6,9,14,12,25,485
0.14790,3.09750,-4.63750,0.00000,0.00354,0.96319,-0.22253,2023,6,9,14,12,25,496
0.14800,2.74750,-4.49750,0.00000,0.00512,0.96783,-0.22082,2023,6,9,14,12,25,507
0.14810,2.94000,-4.53250,0.00000,0.00671,0.97124,-0.22119,2023,6,9,14,12,25,518
0.14820,3.06250,-4.63750,0.00000,0.00427,0.96307,-0.22119,2023,6,9,14,12,25,529
0.14830,3.02750,-4.53250,0.00000,0.00842,0.97075,-0.22411,2023,6,9,14,12,25,540
0.14840,2.81750,-4.42750,0.00000,0.00659,0.96722,-0.22094,2023,6,9,14,12,25,552
0.14850,3.23750,-4.42750,0.00000,0.00439,0.96404,-0.21887,2023,6,9,14,12,25,563
0.14860,2.99250,-4.56750,0.00000,0.00586,0.96770,-0.22070,2023,6,9,14,12,25,574
0.14870,2.85250,-4.58500,0.00000,0.00427,0.96453,-0.22167,2023,6,9,14,12,25,585
0.14880,2.97500,-4.51500,0.00000,0.00329,0.96795,-0.22180,2023,6,9,14,12,25,596
0.14890,2.94000,-4.63750,0.00000,0.00744,0.97149,-0.22143,2023,6,9,14,12,25,607
0.14900,2.88750,-4.65500,0.00000,0.00500,0.96441,-0.21862,2023,6,9,14,12,25,618
0.14910,3.06250,-4.49750,0.00000,0.00622,0.97063,-0.22289,2023,6,9,14,12,25,629
0.14920,2.85250,-4.46250,0.00000,0.00695,0.96953,-0.22070,2023,6,9,14,12,25,640
0.14930,3.01000,-4.62000,0.00000,0.00439,0.96392,-0.22228,2023,6,9,14,12,25,652
0.14940,2.97500,-4.62000,0.00000,0.00671,0.97088,-0.22167,2023,6,9,14,12,25,663
0.14950,2.99250,-4.65500,0.00000,0.00573,0.96966,-0.22241,2023,6,9,14,12,25,674
0.14960,2.74750,-4.39250,0.00000,0.00451,0.96807,-0.21923,2023,6,9,14,12,25,685
0.14970,3.02750,-4.28750,0.00000,0.00573,0.97149,-0.22082,2023,6,9,14,12,25,696
0.14980,3.23750,-4.67250,0.00000,0.00500,0.96490,-0.22058,2023,6,9,14,12,25,707
0.14990,3.02750,-4.65500,0.00000,0.00525,0.97014,-0.22253,2023,6,9,14,12,25,718
0.15000,2.95750,-4.65500,0.00000,0.00695,0.96990,-0.22436,2023,6,9,14,12,25,729
0.15010,3.23750,-4.62000,0.00000,0.00647,0.96709,-0.22155,2023,6,9,14,12,25,740
0.15020,3.11500,-4.67250,0.00000,0.00708,0.96844,-0.22277,2023,6,9,14,12,25,752
0.15030,2.90500,-4.83000,0.00000,0.00537,0.96795,-0.22338,2023,6,9,14,12,25,763
0.15040,3.09750,-4.46250,0.00000,0.00586,0.96600,-0.22143,2023,6,9,14,12,25,774
0.15050,2.99250,-4.48000,0.00000,0.00695,0.96709,-0.22204,2023,6,9,14,12,25,785
0.15060,3.08000,-4.48000,0.00000,0.00561,0.96282,-0.22253,2023,6,9,14,12,25,796
0.15070,3.13250,-4.83000,0.00000,0.00756,0.96831,-0.22228,2023,6,9,14,12,25,807
0.15080,2.88750,-4.42750,0.00000,0.00793,0.96709,-0.22094,2023,6,9,14,12,25,818
0.15090,3.25500,-4.69000,0.00000,0.00537,0.96270,-0.22009,2023,6,9,14,12,25,829
0.15100,3.18500,-4.53250,0.00000,0.00500,0.97027,-0.22094,2023,6,9,14,12,25,840
0.15110,2.94000,-4.60250,0.00000,0.00708,0.96709,-0.22472,2023,6,9,14,12,25,852
0.15120,3.18500,-4.63750,0.00000,0.00403,0.96624,-0.22363,2023,6,9,14,12,25,863
0.15130,3.02750,-4.77750,0.00000,0.00830,0.97161,-0.22326,2023,6,9,14,12,25,874
0.15140,3.11500,-4.60250,0.00000,0.00732,0.96539,-0.22167,2023,6,9,14,12,25,885
0.15150,3.02750,-4.65500,0.00000,0.00439,0.96392,-0.22180,2023,6,9,14,12,25,896
0.15160,2.99250,-4.65500,0.00000,0.00586,0.96966,-0.22363,2023,6,9,14,12,25,907
0.15170,3.13250,-4.60250,0.00000,0.00573,0.96551,-0.22180,2023,6,9,14,12,25,918
0.15180,3.18500,-4.74250,0.00000,0.00622,0.96575,-0.22192,2023,6,9,14,12,25,929
0.15190,2.94000,-4.51500,0.00000,0.00647,0.97063,-0.22375,2023,6,9,14,12,25,940
0.15200,3.25500,-4.62000,0.00000,0.00488,0.96502,-0.22180,2023,6,9,14,12,25,952
0.15210,3.11500,-4.48000,0.00000,0.00451,0.96563,-0.22143,2023,6,9,14,12,25,963
0.15220,3.01000,-4.63750,0.00000,0.00610,0.96844,-0.22314,2023,6,9,14,12,25,974
0.15230,2.99250,-4.48000,0.00000,0.00439,0.96478,-0.22302,2023,6,9,14,12,25,985
0.15240,2.92250,-4.69000,0.00000,0.00659,0.96929,-0.22009,2023,6,9,14,12,25,996
0.15250,2.94000,-4.53250,0.00000,0.00708,0.97039,-0.22204,2023,6,9,14,12,25,7
0.15260,3.11500,-4.44500,0.00000,0.00390,0.96551,-0.22180,2023,6,9,14,12,26,8
0.15270,3.04500,-4.48000,0.00000,0.00366,0.96575,-0.22180,2023,6,9,14,12,26,19
0.15280,3.06250,-4.83000,0.00000,0.00378,0.96807,-0.22265,2023,6,9,14,12,26,30
0.15290,2.97500,-4.56750,0.00000,0.00488,0.96819,-0.22167,2023,6,9,14,12,26,42
0.15300,3.11500,-4.51500,0.00000,0.00537,0.96697,-0.22119,2023,6,9,14,12,26,53
0.15310,2.87000,-4.37500,0.00000,0.00878,0.96844,-0.21923,2023,6,9,14,12,26,64
0.15320,2.81750,-4.37500,0.00000,0.00561,0.96404,-0.22155,2023,6,9,14,12,26,75
0.15330,2.92250,-4.51500,0.00000,0.00439,0.96746,-0.22192,2023,6,9,14,12,26,86
0.15340,3.04500,-4.79500,0.00000,0.00647,0.96990,-0.22228,2023,6,9,14,12,26,97
0.15350,3.06250,-4.77750,0.00000,0.00451,0.96417,-0.21972,2023,6,9,14,12,26,108
0.15360,2.94000,-4.49750,0.00000,0.00720,0.96636,-0.22253,2023,6,9,14,12,26,119
0.15370,2.94000,-4.55000,0.00000,0.00769,0.96624,-0.22021,2023,6,9,14,12,26,130
0.15380,3.02750,-4.49750,0.00000,0.00634,0.96465,-0.22143,2023,6,9,14,12,26,142
0.15390,3.06250,-4.58500,0.00000,0.00427,0.96685,-0.22180,2023,6,9,14,12,26,153
0.15400,2.99250,-4.41000,0.00000,0.00622,0.96648,-0.22277,2023,6,9,14,12,26,164
0.15410,2.87000,-4.62000,0.00000,0.00671,0.96709,-0.22363,2023,6,9,14,12,26,175
0.15420,3.11500,-4.63750,0.00000,0.00439,0.96563,-0.22363,2023,6,9,14,12,26,186
0.15430,3.13250,-4.55000,0.00000,0.00256,0.96490,-0.21948,2023,6,9,14,12,26,197
0.15440,2.85250,-4.63750,0.00000,0.00634,0.97002,-0.22253,2023,6,9,14,12,26,208
0.15450,2.95750,-4.55000,0.00000,0.00464,0.96917,-0.22265,2023,6,9,14,12,26,219
0.15460,2.97500,-4.84750,0.00000,0.00464,0.96563,-0.22204,2023,6,9,14,12,26,230
0.15470,3.01000,-4.55000,0.00000,0.00671,0.96941,-0.21899,2023,6,9,14,12,26,242
0.15480,2.88750,-4.37500,0.00000,0.00573,0.97100,-0.22314,2023,6,9,14,12,26,253
0.15490,2.95750,-4.48000,0.00000,0.00622,0.96917,-0.22058,2023,6,9,14,12,26,264
0.15500,3.02750,-4.63750,0.00000,0.00634,0.96697,-0.22204,2023,6,9,14,12,26,275
0.15510,2.81750,-4.86500,0.00000,0.00598,0.96697,-0.22045,2023,6,9,14,12,26,286
0.15520,3.02750,-4.53250,0.00000,0.00427,0.96624,-0.22241,2023,6,9,14,12,26,297
0.15530,3.08000,-4.65500,0.00000,0.00171,0.96575,-0.22253,2023,6,9,14,12,26,308
0.15540,2.85250,-4.60250,0.00000,0.00549,0.96648,-0.22021,2023,6,9,14,12,26,319
0.15550,2.83500,-4.62000,0.00000,0.00354,0.97051,-0.22228,2023,6,9,14,12,26,330
0.15560,3.08000,-4.62000,0.00000,0.00561,0.96856,-0.22033,2023,6,9,14,12,26,342
0.15570,3.04500,-4.88250,0.00000,0.00488,0.96514,-0.22338,2023,6,9,14,12,26,353
0.15580,2.69500,-4.58500,0.00000,0.00683,0.96709,-0.22033,2023,6,9,14,12,26,364
0.15590,3.09750,-4.65500,0.00000,0.00537,0.96636,-0.22094,2023,6,9,14,12,26,375
0.15600,3.20250,-4.49750,0.00000,0.00561,0.96783,-0.21875,2023,6,9,14,12,26,386
0.15610,2.90500,-4.41000,0.00000,0.00561,0.96685,-0.22155,2023,6,9,14,12,26,397
0.15620,2.95750,-4.74250,0.00000,0.00634,0.96905,-0.22241,2023,6,9,14,12,26,408
0.15630,3.23750,-4.58500,0.00000,0.00720,0.96734,-0.22399,2023,6,9,14,12,26,419
0.15640,2.99250,-4.53250,0.00000,0.00598,0.96575,-0.22350,2023,6,9,14,12,26,430
0.15650,3.08000,-4.56750,0.00000,0.00512,0.97014,-0.22131,2023,6,9,14,12,26,442
0.15660,3.09750,-4.62000,0.00000,0.00586,0.96722,-0.22119,2023,6,9,14,12,26,453
0.15670,2.95750,-4.48000,0.00000,0.00500,0.96673,-0.21887,2023,6,9,14,12,26,464
0.15680,3.11500,-4.41000,0.00000,0.00573,0.96819,-0.22411,2023,6,9,14,12,26,475
0.15690,2.81750,-4.67250,0.00000,0.00451,0.96587,-0.21887,2023,6,9,14,12,26,486
0.15700,3.04500,-4.53250,0.00000,0.00415,0.96685,-0.22338,2023,6,9,14,12,26,497
0.15710,3.15000,-4.56750,0.00000,0.00586,0.96722,-0.22192,2023,6,9,14,12,26,508
0.15720,3.13250,-4.53250,0.00000,0.00647,0.97002,-0.22106,2023,6,9,14,12,26,519
0.15730,2.94000,-4.48000,0.00000,0.00647,0.96953,-0.22411,2023,6,9,14,12,26,530
0.15740,2.92250,-4.63750,0.00000,0.00537,0.96502,-0.22497,2023,6,9,14,12,26,542
0.15750,3.08000,-4.63750,0.00000,0.00232,0.96905,-0.22363,2023,6,9,14,12,26,553
0.15760,3.01000,-4.63750,0.00000,0.00366,0.96819,-0.22155,2023,6,9,14,12,26,564
0.15770,3.02750,-4.74250,0.00000,0.00732,0.96868,-0.22546,2023,6,9,14,12,26,575
0.15780,2.87000,-4.60250,0.00000,0.00439,0.96661,-0.22204,2023,6,9,14,12,26,586
0.15790,2.90500,-4.62000,0.00000,0.00500,0.96795,-0.22253,2023,6,9,14,12,26,597
0.15800,3.06250,-4.67250,0.00000,0.00390,0.96758,-0.22289,2023,6,9,14,12,26,608
0.15810,3.13250,-4.70750,0.00000,0.00830,0.96905,-0.22497,2023,6,9,14,12,26,619
0.15820,2.85250,-4.48000,0.00000,0.00549,0.96673,-0.22302,2023,6,9,14,12,26,630
0.15830,3.16750,-4.65500,0.00000,0.00659,0.96600,-0.22045,2023,6,9,14,12,26,642
0.15840,3.09750,-4.63750,0.00000,0.00549,0.96892,-0.22192,2023,6,9,14,12,26,653
0.15850,2.74750,-4.48000,0.00000,0.00573,0.96917,-0.22472,2023,6,9,14,12,26,664
0.15860,3.01000,-4.37500,0.00000,0.00403,0.96758,-0.22399,2023,6,9,14,12,26,675
0.15870,3.11500,-4.42750,0.00000,0.00598,0.96612,-0.22009,2023,6,9,14,12,26,686
0.15880,2.88750,-4.74250,0.00000,0.00573,0.96746,-0.22228,2023,6,9,14,12,26,697
0.15890,3.13250,-4.60250,0.00000,0.00439,0.97075,-0.22546,2023,6,9,14,12,26,708
0.15900,3.06250,-4.63750,0.00000,0.00561,0.96600,-0.22436,2023,6,9,14,12,26,719
0.15910,2.95750,-4.79500,0.00000,0.00683,0.96722,-0.22131,2023,6,9,14,12,26,730
0.15920,2.95750,-4.62000,0.00000,0.00647,0.96636,-0.22106,2023,6,9,14,12,26,742
0.15930,3.01000,-4.62000,0.00000,0.00451,0.96539,-0.22289,2023,6,9,14,12,26,753
0.15940,2.92250,-4.70750,0.00000,0.00268,0.96795,-0.22289,2023,6,9,14,12,26,764
0.15950,2.97500,-4.74250,0.00000,0.00610,0.96722,-0.21862,2023,6,9,14,12,26,775
0.15960,3.04500,-4.51500,0.00000,0.00720,0.96636,-0.22216,2023,6,9,14,12,26,786
0.15970,3.13250,-4.56750,0.00000,0.00817,0.96783,-0.22265,2023,6,9,14,12,26,797
0.15980,2.95750,-4.55000,0.00000,0.00342,0.96514,-0.22070,2023,6,9,14,12,26,808
0.15990,2.81750,-4.53250,0.00000,0.00439,0.96551,-0.21960,2023,6,9,14,12,26,819
0.16000,2.59000,-4.39250,0.00000,0.00732,0.96539,-0.22021,2023,6,9,14,12,26,830
0.16010,2.78250,-4.55000,0.00000,0.00610,0.96600,-0.22082,2023,6,9,14,12,26,842
0.16020,2.99250,-4.56750,0.00000,0.00488,0.96575,-0.22143,2023,6,9,14,12,26,853
0.16030,3.08000,-4.69000,0.00000,0.00561,0.96600,-0.22119,2023,6,9,14,12,26,864
0.16040,2.76500,-4.62000,0.00000,0.00573,0.96868,-0.22094,2023,6,9,14,12,26,875
0.16050,2.87000,-4.60250,0.00000,0.00476,0.96892,-0.22253,2023,6,9,14,12,26,886
0.16060,2.97500,-4.70750,0.00000,0.00281,0.96478,-0.22314,2023,6,9,14,12,26,897
0.16070,3.13250,-4.63750,0.00000,0.00464,0.96490,-0.21984,2023,6,9,14,12,26,908
0.16080,2.90500,-4.74250,0.00000,0.00720,0.96783,-0.22180,2023,6,9,14,12,26,919
0.16090,3.02750,-4.55000,0.00000,0.00708,0.96905,-0.22021,2023,6,9,14,12,26,930
0.16100,2.88750,-4.56750,0.00000,0.00451,0.96661,-0.22302,2023,6,9,14,12,26,942
0.16110,3.06250,-4.77750,0.00000,0.00598,0.96795,-0.22424,2023,6,9,14,12,26,953
0.16120,2.99250,-4.48000,0.00000,0.00451,0.96709,-0.22228,2023,6,9,14,12,26,964
0.16130,2.90500,-4.34000,0.00000,0.00744,0.96722,-0.22302,2023,6,9,14,12,26,975
0.16140,3.04500,-4.48000,0.00000,0.00390,0.96417,-0.21911,2023,6,9,14,12,26,986
0.16150,2.87000,-4.69000,0.00000,0.00695,0.96795,-0.22241,2023,6,9,14,12,26,997
0.16160,3.06250,-4.53250,0.00000,0.00622,0.96722,-0.22021,2023,6,9,14,12,26,8
0.16170,3.08000,-4.44500,0.00000,0.00634,0.96514,-0.22216,2023,6,9,14,12,27,9
0.16180,2.94000,-4.60250,0.00000,0.00720,0.96709,-0.22119,2023,6,9,14,12,27,20
0.16190,2.94000,-4.60250,0.00000,0.00476,0.96636,-0.21972,2023,6,9,14,12,27,32
0.16200,2.95750,-4.37500,0.00000,0.00549,0.96807,-0.22045,2023,6,9,14,12,27,43
0.16210,3.09750,-4.56750,0.00000,0.00512,0.96783,-0.22509,2023,6,9,14,12,27,54
0.16220,3.06250,-4.72500,0.00000,0.00622,0.96844,-0.22058,2023,6,9,14,12,27,65
0.16230,2.97500,-4.41000,0.00000,0.00586,0.96868,-0.22216,2023,6,9,14,12,27,76
0.16240,2.90500,-4.53250,0.00000,0.00720,0.96673,-0.22411,2023,6,9,14,12,27,87
0.16250,3.04500,-4.76000,0.00000,0.00671,0.96783,-0.22265,2023,6,9,14,12,27,98
0.16260,2.95750,-4.65500,0.00000,0.00610,0.96685,-0.21972,2023,6,9,14,12,27,109
0.16270,2.85250,-4.39250,0.00000,0.00415,0.96697,-0.22216,2023,6,9,14,12,27,120
0.16280,2.83500,-4.67250,0.00000,0.00744,0.96990,-0.22131,2023,6,9,14,12,27,132
0.16290,2.95750,-4.42750,0.00000,0.00573,0.96661,-0.22119,2023,6,9,14,12,27,143
0.16300,2.99250,-4.55000,0.00000,0.00671,0.96636,-0.22399,2023,6,9,14,12,27,154
0.16310,2.94000,-4.81250,0.00000,0.00769,0.96941,-0.21923,2023,6,9,14,12,27,165
0.16320,3.06250,-4.41000,0.00000,0.00586,0.96734,-0.22143,2023,6,9,14,12,27,176
0.16330,3.02750,-4.49750,0.00000,0.00647,0.96575,-0.22058,2023,6,9,14,12,27,187
0.16340,2.99250,-4.51500,0.00000,0.00671,0.96892,-0.22131,2023,6,9,14,12,27,198
0.16350,2.81750,-4.53250,0.00000,0.00622,0.96856,-0.21984,2023,6,9,14,12,27,209
0.16360,2.80000,-4.46250,0.00000,0.00561,0.96917,-0.22021,2023,6,9,14,12,27,220
0.16370,3.13250,-4.63750,0.00000,0.00403,0.96746,-0.22192,2023,6,9,14,12,27,232
0.16380,2.88750,-4.44500,0.00000,0.00427,0.96575,-0.22009,2023,6,9,14,12,27,243
0.16390,2.87000,-4.58500,0.00000,0.00598,0.96770,-0.22082,2023,6,9,14,12,27,254
0.16400,2.87000,-4.62000,0.00000,0.00561,0.96551,-0.21862,2023,6,9,14,12,27,265
0.16410,3.15000,-4.53250,0.00000,0.00512,0.96734,-0.22302,2023,6,9,14,12,27,276
0.16420,3.11500,-4.72500,0.00000,0.00549,0.96709,-0.22082,2023,6,9,14,12,27,287
0.16430,2.94000,-4.55000,0.00000,0.00622,0.96917,-0.22106,2023,6,9,14,12,27,298
0.16440,2.95750,-4.60250,0.00000,0.00573,0.96807,-0.22228,2023,6,9,14,12,27,309
0.16450,3.04500,-4.46250,0.00000,0.00256,0.96880,-0.22106,2023,6,9,14,12,27,320
0.16460,2.99250,-4.65500,0.00000,0.00622,0.96526,-0.22143,2023,6,9,14,12,27,332
0.16470,2.94000,-4.44500,0.00000,0.00695,0.96978,-0.22033,2023,6,9,14,12,27,343
0.16480,2.90500,-4.77750,0.00000,0.00537,0.96587,-0.22326,2023,6,9,14,12,27,354
0.16490,2.83500,-4.42750,0.00000,0.00500,0.96734,-0.22070,2023,6,9,14,12,27,365
0.16500,3.01000,-4.63750,0.00000,0.00451,0.96575,-0.22167,2023,6,9,14,12,27,376
0.16510,2.94000,-4.48000,0.00000,0.00439,0.96795,-0.21875,2023,6,9,14,12,27,387
0.16520,3.04500,-4.55000,0.00000,0.00500,0.96795,-0.22167,2023,6,9,14,12,27,398
0.16530,3.11500,-4.60250,0.00000,0.00647,0.96905,-0.22216,2023,6,9,14,12,27,409
0.16540,2.87000,-4.42750,0.00000,0.00878,0.96892,-0.22192,2023,6,9,14,12,27,420
0.16550,2.76500,-4.65500,0.00000,0.00561,0.96819,-0.21899,2023,6,9,14,12,27,432
0.16560,3.02750,-4.69000,0.00000,0.00439,0.96880,-0.22277,2023,6,9,14,12,27,443
0.16570,3.08000,-4.74250,0.00000,0.00451,0.96868,-0.22180,2023,6,9,14,12,27,454
0.16580,2.88750,-4.55000,0.00000,0.00305,0.96953,-0.22265,2023,6,9,14,12,27,465
0.16590,2.87000,-4.21750,0.00000,0.00695,0.96929,-0.21997,2023,6,9,14,12,27,476
0.16600,2.94000,-4.56750,0.00000,0.00610,0.96526,-0.22253,2023,6,9,14,12,27,487
0.16610,3.02750,-4.37500,0.00000,0.00561,0.96734,-0.22119,2023,6,9,14,12,27,498
0.16620,3.11500,-4.56750,0.00000,0.00708,0.96648,-0.22094,2023,6,9,14,12,27,509
0.16630,2.80000,-4.49750,0.00000,0.00622,0.96722,-0.22131,2023,6,9,14,12,27,520
0.16640,3.13250,-4.58500,0.00000,0.00512,0.96831,-0.22058,2023,6,9,14,12,27,532
0.16650,3.08000,-4.63750,0.00000,0.00415,0.96722,-0.21984,2023,6,9,14,12,27,543
0.16660,2.92250,-4.46250,0.00000,0.00708,0.97039,-0.22241,2023,6,9,14,12,27,554
0.16670,2.97500,-4.60250,0.00000,0.00256,0.96709,-0.21972,2023,6,9,14,12,27,565
0.16680,2.78250,-4.55000,0.00000,0.00537,0.96551,-0.22216,2023,6,9,14,12,27,576
0.16690,2.88750,-4.60250,0.00000,0.00476,0.96770,-0.21801,2023,6,9,14,12,27,587
0.16700,3.18500,-4.63750,0.00000,0.00708,0.96636,-0.21838,2023,6,9,14,12,27,598
0.16710,2.85250,-4.49750,0.00000,0.00512,0.96673,-0.21948,2023,6,9,14,12,27,609
0.16720,2.99250,-4.42750,0.00000,0.00610,0.96892,-0.22216,2023,6,9,14,12,27,620
0.16730,3.04500,-4.51500,0.00000,0.00683,0.96783,-0.21887,2023,6,9,14,12,27,632
0.16740,2.94000,-4.69000,0.00000,0.00427,0.96612,-0.21875,2023,6,9,14,12,27,643
0.16750,3.13250,-4.63750,0.00000,0.00683,0.96624,-0.21997,2023,6,9,14,12,27,654
0.16760,2.97500,-4.58500,0.00000,0.00512,0.96685,-0.21814,2023,6,9,14,12,27,665
0.16770,3.18500,-4.53250,0.00000,0.00537,0.96758,-0.22106,2023,6,9,14,12,27,676
0.16780,3.09750,-4.70750,0.00000,0.00500,0.96539,-0.22045,2023,6,9,14,12,27,687
0.16790,2.85250,-4.55000,0.00000,0.00610,0.96514,-0.22094,2023,6,9,14,12,27,698
0.16800,2.97500,-4.70750,0.00000,0.00598,0.96673,-0.22155,2023,6,9,14,12,27,709
0.16810,2.88750,-4.56750,0.00000,0.00598,0.96624,-0.22009,2023,6,9,14,12,27,720
0.16820,2.90500,-4.60250,0.00000,0.00317,0.96783,-0.22131,2023,6,9,14,12,27,732
0.16830,3.06250,-4.90000,0.00000,0.00390,0.96612,-0.21777,2023,6,9,14,12,27,743
0.16840,2.87000,-4.44500,0.00000,0.00610,0.96868,-0.21948,2023,6,9,14,12,27,754
0.16850,2.94000,-4.35750,0.00000,0.00610,0.96746,-0.22143,2023,6,9,14,12,27,765
0.16860,2.94000,-4.42750,0.00000,0.00769,0.96868,-0.22045,2023,6,9,14,12,27,776
0.16870,3.04500,-4.56750,0.00000,0.00769,0.96575,-0.22033,2023,6,9,14,12,27,787
0.16880,3.02750,-4.63750,0.00000,0.00549,0.96770,-0.22216,2023,6,9,14,12,27,798
0.16890,3.01000,-4.88250,0.00000,0.00488,0.96685,-0.22058,2023,6,9,14,12,27,809
0.16900,3.13250,-4.60250,0.00000,0.00476,0.96734,-0.22033,2023,6,9,14,12,27,820
0.16910,2.71250,-4.34000,0.00000,0.00464,0.96819,-0.22167,2023,6,9,14,12,27,832
0.16920,2.97500,-4.77750,0.00000,0.00403,0.96734,-0.22314,2023,6,9,14,12,27,843
0.16930,3.08000,-4.69000,0.00000,0.00415,0.96831,-0.22033,2023,6,9,14,12,27,854
0.16940,3.04500,-4.49750,0.00000,0.00939,0.96746,-0.21997,2023,6,9,14,12,27,865
0.16950,2.90500,-4.46250,0.00000,0.00647,0.96844,-0.22033,2023,6,9,14,12,27,876
0.16960,2.78250,-4.72500,0.00000,0.00659,0.97051,-0.22192,2023,6,9,14,12,27,887
0.16970,3.16750,-4.63750,0.00000,0.00561,0.96856,-0.22155,2023,6,9,14,12,27,898
0.16980,2.97500,-4.46250,0.00000,0.00439,0.96612,-0.21887,2023,6,9,14,12,27,909
0.16990,3.04500,-4.74250,0.00000,0.00695,0.96746,-0.22155,2023,6,9,14,12,27,920
0.17000,2.95750,-4.63750,0.00000,0.00525,0.96697,-0.22045,2023,6,9,14,12,27,932
0.17010,3.04500,-4.63750,0.00000,0.00366,0.96392,-0.21923,2023,6,9,14,12,27,943
0.17020,2.78250,-4.34000,0.00000,0.00671,0.96831,-0.21936,2023,6,9,14,12,27,954
0.17030,3.13250,-4.58500,0.00000,0.00586,0.96575,-0.22314,2023,6,9,14,12,27,965
0.17040,3.04500,-4.55000,0.00000,0.00488,0.96575,-0.22119,2023,6,9,14,12,27,976
0.17050,2.78250,-4.41000,0.00000,0.00830,0.97027,-0.22180,2023,6,9,14,12,27,987
0.17060,2.81750,-4.60250,0.00000,0.00415,0.96929,-0.22082,2023,6,9,14,12,28,8
0.17070,3.04500,-4.58500,0.00000,0.00305,0.96563,-0.22338,2023,6,9,14,12,28,19
0.17080,3.02750,-4.44500,0.00000,0.00415,0.96831,-0.21984,2023,6,9,14,12,28,30
0.17090,2.95750,-4.67250,0.00000,0.00610,0.96831,-0.22241,2023,6,9,14,12,28,42
0.17100,3.09750,-4.53250,0.00000,0.00708,0.96575,-0.22143,2023,6,9,14,12,28,53
0.17110,3.02750,-4.84750,0.00000,0.00500,0.96734,-0.22033,2023,6,9,14,12,28,64
0.17120,2.78250,-4.48000,0.00000,0.00769,0.96941,-0.22094,2023,6,9,14,12,28,75
0.17130,2.97500,-4.77750,0.00000,0.00659,0.96844,-0.22082,2023,6,9,14,12,28,86
0.17140,3.04500,-4.67250,0.00000,0.00805,0.96709,-0.22204,2023,6,9,14,12,28,97
0.17150,2.95750,-4.69000,0.00000,0.00805,0.96831,-0.22265,2023,6,9,14,12,28,108
0.17160,2.99250,-4.56750,0.00000,0.00488,0.96673,-0.22228,2023,6,9,14,12,28,119
0.17170,3.13250,-4.81250,0.00000,0.00378,0.96343,-0.22033,2023,6,9,14,12,28,130
0.17180,2.97500,-4.62000,0.00000,0.00830,0.96758,-0.22143,2023,6,9,14,12,28,142
0.17190,2.92250,-4.70750,0.00000,0.00598,0.97014,-0.22399,2023,6,9,14,12,28,153
0.17200,3.04500,-4.49750,0.00000,0.00610,0.96587,-0.22155,2023,6,9,14,12,28,164
0.17210,2.95750,-4.72500,0.00000,0.00695,0.97014,-0.21997,2023,6,9,14,12,28,175
0.17220,2.90500,-4.53250,0.00000,0.00610,0.96539,-0.22082,2023,6,9,14,12,28,186
0.17230,2.87000,-4.58500,0.00000,0.00427,0.96502,-0.22155,2023,6,9,14,12,28,197
0.17240,2.78250,-4.48000,0.00000,0.00964,0.97136,-0.22375,2023,6,9,14,12,28,208
0.17250,2.94000,-4.39250,0.00000,0.00659,0.96758,-0.22131,2023,6,9,14,12,28,219
0.17260,2.99250,-4.41000,0.00000,0.00622,0.96490,-0.21923,2023,6,9,14,12,28,230
0.17270,2.88750,-4.53250,0.00000,0.00671,0.96783,-0.22302,2023,6,9,14,12,28,242
0.17280,3.02750,-4.44500,0.00000,0.00366,0.96624,-0.22326,2023,6,9,14,12,28,253
0.17290,3.06250,-4.67250,0.00000,0.00610,0.96831,-0.22033,2023,6,9,14,12,28,264
0.17300,2.87000,-4.42750,0.00000,0.00573,0.96892,-0.22131,2023,6,9,14,12,28,275
0.17310,3.04500,-4.58500,0.00000,0.00366,0.96746,-0.22167,2023,6,9,14,12,28,286
0.17320,2.97500,-4.56750,0.00000,0.00793,0.96856,-0.22143,2023,6,9,14,12,28,297
0.17330,3.09750,-4.55000,0.00000,0.00671,0.96966,-0.21997,2023,6,9,14,12,28,308
0.17340,3.06250,-4.60250,0.00000,0.00378,0.96697,-0.22241,2023,6,9,14,12,28,319
0.17350,3.01000,-4.62000,0.00000,0.00732,0.96746,-0.22070,2023,6,9,14,12,28,330
0.17360,2.97500,-4.41000,0.00000,0.00634,0.96795,-0.22180,2023,6,9,14,12,28,342
0.17370,2.94000,-4.56750,0.00000,0.00610,0.96392,-0.22192,2023,6,9,14,12,28,353
0.17380,2.88750,-4.65500,0.00000,0.00903,0.96868,-0.21911,2023,6,9,14,12,28,364
0.17390,2.87000,-4.65500,0.00000,0.00769,0.96868,-0.22082,2023,6,9,14,12,28,375
0.17400,3.22000,-4.70750,0.00000,0.00512,0.96575,-0.22192,2023,6,9,14,12,28,386
0.17410,3.06250,-4.70750,0.00000,0.00622,0.97222,-0.22204,2023,6,9,14,12,28,397
0.17420,2.92250,-4.62000,0.00000,0.00451,0.96441,-0.21997,2023,6,9,14,12,28,408
0.17430,3.16750,-4.60250,0.00000,0.00634,0.96282,-0.22021,2023,6,9,14,12,28,419
0.17440,2.88750,-4.70750,0.00000,0.00671,0.97051,-0.22277,2023,6,9,14,12,28,430
0.17450,2.99250,-4.60250,0.00000,0.00427,0.96563,-0.22058,2023,6,9,14,12,28,442
0.17460,3.09750,-4.79500,0.00000,0.00549,0.96587,-0.22058,2023,6,9,14,12,28,453
0.17470,2.81750,-4.48000,0.00000,0.00622,0.96917,-0.21997,2023,6,9,14,12,28,464
0.17480,3.04500,-4.72500,0.00000,0.00342,0.96392,-0.21997,2023,6,9,14,12,28,475
0.17490,3.18500,-4.60250,0.00000,0.00744,0.97075,-0.22265,2023,6,9,14,12,28,486
0.17500,2.99250,-4.60250,0.00000,0.00366,0.97234,-0.22326,2023,6,9,14,12,28,497
0.17510,3.04500,-4.58500,0.00000,0.00512,0.96392,-0.22326,2023,6,9,14,12,28,508
0.17520,2.94000,-4.70750,0.00000,0.00708,0.96880,-0.21997,2023,6,9,14,12,28,519
0.17530,3.06250,-4.56750,0.00000,0.00512,0.96575,-0.22106,2023,6,9,14,12,28,530
0.17540,3.08000,-4.74250,0.00000,0.00537,0.96514,-0.22460,2023,6,9,14,12,28,542
0.17550,2.90500,-4.42750,0.00000,0.00903,0.97063,-0.22131,2023,6,9,14,12,28,553
0.17560,2.99250,-4.72500,0.00000,0.00110,0.96136,-0.22155,2023,6,9,14,12,28,564
0.17570,2.92250,-4.55000,0.00000,0.00439,0.96709,-0.22119,2023,6,9,14,12,28,575
0.17580,2.74750,-4.48000,0.00000,0.00476,0.97173,-0.22033,2023,6,9,14,12,28,586
0.17590,3.02750,-4.51500,0.00000,0.00232,0.96197,-0.22241,2023,6,9,14,12,28,597
0.17600,2.90500,-4.69000,0.00000,0.00439,0.97027,-0.22424,2023,6,9,14,12,28,608
0.17610,2.83500,-4.39250,0.00000,0.00732,0.96905,-0.22131,2023,6,9,14,12,28,619
0.17620,2.87000,-4.58500,0.00000,0.00683,0.96368,-0.22058,2023,6,9,14,12,28,630
0.17630,3.01000,-4.58500,0.00000,0.00744,0.97271,-0.22155,2023,6,9,14,12,28,642
0.17640,2.90500,-4.60250,0.00000,0.00512,0.96746,-0.22350,2023,6,9,14,12,28,653
0.17650,3.20250,-4.56750,0.00000,0.00390,0.96734,-0.22192,2023,6,9,14,12,28,664
0.17660,2.99250,-4.72500,0.00000,0.00671,0.97100,-0.22387,2023,6,9,14,12,28,675
0.17670,2.88750,-4.67250,0.00000,0.00573,0.96526,-0.22070,2023,6,9,14,12,28,686
0.17680,2.94000,-4.60250,0.00000,0.00537,0.96966,-0.22106,2023,6,9,14,12,28,697
0.17690,2.87000,-4.65500,0.00000,0.00647,0.96648,-0.22009,2023,6,9,14,12,28,708
0.17700,3.18500,-4.60250,0.00000,0.00610,0.96380,-0.22094,2023,6,9,14,12,28,719
0.17710,3.15000,-4.51500,0.00000,0.00634,0.96953,-0.22350,2023,6,9,14,12,28,730
0.17720,2.94000,-4.69000,0.00000,0.00476,0.96673,-0.22241,2023,6,9,14,12,28,742
0.17730,2.94000,-4.74250,0.00000,0.00451,0.96465,-0.22070,2023,6,9,14,12,28,753
0.17740,2.95750,-4.46250,0.00000,0.00793,0.96636,-0.21997,2023,6,9,14,12,28,764
0.17750,2.94000,-4.67250,0.00000,0.00439,0.96429,-0.22045,2023,6,9,14,12,28,775
0.17760,3.11500,-4.55000,0.00000,0.00671,0.96941,-0.22350,2023,6,9,14,12,28,786
0.17770,2.83500,-4.46250,0.00000,0.00708,0.96978,-0.22424,2023,6,9,14,12,28,797
0.17780,3.04500,-4.67250,0.00000,0.00366,0.96441,-0.21777,2023,6,9,14,12,28,808
0.17790,3.01000,-4.65500,0.00000,0.00647,0.97014,-0.22180,2023,6,9,14,12,28,819
0.17800,3.11500,-4.55000,0.00000,0.00464,0.96600,-0.22094,2023,6,9,14,12,28,830
0.17810,2.97500,-4.58500,0.00000,0.00525,0.96307,-0.22106,2023,6,9,14,12,28,842
0.17820,2.99250,-4.60250,0.00000,0.00403,0.97014,-0.22253,2023,6,9,14,12,28,853
0.17830,3.01000,-4.77750,0.00000,0.00512,0.96417,-0.22289,2023,6,9,14,12,28,864
0.17840,3.09750,-4.69000,0.00000,0.00488,0.96758,-0.22289,2023,6,9,14,12,28,875
0.17850,2.83500,-4.63750,0.00000,0.00720,0.96917,-0.22009,2023,6,9,14,12,28,886
0.17860,3.11500,-4.35750,0.00000,0.00500,0.96319,-0.21899,2023,6,9,14,12,28,897
0.17870,3.02750,-4.48000,0.00000,0.00781,0.96941,-0.22424,2023,6,9,14,12,28,908
0.17880,2.69500,-4.67250,0.00000,0.00390,0.96990,-0.22302,2023,6,9,14,12,28,919
0.17890,3.01000,-4.55000,0.00000,0.00256,0.96453,-0.22070,2023,6,9,14,12,28,930
0.17900,2.87000,-4.70750,0.00000,0.00854,0.96587,-0.22192,2023,6,9,14,12,28,942
0.17910,3.01000,-4.62000,0.00000,0.00634,0.96600,-0.22326,2023,6,9,14,12,28,953
0.17920,3.20250,-4.74250,0.00000,0.00561,0.96844,-0.22192,2023,6,9,14,12,28,964
0.17930,2.94000,-4.44500,0.00000,0.00586,0.96770,-0.22363,2023,6,9,14,12,28,975
0.17940,3.08000,-4.62000,0.00000,0.00488,0.96075,-0.21960,2023,6,9,14,12,28,986
0.17950,2.99250,-4.58500,0.00000,0.00769,0.96880,-0.22460,2023,6,9,14,12,28,997
0.17960,2.80000,-4.55000,0.00000,0.00549,0.96917,-0.22216,2023,6,9,14,12,28,8
0.17970,3.11500,-4.39250,0.00000,0.00476,0.96234,-0.22180,2023,6,9,14,12,29,9
0.17980,2.94000,-4.53250,0.00000,0.00610,0.97319,-0.22155,2023,6,9,14,12,29,20
0.17990,2.83500,-4.46250,0.00000,0.00220,0.96661,-0.22106,2023,6,9,14,12,29,32
0.18000,3.01000,-4.84750,0.00000,0.00512,0.96600,-0.22228,2023,6,9,14,12,29,43
0.18010,2.85250,-4.39250,0.00000,0.00732,0.97136,-0.22289,2023,6,9,14,12,29,54
0.18020,2.95750,-4.48000,0.00000,0.00561,0.96209,-0.22106,2023,6,9,14,12,29,65
0.18030,3.01000,-4.72500,0.00000,0.00451,0.97039,-0.22289,2023,6,9,14,12,29,76
0.18040,3.04500,-4.46250,0.00000,0.00500,0.97075,-0.22192,2023,6,9,14,12,29,87
0.18050,3.04500,-4.65500,0.00000,0.00525,0.96356,-0.22009,2023,6,9,14,12,29,98
0.18060,2.76500,-4.58500,0.00000,0.00744,0.97051,-0.21923,2023,6,9,14,12,29,109
0.18070,2.90500,-4.51500,0.00000,0.00207,0.96917,-0.22192,2023,6,9,14,12,29,120
0.18080,3.15000,-4.58500,0.00000,0.00525,0.96685,-0.22106,2023,6,9,14,12,29,132
0.18090,2.95750,-4.46250,0.00000,0.00622,0.97197,-0.22314,2023,6,9,14,12,29,143
0.18100,3.04500,-4.58500,0.00000,0.00415,0.96404,-0.22070,2023,6,9,14,12,29,154
0.18110,3.13250,-4.46250,0.00000,0.00647,0.97039,-0.21887,2023,6,9,14,12,29,165
0.18120,3.01000,-4.39250,0.00000,0.00390,0.96587,-0.22131,2023,6,9,14,12,29,176
0.18130,3.18500,-4.51500,0.00000,0.00561,0.96319,-0.21911,2023,6,9,14,12,29,187
0.18140,2.95750,-4.67250,0.00000,0.00830,0.96880,-0.22399,2023,6,9,14,12,29,198
0.18150,2.87000,-4.56750,0.00000,0.00439,0.96587,-0.22289,2023,6,9,14,12,29,209
0.18160,2.94000,-4.55000,0.00000,0.00573,0.96648,-0.22204,2023,6,9,14,12,29,220
0.18170,2.87000,-4.51500,0.00000,0.00488,0.97161,-0.22436,2023,6,9,14,12,29,232
0.18180,3.11500,-4.63750,0.00000,0.00366,0.96258,-0.22119,2023,6,9,14,12,29,243
0.18190,2.95750,-4.53250,0.00000,0.00598,0.96856,-0.22216,2023,6,9,14,12,29,254
0.18200,2.97500,-4.51500,0.00000,0.00695,0.96880,-0.22204,2023,6,9,14,12,29,265
0.18210,2.85250,-4.63750,0.00000,0.00451,0.96539,-0.22155,2023,6,9,14,12,29,276
0.18220,2.95750,-4.72500,0.00000,0.00939,0.97063,-0.22106,2023,6,9,14,12,29,287
0.18230,2.94000,-4.58500,0.00000,0.00427,0.96429,-0.21911,2023,6,9,14,12,29,298
0.18240,3.08000,-4.56750,0.00000,0.00512,0.96551,-0.22241,2023,6,9,14,12,29,309
0.18250,2.94000,-4.74250,0.00000,0.00598,0.97039,-0.22277,2023,6,9,14,12,29,320
0.18260,3.04500,-4.58500,0.00000,0.00476,0.96356,-0.22106,2023,6,9,14,12,29,332
0.18270,2.99250,-4.56750,0.00000,0.00659,0.96941,-0.22472,2023,6,9,14,12,29,343
0.18280,2.90500,-4.51500,0.00000,0.00183,0.96819,-0.22143,2023,6,9,14,12,29,354
0.18290,2.90500,-4.62000,0.00000,0.00378,0.96234,-0.21875,2023,6,9,14,12,29,365
0.18300,2.80000,-4.70750,0.00000,0.00720,0.97222,-0.22216,2023,6,9,14,12,29,376
0.18310,3.09750,-4.62000,0.00000,0.00573,0.96600,-0.22094,2023,6,9,14,12,29,387
0.18320,2.90500,-4.58500,0.00000,0.00683,0.96807,-0.22424,2023,6,9,14,12,29,398
0.18330,2.94000,-4.42750,0.00000,0.00756,0.96990,-0.22204,2023,6,9,14,12,29,409
0.18340,2.95750,-4.53250,0.00000,0.00732,0.96295,-0.22216,2023,6,9,14,12,29,420
0.18350,3.04500,-4.48000,0.00000,0.00756,0.96966,-0.22119,2023,6,9,14,12,29,432
0.18360,2.83500,-4.56750,0.00000,0.00427,0.96892,-0.22216,2023,6,9,14,12,29,443
0.18370,3.16750,-4.62000,0.00000,0.00549,0.96453,-0.22289,2023,6,9,14,12,29,454
0.18380,2.94000,-4.37500,0.00000,0.00610,0.97234,-0.22192,2023,6,9,14,12,29,465
0.18390,2.95750,-4.67250,0.00000,0.00671,0.96514,-0.22204,2023,6,9,14,12,29,476
0.18400,3.09750,-4.70750,0.00000,0.00354,0.96905,-0.22143,2023,6,9,14,12,29,487
0.18410,2.85250,-4.53250,0.00000,0.00500,0.97124,-0.22277,2023,6,9,14,12,29,498
0.18420,2.94000,-4.48000,0.00000,0.00500,0.96453,-0.22131,2023,6,9,14,12,29,509
0.18430,3.09750,-4.48000,0.00000,0.00586,0.96819,-0.22204,2023,6,9,14,12,29,520
0.18440,3.11500,-4.60250,0.00000,0.00378,0.96917,-0.22045,2023,6,9,14,12,29,532
0.18450,3.11500,-4.60250,0.00000,0.00378,0.96563,-0.22058,2023,6,9,14,12,29,543
0.18460,3.04500,-4.65500,0.00000,0.00598,0.96929,-0.21887,2023,6,9,14,12,29,554
0.18470,3.02750,-4.35750,0.00000,0.00451,0.96478,-0.22070,2023,6,9,14,12,29,565
0.18480,2.97500,-4.41000,0.00000,0.00537,0.96575,-0.22045,2023,6,9,14,12,29,576
0.18490,3.09750,-4.42750,0.00000,0.00634,0.97051,-0.22058,2023,6,9,14,12,29,587
0.18500,3.11500,-4.67250,0.00000,0.00720,0.96636,-0.22119,2023,6,9,14,12,29,598
0.18510,3.06250,-4.67250,0.00000,0.00732,0.96648,-0.22082,2023,6,9,14,12,29,609
0.18520,2.66000,-4.69000,0.00000,0.00622,0.96905,-0.22253,2023,6,9,14,12,29,620
0.18530,3.13250,-4.70750,0.00000,0.00293,0.96514,-0.22119,2023,6,9,14,12,29,632
0.18540,3.04500,-4.39250,0.00000,0.00464,0.96905,-0.22302,2023,6,9,14,12,29,643
0.18550,2.90500,-4.62000,0.00000,0.00805,0.97149,-0.22460,2023,6,9,14,12,29,654
0.18560,2.95750,-4.58500,0.00000,0.00342,0.96356,-0.21960,2023,6,9,14,12,29,665
0.18570,3.11500,-4.58500,0.00000,0.00586,0.96831,-0.22289,2023,6,9,14,12,29,676
0.18580,3.08000,-4.53250,0.00000,0.00573,0.96868,-0.22277,2023,6,9,14,12,29,687
0.18590,2.95750,-4.60250,0.00000,0.00659,0.96844,-0.22070,2023,6,9,14,12,29,698
0.18600,2.95750,-4.44500,0.00000,0.00769,0.97002,-0.22302,2023,6,9,14,12,29,709
0.18610,3.13250,-4.62000,0.00000,0.00451,0.96587,-0.22277,2023,6,9,14,12,29,720
0.18620,3.08000,-4.51500,0.00000,0.00403,0.96539,-0.22167,2023,6,9,14,12,29,732
0.18630,2.94000,-4.67250,0.00000,0.00561,0.96905,-0.22143,2023,6,9,14,12,29,743
0.18640,3.08000,-4.25250,0.00000,0.00451,0.96709,-0.22167,2023,6,9,14,12,29,754
0.18650,3.06250,-4.37500,0.00000,0.00512,0.96478,-0.22204,2023,6,9,14,12,29,765
0.18660,2.78250,-4.53250,0.00000,0.00708,0.96941,-0.22180,2023,6,9,14,12,29,776
0.18670,2.81750,-4.53250,0.00000,0.00439,0.96502,-0.21899,2023,6,9,14,12,29,787
0.18680,3.02750,-4.39250,0.00000,0.00549,0.96624,-0.22192,2023,6,9,14,12,29,798
0.18690,2.85250,-4.49750,0.00000,0.00464,0.96953,-0.22155,2023,6,9,14,12,29,809
0.18700,3.04500,-4.55000,0.00000,0.00549,0.96380,-0.22326,2023,6,9,14,12,29,820
0.18710,3.08000,-4.69000,0.00000,0.00647,0.96953,-0.22216,2023,6,9,14,12,29,832
0.18720,2.97500,-4.42750,0.00000,0.00561,0.96831,-0.22302,2023,6,9,14,12,29,843
0.18730,3.06250,-4.58500,0.00000,0.00268,0.96526,-0.21984,2023,6,9,14,12,29,854
0.18740,2.88750,-4.60250,0.00000,0.00622,0.96734,-0.22216,2023,6,9,14,12,29,865
0.18750,2.87000,-4.42750,0.00000,0.00732,0.97051,-0.22314,2023,6,9,14,12,29,876
0.18760,2.99250,-4.67250,0.00000,0.00549,0.96429,-0.22131,2023,6,9,14,12,29,887
0.18770,3.13250,-4.46250,0.00000,0.00720,0.97258,-0.22302,2023,6,9,14,12,29,898
0.18780,2.97500,-4.46250,0.00000,0.00634,0.96905,-0.22375,2023,6,9,14,12,29,909
0.18790,3.22000,-4.74250,0.00000,0.00342,0.96392,-0.22302,2023,6,9,14,12,29,920
0.18800,3.08000,-4.70750,0.00000,0.00683,0.97027,-0.22302,2023,6,9,14,12,29,932
0.18810,2.97500,-4.76000,0.00000,0.00561,0.96673,-0.22399,2023,6,9,14,12,29,943
0.18820,3.08000,-4.55000,0.00000,0.00464,0.96417,-0.21948,2023,6,9,14,12,29,954
0.18830,2.88750,-4.60250,0.00000,0.00586,0.96966,-0.22314,2023,6,9,14,12,29,965
0.18840,3.02750,-4.49750,0.00000,0.00573,0.96526,-0.22106,2023,6,9,14,12,29,976
0.18850,2.85250,-4.42750,0.00000,0.00586,0.96600,-0.22277,2023,6,9,14,12,29,987
0.18860,2.94000,-4.62000,0.00000,0.00354,0.96941,-0.22192,2023,6,9,14,12,29,998
0.18870,3.01000,-4.44500,0.00000,0.00451,0.96453,-0.21984,2023,6,9,14,12,30,9
0.18880,3.09750,-4.69000,0.00000,0.00586,0.96770,-0.22155,2023,6,9,14,12,30,20
0.18890,2.81750,-4.62000,0.00000,0.00427,0.96758,-0.22289,2023,6,9,14,12,30,32
0.18900,3.15000,-4.62000,0.00000,0.00317,0.96417,-0.22302,2023,6,9,14,12,30,43
0.18910,3.29000,-4.79500,0.00000,0.00476,0.96905,-0.22058,2023,6,9,14,12,30,54
0.18920,2.94000,-4.37500,0.00000,0.00549,0.96600,-0.22009,2023,6,9,14,12,30,65
0.18930,3.25500,-4.67250,0.00000,0.00659,0.96600,-0.22094,2023,6,9,14,12,30,76
0.18940,3.04500,-4.46250,0.00000,0.00659,0.96819,-0.22192,2023,6,9,14,12,30,87
0.18950,3.01000,-4.60250,0.00000,0.00451,0.96465,-0.22155,2023,6,9,14,12,30,98
0.18960,2.95750,-4.39250,0.00000,0.00500,0.96734,-0.22192,2023,6,9,14,12,30,109
0.18970,2.90500,-4.63750,0.00000,0.00695,0.97039,-0.22167,2023,6,9,14,12,30,120
0.18980,2.99250,-4.74250,0.00000,0.00634,0.96673,-0.22155,2023,6,9,14,12,30,132
0.18990,3.15000,-4.55000,0.00000,0.00525,0.96905,-0.22241,2023,6,9,14,12,30,143
0.19000,2.87000,-4.32250,0.00000,0.00805,0.96905,-0.22241,2023,6,9,14,12,30,154
0.19010,3.02750,-4.42750,0.00000,0.00317,0.96453,-0.22314,2023,6,9,14,12,30,165
0.19020,2.99250,-4.44500,0.00000,0.00512,0.96624,-0.22094,2023,6,9,14,12,30,176
0.19030,2.94000,-4.67250,0.00000,0.00769,0.97088,-0.22082,2023,6,9,14,12,30,187
0.19040,3.11500,-4.60250,0.00000,0.00488,0.96380,-0.22180,2023,6,9,14,12,30,198
0.19050,2.88750,-4.62000,0.00000,0.00647,0.96807,-0.22265,2023,6,9,14,12,30,209
0.19060,2.85250,-4.46250,0.00000,0.00537,0.96831,-0.22326,2023,6,9,14,12,30,220
0.19070,2.88750,-4.55000,0.00000,0.00232,0.96380,-0.22253,2023,6,9,14,12,30,232
0.19080,2.92250,-4.58500,0.00000,0.00647,0.97161,-0.21984,2023,6,9,14,12,30,243
0.19090,2.87000,-4.32250,0.00000,0.00793,0.97002,-0.22302,2023,6,9,14,12,30,254
0.19100,2.78250,-4.53250,0.00000,0.00647,0.96551,-0.21923,2023,6,9,14,12,30,265
0.19110,3.13250,-4.63750,0.00000,0.00512,0.96892,-0.22106,2023,6,9,14,12,30,276
0.19120,3.25500,-4.63750,0.00000,0.00476,0.97002,-0.22228,2023,6,9,14,12,30,287
0.19130,3.06250,-4.58500,0.00000,0.00512,0.96722,-0.22399,2023,6,9,14,12,30,298
0.19140,2.81750,-4.44500,0.00000,0.00683,0.96831,-0.22241,2023,6,9,14,12,30,309
0.19150,3.09750,-4.46250,0.00000,0.00549,0.96587,-0.22021,2023,6,9,14,12,30,320
0.19160,3.08000,-4.46250,0.00000,0.00586,0.96819,-0.22058,2023,6,9,14,12,30,332
0.19170,2.99250,-4.21750,0.00000,0.00525,0.96953,-0.22436,2023,6,9,14,12,30,343
0.19180,2.90500,-4.65500,0.00000,0.00281,0.96612,-0.22119,2023,6,9,14,12,30,354
0.19190,2.99250,-4.44500,0.00000,0.00561,0.97124,-0.22350,2023,6,9,14,12,30,365
0.19200,2.88750,-4.42750,0.00000,0.00769,0.96819,-0.22289,2023,6,9,14,12,30,376
0.19210,2.92250,-4.46250,0.00000,0.00354,0.96551,-0.22192,2023,6,9,14,12,30,387
0.19220,3.01000,-4.46250,0.00000,0.00805,0.96880,-0.22228,2023,6,9,14,12,30,398
0.19230,2.92250,-4.39250,0.00000,0.00732,0.96734,-0.22143,2023,6,9,14,12,30,409
0.19240,2.90500,-4.69000,0.00000,0.00415,0.96319,-0.22289,2023,6,9,14,12,30,420
0.19250,2.88750,-4.44500,0.00000,0.00415,0.96831,-0.22033,2023,6,9,14,12,30,432
0.19260,2.97500,-4.42750,0.00000,0.00305,0.96929,-0.22253,2023,6,9,14,12,30,443
0.19270,3.09750,-4.46250,0.00000,0.00378,0.96343,-0.22106,2023,6,9,14,12,30,454
0.19280,2.94000,-4.62000,0.00000,0.00598,0.96978,-0.22228,2023,6,9,14,12,30,465
0.19290,2.95750,-4.20000,0.00000,0.00647,0.96722,-0.22241,2023,6,9,14,12,30,476
0.19300,3.13250,-4.53250,0.00000,0.00634,0.96502,-0.21984,2023,6,9,14,12,30,487
0.19310,2.97500,-4.53250,0.00000,0.00708,0.96917,-0.22204,2023,6,9,14,12,30,498
0.19320,2.88750,-4.55000,0.00000,0.00549,0.96636,-0.22363,2023,6,9,14,12,30,509
0.19330,3.08000,-4.84750,0.00000,0.00439,0.96368,-0.22546,2023,6,9,14,12,30,520
0.19340,2.97500,-4.42750,0.00000,0.00744,0.96880,-0.22253,2023,6,9,14,12,30,532
0.19350,2.99250,-4.77750,0.00000,0.00329,0.96478,-0.22204,2023,6,9,14,12,30,543
0.19360,3.13250,-4.56750,0.00000,0.00488,0.96612,-0.21984,2023,6,9,14,12,30,554
0.19370,2.97500,-4.49750,0.00000,0.00537,0.96941,-0.22180,2023,6,9,14,12,30,565
0.19380,3.16750,-4.51500,0.00000,0.00634,0.96563,-0.22326,2023,6,9,14,12,30,576
0.19390,2.87000,-4.53250,0.00000,0.00830,0.96734,-0.22192,2023,6,9,14,12,30,587
0.19400,3.02750,-4.74250,0.00000,0.00622,0.96709,-0.22387,2023,6,9,14,12,30,598
0.19410,3.02750,-4.63750,0.00000,0.00378,0.96417,-0.22216,2023,6,9,14,12,30,609
0.19420,3.13250,-4.53250,0.00000,0.00817,0.96905,-0.22289,2023,6,9,14,12,30,620
0.19430,2.90500,-4.53250,0.00000,0.00293,0.96892,-0.22180,2023,6,9,14,12,30,632
0.19440,2.99250,-4.44500,0.00000,0.00573,0.96417,-0.22082,2023,6,9,14,12,30,643
0.19450,3.04500,-4.46250,0.00000,0.00708,0.96929,-0.22131,2023,6,9,14,12,30,654
0.19460,2.88750,-4.41000,0.00000,0.00525,0.96746,-0.22094,2023,6,9,14,12,30,665
0.19470,3.01000,-4.62000,0.00000,0.00378,0.96465,-0.22302,2023,6,9,14,12,30,676
0.19480,2.95750,-4.49750,0.00000,0.00683,0.96941,-0.22241,2023,6,9,14,12,30,687
0.19490,3.01000,-4.56750,0.00000,0.00512,0.96587,-0.22131,2023,6,9,14,12,30,698
0.19500,3.02750,-4.51500,0.00000,0.00500,0.96685,-0.22289,2023,6,9,14,12,30,709
0.19510,2.92250,-4.41000,0.00000,0.00671,0.96795,-0.22338,2023,6,9,14,12,30,720
0.19520,2.94000,-4.42750,0.00000,0.00281,0.96441,-0.22155,2023,6,9,14,12,30,732
0.19530,2.92250,-4.67250,0.00000,0.00683,0.96807,-0.22167,2023,6,9,14,12,30,743
0.19540,3.06250,-4.65500,0.00000,0.00805,0.96819,-0.22277,2023,6,9,14,12,30,754
0.19550,2.95750,-4.63750,0.00000,0.00464,0.96307,-0.22082,2023,6,9,14,12,30,765
0.19560,3.11500,-4.65500,0.00000,0.00439,0.96746,-0.22119,2023,6,9,14,12,30,776
0.19570,2.88750,-4.48000,0.00000,0.00634,0.96917,-0.22289,2023,6,9,14,12,30,787
0.19580,2.99250,-4.58500,0.00000,0.00439,0.96441,-0.22265,2023,6,9,14,12,30,798
0.19590,2.88750,-4.41000,0.00000,0.00586,0.97234,-0.22485,2023,6,9,14,12,30,809
0.19600,3.13250,-4.74250,0.00000,0.00573,0.97112,-0.22155,2023,6,9,14,12,30,820
0.19610,3.06250,-4.58500,0.00000,0.00159,0.96282,-0.22411,2023,6,9,14,12,30,832
0.19620,2.81750,-4.39250,0.00000,0.00720,0.96978,-0.22302,2023,6,9,14,12,30,843
0.19630,2.87000,-4.58500,0.00000,0.00744,0.97051,-0.22485,2023,6,9,14,12,30,854
0.19640,3.27250,-4.65500,0.00000,0.00549,0.96490,-0.22375,2023,6,9,14,12,30,865
0.19650,2.85250,-4.62000,0.00000,0.00695,0.96941,-0.22424,2023,6,9,14,12,30,876
0.19660,3.02750,-4.74250,0.00000,0.00476,0.96709,-0.22119,2023,6,9,14,12,30,887
0.19670,3.15000,-4.60250,0.00000,0.00720,0.96429,-0.22448,2023,6,9,14,12,30,898
0.19680,3.02750,-4.72500,0.00000,0.00708,0.97002,-0.22399,2023,6,9,14,12,30,909
0.19690,2.88750,-4.69000,0.00000,0.00305,0.96746,-0.22033,2023,6,9,14,12,30,920
0.19700,3.04500,-4.72500,0.00000,0.00647,0.96636,-0.22021,2023,6,9,14,12,30,932
0.19710,2.83500,-4.44500,0.00000,0.00622,0.97027,-0.22228,2023,6,9,14,12,30,943
0.19720,3.16750,-4.72500,0.00000,0.00549,0.96392,-0.22241,2023,6,9,14,12,30,954
0.19730,3.25500,-4.76000,0.00000,0.00573,0.96941,-0.22228,2023,6,9,14,12,30,965
0.19740,2.97500,-4.58500,0.00000,0.00427,0.97027,-0.22192,2023,6,9,14,12,30,976
0.19750,3.01000,-4.60250,0.00000,0.00464,0.96563,-0.22424,2023,6,9,14,12,30,987
0.19760,3.06250,-4.60250,0.00000,0.00744,0.96819,-0.22192,2023,6,9,14,12,31,8
0.19770,2.87000,-4.42750,0.00000,0.00671,0.97173,-0.22058,2023,6,9,14,12,31,19
0.19780,3.02750,-4.56750,0.00000,0.00354,0.96417,-0.22265,2023,6,9,14,12,31,30
0.19790,2.78250,-4.76000,0.00000,0.00647,0.96941,-0.22314,2023,6,9,14,12,31,42
0.19800,2.94000,-4.55000,0.00000,0.00647,0.96953,-0.22216,2023,6,9,14,12,31,53
0.19810,2.97500,-4.60250,0.00000,0.00451,0.96404,-0.22155,2023,6,9,14,12,31,64
0.19820,2.87000,-4.49750,0.00000,0.00805,0.97100,-0.22082,2023,6,9,14,12,31,75
0.19830,3.02750,-4.62000,0.00000,0.00561,0.97002,-0.22375,2023,6,9,14,12,31,86
0.19840,3.06250,-4.81250,0.00000,0.00634,0.96563,-0.22411,2023,6,9,14,12,31,97
0.19850,2.95750,-4.62000,0.00000,0.00732,0.97112,-0.22155,2023,6,9,14,12,31,108
0.19860,2.87000,-4.58500,0.00000,0.00683,0.96892,-0.22314,2023,6,9,14,12,31,119
0.19870,3.15000,-4.67250,0.00000,0.00488,0.96819,-0.22058,2023,6,9,14,12,31,130
0.19880,2.85250,-4.65500,0.00000,0.00781,0.97307,-0.22302,2023,6,9,14,12,31,142
0.19890,2.95750,-4.74250,0.00000,0.00159,0.96563,-0.22363,2023,6,9,14,12,31,153
0.19900,3.09750,-4.83000,0.00000,0.00659,0.96905,-0.22424,2023,6,9,14,12,31,164
0.19910,3.09750,-4.67250,0.00000,0.00817,0.97234,-0.22106,2023,6,9,14,12,31,175
0.19920,3.01000,-4.69000,0.00000,0.00427,0.96502,-0.22070,2023,6,9,14,12,31,186
0.19930,3.11500,-4.58500,0.00000,0.00842,0.96966,-0.22460,2023,6,9,14,12,31,197
0.19940,2.80000,-4.46250,0.00000,0.00878,0.96868,-0.22375,2023,6,9,14,12,31,208
0.19950,3.02750,-4.70750,0.00000,0.00281,0.96417,-0.22045,2023,6,9,14,12,31,219
0.19960,3.08000,-4.62000,0.00000,0.00964,0.97014,-0.22289,2023,6,9,14,12,31,230
0.19970,3.06250,-4.63750,0.00000,0.00659,0.96661,-0.22363,2023,6,9,14,12,31,242
0.19980,2.81750,-4.56750,0.00000,0.00390,0.96331,-0.22460,2023,6,9,14,12,31,253
0.19990,3.08000,-4.70750,0.00000,0.00695,0.97027,-0.22375,2023,6,9,14,12,31,264
0.20000,2.81750,-4.56750,0.00000,0.00586,0.96868,-0.22326,2023,6,9,14,12,31,275
0.20010,2.92250,-4.60250,0.00000,0.00403,0.96380,-0.22436,2023,6,9,14,12,31,286
0.20020,3.04500,-4.37500,0.00000,0.00866,0.97100,-0.22277,2023,6,9,14,12,31,297
0.20030,3.20250,-4.60250,0.00000,0.00476,0.96563,-0.22033,2023,6,9,14,12,31,308
0.20040,3.01000,-4.51500,0.00000,0.00415,0.96600,-0.22106,2023,6,9,14,12,31,319
0.20050,3.01000,-4.51500,0.00000,0.00805,0.96856,-0.22424,2023,6,9,14,12,31,330
0.20060,2.99250,-4.65500,0.00000,0.00354,0.96880,-0.22094,2023,6,9,14,12,31,342
0.20070,2.92250,-4.41000,0.00000,0.00512,0.96465,-0.22253,2023,6,9,14,12,31,353
0.20080,2.83500,-4.49750,0.00000,0.00781,0.96819,-0.22204,2023,6,9,14,12,31,364
0.20090,3.08000,-4.60250,0.00000,0.00610,0.96746,-0.22399,2023,6,9,14,12,31,375
0.20100,3.22000,-4.70750,0.00000,0.00598,0.96441,-0.22216,2023,6,9,14,12,31,386
0.20110,3.08000,-4.56750,0.00000,0.00817,0.97088,-0.22119,2023,6,9,14,12,31,397
0.20120,3.01000,-4.63750,0.00000,0.00464,0.96770,-0.22253,2023,6,9,14,12,31,408
0.20130,2.90500,-4.55000,0.00000,0.00537,0.96697,-0.22192,2023,6,9,14,12,31,419
0.20140,2.92250,-4.55000,0.00000,0.00512,0.96831,-0.21936,2023,6,9,14,12,31,430
0.20150,3.16750,-4.69000,0.00000,0.00647,0.96746,-0.22289,2023,6,9,14,12,31,442
0.20160,2.97500,-4.83000,0.00000,0.00354,0.96465,-0.22180,2023,6,9,14,12,31,453
0.20170,2.94000,-4.34000,0.00000,0.00610,0.96953,-0.22021,2023,6,9,14,12,31,464
0.20180,2.94000,-4.49750,0.00000,0.00512,0.96417,-0.21887,2023,6,9,14,12,31,475
0.20190,3.06250,-4.67250,0.00000,0.00537,0.96563,-0.22009,2023,6,9,14,12,31,486
0.20200,3.06250,-4.41000,0.00000,0.00415,0.96880,-0.22289,2023,6,9,14,12,31,497
0.20210,2.99250,-4.42750,0.00000,0.00451,0.96319,-0.22265,2023,6,9,14,12,31,508
0.20220,3.08000,-4.58500,0.00000,0.00403,0.96917,-0.22277,2023,6,9,14,12,31,519
0.20230,2.94000,-4.42750,0.00000,0.00842,0.96990,-0.22350,2023,6,9,14,12,31,530
0.20240,3.16750,-4.39250,0.00000,0.00342,0.96319,-0.21972,2023,6,9,14,12,31,542
0.20250,3.09750,-4.58500,0.00000,0.00610,0.96673,-0.22033,2023,6,9,14,12,31,553
0.20260,3.11500,-4.56750,0.00000,0.00720,0.97027,-0.22058,2023,6,9,14,12,31,564
0.20270,3.01000,-4.30500,0.00000,0.00220,0.96551,-0.22143,2023,6,9,14,12,31,575
0.20280,3.06250,-4.56750,0.00000,0.00561,0.96746,-0.21887,2023,6,9,14,12,31,586
0.20290,2.95750,-4.70750,0.00000,0.00390,0.97014,-0.22155,2023,6,9,14,12,31,597
0.20300,2.97500,-4.70750,0.00000,0.00769,0.96417,-0.22045,2023,6,9,14,12,31,608
0.20310,2.97500,-4.51500,0.00000,0.00622,0.97088,-0.22045,2023,6,9,14,12,31,619
0.20320,2.99250,-4.55000,0.00000,0.00390,0.96734,-0.22302,2023,6,9,14,12,31,630
0.20330,3.18500,-4.67250,0.00000,0.00427,0.96429,-0.22119,2023,6,9,14,12,31,642
0.20340,3.04500,-4.60250,0.00000,0.00671,0.96880,-0.21875,2023,6,9,14,12,31,653
0.20350,3.09750,-4.60250,0.00000,0.00720,0.97063,-0.22533,2023,6,9,14,12,31,664
0.20360,3.01000,-4.51500,0.00000,0.00366,0.96246,-0.22082,2023,6,9,14,12,31,675
0.20370,2.99250,-4.46250,0.00000,0.00598,0.97002,-0.21960,2023,6,9,14,12,31,686
0.20380,2.97500,-4.41000,0.00000,0.00708,0.96917,-0.22265,2023,6,9,14,12,31,697
0.20390,3.09750,-4.55000,0.00000,0.00390,0.96600,-0.22106,2023,6,9,14,12,31,708
0.20400,3.06250,-4.56750,0.00000,0.00378,0.97100,-0.22155,2023,6,9,14,12,31,719
0.20410,2.81750,-4.62000,0.00000,0.00573,0.96661,-0.22045,2023,6,9,14,12,31,730
0.20420,3.15000,-4.60250,0.00000,0.00659,0.96514,-0.22070,2023,6,9,14,12,31,742
0.20430,2.76500,-4.44500,0.00000,0.00781,0.97136,-0.22192,2023,6,9,14,12,31,753
0.20440,2.92250,-4.62000,0.00000,0.00451,0.96587,-0.22326,2023,6,9,14,12,31,764
0.20450,3.15000,-4.55000,0.00000,0.00610,0.96709,-0.22192,2023,6,9,14,12,31,775
0.20460,2.87000,-4.30500,0.00000,0.00756,0.97149,-0.22204,2023,6,9,14,12,31,786
0.20470,3.06250,-4.63750,0.00000,0.00427,0.96490,-0.22448,2023,6,9,14,12,31,797
0.20480,2.99250,-4.60250,0.00000,0.00415,0.96795,-0.22472,2023,6,9,14,12,31,808
0.20490,2.90500,-4.46250,0.00000,0.00708,0.97051,-0.22277,2023,6,9,14,12,31,819
0.20500,2.99250,-4.67250,0.00000,0.00781,0.96356,-0.22167,2023,6,9,14,12,31,830
0.20510,3.01000,-4.58500,0.00000,0.00744,0.96685,-0.22399,2023,6,9,14,12,31,842
0.20520,2.74750,-4.48000,0.00000,0.00854,0.97075,-0.22302,2023,6,9,14,12,31,853
0.20530,3.01000,-4.67250,0.00000,0.00427,0.96392,-0.22241,2023,6,9,14,12,31,864
0.20540,3.02750,-4.39250,0.00000,0.00793,0.97039,-0.22253,2023,6,9,14,12,31,875
0.20550,3.09750,-4.58500,0.00000,0.00598,0.96941,-0.22570,2023,6,9,14,12,31,886
0.20560,2.97500,-4.70750,0.00000,0.00439,0.96417,-0.22167,2023,6,9,14,12,31,897
0.20570,3.15000,-4.69000,0.00000,0.00732,0.96795,-0.22143,2023,6,9,14,12,31,908
0.20580,3.01000,-4.60250,0.00000,0.00683,0.96770,-0.22387,2023,6,9,14,12,31,919
0.20590,3.06250,-4.69000,0.00000,0.00305,0.96173,-0.22204,2023,6,9,14,12,31,930
0.20600,2.85250,-4.60250,0.00000,0.00744,0.97002,-0.22180,2023,6,9,14,12,31,942
0.20610,2.81750,-4.62000,0.00000,0.00476,0.96819,-0.22436,2023,6,9,14,12,31,953
0.20620,3.20250,-4.65500,0.00000,0.00366,0.96331,-0.22302,2023,6,9,14,12,31,964
0.20630,3.01000,-4.70750,0.00000,0.00683,0.97075,-0.22204,2023,6,9,14,12,31,975
0.20640,2.90500,-4.37500,0.00000,0.00537,0.96953,-0.22277,2023,6,9,14,12,31,986
0.20650,2.92250,-4.62000,0.00000,0.00378,0.96502,-0.22326,2023,6,9,14,12,31,997
0.20660,2.95750,-4.65500,0.00000,0.00671,0.96966,-0.22180,2023,6,9,14,12,32,8
0.20670,3.01000,-4.56750,0.00000,0.00659,0.96966,-0.22472,2023,6,9,14,12,32,19
0.20680,3.11500,-4.72500,0.00000,0.00512,0.96685,-0.22253,2023,6,9,14,12,32,30
0.20690,2.80000,-4.72500,0.00000,0.00634,0.96929,-0.22265,2023,6,9,14,12,32,42
0.20700,2.92250,-4.60250,0.00000,0.00659,0.96685,-0.22289,2023,6,9,14,12,32,53
0.20710,2.87000,-4.56750,0.00000,0.00268,0.96417,-0.21997,2023,6,9,14,12,32,64
0.20720,2.92250,-4.76000,0.00000,0.00891,0.97283,-0.22216,2023,6,9,14,12,32,75
0.20730,3.08000,-4.62000,0.00000,0.00476,0.96636,-0.22241,2023,6,9,14,12,32,86
0.20740,3.02750,-4.79500,0.00000,0.00451,0.96368,-0.22253,2023,6,9,14,12,32,97
0.20750,2.88750,-4.42750,0.00000,0.00647,0.97088,-0.22521,2023,6,9,14,12,32,108
0.20760,2.90500,-4.74250,0.00000,0.00366,0.96697,-0.22411,2023,6,9,14,12,32,119
0.20770,3.04500,-4.76000,0.00000,0.00708,0.96563,-0.22094,2023,6,9,14,12,32,130
0.20780,2.85250,-4.55000,0.00000,0.00732,0.96941,-0.22314,2023,6,9,14,12,32,142
0.20790,2.97500,-4.49750,0.00000,0.00598,0.96795,-0.22424,2023,6,9,14,12,32,153
0.20800,2.88750,-4.46250,0.00000,0.00451,0.96685,-0.22167,2023,6,9,14,12,32,164
0.20810,2.87000,-4.35750,0.00000,0.00659,0.96722,-0.22326,2023,6,9,14,12,32,175
0.20820,2.87000,-4.74250,0.00000,0.00695,0.96465,-0.22460,2023,6,9,14,12,32,186
0.20830,3.20250,-4.67250,0.00000,0.00610,0.96612,-0.22192,2023,6,9,14,12,32,197
0.20840,3.02750,-4.72500,0.00000,0.00598,0.96831,-0.22277,2023,6,9,14,12,32,208
0.20850,2.80000,-4.25250,0.00000,0.00610,0.96661,-0.22436,2023,6,9,14,12,32,219
0.20860,3.01000,-4.49750,0.00000,0.00488,0.96478,-0.22058,2023,6,9,14,12,32,230
0.20870,2.87000,-4.62000,0.00000,0.00525,0.97002,-0.22155,2023,6,9,14,12,32,242
0.20880,2.95750,-4.55000,0.00000,0.00378,0.96807,-0.22265,2023,6,9,14,12,32,253
0.20890,3.25500,-4.69000,0.00000,0.00244,0.96600,-0.22265,2023,6,9,14,12,32,264
0.20900,2.99250,-4.35750,0.00000,0.00647,0.97149,-0.22338,2023,6,9,14,12,32,275
0.20910,3.02750,-4.46250,0.00000,0.00476,0.96746,-0.22314,2023,6,9,14,12,32,286
0.20920,2.88750,-4.39250,0.00000,0.00378,0.96673,-0.22180,2023,6,9,14,12,32,297
0.20930,2.87000,-4.44500,0.00000,0.00756,0.96648,-0.22411,2023,6,9,14,12,32,308
0.20940,3.06250,-4.83000,0.00000,0.00683,0.96478,-0.22228,2023,6,9,14,12,32,319
0.20950,2.99250,-4.48000,0.00000,0.00451,0.96819,-0.22302,2023,6,9,14,12,32,330
0.20960,2.92250,-4.56750,0.00000,0.00671,0.96868,-0.22363,2023,6,9,14,12,32,342
0.20970,2.94000,-4.63750,0.00000,0.00464,0.96880,-0.22692,2023,6,9,14,12,32,353
0.20980,3.08000,-4.48000,0.00000,0.00610,0.96807,-0.22509,2023,6,9,14,12,32,364
0.20990,2.78250,-4.48000,0.00000,0.00659,0.97124,-0.22302,2023,6,9,14,12,32,375
0.21000,2.94000,-4.63750,0.00000,0.00659,0.96514,-0.22265,2023,6,9,14,12,32,386
0.21010,3.09750,-4.63750,0.00000,0.00647,0.96770,-0.22704,2023,6,9,14,12,32,397
0.21020,2.97500,-4.69000,0.00000,0.00647,0.96880,-0.22363,2023,6,9,14,12,32,408
0.21030,2.74750,-4.46250,0.00000,0.00561,0.96502,-0.22607,2023,6,9,14,12,32,419
0.21040,3.09750,-4.60250,0.00000,0.00610,0.96880,-0.22424,2023,6,9,14,12,32,430
0.21050,2.73000,-4.37500,0.00000,0.00464,0.96905,-0.22582,2023,6,9,14,12,32,442
0.21060,2.87000,-4.58500,0.00000,0.00683,0.96575,-0.22363,2023,6,9,14,12,32,453
0.21070,3.08000,-4.51500,0.00000,0.00647,0.96819,-0.22411,2023,6,9,14,12,32,464
0.21080,2.81750,-4.49750,0.00000,0.00647,0.96844,-0.22167,2023,6,9,14,12,32,475
0.21090,2.92250,-4.58500,0.00000,0.00622,0.96770,-0.22472,2023,6,9,14,12,32,486
0.21100,3.02750,-4.63750,0.00000,0.00573,0.96587,-0.22082,2023,6,9,14,12,32,497
0.21110,2.88750,-4.37500,0.00000,0.00342,0.97014,-0.22180,2023,6,9,14,12,32,508
0.21120,2.94000,-4.60250,0.00000,0.00744,0.96758,-0.22192,2023,6,9,14,12,32,519
0.21130,3.13250,-4.48000,0.00000,0.00329,0.96465,-0.22082,2023,6,9,14,12,32,530
0.21140,2.81750,-4.56750,0.00000,0.00659,0.96905,-0.22228,2023,6,9,14,12,32,542
0.21150,3.04500,-4.69000,0.00000,0.00549,0.96551,-0.22314,2023,6,9,14,12,32,553
0.21160,3.09750,-4.72500,0.00000,0.00549,0.96697,-0.22326,2023,6,9,14,12,32,564
0.21170,2.69500,-4.34000,0.00000,0.00598,0.96831,-0.22192,2023,6,9,14,12,32,575
0.21180,2.97500,-4.39250,0.00000,0.00549,0.96490,-0.22448,2023,6,9,14,12,32,586
0.21190,2.99250,-4.42750,0.00000,0.00756,0.96892,-0.22497,2023,6,9,14,12,32,597
0.21200,2.90500,-4.41000,0.00000,0.00610,0.96746,-0.22192,2023,6,9,14,12,32,608
0.21210,2.80000,-4.53250,0.00000,0.00561,0.96563,-0.22228,2023,6,9,14,12,32,619
0.21220,3.01000,-4.77750,0.00000,0.00464,0.96807,-0.22326,2023,6,9,14,12,32,630
0.21230,2.87000,-4.55000,0.00000,0.00500,0.96892,-0.22143,2023,6,9,14,12,32,642
0.21240,2.85250,-4.41000,0.00000,0.00439,0.96575,-0.22241,2023,6,9,14,12,32,653
0.21250,2.95750,-4.44500,0.00000,0.00403,0.96783,-0.22277,2023,6,9,14,12,32,664
0.21260,2.94000,-4.65500,0.00000,0.00427,0.97063,-0.22216,2023,6,9,14,12,32,675
0.21270,2.83500,-4.46250,0.00000,0.00464,0.96709,-0.22204,2023,6,9,14,12,32,686
0.21280,3.09750,-4.74250,0.00000,0.00293,0.96880,-0.22216,2023,6,9,14,12,32,697
0.21290,2.92250,-4.49750,0.00000,0.00854,0.97002,-0.22241,2023,6,9,14,12,32,708
0.21300,2.88750,-4.55000,0.00000,0.00598,0.96722,-0.22253,2023,6,9,14,12,32,719
0.21310,2.95750,-4.62000,0.00000,0.00561,0.96722,-0.22265,2023,6,9,14,12,32,730
0.21320,2.85250,-4.55000,0.00000,0.00537,0.96600,-0.22375,2023,6,9,14,12,32,742
0.21330,3.08000,-4.86500,0.00000,0.00390,0.96795,-0.22497,2023,6,9,14,12,32,753
0.21340,3.04500,-4.63750,0.00000,0.00720,0.96563,-0.22204,2023,6,9,14,12,32,764
0.21350,2.99250,-4.69000,0.00000,0.00488,0.96941,-0.22497,2023,6,9,14,12,32,775
0.21360,3.06250,-4.72500,0.00000,0.00549,0.96868,-0.22497,2023,6,9,14,12,32,786
0.21370,3.02750,-4.56750,0.00000,0.00598,0.96905,-0.22338,2023,6,9,14,12,32,797
