#2023/06/09 12:03:50
time,wx,wy,wz,ax,ay,az,yy,MM,dd,hh,mm,ss,ms
0.00000,2.60750,-4.67250,0.00000,0.00476,0.96636,-0.22997,2023,6,9,12,3,50,925
0.00010,2.95750,-4.69000,0.00000,0.00171,0.96307,-0.23168,2023,6,9,12,3,50,936
0.00020,2.62500,-4.72500,0.00000,0.00256,0.96624,-0.23168,2023,6,9,12,3,50,947
0.00030,2.57250,-4.65500,0.00000,0.00220,0.96734,-0.23034,2023,6,9,12,3,50,958
0.00040,2.76500,-4.46250,0.00000,0.00415,0.96600,-0.23107,2023,6,9,12,3,50,969
0.00050,2.53750,-4.48000,0.00000,0.00207,0.96746,-0.23253,2023,6,9,12,3,50,980
0.00060,2.59000,-4.46250,0.00000,0.00232,0.96722,-0.23082,2023,6,9,12,3,50,991
0.00070,2.80000,-4.72500,0.00000,0.00195,0.96441,-0.22924,2023,6,9,12,3,50,2
0.00080,2.52000,-4.39250,0.00000,0.00403,0.96880,-0.23034,2023,6,9,12,3,50,13
0.00090,2.80000,-4.60250,0.00000,0.00122,0.96697,-0.23436,2023,6,9,12,3,50,24
0.00100,2.66000,-4.86500,0.00000,0.00012,0.96734,-0.23058,2023,6,9,12,3,50,36
0.00110,2.78250,-4.63750,0.00000,0.00110,0.96490,-0.23131,2023,6,9,12,3,50,47
0.00120,2.69500,-4.62000,0.00000,0.00146,0.96465,-0.23131,2023,6,9,12,3,50,58
0.00130,2.85250,-4.69000,0.00000,0.00195,0.96746,-0.23143,2023,6,9,12,3,50,69
0.00140,2.73000,-4.34000,0.00000,0.00183,0.96783,-0.23436,2023,6,9,12,3,50,80
0.00150,2.50250,-4.42750,0.00000,0.00281,0.97002,-0.23290,2023,6,9,12,3,50,91
0.00160,2.88750,-4.51500,0.00000,0.00122,0.96502,-0.23095,2023,6,9,12,3,50,102
0.00170,2.85250,-4.49750,0.00000,0.00329,0.96819,-0.23217,2023,6,9,12,3,50,113
0.00180,2.64250,-4.51500,0.00000,0.00024,0.96746,-0.23082,2023,6,9,12,3,50,124
0.00190,2.69500,-4.53250,0.00000,0.00122,0.96392,-0.22887,2023,6,9,12,3,50,136
0.00200,2.71250,-4.41000,0.00000,0.00207,0.96758,-0.23143,2023,6,9,12,3,50,147
0.00210,2.66000,-4.69000,0.00000,0.00183,0.96478,-0.22802,2023,6,9,12,3,50,158
0.00220,2.71250,-4.69000,0.00000,0.00171,0.96758,-0.23021,2023,6,9,12,3,50,169
0.00230,2.64250,-4.56750,0.00000,0.00268,0.96685,-0.22948,2023,6,9,12,3,50,180
0.00240,2.83500,-4.55000,0.00000,0.00329,0.96709,-0.22924,2023,6,9,12,3,50,191
0.00250,2.60750,-4.49750,0.00000,0.00195,0.96502,-0.22948,2023,6,9,12,3,50,202
0.00260,2.83500,-4.34000,0.00000,0.00134,0.96758,-0.23192,2023,6,9,12,3,50,213
0.00270,2.76500,-4.83000,0.00000,0.00085,0.96856,-0.22960,2023,6,9,12,3,50,224
0.00280,2.66000,-4.63750,0.00000,0.00317,0.96539,-0.22997,2023,6,9,12,3,50,236
0.00290,2.69500,-4.41000,0.00000,0.00244,0.96709,-0.23058,2023,6,9,12,3,50,247
0.00300,2.62500,-4.77750,0.00000,0.00244,0.96709,-0.23082,2023,6,9,12,3,50,258
0.00310,2.52000,-4.39250,0.00000,0.00329,0.96844,-0.23058,2023,6,9,12,3,50,269
0.00320,2.53750,-4.55000,0.00000,0.00293,0.96795,-0.22960,2023,6,9,12,3,50,280
0.00330,2.67750,-4.62000,0.00000,0.00427,0.96539,-0.23082,2023,6,9,12,3,50,291
0.00340,2.62500,-4.35750,0.00000,0.00256,0.96673,-0.23204,2023,6,9,12,3,50,302
0.00350,2.69500,-4.69000,0.00000,0.00293,0.96892,-0.22899,2023,6,9,12,3,51,3
0.00360,2.76500,-4.53250,0.00000,0.00256,0.96551,-0.23241,2023,6,9,12,3,51,14
0.00370,2.69500,-4.69000,0.00000,0.00207,0.96734,-0.23046,2023,6,9,12,3,51,26
0.00380,2.67750,-4.70750,0.00000,0.00207,0.96722,-0.22863,2023,6,9,12,3,51,37
0.00390,2.64250,-4.39250,0.00000,0.00244,0.96929,-0.23192,2023,6,9,12,3,51,48
0.00400,2.69500,-4.37500,0.00000,0.00110,0.96673,-0.23156,2023,6,9,12,3,51,59
0.00410,2.78250,-4.69000,0.00000,0.00415,0.96856,-0.23119,2023,6,9,12,3,51,70
0.00420,2.64250,-4.42750,0.00000,0.00439,0.96709,-0.22899,2023,6,9,12,3,51,81
0.00430,2.69500,-4.63750,0.00000,0.00268,0.96770,-0.23058,2023,6,9,12,3,51,92
0.00440,2.59000,-4.49750,0.00000,0.00098,0.96844,-0.22582,2023,6,9,12,3,51,103
0.00450,2.73000,-4.49750,0.00000,0.00134,0.96697,-0.23082,2023,6,9,12,3,51,114
0.00460,2.53750,-4.62000,0.00000,0.00317,0.96819,-0.23009,2023,6,9,12,3,51,126
0.00470,2.69500,-4.69000,0.00000,0.00476,0.96636,-0.22802,2023,6,9,12,3,51,137
0.00480,2.90500,-4.56750,0.00000,0.00207,0.96807,-0.22948,2023,6,9,12,3,51,148
0.00490,2.48500,-4.63750,0.00000,0.00244,0.96685,-0.23095,2023,6,9,12,3,51,159
0.00500,2.66000,-4.39250,0.00000,0.00293,0.96612,-0.23143,2023,6,9,12,3,51,170
0.00510,2.73000,-4.44500,0.00000,0.00366,0.96892,-0.23021,2023,6,9,12,3,51,181
0.00520,2.73000,-4.56750,0.00000,0.00244,0.96380,-0.22838,2023,6,9,12,3,51,192
0.00530,2.69500,-4.46250,0.00000,0.00244,0.96795,-0.22765,2023,6,9,12,3,51,203
0.00540,2.76500,-4.55000,0.00000,0.00159,0.96356,-0.22851,2023,6,9,12,3,51,214
0.00550,2.85250,-4.56750,0.00000,0.00183,0.96465,-0.22936,2023,6,9,12,3,51,226
0.00560,2.80000,-4.35750,0.00000,0.00329,0.96661,-0.22899,2023,6,9,12,3,51,237
0.00570,2.74750,-4.58500,0.00000,0.00183,0.96722,-0.22753,2023,6,9,12,3,51,248
0.00580,2.66000,-4.67250,0.00000,0.00244,0.96624,-0.23107,2023,6,9,12,3,51,259
0.00590,2.69500,-4.58500,0.00000,0.00110,0.96673,-0.22777,2023,6,9,12,3,51,270
0.00600,2.81750,-4.48000,0.00000,0.00207,0.96783,-0.22912,2023,6,9,12,3,51,281
0.00610,2.81750,-4.58500,0.00000,0.00451,0.96892,-0.23070,2023,6,9,12,3,51,292
0.00620,2.80000,-4.53250,0.00000,0.00061,0.96807,-0.23192,2023,6,9,12,3,51,303
0.00630,2.81750,-4.70750,0.00000,0.00146,0.96539,-0.22777,2023,6,9,12,3,51,314
0.00640,2.62500,-4.44500,0.00000,0.00305,0.96417,-0.22851,2023,6,9,12,3,51,326
0.00650,2.67750,-4.42750,0.00000,0.00207,0.96856,-0.22826,2023,6,9,12,3,51,337
0.00660,2.66000,-4.48000,0.00000,0.00293,0.96709,-0.22948,2023,6,9,12,3,51,348
0.00670,2.66000,-4.63750,0.00000,0.00305,0.96807,-0.22924,2023,6,9,12,3,51,359
0.00680,2.87000,-4.56750,0.00000,0.00342,0.96844,-0.23046,2023,6,9,12,3,51,370
0.00690,2.69500,-4.67250,0.00000,0.00390,0.96770,-0.22960,2023,6,9,12,3,51,381
0.00700,2.74750,-4.55000,0.00000,0.00342,0.96941,-0.22802,2023,6,9,12,3,51,392
0.00710,2.55500,-4.63750,0.00000,0.00195,0.96844,-0.23131,2023,6,9,12,3,51,403
0.00720,2.64250,-4.51500,0.00000,0.00488,0.96514,-0.22485,2023,6,9,12,3,51,414
0.00730,2.73000,-4.63750,0.00000,0.00561,0.96624,-0.22375,2023,6,9,12,3,51,426
0.00740,2.62500,-4.46250,0.00000,0.00232,0.96783,-0.22924,2023,6,9,12,3,51,437
0.00750,2.81750,-4.67250,0.00000,0.00207,0.96429,-0.23082,2023,6,9,12,3,51,448
0.00760,2.73000,-4.37500,0.00000,0.00207,0.96697,-0.22716,2023,6,9,12,3,51,459
0.00770,2.69500,-4.41000,0.00000,0.00256,0.96502,-0.22741,2023,6,9,12,3,51,470
0.00780,2.52000,-4.55000,0.00000,0.00281,0.96880,-0.22790,2023,6,9,12,3,51,481
0.00790,2.81750,-4.63750,0.00000,0.00329,0.96807,-0.23021,2023,6,9,12,3,51,492
0.00800,2.80000,-4.32250,0.00000,-0.00024,0.96953,-0.22997,2023,6,9,12,3,51,503
0.00810,2.69500,-4.51500,0.00000,0.00244,0.96673,-0.23058,2023,6,9,12,3,51,514
0.00820,2.57250,-4.56750,0.00000,0.00451,0.96941,-0.22607,2023,6,9,12,3,51,526
0.00830,2.60750,-4.48000,0.00000,0.00268,0.96661,-0.22863,2023,6,9,12,3,51,537
0.00840,2.67750,-4.55000,0.00000,0.00061,0.96807,-0.22594,2023,6,9,12,3,51,548
0.00850,2.74750,-4.41000,0.00000,0.00183,0.96600,-0.22692,2023,6,9,12,3,51,559
0.00860,2.64250,-4.77750,0.00000,0.00342,0.96807,-0.22716,2023,6,9,12,3,51,570
0.00870,2.69500,-4.60250,0.00000,0.00354,0.96905,-0.22753,2023,6,9,12,3,51,581
0.00880,2.78250,-4.70750,0.00000,0.00073,0.96673,-0.22887,2023,6,9,12,3,51,592
0.00890,2.81750,-4.69000,0.00000,-0.00049,0.96502,-0.22765,2023,6,9,12,3,51,603
0.00900,2.73000,-4.27000,0.00000,0.00220,0.96770,-0.22985,2023,6,9,12,3,51,614
0.00910,2.60750,-4.53250,0.00000,0.00134,0.96844,-0.23021,2023,6,9,12,3,51,626
0.00920,2.60750,-4.32250,0.00000,0.00183,0.96929,-0.22838,2023,6,9,12,3,51,637
0.00930,2.62500,-4.51500,0.00000,0.00049,0.96758,-0.22790,2023,6,9,12,3,51,648
0.00940,2.76500,-4.55000,0.00000,0.00244,0.96770,-0.23046,2023,6,9,12,3,51,659
0.00950,2.71250,-4.53250,0.00000,0.00439,0.96831,-0.22729,2023,6,9,12,3,51,670
0.00960,2.74750,-4.58500,0.00000,0.00183,0.96929,-0.23046,2023,6,9,12,3,51,681
0.00970,2.74750,-4.53250,0.00000,0.00207,0.96624,-0.22948,2023,6,9,12,3,51,692
0.00980,2.69500,-4.58500,0.00000,0.00342,0.96612,-0.23009,2023,6,9,12,3,51,703
0.00990,2.87000,-4.70750,0.00000,-0.00037,0.96392,-0.22790,2023,6,9,12,3,51,714
0.01000,2.60750,-4.67250,0.00000,0.00293,0.96697,-0.22765,2023,6,9,12,3,51,726
0.01010,2.53750,-4.53250,0.00000,0.00415,0.96539,-0.22777,2023,6,9,12,3,51,737
0.01020,2.66000,-4.37500,0.00000,0.00281,0.96770,-0.22753,2023,6,9,12,3,51,748
0.01030,2.80000,-4.70750,0.00000,0.00342,0.96831,-0.22741,2023,6,9,12,3,51,759
0.01040,2.87000,-4.58500,0.00000,0.00012,0.96697,-0.22851,2023,6,9,12,3,51,770
0.01050,2.87000,-4.55000,0.00000,0.00098,0.96819,-0.22729,2023,6,9,12,3,51,781
0.01060,2.55500,-4.42750,0.00000,0.00159,0.96685,-0.22704,2023,6,9,12,3,51,792
0.01070,2.62500,-4.58500,0.00000,0.00281,0.96600,-0.22814,2023,6,9,12,3,51,803
0.01080,2.67750,-4.53250,0.00000,0.00268,0.96746,-0.22802,2023,6,9,12,3,51,814
0.01090,2.73000,-4.65500,0.00000,0.00232,0.96966,-0.22729,2023,6,9,12,3,51,826
0.01100,2.66000,-4.60250,0.00000,0.00049,0.96587,-0.22777,2023,6,9,12,3,51,837
0.01110,2.76500,-4.58500,0.00000,0.00061,0.96636,-0.22863,2023,6,9,12,3,51,848
0.01120,2.57250,-4.56750,0.00000,0.00305,0.96709,-0.22619,2023,6,9,12,3,51,859
0.01130,2.67750,-4.53250,0.00000,0.00525,0.96868,-0.22582,2023,6,9,12,3,51,870
0.01140,2.78250,-4.63750,0.00000,0.00134,0.96624,-0.22716,2023,6,9,12,3,51,881
0.01150,2.69500,-4.56750,0.00000,0.00305,0.96612,-0.22582,2023,6,9,12,3,51,892
0.01160,2.43250,-4.37500,0.00000,0.00183,0.96770,-0.22765,2023,6,9,12,3,51,903
0.01170,2.67750,-4.65500,0.00000,0.00232,0.96953,-0.22472,2023,6,9,12,3,51,914
0.01180,2.55500,-4.58500,0.00000,0.00500,0.96722,-0.22802,2023,6,9,12,3,51,926
0.01190,2.53750,-4.42750,0.00000,0.00329,0.96661,-0.22875,2023,6,9,12,3,51,937
0.01200,2.57250,-4.51500,0.00000,0.00207,0.96648,-0.22643,2023,6,9,12,3,51,948
0.01210,2.78250,-4.41000,0.00000,0.00183,0.96807,-0.22741,2023,6,9,12,3,51,959
0.01220,2.80000,-4.44500,0.00000,0.00342,0.96587,-0.22973,2023,6,9,12,3,51,970
0.01230,2.73000,-4.58500,0.00000,0.00293,0.96709,-0.22716,2023,6,9,12,3,51,981
0.01240,2.74750,-4.41000,0.00000,0.00403,0.96624,-0.23070,2023,6,9,12,3,51,992
0.01250,2.45000,-4.42750,0.00000,0.00134,0.96844,-0.22692,2023,6,9,12,3,52,3
0.01260,2.62500,-4.39250,0.00000,0.00256,0.96746,-0.22973,2023,6,9,12,3,52,14
0.01270,2.74750,-4.62000,0.00000,0.00525,0.96722,-0.22704,2023,6,9,12,3,52,26
0.01280,2.76500,-4.67250,0.00000,0.00183,0.96636,-0.22424,2023,6,9,12,3,52,37
0.01290,2.78250,-4.49750,0.00000,0.00122,0.96661,-0.22521,2023,6,9,12,3,52,48
0.01300,2.85250,-4.72500,0.00000,-0.00061,0.96636,-0.22814,2023,6,9,12,3,52,59
0.01310,2.60750,-4.63750,0.00000,0.00317,0.96709,-0.22729,2023,6,9,12,3,52,70
0.01320,2.88750,-4.37500,0.00000,0.00366,0.96722,-0.22607,2023,6,9,12,3,52,81
0.01330,2.74750,-4.62000,0.00000,0.00159,0.96661,-0.22960,2023,6,9,12,3,52,92
0.01340,2.64250,-4.63750,0.00000,0.00305,0.96563,-0.22680,2023,6,9,12,3,52,103
0.01350,2.66000,-4.39250,0.00000,0.00427,0.96514,-0.22424,2023,6,9,12,3,52,114
0.01360,2.69500,-4.49750,0.00000,0.00134,0.96453,-0.22899,2023,6,9,12,3,52,126
0.01370,2.78250,-4.58500,0.00000,0.00220,0.96624,-0.22765,2023,6,9,12,3,52,137
0.01380,2.73000,-4.63750,0.00000,0.00207,0.96551,-0.22912,2023,6,9,12,3,52,148
0.01390,2.52000,-4.42750,0.00000,0.00195,0.97063,-0.22802,2023,6,9,12,3,52,159
0.01400,2.71250,-4.32250,0.00000,0.00256,0.96990,-0.22643,2023,6,9,12,3,52,170
0.01410,2.76500,-4.48000,0.00000,0.00159,0.96746,-0.22704,2023,6,9,12,3,52,181
0.01420,2.80000,-4.53250,0.00000,0.00354,0.96624,-0.23156,2023,6,9,12,3,52,192
0.01430,2.66000,-4.51500,0.00000,0.00378,0.96770,-0.22838,2023,6,9,12,3,52,203
0.01440,2.81750,-4.49750,0.00000,0.00183,0.96587,-0.22814,2023,6,9,12,3,52,214
0.01450,2.80000,-4.56750,0.00000,0.00122,0.96490,-0.22912,2023,6,9,12,3,52,226
0.01460,2.73000,-4.49750,0.00000,0.00329,0.96709,-0.22546,2023,6,9,12,3,52,237
0.01470,2.92250,-4.55000,0.00000,0.00378,0.96661,-0.22887,2023,6,9,12,3,52,248
0.01480,2.66000,-4.67250,0.00000,0.00281,0.96734,-0.23082,2023,6,9,12,3,52,259
0.01490,2.71250,-4.76000,0.00000,0.00451,0.96539,-0.22546,2023,6,9,12,3,52,270
0.01500,2.87000,-4.42750,0.00000,0.00403,0.96465,-0.22655,2023,6,9,12,3,52,281
0.01510,2.90500,-4.39250,0.00000,0.00110,0.96343,-0.22790,2023,6,9,12,3,52,292
0.01520,2.78250,-4.67250,0.00000,0.00220,0.96343,-0.22753,2023,6,9,12,3,52,303
0.01530,2.88750,-4.69000,0.00000,0.00293,0.96868,-0.22814,2023,6,9,12,3,52,314
0.01540,2.67750,-4.70750,0.00000,0.00293,0.96770,-0.22790,2023,6,9,12,3,52,326
0.01550,2.80000,-4.41000,0.00000,0.00146,0.96783,-0.22619,2023,6,9,12,3,52,337
0.01560,2.83500,-4.62000,0.00000,0.00024,0.96978,-0.22472,2023,6,9,12,3,52,348
0.01570,2.71250,-4.51500,0.00000,0.00085,0.96600,-0.23095,2023,6,9,12,3,52,359
0.01580,2.73000,-4.51500,0.00000,0.00220,0.96807,-0.22716,2023,6,9,12,3,52,370
0.01590,2.64250,-4.49750,0.00000,0.00281,0.96746,-0.22826,2023,6,9,12,3,52,381
0.01600,2.55500,-4.41000,0.00000,0.00403,0.96990,-0.23021,2023,6,9,12,3,52,392
0.01610,2.67750,-4.42750,0.00000,0.00232,0.96563,-0.22631,2023,6,9,12,3,52,403
0.01620,2.59000,-4.49750,0.00000,0.00183,0.96648,-0.22729,2023,6,9,12,3,52,414
0.01630,2.69500,-4.53250,0.00000,0.00281,0.96795,-0.22668,2023,6,9,12,3,52,426
0.01640,2.74750,-4.53250,0.00000,0.00354,0.96783,-0.22594,2023,6,9,12,3,52,437
0.01650,2.76500,-4.63750,0.00000,0.00281,0.96746,-0.22680,2023,6,9,12,3,52,448
0.01660,3.01000,-4.62000,0.00000,0.00037,0.96697,-0.22887,2023,6,9,12,3,52,459
0.01670,2.71250,-4.63750,0.00000,0.00207,0.96612,-0.22607,2023,6,9,12,3,52,470
0.01680,2.81750,-4.63750,0.00000,0.00366,0.96905,-0.22643,2023,6,9,12,3,52,481
0.01690,2.73000,-4.51500,0.00000,0.00220,0.96709,-0.22729,2023,6,9,12,3,52,492
0.01700,2.73000,-4.48000,0.00000,-0.00012,0.96624,-0.22765,2023,6,9,12,3,52,503
0.01710,2.87000,-4.60250,0.00000,0.00342,0.96746,-0.22960,2023,6,9,12,3,52,514
0.01720,2.76500,-4.55000,0.00000,0.00220,0.96648,-0.22716,2023,6,9,12,3,52,526
0.01730,2.83500,-4.56750,0.00000,0.00171,0.96758,-0.22716,2023,6,9,12,3,52,537
0.01740,2.74750,-4.62000,0.00000,0.00085,0.96770,-0.22546,2023,6,9,12,3,52,548
0.01750,2.67750,-4.41000,0.00000,0.00342,0.96490,-0.22777,2023,6,9,12,3,52,559
0.01760,2.55500,-4.53250,0.00000,0.00415,0.96746,-0.22619,2023,6,9,12,3,52,570
0.01770,2.57250,-4.30500,0.00000,0.00403,0.96709,-0.22607,2023,6,9,12,3,52,581
0.01780,2.83500,-4.49750,0.00000,0.00098,0.96795,-0.22594,2023,6,9,12,3,52,592
0.01790,2.73000,-4.55000,0.00000,0.00281,0.96978,-0.22607,2023,6,9,12,3,52,603
0.01800,2.74750,-4.49750,0.00000,0.00183,0.96807,-0.23107,2023,6,9,12,3,52,614
0.01810,2.78250,-4.48000,0.00000,0.00317,0.96917,-0.22570,2023,6,9,12,3,52,626
0.01820,2.90500,-4.69000,0.00000,0.00366,0.96819,-0.22692,2023,6,9,12,3,52,637
0.01830,2.57250,-4.28750,0.00000,0.00305,0.96941,-0.22704,2023,6,9,12,3,52,648
0.01840,2.66000,-4.51500,0.00000,0.00122,0.96539,-0.22668,2023,6,9,12,3,52,659
0.01850,2.74750,-4.65500,0.00000,0.00268,0.96526,-0.22948,2023,6,9,12,3,52,670
0.01860,2.71250,-4.35750,0.00000,0.00122,0.96636,-0.22716,2023,6,9,12,3,52,681
0.01870,2.55500,-4.62000,0.00000,0.00268,0.96746,-0.22582,2023,6,9,12,3,52,692
0.01880,2.80000,-4.63750,0.00000,0.00366,0.96587,-0.23009,2023,6,9,12,3,52,703
0.01890,2.62500,-4.35750,0.00000,0.00232,0.96673,-0.22899,2023,6,9,12,3,52,714
0.01900,2.88750,-4.65500,0.00000,0.00342,0.96746,-0.22521,2023,6,9,12,3,52,726
0.01910,2.71250,-4.53250,0.00000,0.00427,0.96770,-0.22704,2023,6,9,12,3,52,737
0.01920,2.74750,-4.51500,0.00000,0.00305,0.96868,-0.22826,2023,6,9,12,3,52,748
0.01930,2.87000,-4.53250,0.00000,0.00049,0.96734,-0.23058,2023,6,9,12,3,52,759
0.01940,2.64250,-4.70750,0.00000,0.00415,0.96587,-0.22424,2023,6,9,12,3,52,770
0.01950,2.67750,-4.46250,0.00000,0.00268,0.96917,-0.22887,2023,6,9,12,3,52,781
0.01960,2.50250,-4.34000,0.00000,0.00220,0.96636,-0.22814,2023,6,9,12,3,52,792
0.01970,2.88750,-4.63750,0.00000,0.00268,0.96661,-0.22692,2023,6,9,12,3,52,803
0.01980,2.87000,-4.67250,0.00000,0.00293,0.96551,-0.22741,2023,6,9,12,3,52,814
0.01990,2.67750,-4.60250,0.00000,0.00293,0.96807,-0.22472,2023,6,9,12,3,52,826
0.02000,2.50250,-4.49750,0.00000,0.00207,0.96343,-0.22533,2023,6,9,12,3,52,837
0.02010,2.76500,-4.53250,0.00000,0.00159,0.96697,-0.22558,2023,6,9,12,3,52,848
0.02020,2.80000,-4.60250,0.00000,0.00122,0.96661,-0.22887,2023,6,9,12,3,52,859
0.02030,2.69500,-4.46250,0.00000,0.00415,0.96770,-0.22668,2023,6,9,12,3,52,870
0.02040,2.71250,-4.69000,0.00000,0.00207,0.96844,-0.22692,2023,6,9,12,3,52,881
0.02050,2.81750,-4.72500,0.00000,0.00232,0.96685,-0.22802,2023,6,9,12,3,52,892
0.02060,2.71250,-4.63750,0.00000,0.00305,0.96697,-0.22448,2023,6,9,12,3,52,903
0.02070,2.48500,-4.51500,0.00000,0.00537,0.96734,-0.22765,2023,6,9,12,3,52,914
0.02080,2.73000,-4.53250,0.00000,0.00390,0.96892,-0.22668,2023,6,9,12,3,52,926
0.02090,2.74750,-4.58500,0.00000,0.00403,0.96746,-0.22704,2023,6,9,12,3,52,937
0.02100,2.88750,-4.56750,0.00000,0.00378,0.96709,-0.23095,2023,6,9,12,3,52,948
0.02110,2.69500,-4.56750,0.00000,0.00195,0.96856,-0.23070,2023,6,9,12,3,52,959
0.02120,2.73000,-4.49750,0.00000,0.00464,0.96709,-0.22472,2023,6,9,12,3,52,970
0.02130,2.74750,-4.63750,0.00000,0.00159,0.96648,-0.22863,2023,6,9,12,3,52,981
0.02140,2.66000,-4.51500,0.00000,0.00220,0.96539,-0.22594,2023,6,9,12,3,52,992
0.02150,2.57250,-4.35750,0.00000,0.00232,0.96905,-0.22643,2023,6,9,12,3,53,3
0.02160,2.76500,-4.53250,0.00000,0.00268,0.97014,-0.22863,2023,6,9,12,3,53,14
0.02170,2.85250,-4.62000,0.00000,0.00159,0.96612,-0.22704,2023,6,9,12,3,53,26
0.02180,2.81750,-4.62000,0.00000,0.00305,0.96783,-0.22716,2023,6,9,12,3,53,37
0.02190,2.62500,-4.44500,0.00000,0.00439,0.96722,-0.22668,2023,6,9,12,3,53,48
0.02200,2.80000,-4.60250,0.00000,0.00329,0.96929,-0.22790,2023,6,9,12,3,53,59
0.02210,2.62500,-4.27000,0.00000,0.00024,0.96502,-0.22936,2023,6,9,12,3,53,70
0.02220,2.92250,-4.53250,0.00000,0.00403,0.96929,-0.22875,2023,6,9,12,3,53,81
0.02230,2.60750,-4.41000,0.00000,0.00122,0.96917,-0.22875,2023,6,9,12,3,53,92
0.02240,2.71250,-4.51500,0.00000,0.00464,0.96661,-0.22741,2023,6,9,12,3,53,103
0.02250,2.78250,-4.62000,0.00000,0.00012,0.96648,-0.22936,2023,6,9,12,3,53,114
0.02260,2.60750,-4.53250,0.00000,0.00476,0.96380,-0.22668,2023,6,9,12,3,53,126
0.02270,2.74750,-4.56750,0.00000,0.00512,0.96880,-0.22912,2023,6,9,12,3,53,137
0.02280,2.87000,-4.70750,0.00000,0.00439,0.96722,-0.22985,2023,6,9,12,3,53,148
0.02290,2.69500,-4.58500,0.00000,0.00390,0.96734,-0.22838,2023,6,9,12,3,53,159
0.02300,2.66000,-4.39250,0.00000,0.00329,0.96929,-0.22985,2023,6,9,12,3,53,170
0.02310,2.71250,-4.60250,0.00000,0.00207,0.96722,-0.22924,2023,6,9,12,3,53,181
0.02320,2.81750,-4.55000,0.00000,0.00098,0.96807,-0.22826,2023,6,9,12,3,53,192
0.02330,2.66000,-4.34000,0.00000,0.00220,0.96734,-0.22875,2023,6,9,12,3,53,203
0.02340,2.95750,-4.72500,0.00000,0.00232,0.96734,-0.22716,2023,6,9,12,3,53,214
0.02350,2.81750,-4.49750,0.00000,0.00110,0.96514,-0.22948,2023,6,9,12,3,53,226
0.02360,2.60750,-4.58500,0.00000,0.00085,0.96746,-0.22948,2023,6,9,12,3,53,237
0.02370,2.66000,-4.39250,0.00000,0.00366,0.96526,-0.22472,2023,6,9,12,3,53,248
0.02380,2.69500,-4.44500,0.00000,0.00476,0.96892,-0.22826,2023,6,9,12,3,53,259
0.02390,2.62500,-4.70750,0.00000,0.00342,0.96819,-0.22436,2023,6,9,12,3,53,270
0.02400,2.71250,-4.79500,0.00000,0.00085,0.96758,-0.22936,2023,6,9,12,3,53,281
0.02410,2.67750,-4.51500,0.00000,0.00378,0.96624,-0.22607,2023,6,9,12,3,53,292
0.02420,2.73000,-4.56750,0.00000,0.00134,0.96807,-0.22765,2023,6,9,12,3,53,303
0.02430,2.80000,-4.69000,0.00000,0.00207,0.96844,-0.22851,2023,6,9,12,3,53,314
0.02440,2.71250,-4.58500,0.00000,0.00110,0.96648,-0.22692,2023,6,9,12,3,53,326
0.02450,2.59000,-4.67250,0.00000,0.00220,0.96953,-0.22619,2023,6,9,12,3,53,337
0.02460,2.81750,-4.55000,0.00000,0.00439,0.96795,-0.22924,2023,6,9,12,3,53,348
0.02470,2.55500,-4.44500,0.00000,0.00073,0.96770,-0.22643,2023,6,9,12,3,53,359
0.02480,2.74750,-4.55000,0.00000,0.00061,0.96770,-0.22936,2023,6,9,12,3,53,370
0.02490,2.71250,-4.62000,0.00000,0.00354,0.96746,-0.22643,2023,6,9,12,3,53,381
0.02500,2.64250,-4.32250,0.00000,0.00464,0.96831,-0.22546,2023,6,9,12,3,53,392
0.02510,2.80000,-4.55000,0.00000,0.00256,0.96478,-0.22704,2023,6,9,12,3,53,403
0.02520,2.74750,-4.67250,0.00000,0.00085,0.96539,-0.22790,2023,6,9,12,3,53,414
0.02530,2.83500,-4.46250,0.00000,0.00634,0.96844,-0.22924,2023,6,9,12,3,53,426
0.02540,2.83500,-4.58500,0.00000,0.00049,0.96465,-0.22814,2023,6,9,12,3,53,437
0.02550,2.62500,-4.48000,0.00000,0.00439,0.96783,-0.22716,2023,6,9,12,3,53,448
0.02560,2.53750,-4.42750,0.00000,0.00244,0.96563,-0.22777,2023,6,9,12,3,53,459
0.02570,2.80000,-4.77750,0.00000,0.00329,0.96770,-0.22851,2023,6,9,12,3,53,470
0.02580,2.85250,-4.69000,0.00000,0.00037,0.96404,-0.22851,2023,6,9,12,3,53,481
0.02590,2.74750,-4.53250,0.00000,0.00268,0.96587,-0.22814,2023,6,9,12,3,53,492
0.02600,2.62500,-4.49750,0.00000,-0.00012,0.96465,-0.22802,2023,6,9,12,3,53,503
0.02610,2.59000,-4.65500,0.00000,0.00390,0.96746,-0.22716,2023,6,9,12,3,53,514
0.02620,2.71250,-4.51500,0.00000,0.00256,0.96795,-0.22826,2023,6,9,12,3,53,526
0.02630,2.73000,-4.65500,0.00000,0.00305,0.96404,-0.22851,2023,6,9,12,3,53,537
0.02640,2.62500,-4.46250,0.00000,0.00451,0.96661,-0.22497,2023,6,9,12,3,53,548
0.02650,2.60750,-4.37500,0.00000,0.00403,0.96892,-0.22692,2023,6,9,12,3,53,559
0.02660,2.85250,-4.49750,0.00000,0.00427,0.96844,-0.22704,2023,6,9,12,3,53,570
0.02670,2.69500,-4.58500,0.00000,0.00451,0.96575,-0.22741,2023,6,9,12,3,53,581
0.02680,2.41500,-4.44500,0.00000,0.00549,0.96819,-0.22509,2023,6,9,12,3,53,592
0.02690,2.76500,-4.60250,0.00000,0.00439,0.96807,-0.22936,2023,6,9,12,3,53,603
0.02700,2.74750,-4.63750,0.00000,0.00134,0.96734,-0.22509,2023,6,9,12,3,53,614
0.02710,2.48500,-4.49750,0.00000,0.00305,0.96685,-0.22814,2023,6,9,12,3,53,626
0.02720,2.67750,-4.63750,0.00000,0.00329,0.96600,-0.22521,2023,6,9,12,3,53,637
0.02730,2.90500,-4.84750,0.00000,0.00037,0.96624,-0.22924,2023,6,9,12,3,53,648
0.02740,2.71250,-4.69000,0.00000,0.00134,0.96758,-0.22997,2023,6,9,12,3,53,659
0.02750,2.67750,-4.67250,0.00000,0.00244,0.96758,-0.22936,2023,6,9,12,3,53,670
0.02760,2.59000,-4.46250,0.00000,0.00281,0.96587,-0.22350,2023,6,9,12,3,53,681
0.02770,2.74750,-4.63750,0.00000,0.00439,0.96709,-0.22802,2023,6,9,12,3,53,692
0.02780,2.59000,-4.69000,0.00000,0.00159,0.96502,-0.22851,2023,6,9,12,3,53,703
0.02790,2.88750,-4.55000,0.00000,0.00378,0.96490,-0.22619,2023,6,9,12,3,53,714
0.02800,2.52000,-4.62000,0.00000,0.00366,0.96807,-0.22899,2023,6,9,12,3,53,726
0.02810,2.85250,-4.51500,0.00000,0.00195,0.96575,-0.22741,2023,6,9,12,3,53,737
0.02820,2.76500,-4.65500,0.00000,0.00037,0.96795,-0.22594,2023,6,9,12,3,53,748
0.02830,2.85250,-4.67250,0.00000,0.00049,0.96734,-0.22887,2023,6,9,12,3,53,759
0.02840,2.76500,-4.55000,0.00000,0.00134,0.96600,-0.22899,2023,6,9,12,3,53,770
0.02850,2.74750,-4.60250,0.00000,0.00012,0.96648,-0.22838,2023,6,9,12,3,53,781
0.02860,2.60750,-4.53250,0.00000,0.00329,0.96478,-0.22777,2023,6,9,12,3,53,792
0.02870,2.67750,-4.35750,0.00000,0.00098,0.96844,-0.22631,2023,6,9,12,3,53,803
0.02880,2.74750,-4.44500,0.00000,0.00024,0.96758,-0.22973,2023,6,9,12,3,53,814
0.02890,2.99250,-4.74250,0.00000,0.00183,0.96648,-0.22790,2023,6,9,12,3,53,826
0.02900,2.76500,-4.62000,0.00000,0.00049,0.96941,-0.22851,2023,6,9,12,3,53,837
0.02910,2.57250,-4.32250,0.00000,0.00281,0.96612,-0.22704,2023,6,9,12,3,53,848
0.02920,2.69500,-4.42750,0.00000,0.00110,0.96514,-0.22790,2023,6,9,12,3,53,859
0.02930,2.92250,-4.65500,0.00000,0.00256,0.96661,-0.22814,2023,6,9,12,3,53,870
0.02940,2.81750,-4.65500,0.00000,0.00488,0.96770,-0.22668,2023,6,9,12,3,53,881
0.02950,2.64250,-4.60250,0.00000,0.00244,0.96612,-0.22790,2023,6,9,12,3,53,892
0.02960,2.74750,-4.41000,0.00000,0.00000,0.96502,-0.22863,2023,6,9,12,3,53,903
0.02970,2.60750,-4.65500,0.00000,0.00171,0.96673,-0.22509,2023,6,9,12,3,53,914
0.02980,2.67750,-4.63750,0.00000,0.00512,0.96917,-0.22497,2023,6,9,12,3,53,926
0.02990,2.94000,-4.53250,0.00000,0.00220,0.96587,-0.22546,2023,6,9,12,3,53,937
0.03000,2.78250,-4.35750,0.00000,0.00073,0.96831,-0.22619,2023,6,9,12,3,53,948
0.03010,2.90500,-4.58500,0.00000,0.00195,0.96575,-0.22838,2023,6,9,12,3,53,959
0.03020,2.76500,-4.74250,0.00000,0.00061,0.96636,-0.22741,2023,6,9,12,3,53,970
0.03030,2.60750,-4.65500,0.00000,0.00024,0.96551,-0.22631,2023,6,9,12,3,53,981
0.03040,2.74750,-4.76000,0.00000,0.00390,0.96502,-0.22680,2023,6,9,12,3,53,992
0.03050,2.74750,-4.28750,0.00000,0.00281,0.97051,-0.22680,2023,6,9,12,3,53,3
0.03060,2.81750,-4.74250,0.00000,0.00220,0.96795,-0.22924,2023,6,9,12,3,54,4
0.03070,2.88750,-4.63750,0.00000,0.00049,0.96807,-0.22790,2023,6,9,12,3,54,16
0.03080,2.76500,-4.46250,0.00000,0.00403,0.96856,-0.23034,2023,6,9,12,3,54,27
0.03090,2.81750,-4.63750,0.00000,0.00171,0.96880,-0.22765,2023,6,9,12,3,54,38
0.03100,2.64250,-4.41000,0.00000,0.00293,0.96758,-0.22716,2023,6,9,12,3,54,49
0.03110,2.67750,-4.48000,0.00000,0.00403,0.96880,-0.22814,2023,6,9,12,3,54,60
0.03120,2.55500,-4.49750,0.00000,0.00220,0.96807,-0.22558,2023,6,9,12,3,54,71
0.03130,2.69500,-4.58500,0.00000,-0.00024,0.96783,-0.22936,2023,6,9,12,3,54,82
0.03140,2.53750,-4.60250,0.00000,0.00317,0.96953,-0.22814,2023,6,9,12,3,54,93
0.03150,2.69500,-4.62000,0.00000,0.00366,0.96600,-0.22851,2023,6,9,12,3,54,104
0.03160,2.71250,-4.51500,0.00000,0.00207,0.96465,-0.22680,2023,6,9,12,3,54,116
0.03170,2.73000,-4.56750,0.00000,0.00061,0.96746,-0.22692,2023,6,9,12,3,54,127
0.03180,2.80000,-4.63750,0.00000,0.00342,0.97136,-0.22716,2023,6,9,12,3,54,138
0.03190,2.81750,-4.44500,0.00000,0.00366,0.96539,-0.22619,2023,6,9,12,3,54,149
0.03200,3.01000,-4.44500,0.00000,0.00110,0.96783,-0.23034,2023,6,9,12,3,54,160
0.03210,2.57250,-4.55000,0.00000,0.00305,0.96917,-0.22680,2023,6,9,12,3,54,171
0.03220,2.64250,-4.51500,0.00000,0.00329,0.96880,-0.22607,2023,6,9,12,3,54,182
0.03230,2.71250,-4.37500,0.00000,0.00317,0.96648,-0.22863,2023,6,9,12,3,54,193
0.03240,2.55500,-4.65500,0.00000,0.00244,0.96356,-0.22472,2023,6,9,12,3,54,204
0.03250,2.60750,-4.42750,0.00000,0.00329,0.96990,-0.22765,2023,6,9,12,3,54,216
0.03260,2.78250,-4.55000,0.00000,0.00159,0.96600,-0.22997,2023,6,9,12,3,54,227
0.03270,2.74750,-4.62000,0.00000,0.00024,0.96587,-0.22851,2023,6,9,12,3,54,238
0.03280,2.62500,-4.60250,0.00000,0.00244,0.96795,-0.22655,2023,6,9,12,3,54,249
0.03290,2.66000,-4.56750,0.00000,0.00305,0.96575,-0.22790,2023,6,9,12,3,54,260
0.03300,2.71250,-4.62000,0.00000,0.00110,0.96612,-0.22875,2023,6,9,12,3,54,271
0.03310,2.52000,-4.69000,0.00000,0.00183,0.96563,-0.22607,2023,6,9,12,3,54,282
0.03320,2.69500,-4.60250,0.00000,0.00415,0.96539,-0.22619,2023,6,9,12,3,54,293
0.03330,2.67750,-4.51500,0.00000,0.00183,0.96648,-0.22814,2023,6,9,12,3,54,304
0.03340,2.57250,-4.44500,0.00000,0.00110,0.96648,-0.22497,2023,6,9,12,3,54,316
0.03350,2.60750,-4.63750,0.00000,0.00366,0.96880,-0.22753,2023,6,9,12,3,54,327
0.03360,2.66000,-4.34000,0.00000,0.00232,0.96648,-0.22777,2023,6,9,12,3,54,338
0.03370,2.90500,-4.67250,0.00000,-0.00220,0.96636,-0.22887,2023,6,9,12,3,54,349
0.03380,2.64250,-4.63750,0.00000,0.00195,0.96563,-0.22753,2023,6,9,12,3,54,360
0.03390,2.78250,-4.51500,0.00000,0.00110,0.96917,-0.22497,2023,6,9,12,3,54,371
0.03400,2.85250,-4.70750,0.00000,-0.00061,0.96661,-0.22826,2023,6,9,12,3,54,382
0.03410,2.59000,-4.58500,0.00000,-0.00049,0.96575,-0.22558,2023,6,9,12,3,54,393
0.03420,2.78250,-4.62000,0.00000,0.00366,0.96673,-0.22607,2023,6,9,12,3,54,404
0.03430,2.85250,-4.65500,0.00000,0.00268,0.96880,-0.22607,2023,6,9,12,3,54,416
0.03440,2.87000,-4.65500,0.00000,0.00329,0.96673,-0.22948,2023,6,9,12,3,54,427
0.03450,2.50250,-4.39250,0.00000,0.00256,0.97014,-0.22985,2023,6,9,12,3,54,438
0.03460,2.64250,-4.53250,0.00000,0.00232,0.96905,-0.22436,2023,6,9,12,3,54,449
0.03470,2.76500,-4.62000,0.00000,0.00000,0.96478,-0.22838,2023,6,9,12,3,54,460
0.03480,2.78250,-4.72500,0.00000,0.00512,0.96953,-0.22680,2023,6,9,12,3,54,471
0.03490,2.80000,-4.28750,0.00000,0.00390,0.96722,-0.22814,2023,6,9,12,3,54,482
0.03500,2.57250,-4.72500,0.00000,0.00073,0.96600,-0.22973,2023,6,9,12,3,54,493
0.03510,2.73000,-4.76000,0.00000,0.00415,0.96917,-0.22607,2023,6,9,12,3,54,504
0.03520,2.83500,-4.46250,0.00000,0.00354,0.96831,-0.22655,2023,6,9,12,3,54,516
0.03530,2.78250,-4.51500,0.00000,0.00317,0.96526,-0.22655,2023,6,9,12,3,54,527
0.03540,2.95750,-4.70750,0.00000,0.00366,0.96758,-0.22448,2023,6,9,12,3,54,538
0.03550,2.69500,-4.55000,0.00000,0.00464,0.96722,-0.22680,2023,6,9,12,3,54,549
0.03560,2.60750,-4.55000,0.00000,0.00317,0.96941,-0.22875,2023,6,9,12,3,54,560
0.03570,2.59000,-4.46250,0.00000,0.00183,0.96587,-0.22936,2023,6,9,12,3,54,571
0.03580,2.67750,-4.44500,0.00000,0.00244,0.96819,-0.22680,2023,6,9,12,3,54,582
0.03590,2.64250,-4.23500,0.00000,0.00220,0.96844,-0.22741,2023,6,9,12,3,54,593
0.03600,2.78250,-4.44500,0.00000,0.00134,0.96453,-0.22594,2023,6,9,12,3,54,604
0.03610,2.78250,-4.70750,0.00000,0.00390,0.96868,-0.22753,2023,6,9,12,3,54,616
0.03620,2.76500,-4.81250,0.00000,0.00354,0.96868,-0.22668,2023,6,9,12,3,54,627
0.03630,2.71250,-4.55000,0.00000,0.00354,0.96673,-0.22777,2023,6,9,12,3,54,638
0.03640,2.73000,-4.39250,0.00000,0.00427,0.96551,-0.22741,2023,6,9,12,3,54,649
0.03650,2.45000,-4.60250,0.00000,0.00683,0.96587,-0.22643,2023,6,9,12,3,54,660
0.03660,2.74750,-4.34000,0.00000,0.00537,0.96746,-0.22607,2023,6,9,12,3,54,671
0.03670,2.62500,-4.41000,0.00000,0.00073,0.96734,-0.22704,2023,6,9,12,3,54,682
0.03680,2.76500,-4.67250,0.00000,0.00244,0.96465,-0.22680,2023,6,9,12,3,54,693
0.03690,2.80000,-4.67250,0.00000,0.00293,0.96844,-0.22655,2023,6,9,12,3,54,704
0.03700,2.60750,-4.44500,0.00000,0.00403,0.96685,-0.22631,2023,6,9,12,3,54,716
0.03710,2.66000,-4.63750,0.00000,0.00207,0.96441,-0.22668,2023,6,9,12,3,54,727
0.03720,2.60750,-4.44500,0.00000,0.00293,0.96636,-0.22765,2023,6,9,12,3,54,738
0.03730,2.71250,-4.44500,0.00000,0.00171,0.96539,-0.22924,2023,6,9,12,3,54,749
0.03740,2.59000,-4.44500,0.00000,0.00134,0.96648,-0.22704,2023,6,9,12,3,54,760
0.03750,2.83500,-4.58500,0.00000,0.00305,0.96917,-0.22924,2023,6,9,12,3,54,771
0.03760,2.69500,-4.21750,0.00000,0.00427,0.96868,-0.22570,2023,6,9,12,3,54,782
0.03770,2.94000,-4.72500,0.00000,0.00281,0.96490,-0.22887,2023,6,9,12,3,54,793
0.03780,2.60750,-4.65500,0.00000,0.00159,0.96539,-0.22790,2023,6,9,12,3,54,804
0.03790,2.71250,-4.49750,0.00000,0.00146,0.96636,-0.22741,2023,6,9,12,3,54,816
0.03800,2.59000,-4.53250,0.00000,0.00464,0.96953,-0.22777,2023,6,9,12,3,54,827
0.03810,2.67750,-4.70750,0.00000,0.00061,0.96661,-0.22558,2023,6,9,12,3,54,838
0.03820,2.69500,-4.63750,0.00000,0.00317,0.96758,-0.22716,2023,6,9,12,3,54,849
0.03830,2.73000,-4.58500,0.00000,0.00329,0.96722,-0.22509,2023,6,9,12,3,54,860
0.03840,2.74750,-4.62000,0.00000,0.00000,0.96514,-0.22692,2023,6,9,12,3,54,871
0.03850,2.60750,-4.42750,0.00000,0.00244,0.96526,-0.22960,2023,6,9,12,3,54,882
0.03860,2.67750,-4.51500,0.00000,0.00586,0.96673,-0.22741,2023,6,9,12,3,54,893
0.03870,2.73000,-4.63750,0.00000,0.00500,0.96953,-0.22924,2023,6,9,12,3,54,904
0.03880,2.66000,-4.67250,0.00000,0.00085,0.96539,-0.22790,2023,6,9,12,3,54,916
0.03890,2.50250,-4.42750,0.00000,0.00403,0.96844,-0.22411,2023,6,9,12,3,54,927
0.03900,2.69500,-4.35750,0.00000,0.00256,0.96648,-0.22777,2023,6,9,12,3,54,938
0.03910,2.95750,-4.72500,0.00000,-0.00024,0.96453,-0.22826,2023,6,9,12,3,54,949
0.03920,2.69500,-4.49750,0.00000,0.00427,0.96783,-0.22729,2023,6,9,12,3,54,960
0.03930,2.85250,-4.49750,0.00000,0.00159,0.96990,-0.22594,2023,6,9,12,3,54,971
0.03940,2.76500,-4.37500,0.00000,0.00329,0.96819,-0.22692,2023,6,9,12,3,54,982
0.03950,2.69500,-4.51500,0.00000,0.00415,0.96697,-0.22643,2023,6,9,12,3,55,3
0.03960,2.73000,-4.25250,0.00000,0.00439,0.96953,-0.22875,2023,6,9,12,3,55,14
0.03970,2.73000,-4.39250,0.00000,0.00464,0.96905,-0.22680,2023,6,9,12,3,55,26
0.03980,2.78250,-4.39250,0.00000,0.00085,0.96526,-0.22790,2023,6,9,12,3,55,37
0.03990,2.73000,-4.56750,0.00000,0.00390,0.96880,-0.22424,2023,6,9,12,3,55,48
0.04000,2.62500,-4.18250,0.00000,0.00488,0.96673,-0.22765,2023,6,9,12,3,55,59
0.04010,2.80000,-4.51500,0.00000,0.00134,0.96575,-0.22863,2023,6,9,12,3,55,70
0.04020,2.59000,-4.20000,0.00000,0.00207,0.96685,-0.22716,2023,6,9,12,3,55,81
0.04030,2.69500,-4.20000,0.00000,0.00403,0.96929,-0.22765,2023,6,9,12,3,55,92
0.04040,2.57250,-4.62000,0.00000,0.00244,0.96343,-0.22643,2023,6,9,12,3,55,103
0.04050,2.69500,-4.56750,0.00000,0.00464,0.96734,-0.22741,2023,6,9,12,3,55,114
0.04060,2.66000,-4.35750,0.00000,0.00268,0.96746,-0.22643,2023,6,9,12,3,55,126
0.04070,2.85250,-4.49750,0.00000,0.00146,0.96734,-0.22680,2023,6,9,12,3,55,137
0.04080,2.46750,-4.62000,0.00000,0.00110,0.96539,-0.22899,2023,6,9,12,3,55,148
0.04090,2.59000,-4.58500,0.00000,0.00366,0.96587,-0.22899,2023,6,9,12,3,55,159
0.04100,2.60750,-4.42750,0.00000,0.00683,0.96868,-0.22973,2023,6,9,12,3,55,170
0.04110,2.87000,-4.76000,0.00000,-0.00171,0.96685,-0.22753,2023,6,9,12,3,55,181
0.04120,2.66000,-4.49750,0.00000,0.00232,0.96673,-0.22802,2023,6,9,12,3,55,192
0.04130,2.52000,-4.60250,0.00000,0.00403,0.97088,-0.22692,2023,6,9,12,3,55,203
0.04140,2.53750,-4.55000,0.00000,0.00171,0.96600,-0.22716,2023,6,9,12,3,55,214
0.04150,2.73000,-4.55000,0.00000,0.00366,0.96697,-0.22887,2023,6,9,12,3,55,226
0.04160,2.59000,-4.35750,0.00000,0.00366,0.97063,-0.22631,2023,6,9,12,3,55,237
0.04170,2.74750,-4.23500,0.00000,0.00049,0.96636,-0.23034,2023,6,9,12,3,55,248
0.04180,2.64250,-4.39250,0.00000,-0.00012,0.96441,-0.22814,2023,6,9,12,3,55,259
0.04190,2.64250,-4.46250,0.00000,0.00305,0.96526,-0.22436,2023,6,9,12,3,55,270
0.04200,2.74750,-4.58500,0.00000,0.00366,0.96709,-0.22899,2023,6,9,12,3,55,281
0.04210,2.52000,-4.67250,0.00000,0.00256,0.96587,-0.22594,2023,6,9,12,3,55,292
0.04220,2.87000,-4.58500,0.00000,0.00342,0.96624,-0.22826,2023,6,9,12,3,55,303
0.04230,2.88750,-4.51500,0.00000,0.00146,0.96709,-0.22924,2023,6,9,12,3,55,314
0.04240,2.85250,-4.69000,0.00000,0.00098,0.96636,-0.23082,2023,6,9,12,3,55,326
0.04250,2.53750,-4.63750,0.00000,0.00122,0.96673,-0.22899,2023,6,9,12,3,55,337
0.04260,2.83500,-4.44500,0.00000,0.00415,0.96612,-0.22716,2023,6,9,12,3,55,348
0.04270,2.74750,-4.58500,0.00000,0.00122,0.96673,-0.22973,2023,6,9,12,3,55,359
0.04280,2.60750,-4.67250,0.00000,0.00207,0.96502,-0.22704,2023,6,9,12,3,55,370
0.04290,2.66000,-4.55000,0.00000,0.00085,0.96746,-0.22851,2023,6,9,12,3,55,381
0.04300,2.90500,-4.49750,0.00000,0.00000,0.96685,-0.22973,2023,6,9,12,3,55,392
0.04310,2.60750,-4.65500,0.00000,0.00049,0.96343,-0.22753,2023,6,9,12,3,55,403
0.04320,2.71250,-4.74250,0.00000,0.00061,0.96661,-0.22704,2023,6,9,12,3,55,414
0.04330,2.62500,-4.44500,0.00000,0.00427,0.96734,-0.22704,2023,6,9,12,3,55,426
0.04340,2.74750,-4.48000,0.00000,0.00305,0.96624,-0.22814,2023,6,9,12,3,55,437
0.04350,2.80000,-4.72500,0.00000,0.00244,0.96600,-0.22655,2023,6,9,12,3,55,448
0.04360,2.73000,-4.49750,0.00000,0.00122,0.97014,-0.22997,2023,6,9,12,3,55,459
0.04370,2.67750,-4.65500,0.00000,0.00427,0.96526,-0.22729,2023,6,9,12,3,55,470
0.04380,2.80000,-4.88250,0.00000,0.00000,0.96661,-0.22924,2023,6,9,12,3,55,481
0.04390,2.74750,-4.44500,0.00000,0.00586,0.96600,-0.22424,2023,6,9,12,3,55,492
0.04400,2.67750,-4.53250,0.00000,0.00561,0.96563,-0.22668,2023,6,9,12,3,55,503
0.04410,2.74750,-4.51500,0.00000,0.00012,0.96551,-0.22887,2023,6,9,12,3,55,514
0.04420,2.74750,-4.41000,0.00000,0.00561,0.96929,-0.22912,2023,6,9,12,3,55,526
0.04430,2.80000,-4.42750,0.00000,0.00439,0.96978,-0.23046,2023,6,9,12,3,55,537
0.04440,2.67750,-4.49750,0.00000,0.00464,0.96612,-0.22533,2023,6,9,12,3,55,548
0.04450,2.73000,-4.55000,0.00000,0.00122,0.96563,-0.22924,2023,6,9,12,3,55,559
0.04460,2.60750,-4.69000,0.00000,0.00427,0.96770,-0.22851,2023,6,9,12,3,55,570
0.04470,2.57250,-4.49750,0.00000,0.00342,0.96648,-0.22802,2023,6,9,12,3,55,581
0.04480,2.74750,-4.60250,0.00000,0.00037,0.96758,-0.22814,2023,6,9,12,3,55,592
0.04490,2.64250,-4.51500,0.00000,0.00451,0.96697,-0.22704,2023,6,9,12,3,55,603
0.04500,2.71250,-4.46250,0.00000,0.00476,0.96941,-0.22851,2023,6,9,12,3,55,614
0.04510,2.78250,-4.53250,0.00000,-0.00061,0.96465,-0.22692,2023,6,9,12,3,55,626
0.04520,2.66000,-4.44500,0.00000,0.00342,0.96429,-0.22875,2023,6,9,12,3,55,637
0.04530,2.80000,-4.34000,0.00000,0.00427,0.96856,-0.22570,2023,6,9,12,3,55,648
0.04540,2.62500,-4.53250,0.00000,0.00183,0.96941,-0.22594,2023,6,9,12,3,55,659
0.04550,2.74750,-4.48000,0.00000,-0.00037,0.96551,-0.22838,2023,6,9,12,3,55,670
0.04560,2.52000,-4.53250,0.00000,0.00256,0.96685,-0.22802,2023,6,9,12,3,55,681
0.04570,2.83500,-4.69000,0.00000,0.00354,0.96624,-0.22924,2023,6,9,12,3,55,692
0.04580,2.81750,-4.67250,0.00000,0.00183,0.96587,-0.22582,2023,6,9,12,3,55,703
0.04590,2.85250,-4.48000,0.00000,-0.00085,0.96758,-0.22826,2023,6,9,12,3,55,714
0.04600,2.87000,-4.46250,0.00000,0.00195,0.96783,-0.23046,2023,6,9,12,3,55,726
0.04610,2.94000,-4.46250,0.00000,0.00085,0.96563,-0.22790,2023,6,9,12,3,55,737
0.04620,2.74750,-4.60250,0.00000,0.00256,0.96709,-0.22924,2023,6,9,12,3,55,748
0.04630,2.78250,-4.77750,0.00000,0.00439,0.96709,-0.22765,2023,6,9,12,3,55,759
0.04640,2.73000,-4.60250,0.00000,0.00220,0.96551,-0.22619,2023,6,9,12,3,55,770
0.04650,2.53750,-4.35750,0.00000,0.00610,0.96892,-0.22509,2023,6,9,12,3,55,781
0.04660,2.94000,-4.46250,0.00000,0.00232,0.96929,-0.22533,2023,6,9,12,3,55,792
0.04670,2.87000,-4.70750,0.00000,0.00317,0.96709,-0.22997,2023,6,9,12,3,55,803
0.04680,2.59000,-4.49750,0.00000,0.00415,0.97088,-0.22936,2023,6,9,12,3,55,814
0.04690,2.85250,-4.56750,0.00000,0.00500,0.96868,-0.22875,2023,6,9,12,3,55,826
0.04700,2.73000,-4.53250,0.00000,0.00244,0.96490,-0.22777,2023,6,9,12,3,55,837
0.04710,2.73000,-4.70750,0.00000,0.00159,0.96746,-0.22912,2023,6,9,12,3,55,848
0.04720,2.81750,-4.67250,0.00000,0.00415,0.96807,-0.22899,2023,6,9,12,3,55,859
0.04730,2.73000,-4.48000,0.00000,0.00317,0.96661,-0.22655,2023,6,9,12,3,55,870
0.04740,2.59000,-4.42750,0.00000,0.00354,0.96746,-0.22631,2023,6,9,12,3,55,881
0.04750,2.59000,-4.51500,0.00000,0.00476,0.96673,-0.22960,2023,6,9,12,3,55,892
0.04760,2.62500,-4.42750,0.00000,0.00354,0.96807,-0.22704,2023,6,9,12,3,55,903
0.04770,2.74750,-4.77750,0.00000,0.00244,0.96526,-0.22704,2023,6,9,12,3,55,914
0.04780,2.71250,-4.44500,0.00000,0.00512,0.97075,-0.22716,2023,6,9,12,3,55,926
0.04790,2.92250,-4.65500,0.00000,0.00476,0.96722,-0.22826,2023,6,9,12,3,55,937
0.04800,2.66000,-4.53250,0.00000,0.00281,0.96880,-0.22814,2023,6,9,12,3,55,948
0.04810,2.66000,-4.53250,0.00000,0.00537,0.96746,-0.22448,2023,6,9,12,3,55,959
0.04820,2.74750,-4.32250,0.00000,0.00268,0.96844,-0.22924,2023,6,9,12,3,55,970
0.04830,2.62500,-4.63750,0.00000,0.00293,0.96709,-0.22985,2023,6,9,12,3,55,981
0.04840,2.62500,-4.56750,0.00000,0.00659,0.96758,-0.22607,2023,6,9,12,3,55,992
0.04850,2.50250,-4.49750,0.00000,0.00159,0.96441,-0.22668,2023,6,9,12,3,56,3
0.04860,2.85250,-4.77750,0.00000,0.00171,0.96612,-0.22753,2023,6,9,12,3,56,14
0.04870,2.53750,-4.62000,0.00000,0.00171,0.96722,-0.22826,2023,6,9,12,3,56,26
0.04880,2.80000,-4.63750,0.00000,0.00281,0.96709,-0.22875,2023,6,9,12,3,56,37
0.04890,2.76500,-4.35750,0.00000,-0.00049,0.96173,-0.22814,2023,6,9,12,3,56,48
0.04900,2.62500,-4.69000,0.00000,0.00195,0.96856,-0.22912,2023,6,9,12,3,56,59
0.04910,2.71250,-4.23500,0.00000,0.00317,0.96807,-0.22936,2023,6,9,12,3,56,70
0.04920,2.88750,-4.76000,0.00000,-0.00159,0.96636,-0.23082,2023,6,9,12,3,56,81
0.04930,2.62500,-4.60250,0.00000,0.00244,0.96844,-0.22729,2023,6,9,12,3,56,92
0.04940,2.74750,-4.46250,0.00000,0.00232,0.96807,-0.22533,2023,6,9,12,3,56,103
0.04950,2.67750,-4.63750,0.00000,0.00220,0.96868,-0.22741,2023,6,9,12,3,56,114
0.04960,2.52000,-4.42750,0.00000,0.00464,0.96697,-0.22582,2023,6,9,12,3,56,126
0.04970,2.59000,-4.39250,0.00000,0.00415,0.96990,-0.22729,2023,6,9,12,3,56,137
0.04980,2.76500,-4.63750,0.00000,0.00305,0.96697,-0.22704,2023,6,9,12,3,56,148
0.04990,2.66000,-4.53250,0.00000,0.00159,0.96844,-0.22802,2023,6,9,12,3,56,159
0.05000,2.71250,-4.39250,0.00000,0.00451,0.97014,-0.22887,2023,6,9,12,3,56,170
0.05010,2.57250,-4.65500,0.00000,0.00207,0.96722,-0.22985,2023,6,9,12,3,56,181
0.05020,2.69500,-4.46250,0.00000,0.00427,0.96697,-0.22863,2023,6,9,12,3,56,192
0.05030,2.66000,-4.49750,0.00000,0.00512,0.96539,-0.22680,2023,6,9,12,3,56,203
0.05040,2.57250,-4.51500,0.00000,0.00293,0.96990,-0.22729,2023,6,9,12,3,56,214
0.05050,2.80000,-4.53250,0.00000,0.00329,0.96490,-0.22838,2023,6,9,12,3,56,226
0.05060,2.69500,-4.49750,0.00000,0.00232,0.96575,-0.22924,2023,6,9,12,3,56,237
0.05070,2.73000,-4.35750,0.00000,0.00085,0.96661,-0.23021,2023,6,9,12,3,56,248
0.05080,2.87000,-4.69000,0.00000,0.00024,0.96892,-0.22802,2023,6,9,12,3,56,259
0.05090,2.83500,-4.60250,0.00000,-0.00012,0.96905,-0.22973,2023,6,9,12,3,56,270
0.05100,2.73000,-4.62000,0.00000,0.00110,0.96746,-0.22741,2023,6,9,12,3,56,281
0.05110,2.74750,-4.79500,0.00000,0.00000,0.96697,-0.22997,2023,6,9,12,3,56,292
0.05120,2.80000,-4.74250,0.00000,0.00598,0.97027,-0.22899,2023,6,9,12,3,56,303
0.05130,2.81750,-4.63750,0.00000,0.00415,0.96697,-0.22875,2023,6,9,12,3,56,314
0.05140,2.62500,-4.42750,0.00000,0.00073,0.96758,-0.22924,2023,6,9,12,3,56,326
0.05150,2.67750,-4.55000,0.00000,0.00024,0.96709,-0.22802,2023,6,9,12,3,56,337
0.05160,2.87000,-4.72500,0.00000,0.00342,0.97161,-0.23046,2023,6,9,12,3,56,348
0.05170,2.83500,-4.56750,0.00000,0.00476,0.96673,-0.22863,2023,6,9,12,3,56,359
0.05180,2.57250,-4.72500,0.00000,0.00378,0.96990,-0.22680,2023,6,9,12,3,56,370
0.05190,2.74750,-4.74250,0.00000,0.00207,0.96575,-0.22729,2023,6,9,12,3,56,381
0.05200,2.64250,-4.49750,0.00000,0.00439,0.96661,-0.22692,2023,6,9,12,3,56,392
0.05210,2.66000,-4.48000,0.00000,0.00281,0.96587,-0.22777,2023,6,9,12,3,56,403
0.05220,2.62500,-4.53250,0.00000,0.00403,0.96795,-0.22668,2023,6,9,12,3,56,414
0.05230,2.74750,-4.83000,0.00000,0.00085,0.96758,-0.22765,2023,6,9,12,3,56,426
0.05240,2.69500,-4.72500,0.00000,0.00195,0.96746,-0.22924,2023,6,9,12,3,56,437
0.05250,2.74750,-4.58500,0.00000,0.00354,0.96734,-0.22607,2023,6,9,12,3,56,448
0.05260,2.73000,-4.55000,0.00000,0.00073,0.97051,-0.22753,2023,6,9,12,3,56,459
0.05270,2.83500,-4.41000,0.00000,0.00171,0.96392,-0.22741,2023,6,9,12,3,56,470
0.05280,3.01000,-4.77750,0.00000,0.00268,0.96465,-0.22753,2023,6,9,12,3,56,481
0.05290,2.78250,-4.49750,0.00000,0.00488,0.96722,-0.22570,2023,6,9,12,3,56,492
0.05300,2.66000,-4.65500,0.00000,0.00098,0.96380,-0.22936,2023,6,9,12,3,56,503
0.05310,2.67750,-4.49750,0.00000,0.00195,0.96551,-0.22643,2023,6,9,12,3,56,514
0.05320,2.64250,-4.35750,0.00000,0.00537,0.96892,-0.22594,2023,6,9,12,3,56,526
0.05330,2.69500,-4.70750,0.00000,0.00268,0.96673,-0.22814,2023,6,9,12,3,56,537
0.05340,2.81750,-4.83000,0.00000,0.00000,0.96441,-0.22570,2023,6,9,12,3,56,548
0.05350,2.85250,-4.56750,0.00000,0.00281,0.97136,-0.22985,2023,6,9,12,3,56,559
0.05360,2.81750,-4.46250,0.00000,0.00098,0.96465,-0.22863,2023,6,9,12,3,56,570
0.05370,2.80000,-4.69000,0.00000,-0.00098,0.96587,-0.22814,2023,6,9,12,3,56,581
0.05380,2.62500,-4.32250,0.00000,0.00451,0.96807,-0.22826,2023,6,9,12,3,56,592
0.05390,2.55500,-4.51500,0.00000,0.00537,0.96502,-0.22533,2023,6,9,12,3,56,603
0.05400,2.78250,-4.51500,0.00000,-0.00049,0.96490,-0.22716,2023,6,9,12,3,56,614
0.05410,2.69500,-4.49750,0.00000,0.00293,0.96990,-0.22924,2023,6,9,12,3,56,626
0.05420,2.69500,-4.46250,0.00000,0.00525,0.96734,-0.22497,2023,6,9,12,3,56,637
0.05430,2.87000,-4.63750,0.00000,0.00281,0.96514,-0.22777,2023,6,9,12,3,56,648
0.05440,2.64250,-4.44500,0.00000,0.00390,0.97002,-0.22765,2023,6,9,12,3,56,659
0.05450,2.74750,-4.60250,0.00000,0.00256,0.96746,-0.23082,2023,6,9,12,3,56,670
0.05460,2.74750,-4.55000,0.00000,0.00244,0.96563,-0.22704,2023,6,9,12,3,56,681
0.05470,2.71250,-4.46250,0.00000,0.00464,0.96636,-0.22619,2023,6,9,12,3,56,692
0.05480,2.64250,-4.55000,0.00000,0.00390,0.96795,-0.22936,2023,6,9,12,3,56,703
0.05490,2.62500,-4.49750,0.00000,0.00049,0.96844,-0.22631,2023,6,9,12,3,56,714
0.05500,2.46750,-4.39250,0.00000,0.00354,0.97002,-0.22838,2023,6,9,12,3,56,726
0.05510,2.62500,-4.32250,0.00000,-0.00037,0.96575,-0.22814,2023,6,9,12,3,56,737
0.05520,2.83500,-4.48000,0.00000,0.00012,0.96685,-0.22741,2023,6,9,12,3,56,748
0.05530,2.66000,-4.65500,0.00000,0.00305,0.96526,-0.22460,2023,6,9,12,3,56,759
0.05540,2.67750,-4.76000,0.00000,0.00220,0.96722,-0.22765,2023,6,9,12,3,56,770
0.05550,2.73000,-4.62000,0.00000,0.00024,0.96417,-0.22741,2023,6,9,12,3,56,781
0.05560,2.73000,-4.60250,0.00000,0.00171,0.96917,-0.22655,2023,6,9,12,3,56,792
0.05570,2.83500,-4.56750,0.00000,0.00378,0.97002,-0.22582,2023,6,9,12,3,56,803
0.05580,2.83500,-4.77750,0.00000,0.00171,0.96514,-0.22887,2023,6,9,12,3,56,814
0.05590,2.67750,-4.67250,0.00000,0.00061,0.96502,-0.22668,2023,6,9,12,3,56,826
0.05600,2.66000,-4.60250,0.00000,0.00256,0.96795,-0.22716,2023,6,9,12,3,56,837
0.05610,2.74750,-4.53250,0.00000,0.00073,0.96380,-0.22753,2023,6,9,12,3,56,848
0.05620,2.62500,-4.42750,0.00000,0.00098,0.96587,-0.22680,2023,6,9,12,3,56,859
0.05630,2.97500,-4.62000,0.00000,0.00366,0.96807,-0.23095,2023,6,9,12,3,56,870
0.05640,2.92250,-4.72500,0.00000,0.00037,0.96709,-0.22851,2023,6,9,12,3,56,881
0.05650,2.74750,-4.65500,0.00000,0.00134,0.96551,-0.22814,2023,6,9,12,3,56,892
0.05660,2.81750,-4.67250,0.00000,0.00134,0.96587,-0.22643,2023,6,9,12,3,56,903
0.05670,2.53750,-4.69000,0.00000,0.00207,0.96795,-0.22814,2023,6,9,12,3,56,914
0.05680,2.80000,-4.56750,0.00000,0.00012,0.96526,-0.22826,2023,6,9,12,3,56,926
0.05690,2.64250,-4.53250,0.00000,-0.00256,0.96624,-0.22753,2023,6,9,12,3,56,937
0.05700,2.78250,-4.58500,0.00000,0.00512,0.96819,-0.22777,2023,6,9,12,3,56,948
0.05710,2.94000,-4.56750,0.00000,0.00268,0.96612,-0.22790,2023,6,9,12,3,56,959
0.05720,2.92250,-4.63750,0.00000,0.00183,0.96648,-0.22802,2023,6,9,12,3,56,970
0.05730,2.59000,-4.32250,0.00000,0.00427,0.96966,-0.22838,2023,6,9,12,3,56,981
0.05740,2.92250,-4.67250,0.00000,0.00305,0.96563,-0.22655,2023,6,9,12,3,56,992
0.05750,2.88750,-4.62000,0.00000,0.00342,0.96734,-0.22680,2023,6,9,12,3,56,3
0.05760,2.69500,-4.44500,0.00000,0.00427,0.96673,-0.22594,2023,6,9,12,3,56,14
0.05770,2.83500,-4.49750,0.00000,0.00195,0.96661,-0.22936,2023,6,9,12,3,57,6
0.05780,2.57250,-4.67250,0.00000,0.00207,0.96636,-0.22533,2023,6,9,12,3,57,17
0.05790,2.64250,-4.63750,0.00000,0.00354,0.96831,-0.22558,2023,6,9,12,3,57,28
0.05800,2.64250,-4.37500,0.00000,0.00354,0.96966,-0.23021,2023,6,9,12,3,57,39
0.05810,2.83500,-4.56750,0.00000,0.00012,0.96465,-0.22814,2023,6,9,12,3,57,50
0.05820,2.87000,-4.48000,0.00000,0.00061,0.97075,-0.22936,2023,6,9,12,3,57,61
0.05830,2.69500,-4.58500,0.00000,0.00207,0.96917,-0.22643,2023,6,9,12,3,57,72
0.05840,2.74750,-4.53250,0.00000,0.00134,0.96673,-0.22814,2023,6,9,12,3,57,83
0.05850,2.67750,-4.58500,0.00000,-0.00098,0.96514,-0.22521,2023,6,9,12,3,57,94
0.05860,2.39750,-4.39250,0.00000,0.00085,0.96758,-0.22777,2023,6,9,12,3,57,106
0.05870,2.81750,-4.70750,0.00000,0.00317,0.96587,-0.22960,2023,6,9,12,3,57,117
0.05880,2.76500,-4.51500,0.00000,0.00122,0.96612,-0.22680,2023,6,9,12,3,57,128
0.05890,2.69500,-4.69000,0.00000,0.00281,0.97027,-0.22680,2023,6,9,12,3,57,139
0.05900,2.74750,-4.58500,0.00000,0.00110,0.96465,-0.22814,2023,6,9,12,3,57,150
0.05910,2.57250,-4.55000,0.00000,0.00268,0.96587,-0.22558,2023,6,9,12,3,57,161
0.05920,2.48500,-4.56750,0.00000,0.00451,0.96844,-0.22619,2023,6,9,12,3,57,172
0.05930,2.71250,-4.53250,0.00000,0.00476,0.96770,-0.22546,2023,6,9,12,3,57,183
0.05940,2.74750,-4.69000,0.00000,-0.00024,0.96502,-0.22777,2023,6,9,12,3,57,194
0.05950,3.04500,-4.42750,0.00000,0.00464,0.96868,-0.22363,2023,6,9,12,3,57,206
0.05960,2.87000,-4.44500,0.00000,0.00561,0.97002,-0.22863,2023,6,9,12,3,57,217
0.05970,2.57250,-4.37500,0.00000,0.00183,0.96575,-0.22668,2023,6,9,12,3,57,228
0.05980,2.66000,-4.56750,0.00000,0.00232,0.96636,-0.22716,2023,6,9,12,3,57,239
0.05990,2.73000,-4.49750,0.00000,0.00293,0.96917,-0.23034,2023,6,9,12,3,57,250
0.06000,2.66000,-4.72500,0.00000,0.00232,0.96441,-0.22582,2023,6,9,12,3,57,261
0.06010,2.78250,-4.44500,0.00000,0.00220,0.96831,-0.22985,2023,6,9,12,3,57,272
0.06020,2.64250,-4.46250,0.00000,0.00622,0.96905,-0.22338,2023,6,9,12,3,57,283
0.06030,3.01000,-4.34000,0.00000,0.00256,0.96685,-0.22790,2023,6,9,12,3,57,294
0.06040,2.66000,-4.42750,0.00000,-0.00049,0.96953,-0.22729,2023,6,9,12,3,57,306
0.06050,2.67750,-4.58500,0.00000,0.00342,0.96746,-0.22594,2023,6,9,12,3,57,317
0.06060,2.57250,-4.67250,0.00000,0.00512,0.96880,-0.22594,2023,6,9,12,3,57,328
0.06070,2.73000,-4.81250,0.00000,0.00232,0.96502,-0.22668,2023,6,9,12,3,57,339
0.06080,2.90500,-4.51500,0.00000,0.00195,0.96709,-0.22948,2023,6,9,12,3,57,350
0.06090,2.67750,-4.42750,0.00000,0.00488,0.96917,-0.22765,2023,6,9,12,3,57,361
0.06100,2.76500,-4.51500,0.00000,0.00195,0.96807,-0.23241,2023,6,9,12,3,57,372
0.06110,2.69500,-4.55000,0.00000,0.00024,0.96661,-0.22851,2023,6,9,12,3,57,383
0.06120,2.64250,-4.42750,0.00000,0.00390,0.96856,-0.22497,2023,6,9,12,3,57,394
0.06130,2.67750,-4.49750,0.00000,0.00488,0.96929,-0.22692,2023,6,9,12,3,57,406
0.06140,2.69500,-4.77750,0.00000,0.00281,0.96490,-0.22436,2023,6,9,12,3,57,417
0.06150,2.64250,-4.42750,0.00000,0.00183,0.96563,-0.22668,2023,6,9,12,3,57,428
0.06160,2.60750,-4.51500,0.00000,0.00451,0.97112,-0.22668,2023,6,9,12,3,57,439
0.06170,2.90500,-4.55000,0.00000,0.00146,0.96563,-0.22729,2023,6,9,12,3,57,450
0.06180,2.67750,-4.44500,0.00000,0.00073,0.96661,-0.22899,2023,6,9,12,3,57,461
0.06190,2.67750,-4.65500,0.00000,0.00366,0.96844,-0.22814,2023,6,9,12,3,57,472
0.06200,2.57250,-4.60250,0.00000,0.00098,0.96539,-0.22643,2023,6,9,12,3,57,483
0.06210,2.55500,-4.60250,0.00000,0.00220,0.96783,-0.22863,2023,6,9,12,3,57,494
0.06220,2.80000,-4.56750,0.00000,0.00244,0.96661,-0.22692,2023,6,9,12,3,57,506
0.06230,2.66000,-4.51500,0.00000,0.00098,0.96831,-0.22838,2023,6,9,12,3,57,517
0.06240,2.80000,-4.46250,0.00000,0.00183,0.96807,-0.22765,2023,6,9,12,3,57,528
0.06250,2.64250,-4.37500,0.00000,0.00061,0.97075,-0.22643,2023,6,9,12,3,57,539
0.06260,2.69500,-4.84750,0.00000,0.00268,0.96417,-0.22716,2023,6,9,12,3,57,550
0.06270,2.76500,-4.72500,0.00000,0.00122,0.96380,-0.22594,2023,6,9,12,3,57,561
0.06280,2.76500,-4.65500,0.00000,0.00512,0.97027,-0.22826,2023,6,9,12,3,57,572
0.06290,2.53750,-4.27000,0.00000,0.00122,0.96636,-0.22802,2023,6,9,12,3,57,583
0.06300,2.83500,-4.84750,0.00000,0.00073,0.96417,-0.22704,2023,6,9,12,3,57,594
0.06310,2.64250,-4.65500,0.00000,0.00512,0.96722,-0.22680,2023,6,9,12,3,57,606
0.06320,2.90500,-4.72500,0.00000,0.00220,0.96392,-0.22741,2023,6,9,12,3,57,617
0.06330,2.78250,-4.53250,0.00000,0.00146,0.96587,-0.22753,2023,6,9,12,3,57,628
0.06340,2.85250,-4.67250,0.00000,0.00720,0.96917,-0.22851,2023,6,9,12,3,57,639
0.06350,2.67750,-4.55000,0.00000,0.00439,0.96648,-0.22558,2023,6,9,12,3,57,650
0.06360,2.52000,-4.44500,0.00000,0.00134,0.96551,-0.22838,2023,6,9,12,3,57,661
0.06370,2.78250,-4.63750,0.00000,0.00586,0.96929,-0.22729,2023,6,9,12,3,57,672
0.06380,2.60750,-4.51500,0.00000,0.00573,0.96880,-0.22936,2023,6,9,12,3,57,683
0.06390,2.73000,-4.58500,0.00000,0.00073,0.96539,-0.22631,2023,6,9,12,3,57,694
0.06400,2.59000,-4.46250,0.00000,0.00134,0.96734,-0.22643,2023,6,9,12,3,57,706
0.06410,2.73000,-4.70750,0.00000,0.00354,0.96819,-0.22680,2023,6,9,12,3,57,717
0.06420,2.78250,-4.62000,0.00000,0.00085,0.96197,-0.22546,2023,6,9,12,3,57,728
0.06430,2.59000,-4.70750,0.00000,0.00354,0.96831,-0.22692,2023,6,9,12,3,57,739
0.06440,2.69500,-4.35750,0.00000,0.00342,0.96673,-0.22570,2023,6,9,12,3,57,750
0.06450,2.76500,-4.76000,0.00000,-0.00024,0.96758,-0.22777,2023,6,9,12,3,57,761
0.06460,2.74750,-4.67250,0.00000,0.00366,0.96819,-0.22704,2023,6,9,12,3,57,772
0.06470,2.62500,-4.49750,0.00000,0.00342,0.96856,-0.22838,2023,6,9,12,3,57,783
0.06480,2.73000,-4.56750,0.00000,0.00220,0.96478,-0.22753,2023,6,9,12,3,57,794
0.06490,2.55500,-4.44500,0.00000,0.00220,0.96453,-0.22948,2023,6,9,12,3,57,806
0.06500,2.73000,-4.32250,0.00000,0.00256,0.96807,-0.22790,2023,6,9,12,3,57,817
0.06510,2.78250,-4.76000,0.00000,0.00256,0.96453,-0.22692,2023,6,9,12,3,57,828
0.06520,2.99250,-4.79500,0.00000,0.00256,0.96807,-0.22533,2023,6,9,12,3,57,839
0.06530,2.78250,-4.53250,0.00000,0.00622,0.96929,-0.22521,2023,6,9,12,3,57,850
0.06540,2.81750,-4.58500,0.00000,0.00232,0.96612,-0.22704,2023,6,9,12,3,57,861
0.06550,2.78250,-4.60250,0.00000,0.00305,0.96917,-0.22716,2023,6,9,12,3,57,872
0.06560,2.52000,-4.51500,0.00000,0.00390,0.97014,-0.22448,2023,6,9,12,3,57,883
0.06570,2.95750,-4.69000,0.00000,0.00366,0.96758,-0.22692,2023,6,9,12,3,57,894
0.06580,2.83500,-4.63750,0.00000,0.00134,0.96722,-0.22729,2023,6,9,12,3,57,906
0.06590,2.83500,-4.48000,0.00000,0.00403,0.96807,-0.22631,2023,6,9,12,3,57,917
0.06600,2.74750,-4.46250,0.00000,0.00317,0.96563,-0.22594,2023,6,9,12,3,57,928
0.06610,2.74750,-4.49750,0.00000,0.00110,0.96453,-0.22570,2023,6,9,12,3,57,939
0.06620,2.67750,-4.63750,0.00000,0.00244,0.96807,-0.22655,2023,6,9,12,3,57,950
0.06630,2.66000,-4.56750,0.00000,0.00293,0.96929,-0.22594,2023,6,9,12,3,57,961
0.06640,2.78250,-4.60250,0.00000,0.00146,0.96770,-0.22692,2023,6,9,12,3,57,972
0.06650,2.66000,-4.69000,0.00000,0.00085,0.96636,-0.22863,2023,6,9,12,3,57,983
0.06660,2.64250,-4.74250,0.00000,0.00354,0.96783,-0.22729,2023,6,9,12,3,58,4
0.06670,2.69500,-4.55000,0.00000,0.00049,0.96673,-0.22729,2023,6,9,12,3,58,16
0.06680,2.80000,-4.60250,0.00000,0.00085,0.96551,-0.22985,2023,6,9,12,3,58,27
0.06690,2.76500,-4.72500,0.00000,0.00171,0.96819,-0.22704,2023,6,9,12,3,58,38
0.06700,2.80000,-4.65500,0.00000,0.00256,0.96624,-0.22546,2023,6,9,12,3,58,49
0.06710,2.83500,-4.77750,0.00000,0.00085,0.96624,-0.22863,2023,6,9,12,3,58,60
0.06720,2.62500,-4.51500,0.00000,0.00549,0.96746,-0.22960,2023,6,9,12,3,58,71
0.06730,2.71250,-4.65500,0.00000,0.00488,0.96929,-0.22655,2023,6,9,12,3,58,82
0.06740,2.57250,-4.65500,0.00000,0.00256,0.96758,-0.22948,2023,6,9,12,3,58,93
0.06750,2.78250,-4.74250,0.00000,0.00354,0.96624,-0.22997,2023,6,9,12,3,58,104
0.06760,2.64250,-4.42750,0.00000,0.00329,0.96831,-0.23034,2023,6,9,12,3,58,116
0.06770,2.73000,-4.62000,0.00000,0.00305,0.96722,-0.22936,2023,6,9,12,3,58,127
0.06780,2.62500,-4.51500,0.00000,0.00464,0.96612,-0.22814,2023,6,9,12,3,58,138
0.06790,2.50250,-4.44500,0.00000,0.00622,0.96722,-0.22802,2023,6,9,12,3,58,149
0.06800,2.81750,-4.32250,0.00000,0.00378,0.96661,-0.22912,2023,6,9,12,3,58,160
0.06810,2.74750,-4.62000,0.00000,0.00317,0.96697,-0.22631,2023,6,9,12,3,58,171
0.06820,2.71250,-4.51500,0.00000,0.00281,0.96709,-0.22680,2023,6,9,12,3,58,182
0.06830,2.81750,-4.42750,0.00000,-0.00146,0.96783,-0.22643,2023,6,9,12,3,58,193
0.06840,2.76500,-4.60250,0.00000,0.00183,0.96380,-0.22777,2023,6,9,12,3,58,204
0.06850,2.69500,-4.70750,0.00000,0.00354,0.96612,-0.22436,2023,6,9,12,3,58,216
0.06860,2.74750,-4.28750,0.00000,0.00012,0.96636,-0.22729,2023,6,9,12,3,58,227
0.06870,2.64250,-4.67250,0.00000,0.00085,0.96478,-0.22814,2023,6,9,12,3,58,238
0.06880,2.78250,-4.48000,0.00000,0.00232,0.96612,-0.22668,2023,6,9,12,3,58,249
0.06890,2.87000,-4.60250,0.00000,0.00439,0.96709,-0.22851,2023,6,9,12,3,58,260
0.06900,2.80000,-4.65500,0.00000,0.00085,0.96600,-0.22521,2023,6,9,12,3,58,271
0.06910,2.90500,-4.72500,0.00000,0.00207,0.96795,-0.22826,2023,6,9,12,3,58,282
0.06920,2.73000,-4.69000,0.00000,0.00232,0.96819,-0.22973,2023,6,9,12,3,58,293
0.06930,2.64250,-4.56750,0.00000,0.00061,0.96758,-0.22741,2023,6,9,12,3,58,304
0.06940,2.80000,-4.60250,0.00000,0.00268,0.96551,-0.22802,2023,6,9,12,3,58,316
0.06950,2.90500,-4.62000,0.00000,0.00293,0.96587,-0.22899,2023,6,9,12,3,58,327
0.06960,2.78250,-4.60250,0.00000,0.00195,0.96624,-0.22790,2023,6,9,12,3,58,338
0.06970,2.81750,-4.62000,0.00000,-0.00073,0.96551,-0.22631,2023,6,9,12,3,58,349
0.06980,2.67750,-4.58500,0.00000,0.00439,0.96831,-0.22472,2023,6,9,12,3,58,360
0.06990,2.83500,-4.56750,0.00000,0.00256,0.96551,-0.22558,2023,6,9,12,3,58,371
0.07000,2.90500,-4.84750,0.00000,0.00085,0.96478,-0.22594,2023,6,9,12,3,58,382
0.07010,2.71250,-4.58500,0.00000,0.00329,0.96892,-0.22851,2023,6,9,12,3,58,393
0.07020,2.53750,-4.55000,0.00000,-0.00037,0.96612,-0.22851,2023,6,9,12,3,58,404
0.07030,2.78250,-4.63750,0.00000,-0.00012,0.96685,-0.22729,2023,6,9,12,3,58,416
0.07040,2.66000,-4.67250,0.00000,0.00000,0.96490,-0.22753,2023,6,9,12,3,58,427
0.07050,2.62500,-4.48000,0.00000,0.00390,0.96746,-0.22680,2023,6,9,12,3,58,438
0.07060,2.80000,-4.49750,0.00000,0.00134,0.96673,-0.22619,2023,6,9,12,3,58,449
0.07070,2.67750,-4.55000,0.00000,0.00073,0.96600,-0.22643,2023,6,9,12,3,58,460
0.07080,2.73000,-4.39250,0.00000,0.00183,0.96697,-0.22777,2023,6,9,12,3,58,471
0.07090,2.62500,-4.44500,0.00000,0.00024,0.96722,-0.23034,2023,6,9,12,3,58,482
0.07100,2.62500,-4.62000,0.00000,0.00037,0.96441,-0.22692,2023,6,9,12,3,58,493
0.07110,2.71250,-4.74250,0.00000,0.00195,0.96831,-0.22607,2023,6,9,12,3,58,504
0.07120,2.64250,-4.58500,0.00000,0.00342,0.96758,-0.23009,2023,6,9,12,3,58,516
0.07130,2.85250,-4.42750,0.00000,0.00281,0.96526,-0.22485,2023,6,9,12,3,58,527
0.07140,2.74750,-4.56750,0.00000,0.00037,0.96722,-0.22765,2023,6,9,12,3,58,538
0.07150,2.71250,-4.74250,0.00000,0.00366,0.96673,-0.22643,2023,6,9,12,3,58,549
0.07160,2.76500,-4.63750,0.00000,0.00024,0.96307,-0.22936,2023,6,9,12,3,58,560
0.07170,2.62500,-4.67250,0.00000,0.00390,0.96465,-0.22558,2023,6,9,12,3,58,571
0.07180,2.81750,-4.51500,0.00000,0.00403,0.96905,-0.22814,2023,6,9,12,3,58,582
0.07190,2.81750,-4.62000,0.00000,-0.00134,0.96502,-0.22973,2023,6,9,12,3,58,593
0.07200,2.80000,-4.69000,0.00000,0.00159,0.96661,-0.22643,2023,6,9,12,3,58,604
0.07210,2.62500,-4.41000,0.00000,0.00378,0.96868,-0.22948,2023,6,9,12,3,58,616
0.07220,2.60750,-4.39250,0.00000,0.00390,0.96526,-0.22655,2023,6,9,12,3,58,627
0.07230,2.62500,-4.46250,0.00000,0.00281,0.96770,-0.22802,2023,6,9,12,3,58,638
0.07240,2.66000,-4.55000,0.00000,0.00525,0.96819,-0.22607,2023,6,9,12,3,58,649
0.07250,2.87000,-4.62000,0.00000,0.00464,0.96722,-0.22912,2023,6,9,12,3,58,660
0.07260,2.67750,-4.65500,0.00000,0.00256,0.96551,-0.22777,2023,6,9,12,3,58,671
0.07270,2.66000,-4.58500,0.00000,0.00305,0.96709,-0.22680,2023,6,9,12,3,58,682
0.07280,2.67750,-4.28750,0.00000,0.00427,0.96929,-0.22790,2023,6,9,12,3,58,693
0.07290,2.83500,-4.67250,0.00000,0.00012,0.96429,-0.22607,2023,6,9,12,3,58,704
0.07300,2.85250,-4.67250,0.00000,0.00122,0.96856,-0.22668,2023,6,9,12,3,58,716
0.07310,2.74750,-4.63750,0.00000,0.00512,0.96612,-0.22546,2023,6,9,12,3,58,727
0.07320,2.90500,-4.60250,0.00000,0.00256,0.96478,-0.22729,2023,6,9,12,3,58,738
0.07330,2.76500,-4.65500,0.00000,0.00268,0.96917,-0.22851,2023,6,9,12,3,58,749
0.07340,2.62500,-4.62000,0.00000,0.00268,0.96563,-0.22692,2023,6,9,12,3,58,760
0.07350,2.69500,-4.48000,0.00000,-0.00110,0.96807,-0.22936,2023,6,9,12,3,58,771
0.07360,2.67750,-4.55000,0.00000,-0.00024,0.96648,-0.22668,2023,6,9,12,3,58,782
0.07370,2.57250,-4.62000,0.00000,0.00110,0.96807,-0.22814,2023,6,9,12,3,58,793
0.07380,2.74750,-4.56750,0.00000,0.00159,0.96514,-0.22838,2023,6,9,12,3,58,804
0.07390,2.71250,-4.91750,0.00000,0.00049,0.96478,-0.22838,2023,6,9,12,3,58,816
0.07400,2.55500,-4.60250,0.00000,0.00451,0.96612,-0.22558,2023,6,9,12,3,58,827
0.07410,2.60750,-4.51500,0.00000,0.00305,0.96844,-0.22533,2023,6,9,12,3,58,838
0.07420,2.78250,-4.63750,0.00000,0.00293,0.96856,-0.23009,2023,6,9,12,3,58,849
0.07430,2.73000,-4.69000,0.00000,-0.00037,0.96587,-0.22704,2023,6,9,12,3,58,860
0.07440,2.73000,-4.30500,0.00000,0.00256,0.96770,-0.22668,2023,6,9,12,3,58,871
0.07450,2.66000,-4.62000,0.00000,0.00195,0.96453,-0.22668,2023,6,9,12,3,58,882
0.07460,2.74750,-4.46250,0.00000,0.00159,0.96539,-0.22826,2023,6,9,12,3,58,893
0.07470,2.76500,-4.53250,0.00000,0.00476,0.96807,-0.22924,2023,6,9,12,3,58,904
0.07480,2.74750,-4.76000,0.00000,0.00110,0.96880,-0.22826,2023,6,9,12,3,58,916
0.07490,2.66000,-4.69000,0.00000,0.00159,0.96539,-0.22741,2023,6,9,12,3,58,927
0.07500,2.78250,-4.58500,0.00000,0.00207,0.96600,-0.22753,2023,6,9,12,3,58,938
0.07510,2.76500,-4.37500,0.00000,0.00293,0.96917,-0.22875,2023,6,9,12,3,58,949
0.07520,2.80000,-4.62000,0.00000,0.00305,0.96880,-0.22692,2023,6,9,12,3,58,960
0.07530,2.62500,-4.41000,0.00000,0.00207,0.96673,-0.22936,2023,6,9,12,3,58,971
0.07540,2.60750,-4.48000,0.00000,0.00342,0.96941,-0.22814,2023,6,9,12,3,58,982
0.07550,2.78250,-4.58500,0.00000,0.00268,0.96770,-0.22814,2023,6,9,12,3,58,993
0.07560,2.92250,-4.48000,0.00000,0.00207,0.96844,-0.22826,2023,6,9,12,3,58,4
0.07570,2.73000,-4.42750,0.00000,0.00281,0.96526,-0.22997,2023,6,9,12,3,59,6
0.07580,2.71250,-4.62000,0.00000,0.00354,0.96880,-0.22424,2023,6,9,12,3,59,17
0.07590,2.64250,-4.35750,0.00000,0.00415,0.96600,-0.22643,2023,6,9,12,3,59,28
0.07600,2.67750,-4.69000,0.00000,0.00000,0.96563,-0.22777,2023,6,9,12,3,59,39
0.07610,2.59000,-4.49750,0.00000,0.00195,0.96685,-0.22899,2023,6,9,12,3,59,50
0.07620,2.73000,-4.74250,0.00000,0.00573,0.96746,-0.22851,2023,6,9,12,3,59,61
0.07630,2.87000,-4.49750,0.00000,0.00183,0.96307,-0.22948,2023,6,9,12,3,59,72
0.07640,2.57250,-4.62000,0.00000,0.00195,0.96844,-0.22741,2023,6,9,12,3,59,83
0.07650,2.67750,-4.58500,0.00000,0.00098,0.96722,-0.22790,2023,6,9,12,3,59,94
0.07660,2.80000,-4.58500,0.00000,0.00073,0.96648,-0.22668,2023,6,9,12,3,59,106
0.07670,2.73000,-4.51500,0.00000,0.00098,0.96697,-0.22899,2023,6,9,12,3,59,117
0.07680,2.80000,-4.49750,0.00000,0.00342,0.96612,-0.22729,2023,6,9,12,3,59,128
0.07690,2.80000,-4.46250,0.00000,0.00451,0.96661,-0.22692,2023,6,9,12,3,59,139
0.07700,2.64250,-4.65500,0.00000,0.00195,0.96453,-0.22716,2023,6,9,12,3,59,150
0.07710,2.71250,-4.48000,0.00000,0.00281,0.96685,-0.22814,2023,6,9,12,3,59,161
0.07720,3.02750,-4.69000,0.00000,0.00366,0.96917,-0.22851,2023,6,9,12,3,59,172
0.07730,2.66000,-4.58500,0.00000,0.00354,0.96892,-0.22619,2023,6,9,12,3,59,183
0.07740,2.66000,-4.77750,0.00000,0.00268,0.96514,-0.22960,2023,6,9,12,3,59,194
0.07750,2.78250,-4.67250,0.00000,0.00134,0.96709,-0.22594,2023,6,9,12,3,59,206
0.07760,2.67750,-4.53250,0.00000,0.00720,0.96941,-0.22704,2023,6,9,12,3,59,217
0.07770,2.90500,-4.41000,0.00000,0.00305,0.96319,-0.22863,2023,6,9,12,3,59,228
0.07780,2.52000,-4.32250,0.00000,0.00232,0.96868,-0.22973,2023,6,9,12,3,59,239
0.07790,2.29250,-4.51500,0.00000,0.00293,0.96612,-0.22765,2023,6,9,12,3,59,250
0.07800,2.64250,-4.55000,0.00000,0.00195,0.96551,-0.22753,2023,6,9,12,3,59,261
0.07810,2.73000,-4.67250,0.00000,0.00085,0.96539,-0.22680,2023,6,9,12,3,59,272
0.07820,2.46750,-4.44500,0.00000,0.00256,0.96746,-0.22655,2023,6,9,12,3,59,283
0.07830,2.71250,-4.74250,0.00000,0.00159,0.96612,-0.22594,2023,6,9,12,3,59,294
0.07840,2.69500,-4.44500,0.00000,0.00366,0.96624,-0.22729,2023,6,9,12,3,59,306
0.07850,2.80000,-4.49750,0.00000,0.00171,0.96661,-0.22790,2023,6,9,12,3,59,317
0.07860,2.50250,-4.35750,0.00000,0.00366,0.96966,-0.22680,2023,6,9,12,3,59,328
0.07870,2.73000,-4.58500,0.00000,0.00244,0.96685,-0.22680,2023,6,9,12,3,59,339
0.07880,2.66000,-4.49750,0.00000,0.00220,0.96734,-0.22765,2023,6,9,12,3,59,350
0.07890,2.64250,-4.81250,0.00000,0.00293,0.96819,-0.22692,2023,6,9,12,3,59,361
0.07900,2.69500,-4.34000,0.00000,0.00512,0.96783,-0.22692,2023,6,9,12,3,59,372
0.07910,2.50250,-4.51500,0.00000,0.00512,0.96941,-0.22753,2023,6,9,12,3,59,383
0.07920,2.71250,-4.55000,0.00000,0.00183,0.96453,-0.22948,2023,6,9,12,3,59,394
0.07930,2.74750,-4.56750,0.00000,0.00061,0.96624,-0.22546,2023,6,9,12,3,59,406
0.07940,2.76500,-4.55000,0.00000,0.00305,0.96624,-0.22607,2023,6,9,12,3,59,417
0.07950,2.66000,-4.56750,0.00000,0.00000,0.96343,-0.23070,2023,6,9,12,3,59,428
0.07960,2.60750,-4.49750,0.00000,0.00390,0.96624,-0.22838,2023,6,9,12,3,59,439
0.07970,2.53750,-4.58500,0.00000,0.00268,0.96661,-0.22875,2023,6,9,12,3,59,450
0.07980,2.80000,-4.74250,0.00000,0.00464,0.96929,-0.22704,2023,6,9,12,3,59,461
0.07990,2.73000,-4.60250,0.00000,0.00220,0.96368,-0.23082,2023,6,9,12,3,59,472
0.08000,2.62500,-4.41000,0.00000,0.00512,0.96746,-0.22668,2023,6,9,12,3,59,483
0.08010,2.69500,-4.67250,0.00000,0.00061,0.96648,-0.22716,2023,6,9,12,3,59,494
0.08020,2.71250,-4.69000,0.00000,0.00281,0.96868,-0.22960,2023,6,9,12,3,59,506
0.08030,2.73000,-4.55000,0.00000,0.00159,0.96685,-0.22863,2023,6,9,12,3,59,517
0.08040,2.83500,-4.49750,0.00000,0.00488,0.96966,-0.22948,2023,6,9,12,3,59,528
0.08050,2.64250,-4.16500,0.00000,0.00439,0.96831,-0.22777,2023,6,9,12,3,59,539
0.08060,2.76500,-4.60250,0.00000,0.00342,0.96722,-0.22802,2023,6,9,12,3,59,550
0.08070,2.57250,-4.55000,0.00000,-0.00024,0.96746,-0.22753,2023,6,9,12,3,59,561
0.08080,2.80000,-4.56750,0.00000,0.00403,0.96539,-0.22924,2023,6,9,12,3,59,572
0.08090,2.78250,-4.69000,0.00000,0.00293,0.96612,-0.22607,2023,6,9,12,3,59,583
0.08100,2.69500,-4.55000,0.00000,0.00305,0.96465,-0.22790,2023,6,9,12,3,59,594
0.08110,2.71250,-4.84750,0.00000,0.00183,0.96673,-0.22838,2023,6,9,12,3,59,606
0.08120,2.60750,-4.49750,0.00000,0.00000,0.96685,-0.22643,2023,6,9,12,3,59,617
0.08130,2.64250,-4.62000,0.00000,0.00281,0.96661,-0.22765,2023,6,9,12,3,59,628
0.08140,2.78250,-4.56750,0.00000,0.00281,0.96539,-0.22936,2023,6,9,12,3,59,639
0.08150,2.66000,-4.37500,0.00000,0.00256,0.96856,-0.23034,2023,6,9,12,3,59,650
0.08160,2.81750,-4.55000,0.00000,0.00342,0.96941,-0.22631,2023,6,9,12,3,59,661
0.08170,2.67750,-4.46250,0.00000,0.00390,0.96807,-0.22765,2023,6,9,12,3,59,672
0.08180,2.67750,-4.44500,0.00000,0.00366,0.96880,-0.22680,2023,6,9,12,3,59,683
0.08190,2.80000,-4.53250,0.00000,0.00110,0.96661,-0.22863,2023,6,9,12,3,59,694
0.08200,2.46750,-4.62000,0.00000,0.00195,0.96746,-0.22753,2023,6,9,12,3,59,706
0.08210,2.69500,-4.48000,0.00000,0.00073,0.96417,-0.22814,2023,6,9,12,3,59,717
0.08220,2.85250,-4.55000,0.00000,0.00098,0.96551,-0.22899,2023,6,9,12,3,59,728
0.08230,2.53750,-4.58500,0.00000,0.00220,0.96697,-0.22887,2023,6,9,12,3,59,739
0.08240,2.73000,-4.49750,0.00000,0.00342,0.96795,-0.22765,2023,6,9,12,3,59,750
0.08250,2.62500,-4.63750,0.00000,0.00244,0.96734,-0.22558,2023,6,9,12,3,59,761
0.08260,2.85250,-4.70750,0.00000,0.00293,0.96697,-0.22790,2023,6,9,12,3,59,772
0.08270,2.64250,-4.48000,0.00000,0.00268,0.96612,-0.22838,2023,6,9,12,3,59,783
0.08280,2.59000,-4.48000,0.00000,0.00329,0.96685,-0.22826,2023,6,9,12,3,59,794
0.08290,2.69500,-4.72500,0.00000,0.00512,0.96819,-0.22741,2023,6,9,12,3,59,806
0.08300,2.64250,-4.58500,0.00000,0.00427,0.96575,-0.22802,2023,6,9,12,3,59,817
0.08310,2.62500,-4.41000,0.00000,0.00134,0.96709,-0.22875,2023,6,9,12,3,59,828
0.08320,2.69500,-4.48000,0.00000,0.00098,0.96819,-0.22814,2023,6,9,12,3,59,839
0.08330,2.78250,-4.51500,0.00000,0.00159,0.96551,-0.22814,2023,6,9,12,3,59,850
0.08340,2.66000,-4.63750,0.00000,0.00146,0.96648,-0.22985,2023,6,9,12,3,59,861
0.08350,2.80000,-4.65500,0.00000,0.00317,0.96697,-0.22643,2023,6,9,12,3,59,872
0.08360,2.83500,-4.55000,0.00000,0.00122,0.96917,-0.22753,2023,6,9,12,3,59,883
0.08370,2.60750,-4.56750,0.00000,0.00195,0.96795,-0.22802,2023,6,9,12,3,59,894
0.08380,2.76500,-4.58500,0.00000,0.00329,0.96624,-0.22826,2023,6,9,12,3,59,906
0.08390,2.64250,-4.39250,0.00000,0.00378,0.96709,-0.22826,2023,6,9,12,3,59,917
0.08400,2.76500,-4.53250,0.00000,0.00110,0.96819,-0.22729,2023,6,9,12,3,59,928
0.08410,2.60750,-4.53250,0.00000,0.00244,0.96709,-0.22851,2023,6,9,12,3,59,939
0.08420,2.69500,-4.63750,0.00000,0.00329,0.96709,-0.22851,2023,6,9,12,3,59,950
0.08430,2.81750,-4.81250,0.00000,0.00000,0.96600,-0.22753,2023,6,9,12,3,59,961
0.08440,2.80000,-4.69000,0.00000,0.00232,0.96563,-0.22863,2023,6,9,12,3,59,972
0.08450,2.60750,-4.49750,0.00000,0.00305,0.96697,-0.22814,2023,6,9,12,3,59,983
0.08460,2.83500,-4.49750,0.00000,0.00207,0.96795,-0.22912,2023,6,9,12,3,59,994
0.08470,2.83500,-4.58500,0.00000,-0.00171,0.96514,-0.22753,2023,6,9,12,3,59,6
0.08480,2.67750,-4.42750,0.00000,0.00500,0.96880,-0.22668,2023,6,9,12,4,0,7
0.08490,2.83500,-4.67250,0.00000,0.00049,0.96551,-0.22899,2023,6,9,12,4,0,18
0.08500,2.90500,-4.79500,0.00000,0.00171,0.96746,-0.22729,2023,6,9,12,4,0,29
0.08510,2.76500,-4.39250,0.00000,0.00500,0.96697,-0.22533,2023,6,9,12,4,0,40
0.08520,2.80000,-4.53250,0.00000,0.00451,0.96856,-0.22802,2023,6,9,12,4,0,51
0.08530,2.71250,-4.72500,0.00000,0.00110,0.96648,-0.22777,2023,6,9,12,4,0,62
0.08540,2.74750,-4.62000,0.00000,0.00220,0.97124,-0.22753,2023,6,9,12,4,0,73
0.08550,2.52000,-4.42750,0.00000,0.00037,0.96587,-0.22777,2023,6,9,12,4,0,84
0.08560,2.59000,-4.58500,0.00000,0.00293,0.96575,-0.22765,2023,6,9,12,4,0,96
0.08570,2.59000,-4.55000,0.00000,0.00220,0.96722,-0.22777,2023,6,9,12,4,0,107
0.08580,2.73000,-4.56750,0.00000,0.00146,0.96880,-0.22668,2023,6,9,12,4,0,118
0.08590,2.66000,-4.46250,0.00000,0.00305,0.96673,-0.22948,2023,6,9,12,4,0,129
0.08600,2.71250,-4.72500,0.00000,0.00268,0.96795,-0.22753,2023,6,9,12,4,0,140
0.08610,2.78250,-4.53250,0.00000,0.00317,0.96563,-0.22912,2023,6,9,12,4,0,151
0.08620,2.59000,-4.63750,0.00000,0.00281,0.96746,-0.22668,2023,6,9,12,4,0,162
0.08630,2.66000,-4.48000,0.00000,0.00195,0.97039,-0.22753,2023,6,9,12,4,0,173
0.08640,2.73000,-4.56750,0.00000,0.00305,0.96648,-0.22875,2023,6,9,12,4,0,184
0.08650,2.83500,-4.53250,0.00000,0.00061,0.96953,-0.22936,2023,6,9,12,4,0,196
0.08660,2.62500,-4.77750,0.00000,0.00439,0.96661,-0.22887,2023,6,9,12,4,0,207
0.08670,2.85250,-4.67250,0.00000,0.00110,0.96587,-0.22924,2023,6,9,12,4,0,218
0.08680,2.60750,-4.39250,0.00000,0.00525,0.96953,-0.22802,2023,6,9,12,4,0,229
0.08690,2.55500,-4.46250,0.00000,0.00305,0.96868,-0.22729,2023,6,9,12,4,0,240
0.08700,2.74750,-4.62000,0.00000,0.00098,0.96661,-0.22765,2023,6,9,12,4,0,251
0.08710,2.73000,-4.58500,0.00000,0.00281,0.96941,-0.22936,2023,6,9,12,4,0,262
0.08720,2.71250,-4.44500,0.00000,0.00281,0.96770,-0.22973,2023,6,9,12,4,0,273
0.08730,2.69500,-4.44500,0.00000,0.00329,0.96526,-0.22704,2023,6,9,12,4,0,284
0.08740,2.67750,-4.44500,0.00000,0.00598,0.96783,-0.22777,2023,6,9,12,4,0,296
0.08750,2.76500,-4.63750,0.00000,0.00354,0.96661,-0.22973,2023,6,9,12,4,0,307
0.08760,2.55500,-4.51500,0.00000,0.00293,0.96551,-0.22668,2023,6,9,12,4,0,318
0.08770,2.57250,-4.48000,0.00000,0.00586,0.96673,-0.22826,2023,6,9,12,4,0,329
0.08780,2.71250,-4.56750,0.00000,0.00281,0.96539,-0.22887,2023,6,9,12,4,0,340
0.08790,2.85250,-4.72500,0.00000,0.00268,0.96673,-0.22546,2023,6,9,12,4,0,351
0.08800,2.60750,-4.37500,0.00000,0.00220,0.96697,-0.22887,2023,6,9,12,4,0,362
0.08810,2.74750,-4.55000,0.00000,0.00159,0.96783,-0.22692,2023,6,9,12,4,0,373
0.08820,2.80000,-4.69000,0.00000,0.00037,0.96441,-0.22899,2023,6,9,12,4,0,384
0.08830,2.52000,-4.30500,0.00000,0.00415,0.96648,-0.22570,2023,6,9,12,4,0,396
0.08840,2.76500,-4.56750,0.00000,0.00256,0.96783,-0.22765,2023,6,9,12,4,0,407
0.08850,2.76500,-4.65500,0.00000,0.00268,0.96514,-0.22668,2023,6,9,12,4,0,418
0.08860,2.74750,-4.65500,0.00000,0.00256,0.96709,-0.23217,2023,6,9,12,4,0,429
0.08870,2.88750,-4.49750,0.00000,0.00354,0.96697,-0.22924,2023,6,9,12,4,0,440
0.08880,2.85250,-4.62000,0.00000,0.00195,0.96709,-0.22777,2023,6,9,12,4,0,451
0.08890,2.71250,-4.51500,0.00000,0.00159,0.96685,-0.22533,2023,6,9,12,4,0,462
0.08900,2.73000,-4.46250,0.00000,0.00390,0.96709,-0.22741,2023,6,9,12,4,0,473
0.08910,2.85250,-4.67250,0.00000,0.00232,0.96868,-0.22631,2023,6,9,12,4,0,484
0.08920,2.74750,-4.63750,0.00000,0.00122,0.96465,-0.22790,2023,6,9,12,4,0,496
0.08930,2.66000,-4.67250,0.00000,0.00268,0.96770,-0.22643,2023,6,9,12,4,0,507
0.08940,2.85250,-4.62000,0.00000,0.00171,0.97039,-0.22668,2023,6,9,12,4,0,518
0.08950,2.83500,-4.56750,0.00000,0.00183,0.96978,-0.22790,2023,6,9,12,4,0,529
0.08960,2.67750,-4.70750,0.00000,0.00366,0.96844,-0.22509,2023,6,9,12,4,0,540
0.08970,2.80000,-4.49750,0.00000,0.00073,0.96490,-0.22838,2023,6,9,12,4,0,551
0.08980,2.59000,-4.65500,0.00000,0.00305,0.96709,-0.23021,2023,6,9,12,4,0,562
0.08990,2.85250,-4.67250,0.00000,0.00256,0.96661,-0.22936,2023,6,9,12,4,0,573
0.09000,2.71250,-4.58500,0.00000,0.00293,0.96880,-0.22863,2023,6,9,12,4,0,584
0.09010,2.64250,-4.63750,0.00000,0.00171,0.96844,-0.22826,2023,6,9,12,4,0,596
0.09020,2.76500,-4.63750,0.00000,0.00110,0.96905,-0.22582,2023,6,9,12,4,0,607
0.09030,2.64250,-4.65500,0.00000,0.00525,0.96770,-0.22814,2023,6,9,12,4,0,618
0.09040,2.69500,-4.48000,0.00000,0.00281,0.96697,-0.22753,2023,6,9,12,4,0,629
0.09050,2.50250,-4.53250,0.00000,0.00293,0.96807,-0.22631,2023,6,9,12,4,0,640
0.09060,2.74750,-4.46250,0.00000,0.00354,0.96709,-0.22765,2023,6,9,12,4,0,651
0.09070,2.80000,-4.67250,0.00000,0.00305,0.96685,-0.22826,2023,6,9,12,4,0,662
0.09080,2.69500,-4.37500,0.00000,0.00342,0.96783,-0.22485,2023,6,9,12,4,0,673
0.09090,2.81750,-4.62000,0.00000,0.00317,0.96575,-0.22753,2023,6,9,12,4,0,684
0.09100,2.73000,-4.44500,0.00000,0.00244,0.96770,-0.22863,2023,6,9,12,4,0,696
0.09110,2.83500,-4.46250,0.00000,0.00024,0.96563,-0.22936,2023,6,9,12,4,0,707
0.09120,2.67750,-4.83000,0.00000,0.00207,0.96539,-0.22863,2023,6,9,12,4,0,718
0.09130,2.59000,-4.70750,0.00000,0.00146,0.96624,-0.22948,2023,6,9,12,4,0,729
0.09140,2.60750,-4.60250,0.00000,0.00342,0.96514,-0.22765,2023,6,9,12,4,0,740
0.09150,2.81750,-4.65500,0.00000,0.00220,0.96600,-0.23034,2023,6,9,12,4,0,751
0.09160,2.78250,-4.39250,0.00000,0.00317,0.96685,-0.22851,2023,6,9,12,4,0,762
0.09170,2.67750,-4.48000,0.00000,0.00403,0.96770,-0.22558,2023,6,9,12,4,0,773
0.09180,2.67750,-4.46250,0.00000,0.00195,0.96648,-0.22668,2023,6,9,12,4,0,784
0.09190,2.74750,-4.60250,0.00000,0.00183,0.96709,-0.22753,2023,6,9,12,4,0,796
0.09200,2.74750,-4.58500,0.00000,0.00403,0.96685,-0.22753,2023,6,9,12,4,0,807
0.09210,2.64250,-4.42750,0.00000,0.00122,0.96685,-0.22765,2023,6,9,12,4,0,818
0.09220,2.78250,-4.34000,0.00000,-0.00049,0.96953,-0.22936,2023,6,9,12,4,0,829
0.09230,2.55500,-4.51500,0.00000,0.00159,0.96807,-0.22594,2023,6,9,12,4,0,840
0.09240,2.78250,-4.48000,0.00000,0.00366,0.96636,-0.22814,2023,6,9,12,4,0,851
0.09250,2.55500,-4.42750,0.00000,0.00110,0.96551,-0.22887,2023,6,9,12,4,0,862
0.09260,2.69500,-4.60250,0.00000,0.00281,0.97051,-0.22802,2023,6,9,12,4,0,873
0.09270,2.69500,-4.46250,0.00000,0.00073,0.96648,-0.22790,2023,6,9,12,4,0,884
0.09280,2.74750,-4.63750,0.00000,0.00354,0.96673,-0.22790,2023,6,9,12,4,0,896
0.09290,2.94000,-4.42750,0.00000,0.00098,0.96526,-0.22558,2023,6,9,12,4,0,907
0.09300,2.81750,-4.63750,0.00000,0.00610,0.96600,-0.22485,2023,6,9,12,4,0,918
0.09310,2.71250,-4.65500,0.00000,0.00342,0.96490,-0.22692,2023,6,9,12,4,0,929
0.09320,2.69500,-4.53250,0.00000,0.00268,0.96673,-0.22851,2023,6,9,12,4,0,940
0.09330,2.76500,-4.46250,0.00000,0.00354,0.96563,-0.22692,2023,6,9,12,4,0,951
0.09340,2.69500,-4.56750,0.00000,0.00146,0.96709,-0.22765,2023,6,9,12,4,0,962
0.09350,2.60750,-4.55000,0.00000,0.00146,0.96892,-0.22594,2023,6,9,12,4,0,973
0.09360,2.76500,-4.41000,0.00000,0.00342,0.96624,-0.22472,2023,6,9,12,4,0,984
0.09370,2.69500,-4.65500,0.00000,0.00354,0.96746,-0.22704,2023,6,9,12,4,0,996
0.09380,2.60750,-4.49750,0.00000,0.00342,0.96685,-0.22619,2023,6,9,12,4,1,7
0.09390,2.60750,-4.46250,0.00000,0.00220,0.96892,-0.22753,2023,6,9,12,4,1,18
0.09400,2.73000,-4.35750,0.00000,0.00281,0.96905,-0.22875,2023,6,9,12,4,1,29
0.09410,2.74750,-4.56750,0.00000,0.00037,0.96697,-0.22924,2023,6,9,12,4,1,40
0.09420,2.94000,-4.62000,0.00000,0.00171,0.96844,-0.22973,2023,6,9,12,4,1,51
0.09430,2.66000,-4.48000,0.00000,0.00171,0.96990,-0.22594,2023,6,9,12,4,1,62
0.09440,2.67750,-4.48000,0.00000,0.00427,0.96563,-0.22546,2023,6,9,12,4,1,73
0.09450,2.80000,-4.58500,0.00000,0.00256,0.96746,-0.22643,2023,6,9,12,4,1,84
0.09460,2.62500,-4.56750,0.00000,0.00122,0.96673,-0.22802,2023,6,9,12,4,1,96
0.09470,2.71250,-4.42750,0.00000,0.00195,0.96685,-0.22777,2023,6,9,12,4,1,107
0.09480,2.74750,-4.79500,0.00000,0.00317,0.96905,-0.22497,2023,6,9,12,4,1,118
0.09490,2.59000,-4.63750,0.00000,0.00342,0.96758,-0.22582,2023,6,9,12,4,1,129
0.09500,2.97500,-4.51500,0.00000,0.00329,0.96600,-0.22863,2023,6,9,12,4,1,140
0.09510,2.87000,-4.60250,0.00000,0.00085,0.96636,-0.22777,2023,6,9,12,4,1,151
0.09520,2.85250,-4.56750,0.00000,0.00464,0.96563,-0.23107,2023,6,9,12,4,1,162
0.09530,2.62500,-4.65500,0.00000,0.00476,0.96551,-0.22777,2023,6,9,12,4,1,173
0.09540,2.83500,-4.55000,0.00000,0.00195,0.96685,-0.22826,2023,6,9,12,4,1,184
0.09550,2.48500,-4.67250,0.00000,0.00500,0.96819,-0.22582,2023,6,9,12,4,1,196
0.09560,2.71250,-4.69000,0.00000,0.00281,0.96478,-0.22692,2023,6,9,12,4,1,207
0.09570,2.62500,-4.51500,0.00000,0.00256,0.96636,-0.22851,2023,6,9,12,4,1,218
0.09580,2.76500,-4.49750,0.00000,0.00329,0.96624,-0.22741,2023,6,9,12,4,1,229
0.09590,2.57250,-4.39250,0.00000,0.00427,0.96648,-0.22753,2023,6,9,12,4,1,240
0.09600,2.76500,-4.53250,0.00000,0.00427,0.96661,-0.22558,2023,6,9,12,4,1,251
0.09610,2.60750,-4.76000,0.00000,0.00232,0.96734,-0.23021,2023,6,9,12,4,1,262
0.09620,2.90500,-4.56750,0.00000,0.00415,0.96636,-0.22777,2023,6,9,12,4,1,273
0.09630,2.59000,-4.34000,0.00000,0.00451,0.96636,-0.22899,2023,6,9,12,4,1,284
0.09640,2.97500,-4.93500,0.00000,0.00171,0.96575,-0.22814,2023,6,9,12,4,1,296
0.09650,2.57250,-4.63750,0.00000,0.00037,0.97002,-0.22887,2023,6,9,12,4,1,307
0.09660,2.92250,-4.53250,0.00000,0.00159,0.96722,-0.22692,2023,6,9,12,4,1,318
0.09670,2.64250,-4.77750,0.00000,0.00354,0.96844,-0.22729,2023,6,9,12,4,1,329
0.09680,2.69500,-4.49750,0.00000,0.00366,0.96941,-0.22619,2023,6,9,12,4,1,340
0.09690,2.62500,-4.53250,0.00000,0.00488,0.96844,-0.22777,2023,6,9,12,4,1,351
0.09700,2.74750,-4.55000,0.00000,0.00378,0.96831,-0.22790,2023,6,9,12,4,1,362
0.09710,2.85250,-4.56750,0.00000,0.00366,0.96978,-0.22582,2023,6,9,12,4,1,373
0.09720,2.76500,-4.49750,0.00000,0.00232,0.96905,-0.22704,2023,6,9,12,4,1,384
0.09730,2.94000,-4.65500,0.00000,0.00232,0.96831,-0.22765,2023,6,9,12,4,1,396
0.09740,2.69500,-4.65500,0.00000,0.00159,0.96404,-0.22814,2023,6,9,12,4,1,407
0.09750,2.83500,-4.81250,0.00000,0.00281,0.96636,-0.22619,2023,6,9,12,4,1,418
0.09760,2.60750,-4.48000,0.00000,0.00232,0.96539,-0.22607,2023,6,9,12,4,1,429
0.09770,2.62500,-4.48000,0.00000,0.00183,0.96709,-0.22729,2023,6,9,12,4,1,440
0.09780,2.88750,-4.51500,0.00000,0.00317,0.96831,-0.22741,2023,6,9,12,4,1,451
0.09790,2.60750,-4.51500,0.00000,0.00561,0.96758,-0.22668,2023,6,9,12,4,1,462
0.09800,2.71250,-4.60250,0.00000,0.00183,0.96526,-0.22521,2023,6,9,12,4,1,473
0.09810,2.76500,-4.51500,0.00000,0.00366,0.96709,-0.22826,2023,6,9,12,4,1,484
0.09820,2.80000,-4.55000,0.00000,0.00476,0.96868,-0.22863,2023,6,9,12,4,1,496
0.09830,2.74750,-4.44500,0.00000,0.00378,0.96600,-0.22631,2023,6,9,12,4,1,507
0.09840,2.67750,-4.48000,0.00000,0.00256,0.96685,-0.22863,2023,6,9,12,4,1,518
0.09850,2.81750,-4.56750,0.00000,0.00183,0.96587,-0.22655,2023,6,9,12,4,1,529
0.09860,2.62500,-4.34000,0.00000,0.00317,0.96722,-0.22509,2023,6,9,12,4,1,540
0.09870,2.60750,-4.77750,0.00000,0.00159,0.96734,-0.22619,2023,6,9,12,4,1,551
0.09880,2.83500,-4.90000,0.00000,0.00073,0.96514,-0.22497,2023,6,9,12,4,1,562
0.09890,2.81750,-4.49750,0.00000,0.00439,0.96953,-0.22655,2023,6,9,12,4,1,573
0.09900,2.69500,-4.62000,0.00000,0.00439,0.96770,-0.22521,2023,6,9,12,4,1,584
0.09910,2.64250,-4.39250,0.00000,0.00171,0.96514,-0.22558,2023,6,9,12,4,1,596
0.09920,2.55500,-4.34000,0.00000,0.00500,0.96551,-0.22777,2023,6,9,12,4,1,607
0.09930,2.83500,-4.77750,0.00000,0.00159,0.96624,-0.22668,2023,6,9,12,4,1,618
0.09940,2.67750,-4.46250,0.00000,0.00342,0.96600,-0.22399,2023,6,9,12,4,1,629
0.09950,2.69500,-4.58500,0.00000,0.00476,0.97112,-0.22814,2023,6,9,12,4,1,640
0.09960,2.76500,-4.70750,0.00000,0.00012,0.96734,-0.22753,2023,6,9,12,4,1,651
0.09970,2.60750,-4.49750,0.00000,0.00342,0.96795,-0.23046,2023,6,9,12,4,1,662
0.09980,2.88750,-4.72500,0.00000,0.00268,0.96429,-0.22997,2023,6,9,12,4,1,673
0.09990,2.87000,-4.63750,0.00000,0.00183,0.96685,-0.22558,2023,6,9,12,4,1,684
0.10000,2.81750,-4.55000,0.00000,0.00342,0.96709,-0.22729,2023,6,9,12,4,1,696
0.10010,2.74750,-4.56750,0.00000,0.00549,0.96734,-0.22533,2023,6,9,12,4,1,707
0.10020,2.67750,-4.39250,0.00000,0.00439,0.96783,-0.22619,2023,6,9,12,4,1,718
0.10030,2.74750,-4.79500,0.00000,0.00378,0.96917,-0.22716,2023,6,9,12,4,1,729
0.10040,2.80000,-4.51500,0.00000,0.00354,0.96758,-0.22643,2023,6,9,12,4,1,740
0.10050,2.59000,-4.65500,0.00000,0.00195,0.96758,-0.22692,2023,6,9,12,4,1,751
0.10060,2.66000,-4.35750,0.00000,0.00232,0.96722,-0.22899,2023,6,9,12,4,1,762
0.10070,2.81750,-4.51500,0.00000,0.00122,0.96624,-0.22826,2023,6,9,12,4,1,773
0.10080,2.71250,-4.60250,0.00000,0.00268,0.96587,-0.22765,2023,6,9,12,4,1,784
0.10090,2.66000,-4.46250,0.00000,0.00293,0.96697,-0.22716,2023,6,9,12,4,1,796
0.10100,2.87000,-4.60250,0.00000,0.00171,0.96697,-0.22692,2023,6,9,12,4,1,807
0.10110,2.76500,-4.76000,0.00000,0.00256,0.96587,-0.22692,2023,6,9,12,4,1,818
0.10120,2.71250,-4.51500,0.00000,0.00244,0.96673,-0.22741,2023,6,9,12,4,1,829
0.10130,2.76500,-4.60250,0.00000,0.00268,0.96697,-0.22570,2023,6,9,12,4,1,840
0.10140,2.57250,-4.76000,0.00000,0.00268,0.96453,-0.22777,2023,6,9,12,4,1,851
0.10150,2.92250,-4.70750,0.00000,0.00134,0.96709,-0.22802,2023,6,9,12,4,1,862
0.10160,2.69500,-4.55000,0.00000,0.00305,0.97063,-0.22936,2023,6,9,12,4,1,873
0.10170,2.64250,-4.63750,0.00000,0.00195,0.96917,-0.22619,2023,6,9,12,4,1,884
0.10180,2.64250,-4.49750,0.00000,0.00232,0.96758,-0.22790,2023,6,9,12,4,1,896
0.10190,2.71250,-4.55000,0.00000,0.00134,0.96770,-0.22960,2023,6,9,12,4,1,907
0.10200,2.81750,-4.48000,0.00000,0.00122,0.96746,-0.22863,2023,6,9,12,4,1,918
0.10210,2.59000,-4.11250,0.00000,0.00220,0.96856,-0.22924,2023,6,9,12,4,1,929
0.10220,2.69500,-4.46250,0.00000,0.00305,0.96868,-0.22375,2023,6,9,12,4,1,940
0.10230,2.88750,-4.48000,0.00000,0.00159,0.96453,-0.23156,2023,6,9,12,4,1,951
0.10240,2.60750,-4.56750,0.00000,0.00329,0.96953,-0.22619,2023,6,9,12,4,1,962
0.10250,2.67750,-4.56750,0.00000,0.00256,0.96600,-0.22741,2023,6,9,12,4,1,973
0.10260,2.64250,-4.62000,0.00000,0.00073,0.96648,-0.22973,2023,6,9,12,4,1,984
0.10270,2.67750,-4.58500,0.00000,0.00122,0.96502,-0.22875,2023,6,9,12,4,2,6
0.10280,2.64250,-4.51500,0.00000,0.00366,0.96795,-0.22851,2023,6,9,12,4,2,17
0.10290,2.88750,-4.70750,0.00000,0.00281,0.96722,-0.22838,2023,6,9,12,4,2,28
0.10300,2.60750,-4.49750,0.00000,0.00427,0.96734,-0.22680,2023,6,9,12,4,2,39
0.10310,2.80000,-4.56750,0.00000,0.00464,0.96844,-0.22680,2023,6,9,12,4,2,50
0.10320,2.71250,-4.27000,0.00000,0.00268,0.96746,-0.23156,2023,6,9,12,4,2,61
0.10330,2.80000,-4.76000,0.00000,0.00366,0.96673,-0.22802,2023,6,9,12,4,2,72
0.10340,2.80000,-4.70750,0.00000,0.00207,0.96892,-0.22594,2023,6,9,12,4,2,83
0.10350,2.62500,-4.35750,0.00000,0.00232,0.96929,-0.22875,2023,6,9,12,4,2,94
0.10360,2.67750,-4.46250,0.00000,0.00500,0.96648,-0.22790,2023,6,9,12,4,2,106
0.10370,2.78250,-4.58500,0.00000,0.00476,0.96807,-0.22448,2023,6,9,12,4,2,117
0.10380,2.62500,-4.60250,0.00000,-0.00183,0.96673,-0.22680,2023,6,9,12,4,2,128
0.10390,2.76500,-4.65500,0.00000,0.00244,0.96966,-0.22777,2023,6,9,12,4,2,139
0.10400,2.73000,-4.58500,0.00000,0.00342,0.96685,-0.22497,2023,6,9,12,4,2,150
0.10410,2.55500,-4.35750,0.00000,0.00195,0.96612,-0.22753,2023,6,9,12,4,2,161
0.10420,2.76500,-4.65500,0.00000,0.00293,0.96465,-0.22521,2023,6,9,12,4,2,172
0.10430,2.64250,-4.44500,0.00000,0.00232,0.96685,-0.22497,2023,6,9,12,4,2,183
0.10440,2.64250,-4.49750,0.00000,0.00244,0.96709,-0.22729,2023,6,9,12,4,2,194
0.10450,2.83500,-4.48000,0.00000,0.00354,0.96697,-0.22887,2023,6,9,12,4,2,206
0.10460,2.92250,-4.56750,0.00000,-0.00183,0.96783,-0.22838,2023,6,9,12,4,2,217
0.10470,2.66000,-4.49750,0.00000,0.00098,0.96575,-0.22777,2023,6,9,12,4,2,228
0.10480,2.80000,-4.76000,0.00000,0.00451,0.96880,-0.22716,2023,6,9,12,4,2,239
0.10490,2.73000,-4.49750,0.00000,0.00159,0.96636,-0.22875,2023,6,9,12,4,2,250
0.10500,2.57250,-4.44500,0.00000,0.00110,0.96819,-0.22985,2023,6,9,12,4,2,261
0.10510,2.78250,-4.42750,0.00000,0.00293,0.97002,-0.22948,2023,6,9,12,4,2,272
0.10520,2.74750,-4.44500,0.00000,0.00281,0.96539,-0.22655,2023,6,9,12,4,2,283
0.10530,2.80000,-4.76000,0.00000,0.00171,0.96709,-0.22680,2023,6,9,12,4,2,294
0.10540,2.73000,-4.53250,0.00000,0.00403,0.96917,-0.22570,2023,6,9,12,4,2,306
0.10550,2.57250,-4.39250,0.00000,0.00232,0.96734,-0.22765,2023,6,9,12,4,2,317
0.10560,2.59000,-4.42750,0.00000,0.00037,0.96722,-0.23021,2023,6,9,12,4,2,328
0.10570,2.46750,-4.30500,0.00000,0.00317,0.96844,-0.22546,2023,6,9,12,4,2,339
0.10580,2.59000,-4.37500,0.00000,0.00159,0.96770,-0.22851,2023,6,9,12,4,2,350
0.10590,2.74750,-4.63750,0.00000,0.00329,0.96600,-0.22826,2023,6,9,12,4,2,361
0.10600,2.64250,-4.46250,0.00000,0.00207,0.96587,-0.22582,2023,6,9,12,4,2,372
0.10610,2.67750,-4.53250,0.00000,0.00244,0.96807,-0.22912,2023,6,9,12,4,2,383
0.10620,2.78250,-4.69000,0.00000,0.00281,0.96587,-0.22472,2023,6,9,12,4,2,394
0.10630,2.60750,-4.58500,0.00000,0.00305,0.96758,-0.22765,2023,6,9,12,4,2,406
0.10640,2.83500,-4.44500,0.00000,0.00195,0.96929,-0.22741,2023,6,9,12,4,2,417
0.10650,2.64250,-4.69000,0.00000,0.00354,0.96673,-0.22509,2023,6,9,12,4,2,428
0.10660,2.57250,-4.42750,0.00000,0.00354,0.96612,-0.22497,2023,6,9,12,4,2,439
0.10670,2.50250,-4.39250,0.00000,0.00122,0.96795,-0.22838,2023,6,9,12,4,2,450
0.10680,2.67750,-4.83000,0.00000,0.00256,0.96441,-0.22729,2023,6,9,12,4,2,461
0.10690,2.69500,-4.46250,0.00000,0.00012,0.96807,-0.22814,2023,6,9,12,4,2,472
0.10700,2.64250,-4.44500,0.00000,0.00085,0.96600,-0.22765,2023,6,9,12,4,2,483
0.10710,2.55500,-4.67250,0.00000,0.00037,0.96697,-0.22472,2023,6,9,12,4,2,494
0.10720,2.50250,-4.48000,0.00000,0.00268,0.96709,-0.22680,2023,6,9,12,4,2,506
0.10730,2.67750,-4.46250,0.00000,0.00024,0.96697,-0.22790,2023,6,9,12,4,2,517
0.10740,2.73000,-4.53250,0.00000,0.00134,0.96551,-0.22777,2023,6,9,12,4,2,528
0.10750,2.64250,-4.30500,0.00000,0.00342,0.96600,-0.22814,2023,6,9,12,4,2,539
0.10760,2.81750,-4.44500,0.00000,0.00366,0.96661,-0.22509,2023,6,9,12,4,2,550
0.10770,2.71250,-4.51500,0.00000,0.00159,0.96624,-0.22619,2023,6,9,12,4,2,561
0.10780,2.66000,-4.67250,0.00000,0.00122,0.96587,-0.22692,2023,6,9,12,4,2,572
0.10790,2.73000,-4.44500,0.00000,0.00256,0.96978,-0.22729,2023,6,9,12,4,2,583
0.10800,2.83500,-4.65500,0.00000,0.00403,0.96575,-0.22594,2023,6,9,12,4,2,594
0.10810,2.71250,-4.44500,0.00000,0.00281,0.97112,-0.22948,2023,6,9,12,4,2,606
0.10820,2.67750,-4.56750,0.00000,0.00256,0.96539,-0.22863,2023,6,9,12,4,2,617
0.10830,2.83500,-4.55000,0.00000,0.00134,0.96783,-0.22753,2023,6,9,12,4,2,628
0.10840,2.74750,-4.72500,0.00000,0.00354,0.96697,-0.22558,2023,6,9,12,4,2,639
0.10850,2.74750,-4.65500,0.00000,0.00244,0.96856,-0.22558,2023,6,9,12,4,2,650
0.10860,2.46750,-4.65500,0.00000,0.00256,0.96392,-0.22716,2023,6,9,12,4,2,661
0.10870,2.39750,-4.58500,0.00000,0.00305,0.96587,-0.22497,2023,6,9,12,4,2,672
0.10880,2.80000,-4.62000,0.00000,0.00098,0.96563,-0.22716,2023,6,9,12,4,2,683
0.10890,2.66000,-4.55000,0.00000,0.00146,0.96587,-0.22777,2023,6,9,12,4,2,694
0.10900,2.80000,-4.55000,0.00000,0.00329,0.96636,-0.22753,2023,6,9,12,4,2,706
0.10910,2.60750,-4.51500,0.00000,0.00146,0.96612,-0.22704,2023,6,9,12,4,2,717
0.10920,2.71250,-4.76000,0.00000,0.00195,0.96868,-0.22619,2023,6,9,12,4,2,728
0.10930,2.87000,-4.69000,0.00000,0.00451,0.96490,-0.22838,2023,6,9,12,4,2,739
0.10940,2.73000,-4.62000,0.00000,0.00317,0.96514,-0.22533,2023,6,9,12,4,2,750
0.10950,2.55500,-4.41000,0.00000,0.00220,0.96661,-0.22509,2023,6,9,12,4,2,761
0.10960,2.71250,-4.58500,0.00000,0.00378,0.96429,-0.22851,2023,6,9,12,4,2,772
0.10970,2.57250,-4.42750,0.00000,0.00293,0.96587,-0.22582,2023,6,9,12,4,2,783
0.10980,2.78250,-4.63750,0.00000,0.00378,0.96807,-0.22936,2023,6,9,12,4,2,794
0.10990,2.52000,-4.55000,0.00000,0.00390,0.96770,-0.22424,2023,6,9,12,4,2,806
0.11000,2.57250,-4.49750,0.00000,0.00207,0.96697,-0.22802,2023,6,9,12,4,2,817
0.11010,2.57250,-4.62000,0.00000,0.00146,0.96856,-0.22668,2023,6,9,12,4,2,828
0.11020,2.62500,-4.49750,0.00000,0.00317,0.96905,-0.22619,2023,6,9,12,4,2,839
0.11030,2.88750,-4.67250,0.00000,0.00464,0.96929,-0.22643,2023,6,9,12,4,2,850
0.11040,2.81750,-4.55000,0.00000,0.00195,0.96673,-0.22960,2023,6,9,12,4,2,861
0.11050,2.46750,-4.30500,0.00000,0.00159,0.96746,-0.22777,2023,6,9,12,4,2,872
0.11060,2.78250,-4.49750,0.00000,0.00207,0.96770,-0.22960,2023,6,9,12,4,2,883
0.11070,2.80000,-4.46250,0.00000,0.00512,0.96624,-0.22436,2023,6,9,12,4,2,894
0.11080,2.92250,-4.46250,0.00000,0.00207,0.96966,-0.22924,2023,6,9,12,4,2,906
0.11090,2.60750,-4.32250,0.00000,0.00256,0.96929,-0.22594,2023,6,9,12,4,2,917
0.11100,2.71250,-4.32250,0.00000,0.00134,0.96575,-0.22838,2023,6,9,12,4,2,928
0.11110,2.71250,-4.63750,0.00000,0.00390,0.96600,-0.22716,2023,6,9,12,4,2,939
0.11120,2.78250,-4.70750,0.00000,0.00195,0.96551,-0.22729,2023,6,9,12,4,2,950
0.11130,2.71250,-4.48000,0.00000,0.00122,0.96941,-0.22631,2023,6,9,12,4,2,961
0.11140,2.67750,-4.35750,0.00000,0.00146,0.96783,-0.22912,2023,6,9,12,4,2,972
0.11150,2.62500,-4.44500,0.00000,0.00037,0.96551,-0.22753,2023,6,9,12,4,2,983
0.11160,2.78250,-4.48000,0.00000,0.00500,0.96685,-0.22436,2023,6,9,12,4,2,994
0.11170,3.04500,-4.65500,0.00000,0.00244,0.96758,-0.22558,2023,6,9,12,4,3,6
0.11180,2.76500,-4.58500,0.00000,0.00317,0.96795,-0.22472,2023,6,9,12,4,3,17
0.11190,2.64250,-4.42750,0.00000,0.00293,0.96905,-0.22729,2023,6,9,12,4,3,28
0.11200,2.88750,-4.65500,0.00000,0.00354,0.96478,-0.22594,2023,6,9,12,4,3,39
0.11210,2.45000,-4.48000,0.00000,0.00281,0.96831,-0.22680,2023,6,9,12,4,3,50
0.11220,2.73000,-4.58500,0.00000,0.00256,0.96673,-0.22655,2023,6,9,12,4,3,61
0.11230,2.73000,-4.37500,0.00000,0.00268,0.96831,-0.22765,2023,6,9,12,4,3,72
0.11240,2.90500,-4.34000,0.00000,0.00354,0.96807,-0.22912,2023,6,9,12,4,3,83
0.11250,2.62500,-4.56750,0.00000,0.00439,0.96746,-0.22704,2023,6,9,12,4,3,94
0.11260,2.67750,-4.69000,0.00000,0.00244,0.96807,-0.22594,2023,6,9,12,4,3,106
0.11270,2.74750,-4.65500,0.00000,0.00024,0.96807,-0.22985,2023,6,9,12,4,3,117
0.11280,2.53750,-4.62000,0.00000,0.00122,0.96905,-0.22729,2023,6,9,12,4,3,128
0.11290,2.59000,-4.39250,0.00000,0.00329,0.96929,-0.22643,2023,6,9,12,4,3,139
0.11300,2.67750,-4.60250,0.00000,0.00268,0.96783,-0.23070,2023,6,9,12,4,3,150
0.11310,2.60750,-4.53250,0.00000,0.00134,0.96722,-0.22692,2023,6,9,12,4,3,161
0.11320,2.76500,-4.79500,0.00000,0.00281,0.96892,-0.22546,2023,6,9,12,4,3,172
0.11330,2.66000,-4.46250,0.00000,0.00195,0.96844,-0.22570,2023,6,9,12,4,3,183
0.11340,2.85250,-4.60250,0.00000,0.00366,0.96563,-0.22899,2023,6,9,12,4,3,194
0.11350,2.53750,-4.55000,0.00000,0.00378,0.96612,-0.22521,2023,6,9,12,4,3,206
0.11360,2.67750,-4.34000,0.00000,-0.00024,0.96636,-0.22875,2023,6,9,12,4,3,217
0.11370,2.59000,-4.60250,0.00000,0.00342,0.96844,-0.22680,2023,6,9,12,4,3,228
0.11380,2.62500,-4.41000,0.00000,0.00403,0.96783,-0.22472,2023,6,9,12,4,3,239
0.11390,2.41500,-4.60250,0.00000,0.00366,0.96734,-0.22729,2023,6,9,12,4,3,250
0.11400,2.83500,-4.60250,0.00000,0.00195,0.96587,-0.22899,2023,6,9,12,4,3,261
0.11410,2.85250,-4.48000,0.00000,0.00171,0.96770,-0.22729,2023,6,9,12,4,3,272
0.11420,2.62500,-4.46250,0.00000,0.00195,0.96856,-0.22875,2023,6,9,12,4,3,283
0.11430,2.80000,-4.69000,0.00000,0.00268,0.96795,-0.22607,2023,6,9,12,4,3,294
0.11440,2.80000,-4.58500,0.00000,0.00134,0.96600,-0.23021,2023,6,9,12,4,3,306
0.11450,2.60750,-4.60250,0.00000,0.00134,0.96636,-0.22899,2023,6,9,12,4,3,317
0.11460,2.64250,-4.70750,0.00000,0.00281,0.96587,-0.22716,2023,6,9,12,4,3,328
0.11470,2.66000,-4.44500,0.00000,0.00403,0.96709,-0.22851,2023,6,9,12,4,3,339
0.11480,2.73000,-4.70750,0.00000,0.00464,0.96465,-0.22643,2023,6,9,12,4,3,350
0.11490,2.66000,-4.56750,0.00000,0.00134,0.96770,-0.23021,2023,6,9,12,4,3,361
0.11500,2.52000,-4.41000,0.00000,0.00366,0.96929,-0.22631,2023,6,9,12,4,3,372
0.11510,2.78250,-4.44500,0.00000,0.00207,0.96441,-0.22631,2023,6,9,12,4,3,383
0.11520,2.78250,-4.56750,0.00000,0.00220,0.96929,-0.22582,2023,6,9,12,4,3,394
0.11530,2.50250,-4.46250,0.00000,0.00098,0.96502,-0.23046,2023,6,9,12,4,3,406
0.11540,2.64250,-4.41000,0.00000,0.00244,0.96709,-0.22533,2023,6,9,12,4,3,417
0.11550,2.67750,-4.69000,0.00000,0.00195,0.96648,-0.22851,2023,6,9,12,4,3,428
0.11560,2.76500,-4.42750,0.00000,0.00573,0.96746,-0.22582,2023,6,9,12,4,3,439
0.11570,2.55500,-4.56750,0.00000,0.00207,0.96563,-0.22619,2023,6,9,12,4,3,450
0.11580,2.67750,-4.72500,0.00000,0.00232,0.96539,-0.22826,2023,6,9,12,4,3,461
0.11590,2.87000,-4.48000,0.00000,0.00329,0.96905,-0.22533,2023,6,9,12,4,3,472
0.11600,2.55500,-4.42750,0.00000,0.00281,0.96746,-0.22753,2023,6,9,12,4,3,483
0.11610,2.78250,-4.65500,0.00000,0.00049,0.96746,-0.22814,2023,6,9,12,4,3,494
0.11620,2.69500,-4.56750,0.00000,0.00366,0.96661,-0.22619,2023,6,9,12,4,3,506
0.11630,2.55500,-4.56750,0.00000,0.00342,0.96770,-0.22765,2023,6,9,12,4,3,517
0.11640,2.55500,-4.53250,0.00000,0.00268,0.96746,-0.22838,2023,6,9,12,4,3,528
0.11650,2.80000,-4.70750,0.00000,0.00293,0.96563,-0.22924,2023,6,9,12,4,3,539
0.11660,2.78250,-4.49750,0.00000,0.00061,0.96673,-0.22802,2023,6,9,12,4,3,550
0.11670,2.57250,-4.49750,0.00000,0.00110,0.96478,-0.22765,2023,6,9,12,4,3,561
0.11680,2.67750,-4.28750,0.00000,-0.00037,0.96600,-0.22619,2023,6,9,12,4,3,572
0.11690,2.80000,-4.70750,0.00000,-0.00049,0.96709,-0.22655,2023,6,9,12,4,3,583
0.11700,2.66000,-4.44500,0.00000,0.00098,0.96929,-0.22680,2023,6,9,12,4,3,594
0.11710,2.74750,-4.67250,0.00000,0.00293,0.96734,-0.22692,2023,6,9,12,4,3,606
0.11720,2.57250,-4.53250,0.00000,-0.00085,0.96770,-0.22631,2023,6,9,12,4,3,617
0.11730,2.62500,-4.60250,0.00000,0.00329,0.96587,-0.22655,2023,6,9,12,4,3,628
0.11740,2.81750,-4.70750,0.00000,0.00268,0.96770,-0.22497,2023,6,9,12,4,3,639
0.11750,2.48500,-4.35750,0.00000,0.00281,0.96990,-0.22582,2023,6,9,12,4,3,650
0.11760,2.62500,-4.51500,0.00000,0.00183,0.96636,-0.22875,2023,6,9,12,4,3,661
0.11770,2.80000,-4.53250,0.00000,0.00281,0.96819,-0.22777,2023,6,9,12,4,3,672
0.11780,2.62500,-4.37500,0.00000,0.00439,0.96709,-0.22680,2023,6,9,12,4,3,683
0.11790,2.48500,-4.56750,0.00000,0.00146,0.96661,-0.22741,2023,6,9,12,4,3,694
0.11800,2.85250,-4.74250,0.00000,-0.00073,0.96697,-0.22912,2023,6,9,12,4,3,706
0.11810,2.78250,-4.46250,0.00000,0.00293,0.96746,-0.22631,2023,6,9,12,4,3,717
0.11820,2.71250,-4.60250,0.00000,0.00342,0.96917,-0.22887,2023,6,9,12,4,3,728
0.11830,2.64250,-4.37500,0.00000,0.00207,0.96587,-0.22485,2023,6,9,12,4,3,739
0.11840,2.83500,-4.69000,0.00000,0.00183,0.96697,-0.22826,2023,6,9,12,4,3,750
0.11850,2.59000,-4.37500,0.00000,0.00268,0.96770,-0.22863,2023,6,9,12,4,3,761
0.11860,2.60750,-4.39250,0.00000,0.00183,0.96929,-0.22533,2023,6,9,12,4,3,772
0.11870,2.74750,-4.65500,0.00000,0.00073,0.96978,-0.22619,2023,6,9,12,4,3,783
0.11880,2.71250,-4.55000,0.00000,0.00244,0.96465,-0.22887,2023,6,9,12,4,3,794
0.11890,2.87000,-4.72500,0.00000,0.00220,0.96624,-0.22887,2023,6,9,12,4,3,806
0.11900,2.59000,-4.48000,0.00000,0.00098,0.96673,-0.22729,2023,6,9,12,4,3,817
0.11910,2.85250,-4.53250,0.00000,0.00037,0.96636,-0.22997,2023,6,9,12,4,3,828
0.11920,2.53750,-4.46250,0.00000,0.00085,0.96758,-0.22668,2023,6,9,12,4,3,839
0.11930,2.48500,-4.62000,0.00000,0.00354,0.96709,-0.22802,2023,6,9,12,4,3,850
0.11940,2.67750,-4.55000,0.00000,0.00268,0.96905,-0.22631,2023,6,9,12,4,3,861
0.11950,2.67750,-4.70750,0.00000,0.00146,0.96770,-0.22668,2023,6,9,12,4,3,872
0.11960,2.76500,-4.53250,0.00000,0.00049,0.96575,-0.22936,2023,6,9,12,4,3,883
0.11970,2.57250,-4.58500,0.00000,0.00256,0.96697,-0.22814,2023,6,9,12,4,3,894
0.11980,2.80000,-4.70750,0.00000,0.00146,0.96856,-0.22912,2023,6,9,12,4,3,906
0.11990,2.74750,-4.51500,0.00000,0.00281,0.96746,-0.22521,2023,6,9,12,4,3,917
0.12000,2.64250,-4.46250,0.00000,0.00061,0.96636,-0.22899,2023,6,9,12,4,3,928
0.12010,2.90500,-4.56750,0.00000,0.00281,0.96819,-0.22729,2023,6,9,12,4,3,939
0.12020,2.76500,-4.63750,0.00000,0.00256,0.96758,-0.22643,2023,6,9,12,4,3,950
0.12030,2.73000,-4.41000,0.00000,0.00525,0.96905,-0.22655,2023,6,9,12,4,3,961
0.12040,2.55500,-4.72500,0.00000,0.00098,0.96795,-0.22546,2023,6,9,12,4,3,972
0.12050,2.94000,-4.56750,0.00000,0.00378,0.96734,-0.22887,2023,6,9,12,4,3,983
0.12060,2.73000,-4.28750,0.00000,0.00171,0.96856,-0.22899,2023,6,9,12,4,3,994
0.12070,2.71250,-4.49750,0.00000,-0.00012,0.96648,-0.22716,2023,6,9,12,4,4,6
0.12080,2.74750,-4.56750,0.00000,0.00354,0.96831,-0.22887,2023,6,9,12,4,4,17
0.12090,2.60750,-4.62000,0.00000,0.00183,0.96356,-0.22887,2023,6,9,12,4,4,28
0.12100,2.81750,-4.79500,0.00000,0.00220,0.96624,-0.22387,2023,6,9,12,4,4,39
0.12110,2.81750,-4.62000,0.00000,0.00537,0.96953,-0.22777,2023,6,9,12,4,4,50
0.12120,2.81750,-4.58500,0.00000,0.00256,0.96892,-0.22582,2023,6,9,12,4,4,61
0.12130,2.67750,-4.42750,0.00000,0.00293,0.96758,-0.22753,2023,6,9,12,4,4,72
0.12140,2.94000,-4.60250,0.00000,0.00415,0.96795,-0.22643,2023,6,9,12,4,4,83
0.12150,2.69500,-4.46250,0.00000,0.00366,0.96905,-0.22753,2023,6,9,12,4,4,94
0.12160,2.55500,-4.30500,0.00000,0.00317,0.96783,-0.22777,2023,6,9,12,4,4,106
0.12170,2.73000,-4.65500,0.00000,0.00366,0.96819,-0.22546,2023,6,9,12,4,4,117
0.12180,2.53750,-4.60250,0.00000,0.00134,0.96819,-0.22814,2023,6,9,12,4,4,128
0.12190,2.53750,-4.35750,0.00000,0.00305,0.96734,-0.22887,2023,6,9,12,4,4,139
0.12200,2.60750,-4.69000,0.00000,0.00281,0.96807,-0.22741,2023,6,9,12,4,4,150
0.12210,2.69500,-4.65500,0.00000,0.00366,0.96941,-0.22826,2023,6,9,12,4,4,161
0.12220,2.74750,-4.60250,0.00000,0.00378,0.96600,-0.22814,2023,6,9,12,4,4,172
0.12230,2.66000,-4.37500,0.00000,0.00183,0.96673,-0.22570,2023,6,9,12,4,4,183
0.12240,2.83500,-4.46250,0.00000,0.00220,0.96917,-0.22668,2023,6,9,12,4,4,194
0.12250,2.66000,-4.74250,0.00000,0.00451,0.96795,-0.22753,2023,6,9,12,4,4,206
0.12260,2.74750,-4.49750,0.00000,0.00305,0.96539,-0.22631,2023,6,9,12,4,4,217
0.12270,2.73000,-4.65500,0.00000,0.00061,0.96575,-0.22814,2023,6,9,12,4,4,228
0.12280,2.73000,-4.69000,0.00000,0.00256,0.96636,-0.22436,2023,6,9,12,4,4,239
0.12290,2.55500,-4.41000,0.00000,0.00110,0.96746,-0.23070,2023,6,9,12,4,4,250
0.12300,2.59000,-4.53250,0.00000,0.00207,0.96770,-0.22716,2023,6,9,12,4,4,261
0.12310,2.55500,-4.46250,0.00000,0.00232,0.96770,-0.22875,2023,6,9,12,4,4,272
0.12320,2.59000,-4.44500,0.00000,0.00305,0.96819,-0.22619,2023,6,9,12,4,4,283
0.12330,2.73000,-4.46250,0.00000,0.00171,0.96868,-0.22826,2023,6,9,12,4,4,294
0.12340,2.62500,-4.69000,0.00000,0.00244,0.96587,-0.22741,2023,6,9,12,4,4,306
0.12350,2.73000,-4.60250,0.00000,0.00293,0.96844,-0.22875,2023,6,9,12,4,4,317
0.12360,2.69500,-4.53250,0.00000,0.00232,0.96612,-0.22802,2023,6,9,12,4,4,328
0.12370,2.55500,-4.65500,0.00000,0.00390,0.96514,-0.22802,2023,6,9,12,4,4,339
0.12380,2.73000,-4.70750,0.00000,0.00366,0.96600,-0.22582,2023,6,9,12,4,4,350
0.12390,2.71250,-4.65500,0.00000,0.00232,0.96795,-0.22814,2023,6,9,12,4,4,361
0.12400,2.71250,-4.48000,0.00000,0.00281,0.96892,-0.22460,2023,6,9,12,4,4,372
0.12410,2.57250,-4.56750,0.00000,0.00305,0.96783,-0.22765,2023,6,9,12,4,4,383
0.12420,2.73000,-4.69000,0.00000,0.00146,0.96636,-0.22680,2023,6,9,12,4,4,394
0.12430,2.76500,-4.55000,0.00000,0.00268,0.96697,-0.22668,2023,6,9,12,4,4,406
0.12440,2.73000,-4.44500,0.00000,0.00207,0.96478,-0.22619,2023,6,9,12,4,4,417
0.12450,2.52000,-4.39250,0.00000,0.00268,0.96831,-0.22497,2023,6,9,12,4,4,428
0.12460,2.71250,-4.65500,0.00000,0.00464,0.96844,-0.22607,2023,6,9,12,4,4,439
0.12470,2.55500,-4.62000,0.00000,0.00281,0.96612,-0.22631,2023,6,9,12,4,4,450
0.12480,2.71250,-4.67250,0.00000,0.00171,0.96648,-0.22607,2023,6,9,12,4,4,461
0.12490,2.52000,-4.44500,0.00000,0.00390,0.96880,-0.22570,2023,6,9,12,4,4,472
0.12500,2.83500,-4.42750,0.00000,0.00207,0.96819,-0.22741,2023,6,9,12,4,4,483
0.12510,2.80000,-4.62000,0.00000,0.00439,0.96722,-0.22997,2023,6,9,12,4,4,494
0.12520,2.81750,-4.39250,0.00000,0.00183,0.96795,-0.22448,2023,6,9,12,4,4,506
0.12530,2.81750,-4.60250,0.00000,0.00354,0.96819,-0.22570,2023,6,9,12,4,4,517
0.12540,2.76500,-4.44500,0.00000,0.00281,0.96661,-0.22729,2023,6,9,12,4,4,528
0.12550,2.71250,-4.48000,0.00000,0.00037,0.96758,-0.22777,2023,6,9,12,4,4,539
0.12560,2.64250,-4.62000,0.00000,0.00268,0.96758,-0.22570,2023,6,9,12,4,4,550
0.12570,2.83500,-4.51500,0.00000,0.00268,0.96673,-0.22680,2023,6,9,12,4,4,561
0.12580,2.83500,-4.58500,0.00000,0.00183,0.96453,-0.22655,2023,6,9,12,4,4,572
0.12590,2.74750,-4.48000,0.00000,0.00403,0.96770,-0.22887,2023,6,9,12,4,4,583
0.12600,2.62500,-4.41000,0.00000,0.00342,0.97014,-0.22826,2023,6,9,12,4,4,594
0.12610,2.83500,-4.46250,0.00000,0.00134,0.96722,-0.22558,2023,6,9,12,4,4,606
0.12620,2.83500,-4.63750,0.00000,0.00183,0.96722,-0.22777,2023,6,9,12,4,4,617
0.12630,2.71250,-4.55000,0.00000,0.00476,0.96941,-0.22631,2023,6,9,12,4,4,628
0.12640,2.67750,-4.83000,0.00000,0.00378,0.96819,-0.22741,2023,6,9,12,4,4,639
0.12650,2.73000,-4.44500,0.00000,0.00366,0.96551,-0.22680,2023,6,9,12,4,4,650
0.12660,2.64250,-4.44500,0.00000,0.00244,0.96819,-0.22655,2023,6,9,12,4,4,661
0.12670,2.71250,-4.48000,0.00000,0.00159,0.96746,-0.22558,2023,6,9,12,4,4,672
0.12680,2.59000,-4.46250,0.00000,0.00451,0.96831,-0.22582,2023,6,9,12,4,4,683
0.12690,2.74750,-4.62000,0.00000,0.00159,0.96514,-0.22741,2023,6,9,12,4,4,694
0.12700,2.73000,-4.65500,0.00000,0.00195,0.96490,-0.22533,2023,6,9,12,4,4,706
0.12710,2.62500,-4.48000,0.00000,0.00073,0.96709,-0.22790,2023,6,9,12,4,4,717
0.12720,2.85250,-4.62000,0.00000,0.00317,0.96746,-0.22899,2023,6,9,12,4,4,728
0.12730,2.62500,-4.62000,0.00000,0.00317,0.96587,-0.22777,2023,6,9,12,4,4,739
0.12740,2.64250,-4.56750,0.00000,0.00232,0.96831,-0.22826,2023,6,9,12,4,4,750
0.12750,2.74750,-4.74250,0.00000,0.00390,0.96868,-0.22338,2023,6,9,12,4,4,761
0.12760,2.66000,-4.39250,0.00000,0.00244,0.96746,-0.22594,2023,6,9,12,4,4,772
0.12770,2.53750,-4.55000,0.00000,0.00183,0.96917,-0.22680,2023,6,9,12,4,4,783
0.12780,2.53750,-4.32250,0.00000,0.00171,0.96673,-0.22716,2023,6,9,12,4,4,794
0.12790,2.71250,-4.42750,0.00000,0.00281,0.96929,-0.22838,2023,6,9,12,4,4,806
0.12800,2.62500,-4.48000,0.00000,0.00268,0.96905,-0.22509,2023,6,9,12,4,4,817
0.12810,2.50250,-4.53250,0.00000,0.00342,0.96783,-0.22607,2023,6,9,12,4,4,828
0.12820,2.55500,-4.49750,0.00000,0.00207,0.96685,-0.22668,2023,6,9,12,4,4,839
0.12830,2.76500,-4.74250,0.00000,0.00268,0.96673,-0.22826,2023,6,9,12,4,4,850
0.12840,2.67750,-4.44500,0.00000,0.00366,0.96758,-0.22485,2023,6,9,12,4,4,861
0.12850,2.64250,-4.62000,0.00000,0.00256,0.96783,-0.22973,2023,6,9,12,4,4,872
0.12860,2.55500,-4.55000,0.00000,0.00122,0.96453,-0.22546,2023,6,9,12,4,4,883
0.12870,2.78250,-4.53250,0.00000,-0.00037,0.96539,-0.22692,2023,6,9,12,4,4,894
0.12880,2.64250,-4.70750,0.00000,0.00207,0.96624,-0.22826,2023,6,9,12,4,4,906
0.12890,2.81750,-4.51500,0.00000,0.00281,0.96697,-0.22363,2023,6,9,12,4,4,917
0.12900,2.78250,-4.55000,0.00000,0.00317,0.96856,-0.22899,2023,6,9,12,4,4,928
0.12910,2.74750,-4.65500,0.00000,0.00146,0.96856,-0.22716,2023,6,9,12,4,4,939
0.12920,2.64250,-4.56750,0.00000,0.00220,0.96819,-0.22790,2023,6,9,12,4,4,950
0.12930,2.67750,-4.81250,0.00000,0.00244,0.96673,-0.22533,2023,6,9,12,4,4,961
0.12940,2.76500,-4.69000,0.00000,0.00390,0.96758,-0.22851,2023,6,9,12,4,4,972
0.12950,2.81750,-4.48000,0.00000,0.00525,0.96685,-0.22802,2023,6,9,12,4,4,983
0.12960,2.57250,-4.48000,0.00000,0.00134,0.96709,-0.22753,2023,6,9,12,4,4,994
0.12970,2.64250,-4.37500,0.00000,0.00390,0.96844,-0.22912,2023,6,9,12,4,5,6
0.12980,2.88750,-4.58500,0.00000,0.00122,0.96563,-0.22509,2023,6,9,12,4,5,17
0.12990,2.64250,-4.74250,0.00000,0.00342,0.96539,-0.22814,2023,6,9,12,4,5,28
0.13000,2.73000,-4.58500,0.00000,0.00317,0.96722,-0.22594,2023,6,9,12,4,5,39
0.13010,2.73000,-4.55000,0.00000,0.00146,0.96807,-0.22582,2023,6,9,12,4,5,50
0.13020,2.78250,-4.51500,0.00000,0.00378,0.96892,-0.22594,2023,6,9,12,4,5,61
0.13030,2.73000,-4.41000,0.00000,0.00378,0.96917,-0.22436,2023,6,9,12,4,5,72
0.13040,2.48500,-4.25250,0.00000,0.00305,0.96856,-0.22960,2023,6,9,12,4,5,83
0.13050,2.64250,-4.63750,0.00000,-0.00012,0.96587,-0.22692,2023,6,9,12,4,5,94
0.13060,2.76500,-4.55000,0.00000,0.00342,0.96856,-0.22570,2023,6,9,12,4,5,106
0.13070,2.57250,-4.65500,0.00000,0.00329,0.96880,-0.22680,2023,6,9,12,4,5,117
0.13080,2.78250,-4.65500,0.00000,0.00195,0.96783,-0.22777,2023,6,9,12,4,5,128
0.13090,2.52000,-4.67250,0.00000,0.00390,0.96722,-0.22570,2023,6,9,12,4,5,139
0.13100,2.67750,-4.51500,0.00000,0.00232,0.96526,-0.22704,2023,6,9,12,4,5,150
0.13110,2.66000,-4.62000,0.00000,0.00207,0.96648,-0.22851,2023,6,9,12,4,5,161
0.13120,2.62500,-4.65500,0.00000,0.00220,0.96844,-0.22973,2023,6,9,12,4,5,172
0.13130,2.55500,-4.56750,0.00000,0.00195,0.96624,-0.22619,2023,6,9,12,4,5,183
0.13140,2.66000,-4.60250,0.00000,0.00268,0.96783,-0.23021,2023,6,9,12,4,5,194
0.13150,2.76500,-4.53250,0.00000,0.00049,0.96612,-0.22704,2023,6,9,12,4,5,206
0.13160,2.52000,-4.56750,0.00000,0.00390,0.96648,-0.22753,2023,6,9,12,4,5,217
0.13170,2.74750,-4.42750,0.00000,0.00317,0.96673,-0.22973,2023,6,9,12,4,5,228
0.13180,2.67750,-4.55000,0.00000,0.00281,0.96844,-0.22692,2023,6,9,12,4,5,239
0.13190,2.50250,-4.53250,0.00000,0.00268,0.96722,-0.22668,2023,6,9,12,4,5,250
0.13200,2.71250,-4.51500,0.00000,0.00183,0.96807,-0.22668,2023,6,9,12,4,5,261
0.13210,2.57250,-4.41000,0.00000,0.00390,0.96502,-0.22607,2023,6,9,12,4,5,272
0.13220,2.69500,-4.39250,0.00000,0.00378,0.96685,-0.22912,2023,6,9,12,4,5,283
0.13230,2.46750,-4.41000,0.00000,0.00220,0.96722,-0.22692,2023,6,9,12,4,5,294
0.13240,2.59000,-4.58500,0.00000,0.00525,0.96966,-0.22509,2023,6,9,12,4,5,306
0.13250,2.62500,-4.44500,0.00000,0.00512,0.96429,-0.23009,2023,6,9,12,4,5,317
0.13260,2.59000,-4.55000,0.00000,0.00098,0.96453,-0.22668,2023,6,9,12,4,5,328
0.13270,2.83500,-4.70750,0.00000,0.00085,0.96722,-0.22704,2023,6,9,12,4,5,339
0.13280,2.60750,-4.67250,0.00000,0.00171,0.96612,-0.22753,2023,6,9,12,4,5,350
0.13290,2.95750,-4.60250,0.00000,0.00366,0.96770,-0.22802,2023,6,9,12,4,5,361
0.13300,2.64250,-4.62000,0.00000,0.00220,0.96587,-0.22765,2023,6,9,12,4,5,372
0.13310,2.76500,-4.58500,0.00000,0.00171,0.96453,-0.22716,2023,6,9,12,4,5,383
0.13320,2.62500,-4.48000,0.00000,0.00354,0.96661,-0.22521,2023,6,9,12,4,5,394
0.13330,2.73000,-4.34000,0.00000,0.00000,0.96563,-0.22741,2023,6,9,12,4,5,406
0.13340,2.81750,-4.53250,0.00000,0.00195,0.96770,-0.22533,2023,6,9,12,4,5,417
0.13350,2.71250,-4.70750,0.00000,0.00159,0.96465,-0.22533,2023,6,9,12,4,5,428
0.13360,2.64250,-4.49750,0.00000,0.00256,0.96624,-0.22497,2023,6,9,12,4,5,439
0.13370,2.69500,-4.41000,0.00000,0.00171,0.96831,-0.22680,2023,6,9,12,4,5,450
0.13380,2.76500,-4.69000,0.00000,0.00305,0.96636,-0.22692,2023,6,9,12,4,5,461
0.13390,2.71250,-4.67250,0.00000,0.00427,0.96746,-0.22424,2023,6,9,12,4,5,472
0.13400,2.45000,-4.51500,0.00000,0.00293,0.96673,-0.22924,2023,6,9,12,4,5,483
0.13410,2.66000,-4.49750,0.00000,0.00305,0.96612,-0.22741,2023,6,9,12,4,5,494
0.13420,2.78250,-4.35750,0.00000,0.00366,0.96807,-0.22655,2023,6,9,12,4,5,506
0.13430,2.55500,-4.53250,0.00000,0.00281,0.96795,-0.22863,2023,6,9,12,4,5,517
0.13440,2.67750,-4.39250,0.00000,0.00305,0.96648,-0.22753,2023,6,9,12,4,5,528
0.13450,2.67750,-4.56750,0.00000,0.00293,0.96685,-0.22570,2023,6,9,12,4,5,539
0.13460,2.66000,-4.46250,0.00000,0.00256,0.96612,-0.22899,2023,6,9,12,4,5,550
0.13470,2.50250,-4.53250,0.00000,0.00256,0.96624,-0.22655,2023,6,9,12,4,5,561
0.13480,2.73000,-4.20000,0.00000,0.00024,0.96795,-0.22619,2023,6,9,12,4,5,572
0.13490,2.87000,-4.58500,0.00000,0.00024,0.96624,-0.22424,2023,6,9,12,4,5,583
0.13500,2.45000,-4.55000,0.00000,0.00159,0.96783,-0.22594,2023,6,9,12,4,5,594
0.13510,2.74750,-4.84750,0.00000,0.00390,0.96844,-0.22741,2023,6,9,12,4,5,606
0.13520,2.95750,-4.56750,0.00000,0.00232,0.96661,-0.22570,2023,6,9,12,4,5,617
0.13530,2.85250,-4.63750,0.00000,0.00586,0.96673,-0.22765,2023,6,9,12,4,5,628
0.13540,2.60750,-4.46250,0.00000,0.00439,0.96770,-0.22692,2023,6,9,12,4,5,639
0.13550,2.69500,-4.56750,0.00000,0.00061,0.96673,-0.22777,2023,6,9,12,4,5,650
0.13560,2.60750,-4.39250,0.00000,0.00220,0.96783,-0.22570,2023,6,9,12,4,5,661
0.13570,2.67750,-4.60250,0.00000,0.00195,0.96831,-0.22753,2023,6,9,12,4,5,672
0.13580,2.66000,-4.63750,0.00000,0.00256,0.96551,-0.22558,2023,6,9,12,4,5,683
0.13590,2.78250,-4.67250,0.00000,0.00329,0.96844,-0.22912,2023,6,9,12,4,5,694
0.13600,2.59000,-4.34000,0.00000,0.00378,0.96770,-0.22851,2023,6,9,12,4,5,706
0.13610,2.66000,-4.56750,0.00000,0.00366,0.96953,-0.22375,2023,6,9,12,4,5,717
0.13620,2.62500,-4.46250,0.00000,0.00329,0.96734,-0.22790,2023,6,9,12,4,5,728
0.13630,2.62500,-4.48000,0.00000,0.00183,0.96770,-0.22716,2023,6,9,12,4,5,739
0.13640,2.76500,-4.65500,0.00000,0.00305,0.96502,-0.22777,2023,6,9,12,4,5,750
0.13650,2.66000,-4.32250,0.00000,0.00232,0.96929,-0.22655,2023,6,9,12,4,5,761
0.13660,2.67750,-4.41000,0.00000,0.00500,0.96526,-0.22411,2023,6,9,12,4,5,772
0.13670,2.73000,-4.60250,0.00000,0.00317,0.96990,-0.22875,2023,6,9,12,4,5,783
0.13680,2.78250,-4.65500,0.00000,0.00146,0.96600,-0.22814,2023,6,9,12,4,5,794
0.13690,2.85250,-4.63750,0.00000,0.00427,0.96880,-0.22460,2023,6,9,12,4,5,806
0.13700,2.62500,-4.44500,0.00000,0.00329,0.96831,-0.22704,2023,6,9,12,4,5,817
0.13710,2.80000,-4.37500,0.00000,0.00244,0.96807,-0.22692,2023,6,9,12,4,5,828
0.13720,2.64250,-4.46250,0.00000,0.00366,0.96722,-0.22875,2023,6,9,12,4,5,839
0.13730,2.69500,-4.44500,0.00000,0.00268,0.96795,-0.22802,2023,6,9,12,4,5,850
0.13740,2.76500,-4.44500,0.00000,0.00488,0.96868,-0.22521,2023,6,9,12,4,5,861
0.13750,2.69500,-4.53250,0.00000,0.00110,0.96600,-0.22912,2023,6,9,12,4,5,872
0.13760,2.59000,-4.51500,0.00000,0.00378,0.96673,-0.22851,2023,6,9,12,4,5,883
0.13770,2.66000,-4.53250,0.00000,0.00439,0.96795,-0.22594,2023,6,9,12,4,5,894
0.13780,2.69500,-4.63750,0.00000,0.00268,0.96844,-0.22607,2023,6,9,12,4,5,906
0.13790,2.60750,-4.69000,0.00000,0.00293,0.96978,-0.22643,2023,6,9,12,4,5,917
0.13800,2.76500,-4.48000,0.00000,0.00281,0.96795,-0.22753,2023,6,9,12,4,5,928
0.13810,2.66000,-4.60250,0.00000,0.00268,0.96758,-0.22558,2023,6,9,12,4,5,939
0.13820,2.62500,-4.49750,0.00000,0.00061,0.96636,-0.22875,2023,6,9,12,4,5,950
0.13830,2.66000,-4.46250,0.00000,0.00183,0.96624,-0.22680,2023,6,9,12,4,5,961
0.13840,2.64250,-4.41000,0.00000,0.00146,0.96783,-0.22814,2023,6,9,12,4,5,972
0.13850,2.62500,-4.69000,0.00000,0.00171,0.96831,-0.22643,2023,6,9,12,4,5,983
0.13860,2.78250,-4.42750,0.00000,0.00427,0.96953,-0.22777,2023,6,9,12,4,5,994
0.13870,2.74750,-4.58500,0.00000,0.00159,0.96685,-0.22680,2023,6,9,12,4,5,6
0.13880,2.83500,-4.35750,0.00000,0.00232,0.96478,-0.22607,2023,6,9,12,4,5,17
0.13890,2.74750,-4.55000,0.00000,0.00207,0.96734,-0.22497,2023,6,9,12,4,6,8
0.13900,2.80000,-4.49750,0.00000,0.00037,0.96722,-0.22838,2023,6,9,12,4,6,19
0.13910,2.69500,-4.67250,0.00000,0.00244,0.96563,-0.22704,2023,6,9,12,4,6,30
0.13920,2.59000,-4.42750,0.00000,0.00134,0.96880,-0.22753,2023,6,9,12,4,6,41
0.13930,2.74750,-4.60250,0.00000,0.00256,0.96783,-0.22631,2023,6,9,12,4,6,52
0.13940,2.74750,-4.60250,0.00000,0.00232,0.96868,-0.22716,2023,6,9,12,4,6,63
0.13950,2.67750,-4.62000,0.00000,0.00464,0.96453,-0.22546,2023,6,9,12,4,6,74
0.13960,2.52000,-4.48000,0.00000,0.00244,0.96770,-0.23095,2023,6,9,12,4,6,86
0.13970,2.57250,-4.41000,0.00000,0.00439,0.96758,-0.22607,2023,6,9,12,4,6,97
0.13980,2.59000,-4.32250,0.00000,0.00183,0.96807,-0.22655,2023,6,9,12,4,6,108
0.13990,2.69500,-4.60250,0.00000,0.00061,0.96758,-0.22729,2023,6,9,12,4,6,119
0.14000,2.60750,-4.49750,0.00000,0.00305,0.96844,-0.22497,2023,6,9,12,4,6,130
0.14010,2.74750,-4.60250,0.00000,0.00439,0.97039,-0.22570,2023,6,9,12,4,6,141
0.14020,2.85250,-4.67250,0.00000,0.00171,0.96465,-0.22741,2023,6,9,12,4,6,152
0.14030,2.74750,-4.55000,0.00000,0.00244,0.96661,-0.22753,2023,6,9,12,4,6,163
0.14040,2.78250,-4.69000,0.00000,0.00220,0.96514,-0.22607,2023,6,9,12,4,6,174
0.14050,2.53750,-4.44500,0.00000,0.00183,0.96783,-0.22619,2023,6,9,12,4,6,186
0.14060,2.81750,-4.49750,0.00000,0.00329,0.96661,-0.22741,2023,6,9,12,4,6,197
0.14070,2.69500,-4.55000,0.00000,0.00305,0.96404,-0.22753,2023,6,9,12,4,6,208
0.14080,2.81750,-4.62000,0.00000,0.00305,0.96880,-0.22582,2023,6,9,12,4,6,219
0.14090,2.85250,-4.58500,0.00000,0.00378,0.96831,-0.22826,2023,6,9,12,4,6,230
0.14100,2.67750,-4.48000,0.00000,0.00244,0.96746,-0.22497,2023,6,9,12,4,6,241
0.14110,2.57250,-4.58500,0.00000,0.00342,0.96673,-0.22643,2023,6,9,12,4,6,252
0.14120,2.85250,-4.46250,0.00000,0.00317,0.96429,-0.22790,2023,6,9,12,4,6,263
0.14130,2.78250,-4.63750,0.00000,0.00366,0.96734,-0.22448,2023,6,9,12,4,6,274
0.14140,2.76500,-4.63750,0.00000,0.00110,0.96551,-0.22765,2023,6,9,12,4,6,286
0.14150,2.76500,-4.42750,0.00000,0.00207,0.96673,-0.22619,2023,6,9,12,4,6,297
0.14160,2.62500,-4.58500,0.00000,0.00354,0.96807,-0.22716,2023,6,9,12,4,6,308
0.14170,2.71250,-4.35750,0.00000,0.00378,0.96575,-0.22716,2023,6,9,12,4,6,319
0.14180,2.71250,-4.69000,0.00000,0.00220,0.96770,-0.22765,2023,6,9,12,4,6,330
0.14190,2.90500,-4.42750,0.00000,0.00244,0.96807,-0.22582,2023,6,9,12,4,6,341
0.14200,2.62500,-4.58500,0.00000,0.00220,0.96722,-0.22716,2023,6,9,12,4,6,352
0.14210,2.71250,-4.44500,0.00000,0.00232,0.96600,-0.22497,2023,6,9,12,4,6,363
0.14220,2.66000,-4.51500,0.00000,0.00366,0.96868,-0.22790,2023,6,9,12,4,6,374
0.14230,2.50250,-4.56750,0.00000,0.00268,0.96722,-0.22777,2023,6,9,12,4,6,386
0.14240,2.67750,-4.53250,0.00000,0.00207,0.96514,-0.22558,2023,6,9,12,4,6,397
0.14250,2.71250,-4.39250,0.00000,0.00281,0.96551,-0.22631,2023,6,9,12,4,6,408
0.14260,2.76500,-4.58500,0.00000,0.00256,0.96758,-0.22631,2023,6,9,12,4,6,419
0.14270,2.43250,-4.60250,0.00000,0.00329,0.96929,-0.22594,2023,6,9,12,4,6,430
0.14280,2.87000,-4.60250,0.00000,0.00134,0.96941,-0.22521,2023,6,9,12,4,6,441
0.14290,2.81750,-4.63750,0.00000,0.00207,0.96795,-0.22704,2023,6,9,12,4,6,452
0.14300,2.62500,-4.76000,0.00000,0.00134,0.96856,-0.22533,2023,6,9,12,4,6,463
0.14310,2.80000,-4.30500,0.00000,0.00159,0.96673,-0.22668,2023,6,9,12,4,6,474
0.14320,2.69500,-4.67250,0.00000,0.00329,0.96612,-0.22838,2023,6,9,12,4,6,486
0.14330,2.64250,-4.62000,0.00000,0.00110,0.96819,-0.22729,2023,6,9,12,4,6,497
0.14340,2.66000,-4.63750,0.00000,0.00390,0.96856,-0.22570,2023,6,9,12,4,6,508
0.14350,2.78250,-4.74250,0.00000,0.00415,0.96575,-0.22838,2023,6,9,12,4,6,519
0.14360,2.76500,-4.46250,0.00000,0.00329,0.96539,-0.22546,2023,6,9,12,4,6,530
0.14370,2.80000,-4.34000,0.00000,0.00122,0.96441,-0.22680,2023,6,9,12,4,6,541
0.14380,2.87000,-4.53250,0.00000,0.00305,0.96648,-0.22643,2023,6,9,12,4,6,552
0.14390,2.67750,-4.65500,0.00000,0.00268,0.96587,-0.22668,2023,6,9,12,4,6,563
0.14400,2.78250,-4.63750,0.00000,0.00110,0.96636,-0.22997,2023,6,9,12,4,6,574
0.14410,2.69500,-4.35750,0.00000,0.00293,0.96905,-0.22875,2023,6,9,12,4,6,586
0.14420,2.80000,-4.79500,0.00000,0.00293,0.96624,-0.22899,2023,6,9,12,4,6,597
0.14430,2.83500,-4.69000,0.00000,0.00378,0.96685,-0.22753,2023,6,9,12,4,6,608
0.14440,2.66000,-4.44500,0.00000,0.00305,0.96941,-0.22899,2023,6,9,12,4,6,619
0.14450,2.73000,-4.70750,0.00000,0.00195,0.96697,-0.22546,2023,6,9,12,4,6,630
0.14460,2.78250,-4.53250,0.00000,0.00366,0.96807,-0.22887,2023,6,9,12,4,6,641
0.14470,2.59000,-4.42750,0.00000,0.00268,0.96856,-0.22777,2023,6,9,12,4,6,652
0.14480,2.64250,-4.42750,0.00000,0.00256,0.96746,-0.22692,2023,6,9,12,4,6,663
0.14490,2.71250,-4.58500,0.00000,0.00134,0.96612,-0.22631,2023,6,9,12,4,6,674
0.14500,2.64250,-4.62000,0.00000,0.00195,0.96953,-0.22594,2023,6,9,12,4,6,686
0.14510,2.73000,-4.49750,0.00000,0.00305,0.96917,-0.22509,2023,6,9,12,4,6,697
0.14520,2.69500,-4.65500,0.00000,0.00073,0.96929,-0.22899,2023,6,9,12,4,6,708
0.14530,2.73000,-4.76000,0.00000,0.00317,0.96575,-0.22814,2023,6,9,12,4,6,719
0.14540,2.78250,-4.74250,0.00000,0.00110,0.96722,-0.22741,2023,6,9,12,4,6,730
0.14550,2.94000,-4.62000,0.00000,0.00366,0.96612,-0.22497,2023,6,9,12,4,6,741
0.14560,2.57250,-4.49750,0.00000,0.00366,0.96587,-0.22509,2023,6,9,12,4,6,752
0.14570,2.67750,-4.58500,0.00000,0.00256,0.96636,-0.22521,2023,6,9,12,4,6,763
0.14580,2.73000,-4.72500,0.00000,0.00390,0.96868,-0.22533,2023,6,9,12,4,6,774
0.14590,3.06250,-4.84750,0.00000,0.00122,0.96551,-0.22704,2023,6,9,12,4,6,786
0.14600,2.73000,-4.63750,0.00000,0.00220,0.96551,-0.22680,2023,6,9,12,4,6,797
0.14610,2.67750,-4.62000,0.00000,0.00317,0.96612,-0.22668,2023,6,9,12,4,6,808
0.14620,2.57250,-4.34000,0.00000,0.00195,0.96819,-0.22875,2023,6,9,12,4,6,819
0.14630,2.69500,-4.48000,0.00000,0.00232,0.96819,-0.22643,2023,6,9,12,4,6,830
0.14640,2.74750,-4.48000,0.00000,0.00037,0.96624,-0.22582,2023,6,9,12,4,6,841
0.14650,2.83500,-4.76000,0.00000,0.00146,0.96783,-0.22643,2023,6,9,12,4,6,852
0.14660,2.67750,-4.42750,0.00000,0.00427,0.96917,-0.22814,2023,6,9,12,4,6,863
0.14670,2.64250,-4.56750,0.00000,0.00207,0.96685,-0.22838,2023,6,9,12,4,6,874
0.14680,2.73000,-4.49750,0.00000,0.00232,0.96892,-0.22643,2023,6,9,12,4,6,886
0.14690,2.73000,-4.49750,0.00000,0.00464,0.96685,-0.22570,2023,6,9,12,4,6,897
0.14700,2.67750,-4.51500,0.00000,0.00037,0.96746,-0.23046,2023,6,9,12,4,6,908
0.14710,2.80000,-4.51500,0.00000,0.00415,0.96539,-0.22838,2023,6,9,12,4,6,919
0.14720,2.73000,-4.48000,0.00000,0.00183,0.96697,-0.22790,2023,6,9,12,4,6,930
0.14730,2.71250,-4.44500,0.00000,0.00232,0.96807,-0.22826,2023,6,9,12,4,6,941
0.14740,2.59000,-4.69000,0.00000,0.00293,0.96709,-0.22826,2023,6,9,12,4,6,952
0.14750,2.59000,-4.69000,0.00000,0.00366,0.96673,-0.22594,2023,6,9,12,4,6,963
0.14760,2.60750,-4.53250,0.00000,0.00256,0.96563,-0.22912,2023,6,9,12,4,6,974
0.14770,2.66000,-4.58500,0.00000,0.00110,0.96612,-0.22680,2023,6,9,12,4,6,986
0.14780,2.80000,-4.69000,0.00000,0.00256,0.96709,-0.22716,2023,6,9,12,4,7,7
0.14790,2.74750,-4.67250,0.00000,0.00439,0.96880,-0.22655,2023,6,9,12,4,7,18
0.14800,2.73000,-4.55000,0.00000,0.00085,0.96673,-0.22716,2023,6,9,12,4,7,29
0.14810,2.88750,-4.69000,0.00000,0.00305,0.96551,-0.22607,2023,6,9,12,4,7,40
0.14820,2.83500,-4.41000,0.00000,0.00244,0.96734,-0.22924,2023,6,9,12,4,7,51
0.14830,2.67750,-4.56750,0.00000,0.00464,0.96819,-0.22692,2023,6,9,12,4,7,62
0.14840,2.73000,-4.60250,0.00000,0.00549,0.96551,-0.22765,2023,6,9,12,4,7,73
0.14850,2.73000,-4.46250,0.00000,0.00232,0.96697,-0.22655,2023,6,9,12,4,7,84
0.14860,2.67750,-4.60250,0.00000,0.00183,0.96758,-0.22912,2023,6,9,12,4,7,96
0.14870,2.67750,-4.49750,0.00000,0.00122,0.96709,-0.22570,2023,6,9,12,4,7,107
0.14880,2.67750,-4.60250,0.00000,0.00244,0.96673,-0.22655,2023,6,9,12,4,7,118
0.14890,2.67750,-4.46250,0.00000,0.00415,0.96856,-0.22472,2023,6,9,12,4,7,129
0.14900,2.66000,-4.56750,0.00000,0.00232,0.96709,-0.22704,2023,6,9,12,4,7,140
0.14910,2.81750,-4.63750,0.00000,0.00073,0.96587,-0.22582,2023,6,9,12,4,7,151
0.14920,2.52000,-4.65500,0.00000,0.00268,0.96783,-0.22655,2023,6,9,12,4,7,162
0.14930,2.71250,-4.81250,0.00000,0.00427,0.96624,-0.22668,2023,6,9,12,4,7,173
0.14940,2.74750,-4.58500,0.00000,0.00366,0.96624,-0.22790,2023,6,9,12,4,7,184
0.14950,2.88750,-4.39250,0.00000,0.00244,0.96453,-0.22643,2023,6,9,12,4,7,196
0.14960,2.74750,-4.62000,0.00000,0.00049,0.96819,-0.22753,2023,6,9,12,4,7,207
0.14970,2.78250,-4.42750,0.00000,0.00085,0.96831,-0.22741,2023,6,9,12,4,7,218
0.14980,2.64250,-4.60250,0.00000,0.00293,0.96746,-0.22521,2023,6,9,12,4,7,229
0.14990,2.92250,-4.56750,0.00000,0.00256,0.96673,-0.22802,2023,6,9,12,4,7,240
0.15000,2.76500,-4.62000,0.00000,0.00171,0.96807,-0.22765,2023,6,9,12,4,7,251
0.15010,2.88750,-4.41000,0.00000,0.00122,0.96490,-0.22607,2023,6,9,12,4,7,262
0.15020,2.46750,-4.63750,0.00000,0.00110,0.96722,-0.22619,2023,6,9,12,4,7,273
0.15030,2.50250,-4.53250,0.00000,0.00012,0.96600,-0.22716,2023,6,9,12,4,7,284
0.15040,2.60750,-4.62000,0.00000,0.00268,0.96770,-0.22619,2023,6,9,12,4,7,296
0.15050,2.74750,-4.46250,0.00000,0.00476,0.96795,-0.22899,2023,6,9,12,4,7,307
0.15060,2.62500,-4.60250,0.00000,0.00159,0.96587,-0.22546,2023,6,9,12,4,7,318
0.15070,2.66000,-4.53250,0.00000,0.00220,0.96514,-0.22619,2023,6,9,12,4,7,329
0.15080,2.64250,-4.62000,0.00000,0.00207,0.96722,-0.22668,2023,6,9,12,4,7,340
0.15090,2.66000,-4.46250,0.00000,0.00281,0.96880,-0.22753,2023,6,9,12,4,7,351
0.15100,2.60750,-4.55000,0.00000,0.00171,0.96648,-0.22692,2023,6,9,12,4,7,362
0.15110,2.57250,-4.34000,0.00000,0.00159,0.96636,-0.22631,2023,6,9,12,4,7,373
0.15120,2.53750,-4.30500,0.00000,0.00354,0.96844,-0.22607,2023,6,9,12,4,7,384
0.15130,2.60750,-4.79500,0.00000,0.00159,0.96429,-0.22973,2023,6,9,12,4,7,396
0.15140,2.76500,-4.39250,0.00000,0.00390,0.96929,-0.22692,2023,6,9,12,4,7,407
0.15150,2.62500,-4.55000,0.00000,0.00195,0.96929,-0.22668,2023,6,9,12,4,7,418
0.15160,2.71250,-4.58500,0.00000,0.00207,0.96770,-0.22802,2023,6,9,12,4,7,429
0.15170,2.95750,-4.49750,0.00000,0.00244,0.96661,-0.22558,2023,6,9,12,4,7,440
0.15180,2.67750,-4.58500,0.00000,0.00256,0.96575,-0.22692,2023,6,9,12,4,7,451
0.15190,2.73000,-4.49750,0.00000,0.00281,0.96722,-0.22863,2023,6,9,12,4,7,462
0.15200,2.67750,-4.51500,0.00000,0.00390,0.96831,-0.22716,2023,6,9,12,4,7,473
0.15210,2.66000,-4.42750,0.00000,0.00427,0.96722,-0.22875,2023,6,9,12,4,7,484
0.15220,2.73000,-4.48000,0.00000,0.00220,0.97051,-0.22753,2023,6,9,12,4,7,496
0.15230,2.69500,-4.53250,0.00000,0.00195,0.96648,-0.22607,2023,6,9,12,4,7,507
0.15240,2.53750,-4.69000,0.00000,0.00342,0.96978,-0.22826,2023,6,9,12,4,7,518
0.15250,2.60750,-4.49750,0.00000,0.00146,0.96722,-0.22826,2023,6,9,12,4,7,529
0.15260,2.66000,-4.44500,0.00000,0.00195,0.96453,-0.22729,2023,6,9,12,4,7,540
0.15270,2.81750,-4.63750,0.00000,0.00342,0.96685,-0.22607,2023,6,9,12,4,7,551
