#2023/06/09 09:22:12
time,wx,wy,wz,ax,ay,az,yy,MM,dd,hh,mm,ss,ms
467.34890,2.88750,-4.74250,0.00000,0.02330,0.97210,-0.20179,2023,6,9,9,22,12,751
467.34900,2.81750,-4.81250,0.00000,0.02208,0.97234,-0.20362,2023,6,9,9,22,12,762
467.34910,2.99250,-4.86500,0.00000,0.01915,0.97271,-0.20411,2023,6,9,9,22,12,773
467.34920,2.80000,-4.76000,0.00000,0.02074,0.97161,-0.20313,2023,6,9,9,22,12,784
467.34930,2.99250,-4.62000,0.00000,0.02184,0.97258,-0.20057,2023,6,9,9,22,12,795
467.34940,2.97500,-4.65500,0.00000,0.02086,0.97185,-0.20350,2023,6,9,9,22,12,806
467.34950,2.69500,-4.69000,0.00000,0.02135,0.97344,-0.20386,2023,6,9,9,22,12,817
467.34960,3.06250,-4.60250,0.00000,0.02245,0.97246,-0.20228,2023,6,9,9,22,12,828
467.34970,2.90500,-4.41000,0.00000,0.02123,0.97185,-0.20276,2023,6,9,9,22,12,839
467.34980,2.92250,-4.60250,0.00000,0.02074,0.97185,-0.20301,2023,6,9,9,22,12,850
467.34990,2.76500,-4.46250,0.00000,0.02306,0.97234,-0.20215,2023,6,9,9,22,12,862
467.35000,2.95750,-4.74250,0.00000,0.02196,0.97283,-0.20337,2023,6,9,9,22,12,873
467.35010,2.87000,-4.63750,0.00000,0.02147,0.97075,-0.20435,2023,6,9,9,22,12,884
467.35020,2.85250,-4.58500,0.00000,0.02220,0.97161,-0.20325,2023,6,9,9,22,12,895
467.35030,3.04500,-4.63750,0.00000,0.02172,0.97271,-0.20276,2023,6,9,9,22,12,906
467.35040,2.99250,-4.90000,0.00000,0.02318,0.97161,-0.20630,2023,6,9,9,22,12,917
467.35050,2.95750,-4.56750,0.00000,0.02172,0.97295,-0.20484,2023,6,9,9,22,12,928
467.35060,2.90500,-4.69000,0.00000,0.02281,0.97088,-0.20472,2023,6,9,9,22,12,939
467.35070,2.88750,-4.69000,0.00000,0.02123,0.97405,-0.20374,2023,6,9,9,22,12,950
467.35080,2.94000,-4.58500,0.00000,0.02318,0.97295,-0.20313,2023,6,9,9,22,12,962
467.35090,2.71250,-4.51500,0.00000,0.02135,0.97124,-0.20203,2023,6,9,9,22,12,973
467.35100,2.78250,-4.74250,0.00000,0.02184,0.97161,-0.20325,2023,6,9,9,22,12,984
467.35110,2.78250,-4.51500,0.00000,0.02355,0.97039,-0.20203,2023,6,9,9,22,12,995
467.35120,2.83500,-4.42750,0.00000,0.02111,0.97258,-0.20350,2023,6,9,9,22,12,6
467.35130,2.71250,-4.74250,0.00000,0.02245,0.97246,-0.20215,2023,6,9,9,22,12,17
467.35140,2.80000,-4.49750,0.00000,0.02196,0.97234,-0.20411,2023,6,9,9,22,12,28
467.35150,2.90500,-4.65500,0.00000,0.02111,0.97100,-0.20264,2023,6,9,9,22,12,39
467.35160,2.85250,-4.62000,0.00000,0.02111,0.97234,-0.19996,2023,6,9,9,22,12,50
467.35170,2.88750,-4.79500,0.00000,0.02403,0.97136,-0.20215,2023,6,9,9,22,12,62
467.35180,2.92250,-4.76000,0.00000,0.02062,0.97063,-0.20167,2023,6,9,9,22,12,73
467.35190,2.95750,-4.58500,0.00000,0.02025,0.97271,-0.20045,2023,6,9,9,22,12,84
467.35200,2.83500,-4.65500,0.00000,0.02233,0.97136,-0.20191,2023,6,9,9,22,12,95
467.35210,2.69500,-4.53250,0.00000,0.02318,0.97222,-0.20130,2023,6,9,9,22,12,106
467.35220,2.90500,-4.41000,0.00000,0.02220,0.97124,-0.20264,2023,6,9,9,22,12,117
467.35230,2.90500,-4.72500,0.00000,0.01903,0.97307,-0.20069,2023,6,9,9,22,12,128
467.35240,2.80000,-4.62000,0.00000,0.02111,0.97222,-0.20264,2023,6,9,9,22,12,139
467.35250,2.81750,-4.34000,0.00000,0.02098,0.97088,-0.20350,2023,6,9,9,22,12,150
467.35260,3.02750,-4.58500,0.00000,0.02281,0.97161,-0.20191,2023,6,9,9,22,12,162
467.35270,2.76500,-4.70750,0.00000,0.02257,0.97283,-0.20179,2023,6,9,9,22,12,173
467.35280,2.92250,-4.60250,0.00000,0.02196,0.97295,-0.20325,2023,6,9,9,22,12,184
467.35290,2.81750,-4.88250,0.00000,0.02294,0.97210,-0.20130,2023,6,9,9,22,12,195
467.35300,2.90500,-4.70750,0.00000,0.02208,0.97380,-0.20252,2023,6,9,9,22,12,206
467.35310,2.81750,-4.49750,0.00000,0.02147,0.96929,-0.20325,2023,6,9,9,22,12,217
467.35320,2.88750,-4.69000,0.00000,0.02062,0.97124,-0.20228,2023,6,9,9,22,12,228
467.35330,2.85250,-4.60250,0.00000,0.02196,0.96978,-0.20520,2023,6,9,9,22,12,239
467.35340,2.94000,-4.65500,0.00000,0.02074,0.96978,-0.20118,2023,6,9,9,22,12,250
467.35350,2.83500,-4.77750,0.00000,0.02342,0.97161,-0.20106,2023,6,9,9,22,12,262
467.35360,2.83500,-4.56750,0.00000,0.02123,0.97136,-0.20142,2023,6,9,9,22,12,273
467.35370,3.02750,-4.44500,0.00000,0.02379,0.97027,-0.20496,2023,6,9,9,22,12,284
467.35380,2.80000,-4.30500,0.00000,0.02294,0.97344,-0.20386,2023,6,9,9,22,12,295
467.35390,2.99250,-4.72500,0.00000,0.02257,0.97283,-0.20203,2023,6,9,9,22,12,306
467.35400,2.90500,-4.67250,0.00000,0.02294,0.96844,-0.20154,2023,6,9,9,22,13,7
467.35410,2.64250,-4.53250,0.00000,0.01976,0.97295,-0.20191,2023,6,9,9,22,13,18
467.35420,2.81750,-4.48000,0.00000,0.02135,0.97210,-0.20081,2023,6,9,9,22,13,29
467.35430,2.76500,-4.51500,0.00000,0.02098,0.97454,-0.20337,2023,6,9,9,22,13,40
467.35440,2.76500,-4.86500,0.00000,0.02025,0.97112,-0.20240,2023,6,9,9,22,13,52
467.35450,2.97500,-4.58500,0.00000,0.02196,0.97197,-0.20447,2023,6,9,9,22,13,63
467.35460,2.87000,-4.60250,0.00000,0.02037,0.97319,-0.20093,2023,6,9,9,22,13,74
467.35470,2.88750,-4.76000,0.00000,0.02172,0.97271,-0.20154,2023,6,9,9,22,13,85
467.35480,3.02750,-4.69000,0.00000,0.02172,0.97283,-0.20240,2023,6,9,9,22,13,96
467.35490,2.92250,-4.51500,0.00000,0.02135,0.97112,-0.20167,2023,6,9,9,22,13,107
467.35500,2.95750,-4.67250,0.00000,0.02208,0.97271,-0.20069,2023,6,9,9,22,13,118
467.35510,3.08000,-4.55000,0.00000,0.02220,0.96990,-0.20093,2023,6,9,9,22,13,129
467.35520,2.94000,-4.69000,0.00000,0.02098,0.97393,-0.20179,2023,6,9,9,22,13,140
467.35530,2.88750,-4.65500,0.00000,0.02159,0.97161,-0.20435,2023,6,9,9,22,13,152
467.35540,3.01000,-4.67250,0.00000,0.01830,0.97222,-0.20020,2023,6,9,9,22,13,163
467.35550,2.78250,-4.56750,0.00000,0.02172,0.97197,-0.20252,2023,6,9,9,22,13,174
467.35560,2.94000,-4.56750,0.00000,0.02172,0.97405,-0.20252,2023,6,9,9,22,13,185
467.35570,2.88750,-4.55000,0.00000,0.02172,0.97454,-0.20228,2023,6,9,9,22,13,196
467.35580,2.74750,-4.86500,0.00000,0.02330,0.97063,-0.20045,2023,6,9,9,22,13,207
467.35590,2.97500,-4.76000,0.00000,0.02257,0.97161,-0.20240,2023,6,9,9,22,13,218
467.35600,2.94000,-4.76000,0.00000,0.02269,0.97149,-0.20228,2023,6,9,9,22,13,229
467.35610,2.85250,-4.60250,0.00000,0.02196,0.97149,-0.20069,2023,6,9,9,22,13,240
467.35620,2.88750,-4.72500,0.00000,0.02269,0.97173,-0.20325,2023,6,9,9,22,13,252
467.35630,2.97500,-4.69000,0.00000,0.02208,0.97258,-0.20215,2023,6,9,9,22,13,263
467.35640,2.87000,-4.72500,0.00000,0.02367,0.97100,-0.20154,2023,6,9,9,22,13,274
467.35650,2.90500,-4.65500,0.00000,0.02050,0.97088,-0.19898,2023,6,9,9,22,13,285
467.35660,3.02750,-4.53250,0.00000,0.02184,0.97271,-0.20252,2023,6,9,9,22,13,296
467.35670,2.85250,-4.62000,0.00000,0.01952,0.97258,-0.20045,2023,6,9,9,22,13,307
467.35680,2.87000,-4.46250,0.00000,0.02245,0.97234,-0.19886,2023,6,9,9,22,13,318
467.35690,3.06250,-4.84750,0.00000,0.02196,0.97295,-0.19788,2023,6,9,9,22,13,329
467.35700,2.81750,-4.86500,0.00000,0.02196,0.97002,-0.20289,2023,6,9,9,22,13,340
467.35710,2.85250,-4.56750,0.00000,0.02233,0.97405,-0.20069,2023,6,9,9,22,13,352
467.35720,2.76500,-4.49750,0.00000,0.02062,0.97088,-0.20130,2023,6,9,9,22,13,363
467.35730,2.85250,-4.79500,0.00000,0.02184,0.97173,-0.20240,2023,6,9,9,22,13,374
467.35740,2.99250,-4.83000,0.00000,0.01964,0.97197,-0.20130,2023,6,9,9,22,13,385
467.35750,2.88750,-4.63750,0.00000,0.02245,0.97124,-0.20228,2023,6,9,9,22,13,396
467.35760,2.81750,-4.56750,0.00000,0.02367,0.97393,-0.20106,2023,6,9,9,22,13,407
467.35770,2.92250,-4.76000,0.00000,0.02233,0.97405,-0.20325,2023,6,9,9,22,13,418
467.35780,2.90500,-4.60250,0.00000,0.02062,0.97173,-0.20069,2023,6,9,9,22,13,429
467.35790,2.67750,-4.77750,0.00000,0.02159,0.97246,-0.20069,2023,6,9,9,22,13,440
467.35800,2.87000,-4.53250,0.00000,0.02294,0.97002,-0.20118,2023,6,9,9,22,13,452
467.35810,2.97500,-4.55000,0.00000,0.02184,0.97136,-0.20081,2023,6,9,9,22,13,463
467.35820,2.83500,-4.49750,0.00000,0.02074,0.97210,-0.20069,2023,6,9,9,22,13,474
467.35830,2.90500,-4.62000,0.00000,0.01952,0.97124,-0.19959,2023,6,9,9,22,13,485
467.35840,2.76500,-4.53250,0.00000,0.02184,0.97271,-0.20167,2023,6,9,9,22,13,496
467.35850,2.92250,-4.70750,0.00000,0.02037,0.97112,-0.20154,2023,6,9,9,22,13,507
467.35860,2.81750,-4.67250,0.00000,0.02220,0.97246,-0.19996,2023,6,9,9,22,13,518
467.35870,2.80000,-4.77750,0.00000,0.02159,0.97307,-0.20276,2023,6,9,9,22,13,529
467.35880,2.90500,-4.60250,0.00000,0.02135,0.97478,-0.20106,2023,6,9,9,22,13,540
467.35890,2.83500,-4.65500,0.00000,0.02208,0.97124,-0.20093,2023,6,9,9,22,13,552
467.35900,2.83500,-4.55000,0.00000,0.02001,0.96978,-0.20240,2023,6,9,9,22,13,563
467.35910,2.74750,-4.49750,0.00000,0.02086,0.97344,-0.20411,2023,6,9,9,22,13,574
467.35920,2.83500,-4.65500,0.00000,0.02269,0.97149,-0.19996,2023,6,9,9,22,13,585
467.35930,2.99250,-4.62000,0.00000,0.02098,0.97185,-0.20142,2023,6,9,9,22,13,596
467.35940,2.85250,-4.42750,0.00000,0.02208,0.97112,-0.19898,2023,6,9,9,22,13,607
467.35950,3.04500,-4.88250,0.00000,0.02037,0.97112,-0.20325,2023,6,9,9,22,13,618
467.35960,3.11500,-4.69000,0.00000,0.02416,0.97307,-0.20081,2023,6,9,9,22,13,629
467.35970,2.92250,-4.97000,0.00000,0.02269,0.97234,-0.20411,2023,6,9,9,22,13,640
467.35980,2.94000,-4.74250,0.00000,0.01928,0.97124,-0.19996,2023,6,9,9,22,13,652
467.35990,2.95750,-4.76000,0.00000,0.02013,0.97149,-0.20289,2023,6,9,9,22,13,663
467.36000,2.85250,-4.90000,0.00000,0.02281,0.97234,-0.20130,2023,6,9,9,22,13,674
467.36010,2.90500,-4.77750,0.00000,0.02111,0.97039,-0.20350,2023,6,9,9,22,13,685
467.36020,2.87000,-4.58500,0.00000,0.02147,0.97319,-0.20118,2023,6,9,9,22,13,696
467.36030,2.92250,-4.56750,0.00000,0.02306,0.97185,-0.20069,2023,6,9,9,22,13,707
467.36040,2.80000,-4.56750,0.00000,0.02208,0.97185,-0.20252,2023,6,9,9,22,13,718
467.36050,3.02750,-4.55000,0.00000,0.02111,0.97027,-0.20325,2023,6,9,9,22,13,729
467.36060,2.95750,-4.60250,0.00000,0.02294,0.96990,-0.20203,2023,6,9,9,22,13,740
467.36070,2.81750,-4.39250,0.00000,0.02062,0.97319,-0.20301,2023,6,9,9,22,13,752
467.36080,2.81750,-4.51500,0.00000,0.02086,0.97271,-0.20398,2023,6,9,9,22,13,763
467.36090,2.88750,-4.79500,0.00000,0.02245,0.97100,-0.20289,2023,6,9,9,22,13,774
467.36100,2.97500,-4.86500,0.00000,0.02147,0.97185,-0.20154,2023,6,9,9,22,13,785
467.36110,2.76500,-4.70750,0.00000,0.02025,0.97295,-0.20313,2023,6,9,9,22,13,796
467.36120,2.76500,-4.44500,0.00000,0.02245,0.97210,-0.20252,2023,6,9,9,22,13,807
467.36130,2.90500,-4.67250,0.00000,0.01964,0.97136,-0.20398,2023,6,9,9,22,13,818
467.36140,2.76500,-4.67250,0.00000,0.02086,0.97210,-0.20325,2023,6,9,9,22,13,829
467.36150,2.74750,-4.79500,0.00000,0.02306,0.97222,-0.20264,2023,6,9,9,22,13,840
467.36160,2.80000,-4.56750,0.00000,0.02245,0.97222,-0.20362,2023,6,9,9,22,13,852
467.36170,2.80000,-4.86500,0.00000,0.02135,0.97271,-0.20252,2023,6,9,9,22,13,863
467.36180,2.69500,-4.62000,0.00000,0.02037,0.97417,-0.20350,2023,6,9,9,22,13,874
467.36190,2.92250,-4.62000,0.00000,0.02233,0.97063,-0.20228,2023,6,9,9,22,13,885
467.36200,2.85250,-4.79500,0.00000,0.02147,0.97319,-0.20081,2023,6,9,9,22,13,896
467.36210,2.67750,-4.72500,0.00000,0.02074,0.97393,-0.20411,2023,6,9,9,22,13,907
467.36220,2.97500,-4.79500,0.00000,0.02245,0.97356,-0.20130,2023,6,9,9,22,13,918
467.36230,2.90500,-4.49750,0.00000,0.01964,0.97075,-0.20081,2023,6,9,9,22,13,929
467.36240,2.97500,-4.77750,0.00000,0.02159,0.97307,-0.19971,2023,6,9,9,22,13,940
467.36250,2.90500,-4.56750,0.00000,0.02172,0.97002,-0.20130,2023,6,9,9,22,13,952
467.36260,2.71250,-4.51500,0.00000,0.02220,0.97271,-0.20301,2023,6,9,9,22,13,963
467.36270,2.85250,-4.53250,0.00000,0.02342,0.97136,-0.20228,2023,6,9,9,22,13,974
467.36280,2.81750,-4.77750,0.00000,0.02196,0.97075,-0.20020,2023,6,9,9,22,13,985
467.36290,2.83500,-4.67250,0.00000,0.02208,0.97210,-0.20179,2023,6,9,9,22,13,996
467.36300,2.94000,-4.74250,0.00000,0.02208,0.97307,-0.20008,2023,6,9,9,22,14,7
467.36310,2.85250,-4.72500,0.00000,0.02062,0.97161,-0.20215,2023,6,9,9,22,14,18
467.36320,2.85250,-4.70750,0.00000,0.02269,0.97429,-0.20386,2023,6,9,9,22,14,29
467.36330,2.94000,-4.69000,0.00000,0.02306,0.97210,-0.20045,2023,6,9,9,22,14,40
467.36340,2.94000,-4.72500,0.00000,0.02098,0.97258,-0.20215,2023,6,9,9,22,14,52
467.36350,2.90500,-4.67250,0.00000,0.02098,0.97344,-0.20130,2023,6,9,9,22,14,63
467.36360,2.94000,-4.60250,0.00000,0.02257,0.97173,-0.20154,2023,6,9,9,22,14,74
467.36370,2.97500,-4.53250,0.00000,0.02111,0.97332,-0.20289,2023,6,9,9,22,14,85
467.36380,2.90500,-4.69000,0.00000,0.02294,0.97210,-0.20069,2023,6,9,9,22,14,96
467.36390,2.92250,-4.79500,0.00000,0.02342,0.97368,-0.20106,2023,6,9,9,22,14,107
467.36400,2.73000,-4.63750,0.00000,0.02159,0.97100,-0.20154,2023,6,9,9,22,14,118
467.36410,2.92250,-4.56750,0.00000,0.02135,0.97258,-0.20106,2023,6,9,9,22,14,129
467.36420,2.78250,-4.51500,0.00000,0.02257,0.97234,-0.20032,2023,6,9,9,22,14,140
467.36430,2.81750,-4.74250,0.00000,0.02098,0.97100,-0.20142,2023,6,9,9,22,14,152
467.36440,2.92250,-4.63750,0.00000,0.02391,0.97136,-0.20154,2023,6,9,9,22,14,163
467.36450,2.94000,-4.84750,0.00000,0.02367,0.97173,-0.20215,2023,6,9,9,22,14,174
467.36460,2.87000,-4.70750,0.00000,0.02111,0.97332,-0.20215,2023,6,9,9,22,14,185
467.36470,2.85250,-4.49750,0.00000,0.02172,0.97490,-0.20069,2023,6,9,9,22,14,196
467.36480,3.04500,-4.81250,0.00000,0.02562,0.96941,-0.20203,2023,6,9,9,22,14,207
467.36490,2.99250,-4.70750,0.00000,0.02050,0.97210,-0.19971,2023,6,9,9,22,14,218
467.36500,2.87000,-4.63750,0.00000,0.02318,0.97173,-0.19996,2023,6,9,9,22,14,229
467.36510,2.99250,-4.74250,0.00000,0.02135,0.97197,-0.20118,2023,6,9,9,22,14,240
467.36520,2.85250,-4.55000,0.00000,0.02062,0.97197,-0.20130,2023,6,9,9,22,14,252
467.36530,2.80000,-4.62000,0.00000,0.02233,0.97478,-0.20191,2023,6,9,9,22,14,263
467.36540,2.97500,-4.62000,0.00000,0.02135,0.97246,-0.20228,2023,6,9,9,22,14,274
467.36550,2.85250,-4.67250,0.00000,0.02330,0.97405,-0.19813,2023,6,9,9,22,14,285
467.36560,2.85250,-4.69000,0.00000,0.02172,0.97197,-0.20179,2023,6,9,9,22,14,296
467.36570,2.94000,-4.72500,0.00000,0.01976,0.97063,-0.20228,2023,6,9,9,22,14,307
467.36580,2.81750,-4.49750,0.00000,0.02172,0.97197,-0.19996,2023,6,9,9,22,14,318
467.36590,2.69500,-4.56750,0.00000,0.02062,0.96990,-0.20032,2023,6,9,9,22,14,329
467.36600,2.90500,-4.62000,0.00000,0.02269,0.97283,-0.20081,2023,6,9,9,22,14,340
467.36610,2.92250,-4.49750,0.00000,0.02208,0.97246,-0.20130,2023,6,9,9,22,14,352
467.36620,2.85250,-4.81250,0.00000,0.02257,0.97173,-0.20045,2023,6,9,9,22,14,363
467.36630,2.87000,-4.63750,0.00000,0.02245,0.97185,-0.20093,2023,6,9,9,22,14,374
467.36640,2.85250,-4.74250,0.00000,0.02330,0.97161,-0.20142,2023,6,9,9,22,14,385
467.36650,2.92250,-4.67250,0.00000,0.02086,0.97124,-0.20191,2023,6,9,9,22,14,396
467.36660,2.90500,-4.51500,0.00000,0.02123,0.97039,-0.20081,2023,6,9,9,22,14,407
467.36670,2.74750,-4.67250,0.00000,0.01976,0.97002,-0.20106,2023,6,9,9,22,14,418
467.36680,2.94000,-4.63750,0.00000,0.02245,0.97124,-0.20179,2023,6,9,9,22,14,429
467.36690,2.97500,-4.72500,0.00000,0.02135,0.97539,-0.19971,2023,6,9,9,22,14,440
467.36700,2.74750,-4.65500,0.00000,0.02037,0.97124,-0.20106,2023,6,9,9,22,14,452
467.36710,2.97500,-4.83000,0.00000,0.02001,0.97149,-0.20069,2023,6,9,9,22,14,463
467.36720,2.74750,-4.65500,0.00000,0.02013,0.97149,-0.20093,2023,6,9,9,22,14,474
467.36730,2.69500,-4.46250,0.00000,0.02196,0.97149,-0.20276,2023,6,9,9,22,14,485
467.36740,2.97500,-4.69000,0.00000,0.02220,0.97088,-0.20154,2023,6,9,9,22,14,496
467.36750,3.02750,-4.56750,0.00000,0.02086,0.97380,-0.20167,2023,6,9,9,22,14,507
467.36760,2.87000,-4.60250,0.00000,0.02269,0.97258,-0.20215,2023,6,9,9,22,14,518
467.36770,2.99250,-4.76000,0.00000,0.02037,0.97307,-0.20081,2023,6,9,9,22,14,529
467.36780,2.87000,-4.65500,0.00000,0.02184,0.97014,-0.19898,2023,6,9,9,22,14,540
467.36790,2.85250,-4.72500,0.00000,0.02233,0.97222,-0.20167,2023,6,9,9,22,14,552
467.36800,3.13250,-4.62000,0.00000,0.02159,0.97283,-0.20057,2023,6,9,9,22,14,563
467.36810,2.94000,-4.62000,0.00000,0.02281,0.97185,-0.20154,2023,6,9,9,22,14,574
467.36820,2.78250,-4.76000,0.00000,0.02123,0.97124,-0.20093,2023,6,9,9,22,14,585
467.36830,2.95750,-4.60250,0.00000,0.02159,0.97222,-0.20154,2023,6,9,9,22,14,596
467.36840,2.78250,-4.55000,0.00000,0.02098,0.97051,-0.20276,2023,6,9,9,22,14,607
467.36850,3.06250,-4.81250,0.00000,0.02184,0.97088,-0.20374,2023,6,9,9,22,14,618
467.36860,2.76500,-4.37500,0.00000,0.02172,0.97063,-0.20032,2023,6,9,9,22,14,629
467.36870,2.73000,-4.46250,0.00000,0.02342,0.97405,-0.20545,2023,6,9,9,22,14,640
467.36880,2.92250,-4.58500,0.00000,0.02135,0.97258,-0.20447,2023,6,9,9,22,14,652
467.36890,2.83500,-4.81250,0.00000,0.02367,0.97246,-0.20154,2023,6,9,9,22,14,663
467.36900,2.88750,-4.60250,0.00000,0.02184,0.96990,-0.20447,2023,6,9,9,22,14,674
467.36910,2.92250,-4.51500,0.00000,0.02220,0.96941,-0.20191,2023,6,9,9,22,14,685
467.36920,3.01000,-4.53250,0.00000,0.02159,0.97124,-0.20154,2023,6,9,9,22,14,696
467.36930,2.78250,-4.65500,0.00000,0.02208,0.97332,-0.20240,2023,6,9,9,22,14,707
467.36940,2.99250,-4.77750,0.00000,0.02001,0.97149,-0.20203,2023,6,9,9,22,14,718
467.36950,2.78250,-4.86500,0.00000,0.02037,0.97210,-0.20289,2023,6,9,9,22,14,729
467.36960,2.81750,-4.90000,0.00000,0.02245,0.97258,-0.20350,2023,6,9,9,22,14,740
467.36970,2.80000,-4.48000,0.00000,0.02220,0.97051,-0.20496,2023,6,9,9,22,14,752
467.36980,2.64250,-4.79500,0.00000,0.02123,0.97075,-0.20350,2023,6,9,9,22,14,763
467.36990,2.78250,-4.58500,0.00000,0.02184,0.97112,-0.20411,2023,6,9,9,22,14,774
467.37000,2.90500,-4.83000,0.00000,0.02147,0.97332,-0.20484,2023,6,9,9,22,14,785
467.37010,2.87000,-4.62000,0.00000,0.02306,0.97332,-0.20447,2023,6,9,9,22,14,796
467.37020,2.99250,-4.53250,0.00000,0.02391,0.97039,-0.20313,2023,6,9,9,22,14,807
467.37030,2.92250,-4.65500,0.00000,0.02037,0.97161,-0.20398,2023,6,9,9,22,14,818
467.37040,2.94000,-4.76000,0.00000,0.02391,0.97051,-0.20472,2023,6,9,9,22,14,829
467.37050,2.95750,-4.56750,0.00000,0.02074,0.97173,-0.20325,2023,6,9,9,22,14,840
467.37060,2.78250,-4.74250,0.00000,0.02220,0.97161,-0.20228,2023,6,9,9,22,14,852
467.37070,2.78250,-4.51500,0.00000,0.02306,0.97197,-0.20484,2023,6,9,9,22,14,863
467.37080,3.01000,-4.76000,0.00000,0.02306,0.97149,-0.20435,2023,6,9,9,22,14,874
467.37090,2.80000,-4.55000,0.00000,0.02245,0.97063,-0.20228,2023,6,9,9,22,14,885
467.37100,2.94000,-4.58500,0.00000,0.02159,0.96990,-0.20289,2023,6,9,9,22,14,896
467.37110,2.88750,-4.63750,0.00000,0.01989,0.97344,-0.20374,2023,6,9,9,22,14,907
467.37120,2.80000,-4.62000,0.00000,0.02501,0.97063,-0.20325,2023,6,9,9,22,14,918
467.37130,2.85250,-4.63750,0.00000,0.02123,0.97124,-0.20362,2023,6,9,9,22,14,929
467.37140,2.85250,-4.72500,0.00000,0.02025,0.97088,-0.20411,2023,6,9,9,22,14,940
467.37150,2.90500,-4.74250,0.00000,0.02147,0.97197,-0.20398,2023,6,9,9,22,14,952
467.37160,2.94000,-4.72500,0.00000,0.02355,0.97210,-0.20716,2023,6,9,9,22,14,963
467.37170,2.95750,-4.72500,0.00000,0.02123,0.97380,-0.20557,2023,6,9,9,22,14,974
467.37180,2.97500,-4.53250,0.00000,0.02111,0.97283,-0.20350,2023,6,9,9,22,14,985
467.37190,2.88750,-4.72500,0.00000,0.02111,0.96941,-0.20594,2023,6,9,9,22,14,996
467.37200,2.88750,-4.69000,0.00000,0.02220,0.97234,-0.20484,2023,6,9,9,22,14,7
467.37210,2.87000,-4.60250,0.00000,0.02074,0.97234,-0.20594,2023,6,9,9,22,15,8
467.37220,2.85250,-4.63750,0.00000,0.02342,0.97271,-0.20484,2023,6,9,9,22,15,19
467.37230,2.81750,-4.58500,0.00000,0.02159,0.97161,-0.20362,2023,6,9,9,22,15,30
467.37240,2.92250,-4.69000,0.00000,0.02074,0.97393,-0.20435,2023,6,9,9,22,15,42
467.37250,2.87000,-4.74250,0.00000,0.02025,0.97075,-0.20398,2023,6,9,9,22,15,53
467.37260,2.80000,-4.49750,0.00000,0.02330,0.97088,-0.20472,2023,6,9,9,22,15,64
467.37270,2.76500,-4.76000,0.00000,0.02269,0.97344,-0.20215,2023,6,9,9,22,15,75
467.37280,2.80000,-4.69000,0.00000,0.02086,0.96953,-0.20447,2023,6,9,9,22,15,86
467.37290,2.83500,-4.51500,0.00000,0.02074,0.97307,-0.20276,2023,6,9,9,22,15,97
467.37300,2.99250,-4.62000,0.00000,0.02147,0.97112,-0.20215,2023,6,9,9,22,15,108
467.37310,2.95750,-4.69000,0.00000,0.02233,0.97161,-0.20191,2023,6,9,9,22,15,119
467.37320,3.02750,-4.79500,0.00000,0.02196,0.97014,-0.20252,2023,6,9,9,22,15,130
467.37330,2.83500,-4.42750,0.00000,0.02123,0.97039,-0.20081,2023,6,9,9,22,15,142
467.37340,2.62500,-4.58500,0.00000,0.02281,0.97161,-0.20154,2023,6,9,9,22,15,153
467.37350,2.83500,-4.55000,0.00000,0.02135,0.97173,-0.20203,2023,6,9,9,22,15,164
467.37360,2.92250,-4.81250,0.00000,0.02196,0.97307,-0.20276,2023,6,9,9,22,15,175
467.37370,2.88750,-4.69000,0.00000,0.02172,0.97307,-0.20411,2023,6,9,9,22,15,186
467.37380,2.74750,-4.63750,0.00000,0.02025,0.97161,-0.20142,2023,6,9,9,22,15,197
467.37390,2.83500,-4.72500,0.00000,0.02135,0.97246,-0.20215,2023,6,9,9,22,15,208
467.37400,2.97500,-4.69000,0.00000,0.02074,0.97197,-0.20325,2023,6,9,9,22,15,219
467.37410,2.80000,-4.67250,0.00000,0.02184,0.97246,-0.20045,2023,6,9,9,22,15,230
467.37420,2.83500,-4.60250,0.00000,0.02281,0.97210,-0.20313,2023,6,9,9,22,15,242
467.37430,2.78250,-4.72500,0.00000,0.02245,0.97014,-0.20240,2023,6,9,9,22,15,253
467.37440,2.97500,-4.72500,0.00000,0.02123,0.97295,-0.20142,2023,6,9,9,22,15,264
467.37450,2.94000,-4.62000,0.00000,0.02062,0.97258,-0.20020,2023,6,9,9,22,15,275
467.37460,2.88750,-4.79500,0.00000,0.02147,0.97149,-0.20362,2023,6,9,9,22,15,286
467.37470,2.92250,-4.62000,0.00000,0.02111,0.97356,-0.20313,2023,6,9,9,22,15,297
467.37480,2.85250,-4.70750,0.00000,0.02257,0.97356,-0.20215,2023,6,9,9,22,15,308
467.37490,2.87000,-4.60250,0.00000,0.02135,0.97185,-0.20142,2023,6,9,9,22,15,319
467.37500,2.99250,-4.76000,0.00000,0.02062,0.97112,-0.20228,2023,6,9,9,22,15,330
467.37510,2.80000,-4.67250,0.00000,0.02184,0.97173,-0.20069,2023,6,9,9,22,15,342
467.37520,2.90500,-4.63750,0.00000,0.02086,0.97173,-0.20179,2023,6,9,9,22,15,353
467.37530,2.81750,-4.74250,0.00000,0.02245,0.97173,-0.20264,2023,6,9,9,22,15,364
467.37540,2.69500,-4.60250,0.00000,0.02086,0.97332,-0.20276,2023,6,9,9,22,15,375
467.37550,2.76500,-4.58500,0.00000,0.02269,0.97185,-0.20069,2023,6,9,9,22,15,386
467.37560,2.94000,-4.65500,0.00000,0.02220,0.97173,-0.20447,2023,6,9,9,22,15,397
467.37570,3.01000,-4.65500,0.00000,0.02098,0.97246,-0.20252,2023,6,9,9,22,15,408
467.37580,2.67750,-4.60250,0.00000,0.02098,0.97063,-0.20337,2023,6,9,9,22,15,419
467.37590,2.90500,-4.74250,0.00000,0.02330,0.97258,-0.20252,2023,6,9,9,22,15,430
467.37600,3.02750,-4.76000,0.00000,0.02220,0.97234,-0.20289,2023,6,9,9,22,15,442
467.37610,2.90500,-4.88250,0.00000,0.02269,0.97136,-0.20093,2023,6,9,9,22,15,453
467.37620,2.90500,-4.49750,0.00000,0.02074,0.97149,-0.20215,2023,6,9,9,22,15,464
467.37630,2.81750,-4.48000,0.00000,0.02037,0.97185,-0.20215,2023,6,9,9,22,15,475
467.37640,3.08000,-4.95250,0.00000,0.02062,0.97088,-0.20423,2023,6,9,9,22,15,486
467.37650,2.87000,-4.67250,0.00000,0.02403,0.97173,-0.20228,2023,6,9,9,22,15,497
467.37660,2.73000,-4.77750,0.00000,0.02086,0.97039,-0.19959,2023,6,9,9,22,15,508
467.37670,2.78250,-4.63750,0.00000,0.02269,0.97136,-0.20008,2023,6,9,9,22,15,519
467.37680,2.87000,-4.49750,0.00000,0.02147,0.97173,-0.20215,2023,6,9,9,22,15,530
467.37690,2.85250,-4.58500,0.00000,0.02355,0.97197,-0.20362,2023,6,9,9,22,15,542
467.37700,2.81750,-4.79500,0.00000,0.02245,0.97014,-0.20289,2023,6,9,9,22,15,553
467.37710,2.80000,-4.69000,0.00000,0.02147,0.97295,-0.19971,2023,6,9,9,22,15,564
467.37720,2.88750,-4.55000,0.00000,0.02306,0.97563,-0.20142,2023,6,9,9,22,15,575
467.37730,2.95750,-4.62000,0.00000,0.02147,0.97088,-0.20203,2023,6,9,9,22,15,586
467.37740,2.95750,-4.58500,0.00000,0.02098,0.97283,-0.20215,2023,6,9,9,22,15,597
467.37750,2.92250,-4.65500,0.00000,0.02208,0.97454,-0.20008,2023,6,9,9,22,15,608
467.37760,2.64250,-4.56750,0.00000,0.02159,0.97063,-0.20179,2023,6,9,9,22,15,619
467.37770,2.87000,-4.70750,0.00000,0.02379,0.97222,-0.20240,2023,6,9,9,22,15,630
467.37780,2.87000,-4.77750,0.00000,0.02135,0.97441,-0.20045,2023,6,9,9,22,15,642
467.37790,2.90500,-4.84750,0.00000,0.01976,0.97197,-0.20191,2023,6,9,9,22,15,653
467.37800,2.73000,-4.67250,0.00000,0.02172,0.97149,-0.20118,2023,6,9,9,22,15,664
467.37810,2.99250,-4.65500,0.00000,0.02135,0.97185,-0.20069,2023,6,9,9,22,15,675
467.37820,2.81750,-4.63750,0.00000,0.01915,0.97283,-0.20020,2023,6,9,9,22,15,686
467.37830,2.92250,-4.65500,0.00000,0.02074,0.97222,-0.20252,2023,6,9,9,22,15,697
467.37840,2.94000,-4.65500,0.00000,0.02098,0.97161,-0.20374,2023,6,9,9,22,15,708
467.37850,2.87000,-4.74250,0.00000,0.02367,0.97185,-0.20203,2023,6,9,9,22,15,719
467.37860,3.08000,-4.70750,0.00000,0.02294,0.97283,-0.20191,2023,6,9,9,22,15,730
467.37870,2.73000,-4.70750,0.00000,0.02123,0.97149,-0.20350,2023,6,9,9,22,15,742
467.37880,2.76500,-4.56750,0.00000,0.02318,0.97161,-0.20228,2023,6,9,9,22,15,753
467.37890,2.80000,-4.55000,0.00000,0.02281,0.97222,-0.20167,2023,6,9,9,22,15,764
467.37900,2.97500,-4.70750,0.00000,0.02062,0.97149,-0.19874,2023,6,9,9,22,15,775
467.37910,3.01000,-4.67250,0.00000,0.02294,0.97197,-0.20081,2023,6,9,9,22,15,786
467.37920,3.06250,-4.51500,0.00000,0.02086,0.97234,-0.20276,2023,6,9,9,22,15,797
467.37930,3.04500,-4.63750,0.00000,0.02172,0.97173,-0.20093,2023,6,9,9,22,15,808
467.37940,2.87000,-4.76000,0.00000,0.02269,0.97246,-0.20057,2023,6,9,9,22,15,819
467.37950,2.95750,-4.67250,0.00000,0.02074,0.97429,-0.20203,2023,6,9,9,22,15,830
467.37960,2.83500,-4.49750,0.00000,0.02147,0.97258,-0.19886,2023,6,9,9,22,15,842
467.37970,2.92250,-4.77750,0.00000,0.01940,0.97088,-0.20069,2023,6,9,9,22,15,853
467.37980,3.06250,-4.63750,0.00000,0.02147,0.97271,-0.20264,2023,6,9,9,22,15,864
467.37990,2.92250,-4.69000,0.00000,0.02233,0.97271,-0.20130,2023,6,9,9,22,15,875
467.38000,2.62500,-4.67250,0.00000,0.02306,0.97197,-0.20106,2023,6,9,9,22,15,886
467.38010,2.92250,-4.58500,0.00000,0.02025,0.97075,-0.20069,2023,6,9,9,22,15,897
467.38020,2.94000,-4.69000,0.00000,0.02294,0.97185,-0.20020,2023,6,9,9,22,15,908
467.38030,2.80000,-4.53250,0.00000,0.02050,0.96892,-0.20191,2023,6,9,9,22,15,919
467.38040,2.95750,-4.69000,0.00000,0.02379,0.97149,-0.20045,2023,6,9,9,22,15,930
467.38050,2.80000,-4.41000,0.00000,0.02208,0.97149,-0.19996,2023,6,9,9,22,15,942
467.38060,2.95750,-4.56750,0.00000,0.02294,0.97088,-0.20203,2023,6,9,9,22,15,953
467.38070,2.64250,-4.48000,0.00000,0.02196,0.97149,-0.20215,2023,6,9,9,22,15,964
467.38080,2.80000,-4.46250,0.00000,0.02208,0.97246,-0.20191,2023,6,9,9,22,15,975
467.38090,2.76500,-4.51500,0.00000,0.02086,0.97100,-0.20142,2023,6,9,9,22,15,986
467.38100,2.76500,-4.62000,0.00000,0.02489,0.97441,-0.20118,2023,6,9,9,22,16,7
467.38110,2.85250,-4.53250,0.00000,0.02135,0.97088,-0.20252,2023,6,9,9,22,16,18
467.38120,2.81750,-4.62000,0.00000,0.02098,0.96953,-0.19862,2023,6,9,9,22,16,29
467.38130,2.80000,-4.55000,0.00000,0.02159,0.96831,-0.19971,2023,6,9,9,22,16,40
467.38140,2.88750,-4.48000,0.00000,0.02416,0.97332,-0.20057,2023,6,9,9,22,16,52
467.38150,2.81750,-4.62000,0.00000,0.02281,0.97075,-0.20045,2023,6,9,9,22,16,63
467.38160,3.01000,-4.67250,0.00000,0.02233,0.97295,-0.19984,2023,6,9,9,22,16,74
467.38170,2.74750,-4.67250,0.00000,0.02098,0.97124,-0.20240,2023,6,9,9,22,16,85
467.38180,2.85250,-4.69000,0.00000,0.02257,0.96880,-0.20228,2023,6,9,9,22,16,96
467.38190,2.99250,-4.62000,0.00000,0.02111,0.97234,-0.20240,2023,6,9,9,22,16,107
467.38200,2.88750,-4.48000,0.00000,0.02269,0.97075,-0.19813,2023,6,9,9,22,16,118
467.38210,2.83500,-4.81250,0.00000,0.02074,0.97161,-0.20032,2023,6,9,9,22,16,129
467.38220,2.88750,-4.72500,0.00000,0.02123,0.97197,-0.20228,2023,6,9,9,22,16,140
467.38230,2.95750,-4.56750,0.00000,0.01976,0.97161,-0.20240,2023,6,9,9,22,16,152
467.38240,2.71250,-4.62000,0.00000,0.02233,0.97258,-0.19825,2023,6,9,9,22,16,163
467.38250,2.88750,-4.56750,0.00000,0.02330,0.97271,-0.20106,2023,6,9,9,22,16,174
467.38260,2.87000,-4.70750,0.00000,0.02086,0.97283,-0.19971,2023,6,9,9,22,16,185
467.38270,2.76500,-4.67250,0.00000,0.02184,0.96844,-0.20106,2023,6,9,9,22,16,196
467.38280,2.99250,-4.44500,0.00000,0.02184,0.96966,-0.20093,2023,6,9,9,22,16,207
467.38290,3.01000,-4.63750,0.00000,0.02025,0.97283,-0.20203,2023,6,9,9,22,16,218
467.38300,2.83500,-4.56750,0.00000,0.02135,0.97197,-0.20118,2023,6,9,9,22,16,229
467.38310,2.99250,-4.58500,0.00000,0.02233,0.97307,-0.19874,2023,6,9,9,22,16,240
467.38320,2.83500,-4.72500,0.00000,0.02001,0.97319,-0.19984,2023,6,9,9,22,16,252
467.38330,2.74750,-4.91750,0.00000,0.02159,0.97368,-0.20093,2023,6,9,9,22,16,263
467.38340,2.92250,-4.74250,0.00000,0.02159,0.97149,-0.20191,2023,6,9,9,22,16,274
467.38350,2.87000,-4.53250,0.00000,0.01964,0.97307,-0.19874,2023,6,9,9,22,16,285
467.38360,2.87000,-4.56750,0.00000,0.02147,0.97185,-0.20069,2023,6,9,9,22,16,296
467.38370,2.76500,-4.58500,0.00000,0.02147,0.97502,-0.20081,2023,6,9,9,22,16,307
467.38380,2.95750,-4.74250,0.00000,0.02172,0.97222,-0.20057,2023,6,9,9,22,16,318
467.38390,2.92250,-4.51500,0.00000,0.02355,0.97210,-0.20032,2023,6,9,9,22,16,329
467.38400,2.83500,-4.56750,0.00000,0.01940,0.97088,-0.19886,2023,6,9,9,22,16,340
467.38410,2.81750,-4.63750,0.00000,0.02086,0.97295,-0.19898,2023,6,9,9,22,16,352
467.38420,2.92250,-4.63750,0.00000,0.02269,0.97173,-0.19947,2023,6,9,9,22,16,363
467.38430,2.88750,-4.53250,0.00000,0.02086,0.97405,-0.20154,2023,6,9,9,22,16,374
467.38440,2.88750,-4.58500,0.00000,0.02159,0.97405,-0.20215,2023,6,9,9,22,16,385
467.38450,2.88750,-4.65500,0.00000,0.02172,0.97027,-0.19996,2023,6,9,9,22,16,396
467.38460,2.95750,-4.74250,0.00000,0.02330,0.97271,-0.20057,2023,6,9,9,22,16,407
467.38470,2.95750,-4.60250,0.00000,0.02220,0.97136,-0.20179,2023,6,9,9,22,16,418
467.38480,2.85250,-4.49750,0.00000,0.02330,0.97210,-0.20191,2023,6,9,9,22,16,429
467.38490,2.80000,-4.74250,0.00000,0.02281,0.97283,-0.20264,2023,6,9,9,22,16,440
467.38500,2.85250,-4.77750,0.00000,0.02220,0.97271,-0.20142,2023,6,9,9,22,16,452
467.38510,2.64250,-4.63750,0.00000,0.02050,0.97088,-0.20093,2023,6,9,9,22,16,463
467.38520,2.81750,-4.67250,0.00000,0.02111,0.97258,-0.20313,2023,6,9,9,22,16,474
467.38530,2.81750,-4.56750,0.00000,0.02294,0.97027,-0.20179,2023,6,9,9,22,16,485
467.38540,2.78250,-4.67250,0.00000,0.02001,0.97039,-0.20301,2023,6,9,9,22,16,496
467.38550,2.90500,-4.79500,0.00000,0.02074,0.97441,-0.20093,2023,6,9,9,22,16,507
467.38560,2.83500,-4.70750,0.00000,0.02330,0.97490,-0.20093,2023,6,9,9,22,16,518
467.38570,2.78250,-4.39250,0.00000,0.02355,0.97002,-0.20215,2023,6,9,9,22,16,529
467.38580,3.02750,-4.55000,0.00000,0.02123,0.97051,-0.19984,2023,6,9,9,22,16,540
467.38590,2.81750,-4.81250,0.00000,0.02318,0.97149,-0.20215,2023,6,9,9,22,16,552
467.38600,2.95750,-4.70750,0.00000,0.02062,0.97149,-0.19984,2023,6,9,9,22,16,563
467.38610,2.99250,-4.74250,0.00000,0.02257,0.97319,-0.20179,2023,6,9,9,22,16,574
467.38620,2.92250,-4.42750,0.00000,0.02184,0.97283,-0.20240,2023,6,9,9,22,16,585
467.38630,2.71250,-4.55000,0.00000,0.02367,0.97136,-0.20264,2023,6,9,9,22,16,596
467.38640,2.94000,-4.72500,0.00000,0.01976,0.97429,-0.20215,2023,6,9,9,22,16,607
467.38650,2.88750,-4.76000,0.00000,0.02098,0.97173,-0.20081,2023,6,9,9,22,16,618
467.38660,2.95750,-4.55000,0.00000,0.02123,0.97185,-0.20240,2023,6,9,9,22,16,629
467.38670,2.80000,-4.70750,0.00000,0.01976,0.97100,-0.19971,2023,6,9,9,22,16,640
467.38680,2.87000,-4.58500,0.00000,0.01976,0.97332,-0.19935,2023,6,9,9,22,16,652
467.38690,2.85250,-4.56750,0.00000,0.02196,0.97149,-0.20069,2023,6,9,9,22,16,663
467.38700,2.73000,-4.41000,0.00000,0.02220,0.97112,-0.20203,2023,6,9,9,22,16,674
467.38710,2.80000,-4.67250,0.00000,0.02098,0.97234,-0.19862,2023,6,9,9,22,16,685
467.38720,2.90500,-4.65500,0.00000,0.02074,0.97210,-0.20106,2023,6,9,9,22,16,696
467.38730,2.71250,-4.53250,0.00000,0.01976,0.97124,-0.20215,2023,6,9,9,22,16,707
467.38740,2.87000,-4.60250,0.00000,0.02257,0.97271,-0.19947,2023,6,9,9,22,16,718
467.38750,2.83500,-4.53250,0.00000,0.02196,0.97258,-0.20228,2023,6,9,9,22,16,729
467.38760,2.81750,-4.62000,0.00000,0.02159,0.97063,-0.20069,2023,6,9,9,22,16,740
467.38770,3.04500,-4.65500,0.00000,0.02159,0.97466,-0.20081,2023,6,9,9,22,16,752
467.38780,2.95750,-4.69000,0.00000,0.01952,0.97088,-0.20081,2023,6,9,9,22,16,763
467.38790,2.97500,-4.83000,0.00000,0.02062,0.97149,-0.20069,2023,6,9,9,22,16,774
467.38800,2.74750,-4.53250,0.00000,0.02111,0.97027,-0.20081,2023,6,9,9,22,16,785
467.38810,3.01000,-4.58500,0.00000,0.02233,0.97088,-0.20289,2023,6,9,9,22,16,796
467.38820,2.78250,-4.60250,0.00000,0.02245,0.97112,-0.19959,2023,6,9,9,22,16,807
467.38830,2.97500,-4.88250,0.00000,0.02257,0.97393,-0.20093,2023,6,9,9,22,16,818
467.38840,2.90500,-4.62000,0.00000,0.02111,0.97271,-0.20215,2023,6,9,9,22,16,829
467.38850,3.02750,-4.60250,0.00000,0.02074,0.97161,-0.20167,2023,6,9,9,22,16,840
467.38860,3.02750,-4.62000,0.00000,0.02062,0.97149,-0.19886,2023,6,9,9,22,16,852
467.38870,2.97500,-4.65500,0.00000,0.02281,0.97124,-0.20215,2023,6,9,9,22,16,863
467.38880,3.01000,-4.74250,0.00000,0.01976,0.97027,-0.20228,2023,6,9,9,22,16,874
467.38890,2.78250,-4.53250,0.00000,0.02318,0.97295,-0.20118,2023,6,9,9,22,16,885
467.38900,2.74750,-4.56750,0.00000,0.02220,0.97124,-0.20118,2023,6,9,9,22,16,896
467.38910,2.85250,-4.67250,0.00000,0.02037,0.97307,-0.20069,2023,6,9,9,22,16,907
467.38920,2.90500,-4.49750,0.00000,0.02062,0.97185,-0.20191,2023,6,9,9,22,16,918
467.38930,2.94000,-4.81250,0.00000,0.02123,0.97161,-0.20057,2023,6,9,9,22,16,929
467.38940,3.06250,-4.72500,0.00000,0.02147,0.97100,-0.20093,2023,6,9,9,22,16,940
467.38950,2.94000,-4.62000,0.00000,0.02111,0.97185,-0.20142,2023,6,9,9,22,16,952
467.38960,3.16750,-4.62000,0.00000,0.02196,0.97246,-0.20057,2023,6,9,9,22,16,963
467.38970,2.55500,-4.53250,0.00000,0.02318,0.97149,-0.20045,2023,6,9,9,22,16,974
467.38980,2.83500,-4.72500,0.00000,0.02013,0.96880,-0.20020,2023,6,9,9,22,16,985
467.38990,2.80000,-4.65500,0.00000,0.02245,0.97222,-0.19959,2023,6,9,9,22,16,996
467.39000,2.81750,-4.69000,0.00000,0.02098,0.97100,-0.20142,2023,6,9,9,22,16,7
467.39010,2.88750,-4.49750,0.00000,0.02367,0.97234,-0.20106,2023,6,9,9,22,17,8
467.39020,2.90500,-4.42750,0.00000,0.02220,0.97185,-0.20081,2023,6,9,9,22,17,19
467.39030,2.83500,-4.62000,0.00000,0.02281,0.97319,-0.19923,2023,6,9,9,22,17,30
467.39040,2.92250,-4.62000,0.00000,0.02196,0.97246,-0.20142,2023,6,9,9,22,17,42
467.39050,2.94000,-4.63750,0.00000,0.02086,0.97088,-0.20252,2023,6,9,9,22,17,53
467.39060,2.83500,-4.60250,0.00000,0.02233,0.97149,-0.20118,2023,6,9,9,22,17,64
467.39070,2.94000,-4.62000,0.00000,0.02355,0.97112,-0.20228,2023,6,9,9,22,17,75
467.39080,2.85250,-4.70750,0.00000,0.02135,0.97185,-0.20069,2023,6,9,9,22,17,86
467.39090,3.06250,-4.65500,0.00000,0.02172,0.97124,-0.20264,2023,6,9,9,22,17,97
467.39100,2.76500,-4.58500,0.00000,0.02147,0.97051,-0.20032,2023,6,9,9,22,17,108
467.39110,2.97500,-4.65500,0.00000,0.02013,0.97307,-0.20106,2023,6,9,9,22,17,119
467.39120,2.80000,-4.60250,0.00000,0.02001,0.97246,-0.20118,2023,6,9,9,22,17,130
467.39130,2.78250,-4.60250,0.00000,0.02098,0.97173,-0.20118,2023,6,9,9,22,17,142
467.39140,2.99250,-4.72500,0.00000,0.02452,0.97356,-0.20215,2023,6,9,9,22,17,153
467.39150,2.92250,-4.65500,0.00000,0.02233,0.97088,-0.19984,2023,6,9,9,22,17,164
467.39160,2.83500,-4.62000,0.00000,0.02269,0.97210,-0.20032,2023,6,9,9,22,17,175
467.39170,2.85250,-4.67250,0.00000,0.02330,0.97063,-0.20093,2023,6,9,9,22,17,186
467.39180,2.78250,-4.60250,0.00000,0.02440,0.97429,-0.19971,2023,6,9,9,22,17,197
467.39190,3.01000,-4.65500,0.00000,0.02294,0.97136,-0.20203,2023,6,9,9,22,17,208
467.39200,2.99250,-4.62000,0.00000,0.01989,0.97185,-0.19886,2023,6,9,9,22,17,219
467.39210,2.88750,-4.76000,0.00000,0.02416,0.97271,-0.20154,2023,6,9,9,22,17,230
467.39220,2.87000,-4.56750,0.00000,0.02159,0.97149,-0.19813,2023,6,9,9,22,17,242
467.39230,2.90500,-4.79500,0.00000,0.02098,0.97161,-0.20008,2023,6,9,9,22,17,253
467.39240,2.71250,-4.60250,0.00000,0.02025,0.97344,-0.19923,2023,6,9,9,22,17,264
467.39250,2.85250,-4.51500,0.00000,0.02147,0.97039,-0.19825,2023,6,9,9,22,17,275
467.39260,2.95750,-4.77750,0.00000,0.02159,0.97173,-0.19874,2023,6,9,9,22,17,286
467.39270,2.78250,-4.65500,0.00000,0.02086,0.97014,-0.20203,2023,6,9,9,22,17,297
467.39280,2.78250,-4.72500,0.00000,0.02208,0.97319,-0.20069,2023,6,9,9,22,17,308
467.39290,2.90500,-4.48000,0.00000,0.02172,0.97161,-0.20350,2023,6,9,9,22,17,319
467.39300,2.92250,-4.60250,0.00000,0.02111,0.97185,-0.20069,2023,6,9,9,22,17,330
467.39310,2.92250,-4.62000,0.00000,0.02318,0.97039,-0.19959,2023,6,9,9,22,17,342
467.39320,2.85250,-4.41000,0.00000,0.01952,0.97417,-0.19971,2023,6,9,9,22,17,353
467.39330,2.88750,-4.55000,0.00000,0.02196,0.97197,-0.19727,2023,6,9,9,22,17,364
467.39340,2.78250,-4.81250,0.00000,0.02086,0.97112,-0.20008,2023,6,9,9,22,17,375
467.39350,2.95750,-4.63750,0.00000,0.02245,0.97100,-0.20167,2023,6,9,9,22,17,386
467.39360,2.80000,-4.56750,0.00000,0.02233,0.97112,-0.20032,2023,6,9,9,22,17,397
467.39370,2.88750,-4.67250,0.00000,0.02184,0.97307,-0.20032,2023,6,9,9,22,17,408
467.39380,2.90500,-4.63750,0.00000,0.02050,0.96953,-0.20045,2023,6,9,9,22,17,419
467.39390,2.95750,-4.65500,0.00000,0.02074,0.97307,-0.19935,2023,6,9,9,22,17,430
467.39400,2.81750,-4.69000,0.00000,0.02330,0.97088,-0.20179,2023,6,9,9,22,17,442
467.39410,2.94000,-4.69000,0.00000,0.02355,0.97295,-0.20289,2023,6,9,9,22,17,453
467.39420,3.01000,-4.67250,0.00000,0.02233,0.97332,-0.20191,2023,6,9,9,22,17,464
467.39430,2.81750,-4.48000,0.00000,0.02159,0.97258,-0.20142,2023,6,9,9,22,17,475
467.39440,2.64250,-4.70750,0.00000,0.02098,0.97258,-0.19874,2023,6,9,9,22,17,486
467.39450,2.83500,-4.63750,0.00000,0.02086,0.97222,-0.19971,2023,6,9,9,22,17,497
467.39460,3.01000,-4.51500,0.00000,0.02184,0.97222,-0.20167,2023,6,9,9,22,17,508
467.39470,2.73000,-4.69000,0.00000,0.02013,0.97429,-0.19996,2023,6,9,9,22,17,519
467.39480,3.01000,-4.69000,0.00000,0.02367,0.97234,-0.20264,2023,6,9,9,22,17,530
467.39490,2.99250,-4.60250,0.00000,0.02294,0.97014,-0.20020,2023,6,9,9,22,17,542
467.39500,2.73000,-4.53250,0.00000,0.02367,0.97295,-0.20130,2023,6,9,9,22,17,553
467.39510,2.97500,-4.62000,0.00000,0.02159,0.97210,-0.20264,2023,6,9,9,22,17,564
467.39520,2.90500,-4.79500,0.00000,0.02111,0.97051,-0.20081,2023,6,9,9,22,17,575
467.39530,2.67750,-4.69000,0.00000,0.02086,0.97356,-0.19825,2023,6,9,9,22,17,586
467.39540,3.79750,-4.91750,0.00000,0.02245,0.97295,-0.19605,2023,6,9,9,22,17,597
467.39550,8.03250,-16.39750,0.00000,0.02916,0.97051,-0.19459,2023,6,9,9,22,17,608
467.39560,-1.10250,-12.72250,0.00000,0.02172,0.96722,-0.20447,2023,6,9,9,22,17,619
467.39570,1.76750,-9.62500,0.00000,0.02123,0.97612,-0.15165,2023,6,9,9,22,17,630
467.39580,8.92500,-2.06500,0.00000,0.04380,0.98832,-0.25205,2023,6,9,9,22,17,642
467.39590,-3.86750,0.38500,0.00000,0.02245,1.00052,-0.10919,2023,6,9,9,22,17,653
467.39600,6.16000,3.04500,0.00000,0.04209,1.03273,-0.24132,2023,6,9,9,22,17,664
467.39610,-1.26000,-0.98000,0.00000,0.00329,1.03956,-0.19666,2023,6,9,9,22,17,675
467.39620,5.16250,-6.68500,0.00000,0.03819,0.97612,-0.22265,2023,6,9,9,22,17,686
467.39630,2.76500,-9.87000,0.00000,0.01488,0.97905,-0.18800,2023,6,9,9,22,17,697
467.39640,-1.31250,-7.36750,0.00000,0.01513,0.97978,-0.19984,2023,6,9,9,22,17,708
467.39650,5.98500,-3.32500,0.00000,0.03099,0.93281,-0.18800,2023,6,9,9,22,17,719
467.39660,5.53000,-4.30500,0.00000,0.03758,0.97075,-0.28145,2023,6,9,9,22,17,730
467.39670,4.14750,-8.17250,0.00000,0.01915,0.97027,-0.19264,2023,6,9,9,22,17,742
467.39680,2.34500,-8.66250,0.00000,0.02635,0.97332,-0.20472,2023,6,9,9,22,17,753
467.39690,1.26000,-7.80500,0.00000,0.02037,0.97222,-0.21069,2023,6,9,9,22,17,764
467.39700,3.62250,-7.71750,0.00000,0.02001,0.97197,-0.20289,2023,6,9,9,22,17,775
467.39710,2.31000,-6.58000,0.00000,0.01818,0.97271,-0.19227,2023,6,9,9,22,17,786
467.39720,-0.68250,-3.01000,0.00000,0.02513,0.98259,-0.15348,2023,6,9,9,22,17,797
467.39730,7.35000,2.64250,0.00000,0.03074,0.97551,-0.22411,2023,6,9,9,22,17,808
467.39740,2.66000,1.92500,0.00000,0.00512,0.95160,-0.18520,2023,6,9,9,22,17,819
467.39750,1.47000,-4.35750,0.00000,0.02025,0.96831,-0.22131,2023,6,9,9,22,17,830
467.39760,2.22250,-4.55000,0.00000,0.01891,0.97124,-0.20252,2023,6,9,9,22,17,842
467.39770,2.13500,-4.49750,0.00000,0.02306,0.97234,-0.19898,2023,6,9,9,22,17,853
467.39780,1.78500,-3.97250,0.00000,0.02281,0.97356,-0.20106,2023,6,9,9,22,17,864
467.39790,2.18750,-3.90250,0.00000,0.02098,0.97283,-0.20008,2023,6,9,9,22,17,875
467.39800,2.64250,-3.85000,0.00000,0.01183,0.97234,-0.20081,2023,6,9,9,22,17,886
467.39810,2.71250,-3.86750,0.00000,0.01976,0.97063,-0.19959,2023,6,9,9,22,17,897
467.39820,1.62750,-4.00750,0.00000,0.02965,0.97234,-0.20167,2023,6,9,9,22,17,908
467.39830,2.78250,-4.44500,0.00000,0.02147,0.97429,-0.19630,2023,6,9,9,22,17,919
467.39840,3.02750,-4.51500,0.00000,0.02428,0.97283,-0.20435,2023,6,9,9,22,17,930
467.39850,3.08000,-4.70750,0.00000,0.02098,0.96990,-0.20020,2023,6,9,9,22,17,942
467.39860,2.76500,-4.56750,0.00000,0.02086,0.97185,-0.19520,2023,6,9,9,22,17,953
467.39870,3.60500,-3.65750,0.00000,0.02111,0.97112,-0.19605,2023,6,9,9,22,17,964
467.39880,2.60750,-4.56750,0.00000,0.02184,0.97173,-0.18642,2023,6,9,9,22,17,975
467.39890,3.85000,-0.57750,0.00000,0.02940,0.97332,-0.20008,2023,6,9,9,22,17,986
467.39900,2.83500,-4.88250,0.00000,0.02391,0.97319,-0.19581,2023,6,9,9,22,18,7
467.39910,2.83500,-4.58500,0.00000,0.02416,0.97185,-0.20008,2023,6,9,9,22,18,18
467.39920,2.76500,-4.67250,0.00000,0.02135,0.97307,-0.19910,2023,6,9,9,22,18,29
467.39930,2.71250,-4.70750,0.00000,0.02184,0.97210,-0.19971,2023,6,9,9,22,18,40
467.39940,2.81750,-4.77750,0.00000,0.02062,0.97136,-0.19703,2023,6,9,9,22,18,52
467.39950,2.85250,-4.53250,0.00000,0.02147,0.97307,-0.19874,2023,6,9,9,22,18,63
467.39960,2.76500,-4.48000,0.00000,0.02159,0.97161,-0.20045,2023,6,9,9,22,18,74
467.39970,2.80000,-4.46250,0.00000,0.02233,0.97356,-0.20264,2023,6,9,9,22,18,85
467.39980,2.88750,-4.41000,0.00000,0.02220,0.97161,-0.20167,2023,6,9,9,22,18,96
467.39990,2.71250,-4.72500,0.00000,0.02281,0.97258,-0.20008,2023,6,9,9,22,18,107
467.40000,2.78250,-4.69000,0.00000,0.02159,0.97332,-0.19886,2023,6,9,9,22,18,118
467.40010,3.16750,-4.72500,0.00000,0.01989,0.97124,-0.19862,2023,6,9,9,22,18,129
467.40020,2.85250,-4.56750,0.00000,0.02257,0.97051,-0.19935,2023,6,9,9,22,18,140
467.40030,3.04500,-4.83000,0.00000,0.02342,0.97075,-0.20276,2023,6,9,9,22,18,152
467.40040,2.88750,-4.74250,0.00000,0.02147,0.97271,-0.20020,2023,6,9,9,22,18,163
467.40050,2.81750,-4.79500,0.00000,0.02147,0.97417,-0.20020,2023,6,9,9,22,18,174
467.40060,3.18500,-4.91750,0.00000,0.02416,0.96856,-0.20154,2023,6,9,9,22,18,185
467.40070,2.90500,-4.69000,0.00000,0.02172,0.97368,-0.19984,2023,6,9,9,22,18,196
467.40080,2.92250,-4.62000,0.00000,0.02367,0.97429,-0.19971,2023,6,9,9,22,18,207
#2023/06/09 09:23:30
