#2023/06/09 12:19:52
time,wx,wy,wz,ax,ay,az,yy,MM,dd,hh,mm,ss,ms
0.00000,2.76500,-4.62000,0.00000,0.00195,0.96783,-0.22680,2023,6,9,12,19,52,592
0.00010,2.66000,-4.70750,0.00000,0.00171,0.96453,-0.22180,2023,6,9,12,19,52,603
0.00020,2.71250,-4.46250,0.00000,0.00207,0.96722,-0.22655,2023,6,9,12,19,52,614
0.00030,2.95750,-4.70750,0.00000,0.00134,0.96868,-0.22851,2023,6,9,12,19,52,625
0.00040,2.80000,-4.84750,0.00000,0.00073,0.96502,-0.22436,2023,6,9,12,19,52,636
0.00050,2.81750,-4.62000,0.00000,0.00329,0.96831,-0.22838,2023,6,9,12,19,52,647
0.00060,2.81750,-4.74250,0.00000,0.00342,0.96758,-0.22936,2023,6,9,12,19,52,658
0.00070,2.73000,-4.72500,0.00000,0.00012,0.96612,-0.22460,2023,6,9,12,19,52,669
0.00080,2.95750,-4.65500,0.00000,0.00244,0.96905,-0.22875,2023,6,9,12,19,52,680
0.00090,2.85250,-4.42750,0.00000,0.00256,0.96892,-0.22777,2023,6,9,12,19,52,691
0.00100,2.67750,-4.69000,0.00000,0.00500,0.96831,-0.22741,2023,6,9,12,19,52,703
0.00110,2.67750,-4.77750,0.00000,0.00317,0.96868,-0.22472,2023,6,9,12,19,52,714
0.00120,2.90500,-4.48000,0.00000,0.00366,0.96636,-0.22753,2023,6,9,12,19,52,725
0.00130,2.80000,-4.79500,0.00000,0.00403,0.96953,-0.22863,2023,6,9,12,19,52,736
0.00140,2.97500,-4.70750,0.00000,0.00012,0.96685,-0.22680,2023,6,9,12,19,52,747
0.00150,2.99250,-4.55000,0.00000,0.00232,0.96661,-0.22802,2023,6,9,12,19,52,758
0.00160,2.85250,-4.56750,0.00000,0.00244,0.96734,-0.23009,2023,6,9,12,19,52,769
0.00170,2.81750,-4.70750,0.00000,0.00293,0.96758,-0.22521,2023,6,9,12,19,52,780
0.00180,2.83500,-4.60250,0.00000,0.00268,0.96661,-0.22668,2023,6,9,12,19,52,791
0.00190,2.90500,-4.63750,0.00000,0.00195,0.96783,-0.22765,2023,6,9,12,19,52,803
0.00200,2.76500,-4.69000,0.00000,0.00378,0.96673,-0.22497,2023,6,9,12,19,52,814
0.00210,2.73000,-4.55000,0.00000,0.00281,0.96905,-0.22619,2023,6,9,12,19,52,825
0.00220,2.87000,-4.49750,0.00000,0.00598,0.96612,-0.22668,2023,6,9,12,19,52,836
0.00230,2.90500,-4.53250,0.00000,0.00549,0.96783,-0.22936,2023,6,9,12,19,52,847
0.00240,2.74750,-4.67250,0.00000,0.00403,0.96795,-0.22485,2023,6,9,12,19,52,858
0.00250,2.94000,-4.58500,0.00000,0.00537,0.96709,-0.22851,2023,6,9,12,19,52,869
0.00260,2.99250,-4.53250,0.00000,0.00293,0.96758,-0.23046,2023,6,9,12,19,52,880
0.00270,2.87000,-4.90000,0.00000,0.00171,0.96502,-0.22619,2023,6,9,12,19,52,891
0.00280,2.92250,-4.67250,0.00000,0.00207,0.96539,-0.22619,2023,6,9,12,19,52,903
0.00290,2.78250,-4.48000,0.00000,0.00403,0.96905,-0.22826,2023,6,9,12,19,52,914
0.00300,2.74750,-4.63750,0.00000,0.00354,0.96807,-0.22558,2023,6,9,12,19,52,925
0.00310,2.67750,-4.67250,0.00000,0.00403,0.96673,-0.22521,2023,6,9,12,19,52,936
0.00320,2.73000,-4.70750,0.00000,0.00207,0.96746,-0.22228,2023,6,9,12,19,52,947
0.00330,2.73000,-4.46250,0.00000,0.00220,0.96722,-0.22704,2023,6,9,12,19,52,958
0.00340,2.90500,-4.60250,0.00000,-0.00024,0.96478,-0.22619,2023,6,9,12,19,52,969
0.00350,2.81750,-4.69000,0.00000,0.00098,0.96612,-0.22936,2023,6,9,12,19,52,980
0.00360,2.83500,-4.60250,0.00000,0.00329,0.96502,-0.22960,2023,6,9,12,19,52,991
0.00370,2.67750,-4.67250,0.00000,0.00195,0.96941,-0.22716,2023,6,9,12,19,52,3
0.00380,2.85250,-4.56750,0.00000,0.00134,0.96636,-0.22753,2023,6,9,12,19,52,14
0.00390,2.95750,-4.56750,0.00000,0.00232,0.96844,-0.22997,2023,6,9,12,19,52,25
0.00400,2.92250,-4.53250,0.00000,0.00073,0.96575,-0.23107,2023,6,9,12,19,52,36
0.00410,2.78250,-4.72500,0.00000,0.00134,0.96551,-0.22802,2023,6,9,12,19,52,47
0.00420,2.81750,-4.53250,0.00000,0.00244,0.96868,-0.23021,2023,6,9,12,19,52,58
0.00430,2.92250,-4.60250,0.00000,0.00232,0.96807,-0.22887,2023,6,9,12,19,52,69
0.00440,2.85250,-4.69000,0.00000,0.00342,0.96502,-0.22302,2023,6,9,12,19,52,80
0.00450,3.01000,-4.84750,0.00000,0.00146,0.96831,-0.22814,2023,6,9,12,19,52,91
0.00460,2.92250,-4.55000,0.00000,0.00220,0.96917,-0.22948,2023,6,9,12,19,52,103
0.00470,2.90500,-4.48000,0.00000,0.00256,0.96795,-0.22704,2023,6,9,12,19,52,114
0.00480,2.74750,-4.84750,0.00000,0.00244,0.96587,-0.22460,2023,6,9,12,19,52,125
0.00490,2.76500,-4.83000,0.00000,0.00500,0.96783,-0.23058,2023,6,9,12,19,52,136
0.00500,2.60750,-4.42750,0.00000,0.00390,0.96770,-0.22655,2023,6,9,12,19,52,147
0.00510,2.80000,-4.77750,0.00000,0.00195,0.96892,-0.22765,2023,6,9,12,19,52,158
0.00520,2.73000,-4.51500,0.00000,0.00305,0.96807,-0.23034,2023,6,9,12,19,52,169
0.00530,2.81750,-4.67250,0.00000,0.00537,0.96770,-0.22875,2023,6,9,12,19,52,180
0.00540,2.85250,-4.74250,0.00000,0.00012,0.96953,-0.22582,2023,6,9,12,19,52,191
0.00550,2.87000,-4.81250,0.00000,0.00342,0.96905,-0.22582,2023,6,9,12,19,52,203
0.00560,2.85250,-4.35750,0.00000,0.00427,0.96770,-0.23119,2023,6,9,12,19,52,214
0.00570,2.97500,-4.77750,0.00000,0.00354,0.96807,-0.22912,2023,6,9,12,19,52,225
0.00580,3.09750,-4.70750,0.00000,0.00134,0.96465,-0.23046,2023,6,9,12,19,52,236
0.00590,2.88750,-4.58500,0.00000,0.00146,0.96636,-0.23021,2023,6,9,12,19,52,247
0.00600,2.80000,-4.46250,0.00000,0.00073,0.96819,-0.22875,2023,6,9,12,19,52,258
0.00610,2.67750,-4.77750,0.00000,0.00195,0.96880,-0.22753,2023,6,9,12,19,52,269
0.00620,2.92250,-4.67250,0.00000,0.00464,0.96734,-0.22790,2023,6,9,12,19,52,280
0.00630,2.81750,-4.48000,0.00000,0.00329,0.96868,-0.23156,2023,6,9,12,19,52,291
0.00640,2.81750,-4.77750,0.00000,0.00464,0.96819,-0.22948,2023,6,9,12,19,52,303
0.00650,2.66000,-4.69000,0.00000,0.00329,0.96685,-0.22851,2023,6,9,12,19,52,314
0.00660,2.83500,-4.58500,0.00000,0.00317,0.96905,-0.22985,2023,6,9,12,19,53,5
0.00670,2.85250,-4.76000,0.00000,0.00354,0.96722,-0.23204,2023,6,9,12,19,53,16
0.00680,2.71250,-4.74250,0.00000,0.00293,0.96966,-0.22826,2023,6,9,12,19,53,27
0.00690,2.83500,-4.63750,0.00000,0.00256,0.96478,-0.22802,2023,6,9,12,19,53,38
0.00700,2.83500,-4.46250,0.00000,0.00464,0.96648,-0.23058,2023,6,9,12,19,53,49
0.00710,2.87000,-4.53250,0.00000,0.00537,0.96844,-0.23131,2023,6,9,12,19,53,60
0.00720,2.69500,-4.83000,0.00000,0.00464,0.96612,-0.22753,2023,6,9,12,19,53,71
0.00730,3.06250,-4.60250,0.00000,0.00317,0.96917,-0.22912,2023,6,9,12,19,53,83
0.00740,2.90500,-4.46250,0.00000,0.00183,0.96624,-0.22912,2023,6,9,12,19,53,94
0.00750,2.74750,-4.46250,0.00000,0.00293,0.96612,-0.22997,2023,6,9,12,19,53,105
0.00760,2.97500,-4.39250,0.00000,0.00305,0.96929,-0.23034,2023,6,9,12,19,53,116
0.00770,2.71250,-4.39250,0.00000,0.00403,0.96526,-0.22960,2023,6,9,12,19,53,127
0.00780,2.85250,-4.67250,0.00000,0.00146,0.96758,-0.23058,2023,6,9,12,19,53,138
0.00790,2.90500,-4.55000,0.00000,0.00549,0.96807,-0.22704,2023,6,9,12,19,53,149
0.00800,2.88750,-4.70750,0.00000,0.00232,0.96624,-0.22973,2023,6,9,12,19,53,160
0.00810,2.83500,-4.42750,0.00000,0.00403,0.96502,-0.23229,2023,6,9,12,19,53,171
0.00820,2.81750,-4.48000,0.00000,0.00183,0.96575,-0.22716,2023,6,9,12,19,53,183
0.00830,2.83500,-4.56750,0.00000,0.00195,0.96539,-0.23107,2023,6,9,12,19,53,194
0.00840,2.88750,-4.53250,0.00000,0.00268,0.96990,-0.23156,2023,6,9,12,19,53,205
0.00850,2.85250,-4.49750,0.00000,0.00305,0.96685,-0.23009,2023,6,9,12,19,53,216
0.00860,2.74750,-4.60250,0.00000,0.00305,0.96709,-0.22948,2023,6,9,12,19,53,227
0.00870,2.78250,-4.49750,0.00000,0.00439,0.96819,-0.23290,2023,6,9,12,19,53,238
0.00880,2.95750,-4.55000,0.00000,0.00378,0.96795,-0.23363,2023,6,9,12,19,53,249
0.00890,2.92250,-4.62000,0.00000,0.00378,0.96697,-0.23070,2023,6,9,12,19,53,260
0.00900,2.73000,-4.53250,0.00000,0.00500,0.96368,-0.23156,2023,6,9,12,19,53,271
0.00910,2.94000,-4.42750,0.00000,0.00232,0.96929,-0.23326,2023,6,9,12,19,53,283
0.00920,2.80000,-4.81250,0.00000,0.00098,0.96490,-0.23168,2023,6,9,12,19,53,294
0.00930,2.81750,-4.88250,0.00000,0.00122,0.96795,-0.23217,2023,6,9,12,19,53,305
0.00940,2.83500,-4.27000,0.00000,0.00476,0.96783,-0.23473,2023,6,9,12,19,53,316
0.00950,2.88750,-4.72500,0.00000,0.00305,0.96636,-0.23375,2023,6,9,12,19,53,327
0.00960,2.88750,-4.81250,0.00000,0.00049,0.96526,-0.22924,2023,6,9,12,19,53,338
0.00970,2.94000,-4.60250,0.00000,0.00537,0.96648,-0.23339,2023,6,9,12,19,53,349
0.00980,2.92250,-4.56750,0.00000,0.00415,0.97063,-0.23278,2023,6,9,12,19,53,360
0.00990,2.90500,-4.55000,0.00000,0.00159,0.96600,-0.23290,2023,6,9,12,19,53,371
0.01000,2.83500,-4.65500,0.00000,0.00342,0.96709,-0.23253,2023,6,9,12,19,53,383
0.01010,2.88750,-4.58500,0.00000,0.00183,0.96636,-0.23302,2023,6,9,12,19,53,394
0.01020,2.97500,-4.86500,0.00000,-0.00061,0.96734,-0.22814,2023,6,9,12,19,53,405
0.01030,2.69500,-4.41000,0.00000,0.00451,0.96868,-0.23180,2023,6,9,12,19,53,416
0.01040,2.92250,-4.49750,0.00000,0.00305,0.96697,-0.23204,2023,6,9,12,19,53,427
0.01050,2.95750,-4.60250,0.00000,0.00000,0.96746,-0.22863,2023,6,9,12,19,53,438
0.01060,3.02750,-4.76000,0.00000,0.00561,0.96697,-0.22997,2023,6,9,12,19,53,449
0.01070,2.92250,-4.49750,0.00000,0.00342,0.97210,-0.23058,2023,6,9,12,19,53,460
0.01080,3.06250,-4.56750,0.00000,0.00220,0.96929,-0.23168,2023,6,9,12,19,53,471
0.01090,2.78250,-4.56750,0.00000,0.00354,0.96490,-0.23034,2023,6,9,12,19,53,483
0.01100,2.92250,-4.60250,0.00000,0.00232,0.96795,-0.22960,2023,6,9,12,19,53,494
0.01110,2.92250,-4.83000,0.00000,0.00293,0.96758,-0.23192,2023,6,9,12,19,53,505
0.01120,2.81750,-4.41000,0.00000,0.00329,0.96697,-0.22997,2023,6,9,12,19,53,516
0.01130,2.97500,-4.55000,0.00000,0.00268,0.96722,-0.23180,2023,6,9,12,19,53,527
0.01140,2.90500,-4.58500,0.00000,0.00415,0.96807,-0.23095,2023,6,9,12,19,53,538
0.01150,2.85250,-4.49750,0.00000,0.00232,0.96795,-0.22851,2023,6,9,12,19,53,549
0.01160,2.74750,-4.62000,0.00000,0.00085,0.96636,-0.22899,2023,6,9,12,19,53,560
0.01170,2.83500,-4.65500,0.00000,0.00354,0.96880,-0.23180,2023,6,9,12,19,53,571
0.01180,2.73000,-4.58500,0.00000,0.00378,0.96819,-0.22729,2023,6,9,12,19,53,583
0.01190,2.97500,-4.62000,0.00000,0.00329,0.96685,-0.23070,2023,6,9,12,19,53,594
0.01200,2.99250,-4.67250,0.00000,0.00476,0.96539,-0.22899,2023,6,9,12,19,53,605
0.01210,2.87000,-4.55000,0.00000,0.00012,0.96941,-0.23058,2023,6,9,12,19,53,616
0.01220,2.69500,-4.63750,0.00000,0.00390,0.96929,-0.23058,2023,6,9,12,19,53,627
0.01230,3.01000,-4.48000,0.00000,0.00195,0.96868,-0.23119,2023,6,9,12,19,53,638
0.01240,2.90500,-4.81250,0.00000,0.00110,0.96795,-0.23387,2023,6,9,12,19,53,649
0.01250,2.71250,-4.62000,0.00000,0.00220,0.96624,-0.22631,2023,6,9,12,19,53,660
0.01260,2.94000,-4.53250,0.00000,0.00427,0.96465,-0.22924,2023,6,9,12,19,53,671
0.01270,2.81750,-4.23500,0.00000,0.00342,0.96709,-0.23034,2023,6,9,12,19,53,683
0.01280,2.80000,-4.58500,0.00000,0.00195,0.96526,-0.23107,2023,6,9,12,19,53,694
0.01290,2.83500,-4.83000,0.00000,0.00317,0.96795,-0.22680,2023,6,9,12,19,53,705
0.01300,2.99250,-4.93500,0.00000,0.00329,0.96526,-0.23034,2023,6,9,12,19,53,716
0.01310,2.94000,-4.63750,0.00000,0.00256,0.96661,-0.23107,2023,6,9,12,19,53,727
0.01320,2.78250,-4.60250,0.00000,0.00293,0.96856,-0.22863,2023,6,9,12,19,53,738
0.01330,2.71250,-4.72500,0.00000,0.00329,0.96600,-0.22960,2023,6,9,12,19,53,749
0.01340,2.81750,-4.55000,0.00000,0.00403,0.96953,-0.23070,2023,6,9,12,19,53,760
0.01350,2.64250,-4.53250,0.00000,0.00159,0.96563,-0.22765,2023,6,9,12,19,53,771
0.01360,2.62500,-4.69000,0.00000,0.00256,0.96648,-0.22692,2023,6,9,12,19,53,783
0.01370,2.83500,-4.51500,0.00000,0.00317,0.96685,-0.22997,2023,6,9,12,19,53,794
0.01380,2.74750,-4.48000,0.00000,0.00183,0.96722,-0.22777,2023,6,9,12,19,53,805
0.01390,2.66000,-4.72500,0.00000,0.00439,0.96624,-0.22838,2023,6,9,12,19,53,816
0.01400,2.83500,-4.55000,0.00000,0.00403,0.96795,-0.23009,2023,6,9,12,19,53,827
0.01410,3.11500,-4.83000,0.00000,0.00390,0.96905,-0.23265,2023,6,9,12,19,53,838
0.01420,2.87000,-4.46250,0.00000,0.00256,0.96514,-0.22753,2023,6,9,12,19,53,849
0.01430,2.83500,-4.65500,0.00000,0.00488,0.96697,-0.22802,2023,6,9,12,19,53,860
0.01440,2.94000,-4.32250,0.00000,0.00378,0.97039,-0.23290,2023,6,9,12,19,53,871
0.01450,2.80000,-4.70750,0.00000,0.00195,0.96612,-0.23082,2023,6,9,12,19,53,883
0.01460,2.78250,-4.67250,0.00000,0.00232,0.96929,-0.23021,2023,6,9,12,19,53,894
0.01470,3.06250,-4.56750,0.00000,0.00207,0.96868,-0.23265,2023,6,9,12,19,53,905
0.01480,2.88750,-4.65500,0.00000,0.00317,0.96478,-0.22997,2023,6,9,12,19,53,916
0.01490,3.01000,-4.58500,0.00000,0.00317,0.96417,-0.23058,2023,6,9,12,19,53,927
0.01500,2.57250,-4.74250,0.00000,0.00366,0.96819,-0.22765,2023,6,9,12,19,53,938
0.01510,2.83500,-4.60250,0.00000,0.00464,0.96783,-0.23363,2023,6,9,12,19,53,949
0.01520,2.94000,-4.79500,0.00000,0.00598,0.96697,-0.22838,2023,6,9,12,19,53,960
0.01530,2.83500,-4.76000,0.00000,0.00098,0.96734,-0.22668,2023,6,9,12,19,53,971
0.01540,2.71250,-4.74250,0.00000,0.00464,0.96734,-0.23156,2023,6,9,12,19,53,983
0.01550,3.06250,-4.51500,0.00000,0.00342,0.97014,-0.23253,2023,6,9,12,19,53,994
0.01560,2.53750,-4.46250,0.00000,0.00195,0.96612,-0.22875,2023,6,9,12,19,54,5
0.01570,2.74750,-4.67250,0.00000,0.00183,0.96600,-0.22765,2023,6,9,12,19,54,16
0.01580,2.94000,-4.34000,0.00000,0.00195,0.96978,-0.23131,2023,6,9,12,19,54,27
0.01590,2.83500,-4.84750,0.00000,0.00317,0.96758,-0.22997,2023,6,9,12,19,54,38
0.01600,2.62500,-4.90000,0.00000,0.00232,0.96368,-0.22838,2023,6,9,12,19,54,49
0.01610,2.81750,-4.72500,0.00000,0.00354,0.96697,-0.23485,2023,6,9,12,19,54,60
0.01620,2.94000,-4.56750,0.00000,0.00244,0.96722,-0.23046,2023,6,9,12,19,54,71
0.01630,2.73000,-4.72500,0.00000,0.00134,0.96514,-0.22887,2023,6,9,12,19,54,83
0.01640,2.83500,-4.83000,0.00000,0.00390,0.96673,-0.22960,2023,6,9,12,19,54,94
0.01650,2.85250,-4.63750,0.00000,0.00366,0.96563,-0.23253,2023,6,9,12,19,54,105
0.01660,2.80000,-4.72500,0.00000,0.00403,0.96380,-0.22777,2023,6,9,12,19,54,116
0.01670,2.88750,-4.25250,0.00000,0.00305,0.96612,-0.23131,2023,6,9,12,19,54,127
0.01680,2.73000,-4.44500,0.00000,0.00183,0.96758,-0.23156,2023,6,9,12,19,54,138
0.01690,2.87000,-4.70750,0.00000,0.00268,0.96697,-0.22997,2023,6,9,12,19,54,149
0.01700,2.73000,-4.67250,0.00000,0.00329,0.96697,-0.22460,2023,6,9,12,19,54,160
0.01710,2.81750,-4.39250,0.00000,0.00378,0.96722,-0.23241,2023,6,9,12,19,54,171
0.01720,2.88750,-4.70750,0.00000,0.00098,0.96404,-0.22814,2023,6,9,12,19,54,183
0.01730,2.69500,-4.72500,0.00000,0.00354,0.96722,-0.22582,2023,6,9,12,19,54,194
0.01740,2.87000,-4.91750,0.00000,0.00451,0.96697,-0.23180,2023,6,9,12,19,54,205
0.01750,2.88750,-4.67250,0.00000,0.00281,0.96734,-0.23180,2023,6,9,12,19,54,216
0.01760,2.69500,-4.72500,0.00000,0.00220,0.96758,-0.22973,2023,6,9,12,19,54,227
0.01770,2.64250,-4.46250,0.00000,0.00232,0.96856,-0.22570,2023,6,9,12,19,54,238
0.01780,2.87000,-4.63750,0.00000,0.00183,0.96709,-0.23290,2023,6,9,12,19,54,249
0.01790,2.73000,-4.55000,0.00000,0.00232,0.96795,-0.23034,2023,6,9,12,19,54,260
0.01800,2.88750,-4.69000,0.00000,0.00317,0.96526,-0.22533,2023,6,9,12,19,54,271
0.01810,2.60750,-4.56750,0.00000,0.00207,0.96526,-0.22936,2023,6,9,12,19,54,283
0.01820,2.88750,-4.56750,0.00000,0.00098,0.96819,-0.23253,2023,6,9,12,19,54,294
0.01830,2.87000,-4.65500,0.00000,0.00220,0.96807,-0.22607,2023,6,9,12,19,54,305
0.01840,2.74750,-4.65500,0.00000,0.00366,0.96905,-0.22851,2023,6,9,12,19,54,316
0.01850,2.83500,-4.53250,0.00000,0.00281,0.96770,-0.22936,2023,6,9,12,19,54,327
0.01860,2.81750,-4.76000,0.00000,0.00244,0.96709,-0.22753,2023,6,9,12,19,54,338
0.01870,2.74750,-4.67250,0.00000,0.00342,0.96722,-0.22924,2023,6,9,12,19,54,349
0.01880,2.78250,-4.37500,0.00000,0.00378,0.96709,-0.23180,2023,6,9,12,19,54,360
0.01890,3.09750,-4.51500,0.00000,0.00403,0.96880,-0.23290,2023,6,9,12,19,54,371
0.01900,2.66000,-4.51500,0.00000,0.00305,0.96844,-0.22912,2023,6,9,12,19,54,383
0.01910,2.83500,-4.69000,0.00000,0.00354,0.96636,-0.23119,2023,6,9,12,19,54,394
0.01920,2.76500,-4.63750,0.00000,0.00378,0.96661,-0.23009,2023,6,9,12,19,54,405
0.01930,2.60750,-4.69000,0.00000,0.00293,0.96465,-0.22851,2023,6,9,12,19,54,416
0.01940,2.76500,-4.51500,0.00000,0.00451,0.96697,-0.23204,2023,6,9,12,19,54,427
0.01950,2.81750,-4.51500,0.00000,0.00451,0.96709,-0.23290,2023,6,9,12,19,54,438
0.01960,2.66000,-4.53250,0.00000,0.00342,0.96636,-0.22826,2023,6,9,12,19,54,449
0.01970,2.94000,-4.53250,0.00000,0.00232,0.96612,-0.22924,2023,6,9,12,19,54,460
0.01980,2.95750,-4.58500,0.00000,0.00256,0.96575,-0.23143,2023,6,9,12,19,54,471
0.01990,3.15000,-4.48000,0.00000,0.00281,0.96539,-0.23278,2023,6,9,12,19,54,483
0.02000,2.67750,-4.37500,0.00000,0.00171,0.96783,-0.22826,2023,6,9,12,19,54,494
0.02010,2.92250,-4.55000,0.00000,0.00537,0.96941,-0.23326,2023,6,9,12,19,54,505
0.02020,2.83500,-4.39250,0.00000,0.00037,0.96526,-0.23180,2023,6,9,12,19,54,516
0.02030,2.67750,-4.84750,0.00000,0.00512,0.96722,-0.22790,2023,6,9,12,19,54,527
0.02040,2.90500,-4.76000,0.00000,0.00122,0.96587,-0.22997,2023,6,9,12,19,54,538
0.02050,2.92250,-4.69000,0.00000,0.00329,0.96685,-0.23314,2023,6,9,12,19,54,549
0.02060,2.95750,-4.69000,0.00000,0.00305,0.96624,-0.23204,2023,6,9,12,19,54,560
0.02070,3.01000,-4.39250,0.00000,0.00415,0.96661,-0.23095,2023,6,9,12,19,54,571
0.02080,2.87000,-4.39250,0.00000,0.00183,0.96685,-0.23265,2023,6,9,12,19,54,583
0.02090,2.59000,-4.34000,0.00000,0.00451,0.96685,-0.22936,2023,6,9,12,19,54,594
0.02100,2.80000,-4.83000,0.00000,0.00281,0.96929,-0.22631,2023,6,9,12,19,54,605
0.02110,2.90500,-4.56750,0.00000,0.00110,0.96819,-0.23156,2023,6,9,12,19,54,616
0.02120,2.81750,-4.46250,0.00000,0.00598,0.96697,-0.23204,2023,6,9,12,19,54,627
0.02130,2.67750,-4.63750,0.00000,0.00305,0.96661,-0.22899,2023,6,9,12,19,54,638
0.02140,2.97500,-4.41000,0.00000,0.00390,0.96880,-0.22936,2023,6,9,12,19,54,649
0.02150,2.97500,-4.42750,0.00000,0.00561,0.96819,-0.23412,2023,6,9,12,19,54,660
0.02160,2.62500,-4.51500,0.00000,0.00268,0.96612,-0.22936,2023,6,9,12,19,54,671
0.02170,2.74750,-4.70750,0.00000,0.00220,0.96941,-0.22985,2023,6,9,12,19,54,683
0.02180,3.11500,-4.42750,0.00000,0.00342,0.96685,-0.23595,2023,6,9,12,19,54,694
0.02190,2.83500,-4.69000,0.00000,0.00256,0.96514,-0.22863,2023,6,9,12,19,54,705
0.02200,2.83500,-4.51500,0.00000,0.00403,0.96587,-0.22899,2023,6,9,12,19,54,716
0.02210,2.76500,-4.56750,0.00000,0.00366,0.96648,-0.23302,2023,6,9,12,19,54,727
0.02220,2.81750,-4.65500,0.00000,0.00159,0.96587,-0.22851,2023,6,9,12,19,54,738
0.02230,2.81750,-4.70750,0.00000,0.00293,0.96734,-0.22790,2023,6,9,12,19,54,749
0.02240,2.88750,-4.56750,0.00000,0.00232,0.96563,-0.23253,2023,6,9,12,19,54,760
0.02250,2.74750,-4.63750,0.00000,0.00342,0.96600,-0.23046,2023,6,9,12,19,54,771
0.02260,2.71250,-4.77750,0.00000,0.00232,0.96844,-0.22826,2023,6,9,12,19,54,783
0.02270,2.66000,-4.81250,0.00000,0.00610,0.96795,-0.22912,2023,6,9,12,19,54,794
0.02280,2.78250,-4.53250,0.00000,0.00268,0.96770,-0.23119,2023,6,9,12,19,54,805
0.02290,2.81750,-4.67250,0.00000,0.00354,0.96429,-0.22899,2023,6,9,12,19,54,816
0.02300,2.83500,-4.72500,0.00000,0.00195,0.96526,-0.22643,2023,6,9,12,19,54,827
0.02310,2.88750,-4.55000,0.00000,0.00354,0.96734,-0.23082,2023,6,9,12,19,54,838
0.02320,2.99250,-4.67250,0.00000,0.00122,0.96648,-0.22716,2023,6,9,12,19,54,849
0.02330,2.80000,-4.56750,0.00000,0.00232,0.96685,-0.22765,2023,6,9,12,19,54,860
0.02340,2.62500,-4.56750,0.00000,0.00476,0.96722,-0.23253,2023,6,9,12,19,54,871
0.02350,2.69500,-4.63750,0.00000,0.00232,0.96575,-0.22948,2023,6,9,12,19,54,883
0.02360,2.71250,-4.83000,0.00000,0.00342,0.96575,-0.22790,2023,6,9,12,19,54,894
0.02370,2.71250,-4.60250,0.00000,0.00342,0.96587,-0.23241,2023,6,9,12,19,54,905
0.02380,3.01000,-4.51500,0.00000,0.00232,0.96868,-0.23095,2023,6,9,12,19,54,916
0.02390,2.69500,-4.74250,0.00000,0.00085,0.96648,-0.23046,2023,6,9,12,19,54,927
0.02400,2.88750,-4.49750,0.00000,0.00207,0.96514,-0.22924,2023,6,9,12,19,54,938
0.02410,2.81750,-4.55000,0.00000,0.00366,0.96905,-0.23314,2023,6,9,12,19,54,949
0.02420,2.90500,-4.63750,0.00000,-0.00024,0.96526,-0.22838,2023,6,9,12,19,54,960
0.02430,2.71250,-4.60250,0.00000,0.00415,0.96636,-0.22790,2023,6,9,12,19,54,971
0.02440,2.99250,-4.69000,0.00000,0.00159,0.96636,-0.23131,2023,6,9,12,19,54,983
0.02450,2.69500,-4.72500,0.00000,0.00305,0.96770,-0.22851,2023,6,9,12,19,55,4
0.02460,2.87000,-4.88250,0.00000,0.00171,0.96880,-0.22924,2023,6,9,12,19,55,15
0.02470,2.66000,-4.76000,0.00000,0.00329,0.96856,-0.23522,2023,6,9,12,19,55,26
0.02480,2.88750,-4.72500,0.00000,0.00244,0.96685,-0.22875,2023,6,9,12,19,55,37
0.02490,2.73000,-4.67250,0.00000,0.00439,0.96478,-0.22790,2023,6,9,12,19,55,48
0.02500,2.76500,-4.62000,0.00000,0.00415,0.96746,-0.22863,2023,6,9,12,19,55,59
0.02510,2.76500,-4.48000,0.00000,0.00354,0.96709,-0.23424,2023,6,9,12,19,55,70
0.02520,2.87000,-4.70750,0.00000,0.00195,0.96539,-0.22960,2023,6,9,12,19,55,81
0.02530,2.87000,-4.62000,0.00000,0.00232,0.96661,-0.22997,2023,6,9,12,19,55,93
0.02540,2.76500,-4.42750,0.00000,0.00256,0.96685,-0.23497,2023,6,9,12,19,55,104
0.02550,2.59000,-4.65500,0.00000,0.00122,0.96673,-0.23131,2023,6,9,12,19,55,115
0.02560,2.85250,-4.72500,0.00000,0.00281,0.96563,-0.22851,2023,6,9,12,19,55,126
0.02570,2.87000,-4.51500,0.00000,0.00110,0.96661,-0.23070,2023,6,9,12,19,55,137
0.02580,2.95750,-4.46250,0.00000,0.00427,0.96514,-0.23021,2023,6,9,12,19,55,148
0.02590,2.83500,-4.81250,0.00000,0.00293,0.96831,-0.23143,2023,6,9,12,19,55,159
0.02600,2.87000,-4.63750,0.00000,0.00073,0.96746,-0.23400,2023,6,9,12,19,55,170
0.02610,3.02750,-4.67250,0.00000,0.00061,0.96624,-0.22973,2023,6,9,12,19,55,181
0.02620,2.71250,-4.60250,0.00000,0.00317,0.96624,-0.23034,2023,6,9,12,19,55,193
0.02630,2.76500,-4.48000,0.00000,0.00256,0.96929,-0.23082,2023,6,9,12,19,55,204
0.02640,3.06250,-4.83000,0.00000,0.00012,0.96648,-0.22924,2023,6,9,12,19,55,215
0.02650,2.73000,-4.74250,0.00000,0.00171,0.96758,-0.22997,2023,6,9,12,19,55,226
0.02660,3.02750,-4.67250,0.00000,0.00073,0.96539,-0.22899,2023,6,9,12,19,55,237
0.02670,2.85250,-4.58500,0.00000,0.00329,0.96697,-0.22899,2023,6,9,12,19,55,248
0.02680,2.80000,-4.70750,0.00000,0.00305,0.96709,-0.22790,2023,6,9,12,19,55,259
0.02690,2.67750,-4.41000,0.00000,0.00354,0.96661,-0.22777,2023,6,9,12,19,55,270
0.02700,2.74750,-4.48000,0.00000,0.00220,0.96722,-0.22936,2023,6,9,12,19,55,281
0.02710,2.71250,-4.67250,0.00000,0.00232,0.96600,-0.22765,2023,6,9,12,19,55,293
0.02720,2.95750,-4.56750,0.00000,0.00183,0.96661,-0.22912,2023,6,9,12,19,55,304
0.02730,2.76500,-4.44500,0.00000,0.00159,0.96697,-0.23156,2023,6,9,12,19,55,315
0.02740,2.87000,-4.79500,0.00000,0.00415,0.96612,-0.22533,2023,6,9,12,19,55,326
0.02750,2.81750,-4.69000,0.00000,0.00171,0.96539,-0.22741,2023,6,9,12,19,55,337
0.02760,2.80000,-4.69000,0.00000,0.00354,0.96734,-0.22912,2023,6,9,12,19,55,348
0.02770,2.64250,-4.58500,0.00000,0.00256,0.96526,-0.22985,2023,6,9,12,19,55,359
0.02780,2.73000,-4.65500,0.00000,0.00256,0.96575,-0.22668,2023,6,9,12,19,55,370
0.02790,2.76500,-4.70750,0.00000,0.00232,0.96636,-0.22741,2023,6,9,12,19,55,381
0.02800,2.95750,-4.65500,0.00000,0.00488,0.96746,-0.22863,2023,6,9,12,19,55,393
0.02810,2.78250,-4.74250,0.00000,0.00037,0.96551,-0.22704,2023,6,9,12,19,55,404
0.02820,2.67750,-4.51500,0.00000,0.00378,0.96758,-0.22741,2023,6,9,12,19,55,415
0.02830,2.90500,-4.60250,0.00000,0.00146,0.96502,-0.22899,2023,6,9,12,19,55,426
0.02840,2.62500,-4.74250,0.00000,0.00244,0.96612,-0.22765,2023,6,9,12,19,55,437
0.02850,2.74750,-4.88250,0.00000,0.00317,0.96563,-0.22533,2023,6,9,12,19,55,448
0.02860,2.64250,-4.34000,0.00000,0.00220,0.96453,-0.22851,2023,6,9,12,19,55,459
0.02870,2.85250,-4.83000,0.00000,0.00207,0.96758,-0.23021,2023,6,9,12,19,55,470
0.02880,2.71250,-4.69000,0.00000,0.00537,0.96539,-0.22668,2023,6,9,12,19,55,481
0.02890,2.78250,-4.63750,0.00000,0.00195,0.96880,-0.22826,2023,6,9,12,19,55,493
0.02900,2.81750,-4.48000,0.00000,0.00232,0.96404,-0.23021,2023,6,9,12,19,55,504
0.02910,2.81750,-4.60250,0.00000,0.00122,0.96819,-0.22448,2023,6,9,12,19,55,515
0.02920,2.67750,-4.65500,0.00000,0.00220,0.96661,-0.22509,2023,6,9,12,19,55,526
0.02930,2.87000,-4.62000,0.00000,0.00195,0.96575,-0.23009,2023,6,9,12,19,55,537
0.02940,2.85250,-4.70750,0.00000,0.00281,0.96770,-0.23034,2023,6,9,12,19,55,548
0.02950,2.74750,-4.51500,0.00000,-0.00085,0.96697,-0.22729,2023,6,9,12,19,55,559
0.02960,2.76500,-4.60250,0.00000,0.00342,0.96502,-0.22814,2023,6,9,12,19,55,570
0.02970,2.66000,-4.37500,0.00000,0.00366,0.96661,-0.22936,2023,6,9,12,19,55,581
0.02980,2.87000,-4.84750,0.00000,0.00207,0.96551,-0.22851,2023,6,9,12,19,55,593
0.02990,2.69500,-4.72500,0.00000,0.00207,0.96697,-0.22777,2023,6,9,12,19,55,604
0.03000,2.80000,-4.48000,0.00000,0.00037,0.96795,-0.22863,2023,6,9,12,19,55,615
0.03010,2.78250,-4.67250,0.00000,0.00427,0.96404,-0.22790,2023,6,9,12,19,55,626
0.03020,3.01000,-4.83000,0.00000,0.00220,0.96624,-0.22985,2023,6,9,12,19,55,637
0.03030,2.83500,-4.72500,0.00000,0.00134,0.96905,-0.22936,2023,6,9,12,19,55,648
0.03040,2.73000,-4.81250,0.00000,0.00183,0.96697,-0.23119,2023,6,9,12,19,55,659
0.03050,2.64250,-4.70750,0.00000,0.00317,0.96636,-0.22631,2023,6,9,12,19,55,670
0.03060,2.83500,-4.63750,0.00000,0.00354,0.96770,-0.23265,2023,6,9,12,19,55,681
0.03070,2.94000,-4.60250,0.00000,0.00171,0.96587,-0.22960,2023,6,9,12,19,55,693
0.03080,2.80000,-4.83000,0.00000,0.00159,0.96953,-0.22533,2023,6,9,12,19,55,704
0.03090,2.80000,-4.79500,0.00000,0.00390,0.96905,-0.22985,2023,6,9,12,19,55,715
0.03100,2.92250,-4.63750,0.00000,0.00256,0.96563,-0.22753,2023,6,9,12,19,55,726
0.03110,2.64250,-4.51500,0.00000,0.00415,0.96746,-0.22912,2023,6,9,12,19,55,737
0.03120,2.76500,-4.74250,0.00000,0.00256,0.96722,-0.23241,2023,6,9,12,19,55,748
0.03130,2.88750,-4.58500,0.00000,0.00281,0.96844,-0.23095,2023,6,9,12,19,55,759
0.03140,2.85250,-4.81250,0.00000,0.00366,0.96697,-0.22680,2023,6,9,12,19,55,770
0.03150,2.85250,-4.58500,0.00000,0.00403,0.96551,-0.22887,2023,6,9,12,19,55,781
0.03160,2.99250,-4.65500,0.00000,0.00305,0.96673,-0.22973,2023,6,9,12,19,55,793
0.03170,2.83500,-4.60250,0.00000,0.00451,0.96783,-0.23034,2023,6,9,12,19,55,804
0.03180,2.76500,-4.76000,0.00000,0.00268,0.96624,-0.22863,2023,6,9,12,19,55,815
0.03190,2.85250,-4.51500,0.00000,0.00390,0.96685,-0.23143,2023,6,9,12,19,55,826
0.03200,2.85250,-4.48000,0.00000,0.00451,0.96831,-0.23168,2023,6,9,12,19,55,837
0.03210,2.83500,-4.69000,0.00000,0.00220,0.96685,-0.22558,2023,6,9,12,19,55,848
0.03220,2.92250,-4.56750,0.00000,0.00268,0.96929,-0.23009,2023,6,9,12,19,55,859
0.03230,2.80000,-4.42750,0.00000,0.00378,0.96880,-0.22948,2023,6,9,12,19,55,870
0.03240,2.92250,-4.79500,0.00000,0.00378,0.96844,-0.22704,2023,6,9,12,19,55,881
0.03250,2.73000,-4.46250,0.00000,0.00342,0.96978,-0.22997,2023,6,9,12,19,55,893
0.03260,2.87000,-4.55000,0.00000,0.00342,0.96917,-0.23131,2023,6,9,12,19,55,904
0.03270,2.80000,-4.56750,0.00000,0.00134,0.96441,-0.22777,2023,6,9,12,19,55,915
0.03280,2.73000,-4.63750,0.00000,0.00220,0.96758,-0.22814,2023,6,9,12,19,55,926
0.03290,2.80000,-4.49750,0.00000,0.00268,0.96661,-0.23095,2023,6,9,12,19,55,937
0.03300,2.78250,-4.76000,0.00000,0.00464,0.96612,-0.23009,2023,6,9,12,19,55,948
0.03310,2.64250,-4.51500,0.00000,0.00476,0.96770,-0.22948,2023,6,9,12,19,55,959
0.03320,2.92250,-4.63750,0.00000,0.00366,0.96758,-0.23253,2023,6,9,12,19,55,970
0.03330,2.66000,-4.56750,0.00000,0.00439,0.96734,-0.23034,2023,6,9,12,19,55,981
0.03340,2.80000,-4.70750,0.00000,0.00378,0.96563,-0.22765,2023,6,9,12,19,55,993
0.03350,3.04500,-4.42750,0.00000,0.00403,0.97002,-0.22960,2023,6,9,12,19,56,4
0.03360,3.01000,-4.37500,0.00000,0.00268,0.96770,-0.23131,2023,6,9,12,19,56,15
0.03370,2.78250,-4.56750,0.00000,0.00232,0.96575,-0.22546,2023,6,9,12,19,56,26
0.03380,2.95750,-4.60250,0.00000,0.00317,0.96807,-0.22997,2023,6,9,12,19,56,37
0.03390,2.90500,-4.51500,0.00000,0.00329,0.96892,-0.23143,2023,6,9,12,19,56,48
0.03400,2.73000,-4.60250,0.00000,0.00268,0.96831,-0.23046,2023,6,9,12,19,56,59
0.03410,2.90500,-4.44500,0.00000,0.00439,0.96868,-0.22960,2023,6,9,12,19,56,70
0.03420,3.02750,-4.48000,0.00000,0.00256,0.96734,-0.23168,2023,6,9,12,19,56,81
0.03430,2.83500,-4.56750,0.00000,0.00207,0.96905,-0.22899,2023,6,9,12,19,56,93
0.03440,2.78250,-4.58500,0.00000,0.00305,0.96417,-0.22546,2023,6,9,12,19,56,104
0.03450,2.78250,-4.46250,0.00000,0.00366,0.96880,-0.23021,2023,6,9,12,19,56,115
0.03460,2.92250,-4.63750,0.00000,0.00159,0.96661,-0.23131,2023,6,9,12,19,56,126
0.03470,2.59000,-4.37500,0.00000,0.00342,0.96636,-0.22948,2023,6,9,12,19,56,137
0.03480,2.90500,-4.60250,0.00000,0.00366,0.96575,-0.23058,2023,6,9,12,19,56,148
0.03490,2.81750,-4.44500,0.00000,0.00378,0.96600,-0.23131,2023,6,9,12,19,56,159
0.03500,2.76500,-4.93500,0.00000,0.00525,0.96514,-0.22692,2023,6,9,12,19,56,170
0.03510,2.99250,-4.41000,0.00000,0.00415,0.96892,-0.23070,2023,6,9,12,19,56,181
0.03520,2.95750,-4.58500,0.00000,0.00451,0.96685,-0.23265,2023,6,9,12,19,56,193
0.03530,2.69500,-4.65500,0.00000,0.00195,0.96697,-0.22863,2023,6,9,12,19,56,204
0.03540,2.69500,-4.62000,0.00000,0.00085,0.96746,-0.23095,2023,6,9,12,19,56,215
0.03550,2.85250,-4.55000,0.00000,0.00110,0.96648,-0.23095,2023,6,9,12,19,56,226
0.03560,2.78250,-4.74250,0.00000,0.00146,0.96734,-0.23180,2023,6,9,12,19,56,237
0.03570,2.85250,-4.72500,0.00000,0.00207,0.96953,-0.22704,2023,6,9,12,19,56,248
0.03580,3.04500,-4.51500,0.00000,0.00317,0.96673,-0.23302,2023,6,9,12,19,56,259
0.03590,2.92250,-4.55000,0.00000,0.00451,0.96673,-0.23522,2023,6,9,12,19,56,270
0.03600,2.67750,-4.79500,0.00000,0.00183,0.96661,-0.22936,2023,6,9,12,19,56,281
0.03610,2.87000,-4.46250,0.00000,0.00122,0.96807,-0.23021,2023,6,9,12,19,56,293
0.03620,2.80000,-4.76000,0.00000,0.00159,0.96661,-0.23131,2023,6,9,12,19,56,304
0.03630,2.69500,-4.60250,0.00000,0.00232,0.96819,-0.22680,2023,6,9,12,19,56,315
0.03640,2.67750,-4.23500,0.00000,0.00378,0.96758,-0.22973,2023,6,9,12,19,56,326
0.03650,2.85250,-4.56750,0.00000,0.00415,0.96441,-0.23143,2023,6,9,12,19,56,337
0.03660,2.67750,-4.63750,0.00000,0.00342,0.96685,-0.22790,2023,6,9,12,19,56,348
0.03670,2.71250,-4.58500,0.00000,0.00049,0.96880,-0.22899,2023,6,9,12,19,56,359
0.03680,2.80000,-4.30500,0.00000,0.00451,0.96600,-0.22655,2023,6,9,12,19,56,370
0.03690,2.92250,-4.55000,0.00000,0.00183,0.96734,-0.22692,2023,6,9,12,19,56,381
0.03700,2.83500,-4.72500,0.00000,0.00171,0.96831,-0.22704,2023,6,9,12,19,56,393
0.03710,2.81750,-4.76000,0.00000,0.00232,0.96795,-0.22838,2023,6,9,12,19,56,404
0.03720,2.74750,-4.48000,0.00000,0.00305,0.96453,-0.22680,2023,6,9,12,19,56,415
0.03730,2.69500,-4.67250,0.00000,0.00037,0.96587,-0.22472,2023,6,9,12,19,56,426
0.03740,2.85250,-4.67250,0.00000,0.00232,0.96929,-0.22960,2023,6,9,12,19,56,437
0.03750,2.48500,-4.37500,0.00000,0.00268,0.96685,-0.22851,2023,6,9,12,19,56,448
0.03760,2.69500,-4.62000,0.00000,0.00256,0.96661,-0.22363,2023,6,9,12,19,56,459
0.03770,2.78250,-4.77750,0.00000,0.00317,0.96831,-0.22497,2023,6,9,12,19,56,470
0.03780,2.81750,-4.65500,0.00000,0.00549,0.96880,-0.22985,2023,6,9,12,19,56,481
0.03790,2.57250,-4.51500,0.00000,0.00293,0.96514,-0.22680,2023,6,9,12,19,56,493
0.03800,2.67750,-4.88250,0.00000,0.00329,0.96343,-0.22533,2023,6,9,12,19,56,504
0.03810,2.71250,-4.53250,0.00000,0.00268,0.96880,-0.22790,2023,6,9,12,19,56,515
0.03820,2.69500,-4.76000,0.00000,0.00451,0.96624,-0.22741,2023,6,9,12,19,56,526
0.03830,2.71250,-4.51500,0.00000,0.00220,0.96709,-0.22338,2023,6,9,12,19,56,537
0.03840,2.66000,-4.55000,0.00000,0.00451,0.96563,-0.22570,2023,6,9,12,19,56,548
0.03850,2.85250,-4.37500,0.00000,0.00305,0.96929,-0.22948,2023,6,9,12,19,56,559
0.03860,2.81750,-4.74250,0.00000,0.00293,0.96856,-0.22326,2023,6,9,12,19,56,570
0.03870,2.66000,-4.81250,0.00000,0.00268,0.96770,-0.22716,2023,6,9,12,19,56,581
0.03880,3.01000,-4.46250,0.00000,0.00415,0.96648,-0.22863,2023,6,9,12,19,56,593
0.03890,2.88750,-4.49750,0.00000,0.00488,0.96673,-0.22948,2023,6,9,12,19,56,604
0.03900,2.67750,-4.67250,0.00000,0.00305,0.96917,-0.22546,2023,6,9,12,19,56,615
0.03910,2.73000,-4.23500,0.00000,0.00476,0.96587,-0.22826,2023,6,9,12,19,56,626
0.03920,2.74750,-4.37500,0.00000,0.00476,0.96758,-0.22899,2023,6,9,12,19,56,637
0.03930,2.83500,-4.88250,0.00000,0.00476,0.96587,-0.22411,2023,6,9,12,19,56,648
0.03940,2.64250,-4.56750,0.00000,0.00195,0.96453,-0.22668,2023,6,9,12,19,56,659
0.03950,2.95750,-4.58500,0.00000,0.00207,0.96709,-0.23009,2023,6,9,12,19,56,670
0.03960,2.55500,-4.63750,0.00000,0.00171,0.96722,-0.22704,2023,6,9,12,19,56,681
0.03970,2.62500,-4.55000,0.00000,0.00207,0.96648,-0.23009,2023,6,9,12,19,56,693
0.03980,2.97500,-4.53250,0.00000,0.00256,0.96673,-0.23119,2023,6,9,12,19,56,704
0.03990,2.87000,-4.55000,0.00000,0.00403,0.96758,-0.22912,2023,6,9,12,19,56,715
0.04000,2.85250,-4.90000,0.00000,0.00439,0.96807,-0.22619,2023,6,9,12,19,56,726
0.04010,2.92250,-4.53250,0.00000,0.00451,0.96722,-0.22997,2023,6,9,12,19,56,737
0.04020,2.85250,-4.65500,0.00000,0.00317,0.96685,-0.23204,2023,6,9,12,19,56,748
0.04030,2.80000,-4.77750,0.00000,0.00207,0.96734,-0.22875,2023,6,9,12,19,56,759
0.04040,2.85250,-4.81250,0.00000,0.00329,0.96722,-0.22997,2023,6,9,12,19,56,770
0.04050,2.80000,-4.58500,0.00000,0.00268,0.96636,-0.22570,2023,6,9,12,19,56,781
0.04060,2.60750,-4.48000,0.00000,0.00207,0.96770,-0.22558,2023,6,9,12,19,56,793
0.04070,2.71250,-4.74250,0.00000,0.00464,0.96831,-0.22680,2023,6,9,12,19,56,804
0.04080,2.95750,-4.49750,0.00000,0.00451,0.96575,-0.22887,2023,6,9,12,19,56,815
0.04090,3.04500,-4.55000,0.00000,0.00305,0.96673,-0.22973,2023,6,9,12,19,56,826
0.04100,2.57250,-4.48000,0.00000,0.00439,0.96587,-0.22826,2023,6,9,12,19,56,837
0.04110,2.73000,-4.41000,0.00000,0.00305,0.96661,-0.23070,2023,6,9,12,19,56,848
0.04120,2.74750,-4.81250,0.00000,0.00134,0.96831,-0.22594,2023,6,9,12,19,56,859
0.04130,2.85250,-4.60250,0.00000,0.00207,0.96758,-0.22753,2023,6,9,12,19,56,870
0.04140,2.80000,-4.53250,0.00000,0.00268,0.96758,-0.22802,2023,6,9,12,19,56,881
0.04150,2.85250,-4.70750,0.00000,0.00122,0.96551,-0.22594,2023,6,9,12,19,56,893
0.04160,2.83500,-4.58500,0.00000,0.00146,0.96746,-0.22826,2023,6,9,12,19,56,904
0.04170,2.73000,-4.34000,0.00000,0.00171,0.96795,-0.22887,2023,6,9,12,19,56,915
0.04180,2.80000,-4.70750,0.00000,0.00268,0.96807,-0.22643,2023,6,9,12,19,56,926
0.04190,2.85250,-4.74250,0.00000,0.00317,0.96661,-0.22692,2023,6,9,12,19,56,937
0.04200,2.92250,-4.48000,0.00000,0.00500,0.96575,-0.22875,2023,6,9,12,19,56,948
0.04210,2.92250,-4.56750,0.00000,0.00342,0.96856,-0.22655,2023,6,9,12,19,56,959
0.04220,2.81750,-4.56750,0.00000,0.00207,0.96734,-0.22777,2023,6,9,12,19,56,970
0.04230,2.66000,-4.56750,0.00000,0.00354,0.96783,-0.22814,2023,6,9,12,19,56,981
0.04240,2.83500,-4.65500,0.00000,0.00354,0.96600,-0.22765,2023,6,9,12,19,56,993
0.04250,2.64250,-4.65500,0.00000,0.00317,0.96795,-0.22680,2023,6,9,12,19,57,4
0.04260,2.67750,-4.58500,0.00000,0.00342,0.96795,-0.22655,2023,6,9,12,19,57,15
0.04270,2.66000,-4.46250,0.00000,0.00329,0.96685,-0.22973,2023,6,9,12,19,57,26
0.04280,2.48500,-4.60250,0.00000,0.00146,0.96624,-0.22509,2023,6,9,12,19,57,37
0.04290,2.85250,-4.70750,0.00000,0.00134,0.96673,-0.22521,2023,6,9,12,19,57,48
0.04300,2.88750,-4.42750,0.00000,0.00549,0.96819,-0.22716,2023,6,9,12,19,57,59
0.04310,2.83500,-4.42750,0.00000,0.00122,0.96612,-0.22802,2023,6,9,12,19,57,70
0.04320,2.81750,-4.58500,0.00000,0.00134,0.96490,-0.22399,2023,6,9,12,19,57,81
0.04330,2.85250,-4.67250,0.00000,0.00342,0.96563,-0.22631,2023,6,9,12,19,57,93
0.04340,2.80000,-4.39250,0.00000,0.00427,0.96734,-0.22704,2023,6,9,12,19,57,104
0.04350,2.81750,-4.67250,0.00000,0.00244,0.96563,-0.22533,2023,6,9,12,19,57,115
0.04360,2.78250,-4.53250,0.00000,0.00293,0.96734,-0.22716,2023,6,9,12,19,57,126
0.04370,2.99250,-4.72500,0.00000,0.00403,0.96892,-0.22838,2023,6,9,12,19,57,137
0.04380,2.67750,-4.55000,0.00000,0.00268,0.96868,-0.22838,2023,6,9,12,19,57,148
0.04390,3.06250,-4.83000,0.00000,0.00354,0.96905,-0.22558,2023,6,9,12,19,57,159
0.04400,2.87000,-4.76000,0.00000,0.00342,0.96795,-0.22729,2023,6,9,12,19,57,170
0.04410,2.81750,-4.62000,0.00000,0.00098,0.96868,-0.22521,2023,6,9,12,19,57,181
0.04420,2.69500,-4.79500,0.00000,0.00268,0.96600,-0.22607,2023,6,9,12,19,57,193
0.04430,2.81750,-4.55000,0.00000,0.00244,0.96612,-0.22851,2023,6,9,12,19,57,204
0.04440,2.60750,-4.67250,0.00000,0.00256,0.96807,-0.22741,2023,6,9,12,19,57,215
0.04450,2.78250,-4.86500,0.00000,0.00146,0.96685,-0.22899,2023,6,9,12,19,57,226
0.04460,2.64250,-4.55000,0.00000,0.00134,0.96551,-0.22582,2023,6,9,12,19,57,237
0.04470,2.85250,-4.55000,0.00000,0.00232,0.96709,-0.23021,2023,6,9,12,19,57,248
0.04480,2.85250,-4.83000,0.00000,0.00061,0.96526,-0.22241,2023,6,9,12,19,57,259
0.04490,2.46750,-4.84750,0.00000,0.00256,0.96709,-0.22887,2023,6,9,12,19,57,270
0.04500,3.01000,-4.63750,0.00000,0.00305,0.96770,-0.23009,2023,6,9,12,19,57,281
0.04510,2.85250,-4.65500,0.00000,0.00256,0.96661,-0.22814,2023,6,9,12,19,57,293
0.04520,2.99250,-4.55000,0.00000,0.00378,0.96587,-0.22814,2023,6,9,12,19,57,304
0.04530,2.87000,-4.72500,0.00000,0.00195,0.96734,-0.23143,2023,6,9,12,19,57,315
0.04540,2.73000,-4.62000,0.00000,0.00232,0.96612,-0.22533,2023,6,9,12,19,57,326
0.04550,2.87000,-4.46250,0.00000,0.00207,0.96758,-0.22838,2023,6,9,12,19,57,337
0.04560,2.80000,-4.56750,0.00000,0.00195,0.96929,-0.22887,2023,6,9,12,19,57,348
0.04570,2.74750,-4.63750,0.00000,0.00195,0.96783,-0.22570,2023,6,9,12,19,57,359
0.04580,2.85250,-4.58500,0.00000,0.00427,0.96612,-0.22643,2023,6,9,12,19,57,370
0.04590,2.81750,-4.76000,0.00000,0.00232,0.96770,-0.22936,2023,6,9,12,19,57,381
0.04600,2.85250,-4.56750,0.00000,0.00427,0.96551,-0.22472,2023,6,9,12,19,57,393
0.04610,2.90500,-4.72500,0.00000,0.00195,0.96758,-0.22814,2023,6,9,12,19,57,404
0.04620,3.01000,-4.55000,0.00000,0.00390,0.96758,-0.23046,2023,6,9,12,19,57,415
0.04630,2.81750,-4.76000,0.00000,0.00244,0.96648,-0.22472,2023,6,9,12,19,57,426
0.04640,2.73000,-4.46250,0.00000,0.00037,0.96539,-0.22485,2023,6,9,12,19,57,437
0.04650,2.87000,-4.62000,0.00000,0.00293,0.96819,-0.22826,2023,6,9,12,19,57,448
0.04660,2.97500,-4.88250,0.00000,0.00378,0.96502,-0.22485,2023,6,9,12,19,57,459
0.04670,2.59000,-4.81250,0.00000,0.00195,0.96770,-0.22509,2023,6,9,12,19,57,470
0.04680,2.94000,-4.65500,0.00000,0.00207,0.96868,-0.23009,2023,6,9,12,19,57,481
0.04690,2.64250,-4.81250,0.00000,0.00122,0.96648,-0.22741,2023,6,9,12,19,57,493
0.04700,2.73000,-4.76000,0.00000,0.00183,0.96600,-0.22497,2023,6,9,12,19,57,504
0.04710,2.76500,-4.55000,0.00000,0.00366,0.96697,-0.23131,2023,6,9,12,19,57,515
0.04720,2.87000,-4.49750,0.00000,0.00366,0.96709,-0.22936,2023,6,9,12,19,57,526
0.04730,2.59000,-4.69000,0.00000,0.00244,0.96722,-0.22521,2023,6,9,12,19,57,537
0.04740,2.90500,-4.67250,0.00000,0.00512,0.96612,-0.22790,2023,6,9,12,19,57,548
0.04750,2.59000,-4.44500,0.00000,0.00329,0.96673,-0.22668,2023,6,9,12,19,57,559
0.04760,2.81750,-4.90000,0.00000,0.00207,0.96819,-0.22643,2023,6,9,12,19,57,570
0.04770,2.76500,-4.67250,0.00000,0.00024,0.96758,-0.22863,2023,6,9,12,19,57,581
0.04780,2.87000,-4.63750,0.00000,0.00305,0.96795,-0.22863,2023,6,9,12,19,57,593
0.04790,2.76500,-4.63750,0.00000,0.00171,0.96673,-0.22411,2023,6,9,12,19,57,604
0.04800,3.02750,-4.86500,0.00000,0.00451,0.96966,-0.23217,2023,6,9,12,19,57,615
0.04810,2.87000,-4.51500,0.00000,0.00317,0.96673,-0.22875,2023,6,9,12,19,57,626
0.04820,2.87000,-4.72500,0.00000,0.00256,0.96587,-0.22802,2023,6,9,12,19,57,637
0.04830,2.74750,-4.44500,0.00000,0.00390,0.96673,-0.22875,2023,6,9,12,19,57,648
0.04840,2.80000,-4.41000,0.00000,0.00342,0.96526,-0.23070,2023,6,9,12,19,57,659
0.04850,2.92250,-4.83000,0.00000,0.00207,0.96502,-0.22655,2023,6,9,12,19,57,670
0.04860,2.74750,-4.46250,0.00000,0.00390,0.96661,-0.22838,2023,6,9,12,19,57,681
0.04870,3.01000,-4.62000,0.00000,0.00366,0.96783,-0.23143,2023,6,9,12,19,57,693
0.04880,2.90500,-4.58500,0.00000,-0.00061,0.96514,-0.22753,2023,6,9,12,19,57,704
0.04890,2.67750,-4.58500,0.00000,0.00159,0.96758,-0.22570,2023,6,9,12,19,57,715
0.04900,2.85250,-4.41000,0.00000,0.00244,0.96734,-0.23131,2023,6,9,12,19,57,726
0.04910,2.83500,-4.53250,0.00000,0.00293,0.97014,-0.23070,2023,6,9,12,19,57,737
0.04920,2.73000,-4.91750,0.00000,0.00159,0.96709,-0.22887,2023,6,9,12,19,57,748
0.04930,2.83500,-4.49750,0.00000,0.00110,0.96819,-0.23131,2023,6,9,12,19,57,759
0.04940,2.71250,-4.81250,0.00000,0.00415,0.96807,-0.23131,2023,6,9,12,19,57,770
0.04950,2.99250,-4.65500,0.00000,0.00342,0.96953,-0.22716,2023,6,9,12,19,57,781
0.04960,2.99250,-4.65500,0.00000,0.00378,0.96722,-0.23034,2023,6,9,12,19,57,793
0.04970,2.73000,-4.35750,0.00000,0.00220,0.96831,-0.22960,2023,6,9,12,19,57,804
0.04980,2.74750,-4.53250,0.00000,0.00366,0.96783,-0.22448,2023,6,9,12,19,57,815
0.04990,2.78250,-4.48000,0.00000,0.00256,0.96465,-0.22753,2023,6,9,12,19,57,826
0.05000,2.99250,-4.51500,0.00000,0.00146,0.96502,-0.22643,2023,6,9,12,19,57,837
0.05010,2.90500,-4.65500,0.00000,0.00378,0.96795,-0.22668,2023,6,9,12,19,57,848
0.05020,2.74750,-4.56750,0.00000,0.00549,0.96673,-0.23156,2023,6,9,12,19,57,859
0.05030,2.69500,-4.63750,0.00000,0.00525,0.96563,-0.22716,2023,6,9,12,19,57,870
0.05040,2.92250,-4.69000,0.00000,0.00159,0.96661,-0.22472,2023,6,9,12,19,57,881
0.05050,2.64250,-4.41000,0.00000,0.00378,0.96783,-0.22558,2023,6,9,12,19,57,893
0.05060,2.69500,-4.49750,0.00000,0.00464,0.96783,-0.22607,2023,6,9,12,19,57,904
0.05070,2.78250,-4.90000,0.00000,0.00403,0.96783,-0.22521,2023,6,9,12,19,57,915
0.05080,2.69500,-4.72500,0.00000,0.00537,0.96844,-0.22790,2023,6,9,12,19,57,926
0.05090,2.99250,-4.58500,0.00000,0.00268,0.96636,-0.22948,2023,6,9,12,19,57,937
0.05100,2.97500,-4.62000,0.00000,0.00110,0.96722,-0.22790,2023,6,9,12,19,57,948
0.05110,2.66000,-4.98750,0.00000,0.00293,0.96587,-0.23156,2023,6,9,12,19,57,959
0.05120,2.95750,-4.32250,0.00000,0.00464,0.96892,-0.23241,2023,6,9,12,19,57,970
0.05130,2.66000,-4.56750,0.00000,0.00390,0.96661,-0.22631,2023,6,9,12,19,57,981
0.05140,3.02750,-4.72500,0.00000,0.00146,0.96783,-0.23009,2023,6,9,12,19,57,993
0.05150,2.74750,-4.35750,0.00000,0.00268,0.96807,-0.22899,2023,6,9,12,19,57,4
0.05160,2.71250,-4.41000,0.00000,0.00232,0.97088,-0.22863,2023,6,9,12,19,58,5
0.05170,2.76500,-4.56750,0.00000,0.00525,0.96746,-0.22631,2023,6,9,12,19,58,16
0.05180,2.80000,-4.55000,0.00000,0.00354,0.96502,-0.22668,2023,6,9,12,19,58,27
0.05190,2.83500,-4.37500,0.00000,0.00403,0.96856,-0.22863,2023,6,9,12,19,58,38
0.05200,2.60750,-4.81250,0.00000,0.00317,0.96453,-0.22497,2023,6,9,12,19,58,49
0.05210,2.80000,-4.62000,0.00000,0.00134,0.96587,-0.22802,2023,6,9,12,19,58,60
0.05220,2.73000,-4.70750,0.00000,0.00293,0.96600,-0.22594,2023,6,9,12,19,58,71
0.05230,2.94000,-4.51500,0.00000,0.00146,0.96673,-0.22619,2023,6,9,12,19,58,83
0.05240,2.95750,-4.76000,0.00000,0.00183,0.96575,-0.22863,2023,6,9,12,19,58,94
0.05250,2.97500,-4.58500,0.00000,0.00232,0.96746,-0.22607,2023,6,9,12,19,58,105
0.05260,2.85250,-4.53250,0.00000,0.00171,0.96600,-0.22753,2023,6,9,12,19,58,116
0.05270,2.78250,-4.79500,0.00000,0.00415,0.96612,-0.22631,2023,6,9,12,19,58,127
0.05280,2.80000,-4.51500,0.00000,0.00073,0.96648,-0.22924,2023,6,9,12,19,58,138
0.05290,2.83500,-4.69000,0.00000,0.00439,0.96319,-0.22375,2023,6,9,12,19,58,149
0.05300,2.88750,-4.48000,0.00000,0.00415,0.96758,-0.22887,2023,6,9,12,19,58,160
0.05310,2.88750,-4.83000,0.00000,0.00098,0.96844,-0.22912,2023,6,9,12,19,58,171
0.05320,2.69500,-4.70750,0.00000,0.00268,0.96685,-0.22765,2023,6,9,12,19,58,183
0.05330,2.87000,-4.49750,0.00000,0.00403,0.96673,-0.22814,2023,6,9,12,19,58,194
0.05340,2.88750,-4.55000,0.00000,0.00146,0.96831,-0.22960,2023,6,9,12,19,58,205
0.05350,2.64250,-4.53250,0.00000,0.00207,0.96685,-0.22521,2023,6,9,12,19,58,216
0.05360,2.88750,-4.39250,0.00000,0.00256,0.96746,-0.23180,2023,6,9,12,19,58,227
0.05370,2.85250,-4.48000,0.00000,0.00427,0.96783,-0.22802,2023,6,9,12,19,58,238
0.05380,2.87000,-4.67250,0.00000,0.00256,0.96685,-0.22692,2023,6,9,12,19,58,249
0.05390,2.69500,-4.46250,0.00000,0.00403,0.96661,-0.22887,2023,6,9,12,19,58,260
0.05400,2.95750,-4.55000,0.00000,0.00317,0.96941,-0.22887,2023,6,9,12,19,58,271
0.05410,2.64250,-4.49750,0.00000,0.00122,0.96636,-0.22460,2023,6,9,12,19,58,283
0.05420,2.99250,-4.69000,0.00000,0.00354,0.96966,-0.22741,2023,6,9,12,19,58,294
0.05430,2.88750,-4.34000,0.00000,0.00268,0.96734,-0.22960,2023,6,9,12,19,58,305
0.05440,2.76500,-4.53250,0.00000,0.00122,0.96917,-0.22643,2023,6,9,12,19,58,316
0.05450,2.73000,-4.56750,0.00000,0.00317,0.96661,-0.22814,2023,6,9,12,19,58,327
0.05460,2.90500,-4.42750,0.00000,0.00268,0.96770,-0.22497,2023,6,9,12,19,58,338
0.05470,2.69500,-4.83000,0.00000,0.00451,0.96563,-0.22448,2023,6,9,12,19,58,349
0.05480,2.59000,-4.63750,0.00000,0.00256,0.96673,-0.22802,2023,6,9,12,19,58,360
0.05490,2.99250,-4.77750,0.00000,0.00403,0.96563,-0.22716,2023,6,9,12,19,58,371
0.05500,2.83500,-4.86500,0.00000,0.00403,0.96526,-0.22387,2023,6,9,12,19,58,383
0.05510,2.67750,-4.74250,0.00000,0.00464,0.96661,-0.22716,2023,6,9,12,19,58,394
0.05520,2.69500,-4.56750,0.00000,0.00354,0.96514,-0.22631,2023,6,9,12,19,58,405
0.05530,2.62500,-4.74250,0.00000,0.00281,0.96734,-0.22363,2023,6,9,12,19,58,416
0.05540,2.67750,-4.97000,0.00000,0.00476,0.96612,-0.22899,2023,6,9,12,19,58,427
0.05550,2.78250,-4.70750,0.00000,0.00183,0.96844,-0.22790,2023,6,9,12,19,58,438
0.05560,2.95750,-4.74250,0.00000,0.00232,0.96795,-0.22521,2023,6,9,12,19,58,449
0.05570,2.83500,-4.46250,0.00000,0.00281,0.96575,-0.22936,2023,6,9,12,19,58,460
0.05580,2.87000,-4.35750,0.00000,0.00268,0.96600,-0.22814,2023,6,9,12,19,58,471
0.05590,2.87000,-4.81250,0.00000,0.00146,0.96917,-0.22716,2023,6,9,12,19,58,483
0.05600,2.78250,-4.60250,0.00000,0.00390,0.96966,-0.23119,2023,6,9,12,19,58,494
0.05610,2.78250,-4.65500,0.00000,0.00207,0.96612,-0.23082,2023,6,9,12,19,58,505
0.05620,2.69500,-4.69000,0.00000,0.00317,0.96722,-0.22387,2023,6,9,12,19,58,516
0.05630,2.90500,-4.69000,0.00000,0.00342,0.96746,-0.22826,2023,6,9,12,19,58,527
0.05640,3.01000,-4.62000,0.00000,0.00366,0.96807,-0.23021,2023,6,9,12,19,58,538
0.05650,2.80000,-4.72500,0.00000,0.00293,0.96502,-0.22546,2023,6,9,12,19,58,549
0.05660,3.02750,-4.72500,0.00000,0.00293,0.96600,-0.22655,2023,6,9,12,19,58,560
0.05670,2.71250,-4.69000,0.00000,0.00024,0.96539,-0.22521,2023,6,9,12,19,58,571
0.05680,2.71250,-4.55000,0.00000,0.00403,0.96587,-0.22472,2023,6,9,12,19,58,583
0.05690,2.62500,-4.62000,0.00000,0.00354,0.96795,-0.22546,2023,6,9,12,19,58,594
0.05700,2.78250,-4.49750,0.00000,0.00329,0.96722,-0.22655,2023,6,9,12,19,58,605
0.05710,2.74750,-4.53250,0.00000,0.00159,0.96868,-0.22558,2023,6,9,12,19,58,616
0.05720,2.80000,-4.70750,0.00000,0.00268,0.96575,-0.22533,2023,6,9,12,19,58,627
0.05730,2.76500,-4.55000,0.00000,0.00207,0.96819,-0.22704,2023,6,9,12,19,58,638
0.05740,2.78250,-4.72500,0.00000,0.00366,0.96685,-0.22375,2023,6,9,12,19,58,649
0.05750,2.97500,-4.55000,0.00000,0.00281,0.96758,-0.22802,2023,6,9,12,19,58,660
0.05760,2.80000,-4.44500,0.00000,0.00134,0.96770,-0.22912,2023,6,9,12,19,58,671
0.05770,2.66000,-4.77750,0.00000,0.00061,0.96709,-0.22741,2023,6,9,12,19,58,683
0.05780,2.94000,-4.41000,0.00000,0.00451,0.96600,-0.23119,2023,6,9,12,19,58,694
0.05790,2.88750,-4.39250,0.00000,0.00573,0.96978,-0.22680,2023,6,9,12,19,58,705
0.05800,2.80000,-4.53250,0.00000,0.00464,0.96868,-0.22631,2023,6,9,12,19,58,716
0.05810,2.74750,-4.69000,0.00000,0.00268,0.96697,-0.22814,2023,6,9,12,19,58,727
0.05820,2.88750,-4.44500,0.00000,0.00342,0.96746,-0.23082,2023,6,9,12,19,58,738
0.05830,2.69500,-4.69000,0.00000,0.00317,0.96831,-0.22643,2023,6,9,12,19,58,749
0.05840,2.78250,-4.69000,0.00000,0.00305,0.96917,-0.22704,2023,6,9,12,19,58,760
0.05850,3.13250,-4.32250,0.00000,0.00305,0.96624,-0.22814,2023,6,9,12,19,58,771
0.05860,2.87000,-4.76000,0.00000,0.00329,0.96587,-0.22350,2023,6,9,12,19,58,783
0.05870,2.74750,-4.74250,0.00000,0.00415,0.96819,-0.22533,2023,6,9,12,19,58,794
0.05880,2.85250,-4.53250,0.00000,0.00232,0.96905,-0.23034,2023,6,9,12,19,58,805
0.05890,2.57250,-4.70750,0.00000,0.00268,0.96648,-0.22594,2023,6,9,12,19,58,816
0.05900,2.71250,-4.69000,0.00000,0.00268,0.96465,-0.22375,2023,6,9,12,19,58,827
0.05910,2.88750,-4.46250,0.00000,0.00293,0.96831,-0.22765,2023,6,9,12,19,58,838
0.05920,2.80000,-4.83000,0.00000,0.00244,0.96526,-0.22472,2023,6,9,12,19,58,849
0.05930,2.71250,-4.77750,0.00000,0.00354,0.96697,-0.22326,2023,6,9,12,19,58,860
0.05940,2.76500,-4.56750,0.00000,0.00488,0.96734,-0.23058,2023,6,9,12,19,58,871
0.05950,2.83500,-4.62000,0.00000,0.00403,0.96624,-0.22826,2023,6,9,12,19,58,883
0.05960,2.80000,-4.76000,0.00000,0.00232,0.96417,-0.22387,2023,6,9,12,19,58,894
0.05970,2.87000,-4.63750,0.00000,0.00464,0.96673,-0.22997,2023,6,9,12,19,58,905
0.05980,2.83500,-4.49750,0.00000,0.00122,0.96746,-0.22863,2023,6,9,12,19,58,916
0.05990,2.76500,-4.67250,0.00000,0.00390,0.96722,-0.22790,2023,6,9,12,19,58,927
0.06000,2.94000,-4.46250,0.00000,0.00293,0.96539,-0.22887,2023,6,9,12,19,58,938
0.06010,2.85250,-4.63750,0.00000,0.00195,0.96807,-0.22802,2023,6,9,12,19,58,949
0.06020,2.66000,-4.74250,0.00000,0.00098,0.96844,-0.22570,2023,6,9,12,19,58,960
0.06030,2.74750,-4.62000,0.00000,0.00317,0.96807,-0.22716,2023,6,9,12,19,58,971
0.06040,2.94000,-4.53250,0.00000,0.00378,0.96600,-0.22753,2023,6,9,12,19,58,983
0.06050,2.78250,-4.67250,0.00000,0.00342,0.96856,-0.22411,2023,6,9,12,19,58,994
0.06060,2.71250,-4.53250,0.00000,0.00500,0.96770,-0.22912,2023,6,9,12,19,58,5
0.06070,2.80000,-4.44500,0.00000,0.00268,0.96746,-0.23107,2023,6,9,12,19,59,6
0.06080,2.76500,-4.79500,0.00000,0.00232,0.96648,-0.22570,2023,6,9,12,19,59,17
0.06090,3.01000,-4.70750,0.00000,0.00317,0.96734,-0.22533,2023,6,9,12,19,59,28
0.06100,2.83500,-4.34000,0.00000,0.00195,0.96697,-0.22765,2023,6,9,12,19,59,39
0.06110,2.94000,-4.53250,0.00000,0.00195,0.96758,-0.22387,2023,6,9,12,19,59,50
0.06120,2.76500,-4.58500,0.00000,0.00085,0.96685,-0.22802,2023,6,9,12,19,59,61
0.06130,2.81750,-4.70750,0.00000,0.00378,0.96892,-0.22960,2023,6,9,12,19,59,73
0.06140,2.74750,-4.88250,0.00000,0.00439,0.96953,-0.22436,2023,6,9,12,19,59,84
0.06150,2.64250,-4.51500,0.00000,0.00244,0.96746,-0.22582,2023,6,9,12,19,59,95
0.06160,3.09750,-4.77750,0.00000,0.00207,0.96807,-0.22655,2023,6,9,12,19,59,106
0.06170,2.83500,-4.65500,0.00000,0.00256,0.96868,-0.22521,2023,6,9,12,19,59,117
0.06180,2.74750,-4.62000,0.00000,0.00390,0.96709,-0.22741,2023,6,9,12,19,59,128
0.06190,2.83500,-4.70750,0.00000,0.00342,0.96795,-0.22851,2023,6,9,12,19,59,139
0.06200,2.74750,-4.35750,0.00000,0.00439,0.96490,-0.22424,2023,6,9,12,19,59,150
0.06210,2.76500,-4.42750,0.00000,0.00171,0.96770,-0.22716,2023,6,9,12,19,59,161
0.06220,2.88750,-4.39250,0.00000,0.00195,0.96709,-0.22655,2023,6,9,12,19,59,173
0.06230,2.69500,-4.53250,0.00000,0.00244,0.96490,-0.22704,2023,6,9,12,19,59,184
0.06240,2.78250,-4.48000,0.00000,0.00207,0.96722,-0.22924,2023,6,9,12,19,59,195
0.06250,2.92250,-4.86500,0.00000,0.00512,0.96917,-0.22936,2023,6,9,12,19,59,206
0.06260,2.97500,-4.81250,0.00000,0.00195,0.96478,-0.22460,2023,6,9,12,19,59,217
0.06270,2.87000,-4.48000,0.00000,0.00476,0.96673,-0.22765,2023,6,9,12,19,59,228
0.06280,2.74750,-4.53250,0.00000,0.00342,0.96612,-0.23119,2023,6,9,12,19,59,239
0.06290,2.81750,-4.74250,0.00000,0.00390,0.96831,-0.22314,2023,6,9,12,19,59,250
0.06300,2.76500,-4.60250,0.00000,0.00378,0.96856,-0.22790,2023,6,9,12,19,59,261
0.06310,2.74750,-4.49750,0.00000,0.00390,0.96819,-0.22741,2023,6,9,12,19,59,273
0.06320,2.73000,-4.58500,0.00000,0.00220,0.96905,-0.22228,2023,6,9,12,19,59,284
0.06330,2.87000,-4.76000,0.00000,0.00134,0.96734,-0.22607,2023,6,9,12,19,59,295
0.06340,2.80000,-4.48000,0.00000,0.00464,0.96661,-0.22936,2023,6,9,12,19,59,306
0.06350,2.83500,-4.79500,0.00000,0.00220,0.96673,-0.22582,2023,6,9,12,19,59,317
0.06360,2.76500,-4.58500,0.00000,0.00305,0.96624,-0.22570,2023,6,9,12,19,59,328
0.06370,2.57250,-4.60250,0.00000,0.00244,0.96990,-0.22668,2023,6,9,12,19,59,339
0.06380,2.74750,-4.72500,0.00000,0.00342,0.96624,-0.22302,2023,6,9,12,19,59,350
0.06390,2.81750,-4.69000,0.00000,0.00354,0.96685,-0.22363,2023,6,9,12,19,59,361
0.06400,2.81750,-4.70750,0.00000,0.00183,0.96648,-0.22936,2023,6,9,12,19,59,373
0.06410,2.80000,-4.53250,0.00000,0.00195,0.96709,-0.22729,2023,6,9,12,19,59,384
0.06420,2.83500,-4.48000,0.00000,0.00329,0.96465,-0.22765,2023,6,9,12,19,59,395
0.06430,3.02750,-4.39250,0.00000,0.00220,0.96746,-0.23034,2023,6,9,12,19,59,406
0.06440,2.60750,-4.70750,0.00000,0.00476,0.96502,-0.22375,2023,6,9,12,19,59,417
0.06450,2.87000,-4.63750,0.00000,0.00159,0.96868,-0.22790,2023,6,9,12,19,59,428
0.06460,2.95750,-4.53250,0.00000,0.00354,0.96941,-0.22973,2023,6,9,12,19,59,439
0.06470,2.88750,-4.77750,0.00000,0.00171,0.96612,-0.22716,2023,6,9,12,19,59,450
0.06480,2.88750,-4.74250,0.00000,0.00305,0.96563,-0.22765,2023,6,9,12,19,59,461
0.06490,2.83500,-4.58500,0.00000,0.00415,0.97088,-0.22863,2023,6,9,12,19,59,473
0.06500,2.95750,-4.62000,0.00000,0.00012,0.96465,-0.22485,2023,6,9,12,19,59,484
0.06510,2.92250,-4.49750,0.00000,0.00317,0.96844,-0.22875,2023,6,9,12,19,59,495
0.06520,3.02750,-4.53250,0.00000,0.00281,0.96844,-0.23119,2023,6,9,12,19,59,506
0.06530,2.74750,-4.88250,0.00000,0.00037,0.96636,-0.22521,2023,6,9,12,19,59,517
0.06540,2.83500,-4.51500,0.00000,0.00268,0.96819,-0.22448,2023,6,9,12,19,59,528
0.06550,2.64250,-4.41000,0.00000,0.00281,0.96819,-0.22826,2023,6,9,12,19,59,539
0.06560,2.59000,-4.88250,0.00000,0.00512,0.96648,-0.22472,2023,6,9,12,19,59,550
0.06570,2.67750,-4.74250,0.00000,0.00207,0.96673,-0.22265,2023,6,9,12,19,59,561
0.06580,2.71250,-4.55000,0.00000,0.00244,0.96587,-0.22814,2023,6,9,12,19,59,573
0.06590,2.74750,-4.67250,0.00000,0.00329,0.96478,-0.22570,2023,6,9,12,19,59,584
0.06600,2.73000,-4.65500,0.00000,0.00122,0.96478,-0.22338,2023,6,9,12,19,59,595
0.06610,2.90500,-4.62000,0.00000,0.00061,0.96807,-0.23082,2023,6,9,12,19,59,606
0.06620,2.59000,-4.44500,0.00000,0.00207,0.96673,-0.22668,2023,6,9,12,19,59,617
0.06630,2.69500,-4.51500,0.00000,0.00207,0.96563,-0.22460,2023,6,9,12,19,59,628
0.06640,2.67750,-4.77750,0.00000,0.00220,0.96526,-0.22826,2023,6,9,12,19,59,639
0.06650,2.87000,-4.60250,0.00000,0.00232,0.96490,-0.22777,2023,6,9,12,19,59,650
0.06660,2.76500,-4.74250,0.00000,0.00329,0.96514,-0.22753,2023,6,9,12,19,59,661
0.06670,2.88750,-4.56750,0.00000,0.00512,0.96892,-0.23107,2023,6,9,12,19,59,673
0.06680,2.85250,-4.63750,0.00000,0.00342,0.96746,-0.22692,2023,6,9,12,19,59,684
0.06690,2.71250,-4.58500,0.00000,0.00146,0.96783,-0.22692,2023,6,9,12,19,59,695
0.06700,2.90500,-4.58500,0.00000,0.00232,0.96697,-0.22960,2023,6,9,12,19,59,706
0.06710,2.80000,-4.48000,0.00000,0.00342,0.96661,-0.23046,2023,6,9,12,19,59,717
0.06720,2.66000,-4.65500,0.00000,0.00134,0.96478,-0.22631,2023,6,9,12,19,59,728
0.06730,2.88750,-4.55000,0.00000,0.00171,0.96636,-0.22875,2023,6,9,12,19,59,739
0.06740,2.85250,-4.60250,0.00000,0.00378,0.96978,-0.22826,2023,6,9,12,19,59,750
0.06750,2.80000,-4.53250,0.00000,0.00220,0.96673,-0.22265,2023,6,9,12,19,59,761
0.06760,2.83500,-4.53250,0.00000,0.00122,0.96990,-0.22680,2023,6,9,12,19,59,773
0.06770,2.80000,-4.49750,0.00000,0.00293,0.96844,-0.22924,2023,6,9,12,19,59,784
0.06780,2.73000,-4.70750,0.00000,0.00195,0.96502,-0.22509,2023,6,9,12,19,59,795
0.06790,2.74750,-4.63750,0.00000,0.00354,0.96758,-0.22607,2023,6,9,12,19,59,806
0.06800,2.78250,-4.44500,0.00000,0.00525,0.96892,-0.22875,2023,6,9,12,19,59,817
0.06810,2.88750,-4.81250,0.00000,0.00342,0.96758,-0.22546,2023,6,9,12,19,59,828
0.06820,2.87000,-4.69000,0.00000,0.00317,0.96978,-0.22692,2023,6,9,12,19,59,839
0.06830,2.94000,-4.49750,0.00000,0.00427,0.96978,-0.23082,2023,6,9,12,19,59,850
0.06840,2.67750,-4.55000,0.00000,0.00537,0.96478,-0.22716,2023,6,9,12,19,59,861
0.06850,2.55500,-4.56750,0.00000,0.00281,0.96648,-0.22765,2023,6,9,12,19,59,873
0.06860,2.95750,-4.27000,0.00000,0.00317,0.96709,-0.23107,2023,6,9,12,19,59,884
0.06870,2.81750,-4.41000,0.00000,0.00134,0.96600,-0.22851,2023,6,9,12,19,59,895
0.06880,2.80000,-4.72500,0.00000,0.00195,0.96831,-0.22826,2023,6,9,12,19,59,906
0.06890,2.83500,-4.44500,0.00000,0.00354,0.96783,-0.22716,2023,6,9,12,19,59,917
0.06900,2.92250,-4.58500,0.00000,0.00366,0.96795,-0.23034,2023,6,9,12,19,59,928
0.06910,2.80000,-4.91750,0.00000,0.00403,0.96685,-0.22668,2023,6,9,12,19,59,939
0.06920,2.78250,-4.65500,0.00000,0.00378,0.96697,-0.22973,2023,6,9,12,19,59,950
0.06930,2.90500,-4.79500,0.00000,0.00268,0.97063,-0.22814,2023,6,9,12,19,59,961
0.06940,2.76500,-4.62000,0.00000,0.00171,0.96819,-0.22777,2023,6,9,12,19,59,973
0.06950,2.87000,-4.58500,0.00000,0.00098,0.96612,-0.22680,2023,6,9,12,19,59,984
0.06960,2.80000,-4.46250,0.00000,0.00464,0.96648,-0.23058,2023,6,9,12,19,59,995
0.06970,2.88750,-4.77750,0.00000,0.00525,0.96612,-0.22838,2023,6,9,12,19,59,6
0.06980,3.01000,-4.69000,0.00000,0.00171,0.96685,-0.22680,2023,6,9,12,20,0,7
0.06990,2.81750,-4.44500,0.00000,0.00378,0.96465,-0.22924,2023,6,9,12,20,0,18
0.07000,2.95750,-4.60250,0.00000,0.00220,0.96526,-0.23058,2023,6,9,12,20,0,29
0.07010,2.85250,-4.70750,0.00000,0.00268,0.96661,-0.22826,2023,6,9,12,20,0,40
0.07020,2.80000,-4.63750,0.00000,0.00256,0.96966,-0.22814,2023,6,9,12,20,0,51
0.07030,2.85250,-4.69000,0.00000,0.00415,0.96514,-0.22960,2023,6,9,12,20,0,63
0.07040,2.85250,-4.53250,0.00000,0.00366,0.96636,-0.22887,2023,6,9,12,20,0,74
0.07050,2.80000,-4.88250,0.00000,0.00195,0.96892,-0.22777,2023,6,9,12,20,0,85
0.07060,2.94000,-4.41000,0.00000,0.00378,0.96722,-0.22814,2023,6,9,12,20,0,96
0.07070,2.95750,-4.46250,0.00000,0.00403,0.96551,-0.23082,2023,6,9,12,20,0,107
0.07080,2.52000,-4.67250,0.00000,0.00171,0.96770,-0.22485,2023,6,9,12,20,0,118
0.07090,2.80000,-4.56750,0.00000,0.00342,0.96722,-0.22802,2023,6,9,12,20,0,129
0.07100,2.83500,-4.63750,0.00000,0.00207,0.96453,-0.22826,2023,6,9,12,20,0,140
0.07110,2.69500,-4.79500,0.00000,0.00159,0.96807,-0.22668,2023,6,9,12,20,0,151
0.07120,2.57250,-4.65500,0.00000,0.00329,0.96685,-0.22619,2023,6,9,12,20,0,163
0.07130,2.92250,-4.56750,0.00000,0.00439,0.96941,-0.22814,2023,6,9,12,20,0,174
0.07140,2.81750,-4.74250,0.00000,0.00305,0.96465,-0.22643,2023,6,9,12,20,0,185
0.07150,2.81750,-4.72500,0.00000,0.00146,0.96770,-0.22228,2023,6,9,12,20,0,196
0.07160,2.60750,-4.55000,0.00000,0.00281,0.96612,-0.22680,2023,6,9,12,20,0,207
0.07170,2.73000,-4.55000,0.00000,0.00305,0.96746,-0.22790,2023,6,9,12,20,0,218
0.07180,2.85250,-4.55000,0.00000,0.00195,0.96807,-0.22460,2023,6,9,12,20,0,229
0.07190,2.69500,-4.93500,0.00000,0.00305,0.96624,-0.22546,2023,6,9,12,20,0,240
0.07200,2.78250,-4.62000,0.00000,0.00354,0.96380,-0.22753,2023,6,9,12,20,0,251
0.07210,2.90500,-4.46250,0.00000,0.00305,0.96807,-0.22594,2023,6,9,12,20,0,263
0.07220,2.71250,-4.65500,0.00000,0.00183,0.96734,-0.22509,2023,6,9,12,20,0,274
0.07230,2.80000,-4.60250,0.00000,0.00415,0.96819,-0.22338,2023,6,9,12,20,0,285
0.07240,2.85250,-4.44500,0.00000,0.00232,0.96685,-0.23095,2023,6,9,12,20,0,296
0.07250,2.85250,-4.93500,0.00000,0.00220,0.96685,-0.22448,2023,6,9,12,20,0,307
0.07260,2.73000,-4.81250,0.00000,0.00342,0.96685,-0.22765,2023,6,9,12,20,0,318
0.07270,2.83500,-4.63750,0.00000,0.00476,0.96722,-0.22887,2023,6,9,12,20,0,329
0.07280,2.95750,-4.58500,0.00000,0.00366,0.96636,-0.22924,2023,6,9,12,20,0,340
0.07290,2.55500,-4.67250,0.00000,0.00110,0.96758,-0.22692,2023,6,9,12,20,0,351
0.07300,2.85250,-4.77750,0.00000,0.00232,0.96612,-0.22680,2023,6,9,12,20,0,363
0.07310,2.92250,-4.70750,0.00000,0.00317,0.96941,-0.22643,2023,6,9,12,20,0,374
0.07320,2.76500,-4.67250,0.00000,0.00122,0.96661,-0.22460,2023,6,9,12,20,0,385
0.07330,2.73000,-4.56750,0.00000,0.00268,0.96624,-0.22582,2023,6,9,12,20,0,396
0.07340,2.80000,-4.48000,0.00000,0.00256,0.96770,-0.22863,2023,6,9,12,20,0,407
0.07350,2.80000,-4.60250,0.00000,0.00378,0.96587,-0.22802,2023,6,9,12,20,0,418
0.07360,2.55500,-4.55000,0.00000,0.00366,0.96563,-0.22485,2023,6,9,12,20,0,429
0.07370,2.83500,-4.41000,0.00000,0.00464,0.96648,-0.22973,2023,6,9,12,20,0,440
0.07380,2.83500,-4.60250,0.00000,0.00451,0.96478,-0.22851,2023,6,9,12,20,0,451
0.07390,2.80000,-4.86500,0.00000,0.00354,0.96905,-0.22485,2023,6,9,12,20,0,463
0.07400,2.90500,-4.70750,0.00000,0.00305,0.96746,-0.22570,2023,6,9,12,20,0,474
0.07410,3.06250,-4.67250,0.00000,0.00390,0.96648,-0.23021,2023,6,9,12,20,0,485
0.07420,2.87000,-4.44500,0.00000,0.00220,0.96990,-0.22948,2023,6,9,12,20,0,496
0.07430,2.74750,-4.65500,0.00000,0.00342,0.96526,-0.22533,2023,6,9,12,20,0,507
0.07440,2.80000,-4.51500,0.00000,0.00305,0.96917,-0.22960,2023,6,9,12,20,0,518
0.07450,2.99250,-4.48000,0.00000,0.00451,0.96636,-0.22875,2023,6,9,12,20,0,529
0.07460,2.95750,-5.00500,0.00000,0.00220,0.96697,-0.22582,2023,6,9,12,20,0,540
0.07470,2.73000,-4.67250,0.00000,0.00134,0.96478,-0.22582,2023,6,9,12,20,0,551
0.07480,2.81750,-4.60250,0.00000,0.00427,0.96746,-0.23021,2023,6,9,12,20,0,563
0.07490,2.97500,-4.65500,0.00000,0.00220,0.96514,-0.22716,2023,6,9,12,20,0,574
0.07500,2.73000,-4.58500,0.00000,0.00220,0.96478,-0.22497,2023,6,9,12,20,0,585
0.07510,2.74750,-4.62000,0.00000,0.00195,0.96600,-0.22216,2023,6,9,12,20,0,596
0.07520,3.09750,-4.84750,0.00000,0.00281,0.96722,-0.22960,2023,6,9,12,20,0,607
0.07530,3.06250,-4.77750,0.00000,0.00207,0.97039,-0.22631,2023,6,9,12,20,0,618
0.07540,2.81750,-4.67250,0.00000,0.00342,0.96831,-0.22655,2023,6,9,12,20,0,629
0.07550,2.85250,-4.46250,0.00000,0.00305,0.96575,-0.22802,2023,6,9,12,20,0,640
0.07560,2.73000,-4.39250,0.00000,0.00293,0.96722,-0.22960,2023,6,9,12,20,0,651
0.07570,2.76500,-4.70750,0.00000,0.00195,0.96795,-0.22582,2023,6,9,12,20,0,663
0.07580,2.69500,-4.37500,0.00000,0.00232,0.96722,-0.23034,2023,6,9,12,20,0,674
0.07590,2.90500,-4.81250,0.00000,0.00183,0.96722,-0.23058,2023,6,9,12,20,0,685
0.07600,2.64250,-4.72500,0.00000,0.00159,0.96709,-0.22692,2023,6,9,12,20,0,696
0.07610,2.78250,-4.69000,0.00000,0.00366,0.96648,-0.22936,2023,6,9,12,20,0,707
0.07620,2.83500,-4.30500,0.00000,0.00305,0.96856,-0.22753,2023,6,9,12,20,0,718
0.07630,3.01000,-4.77750,0.00000,0.00183,0.96697,-0.22289,2023,6,9,12,20,0,729
0.07640,2.92250,-4.76000,0.00000,0.00207,0.96600,-0.22692,2023,6,9,12,20,0,740
0.07650,2.85250,-4.41000,0.00000,0.00244,0.96612,-0.22960,2023,6,9,12,20,0,751
0.07660,2.88750,-4.58500,0.00000,0.00110,0.96490,-0.22741,2023,6,9,12,20,0,763
0.07670,2.69500,-4.70750,0.00000,0.00122,0.96429,-0.22546,2023,6,9,12,20,0,774
0.07680,2.95750,-4.60250,0.00000,0.00488,0.96770,-0.22997,2023,6,9,12,20,0,785
0.07690,3.01000,-4.55000,0.00000,0.00427,0.96746,-0.22924,2023,6,9,12,20,0,796
0.07700,2.76500,-4.74250,0.00000,0.00366,0.96600,-0.22570,2023,6,9,12,20,0,807
0.07710,2.90500,-4.76000,0.00000,0.00439,0.96575,-0.22631,2023,6,9,12,20,0,818
0.07720,2.92250,-4.41000,0.00000,0.00171,0.96746,-0.23265,2023,6,9,12,20,0,829
0.07730,2.76500,-4.67250,0.00000,0.00232,0.96514,-0.22521,2023,6,9,12,20,0,840
0.07740,2.73000,-4.51500,0.00000,0.00378,0.96600,-0.22790,2023,6,9,12,20,0,851
0.07750,2.90500,-4.62000,0.00000,0.00390,0.96770,-0.23082,2023,6,9,12,20,0,863
0.07760,2.71250,-4.53250,0.00000,0.00244,0.96770,-0.22631,2023,6,9,12,20,0,874
0.07770,2.87000,-4.58500,0.00000,0.00305,0.96807,-0.22558,2023,6,9,12,20,0,885
0.07780,2.81750,-4.37500,0.00000,0.00268,0.96746,-0.22777,2023,6,9,12,20,0,896
0.07790,2.62500,-4.62000,0.00000,0.00403,0.96880,-0.22619,2023,6,9,12,20,0,907
0.07800,2.52000,-4.65500,0.00000,0.00293,0.96856,-0.22875,2023,6,9,12,20,0,918
0.07810,2.83500,-4.34000,0.00000,0.00122,0.96636,-0.22973,2023,6,9,12,20,0,929
0.07820,2.94000,-4.55000,0.00000,0.00268,0.96783,-0.22765,2023,6,9,12,20,0,940
0.07830,2.90500,-4.48000,0.00000,0.00537,0.96734,-0.22680,2023,6,9,12,20,0,951
0.07840,2.88750,-4.58500,0.00000,0.00256,0.96880,-0.22777,2023,6,9,12,20,0,963
0.07850,2.78250,-4.51500,0.00000,0.00183,0.96831,-0.23021,2023,6,9,12,20,0,974
0.07860,2.67750,-4.56750,0.00000,0.00354,0.96587,-0.22546,2023,6,9,12,20,0,985
0.07870,2.92250,-4.41000,0.00000,0.00476,0.96758,-0.22765,2023,6,9,12,20,0,996
0.07880,2.88750,-4.63750,0.00000,0.00342,0.96722,-0.22302,2023,6,9,12,20,1,7
0.07890,2.78250,-4.55000,0.00000,0.00293,0.96429,-0.22594,2023,6,9,12,20,1,18
0.07900,2.90500,-4.62000,0.00000,0.00232,0.96734,-0.22826,2023,6,9,12,20,1,29
0.07910,2.69500,-4.76000,0.00000,0.00256,0.96807,-0.22533,2023,6,9,12,20,1,40
0.07920,2.80000,-4.70750,0.00000,0.00134,0.96600,-0.22570,2023,6,9,12,20,1,51
0.07930,2.94000,-4.62000,0.00000,0.00415,0.96758,-0.22692,2023,6,9,12,20,1,63
0.07940,2.66000,-4.46250,0.00000,0.00183,0.96795,-0.22521,2023,6,9,12,20,1,74
0.07950,2.64250,-4.53250,0.00000,0.00146,0.96624,-0.22497,2023,6,9,12,20,1,85
0.07960,2.88750,-4.79500,0.00000,0.00232,0.96880,-0.23253,2023,6,9,12,20,1,96
0.07970,2.78250,-4.65500,0.00000,0.00354,0.96807,-0.22753,2023,6,9,12,20,1,107
0.07980,2.73000,-4.81250,0.00000,0.00439,0.96453,-0.22546,2023,6,9,12,20,1,118
0.07990,2.92250,-4.48000,0.00000,0.00317,0.96819,-0.22936,2023,6,9,12,20,1,129
0.08000,2.76500,-4.65500,0.00000,0.00512,0.96697,-0.22619,2023,6,9,12,20,1,140
0.08010,2.76500,-4.83000,0.00000,0.00256,0.96575,-0.22424,2023,6,9,12,20,1,151
0.08020,2.85250,-4.42750,0.00000,0.00329,0.96880,-0.22887,2023,6,9,12,20,1,163
0.08030,2.88750,-4.48000,0.00000,0.00354,0.96807,-0.22912,2023,6,9,12,20,1,174
0.08040,2.71250,-4.63750,0.00000,0.00146,0.96417,-0.22314,2023,6,9,12,20,1,185
0.08050,2.90500,-4.72500,0.00000,0.00439,0.96929,-0.22997,2023,6,9,12,20,1,196
0.08060,2.83500,-4.53250,0.00000,0.00305,0.96758,-0.23046,2023,6,9,12,20,1,207
0.08070,2.69500,-4.65500,0.00000,0.00305,0.96600,-0.22375,2023,6,9,12,20,1,218
0.08080,2.64250,-4.67250,0.00000,0.00244,0.96673,-0.22668,2023,6,9,12,20,1,229
0.08090,2.81750,-4.39250,0.00000,0.00329,0.96722,-0.22643,2023,6,9,12,20,1,240
0.08100,2.66000,-4.48000,0.00000,0.00268,0.96709,-0.22582,2023,6,9,12,20,1,251
0.08110,2.90500,-4.65500,0.00000,0.00195,0.96892,-0.22424,2023,6,9,12,20,1,263
0.08120,2.69500,-4.65500,0.00000,0.00183,0.96844,-0.22753,2023,6,9,12,20,1,274
0.08130,2.92250,-4.63750,0.00000,0.00098,0.96746,-0.22497,2023,6,9,12,20,1,285
0.08140,2.73000,-4.91750,0.00000,0.00256,0.96551,-0.22582,2023,6,9,12,20,1,296
0.08150,2.81750,-4.67250,0.00000,0.00403,0.96697,-0.22924,2023,6,9,12,20,1,307
0.08160,2.80000,-4.67250,0.00000,0.00293,0.96551,-0.22814,2023,6,9,12,20,1,318
0.08170,2.80000,-4.62000,0.00000,0.00220,0.96734,-0.22960,2023,6,9,12,20,1,329
0.08180,2.81750,-4.48000,0.00000,0.00085,0.96734,-0.22973,2023,6,9,12,20,1,340
0.08190,3.01000,-4.58500,0.00000,-0.00012,0.96502,-0.22826,2023,6,9,12,20,1,351
0.08200,2.85250,-4.63750,0.00000,0.00195,0.96917,-0.22558,2023,6,9,12,20,1,363
0.08210,2.85250,-4.46250,0.00000,0.00256,0.96770,-0.22960,2023,6,9,12,20,1,374
0.08220,2.76500,-4.56750,0.00000,0.00390,0.96831,-0.22814,2023,6,9,12,20,1,385
0.08230,2.59000,-4.58500,0.00000,0.00342,0.96526,-0.22436,2023,6,9,12,20,1,396
0.08240,2.83500,-4.56750,0.00000,0.00207,0.96978,-0.22802,2023,6,9,12,20,1,407
0.08250,2.81750,-4.60250,0.00000,0.00281,0.96722,-0.22948,2023,6,9,12,20,1,418
0.08260,2.74750,-4.62000,0.00000,0.00427,0.96478,-0.22729,2023,6,9,12,20,1,429
0.08270,2.94000,-4.48000,0.00000,0.00390,0.96795,-0.22875,2023,6,9,12,20,1,440
0.08280,2.92250,-4.67250,0.00000,0.00317,0.96856,-0.22985,2023,6,9,12,20,1,451
0.08290,2.80000,-4.55000,0.00000,0.00537,0.96746,-0.23021,2023,6,9,12,20,1,463
0.08300,2.76500,-4.62000,0.00000,0.00415,0.96844,-0.22607,2023,6,9,12,20,1,474
0.08310,2.94000,-4.28750,0.00000,0.00122,0.96722,-0.23143,2023,6,9,12,20,1,485
0.08320,2.78250,-4.42750,0.00000,0.00305,0.96966,-0.22741,2023,6,9,12,20,1,496
0.08330,2.85250,-4.77750,0.00000,0.00317,0.96612,-0.22582,2023,6,9,12,20,1,507
0.08340,3.08000,-4.55000,0.00000,0.00329,0.96941,-0.22875,2023,6,9,12,20,1,518
0.08350,2.92250,-4.58500,0.00000,0.00573,0.96819,-0.22985,2023,6,9,12,20,1,529
0.08360,2.66000,-4.70750,0.00000,0.00451,0.96648,-0.22607,2023,6,9,12,20,1,540
0.08370,2.69500,-4.49750,0.00000,0.00366,0.96953,-0.22887,2023,6,9,12,20,1,551
0.08380,2.57250,-4.58500,0.00000,0.00488,0.96551,-0.22814,2023,6,9,12,20,1,563
0.08390,2.83500,-4.65500,0.00000,0.00342,0.96880,-0.22716,2023,6,9,12,20,1,574
0.08400,2.50250,-4.67250,0.00000,0.00354,0.96673,-0.22973,2023,6,9,12,20,1,585
0.08410,2.92250,-4.63750,0.00000,0.00281,0.96844,-0.23058,2023,6,9,12,20,1,596
0.08420,2.74750,-4.39250,0.00000,0.00207,0.96746,-0.22753,2023,6,9,12,20,1,607
0.08430,2.83500,-4.60250,0.00000,0.00232,0.97075,-0.22643,2023,6,9,12,20,1,618
0.08440,2.83500,-4.41000,0.00000,0.00256,0.96575,-0.23119,2023,6,9,12,20,1,629
0.08450,2.73000,-4.55000,0.00000,0.00232,0.96795,-0.22741,2023,6,9,12,20,1,640
0.08460,2.64250,-4.69000,0.00000,0.00317,0.96709,-0.22411,2023,6,9,12,20,1,651
0.08470,2.62500,-4.46250,0.00000,0.00439,0.96844,-0.22924,2023,6,9,12,20,1,663
0.08480,2.85250,-4.70750,0.00000,0.00354,0.96612,-0.22887,2023,6,9,12,20,1,674
0.08490,2.87000,-4.67250,0.00000,0.00305,0.96892,-0.22436,2023,6,9,12,20,1,685
0.08500,2.94000,-4.55000,0.00000,0.00061,0.96661,-0.22863,2023,6,9,12,20,1,696
0.08510,2.92250,-4.42750,0.00000,0.00207,0.96636,-0.22973,2023,6,9,12,20,1,707
0.08520,2.97500,-4.67250,0.00000,0.00220,0.96807,-0.22485,2023,6,9,12,20,1,718
0.08530,2.62500,-4.60250,0.00000,0.00439,0.96563,-0.22777,2023,6,9,12,20,1,729
0.08540,2.97500,-4.46250,0.00000,0.00220,0.96795,-0.22838,2023,6,9,12,20,1,740
0.08550,2.74750,-4.62000,0.00000,0.00207,0.96612,-0.22375,2023,6,9,12,20,1,751
0.08560,2.85250,-4.55000,0.00000,0.00281,0.96905,-0.22643,2023,6,9,12,20,1,763
0.08570,2.97500,-4.62000,0.00000,0.00622,0.96734,-0.23021,2023,6,9,12,20,1,774
0.08580,2.85250,-4.44500,0.00000,0.00476,0.96636,-0.22460,2023,6,9,12,20,1,785
0.08590,2.90500,-4.63750,0.00000,0.00256,0.96856,-0.22826,2023,6,9,12,20,1,796
0.08600,2.99250,-4.46250,0.00000,0.00183,0.96978,-0.22985,2023,6,9,12,20,1,807
0.08610,2.88750,-4.42750,0.00000,0.00159,0.96563,-0.22802,2023,6,9,12,20,1,818
0.08620,2.73000,-4.44500,0.00000,0.00256,0.96661,-0.22570,2023,6,9,12,20,1,829
0.08630,2.69500,-4.35750,0.00000,0.00232,0.96941,-0.22875,2023,6,9,12,20,1,840
0.08640,2.73000,-4.46250,0.00000,0.00268,0.96429,-0.22838,2023,6,9,12,20,1,851
0.08650,2.74750,-4.39250,0.00000,0.00134,0.96795,-0.22472,2023,6,9,12,20,1,863
0.08660,2.74750,-4.51500,0.00000,0.00317,0.96917,-0.22729,2023,6,9,12,20,1,874
0.08670,2.73000,-4.56750,0.00000,0.00488,0.96746,-0.22948,2023,6,9,12,20,1,885
0.08680,2.66000,-4.58500,0.00000,0.00122,0.96844,-0.22448,2023,6,9,12,20,1,896
0.08690,2.95750,-4.55000,0.00000,0.00134,0.96648,-0.22912,2023,6,9,12,20,1,907
0.08700,2.92250,-4.56750,0.00000,0.00171,0.96600,-0.23021,2023,6,9,12,20,1,918
0.08710,2.85250,-4.90000,0.00000,0.00354,0.96758,-0.22436,2023,6,9,12,20,1,929
0.08720,2.64250,-4.86500,0.00000,0.00427,0.96636,-0.22631,2023,6,9,12,20,1,940
0.08730,2.85250,-4.56750,0.00000,0.00354,0.96990,-0.22960,2023,6,9,12,20,1,951
0.08740,2.69500,-4.86500,0.00000,0.00146,0.96478,-0.22448,2023,6,9,12,20,1,963
0.08750,2.67750,-4.72500,0.00000,0.00281,0.96575,-0.22570,2023,6,9,12,20,1,974
0.08760,2.80000,-4.58500,0.00000,0.00500,0.96770,-0.22875,2023,6,9,12,20,1,985
0.08770,2.78250,-4.69000,0.00000,0.00171,0.96465,-0.22582,2023,6,9,12,20,1,996
0.08780,2.71250,-4.65500,0.00000,0.00281,0.96600,-0.22497,2023,6,9,12,20,2,7
0.08790,2.73000,-4.63750,0.00000,0.00549,0.96905,-0.22521,2023,6,9,12,20,2,18
0.08800,2.73000,-4.76000,0.00000,0.00378,0.96697,-0.22899,2023,6,9,12,20,2,29
0.08810,2.80000,-4.76000,0.00000,0.00171,0.96551,-0.22619,2023,6,9,12,20,2,40
0.08820,2.59000,-4.56750,0.00000,0.00232,0.96868,-0.22497,2023,6,9,12,20,2,51
0.08830,2.97500,-4.51500,0.00000,0.00390,0.96587,-0.22753,2023,6,9,12,20,2,63
0.08840,2.62500,-4.60250,0.00000,0.00134,0.96587,-0.22643,2023,6,9,12,20,2,74
0.08850,2.64250,-4.51500,0.00000,0.00122,0.96490,-0.22753,2023,6,9,12,20,2,85
0.08860,2.94000,-4.42750,0.00000,0.00427,0.96685,-0.23058,2023,6,9,12,20,2,96
0.08870,2.81750,-4.55000,0.00000,0.00244,0.96734,-0.22680,2023,6,9,12,20,2,107
0.08880,2.66000,-4.60250,0.00000,0.00366,0.97014,-0.22753,2023,6,9,12,20,2,118
0.08890,2.81750,-4.41000,0.00000,0.00256,0.96819,-0.22777,2023,6,9,12,20,2,129
0.08900,2.74750,-4.55000,0.00000,0.00134,0.96673,-0.22802,2023,6,9,12,20,2,140
0.08910,2.83500,-4.81250,0.00000,0.00024,0.96746,-0.22631,2023,6,9,12,20,2,151
0.08920,2.74750,-4.69000,0.00000,0.00305,0.96636,-0.22655,2023,6,9,12,20,2,163
0.08930,2.99250,-4.56750,0.00000,0.00317,0.96990,-0.22948,2023,6,9,12,20,2,174
0.08940,2.69500,-4.63750,0.00000,0.00390,0.96709,-0.22680,2023,6,9,12,20,2,185
0.08950,2.81750,-4.32250,0.00000,0.00464,0.96844,-0.22985,2023,6,9,12,20,2,196
0.08960,2.90500,-4.62000,0.00000,0.00354,0.96612,-0.23192,2023,6,9,12,20,2,207
0.08970,2.74750,-4.74250,0.00000,0.00317,0.96722,-0.22790,2023,6,9,12,20,2,218
0.08980,2.78250,-4.79500,0.00000,0.00378,0.96685,-0.22851,2023,6,9,12,20,2,229
0.08990,2.67750,-4.60250,0.00000,0.00464,0.96661,-0.23058,2023,6,9,12,20,2,240
0.09000,2.67750,-4.69000,0.00000,0.00244,0.96722,-0.22485,2023,6,9,12,20,2,251
0.09010,3.06250,-4.77750,0.00000,0.00195,0.96563,-0.22521,2023,6,9,12,20,2,263
0.09020,2.74750,-4.56750,0.00000,0.00305,0.96722,-0.22936,2023,6,9,12,20,2,274
0.09030,2.71250,-4.49750,0.00000,0.00281,0.96941,-0.22912,2023,6,9,12,20,2,285
0.09040,2.83500,-4.83000,0.00000,0.00134,0.96795,-0.22753,2023,6,9,12,20,2,296
0.09050,2.81750,-4.60250,0.00000,0.00415,0.96795,-0.22826,2023,6,9,12,20,2,307
0.09060,2.62500,-4.41000,0.00000,0.00049,0.96746,-0.22753,2023,6,9,12,20,2,318
0.09070,2.48500,-4.58500,0.00000,0.00390,0.96807,-0.22765,2023,6,9,12,20,2,329
0.09080,2.85250,-4.48000,0.00000,0.00220,0.96953,-0.22899,2023,6,9,12,20,2,340
0.09090,2.97500,-4.41000,0.00000,0.00342,0.96783,-0.22814,2023,6,9,12,20,2,351
0.09100,2.67750,-4.55000,0.00000,0.00207,0.96709,-0.22777,2023,6,9,12,20,2,363
0.09110,2.87000,-4.60250,0.00000,0.00195,0.96783,-0.22741,2023,6,9,12,20,2,374
0.09120,2.87000,-4.53250,0.00000,0.00244,0.96673,-0.23143,2023,6,9,12,20,2,385
0.09130,2.88750,-4.69000,0.00000,0.00403,0.96917,-0.22960,2023,6,9,12,20,2,396
0.09140,2.69500,-4.76000,0.00000,0.00256,0.96624,-0.22777,2023,6,9,12,20,2,407
0.09150,2.88750,-4.39250,0.00000,0.00232,0.96514,-0.23070,2023,6,9,12,20,2,418
0.09160,3.04500,-4.72500,0.00000,0.00342,0.96734,-0.22521,2023,6,9,12,20,2,429
0.09170,3.06250,-4.79500,0.00000,0.00317,0.96880,-0.22851,2023,6,9,12,20,2,440
0.09180,2.88750,-4.44500,0.00000,0.00207,0.96770,-0.23021,2023,6,9,12,20,2,451
0.09190,2.85250,-4.39250,0.00000,0.00464,0.96819,-0.22704,2023,6,9,12,20,2,463
0.09200,2.85250,-4.69000,0.00000,0.00378,0.96514,-0.22875,2023,6,9,12,20,2,474
0.09210,2.73000,-4.42750,0.00000,0.00293,0.96795,-0.23143,2023,6,9,12,20,2,485
0.09220,2.74750,-4.48000,0.00000,-0.00061,0.96502,-0.22570,2023,6,9,12,20,2,496
0.09230,2.74750,-4.55000,0.00000,0.00146,0.96722,-0.22777,2023,6,9,12,20,2,507
0.09240,2.85250,-4.48000,0.00000,0.00464,0.96783,-0.23021,2023,6,9,12,20,2,518
0.09250,2.71250,-4.67250,0.00000,0.00427,0.96575,-0.22741,2023,6,9,12,20,2,529
0.09260,2.74750,-4.84750,0.00000,0.00378,0.96478,-0.22594,2023,6,9,12,20,2,540
0.09270,2.81750,-4.51500,0.00000,0.00354,0.96770,-0.22973,2023,6,9,12,20,2,551
0.09280,2.83500,-4.18250,0.00000,0.00390,0.96807,-0.22607,2023,6,9,12,20,2,563
0.09290,2.76500,-4.51500,0.00000,0.00329,0.96392,-0.22460,2023,6,9,12,20,2,574
0.09300,2.85250,-4.53250,0.00000,0.00342,0.96880,-0.22826,2023,6,9,12,20,2,585
0.09310,2.92250,-4.30500,0.00000,0.00171,0.96673,-0.22985,2023,6,9,12,20,2,596
0.09320,2.60750,-4.70750,0.00000,0.00317,0.96685,-0.22509,2023,6,9,12,20,2,607
0.09330,2.95750,-4.44500,0.00000,0.00342,0.96587,-0.22655,2023,6,9,12,20,2,618
0.09340,2.87000,-4.67250,0.00000,0.00134,0.96880,-0.22936,2023,6,9,12,20,2,629
0.09350,2.53750,-4.62000,0.00000,0.00378,0.96709,-0.22582,2023,6,9,12,20,2,640
0.09360,2.76500,-4.65500,0.00000,0.00232,0.96990,-0.22924,2023,6,9,12,20,2,651
0.09370,3.01000,-4.35750,0.00000,0.00403,0.96978,-0.22875,2023,6,9,12,20,2,663
0.09380,2.43250,-4.56750,0.00000,0.00415,0.96673,-0.22533,2023,6,9,12,20,2,674
0.09390,2.66000,-4.70750,0.00000,0.00305,0.96819,-0.22655,2023,6,9,12,20,2,685
0.09400,2.73000,-4.42750,0.00000,0.00281,0.96880,-0.22643,2023,6,9,12,20,2,696
0.09410,2.85250,-4.74250,0.00000,0.00317,0.96795,-0.22765,2023,6,9,12,20,2,707
0.09420,2.78250,-4.72500,0.00000,0.00415,0.96685,-0.22570,2023,6,9,12,20,2,718
0.09430,2.76500,-4.65500,0.00000,0.00244,0.96929,-0.22558,2023,6,9,12,20,2,729
0.09440,2.78250,-4.56750,0.00000,0.00329,0.96868,-0.22533,2023,6,9,12,20,2,740
0.09450,2.71250,-4.63750,0.00000,0.00207,0.96587,-0.22533,2023,6,9,12,20,2,751
0.09460,2.76500,-4.65500,0.00000,0.00366,0.96795,-0.22704,2023,6,9,12,20,2,763
0.09470,2.87000,-4.60250,0.00000,0.00220,0.96807,-0.22607,2023,6,9,12,20,2,774
0.09480,2.83500,-4.65500,0.00000,0.00390,0.96551,-0.22546,2023,6,9,12,20,2,785
0.09490,2.90500,-4.44500,0.00000,0.00366,0.96783,-0.23009,2023,6,9,12,20,2,796
0.09500,2.99250,-4.46250,0.00000,0.00427,0.96819,-0.23095,2023,6,9,12,20,2,807
0.09510,2.76500,-4.70750,0.00000,0.00281,0.96697,-0.22387,2023,6,9,12,20,2,818
0.09520,2.95750,-4.48000,0.00000,0.00134,0.96892,-0.22729,2023,6,9,12,20,2,829
0.09530,2.80000,-4.21750,0.00000,0.00256,0.96868,-0.23058,2023,6,9,12,20,2,840
0.09540,2.83500,-4.72500,0.00000,0.00268,0.96648,-0.22472,2023,6,9,12,20,2,851
0.09550,2.76500,-4.56750,0.00000,0.00256,0.96880,-0.22985,2023,6,9,12,20,2,863
0.09560,2.85250,-4.49750,0.00000,0.00256,0.96953,-0.23058,2023,6,9,12,20,2,874
0.09570,2.87000,-4.63750,0.00000,0.00171,0.96746,-0.22826,2023,6,9,12,20,2,885
0.09580,2.80000,-4.69000,0.00000,0.00390,0.96685,-0.22448,2023,6,9,12,20,2,896
0.09590,2.73000,-4.46250,0.00000,0.00366,0.96502,-0.22936,2023,6,9,12,20,2,907
0.09600,2.67750,-4.55000,0.00000,0.00256,0.96587,-0.22485,2023,6,9,12,20,2,918
0.09610,2.78250,-4.79500,0.00000,0.00476,0.96648,-0.22704,2023,6,9,12,20,2,929
0.09620,2.85250,-4.60250,0.00000,0.00134,0.96612,-0.22765,2023,6,9,12,20,2,940
0.09630,2.57250,-4.63750,0.00000,0.00183,0.96807,-0.22619,2023,6,9,12,20,2,951
0.09640,2.97500,-4.55000,0.00000,0.00268,0.96685,-0.22765,2023,6,9,12,20,2,963
0.09650,2.95750,-4.55000,0.00000,0.00439,0.96795,-0.22851,2023,6,9,12,20,2,974
0.09660,2.83500,-4.60250,0.00000,0.00195,0.96648,-0.22790,2023,6,9,12,20,2,985
0.09670,2.83500,-4.84750,0.00000,0.00244,0.96661,-0.22363,2023,6,9,12,20,2,996
0.09680,2.92250,-4.48000,0.00000,0.00195,0.96770,-0.23070,2023,6,9,12,20,3,7
0.09690,2.87000,-4.56750,0.00000,0.00232,0.96953,-0.22838,2023,6,9,12,20,3,18
0.09700,2.69500,-4.81250,0.00000,0.00244,0.96648,-0.22753,2023,6,9,12,20,3,29
0.09710,2.78250,-4.60250,0.00000,0.00305,0.96880,-0.22887,2023,6,9,12,20,3,40
0.09720,3.04500,-4.49750,0.00000,0.00232,0.96929,-0.22863,2023,6,9,12,20,3,51
0.09730,2.87000,-4.81250,0.00000,0.00232,0.96502,-0.22826,2023,6,9,12,20,3,63
0.09740,2.88750,-4.27000,0.00000,0.00439,0.96661,-0.22960,2023,6,9,12,20,3,74
0.09750,2.97500,-4.62000,0.00000,0.00293,0.96831,-0.23046,2023,6,9,12,20,3,85
0.09760,2.88750,-4.79500,0.00000,0.00049,0.96343,-0.22777,2023,6,9,12,20,3,96
0.09770,2.69500,-4.69000,0.00000,0.00110,0.96502,-0.22375,2023,6,9,12,20,3,107
0.09780,2.78250,-4.74250,0.00000,0.00171,0.96563,-0.22997,2023,6,9,12,20,3,118
0.09790,2.73000,-4.74250,0.00000,0.00207,0.96624,-0.22631,2023,6,9,12,20,3,129
0.09800,2.66000,-4.70750,0.00000,0.00098,0.96648,-0.22729,2023,6,9,12,20,3,140
0.09810,2.73000,-4.58500,0.00000,0.00232,0.96783,-0.22509,2023,6,9,12,20,3,151
0.09820,2.66000,-4.58500,0.00000,0.00220,0.96856,-0.23070,2023,6,9,12,20,3,163
0.09830,2.85250,-4.65500,0.00000,0.00244,0.96844,-0.22631,2023,6,9,12,20,3,174
0.09840,2.69500,-4.67250,0.00000,0.00146,0.96844,-0.22729,2023,6,9,12,20,3,185
0.09850,2.94000,-4.69000,0.00000,0.00342,0.96722,-0.22838,2023,6,9,12,20,3,196
0.09860,2.87000,-4.88250,0.00000,0.00256,0.96685,-0.22619,2023,6,9,12,20,3,207
0.09870,2.76500,-4.62000,0.00000,0.00268,0.96575,-0.22692,2023,6,9,12,20,3,218
0.09880,2.81750,-4.56750,0.00000,0.00342,0.96526,-0.23302,2023,6,9,12,20,3,229
0.09890,2.85250,-4.62000,0.00000,0.00342,0.96917,-0.22741,2023,6,9,12,20,3,240
0.09900,2.71250,-4.53250,0.00000,0.00354,0.96697,-0.22729,2023,6,9,12,20,3,251
0.09910,2.97500,-4.70750,0.00000,0.00366,0.96758,-0.22716,2023,6,9,12,20,3,263
0.09920,2.81750,-4.46250,0.00000,0.00354,0.96441,-0.22863,2023,6,9,12,20,3,274
0.09930,2.73000,-4.55000,0.00000,0.00122,0.96539,-0.22643,2023,6,9,12,20,3,285
0.09940,2.94000,-4.69000,0.00000,0.00293,0.96636,-0.23229,2023,6,9,12,20,3,296
0.09950,2.74750,-4.76000,0.00000,0.00598,0.96648,-0.22997,2023,6,9,12,20,3,307
0.09960,2.55500,-4.56750,0.00000,0.00244,0.96807,-0.22619,2023,6,9,12,20,3,318
0.09970,2.62500,-4.53250,0.00000,0.00427,0.96673,-0.22619,2023,6,9,12,20,3,329
0.09980,2.74750,-4.37500,0.00000,0.00451,0.96514,-0.22936,2023,6,9,12,20,3,340
0.09990,2.71250,-4.63750,0.00000,0.00342,0.96758,-0.22521,2023,6,9,12,20,3,351
0.10000,2.60750,-4.69000,0.00000,0.00354,0.96709,-0.22692,2023,6,9,12,20,3,363
0.10010,2.76500,-4.37500,0.00000,0.00342,0.96770,-0.22936,2023,6,9,12,20,3,374
0.10020,2.71250,-4.70750,0.00000,0.00146,0.96892,-0.22948,2023,6,9,12,20,3,385
0.10030,2.78250,-4.83000,0.00000,0.00183,0.96673,-0.22460,2023,6,9,12,20,3,396
0.10040,3.01000,-4.62000,0.00000,0.00317,0.96661,-0.23107,2023,6,9,12,20,3,407
0.10050,2.94000,-4.70750,0.00000,0.00244,0.96783,-0.22997,2023,6,9,12,20,3,418
0.10060,2.74750,-4.79500,0.00000,0.00293,0.96673,-0.22509,2023,6,9,12,20,3,429
0.10070,2.66000,-4.25250,0.00000,0.00354,0.96770,-0.23204,2023,6,9,12,20,3,440
0.10080,2.87000,-4.56750,0.00000,0.00061,0.96892,-0.23143,2023,6,9,12,20,3,451
0.10090,2.92250,-4.72500,0.00000,0.00256,0.96661,-0.22753,2023,6,9,12,20,3,463
0.10100,2.80000,-4.55000,0.00000,0.00220,0.96807,-0.23192,2023,6,9,12,20,3,474
0.10110,2.73000,-4.65500,0.00000,0.00378,0.96868,-0.22912,2023,6,9,12,20,3,485
0.10120,2.92250,-4.90000,0.00000,0.00390,0.96758,-0.22875,2023,6,9,12,20,3,496
0.10130,2.66000,-4.41000,0.00000,0.00390,0.96612,-0.23107,2023,6,9,12,20,3,507
0.10140,2.90500,-4.56750,0.00000,0.00329,0.96758,-0.23119,2023,6,9,12,20,3,518
0.10150,2.95750,-4.56750,0.00000,0.00451,0.96856,-0.22875,2023,6,9,12,20,3,529
0.10160,2.78250,-4.81250,0.00000,0.00146,0.96795,-0.23095,2023,6,9,12,20,3,540
0.10170,2.83500,-4.49750,0.00000,0.00390,0.97063,-0.23217,2023,6,9,12,20,3,551
0.10180,2.81750,-4.60250,0.00000,0.00415,0.96734,-0.23082,2023,6,9,12,20,3,563
0.10190,2.73000,-4.93500,0.00000,0.00232,0.96526,-0.22851,2023,6,9,12,20,3,574
0.10200,2.80000,-4.48000,0.00000,0.00451,0.96600,-0.23241,2023,6,9,12,20,3,585
0.10210,2.85250,-4.49750,0.00000,0.00427,0.96575,-0.23095,2023,6,9,12,20,3,596
0.10220,2.85250,-4.62000,0.00000,0.00268,0.96514,-0.22863,2023,6,9,12,20,3,607
0.10230,2.97500,-4.51500,0.00000,0.00464,0.96905,-0.23009,2023,6,9,12,20,3,618
0.10240,2.71250,-4.46250,0.00000,0.00171,0.96807,-0.23400,2023,6,9,12,20,3,629
0.10250,2.57250,-4.46250,0.00000,0.00366,0.96636,-0.22814,2023,6,9,12,20,3,640
0.10260,2.94000,-4.42750,0.00000,0.00207,0.96697,-0.23229,2023,6,9,12,20,3,651
0.10270,2.87000,-4.62000,0.00000,0.00317,0.96661,-0.23241,2023,6,9,12,20,3,663
0.10280,2.73000,-4.81250,0.00000,0.00146,0.96709,-0.22777,2023,6,9,12,20,3,674
0.10290,2.73000,-4.44500,0.00000,0.00293,0.96673,-0.22912,2023,6,9,12,20,3,685
0.10300,2.87000,-4.86500,0.00000,0.00329,0.96807,-0.23204,2023,6,9,12,20,3,696
0.10310,2.80000,-5.00500,0.00000,0.00207,0.96661,-0.22704,2023,6,9,12,20,3,707
0.10320,2.76500,-4.55000,0.00000,0.00378,0.96600,-0.23095,2023,6,9,12,20,3,718
0.10330,2.87000,-4.35750,0.00000,0.00317,0.96709,-0.23412,2023,6,9,12,20,3,729
0.10340,2.88750,-4.83000,0.00000,0.00146,0.96722,-0.22863,2023,6,9,12,20,3,740
0.10350,3.09750,-4.81250,0.00000,0.00122,0.96612,-0.23229,2023,6,9,12,20,3,751
0.10360,2.94000,-4.67250,0.00000,0.00378,0.96917,-0.23546,2023,6,9,12,20,3,763
0.10370,2.88750,-4.56750,0.00000,0.00110,0.96441,-0.23253,2023,6,9,12,20,3,774
0.10380,2.97500,-4.90000,0.00000,0.00183,0.96563,-0.23156,2023,6,9,12,20,3,785
0.10390,2.97500,-4.69000,0.00000,0.00122,0.96905,-0.23119,2023,6,9,12,20,3,796
0.10400,2.78250,-4.41000,0.00000,0.00293,0.96770,-0.23326,2023,6,9,12,20,3,807
0.10410,2.67750,-4.65500,0.00000,0.00049,0.96478,-0.22960,2023,6,9,12,20,3,818
0.10420,2.67750,-4.62000,0.00000,0.00183,0.96636,-0.22924,2023,6,9,12,20,3,829
0.10430,2.88750,-4.65500,0.00000,0.00427,0.96758,-0.23351,2023,6,9,12,20,3,840
0.10440,2.73000,-4.81250,0.00000,0.00146,0.96648,-0.23131,2023,6,9,12,20,3,851
0.10450,2.88750,-4.70750,0.00000,0.00146,0.96673,-0.23168,2023,6,9,12,20,3,863
0.10460,2.73000,-4.56750,0.00000,0.00342,0.96636,-0.23436,2023,6,9,12,20,3,874
0.10470,2.90500,-4.69000,0.00000,0.00207,0.96563,-0.23204,2023,6,9,12,20,3,885
0.10480,2.69500,-4.62000,0.00000,-0.00012,0.96490,-0.22960,2023,6,9,12,20,3,896
0.10490,2.95750,-4.49750,0.00000,0.00390,0.96819,-0.22985,2023,6,9,12,20,3,907
0.10500,2.83500,-4.48000,0.00000,0.00293,0.96917,-0.23107,2023,6,9,12,20,3,918
0.10510,2.69500,-4.60250,0.00000,0.00268,0.96722,-0.22582,2023,6,9,12,20,3,929
0.10520,2.85250,-4.67250,0.00000,0.00134,0.96722,-0.22741,2023,6,9,12,20,3,940
0.10530,2.71250,-4.39250,0.00000,0.00439,0.96575,-0.23107,2023,6,9,12,20,3,951
0.10540,2.81750,-4.60250,0.00000,0.00207,0.96709,-0.23143,2023,6,9,12,20,3,963
0.10550,2.87000,-4.44500,0.00000,0.00329,0.96551,-0.22973,2023,6,9,12,20,3,974
0.10560,2.94000,-4.46250,0.00000,0.00464,0.96709,-0.23241,2023,6,9,12,20,3,985
0.10570,2.90500,-4.69000,0.00000,0.00232,0.96770,-0.23509,2023,6,9,12,20,3,996
0.10580,2.95750,-4.90000,0.00000,0.00207,0.96612,-0.22973,2023,6,9,12,20,4,7
0.10590,2.85250,-4.55000,0.00000,0.00293,0.96795,-0.23461,2023,6,9,12,20,4,18
0.10600,3.02750,-4.41000,0.00000,0.00427,0.96673,-0.23363,2023,6,9,12,20,4,29
0.10610,3.15000,-4.67250,0.00000,0.00098,0.96612,-0.23314,2023,6,9,12,20,4,40
0.10620,2.87000,-4.63750,0.00000,0.00427,0.96661,-0.23095,2023,6,9,12,20,4,51
0.10630,2.78250,-4.55000,0.00000,0.00159,0.96441,-0.23204,2023,6,9,12,20,4,63
0.10640,2.80000,-4.72500,0.00000,0.00207,0.96868,-0.23278,2023,6,9,12,20,4,74
0.10650,2.81750,-4.69000,0.00000,0.00207,0.96465,-0.22912,2023,6,9,12,20,4,85
0.10660,2.80000,-4.60250,0.00000,0.00268,0.96868,-0.22790,2023,6,9,12,20,4,96
0.10670,3.01000,-4.69000,0.00000,0.00329,0.96661,-0.23217,2023,6,9,12,20,4,107
0.10680,2.78250,-4.35750,0.00000,0.00073,0.97112,-0.23180,2023,6,9,12,20,4,118
0.10690,2.76500,-4.39250,0.00000,0.00037,0.96685,-0.22790,2023,6,9,12,20,4,129
0.10700,2.80000,-4.81250,0.00000,0.00390,0.96551,-0.22753,2023,6,9,12,20,4,140
0.10710,2.92250,-4.42750,0.00000,0.00305,0.96685,-0.23204,2023,6,9,12,20,4,151
0.10720,2.67750,-4.41000,0.00000,0.00220,0.96453,-0.22753,2023,6,9,12,20,4,163
0.10730,2.90500,-4.83000,0.00000,0.00220,0.96734,-0.22680,2023,6,9,12,20,4,174
0.10740,2.69500,-4.72500,0.00000,0.00329,0.96807,-0.22973,2023,6,9,12,20,4,185
0.10750,2.69500,-4.42750,0.00000,0.00281,0.96844,-0.22655,2023,6,9,12,20,4,196
0.10760,2.88750,-4.65500,0.00000,0.00232,0.96856,-0.22741,2023,6,9,12,20,4,207
0.10770,2.80000,-4.74250,0.00000,0.00122,0.96673,-0.22802,2023,6,9,12,20,4,218
0.10780,2.74750,-4.35750,0.00000,0.00354,0.96746,-0.22912,2023,6,9,12,20,4,229
0.10790,2.88750,-4.58500,0.00000,0.00195,0.96819,-0.22790,2023,6,9,12,20,4,240
0.10800,2.80000,-4.72500,0.00000,0.00329,0.96624,-0.22655,2023,6,9,12,20,4,251
0.10810,2.80000,-4.58500,0.00000,0.00366,0.96587,-0.22875,2023,6,9,12,20,4,263
0.10820,2.81750,-4.62000,0.00000,0.00024,0.96612,-0.22924,2023,6,9,12,20,4,274
0.10830,2.81750,-4.79500,0.00000,0.00329,0.96526,-0.22692,2023,6,9,12,20,4,285
0.10840,2.64250,-4.63750,0.00000,0.00415,0.96917,-0.23070,2023,6,9,12,20,4,296
0.10850,2.88750,-4.44500,0.00000,0.00573,0.96709,-0.22973,2023,6,9,12,20,4,307
0.10860,2.99250,-4.77750,0.00000,0.00134,0.96587,-0.23070,2023,6,9,12,20,4,318
0.10870,2.73000,-4.65500,0.00000,0.00439,0.96478,-0.22411,2023,6,9,12,20,4,329
0.10880,2.80000,-4.58500,0.00000,0.00464,0.96770,-0.22887,2023,6,9,12,20,4,340
0.10890,2.88750,-4.49750,0.00000,0.00378,0.96600,-0.22997,2023,6,9,12,20,4,351
0.10900,2.59000,-4.63750,0.00000,0.00366,0.96526,-0.22619,2023,6,9,12,20,4,363
0.10910,2.80000,-4.35750,0.00000,0.00281,0.96831,-0.23021,2023,6,9,12,20,4,374
0.10920,2.92250,-4.55000,0.00000,0.00476,0.96429,-0.22948,2023,6,9,12,20,4,385
0.10930,3.06250,-4.62000,0.00000,0.00098,0.96356,-0.22643,2023,6,9,12,20,4,396
0.10940,2.62500,-4.60250,0.00000,0.00207,0.96831,-0.22838,2023,6,9,12,20,4,407
0.10950,2.78250,-4.72500,0.00000,0.00415,0.96624,-0.23241,2023,6,9,12,20,4,418
0.10960,2.92250,-4.34000,0.00000,0.00256,0.96539,-0.22997,2023,6,9,12,20,4,429
0.10970,2.85250,-4.67250,0.00000,0.00329,0.96648,-0.22692,2023,6,9,12,20,4,440
0.10980,2.92250,-4.56750,0.00000,0.00537,0.96734,-0.22899,2023,6,9,12,20,4,451
0.10990,2.78250,-4.65500,0.00000,0.00183,0.96734,-0.22912,2023,6,9,12,20,4,463
0.11000,3.01000,-4.44500,0.00000,0.00195,0.96990,-0.22826,2023,6,9,12,20,4,474
0.11010,2.95750,-4.53250,0.00000,0.00293,0.96746,-0.22875,2023,6,9,12,20,4,485
0.11020,2.99250,-4.63750,0.00000,0.00403,0.96880,-0.22936,2023,6,9,12,20,4,496
0.11030,2.74750,-4.53250,0.00000,0.00342,0.96746,-0.23021,2023,6,9,12,20,4,507
0.11040,2.83500,-4.69000,0.00000,0.00146,0.96551,-0.22594,2023,6,9,12,20,4,518
0.11050,2.88750,-4.49750,0.00000,0.00085,0.96770,-0.22924,2023,6,9,12,20,4,529
0.11060,2.78250,-4.39250,0.00000,0.00525,0.96746,-0.23253,2023,6,9,12,20,4,540
0.11070,2.71250,-4.74250,0.00000,0.00293,0.96734,-0.22643,2023,6,9,12,20,4,551
0.11080,2.64250,-4.55000,0.00000,0.00171,0.96648,-0.22582,2023,6,9,12,20,4,563
0.11090,3.01000,-4.70750,0.00000,0.00549,0.96892,-0.22851,2023,6,9,12,20,4,574
0.11100,2.76500,-4.58500,0.00000,0.00500,0.96697,-0.22875,2023,6,9,12,20,4,585
0.11110,2.80000,-4.65500,0.00000,0.00354,0.96734,-0.22655,2023,6,9,12,20,4,596
0.11120,2.80000,-4.76000,0.00000,0.00268,0.96819,-0.22851,2023,6,9,12,20,4,607
0.11130,2.92250,-4.51500,0.00000,0.00268,0.96831,-0.22729,2023,6,9,12,20,4,618
0.11140,2.99250,-4.76000,0.00000,0.00317,0.96856,-0.22594,2023,6,9,12,20,4,629
0.11150,2.92250,-4.67250,0.00000,0.00171,0.96807,-0.22472,2023,6,9,12,20,4,640
0.11160,2.88750,-4.56750,0.00000,0.00012,0.96868,-0.22533,2023,6,9,12,20,4,651
0.11170,2.92250,-4.93500,0.00000,0.00427,0.96758,-0.22643,2023,6,9,12,20,4,663
0.11180,2.78250,-4.70750,0.00000,0.00159,0.96783,-0.22497,2023,6,9,12,20,4,674
0.11190,2.88750,-4.74250,0.00000,0.00439,0.96917,-0.22973,2023,6,9,12,20,4,685
0.11200,2.74750,-4.70750,0.00000,0.00049,0.96709,-0.22570,2023,6,9,12,20,4,696
0.11210,2.69500,-4.60250,0.00000,0.00256,0.96722,-0.22460,2023,6,9,12,20,4,707
0.11220,2.78250,-4.90000,0.00000,0.00390,0.96856,-0.22924,2023,6,9,12,20,4,718
0.11230,2.67750,-4.65500,0.00000,0.00451,0.96795,-0.22826,2023,6,9,12,20,4,729
0.11240,2.67750,-4.55000,0.00000,0.00329,0.96880,-0.22509,2023,6,9,12,20,4,740
0.11250,2.78250,-4.63750,0.00000,0.00171,0.96661,-0.22790,2023,6,9,12,20,4,751
0.11260,2.69500,-4.51500,0.00000,0.00134,0.96844,-0.22802,2023,6,9,12,20,4,763
0.11270,2.69500,-4.79500,0.00000,0.00488,0.96441,-0.22509,2023,6,9,12,20,4,774
0.11280,2.64250,-4.76000,0.00000,0.00415,0.96685,-0.22497,2023,6,9,12,20,4,785
0.11290,2.87000,-4.44500,0.00000,0.00415,0.96758,-0.22765,2023,6,9,12,20,4,796
0.11300,2.83500,-4.84750,0.00000,0.00439,0.96575,-0.22619,2023,6,9,12,20,4,807
0.11310,2.81750,-4.77750,0.00000,0.00342,0.96587,-0.22350,2023,6,9,12,20,4,818
0.11320,2.81750,-4.65500,0.00000,0.00317,0.96661,-0.22668,2023,6,9,12,20,4,829
0.11330,2.67750,-4.72500,0.00000,0.00110,0.96587,-0.22558,2023,6,9,12,20,4,840
0.11340,2.60750,-4.76000,0.00000,0.00146,0.96831,-0.22619,2023,6,9,12,20,4,851
0.11350,2.87000,-4.51500,0.00000,0.00244,0.96734,-0.22997,2023,6,9,12,20,4,863
0.11360,2.67750,-4.69000,0.00000,0.00293,0.96783,-0.22668,2023,6,9,12,20,4,874
0.11370,2.76500,-4.69000,0.00000,0.00207,0.96563,-0.22509,2023,6,9,12,20,4,885
0.11380,2.83500,-4.46250,0.00000,0.00390,0.96587,-0.22448,2023,6,9,12,20,4,896
0.11390,2.76500,-4.67250,0.00000,0.00268,0.96392,-0.22594,2023,6,9,12,20,4,907
0.11400,2.74750,-4.65500,0.00000,0.00268,0.96441,-0.22546,2023,6,9,12,20,4,918
0.11410,2.60750,-4.88250,0.00000,0.00134,0.96831,-0.22460,2023,6,9,12,20,4,929
0.11420,2.92250,-4.60250,0.00000,0.00183,0.96697,-0.22838,2023,6,9,12,20,4,940
0.11430,2.80000,-4.60250,0.00000,0.00098,0.96868,-0.22436,2023,6,9,12,20,4,951
0.11440,2.67750,-4.79500,0.00000,0.00439,0.96856,-0.22180,2023,6,9,12,20,4,963
0.11450,3.22000,-4.58500,0.00000,0.00439,0.96709,-0.22692,2023,6,9,12,20,4,974
0.11460,2.74750,-4.69000,0.00000,0.00159,0.96587,-0.22655,2023,6,9,12,20,4,985
0.11470,2.85250,-4.77750,0.00000,0.00195,0.96758,-0.22521,2023,6,9,12,20,4,996
0.11480,2.81750,-4.79500,0.00000,0.00171,0.96953,-0.23082,2023,6,9,12,20,5,7
0.11490,2.97500,-4.74250,0.00000,0.00268,0.96587,-0.22741,2023,6,9,12,20,5,18
0.11500,2.67750,-4.72500,0.00000,0.00134,0.96807,-0.22485,2023,6,9,12,20,5,29
0.11510,2.88750,-4.84750,0.00000,0.00012,0.96892,-0.22338,2023,6,9,12,20,5,40
0.11520,2.94000,-4.55000,0.00000,0.00342,0.96709,-0.23021,2023,6,9,12,20,5,51
0.11530,2.64250,-4.62000,0.00000,0.00268,0.96722,-0.22704,2023,6,9,12,20,5,63
0.11540,2.81750,-4.56750,0.00000,0.00476,0.96783,-0.22668,2023,6,9,12,20,5,74
0.11550,2.92250,-4.65500,0.00000,0.00134,0.96661,-0.22741,2023,6,9,12,20,5,85
0.11560,2.81750,-4.93500,0.00000,0.00146,0.96697,-0.22375,2023,6,9,12,20,5,96
0.11570,2.92250,-4.74250,0.00000,0.00293,0.96880,-0.22973,2023,6,9,12,20,5,107
0.11580,2.90500,-4.56750,0.00000,0.00354,0.96746,-0.22851,2023,6,9,12,20,5,118
0.11590,2.76500,-4.46250,0.00000,0.00134,0.96807,-0.22619,2023,6,9,12,20,5,129
0.11600,2.81750,-4.79500,0.00000,0.00342,0.96392,-0.22399,2023,6,9,12,20,5,140
0.11610,2.97500,-4.58500,0.00000,0.00220,0.96697,-0.22814,2023,6,9,12,20,5,151
0.11620,2.80000,-4.63750,0.00000,0.00268,0.96770,-0.22643,2023,6,9,12,20,5,163
0.11630,2.76500,-4.79500,0.00000,0.00427,0.96880,-0.22265,2023,6,9,12,20,5,174
0.11640,2.87000,-4.53250,0.00000,0.00476,0.96807,-0.23070,2023,6,9,12,20,5,185
0.11650,2.92250,-4.72500,0.00000,0.00195,0.96783,-0.22851,2023,6,9,12,20,5,196
0.11660,2.81750,-4.60250,0.00000,0.00256,0.96587,-0.22655,2023,6,9,12,20,5,207
0.11670,2.81750,-4.30500,0.00000,0.00403,0.96514,-0.22973,2023,6,9,12,20,5,218
0.11680,2.73000,-4.58500,0.00000,0.00146,0.96697,-0.22973,2023,6,9,12,20,5,229
0.11690,2.90500,-4.65500,0.00000,0.00317,0.96600,-0.22594,2023,6,9,12,20,5,240
0.11700,2.80000,-4.95250,0.00000,0.00305,0.96465,-0.22387,2023,6,9,12,20,5,251
0.11710,2.81750,-4.67250,0.00000,0.00427,0.96770,-0.22875,2023,6,9,12,20,5,263
0.11720,2.81750,-4.42750,0.00000,0.00268,0.96563,-0.22729,2023,6,9,12,20,5,274
0.11730,2.66000,-4.44500,0.00000,0.00268,0.96661,-0.22790,2023,6,9,12,20,5,285
0.11740,2.92250,-4.51500,0.00000,0.00366,0.96661,-0.22802,2023,6,9,12,20,5,296
0.11750,2.73000,-4.48000,0.00000,0.00110,0.96905,-0.22692,2023,6,9,12,20,5,307
0.11760,2.67750,-4.90000,0.00000,0.00037,0.96343,-0.22558,2023,6,9,12,20,5,318
0.11770,2.90500,-4.55000,0.00000,0.00427,0.96648,-0.23009,2023,6,9,12,20,5,329
0.11780,2.78250,-4.58500,0.00000,0.00439,0.96453,-0.22655,2023,6,9,12,20,5,340
0.11790,2.81750,-4.55000,0.00000,0.00073,0.96819,-0.22838,2023,6,9,12,20,5,351
0.11800,2.83500,-4.67250,0.00000,0.00378,0.96819,-0.22936,2023,6,9,12,20,5,363
0.11810,2.88750,-4.72500,0.00000,0.00439,0.96709,-0.22899,2023,6,9,12,20,5,374
0.11820,2.80000,-4.62000,0.00000,0.00037,0.96795,-0.22460,2023,6,9,12,20,5,385
0.11830,2.80000,-4.62000,0.00000,0.00415,0.96795,-0.23009,2023,6,9,12,20,5,396
0.11840,2.92250,-4.55000,0.00000,0.00537,0.96844,-0.23095,2023,6,9,12,20,5,407
0.11850,2.81750,-4.46250,0.00000,0.00317,0.96539,-0.22570,2023,6,9,12,20,5,418
0.11860,2.85250,-4.51500,0.00000,0.00232,0.96636,-0.22594,2023,6,9,12,20,5,429
0.11870,2.92250,-4.41000,0.00000,0.00415,0.96685,-0.22948,2023,6,9,12,20,5,440
0.11880,2.97500,-4.55000,0.00000,0.00305,0.96685,-0.22936,2023,6,9,12,20,5,451
0.11890,2.64250,-4.83000,0.00000,0.00183,0.96587,-0.22655,2023,6,9,12,20,5,463
0.11900,2.80000,-4.67250,0.00000,0.00354,0.96709,-0.22826,2023,6,9,12,20,5,474
0.11910,2.73000,-4.25250,0.00000,0.00305,0.96929,-0.23131,2023,6,9,12,20,5,485
0.11920,2.76500,-4.74250,0.00000,0.00183,0.96807,-0.22887,2023,6,9,12,20,5,496
0.11930,2.88750,-4.53250,0.00000,0.00281,0.96758,-0.22887,2023,6,9,12,20,5,507
0.11940,2.66000,-4.48000,0.00000,0.00317,0.96648,-0.23082,2023,6,9,12,20,5,518
0.11950,2.87000,-4.69000,0.00000,0.00281,0.96758,-0.22826,2023,6,9,12,20,5,529
0.11960,2.74750,-4.72500,0.00000,0.00378,0.96697,-0.22668,2023,6,9,12,20,5,540
0.11970,2.94000,-4.58500,0.00000,0.00427,0.96722,-0.22863,2023,6,9,12,20,5,551
0.11980,2.73000,-4.84750,0.00000,-0.00037,0.96502,-0.22741,2023,6,9,12,20,5,563
0.11990,2.88750,-4.60250,0.00000,0.00207,0.96575,-0.22692,2023,6,9,12,20,5,574
0.12000,2.83500,-4.58500,0.00000,0.00256,0.96709,-0.23009,2023,6,9,12,20,5,585
0.12010,2.81750,-4.42750,0.00000,0.00439,0.96709,-0.22912,2023,6,9,12,20,5,596
0.12020,2.76500,-4.58500,0.00000,0.00317,0.96795,-0.22777,2023,6,9,12,20,5,607
0.12030,2.74750,-4.67250,0.00000,0.00500,0.96539,-0.22668,2023,6,9,12,20,5,618
0.12040,2.88750,-4.62000,0.00000,0.00317,0.96612,-0.22973,2023,6,9,12,20,5,629
0.12050,2.64250,-4.63750,0.00000,0.00232,0.96636,-0.22594,2023,6,9,12,20,5,640
0.12060,2.97500,-4.74250,0.00000,0.00146,0.96465,-0.22765,2023,6,9,12,20,5,651
0.12070,2.76500,-4.60250,0.00000,0.00171,0.96600,-0.22729,2023,6,9,12,20,5,663
0.12080,2.83500,-4.90000,0.00000,0.00256,0.96880,-0.22790,2023,6,9,12,20,5,674
0.12090,2.73000,-4.55000,0.00000,0.00183,0.96612,-0.22668,2023,6,9,12,20,5,685
0.12100,2.87000,-4.72500,0.00000,0.00281,0.96807,-0.23058,2023,6,9,12,20,5,696
0.12110,2.74750,-4.83000,0.00000,0.00390,0.96758,-0.22851,2023,6,9,12,20,5,707
0.12120,2.64250,-4.49750,0.00000,0.00268,0.96551,-0.22985,2023,6,9,12,20,5,718
0.12130,2.88750,-4.77750,0.00000,0.00378,0.96831,-0.23046,2023,6,9,12,20,5,729
0.12140,2.78250,-4.70750,0.00000,0.00293,0.96587,-0.22887,2023,6,9,12,20,5,740
0.12150,2.80000,-4.65500,0.00000,0.00244,0.96929,-0.22851,2023,6,9,12,20,5,751
0.12160,2.83500,-4.58500,0.00000,0.00342,0.96563,-0.23180,2023,6,9,12,20,5,763
0.12170,2.73000,-4.39250,0.00000,0.00708,0.96917,-0.23034,2023,6,9,12,20,5,774
0.12180,2.81750,-4.77750,0.00000,0.00122,0.96514,-0.22619,2023,6,9,12,20,5,785
0.12190,2.87000,-4.69000,0.00000,0.00244,0.96831,-0.22790,2023,6,9,12,20,5,796
0.12200,2.83500,-4.39250,0.00000,0.00390,0.96917,-0.23497,2023,6,9,12,20,5,807
0.12210,2.78250,-4.28750,0.00000,0.00390,0.96819,-0.23448,2023,6,9,12,20,5,818
0.12220,2.73000,-4.69000,0.00000,0.00451,0.96514,-0.22985,2023,6,9,12,20,5,829
0.12230,3.04500,-4.44500,0.00000,0.00329,0.96868,-0.23485,2023,6,9,12,20,5,840
0.12240,2.92250,-4.53250,0.00000,0.00098,0.96819,-0.23143,2023,6,9,12,20,5,851
0.12250,2.81750,-4.79500,0.00000,0.00000,0.96917,-0.23021,2023,6,9,12,20,5,863
0.12260,2.74750,-4.46250,0.00000,0.00207,0.96453,-0.23095,2023,6,9,12,20,5,874
0.12270,3.01000,-4.37500,0.00000,0.00244,0.96819,-0.22716,2023,6,9,12,20,5,885
0.12280,2.53750,-4.65500,0.00000,0.00403,0.96722,-0.22851,2023,6,9,12,20,5,896
0.12290,2.80000,-4.48000,0.00000,0.00146,0.96343,-0.23400,2023,6,9,12,20,5,907
0.12300,2.90500,-4.55000,0.00000,0.00342,0.96856,-0.23607,2023,6,9,12,20,5,918
0.12310,2.85250,-4.83000,0.00000,0.00329,0.96624,-0.22680,2023,6,9,12,20,5,929
0.12320,2.69500,-4.65500,0.00000,0.00098,0.96624,-0.22924,2023,6,9,12,20,5,940
0.12330,2.81750,-4.48000,0.00000,0.00390,0.96673,-0.22692,2023,6,9,12,20,5,951
0.12340,2.74750,-4.65500,0.00000,0.00317,0.96831,-0.22655,2023,6,9,12,20,5,963
0.12350,2.69500,-4.55000,0.00000,0.00171,0.96563,-0.22838,2023,6,9,12,20,5,974
0.12360,2.87000,-4.77750,0.00000,0.00232,0.96697,-0.23119,2023,6,9,12,20,5,985
0.12370,2.85250,-4.77750,0.00000,0.00207,0.96587,-0.22851,2023,6,9,12,20,5,996
0.12380,2.83500,-4.74250,0.00000,0.00378,0.96600,-0.22973,2023,6,9,12,20,5,7
0.12390,2.76500,-4.56750,0.00000,0.00220,0.96404,-0.23143,2023,6,9,12,20,6,8
0.12400,2.88750,-4.77750,0.00000,0.00354,0.96697,-0.23058,2023,6,9,12,20,6,19
0.12410,2.59000,-4.67250,0.00000,0.00403,0.96636,-0.22875,2023,6,9,12,20,6,30
0.12420,2.94000,-4.56750,0.00000,0.00390,0.96795,-0.23302,2023,6,9,12,20,6,41
0.12430,2.71250,-4.48000,0.00000,0.00159,0.96490,-0.23070,2023,6,9,12,20,6,53
0.12440,2.92250,-5.04000,0.00000,0.00488,0.96758,-0.23290,2023,6,9,12,20,6,64
0.12450,2.71250,-4.37500,0.00000,0.00256,0.96892,-0.23522,2023,6,9,12,20,6,75
0.12460,2.88750,-4.46250,0.00000,0.00427,0.96587,-0.23473,2023,6,9,12,20,6,86
0.12470,2.90500,-4.81250,0.00000,0.00268,0.96526,-0.23412,2023,6,9,12,20,6,97
0.12480,2.88750,-4.51500,0.00000,0.00378,0.97002,-0.23522,2023,6,9,12,20,6,108
0.12490,2.90500,-4.46250,0.00000,0.00342,0.96831,-0.23424,2023,6,9,12,20,6,119
0.12500,2.74750,-4.70750,0.00000,0.00390,0.96758,-0.23009,2023,6,9,12,20,6,130
0.12510,2.74750,-4.63750,0.00000,0.00110,0.96392,-0.23131,2023,6,9,12,20,6,141
0.12520,2.78250,-4.76000,0.00000,0.00244,0.96575,-0.22899,2023,6,9,12,20,6,153
0.12530,2.87000,-4.67250,0.00000,0.00183,0.96612,-0.22777,2023,6,9,12,20,6,164
0.12540,2.85250,-4.83000,0.00000,0.00195,0.96831,-0.23156,2023,6,9,12,20,6,175
0.12550,2.85250,-4.70750,0.00000,0.00195,0.96746,-0.23180,2023,6,9,12,20,6,186
0.12560,2.74750,-4.81250,0.00000,0.00281,0.96722,-0.22594,2023,6,9,12,20,6,197
0.12570,2.95750,-4.51500,0.00000,0.00329,0.96856,-0.23192,2023,6,9,12,20,6,208
0.12580,2.71250,-4.74250,0.00000,0.00134,0.96612,-0.22924,2023,6,9,12,20,6,219
0.12590,2.71250,-4.74250,0.00000,0.00256,0.96746,-0.22729,2023,6,9,12,20,6,230
0.12600,2.94000,-4.55000,0.00000,0.00317,0.96636,-0.23180,2023,6,9,12,20,6,241
0.12610,2.74750,-4.51500,0.00000,0.00378,0.96636,-0.23143,2023,6,9,12,20,6,253
0.12620,2.95750,-4.67250,0.00000,0.00268,0.96587,-0.22570,2023,6,9,12,20,6,264
0.12630,2.87000,-4.63750,0.00000,0.00171,0.96661,-0.23229,2023,6,9,12,20,6,275
0.12640,2.83500,-4.60250,0.00000,0.00390,0.96478,-0.23314,2023,6,9,12,20,6,286
0.12650,2.87000,-4.72500,0.00000,0.00342,0.96673,-0.22924,2023,6,9,12,20,6,297
0.12660,2.83500,-4.60250,0.00000,0.00342,0.96709,-0.23351,2023,6,9,12,20,6,308
0.12670,2.80000,-4.28750,0.00000,0.00171,0.96905,-0.23448,2023,6,9,12,20,6,319
0.12680,2.57250,-4.72500,0.00000,0.00207,0.96465,-0.22912,2023,6,9,12,20,6,330
0.12690,2.69500,-4.48000,0.00000,0.00293,0.96831,-0.22948,2023,6,9,12,20,6,341
0.12700,2.83500,-4.41000,0.00000,0.00464,0.96892,-0.23070,2023,6,9,12,20,6,353
0.12710,2.76500,-4.81250,0.00000,0.00134,0.96600,-0.22594,2023,6,9,12,20,6,364
0.12720,2.87000,-4.72500,0.00000,0.00268,0.96526,-0.22973,2023,6,9,12,20,6,375
0.12730,2.74750,-4.44500,0.00000,0.00146,0.96465,-0.22985,2023,6,9,12,20,6,386
0.12740,2.83500,-4.69000,0.00000,0.00305,0.96417,-0.22753,2023,6,9,12,20,6,397
0.12750,2.71250,-4.77750,0.00000,0.00415,0.96673,-0.22912,2023,6,9,12,20,6,408
0.12760,2.94000,-4.62000,0.00000,0.00183,0.96819,-0.23339,2023,6,9,12,20,6,419
0.12770,2.83500,-4.70750,0.00000,0.00207,0.96526,-0.22997,2023,6,9,12,20,6,430
0.12780,2.90500,-4.72500,0.00000,-0.00012,0.96746,-0.23253,2023,6,9,12,20,6,441
0.12790,2.76500,-4.65500,0.00000,0.00329,0.96490,-0.23278,2023,6,9,12,20,6,453
0.12800,2.87000,-4.46250,0.00000,0.00305,0.96636,-0.23229,2023,6,9,12,20,6,464
0.12810,2.73000,-4.70750,0.00000,0.00232,0.96856,-0.22765,2023,6,9,12,20,6,475
0.12820,2.92250,-4.67250,0.00000,0.00354,0.96746,-0.22802,2023,6,9,12,20,6,486
0.12830,2.85250,-4.42750,0.00000,0.00256,0.96831,-0.23278,2023,6,9,12,20,6,497
0.12840,2.76500,-4.69000,0.00000,0.00037,0.96758,-0.23070,2023,6,9,12,20,6,508
0.12850,2.90500,-4.53250,0.00000,0.00366,0.96929,-0.23156,2023,6,9,12,20,6,519
0.12860,2.71250,-4.72500,0.00000,-0.00073,0.96880,-0.23046,2023,6,9,12,20,6,530
0.12870,2.69500,-4.74250,0.00000,0.00232,0.96575,-0.22887,2023,6,9,12,20,6,541
0.12880,2.95750,-4.51500,0.00000,0.00476,0.96990,-0.22863,2023,6,9,12,20,6,553
0.12890,3.04500,-4.65500,0.00000,0.00232,0.96624,-0.23534,2023,6,9,12,20,6,564
0.12900,2.71250,-4.63750,0.00000,0.00232,0.96722,-0.22863,2023,6,9,12,20,6,575
0.12910,2.69500,-4.55000,0.00000,0.00354,0.96734,-0.23046,2023,6,9,12,20,6,586
0.12920,2.92250,-4.62000,0.00000,0.00561,0.96636,-0.23400,2023,6,9,12,20,6,597
0.12930,2.74750,-4.65500,0.00000,0.00451,0.96490,-0.23034,2023,6,9,12,20,6,608
0.12940,2.74750,-4.69000,0.00000,0.00244,0.96404,-0.23265,2023,6,9,12,20,6,619
0.12950,2.57250,-4.37500,0.00000,0.00171,0.96795,-0.23570,2023,6,9,12,20,6,630
0.12960,2.85250,-4.83000,0.00000,0.00232,0.96758,-0.23168,2023,6,9,12,20,6,641
0.12970,2.83500,-4.81250,0.00000,0.00232,0.96722,-0.23131,2023,6,9,12,20,6,653
0.12980,2.76500,-4.55000,0.00000,0.00146,0.96978,-0.23229,2023,6,9,12,20,6,664
0.12990,2.80000,-4.65500,0.00000,0.00390,0.96600,-0.23046,2023,6,9,12,20,6,675
0.13000,2.78250,-4.65500,0.00000,0.00293,0.96770,-0.22594,2023,6,9,12,20,6,686
0.13010,2.74750,-4.32250,0.00000,0.00256,0.96575,-0.22973,2023,6,9,12,20,6,697
0.13020,3.01000,-4.55000,0.00000,0.00085,0.96746,-0.23180,2023,6,9,12,20,6,708
0.13030,2.74750,-4.69000,0.00000,0.00171,0.96685,-0.22607,2023,6,9,12,20,6,719
0.13040,2.76500,-4.60250,0.00000,0.00146,0.96490,-0.22814,2023,6,9,12,20,6,730
0.13050,2.73000,-4.53250,0.00000,0.00232,0.96831,-0.23180,2023,6,9,12,20,6,741
0.13060,2.85250,-4.86500,0.00000,0.00354,0.96587,-0.22692,2023,6,9,12,20,6,753
0.13070,2.50250,-4.84750,0.00000,0.00329,0.96856,-0.22790,2023,6,9,12,20,6,764
0.13080,2.88750,-4.44500,0.00000,0.00415,0.96673,-0.22960,2023,6,9,12,20,6,775
0.13090,2.94000,-4.76000,0.00000,0.00293,0.96929,-0.22875,2023,6,9,12,20,6,786
0.13100,2.85250,-4.74250,0.00000,0.00049,0.96624,-0.22716,2023,6,9,12,20,6,797
0.13110,2.73000,-4.49750,0.00000,0.00464,0.96795,-0.23229,2023,6,9,12,20,6,808
0.13120,2.71250,-4.77750,0.00000,0.00049,0.96551,-0.23241,2023,6,9,12,20,6,819
0.13130,2.85250,-4.90000,0.00000,0.00037,0.96453,-0.22948,2023,6,9,12,20,6,830
0.13140,2.78250,-4.39250,0.00000,0.00256,0.96844,-0.23082,2023,6,9,12,20,6,841
0.13150,2.81750,-4.70750,0.00000,0.00342,0.96892,-0.23473,2023,6,9,12,20,6,853
0.13160,2.64250,-4.77750,0.00000,0.00293,0.96795,-0.22899,2023,6,9,12,20,6,864
0.13170,2.62500,-4.53250,0.00000,0.00439,0.96661,-0.23278,2023,6,9,12,20,6,875
0.13180,2.81750,-4.49750,0.00000,0.00451,0.96770,-0.23156,2023,6,9,12,20,6,886
0.13190,2.62500,-4.65500,0.00000,0.00207,0.96600,-0.22973,2023,6,9,12,20,6,897
0.13200,2.99250,-4.76000,0.00000,0.00366,0.96819,-0.23058,2023,6,9,12,20,6,908
0.13210,2.81750,-4.48000,0.00000,0.00085,0.96697,-0.23326,2023,6,9,12,20,6,919
0.13220,2.85250,-4.56750,0.00000,0.00354,0.96746,-0.23375,2023,6,9,12,20,6,930
0.13230,2.69500,-4.63750,0.00000,0.00146,0.96709,-0.23107,2023,6,9,12,20,6,941
0.13240,2.87000,-4.55000,0.00000,0.00122,0.96783,-0.23619,2023,6,9,12,20,6,953
0.13250,2.74750,-4.39250,0.00000,0.00244,0.96795,-0.23278,2023,6,9,12,20,6,964
0.13260,2.66000,-4.37500,0.00000,0.00427,0.96746,-0.23021,2023,6,9,12,20,6,975
0.13270,2.83500,-4.23500,0.00000,0.00634,0.96722,-0.23339,2023,6,9,12,20,6,986
0.13280,2.95750,-4.69000,0.00000,0.00098,0.96905,-0.23448,2023,6,9,12,20,7,7
0.13290,2.81750,-4.86500,0.00000,0.00159,0.96429,-0.23095,2023,6,9,12,20,7,18
0.13300,2.69500,-4.72500,0.00000,0.00293,0.96600,-0.23241,2023,6,9,12,20,7,29
0.13310,2.74750,-4.42750,0.00000,0.00134,0.96502,-0.22692,2023,6,9,12,20,7,40
0.13320,2.57250,-4.51500,0.00000,0.00195,0.96880,-0.22863,2023,6,9,12,20,7,51
0.13330,2.95750,-4.77750,0.00000,0.00195,0.96478,-0.22960,2023,6,9,12,20,7,63
0.13340,2.83500,-4.56750,0.00000,0.00256,0.96941,-0.22973,2023,6,9,12,20,7,74
0.13350,2.69500,-4.88250,0.00000,0.00305,0.96648,-0.22753,2023,6,9,12,20,7,85
0.13360,2.99250,-4.90000,0.00000,0.00146,0.96770,-0.23095,2023,6,9,12,20,7,96
0.13370,2.80000,-4.55000,0.00000,0.00073,0.96685,-0.23034,2023,6,9,12,20,7,107
0.13380,2.64250,-4.70750,0.00000,0.00220,0.96539,-0.22668,2023,6,9,12,20,7,118
0.13390,2.83500,-4.69000,0.00000,0.00232,0.96758,-0.22680,2023,6,9,12,20,7,129
0.13400,2.74750,-4.39250,0.00000,0.00134,0.96758,-0.22912,2023,6,9,12,20,7,140
0.13410,2.87000,-4.77750,0.00000,0.00281,0.96819,-0.22729,2023,6,9,12,20,7,151
0.13420,2.74750,-4.63750,0.00000,0.00037,0.96831,-0.23021,2023,6,9,12,20,7,163
0.13430,2.66000,-4.77750,0.00000,0.00451,0.96807,-0.22985,2023,6,9,12,20,7,174
0.13440,2.81750,-4.81250,0.00000,0.00317,0.96758,-0.22985,2023,6,9,12,20,7,185
0.13450,2.69500,-4.77750,0.00000,0.00037,0.96453,-0.22777,2023,6,9,12,20,7,196
0.13460,2.90500,-4.58500,0.00000,0.00561,0.96844,-0.23204,2023,6,9,12,20,7,207
0.13470,2.64250,-4.60250,0.00000,0.00244,0.96966,-0.23082,2023,6,9,12,20,7,218
0.13480,2.76500,-4.83000,0.00000,0.00268,0.96661,-0.22985,2023,6,9,12,20,7,229
0.13490,3.04500,-4.39250,0.00000,0.00122,0.96612,-0.23131,2023,6,9,12,20,7,240
0.13500,2.95750,-4.67250,0.00000,0.00427,0.96722,-0.23253,2023,6,9,12,20,7,251
0.13510,2.90500,-4.63750,0.00000,0.00329,0.96966,-0.22753,2023,6,9,12,20,7,263
0.13520,2.73000,-4.39250,0.00000,0.00244,0.96648,-0.23363,2023,6,9,12,20,7,274
0.13530,2.90500,-4.60250,0.00000,0.00232,0.96697,-0.23265,2023,6,9,12,20,7,285
0.13540,2.99250,-4.86500,0.00000,0.00354,0.96770,-0.23253,2023,6,9,12,20,7,296
0.13550,2.92250,-4.41000,0.00000,0.00305,0.96709,-0.23436,2023,6,9,12,20,7,307
0.13560,2.95750,-4.35750,0.00000,0.00220,0.96563,-0.23412,2023,6,9,12,20,7,318
0.13570,2.80000,-4.74250,0.00000,0.00244,0.96612,-0.23119,2023,6,9,12,20,7,329
0.13580,2.81750,-4.62000,0.00000,0.00293,0.96551,-0.23168,2023,6,9,12,20,7,340
0.13590,2.76500,-4.28750,0.00000,0.00451,0.96612,-0.23387,2023,6,9,12,20,7,351
0.13600,2.90500,-4.25250,0.00000,0.00403,0.96502,-0.23375,2023,6,9,12,20,7,363
0.13610,2.85250,-4.49750,0.00000,0.00207,0.96770,-0.22814,2023,6,9,12,20,7,374
0.13620,2.83500,-4.34000,0.00000,0.00317,0.96978,-0.23192,2023,6,9,12,20,7,385
0.13630,2.81750,-4.51500,0.00000,0.00305,0.96539,-0.23192,2023,6,9,12,20,7,396
0.13640,2.76500,-4.62000,0.00000,0.00403,0.96734,-0.22948,2023,6,9,12,20,7,407
0.13650,2.95750,-4.58500,0.00000,0.00512,0.96856,-0.23448,2023,6,9,12,20,7,418
0.13660,2.76500,-4.46250,0.00000,-0.00049,0.96661,-0.22716,2023,6,9,12,20,7,429
0.13670,2.60750,-4.67250,0.00000,0.00488,0.96563,-0.22790,2023,6,9,12,20,7,440
0.13680,2.87000,-4.62000,0.00000,0.00439,0.96673,-0.23326,2023,6,9,12,20,7,451
0.13690,2.90500,-4.72500,0.00000,0.00354,0.96551,-0.22960,2023,6,9,12,20,7,463
0.13700,2.57250,-4.79500,0.00000,0.00451,0.96673,-0.22802,2023,6,9,12,20,7,474
0.13710,2.99250,-4.62000,0.00000,0.00415,0.96795,-0.23265,2023,6,9,12,20,7,485
0.13720,2.92250,-4.72500,0.00000,0.00207,0.96612,-0.22851,2023,6,9,12,20,7,496
0.13730,2.64250,-4.60250,0.00000,0.00012,0.96526,-0.22899,2023,6,9,12,20,7,507
0.13740,2.92250,-4.48000,0.00000,0.00439,0.96661,-0.23375,2023,6,9,12,20,7,518
0.13750,2.62500,-4.62000,0.00000,0.00220,0.96929,-0.22802,2023,6,9,12,20,7,529
0.13760,2.78250,-4.95250,0.00000,0.00366,0.96392,-0.22899,2023,6,9,12,20,7,540
0.13770,2.85250,-4.44500,0.00000,0.00256,0.96856,-0.23009,2023,6,9,12,20,7,551
0.13780,2.85250,-4.74250,0.00000,0.00244,0.96746,-0.22741,2023,6,9,12,20,7,563
0.13790,2.88750,-4.79500,0.00000,0.00317,0.96587,-0.22607,2023,6,9,12,20,7,574
0.13800,2.71250,-4.58500,0.00000,0.00525,0.96892,-0.23302,2023,6,9,12,20,7,585
0.13810,2.78250,-4.39250,0.00000,0.00195,0.96844,-0.23253,2023,6,9,12,20,7,596
0.13820,2.78250,-4.77750,0.00000,0.00159,0.96417,-0.23131,2023,6,9,12,20,7,607
0.13830,2.71250,-4.46250,0.00000,0.00256,0.97027,-0.23265,2023,6,9,12,20,7,618
0.13840,2.88750,-4.55000,0.00000,0.00281,0.96673,-0.23241,2023,6,9,12,20,7,629
0.13850,2.52000,-4.60250,0.00000,0.00293,0.96709,-0.22899,2023,6,9,12,20,7,640
0.13860,3.01000,-4.69000,0.00000,0.00427,0.96880,-0.23180,2023,6,9,12,20,7,651
0.13870,2.87000,-4.55000,0.00000,0.00195,0.96722,-0.22838,2023,6,9,12,20,7,663
0.13880,2.67750,-4.70750,0.00000,0.00451,0.97002,-0.22619,2023,6,9,12,20,7,674
0.13890,2.90500,-4.48000,0.00000,0.00183,0.96746,-0.23156,2023,6,9,12,20,7,685
0.13900,2.95750,-4.51500,0.00000,0.00439,0.96758,-0.23326,2023,6,9,12,20,7,696
0.13910,2.81750,-4.69000,0.00000,0.00061,0.97002,-0.23034,2023,6,9,12,20,7,707
0.13920,2.87000,-4.69000,0.00000,0.00415,0.96770,-0.23046,2023,6,9,12,20,7,718
0.13930,2.81750,-4.16500,0.00000,0.00281,0.96892,-0.22753,2023,6,9,12,20,7,729
0.13940,2.74750,-4.55000,0.00000,0.00488,0.96563,-0.22802,2023,6,9,12,20,7,740
0.13950,2.87000,-4.69000,0.00000,0.00366,0.96905,-0.23229,2023,6,9,12,20,7,751
0.13960,2.80000,-4.60250,0.00000,0.00207,0.96490,-0.23070,2023,6,9,12,20,7,763
0.13970,2.76500,-4.76000,0.00000,0.00305,0.96868,-0.22582,2023,6,9,12,20,7,774
0.13980,2.92250,-4.74250,0.00000,0.00439,0.96746,-0.22594,2023,6,9,12,20,7,785
0.13990,2.83500,-4.65500,0.00000,0.00220,0.96404,-0.22985,2023,6,9,12,20,7,796
0.14000,2.99250,-4.77750,0.00000,0.00195,0.96612,-0.22814,2023,6,9,12,20,7,807
0.14010,2.74750,-4.70750,0.00000,0.00073,0.96758,-0.22655,2023,6,9,12,20,7,818
0.14020,2.74750,-4.28750,0.00000,0.00305,0.96819,-0.23314,2023,6,9,12,20,7,829
0.14030,2.85250,-4.60250,0.00000,0.00268,0.96612,-0.22655,2023,6,9,12,20,7,840
0.14040,2.78250,-4.81250,0.00000,0.00403,0.96551,-0.22692,2023,6,9,12,20,7,851
0.14050,3.01000,-4.60250,0.00000,0.00220,0.97002,-0.23021,2023,6,9,12,20,7,863
0.14060,2.92250,-4.56750,0.00000,0.00305,0.96514,-0.22863,2023,6,9,12,20,7,874
0.14070,2.88750,-4.63750,0.00000,0.00037,0.96685,-0.23229,2023,6,9,12,20,7,885
0.14080,2.81750,-4.42750,0.00000,0.00244,0.96722,-0.22973,2023,6,9,12,20,7,896
0.14090,2.92250,-4.62000,0.00000,0.00317,0.96831,-0.23058,2023,6,9,12,20,7,907
0.14100,2.81750,-4.53250,0.00000,0.00329,0.96819,-0.22777,2023,6,9,12,20,7,918
0.14110,2.87000,-4.51500,0.00000,0.00464,0.96575,-0.22838,2023,6,9,12,20,7,929
0.14120,2.67750,-4.65500,0.00000,0.00256,0.96526,-0.22668,2023,6,9,12,20,7,940
0.14130,2.69500,-4.79500,0.00000,0.00098,0.96600,-0.22960,2023,6,9,12,20,7,951
0.14140,2.87000,-4.46250,0.00000,0.00329,0.96941,-0.22948,2023,6,9,12,20,7,963
0.14150,2.81750,-4.46250,0.00000,0.00049,0.96465,-0.22924,2023,6,9,12,20,7,974
0.14160,2.60750,-4.56750,0.00000,0.00281,0.96758,-0.22375,2023,6,9,12,20,7,985
0.14170,2.94000,-4.67250,0.00000,0.00207,0.96551,-0.23156,2023,6,9,12,20,7,996
0.14180,2.94000,-4.76000,0.00000,0.00122,0.96648,-0.22741,2023,6,9,12,20,7,7
0.14190,2.78250,-4.72500,0.00000,0.00476,0.96575,-0.22533,2023,6,9,12,20,8,8
0.14200,2.85250,-4.72500,0.00000,0.00244,0.96685,-0.22631,2023,6,9,12,20,8,19
0.14210,2.81750,-4.56750,0.00000,0.00378,0.96612,-0.22814,2023,6,9,12,20,8,30
0.14220,2.73000,-4.81250,0.00000,0.00415,0.96636,-0.22485,2023,6,9,12,20,8,41
0.14230,2.94000,-4.60250,0.00000,0.00268,0.96844,-0.22875,2023,6,9,12,20,8,53
0.14240,2.73000,-4.65500,0.00000,0.00183,0.96770,-0.23156,2023,6,9,12,20,8,64
0.14250,2.90500,-4.77750,0.00000,0.00329,0.96709,-0.22509,2023,6,9,12,20,8,75
0.14260,2.71250,-4.74250,0.00000,0.00220,0.96685,-0.22619,2023,6,9,12,20,8,86
0.14270,2.92250,-4.56750,0.00000,0.00305,0.96636,-0.22863,2023,6,9,12,20,8,97
0.14280,2.94000,-4.51500,0.00000,0.00281,0.96709,-0.22643,2023,6,9,12,20,8,108
0.14290,2.67750,-4.76000,0.00000,0.00146,0.96783,-0.22485,2023,6,9,12,20,8,119
0.14300,2.88750,-4.76000,0.00000,0.00305,0.96575,-0.23082,2023,6,9,12,20,8,130
0.14310,2.69500,-4.67250,0.00000,0.00195,0.96697,-0.22924,2023,6,9,12,20,8,141
0.14320,2.83500,-4.84750,0.00000,0.00305,0.96600,-0.23217,2023,6,9,12,20,8,153
0.14330,2.88750,-4.46250,0.00000,0.00305,0.96770,-0.23302,2023,6,9,12,20,8,164
0.14340,2.80000,-4.67250,0.00000,0.00293,0.96807,-0.23070,2023,6,9,12,20,8,175
0.14350,2.80000,-4.42750,0.00000,0.00195,0.96685,-0.23046,2023,6,9,12,20,8,186
0.14360,2.92250,-4.69000,0.00000,0.00073,0.96844,-0.23473,2023,6,9,12,20,8,197
0.14370,2.95750,-4.77750,0.00000,0.00342,0.96404,-0.23143,2023,6,9,12,20,8,208
0.14380,2.78250,-4.39250,0.00000,0.00378,0.96539,-0.23107,2023,6,9,12,20,8,219
0.14390,3.02750,-4.55000,0.00000,0.00305,0.96587,-0.23302,2023,6,9,12,20,8,230
0.14400,2.69500,-4.56750,0.00000,0.00293,0.96478,-0.22680,2023,6,9,12,20,8,241
0.14410,2.94000,-4.49750,0.00000,0.00342,0.96758,-0.22973,2023,6,9,12,20,8,253
0.14420,2.85250,-4.37500,0.00000,0.00378,0.96636,-0.23082,2023,6,9,12,20,8,264
0.14430,2.60750,-4.91750,0.00000,0.00488,0.96429,-0.22912,2023,6,9,12,20,8,275
0.14440,2.76500,-4.41000,0.00000,0.00195,0.96917,-0.22973,2023,6,9,12,20,8,286
0.14450,2.87000,-4.41000,0.00000,0.00146,0.96770,-0.22680,2023,6,9,12,20,8,297
0.14460,2.66000,-4.67250,0.00000,0.00281,0.96807,-0.22497,2023,6,9,12,20,8,308
0.14470,2.78250,-4.67250,0.00000,0.00183,0.96807,-0.22729,2023,6,9,12,20,8,319
0.14480,2.87000,-4.69000,0.00000,0.00366,0.96587,-0.22863,2023,6,9,12,20,8,330
0.14490,2.85250,-4.70750,0.00000,0.00268,0.96673,-0.22509,2023,6,9,12,20,8,341
0.14500,2.60750,-4.83000,0.00000,-0.00037,0.96685,-0.22558,2023,6,9,12,20,8,353
0.14510,2.74750,-4.42750,0.00000,0.00256,0.96929,-0.22948,2023,6,9,12,20,8,364
0.14520,2.71250,-4.67250,0.00000,0.00195,0.96844,-0.22485,2023,6,9,12,20,8,375
0.14530,2.67750,-4.53250,0.00000,0.00439,0.96587,-0.23119,2023,6,9,12,20,8,386
0.14540,2.97500,-4.67250,0.00000,0.00342,0.96685,-0.23070,2023,6,9,12,20,8,397
0.14550,2.74750,-4.69000,0.00000,0.00207,0.96417,-0.22802,2023,6,9,12,20,8,408
0.14560,3.02750,-4.93500,0.00000,0.00268,0.96844,-0.23326,2023,6,9,12,20,8,419
0.14570,2.87000,-4.53250,0.00000,0.00281,0.96563,-0.23143,2023,6,9,12,20,8,430
0.14580,2.95750,-4.62000,0.00000,0.00317,0.96892,-0.22924,2023,6,9,12,20,8,441
0.14590,2.90500,-4.48000,0.00000,0.00366,0.96734,-0.22765,2023,6,9,12,20,8,453
0.14600,2.92250,-4.55000,0.00000,0.00537,0.96758,-0.22887,2023,6,9,12,20,8,464
0.14610,2.71250,-4.58500,0.00000,0.00281,0.96892,-0.22838,2023,6,9,12,20,8,475
0.14620,2.81750,-4.72500,0.00000,0.00317,0.96905,-0.22973,2023,6,9,12,20,8,486
0.14630,2.74750,-4.44500,0.00000,0.00256,0.96722,-0.23046,2023,6,9,12,20,8,497
0.14640,2.74750,-4.70750,0.00000,0.00122,0.96661,-0.22533,2023,6,9,12,20,8,508
0.14650,2.87000,-4.58500,0.00000,0.00171,0.96465,-0.22753,2023,6,9,12,20,8,519
0.14660,2.78250,-4.46250,0.00000,0.00464,0.96722,-0.23131,2023,6,9,12,20,8,530
0.14670,2.87000,-4.69000,0.00000,0.00403,0.96453,-0.22716,2023,6,9,12,20,8,541
0.14680,2.74750,-4.55000,0.00000,0.00256,0.96490,-0.22497,2023,6,9,12,20,8,553
0.14690,2.87000,-4.55000,0.00000,0.00207,0.96722,-0.23046,2023,6,9,12,20,8,564
0.14700,2.78250,-4.58500,0.00000,0.00317,0.96783,-0.22631,2023,6,9,12,20,8,575
0.14710,2.80000,-4.88250,0.00000,0.00012,0.96697,-0.22692,2023,6,9,12,20,8,586
0.14720,2.81750,-4.67250,0.00000,0.00281,0.96953,-0.23070,2023,6,9,12,20,8,597
0.14730,2.90500,-4.74250,0.00000,0.00354,0.96612,-0.22973,2023,6,9,12,20,8,608
0.14740,2.69500,-4.42750,0.00000,0.00390,0.96697,-0.22619,2023,6,9,12,20,8,619
0.14750,2.90500,-4.41000,0.00000,0.00464,0.96807,-0.23180,2023,6,9,12,20,8,630
0.14760,2.90500,-4.56750,0.00000,0.00354,0.96648,-0.22997,2023,6,9,12,20,8,641
0.14770,2.87000,-4.88250,0.00000,0.00390,0.96807,-0.22582,2023,6,9,12,20,8,653
0.14780,2.88750,-4.48000,0.00000,0.00415,0.96661,-0.22899,2023,6,9,12,20,8,664
0.14790,2.80000,-4.28750,0.00000,0.00159,0.96587,-0.23217,2023,6,9,12,20,8,675
0.14800,2.78250,-4.60250,0.00000,0.00220,0.96746,-0.22875,2023,6,9,12,20,8,686
0.14810,2.88750,-4.53250,0.00000,0.00451,0.96526,-0.23253,2023,6,9,12,20,8,697
0.14820,2.85250,-4.48000,0.00000,0.00378,0.96795,-0.23168,2023,6,9,12,20,8,708
0.14830,2.60750,-4.48000,0.00000,0.00122,0.96746,-0.22814,2023,6,9,12,20,8,719
0.14840,2.80000,-4.56750,0.00000,0.00305,0.96734,-0.22985,2023,6,9,12,20,8,730
0.14850,2.88750,-4.62000,0.00000,0.00268,0.96807,-0.22655,2023,6,9,12,20,8,741
0.14860,2.74750,-4.67250,0.00000,0.00159,0.96673,-0.22729,2023,6,9,12,20,8,753
0.14870,2.78250,-4.55000,0.00000,0.00195,0.96722,-0.23095,2023,6,9,12,20,8,764
0.14880,2.90500,-4.65500,0.00000,0.00256,0.96661,-0.22924,2023,6,9,12,20,8,775
0.14890,2.36250,-4.72500,0.00000,0.00159,0.96404,-0.22826,2023,6,9,12,20,8,786
0.14900,2.73000,-4.74250,0.00000,0.00195,0.96880,-0.22692,2023,6,9,12,20,8,797
0.14910,2.95750,-4.58500,0.00000,0.00342,0.96795,-0.22875,2023,6,9,12,20,8,808
0.14920,2.85250,-4.76000,0.00000,0.00342,0.96551,-0.22765,2023,6,9,12,20,8,819
0.14930,2.66000,-4.76000,0.00000,0.00329,0.96734,-0.23168,2023,6,9,12,20,8,830
0.14940,2.81750,-4.16500,0.00000,0.00317,0.96892,-0.22997,2023,6,9,12,20,8,841
0.14950,2.73000,-4.62000,0.00000,0.00476,0.96929,-0.22863,2023,6,9,12,20,8,853
0.14960,2.90500,-4.53250,0.00000,0.00317,0.96868,-0.22973,2023,6,9,12,20,8,864
0.14970,2.81750,-4.35750,0.00000,0.00342,0.96673,-0.23253,2023,6,9,12,20,8,875
0.14980,2.74750,-4.34000,0.00000,0.00305,0.96697,-0.23107,2023,6,9,12,20,8,886
0.14990,2.80000,-4.56750,0.00000,0.00146,0.96697,-0.22643,2023,6,9,12,20,8,897
0.15000,2.92250,-4.56750,0.00000,0.00317,0.96758,-0.23180,2023,6,9,12,20,8,908
0.15010,2.85250,-4.58500,0.00000,0.00390,0.96880,-0.23229,2023,6,9,12,20,8,919
0.15020,2.85250,-4.84750,0.00000,0.00281,0.96673,-0.22838,2023,6,9,12,20,8,930
0.15030,2.73000,-4.65500,0.00000,0.00366,0.96746,-0.22582,2023,6,9,12,20,8,941
0.15040,3.04500,-4.51500,0.00000,0.00415,0.96697,-0.22814,2023,6,9,12,20,8,953
0.15050,2.95750,-4.63750,0.00000,-0.00049,0.96648,-0.22704,2023,6,9,12,20,8,964
0.15060,2.80000,-4.56750,0.00000,0.00195,0.96709,-0.22460,2023,6,9,12,20,8,975
0.15070,2.78250,-4.63750,0.00000,0.00329,0.96856,-0.22899,2023,6,9,12,20,8,986
0.15080,2.69500,-4.63750,0.00000,0.00293,0.96856,-0.22680,2023,6,9,12,20,8,997
0.15090,2.87000,-4.60250,0.00000,-0.00110,0.96758,-0.22826,2023,6,9,12,20,8,8
0.15100,2.95750,-4.48000,0.00000,0.00329,0.96795,-0.22985,2023,6,9,12,20,8,19
