#2023/06/09 18:07:36
time,wx,wy,wz,ax,ay,az,yy,MM,dd,hh,mm,ss,ms
3.55740,3.69250,-4.53250,0.00000,0.01281,0.96953,-0.22155,2023,6,9,18,7,36,379
3.55750,3.36000,-4.63750,0.00000,0.01488,0.96734,-0.22253,2023,6,9,18,7,36,390
3.55760,2.48500,-4.62000,0.00000,0.01415,0.96697,-0.22106,2023,6,9,18,7,36,401
3.55770,2.39750,-4.72500,0.00000,0.01440,0.97051,-0.22143,2023,6,9,18,7,36,412
3.55780,2.67750,-4.56750,0.00000,0.01574,0.96966,-0.21887,2023,6,9,18,7,36,423
3.55790,3.57000,-4.67250,0.00000,0.01220,0.97063,-0.21984,2023,6,9,18,7,36,434
3.55800,3.62250,-4.63750,0.00000,0.01525,0.96783,-0.22082,2023,6,9,18,7,36,445
3.55810,3.06250,-4.81250,0.00000,0.01318,0.96734,-0.22070,2023,6,9,18,7,36,456
3.55820,2.32750,-4.83000,0.00000,0.01501,0.96892,-0.22033,2023,6,9,18,7,36,467
3.55830,2.46750,-4.76000,0.00000,0.01476,0.97210,-0.21692,2023,6,9,18,7,36,478
3.55840,3.34250,-4.62000,0.00000,0.01488,0.97100,-0.21862,2023,6,9,18,7,36,490
3.55850,3.43000,-4.67250,0.00000,0.01562,0.96856,-0.21765,2023,6,9,18,7,36,501
3.55860,3.01000,-4.65500,0.00000,0.01452,0.96868,-0.21997,2023,6,9,18,7,36,512
3.55870,2.88750,-4.83000,0.00000,0.01196,0.96746,-0.22070,2023,6,9,18,7,36,523
3.55880,2.53750,-4.56750,0.00000,0.01427,0.97027,-0.21923,2023,6,9,18,7,36,534
3.55890,2.94000,-4.55000,0.00000,0.01342,0.97051,-0.21984,2023,6,9,18,7,36,545
3.55900,3.30750,-4.55000,0.00000,0.01476,0.97002,-0.21911,2023,6,9,18,7,36,556
3.55910,2.95750,-4.65500,0.00000,0.01269,0.96868,-0.22058,2023,6,9,18,7,36,567
3.55920,2.85250,-4.83000,0.00000,0.01342,0.96941,-0.22204,2023,6,9,18,7,36,578
3.55930,2.87000,-4.76000,0.00000,0.01330,0.97063,-0.21631,2023,6,9,18,7,36,590
3.55940,3.11500,-4.67250,0.00000,0.01415,0.96856,-0.21997,2023,6,9,18,7,36,601
3.55950,3.16750,-4.49750,0.00000,0.01293,0.96905,-0.22045,2023,6,9,18,7,36,612
3.55960,2.83500,-4.51500,0.00000,0.01501,0.96661,-0.21997,2023,6,9,18,7,36,623
3.55970,2.62500,-4.60250,0.00000,0.01476,0.96868,-0.21972,2023,6,9,18,7,36,634
3.55980,2.73000,-4.48000,0.00000,0.01427,0.96990,-0.21875,2023,6,9,18,7,36,645
3.55990,3.08000,-4.55000,0.00000,0.01452,0.96990,-0.21984,2023,6,9,18,7,36,656
3.56000,3.39500,-4.65500,0.00000,0.01342,0.96758,-0.21936,2023,6,9,18,7,36,667
3.56010,3.06250,-4.51500,0.00000,0.01415,0.97039,-0.22070,2023,6,9,18,7,36,678
3.56020,2.64250,-4.60250,0.00000,0.01244,0.96795,-0.21972,2023,6,9,18,7,36,690
3.56030,2.53750,-4.62000,0.00000,0.01379,0.97100,-0.21911,2023,6,9,18,7,36,701
3.56040,3.23750,-4.74250,0.00000,0.01379,0.96953,-0.21899,2023,6,9,18,7,36,712
3.56050,3.09750,-4.60250,0.00000,0.01525,0.97124,-0.21887,2023,6,9,18,7,36,723
3.56060,3.08000,-4.77750,0.00000,0.01488,0.96966,-0.21862,2023,6,9,18,7,36,734
3.56070,2.95750,-4.65500,0.00000,0.01488,0.97039,-0.22094,2023,6,9,18,7,36,745
3.56080,2.66000,-4.79500,0.00000,0.01281,0.97283,-0.21936,2023,6,9,18,7,36,756
3.56090,3.02750,-4.42750,0.00000,0.01476,0.97075,-0.21911,2023,6,9,18,7,36,767
3.56100,3.18500,-4.72500,0.00000,0.01525,0.97027,-0.22033,2023,6,9,18,7,36,778
3.56110,3.15000,-4.76000,0.00000,0.01269,0.96905,-0.21948,2023,6,9,18,7,36,790
3.56120,2.81750,-4.77750,0.00000,0.01684,0.96807,-0.21997,2023,6,9,18,7,36,801
3.56130,2.69500,-4.58500,0.00000,0.01537,0.96819,-0.22302,2023,6,9,18,7,36,812
3.56140,2.95750,-4.48000,0.00000,0.01293,0.96929,-0.22021,2023,6,9,18,7,36,823
3.56150,3.22000,-4.70750,0.00000,0.01415,0.96819,-0.22082,2023,6,9,18,7,36,834
3.56160,3.01000,-4.58500,0.00000,0.01488,0.96978,-0.22021,2023,6,9,18,7,36,845
3.56170,3.04500,-4.65500,0.00000,0.01488,0.96819,-0.22180,2023,6,9,18,7,36,856
3.56180,2.81750,-4.46250,0.00000,0.01122,0.96856,-0.22155,2023,6,9,18,7,36,867
3.56190,2.85250,-4.70750,0.00000,0.01293,0.96868,-0.21801,2023,6,9,18,7,36,878
3.56200,3.15000,-4.48000,0.00000,0.01525,0.96673,-0.22070,2023,6,9,18,7,36,890
3.56210,3.04500,-4.39250,0.00000,0.01269,0.97100,-0.22155,2023,6,9,18,7,36,901
3.56220,3.01000,-4.77750,0.00000,0.01391,0.96746,-0.21960,2023,6,9,18,7,36,912
3.56230,3.02750,-4.81250,0.00000,0.01354,0.97161,-0.22180,2023,6,9,18,7,36,923
3.56240,2.71250,-4.60250,0.00000,0.01391,0.97014,-0.21826,2023,6,9,18,7,36,934
3.56250,2.94000,-4.53250,0.00000,0.01464,0.96966,-0.21936,2023,6,9,18,7,36,945
3.56260,3.18500,-4.60250,0.00000,0.01244,0.96831,-0.21923,2023,6,9,18,7,36,956
3.56270,3.16750,-4.48000,0.00000,0.01354,0.96880,-0.22009,2023,6,9,18,7,36,967
3.56280,3.08000,-4.70750,0.00000,0.01427,0.96844,-0.21948,2023,6,9,18,7,36,978
3.56290,2.76500,-4.55000,0.00000,0.01501,0.96624,-0.21960,2023,6,9,18,7,36,990
3.56300,2.78250,-4.69000,0.00000,0.01403,0.96807,-0.21875,2023,6,9,18,7,36,1
3.56310,2.83500,-4.62000,0.00000,0.01513,0.96856,-0.21923,2023,6,9,18,7,36,12
3.56320,2.76500,-4.81250,0.00000,0.01366,0.96917,-0.22033,2023,6,9,18,7,36,23
3.56330,2.92250,-4.62000,0.00000,0.01440,0.96953,-0.21862,2023,6,9,18,7,36,34
3.56340,3.18500,-4.60250,0.00000,0.01135,0.96746,-0.22009,2023,6,9,18,7,36,45
3.56350,3.18500,-4.65500,0.00000,0.01305,0.97002,-0.22289,2023,6,9,18,7,36,56
3.56360,2.94000,-4.76000,0.00000,0.01257,0.97112,-0.22167,2023,6,9,18,7,36,67
3.56370,2.95750,-4.53250,0.00000,0.01452,0.96978,-0.22033,2023,6,9,18,7,36,78
3.56380,2.55500,-4.42750,0.00000,0.01501,0.96758,-0.21972,2023,6,9,18,7,36,90
3.56390,2.99250,-4.56750,0.00000,0.01366,0.96978,-0.21960,2023,6,9,18,7,36,101
3.56400,3.22000,-4.58500,0.00000,0.01452,0.96929,-0.22143,2023,6,9,18,7,36,112
3.56410,3.27250,-4.53250,0.00000,0.01574,0.96941,-0.22192,2023,6,9,18,7,36,123
3.56420,2.94000,-4.70750,0.00000,0.01257,0.96831,-0.21887,2023,6,9,18,7,36,134
3.56430,2.78250,-4.63750,0.00000,0.01427,0.97149,-0.22216,2023,6,9,18,7,36,145
3.56440,2.90500,-4.93500,0.00000,0.01403,0.96868,-0.21960,2023,6,9,18,7,36,156
3.56450,3.02750,-4.58500,0.00000,0.01476,0.96892,-0.21850,2023,6,9,18,7,36,167
3.56460,3.48250,-4.65500,0.00000,0.01257,0.96844,-0.21948,2023,6,9,18,7,36,178
3.56470,3.22000,-4.70750,0.00000,0.01610,0.97051,-0.22411,2023,6,9,18,7,36,190
3.56480,2.83500,-4.74250,0.00000,0.01257,0.96880,-0.22070,2023,6,9,18,7,36,201
3.56490,2.71250,-4.88250,0.00000,0.01403,0.97027,-0.22106,2023,6,9,18,7,36,212
3.56500,2.74750,-4.39250,0.00000,0.01305,0.96966,-0.21850,2023,6,9,18,7,36,223
3.56510,3.16750,-4.67250,0.00000,0.01366,0.96685,-0.21972,2023,6,9,18,7,36,234
3.56520,3.37750,-4.60250,0.00000,0.01379,0.96892,-0.22045,2023,6,9,18,7,36,245
3.56530,3.29000,-4.62000,0.00000,0.01330,0.97136,-0.21972,2023,6,9,18,7,36,256
3.56540,2.92250,-4.83000,0.00000,0.01354,0.96880,-0.21984,2023,6,9,18,7,36,267
3.56550,2.66000,-4.62000,0.00000,0.01598,0.96929,-0.21948,2023,6,9,18,7,36,278
3.56560,3.22000,-4.56750,0.00000,0.01574,0.96905,-0.21826,2023,6,9,18,7,36,290
3.56570,3.06250,-4.69000,0.00000,0.01525,0.96758,-0.21972,2023,6,9,18,7,36,301
3.56580,3.25500,-4.62000,0.00000,0.01513,0.97246,-0.22033,2023,6,9,18,7,36,312
3.56590,3.02750,-4.46250,0.00000,0.01476,0.96953,-0.21948,2023,6,9,18,7,36,323
3.56600,2.85250,-4.81250,0.00000,0.01257,0.96807,-0.21765,2023,6,9,18,7,36,334
3.56610,2.92250,-4.81250,0.00000,0.01610,0.96868,-0.21765,2023,6,9,18,7,36,345
3.56620,2.85250,-4.74250,0.00000,0.01257,0.96966,-0.21911,2023,6,9,18,7,36,356
3.56630,3.29000,-4.65500,0.00000,0.01415,0.96831,-0.21887,2023,6,9,18,7,36,367
3.56640,3.27250,-4.70750,0.00000,0.01440,0.96831,-0.21814,2023,6,9,18,7,36,378
3.56650,3.15000,-4.56750,0.00000,0.01366,0.96868,-0.21887,2023,6,9,18,7,36,390
3.56660,2.95750,-4.48000,0.00000,0.01501,0.96697,-0.21557,2023,6,9,18,7,36,401
3.56670,2.92250,-4.67250,0.00000,0.01379,0.96929,-0.21789,2023,6,9,18,7,36,412
3.56680,2.88750,-4.76000,0.00000,0.01440,0.96892,-0.21777,2023,6,9,18,7,36,423
3.56690,3.04500,-4.55000,0.00000,0.01488,0.97014,-0.21606,2023,6,9,18,7,36,434
3.56700,3.20250,-4.84750,0.00000,0.01391,0.96978,-0.21887,2023,6,9,18,7,36,445
3.56710,3.06250,-4.56750,0.00000,0.01488,0.97039,-0.21740,2023,6,9,18,7,36,456
3.56720,2.92250,-4.70750,0.00000,0.01354,0.96892,-0.21862,2023,6,9,18,7,36,467
3.56730,2.87000,-4.63750,0.00000,0.01366,0.96990,-0.21679,2023,6,9,18,7,36,478
3.56740,3.04500,-4.63750,0.00000,0.01318,0.96917,-0.21728,2023,6,9,18,7,36,490
3.56750,3.01000,-4.70750,0.00000,0.01427,0.97014,-0.21826,2023,6,9,18,7,36,501
3.56760,3.02750,-4.91750,0.00000,0.01366,0.96844,-0.21875,2023,6,9,18,7,36,512
3.56770,3.08000,-4.62000,0.00000,0.01440,0.96746,-0.21692,2023,6,9,18,7,36,523
3.56780,2.95750,-4.69000,0.00000,0.01305,0.96868,-0.21850,2023,6,9,18,7,36,534
3.56790,2.88750,-4.69000,0.00000,0.01379,0.96661,-0.21850,2023,6,9,18,7,36,545
3.56800,3.11500,-4.32250,0.00000,0.01440,0.96880,-0.21728,2023,6,9,18,7,36,556
3.56810,2.76500,-4.51500,0.00000,0.01464,0.96978,-0.22058,2023,6,9,18,7,36,567
3.56820,3.11500,-4.84750,0.00000,0.01525,0.96978,-0.21862,2023,6,9,18,7,36,578
3.56830,2.85250,-4.51500,0.00000,0.01537,0.96966,-0.21789,2023,6,9,18,7,36,590
3.56840,3.04500,-4.65500,0.00000,0.01403,0.96795,-0.21911,2023,6,9,18,7,36,601
3.56850,3.09750,-4.62000,0.00000,0.01354,0.96953,-0.21875,2023,6,9,18,7,36,612
3.56860,3.02750,-4.58500,0.00000,0.01501,0.96697,-0.21984,2023,6,9,18,7,36,623
3.56870,3.02750,-4.62000,0.00000,0.01366,0.96783,-0.21838,2023,6,9,18,7,36,634
3.56880,2.95750,-4.42750,0.00000,0.01391,0.96905,-0.21899,2023,6,9,18,7,36,645
3.56890,2.95750,-4.60250,0.00000,0.01501,0.96905,-0.21594,2023,6,9,18,7,36,656
3.56900,3.08000,-4.81250,0.00000,0.01574,0.97063,-0.21911,2023,6,9,18,7,36,667
3.56910,3.06250,-4.76000,0.00000,0.01488,0.96807,-0.22094,2023,6,9,18,7,36,678
3.56920,2.85250,-4.44500,0.00000,0.01623,0.96856,-0.21960,2023,6,9,18,7,36,690
3.56930,2.85250,-4.56750,0.00000,0.01366,0.96966,-0.21862,2023,6,9,18,7,36,701
3.56940,2.85250,-4.88250,0.00000,0.01220,0.97002,-0.21936,2023,6,9,18,7,36,712
3.56950,2.97500,-4.74250,0.00000,0.01488,0.96929,-0.21765,2023,6,9,18,7,36,723
3.56960,3.08000,-4.46250,0.00000,0.01366,0.96917,-0.21862,2023,6,9,18,7,36,734
3.56970,2.92250,-4.76000,0.00000,0.01366,0.96819,-0.21667,2023,6,9,18,7,36,745
3.56980,2.90500,-4.69000,0.00000,0.01379,0.96905,-0.21899,2023,6,9,18,7,36,756
3.56990,2.74750,-4.63750,0.00000,0.01135,0.96978,-0.21631,2023,6,9,18,7,36,767
3.57000,2.74750,-4.63750,0.00000,0.01537,0.97088,-0.21875,2023,6,9,18,7,36,778
3.57010,3.32500,-4.69000,0.00000,0.01537,0.96722,-0.22009,2023,6,9,18,7,36,790
3.57020,3.13250,-4.67250,0.00000,0.01427,0.96905,-0.21972,2023,6,9,18,7,36,801
3.57030,3.01000,-4.58500,0.00000,0.01257,0.97002,-0.21923,2023,6,9,18,7,36,812
3.57040,2.73000,-4.70750,0.00000,0.01281,0.96770,-0.21923,2023,6,9,18,7,36,823
3.57050,2.64250,-4.63750,0.00000,0.01403,0.96929,-0.21801,2023,6,9,18,7,36,834
3.57060,3.15000,-4.84750,0.00000,0.01257,0.96978,-0.21899,2023,6,9,18,7,36,845
3.57070,3.15000,-4.67250,0.00000,0.01501,0.96917,-0.21850,2023,6,9,18,7,36,856
3.57080,3.04500,-4.69000,0.00000,0.01159,0.96673,-0.21899,2023,6,9,18,7,36,867
3.57090,2.87000,-4.58500,0.00000,0.01501,0.96990,-0.21887,2023,6,9,18,7,36,878
3.57100,2.88750,-4.65500,0.00000,0.01366,0.96856,-0.21753,2023,6,9,18,7,36,890
3.57110,2.85250,-4.44500,0.00000,0.01440,0.96819,-0.21936,2023,6,9,18,7,36,901
3.57120,3.01000,-4.46250,0.00000,0.01525,0.96929,-0.21960,2023,6,9,18,7,36,912
3.57130,3.32500,-4.65500,0.00000,0.01086,0.97136,-0.21936,2023,6,9,18,7,36,923
3.57140,2.92250,-4.55000,0.00000,0.01525,0.96758,-0.21850,2023,6,9,18,7,36,934
3.57150,2.92250,-4.48000,0.00000,0.01318,0.96819,-0.21826,2023,6,9,18,7,36,945
3.57160,2.64250,-4.65500,0.00000,0.01537,0.96966,-0.22033,2023,6,9,18,7,36,956
3.57170,2.99250,-4.55000,0.00000,0.01452,0.97039,-0.21692,2023,6,9,18,7,36,967
3.57180,3.11500,-4.67250,0.00000,0.01196,0.96819,-0.21862,2023,6,9,18,7,36,978
3.57190,3.08000,-4.63750,0.00000,0.01391,0.97027,-0.21765,2023,6,9,18,7,36,990
3.57200,2.88750,-4.93500,0.00000,0.01464,0.97014,-0.21899,2023,6,9,18,7,36,1
3.57210,2.67750,-4.63750,0.00000,0.01427,0.96722,-0.21826,2023,6,9,18,7,36,12
3.57220,2.80000,-4.60250,0.00000,0.01562,0.96941,-0.21936,2023,6,9,18,7,36,23
3.57230,3.15000,-4.69000,0.00000,0.01354,0.96892,-0.21765,2023,6,9,18,7,36,34
3.57240,3.30750,-4.62000,0.00000,0.01366,0.96880,-0.21936,2023,6,9,18,7,36,45
3.57250,3.08000,-4.48000,0.00000,0.01354,0.96880,-0.22070,2023,6,9,18,7,36,56
3.57260,2.97500,-4.63750,0.00000,0.01232,0.96831,-0.21862,2023,6,9,18,7,36,67
3.57270,2.73000,-4.44500,0.00000,0.01562,0.96831,-0.21692,2023,6,9,18,7,36,78
3.57280,2.69500,-4.62000,0.00000,0.01488,0.96978,-0.21753,2023,6,9,18,7,36,90
3.57290,3.01000,-4.49750,0.00000,0.01391,0.96758,-0.21692,2023,6,9,18,7,36,101
3.57300,3.18500,-4.62000,0.00000,0.01318,0.96868,-0.21740,2023,6,9,18,7,36,112
3.57310,3.15000,-4.49750,0.00000,0.01354,0.96929,-0.21850,2023,6,9,18,7,36,123
3.57320,2.83500,-4.51500,0.00000,0.01476,0.97051,-0.21972,2023,6,9,18,7,36,134
3.57330,2.66000,-4.56750,0.00000,0.01488,0.96990,-0.21826,2023,6,9,18,7,36,145
3.57340,2.80000,-4.55000,0.00000,0.01342,0.96856,-0.21838,2023,6,9,18,7,36,156
3.57350,2.99250,-4.70750,0.00000,0.01476,0.96734,-0.21582,2023,6,9,18,7,36,167
3.57360,2.97500,-4.63750,0.00000,0.01537,0.96905,-0.22021,2023,6,9,18,7,36,178
3.57370,3.02750,-4.79500,0.00000,0.01269,0.96941,-0.21984,2023,6,9,18,7,36,190
3.57380,3.02750,-4.62000,0.00000,0.01549,0.96795,-0.22058,2023,6,9,18,7,36,201
3.57390,3.02750,-4.56750,0.00000,0.01379,0.96746,-0.21899,2023,6,9,18,7,36,212
3.57400,2.83500,-4.46250,0.00000,0.01305,0.96746,-0.22265,2023,6,9,18,7,36,223
3.57410,3.01000,-4.76000,0.00000,0.01427,0.96722,-0.22204,2023,6,9,18,7,36,234
3.57420,2.95750,-4.62000,0.00000,0.01525,0.96844,-0.21972,2023,6,9,18,7,36,245
3.57430,3.02750,-4.72500,0.00000,0.01464,0.97088,-0.22082,2023,6,9,18,7,36,256
3.57440,2.95750,-4.69000,0.00000,0.01318,0.96856,-0.21997,2023,6,9,18,7,36,267
3.57450,2.99250,-4.69000,0.00000,0.01318,0.96941,-0.22033,2023,6,9,18,7,36,278
3.57460,2.97500,-4.60250,0.00000,0.01366,0.96905,-0.22277,2023,6,9,18,7,36,290
3.57470,2.83500,-4.51500,0.00000,0.01354,0.96673,-0.21850,2023,6,9,18,7,36,301
3.57480,3.06250,-4.65500,0.00000,0.01452,0.96807,-0.22082,2023,6,9,18,7,36,312
3.57490,2.88750,-4.56750,0.00000,0.01366,0.96758,-0.22094,2023,6,9,18,7,36,323
3.57500,2.94000,-4.72500,0.00000,0.01464,0.96892,-0.22082,2023,6,9,18,7,36,334
3.57510,2.78250,-4.44500,0.00000,0.01574,0.96953,-0.21923,2023,6,9,18,7,36,345
3.57520,2.69500,-4.84750,0.00000,0.01293,0.96905,-0.22143,2023,6,9,18,7,36,356
3.57530,2.76500,-4.70750,0.00000,0.01269,0.96844,-0.22204,2023,6,9,18,7,36,367
3.57540,2.97500,-4.55000,0.00000,0.01623,0.96966,-0.22253,2023,6,9,18,7,36,378
3.57550,3.04500,-4.76000,0.00000,0.01403,0.96905,-0.22436,2023,6,9,18,7,36,390
3.57560,2.90500,-4.58500,0.00000,0.01318,0.96953,-0.22070,2023,6,9,18,7,36,401
3.57570,2.97500,-4.63750,0.00000,0.01525,0.97027,-0.22192,2023,6,9,18,7,36,412
3.57580,2.83500,-4.51500,0.00000,0.01537,0.96892,-0.22265,2023,6,9,18,7,36,423
3.57590,2.90500,-4.65500,0.00000,0.01415,0.96795,-0.22326,2023,6,9,18,7,36,434
3.57600,2.78250,-4.48000,0.00000,0.01464,0.96807,-0.22204,2023,6,9,18,7,36,445
3.57610,2.90500,-4.23500,0.00000,0.01147,0.96807,-0.22155,2023,6,9,18,7,36,456
3.57620,2.92250,-4.67250,0.00000,0.01269,0.96868,-0.22241,2023,6,9,18,7,36,467
3.57630,2.99250,-4.86500,0.00000,0.01220,0.96819,-0.22302,2023,6,9,18,7,36,478
3.57640,3.01000,-4.48000,0.00000,0.01501,0.96978,-0.22326,2023,6,9,18,7,36,490
3.57650,3.09750,-4.72500,0.00000,0.01293,0.96941,-0.22253,2023,6,9,18,7,36,501
3.57660,2.94000,-4.49750,0.00000,0.01257,0.96892,-0.22265,2023,6,9,18,7,36,512
3.57670,2.80000,-4.65500,0.00000,0.01232,0.96709,-0.22070,2023,6,9,18,7,36,523
3.57680,3.02750,-4.56750,0.00000,0.01293,0.96856,-0.22094,2023,6,9,18,7,36,534
3.57690,3.15000,-4.65500,0.00000,0.01501,0.96905,-0.22155,2023,6,9,18,7,36,545
3.57700,3.16750,-4.51500,0.00000,0.01452,0.96917,-0.22436,2023,6,9,18,7,36,556
3.57710,2.95750,-4.63750,0.00000,0.01366,0.96941,-0.22155,2023,6,9,18,7,36,567
3.57720,2.85250,-4.56750,0.00000,0.01000,0.96929,-0.22009,2023,6,9,18,7,36,578
3.57730,2.99250,-4.69000,0.00000,0.01342,0.97014,-0.22265,2023,6,9,18,7,36,590
3.57740,3.01000,-4.63750,0.00000,0.01379,0.96807,-0.22241,2023,6,9,18,7,36,601
3.57750,3.04500,-4.60250,0.00000,0.01452,0.96844,-0.22314,2023,6,9,18,7,36,612
3.57760,3.11500,-4.67250,0.00000,0.01305,0.96880,-0.22155,2023,6,9,18,7,36,623
3.57770,2.97500,-4.62000,0.00000,0.01379,0.96722,-0.22131,2023,6,9,18,7,36,634
3.57780,3.09750,-4.76000,0.00000,0.01354,0.97063,-0.22302,2023,6,9,18,7,36,645
3.57790,2.83500,-4.70750,0.00000,0.01464,0.97014,-0.22363,2023,6,9,18,7,36,656
3.57800,2.81750,-4.55000,0.00000,0.01269,0.96880,-0.22424,2023,6,9,18,7,36,667
3.57810,3.16750,-4.76000,0.00000,0.01110,0.97173,-0.22289,2023,6,9,18,7,36,678
3.57820,3.02750,-4.72500,0.00000,0.01257,0.96819,-0.22326,2023,6,9,18,7,36,690
3.57830,3.09750,-4.79500,0.00000,0.01354,0.96770,-0.22180,2023,6,9,18,7,36,701
3.57840,2.87000,-4.67250,0.00000,0.01379,0.97014,-0.22228,2023,6,9,18,7,36,712
3.57850,2.87000,-4.51500,0.00000,0.01257,0.96868,-0.22106,2023,6,9,18,7,36,723
3.57860,3.01000,-4.49750,0.00000,0.01391,0.96807,-0.22155,2023,6,9,18,7,36,734
3.57870,3.22000,-4.42750,0.00000,0.01183,0.97039,-0.22033,2023,6,9,18,7,36,745
3.57880,3.11500,-4.63750,0.00000,0.01415,0.96746,-0.22119,2023,6,9,18,7,36,756
3.57890,3.06250,-4.72500,0.00000,0.01476,0.97014,-0.22119,2023,6,9,18,7,36,767
3.57900,2.92250,-4.62000,0.00000,0.01257,0.97112,-0.21862,2023,6,9,18,7,36,778
3.57910,2.95750,-4.62000,0.00000,0.01269,0.96722,-0.22058,2023,6,9,18,7,36,790
3.57920,3.23750,-4.65500,0.00000,0.01574,0.96966,-0.22167,2023,6,9,18,7,36,801
3.57930,2.95750,-4.35750,0.00000,0.01232,0.96673,-0.22204,2023,6,9,18,7,36,812
3.57940,2.95750,-4.51500,0.00000,0.01501,0.96880,-0.22241,2023,6,9,18,7,36,823
3.57950,2.64250,-4.63750,0.00000,0.01232,0.96722,-0.22045,2023,6,9,18,7,36,834
3.57960,2.67750,-4.56750,0.00000,0.01513,0.96966,-0.21984,2023,6,9,18,7,36,845
3.57970,3.15000,-4.69000,0.00000,0.01440,0.96746,-0.22045,2023,6,9,18,7,36,856
3.57980,3.18500,-4.53250,0.00000,0.01330,0.97039,-0.22302,2023,6,9,18,7,36,867
3.57990,3.36000,-4.67250,0.00000,0.01391,0.96941,-0.22424,2023,6,9,18,7,36,878
3.58000,2.92250,-4.72500,0.00000,0.01318,0.97027,-0.22143,2023,6,9,18,7,36,890
3.58010,2.62500,-4.37500,0.00000,0.01464,0.96978,-0.22119,2023,6,9,18,7,36,901
3.58020,2.92250,-4.62000,0.00000,0.01415,0.97136,-0.22094,2023,6,9,18,7,36,912
3.58030,3.39500,-4.72500,0.00000,0.01623,0.97002,-0.22106,2023,6,9,18,7,36,923
3.58040,3.16750,-4.53250,0.00000,0.01293,0.97002,-0.22143,2023,6,9,18,7,36,934
3.58050,3.08000,-4.65500,0.00000,0.01354,0.96453,-0.22216,2023,6,9,18,7,36,945
3.58060,2.64250,-4.41000,0.00000,0.01232,0.96758,-0.22338,2023,6,9,18,7,36,956
3.58070,2.87000,-4.49750,0.00000,0.01635,0.97149,-0.22167,2023,6,9,18,7,36,967
3.58080,3.01000,-4.70750,0.00000,0.01391,0.96758,-0.22241,2023,6,9,18,7,36,978
3.58090,3.16750,-4.67250,0.00000,0.01403,0.96917,-0.22265,2023,6,9,18,7,36,990
3.58100,3.04500,-4.65500,0.00000,0.01427,0.96868,-0.22411,2023,6,9,18,7,36,1
3.58110,2.88750,-4.55000,0.00000,0.01391,0.96917,-0.22497,2023,6,9,18,7,36,12
3.58120,2.87000,-4.60250,0.00000,0.01391,0.97100,-0.22119,2023,6,9,18,7,36,23
3.58130,2.87000,-4.62000,0.00000,0.01391,0.96868,-0.22277,2023,6,9,18,7,36,34
3.58140,3.04500,-4.84750,0.00000,0.01452,0.96758,-0.22399,2023,6,9,18,7,37,5
3.58150,3.02750,-4.60250,0.00000,0.01452,0.97039,-0.22350,2023,6,9,18,7,37,16
3.58160,2.94000,-4.56750,0.00000,0.01525,0.96844,-0.22228,2023,6,9,18,7,37,27
3.58170,3.22000,-4.76000,0.00000,0.01366,0.96697,-0.22131,2023,6,9,18,7,37,38
3.58180,2.97500,-4.56750,0.00000,0.01440,0.96844,-0.22082,2023,6,9,18,7,37,50
3.58190,3.16750,-4.55000,0.00000,0.01147,0.96856,-0.22326,2023,6,9,18,7,37,61
3.58200,3.16750,-4.72500,0.00000,0.01269,0.96917,-0.22253,2023,6,9,18,7,37,72
3.58210,2.85250,-4.58500,0.00000,0.01415,0.96941,-0.22302,2023,6,9,18,7,37,83
3.58220,2.92250,-4.60250,0.00000,0.01464,0.96868,-0.22167,2023,6,9,18,7,37,94
3.58230,3.02750,-4.74250,0.00000,0.01366,0.96929,-0.22106,2023,6,9,18,7,37,105
3.58240,3.06250,-4.91750,0.00000,0.01452,0.96746,-0.22167,2023,6,9,18,7,37,116
3.58250,3.04500,-4.58500,0.00000,0.01135,0.96978,-0.22411,2023,6,9,18,7,37,127
3.58260,3.09750,-4.69000,0.00000,0.01379,0.96868,-0.22509,2023,6,9,18,7,37,138
3.58270,3.09750,-4.77750,0.00000,0.01281,0.97063,-0.22387,2023,6,9,18,7,37,150
3.58280,2.88750,-4.60250,0.00000,0.01257,0.96966,-0.22289,2023,6,9,18,7,37,161
3.58290,2.81750,-4.42750,0.00000,0.01537,0.96880,-0.22106,2023,6,9,18,7,37,172
3.58300,3.22000,-4.60250,0.00000,0.01354,0.96697,-0.22253,2023,6,9,18,7,37,183
3.58310,3.15000,-4.63750,0.00000,0.01196,0.96685,-0.22167,2023,6,9,18,7,37,194
3.58320,2.94000,-4.65500,0.00000,0.01354,0.96795,-0.22155,2023,6,9,18,7,37,205
3.58330,2.99250,-4.76000,0.00000,0.01549,0.97014,-0.22082,2023,6,9,18,7,37,216
3.58340,2.71250,-4.46250,0.00000,0.01305,0.96880,-0.22314,2023,6,9,18,7,37,227
3.58350,3.06250,-4.63750,0.00000,0.01159,0.96868,-0.22021,2023,6,9,18,7,37,238
3.58360,3.25500,-4.86500,0.00000,0.01379,0.96990,-0.22033,2023,6,9,18,7,37,250
3.58370,3.32500,-4.65500,0.00000,0.01488,0.96917,-0.22289,2023,6,9,18,7,37,261
3.58380,2.80000,-4.60250,0.00000,0.01464,0.96929,-0.22363,2023,6,9,18,7,37,272
3.58390,2.64250,-4.69000,0.00000,0.01440,0.96905,-0.22131,2023,6,9,18,7,37,283
3.58400,2.92250,-4.74250,0.00000,0.01647,0.96673,-0.22155,2023,6,9,18,7,37,294
3.58410,3.22000,-4.30500,0.00000,0.01330,0.97027,-0.22326,2023,6,9,18,7,37,305
3.58420,3.39500,-4.67250,0.00000,0.01244,0.96734,-0.22131,2023,6,9,18,7,37,316
3.58430,3.06250,-4.49750,0.00000,0.01488,0.96978,-0.22485,2023,6,9,18,7,37,327
3.58440,2.64250,-4.55000,0.00000,0.01403,0.96880,-0.22289,2023,6,9,18,7,37,338
3.58450,2.52000,-4.76000,0.00000,0.01574,0.96697,-0.22070,2023,6,9,18,7,37,350
3.58460,2.81750,-4.42750,0.00000,0.01366,0.96844,-0.22277,2023,6,9,18,7,37,361
3.58470,3.43000,-4.58500,0.00000,0.01220,0.96856,-0.22082,2023,6,9,18,7,37,372
3.58480,3.60500,-4.62000,0.00000,0.01342,0.96905,-0.21972,2023,6,9,18,7,37,383
3.58490,2.99250,-4.65500,0.00000,0.01257,0.96929,-0.22241,2023,6,9,18,7,37,394
3.58500,2.64250,-4.56750,0.00000,0.01586,0.96892,-0.22253,2023,6,9,18,7,37,405
3.60530,2.87000,-4.62000,0.00000,0.01440,0.97112,-0.21655,2023,6,9,18,7,37,416
3.60540,3.13250,-4.84750,0.00000,0.01525,0.97027,-0.21557,2023,6,9,18,7,37,427
3.60550,3.23750,-4.67250,0.00000,0.01488,0.96978,-0.21460,2023,6,9,18,7,37,438
3.60560,3.09750,-4.70750,0.00000,0.01366,0.96917,-0.21679,2023,6,9,18,7,37,450
3.60570,3.04500,-4.56750,0.00000,0.01257,0.96953,-0.21582,2023,6,9,18,7,37,461
3.60580,2.80000,-4.77750,0.00000,0.01305,0.96941,-0.21716,2023,6,9,18,7,37,472
3.60590,2.94000,-4.63750,0.00000,0.01305,0.96770,-0.21655,2023,6,9,18,7,37,483
3.60600,2.92250,-4.41000,0.00000,0.01501,0.96990,-0.21472,2023,6,9,18,7,37,494
3.60610,2.97500,-4.70750,0.00000,0.01318,0.96892,-0.21716,2023,6,9,18,7,37,505
3.60620,3.18500,-4.90000,0.00000,0.01549,0.96831,-0.21728,2023,6,9,18,7,37,516
3.60630,2.85250,-4.56750,0.00000,0.01269,0.96941,-0.21509,2023,6,9,18,7,37,527
3.60640,2.92250,-4.79500,0.00000,0.01293,0.97051,-0.21631,2023,6,9,18,7,37,538
3.60650,2.92250,-4.42750,0.00000,0.01342,0.96831,-0.21557,2023,6,9,18,7,37,550
3.60660,3.16750,-4.41000,0.00000,0.01403,0.97051,-0.21814,2023,6,9,18,7,37,561
3.60670,3.04500,-4.35750,0.00000,0.01440,0.96905,-0.21448,2023,6,9,18,7,37,572
3.60680,2.94000,-4.49750,0.00000,0.01379,0.96831,-0.21655,2023,6,9,18,7,37,583
3.60690,2.74750,-4.67250,0.00000,0.01476,0.97149,-0.21679,2023,6,9,18,7,37,594
3.60700,2.80000,-4.41000,0.00000,0.01464,0.96819,-0.21448,2023,6,9,18,7,37,605
3.60710,3.04500,-4.60250,0.00000,0.01586,0.97197,-0.21679,2023,6,9,18,7,37,616
3.60720,3.29000,-4.72500,0.00000,0.01476,0.96978,-0.21692,2023,6,9,18,7,37,627
3.60730,3.04500,-4.72500,0.00000,0.01586,0.96905,-0.21655,2023,6,9,18,7,37,638
3.60740,2.87000,-4.62000,0.00000,0.01244,0.96929,-0.21753,2023,6,9,18,7,37,650
3.60750,2.64250,-4.60250,0.00000,0.01366,0.97100,-0.21557,2023,6,9,18,7,37,661
3.60760,3.01000,-4.49750,0.00000,0.01464,0.97027,-0.21448,2023,6,9,18,7,37,672
3.60770,2.97500,-4.69000,0.00000,0.01293,0.96966,-0.21753,2023,6,9,18,7,37,683
3.60780,3.04500,-4.49750,0.00000,0.01671,0.97027,-0.21618,2023,6,9,18,7,37,694
3.60790,3.06250,-4.44500,0.00000,0.01488,0.96551,-0.21643,2023,6,9,18,7,37,705
3.60800,3.15000,-4.83000,0.00000,0.01586,0.96831,-0.21484,2023,6,9,18,7,37,716
3.60810,2.80000,-4.70750,0.00000,0.01281,0.97088,-0.21557,2023,6,9,18,7,37,727
3.60820,2.90500,-4.67250,0.00000,0.01269,0.96953,-0.21667,2023,6,9,18,7,37,738
3.60830,3.01000,-4.39250,0.00000,0.01549,0.96917,-0.21667,2023,6,9,18,7,37,750
3.60840,2.88750,-4.70750,0.00000,0.01574,0.96966,-0.21557,2023,6,9,18,7,37,761
3.60850,3.08000,-4.76000,0.00000,0.01403,0.96868,-0.21692,2023,6,9,18,7,37,772
3.60860,2.88750,-4.69000,0.00000,0.01220,0.96892,-0.21777,2023,6,9,18,7,37,783
3.60870,2.90500,-4.67250,0.00000,0.01196,0.96783,-0.21789,2023,6,9,18,7,37,794
3.60880,3.15000,-4.51500,0.00000,0.01488,0.96941,-0.21326,2023,6,9,18,7,37,805
3.60890,3.04500,-4.48000,0.00000,0.01342,0.96856,-0.21801,2023,6,9,18,7,37,816
3.60900,2.94000,-4.58500,0.00000,0.01208,0.96831,-0.21911,2023,6,9,18,7,37,827
3.60910,2.85250,-4.79500,0.00000,0.01415,0.96783,-0.21509,2023,6,9,18,7,37,838
3.60920,3.04500,-4.70750,0.00000,0.01635,0.96929,-0.21728,2023,6,9,18,7,37,850
3.60930,2.97500,-4.58500,0.00000,0.01220,0.96856,-0.21789,2023,6,9,18,7,37,861
3.60940,2.92250,-4.56750,0.00000,0.01379,0.96990,-0.21923,2023,6,9,18,7,37,872
3.60950,3.16750,-4.74250,0.00000,0.01488,0.96917,-0.21801,2023,6,9,18,7,37,883
3.60960,3.01000,-4.63750,0.00000,0.01330,0.96807,-0.21997,2023,6,9,18,7,37,894
3.60970,2.80000,-4.77750,0.00000,0.01318,0.96795,-0.21667,2023,6,9,18,7,37,905
3.60980,2.99250,-4.74250,0.00000,0.01391,0.96953,-0.21838,2023,6,9,18,7,37,916
3.60990,3.01000,-4.51500,0.00000,0.01501,0.96892,-0.21887,2023,6,9,18,7,37,927
3.61000,3.02750,-4.67250,0.00000,0.01513,0.96917,-0.21631,2023,6,9,18,7,37,938
3.61010,2.94000,-4.60250,0.00000,0.01415,0.96905,-0.21679,2023,6,9,18,7,37,950
3.61020,2.85250,-4.60250,0.00000,0.01488,0.97100,-0.21472,2023,6,9,18,7,37,961
3.61030,2.71250,-4.37500,0.00000,0.01366,0.96953,-0.21765,2023,6,9,18,7,37,972
3.61040,2.90500,-4.49750,0.00000,0.01403,0.96892,-0.21338,2023,6,9,18,7,37,983
3.61050,3.02750,-4.49750,0.00000,0.01501,0.96917,-0.21423,2023,6,9,18,7,37,994
3.61060,3.13250,-4.65500,0.00000,0.01513,0.96917,-0.21643,2023,6,9,18,7,37,5
3.61070,2.87000,-4.58500,0.00000,0.01525,0.96929,-0.21606,2023,6,9,18,7,37,16
3.61080,2.94000,-4.65500,0.00000,0.01501,0.96831,-0.21655,2023,6,9,18,7,37,27
3.61090,2.83500,-4.86500,0.00000,0.01610,0.97014,-0.21679,2023,6,9,18,7,37,38
3.61100,2.88750,-4.56750,0.00000,0.01391,0.97063,-0.21533,2023,6,9,18,7,37,50
3.61110,3.15000,-4.79500,0.00000,0.01269,0.96966,-0.21753,2023,6,9,18,7,37,61
3.61120,3.37750,-4.81250,0.00000,0.01330,0.96880,-0.21740,2023,6,9,18,7,37,72
3.61130,2.99250,-4.70750,0.00000,0.01403,0.96563,-0.21814,2023,6,9,18,7,37,83
3.61140,2.99250,-4.58500,0.00000,0.01391,0.97051,-0.21618,2023,6,9,18,7,37,94
3.61150,2.62500,-4.48000,0.00000,0.01342,0.96978,-0.21740,2023,6,9,18,7,37,105
3.61160,3.08000,-4.56750,0.00000,0.01562,0.96880,-0.21875,2023,6,9,18,7,37,116
3.61170,3.11500,-4.51500,0.00000,0.01415,0.97051,-0.21618,2023,6,9,18,7,37,127
3.61180,3.22000,-4.72500,0.00000,0.01305,0.96953,-0.21704,2023,6,9,18,7,37,138
3.61190,2.95750,-4.74250,0.00000,0.01464,0.96941,-0.21850,2023,6,9,18,7,37,150
3.61200,2.83500,-4.72500,0.00000,0.01525,0.96746,-0.21838,2023,6,9,18,7,37,161
3.61210,2.97500,-4.65500,0.00000,0.01501,0.97149,-0.21789,2023,6,9,18,7,37,172
3.61220,3.06250,-4.53250,0.00000,0.01244,0.96917,-0.21814,2023,6,9,18,7,37,183
3.61230,3.30750,-4.74250,0.00000,0.01403,0.97124,-0.21704,2023,6,9,18,7,37,194
3.61240,3.27250,-4.44500,0.00000,0.01293,0.97100,-0.21887,2023,6,9,18,7,37,205
3.61250,2.83500,-4.69000,0.00000,0.01574,0.96844,-0.21765,2023,6,9,18,7,37,216
3.61260,2.94000,-4.60250,0.00000,0.01574,0.96758,-0.21692,2023,6,9,18,7,37,227
3.61270,2.92250,-4.65500,0.00000,0.01391,0.97051,-0.21814,2023,6,9,18,7,37,238
3.61280,3.02750,-4.58500,0.00000,0.01244,0.97197,-0.21740,2023,6,9,18,7,37,250
3.61290,3.02750,-4.63750,0.00000,0.01464,0.96856,-0.21850,2023,6,9,18,7,37,261
3.61300,2.87000,-4.48000,0.00000,0.01354,0.96685,-0.21679,2023,6,9,18,7,37,272
3.61310,3.20250,-4.67250,0.00000,0.01366,0.96990,-0.21826,2023,6,9,18,7,37,283
3.61320,2.95750,-4.53250,0.00000,0.01208,0.96746,-0.21887,2023,6,9,18,7,37,294
3.61330,3.08000,-4.55000,0.00000,0.01525,0.96685,-0.21923,2023,6,9,18,7,37,305
3.61340,2.99250,-4.56750,0.00000,0.01525,0.97014,-0.22106,2023,6,9,18,7,37,316
3.61350,2.88750,-4.46250,0.00000,0.01427,0.96868,-0.21862,2023,6,9,18,7,37,327
3.61360,2.94000,-4.62000,0.00000,0.01488,0.97185,-0.21557,2023,6,9,18,7,37,338
3.61370,3.04500,-4.65500,0.00000,0.01293,0.96783,-0.21862,2023,6,9,18,7,37,350
3.61380,3.08000,-4.37500,0.00000,0.01330,0.97149,-0.21838,2023,6,9,18,7,37,361
3.61390,3.02750,-4.44500,0.00000,0.01293,0.96868,-0.21960,2023,6,9,18,7,37,372
3.61400,2.94000,-4.46250,0.00000,0.01635,0.96905,-0.21850,2023,6,9,18,7,37,383
3.61410,2.85250,-4.69000,0.00000,0.01562,0.96856,-0.21875,2023,6,9,18,7,37,394
3.61420,2.78250,-4.53250,0.00000,0.01269,0.96734,-0.21667,2023,6,9,18,7,37,405
3.61430,2.97500,-4.49750,0.00000,0.01440,0.97002,-0.21801,2023,6,9,18,7,37,416
3.61440,2.94000,-4.60250,0.00000,0.01562,0.96770,-0.21606,2023,6,9,18,7,37,427
3.61450,2.76500,-4.72500,0.00000,0.01403,0.96990,-0.21814,2023,6,9,18,7,37,438
3.61460,2.88750,-4.60250,0.00000,0.01537,0.96929,-0.21753,2023,6,9,18,7,37,450
3.61470,2.83500,-4.69000,0.00000,0.01610,0.96905,-0.21911,2023,6,9,18,7,37,461
3.61480,2.99250,-4.72500,0.00000,0.01476,0.97136,-0.21765,2023,6,9,18,7,37,472
3.61490,3.27250,-4.70750,0.00000,0.01464,0.96941,-0.21594,2023,6,9,18,7,37,483
3.61500,3.13250,-4.51500,0.00000,0.01269,0.96819,-0.21801,2023,6,9,18,7,37,494
3.61510,2.85250,-4.70750,0.00000,0.01366,0.96966,-0.21777,2023,6,9,18,7,37,505
3.61520,2.85250,-4.56750,0.00000,0.01366,0.96905,-0.21728,2023,6,9,18,7,37,516
3.61530,2.88750,-4.37500,0.00000,0.01659,0.96880,-0.21643,2023,6,9,18,7,37,527
3.61540,2.99250,-4.65500,0.00000,0.01366,0.97075,-0.21545,2023,6,9,18,7,37,538
3.61550,3.06250,-4.51500,0.00000,0.01379,0.96966,-0.21801,2023,6,9,18,7,37,550
3.61560,2.95750,-4.77750,0.00000,0.01403,0.96661,-0.21655,2023,6,9,18,7,37,561
3.61570,3.02750,-4.72500,0.00000,0.01501,0.97088,-0.21643,2023,6,9,18,7,37,572
3.61580,2.78250,-4.49750,0.00000,0.01501,0.96990,-0.21618,2023,6,9,18,7,37,583
3.61590,2.81750,-4.55000,0.00000,0.01391,0.96770,-0.21643,2023,6,9,18,7,37,594
3.61600,2.95750,-4.56750,0.00000,0.01342,0.96966,-0.21655,2023,6,9,18,7,37,605
3.61610,3.13250,-4.67250,0.00000,0.01427,0.96941,-0.21716,2023,6,9,18,7,37,616
3.61620,3.11500,-4.67250,0.00000,0.01562,0.96844,-0.21777,2023,6,9,18,7,37,627
3.61630,3.13250,-4.60250,0.00000,0.01403,0.96722,-0.21582,2023,6,9,18,7,37,638
3.61640,2.90500,-4.67250,0.00000,0.01574,0.96868,-0.21789,2023,6,9,18,7,37,650
3.61650,2.76500,-4.70750,0.00000,0.01281,0.97051,-0.21618,2023,6,9,18,7,37,661
3.61660,2.88750,-4.55000,0.00000,0.01464,0.96856,-0.21582,2023,6,9,18,7,37,672
3.61670,3.15000,-4.62000,0.00000,0.01598,0.96892,-0.21679,2023,6,9,18,7,37,683
3.61680,3.13250,-4.48000,0.00000,0.01452,0.96892,-0.21704,2023,6,9,18,7,37,694
3.61690,3.18500,-4.67250,0.00000,0.01305,0.97136,-0.21765,2023,6,9,18,7,37,705
3.61700,2.97500,-4.49750,0.00000,0.01720,0.96624,-0.21814,2023,6,9,18,7,37,716
3.61710,2.71250,-4.58500,0.00000,0.01440,0.96709,-0.21801,2023,6,9,18,7,37,727
3.61720,2.59000,-4.53250,0.00000,0.01501,0.97051,-0.21765,2023,6,9,18,7,37,738
3.61730,2.95750,-4.76000,0.00000,0.01220,0.96966,-0.21655,2023,6,9,18,7,37,750
3.61740,3.13250,-4.76000,0.00000,0.01476,0.97002,-0.21679,2023,6,9,18,7,37,761
3.61750,3.02750,-4.46250,0.00000,0.01342,0.96905,-0.21765,2023,6,9,18,7,37,772
3.61760,3.01000,-4.42750,0.00000,0.01269,0.96770,-0.21789,2023,6,9,18,7,37,783
3.61770,2.71250,-4.62000,0.00000,0.01391,0.96953,-0.21606,2023,6,9,18,7,37,794
3.61780,2.87000,-4.62000,0.00000,0.01415,0.96892,-0.21570,2023,6,9,18,7,37,805
3.61790,3.08000,-4.46250,0.00000,0.01427,0.96953,-0.21582,2023,6,9,18,7,37,816
3.61800,3.27250,-4.62000,0.00000,0.01623,0.96722,-0.21814,2023,6,9,18,7,37,827
3.61810,3.11500,-4.86500,0.00000,0.01452,0.96966,-0.21765,2023,6,9,18,7,38,8
3.61820,2.67750,-4.55000,0.00000,0.01501,0.97051,-0.21618,2023,6,9,18,7,38,20
3.61830,2.73000,-4.60250,0.00000,0.01403,0.97075,-0.21484,2023,6,9,18,7,38,31
3.61840,2.99250,-4.53250,0.00000,0.01562,0.97027,-0.21667,2023,6,9,18,7,38,42
3.61850,3.23750,-4.65500,0.00000,0.01354,0.96953,-0.21826,2023,6,9,18,7,38,53
3.61860,3.36000,-4.55000,0.00000,0.01415,0.96978,-0.21692,2023,6,9,18,7,38,64
3.61870,2.94000,-4.67250,0.00000,0.01525,0.96856,-0.21777,2023,6,9,18,7,38,75
3.61880,2.76500,-4.69000,0.00000,0.01366,0.96844,-0.21570,2023,6,9,18,7,38,86
3.61890,2.73000,-4.77750,0.00000,0.01379,0.96966,-0.21594,2023,6,9,18,7,38,97
3.61900,2.94000,-4.65500,0.00000,0.01354,0.96819,-0.21570,2023,6,9,18,7,38,108
3.61910,3.27250,-4.56750,0.00000,0.01440,0.96856,-0.21777,2023,6,9,18,7,38,120
3.61920,3.18500,-4.39250,0.00000,0.01403,0.96966,-0.21692,2023,6,9,18,7,38,131
3.61930,3.02750,-4.49750,0.00000,0.01342,0.96697,-0.21594,2023,6,9,18,7,38,142
3.61940,2.90500,-4.70750,0.00000,0.01366,0.96953,-0.21814,2023,6,9,18,7,38,153
3.61950,2.76500,-4.74250,0.00000,0.01293,0.96892,-0.21740,2023,6,9,18,7,38,164
3.61960,2.95750,-4.79500,0.00000,0.01513,0.97185,-0.21716,2023,6,9,18,7,38,175
3.61970,2.95750,-4.37500,0.00000,0.01440,0.97027,-0.21655,2023,6,9,18,7,38,186
3.61980,3.11500,-4.84750,0.00000,0.01342,0.96819,-0.21740,2023,6,9,18,7,38,197
3.61990,2.88750,-4.60250,0.00000,0.01415,0.96783,-0.21631,2023,6,9,18,7,38,208
3.62000,2.99250,-4.84750,0.00000,0.01183,0.96978,-0.21594,2023,6,9,18,7,38,220
3.62010,2.83500,-4.51500,0.00000,0.01318,0.97027,-0.21704,2023,6,9,18,7,38,231
3.62020,2.97500,-4.53250,0.00000,0.01220,0.97051,-0.21594,2023,6,9,18,7,38,242
3.62030,3.23750,-4.55000,0.00000,0.01452,0.96929,-0.21923,2023,6,9,18,7,38,253
3.62040,3.01000,-4.72500,0.00000,0.01537,0.96758,-0.21826,2023,6,9,18,7,38,264
3.62050,2.90500,-4.74250,0.00000,0.01318,0.96783,-0.21850,2023,6,9,18,7,38,275
3.62060,2.81750,-4.53250,0.00000,0.01586,0.96905,-0.21789,2023,6,9,18,7,38,286
3.62070,2.78250,-4.65500,0.00000,0.01257,0.96770,-0.21862,2023,6,9,18,7,38,297
3.62080,3.15000,-4.62000,0.00000,0.01427,0.96770,-0.21838,2023,6,9,18,7,38,308
3.62090,3.08000,-4.72500,0.00000,0.01391,0.97088,-0.21716,2023,6,9,18,7,38,320
3.62100,3.04500,-4.41000,0.00000,0.01086,0.96758,-0.21875,2023,6,9,18,7,38,331
3.62110,2.85250,-4.60250,0.00000,0.01513,0.96978,-0.21753,2023,6,9,18,7,38,342
3.62120,2.87000,-4.81250,0.00000,0.01366,0.96941,-0.21923,2023,6,9,18,7,38,353
3.62130,2.97500,-4.44500,0.00000,0.01488,0.96917,-0.21679,2023,6,9,18,7,38,364
3.62140,2.99250,-4.37500,0.00000,0.01379,0.97210,-0.21667,2023,6,9,18,7,38,375
3.62150,3.18500,-4.74250,0.00000,0.01330,0.96892,-0.21936,2023,6,9,18,7,38,386
3.62160,3.27250,-4.67250,0.00000,0.01464,0.97124,-0.21631,2023,6,9,18,7,38,397
3.62170,2.83500,-4.48000,0.00000,0.01464,0.97075,-0.22045,2023,6,9,18,7,38,408
3.62180,2.71250,-4.51500,0.00000,0.01549,0.97014,-0.21899,2023,6,9,18,7,38,420
3.62190,2.73000,-4.81250,0.00000,0.01293,0.96929,-0.21667,2023,6,9,18,7,38,431
3.62200,3.09750,-4.56750,0.00000,0.01379,0.96807,-0.21643,2023,6,9,18,7,38,442
3.62210,3.20250,-4.70750,0.00000,0.01452,0.96685,-0.21777,2023,6,9,18,7,38,453
3.62220,3.06250,-4.55000,0.00000,0.01415,0.96722,-0.21960,2023,6,9,18,7,38,464
3.62230,3.01000,-4.69000,0.00000,0.01427,0.96819,-0.21814,2023,6,9,18,7,38,475
3.62240,2.73000,-4.67250,0.00000,0.01257,0.96868,-0.21679,2023,6,9,18,7,38,486
3.62250,3.08000,-4.58500,0.00000,0.01732,0.96612,-0.21655,2023,6,9,18,7,38,497
3.62260,3.36000,-4.69000,0.00000,0.01464,0.97051,-0.21533,2023,6,9,18,7,38,508
3.62270,2.99250,-4.44500,0.00000,0.01244,0.96905,-0.21643,2023,6,9,18,7,38,520
3.62280,2.90500,-4.58500,0.00000,0.01464,0.96953,-0.21655,2023,6,9,18,7,38,531
3.62290,2.78250,-4.60250,0.00000,0.01757,0.96795,-0.21667,2023,6,9,18,7,38,542
3.62300,2.83500,-4.60250,0.00000,0.01537,0.97039,-0.21801,2023,6,9,18,7,38,553
3.62310,3.01000,-4.70750,0.00000,0.01427,0.96868,-0.21728,2023,6,9,18,7,38,564
3.62320,3.02750,-4.62000,0.00000,0.01623,0.97088,-0.21801,2023,6,9,18,7,38,575
3.62330,3.01000,-4.58500,0.00000,0.01415,0.96783,-0.21936,2023,6,9,18,7,38,586
3.62340,2.99250,-4.77750,0.00000,0.01366,0.96807,-0.21777,2023,6,9,18,7,38,597
3.62350,2.81750,-4.48000,0.00000,0.01391,0.97002,-0.21716,2023,6,9,18,7,38,608
3.62360,2.88750,-4.63750,0.00000,0.01598,0.96929,-0.21533,2023,6,9,18,7,38,620
3.62370,3.01000,-4.58500,0.00000,0.01501,0.97185,-0.21667,2023,6,9,18,7,38,631
3.62380,3.06250,-4.48000,0.00000,0.01513,0.96868,-0.21643,2023,6,9,18,7,38,642
3.62390,2.83500,-4.42750,0.00000,0.01330,0.96966,-0.21618,2023,6,9,18,7,38,653
3.62400,3.04500,-4.74250,0.00000,0.01452,0.96917,-0.21606,2023,6,9,18,7,38,664
3.62410,3.13250,-4.79500,0.00000,0.01232,0.97063,-0.21740,2023,6,9,18,7,38,675
3.62420,2.97500,-4.69000,0.00000,0.01330,0.96953,-0.21618,2023,6,9,18,7,38,686
3.62430,2.88750,-4.58500,0.00000,0.01464,0.96941,-0.21606,2023,6,9,18,7,38,697
3.62440,2.85250,-4.53250,0.00000,0.01366,0.96807,-0.21631,2023,6,9,18,7,38,708
3.62450,2.76500,-4.58500,0.00000,0.01415,0.96770,-0.21789,2023,6,9,18,7,38,720
3.62460,3.02750,-4.69000,0.00000,0.01427,0.97161,-0.21679,2023,6,9,18,7,38,731
3.62470,3.11500,-4.86500,0.00000,0.01440,0.96929,-0.21801,2023,6,9,18,7,38,742
3.62480,3.13250,-4.58500,0.00000,0.01244,0.97136,-0.21753,2023,6,9,18,7,38,753
3.62490,2.78250,-4.62000,0.00000,0.01366,0.97039,-0.21728,2023,6,9,18,7,38,764
3.62500,3.04500,-4.60250,0.00000,0.01598,0.96795,-0.21521,2023,6,9,18,7,38,775
3.62510,2.99250,-4.76000,0.00000,0.01379,0.96966,-0.21692,2023,6,9,18,7,38,786
3.62520,2.83500,-4.55000,0.00000,0.01305,0.96636,-0.21655,2023,6,9,18,7,38,797
3.62530,2.90500,-4.76000,0.00000,0.01427,0.96770,-0.21753,2023,6,9,18,7,38,808
3.62540,3.06250,-4.63750,0.00000,0.01415,0.97027,-0.21765,2023,6,9,18,7,38,820
3.62550,3.16750,-4.70750,0.00000,0.01513,0.96807,-0.21850,2023,6,9,18,7,38,831
3.62560,2.87000,-4.44500,0.00000,0.01598,0.96905,-0.21716,2023,6,9,18,7,38,842
3.62570,3.04500,-4.79500,0.00000,0.01452,0.96941,-0.21740,2023,6,9,18,7,38,853
3.62580,2.94000,-4.77750,0.00000,0.01330,0.96941,-0.21704,2023,6,9,18,7,38,864
3.62590,2.88750,-4.39250,0.00000,0.01440,0.96685,-0.21753,2023,6,9,18,7,38,875
3.62600,3.01000,-4.62000,0.00000,0.01586,0.96990,-0.21692,2023,6,9,18,7,38,886
3.62610,2.85250,-4.51500,0.00000,0.01452,0.96966,-0.21887,2023,6,9,18,7,38,897
3.62620,3.01000,-4.49750,0.00000,0.01366,0.97002,-0.21826,2023,6,9,18,7,38,908
3.62630,2.87000,-4.69000,0.00000,0.01598,0.96953,-0.21582,2023,6,9,18,7,38,920
3.62640,2.95750,-4.83000,0.00000,0.01623,0.97014,-0.21618,2023,6,9,18,7,38,931
3.62650,3.02750,-4.60250,0.00000,0.01366,0.97075,-0.21753,2023,6,9,18,7,38,942
3.62660,2.92250,-4.25250,0.00000,0.01391,0.96783,-0.21753,2023,6,9,18,7,38,953
3.62670,2.97500,-4.44500,0.00000,0.01513,0.96880,-0.21740,2023,6,9,18,7,38,964
3.62680,2.78250,-4.55000,0.00000,0.01342,0.96819,-0.21789,2023,6,9,18,7,38,975
3.62690,2.90500,-4.60250,0.00000,0.01403,0.97014,-0.21789,2023,6,9,18,7,38,986
3.62700,3.15000,-4.74250,0.00000,0.01293,0.96795,-0.21814,2023,6,9,18,7,39,7
3.62710,3.08000,-4.58500,0.00000,0.01440,0.97136,-0.21862,2023,6,9,18,7,39,18
3.62720,2.99250,-4.62000,0.00000,0.01415,0.96807,-0.21899,2023,6,9,18,7,39,30
3.62730,2.94000,-4.55000,0.00000,0.01403,0.96709,-0.21838,2023,6,9,18,7,39,41
3.62740,3.11500,-4.81250,0.00000,0.01476,0.96905,-0.21728,2023,6,9,18,7,39,52
3.62750,2.94000,-4.70750,0.00000,0.01330,0.96966,-0.21826,2023,6,9,18,7,39,63
3.62760,3.04500,-4.56750,0.00000,0.01488,0.96917,-0.21692,2023,6,9,18,7,39,74
3.62770,2.99250,-4.53250,0.00000,0.01354,0.97002,-0.21533,2023,6,9,18,7,39,85
3.62780,2.76500,-4.67250,0.00000,0.01403,0.96673,-0.21631,2023,6,9,18,7,39,96
3.62790,2.92250,-4.65500,0.00000,0.01537,0.96929,-0.21509,2023,6,9,18,7,39,107
3.62800,2.88750,-4.74250,0.00000,0.01501,0.96831,-0.21643,2023,6,9,18,7,39,118
3.62810,3.08000,-4.76000,0.00000,0.01269,0.96929,-0.21789,2023,6,9,18,7,39,130
3.62820,3.02750,-4.65500,0.00000,0.01501,0.96917,-0.21740,2023,6,9,18,7,39,141
3.62830,2.85250,-4.51500,0.00000,0.01476,0.96978,-0.21643,2023,6,9,18,7,39,152
3.62840,2.81750,-4.72500,0.00000,0.01452,0.96831,-0.21728,2023,6,9,18,7,39,163
3.62850,2.90500,-4.63750,0.00000,0.01257,0.96831,-0.21643,2023,6,9,18,7,39,174
3.62860,3.16750,-4.70750,0.00000,0.01440,0.97149,-0.21606,2023,6,9,18,7,39,185
3.62870,2.95750,-4.60250,0.00000,0.01415,0.96892,-0.21838,2023,6,9,18,7,39,196
3.62880,2.78250,-4.49750,0.00000,0.01281,0.96856,-0.21692,2023,6,9,18,7,39,207
3.62890,2.81750,-4.62000,0.00000,0.01415,0.97014,-0.21533,2023,6,9,18,7,39,218
3.62900,2.80000,-4.69000,0.00000,0.01415,0.96783,-0.21704,2023,6,9,18,7,39,230
3.62910,3.09750,-4.70750,0.00000,0.01501,0.96819,-0.21618,2023,6,9,18,7,39,241
3.62920,3.09750,-4.58500,0.00000,0.01391,0.96905,-0.21679,2023,6,9,18,7,39,252
3.62930,3.11500,-4.69000,0.00000,0.01525,0.96929,-0.21704,2023,6,9,18,7,39,263
3.62940,2.83500,-4.67250,0.00000,0.01391,0.96831,-0.21716,2023,6,9,18,7,39,274
3.62950,2.97500,-4.41000,0.00000,0.01403,0.96844,-0.21789,2023,6,9,18,7,39,285
3.62960,2.80000,-4.55000,0.00000,0.01488,0.96929,-0.21667,2023,6,9,18,7,39,296
3.62970,3.08000,-4.63750,0.00000,0.01305,0.97063,-0.21521,2023,6,9,18,7,39,307
3.62980,3.11500,-4.67250,0.00000,0.01440,0.97063,-0.21594,2023,6,9,18,7,39,318
3.62990,2.95750,-4.60250,0.00000,0.01403,0.97075,-0.21643,2023,6,9,18,7,39,330
3.63000,2.90500,-4.62000,0.00000,0.01037,0.96978,-0.21557,2023,6,9,18,7,39,341
3.63010,2.83500,-4.83000,0.00000,0.01342,0.97161,-0.21545,2023,6,9,18,7,39,352
3.63020,2.97500,-4.72500,0.00000,0.01293,0.96929,-0.21716,2023,6,9,18,7,39,363
3.63030,2.78250,-4.60250,0.00000,0.01354,0.96868,-0.21533,2023,6,9,18,7,39,374
3.63040,3.02750,-4.77750,0.00000,0.01427,0.96966,-0.21533,2023,6,9,18,7,39,385
3.63050,3.16750,-4.84750,0.00000,0.01415,0.96795,-0.21374,2023,6,9,18,7,39,396
3.63060,3.11500,-4.79500,0.00000,0.01415,0.96953,-0.21716,2023,6,9,18,7,39,407
3.63070,2.97500,-4.53250,0.00000,0.01464,0.96953,-0.21399,2023,6,9,18,7,39,418
3.63080,2.69500,-4.56750,0.00000,0.01525,0.97027,-0.21570,2023,6,9,18,7,39,430
3.63090,2.83500,-4.74250,0.00000,0.01464,0.96685,-0.21667,2023,6,9,18,7,39,441
3.63100,3.16750,-4.46250,0.00000,0.01391,0.97002,-0.21631,2023,6,9,18,7,39,452
3.63110,3.11500,-4.49750,0.00000,0.01293,0.97027,-0.21728,2023,6,9,18,7,39,463
3.63120,3.13250,-4.84750,0.00000,0.01330,0.97161,-0.21692,2023,6,9,18,7,39,474
3.63130,2.95750,-4.65500,0.00000,0.01183,0.96868,-0.21631,2023,6,9,18,7,39,485
3.63140,3.06250,-4.69000,0.00000,0.01562,0.97039,-0.21606,2023,6,9,18,7,39,496
3.63150,2.97500,-4.76000,0.00000,0.01488,0.96783,-0.21728,2023,6,9,18,7,39,507
3.63160,3.06250,-4.53250,0.00000,0.01354,0.96941,-0.21667,2023,6,9,18,7,39,518
3.63170,3.13250,-4.60250,0.00000,0.01366,0.97100,-0.21509,2023,6,9,18,7,39,530
3.63180,2.87000,-4.63750,0.00000,0.01488,0.97112,-0.21899,2023,6,9,18,7,39,541
3.63190,2.78250,-4.49750,0.00000,0.01427,0.96953,-0.21655,2023,6,9,18,7,39,552
3.63200,2.99250,-4.79500,0.00000,0.01623,0.97051,-0.21545,2023,6,9,18,7,39,563
3.63210,3.20250,-4.77750,0.00000,0.01501,0.97002,-0.21753,2023,6,9,18,7,39,574
3.63220,3.16750,-4.51500,0.00000,0.01391,0.97088,-0.21777,2023,6,9,18,7,39,585
3.63230,3.13250,-4.60250,0.00000,0.01391,0.96905,-0.21631,2023,6,9,18,7,39,596
3.63240,2.99250,-4.76000,0.00000,0.01366,0.96868,-0.21765,2023,6,9,18,7,39,607
3.63250,2.88750,-4.72500,0.00000,0.01476,0.96758,-0.21716,2023,6,9,18,7,39,618
3.63260,2.90500,-4.55000,0.00000,0.01415,0.96917,-0.21704,2023,6,9,18,7,39,630
3.63270,3.11500,-4.74250,0.00000,0.01476,0.96831,-0.21838,2023,6,9,18,7,39,641
3.63280,2.99250,-4.65500,0.00000,0.01305,0.96880,-0.21692,2023,6,9,18,7,39,652
3.63290,3.01000,-4.62000,0.00000,0.01379,0.96978,-0.21655,2023,6,9,18,7,39,663
3.63300,2.69500,-4.77750,0.00000,0.01549,0.97002,-0.21679,2023,6,9,18,7,39,674
3.63310,3.22000,-4.74250,0.00000,0.01476,0.96746,-0.21704,2023,6,9,18,7,39,685
3.63320,3.16750,-4.55000,0.00000,0.01476,0.96844,-0.21521,2023,6,9,18,7,39,696
3.63330,3.08000,-4.76000,0.00000,0.01574,0.96746,-0.21875,2023,6,9,18,7,39,707
3.63340,2.97500,-4.63750,0.00000,0.01598,0.96795,-0.21728,2023,6,9,18,7,39,718
3.63350,2.87000,-4.53250,0.00000,0.01293,0.96758,-0.21740,2023,6,9,18,7,39,730
3.63360,2.94000,-4.56750,0.00000,0.01196,0.96941,-0.21594,2023,6,9,18,7,39,741
3.63370,2.88750,-4.53250,0.00000,0.01525,0.96892,-0.21313,2023,6,9,18,7,39,752
3.63380,3.04500,-4.56750,0.00000,0.01208,0.97002,-0.21753,2023,6,9,18,7,39,763
3.63390,3.09750,-4.76000,0.00000,0.01452,0.97136,-0.21643,2023,6,9,18,7,39,774
3.63400,3.01000,-4.55000,0.00000,0.01379,0.96917,-0.21814,2023,6,9,18,7,39,785
3.63410,2.87000,-4.76000,0.00000,0.01342,0.96978,-0.21533,2023,6,9,18,7,39,796
3.63420,2.88750,-4.65500,0.00000,0.01574,0.96819,-0.21801,2023,6,9,18,7,39,807
3.63430,3.06250,-4.58500,0.00000,0.01366,0.96685,-0.21533,2023,6,9,18,7,39,818
3.63440,2.94000,-4.62000,0.00000,0.01427,0.96819,-0.21728,2023,6,9,18,7,39,830
3.63450,3.13250,-4.58500,0.00000,0.01318,0.96746,-0.21875,2023,6,9,18,7,39,841
3.63460,3.01000,-4.69000,0.00000,0.01427,0.96990,-0.21557,2023,6,9,18,7,39,852
3.63470,2.87000,-4.48000,0.00000,0.01403,0.96551,-0.21533,2023,6,9,18,7,39,863
3.63480,3.08000,-4.81250,0.00000,0.01415,0.96575,-0.21545,2023,6,9,18,7,39,874
3.63490,3.09750,-4.84750,0.00000,0.01403,0.96819,-0.21850,2023,6,9,18,7,39,885
3.63500,2.94000,-4.63750,0.00000,0.01647,0.96941,-0.21753,2023,6,9,18,7,39,896
3.63510,3.01000,-4.67250,0.00000,0.01501,0.96953,-0.21923,2023,6,9,18,7,39,907
3.63520,2.90500,-4.77750,0.00000,0.01476,0.96868,-0.21521,2023,6,9,18,7,39,918
3.63530,2.83500,-4.56750,0.00000,0.01379,0.97063,-0.21570,2023,6,9,18,7,39,930
3.63540,3.08000,-4.55000,0.00000,0.01391,0.97124,-0.21753,2023,6,9,18,7,39,941
3.63550,3.06250,-4.58500,0.00000,0.01366,0.97063,-0.21753,2023,6,9,18,7,39,952
3.63560,3.04500,-4.79500,0.00000,0.01159,0.96905,-0.21923,2023,6,9,18,7,39,963
3.63570,2.94000,-4.62000,0.00000,0.01379,0.96978,-0.21765,2023,6,9,18,7,39,974
3.63580,2.78250,-4.56750,0.00000,0.01403,0.96807,-0.21545,2023,6,9,18,7,39,985
3.63590,3.04500,-4.56750,0.00000,0.01440,0.96758,-0.21594,2023,6,9,18,7,39,996
3.63600,3.18500,-4.48000,0.00000,0.01440,0.97063,-0.21545,2023,6,9,18,7,40,7
3.63610,2.99250,-4.60250,0.00000,0.01403,0.96795,-0.21875,2023,6,9,18,7,40,18
3.63620,2.95750,-4.41000,0.00000,0.01415,0.96917,-0.21753,2023,6,9,18,7,40,30
3.63630,3.06250,-4.74250,0.00000,0.01562,0.96783,-0.21667,2023,6,9,18,7,40,41
3.63640,2.92250,-4.93500,0.00000,0.01220,0.96892,-0.21679,2023,6,9,18,7,40,52
3.63650,3.06250,-4.49750,0.00000,0.01330,0.97100,-0.21582,2023,6,9,18,7,40,63
3.63660,3.09750,-4.51500,0.00000,0.01586,0.96929,-0.21765,2023,6,9,18,7,40,74
3.63670,3.01000,-4.63750,0.00000,0.01318,0.96685,-0.21692,2023,6,9,18,7,40,85
3.63680,3.08000,-4.63750,0.00000,0.01720,0.96905,-0.21777,2023,6,9,18,7,40,96
3.63690,2.99250,-4.69000,0.00000,0.01647,0.96819,-0.21643,2023,6,9,18,7,40,107
3.63700,3.11500,-4.86500,0.00000,0.01318,0.96941,-0.21618,2023,6,9,18,7,40,118
3.63710,2.92250,-4.65500,0.00000,0.01501,0.96990,-0.21631,2023,6,9,18,7,40,130
3.63720,2.95750,-4.97000,0.00000,0.01476,0.97014,-0.21509,2023,6,9,18,7,40,141
3.63730,3.09750,-4.48000,0.00000,0.01403,0.96892,-0.21570,2023,6,9,18,7,40,152
3.63740,3.01000,-4.69000,0.00000,0.01366,0.96917,-0.21692,2023,6,9,18,7,40,163
3.63750,2.97500,-4.53250,0.00000,0.01598,0.96831,-0.21887,2023,6,9,18,7,40,174
3.63760,2.95750,-4.42750,0.00000,0.01415,0.97027,-0.21740,2023,6,9,18,7,40,185
3.63770,2.88750,-4.65500,0.00000,0.01501,0.97027,-0.21423,2023,6,9,18,7,40,196
3.63780,3.02750,-4.67250,0.00000,0.01427,0.96795,-0.21533,2023,6,9,18,7,40,207
3.63790,3.15000,-4.77750,0.00000,0.01525,0.96953,-0.21350,2023,6,9,18,7,40,218
3.63800,3.36000,-4.74250,0.00000,0.01330,0.97075,-0.21570,2023,6,9,18,7,40,230
3.63810,3.04500,-4.67250,0.00000,0.01452,0.96868,-0.21728,2023,6,9,18,7,40,241
3.63820,2.97500,-4.35750,0.00000,0.01562,0.96990,-0.21618,2023,6,9,18,7,40,252
3.63830,2.81750,-4.55000,0.00000,0.01488,0.96783,-0.21655,2023,6,9,18,7,40,263
3.63840,2.92250,-4.83000,0.00000,0.01257,0.96844,-0.21655,2023,6,9,18,7,40,274
3.63850,2.80000,-4.62000,0.00000,0.01257,0.97027,-0.21557,2023,6,9,18,7,40,285
3.63860,3.15000,-4.76000,0.00000,0.01574,0.96929,-0.21362,2023,6,9,18,7,40,296
3.63870,3.22000,-4.63750,0.00000,0.01598,0.96978,-0.21484,2023,6,9,18,7,40,307
3.63880,3.20250,-4.56750,0.00000,0.01537,0.96709,-0.21704,2023,6,9,18,7,40,318
3.63890,2.80000,-4.46250,0.00000,0.01427,0.96892,-0.21862,2023,6,9,18,7,40,330
3.63900,2.80000,-4.49750,0.00000,0.01257,0.96636,-0.21533,2023,6,9,18,7,40,341
3.63910,2.95750,-4.70750,0.00000,0.01318,0.96856,-0.21435,2023,6,9,18,7,40,352
3.63920,3.11500,-4.60250,0.00000,0.01549,0.97075,-0.21374,2023,6,9,18,7,40,363
3.63930,3.02750,-4.63750,0.00000,0.01452,0.96880,-0.21692,2023,6,9,18,7,40,374
3.63940,2.85250,-4.72500,0.00000,0.01403,0.96953,-0.21655,2023,6,9,18,7,40,385
3.63950,2.78250,-4.48000,0.00000,0.01440,0.96831,-0.21618,2023,6,9,18,7,40,396
3.63960,2.81750,-4.58500,0.00000,0.01415,0.97014,-0.21704,2023,6,9,18,7,40,407
3.63970,2.95750,-4.77750,0.00000,0.01501,0.97027,-0.21448,2023,6,9,18,7,40,418
3.63980,3.15000,-4.67250,0.00000,0.01403,0.96953,-0.21521,2023,6,9,18,7,40,430
3.63990,3.04500,-4.83000,0.00000,0.01415,0.96734,-0.21814,2023,6,9,18,7,40,441
3.64000,2.83500,-4.55000,0.00000,0.01269,0.96917,-0.21448,2023,6,9,18,7,40,452
3.64010,2.94000,-4.86500,0.00000,0.01232,0.97039,-0.21387,2023,6,9,18,7,40,463
3.64020,2.92250,-4.48000,0.00000,0.01610,0.96795,-0.21570,2023,6,9,18,7,40,474
3.64030,3.06250,-4.55000,0.00000,0.01549,0.97161,-0.21509,2023,6,9,18,7,40,485
3.64040,3.30750,-4.67250,0.00000,0.01391,0.96892,-0.21716,2023,6,9,18,7,40,496
3.64050,3.04500,-4.63750,0.00000,0.01525,0.96770,-0.21765,2023,6,9,18,7,40,507
3.64060,2.95750,-4.44500,0.00000,0.01476,0.96807,-0.21533,2023,6,9,18,7,40,518
3.64070,2.76500,-4.60250,0.00000,0.01415,0.96941,-0.21362,2023,6,9,18,7,40,530
3.64080,3.15000,-4.79500,0.00000,0.01269,0.96795,-0.21557,2023,6,9,18,7,40,541
3.64090,3.22000,-4.67250,0.00000,0.01318,0.96880,-0.21557,2023,6,9,18,7,40,552
3.64100,3.30750,-4.65500,0.00000,0.01342,0.96917,-0.21521,2023,6,9,18,7,40,563
3.64110,2.88750,-4.55000,0.00000,0.01379,0.96941,-0.21728,2023,6,9,18,7,40,574
3.64120,2.78250,-4.51500,0.00000,0.01537,0.96831,-0.21631,2023,6,9,18,7,40,585
3.64130,2.85250,-4.74250,0.00000,0.01281,0.96880,-0.21557,2023,6,9,18,7,40,596
3.64140,3.30750,-4.58500,0.00000,0.01440,0.96807,-0.21472,2023,6,9,18,7,40,607
3.64150,3.34250,-4.81250,0.00000,0.01330,0.96990,-0.21606,2023,6,9,18,7,40,618
3.64160,3.13250,-4.76000,0.00000,0.01488,0.96941,-0.21655,2023,6,9,18,7,40,630
3.64170,2.45000,-4.53250,0.00000,0.01318,0.96770,-0.21509,2023,6,9,18,7,40,641
3.64180,2.55500,-4.67250,0.00000,0.01354,0.96892,-0.21582,2023,6,9,18,7,40,652
3.64190,2.81750,-4.58500,0.00000,0.01598,0.97063,-0.21545,2023,6,9,18,7,40,663
3.64200,3.25500,-4.79500,0.00000,0.01623,0.96966,-0.21509,2023,6,9,18,7,40,674
3.64210,3.37750,-4.65500,0.00000,0.01501,0.96783,-0.21753,2023,6,9,18,7,40,685
3.64220,2.99250,-4.58500,0.00000,0.01293,0.96917,-0.21509,2023,6,9,18,7,40,696
3.64230,2.73000,-4.70750,0.00000,0.01513,0.97027,-0.21716,2023,6,9,18,7,40,707
3.64240,2.62500,-4.63750,0.00000,0.01342,0.96807,-0.21533,2023,6,9,18,7,40,718
3.64250,2.90500,-4.51500,0.00000,0.01391,0.96868,-0.21631,2023,6,9,18,7,40,730
3.64260,3.46500,-4.42750,0.00000,0.01623,0.96905,-0.21618,2023,6,9,18,7,40,741
3.64270,3.18500,-4.53250,0.00000,0.01476,0.96795,-0.21753,2023,6,9,18,7,40,752
3.64280,2.88750,-4.46250,0.00000,0.01196,0.96880,-0.21789,2023,6,9,18,7,40,763
3.64290,2.74750,-4.63750,0.00000,0.01525,0.97173,-0.21643,2023,6,9,18,7,40,774
3.64300,2.87000,-4.62000,0.00000,0.01196,0.97100,-0.21801,2023,6,9,18,7,40,785
3.64310,3.16750,-4.65500,0.00000,0.01415,0.96917,-0.21594,2023,6,9,18,7,40,796
3.64320,3.25500,-4.70750,0.00000,0.01427,0.96868,-0.21692,2023,6,9,18,7,40,807
3.64330,3.04500,-4.55000,0.00000,0.01671,0.96990,-0.21814,2023,6,9,18,7,40,818
3.64340,2.85250,-4.53250,0.00000,0.01293,0.96929,-0.21423,2023,6,9,18,7,40,830
3.64350,2.78250,-4.69000,0.00000,0.01537,0.96953,-0.21679,2023,6,9,18,7,40,841
3.64360,3.09750,-4.67250,0.00000,0.01440,0.97088,-0.21618,2023,6,9,18,7,40,852
3.64370,3.25500,-4.86500,0.00000,0.01403,0.96831,-0.21850,2023,6,9,18,7,40,863
3.64380,3.22000,-4.35750,0.00000,0.01415,0.96953,-0.21740,2023,6,9,18,7,40,874
3.64390,3.15000,-4.44500,0.00000,0.01354,0.96856,-0.21814,2023,6,9,18,7,40,885
3.64400,2.80000,-4.72500,0.00000,0.01354,0.97088,-0.21509,2023,6,9,18,7,40,896
3.64410,2.73000,-4.62000,0.00000,0.01403,0.97063,-0.21557,2023,6,9,18,7,40,907
3.64420,2.90500,-4.56750,0.00000,0.01525,0.96941,-0.21618,2023,6,9,18,7,40,918
3.64430,3.11500,-4.55000,0.00000,0.01464,0.97112,-0.21850,2023,6,9,18,7,40,930
3.64440,2.90500,-4.53250,0.00000,0.01366,0.96868,-0.21679,2023,6,9,18,7,40,941
3.64450,3.15000,-4.67250,0.00000,0.01281,0.96990,-0.21618,2023,6,9,18,7,40,952
3.64460,3.13250,-4.76000,0.00000,0.01147,0.97002,-0.21777,2023,6,9,18,7,40,963
3.64470,2.90500,-4.69000,0.00000,0.01647,0.96783,-0.21692,2023,6,9,18,7,40,974
3.64480,2.73000,-4.70750,0.00000,0.01549,0.97136,-0.21789,2023,6,9,18,7,40,985
3.64490,2.97500,-4.56750,0.00000,0.01537,0.96905,-0.21570,2023,6,9,18,7,40,996
3.64500,3.04500,-4.58500,0.00000,0.01366,0.97014,-0.21850,2023,6,9,18,7,40,7
3.64510,2.97500,-4.56750,0.00000,0.01208,0.96917,-0.21875,2023,6,9,18,7,41,8
3.64520,3.29000,-4.97000,0.00000,0.01525,0.97051,-0.21716,2023,6,9,18,7,41,20
3.64530,3.06250,-4.63750,0.00000,0.01098,0.96612,-0.21606,2023,6,9,18,7,41,31
3.64540,3.18500,-4.51500,0.00000,0.01476,0.96905,-0.21777,2023,6,9,18,7,41,42
3.64550,2.97500,-4.70750,0.00000,0.01232,0.96783,-0.21740,2023,6,9,18,7,41,53
3.64560,2.74750,-4.62000,0.00000,0.01391,0.97039,-0.21997,2023,6,9,18,7,41,64
3.64570,2.71250,-4.70750,0.00000,0.01366,0.97014,-0.21862,2023,6,9,18,7,41,75
3.64580,3.20250,-4.55000,0.00000,0.01318,0.97136,-0.21911,2023,6,9,18,7,41,86
3.64590,2.87000,-4.74250,0.00000,0.01391,0.96795,-0.21728,2023,6,9,18,7,41,97
3.64600,3.11500,-4.65500,0.00000,0.01501,0.96941,-0.21838,2023,6,9,18,7,41,108
3.64610,2.94000,-4.70750,0.00000,0.01281,0.96734,-0.21740,2023,6,9,18,7,41,120
3.64620,2.94000,-4.62000,0.00000,0.01415,0.96905,-0.21740,2023,6,9,18,7,41,131
3.64630,2.88750,-4.62000,0.00000,0.01427,0.96844,-0.21838,2023,6,9,18,7,41,142
3.64640,2.99250,-4.65500,0.00000,0.01647,0.96953,-0.21631,2023,6,9,18,7,41,153
3.64650,3.32500,-4.58500,0.00000,0.01452,0.96868,-0.21789,2023,6,9,18,7,41,164
3.64660,3.11500,-4.81250,0.00000,0.01549,0.97002,-0.21826,2023,6,9,18,7,41,175
3.64670,3.06250,-4.63750,0.00000,0.01574,0.97136,-0.21704,2023,6,9,18,7,41,186
3.64680,3.06250,-4.88250,0.00000,0.01403,0.97027,-0.21728,2023,6,9,18,7,41,197
3.64690,3.01000,-4.84750,0.00000,0.01196,0.97027,-0.21496,2023,6,9,18,7,41,208
3.64700,3.09750,-4.46250,0.00000,0.01525,0.96868,-0.21850,2023,6,9,18,7,41,220
3.64710,3.09750,-4.77750,0.00000,0.01342,0.96953,-0.21765,2023,6,9,18,7,41,231
3.64720,2.80000,-4.56750,0.00000,0.01415,0.96831,-0.21850,2023,6,9,18,7,41,242
3.64730,2.69500,-4.60250,0.00000,0.01391,0.96807,-0.21814,2023,6,9,18,7,41,253
3.64740,2.83500,-4.65500,0.00000,0.01427,0.97014,-0.21618,2023,6,9,18,7,41,264
3.64750,3.01000,-4.76000,0.00000,0.01476,0.96978,-0.21789,2023,6,9,18,7,41,275
3.64760,3.29000,-4.83000,0.00000,0.01269,0.96807,-0.21948,2023,6,9,18,7,41,286
3.64770,2.88750,-4.55000,0.00000,0.01366,0.96953,-0.21875,2023,6,9,18,7,41,297
3.64780,2.85250,-4.84750,0.00000,0.01525,0.97002,-0.21789,2023,6,9,18,7,41,308
3.64790,3.04500,-4.74250,0.00000,0.01452,0.96905,-0.21679,2023,6,9,18,7,41,320
3.64800,2.87000,-4.79500,0.00000,0.01366,0.97002,-0.21643,2023,6,9,18,7,41,331
3.64810,2.99250,-4.48000,0.00000,0.01537,0.96831,-0.21801,2023,6,9,18,7,41,342
3.64820,3.29000,-4.42750,0.00000,0.01257,0.96880,-0.21618,2023,6,9,18,7,41,353
3.64830,2.80000,-4.32250,0.00000,0.01671,0.97063,-0.21667,2023,6,9,18,7,41,364
3.64840,2.90500,-4.81250,0.00000,0.01366,0.96880,-0.21789,2023,6,9,18,7,41,375
3.64850,2.85250,-4.53250,0.00000,0.01440,0.97124,-0.21692,2023,6,9,18,7,41,386
3.64860,3.04500,-4.53250,0.00000,0.01354,0.97063,-0.21826,2023,6,9,18,7,41,397
3.64870,2.95750,-4.65500,0.00000,0.01159,0.96892,-0.21545,2023,6,9,18,7,41,408
3.64880,2.94000,-4.58500,0.00000,0.01391,0.96905,-0.21643,2023,6,9,18,7,41,420
3.64890,2.76500,-4.49750,0.00000,0.01476,0.97112,-0.21606,2023,6,9,18,7,41,431
3.64900,2.78250,-4.69000,0.00000,0.01562,0.96880,-0.21606,2023,6,9,18,7,41,442
3.64910,2.90500,-4.60250,0.00000,0.01562,0.96844,-0.21545,2023,6,9,18,7,41,453
3.64920,3.20250,-4.55000,0.00000,0.01330,0.96941,-0.21509,2023,6,9,18,7,41,464
3.64930,3.02750,-4.60250,0.00000,0.01549,0.96746,-0.21679,2023,6,9,18,7,41,475
3.64940,2.83500,-4.70750,0.00000,0.01366,0.96905,-0.21521,2023,6,9,18,7,41,486
3.64950,2.87000,-4.65500,0.00000,0.01330,0.96990,-0.21484,2023,6,9,18,7,41,497
3.64960,2.87000,-4.70750,0.00000,0.01232,0.96953,-0.21679,2023,6,9,18,7,41,508
3.64970,3.11500,-4.65500,0.00000,0.01501,0.96844,-0.21655,2023,6,9,18,7,41,520
3.64980,3.16750,-4.44500,0.00000,0.01391,0.97210,-0.21740,2023,6,9,18,7,41,531
3.64990,3.16750,-4.60250,0.00000,0.01366,0.96856,-0.21545,2023,6,9,18,7,41,542
3.65000,2.74750,-4.74250,0.00000,0.01330,0.97039,-0.21728,2023,6,9,18,7,41,553
3.65010,2.71250,-4.63750,0.00000,0.01318,0.97197,-0.21972,2023,6,9,18,7,41,564
3.65020,3.04500,-4.69000,0.00000,0.01269,0.96953,-0.21655,2023,6,9,18,7,41,575
3.65030,3.04500,-4.46250,0.00000,0.01391,0.97124,-0.21582,2023,6,9,18,7,41,586
3.65040,3.30750,-4.37500,0.00000,0.01415,0.97039,-0.21789,2023,6,9,18,7,41,597
3.65050,2.83500,-4.49750,0.00000,0.01281,0.96868,-0.21667,2023,6,9,18,7,41,608
3.65060,2.76500,-4.53250,0.00000,0.01488,0.96966,-0.21570,2023,6,9,18,7,41,620
3.65070,2.69500,-4.55000,0.00000,0.01440,0.96966,-0.21509,2023,6,9,18,7,41,631
3.65080,2.90500,-4.74250,0.00000,0.01476,0.97161,-0.21423,2023,6,9,18,7,41,642
3.65090,3.16750,-4.48000,0.00000,0.01464,0.96917,-0.21740,2023,6,9,18,7,41,653
3.65100,3.27250,-4.63750,0.00000,0.01379,0.96746,-0.21765,2023,6,9,18,7,41,664
3.65110,2.90500,-4.65500,0.00000,0.01415,0.97014,-0.21667,2023,6,9,18,7,41,675
3.65120,2.69500,-4.65500,0.00000,0.01147,0.96734,-0.21789,2023,6,9,18,7,41,686
3.65130,2.74750,-4.81250,0.00000,0.01330,0.96990,-0.21704,2023,6,9,18,7,41,697
3.65140,2.97500,-4.41000,0.00000,0.01537,0.96966,-0.21533,2023,6,9,18,7,41,708
3.65150,3.27250,-4.65500,0.00000,0.01415,0.97039,-0.21606,2023,6,9,18,7,41,720
3.65160,3.16750,-4.72500,0.00000,0.01305,0.96807,-0.21509,2023,6,9,18,7,41,731
3.65170,2.74750,-4.49750,0.00000,0.01549,0.97185,-0.21594,2023,6,9,18,7,41,742
3.65180,2.62500,-4.79500,0.00000,0.01293,0.97075,-0.21716,2023,6,9,18,7,41,753
3.65190,2.83500,-4.65500,0.00000,0.01403,0.96905,-0.21435,2023,6,9,18,7,41,764
3.65200,3.08000,-4.49750,0.00000,0.01537,0.97088,-0.21679,2023,6,9,18,7,41,775
3.65210,3.30750,-4.62000,0.00000,0.01366,0.96856,-0.21423,2023,6,9,18,7,41,786
3.65220,3.13250,-4.51500,0.00000,0.01403,0.96856,-0.21838,2023,6,9,18,7,41,797
3.65230,2.62500,-4.70750,0.00000,0.01525,0.96795,-0.21765,2023,6,9,18,7,41,808
3.65240,2.60750,-4.58500,0.00000,0.01379,0.97027,-0.21606,2023,6,9,18,7,41,820
3.65250,2.76500,-4.69000,0.00000,0.01379,0.96746,-0.21582,2023,6,9,18,7,41,831
3.65260,3.16750,-4.55000,0.00000,0.01562,0.97112,-0.21594,2023,6,9,18,7,41,842
3.65270,3.29000,-4.56750,0.00000,0.01366,0.96868,-0.21606,2023,6,9,18,7,41,853
3.65280,3.29000,-4.77750,0.00000,0.01379,0.96831,-0.22045,2023,6,9,18,7,41,864
3.65290,2.88750,-4.72500,0.00000,0.01244,0.96770,-0.21960,2023,6,9,18,7,41,875
3.65300,2.57250,-4.70750,0.00000,0.01293,0.96856,-0.21753,2023,6,9,18,7,41,886
3.65310,2.57250,-4.62000,0.00000,0.01257,0.97063,-0.21448,2023,6,9,18,7,41,897
3.65320,2.99250,-4.83000,0.00000,0.01525,0.97027,-0.21448,2023,6,9,18,7,41,908
3.65330,3.48250,-4.63750,0.00000,0.01440,0.97100,-0.21667,2023,6,9,18,7,41,920
3.65340,3.43000,-4.55000,0.00000,0.01513,0.96856,-0.21936,2023,6,9,18,7,41,931
3.65350,2.92250,-4.84750,0.00000,0.01440,0.96819,-0.21862,2023,6,9,18,7,41,942
3.65360,2.46750,-4.56750,0.00000,0.01354,0.96990,-0.21533,2023,6,9,18,7,41,953
3.65370,2.71250,-4.77750,0.00000,0.01220,0.96929,-0.21801,2023,6,9,18,7,41,964
3.65380,3.18500,-4.70750,0.00000,0.01598,0.96880,-0.21716,2023,6,9,18,7,41,975
3.65390,3.57000,-4.76000,0.00000,0.01147,0.97051,-0.21740,2023,6,9,18,7,41,986
3.65400,3.29000,-4.58500,0.00000,0.01403,0.96770,-0.22216,2023,6,9,18,7,41,997
3.65410,2.90500,-4.51500,0.00000,0.01427,0.96526,-0.21728,2023,6,9,18,7,42,8
3.65420,2.57250,-4.60250,0.00000,0.01281,0.96953,-0.21594,2023,6,9,18,7,42,20
3.65430,2.92250,-4.83000,0.00000,0.01427,0.96819,-0.21643,2023,6,9,18,7,42,31
3.65440,3.22000,-4.70750,0.00000,0.01354,0.97161,-0.21692,2023,6,9,18,7,42,42
3.65450,3.43000,-4.58500,0.00000,0.01379,0.96966,-0.21679,2023,6,9,18,7,42,53
3.65460,3.13250,-4.65500,0.00000,0.01513,0.96978,-0.21777,2023,6,9,18,7,42,64
3.65470,2.73000,-4.88250,0.00000,0.01330,0.96905,-0.21728,2023,6,9,18,7,42,75
3.65480,2.45000,-4.67250,0.00000,0.01501,0.97185,-0.21374,2023,6,9,18,7,42,86
3.65490,2.97500,-4.69000,0.00000,0.01330,0.96941,-0.21716,2023,6,9,18,7,42,97
3.65500,3.25500,-4.76000,0.00000,0.01562,0.96917,-0.21655,2023,6,9,18,7,42,108
3.65510,3.09750,-4.62000,0.00000,0.01391,0.96770,-0.21911,2023,6,9,18,7,42,120
3.65520,3.11500,-5.04000,0.00000,0.01476,0.97075,-0.21545,2023,6,9,18,7,42,131
3.65530,2.59000,-4.51500,0.00000,0.01452,0.97014,-0.21753,2023,6,9,18,7,42,142
3.65540,2.64250,-4.62000,0.00000,0.01464,0.96929,-0.21545,2023,6,9,18,7,42,153
3.65550,3.16750,-4.76000,0.00000,0.01354,0.96868,-0.21753,2023,6,9,18,7,42,164
3.65560,3.34250,-4.58500,0.00000,0.01366,0.97014,-0.21631,2023,6,9,18,7,42,175
3.65570,3.15000,-4.62000,0.00000,0.01684,0.96966,-0.21667,2023,6,9,18,7,42,186
3.65580,2.92250,-4.74250,0.00000,0.01549,0.96917,-0.21753,2023,6,9,18,7,42,197
3.65590,2.69500,-4.76000,0.00000,0.01379,0.97027,-0.21533,2023,6,9,18,7,42,208
3.65600,2.94000,-4.48000,0.00000,0.01574,0.96978,-0.21679,2023,6,9,18,7,42,220
3.65610,3.25500,-4.79500,0.00000,0.01525,0.96709,-0.21740,2023,6,9,18,7,42,231
3.65620,3.20250,-4.55000,0.00000,0.01440,0.96685,-0.21716,2023,6,9,18,7,42,242
3.65630,3.02750,-4.70750,0.00000,0.01366,0.96856,-0.21655,2023,6,9,18,7,42,253
3.65640,2.78250,-4.51500,0.00000,0.01232,0.96966,-0.21692,2023,6,9,18,7,42,264
3.65650,2.92250,-4.49750,0.00000,0.01427,0.96966,-0.21765,2023,6,9,18,7,42,275
3.65660,2.99250,-4.74250,0.00000,0.01391,0.96783,-0.21521,2023,6,9,18,7,42,286
3.65670,2.99250,-4.65500,0.00000,0.01464,0.97027,-0.21423,2023,6,9,18,7,42,297
3.65680,2.85250,-4.53250,0.00000,0.01379,0.96880,-0.21704,2023,6,9,18,7,42,308
3.65690,2.83500,-4.48000,0.00000,0.01488,0.96758,-0.21777,2023,6,9,18,7,42,320
3.65700,2.88750,-4.63750,0.00000,0.01464,0.96868,-0.21728,2023,6,9,18,7,42,331
3.65710,3.04500,-4.77750,0.00000,0.01293,0.96856,-0.21679,2023,6,9,18,7,42,342
3.65720,3.15000,-4.60250,0.00000,0.01379,0.96868,-0.21594,2023,6,9,18,7,42,353
3.65730,3.15000,-4.69000,0.00000,0.01147,0.96831,-0.21557,2023,6,9,18,7,42,364
3.65740,2.90500,-4.58500,0.00000,0.01366,0.96844,-0.21777,2023,6,9,18,7,42,375
3.65750,2.76500,-4.60250,0.00000,0.01464,0.96929,-0.21740,2023,6,9,18,7,42,386
3.65760,2.76500,-4.53250,0.00000,0.01488,0.96636,-0.21679,2023,6,9,18,7,42,397
3.65770,3.11500,-4.62000,0.00000,0.01379,0.96856,-0.21728,2023,6,9,18,7,42,408
3.65780,3.20250,-4.65500,0.00000,0.01257,0.96856,-0.21826,2023,6,9,18,7,42,420
3.65790,3.11500,-4.39250,0.00000,0.01232,0.96905,-0.21789,2023,6,9,18,7,42,431
3.65800,2.87000,-4.69000,0.00000,0.01537,0.96551,-0.22045,2023,6,9,18,7,42,442
3.65810,2.73000,-4.46250,0.00000,0.01244,0.96990,-0.21899,2023,6,9,18,7,42,453
3.65820,2.97500,-4.86500,0.00000,0.01147,0.96990,-0.21887,2023,6,9,18,7,42,464
3.65830,2.99250,-4.58500,0.00000,0.01586,0.96795,-0.21960,2023,6,9,18,7,42,475
3.65840,3.04500,-4.76000,0.00000,0.01476,0.96905,-0.21984,2023,6,9,18,7,42,486
3.65850,2.97500,-4.74250,0.00000,0.01391,0.97136,-0.21960,2023,6,9,18,7,42,497
3.65860,3.04500,-4.56750,0.00000,0.01440,0.97002,-0.22058,2023,6,9,18,7,42,508
3.65870,2.95750,-4.51500,0.00000,0.01330,0.96856,-0.21972,2023,6,9,18,7,42,520
3.65880,3.04500,-4.67250,0.00000,0.01379,0.97027,-0.21631,2023,6,9,18,7,42,531
3.65890,3.01000,-4.67250,0.00000,0.01586,0.96673,-0.21997,2023,6,9,18,7,42,542
3.65900,3.13250,-4.72500,0.00000,0.01415,0.96685,-0.21948,2023,6,9,18,7,42,553
3.65910,2.94000,-4.53250,0.00000,0.01562,0.96734,-0.21972,2023,6,9,18,7,42,564
3.65920,2.90500,-4.63750,0.00000,0.01305,0.96941,-0.21899,2023,6,9,18,7,42,575
3.65930,2.97500,-4.81250,0.00000,0.01391,0.96929,-0.21972,2023,6,9,18,7,42,586
3.65940,3.06250,-4.72500,0.00000,0.01379,0.96856,-0.21936,2023,6,9,18,7,42,597
3.65950,3.06250,-4.74250,0.00000,0.01379,0.96844,-0.22021,2023,6,9,18,7,42,608
3.65960,2.99250,-4.62000,0.00000,0.01293,0.97027,-0.21899,2023,6,9,18,7,42,620
3.65970,2.97500,-4.72500,0.00000,0.01269,0.96917,-0.21911,2023,6,9,18,7,42,631
3.65980,3.04500,-4.70750,0.00000,0.01391,0.97027,-0.21984,2023,6,9,18,7,42,642
3.65990,2.80000,-4.48000,0.00000,0.01427,0.97051,-0.21997,2023,6,9,18,7,42,653
3.66000,3.11500,-4.74250,0.00000,0.01537,0.96844,-0.21887,2023,6,9,18,7,42,664
3.66010,3.06250,-4.56750,0.00000,0.01244,0.96929,-0.21911,2023,6,9,18,7,42,675
3.66020,3.29000,-4.72500,0.00000,0.01464,0.96892,-0.22082,2023,6,9,18,7,42,686
3.66030,2.85250,-4.55000,0.00000,0.01305,0.97051,-0.21984,2023,6,9,18,7,42,697
3.66040,2.66000,-4.69000,0.00000,0.01196,0.96831,-0.21972,2023,6,9,18,7,42,708
3.66050,2.59000,-4.60250,0.00000,0.01525,0.97027,-0.21838,2023,6,9,18,7,42,720
3.66060,2.94000,-4.67250,0.00000,0.01501,0.97295,-0.21862,2023,6,9,18,7,42,731
3.66070,3.20250,-4.62000,0.00000,0.01379,0.97283,-0.21997,2023,6,9,18,7,42,742
3.66080,3.32500,-4.56750,0.00000,0.01476,0.96868,-0.22021,2023,6,9,18,7,42,753
3.66090,2.97500,-4.62000,0.00000,0.01403,0.96856,-0.21801,2023,6,9,18,7,42,764
3.66100,2.78250,-4.74250,0.00000,0.01525,0.96978,-0.21923,2023,6,9,18,7,42,775
3.66110,2.81750,-4.74250,0.00000,0.01452,0.96722,-0.22192,2023,6,9,18,7,42,786
3.66120,3.09750,-4.51500,0.00000,0.01379,0.96917,-0.21899,2023,6,9,18,7,42,797
3.66130,3.20250,-4.81250,0.00000,0.01732,0.96758,-0.21814,2023,6,9,18,7,42,808
3.66140,3.11500,-4.70750,0.00000,0.01403,0.96697,-0.21899,2023,6,9,18,7,42,820
3.66150,3.15000,-4.63750,0.00000,0.01354,0.96929,-0.22009,2023,6,9,18,7,42,831
3.66160,2.94000,-4.65500,0.00000,0.01196,0.96892,-0.22070,2023,6,9,18,7,42,842
3.66170,2.83500,-4.63750,0.00000,0.01525,0.96526,-0.22131,2023,6,9,18,7,42,853
3.66180,2.95750,-4.49750,0.00000,0.01293,0.96880,-0.21740,2023,6,9,18,7,42,864
3.66190,3.16750,-4.72500,0.00000,0.01305,0.96770,-0.22058,2023,6,9,18,7,42,875
3.66200,3.36000,-4.53250,0.00000,0.01464,0.97124,-0.21936,2023,6,9,18,7,42,886
3.66210,3.25500,-4.90000,0.00000,0.01366,0.97014,-0.22143,2023,6,9,18,7,42,897
3.66220,2.97500,-4.55000,0.00000,0.01452,0.96844,-0.21972,2023,6,9,18,7,42,908
3.66230,2.92250,-4.84750,0.00000,0.01488,0.96905,-0.22106,2023,6,9,18,7,42,920
3.66240,2.90500,-4.55000,0.00000,0.01122,0.96758,-0.21765,2023,6,9,18,7,42,931
3.66250,2.92250,-4.69000,0.00000,0.01427,0.97063,-0.21862,2023,6,9,18,7,42,942
3.66260,3.02750,-4.79500,0.00000,0.01574,0.96892,-0.21960,2023,6,9,18,7,42,953
3.66270,2.88750,-4.72500,0.00000,0.01366,0.96868,-0.21765,2023,6,9,18,7,42,964
3.66280,3.02750,-4.49750,0.00000,0.01403,0.96929,-0.21887,2023,6,9,18,7,42,975
3.66290,2.64250,-4.39250,0.00000,0.01488,0.96770,-0.21899,2023,6,9,18,7,42,986
3.66300,2.90500,-4.72500,0.00000,0.01293,0.96844,-0.21838,2023,6,9,18,7,42,997
3.66310,3.18500,-4.98750,0.00000,0.01415,0.96685,-0.21850,2023,6,9,18,7,42,8
3.66320,2.99250,-4.42750,0.00000,0.01342,0.96953,-0.21862,2023,6,9,18,7,43,0
3.66330,3.29000,-4.76000,0.00000,0.01464,0.96770,-0.21728,2023,6,9,18,7,43,11
3.66340,2.74750,-4.58500,0.00000,0.01415,0.97002,-0.21972,2023,6,9,18,7,43,22
3.66350,3.04500,-4.79500,0.00000,0.01488,0.96880,-0.21728,2023,6,9,18,7,43,33
3.66360,2.88750,-4.77750,0.00000,0.01403,0.97088,-0.21643,2023,6,9,18,7,43,44
3.66370,2.95750,-4.58500,0.00000,0.01379,0.97051,-0.21850,2023,6,9,18,7,43,55
3.66380,3.13250,-4.44500,0.00000,0.01269,0.97112,-0.22021,2023,6,9,18,7,43,66
3.66390,3.11500,-4.63750,0.00000,0.01208,0.97088,-0.21838,2023,6,9,18,7,43,77
3.66400,2.94000,-4.74250,0.00000,0.01549,0.96880,-0.22143,2023,6,9,18,7,43,88
3.66410,2.74750,-4.63750,0.00000,0.01220,0.97075,-0.21936,2023,6,9,18,7,43,100
3.66420,2.80000,-4.48000,0.00000,0.01183,0.96807,-0.21923,2023,6,9,18,7,43,111
3.66430,2.97500,-4.72500,0.00000,0.01513,0.96795,-0.21862,2023,6,9,18,7,43,122
3.66440,3.16750,-4.58500,0.00000,0.01281,0.96722,-0.21777,2023,6,9,18,7,43,133
3.66450,3.08000,-4.58500,0.00000,0.01452,0.96905,-0.21899,2023,6,9,18,7,43,144
3.66460,2.88750,-4.58500,0.00000,0.01318,0.96929,-0.21655,2023,6,9,18,7,43,155
3.66470,2.76500,-4.63750,0.00000,0.01793,0.96709,-0.21631,2023,6,9,18,7,43,166
3.66480,2.97500,-4.46250,0.00000,0.01574,0.96905,-0.21899,2023,6,9,18,7,43,177
3.66490,3.16750,-4.74250,0.00000,0.01464,0.96685,-0.21582,2023,6,9,18,7,43,188
3.66500,3.15000,-4.76000,0.00000,0.01342,0.96868,-0.21753,2023,6,9,18,7,43,200
3.66510,2.92250,-4.70750,0.00000,0.01342,0.96807,-0.22009,2023,6,9,18,7,43,211
3.66520,2.80000,-4.76000,0.00000,0.01562,0.96929,-0.21716,2023,6,9,18,7,43,222
3.66530,2.67750,-4.44500,0.00000,0.01549,0.96758,-0.21692,2023,6,9,18,7,43,233
3.66540,3.09750,-4.81250,0.00000,0.01562,0.96941,-0.21679,2023,6,9,18,7,43,244
3.66550,3.34250,-4.56750,0.00000,0.01476,0.96844,-0.21716,2023,6,9,18,7,43,255
3.66560,3.39500,-4.69000,0.00000,0.01427,0.96880,-0.21740,2023,6,9,18,7,43,266
3.66570,2.90500,-4.63750,0.00000,0.01305,0.96758,-0.21692,2023,6,9,18,7,43,277
3.66580,2.62500,-4.74250,0.00000,0.01318,0.96685,-0.21850,2023,6,9,18,7,43,288
3.66590,2.85250,-4.76000,0.00000,0.01305,0.96966,-0.21667,2023,6,9,18,7,43,300
3.66600,3.02750,-4.86500,0.00000,0.01415,0.97002,-0.21582,2023,6,9,18,7,43,311
3.66610,3.37750,-4.72500,0.00000,0.01208,0.97319,-0.21911,2023,6,9,18,7,43,322
3.66620,3.16750,-4.60250,0.00000,0.01403,0.97014,-0.21679,2023,6,9,18,7,43,333
3.66630,2.87000,-4.65500,0.00000,0.01623,0.96685,-0.21911,2023,6,9,18,7,43,344
3.66640,2.71250,-4.49750,0.00000,0.01525,0.96978,-0.21643,2023,6,9,18,7,43,355
3.66650,2.73000,-4.51500,0.00000,0.01305,0.97039,-0.21692,2023,6,9,18,7,43,366
3.66660,2.97500,-4.69000,0.00000,0.01281,0.96734,-0.21704,2023,6,9,18,7,43,377
3.66670,3.32500,-4.72500,0.00000,0.01379,0.97027,-0.21789,2023,6,9,18,7,43,388
3.66680,3.11500,-4.70750,0.00000,0.01354,0.96953,-0.21826,2023,6,9,18,7,43,400
3.66690,2.80000,-4.69000,0.00000,0.01427,0.97002,-0.21972,2023,6,9,18,7,43,411
3.66700,2.95750,-4.70750,0.00000,0.01464,0.96868,-0.21667,2023,6,9,18,7,43,422
3.66710,3.08000,-4.44500,0.00000,0.01476,0.97002,-0.21740,2023,6,9,18,7,43,433
3.66720,3.09750,-4.53250,0.00000,0.01147,0.96929,-0.21899,2023,6,9,18,7,43,444
3.66730,2.95750,-4.46250,0.00000,0.01293,0.97149,-0.21740,2023,6,9,18,7,43,455
3.66740,3.09750,-4.62000,0.00000,0.01379,0.96783,-0.21667,2023,6,9,18,7,43,466
3.66750,2.88750,-4.65500,0.00000,0.01501,0.96905,-0.21557,2023,6,9,18,7,43,477
3.66760,2.76500,-4.56750,0.00000,0.01537,0.96892,-0.21753,2023,6,9,18,7,43,488
3.66770,2.92250,-4.44500,0.00000,0.01549,0.96880,-0.21594,2023,6,9,18,7,43,500
3.66780,3.02750,-4.49750,0.00000,0.01464,0.96941,-0.21667,2023,6,9,18,7,43,511
3.66790,3.06250,-4.41000,0.00000,0.01623,0.96941,-0.21545,2023,6,9,18,7,43,522
3.66800,3.27250,-4.56750,0.00000,0.01440,0.96953,-0.21862,2023,6,9,18,7,43,533
3.66810,2.97500,-4.60250,0.00000,0.01464,0.97027,-0.21801,2023,6,9,18,7,43,544
3.66820,2.78250,-4.62000,0.00000,0.01354,0.96917,-0.21801,2023,6,9,18,7,43,555
3.66830,2.76500,-4.60250,0.00000,0.01354,0.97088,-0.21643,2023,6,9,18,7,43,566
3.66840,2.90500,-4.79500,0.00000,0.01501,0.96783,-0.21692,2023,6,9,18,7,43,577
3.66850,3.27250,-4.56750,0.00000,0.01464,0.96868,-0.21362,2023,6,9,18,7,43,588
3.66860,3.23750,-4.49750,0.00000,0.01293,0.96892,-0.21716,2023,6,9,18,7,43,600
3.66870,3.29000,-4.55000,0.00000,0.01537,0.96831,-0.22106,2023,6,9,18,7,43,611
3.66880,2.59000,-4.55000,0.00000,0.01488,0.97063,-0.21838,2023,6,9,18,7,43,622
3.66890,2.69500,-4.67250,0.00000,0.01501,0.97002,-0.21655,2023,6,9,18,7,43,633
3.66900,2.94000,-4.62000,0.00000,0.01366,0.97075,-0.21789,2023,6,9,18,7,43,644
3.66910,3.16750,-4.60250,0.00000,0.01513,0.96746,-0.21557,2023,6,9,18,7,43,655
3.66920,3.16750,-4.70750,0.00000,0.01525,0.97014,-0.21887,2023,6,9,18,7,43,666
3.66930,2.94000,-4.74250,0.00000,0.01427,0.97075,-0.22045,2023,6,9,18,7,43,677
3.66940,2.57250,-4.84750,0.00000,0.01305,0.96783,-0.21814,2023,6,9,18,7,43,688
3.66950,2.76500,-4.49750,0.00000,0.01525,0.97002,-0.21875,2023,6,9,18,7,43,700
3.66960,3.23750,-4.70750,0.00000,0.01415,0.96929,-0.21716,2023,6,9,18,7,43,711
3.66970,3.48250,-4.55000,0.00000,0.01269,0.96929,-0.21923,2023,6,9,18,7,43,722
3.66980,3.11500,-4.56750,0.00000,0.01379,0.96905,-0.22070,2023,6,9,18,7,43,733
3.66990,2.83500,-4.69000,0.00000,0.01183,0.97027,-0.21972,2023,6,9,18,7,43,744
3.67000,2.67750,-4.77750,0.00000,0.01366,0.96929,-0.22021,2023,6,9,18,7,43,755
3.67010,2.67750,-4.51500,0.00000,0.01635,0.96819,-0.21911,2023,6,9,18,7,43,766
3.67020,3.08000,-4.51500,0.00000,0.01379,0.96868,-0.21899,2023,6,9,18,7,43,777
3.67030,3.36000,-4.58500,0.00000,0.01427,0.96880,-0.21911,2023,6,9,18,7,43,788
3.67040,3.25500,-4.67250,0.00000,0.01354,0.96953,-0.21911,2023,6,9,18,7,43,800
3.67050,2.85250,-4.67250,0.00000,0.01281,0.96868,-0.21679,2023,6,9,18,7,43,811
3.67060,2.62500,-4.58500,0.00000,0.01403,0.97002,-0.21716,2023,6,9,18,7,43,822
3.67070,3.20250,-4.70750,0.00000,0.01427,0.96978,-0.21728,2023,6,9,18,7,43,833
3.67080,3.20250,-4.63750,0.00000,0.01440,0.96978,-0.21911,2023,6,9,18,7,43,844
3.67090,3.08000,-4.58500,0.00000,0.01549,0.96807,-0.21899,2023,6,9,18,7,43,855
3.67100,3.01000,-4.76000,0.00000,0.01257,0.96685,-0.21887,2023,6,9,18,7,43,866
3.67110,2.92250,-4.62000,0.00000,0.01293,0.96880,-0.21777,2023,6,9,18,7,43,877
3.67120,2.94000,-4.88250,0.00000,0.01208,0.96770,-0.21753,2023,6,9,18,7,43,888
3.67130,2.88750,-4.86500,0.00000,0.01342,0.96990,-0.21911,2023,6,9,18,7,43,900
3.67140,3.18500,-4.76000,0.00000,0.01488,0.97002,-0.21667,2023,6,9,18,7,43,911
3.67150,3.11500,-4.48000,0.00000,0.01305,0.96917,-0.21875,2023,6,9,18,7,43,922
3.67160,3.15000,-4.63750,0.00000,0.01330,0.96880,-0.22106,2023,6,9,18,7,43,933
3.67170,2.94000,-4.86500,0.00000,0.01525,0.97051,-0.21850,2023,6,9,18,7,43,944
3.67180,2.81750,-4.72500,0.00000,0.01415,0.97051,-0.21606,2023,6,9,18,7,43,955
3.67190,2.73000,-4.72500,0.00000,0.01415,0.96990,-0.21753,2023,6,9,18,7,43,966
3.67200,3.15000,-4.74250,0.00000,0.01562,0.97039,-0.21838,2023,6,9,18,7,43,977
3.67210,3.20250,-4.49750,0.00000,0.01293,0.96770,-0.21972,2023,6,9,18,7,43,988
3.67220,3.01000,-4.77750,0.00000,0.01574,0.96758,-0.21838,2023,6,9,18,7,43,0
3.67230,2.81750,-4.42750,0.00000,0.01488,0.96905,-0.22021,2023,6,9,18,7,44,1
3.67240,3.15000,-4.79500,0.00000,0.01244,0.96831,-0.21667,2023,6,9,18,7,44,12
3.67250,2.81750,-4.49750,0.00000,0.01257,0.97149,-0.21838,2023,6,9,18,7,44,23
3.67260,3.02750,-4.65500,0.00000,0.01586,0.96758,-0.21826,2023,6,9,18,7,44,34
3.67270,2.99250,-4.60250,0.00000,0.01488,0.97014,-0.21887,2023,6,9,18,7,44,45
3.67280,2.99250,-4.46250,0.00000,0.01281,0.96746,-0.21801,2023,6,9,18,7,44,56
3.67290,2.80000,-4.72500,0.00000,0.01366,0.97027,-0.21643,2023,6,9,18,7,44,67
3.67300,2.73000,-4.42750,0.00000,0.01281,0.96856,-0.21850,2023,6,9,18,7,44,78
3.67310,2.87000,-4.81250,0.00000,0.01196,0.96844,-0.21765,2023,6,9,18,7,44,90
3.67320,3.11500,-4.53250,0.00000,0.01403,0.96831,-0.21923,2023,6,9,18,7,44,101
3.67330,2.99250,-4.74250,0.00000,0.01147,0.96831,-0.21997,2023,6,9,18,7,44,112
3.67340,3.04500,-4.69000,0.00000,0.01403,0.96795,-0.21801,2023,6,9,18,7,44,123
3.67350,2.88750,-4.76000,0.00000,0.01549,0.96868,-0.21631,2023,6,9,18,7,44,134
3.67360,2.88750,-4.65500,0.00000,0.01257,0.96941,-0.22094,2023,6,9,18,7,44,145
3.67370,2.88750,-4.60250,0.00000,0.01586,0.97161,-0.21728,2023,6,9,18,7,44,156
3.67380,2.88750,-4.58500,0.00000,0.01171,0.96819,-0.21606,2023,6,9,18,7,44,167
3.67390,2.95750,-4.58500,0.00000,0.01635,0.96844,-0.21765,2023,6,9,18,7,44,178
3.67400,3.04500,-4.69000,0.00000,0.01513,0.96734,-0.21679,2023,6,9,18,7,44,190
3.67410,3.15000,-4.67250,0.00000,0.01476,0.96917,-0.21606,2023,6,9,18,7,44,201
3.67420,3.11500,-4.60250,0.00000,0.01159,0.96819,-0.21948,2023,6,9,18,7,44,212
3.67430,2.97500,-4.70750,0.00000,0.01647,0.97063,-0.21899,2023,6,9,18,7,44,223
3.67440,3.09750,-4.72500,0.00000,0.01244,0.96868,-0.21533,2023,6,9,18,7,44,234
3.67450,3.11500,-4.55000,0.00000,0.01147,0.96966,-0.21557,2023,6,9,18,7,44,245
3.67460,3.06250,-4.77750,0.00000,0.01440,0.96844,-0.21948,2023,6,9,18,7,44,256
3.67470,2.71250,-4.56750,0.00000,0.01354,0.97039,-0.21789,2023,6,9,18,7,44,267
3.67480,2.95750,-4.53250,0.00000,0.01647,0.97027,-0.21777,2023,6,9,18,7,44,278
3.67490,2.85250,-4.74250,0.00000,0.01257,0.97100,-0.21484,2023,6,9,18,7,44,290
3.67500,3.13250,-4.60250,0.00000,0.01440,0.96941,-0.21631,2023,6,9,18,7,44,301
3.67510,3.08000,-4.55000,0.00000,0.01476,0.97234,-0.21618,2023,6,9,18,7,44,312
3.67520,3.09750,-4.69000,0.00000,0.01269,0.97210,-0.21899,2023,6,9,18,7,44,323
3.67530,2.97500,-4.69000,0.00000,0.01488,0.96770,-0.21753,2023,6,9,18,7,44,334
3.67540,2.99250,-4.83000,0.00000,0.01366,0.96783,-0.21801,2023,6,9,18,7,44,345
3.67550,2.74750,-4.67250,0.00000,0.01476,0.97063,-0.21496,2023,6,9,18,7,44,356
3.67560,2.85250,-4.44500,0.00000,0.01354,0.96966,-0.21716,2023,6,9,18,7,44,367
3.67570,3.04500,-4.69000,0.00000,0.01330,0.97051,-0.21862,2023,6,9,18,7,44,378
3.67580,3.08000,-4.53250,0.00000,0.01586,0.96807,-0.21582,2023,6,9,18,7,44,390
3.67590,2.87000,-4.65500,0.00000,0.01549,0.96868,-0.21594,2023,6,9,18,7,44,401
3.67600,3.06250,-4.70750,0.00000,0.01464,0.97149,-0.21643,2023,6,9,18,7,44,412
3.67610,3.01000,-4.49750,0.00000,0.01574,0.97039,-0.21496,2023,6,9,18,7,44,423
3.67620,3.15000,-4.63750,0.00000,0.01354,0.97112,-0.21545,2023,6,9,18,7,44,434
3.67630,2.94000,-4.65500,0.00000,0.01379,0.97234,-0.21606,2023,6,9,18,7,44,445
3.67640,2.99250,-4.67250,0.00000,0.01476,0.96783,-0.21789,2023,6,9,18,7,44,456
3.67650,2.99250,-4.70750,0.00000,0.01525,0.96978,-0.21972,2023,6,9,18,7,44,467
3.67660,2.80000,-4.77750,0.00000,0.01440,0.96856,-0.21545,2023,6,9,18,7,44,478
3.67670,2.88750,-4.63750,0.00000,0.01366,0.96929,-0.21557,2023,6,9,18,7,44,490
3.67680,2.92250,-4.62000,0.00000,0.01501,0.96978,-0.21545,2023,6,9,18,7,44,501
3.67690,2.88750,-4.48000,0.00000,0.01330,0.96966,-0.21423,2023,6,9,18,7,44,512
3.67700,2.92250,-4.67250,0.00000,0.01476,0.96770,-0.21692,2023,6,9,18,7,44,523
3.67710,3.16750,-4.37500,0.00000,0.01379,0.96953,-0.21411,2023,6,9,18,7,44,534
3.67720,3.15000,-4.79500,0.00000,0.01513,0.96953,-0.21557,2023,6,9,18,7,44,545
3.67730,2.99250,-4.60250,0.00000,0.01525,0.97014,-0.21631,2023,6,9,18,7,44,556
3.67740,3.02750,-4.55000,0.00000,0.01476,0.96941,-0.21618,2023,6,9,18,7,44,567
3.67750,3.06250,-4.74250,0.00000,0.01391,0.97014,-0.21826,2023,6,9,18,7,44,578
3.67760,2.95750,-4.53250,0.00000,0.01415,0.97051,-0.21643,2023,6,9,18,7,44,590
3.67770,2.90500,-4.49750,0.00000,0.01513,0.97075,-0.21460,2023,6,9,18,7,44,601
3.67780,3.01000,-4.69000,0.00000,0.01342,0.97027,-0.21692,2023,6,9,18,7,44,612
3.67790,3.08000,-4.55000,0.00000,0.01488,0.96783,-0.21631,2023,6,9,18,7,44,623
3.67800,2.87000,-4.62000,0.00000,0.01452,0.96807,-0.21692,2023,6,9,18,7,44,634
3.67810,2.94000,-4.79500,0.00000,0.01501,0.97075,-0.21655,2023,6,9,18,7,44,645
3.67820,2.90500,-4.62000,0.00000,0.01305,0.96770,-0.21423,2023,6,9,18,7,44,656
3.67830,2.94000,-4.58500,0.00000,0.01623,0.97246,-0.21716,2023,6,9,18,7,44,667
3.67840,3.09750,-4.51500,0.00000,0.01415,0.97051,-0.21643,2023,6,9,18,7,44,678
3.67850,3.06250,-4.79500,0.00000,0.01476,0.96831,-0.21850,2023,6,9,18,7,44,690
3.67860,2.87000,-4.56750,0.00000,0.01440,0.96917,-0.21667,2023,6,9,18,7,44,701
3.67870,2.94000,-4.62000,0.00000,0.01366,0.96856,-0.21606,2023,6,9,18,7,44,712
3.67880,2.80000,-4.74250,0.00000,0.01440,0.96844,-0.21618,2023,6,9,18,7,44,723
3.67890,3.11500,-4.62000,0.00000,0.01354,0.96770,-0.21655,2023,6,9,18,7,44,734
3.67900,3.08000,-4.63750,0.00000,0.01427,0.96929,-0.21643,2023,6,9,18,7,44,745
3.67910,3.09750,-4.90000,0.00000,0.01501,0.96941,-0.21655,2023,6,9,18,7,44,756
3.67920,2.73000,-4.58500,0.00000,0.01366,0.96844,-0.21740,2023,6,9,18,7,44,767
3.67930,2.78250,-4.56750,0.00000,0.01293,0.97136,-0.21643,2023,6,9,18,7,44,778
3.67940,2.95750,-4.65500,0.00000,0.01501,0.97027,-0.21594,2023,6,9,18,7,44,790
3.67950,3.20250,-4.56750,0.00000,0.01305,0.96868,-0.21533,2023,6,9,18,7,44,801
3.67960,3.08000,-4.42750,0.00000,0.01452,0.96905,-0.21728,2023,6,9,18,7,44,812
3.67970,3.01000,-4.53250,0.00000,0.01293,0.96880,-0.21789,2023,6,9,18,7,44,823
3.67980,2.59000,-4.69000,0.00000,0.01391,0.96844,-0.21448,2023,6,9,18,7,44,834
3.67990,2.88750,-4.69000,0.00000,0.01562,0.96941,-0.21509,2023,6,9,18,7,44,845
3.68000,3.02750,-4.67250,0.00000,0.01257,0.97149,-0.21521,2023,6,9,18,7,44,856
3.68010,3.15000,-4.48000,0.00000,0.01501,0.96929,-0.21594,2023,6,9,18,7,44,867
3.68020,3.25500,-4.62000,0.00000,0.01513,0.96673,-0.21679,2023,6,9,18,7,44,878
3.68030,2.97500,-4.56750,0.00000,0.01427,0.96758,-0.21740,2023,6,9,18,7,44,890
3.68040,3.01000,-4.46250,0.00000,0.01171,0.96941,-0.21557,2023,6,9,18,7,44,901
3.68050,2.59000,-4.42750,0.00000,0.01330,0.96917,-0.21582,2023,6,9,18,7,44,912
3.68060,2.67750,-4.48000,0.00000,0.01513,0.97136,-0.21570,2023,6,9,18,7,44,923
3.68070,3.09750,-4.56750,0.00000,0.01318,0.96892,-0.21606,2023,6,9,18,7,44,934
3.68080,3.09750,-4.67250,0.00000,0.01440,0.96966,-0.21704,2023,6,9,18,7,44,945
3.68090,3.16750,-4.67250,0.00000,0.01537,0.96966,-0.21692,2023,6,9,18,7,44,956
3.68100,2.97500,-4.77750,0.00000,0.01220,0.96856,-0.21740,2023,6,9,18,7,44,967
3.68110,2.81750,-4.60250,0.00000,0.01318,0.96758,-0.21521,2023,6,9,18,7,44,978
3.68120,2.64250,-4.55000,0.00000,0.01342,0.97075,-0.21801,2023,6,9,18,7,45,0
3.68130,2.90500,-4.63750,0.00000,0.01366,0.97149,-0.21521,2023,6,9,18,7,45,11
3.68140,3.06250,-4.70750,0.00000,0.01549,0.97051,-0.21765,2023,6,9,18,7,45,22
3.68150,3.15000,-4.55000,0.00000,0.01440,0.96917,-0.21679,2023,6,9,18,7,45,33
3.68160,2.90500,-4.65500,0.00000,0.01427,0.97027,-0.21862,2023,6,9,18,7,45,44
3.68170,2.73000,-4.41000,0.00000,0.01232,0.96880,-0.21777,2023,6,9,18,7,45,55
3.68180,2.95750,-4.69000,0.00000,0.01366,0.96929,-0.21814,2023,6,9,18,7,45,66
3.68190,2.87000,-4.58500,0.00000,0.01305,0.96929,-0.21777,2023,6,9,18,7,45,77
3.68200,3.44750,-4.51500,0.00000,0.01342,0.96941,-0.21948,2023,6,9,18,7,45,88
3.68210,3.06250,-4.44500,0.00000,0.01354,0.96819,-0.21667,2023,6,9,18,7,45,100
3.68220,3.04500,-4.69000,0.00000,0.01440,0.96892,-0.21789,2023,6,9,18,7,45,111
3.68230,2.88750,-4.56750,0.00000,0.01476,0.96783,-0.21862,2023,6,9,18,7,45,122
3.68240,2.90500,-4.65500,0.00000,0.01342,0.96783,-0.21765,2023,6,9,18,7,45,133
3.68250,2.94000,-4.62000,0.00000,0.01427,0.97075,-0.21740,2023,6,9,18,7,45,144
3.68260,3.06250,-4.63750,0.00000,0.01244,0.97027,-0.21887,2023,6,9,18,7,45,155
3.68270,3.32500,-4.58500,0.00000,0.01244,0.96905,-0.21850,2023,6,9,18,7,45,166
3.68280,3.23750,-4.55000,0.00000,0.01403,0.96905,-0.21679,2023,6,9,18,7,45,177
3.68290,2.76500,-4.55000,0.00000,0.01293,0.96661,-0.21740,2023,6,9,18,7,45,188
3.68300,2.60750,-4.58500,0.00000,0.01074,0.96892,-0.21850,2023,6,9,18,7,45,200
3.68310,2.90500,-4.60250,0.00000,0.01427,0.96966,-0.21862,2023,6,9,18,7,45,211
3.68320,3.20250,-4.84750,0.00000,0.01427,0.96685,-0.21704,2023,6,9,18,7,45,222
3.68330,3.27250,-4.60250,0.00000,0.01623,0.96673,-0.21740,2023,6,9,18,7,45,233
3.68340,2.94000,-4.69000,0.00000,0.01501,0.96892,-0.21777,2023,6,9,18,7,45,244
3.68350,3.16750,-4.84750,0.00000,0.01318,0.97014,-0.22143,2023,6,9,18,7,45,255
3.68360,2.69500,-4.63750,0.00000,0.01354,0.96953,-0.22021,2023,6,9,18,7,45,266
3.68370,2.92250,-4.76000,0.00000,0.01244,0.96905,-0.21899,2023,6,9,18,7,45,277
3.68380,3.13250,-4.67250,0.00000,0.01549,0.97246,-0.21887,2023,6,9,18,7,45,288
3.68390,2.88750,-4.37500,0.00000,0.01501,0.96953,-0.21997,2023,6,9,18,7,45,300
3.68400,3.01000,-4.56750,0.00000,0.01330,0.96905,-0.21936,2023,6,9,18,7,45,311
3.68410,2.88750,-4.48000,0.00000,0.01537,0.96978,-0.21814,2023,6,9,18,7,45,322
3.68420,2.67750,-4.49750,0.00000,0.01488,0.97075,-0.21838,2023,6,9,18,7,45,333
3.68430,3.04500,-4.51500,0.00000,0.01635,0.96722,-0.21923,2023,6,9,18,7,45,344
3.68440,3.16750,-4.76000,0.00000,0.01415,0.96868,-0.21899,2023,6,9,18,7,45,355
3.68450,3.09750,-4.58500,0.00000,0.01415,0.96734,-0.22021,2023,6,9,18,7,45,366
3.68460,2.99250,-4.65500,0.00000,0.01513,0.97173,-0.21789,2023,6,9,18,7,45,377
3.68470,2.81750,-4.49750,0.00000,0.01452,0.96758,-0.21850,2023,6,9,18,7,45,388
3.68480,2.90500,-4.72500,0.00000,0.01293,0.97027,-0.22021,2023,6,9,18,7,45,400
3.68490,3.01000,-4.46250,0.00000,0.01501,0.96709,-0.21814,2023,6,9,18,7,45,411
3.68500,3.09750,-4.63750,0.00000,0.01476,0.96941,-0.22009,2023,6,9,18,7,45,422
3.68510,3.02750,-4.70750,0.00000,0.01427,0.97039,-0.21838,2023,6,9,18,7,45,433
3.68520,2.85250,-4.72500,0.00000,0.01440,0.97039,-0.21826,2023,6,9,18,7,45,444
3.68530,3.13250,-4.77750,0.00000,0.01562,0.97051,-0.21936,2023,6,9,18,7,45,455
3.68540,3.15000,-4.81250,0.00000,0.01208,0.96905,-0.22143,2023,6,9,18,7,45,466
3.68550,3.09750,-4.69000,0.00000,0.01257,0.96795,-0.22070,2023,6,9,18,7,45,477
3.68560,2.78250,-4.58500,0.00000,0.01415,0.96929,-0.22106,2023,6,9,18,7,45,488
3.68570,2.80000,-4.51500,0.00000,0.01293,0.96880,-0.22021,2023,6,9,18,7,45,500
3.68580,3.08000,-4.84750,0.00000,0.01501,0.96917,-0.21826,2023,6,9,18,7,45,511
3.68590,3.27250,-4.60250,0.00000,0.01476,0.96966,-0.22131,2023,6,9,18,7,45,522
3.68600,3.36000,-4.63750,0.00000,0.01513,0.97014,-0.22106,2023,6,9,18,7,45,533
3.68610,3.02750,-4.58500,0.00000,0.01610,0.96892,-0.22106,2023,6,9,18,7,45,544
3.68620,2.87000,-4.58500,0.00000,0.01464,0.97027,-0.21984,2023,6,9,18,7,45,555
3.68630,2.71250,-4.60250,0.00000,0.01427,0.97149,-0.21875,2023,6,9,18,7,45,566
3.68640,3.23750,-4.84750,0.00000,0.01342,0.96868,-0.21875,2023,6,9,18,7,45,577
3.68650,3.04500,-4.65500,0.00000,0.01208,0.96709,-0.21838,2023,6,9,18,7,45,588
3.68660,3.02750,-4.65500,0.00000,0.01623,0.96880,-0.22265,2023,6,9,18,7,45,600
3.68670,3.08000,-4.55000,0.00000,0.01366,0.96990,-0.22106,2023,6,9,18,7,45,611
3.68680,2.83500,-4.60250,0.00000,0.01440,0.97210,-0.21899,2023,6,9,18,7,45,622
3.68690,2.99250,-4.60250,0.00000,0.01330,0.96709,-0.21801,2023,6,9,18,7,45,633
3.68700,3.01000,-4.60250,0.00000,0.01293,0.96709,-0.21826,2023,6,9,18,7,45,644
3.68710,2.88750,-4.55000,0.00000,0.01318,0.96526,-0.21814,2023,6,9,18,7,45,655
3.68720,3.09750,-4.67250,0.00000,0.01501,0.96734,-0.21679,2023,6,9,18,7,45,666
3.68730,3.09750,-4.49750,0.00000,0.01281,0.96868,-0.21875,2023,6,9,18,7,45,677
3.68740,2.88750,-4.63750,0.00000,0.01464,0.96892,-0.22106,2023,6,9,18,7,45,688
3.68750,2.76500,-4.79500,0.00000,0.01403,0.96990,-0.21862,2023,6,9,18,7,45,700
3.68760,2.83500,-4.74250,0.00000,0.01293,0.96892,-0.21948,2023,6,9,18,7,45,711
3.68770,3.15000,-4.55000,0.00000,0.01574,0.97088,-0.21911,2023,6,9,18,7,45,722
3.68780,3.20250,-4.60250,0.00000,0.01476,0.97124,-0.21923,2023,6,9,18,7,45,733
3.68790,3.04500,-4.53250,0.00000,0.01647,0.96795,-0.22143,2023,6,9,18,7,45,744
3.68800,2.66000,-4.58500,0.00000,0.01488,0.96929,-0.21936,2023,6,9,18,7,45,755
3.68810,2.64250,-4.48000,0.00000,0.01379,0.97124,-0.21814,2023,6,9,18,7,45,766
3.68820,2.80000,-4.56750,0.00000,0.01342,0.96941,-0.21521,2023,6,9,18,7,45,777
3.68830,3.22000,-4.32250,0.00000,0.01281,0.96819,-0.21862,2023,6,9,18,7,45,788
3.68840,3.39500,-4.74250,0.00000,0.01232,0.96722,-0.21875,2023,6,9,18,7,45,800
3.68850,3.27250,-4.65500,0.00000,0.01562,0.96917,-0.21826,2023,6,9,18,7,45,811
3.68860,2.50250,-4.67250,0.00000,0.01354,0.96953,-0.21911,2023,6,9,18,7,45,822
3.68870,2.45000,-4.63750,0.00000,0.01513,0.96868,-0.21728,2023,6,9,18,7,45,833
3.68880,2.85250,-4.48000,0.00000,0.01708,0.96892,-0.21606,2023,6,9,18,7,45,844
3.68890,3.74500,-4.63750,0.00000,0.01354,0.97014,-0.21655,2023,6,9,18,7,45,855
3.68900,3.76250,-4.60250,0.00000,0.01488,0.96600,-0.21801,2023,6,9,18,7,45,866
3.68910,2.95750,-4.35750,0.00000,0.01696,0.96905,-0.22033,2023,6,9,18,7,45,877
3.68920,1.85500,-4.58500,0.00000,0.01488,0.96917,-0.21936,2023,6,9,18,7,45,888
3.68930,2.22250,-4.81250,0.00000,0.01452,0.96941,-0.21387,2023,6,9,18,7,45,900
3.68940,3.32500,-4.37500,0.00000,0.01537,0.96917,-0.21240,2023,6,9,18,7,45,911
3.68950,4.04250,-4.51500,0.00000,0.01098,0.96575,-0.21777,2023,6,9,18,7,45,922
3.68960,3.76250,-4.69000,0.00000,0.01305,0.96868,-0.21997,2023,6,9,18,7,45,933
3.68970,2.52000,-4.60250,0.00000,0.01159,0.96722,-0.21789,2023,6,9,18,7,45,944
3.68980,1.89000,-4.62000,0.00000,0.01598,0.96953,-0.21692,2023,6,9,18,7,45,955
3.68990,2.34500,-4.72500,0.00000,0.01501,0.96941,-0.21387,2023,6,9,18,7,45,966
3.69000,3.48250,-4.63750,0.00000,0.01403,0.96734,-0.21509,2023,6,9,18,7,45,977
3.69010,3.88500,-4.79500,0.00000,0.01269,0.97014,-0.21838,2023,6,9,18,7,45,988
3.69020,3.46500,-4.56750,0.00000,0.01281,0.96819,-0.21960,2023,6,9,18,7,46,0
3.69030,2.64250,-4.60250,0.00000,0.01452,0.96868,-0.21948,2023,6,9,18,7,46,11
3.69040,2.10000,-4.53250,0.00000,0.01452,0.97002,-0.21862,2023,6,9,18,7,46,22
3.69050,2.46750,-4.63750,0.00000,0.01476,0.97002,-0.21545,2023,6,9,18,7,46,33
3.69060,3.39500,-4.65500,0.00000,0.01440,0.96978,-0.21582,2023,6,9,18,7,46,44
3.69070,3.71000,-4.58500,0.00000,0.01244,0.96892,-0.21570,2023,6,9,18,7,46,55
3.69080,3.25500,-4.39250,0.00000,0.01440,0.96856,-0.21838,2023,6,9,18,7,46,66
3.69090,2.74750,-4.74250,0.00000,0.01440,0.96636,-0.21826,2023,6,9,18,7,46,77
3.69100,2.36250,-4.65500,0.00000,0.01244,0.96856,-0.21692,2023,6,9,18,7,46,88
3.69110,2.74750,-4.53250,0.00000,0.01525,0.96892,-0.21545,2023,6,9,18,7,46,100
3.69120,3.15000,-4.65500,0.00000,0.01196,0.96978,-0.21496,2023,6,9,18,7,46,111
3.69130,3.25500,-4.74250,0.00000,0.01208,0.97063,-0.21545,2023,6,9,18,7,46,122
3.69140,3.06250,-4.49750,0.00000,0.01354,0.97161,-0.21838,2023,6,9,18,7,46,133
3.69150,2.66000,-4.70750,0.00000,0.01244,0.97051,-0.21716,2023,6,9,18,7,46,144
3.69160,2.99250,-4.74250,0.00000,0.01354,0.96966,-0.21545,2023,6,9,18,7,46,155
3.69170,3.25500,-4.39250,0.00000,0.01488,0.96892,-0.21753,2023,6,9,18,7,46,166
3.69180,3.15000,-4.70750,0.00000,0.01427,0.96929,-0.21862,2023,6,9,18,7,46,177
3.69190,2.71250,-4.77750,0.00000,0.01305,0.97088,-0.21960,2023,6,9,18,7,46,188
3.69200,2.76500,-4.81250,0.00000,0.01525,0.97149,-0.21923,2023,6,9,18,7,46,200
3.69210,2.97500,-4.60250,0.00000,0.01257,0.96844,-0.21850,2023,6,9,18,7,46,211
3.69220,3.29000,-4.65500,0.00000,0.01501,0.96868,-0.21728,2023,6,9,18,7,46,222
3.69230,3.27250,-4.62000,0.00000,0.01403,0.96844,-0.21911,2023,6,9,18,7,46,233
3.69240,2.71250,-4.77750,0.00000,0.01427,0.96673,-0.21545,2023,6,9,18,7,46,244
3.69250,2.45000,-4.55000,0.00000,0.01391,0.96819,-0.21899,2023,6,9,18,7,46,255
3.69260,2.97500,-4.56750,0.00000,0.01415,0.96892,-0.21509,2023,6,9,18,7,46,266
3.69270,3.81500,-4.60250,0.00000,0.01537,0.96880,-0.21814,2023,6,9,18,7,46,277
3.69280,3.71000,-4.63750,0.00000,0.01549,0.96734,-0.21899,2023,6,9,18,7,46,288
3.69290,2.64250,-4.63750,0.00000,0.01525,0.96746,-0.21887,2023,6,9,18,7,46,300
3.69300,2.38000,-4.77750,0.00000,0.01342,0.96880,-0.21850,2023,6,9,18,7,46,311
3.69310,2.31000,-4.65500,0.00000,0.01610,0.97014,-0.21704,2023,6,9,18,7,46,322
3.69320,3.29000,-4.48000,0.00000,0.01647,0.97027,-0.21923,2023,6,9,18,7,46,333
3.69330,3.57000,-4.58500,0.00000,0.01342,0.96978,-0.21728,2023,6,9,18,7,46,344
3.69340,3.51750,-4.70750,0.00000,0.01293,0.97027,-0.22033,2023,6,9,18,7,46,355
3.69350,2.69500,-4.55000,0.00000,0.01183,0.96831,-0.21936,2023,6,9,18,7,46,366
3.69360,2.27500,-4.67250,0.00000,0.01415,0.96795,-0.21899,2023,6,9,18,7,46,377
3.69370,2.62500,-4.60250,0.00000,0.01257,0.96917,-0.21838,2023,6,9,18,7,46,388
3.69380,3.32500,-4.63750,0.00000,0.01501,0.97002,-0.21655,2023,6,9,18,7,46,400
3.69390,3.30750,-4.77750,0.00000,0.01513,0.96795,-0.21765,2023,6,9,18,7,46,411
3.69400,3.48250,-4.72500,0.00000,0.01464,0.97014,-0.22009,2023,6,9,18,7,46,422
3.69410,2.52000,-4.53250,0.00000,0.01513,0.96844,-0.21911,2023,6,9,18,7,46,433
3.69420,2.69500,-4.76000,0.00000,0.01379,0.96892,-0.21801,2023,6,9,18,7,46,444
3.69430,2.88750,-4.48000,0.00000,0.01379,0.97210,-0.21582,2023,6,9,18,7,46,455
3.69440,3.34250,-4.70750,0.00000,0.01525,0.96941,-0.22009,2023,6,9,18,7,46,466
3.69450,3.11500,-4.63750,0.00000,0.01342,0.96441,-0.22106,2023,6,9,18,7,46,477
3.69460,2.57250,-4.44500,0.00000,0.01647,0.96990,-0.22058,2023,6,9,18,7,46,488
3.69470,2.52000,-4.70750,0.00000,0.01427,0.96966,-0.21936,2023,6,9,18,7,46,500
3.69480,2.52000,-4.65500,0.00000,0.01452,0.97051,-0.21716,2023,6,9,18,7,46,511
3.69490,3.30750,-4.93500,0.00000,0.01354,0.97161,-0.21740,2023,6,9,18,7,46,522
3.69500,3.41250,-4.39250,0.00000,0.01476,0.97002,-0.21667,2023,6,9,18,7,46,533
3.69510,3.50000,-4.69000,0.00000,0.01415,0.97185,-0.22082,2023,6,9,18,7,46,544
3.69520,2.83500,-4.51500,0.00000,0.01452,0.96648,-0.21875,2023,6,9,18,7,46,555
3.69530,2.24000,-4.46250,0.00000,0.01244,0.96990,-0.21740,2023,6,9,18,7,46,566
3.69540,2.48500,-4.70750,0.00000,0.01415,0.97136,-0.21801,2023,6,9,18,7,46,577
3.69550,3.15000,-4.67250,0.00000,0.01464,0.97027,-0.21594,2023,6,9,18,7,46,588
3.69560,3.30750,-4.63750,0.00000,0.01525,0.97039,-0.21716,2023,6,9,18,7,46,600
3.69570,3.18500,-4.60250,0.00000,0.01427,0.96831,-0.21801,2023,6,9,18,7,46,611
3.69580,2.95750,-4.74250,0.00000,0.01244,0.96953,-0.21484,2023,6,9,18,7,46,622
3.69590,2.81750,-4.42750,0.00000,0.01269,0.96795,-0.21716,2023,6,9,18,7,46,633
3.69600,2.97500,-4.58500,0.00000,0.01403,0.97039,-0.21740,2023,6,9,18,7,46,644
3.69610,3.22000,-4.48000,0.00000,0.01354,0.96856,-0.21850,2023,6,9,18,7,46,655
3.69620,2.99250,-4.70750,0.00000,0.01696,0.97075,-0.21984,2023,6,9,18,7,46,666
3.69630,2.46750,-4.65500,0.00000,0.01415,0.96831,-0.21875,2023,6,9,18,7,46,677
3.69640,2.97500,-4.69000,0.00000,0.01440,0.97002,-0.21570,2023,6,9,18,7,46,688
3.69650,3.44750,-4.42750,0.00000,0.01501,0.96892,-0.21679,2023,6,9,18,7,46,700
3.69660,3.37750,-4.49750,0.00000,0.01379,0.96746,-0.21972,2023,6,9,18,7,46,711
3.69670,2.83500,-4.55000,0.00000,0.01513,0.96966,-0.21984,2023,6,9,18,7,46,722
3.69680,2.46750,-4.63750,0.00000,0.01281,0.97027,-0.21716,2023,6,9,18,7,46,733
3.69690,2.76500,-4.79500,0.00000,0.01464,0.96746,-0.21557,2023,6,9,18,7,46,744
3.69700,2.99250,-4.42750,0.00000,0.01513,0.96929,-0.21667,2023,6,9,18,7,46,755
3.69710,3.22000,-4.60250,0.00000,0.01391,0.96966,-0.21875,2023,6,9,18,7,46,766
3.69720,2.90500,-4.58500,0.00000,0.01562,0.97112,-0.21643,2023,6,9,18,7,46,777
3.69730,2.97500,-4.62000,0.00000,0.01342,0.97075,-0.21692,2023,6,9,18,7,46,788
3.69740,2.85250,-4.56750,0.00000,0.01293,0.96746,-0.21850,2023,6,9,18,7,46,800
3.69750,2.90500,-4.35750,0.00000,0.01525,0.96746,-0.21899,2023,6,9,18,7,46,811
3.69760,3.06250,-4.39250,0.00000,0.01244,0.97051,-0.21850,2023,6,9,18,7,46,822
3.69770,3.32500,-4.63750,0.00000,0.01525,0.96941,-0.21740,2023,6,9,18,7,46,833
3.69780,3.09750,-4.65500,0.00000,0.01623,0.96917,-0.21911,2023,6,9,18,7,46,844
3.69790,2.32750,-4.60250,0.00000,0.01732,0.97002,-0.21875,2023,6,9,18,7,46,855
3.69800,2.41500,-4.67250,0.00000,0.01427,0.97075,-0.21801,2023,6,9,18,7,46,866
3.69810,2.81750,-4.55000,0.00000,0.01476,0.97088,-0.21484,2023,6,9,18,7,46,877
3.69820,3.20250,-4.76000,0.00000,0.01354,0.97014,-0.21533,2023,6,9,18,7,46,888
3.69830,3.90250,-4.76000,0.00000,0.01354,0.96990,-0.21801,2023,6,9,18,7,46,900
3.69840,3.50000,-4.72500,0.00000,0.01391,0.96697,-0.21887,2023,6,9,18,7,46,911
3.69850,2.59000,-4.62000,0.00000,0.01293,0.96746,-0.21826,2023,6,9,18,7,46,922
3.69860,2.04750,-4.74250,0.00000,0.01354,0.96905,-0.21521,2023,6,9,18,7,46,933
3.69870,2.29250,-4.65500,0.00000,0.01415,0.97075,-0.21435,2023,6,9,18,7,46,944
3.69880,3.48250,-4.63750,0.00000,0.01598,0.97100,-0.21545,2023,6,9,18,7,46,955
3.69890,3.99000,-4.60250,0.00000,0.01330,0.96880,-0.21631,2023,6,9,18,7,46,966
3.69900,3.36000,-4.51500,0.00000,0.01586,0.96758,-0.21948,2023,6,9,18,7,46,977
3.69910,2.48500,-4.69000,0.00000,0.01232,0.96783,-0.21948,2023,6,9,18,7,46,988
3.69920,2.41500,-4.65500,0.00000,0.01403,0.97161,-0.21899,2023,6,9,18,7,46,0
3.69930,3.13250,-4.62000,0.00000,0.01379,0.96892,-0.21923,2023,6,9,18,7,46,11
3.69940,3.51750,-4.69000,0.00000,0.01586,0.96844,-0.21972,2023,6,9,18,7,47,2
3.69950,3.06250,-4.37500,0.00000,0.01610,0.96746,-0.22070,2023,6,9,18,7,47,13
3.69960,2.50250,-4.63750,0.00000,0.01525,0.96783,-0.22009,2023,6,9,18,7,47,24
3.69970,2.59000,-4.56750,0.00000,0.01501,0.96612,-0.21716,2023,6,9,18,7,47,35
3.69980,2.88750,-4.42750,0.00000,0.01513,0.96661,-0.21496,2023,6,9,18,7,47,46
3.69990,3.79750,-4.56750,0.00000,0.01318,0.97149,-0.22021,2023,6,9,18,7,47,57
3.70000,3.44750,-4.63750,0.00000,0.01293,0.97112,-0.22241,2023,6,9,18,7,47,68
3.70010,2.55500,-4.56750,0.00000,0.01269,0.96880,-0.21997,2023,6,9,18,7,47,80
3.70020,2.24000,-4.74250,0.00000,0.01452,0.96746,-0.21814,2023,6,9,18,7,47,91
3.70030,2.55500,-4.55000,0.00000,0.01476,0.96929,-0.21423,2023,6,9,18,7,47,102
3.70040,3.16750,-4.70750,0.00000,0.01208,0.97051,-0.21716,2023,6,9,18,7,47,113
3.70050,3.57000,-4.70750,0.00000,0.01415,0.97149,-0.21728,2023,6,9,18,7,47,124
3.70060,3.78000,-4.49750,0.00000,0.01464,0.96709,-0.22326,2023,6,9,18,7,47,135
3.70070,2.66000,-4.77750,0.00000,0.01281,0.96880,-0.22009,2023,6,9,18,7,47,146
3.70080,2.15250,-4.42750,0.00000,0.01318,0.96892,-0.21753,2023,6,9,18,7,47,157
3.70090,2.11750,-4.55000,0.00000,0.01354,0.97185,-0.21789,2023,6,9,18,7,47,168
3.70100,3.18500,-4.56750,0.00000,0.01391,0.97051,-0.21814,2023,6,9,18,7,47,180
3.70110,3.67500,-4.39250,0.00000,0.01379,0.96941,-0.22021,2023,6,9,18,7,47,191
3.70120,3.32500,-4.60250,0.00000,0.01598,0.97088,-0.22228,2023,6,9,18,7,47,202
3.70130,2.41500,-4.42750,0.00000,0.01183,0.96831,-0.22021,2023,6,9,18,7,47,213
3.70140,2.11750,-4.60250,0.00000,0.01440,0.96941,-0.21899,2023,6,9,18,7,47,224
3.70150,2.83500,-4.55000,0.00000,0.01318,0.96819,-0.21838,2023,6,9,18,7,47,235
3.70160,3.37750,-4.63750,0.00000,0.01244,0.96783,-0.21740,2023,6,9,18,7,47,246
3.70170,3.46500,-4.67250,0.00000,0.01501,0.96880,-0.22082,2023,6,9,18,7,47,257
3.70180,3.01000,-4.63750,0.00000,0.01257,0.96746,-0.21692,2023,6,9,18,7,47,268
3.70190,2.60750,-4.95250,0.00000,0.01440,0.96868,-0.22045,2023,6,9,18,7,47,280
3.70200,2.71250,-4.67250,0.00000,0.01464,0.97014,-0.21923,2023,6,9,18,7,47,291
3.70210,3.04500,-4.70750,0.00000,0.01452,0.96807,-0.21606,2023,6,9,18,7,47,302
3.70220,3.30750,-4.37500,0.00000,0.01452,0.97112,-0.22033,2023,6,9,18,7,47,313
3.70230,3.29000,-4.74250,0.00000,0.01501,0.96819,-0.21814,2023,6,9,18,7,47,324
3.70240,2.87000,-4.70750,0.00000,0.01440,0.97112,-0.22119,2023,6,9,18,7,47,335
3.70250,2.67750,-4.83000,0.00000,0.01366,0.96856,-0.22082,2023,6,9,18,7,47,346
3.70260,2.43250,-4.74250,0.00000,0.01464,0.96819,-0.21838,2023,6,9,18,7,47,357
3.70270,3.01000,-4.53250,0.00000,0.01208,0.97124,-0.21801,2023,6,9,18,7,47,368
3.70280,3.55250,-4.76000,0.00000,0.01293,0.96892,-0.21997,2023,6,9,18,7,47,380
3.70290,3.18500,-4.76000,0.00000,0.01354,0.96648,-0.22216,2023,6,9,18,7,47,391
3.70300,2.81750,-4.65500,0.00000,0.01440,0.96953,-0.21997,2023,6,9,18,7,47,402
3.70310,2.55500,-4.42750,0.00000,0.01513,0.96758,-0.21972,2023,6,9,18,7,47,413
3.70320,2.83500,-4.60250,0.00000,0.01537,0.96868,-0.21643,2023,6,9,18,7,47,424
3.70330,3.23750,-4.74250,0.00000,0.01366,0.96831,-0.21948,2023,6,9,18,7,47,435
3.70340,3.36000,-4.46250,0.00000,0.01366,0.96941,-0.22033,2023,6,9,18,7,47,446
3.70350,3.11500,-4.65500,0.00000,0.01281,0.96905,-0.22009,2023,6,9,18,7,47,457
3.70360,2.55500,-4.76000,0.00000,0.01440,0.96831,-0.21838,2023,6,9,18,7,47,468
3.70370,2.78250,-4.41000,0.00000,0.01452,0.97075,-0.21814,2023,6,9,18,7,47,480
3.70380,2.95750,-4.46250,0.00000,0.01440,0.97039,-0.21826,2023,6,9,18,7,47,491
3.70390,2.99250,-4.41000,0.00000,0.01464,0.97149,-0.22045,2023,6,9,18,7,47,502
3.70400,3.22000,-4.60250,0.00000,0.01659,0.96697,-0.21948,2023,6,9,18,7,47,513
3.70410,2.94000,-4.69000,0.00000,0.01586,0.96868,-0.21948,2023,6,9,18,7,47,524
3.70420,2.78250,-4.72500,0.00000,0.01379,0.96978,-0.21704,2023,6,9,18,7,47,535
3.70430,2.94000,-4.65500,0.00000,0.01537,0.97124,-0.21704,2023,6,9,18,7,47,546
3.70440,3.16750,-4.48000,0.00000,0.01610,0.96966,-0.21692,2023,6,9,18,7,47,557
3.70450,3.18500,-4.67250,0.00000,0.01269,0.96709,-0.21887,2023,6,9,18,7,47,568
3.70460,2.90500,-4.76000,0.00000,0.01196,0.96734,-0.21789,2023,6,9,18,7,47,580
3.70470,2.76500,-4.70750,0.00000,0.01330,0.97063,-0.21960,2023,6,9,18,7,47,591
3.70480,2.81750,-4.69000,0.00000,0.01366,0.96929,-0.22143,2023,6,9,18,7,47,602
3.70490,3.02750,-4.48000,0.00000,0.01440,0.97063,-0.21984,2023,6,9,18,7,47,613
3.70500,3.13250,-4.63750,0.00000,0.01598,0.97100,-0.21789,2023,6,9,18,7,47,624
3.70510,2.78250,-4.63750,0.00000,0.01281,0.96978,-0.21972,2023,6,9,18,7,47,635
3.70520,2.78250,-4.49750,0.00000,0.01318,0.96929,-0.21984,2023,6,9,18,7,47,646
3.70530,2.90500,-4.55000,0.00000,0.01293,0.97051,-0.22033,2023,6,9,18,7,47,657
3.70540,2.94000,-4.56750,0.00000,0.01403,0.96892,-0.22045,2023,6,9,18,7,47,668
3.70550,2.95750,-4.56750,0.00000,0.01244,0.96844,-0.21875,2023,6,9,18,7,47,680
3.70560,2.85250,-4.72500,0.00000,0.01452,0.96770,-0.22155,2023,6,9,18,7,47,691
3.70570,2.99250,-4.69000,0.00000,0.01305,0.96819,-0.21862,2023,6,9,18,7,47,702
3.70580,2.83500,-4.55000,0.00000,0.01415,0.97088,-0.22082,2023,6,9,18,7,47,713
3.70590,3.01000,-4.67250,0.00000,0.01598,0.97173,-0.22033,2023,6,9,18,7,47,724
3.70600,3.22000,-4.74250,0.00000,0.01476,0.97332,-0.22106,2023,6,9,18,7,47,735
3.70610,2.88750,-4.77750,0.00000,0.01537,0.96783,-0.21850,2023,6,9,18,7,47,746
3.70620,2.83500,-4.63750,0.00000,0.01342,0.96563,-0.21643,2023,6,9,18,7,47,757
3.70630,2.95750,-4.62000,0.00000,0.01476,0.97002,-0.22131,2023,6,9,18,7,47,768
3.70640,2.90500,-4.70750,0.00000,0.01293,0.96868,-0.21875,2023,6,9,18,7,47,780
3.70650,3.08000,-4.46250,0.00000,0.01354,0.96978,-0.22228,2023,6,9,18,7,47,791
3.70660,2.97500,-4.53250,0.00000,0.01354,0.97088,-0.21887,2023,6,9,18,7,47,802
3.70670,3.02750,-4.76000,0.00000,0.01647,0.96990,-0.22094,2023,6,9,18,7,47,813
3.70680,2.92250,-4.74250,0.00000,0.01635,0.96880,-0.21789,2023,6,9,18,7,47,824
3.70690,2.85250,-4.79500,0.00000,0.01525,0.96746,-0.21850,2023,6,9,18,7,47,835
3.70700,2.99250,-4.62000,0.00000,0.01342,0.96880,-0.21911,2023,6,9,18,7,47,846
3.70710,3.09750,-4.58500,0.00000,0.01403,0.96941,-0.22155,2023,6,9,18,7,47,857
3.70720,3.13250,-4.77750,0.00000,0.01488,0.96953,-0.22033,2023,6,9,18,7,47,868
3.70730,2.73000,-4.56750,0.00000,0.01366,0.96917,-0.22009,2023,6,9,18,7,47,880
3.70740,2.73000,-4.65500,0.00000,0.01440,0.97027,-0.21777,2023,6,9,18,7,47,891
3.70750,2.83500,-4.98750,0.00000,0.01403,0.96770,-0.21557,2023,6,9,18,7,47,902
3.70760,3.22000,-4.77750,0.00000,0.01403,0.97088,-0.21801,2023,6,9,18,7,47,913
3.70770,3.25500,-4.60250,0.00000,0.01269,0.96783,-0.21972,2023,6,9,18,7,47,924
3.70780,3.01000,-4.84750,0.00000,0.01330,0.96856,-0.21753,2023,6,9,18,7,47,935
3.70790,2.64250,-4.72500,0.00000,0.01354,0.96953,-0.21862,2023,6,9,18,7,47,946
3.70800,2.85250,-4.86500,0.00000,0.01525,0.96868,-0.21899,2023,6,9,18,7,47,957
3.70810,3.23750,-4.74250,0.00000,0.01501,0.96880,-0.22106,2023,6,9,18,7,47,968
3.70820,3.22000,-4.76000,0.00000,0.01366,0.96892,-0.21887,2023,6,9,18,7,47,980
3.70830,2.88750,-4.60250,0.00000,0.01440,0.96648,-0.21801,2023,6,9,18,7,48,1
3.70840,2.94000,-4.70750,0.00000,0.01196,0.96734,-0.22033,2023,6,9,18,7,48,12
3.70850,3.06250,-4.58500,0.00000,0.01440,0.96966,-0.21972,2023,6,9,18,7,48,23
3.70860,3.06250,-4.67250,0.00000,0.01549,0.96709,-0.21984,2023,6,9,18,7,48,34
3.70870,2.95750,-4.62000,0.00000,0.01330,0.96770,-0.21948,2023,6,9,18,7,48,45
3.70880,2.76500,-4.63750,0.00000,0.01562,0.96929,-0.21826,2023,6,9,18,7,48,56
3.70890,2.81750,-4.70750,0.00000,0.01366,0.97136,-0.21655,2023,6,9,18,7,48,67
3.70900,3.02750,-4.51500,0.00000,0.01403,0.96795,-0.21899,2023,6,9,18,7,48,78
3.70910,3.51750,-4.74250,0.00000,0.01464,0.97014,-0.22167,2023,6,9,18,7,48,90
3.70920,3.30750,-4.58500,0.00000,0.01305,0.96831,-0.22045,2023,6,9,18,7,48,101
3.70930,2.29250,-4.69000,0.00000,0.01086,0.96917,-0.21997,2023,6,9,18,7,48,112
3.70940,2.55500,-4.62000,0.00000,0.01476,0.97002,-0.21814,2023,6,9,18,7,48,123
3.70950,2.97500,-4.60250,0.00000,0.01415,0.96953,-0.21789,2023,6,9,18,7,48,134
3.70960,3.41250,-4.53250,0.00000,0.01330,0.96966,-0.21875,2023,6,9,18,7,48,145
3.70970,3.20250,-4.58500,0.00000,0.01257,0.96966,-0.22119,2023,6,9,18,7,48,156
3.70980,2.60750,-4.74250,0.00000,0.01562,0.97112,-0.21801,2023,6,9,18,7,48,167
3.70990,2.50250,-4.60250,0.00000,0.01171,0.97014,-0.21801,2023,6,9,18,7,48,178
3.71000,3.15000,-4.84750,0.00000,0.01501,0.96795,-0.21826,2023,6,9,18,7,48,190
3.71010,3.39500,-4.81250,0.00000,0.01415,0.96807,-0.21557,2023,6,9,18,7,48,201
3.71020,3.23750,-4.53250,0.00000,0.01318,0.97002,-0.21789,2023,6,9,18,7,48,212
3.71030,2.52000,-4.48000,0.00000,0.01354,0.96844,-0.21728,2023,6,9,18,7,48,223
3.71040,2.71250,-4.63750,0.00000,0.01342,0.96929,-0.21594,2023,6,9,18,7,48,234
3.71050,2.95750,-4.63750,0.00000,0.01342,0.97173,-0.21716,2023,6,9,18,7,48,245
3.71060,3.44750,-4.74250,0.00000,0.01342,0.96917,-0.21753,2023,6,9,18,7,48,256
3.71070,3.23750,-4.91750,0.00000,0.01476,0.97088,-0.21911,2023,6,9,18,7,48,267
3.71080,3.06250,-4.69000,0.00000,0.01342,0.96844,-0.22241,2023,6,9,18,7,48,278
3.71090,2.66000,-4.69000,0.00000,0.01305,0.96636,-0.21448,2023,6,9,18,7,48,290
3.71100,2.78250,-4.67250,0.00000,0.01318,0.96917,-0.21606,2023,6,9,18,7,48,301
3.71110,3.29000,-4.76000,0.00000,0.01476,0.97112,-0.21740,2023,6,9,18,7,48,312
3.71120,3.44750,-4.86500,0.00000,0.01440,0.96856,-0.21777,2023,6,9,18,7,48,323
3.71130,2.85250,-4.63750,0.00000,0.01305,0.97136,-0.21850,2023,6,9,18,7,48,334
3.71140,2.95750,-4.83000,0.00000,0.01440,0.96770,-0.21594,2023,6,9,18,7,48,345
3.71150,2.74750,-4.46250,0.00000,0.01562,0.96929,-0.21667,2023,6,9,18,7,48,356
3.71160,3.08000,-4.69000,0.00000,0.01391,0.96734,-0.21606,2023,6,9,18,7,48,367
3.71170,3.37750,-4.79500,0.00000,0.01610,0.96856,-0.21997,2023,6,9,18,7,48,378
3.71180,3.02750,-4.69000,0.00000,0.01122,0.97014,-0.21948,2023,6,9,18,7,48,390
3.71190,2.95750,-4.53250,0.00000,0.01379,0.96880,-0.21936,2023,6,9,18,7,48,401
3.71200,2.78250,-4.74250,0.00000,0.01171,0.96966,-0.21740,2023,6,9,18,7,48,412
3.71210,3.01000,-4.56750,0.00000,0.01452,0.96941,-0.21679,2023,6,9,18,7,48,423
3.71220,3.13250,-4.72500,0.00000,0.01452,0.97027,-0.21875,2023,6,9,18,7,48,434
3.71230,3.06250,-4.79500,0.00000,0.01293,0.96831,-0.21887,2023,6,9,18,7,48,445
3.71240,3.01000,-4.63750,0.00000,0.01452,0.96905,-0.21911,2023,6,9,18,7,48,456
3.71250,3.04500,-4.69000,0.00000,0.01281,0.97002,-0.21777,2023,6,9,18,7,48,467
3.71260,2.97500,-4.67250,0.00000,0.01318,0.96856,-0.21911,2023,6,9,18,7,48,478
3.71270,2.95750,-4.58500,0.00000,0.01208,0.96966,-0.22021,2023,6,9,18,7,48,490
3.71280,2.78250,-4.76000,0.00000,0.01513,0.97027,-0.21801,2023,6,9,18,7,48,501
3.71290,3.08000,-4.69000,0.00000,0.01440,0.96783,-0.21936,2023,6,9,18,7,48,512
3.71300,2.97500,-4.62000,0.00000,0.01476,0.96868,-0.21972,2023,6,9,18,7,48,523
3.71310,2.88750,-4.56750,0.00000,0.01391,0.96978,-0.22058,2023,6,9,18,7,48,534
3.71320,2.95750,-4.58500,0.00000,0.01330,0.97002,-0.21887,2023,6,9,18,7,48,545
3.71330,3.18500,-4.76000,0.00000,0.01513,0.96966,-0.22167,2023,6,9,18,7,48,556
3.71340,3.02750,-4.60250,0.00000,0.01501,0.96966,-0.22058,2023,6,9,18,7,48,567
3.71350,2.99250,-4.70750,0.00000,0.01305,0.96856,-0.22009,2023,6,9,18,7,48,578
3.71360,2.76500,-4.51500,0.00000,0.01415,0.96868,-0.21801,2023,6,9,18,7,48,590
3.71370,3.16750,-4.41000,0.00000,0.01330,0.97051,-0.21777,2023,6,9,18,7,48,601
3.71380,3.16750,-4.58500,0.00000,0.01183,0.96941,-0.21753,2023,6,9,18,7,48,612
3.71390,3.09750,-4.53250,0.00000,0.01464,0.96929,-0.22033,2023,6,9,18,7,48,623
3.71400,2.74750,-4.51500,0.00000,0.01586,0.97161,-0.22033,2023,6,9,18,7,48,634
3.71410,2.64250,-4.70750,0.00000,0.01147,0.97112,-0.21862,2023,6,9,18,7,48,645
3.71420,2.92250,-4.63750,0.00000,0.01501,0.96917,-0.21631,2023,6,9,18,7,48,656
3.71430,2.92250,-4.62000,0.00000,0.01562,0.97027,-0.21887,2023,6,9,18,7,48,667
3.71440,3.01000,-4.69000,0.00000,0.01318,0.97100,-0.21716,2023,6,9,18,7,48,678
3.71450,3.02750,-4.81250,0.00000,0.01379,0.96783,-0.22058,2023,6,9,18,7,48,690
3.71460,2.87000,-4.79500,0.00000,0.01354,0.96917,-0.21875,2023,6,9,18,7,48,701
3.71470,2.99250,-4.70750,0.00000,0.01501,0.96978,-0.21814,2023,6,9,18,7,48,712
3.71480,3.08000,-4.69000,0.00000,0.01269,0.97002,-0.21655,2023,6,9,18,7,48,723
3.71490,2.90500,-4.81250,0.00000,0.01171,0.96844,-0.21692,2023,6,9,18,7,48,734
3.71500,2.81750,-4.55000,0.00000,0.01293,0.96917,-0.21850,2023,6,9,18,7,48,745
3.71510,3.08000,-4.42750,0.00000,0.01501,0.96917,-0.21655,2023,6,9,18,7,48,756
3.71520,2.85250,-4.55000,0.00000,0.01391,0.96917,-0.21899,2023,6,9,18,7,48,767
3.71530,2.73000,-4.49750,0.00000,0.01232,0.97075,-0.21667,2023,6,9,18,7,48,778
3.71540,2.95750,-4.74250,0.00000,0.01391,0.96978,-0.21472,2023,6,9,18,7,48,790
3.71550,3.22000,-4.76000,0.00000,0.01501,0.96990,-0.21740,2023,6,9,18,7,48,801
3.71560,3.15000,-4.67250,0.00000,0.01293,0.96941,-0.21960,2023,6,9,18,7,48,812
3.71570,2.94000,-4.49750,0.00000,0.01720,0.96746,-0.21997,2023,6,9,18,7,48,823
3.71580,2.83500,-4.62000,0.00000,0.01293,0.96697,-0.21728,2023,6,9,18,7,48,834
3.71590,2.74750,-4.56750,0.00000,0.01537,0.96880,-0.21606,2023,6,9,18,7,48,845
3.71600,3.20250,-4.65500,0.00000,0.01415,0.97051,-0.21618,2023,6,9,18,7,48,856
3.71610,3.22000,-4.44500,0.00000,0.01427,0.96819,-0.21655,2023,6,9,18,7,48,867
3.71620,3.11500,-4.69000,0.00000,0.01452,0.96953,-0.21826,2023,6,9,18,7,48,878
3.71630,3.16750,-4.72500,0.00000,0.01415,0.96868,-0.21631,2023,6,9,18,7,48,890
3.71640,2.95750,-4.63750,0.00000,0.01366,0.96807,-0.21875,2023,6,9,18,7,48,901
3.71650,2.92250,-4.69000,0.00000,0.01208,0.97149,-0.21716,2023,6,9,18,7,48,912
3.71660,3.01000,-4.67250,0.00000,0.01171,0.97100,-0.21801,2023,6,9,18,7,48,923
3.71670,3.01000,-4.58500,0.00000,0.01623,0.96905,-0.21789,2023,6,9,18,7,48,934
3.71680,2.95750,-4.51500,0.00000,0.01488,0.96831,-0.21667,2023,6,9,18,7,48,945
3.71690,2.88750,-4.63750,0.00000,0.01318,0.97002,-0.21716,2023,6,9,18,7,48,956
3.71700,2.99250,-4.49750,0.00000,0.01379,0.97063,-0.21789,2023,6,9,18,7,48,967
3.71710,2.97500,-4.70750,0.00000,0.01440,0.97124,-0.21753,2023,6,9,18,7,48,978
3.71720,2.95750,-4.48000,0.00000,0.01464,0.96844,-0.21740,2023,6,9,18,7,49,0
3.71730,3.04500,-4.74250,0.00000,0.01342,0.96917,-0.21667,2023,6,9,18,7,49,11
3.71740,3.27250,-4.84750,0.00000,0.01257,0.96905,-0.21521,2023,6,9,18,7,49,22
3.71750,3.13250,-4.69000,0.00000,0.01464,0.96905,-0.21765,2023,6,9,18,7,49,33
3.71760,2.88750,-4.63750,0.00000,0.01476,0.96978,-0.21765,2023,6,9,18,7,49,44
3.71770,2.88750,-4.67250,0.00000,0.01440,0.97039,-0.21606,2023,6,9,18,7,49,55
3.71780,2.99250,-4.65500,0.00000,0.01440,0.96892,-0.21765,2023,6,9,18,7,49,66
3.71790,2.81750,-4.62000,0.00000,0.01403,0.96917,-0.21814,2023,6,9,18,7,49,77
3.71800,2.95750,-4.70750,0.00000,0.01257,0.97063,-0.21826,2023,6,9,18,7,49,88
3.71810,2.76500,-4.51500,0.00000,0.01574,0.96990,-0.21692,2023,6,9,18,7,49,100
3.71820,2.99250,-4.55000,0.00000,0.01452,0.96831,-0.21728,2023,6,9,18,7,49,111
3.71830,3.18500,-4.79500,0.00000,0.01379,0.96758,-0.21765,2023,6,9,18,7,49,122
3.71840,3.01000,-4.56750,0.00000,0.01354,0.96819,-0.21692,2023,6,9,18,7,49,133
3.71850,2.87000,-4.63750,0.00000,0.01391,0.96892,-0.21838,2023,6,9,18,7,49,144
3.71860,2.81750,-4.63750,0.00000,0.01525,0.96795,-0.21618,2023,6,9,18,7,49,155
3.71870,2.95750,-4.76000,0.00000,0.01574,0.96844,-0.21801,2023,6,9,18,7,49,166
3.71880,3.18500,-4.81250,0.00000,0.01391,0.96746,-0.21582,2023,6,9,18,7,49,177
3.71890,3.09750,-4.51500,0.00000,0.01403,0.97014,-0.21838,2023,6,9,18,7,49,188
3.71900,3.06250,-4.67250,0.00000,0.01415,0.96831,-0.21923,2023,6,9,18,7,49,200
3.71910,2.92250,-4.70750,0.00000,0.01574,0.96929,-0.21631,2023,6,9,18,7,49,211
3.71920,2.81750,-4.58500,0.00000,0.01366,0.97075,-0.21887,2023,6,9,18,7,49,222
3.71930,3.01000,-4.55000,0.00000,0.01281,0.96856,-0.21740,2023,6,9,18,7,49,233
3.71940,3.02750,-4.69000,0.00000,0.01366,0.96807,-0.21679,2023,6,9,18,7,49,244
3.71950,2.73000,-4.55000,0.00000,0.01366,0.96648,-0.21667,2023,6,9,18,7,49,255
3.71960,2.94000,-4.65500,0.00000,0.01610,0.97100,-0.21960,2023,6,9,18,7,49,266
3.71970,2.97500,-4.69000,0.00000,0.01415,0.96978,-0.21692,2023,6,9,18,7,49,277
3.71980,3.04500,-4.58500,0.00000,0.01244,0.96929,-0.21692,2023,6,9,18,7,49,288
3.71990,3.08000,-4.67250,0.00000,0.01366,0.96966,-0.21862,2023,6,9,18,7,49,300
3.72000,3.13250,-4.63750,0.00000,0.01586,0.97014,-0.21582,2023,6,9,18,7,49,311
3.72010,2.88750,-4.70750,0.00000,0.01305,0.97063,-0.21460,2023,6,9,18,7,49,322
3.72020,2.87000,-4.55000,0.00000,0.01464,0.96905,-0.21472,2023,6,9,18,7,49,333
