#2023/06/09 12:38:08
time,wx,wy,wz,ax,ay,az,yy,MM,dd,hh,mm,ss,ms
0.18690,2.85250,-4.58500,0.00000,0.00317,0.96551,-0.22655,2023,6,9,12,38,8,193
0.18700,2.83500,-4.77750,0.00000,0.00232,0.96624,-0.22680,2023,6,9,12,38,8,204
0.18710,2.85250,-4.58500,0.00000,-0.00037,0.96587,-0.22594,2023,6,9,12,38,8,215
0.18720,2.92250,-4.65500,0.00000,0.00464,0.96795,-0.22631,2023,6,9,12,38,8,226
0.18730,3.01000,-4.60250,0.00000,0.00342,0.96661,-0.22729,2023,6,9,12,38,8,237
0.18740,2.71250,-4.65500,0.00000,0.00232,0.96709,-0.22448,2023,6,9,12,38,8,248
0.18750,2.78250,-4.77750,0.00000,0.00244,0.96758,-0.22363,2023,6,9,12,38,8,259
0.18760,2.94000,-4.48000,0.00000,0.00244,0.96648,-0.22814,2023,6,9,12,38,8,270
0.18770,2.83500,-4.69000,0.00000,0.00256,0.96661,-0.22485,2023,6,9,12,38,8,281
0.18780,2.80000,-4.81250,0.00000,0.00305,0.96795,-0.22289,2023,6,9,12,38,8,292
0.18790,3.01000,-4.67250,0.00000,0.00220,0.96673,-0.22838,2023,6,9,12,38,8,304
0.18800,2.71250,-4.67250,0.00000,0.00244,0.96856,-0.22802,2023,6,9,12,38,8,315
0.18810,2.55500,-4.63750,0.00000,0.00012,0.96551,-0.22253,2023,6,9,12,38,8,326
0.18820,2.90500,-4.79500,0.00000,0.00195,0.96770,-0.22777,2023,6,9,12,38,8,337
0.18830,2.97500,-4.70750,0.00000,0.00232,0.96758,-0.22741,2023,6,9,12,38,8,348
0.18840,2.74750,-4.98750,0.00000,0.00049,0.96404,-0.22411,2023,6,9,12,38,8,359
0.18850,2.78250,-4.63750,0.00000,0.00342,0.96722,-0.22350,2023,6,9,12,38,8,370
0.18860,2.80000,-4.70750,0.00000,0.00317,0.96844,-0.22826,2023,6,9,12,38,8,381
0.18870,2.87000,-4.55000,0.00000,0.00012,0.96661,-0.22582,2023,6,9,12,38,8,392
0.18880,2.88750,-4.46250,0.00000,0.00415,0.96587,-0.22826,2023,6,9,12,38,8,404
0.18890,2.78250,-4.46250,0.00000,0.00268,0.96648,-0.22753,2023,6,9,12,38,8,415
0.18900,2.66000,-4.60250,0.00000,0.00500,0.96685,-0.22680,2023,6,9,12,38,8,426
0.18910,2.85250,-4.51500,0.00000,0.00256,0.97185,-0.22460,2023,6,9,12,38,8,437
0.18920,2.81750,-4.48000,0.00000,0.00427,0.96722,-0.22680,2023,6,9,12,38,8,448
0.18930,3.06250,-4.67250,0.00000,0.00451,0.96465,-0.22607,2023,6,9,12,38,8,459
0.18940,2.83500,-4.55000,0.00000,0.00049,0.96551,-0.22631,2023,6,9,12,38,8,470
0.18950,2.83500,-4.39250,0.00000,0.00390,0.96746,-0.22875,2023,6,9,12,38,8,481
0.18960,2.95750,-4.58500,0.00000,0.00232,0.96502,-0.22802,2023,6,9,12,38,8,492
0.18970,2.87000,-4.53250,0.00000,0.00366,0.96417,-0.22790,2023,6,9,12,38,8,504
0.18980,2.76500,-4.16500,0.00000,0.00171,0.96697,-0.22472,2023,6,9,12,38,8,515
0.18990,2.95750,-4.28750,0.00000,0.00256,0.96783,-0.22875,2023,6,9,12,38,8,526
0.19000,2.80000,-4.48000,0.00000,0.00329,0.96819,-0.22631,2023,6,9,12,38,8,537
0.19010,2.69500,-4.58500,0.00000,0.00207,0.96807,-0.22533,2023,6,9,12,38,8,548
0.19020,2.92250,-4.83000,0.00000,0.00317,0.96770,-0.22594,2023,6,9,12,38,8,559
0.19030,2.76500,-4.63750,0.00000,0.00281,0.96343,-0.22399,2023,6,9,12,38,8,570
0.19040,2.69500,-4.84750,0.00000,0.00354,0.96831,-0.22070,2023,6,9,12,38,8,581
0.19050,2.78250,-4.56750,0.00000,0.00281,0.97002,-0.22692,2023,6,9,12,38,8,592
0.19060,2.81750,-4.65500,0.00000,0.00073,0.96746,-0.22851,2023,6,9,12,38,8,604
0.19070,2.76500,-4.51500,0.00000,0.00183,0.96514,-0.22155,2023,6,9,12,38,8,615
0.19080,2.71250,-4.69000,0.00000,0.00207,0.96905,-0.22424,2023,6,9,12,38,8,626
0.19090,2.66000,-4.58500,0.00000,-0.00024,0.96636,-0.22765,2023,6,9,12,38,8,637
0.19100,2.87000,-4.63750,0.00000,0.00268,0.96587,-0.22363,2023,6,9,12,38,8,648
0.19110,2.73000,-4.39250,0.00000,0.00268,0.96819,-0.22802,2023,6,9,12,38,8,659
0.19120,3.02750,-4.76000,0.00000,0.00403,0.96661,-0.22558,2023,6,9,12,38,8,670
0.19130,2.92250,-4.46250,0.00000,0.00329,0.96673,-0.22436,2023,6,9,12,38,8,681
0.19140,2.71250,-4.62000,0.00000,0.00098,0.96587,-0.22387,2023,6,9,12,38,8,692
0.19150,2.81750,-4.56750,0.00000,0.00146,0.96697,-0.22753,2023,6,9,12,38,8,704
0.19160,2.78250,-4.39250,0.00000,0.00098,0.96661,-0.22631,2023,6,9,12,38,8,715
0.19170,2.92250,-4.63750,0.00000,0.00537,0.96734,-0.22594,2023,6,9,12,38,8,726
0.19180,3.04500,-4.51500,0.00000,0.00305,0.97051,-0.22985,2023,6,9,12,38,8,737
0.19190,2.87000,-4.56750,0.00000,0.00342,0.96770,-0.22863,2023,6,9,12,38,8,748
0.19200,2.90500,-4.76000,0.00000,0.00195,0.96783,-0.22472,2023,6,9,12,38,8,759
0.19210,2.76500,-4.67250,0.00000,0.00439,0.96697,-0.22289,2023,6,9,12,38,8,770
0.19220,2.90500,-4.51500,0.00000,0.00659,0.96661,-0.22924,2023,6,9,12,38,8,781
0.19230,2.87000,-4.42750,0.00000,0.00232,0.96600,-0.22814,2023,6,9,12,38,8,792
0.19240,2.67750,-4.53250,0.00000,0.00451,0.96551,-0.22363,2023,6,9,12,38,8,804
0.19250,2.90500,-4.41000,0.00000,0.00500,0.96819,-0.22692,2023,6,9,12,38,8,815
0.19260,2.97500,-4.58500,0.00000,0.00342,0.96600,-0.22863,2023,6,9,12,38,8,826
0.19270,2.85250,-4.55000,0.00000,0.00439,0.96600,-0.22546,2023,6,9,12,38,8,837
0.19280,2.66000,-4.67250,0.00000,0.00220,0.96807,-0.22570,2023,6,9,12,38,8,848
0.19290,2.69500,-4.48000,0.00000,0.00342,0.96648,-0.22448,2023,6,9,12,38,8,859
0.19300,2.80000,-4.62000,0.00000,0.00098,0.96502,-0.22607,2023,6,9,12,38,8,870
0.19310,2.46750,-4.84750,0.00000,0.00390,0.96697,-0.22424,2023,6,9,12,38,8,881
0.19320,2.67750,-4.69000,0.00000,0.00354,0.96685,-0.22533,2023,6,9,12,38,8,892
0.19330,2.85250,-4.44500,0.00000,0.00281,0.96612,-0.22973,2023,6,9,12,38,8,904
0.19340,2.69500,-4.58500,0.00000,0.00390,0.96587,-0.22631,2023,6,9,12,38,8,915
0.19350,2.67750,-4.63750,0.00000,0.00171,0.96844,-0.22521,2023,6,9,12,38,8,926
0.19360,2.66000,-4.55000,0.00000,0.00354,0.96612,-0.22863,2023,6,9,12,38,8,937
0.19370,2.90500,-4.53250,0.00000,0.00207,0.96429,-0.22643,2023,6,9,12,38,8,948
0.19380,2.67750,-4.49750,0.00000,0.00305,0.96551,-0.22387,2023,6,9,12,38,8,959
0.19390,2.74750,-4.67250,0.00000,0.00183,0.96819,-0.22570,2023,6,9,12,38,8,970
0.19400,2.95750,-4.81250,0.00000,0.00293,0.96600,-0.22741,2023,6,9,12,38,8,981
0.19410,2.80000,-4.76000,0.00000,0.00439,0.96734,-0.22655,2023,6,9,12,38,8,992
0.19420,2.73000,-4.65500,0.00000,0.00244,0.96612,-0.22399,2023,6,9,12,38,8,4
0.19430,2.97500,-4.69000,0.00000,0.00268,0.96734,-0.22802,2023,6,9,12,38,8,15
0.19440,3.04500,-4.55000,0.00000,0.00256,0.96892,-0.22875,2023,6,9,12,38,8,26
0.19450,2.85250,-4.91750,0.00000,0.00329,0.96563,-0.22741,2023,6,9,12,38,8,37
0.19460,2.76500,-4.81250,0.00000,0.00232,0.96831,-0.22716,2023,6,9,12,38,8,48
0.19470,2.90500,-4.51500,0.00000,0.00195,0.96709,-0.22814,2023,6,9,12,38,8,59
0.19480,2.85250,-4.70750,0.00000,0.00354,0.96490,-0.22594,2023,6,9,12,38,8,70
0.19490,2.81750,-4.58500,0.00000,0.00244,0.97014,-0.22655,2023,6,9,12,38,8,81
0.19500,2.71250,-4.76000,0.00000,0.00366,0.96868,-0.22375,2023,6,9,12,38,8,92
0.19510,2.95750,-4.39250,0.00000,0.00159,0.96880,-0.22924,2023,6,9,12,38,8,104
0.19520,2.76500,-4.69000,0.00000,0.00171,0.96563,-0.22729,2023,6,9,12,38,8,115
0.19530,3.06250,-4.67250,0.00000,0.00464,0.96770,-0.22692,2023,6,9,12,38,8,126
0.19540,2.83500,-4.70750,0.00000,0.00268,0.96551,-0.22655,2023,6,9,12,38,8,137
0.19550,2.92250,-4.30500,0.00000,0.00037,0.96600,-0.22533,2023,6,9,12,38,8,148
0.19560,2.97500,-4.51500,0.00000,0.00183,0.96648,-0.22387,2023,6,9,12,38,8,159
0.19570,2.74750,-4.67250,0.00000,0.00342,0.96868,-0.22594,2023,6,9,12,38,8,170
0.19580,2.81750,-4.60250,0.00000,0.00390,0.96917,-0.22546,2023,6,9,12,38,8,181
0.19590,2.71250,-4.51500,0.00000,0.00305,0.96770,-0.22680,2023,6,9,12,38,8,192
0.19600,2.80000,-4.60250,0.00000,0.00061,0.96709,-0.22643,2023,6,9,12,38,8,204
0.19610,2.74750,-4.53250,0.00000,0.00146,0.96526,-0.22570,2023,6,9,12,38,8,215
0.19620,2.88750,-4.65500,0.00000,0.00293,0.96770,-0.22960,2023,6,9,12,38,8,226
0.19630,2.67750,-4.55000,0.00000,0.00427,0.96929,-0.22655,2023,6,9,12,38,8,237
0.19640,2.76500,-4.67250,0.00000,0.00122,0.96892,-0.22777,2023,6,9,12,38,8,248
0.19650,2.66000,-4.62000,0.00000,0.00220,0.96831,-0.22558,2023,6,9,12,38,8,259
0.19660,2.85250,-4.42750,0.00000,0.00403,0.96905,-0.22704,2023,6,9,12,38,8,270
0.19670,2.80000,-4.76000,0.00000,0.00244,0.96685,-0.22826,2023,6,9,12,38,8,281
0.19680,2.80000,-4.53250,0.00000,0.00305,0.96648,-0.22533,2023,6,9,12,38,8,292
0.19690,2.87000,-4.69000,0.00000,0.00244,0.96941,-0.22399,2023,6,9,12,38,8,304
0.19700,2.81750,-4.51500,0.00000,0.00110,0.96734,-0.22765,2023,6,9,12,38,9,5
0.19710,3.02750,-4.46250,0.00000,0.00073,0.96770,-0.22753,2023,6,9,12,38,9,16
0.19720,2.83500,-4.76000,0.00000,0.00134,0.96807,-0.22460,2023,6,9,12,38,9,27
0.19730,2.71250,-4.53250,0.00000,0.00415,0.96844,-0.22363,2023,6,9,12,38,9,38
0.19740,2.90500,-4.46250,0.00000,0.00476,0.96807,-0.22826,2023,6,9,12,38,9,49
0.19750,2.85250,-4.69000,0.00000,0.00195,0.96636,-0.22777,2023,6,9,12,38,9,60
0.19760,2.62500,-4.72500,0.00000,0.00281,0.96661,-0.22375,2023,6,9,12,38,9,71
0.19770,2.83500,-4.81250,0.00000,0.00305,0.96685,-0.22594,2023,6,9,12,38,9,82
0.19780,2.94000,-4.77750,0.00000,0.00329,0.96917,-0.22631,2023,6,9,12,38,9,94
0.19790,2.64250,-4.60250,0.00000,0.00439,0.96587,-0.22863,2023,6,9,12,38,9,105
0.19800,2.80000,-4.51500,0.00000,0.00256,0.96612,-0.22607,2023,6,9,12,38,9,116
0.19810,2.78250,-4.65500,0.00000,0.00293,0.96856,-0.22350,2023,6,9,12,38,9,127
0.19820,2.88750,-4.72500,0.00000,-0.00037,0.96697,-0.22753,2023,6,9,12,38,9,138
0.19830,2.81750,-4.76000,0.00000,0.00122,0.96722,-0.22936,2023,6,9,12,38,9,149
0.19840,2.74750,-4.84750,0.00000,0.00232,0.96929,-0.22777,2023,6,9,12,38,9,160
0.19850,2.76500,-4.65500,0.00000,0.00098,0.96612,-0.22350,2023,6,9,12,38,9,171
0.19860,2.88750,-4.44500,0.00000,0.00159,0.96465,-0.22753,2023,6,9,12,38,9,182
0.19870,3.02750,-4.49750,0.00000,0.00244,0.96892,-0.22692,2023,6,9,12,38,9,194
0.19880,2.80000,-4.65500,0.00000,0.00061,0.96600,-0.22533,2023,6,9,12,38,9,205
0.19890,2.71250,-4.39250,0.00000,0.00183,0.96770,-0.22716,2023,6,9,12,38,9,216
0.19900,2.67750,-4.49750,0.00000,0.00220,0.96685,-0.22863,2023,6,9,12,38,9,227
0.19910,2.88750,-4.53250,0.00000,0.00146,0.96673,-0.22692,2023,6,9,12,38,9,238
0.19920,3.01000,-4.65500,0.00000,0.00281,0.96966,-0.22680,2023,6,9,12,38,9,249
0.19930,2.76500,-4.76000,0.00000,0.00354,0.96795,-0.22643,2023,6,9,12,38,9,260
0.19940,2.78250,-4.48000,0.00000,0.00305,0.96770,-0.22631,2023,6,9,12,38,9,271
0.19950,3.02750,-4.79500,0.00000,0.00403,0.96587,-0.22802,2023,6,9,12,38,9,282
0.19960,2.67750,-4.79500,0.00000,0.00195,0.96758,-0.22777,2023,6,9,12,38,9,294
0.19970,2.83500,-4.67250,0.00000,0.00281,0.96563,-0.22424,2023,6,9,12,38,9,305
0.19980,2.60750,-4.65500,0.00000,0.00268,0.96490,-0.22424,2023,6,9,12,38,9,316
0.19990,2.67750,-4.41000,0.00000,0.00366,0.96722,-0.22497,2023,6,9,12,38,9,327
0.20000,2.94000,-4.65500,0.00000,0.00317,0.96844,-0.22716,2023,6,9,12,38,9,338
0.20010,2.78250,-4.42750,0.00000,0.00268,0.96722,-0.22546,2023,6,9,12,38,9,349
0.20020,2.66000,-4.69000,0.00000,0.00134,0.96453,-0.22497,2023,6,9,12,38,9,360
0.20030,2.80000,-4.42750,0.00000,0.00073,0.96770,-0.22753,2023,6,9,12,38,9,371
0.20040,2.81750,-4.49750,0.00000,0.00293,0.96917,-0.22631,2023,6,9,12,38,9,382
0.20050,2.88750,-4.70750,0.00000,0.00159,0.96636,-0.22753,2023,6,9,12,38,9,394
0.20060,2.69500,-4.60250,0.00000,0.00195,0.96990,-0.22619,2023,6,9,12,38,9,405
0.20070,2.87000,-4.49750,0.00000,0.00378,0.96697,-0.22777,2023,6,9,12,38,9,416
0.20080,2.85250,-4.44500,0.00000,0.00366,0.96722,-0.22924,2023,6,9,12,38,9,427
0.20090,2.74750,-4.56750,0.00000,0.00110,0.96783,-0.22338,2023,6,9,12,38,9,438
0.20100,2.66000,-4.60250,0.00000,0.00342,0.96661,-0.22216,2023,6,9,12,38,9,449
0.20110,2.73000,-4.62000,0.00000,0.00146,0.97014,-0.22411,2023,6,9,12,38,9,460
0.20120,2.69500,-4.77750,0.00000,0.00171,0.96441,-0.22497,2023,6,9,12,38,9,471
0.20130,2.97500,-4.88250,0.00000,0.00305,0.96575,-0.22814,2023,6,9,12,38,9,482
0.20140,2.67750,-4.60250,0.00000,0.00293,0.96636,-0.22521,2023,6,9,12,38,9,494
0.20150,2.85250,-4.51500,0.00000,0.00244,0.96734,-0.22387,2023,6,9,12,38,9,505
0.20160,2.67750,-4.46250,0.00000,0.00171,0.96880,-0.22594,2023,6,9,12,38,9,516
0.20170,2.97500,-4.56750,0.00000,0.00037,0.96868,-0.22704,2023,6,9,12,38,9,527
0.20180,2.74750,-4.67250,0.00000,0.00073,0.96539,-0.22533,2023,6,9,12,38,9,538
0.20190,2.74750,-4.83000,0.00000,0.00061,0.96453,-0.22546,2023,6,9,12,38,9,549
0.20200,2.83500,-4.42750,0.00000,0.00146,0.96722,-0.22680,2023,6,9,12,38,9,560
0.20210,2.57250,-4.55000,0.00000,0.00342,0.96612,-0.22643,2023,6,9,12,38,9,571
0.20220,2.74750,-4.72500,0.00000,0.00268,0.96917,-0.22838,2023,6,9,12,38,9,582
0.20230,2.76500,-4.49750,0.00000,0.00146,0.96746,-0.22631,2023,6,9,12,38,9,594
0.20240,2.95750,-4.58500,0.00000,0.00159,0.96587,-0.22216,2023,6,9,12,38,9,605
0.20250,2.76500,-4.63750,0.00000,0.00305,0.96783,-0.22643,2023,6,9,12,38,9,616
0.20260,2.74750,-4.70750,0.00000,0.00464,0.96600,-0.22680,2023,6,9,12,38,9,627
0.20270,2.74750,-4.67250,0.00000,0.00354,0.96685,-0.22594,2023,6,9,12,38,9,638
0.20280,2.78250,-4.44500,0.00000,0.00305,0.96734,-0.22668,2023,6,9,12,38,9,649
0.20290,2.85250,-4.67250,0.00000,0.00305,0.96868,-0.22460,2023,6,9,12,38,9,660
0.20300,2.92250,-4.62000,0.00000,0.00134,0.96661,-0.22777,2023,6,9,12,38,9,671
0.20310,2.87000,-4.51500,0.00000,0.00415,0.96673,-0.22741,2023,6,9,12,38,9,682
0.20320,2.81750,-4.67250,0.00000,0.00268,0.96673,-0.22643,2023,6,9,12,38,9,694
0.20330,2.67750,-4.60250,0.00000,0.00183,0.96587,-0.22558,2023,6,9,12,38,9,705
0.20340,2.83500,-4.44500,0.00000,0.00488,0.96575,-0.22619,2023,6,9,12,38,9,716
0.20350,2.76500,-4.49750,0.00000,0.00232,0.96941,-0.22631,2023,6,9,12,38,9,727
0.20360,2.67750,-4.48000,0.00000,0.00293,0.96636,-0.22472,2023,6,9,12,38,9,738
0.20370,2.74750,-4.60250,0.00000,0.00281,0.96661,-0.22582,2023,6,9,12,38,9,749
0.20380,2.85250,-4.76000,0.00000,0.00354,0.96709,-0.22655,2023,6,9,12,38,9,760
0.20390,2.95750,-4.58500,0.00000,0.00244,0.96685,-0.22826,2023,6,9,12,38,9,771
0.20400,2.90500,-4.69000,0.00000,0.00366,0.96795,-0.22716,2023,6,9,12,38,9,782
0.20410,2.95750,-4.55000,0.00000,0.00122,0.96917,-0.22387,2023,6,9,12,38,9,794
0.20420,2.83500,-4.65500,0.00000,0.00073,0.96795,-0.22619,2023,6,9,12,38,9,805
0.20430,2.83500,-4.53250,0.00000,0.00390,0.96929,-0.22521,2023,6,9,12,38,9,816
0.20440,2.85250,-4.62000,0.00000,0.00476,0.96539,-0.22997,2023,6,9,12,38,9,827
0.20450,2.81750,-4.72500,0.00000,0.00281,0.96917,-0.22607,2023,6,9,12,38,9,838
0.20460,2.74750,-4.77750,0.00000,0.00195,0.96722,-0.22533,2023,6,9,12,38,9,849
0.20470,2.80000,-4.62000,0.00000,0.00244,0.96844,-0.22582,2023,6,9,12,38,9,860
0.20480,2.85250,-4.70750,0.00000,0.00390,0.96722,-0.22497,2023,6,9,12,38,9,871
0.20490,2.87000,-4.67250,0.00000,0.00134,0.96709,-0.22704,2023,6,9,12,38,9,882
0.20500,2.90500,-4.48000,0.00000,0.00195,0.96722,-0.22668,2023,6,9,12,38,9,894
0.20510,2.90500,-4.76000,0.00000,0.00159,0.96612,-0.22509,2023,6,9,12,38,9,905
0.20520,2.87000,-4.65500,0.00000,0.00366,0.96587,-0.22631,2023,6,9,12,38,9,916
0.20530,2.78250,-4.60250,0.00000,0.00476,0.96709,-0.22655,2023,6,9,12,38,9,927
0.20540,2.81750,-4.70750,0.00000,0.00183,0.96734,-0.22814,2023,6,9,12,38,9,938
0.20550,2.69500,-4.72500,0.00000,0.00390,0.96587,-0.22814,2023,6,9,12,38,9,949
0.20560,2.81750,-4.58500,0.00000,0.00232,0.96685,-0.22668,2023,6,9,12,38,9,960
0.20570,2.62500,-4.56750,0.00000,0.00415,0.96905,-0.22582,2023,6,9,12,38,9,971
0.20580,2.80000,-4.49750,0.00000,0.00488,0.96563,-0.22594,2023,6,9,12,38,9,982
0.20590,2.80000,-4.49750,0.00000,0.00256,0.96429,-0.22594,2023,6,9,12,38,9,994
0.20600,2.97500,-4.70750,0.00000,0.00378,0.96880,-0.22765,2023,6,9,12,38,9,5
0.20610,2.83500,-4.65500,0.00000,0.00012,0.96661,-0.22692,2023,6,9,12,38,10,6
0.20620,2.97500,-4.65500,0.00000,0.00183,0.96612,-0.22607,2023,6,9,12,38,10,17
0.20630,2.90500,-4.67250,0.00000,0.00305,0.96990,-0.22265,2023,6,9,12,38,10,28
0.20640,2.88750,-4.48000,0.00000,0.00220,0.96673,-0.22570,2023,6,9,12,38,10,39
0.20650,2.80000,-4.56750,0.00000,0.00329,0.96551,-0.22533,2023,6,9,12,38,10,50
0.20660,2.76500,-4.60250,0.00000,0.00207,0.96612,-0.22533,2023,6,9,12,38,10,61
0.20670,2.76500,-4.55000,0.00000,0.00012,0.96575,-0.22692,2023,6,9,12,38,10,72
0.20680,2.88750,-4.62000,0.00000,0.00415,0.96587,-0.22472,2023,6,9,12,38,10,84
0.20690,2.76500,-4.72500,0.00000,0.00220,0.96722,-0.22607,2023,6,9,12,38,10,95
0.20700,2.78250,-4.27000,0.00000,0.00085,0.96880,-0.22729,2023,6,9,12,38,10,106
0.20710,2.69500,-4.62000,0.00000,0.00256,0.96709,-0.22570,2023,6,9,12,38,10,117
0.20720,2.74750,-4.67250,0.00000,0.00439,0.96661,-0.22485,2023,6,9,12,38,10,128
0.20730,2.81750,-4.56750,0.00000,0.00403,0.96770,-0.22485,2023,6,9,12,38,10,139
0.20740,2.76500,-4.65500,0.00000,0.00439,0.96734,-0.22777,2023,6,9,12,38,10,150
0.20750,2.74750,-4.44500,0.00000,0.00329,0.96661,-0.22741,2023,6,9,12,38,10,161
0.20760,2.78250,-4.79500,0.00000,0.00159,0.96917,-0.22668,2023,6,9,12,38,10,172
0.20770,2.78250,-4.56750,0.00000,0.00049,0.96892,-0.22680,2023,6,9,12,38,10,184
0.20780,2.85250,-4.49750,0.00000,0.00159,0.96587,-0.22631,2023,6,9,12,38,10,195
0.20790,2.85250,-4.41000,0.00000,0.00354,0.96880,-0.22533,2023,6,9,12,38,10,206
0.20800,2.74750,-4.44500,0.00000,0.00329,0.96917,-0.22485,2023,6,9,12,38,10,217
0.20810,2.80000,-4.77750,0.00000,0.00098,0.96636,-0.22777,2023,6,9,12,38,10,228
0.20820,2.83500,-4.67250,0.00000,0.00281,0.96648,-0.22570,2023,6,9,12,38,10,239
0.20830,2.95750,-4.53250,0.00000,0.00256,0.96685,-0.22411,2023,6,9,12,38,10,250
0.20840,2.90500,-4.69000,0.00000,0.00293,0.96880,-0.22741,2023,6,9,12,38,10,261
0.20850,2.85250,-4.48000,0.00000,0.00244,0.96709,-0.22826,2023,6,9,12,38,10,272
0.20860,2.80000,-4.44500,0.00000,0.00110,0.96807,-0.22729,2023,6,9,12,38,10,284
0.20870,2.88750,-4.67250,0.00000,0.00049,0.96502,-0.22387,2023,6,9,12,38,10,295
0.20880,2.71250,-4.37500,0.00000,0.00037,0.96575,-0.22521,2023,6,9,12,38,10,306
0.20890,2.80000,-4.56750,0.00000,0.00512,0.96661,-0.22753,2023,6,9,12,38,10,317
0.20900,2.81750,-4.55000,0.00000,0.00159,0.96734,-0.22533,2023,6,9,12,38,10,328
0.20910,2.99250,-4.84750,0.00000,0.00098,0.96478,-0.22326,2023,6,9,12,38,10,339
0.20920,2.92250,-4.56750,0.00000,0.00159,0.96685,-0.22655,2023,6,9,12,38,10,350
0.20930,2.97500,-4.65500,0.00000,0.00244,0.96465,-0.22314,2023,6,9,12,38,10,361
0.20940,2.73000,-4.65500,0.00000,0.00256,0.96636,-0.22582,2023,6,9,12,38,10,372
0.20950,2.90500,-4.55000,0.00000,0.00244,0.96539,-0.22619,2023,6,9,12,38,10,384
0.20960,2.83500,-4.46250,0.00000,0.00329,0.96722,-0.22704,2023,6,9,12,38,10,395
0.20970,3.16750,-4.77750,0.00000,0.00281,0.96892,-0.22765,2023,6,9,12,38,10,406
0.20980,2.94000,-4.44500,0.00000,0.00268,0.96856,-0.22570,2023,6,9,12,38,10,417
0.20990,2.74750,-4.41000,0.00000,0.00390,0.97039,-0.22655,2023,6,9,12,38,10,428
0.21000,2.74750,-4.62000,0.00000,0.00403,0.96868,-0.22729,2023,6,9,12,38,10,439
0.21010,2.81750,-4.46250,0.00000,0.00342,0.96673,-0.22668,2023,6,9,12,38,10,450
0.21020,2.67750,-4.72500,0.00000,0.00244,0.96575,-0.22436,2023,6,9,12,38,10,461
0.21030,3.02750,-4.69000,0.00000,0.00183,0.96575,-0.22497,2023,6,9,12,38,10,472
0.21040,2.85250,-4.76000,0.00000,0.00537,0.96697,-0.22448,2023,6,9,12,38,10,484
0.21050,2.78250,-4.37500,0.00000,0.00403,0.96966,-0.22753,2023,6,9,12,38,10,495
0.21060,2.83500,-4.70750,0.00000,0.00122,0.96722,-0.22619,2023,6,9,12,38,10,506
0.21070,2.92250,-4.65500,0.00000,0.00244,0.96746,-0.22570,2023,6,9,12,38,10,517
0.21080,2.76500,-4.67250,0.00000,0.00268,0.96709,-0.22521,2023,6,9,12,38,10,528
0.21090,2.74750,-4.69000,0.00000,0.00073,0.96917,-0.22546,2023,6,9,12,38,10,539
0.21100,2.87000,-4.63750,0.00000,0.00220,0.96526,-0.22753,2023,6,9,12,38,10,550
0.21110,2.80000,-4.49750,0.00000,0.00207,0.96892,-0.22814,2023,6,9,12,38,10,561
0.21120,2.87000,-4.67250,0.00000,0.00207,0.96636,-0.22668,2023,6,9,12,38,10,572
0.21130,2.71250,-4.83000,0.00000,0.00244,0.96929,-0.22546,2023,6,9,12,38,10,584
0.21140,2.81750,-4.42750,0.00000,0.00366,0.96868,-0.22411,2023,6,9,12,38,10,595
0.21150,2.81750,-4.37500,0.00000,0.00329,0.96734,-0.22570,2023,6,9,12,38,10,606
0.21160,2.83500,-4.55000,0.00000,0.00061,0.96661,-0.22619,2023,6,9,12,38,10,617
0.21170,2.87000,-4.77750,0.00000,0.00366,0.96697,-0.22521,2023,6,9,12,38,10,628
0.21180,2.73000,-4.65500,0.00000,0.00281,0.96514,-0.22387,2023,6,9,12,38,10,639
0.21190,2.78250,-4.79500,0.00000,0.00305,0.96722,-0.22765,2023,6,9,12,38,10,650
0.21200,2.92250,-4.58500,0.00000,0.00366,0.96612,-0.22509,2023,6,9,12,38,10,661
0.21210,2.76500,-4.83000,0.00000,0.00329,0.96465,-0.22546,2023,6,9,12,38,10,672
0.21220,2.71250,-4.49750,0.00000,0.00134,0.96514,-0.22570,2023,6,9,12,38,10,684
0.21230,2.92250,-4.70750,0.00000,0.00439,0.96831,-0.22704,2023,6,9,12,38,10,695
0.21240,2.69500,-4.53250,0.00000,0.00268,0.96624,-0.22546,2023,6,9,12,38,10,706
0.21250,2.69500,-4.60250,0.00000,0.00220,0.96746,-0.22570,2023,6,9,12,38,10,717
0.21260,2.69500,-4.56750,0.00000,0.00110,0.96612,-0.22582,2023,6,9,12,38,10,728
0.21270,2.64250,-4.65500,0.00000,0.00317,0.96929,-0.22509,2023,6,9,12,38,10,739
0.21280,2.64250,-4.51500,0.00000,0.00281,0.96648,-0.22448,2023,6,9,12,38,10,750
0.21290,2.73000,-4.70750,0.00000,0.00061,0.96819,-0.22668,2023,6,9,12,38,10,761
0.21300,2.85250,-4.67250,0.00000,0.00232,0.96612,-0.22716,2023,6,9,12,38,10,772
0.21310,2.71250,-4.67250,0.00000,0.00256,0.96661,-0.22485,2023,6,9,12,38,10,784
0.21320,2.64250,-4.53250,0.00000,0.00256,0.96868,-0.22204,2023,6,9,12,38,10,795
0.21330,2.80000,-4.44500,0.00000,0.00354,0.96831,-0.22704,2023,6,9,12,38,10,806
0.21340,2.83500,-4.35750,0.00000,0.00415,0.96844,-0.22497,2023,6,9,12,38,10,817
0.21350,2.64250,-4.51500,0.00000,0.00342,0.96356,-0.22521,2023,6,9,12,38,10,828
0.21360,2.81750,-4.81250,0.00000,0.00098,0.97014,-0.22582,2023,6,9,12,38,10,839
0.21370,3.01000,-4.70750,0.00000,0.00378,0.96807,-0.22948,2023,6,9,12,38,10,850
0.21380,2.90500,-4.77750,0.00000,0.00281,0.96856,-0.22570,2023,6,9,12,38,10,861
0.21390,2.80000,-4.76000,0.00000,0.00085,0.96868,-0.22619,2023,6,9,12,38,10,872
0.21400,2.81750,-4.48000,0.00000,0.00329,0.96551,-0.22570,2023,6,9,12,38,10,884
0.21410,2.83500,-4.56750,0.00000,0.00146,0.96770,-0.22753,2023,6,9,12,38,10,895
0.21420,2.69500,-4.60250,0.00000,0.00354,0.96685,-0.22655,2023,6,9,12,38,10,906
0.21430,2.78250,-4.72500,0.00000,0.00695,0.96795,-0.22375,2023,6,9,12,38,10,917
0.21440,2.69500,-4.77750,0.00000,0.00537,0.96734,-0.22546,2023,6,9,12,38,10,928
0.21450,2.85250,-4.56750,0.00000,0.00256,0.96612,-0.22558,2023,6,9,12,38,10,939
0.21460,2.80000,-4.62000,0.00000,0.00085,0.96722,-0.22558,2023,6,9,12,38,10,950
0.21470,2.94000,-4.58500,0.00000,0.00476,0.96612,-0.22448,2023,6,9,12,38,10,961
0.21480,2.73000,-4.37500,0.00000,0.00317,0.96636,-0.22582,2023,6,9,12,38,10,972
0.21490,2.97500,-4.84750,0.00000,0.00439,0.96697,-0.22802,2023,6,9,12,38,10,984
0.21500,2.69500,-4.53250,0.00000,0.00268,0.96685,-0.22655,2023,6,9,12,38,11,5
0.21510,2.69500,-4.44500,0.00000,0.00073,0.96905,-0.22277,2023,6,9,12,38,11,16
0.21520,2.90500,-4.76000,0.00000,0.00146,0.96575,-0.22570,2023,6,9,12,38,11,27
0.21530,2.74750,-4.46250,0.00000,0.00293,0.96404,-0.22729,2023,6,9,12,38,11,38
0.21540,2.92250,-4.67250,0.00000,0.00159,0.96966,-0.22790,2023,6,9,12,38,11,49
0.21550,2.94000,-4.62000,0.00000,0.00024,0.96734,-0.22753,2023,6,9,12,38,11,60
0.21560,3.01000,-4.53250,0.00000,0.00085,0.96697,-0.22790,2023,6,9,12,38,11,71
0.21570,2.85250,-4.70750,0.00000,0.00183,0.96636,-0.22509,2023,6,9,12,38,11,82
0.21580,2.87000,-4.74250,0.00000,0.00268,0.96600,-0.22546,2023,6,9,12,38,11,94
0.21590,2.85250,-4.72500,0.00000,0.00317,0.96807,-0.22448,2023,6,9,12,38,11,105
0.21600,2.73000,-4.67250,0.00000,0.00329,0.96844,-0.22485,2023,6,9,12,38,11,116
0.21610,2.94000,-4.60250,0.00000,0.00146,0.96709,-0.22729,2023,6,9,12,38,11,127
0.21620,2.60750,-4.58500,0.00000,0.00146,0.97002,-0.22570,2023,6,9,12,38,11,138
0.21630,2.67750,-4.62000,0.00000,0.00390,0.96465,-0.22533,2023,6,9,12,38,11,149
0.21640,2.87000,-4.62000,0.00000,0.00085,0.96453,-0.22680,2023,6,9,12,38,11,160
0.21650,2.73000,-4.81250,0.00000,0.00073,0.96892,-0.22570,2023,6,9,12,38,11,171
0.21660,2.83500,-4.77750,0.00000,0.00183,0.96526,-0.22716,2023,6,9,12,38,11,182
0.21670,2.80000,-4.51500,0.00000,0.00354,0.96697,-0.22765,2023,6,9,12,38,11,194
0.21680,2.94000,-4.77750,0.00000,0.00146,0.96465,-0.22607,2023,6,9,12,38,11,205
0.21690,2.64250,-4.70750,0.00000,0.00329,0.96819,-0.22509,2023,6,9,12,38,11,216
0.21700,2.62500,-4.70750,0.00000,0.00439,0.96478,-0.22655,2023,6,9,12,38,11,227
0.21710,2.94000,-4.62000,0.00000,0.00244,0.96844,-0.22631,2023,6,9,12,38,11,238
0.21720,2.95750,-4.65500,0.00000,0.00061,0.96563,-0.22582,2023,6,9,12,38,11,249
0.21730,2.69500,-4.53250,0.00000,0.00451,0.96624,-0.22521,2023,6,9,12,38,11,260
0.21740,2.88750,-4.62000,0.00000,0.00354,0.96551,-0.22582,2023,6,9,12,38,11,271
0.21750,2.71250,-4.77750,0.00000,0.00110,0.96807,-0.22692,2023,6,9,12,38,11,282
0.21760,2.83500,-4.44500,0.00000,0.00268,0.96673,-0.22375,2023,6,9,12,38,11,294
0.21770,2.95750,-4.63750,0.00000,0.00525,0.96600,-0.22570,2023,6,9,12,38,11,305
0.21780,2.69500,-4.56750,0.00000,0.00085,0.96892,-0.22838,2023,6,9,12,38,11,316
0.21790,2.87000,-4.48000,0.00000,0.00476,0.96502,-0.22594,2023,6,9,12,38,11,327
0.21800,2.69500,-4.49750,0.00000,0.00317,0.96539,-0.22607,2023,6,9,12,38,11,338
0.21810,2.90500,-4.55000,0.00000,0.00183,0.96722,-0.22912,2023,6,9,12,38,11,349
0.21820,2.81750,-4.60250,0.00000,0.00256,0.96807,-0.22350,2023,6,9,12,38,11,360
0.21830,2.78250,-4.48000,0.00000,0.00171,0.96636,-0.22704,2023,6,9,12,38,11,371
0.21840,2.59000,-4.72500,0.00000,0.00317,0.96795,-0.22509,2023,6,9,12,38,11,382
0.21850,2.76500,-4.62000,0.00000,0.00244,0.96929,-0.22424,2023,6,9,12,38,11,394
0.21860,2.94000,-4.58500,0.00000,0.00293,0.96807,-0.22655,2023,6,9,12,38,11,405
0.21870,2.81750,-4.70750,0.00000,0.00110,0.96709,-0.22753,2023,6,9,12,38,11,416
0.21880,2.71250,-4.60250,0.00000,0.00183,0.96819,-0.22472,2023,6,9,12,38,11,427
0.21890,2.97500,-4.88250,0.00000,0.00281,0.96685,-0.22436,2023,6,9,12,38,11,438
0.21900,2.88750,-4.70750,0.00000,0.00427,0.96648,-0.22448,2023,6,9,12,38,11,449
0.21910,2.85250,-4.79500,0.00000,0.00305,0.96612,-0.22716,2023,6,9,12,38,11,460
0.21920,2.81750,-4.41000,0.00000,0.00232,0.96697,-0.22875,2023,6,9,12,38,11,471
0.21930,2.78250,-4.72500,0.00000,0.00366,0.96795,-0.22582,2023,6,9,12,38,11,482
0.21940,2.66000,-4.37500,0.00000,0.00366,0.96709,-0.22619,2023,6,9,12,38,11,494
0.21950,2.99250,-4.49750,0.00000,0.00171,0.96636,-0.22619,2023,6,9,12,38,11,505
0.21960,2.85250,-4.46250,0.00000,0.00390,0.96648,-0.22619,2023,6,9,12,38,11,516
0.21970,2.81750,-4.90000,0.00000,0.00146,0.96612,-0.22558,2023,6,9,12,38,11,527
0.21980,2.81750,-4.79500,0.00000,0.00195,0.96783,-0.22582,2023,6,9,12,38,11,538
0.21990,2.90500,-4.62000,0.00000,0.00244,0.96539,-0.22338,2023,6,9,12,38,11,549
0.22000,2.90500,-4.58500,0.00000,0.00146,0.96758,-0.22692,2023,6,9,12,38,11,560
0.22010,2.81750,-4.58500,0.00000,0.00293,0.96978,-0.22485,2023,6,9,12,38,11,571
0.22020,2.73000,-4.84750,0.00000,0.00293,0.96551,-0.22558,2023,6,9,12,38,11,582
0.22030,3.02750,-4.84750,0.00000,0.00049,0.96709,-0.22619,2023,6,9,12,38,11,594
0.22040,2.78250,-4.70750,0.00000,0.00354,0.96636,-0.22546,2023,6,9,12,38,11,605
0.22050,2.78250,-4.60250,0.00000,0.00366,0.96746,-0.22631,2023,6,9,12,38,11,616
0.22060,2.64250,-4.70750,0.00000,0.00207,0.96734,-0.22472,2023,6,9,12,38,11,627
0.22070,2.60750,-4.69000,0.00000,0.00390,0.96770,-0.22521,2023,6,9,12,38,11,638
0.22080,2.95750,-4.69000,0.00000,0.00268,0.96636,-0.22680,2023,6,9,12,38,11,649
0.22090,2.60750,-4.69000,0.00000,0.00268,0.96722,-0.22607,2023,6,9,12,38,11,660
0.22100,2.95750,-4.60250,0.00000,0.00134,0.96563,-0.22741,2023,6,9,12,38,11,671
0.22110,2.71250,-4.62000,0.00000,0.00171,0.96722,-0.22753,2023,6,9,12,38,11,682
0.22120,2.80000,-4.46250,0.00000,0.00037,0.96746,-0.22594,2023,6,9,12,38,11,694
0.22130,2.81750,-4.60250,0.00000,0.00195,0.96661,-0.22753,2023,6,9,12,38,11,705
0.22140,2.73000,-4.69000,0.00000,0.00110,0.96770,-0.22716,2023,6,9,12,38,11,716
0.22150,2.92250,-4.53250,0.00000,0.00122,0.96783,-0.22741,2023,6,9,12,38,11,727
0.22160,2.83500,-4.35750,0.00000,0.00525,0.96746,-0.22668,2023,6,9,12,38,11,738
0.22170,2.78250,-4.53250,0.00000,0.00146,0.96819,-0.22643,2023,6,9,12,38,11,749
0.22180,2.78250,-4.60250,0.00000,0.00366,0.96819,-0.22716,2023,6,9,12,38,11,760
0.22190,2.85250,-4.55000,0.00000,0.00195,0.96612,-0.22912,2023,6,9,12,38,11,771
0.22200,2.76500,-4.74250,0.00000,0.00451,0.96722,-0.22387,2023,6,9,12,38,11,782
0.22210,2.76500,-4.63750,0.00000,0.00220,0.96844,-0.22546,2023,6,9,12,38,11,794
0.22220,2.85250,-4.21750,0.00000,0.00378,0.96795,-0.22692,2023,6,9,12,38,11,805
0.22230,2.83500,-4.55000,0.00000,0.00390,0.96661,-0.22692,2023,6,9,12,38,11,816
0.22240,2.81750,-4.77750,0.00000,0.00366,0.96661,-0.22680,2023,6,9,12,38,11,827
0.22250,2.80000,-4.67250,0.00000,0.00220,0.96636,-0.22509,2023,6,9,12,38,11,838
0.22260,2.76500,-4.60250,0.00000,0.00085,0.96746,-0.22509,2023,6,9,12,38,11,849
0.22270,2.78250,-4.39250,0.00000,0.00451,0.96844,-0.22668,2023,6,9,12,38,11,860
0.22280,2.81750,-4.63750,0.00000,0.00244,0.96587,-0.22619,2023,6,9,12,38,11,871
0.22290,2.62500,-4.46250,0.00000,0.00207,0.96734,-0.22643,2023,6,9,12,38,11,882
0.22300,2.85250,-4.48000,0.00000,0.00220,0.96551,-0.22326,2023,6,9,12,38,11,894
0.22310,2.92250,-4.67250,0.00000,0.00305,0.96648,-0.22899,2023,6,9,12,38,11,905
0.22320,2.76500,-4.62000,0.00000,0.00366,0.96758,-0.22497,2023,6,9,12,38,11,916
0.22330,2.78250,-4.74250,0.00000,0.00256,0.96722,-0.22424,2023,6,9,12,38,11,927
0.22340,2.87000,-4.63750,0.00000,0.00171,0.96636,-0.22387,2023,6,9,12,38,11,938
0.22350,2.78250,-4.53250,0.00000,0.00220,0.96856,-0.22790,2023,6,9,12,38,11,949
0.22360,2.87000,-4.53250,0.00000,0.00305,0.96807,-0.22875,2023,6,9,12,38,11,960
0.22370,2.94000,-4.72500,0.00000,0.00378,0.96844,-0.22607,2023,6,9,12,38,11,971
0.22380,2.69500,-4.37500,0.00000,0.00122,0.96917,-0.22497,2023,6,9,12,38,11,982
0.22390,2.85250,-4.56750,0.00000,0.00439,0.96844,-0.22753,2023,6,9,12,38,12,4
0.22400,2.76500,-4.44500,0.00000,0.00329,0.96856,-0.22558,2023,6,9,12,38,12,15
0.22410,2.88750,-4.74250,0.00000,0.00415,0.96526,-0.22289,2023,6,9,12,38,12,26
0.22420,2.76500,-4.63750,0.00000,0.00085,0.96490,-0.22558,2023,6,9,12,38,12,37
0.22430,2.59000,-4.53250,0.00000,0.00268,0.96917,-0.22436,2023,6,9,12,38,12,48
0.22440,2.88750,-4.90000,0.00000,0.00134,0.96514,-0.22729,2023,6,9,12,38,12,59
0.22450,2.66000,-4.42750,0.00000,0.00342,0.96722,-0.22802,2023,6,9,12,38,12,70
0.22460,2.78250,-4.56750,0.00000,-0.00098,0.96612,-0.22619,2023,6,9,12,38,12,81
0.22470,2.67750,-4.62000,0.00000,0.00476,0.96734,-0.22375,2023,6,9,12,38,12,92
0.22480,2.85250,-4.60250,0.00000,0.00244,0.96734,-0.22655,2023,6,9,12,38,12,104
0.22490,2.81750,-4.76000,0.00000,0.00378,0.96673,-0.22497,2023,6,9,12,38,12,115
0.22500,2.73000,-4.60250,0.00000,0.00256,0.96722,-0.22546,2023,6,9,12,38,12,126
0.22510,2.67750,-4.62000,0.00000,0.00476,0.96905,-0.22302,2023,6,9,12,38,12,137
0.22520,2.85250,-4.60250,0.00000,0.00451,0.96563,-0.22570,2023,6,9,12,38,12,148
0.22530,2.62500,-4.74250,0.00000,0.00268,0.96770,-0.22692,2023,6,9,12,38,12,159
0.22540,2.92250,-4.84750,0.00000,0.00464,0.96722,-0.22838,2023,6,9,12,38,12,170
0.22550,2.80000,-4.69000,0.00000,0.00329,0.96844,-0.22619,2023,6,9,12,38,12,181
0.22560,2.92250,-4.60250,0.00000,0.00293,0.96539,-0.22729,2023,6,9,12,38,12,192
0.22570,2.85250,-4.79500,0.00000,0.00354,0.96783,-0.22521,2023,6,9,12,38,12,204
0.22580,2.80000,-4.58500,0.00000,0.00232,0.96429,-0.22485,2023,6,9,12,38,12,215
0.22590,2.83500,-4.72500,0.00000,0.00317,0.96673,-0.22594,2023,6,9,12,38,12,226
0.22600,2.67750,-4.72500,0.00000,0.00134,0.96709,-0.22631,2023,6,9,12,38,12,237
0.22610,2.81750,-4.35750,0.00000,0.00366,0.96709,-0.22802,2023,6,9,12,38,12,248
0.22620,2.73000,-4.62000,0.00000,0.00024,0.96587,-0.22777,2023,6,9,12,38,12,259
0.22630,2.83500,-4.63750,0.00000,0.00207,0.96453,-0.22655,2023,6,9,12,38,12,270
0.22640,2.76500,-4.56750,0.00000,0.00427,0.96770,-0.22607,2023,6,9,12,38,12,281
0.22650,2.73000,-4.51500,0.00000,0.00146,0.96819,-0.22533,2023,6,9,12,38,12,292
0.22660,2.81750,-4.53250,0.00000,0.00244,0.96880,-0.22777,2023,6,9,12,38,12,304
0.22670,2.81750,-4.51500,0.00000,0.00207,0.96624,-0.22826,2023,6,9,12,38,12,315
0.22680,2.92250,-5.00500,0.00000,0.00195,0.96685,-0.22472,2023,6,9,12,38,12,326
0.22690,2.66000,-4.51500,0.00000,0.00244,0.96490,-0.22472,2023,6,9,12,38,12,337
0.22700,2.80000,-4.53250,0.00000,0.00305,0.96539,-0.22594,2023,6,9,12,38,12,348
0.22710,2.76500,-4.44500,0.00000,0.00037,0.96758,-0.22643,2023,6,9,12,38,12,359
0.22720,2.80000,-4.69000,0.00000,0.00122,0.96648,-0.22509,2023,6,9,12,38,12,370
0.22730,2.94000,-4.53250,0.00000,-0.00024,0.96636,-0.22619,2023,6,9,12,38,12,381
0.22740,2.78250,-4.62000,0.00000,0.00171,0.96844,-0.22607,2023,6,9,12,38,12,392
0.22750,2.90500,-4.74250,0.00000,0.00329,0.96648,-0.22643,2023,6,9,12,38,12,404
0.22760,2.74750,-4.70750,0.00000,0.00134,0.96746,-0.22741,2023,6,9,12,38,12,415
0.22770,2.83500,-4.55000,0.00000,0.00317,0.96563,-0.22411,2023,6,9,12,38,12,426
0.22780,2.76500,-4.49750,0.00000,0.00281,0.96709,-0.22668,2023,6,9,12,38,12,437
0.22790,2.67750,-4.44500,0.00000,0.00110,0.96612,-0.22509,2023,6,9,12,38,12,448
0.22800,2.81750,-4.63750,0.00000,0.00244,0.96624,-0.22753,2023,6,9,12,38,12,459
0.22810,2.80000,-4.42750,0.00000,0.00281,0.96587,-0.22680,2023,6,9,12,38,12,470
0.22820,2.80000,-4.83000,0.00000,0.00073,0.96746,-0.22594,2023,6,9,12,38,12,481
0.22830,2.85250,-4.67250,0.00000,0.00110,0.96490,-0.22655,2023,6,9,12,38,12,492
0.22840,2.74750,-4.74250,0.00000,0.00281,0.96856,-0.22704,2023,6,9,12,38,12,504
0.22850,2.71250,-4.48000,0.00000,0.00195,0.96856,-0.22716,2023,6,9,12,38,12,515
0.22860,2.73000,-4.37500,0.00000,0.00122,0.96807,-0.22704,2023,6,9,12,38,12,526
0.22870,2.87000,-4.58500,0.00000,0.00085,0.96685,-0.22668,2023,6,9,12,38,12,537
0.22880,2.71250,-4.39250,0.00000,0.00439,0.96587,-0.22741,2023,6,9,12,38,12,548
0.22890,2.81750,-4.63750,0.00000,0.00439,0.96795,-0.22570,2023,6,9,12,38,12,559
0.22900,2.95750,-4.56750,0.00000,0.00256,0.96709,-0.22973,2023,6,9,12,38,12,570
0.22910,2.87000,-4.58500,0.00000,0.00268,0.96648,-0.22509,2023,6,9,12,38,12,581
0.22920,2.73000,-4.74250,0.00000,0.00415,0.96783,-0.22716,2023,6,9,12,38,12,592
0.22930,2.92250,-4.48000,0.00000,0.00354,0.96783,-0.22594,2023,6,9,12,38,12,604
0.22940,2.83500,-4.72500,0.00000,0.00159,0.96636,-0.22460,2023,6,9,12,38,12,615
0.22950,2.69500,-4.35750,0.00000,0.00305,0.96770,-0.22424,2023,6,9,12,38,12,626
0.22960,2.87000,-4.62000,0.00000,0.00256,0.96746,-0.22607,2023,6,9,12,38,12,637
0.22970,2.67750,-4.46250,0.00000,0.00500,0.96575,-0.22692,2023,6,9,12,38,12,648
0.22980,2.92250,-4.65500,0.00000,0.00012,0.96868,-0.22655,2023,6,9,12,38,12,659
0.22990,2.69500,-4.69000,0.00000,0.00378,0.96612,-0.22643,2023,6,9,12,38,12,670
0.23000,2.94000,-4.67250,0.00000,0.00183,0.96856,-0.22619,2023,6,9,12,38,12,681
0.23010,2.90500,-4.37500,0.00000,0.00195,0.96600,-0.22533,2023,6,9,12,38,12,692
0.23020,2.87000,-4.60250,0.00000,0.00122,0.96929,-0.22399,2023,6,9,12,38,12,704
0.23030,2.64250,-4.60250,0.00000,0.00183,0.96539,-0.22387,2023,6,9,12,38,12,715
0.23040,2.90500,-4.55000,0.00000,0.00342,0.96722,-0.22533,2023,6,9,12,38,12,726
0.23050,2.81750,-4.62000,0.00000,0.00281,0.96880,-0.22582,2023,6,9,12,38,12,737
0.23060,2.76500,-4.56750,0.00000,0.00183,0.96587,-0.22570,2023,6,9,12,38,12,748
0.23070,2.78250,-4.60250,0.00000,0.00476,0.96624,-0.22607,2023,6,9,12,38,12,759
0.23080,2.81750,-4.65500,0.00000,0.00146,0.96624,-0.22558,2023,6,9,12,38,12,770
0.23090,2.80000,-4.70750,0.00000,0.00573,0.96490,-0.22546,2023,6,9,12,38,12,781
0.23100,2.74750,-4.65500,0.00000,0.00256,0.96648,-0.22424,2023,6,9,12,38,12,792
0.23110,2.59000,-4.56750,0.00000,0.00256,0.96831,-0.22448,2023,6,9,12,38,12,804
0.23120,2.74750,-4.60250,0.00000,0.00366,0.96856,-0.22741,2023,6,9,12,38,12,815
0.23130,2.78250,-4.60250,0.00000,0.00268,0.96880,-0.22692,2023,6,9,12,38,12,826
0.23140,2.76500,-4.65500,0.00000,0.00146,0.96575,-0.22899,2023,6,9,12,38,12,837
0.23150,2.92250,-4.69000,0.00000,0.00195,0.96661,-0.22350,2023,6,9,12,38,12,848
0.23160,2.76500,-4.46250,0.00000,0.00159,0.96746,-0.22607,2023,6,9,12,38,12,859
0.23170,2.95750,-4.69000,0.00000,0.00256,0.96795,-0.22643,2023,6,9,12,38,12,870
0.23180,2.74750,-4.53250,0.00000,0.00293,0.96709,-0.22546,2023,6,9,12,38,12,881
0.23190,2.76500,-4.84750,0.00000,-0.00037,0.96563,-0.22582,2023,6,9,12,38,12,892
0.23200,2.80000,-4.56750,0.00000,0.00390,0.96661,-0.22533,2023,6,9,12,38,12,904
0.23210,2.76500,-4.51500,0.00000,0.00195,0.96807,-0.22936,2023,6,9,12,38,12,915
0.23220,2.85250,-4.42750,0.00000,0.00378,0.96685,-0.22692,2023,6,9,12,38,12,926
0.23230,2.80000,-4.97000,0.00000,0.00305,0.96892,-0.22241,2023,6,9,12,38,12,937
0.23240,2.81750,-4.69000,0.00000,0.00256,0.96892,-0.22533,2023,6,9,12,38,12,948
0.23250,2.92250,-4.35750,0.00000,0.00439,0.96453,-0.22570,2023,6,9,12,38,12,959
0.23260,2.76500,-4.55000,0.00000,0.00281,0.96587,-0.22716,2023,6,9,12,38,12,970
0.23270,2.73000,-4.84750,0.00000,0.00183,0.96600,-0.22375,2023,6,9,12,38,12,981
0.23280,2.66000,-4.44500,0.00000,0.00207,0.96807,-0.22692,2023,6,9,12,38,12,992
0.23290,2.90500,-4.60250,0.00000,0.00464,0.96502,-0.22570,2023,6,9,12,38,12,4
0.23300,2.87000,-4.79500,0.00000,0.00195,0.96844,-0.22899,2023,6,9,12,38,13,5
0.23310,2.73000,-4.67250,0.00000,0.00061,0.96758,-0.22424,2023,6,9,12,38,13,16
0.23320,2.78250,-4.76000,0.00000,0.00549,0.96636,-0.22472,2023,6,9,12,38,13,27
0.23330,2.88750,-4.53250,0.00000,0.00464,0.96917,-0.22814,2023,6,9,12,38,13,38
0.23340,2.97500,-4.35750,0.00000,0.00183,0.96514,-0.22570,2023,6,9,12,38,13,49
0.23350,2.87000,-4.81250,0.00000,0.00403,0.96807,-0.22509,2023,6,9,12,38,13,60
0.23360,2.71250,-4.55000,0.00000,0.00183,0.96783,-0.22692,2023,6,9,12,38,13,71
0.23370,2.78250,-4.51500,0.00000,0.00439,0.96453,-0.22472,2023,6,9,12,38,13,82
0.23380,2.85250,-4.63750,0.00000,0.00354,0.96856,-0.22668,2023,6,9,12,38,13,94
0.23390,2.94000,-4.60250,0.00000,0.00159,0.96917,-0.22619,2023,6,9,12,38,13,105
0.23400,2.80000,-4.56750,0.00000,0.00085,0.96441,-0.22497,2023,6,9,12,38,13,116
0.23410,2.69500,-4.58500,0.00000,0.00134,0.96661,-0.22594,2023,6,9,12,38,13,127
0.23420,2.74750,-4.41000,0.00000,0.00281,0.96685,-0.22765,2023,6,9,12,38,13,138
0.23430,2.88750,-4.70750,0.00000,0.00232,0.96819,-0.22619,2023,6,9,12,38,13,149
0.23440,2.76500,-4.56750,0.00000,0.00281,0.96978,-0.22582,2023,6,9,12,38,13,160
0.23450,2.74750,-4.58500,0.00000,0.00329,0.96892,-0.22668,2023,6,9,12,38,13,171
0.23460,2.85250,-4.60250,0.00000,0.00561,0.96868,-0.22668,2023,6,9,12,38,13,182
0.23470,2.76500,-4.49750,0.00000,0.00268,0.97100,-0.22863,2023,6,9,12,38,13,194
0.23480,2.76500,-4.51500,0.00000,0.00171,0.96734,-0.22594,2023,6,9,12,38,13,205
0.23490,2.74750,-4.56750,0.00000,0.00464,0.96624,-0.22546,2023,6,9,12,38,13,216
0.23500,2.78250,-4.63750,0.00000,0.00342,0.96746,-0.22899,2023,6,9,12,38,13,227
0.23510,3.01000,-4.69000,0.00000,0.00256,0.96770,-0.22802,2023,6,9,12,38,13,238
0.23520,2.71250,-4.34000,0.00000,0.00122,0.96526,-0.22765,2023,6,9,12,38,13,249
0.23530,2.81750,-4.69000,0.00000,0.00317,0.96770,-0.22643,2023,6,9,12,38,13,260
0.23540,2.94000,-4.77750,0.00000,0.00464,0.96722,-0.22558,2023,6,9,12,38,13,271
0.23550,2.69500,-4.62000,0.00000,0.00390,0.96551,-0.22692,2023,6,9,12,38,13,282
0.23560,2.76500,-4.74250,0.00000,0.00281,0.96709,-0.22668,2023,6,9,12,38,13,294
0.23570,2.73000,-4.56750,0.00000,0.00171,0.96478,-0.22680,2023,6,9,12,38,13,305
0.23580,2.74750,-4.72500,0.00000,0.00024,0.96600,-0.22448,2023,6,9,12,38,13,316
0.23590,2.76500,-4.76000,0.00000,0.00195,0.96587,-0.22582,2023,6,9,12,38,13,327
0.23600,2.88750,-4.74250,0.00000,0.00195,0.96697,-0.22668,2023,6,9,12,38,13,338
0.23610,2.88750,-4.56750,0.00000,0.00403,0.96551,-0.22631,2023,6,9,12,38,13,349
0.23620,2.88750,-4.81250,0.00000,0.00329,0.96612,-0.22375,2023,6,9,12,38,13,360
0.23630,2.81750,-4.58500,0.00000,0.00293,0.96722,-0.22741,2023,6,9,12,38,13,371
0.23640,2.78250,-4.48000,0.00000,0.00256,0.96917,-0.22912,2023,6,9,12,38,13,382
0.23650,2.87000,-4.76000,0.00000,0.00159,0.96734,-0.22387,2023,6,9,12,38,13,394
0.23660,2.88750,-4.70750,0.00000,0.00305,0.96880,-0.22546,2023,6,9,12,38,13,405
0.23670,2.73000,-4.60250,0.00000,0.00281,0.96734,-0.22570,2023,6,9,12,38,13,416
0.23680,2.95750,-4.35750,0.00000,0.00232,0.96709,-0.22814,2023,6,9,12,38,13,427
0.23690,2.73000,-4.65500,0.00000,0.00268,0.96795,-0.22729,2023,6,9,12,38,13,438
0.23700,2.71250,-4.56750,0.00000,0.00354,0.96514,-0.22533,2023,6,9,12,38,13,449
0.23710,2.90500,-4.76000,0.00000,0.00207,0.96722,-0.22436,2023,6,9,12,38,13,460
0.23720,2.83500,-4.49750,0.00000,0.00244,0.96441,-0.22607,2023,6,9,12,38,13,471
0.23730,2.97500,-4.63750,0.00000,0.00354,0.96612,-0.22655,2023,6,9,12,38,13,482
0.23740,2.74750,-4.46250,0.00000,0.00183,0.96563,-0.22765,2023,6,9,12,38,13,494
0.23750,2.94000,-4.72500,0.00000,0.00220,0.96746,-0.22546,2023,6,9,12,38,13,505
0.23760,2.69500,-4.58500,0.00000,0.00342,0.96758,-0.22582,2023,6,9,12,38,13,516
0.23770,2.99250,-4.70750,0.00000,0.00146,0.96600,-0.22607,2023,6,9,12,38,13,527
0.23780,2.92250,-4.74250,0.00000,0.00451,0.96770,-0.22729,2023,6,9,12,38,13,538
0.23790,2.97500,-4.60250,0.00000,0.00342,0.96709,-0.22814,2023,6,9,12,38,13,549
0.23800,2.69500,-4.56750,0.00000,0.00122,0.96526,-0.22485,2023,6,9,12,38,13,560
0.23810,2.83500,-4.42750,0.00000,0.00586,0.96722,-0.22448,2023,6,9,12,38,13,571
0.23820,2.78250,-4.42750,0.00000,0.00073,0.96624,-0.22814,2023,6,9,12,38,13,582
0.23830,2.83500,-4.53250,0.00000,0.00305,0.96490,-0.22424,2023,6,9,12,38,13,594
0.23840,2.73000,-4.53250,0.00000,0.00305,0.96844,-0.22399,2023,6,9,12,38,13,605
0.23850,2.66000,-4.56750,0.00000,0.00427,0.96880,-0.22594,2023,6,9,12,38,13,616
0.23860,2.83500,-4.55000,0.00000,0.00146,0.96770,-0.22643,2023,6,9,12,38,13,627
0.23870,2.64250,-4.55000,0.00000,0.00464,0.96551,-0.22668,2023,6,9,12,38,13,638
0.23880,2.80000,-4.72500,0.00000,0.00098,0.96709,-0.22497,2023,6,9,12,38,13,649
0.23890,2.78250,-4.69000,0.00000,0.00415,0.96612,-0.22399,2023,6,9,12,38,13,660
0.23900,2.80000,-4.72500,0.00000,0.00244,0.97027,-0.22631,2023,6,9,12,38,13,671
0.23910,2.95750,-4.53250,0.00000,0.00171,0.96441,-0.22863,2023,6,9,12,38,13,682
0.23920,2.64250,-4.37500,0.00000,0.00268,0.96905,-0.22826,2023,6,9,12,38,13,694
0.23930,2.80000,-4.69000,0.00000,0.00268,0.96636,-0.22753,2023,6,9,12,38,13,705
0.23940,2.90500,-4.56750,0.00000,0.00403,0.96783,-0.22643,2023,6,9,12,38,13,716
0.23950,2.99250,-4.49750,0.00000,0.00220,0.96624,-0.22448,2023,6,9,12,38,13,727
0.23960,2.69500,-4.65500,0.00000,0.00183,0.96612,-0.22546,2023,6,9,12,38,13,738
0.23970,2.90500,-4.51500,0.00000,-0.00012,0.96746,-0.22741,2023,6,9,12,38,13,749
0.23980,2.80000,-4.51500,0.00000,0.00488,0.96770,-0.22777,2023,6,9,12,38,13,760
0.23990,2.92250,-4.56750,0.00000,0.00403,0.96709,-0.22777,2023,6,9,12,38,13,771
0.24000,2.80000,-4.69000,0.00000,0.00268,0.96770,-0.22643,2023,6,9,12,38,13,782
0.24010,2.83500,-4.63750,0.00000,0.00244,0.96648,-0.22680,2023,6,9,12,38,13,794
0.24020,2.83500,-4.62000,0.00000,0.00232,0.96770,-0.22546,2023,6,9,12,38,13,805
0.24030,2.83500,-4.69000,0.00000,0.00268,0.96734,-0.22607,2023,6,9,12,38,13,816
0.24040,2.92250,-4.72500,0.00000,0.00159,0.96770,-0.22729,2023,6,9,12,38,13,827
0.24050,2.94000,-4.74250,0.00000,0.00220,0.96685,-0.22814,2023,6,9,12,38,13,838
0.24060,2.87000,-4.76000,0.00000,0.00171,0.96770,-0.22790,2023,6,9,12,38,13,849
0.24070,3.04500,-4.63750,0.00000,0.00159,0.96929,-0.22863,2023,6,9,12,38,13,860
0.24080,2.97500,-4.62000,0.00000,0.00195,0.96673,-0.22521,2023,6,9,12,38,13,871
0.24090,2.73000,-4.81250,0.00000,0.00415,0.96661,-0.22729,2023,6,9,12,38,13,882
0.24100,2.95750,-4.65500,0.00000,0.00085,0.96783,-0.22631,2023,6,9,12,38,13,894
0.24110,2.85250,-4.48000,0.00000,0.00549,0.96648,-0.22558,2023,6,9,12,38,13,905
0.24120,2.85250,-4.55000,0.00000,0.00317,0.96758,-0.22729,2023,6,9,12,38,13,916
0.24130,2.92250,-4.55000,0.00000,0.00232,0.96563,-0.22692,2023,6,9,12,38,13,927
0.24140,2.69500,-4.49750,0.00000,0.00110,0.96673,-0.22680,2023,6,9,12,38,13,938
0.24150,2.87000,-4.62000,0.00000,0.00110,0.96661,-0.22753,2023,6,9,12,38,13,949
0.24160,2.92250,-4.69000,0.00000,0.00256,0.96636,-0.22607,2023,6,9,12,38,13,960
0.24170,2.83500,-4.76000,0.00000,0.00171,0.96453,-0.22485,2023,6,9,12,38,13,971
0.24180,2.81750,-4.48000,0.00000,0.00268,0.96819,-0.22436,2023,6,9,12,38,13,982
0.24190,2.83500,-4.67250,0.00000,0.00171,0.96697,-0.22253,2023,6,9,12,38,13,994
0.24200,2.78250,-4.49750,0.00000,0.00183,0.96990,-0.22582,2023,6,9,12,38,13,5
0.24210,2.74750,-4.70750,0.00000,0.00281,0.96807,-0.22668,2023,6,9,12,38,14,6
0.24220,2.69500,-4.72500,0.00000,0.00293,0.96600,-0.22619,2023,6,9,12,38,14,17
0.24230,2.88750,-4.55000,0.00000,0.00281,0.96905,-0.22643,2023,6,9,12,38,14,28
0.24240,2.64250,-4.60250,0.00000,0.00378,0.96807,-0.22521,2023,6,9,12,38,14,39
0.24250,2.78250,-4.58500,0.00000,0.00146,0.96673,-0.22411,2023,6,9,12,38,14,50
0.24260,2.87000,-4.56750,0.00000,0.00171,0.96661,-0.22729,2023,6,9,12,38,14,61
0.24270,2.74750,-4.41000,0.00000,0.00146,0.96770,-0.22680,2023,6,9,12,38,14,72
0.24280,3.01000,-4.65500,0.00000,0.00171,0.96514,-0.22753,2023,6,9,12,38,14,84
0.24290,2.87000,-4.62000,0.00000,0.00415,0.96880,-0.22765,2023,6,9,12,38,14,95
0.24300,2.92250,-4.69000,0.00000,0.00366,0.96892,-0.22570,2023,6,9,12,38,14,106
0.24310,2.99250,-4.84750,0.00000,0.00256,0.96661,-0.22668,2023,6,9,12,38,14,117
0.24320,2.71250,-4.49750,0.00000,0.00464,0.96905,-0.22546,2023,6,9,12,38,14,128
0.24330,2.90500,-4.58500,0.00000,0.00171,0.96929,-0.22777,2023,6,9,12,38,14,139
0.24340,3.01000,-4.84750,0.00000,0.00207,0.96624,-0.22485,2023,6,9,12,38,14,150
0.24350,2.80000,-4.70750,0.00000,0.00293,0.96673,-0.22741,2023,6,9,12,38,14,161
0.24360,2.69500,-4.48000,0.00000,0.00354,0.96648,-0.22460,2023,6,9,12,38,14,172
0.24370,2.99250,-4.70750,0.00000,0.00354,0.96722,-0.22716,2023,6,9,12,38,14,184
0.24380,2.94000,-4.72500,0.00000,0.00183,0.96807,-0.22741,2023,6,9,12,38,14,195
0.24390,2.59000,-4.55000,0.00000,0.00415,0.96758,-0.22399,2023,6,9,12,38,14,206
0.24400,2.73000,-4.69000,0.00000,0.00342,0.96966,-0.22509,2023,6,9,12,38,14,217
0.24410,2.94000,-4.37500,0.00000,0.00342,0.96856,-0.22533,2023,6,9,12,38,14,228
0.24420,2.81750,-4.60250,0.00000,0.00256,0.96966,-0.22777,2023,6,9,12,38,14,239
0.24430,2.66000,-4.48000,0.00000,0.00232,0.96795,-0.22692,2023,6,9,12,38,14,250
0.24440,2.67750,-4.63750,0.00000,0.00342,0.96990,-0.22643,2023,6,9,12,38,14,261
0.24450,2.81750,-4.56750,0.00000,0.00427,0.96636,-0.22948,2023,6,9,12,38,14,272
0.24460,2.69500,-4.70750,0.00000,0.00195,0.96941,-0.22497,2023,6,9,12,38,14,284
0.24470,2.55500,-4.51500,0.00000,0.00525,0.96807,-0.22643,2023,6,9,12,38,14,295
0.24480,2.88750,-4.44500,0.00000,0.00451,0.96807,-0.22753,2023,6,9,12,38,14,306
0.24490,3.02750,-4.53250,0.00000,0.00403,0.96844,-0.22680,2023,6,9,12,38,14,317
0.24500,2.66000,-4.51500,0.00000,0.00134,0.96636,-0.22387,2023,6,9,12,38,14,328
0.24510,2.83500,-4.72500,0.00000,0.00451,0.96795,-0.22582,2023,6,9,12,38,14,339
0.24520,2.69500,-4.65500,0.00000,0.00085,0.96465,-0.22570,2023,6,9,12,38,14,350
0.24530,2.88750,-4.55000,0.00000,0.00134,0.96746,-0.22509,2023,6,9,12,38,14,361
0.24540,2.80000,-4.60250,0.00000,0.00329,0.96868,-0.22521,2023,6,9,12,38,14,372
0.24550,2.88750,-4.51500,0.00000,0.00403,0.96587,-0.22533,2023,6,9,12,38,14,384
0.24560,2.71250,-4.53250,0.00000,0.00317,0.96892,-0.22851,2023,6,9,12,38,14,395
0.24570,3.06250,-4.65500,0.00000,0.00317,0.96856,-0.22594,2023,6,9,12,38,14,406
0.24580,2.62500,-4.62000,0.00000,0.00329,0.96819,-0.22387,2023,6,9,12,38,14,417
0.24590,2.87000,-4.76000,0.00000,0.00329,0.96929,-0.22460,2023,6,9,12,38,14,428
0.24600,2.71250,-4.65500,0.00000,0.00317,0.96795,-0.22655,2023,6,9,12,38,14,439
0.24610,2.76500,-4.39250,0.00000,0.00256,0.96661,-0.22411,2023,6,9,12,38,14,450
0.24620,2.87000,-4.70750,0.00000,0.00305,0.96770,-0.22558,2023,6,9,12,38,14,461
0.24630,2.97500,-4.72500,0.00000,0.00281,0.96526,-0.22704,2023,6,9,12,38,14,472
0.24640,2.67750,-4.39250,0.00000,0.00378,0.96783,-0.22729,2023,6,9,12,38,14,484
0.24650,2.87000,-4.53250,0.00000,0.00281,0.96758,-0.22558,2023,6,9,12,38,14,495
0.24660,2.90500,-4.76000,0.00000,0.00268,0.96880,-0.22655,2023,6,9,12,38,14,506
0.24670,2.81750,-4.72500,0.00000,0.00268,0.96734,-0.22558,2023,6,9,12,38,14,517
0.24680,2.87000,-4.60250,0.00000,0.00098,0.96368,-0.22607,2023,6,9,12,38,14,528
0.24690,2.74750,-4.49750,0.00000,0.00317,0.96783,-0.22716,2023,6,9,12,38,14,539
0.24700,2.66000,-4.60250,0.00000,0.00317,0.96539,-0.22668,2023,6,9,12,38,14,550
0.24710,2.83500,-4.62000,0.00000,0.00317,0.96758,-0.22448,2023,6,9,12,38,14,561
0.24720,3.01000,-4.72500,0.00000,0.00220,0.96685,-0.22753,2023,6,9,12,38,14,572
0.24730,2.81750,-4.56750,0.00000,-0.00085,0.96807,-0.22729,2023,6,9,12,38,14,584
0.24740,2.59000,-4.65500,0.00000,0.00342,0.96490,-0.22533,2023,6,9,12,38,14,595
0.24750,2.66000,-4.56750,0.00000,0.00207,0.96831,-0.22607,2023,6,9,12,38,14,606
0.24760,2.83500,-4.48000,0.00000,0.00476,0.96612,-0.22777,2023,6,9,12,38,14,617
0.24770,2.74750,-4.67250,0.00000,0.00256,0.96758,-0.22729,2023,6,9,12,38,14,628
0.24780,2.71250,-4.55000,0.00000,0.00171,0.96795,-0.22570,2023,6,9,12,38,14,639
0.24790,2.67750,-4.67250,0.00000,0.00500,0.96831,-0.22363,2023,6,9,12,38,14,650
0.24800,2.74750,-4.62000,0.00000,0.00317,0.96758,-0.22765,2023,6,9,12,38,14,661
0.24810,2.71250,-4.60250,0.00000,0.00354,0.96953,-0.22631,2023,6,9,12,38,14,672
0.24820,2.80000,-4.55000,0.00000,0.00037,0.96844,-0.22472,2023,6,9,12,38,14,684
0.24830,2.66000,-4.74250,0.00000,0.00329,0.96673,-0.22655,2023,6,9,12,38,14,695
0.24840,2.83500,-4.62000,0.00000,0.00195,0.96734,-0.22570,2023,6,9,12,38,14,706
0.24850,2.69500,-4.62000,0.00000,0.00305,0.96868,-0.22655,2023,6,9,12,38,14,717
0.24860,2.71250,-4.67250,0.00000,0.00012,0.96844,-0.22655,2023,6,9,12,38,14,728
0.24870,2.69500,-4.60250,0.00000,0.00256,0.96990,-0.22497,2023,6,9,12,38,14,739
0.24880,2.83500,-4.39250,0.00000,0.00354,0.96978,-0.22521,2023,6,9,12,38,14,750
0.24890,2.74750,-4.53250,0.00000,0.00171,0.96770,-0.22533,2023,6,9,12,38,14,761
0.24900,2.88750,-4.88250,0.00000,0.00378,0.96661,-0.22533,2023,6,9,12,38,14,772
0.24910,2.92250,-4.53250,0.00000,0.00220,0.96600,-0.22546,2023,6,9,12,38,14,784
0.24920,2.74750,-4.53250,0.00000,0.00366,0.96783,-0.22570,2023,6,9,12,38,14,795
0.24930,2.76500,-4.42750,0.00000,0.00195,0.96624,-0.22899,2023,6,9,12,38,14,806
0.24940,2.92250,-4.51500,0.00000,0.00317,0.96697,-0.22753,2023,6,9,12,38,14,817
0.24950,2.80000,-4.39250,0.00000,0.00293,0.96856,-0.22375,2023,6,9,12,38,14,828
0.24960,2.74750,-4.39250,0.00000,0.00207,0.97002,-0.22607,2023,6,9,12,38,14,839
0.24970,2.74750,-4.56750,0.00000,0.00390,0.96624,-0.22558,2023,6,9,12,38,14,850
0.24980,2.78250,-4.48000,0.00000,0.00281,0.96685,-0.22851,2023,6,9,12,38,14,861
0.24990,2.90500,-4.77750,0.00000,0.00024,0.96758,-0.22729,2023,6,9,12,38,14,872
0.25000,2.83500,-4.62000,0.00000,0.00159,0.96697,-0.22594,2023,6,9,12,38,14,884
0.25010,2.67750,-4.46250,0.00000,0.00220,0.96831,-0.22643,2023,6,9,12,38,14,895
0.25020,2.80000,-4.63750,0.00000,0.00342,0.96856,-0.22558,2023,6,9,12,38,14,906
0.25030,2.83500,-4.62000,0.00000,0.00098,0.96490,-0.22521,2023,6,9,12,38,14,917
0.25040,2.87000,-4.65500,0.00000,0.00232,0.96709,-0.22765,2023,6,9,12,38,14,928
0.25050,2.85250,-4.65500,0.00000,0.00159,0.96575,-0.22338,2023,6,9,12,38,14,939
0.25060,2.80000,-4.49750,0.00000,0.00342,0.96758,-0.22875,2023,6,9,12,38,14,950
0.25070,2.83500,-4.53250,0.00000,0.00207,0.96722,-0.22692,2023,6,9,12,38,14,961
0.25080,2.78250,-4.49750,0.00000,0.00268,0.96917,-0.22753,2023,6,9,12,38,14,972
0.25090,2.81750,-4.62000,0.00000,0.00366,0.96636,-0.22680,2023,6,9,12,38,14,984
0.25100,2.71250,-4.41000,0.00000,0.00390,0.96880,-0.22668,2023,6,9,12,38,14,995
0.25110,2.81750,-4.55000,0.00000,0.00159,0.96892,-0.22411,2023,6,9,12,38,14,6
0.25120,2.83500,-4.79500,0.00000,0.00476,0.96539,-0.22497,2023,6,9,12,38,15,7
0.25130,2.80000,-4.48000,0.00000,0.00268,0.96990,-0.22899,2023,6,9,12,38,15,18
0.25140,2.74750,-4.60250,0.00000,0.00220,0.96587,-0.22838,2023,6,9,12,38,15,29
0.25150,2.73000,-4.67250,0.00000,0.00317,0.96624,-0.22387,2023,6,9,12,38,15,40
0.25160,2.66000,-4.69000,0.00000,0.00024,0.96819,-0.22680,2023,6,9,12,38,15,51
0.25170,2.92250,-4.81250,0.00000,0.00207,0.96795,-0.22814,2023,6,9,12,38,15,62
0.25180,2.67750,-4.27000,0.00000,0.00244,0.96758,-0.22924,2023,6,9,12,38,15,74
0.25190,2.83500,-4.76000,0.00000,0.00244,0.96758,-0.22546,2023,6,9,12,38,15,85
0.25200,2.81750,-4.72500,0.00000,0.00305,0.96722,-0.22399,2023,6,9,12,38,15,96
0.25210,2.62500,-4.53250,0.00000,0.00305,0.96673,-0.22838,2023,6,9,12,38,15,107
0.25220,2.95750,-4.69000,0.00000,0.00146,0.96795,-0.22631,2023,6,9,12,38,15,118
0.25230,2.85250,-4.58500,0.00000,0.00183,0.96380,-0.22655,2023,6,9,12,38,15,129
0.25240,2.76500,-4.41000,0.00000,0.00390,0.96636,-0.22765,2023,6,9,12,38,15,140
0.25250,2.94000,-4.62000,0.00000,0.00305,0.96783,-0.22655,2023,6,9,12,38,15,151
0.25260,3.01000,-4.60250,0.00000,0.00171,0.96722,-0.22997,2023,6,9,12,38,15,162
0.25270,2.73000,-4.79500,0.00000,0.00293,0.96343,-0.22448,2023,6,9,12,38,15,174
0.25280,2.73000,-4.67250,0.00000,0.00293,0.96831,-0.22680,2023,6,9,12,38,15,185
0.25290,2.87000,-4.60250,0.00000,0.00305,0.96673,-0.22912,2023,6,9,12,38,15,196
0.25300,2.71250,-4.49750,0.00000,0.00159,0.96807,-0.22741,2023,6,9,12,38,15,207
0.25310,2.76500,-4.62000,0.00000,0.00037,0.96526,-0.22570,2023,6,9,12,38,15,218
0.25320,2.81750,-4.55000,0.00000,0.00390,0.96673,-0.22558,2023,6,9,12,38,15,229
0.25330,3.11500,-4.51500,0.00000,0.00195,0.96783,-0.22753,2023,6,9,12,38,15,240
0.25340,2.90500,-4.56750,0.00000,0.00171,0.96709,-0.22704,2023,6,9,12,38,15,251
0.25350,2.67750,-4.67250,0.00000,0.00195,0.96966,-0.22448,2023,6,9,12,38,15,262
0.25360,2.69500,-4.44500,0.00000,0.00342,0.96807,-0.22570,2023,6,9,12,38,15,274
0.25370,2.83500,-4.51500,0.00000,0.00012,0.96526,-0.22692,2023,6,9,12,38,15,285
0.25380,2.88750,-4.56750,0.00000,0.00329,0.96709,-0.22753,2023,6,9,12,38,15,296
0.25390,2.81750,-4.67250,0.00000,0.00464,0.96648,-0.22729,2023,6,9,12,38,15,307
0.25400,2.74750,-4.49750,0.00000,0.00366,0.96526,-0.22509,2023,6,9,12,38,15,318
0.25410,2.78250,-4.55000,0.00000,0.00415,0.96526,-0.22704,2023,6,9,12,38,15,329
0.25420,2.76500,-4.55000,0.00000,0.00244,0.96734,-0.22826,2023,6,9,12,38,15,340
0.25430,2.81750,-4.49750,0.00000,0.00329,0.96624,-0.22265,2023,6,9,12,38,15,351
0.25440,2.71250,-4.88250,0.00000,0.00244,0.96612,-0.22558,2023,6,9,12,38,15,362
0.25450,2.76500,-4.63750,0.00000,0.00110,0.96880,-0.22619,2023,6,9,12,38,15,374
0.25460,2.83500,-4.62000,0.00000,0.00329,0.96758,-0.22741,2023,6,9,12,38,15,385
0.25470,2.80000,-4.51500,0.00000,0.00183,0.96697,-0.22314,2023,6,9,12,38,15,396
0.25480,2.74750,-4.83000,0.00000,0.00195,0.96490,-0.22704,2023,6,9,12,38,15,407
0.25490,2.78250,-4.70750,0.00000,0.00171,0.96758,-0.22509,2023,6,9,12,38,15,418
0.25500,2.87000,-4.56750,0.00000,0.00098,0.96709,-0.22729,2023,6,9,12,38,15,429
0.25510,2.71250,-4.60250,0.00000,0.00281,0.96929,-0.22424,2023,6,9,12,38,15,440
0.25520,2.74750,-4.70750,0.00000,0.00195,0.96478,-0.22497,2023,6,9,12,38,15,451
0.25530,2.76500,-4.48000,0.00000,0.00305,0.96697,-0.22619,2023,6,9,12,38,15,462
0.25540,2.83500,-4.44500,0.00000,0.00305,0.96795,-0.22655,2023,6,9,12,38,15,474
0.25550,2.76500,-4.60250,0.00000,0.00146,0.96953,-0.22643,2023,6,9,12,38,15,485
0.25560,2.73000,-4.72500,0.00000,0.00207,0.96758,-0.22582,2023,6,9,12,38,15,496
0.25570,2.71250,-4.49750,0.00000,0.00366,0.96709,-0.22716,2023,6,9,12,38,15,507
0.25580,2.85250,-4.72500,0.00000,0.00195,0.96746,-0.22802,2023,6,9,12,38,15,518
0.25590,2.85250,-4.53250,0.00000,0.00293,0.96636,-0.22533,2023,6,9,12,38,15,529
0.25600,2.90500,-4.63750,0.00000,0.00390,0.96612,-0.22411,2023,6,9,12,38,15,540
0.25610,2.90500,-4.49750,0.00000,0.00256,0.96807,-0.22863,2023,6,9,12,38,15,551
0.25620,2.90500,-4.55000,0.00000,0.00159,0.96783,-0.22716,2023,6,9,12,38,15,562
0.25630,2.87000,-4.62000,0.00000,0.00366,0.96819,-0.22582,2023,6,9,12,38,15,574
0.25640,2.78250,-4.76000,0.00000,0.00244,0.96722,-0.22460,2023,6,9,12,38,15,585
0.25650,2.83500,-4.39250,0.00000,0.00427,0.96600,-0.22716,2023,6,9,12,38,15,596
0.25660,2.85250,-4.67250,0.00000,0.00220,0.96636,-0.22655,2023,6,9,12,38,15,607
0.25670,2.92250,-4.67250,0.00000,0.00220,0.96856,-0.22631,2023,6,9,12,38,15,618
0.25680,2.81750,-4.56750,0.00000,0.00451,0.96709,-0.22509,2023,6,9,12,38,15,629
0.25690,2.71250,-4.49750,0.00000,0.00354,0.96685,-0.22692,2023,6,9,12,38,15,640
0.25700,2.73000,-4.60250,0.00000,0.00110,0.96807,-0.22802,2023,6,9,12,38,15,651
0.25710,2.87000,-4.63750,0.00000,0.00268,0.96502,-0.22741,2023,6,9,12,38,15,662
0.25720,2.67750,-4.72500,0.00000,0.00122,0.96673,-0.22948,2023,6,9,12,38,15,674
0.25730,2.59000,-4.49750,0.00000,0.00073,0.96636,-0.22411,2023,6,9,12,38,15,685
0.25740,2.66000,-4.60250,0.00000,0.00525,0.96404,-0.22680,2023,6,9,12,38,15,696
0.25750,2.76500,-4.65500,0.00000,0.00195,0.96673,-0.22899,2023,6,9,12,38,15,707
0.25760,2.80000,-4.72500,0.00000,0.00329,0.96636,-0.22802,2023,6,9,12,38,15,718
0.25770,2.71250,-4.62000,0.00000,0.00439,0.96612,-0.22729,2023,6,9,12,38,15,729
0.25780,2.94000,-4.60250,0.00000,0.00403,0.96624,-0.22729,2023,6,9,12,38,15,740
0.25790,2.78250,-4.56750,0.00000,0.00207,0.96575,-0.22582,2023,6,9,12,38,15,751
0.25800,2.95750,-4.65500,0.00000,-0.00037,0.96831,-0.22826,2023,6,9,12,38,15,762
0.25810,2.78250,-4.81250,0.00000,0.00427,0.96844,-0.22497,2023,6,9,12,38,15,774
0.25820,3.04500,-4.76000,0.00000,0.00451,0.96856,-0.22777,2023,6,9,12,38,15,785
0.25830,2.81750,-4.79500,0.00000,0.00281,0.96709,-0.22643,2023,6,9,12,38,15,796
0.25840,2.71250,-4.56750,0.00000,0.00085,0.96429,-0.22765,2023,6,9,12,38,15,807
0.25850,2.76500,-4.63750,0.00000,0.00390,0.96709,-0.22546,2023,6,9,12,38,15,818
0.25860,2.74750,-4.60250,0.00000,0.00329,0.96661,-0.22826,2023,6,9,12,38,15,829
0.25870,2.88750,-4.79500,0.00000,0.00390,0.96709,-0.22790,2023,6,9,12,38,15,840
0.25880,2.67750,-4.51500,0.00000,0.00403,0.96831,-0.22729,2023,6,9,12,38,15,851
0.25890,2.53750,-4.55000,0.00000,0.00317,0.96929,-0.22631,2023,6,9,12,38,15,862
0.25900,2.66000,-4.53250,0.00000,0.00293,0.96722,-0.22570,2023,6,9,12,38,15,874
0.25910,2.76500,-4.62000,0.00000,0.00171,0.96807,-0.22826,2023,6,9,12,38,15,885
0.25920,2.60750,-4.42750,0.00000,0.00195,0.96697,-0.22472,2023,6,9,12,38,15,896
0.25930,2.78250,-4.65500,0.00000,0.00451,0.96831,-0.22411,2023,6,9,12,38,15,907
0.25940,2.74750,-4.70750,0.00000,0.00220,0.96734,-0.22655,2023,6,9,12,38,15,918
0.25950,2.97500,-4.76000,0.00000,0.00183,0.96807,-0.22594,2023,6,9,12,38,15,929
0.25960,2.88750,-4.65500,0.00000,0.00232,0.96941,-0.22655,2023,6,9,12,38,15,940
0.25970,2.80000,-4.65500,0.00000,0.00207,0.96465,-0.22582,2023,6,9,12,38,15,951
0.25980,2.73000,-4.53250,0.00000,0.00525,0.96844,-0.22363,2023,6,9,12,38,15,962
0.25990,2.62500,-4.44500,0.00000,0.00390,0.96417,-0.22594,2023,6,9,12,38,15,974
0.26000,2.78250,-4.69000,0.00000,0.00390,0.96746,-0.22863,2023,6,9,12,38,15,985
0.26010,2.81750,-4.49750,0.00000,0.00342,0.96685,-0.22472,2023,6,9,12,38,15,996
0.26020,2.95750,-4.56750,0.00000,0.00390,0.96551,-0.22546,2023,6,9,12,38,15,7
0.26030,2.80000,-4.77750,0.00000,0.00244,0.96819,-0.22790,2023,6,9,12,38,16,8
0.26040,2.83500,-4.46250,0.00000,0.00354,0.96697,-0.22777,2023,6,9,12,38,16,19
0.26050,2.57250,-4.41000,0.00000,0.00256,0.96648,-0.22643,2023,6,9,12,38,16,30
0.26060,2.73000,-4.56750,0.00000,0.00183,0.96953,-0.22277,2023,6,9,12,38,16,41
0.26070,2.60750,-4.51500,0.00000,0.00232,0.96929,-0.22399,2023,6,9,12,38,16,52
0.26080,2.81750,-4.67250,0.00000,0.00305,0.96905,-0.22424,2023,6,9,12,38,16,64
0.26090,2.71250,-4.62000,0.00000,0.00183,0.96758,-0.22838,2023,6,9,12,38,16,75
0.26100,2.76500,-4.67250,0.00000,0.00024,0.96734,-0.22680,2023,6,9,12,38,16,86
0.26110,2.85250,-4.72500,0.00000,0.00256,0.96770,-0.22802,2023,6,9,12,38,16,97
0.26120,2.76500,-4.53250,0.00000,0.00268,0.96892,-0.22838,2023,6,9,12,38,16,108
0.26130,2.95750,-4.65500,0.00000,0.00293,0.96685,-0.22802,2023,6,9,12,38,16,119
0.26140,2.99250,-4.62000,0.00000,0.00220,0.96819,-0.22729,2023,6,9,12,38,16,130
0.26150,2.66000,-4.67250,0.00000,0.00427,0.96734,-0.22704,2023,6,9,12,38,16,141
0.26160,2.69500,-4.69000,0.00000,0.00305,0.96526,-0.22558,2023,6,9,12,38,16,152
0.26170,2.92250,-4.63750,0.00000,0.00281,0.96734,-0.22643,2023,6,9,12,38,16,164
0.26180,2.71250,-4.56750,0.00000,0.00293,0.96551,-0.22692,2023,6,9,12,38,16,175
0.26190,2.74750,-4.58500,0.00000,0.00293,0.96758,-0.22594,2023,6,9,12,38,16,186
0.26200,2.88750,-4.63750,0.00000,0.00415,0.96648,-0.22350,2023,6,9,12,38,16,197
0.26210,2.78250,-4.51500,0.00000,0.00122,0.96795,-0.22887,2023,6,9,12,38,16,208
0.26220,2.94000,-4.51500,0.00000,0.00427,0.96624,-0.22509,2023,6,9,12,38,16,219
0.26230,2.73000,-4.77750,0.00000,0.00195,0.96612,-0.22546,2023,6,9,12,38,16,230
0.26240,2.67750,-4.51500,0.00000,0.00146,0.96868,-0.22631,2023,6,9,12,38,16,241
0.26250,2.83500,-4.67250,0.00000,0.00293,0.97002,-0.22607,2023,6,9,12,38,16,252
0.26260,2.73000,-4.67250,0.00000,-0.00037,0.96453,-0.22790,2023,6,9,12,38,16,264
0.26270,2.69500,-4.65500,0.00000,0.00146,0.96563,-0.22619,2023,6,9,12,38,16,275
0.26280,2.90500,-4.72500,0.00000,0.00293,0.96807,-0.22668,2023,6,9,12,38,16,286
0.26290,2.92250,-4.60250,0.00000,0.00439,0.96453,-0.22753,2023,6,9,12,38,16,297
0.26300,2.52000,-4.46250,0.00000,0.00195,0.96734,-0.22716,2023,6,9,12,38,16,308
0.26310,2.85250,-5.00500,0.00000,0.00134,0.96722,-0.22546,2023,6,9,12,38,16,319
0.26320,2.92250,-4.53250,0.00000,0.00171,0.96587,-0.22546,2023,6,9,12,38,16,330
0.26330,2.71250,-4.55000,0.00000,0.00220,0.96966,-0.22546,2023,6,9,12,38,16,341
0.26340,2.62500,-4.58500,0.00000,0.00122,0.96636,-0.22558,2023,6,9,12,38,16,352
0.26350,2.90500,-4.84750,0.00000,0.00207,0.96575,-0.22607,2023,6,9,12,38,16,364
0.26360,2.78250,-4.74250,0.00000,0.00342,0.96709,-0.22509,2023,6,9,12,38,16,375
0.26370,2.81750,-4.60250,0.00000,0.00488,0.96612,-0.22765,2023,6,9,12,38,16,386
0.26380,2.81750,-4.74250,0.00000,0.00244,0.96734,-0.22594,2023,6,9,12,38,16,397
0.26390,2.83500,-4.49750,0.00000,0.00366,0.96844,-0.22716,2023,6,9,12,38,16,408
0.26400,2.73000,-4.70750,0.00000,0.00293,0.96612,-0.22485,2023,6,9,12,38,16,419
0.26410,2.66000,-4.53250,0.00000,0.00171,0.96612,-0.22594,2023,6,9,12,38,16,430
0.26420,2.90500,-4.72500,0.00000,0.00256,0.96722,-0.22802,2023,6,9,12,38,16,441
0.26430,2.92250,-4.63750,0.00000,0.00183,0.96831,-0.22704,2023,6,9,12,38,16,452
0.26440,2.92250,-4.84750,0.00000,0.00464,0.96697,-0.22521,2023,6,9,12,38,16,464
0.26450,2.87000,-4.70750,0.00000,0.00415,0.96514,-0.22399,2023,6,9,12,38,16,475
0.26460,2.74750,-4.63750,0.00000,0.00305,0.96868,-0.22863,2023,6,9,12,38,16,486
0.26470,2.67750,-4.42750,0.00000,0.00220,0.96441,-0.22411,2023,6,9,12,38,16,497
0.26480,2.88750,-4.62000,0.00000,0.00281,0.96795,-0.22497,2023,6,9,12,38,16,508
0.26490,2.73000,-4.60250,0.00000,0.00500,0.96758,-0.22814,2023,6,9,12,38,16,519
0.26500,2.76500,-4.48000,0.00000,0.00512,0.96697,-0.22448,2023,6,9,12,38,16,530
0.26510,2.85250,-4.65500,0.00000,0.00293,0.96673,-0.22716,2023,6,9,12,38,16,541
0.26520,2.87000,-4.58500,0.00000,0.00159,0.96575,-0.22777,2023,6,9,12,38,16,552
0.26530,2.64250,-4.62000,0.00000,0.00439,0.96929,-0.22387,2023,6,9,12,38,16,564
0.26540,2.78250,-4.48000,0.00000,0.00098,0.96685,-0.22619,2023,6,9,12,38,16,575
0.26550,3.04500,-4.63750,0.00000,0.00012,0.96990,-0.22631,2023,6,9,12,38,16,586
0.26560,2.74750,-4.56750,0.00000,0.00329,0.97027,-0.22668,2023,6,9,12,38,16,597
0.26570,2.71250,-4.72500,0.00000,0.00232,0.96697,-0.22631,2023,6,9,12,38,16,608
0.26580,2.87000,-4.67250,0.00000,0.00586,0.96526,-0.22460,2023,6,9,12,38,16,619
0.26590,2.80000,-4.44500,0.00000,0.00317,0.96953,-0.22741,2023,6,9,12,38,16,630
0.26600,2.67750,-4.34000,0.00000,0.00342,0.96734,-0.22558,2023,6,9,12,38,16,641
0.26610,2.78250,-4.72500,0.00000,0.00317,0.96868,-0.22558,2023,6,9,12,38,16,652
0.26620,2.69500,-4.70750,0.00000,0.00439,0.96966,-0.22399,2023,6,9,12,38,16,664
0.26630,2.88750,-4.70750,0.00000,0.00232,0.96770,-0.22729,2023,6,9,12,38,16,675
0.26640,2.94000,-4.44500,0.00000,0.00329,0.96978,-0.22619,2023,6,9,12,38,16,686
0.26650,2.74750,-4.51500,0.00000,0.00195,0.97075,-0.22582,2023,6,9,12,38,16,697
0.26660,2.94000,-4.97000,0.00000,0.00183,0.96795,-0.22607,2023,6,9,12,38,16,708
0.26670,2.67750,-4.44500,0.00000,0.00500,0.96905,-0.22497,2023,6,9,12,38,16,719
0.26680,2.87000,-4.60250,0.00000,0.00293,0.96795,-0.22692,2023,6,9,12,38,16,730
0.26690,2.67750,-4.58500,0.00000,0.00183,0.96746,-0.22607,2023,6,9,12,38,16,741
0.26700,2.73000,-4.53250,0.00000,0.00268,0.96612,-0.22753,2023,6,9,12,38,16,752
0.26710,2.88750,-4.69000,0.00000,0.00195,0.96722,-0.22570,2023,6,9,12,38,16,764
0.26720,2.80000,-4.55000,0.00000,0.00183,0.96783,-0.22668,2023,6,9,12,38,16,775
0.26730,2.78250,-4.30500,0.00000,0.00342,0.96575,-0.22546,2023,6,9,12,38,16,786
0.26740,2.85250,-4.46250,0.00000,0.00220,0.96295,-0.22643,2023,6,9,12,38,16,797
0.26750,2.71250,-4.72500,0.00000,0.00305,0.96722,-0.22619,2023,6,9,12,38,16,808
0.26760,2.59000,-4.67250,0.00000,0.00256,0.96673,-0.22826,2023,6,9,12,38,16,819
0.26770,2.87000,-4.74250,0.00000,0.00305,0.96844,-0.22497,2023,6,9,12,38,16,830
0.26780,2.74750,-4.62000,0.00000,0.00537,0.96770,-0.22716,2023,6,9,12,38,16,841
0.26790,2.67750,-4.72500,0.00000,0.00073,0.96600,-0.22411,2023,6,9,12,38,16,852
0.26800,2.81750,-4.69000,0.00000,0.00232,0.96441,-0.22521,2023,6,9,12,38,16,864
0.26810,2.83500,-4.42750,0.00000,0.00195,0.96758,-0.22424,2023,6,9,12,38,16,875
0.26820,2.80000,-4.58500,0.00000,0.00317,0.96490,-0.22533,2023,6,9,12,38,16,886
0.26830,2.92250,-4.67250,0.00000,0.00366,0.96526,-0.22741,2023,6,9,12,38,16,897
0.26840,2.90500,-4.63750,0.00000,0.00073,0.96746,-0.22704,2023,6,9,12,38,16,908
0.26850,2.55500,-4.70750,0.00000,0.00281,0.96868,-0.22411,2023,6,9,12,38,16,919
0.26860,2.71250,-4.63750,0.00000,0.00329,0.96978,-0.22887,2023,6,9,12,38,16,930
0.26870,2.73000,-4.65500,0.00000,0.00268,0.96807,-0.22716,2023,6,9,12,38,16,941
0.26880,2.95750,-4.51500,0.00000,0.00317,0.96758,-0.22753,2023,6,9,12,38,16,952
0.26890,2.66000,-4.30500,0.00000,0.00256,0.97100,-0.22497,2023,6,9,12,38,16,964
0.26900,2.87000,-4.53250,0.00000,0.00146,0.96636,-0.22607,2023,6,9,12,38,16,975
0.26910,2.76500,-4.70750,0.00000,0.00220,0.96722,-0.22485,2023,6,9,12,38,16,986
0.26920,2.71250,-4.35750,0.00000,0.00549,0.96819,-0.22777,2023,6,9,12,38,16,997
0.26930,2.67750,-4.49750,0.00000,0.00122,0.96636,-0.22704,2023,6,9,12,38,16,8
0.26940,2.76500,-4.67250,0.00000,0.00378,0.96404,-0.22460,2023,6,9,12,38,17,9
0.26950,2.66000,-4.60250,0.00000,0.00293,0.96709,-0.22655,2023,6,9,12,38,17,20
0.26960,2.76500,-4.63750,0.00000,0.00122,0.96892,-0.22655,2023,6,9,12,38,17,31
0.26970,2.80000,-4.60250,0.00000,0.00207,0.96734,-0.22631,2023,6,9,12,38,17,42
0.26980,2.64250,-4.72500,0.00000,0.00207,0.96600,-0.22436,2023,6,9,12,38,17,54
0.26990,2.99250,-4.67250,0.00000,0.00256,0.96844,-0.22680,2023,6,9,12,38,17,65
0.27000,2.73000,-4.62000,0.00000,0.00244,0.96587,-0.22302,2023,6,9,12,38,17,76
0.27010,2.81750,-4.55000,0.00000,0.00342,0.96770,-0.22765,2023,6,9,12,38,17,87
0.27020,2.95750,-4.49750,0.00000,0.00281,0.96819,-0.22924,2023,6,9,12,38,17,98
0.27030,2.80000,-4.53250,0.00000,0.00183,0.96880,-0.22594,2023,6,9,12,38,17,109
0.27040,2.87000,-4.49750,0.00000,0.00244,0.96722,-0.22826,2023,6,9,12,38,17,120
0.27050,2.57250,-4.46250,0.00000,0.00354,0.96563,-0.22472,2023,6,9,12,38,17,131
0.27060,2.78250,-4.53250,0.00000,0.00329,0.96722,-0.22643,2023,6,9,12,38,17,142
0.27070,2.87000,-4.60250,0.00000,0.00232,0.96697,-0.22485,2023,6,9,12,38,17,154
0.27080,2.74750,-4.60250,0.00000,0.00256,0.96551,-0.22558,2023,6,9,12,38,17,165
0.27090,2.81750,-4.81250,0.00000,0.00293,0.96905,-0.22436,2023,6,9,12,38,17,176
0.27100,2.62500,-4.65500,0.00000,0.00403,0.96661,-0.22619,2023,6,9,12,38,17,187
0.27110,2.80000,-4.58500,0.00000,0.00037,0.96600,-0.22594,2023,6,9,12,38,17,198
0.27120,2.74750,-4.74250,0.00000,0.00329,0.96783,-0.22594,2023,6,9,12,38,17,209
0.27130,2.90500,-4.60250,0.00000,0.00476,0.96917,-0.22594,2023,6,9,12,38,17,220
0.27140,2.66000,-4.51500,0.00000,0.00171,0.96831,-0.22777,2023,6,9,12,38,17,231
0.27150,2.74750,-4.58500,0.00000,0.00159,0.96758,-0.22668,2023,6,9,12,38,17,242
0.27160,2.78250,-4.77750,0.00000,0.00281,0.96661,-0.22753,2023,6,9,12,38,17,254
0.27170,2.62500,-4.55000,0.00000,0.00342,0.96831,-0.22887,2023,6,9,12,38,17,265
0.27180,2.80000,-4.83000,0.00000,0.00293,0.96722,-0.22643,2023,6,9,12,38,17,276
0.27190,2.85250,-4.79500,0.00000,0.00049,0.96880,-0.22241,2023,6,9,12,38,17,287
0.27200,2.83500,-4.56750,0.00000,0.00305,0.96685,-0.22777,2023,6,9,12,38,17,298
0.27210,2.83500,-4.58500,0.00000,0.00354,0.96917,-0.22741,2023,6,9,12,38,17,309
0.27220,2.69500,-4.77750,0.00000,-0.00037,0.96734,-0.22753,2023,6,9,12,38,17,320
0.27230,3.02750,-4.83000,0.00000,0.00232,0.96795,-0.22680,2023,6,9,12,38,17,331
0.27240,2.62500,-4.63750,0.00000,0.00342,0.96624,-0.22582,2023,6,9,12,38,17,342
0.27250,2.62500,-4.62000,0.00000,0.00171,0.96624,-0.22424,2023,6,9,12,38,17,354
0.27260,3.02750,-4.93500,0.00000,0.00268,0.96453,-0.22619,2023,6,9,12,38,17,365
0.27270,2.83500,-4.77750,0.00000,0.00281,0.96709,-0.22680,2023,6,9,12,38,17,376
0.27280,2.90500,-4.55000,0.00000,0.00049,0.96563,-0.22716,2023,6,9,12,38,17,387
0.27290,2.78250,-4.65500,0.00000,0.00207,0.96685,-0.22692,2023,6,9,12,38,17,398
0.27300,2.87000,-4.70750,0.00000,0.00464,0.96795,-0.22631,2023,6,9,12,38,17,409
0.27310,2.81750,-4.53250,0.00000,0.00171,0.96758,-0.22814,2023,6,9,12,38,17,420
0.27320,2.69500,-4.56750,0.00000,0.00281,0.96575,-0.22387,2023,6,9,12,38,17,431
0.27330,2.80000,-4.60250,0.00000,0.00061,0.97075,-0.22497,2023,6,9,12,38,17,442
0.27340,2.78250,-4.53250,0.00000,0.00183,0.96758,-0.22643,2023,6,9,12,38,17,454
0.27350,2.73000,-4.77750,0.00000,0.00159,0.96734,-0.22936,2023,6,9,12,38,17,465
0.27360,2.83500,-4.63750,0.00000,0.00268,0.96966,-0.22619,2023,6,9,12,38,17,476
0.27370,2.94000,-4.65500,0.00000,0.00134,0.97002,-0.22668,2023,6,9,12,38,17,487
0.27380,2.55500,-4.53250,0.00000,0.00171,0.96502,-0.22668,2023,6,9,12,38,17,498
0.27390,2.97500,-4.55000,0.00000,0.00354,0.96697,-0.22753,2023,6,9,12,38,17,509
0.27400,2.81750,-4.69000,0.00000,0.00305,0.96624,-0.22777,2023,6,9,12,38,17,520
0.27410,2.74750,-4.76000,0.00000,0.00110,0.96624,-0.22521,2023,6,9,12,38,17,531
0.27420,2.69500,-4.34000,0.00000,0.00342,0.96722,-0.22411,2023,6,9,12,38,17,542
0.27430,2.80000,-4.49750,0.00000,0.00451,0.96892,-0.22533,2023,6,9,12,38,17,554
0.27440,2.80000,-4.72500,0.00000,0.00354,0.96917,-0.22546,2023,6,9,12,38,17,565
0.27450,2.85250,-4.72500,0.00000,0.00085,0.96722,-0.22655,2023,6,9,12,38,17,576
0.27460,2.69500,-4.39250,0.00000,0.00061,0.96734,-0.22314,2023,6,9,12,38,17,587
0.27470,2.78250,-4.65500,0.00000,0.00256,0.96490,-0.22765,2023,6,9,12,38,17,598
0.27480,2.80000,-4.48000,0.00000,0.00525,0.96868,-0.22643,2023,6,9,12,38,17,609
0.27490,2.87000,-4.55000,0.00000,0.00049,0.96722,-0.22777,2023,6,9,12,38,17,620
0.27500,2.71250,-4.53250,0.00000,0.00244,0.96600,-0.22521,2023,6,9,12,38,17,631
0.27510,2.78250,-4.55000,0.00000,0.00415,0.96722,-0.22814,2023,6,9,12,38,17,642
0.27520,3.15000,-4.60250,0.00000,0.00268,0.96880,-0.22655,2023,6,9,12,38,17,654
0.27530,2.74750,-4.53250,0.00000,0.00293,0.96844,-0.22570,2023,6,9,12,38,17,665
0.27540,2.92250,-4.63750,0.00000,0.00268,0.96831,-0.22582,2023,6,9,12,38,17,676
0.27550,2.97500,-4.41000,0.00000,0.00268,0.97039,-0.22509,2023,6,9,12,38,17,687
0.27560,2.88750,-4.77750,0.00000,0.00390,0.96697,-0.22424,2023,6,9,12,38,17,698
0.27570,2.81750,-4.60250,0.00000,0.00415,0.96490,-0.22802,2023,6,9,12,38,17,709
0.27580,2.73000,-4.77750,0.00000,0.00268,0.96734,-0.22716,2023,6,9,12,38,17,720
0.27590,2.67750,-4.49750,0.00000,0.00464,0.96856,-0.22485,2023,6,9,12,38,17,731
0.27600,2.78250,-4.67250,0.00000,0.00134,0.96465,-0.22521,2023,6,9,12,38,17,742
0.27610,2.62500,-4.65500,0.00000,0.00293,0.96709,-0.22448,2023,6,9,12,38,17,754
0.27620,2.74750,-4.67250,0.00000,0.00085,0.96465,-0.22424,2023,6,9,12,38,17,765
0.27630,2.74750,-4.70750,0.00000,0.00390,0.96661,-0.22485,2023,6,9,12,38,17,776
0.27640,2.69500,-4.51500,0.00000,0.00244,0.96478,-0.22509,2023,6,9,12,38,17,787
0.27650,2.71250,-4.67250,0.00000,0.00256,0.96770,-0.22851,2023,6,9,12,38,17,798
0.27660,2.66000,-4.63750,0.00000,0.00378,0.96478,-0.22570,2023,6,9,12,38,17,809
0.27670,2.92250,-4.51500,0.00000,0.00342,0.96636,-0.22631,2023,6,9,12,38,17,820
0.27680,2.87000,-4.69000,0.00000,0.00134,0.96783,-0.22729,2023,6,9,12,38,17,831
0.27690,2.80000,-4.60250,0.00000,0.00293,0.96722,-0.22607,2023,6,9,12,38,17,842
0.27700,2.78250,-4.58500,0.00000,0.00415,0.96856,-0.22826,2023,6,9,12,38,17,854
0.27710,2.60750,-4.46250,0.00000,0.00232,0.96770,-0.22655,2023,6,9,12,38,17,865
0.27720,2.83500,-4.65500,0.00000,0.00281,0.96563,-0.22631,2023,6,9,12,38,17,876
0.27730,2.80000,-4.77750,0.00000,0.00354,0.96734,-0.22582,2023,6,9,12,38,17,887
0.27740,2.71250,-4.76000,0.00000,0.00403,0.97014,-0.22607,2023,6,9,12,38,17,898
0.27750,2.94000,-4.67250,0.00000,0.00110,0.96856,-0.22460,2023,6,9,12,38,17,909
0.27760,2.74750,-4.41000,0.00000,0.00293,0.96819,-0.22729,2023,6,9,12,38,17,920
0.27770,2.69500,-4.76000,0.00000,0.00024,0.96783,-0.22753,2023,6,9,12,38,17,931
0.27780,2.60750,-4.55000,0.00000,0.00342,0.96795,-0.22558,2023,6,9,12,38,17,942
0.27790,2.67750,-4.48000,0.00000,0.00244,0.96722,-0.22546,2023,6,9,12,38,17,954
0.27800,2.76500,-4.76000,0.00000,0.00378,0.96868,-0.22619,2023,6,9,12,38,17,965
0.27810,2.88750,-4.91750,0.00000,0.00183,0.96709,-0.22668,2023,6,9,12,38,17,976
0.27820,2.81750,-4.65500,0.00000,0.00305,0.96795,-0.22680,2023,6,9,12,38,17,987
0.27830,2.64250,-4.51500,0.00000,0.00354,0.96758,-0.22460,2023,6,9,12,38,18,8
0.27840,2.73000,-4.69000,0.00000,0.00268,0.96844,-0.22851,2023,6,9,12,38,18,19
0.27850,2.85250,-4.48000,0.00000,0.00378,0.96807,-0.22570,2023,6,9,12,38,18,30
0.27860,2.95750,-4.70750,0.00000,0.00415,0.96539,-0.22607,2023,6,9,12,38,18,41
0.27870,2.85250,-4.46250,0.00000,0.00293,0.96770,-0.22631,2023,6,9,12,38,18,52
0.27880,2.80000,-4.76000,0.00000,0.00354,0.96685,-0.22777,2023,6,9,12,38,18,64
0.27890,2.94000,-4.60250,0.00000,0.00110,0.96453,-0.22826,2023,6,9,12,38,18,75
0.27900,2.88750,-4.88250,0.00000,0.00537,0.96587,-0.22570,2023,6,9,12,38,18,86
0.27910,2.81750,-4.60250,0.00000,0.00256,0.96697,-0.22387,2023,6,9,12,38,18,97
0.27920,2.80000,-4.58500,0.00000,0.00244,0.96795,-0.22777,2023,6,9,12,38,18,108
0.27930,2.80000,-4.56750,0.00000,0.00329,0.96770,-0.22558,2023,6,9,12,38,18,119
0.27940,2.88750,-4.42750,0.00000,0.00012,0.96880,-0.22582,2023,6,9,12,38,18,130
0.27950,2.90500,-4.63750,0.00000,0.00366,0.97075,-0.22350,2023,6,9,12,38,18,141
0.27960,2.76500,-4.74250,0.00000,0.00244,0.96941,-0.22533,2023,6,9,12,38,18,152
0.27970,2.66000,-4.55000,0.00000,0.00073,0.96770,-0.22570,2023,6,9,12,38,18,164
0.27980,2.99250,-4.79500,0.00000,0.00207,0.96722,-0.22582,2023,6,9,12,38,18,175
0.27990,2.73000,-4.62000,0.00000,0.00122,0.96539,-0.22448,2023,6,9,12,38,18,186
0.28000,2.78250,-4.48000,0.00000,0.00220,0.96709,-0.22509,2023,6,9,12,38,18,197
0.28010,2.88750,-4.67250,0.00000,0.00525,0.96722,-0.22509,2023,6,9,12,38,18,208
0.28020,2.87000,-4.51500,0.00000,0.00378,0.96856,-0.22912,2023,6,9,12,38,18,219
0.28030,2.78250,-4.69000,0.00000,0.00195,0.96648,-0.22863,2023,6,9,12,38,18,230
0.28040,2.78250,-4.58500,0.00000,0.00390,0.96709,-0.22899,2023,6,9,12,38,18,241
0.28050,2.83500,-4.70750,0.00000,0.00317,0.96648,-0.22790,2023,6,9,12,38,18,252
0.28060,2.74750,-4.65500,0.00000,0.00439,0.96697,-0.22741,2023,6,9,12,38,18,264
0.28070,2.81750,-4.48000,0.00000,0.00329,0.96868,-0.22619,2023,6,9,12,38,18,275
0.28080,2.90500,-4.74250,0.00000,0.00293,0.96929,-0.22777,2023,6,9,12,38,18,286
0.28090,2.81750,-4.70750,0.00000,0.00305,0.96636,-0.22765,2023,6,9,12,38,18,297
0.28100,2.76500,-4.60250,0.00000,0.00488,0.96563,-0.22643,2023,6,9,12,38,18,308
0.28110,2.78250,-4.77750,0.00000,0.00415,0.96636,-0.22790,2023,6,9,12,38,18,319
0.28120,2.90500,-4.58500,0.00000,0.00220,0.96709,-0.22497,2023,6,9,12,38,18,330
0.28130,2.90500,-4.62000,0.00000,0.00256,0.96539,-0.22533,2023,6,9,12,38,18,341
0.28140,2.74750,-4.63750,0.00000,0.00024,0.96587,-0.22570,2023,6,9,12,38,18,352
0.28150,2.71250,-4.62000,0.00000,0.00049,0.96673,-0.22387,2023,6,9,12,38,18,364
0.28160,2.81750,-4.55000,0.00000,-0.00037,0.96734,-0.22546,2023,6,9,12,38,18,375
0.28170,2.88750,-4.67250,0.00000,0.00476,0.96770,-0.22375,2023,6,9,12,38,18,386
0.28180,2.73000,-4.67250,0.00000,0.00207,0.96697,-0.22668,2023,6,9,12,38,18,397
0.28190,2.76500,-4.72500,0.00000,0.00390,0.96770,-0.22692,2023,6,9,12,38,18,408
0.28200,2.81750,-4.65500,0.00000,0.00085,0.96722,-0.22655,2023,6,9,12,38,18,419
0.28210,2.90500,-4.84750,0.00000,0.00049,0.96819,-0.22570,2023,6,9,12,38,18,430
0.28220,2.53750,-4.53250,0.00000,0.00342,0.96795,-0.22411,2023,6,9,12,38,18,441
0.28230,2.64250,-4.49750,0.00000,0.00268,0.96807,-0.22777,2023,6,9,12,38,18,452
0.28240,2.74750,-4.48000,0.00000,0.00354,0.96880,-0.22546,2023,6,9,12,38,18,464
0.28250,2.74750,-4.34000,0.00000,0.00293,0.96856,-0.22765,2023,6,9,12,38,18,475
0.28260,2.88750,-4.60250,0.00000,0.00342,0.96673,-0.22704,2023,6,9,12,38,18,486
0.28270,2.66000,-4.62000,0.00000,0.00220,0.96929,-0.22546,2023,6,9,12,38,18,497
0.28280,2.87000,-4.65500,0.00000,0.00073,0.96783,-0.22533,2023,6,9,12,38,18,508
0.28290,2.92250,-4.79500,0.00000,0.00207,0.96722,-0.22533,2023,6,9,12,38,18,519
0.28300,2.73000,-4.60250,0.00000,0.00500,0.96648,-0.22655,2023,6,9,12,38,18,530
0.28310,2.83500,-4.63750,0.00000,0.00146,0.96734,-0.22582,2023,6,9,12,38,18,541
0.28320,2.59000,-4.62000,0.00000,0.00390,0.96490,-0.22716,2023,6,9,12,38,18,552
0.28330,2.92250,-4.84750,0.00000,0.00281,0.96941,-0.22668,2023,6,9,12,38,18,564
0.28340,2.69500,-4.46250,0.00000,0.00427,0.96551,-0.22570,2023,6,9,12,38,18,575
0.28350,2.95750,-4.77750,0.00000,0.00220,0.96661,-0.22533,2023,6,9,12,38,18,586
0.28360,2.88750,-4.67250,0.00000,0.00146,0.96795,-0.22619,2023,6,9,12,38,18,597
0.28370,2.78250,-4.86500,0.00000,0.00098,0.96587,-0.22570,2023,6,9,12,38,18,608
0.28380,2.81750,-4.70750,0.00000,0.00415,0.96770,-0.22668,2023,6,9,12,38,18,619
0.28390,2.73000,-4.63750,0.00000,0.00159,0.96661,-0.22655,2023,6,9,12,38,18,630
0.28400,2.71250,-4.67250,0.00000,0.00122,0.96636,-0.22863,2023,6,9,12,38,18,641
0.28410,2.80000,-4.76000,0.00000,0.00329,0.96831,-0.22460,2023,6,9,12,38,18,652
0.28420,2.71250,-4.51500,0.00000,0.00342,0.96661,-0.22716,2023,6,9,12,38,18,664
0.28430,2.81750,-4.97000,0.00000,0.00268,0.96600,-0.22546,2023,6,9,12,38,18,675
0.28440,2.87000,-4.65500,0.00000,0.00329,0.96917,-0.22826,2023,6,9,12,38,18,686
0.28450,2.85250,-4.60250,0.00000,0.00305,0.96514,-0.22521,2023,6,9,12,38,18,697
0.28460,2.67750,-4.41000,0.00000,0.00317,0.96880,-0.22533,2023,6,9,12,38,18,708
0.28470,2.60750,-4.53250,0.00000,0.00293,0.96868,-0.22314,2023,6,9,12,38,18,719
0.28480,2.76500,-4.58500,0.00000,0.00244,0.96636,-0.22607,2023,6,9,12,38,18,730
0.28490,2.69500,-4.44500,0.00000,0.00281,0.96624,-0.22509,2023,6,9,12,38,18,741
0.28500,2.67750,-4.84750,0.00000,0.00415,0.96441,-0.22655,2023,6,9,12,38,18,752
0.28510,2.78250,-4.65500,0.00000,0.00232,0.96783,-0.22497,2023,6,9,12,38,18,764
0.28520,2.92250,-4.65500,0.00000,0.00268,0.96673,-0.22546,2023,6,9,12,38,18,775
0.28530,2.74750,-4.70750,0.00000,0.00366,0.96526,-0.22741,2023,6,9,12,38,18,786
0.28540,2.95750,-4.51500,0.00000,0.00281,0.96685,-0.22924,2023,6,9,12,38,18,797
0.28550,2.74750,-4.65500,0.00000,0.00366,0.96758,-0.22716,2023,6,9,12,38,18,808
0.28560,2.97500,-4.65500,0.00000,0.00451,0.96673,-0.22497,2023,6,9,12,38,18,819
0.28570,2.80000,-4.46250,0.00000,0.00317,0.96722,-0.22655,2023,6,9,12,38,18,830
0.28580,2.73000,-4.67250,0.00000,0.00195,0.96941,-0.22546,2023,6,9,12,38,18,841
0.28590,2.74750,-4.46250,0.00000,0.00378,0.96978,-0.22838,2023,6,9,12,38,18,852
0.28600,2.85250,-4.44500,0.00000,0.00183,0.96819,-0.22509,2023,6,9,12,38,18,864
0.28610,2.78250,-4.97000,0.00000,0.00464,0.96478,-0.22448,2023,6,9,12,38,18,875
0.28620,2.69500,-4.63750,0.00000,0.00281,0.96892,-0.22241,2023,6,9,12,38,18,886
0.28630,2.76500,-4.63750,0.00000,0.00464,0.96624,-0.22546,2023,6,9,12,38,18,897
0.28640,2.81750,-4.69000,0.00000,0.00256,0.96661,-0.22570,2023,6,9,12,38,18,908
0.28650,2.90500,-4.51500,0.00000,0.00281,0.96636,-0.22692,2023,6,9,12,38,18,919
0.28660,2.73000,-4.60250,0.00000,0.00207,0.96636,-0.22655,2023,6,9,12,38,18,930
0.28670,2.83500,-4.55000,0.00000,0.00329,0.96880,-0.22424,2023,6,9,12,38,18,941
0.28680,2.87000,-4.56750,0.00000,0.00451,0.96831,-0.22533,2023,6,9,12,38,18,952
0.28690,2.83500,-4.69000,0.00000,0.00354,0.96709,-0.22814,2023,6,9,12,38,18,964
0.28700,2.74750,-4.60250,0.00000,0.00232,0.96563,-0.22582,2023,6,9,12,38,18,975
0.28710,2.74750,-4.65500,0.00000,0.00293,0.96722,-0.22460,2023,6,9,12,38,18,986
0.28720,2.67750,-4.63750,0.00000,0.00342,0.96917,-0.22363,2023,6,9,12,38,18,997
0.28730,2.71250,-4.67250,0.00000,0.00293,0.96856,-0.22753,2023,6,9,12,38,18,8
0.28740,2.74750,-4.79500,0.00000,0.00146,0.96612,-0.22619,2023,6,9,12,38,19,9
0.28750,2.73000,-4.63750,0.00000,0.00427,0.96587,-0.22314,2023,6,9,12,38,19,20
0.28760,2.60750,-4.49750,0.00000,0.00305,0.96892,-0.22802,2023,6,9,12,38,19,31
0.28770,2.83500,-4.55000,0.00000,0.00256,0.96709,-0.22802,2023,6,9,12,38,19,42
0.28780,2.71250,-4.65500,0.00000,0.00329,0.96953,-0.22985,2023,6,9,12,38,19,54
0.28790,2.78250,-4.60250,0.00000,0.00134,0.96563,-0.22521,2023,6,9,12,38,19,65
0.28800,2.78250,-4.69000,0.00000,0.00134,0.96868,-0.22472,2023,6,9,12,38,19,76
0.28810,2.83500,-4.60250,0.00000,0.00232,0.97088,-0.22607,2023,6,9,12,38,19,87
0.28820,2.78250,-4.46250,0.00000,0.00439,0.96722,-0.22753,2023,6,9,12,38,19,98
0.28830,2.69500,-4.62000,0.00000,0.00354,0.96795,-0.22570,2023,6,9,12,38,19,109
0.28840,2.73000,-4.58500,0.00000,0.00293,0.96490,-0.22399,2023,6,9,12,38,19,120
0.28850,2.57250,-4.76000,0.00000,0.00354,0.96905,-0.22546,2023,6,9,12,38,19,131
0.28860,2.66000,-4.81250,0.00000,0.00134,0.96905,-0.22436,2023,6,9,12,38,19,142
0.28870,2.76500,-4.70750,0.00000,0.00110,0.96795,-0.22729,2023,6,9,12,38,19,154
0.28880,2.90500,-4.70750,0.00000,0.00220,0.96392,-0.22509,2023,6,9,12,38,19,165
0.28890,2.80000,-4.81250,0.00000,0.00293,0.96770,-0.22509,2023,6,9,12,38,19,176
0.28900,2.81750,-4.76000,0.00000,0.00366,0.96685,-0.22302,2023,6,9,12,38,19,187
0.28910,2.80000,-4.58500,0.00000,0.00512,0.96844,-0.22668,2023,6,9,12,38,19,198
0.28920,2.95750,-4.32250,0.00000,0.00415,0.96551,-0.22643,2023,6,9,12,38,19,209
0.28930,2.81750,-4.76000,0.00000,0.00134,0.96563,-0.22704,2023,6,9,12,38,19,220
0.28940,2.94000,-4.53250,0.00000,0.00232,0.96600,-0.22497,2023,6,9,12,38,19,231
0.28950,2.71250,-4.41000,0.00000,0.00268,0.96783,-0.22802,2023,6,9,12,38,19,242
0.28960,2.73000,-4.70750,0.00000,0.00427,0.96709,-0.22802,2023,6,9,12,38,19,254
0.28970,2.76500,-4.63750,0.00000,0.00146,0.96770,-0.22582,2023,6,9,12,38,19,265
0.28980,2.78250,-4.60250,0.00000,0.00439,0.96868,-0.22558,2023,6,9,12,38,19,276
0.28990,2.81750,-4.67250,0.00000,0.00232,0.96844,-0.22375,2023,6,9,12,38,19,287
0.29000,2.95750,-4.79500,0.00000,0.00342,0.96685,-0.22448,2023,6,9,12,38,19,298
0.29010,2.87000,-4.62000,0.00000,0.00268,0.96746,-0.22607,2023,6,9,12,38,19,309
0.29020,2.81750,-4.60250,0.00000,0.00073,0.96612,-0.22521,2023,6,9,12,38,19,320
0.29030,2.73000,-4.62000,0.00000,0.00281,0.96831,-0.22326,2023,6,9,12,38,19,331
0.29040,3.02750,-4.63750,0.00000,0.00305,0.96831,-0.22704,2023,6,9,12,38,19,342
0.29050,2.78250,-4.55000,0.00000,0.00342,0.96905,-0.22863,2023,6,9,12,38,19,354
0.29060,2.95750,-4.62000,0.00000,0.00488,0.96709,-0.22655,2023,6,9,12,38,19,365
0.29070,3.02750,-4.74250,0.00000,0.00390,0.96734,-0.22411,2023,6,9,12,38,19,376
0.29080,2.60750,-4.48000,0.00000,0.00220,0.96441,-0.22619,2023,6,9,12,38,19,387
0.29090,2.73000,-4.51500,0.00000,0.00354,0.96709,-0.22716,2023,6,9,12,38,19,398
0.29100,2.74750,-4.65500,0.00000,0.00159,0.96490,-0.22729,2023,6,9,12,38,19,409
0.29110,2.57250,-4.48000,0.00000,0.00207,0.96770,-0.22619,2023,6,9,12,38,19,420
0.29120,2.83500,-4.56750,0.00000,0.00390,0.96709,-0.22607,2023,6,9,12,38,19,431
0.29130,2.90500,-4.48000,0.00000,0.00403,0.96734,-0.22582,2023,6,9,12,38,19,442
0.29140,2.83500,-4.60250,0.00000,0.00256,0.96661,-0.22558,2023,6,9,12,38,19,454
0.29150,2.67750,-4.62000,0.00000,0.00159,0.96539,-0.22741,2023,6,9,12,38,19,465
0.29160,2.87000,-4.69000,0.00000,0.00098,0.96478,-0.22521,2023,6,9,12,38,19,476
0.29170,2.80000,-4.81250,0.00000,0.00232,0.96697,-0.22899,2023,6,9,12,38,19,487
0.29180,2.80000,-4.53250,0.00000,0.00415,0.96600,-0.22753,2023,6,9,12,38,19,498
0.29190,2.80000,-4.51500,0.00000,0.00366,0.96770,-0.22729,2023,6,9,12,38,19,509
0.29200,2.88750,-4.58500,0.00000,0.00256,0.96502,-0.22533,2023,6,9,12,38,19,520
0.29210,2.80000,-4.76000,0.00000,0.00220,0.96648,-0.22594,2023,6,9,12,38,19,531
0.29220,2.71250,-4.53250,0.00000,0.00305,0.96697,-0.22472,2023,6,9,12,38,19,542
0.29230,2.81750,-4.63750,0.00000,0.00305,0.96795,-0.22716,2023,6,9,12,38,19,554
0.29240,2.90500,-4.69000,0.00000,0.00220,0.96612,-0.22680,2023,6,9,12,38,19,565
0.29250,2.85250,-4.72500,0.00000,0.00146,0.96905,-0.22558,2023,6,9,12,38,19,576
0.29260,2.88750,-4.72500,0.00000,0.00183,0.96673,-0.22460,2023,6,9,12,38,19,587
0.29270,2.85250,-4.67250,0.00000,0.00207,0.96673,-0.22460,2023,6,9,12,38,19,598
0.29280,2.76500,-4.62000,0.00000,0.00256,0.96490,-0.22509,2023,6,9,12,38,19,609
0.29290,2.74750,-4.74250,0.00000,0.00220,0.96722,-0.22777,2023,6,9,12,38,19,620
0.29300,2.78250,-4.65500,0.00000,0.00037,0.96563,-0.22777,2023,6,9,12,38,19,631
0.29310,2.55500,-4.44500,0.00000,0.00293,0.96343,-0.22472,2023,6,9,12,38,19,642
0.29320,2.76500,-4.74250,0.00000,0.00232,0.96746,-0.22777,2023,6,9,12,38,19,654
0.29330,2.99250,-4.76000,0.00000,0.00549,0.96636,-0.22863,2023,6,9,12,38,19,665
0.29340,2.80000,-4.51500,0.00000,0.00378,0.96795,-0.22607,2023,6,9,12,38,19,676
0.29350,2.53750,-4.35750,0.00000,0.00037,0.96648,-0.22509,2023,6,9,12,38,19,687
0.29360,2.88750,-4.65500,0.00000,0.00354,0.96795,-0.22558,2023,6,9,12,38,19,698
0.29370,2.62500,-4.49750,0.00000,0.00342,0.96417,-0.22692,2023,6,9,12,38,19,709
0.29380,2.81750,-4.60250,0.00000,0.00281,0.96880,-0.22643,2023,6,9,12,38,19,720
0.29390,2.83500,-4.70750,0.00000,0.00159,0.96709,-0.22411,2023,6,9,12,38,19,731
0.29400,2.62500,-4.56750,0.00000,0.00366,0.96612,-0.22619,2023,6,9,12,38,19,742
0.29410,2.67750,-4.51500,0.00000,0.00268,0.96697,-0.22753,2023,6,9,12,38,19,754
0.29420,2.85250,-4.56750,0.00000,0.00134,0.96819,-0.22777,2023,6,9,12,38,19,765
0.29430,2.67750,-4.56750,0.00000,0.00183,0.96673,-0.22485,2023,6,9,12,38,19,776
0.29440,2.66000,-4.49750,0.00000,0.00354,0.96746,-0.22387,2023,6,9,12,38,19,787
0.29450,2.74750,-4.69000,0.00000,0.00317,0.96819,-0.22485,2023,6,9,12,38,19,798
0.29460,2.66000,-4.48000,0.00000,0.00305,0.96880,-0.22546,2023,6,9,12,38,19,809
0.29470,2.73000,-4.60250,0.00000,0.00378,0.96697,-0.22704,2023,6,9,12,38,19,820
0.29480,2.90500,-4.70750,0.00000,0.00085,0.96661,-0.22533,2023,6,9,12,38,19,831
0.29490,2.67750,-4.76000,0.00000,0.00159,0.96722,-0.22729,2023,6,9,12,38,19,842
0.29500,2.81750,-4.77750,0.00000,0.00183,0.96478,-0.22399,2023,6,9,12,38,19,854
0.29510,2.94000,-4.62000,0.00000,0.00500,0.96441,-0.22582,2023,6,9,12,38,19,865
0.29520,2.90500,-4.48000,0.00000,0.00390,0.96844,-0.22460,2023,6,9,12,38,19,876
0.29530,2.78250,-4.56750,0.00000,0.00171,0.96685,-0.22509,2023,6,9,12,38,19,887
0.29540,2.78250,-4.67250,0.00000,0.00390,0.96722,-0.22594,2023,6,9,12,38,19,898
0.29550,2.67750,-4.83000,0.00000,0.00415,0.96648,-0.22472,2023,6,9,12,38,19,909
0.29560,2.73000,-4.60250,0.00000,0.00354,0.96795,-0.22582,2023,6,9,12,38,19,920
0.29570,2.85250,-4.74250,0.00000,0.00244,0.96661,-0.22558,2023,6,9,12,38,19,931
0.29580,2.59000,-4.72500,0.00000,0.00378,0.96917,-0.22521,2023,6,9,12,38,19,942
0.29590,2.71250,-4.60250,0.00000,0.00037,0.96539,-0.22533,2023,6,9,12,38,19,954
0.29600,2.60750,-4.60250,0.00000,0.00281,0.97027,-0.22533,2023,6,9,12,38,19,965
0.29610,2.67750,-4.41000,0.00000,0.00451,0.96539,-0.22582,2023,6,9,12,38,19,976
0.29620,3.11500,-4.62000,0.00000,0.00232,0.96465,-0.22692,2023,6,9,12,38,20,7
0.29630,2.66000,-4.63750,0.00000,0.00122,0.96892,-0.22631,2023,6,9,12,38,20,18
0.29640,2.62500,-4.42750,0.00000,0.00354,0.96795,-0.22521,2023,6,9,12,38,20,29
0.29650,2.69500,-4.76000,0.00000,0.00037,0.96648,-0.22448,2023,6,9,12,38,20,40
0.29660,2.66000,-4.72500,0.00000,0.00207,0.96746,-0.22631,2023,6,9,12,38,20,51
0.29670,2.87000,-4.48000,0.00000,0.00354,0.96783,-0.22875,2023,6,9,12,38,20,62
0.29680,2.87000,-4.65500,0.00000,0.00342,0.96990,-0.22668,2023,6,9,12,38,20,74
0.29690,2.83500,-4.72500,0.00000,0.00220,0.96709,-0.22741,2023,6,9,12,38,20,85
0.29700,2.64250,-4.63750,0.00000,0.00207,0.96539,-0.22692,2023,6,9,12,38,20,96
0.29710,2.80000,-4.39250,0.00000,0.00390,0.96722,-0.22631,2023,6,9,12,38,20,107
0.29720,2.87000,-4.74250,0.00000,0.00390,0.96856,-0.22643,2023,6,9,12,38,20,118
0.29730,2.67750,-4.46250,0.00000,0.00390,0.96624,-0.22765,2023,6,9,12,38,20,129
0.29740,2.92250,-4.62000,0.00000,0.00329,0.96673,-0.22655,2023,6,9,12,38,20,140
0.29750,2.80000,-4.62000,0.00000,0.00403,0.96795,-0.22472,2023,6,9,12,38,20,151
0.29760,2.64250,-4.39250,0.00000,0.00390,0.96758,-0.22631,2023,6,9,12,38,20,162
0.29770,2.85250,-4.72500,0.00000,0.00244,0.96661,-0.22741,2023,6,9,12,38,20,174
0.29780,2.67750,-4.58500,0.00000,0.00415,0.96844,-0.22655,2023,6,9,12,38,20,185
0.29790,2.88750,-4.56750,0.00000,0.00366,0.96795,-0.22753,2023,6,9,12,38,20,196
0.29800,2.81750,-4.76000,0.00000,0.00403,0.96844,-0.22533,2023,6,9,12,38,20,207
0.29810,2.95750,-4.55000,0.00000,0.00159,0.96770,-0.22741,2023,6,9,12,38,20,218
0.29820,2.88750,-4.72500,0.00000,0.00342,0.96697,-0.22814,2023,6,9,12,38,20,229
0.29830,2.80000,-4.53250,0.00000,0.00171,0.96429,-0.22607,2023,6,9,12,38,20,240
0.29840,2.81750,-4.67250,0.00000,0.00171,0.96673,-0.22802,2023,6,9,12,38,20,251
0.29850,2.78250,-4.84750,0.00000,0.00110,0.96648,-0.22838,2023,6,9,12,38,20,262
0.29860,2.71250,-4.70750,0.00000,0.00390,0.96722,-0.22485,2023,6,9,12,38,20,274
0.29870,2.78250,-4.69000,0.00000,0.00256,0.96587,-0.22619,2023,6,9,12,38,20,285
0.29880,2.78250,-4.74250,0.00000,0.00390,0.96404,-0.22716,2023,6,9,12,38,20,296
0.29890,2.95750,-4.69000,0.00000,0.00171,0.96758,-0.22777,2023,6,9,12,38,20,307
0.29900,2.85250,-4.46250,0.00000,0.00342,0.96880,-0.22521,2023,6,9,12,38,20,318
0.29910,2.78250,-4.65500,0.00000,0.00293,0.96880,-0.22655,2023,6,9,12,38,20,329
0.29920,2.80000,-4.34000,0.00000,0.00342,0.96746,-0.22582,2023,6,9,12,38,20,340
0.29930,2.87000,-4.53250,0.00000,0.00354,0.96563,-0.22558,2023,6,9,12,38,20,351
0.29940,3.02750,-4.72500,0.00000,0.00159,0.96624,-0.22472,2023,6,9,12,38,20,362
0.29950,2.76500,-4.74250,0.00000,0.00146,0.96673,-0.22582,2023,6,9,12,38,20,374
0.29960,2.99250,-4.56750,0.00000,0.00427,0.96490,-0.22704,2023,6,9,12,38,20,385
0.29970,2.67750,-4.62000,0.00000,0.00329,0.96673,-0.22558,2023,6,9,12,38,20,396
0.29980,2.81750,-4.51500,0.00000,0.00256,0.96807,-0.22631,2023,6,9,12,38,20,407
0.29990,2.95750,-4.76000,0.00000,0.00329,0.96490,-0.22546,2023,6,9,12,38,20,418
0.30000,2.94000,-4.58500,0.00000,0.00390,0.96734,-0.22777,2023,6,9,12,38,20,429
0.30010,2.99250,-4.56750,0.00000,0.00256,0.96941,-0.22790,2023,6,9,12,38,20,440
0.30020,2.69500,-4.48000,0.00000,-0.00037,0.96929,-0.22594,2023,6,9,12,38,20,451
0.30030,2.67750,-4.60250,0.00000,0.00207,0.96526,-0.22448,2023,6,9,12,38,20,462
0.30040,2.76500,-4.70750,0.00000,0.00171,0.96612,-0.22375,2023,6,9,12,38,20,474
0.30050,2.85250,-4.56750,0.00000,0.00293,0.96722,-0.22533,2023,6,9,12,38,20,485
0.30060,2.80000,-4.72500,0.00000,0.00403,0.96661,-0.22619,2023,6,9,12,38,20,496
0.30070,2.88750,-4.65500,0.00000,0.00366,0.96868,-0.22375,2023,6,9,12,38,20,507
0.30080,2.83500,-4.46250,0.00000,0.00281,0.96746,-0.22692,2023,6,9,12,38,20,518
0.30090,2.76500,-4.58500,0.00000,0.00171,0.96722,-0.22497,2023,6,9,12,38,20,529
0.30100,2.67750,-4.60250,0.00000,0.00220,0.96722,-0.22582,2023,6,9,12,38,20,540
0.30110,2.83500,-4.58500,0.00000,0.00098,0.96648,-0.22729,2023,6,9,12,38,20,551
0.30120,2.78250,-4.77750,0.00000,0.00073,0.96478,-0.22668,2023,6,9,12,38,20,562
0.30130,2.74750,-4.65500,0.00000,0.00268,0.96795,-0.22424,2023,6,9,12,38,20,574
0.30140,2.85250,-4.77750,0.00000,0.00232,0.96783,-0.22436,2023,6,9,12,38,20,585
0.30150,2.76500,-4.65500,0.00000,0.00415,0.96648,-0.22643,2023,6,9,12,38,20,596
0.30160,2.64250,-4.32250,0.00000,0.00232,0.96758,-0.22765,2023,6,9,12,38,20,607
0.30170,2.88750,-4.74250,0.00000,0.00183,0.96844,-0.22631,2023,6,9,12,38,20,618
0.30180,2.83500,-4.51500,0.00000,0.00329,0.96417,-0.22546,2023,6,9,12,38,20,629
0.30190,2.83500,-4.67250,0.00000,0.00110,0.96807,-0.22521,2023,6,9,12,38,20,640
0.30200,2.78250,-4.69000,0.00000,0.00159,0.96746,-0.22619,2023,6,9,12,38,20,651
0.30210,2.97500,-4.46250,0.00000,0.00366,0.96905,-0.22851,2023,6,9,12,38,20,662
0.30220,2.81750,-4.49750,0.00000,0.00244,0.96563,-0.22533,2023,6,9,12,38,20,674
0.30230,2.78250,-4.69000,0.00000,0.00256,0.96429,-0.22607,2023,6,9,12,38,20,685
0.30240,2.73000,-4.48000,0.00000,0.00220,0.97063,-0.22668,2023,6,9,12,38,20,696
0.30250,2.81750,-4.55000,0.00000,0.00439,0.96807,-0.22692,2023,6,9,12,38,20,707
0.30260,2.87000,-4.58500,0.00000,0.00073,0.96673,-0.22655,2023,6,9,12,38,20,718
0.30270,2.80000,-4.72500,0.00000,0.00098,0.96478,-0.22521,2023,6,9,12,38,20,729
0.30280,2.81750,-4.60250,0.00000,0.00171,0.96661,-0.22680,2023,6,9,12,38,20,740
0.30290,2.81750,-4.72500,0.00000,0.00232,0.96795,-0.22472,2023,6,9,12,38,20,751
0.30300,2.64250,-4.32250,0.00000,0.00207,0.96795,-0.22680,2023,6,9,12,38,20,762
0.30310,2.64250,-4.49750,0.00000,0.00256,0.96624,-0.22680,2023,6,9,12,38,20,774
0.30320,2.76500,-4.42750,0.00000,0.00220,0.96648,-0.22509,2023,6,9,12,38,20,785
0.30330,2.85250,-4.56750,0.00000,0.00366,0.96722,-0.22814,2023,6,9,12,38,20,796
0.30340,3.02750,-4.51500,0.00000,0.00366,0.96636,-0.22619,2023,6,9,12,38,20,807
0.30350,2.74750,-4.62000,0.00000,0.00354,0.96551,-0.22497,2023,6,9,12,38,20,818
0.30360,2.81750,-4.67250,0.00000,0.00476,0.96880,-0.22314,2023,6,9,12,38,20,829
0.30370,2.76500,-4.74250,0.00000,0.00232,0.96648,-0.22399,2023,6,9,12,38,20,840
0.30380,2.76500,-4.53250,0.00000,0.00500,0.96783,-0.22643,2023,6,9,12,38,20,851
0.30390,2.78250,-4.79500,0.00000,0.00207,0.96685,-0.22607,2023,6,9,12,38,20,862
0.30400,2.92250,-4.49750,0.00000,0.00256,0.96758,-0.22716,2023,6,9,12,38,20,874
0.30410,2.73000,-4.55000,0.00000,0.00390,0.96746,-0.22753,2023,6,9,12,38,20,885
0.30420,2.87000,-4.58500,0.00000,0.00317,0.96905,-0.22558,2023,6,9,12,38,20,896
0.30430,2.83500,-4.62000,0.00000,0.00329,0.96600,-0.22546,2023,6,9,12,38,20,907
0.30440,2.80000,-4.60250,0.00000,-0.00037,0.96709,-0.22741,2023,6,9,12,38,20,918
0.30450,2.83500,-4.70750,0.00000,0.00281,0.96685,-0.22472,2023,6,9,12,38,20,929
0.30460,2.74750,-4.76000,0.00000,0.00268,0.96612,-0.22533,2023,6,9,12,38,20,940
0.30470,2.88750,-4.67250,0.00000,0.00354,0.96819,-0.22448,2023,6,9,12,38,20,951
0.30480,2.85250,-4.65500,0.00000,0.00378,0.96807,-0.22643,2023,6,9,12,38,20,962
0.30490,2.94000,-4.56750,0.00000,0.00329,0.96856,-0.22790,2023,6,9,12,38,20,974
0.30500,2.66000,-4.58500,0.00000,0.00378,0.96831,-0.22521,2023,6,9,12,38,20,985
0.30510,2.90500,-4.41000,0.00000,0.00281,0.96795,-0.22509,2023,6,9,12,38,20,996
0.30520,2.87000,-4.53250,0.00000,0.00293,0.96917,-0.22375,2023,6,9,12,38,20,7
0.30530,2.81750,-4.58500,0.00000,0.00232,0.96490,-0.22704,2023,6,9,12,38,21,8
0.30540,2.83500,-4.69000,0.00000,0.00183,0.96648,-0.22521,2023,6,9,12,38,21,19
0.30550,2.80000,-4.56750,0.00000,0.00366,0.96661,-0.22485,2023,6,9,12,38,21,30
0.30560,2.97500,-4.77750,0.00000,0.00390,0.96685,-0.22704,2023,6,9,12,38,21,41
0.30570,2.74750,-4.46250,0.00000,0.00195,0.96612,-0.22863,2023,6,9,12,38,21,52
0.30580,2.80000,-4.67250,0.00000,0.00268,0.96636,-0.22790,2023,6,9,12,38,21,64
0.30590,2.78250,-4.55000,0.00000,0.00329,0.96673,-0.22521,2023,6,9,12,38,21,75
0.30600,2.69500,-4.46250,0.00000,0.00366,0.96673,-0.22692,2023,6,9,12,38,21,86
0.30610,2.73000,-4.58500,0.00000,0.00415,0.97051,-0.22472,2023,6,9,12,38,21,97
0.30620,2.76500,-4.56750,0.00000,0.00207,0.96905,-0.22826,2023,6,9,12,38,21,108
0.30630,2.73000,-4.74250,0.00000,0.00305,0.96722,-0.22338,2023,6,9,12,38,21,119
0.30640,2.87000,-4.74250,0.00000,0.00366,0.96819,-0.22643,2023,6,9,12,38,21,130
0.30650,2.80000,-4.65500,0.00000,0.00232,0.96844,-0.22558,2023,6,9,12,38,21,141
0.30660,2.62500,-4.46250,0.00000,0.00427,0.96856,-0.22521,2023,6,9,12,38,21,152
0.30670,2.92250,-4.56750,0.00000,0.00110,0.96636,-0.22655,2023,6,9,12,38,21,164
0.30680,2.83500,-4.91750,0.00000,0.00305,0.96722,-0.22619,2023,6,9,12,38,21,175
0.30690,2.78250,-4.49750,0.00000,-0.00049,0.96795,-0.22729,2023,6,9,12,38,21,186
0.30700,2.88750,-4.51500,0.00000,0.00451,0.96770,-0.22533,2023,6,9,12,38,21,197
0.30710,2.78250,-4.51500,0.00000,0.00195,0.96880,-0.22765,2023,6,9,12,38,21,208
0.30720,2.60750,-4.53250,0.00000,0.00415,0.96795,-0.22411,2023,6,9,12,38,21,219
0.30730,2.78250,-4.67250,0.00000,0.00244,0.96819,-0.22302,2023,6,9,12,38,21,230
0.30740,2.74750,-4.49750,0.00000,0.00342,0.96941,-0.22521,2023,6,9,12,38,21,241
0.30750,2.81750,-4.49750,0.00000,0.00329,0.96673,-0.22533,2023,6,9,12,38,21,252
0.30760,2.66000,-4.44500,0.00000,0.00378,0.96490,-0.22546,2023,6,9,12,38,21,264
0.30770,2.73000,-4.69000,0.00000,0.00342,0.96575,-0.22460,2023,6,9,12,38,21,275
0.30780,2.43250,-4.65500,0.00000,0.00122,0.96600,-0.22570,2023,6,9,12,38,21,286
0.30790,2.74750,-4.46250,0.00000,0.00561,0.96917,-0.22607,2023,6,9,12,38,21,297
0.30800,2.88750,-4.62000,0.00000,0.00439,0.96648,-0.22912,2023,6,9,12,38,21,308
0.30810,2.69500,-4.46250,0.00000,-0.00098,0.96783,-0.22912,2023,6,9,12,38,21,319
0.30820,2.74750,-4.55000,0.00000,0.00244,0.96758,-0.22509,2023,6,9,12,38,21,330
0.30830,2.67750,-4.53250,0.00000,0.00622,0.96905,-0.22546,2023,6,9,12,38,21,341
0.30840,2.81750,-4.70750,0.00000,0.00244,0.96636,-0.22814,2023,6,9,12,38,21,352
0.30850,2.94000,-4.65500,0.00000,0.00329,0.96612,-0.22558,2023,6,9,12,38,21,364
0.30860,2.71250,-4.83000,0.00000,0.00146,0.96648,-0.22741,2023,6,9,12,38,21,375
0.30870,2.88750,-4.62000,0.00000,0.00561,0.96746,-0.22631,2023,6,9,12,38,21,386
0.30880,2.71250,-4.65500,0.00000,0.00207,0.96856,-0.22668,2023,6,9,12,38,21,397
0.30890,2.73000,-4.48000,0.00000,0.00159,0.96734,-0.22472,2023,6,9,12,38,21,408
0.30900,2.62500,-4.60250,0.00000,0.00232,0.96770,-0.22655,2023,6,9,12,38,21,419
0.30910,2.67750,-4.60250,0.00000,0.00305,0.96758,-0.22594,2023,6,9,12,38,21,430
0.30920,2.73000,-4.58500,0.00000,0.00598,0.96746,-0.22790,2023,6,9,12,38,21,441
0.30930,2.76500,-4.72500,0.00000,0.00329,0.96783,-0.22582,2023,6,9,12,38,21,452
0.30940,2.83500,-4.67250,0.00000,0.00268,0.96734,-0.22570,2023,6,9,12,38,21,464
0.30950,2.97500,-4.53250,0.00000,0.00464,0.96612,-0.22631,2023,6,9,12,38,21,475
0.30960,2.81750,-4.41000,0.00000,0.00244,0.96941,-0.22448,2023,6,9,12,38,21,486
0.30970,2.99250,-4.58500,0.00000,0.00329,0.96783,-0.22716,2023,6,9,12,38,21,497
0.30980,2.85250,-4.70750,0.00000,0.00537,0.96587,-0.22497,2023,6,9,12,38,21,508
0.30990,3.02750,-4.72500,0.00000,0.00366,0.96844,-0.22289,2023,6,9,12,38,21,519
0.31000,2.80000,-4.74250,0.00000,0.00342,0.96795,-0.22631,2023,6,9,12,38,21,530
0.31010,2.81750,-4.58500,0.00000,0.00464,0.96551,-0.22643,2023,6,9,12,38,21,541
0.31020,2.66000,-4.74250,0.00000,0.00488,0.96856,-0.22631,2023,6,9,12,38,21,552
0.31030,2.73000,-4.56750,0.00000,0.00305,0.96831,-0.22460,2023,6,9,12,38,21,564
0.31040,3.01000,-4.48000,0.00000,0.00195,0.96648,-0.22436,2023,6,9,12,38,21,575
0.31050,2.80000,-4.79500,0.00000,0.00256,0.96722,-0.22472,2023,6,9,12,38,21,586
0.31060,2.87000,-4.55000,0.00000,0.00171,0.96612,-0.22619,2023,6,9,12,38,21,597
0.31070,2.85250,-4.49750,0.00000,0.00061,0.96844,-0.22973,2023,6,9,12,38,21,608
0.31080,2.80000,-4.67250,0.00000,0.00134,0.96563,-0.22655,2023,6,9,12,38,21,619
0.31090,2.66000,-4.65500,0.00000,0.00415,0.96795,-0.22643,2023,6,9,12,38,21,630
0.31100,2.76500,-4.55000,0.00000,0.00293,0.96673,-0.22582,2023,6,9,12,38,21,641
0.31110,2.78250,-4.62000,0.00000,0.00268,0.96905,-0.22448,2023,6,9,12,38,21,652
0.31120,2.85250,-4.72500,0.00000,0.00476,0.96856,-0.22692,2023,6,9,12,38,21,664
0.31130,2.99250,-4.63750,0.00000,0.00207,0.96831,-0.22619,2023,6,9,12,38,21,675
0.31140,2.74750,-4.48000,0.00000,0.00122,0.96795,-0.22643,2023,6,9,12,38,21,686
0.31150,2.80000,-4.69000,0.00000,0.00085,0.96795,-0.22448,2023,6,9,12,38,21,697
0.31160,2.97500,-4.72500,0.00000,0.00317,0.96746,-0.22411,2023,6,9,12,38,21,708
0.31170,2.80000,-4.58500,0.00000,0.00342,0.96734,-0.22509,2023,6,9,12,38,21,719
0.31180,2.71250,-4.70750,0.00000,0.00329,0.96929,-0.22558,2023,6,9,12,38,21,730
0.31190,2.76500,-4.37500,0.00000,0.00244,0.96905,-0.22924,2023,6,9,12,38,21,741
0.31200,2.87000,-4.53250,0.00000,0.00207,0.96734,-0.22546,2023,6,9,12,38,21,752
0.31210,3.08000,-4.55000,0.00000,0.00195,0.96758,-0.22375,2023,6,9,12,38,21,764
0.31220,2.59000,-4.51500,0.00000,0.00207,0.97051,-0.22570,2023,6,9,12,38,21,775
0.31230,2.76500,-4.49750,0.00000,0.00244,0.96758,-0.22704,2023,6,9,12,38,21,786
0.31240,2.73000,-4.60250,0.00000,0.00378,0.96905,-0.22619,2023,6,9,12,38,21,797
0.31250,2.88750,-4.67250,0.00000,0.00354,0.96319,-0.22753,2023,6,9,12,38,21,808
0.31260,2.67750,-4.77750,0.00000,0.00195,0.96734,-0.22436,2023,6,9,12,38,21,819
0.31270,2.97500,-4.74250,0.00000,0.00329,0.96636,-0.22424,2023,6,9,12,38,21,830
0.31280,2.97500,-4.81250,0.00000,0.00232,0.96600,-0.22607,2023,6,9,12,38,21,841
0.31290,2.57250,-4.49750,0.00000,0.00622,0.96551,-0.22582,2023,6,9,12,38,21,852
0.31300,2.67750,-4.84750,0.00000,0.00012,0.96746,-0.22594,2023,6,9,12,38,21,864
0.31310,2.67750,-4.53250,0.00000,0.00268,0.96429,-0.22460,2023,6,9,12,38,21,875
0.31320,2.78250,-4.49750,0.00000,0.00500,0.96758,-0.22924,2023,6,9,12,38,21,886
0.31330,2.88750,-4.46250,0.00000,0.00329,0.96636,-0.22509,2023,6,9,12,38,21,897
0.31340,2.83500,-4.42750,0.00000,0.00183,0.96807,-0.22716,2023,6,9,12,38,21,908
0.31350,2.83500,-4.67250,0.00000,0.00171,0.96770,-0.22509,2023,6,9,12,38,21,919
0.31360,2.81750,-4.62000,0.00000,0.00256,0.96941,-0.22619,2023,6,9,12,38,21,930
0.31370,2.99250,-4.62000,0.00000,0.00256,0.96600,-0.22765,2023,6,9,12,38,21,941
0.31380,2.85250,-4.67250,0.00000,0.00342,0.96673,-0.22570,2023,6,9,12,38,21,952
0.31390,2.87000,-4.70750,0.00000,0.00110,0.96563,-0.22643,2023,6,9,12,38,21,964
0.31400,2.90500,-4.63750,0.00000,0.00232,0.96685,-0.22509,2023,6,9,12,38,21,975
0.31410,2.81750,-4.53250,0.00000,0.00366,0.96831,-0.22814,2023,6,9,12,38,21,986
0.31420,2.78250,-4.53250,0.00000,0.00342,0.96795,-0.22655,2023,6,9,12,38,21,997
0.31430,2.66000,-4.60250,0.00000,0.00244,0.96502,-0.22838,2023,6,9,12,38,22,8
0.31440,2.81750,-4.48000,0.00000,0.00464,0.96795,-0.22716,2023,6,9,12,38,22,19
0.31450,2.71250,-4.67250,0.00000,0.00305,0.96844,-0.22680,2023,6,9,12,38,22,30
0.31460,2.92250,-4.48000,0.00000,0.00305,0.96673,-0.22741,2023,6,9,12,38,22,41
0.31470,2.88750,-4.70750,0.00000,0.00207,0.96600,-0.22460,2023,6,9,12,38,22,52
0.31480,2.94000,-4.70750,0.00000,0.00220,0.96783,-0.22448,2023,6,9,12,38,22,64
0.31490,2.76500,-4.53250,0.00000,0.00122,0.96612,-0.22631,2023,6,9,12,38,22,75
0.31500,2.64250,-4.56750,0.00000,0.00207,0.96770,-0.22924,2023,6,9,12,38,22,86
0.31510,2.50250,-4.41000,0.00000,0.00268,0.96722,-0.22582,2023,6,9,12,38,22,97
0.31520,2.81750,-4.72500,0.00000,0.00085,0.96587,-0.22582,2023,6,9,12,38,22,108
0.31530,2.97500,-4.79500,0.00000,0.00390,0.96746,-0.22375,2023,6,9,12,38,22,119
0.31540,2.83500,-4.34000,0.00000,0.00354,0.96807,-0.22704,2023,6,9,12,38,22,130
0.31550,2.74750,-4.58500,0.00000,0.00244,0.96795,-0.22777,2023,6,9,12,38,22,141
0.31560,2.85250,-4.62000,0.00000,0.00390,0.96758,-0.22497,2023,6,9,12,38,22,152
0.31570,2.73000,-4.51500,0.00000,0.00366,0.96709,-0.22582,2023,6,9,12,38,22,164
0.31580,2.80000,-4.62000,0.00000,0.00195,0.96880,-0.22704,2023,6,9,12,38,22,175
0.31590,2.80000,-4.51500,0.00000,0.00171,0.96892,-0.22716,2023,6,9,12,38,22,186
0.31600,2.83500,-4.49750,0.00000,0.00268,0.96783,-0.22485,2023,6,9,12,38,22,197
0.31610,2.81750,-4.35750,0.00000,0.00451,0.96673,-0.22692,2023,6,9,12,38,22,208
0.31620,2.71250,-4.60250,0.00000,0.00317,0.96514,-0.22594,2023,6,9,12,38,22,219
0.31630,2.76500,-4.37500,0.00000,0.00110,0.96575,-0.22741,2023,6,9,12,38,22,230
0.31640,2.62500,-4.72500,0.00000,0.00390,0.96819,-0.22472,2023,6,9,12,38,22,241
0.31650,2.67750,-4.46250,0.00000,0.00232,0.96661,-0.22448,2023,6,9,12,38,22,252
0.31660,2.85250,-4.53250,0.00000,0.00305,0.96709,-0.22851,2023,6,9,12,38,22,264
0.31670,2.67750,-4.53250,0.00000,0.00342,0.96831,-0.22558,2023,6,9,12,38,22,275
0.31680,2.87000,-4.55000,0.00000,0.00305,0.96648,-0.22594,2023,6,9,12,38,22,286
0.31690,2.59000,-4.34000,0.00000,0.00329,0.96795,-0.22643,2023,6,9,12,38,22,297
0.31700,2.67750,-4.42750,0.00000,0.00244,0.96880,-0.22655,2023,6,9,12,38,22,308
0.31710,2.85250,-4.51500,0.00000,0.00354,0.96624,-0.22753,2023,6,9,12,38,22,319
0.31720,2.80000,-4.58500,0.00000,0.00415,0.96685,-0.22619,2023,6,9,12,38,22,330
0.31730,2.66000,-4.84750,0.00000,0.00293,0.96831,-0.22631,2023,6,9,12,38,22,341
0.31740,2.80000,-4.67250,0.00000,0.00390,0.96685,-0.22485,2023,6,9,12,38,22,352
0.31750,2.88750,-4.76000,0.00000,0.00378,0.96831,-0.22924,2023,6,9,12,38,22,364
0.31760,2.59000,-4.53250,0.00000,0.00073,0.96636,-0.22399,2023,6,9,12,38,22,375
0.31770,2.81750,-4.70750,0.00000,0.00268,0.96661,-0.22753,2023,6,9,12,38,22,386
0.31780,2.50250,-4.23500,0.00000,0.00098,0.96697,-0.22729,2023,6,9,12,38,22,397
0.31790,2.95750,-4.55000,0.00000,-0.00037,0.96953,-0.22826,2023,6,9,12,38,22,408
0.31800,2.73000,-4.51500,0.00000,0.00293,0.96587,-0.22558,2023,6,9,12,38,22,419
0.31810,2.69500,-4.48000,0.00000,0.00281,0.96892,-0.22521,2023,6,9,12,38,22,430
0.31820,2.78250,-4.55000,0.00000,0.00317,0.97100,-0.22692,2023,6,9,12,38,22,441
0.31830,2.97500,-4.44500,0.00000,0.00098,0.96575,-0.22729,2023,6,9,12,38,22,452
0.31840,2.83500,-4.56750,0.00000,0.00256,0.96905,-0.22826,2023,6,9,12,38,22,464
0.31850,2.74750,-4.72500,0.00000,0.00244,0.96685,-0.22424,2023,6,9,12,38,22,475
0.31860,2.97500,-4.74250,0.00000,0.00512,0.96770,-0.22765,2023,6,9,12,38,22,486
0.31870,2.81750,-4.39250,0.00000,0.00207,0.96758,-0.22790,2023,6,9,12,38,22,497
0.31880,2.92250,-4.76000,0.00000,0.00293,0.96709,-0.22485,2023,6,9,12,38,22,508
0.31890,2.73000,-4.70750,0.00000,0.00268,0.96636,-0.22594,2023,6,9,12,38,22,519
0.31900,2.60750,-4.39250,0.00000,0.00427,0.96661,-0.22485,2023,6,9,12,38,22,530
0.31910,2.80000,-4.62000,0.00000,0.00268,0.96892,-0.22582,2023,6,9,12,38,22,541
0.31920,2.94000,-4.63750,0.00000,0.00220,0.96539,-0.22448,2023,6,9,12,38,22,552
0.31930,2.69500,-4.74250,0.00000,0.00342,0.96563,-0.22655,2023,6,9,12,38,22,564
0.31940,2.81750,-4.65500,0.00000,0.00146,0.96880,-0.22826,2023,6,9,12,38,22,575
0.31950,3.16750,-4.44500,0.00000,0.00122,0.97039,-0.22704,2023,6,9,12,38,22,586
0.31960,2.81750,-4.67250,0.00000,0.00464,0.96783,-0.22643,2023,6,9,12,38,22,597
0.31970,2.78250,-4.60250,0.00000,0.00232,0.96526,-0.22228,2023,6,9,12,38,22,608
0.31980,2.67750,-4.56750,0.00000,0.00415,0.96563,-0.22509,2023,6,9,12,38,22,619
0.31990,2.85250,-4.56750,0.00000,0.00403,0.96575,-0.22753,2023,6,9,12,38,22,630
0.32000,2.76500,-4.51500,0.00000,0.00244,0.96697,-0.22619,2023,6,9,12,38,22,641
0.32010,2.69500,-4.55000,0.00000,0.00061,0.96831,-0.22680,2023,6,9,12,38,22,652
0.32020,2.64250,-4.65500,0.00000,0.00268,0.96709,-0.22387,2023,6,9,12,38,22,664
0.32030,2.71250,-4.67250,0.00000,0.00378,0.96758,-0.22924,2023,6,9,12,38,22,675
0.32040,2.87000,-4.76000,0.00000,0.00476,0.96807,-0.22655,2023,6,9,12,38,22,686
0.32050,2.76500,-4.67250,0.00000,0.00390,0.96685,-0.22533,2023,6,9,12,38,22,697
0.32060,2.88750,-4.65500,0.00000,0.00134,0.96648,-0.22582,2023,6,9,12,38,22,708
0.32070,2.80000,-4.72500,0.00000,0.00232,0.96880,-0.22704,2023,6,9,12,38,22,719
0.32080,2.81750,-4.60250,0.00000,0.00281,0.96685,-0.22448,2023,6,9,12,38,22,730
0.32090,2.78250,-4.67250,0.00000,0.00305,0.97002,-0.22277,2023,6,9,12,38,22,741
0.32100,2.87000,-4.55000,0.00000,0.00207,0.96795,-0.22594,2023,6,9,12,38,22,752
0.32110,2.83500,-4.42750,0.00000,0.00207,0.96795,-0.22765,2023,6,9,12,38,22,764
0.32120,2.64250,-4.53250,0.00000,0.00342,0.96844,-0.22826,2023,6,9,12,38,22,775
0.32130,2.76500,-4.70750,0.00000,0.00281,0.96648,-0.22558,2023,6,9,12,38,22,786
0.32140,2.80000,-4.53250,0.00000,0.00122,0.96941,-0.22607,2023,6,9,12,38,22,797
0.32150,2.94000,-4.65500,0.00000,0.00207,0.96575,-0.22643,2023,6,9,12,38,22,808
0.32160,2.66000,-4.63750,0.00000,0.00085,0.96758,-0.22485,2023,6,9,12,38,22,819
0.32170,2.81750,-4.70750,0.00000,0.00134,0.96783,-0.22619,2023,6,9,12,38,22,830
0.32180,2.97500,-4.65500,0.00000,0.00146,0.96734,-0.22582,2023,6,9,12,38,22,841
0.32190,2.99250,-4.60250,0.00000,0.00281,0.96587,-0.22570,2023,6,9,12,38,22,852
0.32200,2.76500,-4.67250,0.00000,0.00439,0.96624,-0.22521,2023,6,9,12,38,22,864
0.32210,2.78250,-4.55000,0.00000,0.00220,0.96587,-0.22643,2023,6,9,12,38,22,875
0.32220,2.80000,-4.63750,0.00000,0.00354,0.96795,-0.22509,2023,6,9,12,38,22,886
0.32230,2.73000,-4.69000,0.00000,0.00281,0.96807,-0.22668,2023,6,9,12,38,22,897
0.32240,2.74750,-4.56750,0.00000,0.00146,0.96465,-0.22680,2023,6,9,12,38,22,908
0.32250,2.85250,-4.56750,0.00000,0.00281,0.96539,-0.22692,2023,6,9,12,38,22,919
0.32260,2.80000,-4.62000,0.00000,0.00281,0.96770,-0.22485,2023,6,9,12,38,22,930
0.32270,2.83500,-4.65500,0.00000,0.00244,0.96770,-0.22729,2023,6,9,12,38,22,941
0.32280,2.87000,-4.49750,0.00000,0.00293,0.96807,-0.22655,2023,6,9,12,38,22,952
0.32290,2.80000,-4.84750,0.00000,0.00342,0.96734,-0.22741,2023,6,9,12,38,22,964
0.32300,2.67750,-4.70750,0.00000,0.00085,0.96844,-0.22363,2023,6,9,12,38,22,975
0.32310,2.94000,-4.86500,0.00000,0.00171,0.96661,-0.22838,2023,6,9,12,38,22,986
0.32320,2.67750,-4.70750,0.00000,0.00378,0.96990,-0.22448,2023,6,9,12,38,22,997
0.32330,2.94000,-4.77750,0.00000,0.00183,0.96575,-0.22765,2023,6,9,12,38,22,8
0.32340,2.94000,-4.55000,0.00000,0.00281,0.96844,-0.22680,2023,6,9,12,38,23,9
0.32350,2.73000,-4.53250,0.00000,0.00305,0.96746,-0.22655,2023,6,9,12,38,23,20
0.32360,2.67750,-4.39250,0.00000,0.00317,0.96673,-0.22655,2023,6,9,12,38,23,31
0.32370,2.92250,-4.63750,0.00000,0.00110,0.96465,-0.22704,2023,6,9,12,38,23,42
0.32380,2.69500,-4.56750,0.00000,0.00195,0.96807,-0.22521,2023,6,9,12,38,23,54
0.32390,2.69500,-4.56750,0.00000,0.00415,0.96831,-0.22619,2023,6,9,12,38,23,65
0.32400,2.85250,-4.56750,0.00000,0.00049,0.96807,-0.22570,2023,6,9,12,38,23,76
0.32410,2.94000,-4.65500,0.00000,0.00024,0.96880,-0.22643,2023,6,9,12,38,23,87
0.32420,2.55500,-4.60250,0.00000,0.00085,0.96612,-0.22631,2023,6,9,12,38,23,98
0.32430,2.60750,-4.60250,0.00000,0.00390,0.96734,-0.22497,2023,6,9,12,38,23,109
0.32440,2.64250,-4.70750,0.00000,0.00256,0.96868,-0.22570,2023,6,9,12,38,23,120
0.32450,2.83500,-4.58500,0.00000,0.00207,0.96795,-0.22960,2023,6,9,12,38,23,131
0.32460,2.60750,-4.53250,0.00000,0.00232,0.96453,-0.22399,2023,6,9,12,38,23,142
0.32470,2.60750,-4.39250,0.00000,0.00329,0.96831,-0.22546,2023,6,9,12,38,23,154
0.32480,2.87000,-4.72500,0.00000,0.00061,0.96551,-0.22790,2023,6,9,12,38,23,165
0.32490,2.60750,-4.39250,0.00000,0.00366,0.96587,-0.22643,2023,6,9,12,38,23,176
0.32500,2.64250,-4.49750,0.00000,0.00061,0.96953,-0.22753,2023,6,9,12,38,23,187
0.32510,2.73000,-4.72500,0.00000,0.00293,0.96465,-0.22643,2023,6,9,12,38,23,198
0.32520,2.94000,-4.42750,0.00000,0.00159,0.96868,-0.22228,2023,6,9,12,38,23,209
0.32530,2.95750,-4.51500,0.00000,0.00293,0.96685,-0.22887,2023,6,9,12,38,23,220
0.32540,2.64250,-4.51500,0.00000,0.00354,0.96917,-0.22826,2023,6,9,12,38,23,231
0.32550,2.78250,-4.72500,0.00000,0.00732,0.96709,-0.22375,2023,6,9,12,38,23,242
0.32560,2.76500,-4.44500,0.00000,0.00232,0.96673,-0.22509,2023,6,9,12,38,23,254
0.32570,2.64250,-4.35750,0.00000,0.00476,0.96612,-0.22802,2023,6,9,12,38,23,265
0.32580,3.06250,-4.74250,0.00000,0.00244,0.96526,-0.22375,2023,6,9,12,38,23,276
0.32590,2.74750,-4.67250,0.00000,0.00268,0.96697,-0.22680,2023,6,9,12,38,23,287
0.32600,2.95750,-4.55000,0.00000,0.00427,0.96551,-0.22741,2023,6,9,12,38,23,298
0.32610,2.74750,-4.44500,0.00000,0.00305,0.96392,-0.22594,2023,6,9,12,38,23,309
0.32620,2.87000,-4.56750,0.00000,-0.00122,0.96807,-0.22570,2023,6,9,12,38,23,320
0.32630,2.83500,-4.51500,0.00000,0.00268,0.96502,-0.22509,2023,6,9,12,38,23,331
0.32640,2.94000,-4.53250,0.00000,0.00085,0.96831,-0.22643,2023,6,9,12,38,23,342
0.32650,2.87000,-4.65500,0.00000,0.00317,0.96697,-0.22521,2023,6,9,12,38,23,354
0.32660,2.74750,-4.90000,0.00000,0.00085,0.96612,-0.22509,2023,6,9,12,38,23,365
0.32670,2.83500,-4.74250,0.00000,0.00476,0.96563,-0.22460,2023,6,9,12,38,23,376
0.32680,2.90500,-4.55000,0.00000,0.00281,0.96636,-0.22533,2023,6,9,12,38,23,387
0.32690,2.64250,-4.58500,0.00000,0.00256,0.96734,-0.22814,2023,6,9,12,38,23,398
0.32700,2.87000,-4.51500,0.00000,0.00171,0.96685,-0.22704,2023,6,9,12,38,23,409
0.32710,2.85250,-4.53250,0.00000,0.00415,0.96831,-0.22765,2023,6,9,12,38,23,420
0.32720,2.87000,-4.72500,0.00000,0.00159,0.96941,-0.22643,2023,6,9,12,38,23,431
0.32730,2.95750,-4.58500,0.00000,0.00293,0.96685,-0.22472,2023,6,9,12,38,23,442
0.32740,2.85250,-4.60250,0.00000,0.00110,0.96844,-0.22631,2023,6,9,12,38,23,454
0.32750,2.90500,-4.53250,0.00000,0.00110,0.96709,-0.22533,2023,6,9,12,38,23,465
0.32760,2.81750,-4.69000,0.00000,0.00134,0.96490,-0.22741,2023,6,9,12,38,23,476
0.32770,2.80000,-4.72500,0.00000,0.00232,0.96844,-0.22533,2023,6,9,12,38,23,487
0.32780,2.80000,-4.70750,0.00000,0.00354,0.96575,-0.22716,2023,6,9,12,38,23,498
0.32790,2.76500,-4.72500,0.00000,0.00354,0.96673,-0.22655,2023,6,9,12,38,23,509
0.32800,2.67750,-4.79500,0.00000,0.00427,0.96563,-0.22607,2023,6,9,12,38,23,520
0.32810,2.90500,-4.51500,0.00000,0.00146,0.96612,-0.22875,2023,6,9,12,38,23,531
0.32820,2.64250,-4.63750,0.00000,0.00427,0.96587,-0.22570,2023,6,9,12,38,23,542
0.32830,2.81750,-4.62000,0.00000,0.00439,0.96807,-0.22619,2023,6,9,12,38,23,554
0.32840,2.74750,-4.53250,0.00000,0.00305,0.96673,-0.22619,2023,6,9,12,38,23,565
0.32850,2.80000,-4.62000,0.00000,0.00159,0.96514,-0.22765,2023,6,9,12,38,23,576
0.32860,2.81750,-4.63750,0.00000,0.00073,0.96490,-0.22277,2023,6,9,12,38,23,587
0.32870,2.73000,-4.76000,0.00000,0.00329,0.96722,-0.22570,2023,6,9,12,38,23,598
0.32880,2.85250,-4.74250,0.00000,0.00293,0.96648,-0.22582,2023,6,9,12,38,23,609
0.32890,2.73000,-4.30500,0.00000,0.00171,0.96856,-0.22668,2023,6,9,12,38,23,620
0.32900,2.81750,-4.74250,0.00000,0.00464,0.96539,-0.22472,2023,6,9,12,38,23,631
0.32910,2.80000,-4.51500,0.00000,0.00085,0.96600,-0.22607,2023,6,9,12,38,23,642
0.32920,2.83500,-4.30500,0.00000,0.00451,0.96587,-0.22777,2023,6,9,12,38,23,654
0.32930,2.90500,-4.41000,0.00000,0.00122,0.96722,-0.22753,2023,6,9,12,38,23,665
0.32940,2.87000,-4.74250,0.00000,0.00281,0.96892,-0.22558,2023,6,9,12,38,23,676
0.32950,2.94000,-4.48000,0.00000,0.00512,0.96880,-0.22558,2023,6,9,12,38,23,687
0.32960,2.71250,-4.72500,0.00000,0.00220,0.96966,-0.22607,2023,6,9,12,38,23,698
0.32970,2.88750,-4.60250,0.00000,0.00415,0.96770,-0.22655,2023,6,9,12,38,23,709
0.32980,2.92250,-4.56750,0.00000,0.00171,0.96575,-0.22594,2023,6,9,12,38,23,720
0.32990,2.64250,-4.70750,0.00000,0.00232,0.96709,-0.22497,2023,6,9,12,38,23,731
0.33000,2.88750,-4.69000,0.00000,0.00220,0.96905,-0.22777,2023,6,9,12,38,23,742
0.33010,2.53750,-4.37500,0.00000,0.00305,0.96953,-0.22729,2023,6,9,12,38,23,754
0.33020,2.80000,-4.56750,0.00000,0.00268,0.96770,-0.22594,2023,6,9,12,38,23,765
0.33030,2.71250,-4.49750,0.00000,0.00256,0.97002,-0.22533,2023,6,9,12,38,23,776
0.33040,2.81750,-4.62000,0.00000,0.00061,0.96758,-0.22607,2023,6,9,12,38,23,787
0.33050,2.81750,-4.65500,0.00000,0.00281,0.96807,-0.22887,2023,6,9,12,38,23,798
0.33060,2.64250,-4.51500,0.00000,0.00122,0.96807,-0.22619,2023,6,9,12,38,23,809
0.33070,2.76500,-4.60250,0.00000,0.00244,0.96795,-0.22704,2023,6,9,12,38,23,820
0.33080,2.88750,-4.49750,0.00000,0.00244,0.96990,-0.22558,2023,6,9,12,38,23,831
0.33090,2.64250,-4.58500,0.00000,0.00183,0.96905,-0.22594,2023,6,9,12,38,23,842
0.33100,2.95750,-4.53250,0.00000,0.00232,0.96709,-0.22546,2023,6,9,12,38,23,854
0.33110,2.81750,-4.76000,0.00000,0.00329,0.96770,-0.22607,2023,6,9,12,38,23,865
0.33120,2.99250,-4.67250,0.00000,0.00122,0.96624,-0.22680,2023,6,9,12,38,23,876
0.33130,2.71250,-4.69000,0.00000,0.00268,0.96746,-0.22814,2023,6,9,12,38,23,887
0.33140,2.78250,-4.60250,0.00000,0.00207,0.96575,-0.22802,2023,6,9,12,38,23,898
0.33150,2.60750,-4.65500,0.00000,0.00268,0.96636,-0.22619,2023,6,9,12,38,23,909
0.33160,2.88750,-4.84750,0.00000,-0.00012,0.96673,-0.22594,2023,6,9,12,38,23,920
0.33170,2.83500,-4.67250,0.00000,0.00244,0.96734,-0.22607,2023,6,9,12,38,23,931
0.33180,2.88750,-4.62000,0.00000,0.00305,0.96770,-0.22607,2023,6,9,12,38,23,942
0.33190,2.92250,-4.77750,0.00000,0.00220,0.96758,-0.22570,2023,6,9,12,38,23,954
0.33200,2.78250,-4.51500,0.00000,0.00244,0.96905,-0.22655,2023,6,9,12,38,23,965
0.33210,2.87000,-4.70750,0.00000,0.00220,0.96734,-0.22631,2023,6,9,12,38,23,976
0.33220,2.60750,-4.34000,0.00000,0.00281,0.96685,-0.22570,2023,6,9,12,38,23,987
0.33230,2.92250,-4.49750,0.00000,0.00281,0.96612,-0.22655,2023,6,9,12,38,23,998
0.33240,2.78250,-4.51500,0.00000,0.00317,0.96551,-0.22436,2023,6,9,12,38,23,9
0.33250,2.85250,-4.60250,0.00000,0.00329,0.96783,-0.22558,2023,6,9,12,38,24,0
0.33260,2.73000,-4.55000,0.00000,0.00256,0.96539,-0.22472,2023,6,9,12,38,24,11
0.33270,2.81750,-4.60250,0.00000,0.00232,0.96697,-0.22851,2023,6,9,12,38,24,22
0.33280,2.76500,-4.49750,0.00000,0.00342,0.96856,-0.22680,2023,6,9,12,38,24,34
0.33290,2.62500,-4.55000,0.00000,0.00342,0.96648,-0.22546,2023,6,9,12,38,24,45
0.33300,2.80000,-4.53250,0.00000,0.00354,0.96819,-0.22680,2023,6,9,12,38,24,56
0.33310,2.76500,-4.65500,0.00000,0.00110,0.96661,-0.22680,2023,6,9,12,38,24,67
0.33320,2.99250,-4.97000,0.00000,0.00110,0.96819,-0.22619,2023,6,9,12,38,24,78
0.33330,2.69500,-4.67250,0.00000,0.00244,0.96661,-0.22790,2023,6,9,12,38,24,89
0.33340,2.88750,-4.60250,0.00000,0.00049,0.96636,-0.22729,2023,6,9,12,38,24,100
0.33350,2.76500,-4.56750,0.00000,0.00268,0.96709,-0.22558,2023,6,9,12,38,24,111
0.33360,2.67750,-4.70750,0.00000,0.00476,0.96856,-0.22546,2023,6,9,12,38,24,122
0.33370,2.81750,-4.60250,0.00000,0.00500,0.96795,-0.22716,2023,6,9,12,38,24,134
0.33380,2.78250,-4.67250,0.00000,0.00207,0.96612,-0.22631,2023,6,9,12,38,24,145
0.33390,2.66000,-4.53250,0.00000,0.00415,0.96770,-0.22509,2023,6,9,12,38,24,156
0.33400,2.76500,-4.53250,0.00000,0.00171,0.96673,-0.22741,2023,6,9,12,38,24,167
0.33410,2.83500,-4.53250,0.00000,0.00488,0.96734,-0.22863,2023,6,9,12,38,24,178
0.33420,2.94000,-4.56750,0.00000,0.00464,0.96892,-0.22424,2023,6,9,12,38,24,189
0.33430,2.73000,-4.55000,0.00000,0.00146,0.96770,-0.22655,2023,6,9,12,38,24,200
0.33440,2.80000,-4.53250,0.00000,0.00488,0.96600,-0.22460,2023,6,9,12,38,24,211
0.33450,2.78250,-4.74250,0.00000,0.00256,0.96831,-0.22582,2023,6,9,12,38,24,222
0.33460,2.76500,-4.51500,0.00000,0.00195,0.96917,-0.22668,2023,6,9,12,38,24,234
0.33470,2.88750,-4.51500,0.00000,0.00354,0.96563,-0.22460,2023,6,9,12,38,24,245
0.33480,2.80000,-4.63750,0.00000,0.00378,0.96953,-0.22643,2023,6,9,12,38,24,256
0.33490,2.73000,-4.83000,0.00000,0.00171,0.96795,-0.22411,2023,6,9,12,38,24,267
0.33500,2.95750,-4.79500,0.00000,0.00415,0.96819,-0.22741,2023,6,9,12,38,24,278
0.33510,2.90500,-4.51500,0.00000,0.00378,0.96831,-0.22497,2023,6,9,12,38,24,289
0.33520,2.78250,-4.63750,0.00000,0.00183,0.96612,-0.22448,2023,6,9,12,38,24,300
0.33530,2.83500,-4.48000,0.00000,0.00281,0.96819,-0.22509,2023,6,9,12,38,24,311
0.33540,2.80000,-4.51500,0.00000,0.00244,0.96783,-0.22814,2023,6,9,12,38,24,322
0.33550,2.97500,-4.65500,0.00000,0.00439,0.96465,-0.22619,2023,6,9,12,38,24,334
0.33560,2.83500,-4.67250,0.00000,0.00220,0.97039,-0.22436,2023,6,9,12,38,24,345
0.33570,2.90500,-4.51500,0.00000,0.00293,0.97039,-0.22448,2023,6,9,12,38,24,356
0.33580,2.80000,-4.65500,0.00000,0.00305,0.96795,-0.22546,2023,6,9,12,38,24,367
0.33590,2.88750,-4.58500,0.00000,0.00159,0.96673,-0.22655,2023,6,9,12,38,24,378
0.33600,2.76500,-4.37500,0.00000,0.00195,0.96941,-0.22472,2023,6,9,12,38,24,389
0.33610,2.73000,-4.46250,0.00000,0.00220,0.96783,-0.22631,2023,6,9,12,38,24,400
0.33620,2.78250,-4.69000,0.00000,0.00293,0.96868,-0.22777,2023,6,9,12,38,24,411
0.33630,2.74750,-4.58500,0.00000,0.00281,0.96624,-0.22582,2023,6,9,12,38,24,422
0.33640,2.64250,-4.58500,0.00000,0.00171,0.96636,-0.22582,2023,6,9,12,38,24,434
0.33650,2.62500,-4.49750,0.00000,0.00220,0.96795,-0.22668,2023,6,9,12,38,24,445
0.33660,2.92250,-4.77750,0.00000,0.00049,0.96746,-0.22680,2023,6,9,12,38,24,456
0.33670,2.78250,-4.79500,0.00000,0.00171,0.96709,-0.22741,2023,6,9,12,38,24,467
0.33680,2.87000,-4.60250,0.00000,0.00244,0.96758,-0.22826,2023,6,9,12,38,24,478
0.33690,2.66000,-4.48000,0.00000,0.00183,0.96587,-0.22546,2023,6,9,12,38,24,489
0.33700,2.71250,-4.48000,0.00000,0.00317,0.96673,-0.22741,2023,6,9,12,38,24,500
0.33710,2.85250,-4.69000,0.00000,0.00256,0.96770,-0.22826,2023,6,9,12,38,24,511
