#2023/06/12 13:27:01
time,wx,wy,wz,ax,ay,az,yy,MM,dd,hh,mm,ss,ms
0.00000,2.76500,-4.58500,0.00000,-0.00915,0.01574,-0.98722,2023,6,12,13,27,1,935
0.00010,2.87000,-4.62000,0.00000,-0.00830,0.01635,-0.98674,2023,6,12,13,27,1,946
0.00020,3.02750,-4.48000,0.00000,-0.00695,0.01720,-0.98674,2023,6,12,13,27,1,957
0.00030,2.92250,-4.62000,0.00000,-0.00878,0.01867,-0.98918,2023,6,12,13,27,1,968
0.00040,3.01000,-4.79500,0.00000,-0.00817,0.01818,-0.98905,2023,6,12,13,27,1,979
0.00050,2.92250,-4.81250,0.00000,-0.00805,0.01806,-0.98747,2023,6,12,13,27,1,990
0.00060,2.85250,-4.58500,0.00000,-0.00634,0.01867,-0.98820,2023,6,12,13,27,1,1
0.00070,3.09750,-4.91750,0.00000,-0.00683,0.01757,-0.98893,2023,6,12,13,27,1,12
0.00080,2.87000,-4.51500,0.00000,-0.00842,0.01842,-0.98942,2023,6,12,13,27,1,23
0.00090,2.78250,-4.42750,0.00000,-0.00586,0.01732,-0.98564,2023,6,12,13,27,1,34
0.00100,2.97500,-4.53250,0.00000,-0.01074,0.01586,-0.98527,2023,6,12,13,27,1,46
0.00110,2.99250,-4.55000,0.00000,-0.00793,0.01671,-0.98991,2023,6,12,13,27,1,57
0.00120,3.06250,-4.70750,0.00000,-0.00952,0.01806,-0.98759,2023,6,12,13,27,1,68
0.00130,3.01000,-4.63750,0.00000,-0.00744,0.01659,-0.98637,2023,6,12,13,27,1,79
0.00140,2.83500,-4.63750,0.00000,-0.00695,0.01842,-0.98564,2023,6,12,13,27,1,90
0.00150,3.11500,-4.60250,0.00000,-0.00732,0.01818,-0.98503,2023,6,12,13,27,1,101
0.00160,2.94000,-4.70750,0.00000,-0.00817,0.01720,-0.98735,2023,6,12,13,27,1,112
0.00170,3.02750,-4.86500,0.00000,-0.00622,0.01781,-0.98869,2023,6,12,13,27,1,123
0.00180,3.06250,-4.60250,0.00000,-0.00793,0.01842,-0.98869,2023,6,12,13,27,1,134
0.00190,2.52000,-4.63750,0.00000,-0.00683,0.01915,-0.98503,2023,6,12,13,27,1,146
0.00200,3.09750,-4.69000,0.00000,-0.00683,0.01854,-0.98625,2023,6,12,13,27,1,157
0.00210,2.87000,-4.72500,0.00000,-0.00805,0.01830,-0.98686,2023,6,12,13,27,1,168
0.00220,2.99250,-4.58500,0.00000,-0.00964,0.01879,-0.98905,2023,6,12,13,27,1,179
0.00230,2.99250,-4.62000,0.00000,-0.00659,0.01769,-0.99027,2023,6,12,13,27,1,190
0.00240,2.97500,-4.77750,0.00000,-0.00903,0.01757,-0.98832,2023,6,12,13,27,1,201
0.00250,3.01000,-4.77750,0.00000,-0.00744,0.01745,-0.98564,2023,6,12,13,27,1,212
0.00260,2.97500,-4.56750,0.00000,-0.00732,0.01659,-0.98722,2023,6,12,13,27,1,223
0.00270,2.94000,-4.72500,0.00000,-0.00756,0.01549,-0.98893,2023,6,12,13,27,1,234
0.00280,2.99250,-4.46250,0.00000,-0.00634,0.01903,-0.98832,2023,6,12,13,27,1,246
0.00290,3.08000,-4.56750,0.00000,-0.00732,0.01635,-0.98393,2023,6,12,13,27,1,257
0.00300,2.95750,-4.58500,0.00000,-0.00854,0.01745,-0.98747,2023,6,12,13,27,1,268
0.00310,2.95750,-4.49750,0.00000,-0.00854,0.01549,-0.98674,2023,6,12,13,27,1,279
0.00320,2.92250,-4.83000,0.00000,-0.00659,0.01769,-0.98527,2023,6,12,13,27,1,290
0.00330,2.95750,-4.53250,0.00000,-0.00866,0.01793,-0.98759,2023,6,12,13,27,1,301
0.00340,2.88750,-4.63750,0.00000,-0.00793,0.01708,-0.98686,2023,6,12,13,27,2,2
0.00350,3.04500,-4.65500,0.00000,-0.00842,0.01745,-0.98735,2023,6,12,13,27,2,13
0.00360,2.87000,-4.51500,0.00000,-0.00671,0.01696,-0.98869,2023,6,12,13,27,2,24
0.00370,2.95750,-4.46250,0.00000,-0.00756,0.01708,-0.98613,2023,6,12,13,27,2,36
0.00380,2.88750,-4.70750,0.00000,-0.00720,0.01830,-0.98442,2023,6,12,13,27,2,47
0.00390,2.92250,-4.55000,0.00000,-0.00573,0.01781,-0.98564,2023,6,12,13,27,2,58
0.00400,2.80000,-4.74250,0.00000,-0.00805,0.01818,-0.98576,2023,6,12,13,27,2,69
0.00410,2.90500,-4.81250,0.00000,-0.00671,0.01696,-0.98661,2023,6,12,13,27,2,80
0.00420,2.81750,-4.35750,0.00000,-0.00622,0.01854,-0.98491,2023,6,12,13,27,2,91
0.00430,2.87000,-4.46250,0.00000,-0.00756,0.01818,-0.98417,2023,6,12,13,27,2,102
0.00440,2.92250,-4.63750,0.00000,-0.00720,0.01501,-0.98674,2023,6,12,13,27,2,113
0.00450,2.92250,-4.76000,0.00000,-0.00927,0.01720,-0.99003,2023,6,12,13,27,2,124
0.00460,3.04500,-4.72500,0.00000,-0.00720,0.01708,-0.98637,2023,6,12,13,27,2,136
0.00470,3.08000,-4.55000,0.00000,-0.00805,0.01708,-0.98759,2023,6,12,13,27,2,147
0.00480,2.92250,-4.74250,0.00000,-0.00732,0.01708,-0.98576,2023,6,12,13,27,2,158
0.00490,2.92250,-4.72500,0.00000,-0.00842,0.01684,-0.98625,2023,6,12,13,27,2,169
0.00500,2.87000,-4.46250,0.00000,-0.00805,0.01757,-0.98832,2023,6,12,13,27,2,180
0.00510,2.97500,-4.74250,0.00000,-0.00976,0.01708,-0.98637,2023,6,12,13,27,2,191
0.00520,2.92250,-4.46250,0.00000,-0.00720,0.01732,-0.98954,2023,6,12,13,27,2,202
0.00530,3.02750,-4.44500,0.00000,-0.00671,0.01610,-0.98759,2023,6,12,13,27,2,213
0.00540,2.94000,-4.56750,0.00000,-0.00769,0.01562,-0.98796,2023,6,12,13,27,2,224
0.00550,2.92250,-4.51500,0.00000,-0.01013,0.01745,-0.98686,2023,6,12,13,27,2,236
0.00560,3.16750,-4.74250,0.00000,-0.00793,0.01903,-0.98783,2023,6,12,13,27,2,247
0.00570,3.09750,-4.70750,0.00000,-0.00830,0.01696,-0.98503,2023,6,12,13,27,2,258
0.00580,2.95750,-4.65500,0.00000,-0.00732,0.01671,-0.98478,2023,6,12,13,27,2,269
0.00590,2.74750,-4.46250,0.00000,-0.00793,0.01659,-0.98515,2023,6,12,13,27,2,280
0.00600,2.85250,-4.42750,0.00000,-0.00756,0.01854,-0.98417,2023,6,12,13,27,2,291
0.00610,2.85250,-4.63750,0.00000,-0.00939,0.01842,-0.98600,2023,6,12,13,27,2,302
0.00620,2.85250,-4.53250,0.00000,-0.00793,0.01745,-0.98674,2023,6,12,13,27,2,313
0.00630,2.95750,-4.44500,0.00000,-0.00866,0.02025,-0.98759,2023,6,12,13,27,2,324
0.00640,2.83500,-4.51500,0.00000,-0.00866,0.02025,-0.98686,2023,6,12,13,27,2,336
0.00650,2.94000,-4.41000,0.00000,-0.00769,0.01769,-0.99015,2023,6,12,13,27,2,347
0.00660,2.74750,-4.65500,0.00000,-0.00549,0.01745,-0.98613,2023,6,12,13,27,2,358
0.00670,2.87000,-4.60250,0.00000,-0.00695,0.01671,-0.98710,2023,6,12,13,27,2,369
0.00680,2.92250,-4.63750,0.00000,-0.00769,0.01793,-0.98649,2023,6,12,13,27,2,380
0.00690,2.94000,-4.74250,0.00000,-0.00817,0.01586,-0.98552,2023,6,12,13,27,2,391
0.00700,2.88750,-4.46250,0.00000,-0.00683,0.01696,-0.98686,2023,6,12,13,27,2,402
0.00710,2.67750,-4.49750,0.00000,-0.00866,0.01623,-0.98783,2023,6,12,13,27,2,413
0.00720,2.94000,-4.65500,0.00000,-0.00817,0.01879,-0.98710,2023,6,12,13,27,2,424
0.00730,3.01000,-4.81250,0.00000,-0.00781,0.01867,-0.98539,2023,6,12,13,27,2,436
0.00740,2.92250,-4.65500,0.00000,-0.00695,0.01732,-0.98600,2023,6,12,13,27,2,447
0.00750,2.95750,-4.88250,0.00000,-0.00805,0.01549,-0.98881,2023,6,12,13,27,2,458
0.00760,2.94000,-4.69000,0.00000,-0.00805,0.01818,-0.98771,2023,6,12,13,27,2,469
0.00770,2.97500,-4.48000,0.00000,-0.00683,0.01610,-0.98747,2023,6,12,13,27,2,480
0.00780,2.95750,-4.63750,0.00000,-0.00903,0.01647,-0.98857,2023,6,12,13,27,2,491
0.00790,3.16750,-4.63750,0.00000,-0.00708,0.01635,-0.98820,2023,6,12,13,27,2,502
0.00800,3.02750,-4.67250,0.00000,-0.00708,0.01501,-0.98735,2023,6,12,13,27,2,513
0.00810,2.71250,-4.60250,0.00000,-0.00647,0.01842,-0.98710,2023,6,12,13,27,2,524
0.00820,2.74750,-4.62000,0.00000,-0.01025,0.01525,-0.98796,2023,6,12,13,27,2,536
0.00830,2.73000,-4.63750,0.00000,-0.00586,0.01964,-0.98796,2023,6,12,13,27,2,547
0.00840,3.06250,-4.69000,0.00000,-0.00720,0.01720,-0.98942,2023,6,12,13,27,2,558
0.00850,3.11500,-4.81250,0.00000,-0.00817,0.01525,-0.98698,2023,6,12,13,27,2,569
0.00860,2.99250,-4.63750,0.00000,-0.00610,0.01793,-0.98625,2023,6,12,13,27,2,580
0.00870,2.97500,-4.48000,0.00000,-0.00964,0.01659,-0.98783,2023,6,12,13,27,2,591
0.00880,2.94000,-4.53250,0.00000,-0.00708,0.01635,-0.98857,2023,6,12,13,27,2,602
0.00890,2.95750,-4.56750,0.00000,-0.00647,0.01574,-0.99040,2023,6,12,13,27,2,613
0.00900,2.85250,-4.53250,0.00000,-0.00830,0.01903,-0.98832,2023,6,12,13,27,2,624
0.00910,2.97500,-4.63750,0.00000,-0.00927,0.01635,-0.98796,2023,6,12,13,27,2,636
0.00920,2.83500,-4.62000,0.00000,-0.00830,0.01671,-0.98844,2023,6,12,13,27,2,647
0.00930,2.67750,-4.62000,0.00000,-0.00610,0.01659,-0.98783,2023,6,12,13,27,2,658
0.00940,2.88750,-4.67250,0.00000,-0.00720,0.01684,-0.98942,2023,6,12,13,27,2,669
0.00950,2.94000,-4.55000,0.00000,-0.00622,0.01769,-0.98844,2023,6,12,13,27,2,680
0.00960,3.02750,-4.74250,0.00000,-0.00683,0.01793,-0.98515,2023,6,12,13,27,2,691
0.00970,3.13250,-4.58500,0.00000,-0.00708,0.01696,-0.98491,2023,6,12,13,27,2,702
0.00980,3.09750,-4.72500,0.00000,-0.00866,0.01806,-0.98710,2023,6,12,13,27,2,713
0.00990,2.87000,-4.67250,0.00000,-0.00939,0.01964,-0.98539,2023,6,12,13,27,2,724
0.01000,2.87000,-4.60250,0.00000,-0.00708,0.01732,-0.98478,2023,6,12,13,27,2,736
0.01010,2.87000,-4.34000,0.00000,-0.00793,0.01671,-0.98735,2023,6,12,13,27,2,747
0.01020,3.04500,-4.79500,0.00000,-0.00769,0.01696,-0.98710,2023,6,12,13,27,2,758
0.01030,2.92250,-4.58500,0.00000,-0.00793,0.01879,-0.98613,2023,6,12,13,27,2,769
0.01040,3.09750,-4.62000,0.00000,-0.00805,0.01598,-0.99003,2023,6,12,13,27,2,780
0.01050,2.99250,-4.51500,0.00000,-0.00683,0.01647,-0.98747,2023,6,12,13,27,2,791
0.01060,2.90500,-4.51500,0.00000,-0.00878,0.01952,-0.98735,2023,6,12,13,27,2,802
0.01070,2.88750,-4.81250,0.00000,-0.00939,0.01671,-0.98722,2023,6,12,13,27,2,813
0.01080,2.97500,-4.53250,0.00000,-0.00854,0.01806,-0.98710,2023,6,12,13,27,2,824
0.01090,2.80000,-4.55000,0.00000,-0.00939,0.01732,-0.98881,2023,6,12,13,27,2,836
0.01100,2.90500,-4.46250,0.00000,-0.00683,0.01769,-0.98844,2023,6,12,13,27,2,847
0.01110,2.97500,-4.46250,0.00000,-0.00964,0.01793,-0.98869,2023,6,12,13,27,2,858
0.01120,3.04500,-4.60250,0.00000,-0.00622,0.01732,-0.98722,2023,6,12,13,27,2,869
0.01130,2.97500,-4.65500,0.00000,-0.00671,0.01684,-0.98820,2023,6,12,13,27,2,880
0.01140,3.04500,-4.74250,0.00000,-0.00756,0.01793,-0.98491,2023,6,12,13,27,2,891
0.01150,3.08000,-4.60250,0.00000,-0.00756,0.01598,-0.98722,2023,6,12,13,27,2,902
0.01160,2.87000,-4.49750,0.00000,-0.00805,0.01830,-0.98698,2023,6,12,13,27,2,913
0.01170,2.85250,-4.69000,0.00000,-0.00903,0.01842,-0.98625,2023,6,12,13,27,2,924
0.01180,2.85250,-4.67250,0.00000,-0.00805,0.01549,-0.98747,2023,6,12,13,27,2,936
0.01190,2.81750,-4.35750,0.00000,-0.00671,0.01806,-0.98613,2023,6,12,13,27,2,947
0.01200,3.06250,-4.51500,0.00000,-0.00781,0.01635,-0.99247,2023,6,12,13,27,2,958
0.01210,2.97500,-4.51500,0.00000,-0.00915,0.01781,-0.98771,2023,6,12,13,27,2,969
0.01220,2.90500,-4.65500,0.00000,-0.00659,0.01830,-0.98588,2023,6,12,13,27,2,980
0.01230,2.80000,-4.70750,0.00000,-0.00720,0.01635,-0.98625,2023,6,12,13,27,3,1
0.01240,2.78250,-4.63750,0.00000,-0.00793,0.01879,-0.98857,2023,6,12,13,27,3,12
0.01250,3.13250,-4.72500,0.00000,-0.00720,0.01610,-0.98686,2023,6,12,13,27,3,23
0.01260,2.97500,-4.65500,0.00000,-0.00805,0.01696,-0.98796,2023,6,12,13,27,3,34
0.01270,3.08000,-4.74250,0.00000,-0.00720,0.01745,-0.98808,2023,6,12,13,27,3,46
0.01280,2.95750,-4.58500,0.00000,-0.00964,0.01586,-0.98893,2023,6,12,13,27,3,57
0.01290,3.01000,-4.56750,0.00000,-0.00659,0.01781,-0.98759,2023,6,12,13,27,3,68
0.01300,2.94000,-4.77750,0.00000,-0.00891,0.01708,-0.98796,2023,6,12,13,27,3,79
0.01310,2.90500,-4.76000,0.00000,-0.00708,0.01696,-0.98637,2023,6,12,13,27,3,90
0.01320,2.81750,-4.63750,0.00000,-0.00842,0.01854,-0.98747,2023,6,12,13,27,3,101
0.01330,3.08000,-4.53250,0.00000,-0.00805,0.01806,-0.98527,2023,6,12,13,27,3,112
0.01340,2.87000,-4.58500,0.00000,-0.00805,0.01732,-0.98759,2023,6,12,13,27,3,123
0.01350,3.09750,-4.86500,0.00000,-0.00756,0.01586,-0.98722,2023,6,12,13,27,3,134
0.01360,2.99250,-4.60250,0.00000,-0.00927,0.01720,-0.98735,2023,6,12,13,27,3,146
0.01370,2.81750,-4.49750,0.00000,-0.00647,0.01806,-0.98552,2023,6,12,13,27,3,157
0.01380,2.99250,-4.53250,0.00000,-0.00708,0.01757,-0.98613,2023,6,12,13,27,3,168
0.01390,3.11500,-4.62000,0.00000,-0.00683,0.01696,-0.98625,2023,6,12,13,27,3,179
0.01400,3.11500,-4.46250,0.00000,-0.00756,0.01793,-0.98405,2023,6,12,13,27,3,190
0.01410,3.02750,-4.70750,0.00000,-0.00793,0.01708,-0.98539,2023,6,12,13,27,3,201
0.01420,3.15000,-4.60250,0.00000,-0.00976,0.01940,-0.98722,2023,6,12,13,27,3,212
0.01430,3.11500,-4.63750,0.00000,-0.00756,0.01708,-0.98503,2023,6,12,13,27,3,223
0.01440,2.92250,-4.65500,0.00000,-0.00830,0.01793,-0.98722,2023,6,12,13,27,3,234
0.01450,2.94000,-4.58500,0.00000,-0.00891,0.01708,-0.98722,2023,6,12,13,27,3,246
0.01460,2.76500,-4.58500,0.00000,-0.00854,0.01574,-0.98369,2023,6,12,13,27,3,257
0.01470,2.99250,-4.79500,0.00000,-0.00647,0.01867,-0.98710,2023,6,12,13,27,3,268
0.01480,2.81750,-4.62000,0.00000,-0.00854,0.01781,-0.98625,2023,6,12,13,27,3,279
0.01490,2.92250,-4.72500,0.00000,-0.00866,0.01659,-0.98820,2023,6,12,13,27,3,290
0.01500,3.02750,-4.77750,0.00000,-0.00573,0.01769,-0.98771,2023,6,12,13,27,3,301
0.01510,3.02750,-4.74250,0.00000,-0.00781,0.01818,-0.98674,2023,6,12,13,27,3,312
0.01520,2.94000,-4.88250,0.00000,-0.00695,0.01915,-0.98844,2023,6,12,13,27,3,323
0.01530,2.97500,-4.49750,0.00000,-0.00708,0.02050,-0.98552,2023,6,12,13,27,3,334
0.01540,3.04500,-4.53250,0.00000,-0.00756,0.01720,-0.98686,2023,6,12,13,27,3,346
0.01550,2.92250,-4.51500,0.00000,-0.00891,0.01610,-0.98771,2023,6,12,13,27,3,357
0.01560,3.22000,-4.72500,0.00000,-0.00756,0.01781,-0.98820,2023,6,12,13,27,3,368
0.01570,3.18500,-4.77750,0.00000,-0.00781,0.01708,-0.98954,2023,6,12,13,27,3,379
0.01580,2.81750,-4.63750,0.00000,-0.00952,0.01867,-0.98893,2023,6,12,13,27,3,390
0.01590,3.04500,-4.69000,0.00000,-0.00903,0.01720,-0.98783,2023,6,12,13,27,3,401
0.01600,3.09750,-4.76000,0.00000,-0.00671,0.01635,-0.98637,2023,6,12,13,27,3,412
0.01610,2.95750,-4.58500,0.00000,-0.00952,0.01928,-0.98844,2023,6,12,13,27,3,423
0.01620,2.90500,-4.70750,0.00000,-0.00769,0.01696,-0.98564,2023,6,12,13,27,3,434
0.01630,3.04500,-4.55000,0.00000,-0.00927,0.01745,-0.98649,2023,6,12,13,27,3,446
0.01640,2.95750,-4.74250,0.00000,-0.00610,0.01793,-0.98722,2023,6,12,13,27,3,457
0.01650,2.76500,-4.48000,0.00000,-0.00695,0.01806,-0.98588,2023,6,12,13,27,3,468
0.01660,2.92250,-4.65500,0.00000,-0.00817,0.01793,-0.98515,2023,6,12,13,27,3,479
0.01670,2.85250,-4.56750,0.00000,-0.00891,0.01976,-0.98564,2023,6,12,13,27,3,490
0.01680,2.97500,-4.62000,0.00000,-0.00952,0.01732,-0.98759,2023,6,12,13,27,3,501
0.01690,2.83500,-4.58500,0.00000,-0.00878,0.01769,-0.98588,2023,6,12,13,27,3,512
0.01700,2.74750,-4.42750,0.00000,-0.00805,0.01732,-0.98735,2023,6,12,13,27,3,523
0.01710,2.81750,-4.62000,0.00000,-0.00903,0.01769,-0.98515,2023,6,12,13,27,3,534
0.01720,2.94000,-4.65500,0.00000,-0.00805,0.01757,-0.98466,2023,6,12,13,27,3,546
0.01730,3.01000,-4.70750,0.00000,-0.00671,0.01757,-0.98539,2023,6,12,13,27,3,557
0.01740,3.06250,-4.91750,0.00000,-0.01159,0.01732,-0.98930,2023,6,12,13,27,3,568
0.01750,2.97500,-4.42750,0.00000,-0.00598,0.01830,-0.98588,2023,6,12,13,27,3,579
0.01760,2.88750,-4.55000,0.00000,-0.00756,0.01854,-0.98771,2023,6,12,13,27,3,590
0.01770,2.92250,-4.42750,0.00000,-0.00720,0.01635,-0.98600,2023,6,12,13,27,3,601
0.01780,3.04500,-4.63750,0.00000,-0.00708,0.01928,-0.98466,2023,6,12,13,27,3,612
0.01790,3.04500,-4.83000,0.00000,-0.00683,0.01879,-0.98308,2023,6,12,13,27,3,623
0.01800,2.95750,-4.62000,0.00000,-0.00854,0.01854,-0.98771,2023,6,12,13,27,3,634
0.01810,2.90500,-4.65500,0.00000,-0.00756,0.01879,-0.98625,2023,6,12,13,27,3,646
0.01820,2.90500,-4.48000,0.00000,-0.00976,0.01964,-0.98759,2023,6,12,13,27,3,657
0.01830,2.73000,-4.44500,0.00000,-0.00708,0.01684,-0.98698,2023,6,12,13,27,3,668
0.01840,3.01000,-4.63750,0.00000,-0.00671,0.01732,-0.98417,2023,6,12,13,27,3,679
0.01850,2.95750,-4.51500,0.00000,-0.00927,0.01659,-0.98417,2023,6,12,13,27,3,690
0.01860,3.06250,-4.72500,0.00000,-0.00866,0.01769,-0.98796,2023,6,12,13,27,3,701
0.01870,3.01000,-4.56750,0.00000,-0.00708,0.01671,-0.98539,2023,6,12,13,27,3,712
0.01880,3.08000,-4.74250,0.00000,-0.00732,0.01720,-0.98832,2023,6,12,13,27,3,723
0.01890,2.90500,-4.76000,0.00000,-0.00781,0.01940,-0.98661,2023,6,12,13,27,3,734
0.01900,2.83500,-4.63750,0.00000,-0.00793,0.01696,-0.98869,2023,6,12,13,27,3,746
0.01910,2.64250,-4.55000,0.00000,-0.00866,0.01549,-0.98918,2023,6,12,13,27,3,757
0.01920,2.88750,-4.49750,0.00000,-0.01000,0.01696,-0.98869,2023,6,12,13,27,3,768
0.01930,3.15000,-4.56750,0.00000,-0.00683,0.01586,-0.98661,2023,6,12,13,27,3,779
0.01940,3.06250,-4.88250,0.00000,-0.00842,0.01818,-0.98430,2023,6,12,13,27,3,790
0.01950,2.95750,-4.60250,0.00000,-0.00732,0.01830,-0.98600,2023,6,12,13,27,3,801
0.01960,2.97500,-4.56750,0.00000,-0.00842,0.01793,-0.98710,2023,6,12,13,27,3,812
0.01970,2.80000,-4.51500,0.00000,-0.00744,0.01635,-0.98576,2023,6,12,13,27,3,823
0.01980,2.88750,-4.53250,0.00000,-0.00647,0.01867,-0.98381,2023,6,12,13,27,3,834
0.01990,2.97500,-4.58500,0.00000,-0.00634,0.01781,-0.98552,2023,6,12,13,27,3,846
0.02000,3.09750,-4.51500,0.00000,-0.00720,0.01720,-0.98661,2023,6,12,13,27,3,857
0.02010,3.08000,-4.72500,0.00000,-0.00732,0.01574,-0.98417,2023,6,12,13,27,3,868
0.02020,3.06250,-4.32250,0.00000,-0.00866,0.01708,-0.98686,2023,6,12,13,27,3,879
0.02030,2.94000,-4.34000,0.00000,-0.00598,0.01659,-0.98637,2023,6,12,13,27,3,890
0.02040,3.23750,-4.88250,0.00000,-0.00866,0.01915,-0.98503,2023,6,12,13,27,3,901
0.02050,2.95750,-4.67250,0.00000,-0.00647,0.01781,-0.98491,2023,6,12,13,27,3,912
0.02060,2.90500,-4.49750,0.00000,-0.00903,0.01708,-0.98942,2023,6,12,13,27,3,923
0.02070,2.85250,-4.69000,0.00000,-0.00634,0.01952,-0.98588,2023,6,12,13,27,3,934
0.02080,2.95750,-4.67250,0.00000,-0.00781,0.01806,-0.98491,2023,6,12,13,27,3,946
0.02090,2.94000,-4.55000,0.00000,-0.00610,0.01696,-0.98478,2023,6,12,13,27,3,957
0.02100,2.80000,-4.62000,0.00000,-0.00952,0.01806,-0.98698,2023,6,12,13,27,4,8
0.02110,2.97500,-4.95250,0.00000,-0.00756,0.01684,-0.98552,2023,6,12,13,27,4,19
0.02120,2.99250,-4.58500,0.00000,-0.00683,0.01574,-0.98576,2023,6,12,13,27,4,30
0.02130,2.87000,-4.81250,0.00000,-0.00817,0.01635,-0.98332,2023,6,12,13,27,4,41
0.02140,2.80000,-4.51500,0.00000,-0.00756,0.01842,-0.98686,2023,6,12,13,27,4,52
0.02150,2.94000,-4.34000,0.00000,-0.00610,0.01757,-0.98637,2023,6,12,13,27,4,63
0.02160,2.90500,-4.53250,0.00000,-0.00683,0.01647,-0.98966,2023,6,12,13,27,4,74
0.02170,2.80000,-4.53250,0.00000,-0.00817,0.01476,-0.98576,2023,6,12,13,27,4,86
0.02180,2.87000,-4.42750,0.00000,-0.00708,0.01647,-0.98661,2023,6,12,13,27,4,97
0.02190,2.81750,-4.74250,0.00000,-0.00598,0.01806,-0.98393,2023,6,12,13,27,4,108
0.02200,2.92250,-4.63750,0.00000,-0.00793,0.01903,-0.98759,2023,6,12,13,27,4,119
0.02210,2.95750,-4.55000,0.00000,-0.00878,0.01879,-0.98649,2023,6,12,13,27,4,130
0.02220,3.04500,-4.56750,0.00000,-0.00903,0.01806,-0.98503,2023,6,12,13,27,4,141
0.02230,3.08000,-4.84750,0.00000,-0.00891,0.01842,-0.98259,2023,6,12,13,27,4,152
0.02240,2.92250,-4.53250,0.00000,-0.00647,0.01708,-0.98649,2023,6,12,13,27,4,163
0.02250,2.81750,-4.37500,0.00000,-0.00939,0.01708,-0.98893,2023,6,12,13,27,4,174
0.02260,2.88750,-4.42750,0.00000,-0.00756,0.01769,-0.98503,2023,6,12,13,27,4,186
0.02270,2.97500,-4.60250,0.00000,-0.00805,0.01757,-0.98771,2023,6,12,13,27,4,197
0.02280,2.85250,-4.56750,0.00000,-0.00927,0.01867,-0.98417,2023,6,12,13,27,4,208
0.02290,3.08000,-4.74250,0.00000,-0.00842,0.01513,-0.98552,2023,6,12,13,27,4,219
0.02300,2.85250,-4.49750,0.00000,-0.00732,0.01732,-0.98320,2023,6,12,13,27,4,230
0.02310,2.95750,-4.63750,0.00000,-0.00561,0.01915,-0.98808,2023,6,12,13,27,4,241
0.02320,2.99250,-4.76000,0.00000,-0.00805,0.01659,-0.98661,2023,6,12,13,27,4,252
0.02330,2.99250,-4.55000,0.00000,-0.00561,0.01879,-0.98552,2023,6,12,13,27,4,263
0.02340,2.81750,-4.76000,0.00000,-0.00830,0.01659,-0.98857,2023,6,12,13,27,4,274
0.02350,2.80000,-4.30500,0.00000,-0.00939,0.01708,-0.98759,2023,6,12,13,27,4,286
0.02360,2.97500,-4.60250,0.00000,-0.00769,0.01830,-0.98515,2023,6,12,13,27,4,297
0.02370,2.90500,-4.48000,0.00000,-0.00683,0.01793,-0.98893,2023,6,12,13,27,4,308
0.02380,2.71250,-4.70750,0.00000,-0.00756,0.01867,-0.98613,2023,6,12,13,27,4,319
0.02390,3.06250,-4.97000,0.00000,-0.00805,0.01623,-0.98869,2023,6,12,13,27,4,330
0.02400,2.81750,-4.60250,0.00000,-0.00695,0.01745,-0.98686,2023,6,12,13,27,4,341
0.02410,3.01000,-4.63750,0.00000,-0.00598,0.01818,-0.98491,2023,6,12,13,27,4,352
0.02420,2.95750,-4.76000,0.00000,-0.00756,0.01830,-0.98844,2023,6,12,13,27,4,363
0.02430,3.02750,-4.35750,0.00000,-0.00891,0.01989,-0.98966,2023,6,12,13,27,4,374
0.02440,2.94000,-4.70750,0.00000,-0.00854,0.01696,-0.98649,2023,6,12,13,27,4,386
0.02450,3.02750,-4.77750,0.00000,-0.00805,0.01903,-0.98576,2023,6,12,13,27,4,397
0.02460,2.95750,-4.60250,0.00000,-0.00634,0.01757,-0.98942,2023,6,12,13,27,4,408
0.02470,2.87000,-4.62000,0.00000,-0.00744,0.01830,-0.98259,2023,6,12,13,27,4,419
0.02480,2.94000,-4.63750,0.00000,-0.00695,0.01830,-0.98674,2023,6,12,13,27,4,430
0.02490,2.94000,-4.67250,0.00000,-0.00781,0.01623,-0.98588,2023,6,12,13,27,4,441
0.02500,2.83500,-4.48000,0.00000,-0.00866,0.01732,-0.98661,2023,6,12,13,27,4,452
0.02510,2.97500,-4.56750,0.00000,-0.00854,0.01903,-0.98674,2023,6,12,13,27,4,463
0.02520,3.02750,-4.63750,0.00000,-0.00854,0.01793,-0.98320,2023,6,12,13,27,4,474
0.02530,2.92250,-4.60250,0.00000,-0.00769,0.01684,-0.98674,2023,6,12,13,27,4,486
0.02540,2.88750,-4.76000,0.00000,-0.00671,0.01842,-0.98820,2023,6,12,13,27,4,497
0.02550,2.88750,-4.83000,0.00000,-0.00927,0.02098,-0.98783,2023,6,12,13,27,4,508
0.02560,2.88750,-4.51500,0.00000,-0.00769,0.01586,-0.98710,2023,6,12,13,27,4,519
0.02570,2.87000,-4.65500,0.00000,-0.00854,0.01781,-0.98649,2023,6,12,13,27,4,530
0.02580,2.87000,-4.51500,0.00000,-0.00805,0.01745,-0.98491,2023,6,12,13,27,4,541
0.02590,2.78250,-4.46250,0.00000,-0.00659,0.01769,-0.98588,2023,6,12,13,27,4,552
0.02600,2.90500,-4.65500,0.00000,-0.00610,0.01769,-0.98503,2023,6,12,13,27,4,563
0.02610,2.92250,-4.72500,0.00000,-0.01000,0.01696,-0.98564,2023,6,12,13,27,4,574
0.02620,3.06250,-4.67250,0.00000,-0.00817,0.01781,-0.98649,2023,6,12,13,27,4,586
0.02630,2.83500,-4.51500,0.00000,-0.00708,0.01586,-0.98503,2023,6,12,13,27,4,597
0.02640,3.04500,-4.70750,0.00000,-0.00756,0.01830,-0.98430,2023,6,12,13,27,4,608
0.02650,2.78250,-4.58500,0.00000,-0.00952,0.01696,-0.98808,2023,6,12,13,27,4,619
0.02660,2.87000,-4.69000,0.00000,-0.00854,0.01806,-0.98564,2023,6,12,13,27,4,630
0.02670,2.94000,-4.79500,0.00000,-0.00781,0.01684,-0.98430,2023,6,12,13,27,4,641
0.02680,3.04500,-4.56750,0.00000,-0.00976,0.01903,-0.98808,2023,6,12,13,27,4,652
0.02690,2.74750,-4.48000,0.00000,-0.00891,0.01989,-0.98674,2023,6,12,13,27,4,663
0.02700,2.88750,-4.56750,0.00000,-0.00708,0.01769,-0.98600,2023,6,12,13,27,4,674
0.02710,2.90500,-4.65500,0.00000,-0.00781,0.01586,-0.98808,2023,6,12,13,27,4,686
0.02720,2.99250,-4.58500,0.00000,-0.00781,0.01879,-0.98283,2023,6,12,13,27,4,697
0.02730,2.94000,-4.76000,0.00000,-0.00939,0.01781,-0.98552,2023,6,12,13,27,4,708
0.02740,3.06250,-4.62000,0.00000,-0.00915,0.01696,-0.98771,2023,6,12,13,27,4,719
0.02750,2.92250,-4.70750,0.00000,-0.00866,0.01854,-0.98491,2023,6,12,13,27,4,730
0.02760,2.95750,-4.70750,0.00000,-0.00525,0.01818,-0.98442,2023,6,12,13,27,4,741
0.02770,2.92250,-4.56750,0.00000,-0.00610,0.01818,-0.98808,2023,6,12,13,27,4,752
0.02780,2.97500,-4.77750,0.00000,-0.00842,0.01867,-0.98613,2023,6,12,13,27,4,763
0.02790,2.99250,-4.72500,0.00000,-0.00708,0.01586,-0.98796,2023,6,12,13,27,4,774
0.02800,3.13250,-4.56750,0.00000,-0.00756,0.01818,-0.98552,2023,6,12,13,27,4,786
0.02810,2.92250,-4.72500,0.00000,-0.00781,0.01818,-0.98796,2023,6,12,13,27,4,797
0.02820,2.76500,-4.46250,0.00000,-0.00927,0.01684,-0.98771,2023,6,12,13,27,4,808
0.02830,2.85250,-4.42750,0.00000,-0.00622,0.01696,-0.98637,2023,6,12,13,27,4,819
0.02840,2.85250,-4.37500,0.00000,-0.00793,0.01903,-0.98356,2023,6,12,13,27,4,830
0.02850,2.76500,-4.70750,0.00000,-0.00720,0.01806,-0.98442,2023,6,12,13,27,4,841
0.02860,2.97500,-4.51500,0.00000,-0.00781,0.01928,-0.98710,2023,6,12,13,27,4,852
0.02870,3.08000,-4.72500,0.00000,-0.00769,0.01671,-0.98710,2023,6,12,13,27,4,863
0.02880,2.78250,-4.55000,0.00000,-0.00842,0.01793,-0.98564,2023,6,12,13,27,4,874
0.02890,2.83500,-4.63750,0.00000,-0.00878,0.02025,-0.98735,2023,6,12,13,27,4,886
0.02900,3.06250,-4.88250,0.00000,-0.00878,0.01769,-0.99015,2023,6,12,13,27,4,897
0.02910,2.71250,-4.34000,0.00000,-0.00671,0.01513,-0.98613,2023,6,12,13,27,4,908
0.02920,2.87000,-4.35750,0.00000,-0.00732,0.01635,-0.98613,2023,6,12,13,27,4,919
0.02930,2.95750,-4.63750,0.00000,-0.00744,0.01903,-0.98857,2023,6,12,13,27,4,930
0.02940,2.94000,-4.63750,0.00000,-0.00756,0.01818,-0.99235,2023,6,12,13,27,4,941
0.02950,2.85250,-4.60250,0.00000,-0.00647,0.01830,-0.98661,2023,6,12,13,27,4,952
0.02960,2.59000,-4.53250,0.00000,-0.00769,0.01745,-0.98759,2023,6,12,13,27,4,963
0.02970,2.78250,-4.62000,0.00000,-0.00854,0.01891,-0.98539,2023,6,12,13,27,5,4
0.02980,3.02750,-4.44500,0.00000,-0.00903,0.01830,-0.98698,2023,6,12,13,27,5,16
0.02990,3.01000,-4.63750,0.00000,-0.00769,0.01684,-0.98661,2023,6,12,13,27,5,27
0.03000,3.02750,-4.76000,0.00000,-0.00683,0.01757,-0.98759,2023,6,12,13,27,5,38
0.03010,2.90500,-4.62000,0.00000,-0.00964,0.01757,-0.98576,2023,6,12,13,27,5,49
0.03020,2.90500,-4.67250,0.00000,-0.00610,0.01964,-0.98735,2023,6,12,13,27,5,60
0.03030,2.87000,-4.79500,0.00000,-0.00842,0.01830,-0.98576,2023,6,12,13,27,5,71
0.03040,2.88750,-4.69000,0.00000,-0.00781,0.01806,-0.98783,2023,6,12,13,27,5,82
0.03050,2.94000,-4.69000,0.00000,-0.00732,0.01684,-0.98857,2023,6,12,13,27,5,93
0.03060,2.88750,-4.60250,0.00000,-0.00769,0.01745,-0.98478,2023,6,12,13,27,5,104
0.03070,3.04500,-4.70750,0.00000,-0.00915,0.01806,-0.98539,2023,6,12,13,27,5,116
0.03080,2.85250,-4.60250,0.00000,-0.00732,0.01635,-0.98649,2023,6,12,13,27,5,127
0.03090,2.67750,-4.60250,0.00000,-0.00756,0.01671,-0.98796,2023,6,12,13,27,5,138
0.03100,2.95750,-4.72500,0.00000,-0.00683,0.01793,-0.98503,2023,6,12,13,27,5,149
0.03110,2.97500,-4.56750,0.00000,-0.00634,0.01745,-0.98527,2023,6,12,13,27,5,160
0.03120,2.90500,-4.48000,0.00000,-0.00793,0.01940,-0.98869,2023,6,12,13,27,5,171
0.03130,2.95750,-4.60250,0.00000,-0.00903,0.01793,-0.98869,2023,6,12,13,27,5,182
0.03140,2.95750,-4.44500,0.00000,-0.00647,0.01720,-0.98844,2023,6,12,13,27,5,193
0.03150,2.78250,-4.53250,0.00000,-0.00671,0.01720,-0.98747,2023,6,12,13,27,5,204
0.03160,2.62500,-4.67250,0.00000,-0.00842,0.01647,-0.98710,2023,6,12,13,27,5,216
0.03170,3.04500,-4.74250,0.00000,-0.00891,0.01659,-0.98710,2023,6,12,13,27,5,227
0.03180,3.01000,-4.70750,0.00000,-0.00720,0.01879,-0.98649,2023,6,12,13,27,5,238
0.03190,2.83500,-4.69000,0.00000,-0.00842,0.01867,-0.98869,2023,6,12,13,27,5,249
0.03200,2.88750,-4.35750,0.00000,-0.00695,0.01830,-0.98759,2023,6,12,13,27,5,260
0.03210,3.20250,-4.58500,0.00000,-0.00610,0.01928,-0.98613,2023,6,12,13,27,5,271
0.03220,2.92250,-4.42750,0.00000,-0.00793,0.01757,-0.98417,2023,6,12,13,27,5,282
0.03230,2.87000,-4.72500,0.00000,-0.00805,0.01525,-0.98649,2023,6,12,13,27,5,293
0.03240,2.85250,-4.48000,0.00000,-0.00622,0.01696,-0.98613,2023,6,12,13,27,5,304
0.03250,2.94000,-4.62000,0.00000,-0.00744,0.01720,-0.98881,2023,6,12,13,27,5,316
0.03260,2.95750,-4.76000,0.00000,-0.00891,0.01891,-0.98674,2023,6,12,13,27,5,327
0.03270,2.87000,-4.58500,0.00000,-0.00769,0.01671,-0.98478,2023,6,12,13,27,5,338
0.03280,2.95750,-4.53250,0.00000,-0.00842,0.01842,-0.98747,2023,6,12,13,27,5,349
0.03290,3.04500,-4.63750,0.00000,-0.00732,0.01745,-0.98783,2023,6,12,13,27,5,360
0.03300,3.02750,-4.67250,0.00000,-0.00952,0.01891,-0.98649,2023,6,12,13,27,5,371
0.03310,2.97500,-4.72500,0.00000,-0.00586,0.01708,-0.98930,2023,6,12,13,27,5,382
0.03320,2.99250,-4.60250,0.00000,-0.00732,0.01671,-0.98857,2023,6,12,13,27,5,393
0.03330,2.90500,-4.55000,0.00000,-0.00939,0.01818,-0.98759,2023,6,12,13,27,5,404
0.03340,2.88750,-4.72500,0.00000,-0.01000,0.01720,-0.98637,2023,6,12,13,27,5,416
0.03350,2.95750,-4.48000,0.00000,-0.00976,0.01952,-0.98552,2023,6,12,13,27,5,427
0.03360,2.92250,-4.65500,0.00000,-0.00708,0.01696,-0.98637,2023,6,12,13,27,5,438
0.03370,2.85250,-4.55000,0.00000,-0.00634,0.01525,-0.98637,2023,6,12,13,27,5,449
0.03380,3.01000,-4.53250,0.00000,-0.00647,0.01793,-0.98552,2023,6,12,13,27,5,460
0.03390,3.01000,-4.74250,0.00000,-0.00781,0.01488,-0.98637,2023,6,12,13,27,5,471
0.03400,3.01000,-4.63750,0.00000,-0.00695,0.01769,-0.98564,2023,6,12,13,27,5,482
0.03410,2.94000,-4.62000,0.00000,-0.00695,0.01769,-0.98637,2023,6,12,13,27,5,493
0.03420,2.92250,-4.74250,0.00000,-0.00708,0.01562,-0.98796,2023,6,12,13,27,5,504
0.03430,3.15000,-4.69000,0.00000,-0.00683,0.01696,-0.98576,2023,6,12,13,27,5,516
0.03440,2.99250,-4.79500,0.00000,-0.00830,0.01671,-0.98759,2023,6,12,13,27,5,527
0.03450,2.90500,-4.41000,0.00000,-0.00732,0.01781,-0.98576,2023,6,12,13,27,5,538
0.03460,2.83500,-4.44500,0.00000,-0.00659,0.01708,-0.98808,2023,6,12,13,27,5,549
0.03470,2.97500,-4.70750,0.00000,-0.00793,0.01781,-0.98698,2023,6,12,13,27,5,560
0.03480,3.02750,-4.67250,0.00000,-0.00817,0.01671,-0.98637,2023,6,12,13,27,5,571
0.03490,3.08000,-4.69000,0.00000,-0.00610,0.01671,-0.98527,2023,6,12,13,27,5,582
0.03500,2.87000,-4.67250,0.00000,-0.00720,0.01793,-0.98661,2023,6,12,13,27,5,593
0.03510,2.81750,-4.53250,0.00000,-0.00598,0.01732,-0.98600,2023,6,12,13,27,5,604
0.03520,3.13250,-4.49750,0.00000,-0.00866,0.01940,-0.98686,2023,6,12,13,27,5,616
0.03530,3.04500,-4.69000,0.00000,-0.00671,0.01610,-0.98613,2023,6,12,13,27,5,627
0.03540,3.01000,-4.62000,0.00000,-0.00891,0.01830,-0.98735,2023,6,12,13,27,5,638
0.03550,2.87000,-4.63750,0.00000,-0.00964,0.01659,-0.98491,2023,6,12,13,27,5,649
0.03560,3.04500,-4.70750,0.00000,-0.00903,0.01586,-0.98649,2023,6,12,13,27,5,660
0.03570,3.02750,-4.63750,0.00000,-0.00720,0.01903,-0.98820,2023,6,12,13,27,5,671
0.03580,2.90500,-4.53250,0.00000,-0.00634,0.01586,-0.98637,2023,6,12,13,27,5,682
0.03590,2.92250,-4.58500,0.00000,-0.00732,0.01671,-0.98600,2023,6,12,13,27,5,693
0.03600,2.85250,-4.67250,0.00000,-0.00732,0.01769,-0.98454,2023,6,12,13,27,5,704
0.03610,2.80000,-4.67250,0.00000,-0.00720,0.01598,-0.98783,2023,6,12,13,27,5,716
0.03620,2.92250,-4.35750,0.00000,-0.00671,0.01549,-0.98954,2023,6,12,13,27,5,727
0.03630,3.01000,-4.63750,0.00000,-0.00756,0.01623,-0.98552,2023,6,12,13,27,5,738
0.03640,3.06250,-4.44500,0.00000,-0.00732,0.01793,-0.98942,2023,6,12,13,27,5,749
0.03650,2.83500,-4.69000,0.00000,-0.00805,0.01501,-0.98808,2023,6,12,13,27,5,760
0.03660,3.09750,-4.62000,0.00000,-0.00732,0.01964,-0.98979,2023,6,12,13,27,5,771
0.03670,3.09750,-4.48000,0.00000,-0.00769,0.01598,-0.98808,2023,6,12,13,27,5,782
0.03680,2.87000,-4.63750,0.00000,-0.00830,0.01562,-0.98747,2023,6,12,13,27,5,793
0.03690,2.94000,-4.44500,0.00000,-0.00891,0.01647,-0.98820,2023,6,12,13,27,5,804
0.03700,2.92250,-4.58500,0.00000,-0.00781,0.01867,-0.98588,2023,6,12,13,27,5,816
0.03710,2.90500,-4.48000,0.00000,-0.00854,0.01684,-0.98808,2023,6,12,13,27,5,827
0.03720,2.80000,-4.49750,0.00000,-0.00732,0.02050,-0.98857,2023,6,12,13,27,5,838
0.03730,2.97500,-4.60250,0.00000,-0.00744,0.01976,-0.98869,2023,6,12,13,27,5,849
0.03740,2.85250,-4.67250,0.00000,-0.00781,0.01684,-0.98869,2023,6,12,13,27,5,860
0.03750,2.95750,-4.44500,0.00000,-0.00891,0.01781,-0.98564,2023,6,12,13,27,5,871
0.03760,2.87000,-4.62000,0.00000,-0.00878,0.01793,-0.98515,2023,6,12,13,27,5,882
0.03770,2.90500,-4.65500,0.00000,-0.00842,0.01745,-0.98600,2023,6,12,13,27,5,893
0.03780,3.02750,-4.58500,0.00000,-0.00781,0.01684,-0.98808,2023,6,12,13,27,5,904
0.03790,2.94000,-4.63750,0.00000,-0.00659,0.01915,-0.98771,2023,6,12,13,27,5,916
0.03800,2.83500,-4.67250,0.00000,-0.00671,0.01537,-0.99003,2023,6,12,13,27,5,927
0.03810,2.81750,-4.70750,0.00000,-0.00671,0.01793,-0.98771,2023,6,12,13,27,5,938
0.03820,2.87000,-4.51500,0.00000,-0.00756,0.01793,-0.98844,2023,6,12,13,27,5,949
0.03830,3.09750,-4.55000,0.00000,-0.00805,0.01842,-0.98613,2023,6,12,13,27,5,960
0.03840,2.90500,-4.79500,0.00000,-0.01025,0.01757,-0.98796,2023,6,12,13,27,5,971
0.03850,3.09750,-4.60250,0.00000,-0.00964,0.01793,-0.98722,2023,6,12,13,27,6,2
0.03860,2.95750,-4.46250,0.00000,-0.00720,0.01793,-0.98600,2023,6,12,13,27,6,13
0.03870,2.92250,-4.63750,0.00000,-0.00708,0.01793,-0.98735,2023,6,12,13,27,6,24
0.03880,2.94000,-4.79500,0.00000,-0.00695,0.01793,-0.98905,2023,6,12,13,27,6,36
0.03890,2.94000,-4.46250,0.00000,-0.00683,0.01635,-0.98869,2023,6,12,13,27,6,47
0.03900,2.94000,-4.60250,0.00000,-0.00695,0.01586,-0.98661,2023,6,12,13,27,6,58
0.03910,2.95750,-4.44500,0.00000,-0.00671,0.01647,-0.98600,2023,6,12,13,27,6,69
0.03920,2.94000,-4.70750,0.00000,-0.00720,0.01647,-0.98783,2023,6,12,13,27,6,80
0.03930,3.02750,-4.69000,0.00000,-0.00866,0.01867,-0.98649,2023,6,12,13,27,6,91
0.03940,2.92250,-4.60250,0.00000,-0.00732,0.01488,-0.98869,2023,6,12,13,27,6,102
0.03950,3.09750,-4.53250,0.00000,-0.01013,0.01586,-0.98954,2023,6,12,13,27,6,113
0.03960,2.92250,-4.84750,0.00000,-0.00866,0.01806,-0.98942,2023,6,12,13,27,6,124
0.03970,3.13250,-4.67250,0.00000,-0.00744,0.01598,-0.98735,2023,6,12,13,27,6,136
0.03980,3.09750,-4.58500,0.00000,-0.00805,0.01696,-0.98918,2023,6,12,13,27,6,147
0.03990,3.01000,-4.60250,0.00000,-0.00732,0.01781,-0.98588,2023,6,12,13,27,6,158
0.04000,3.09750,-4.56750,0.00000,-0.00952,0.01757,-0.98747,2023,6,12,13,27,6,169
0.04010,3.06250,-4.41000,0.00000,-0.00793,0.01781,-0.98857,2023,6,12,13,27,6,180
0.04020,3.11500,-4.60250,0.00000,-0.00610,0.01867,-0.98881,2023,6,12,13,27,6,191
0.04030,2.83500,-4.70750,0.00000,-0.00769,0.01854,-0.98771,2023,6,12,13,27,6,202
0.04040,2.92250,-4.46250,0.00000,-0.00866,0.01549,-0.98539,2023,6,12,13,27,6,213
0.04050,2.85250,-4.74250,0.00000,-0.00915,0.01842,-0.98576,2023,6,12,13,27,6,224
0.04060,2.81750,-4.58500,0.00000,-0.00720,0.01684,-0.98637,2023,6,12,13,27,6,236
0.04070,2.78250,-4.32250,0.00000,-0.00683,0.01708,-0.98576,2023,6,12,13,27,6,247
0.04080,2.85250,-4.37500,0.00000,-0.00817,0.01720,-0.99064,2023,6,12,13,27,6,258
0.04090,3.01000,-4.58500,0.00000,-0.01000,0.01769,-0.98588,2023,6,12,13,27,6,269
0.04100,2.81750,-4.76000,0.00000,-0.00781,0.01610,-0.98991,2023,6,12,13,27,6,280
0.04110,2.95750,-4.62000,0.00000,-0.00769,0.01757,-0.98747,2023,6,12,13,27,6,291
0.04120,3.01000,-4.55000,0.00000,-0.00756,0.01732,-0.98808,2023,6,12,13,27,6,302
0.04130,2.80000,-4.48000,0.00000,-0.00891,0.01952,-0.98832,2023,6,12,13,27,6,313
0.04140,3.08000,-4.74250,0.00000,-0.00720,0.01708,-0.98820,2023,6,12,13,27,6,324
0.04150,3.13250,-4.62000,0.00000,-0.00878,0.01793,-0.98942,2023,6,12,13,27,6,336
0.04160,2.97500,-4.60250,0.00000,-0.00866,0.01867,-0.99003,2023,6,12,13,27,6,347
0.04170,3.02750,-4.67250,0.00000,-0.00695,0.01671,-0.98722,2023,6,12,13,27,6,358
0.04180,2.94000,-4.48000,0.00000,-0.00756,0.01867,-0.98771,2023,6,12,13,27,6,369
0.04190,3.08000,-4.60250,0.00000,-0.00647,0.01806,-0.98759,2023,6,12,13,27,6,380
0.04200,2.90500,-4.60250,0.00000,-0.01098,0.01720,-0.98808,2023,6,12,13,27,6,391
0.04210,3.08000,-4.46250,0.00000,-0.00830,0.01708,-0.99015,2023,6,12,13,27,6,402
0.04220,2.80000,-4.41000,0.00000,-0.00647,0.01623,-0.98942,2023,6,12,13,27,6,413
0.04230,2.97500,-4.63750,0.00000,-0.00756,0.01757,-0.98954,2023,6,12,13,27,6,424
0.04240,2.87000,-4.51500,0.00000,-0.00830,0.01903,-0.98869,2023,6,12,13,27,6,436
0.04250,2.73000,-4.37500,0.00000,-0.00976,0.01708,-0.98637,2023,6,12,13,27,6,447
0.04260,2.80000,-4.58500,0.00000,-0.00683,0.01720,-0.98539,2023,6,12,13,27,6,458
0.04270,2.83500,-4.42750,0.00000,-0.00769,0.01647,-0.98808,2023,6,12,13,27,6,469
0.04280,2.81750,-4.53250,0.00000,-0.00793,0.01708,-0.98686,2023,6,12,13,27,6,480
0.04290,2.94000,-4.56750,0.00000,-0.00683,0.01537,-0.98796,2023,6,12,13,27,6,491
0.04300,2.87000,-4.70750,0.00000,-0.00842,0.01879,-0.98649,2023,6,12,13,27,6,502
0.04310,2.99250,-4.62000,0.00000,-0.00866,0.01598,-0.98930,2023,6,12,13,27,6,513
0.04320,2.95750,-4.46250,0.00000,-0.00878,0.01842,-0.99015,2023,6,12,13,27,6,524
0.04330,2.99250,-4.48000,0.00000,-0.00988,0.01830,-0.98808,2023,6,12,13,27,6,536
0.04340,3.02750,-4.62000,0.00000,-0.01013,0.01732,-0.98857,2023,6,12,13,27,6,547
0.04350,3.01000,-4.81250,0.00000,-0.00842,0.01830,-0.98686,2023,6,12,13,27,6,558
0.04360,2.94000,-4.55000,0.00000,-0.00622,0.02025,-0.98759,2023,6,12,13,27,6,569
0.04370,3.01000,-4.74250,0.00000,-0.00708,0.01818,-0.98930,2023,6,12,13,27,6,580
0.04380,2.97500,-4.60250,0.00000,-0.00634,0.01818,-0.98808,2023,6,12,13,27,6,591
0.04390,2.87000,-4.69000,0.00000,-0.00830,0.01745,-0.98686,2023,6,12,13,27,6,602
0.04400,2.92250,-4.49750,0.00000,-0.00756,0.01903,-0.98844,2023,6,12,13,27,6,613
0.04410,2.76500,-4.70750,0.00000,-0.00842,0.01891,-0.99003,2023,6,12,13,27,6,624
0.04420,2.88750,-4.53250,0.00000,-0.00866,0.02001,-0.98686,2023,6,12,13,27,6,636
0.04430,2.80000,-4.62000,0.00000,-0.00647,0.01867,-0.98820,2023,6,12,13,27,6,647
0.04440,2.90500,-4.72500,0.00000,-0.00903,0.01793,-0.98686,2023,6,12,13,27,6,658
0.04450,2.80000,-4.70750,0.00000,-0.00720,0.01830,-0.98796,2023,6,12,13,27,6,669
0.04460,2.78250,-4.30500,0.00000,-0.00769,0.02001,-0.99015,2023,6,12,13,27,6,680
0.04470,2.88750,-4.74250,0.00000,-0.00805,0.01818,-0.99003,2023,6,12,13,27,6,691
0.04480,3.01000,-4.67250,0.00000,-0.00647,0.01732,-0.98576,2023,6,12,13,27,6,702
0.04490,2.90500,-4.41000,0.00000,-0.00903,0.01720,-0.98771,2023,6,12,13,27,6,713
0.04500,3.01000,-4.69000,0.00000,-0.00732,0.01671,-0.98832,2023,6,12,13,27,6,724
0.04510,2.85250,-4.74250,0.00000,-0.00891,0.01818,-0.98820,2023,6,12,13,27,6,736
0.04520,3.02750,-4.72500,0.00000,-0.00671,0.01671,-0.98905,2023,6,12,13,27,6,747
0.04530,2.88750,-4.42750,0.00000,-0.00805,0.01659,-0.98588,2023,6,12,13,27,6,758
0.04540,2.92250,-4.58500,0.00000,-0.00561,0.01903,-0.98942,2023,6,12,13,27,6,769
0.04550,2.71250,-4.65500,0.00000,-0.00720,0.01549,-0.99064,2023,6,12,13,27,6,780
0.04560,2.73000,-4.74250,0.00000,-0.00891,0.01867,-0.98808,2023,6,12,13,27,6,791
0.04570,3.04500,-4.63750,0.00000,-0.00830,0.01757,-0.98661,2023,6,12,13,27,6,802
0.04580,2.88750,-4.39250,0.00000,-0.01025,0.01769,-0.98674,2023,6,12,13,27,6,813
0.04590,2.80000,-4.30500,0.00000,-0.00634,0.01684,-0.98552,2023,6,12,13,27,6,824
0.04600,2.92250,-4.44500,0.00000,-0.00854,0.01854,-0.99101,2023,6,12,13,27,6,836
0.04610,2.95750,-4.58500,0.00000,-0.00781,0.01879,-0.98649,2023,6,12,13,27,6,847
0.04620,2.92250,-4.49750,0.00000,-0.00744,0.01830,-0.98796,2023,6,12,13,27,6,858
0.04630,2.94000,-4.65500,0.00000,-0.00695,0.01781,-0.98735,2023,6,12,13,27,6,869
0.04640,3.01000,-4.63750,0.00000,-0.00976,0.01769,-0.98649,2023,6,12,13,27,6,880
0.04650,2.97500,-4.65500,0.00000,-0.00769,0.01684,-0.98747,2023,6,12,13,27,6,891
0.04660,2.81750,-4.48000,0.00000,-0.00830,0.01647,-0.98735,2023,6,12,13,27,6,902
0.04670,2.85250,-4.37500,0.00000,-0.00781,0.01598,-0.98552,2023,6,12,13,27,6,913
0.04680,2.95750,-4.63750,0.00000,-0.00903,0.01830,-0.98844,2023,6,12,13,27,6,924
0.04690,2.95750,-4.72500,0.00000,-0.00842,0.01781,-0.98857,2023,6,12,13,27,6,936
0.04700,2.92250,-4.46250,0.00000,-0.00891,0.01732,-0.98747,2023,6,12,13,27,6,947
0.04710,2.95750,-4.65500,0.00000,-0.00805,0.01720,-0.98796,2023,6,12,13,27,6,958
0.04720,2.99250,-4.74250,0.00000,-0.00927,0.01830,-0.98869,2023,6,12,13,27,7,9
0.04730,3.01000,-4.58500,0.00000,-0.00903,0.01684,-0.98710,2023,6,12,13,27,7,20
0.04740,3.06250,-4.53250,0.00000,-0.00927,0.02037,-0.98674,2023,6,12,13,27,7,31
0.04750,2.95750,-4.74250,0.00000,-0.00695,0.01647,-0.98686,2023,6,12,13,27,7,42
0.04760,2.87000,-4.60250,0.00000,-0.00805,0.01696,-0.99101,2023,6,12,13,27,7,53
0.04770,2.92250,-4.63750,0.00000,-0.00903,0.01598,-0.99101,2023,6,12,13,27,7,64
0.04780,3.04500,-4.51500,0.00000,-0.00805,0.01684,-0.98771,2023,6,12,13,27,7,76
0.04790,2.95750,-4.62000,0.00000,-0.00866,0.01976,-0.98881,2023,6,12,13,27,7,87
0.04800,2.94000,-4.46250,0.00000,-0.00671,0.01732,-0.98881,2023,6,12,13,27,7,98
0.04810,2.87000,-4.51500,0.00000,-0.00720,0.01696,-0.98942,2023,6,12,13,27,7,109
0.04820,2.73000,-4.70750,0.00000,-0.00952,0.01818,-0.99027,2023,6,12,13,27,7,120
0.04830,2.94000,-4.74250,0.00000,-0.00927,0.01427,-0.98918,2023,6,12,13,27,7,131
0.04840,2.99250,-4.79500,0.00000,-0.00939,0.01842,-0.98747,2023,6,12,13,27,7,142
0.04850,2.95750,-4.53250,0.00000,-0.00622,0.01720,-0.98722,2023,6,12,13,27,7,153
0.04860,3.02750,-4.60250,0.00000,-0.00598,0.01769,-0.98686,2023,6,12,13,27,7,164
0.04870,2.90500,-4.67250,0.00000,-0.00622,0.01818,-0.98857,2023,6,12,13,27,7,176
0.04880,3.25500,-4.65500,0.00000,-0.00744,0.01720,-0.98735,2023,6,12,13,27,7,187
0.04890,2.78250,-4.63750,0.00000,-0.00671,0.01635,-0.98588,2023,6,12,13,27,7,198
0.04900,3.01000,-4.63750,0.00000,-0.00769,0.01476,-0.98966,2023,6,12,13,27,7,209
0.04910,2.83500,-4.77750,0.00000,-0.00781,0.01623,-0.98674,2023,6,12,13,27,7,220
0.04920,2.92250,-4.70750,0.00000,-0.00878,0.01647,-0.98710,2023,6,12,13,27,7,231
0.04930,2.97500,-4.46250,0.00000,-0.00634,0.01610,-0.98857,2023,6,12,13,27,7,242
0.04940,3.06250,-4.55000,0.00000,-0.00891,0.01708,-0.98503,2023,6,12,13,27,7,253
0.04950,2.73000,-4.46250,0.00000,-0.00878,0.01769,-0.98735,2023,6,12,13,27,7,264
0.04960,3.04500,-4.49750,0.00000,-0.00891,0.01891,-0.98600,2023,6,12,13,27,7,276
0.04970,3.01000,-4.49750,0.00000,-0.01025,0.01598,-0.98783,2023,6,12,13,27,7,287
0.04980,3.11500,-4.56750,0.00000,-0.00573,0.01867,-0.98661,2023,6,12,13,27,7,298
0.04990,2.97500,-4.69000,0.00000,-0.00854,0.01964,-0.98808,2023,6,12,13,27,7,309
0.05000,2.94000,-4.69000,0.00000,-0.00756,0.01745,-0.98747,2023,6,12,13,27,7,320
0.05010,3.01000,-4.72500,0.00000,-0.00744,0.01720,-0.98881,2023,6,12,13,27,7,331
0.05020,2.94000,-4.48000,0.00000,-0.00842,0.01842,-0.98930,2023,6,12,13,27,7,342
0.05030,2.88750,-4.69000,0.00000,-0.00756,0.01720,-0.98735,2023,6,12,13,27,7,353
0.05040,2.95750,-4.55000,0.00000,-0.00732,0.01684,-0.98466,2023,6,12,13,27,7,364
0.05050,2.95750,-4.70750,0.00000,-0.00939,0.01696,-0.98747,2023,6,12,13,27,7,376
0.05060,3.09750,-4.55000,0.00000,-0.00659,0.01732,-0.98759,2023,6,12,13,27,7,387
0.05070,2.80000,-4.51500,0.00000,-0.00781,0.01854,-0.98759,2023,6,12,13,27,7,398
0.05080,3.15000,-4.69000,0.00000,-0.00830,0.01659,-0.98942,2023,6,12,13,27,7,409
0.05090,2.76500,-4.65500,0.00000,-0.00671,0.01806,-0.98698,2023,6,12,13,27,7,420
0.05100,2.95750,-4.44500,0.00000,-0.00659,0.01647,-0.98491,2023,6,12,13,27,7,431
0.05110,2.90500,-4.67250,0.00000,-0.00805,0.01684,-0.98844,2023,6,12,13,27,7,442
0.05120,2.97500,-4.70750,0.00000,-0.00671,0.01635,-0.98576,2023,6,12,13,27,7,453
0.05130,3.15000,-4.88250,0.00000,-0.00634,0.01745,-0.98722,2023,6,12,13,27,7,464
0.05140,2.94000,-4.63750,0.00000,-0.00915,0.01720,-0.98539,2023,6,12,13,27,7,476
0.05150,3.02750,-4.60250,0.00000,-0.00927,0.01769,-0.98905,2023,6,12,13,27,7,487
0.05160,2.87000,-4.51500,0.00000,-0.00720,0.01732,-0.98905,2023,6,12,13,27,7,498
0.05170,2.99250,-4.60250,0.00000,-0.01013,0.01793,-0.98759,2023,6,12,13,27,7,509
0.05180,2.85250,-4.51500,0.00000,-0.00769,0.01708,-0.99003,2023,6,12,13,27,7,520
0.05190,2.95750,-4.83000,0.00000,-0.00720,0.01708,-0.99149,2023,6,12,13,27,7,531
0.05200,2.88750,-4.63750,0.00000,-0.01025,0.01854,-0.98698,2023,6,12,13,27,7,542
0.05210,2.85250,-4.46250,0.00000,-0.00781,0.01623,-0.98820,2023,6,12,13,27,7,553
0.05220,3.11500,-4.69000,0.00000,-0.00732,0.01501,-0.98832,2023,6,12,13,27,7,564
0.05230,2.90500,-4.63750,0.00000,-0.00939,0.01732,-0.99101,2023,6,12,13,27,7,576
0.05240,2.85250,-4.65500,0.00000,-0.00805,0.01574,-0.99064,2023,6,12,13,27,7,587
0.05250,3.06250,-4.65500,0.00000,-0.00817,0.01720,-0.98515,2023,6,12,13,27,7,598
0.05260,2.92250,-4.62000,0.00000,-0.00634,0.01659,-0.98613,2023,6,12,13,27,7,609
0.05270,2.95750,-4.79500,0.00000,-0.01000,0.01854,-0.98417,2023,6,12,13,27,7,620
0.05280,2.92250,-4.53250,0.00000,-0.00805,0.01769,-0.98930,2023,6,12,13,27,7,631
0.05290,2.85250,-4.62000,0.00000,-0.00915,0.01769,-0.98869,2023,6,12,13,27,7,642
0.05300,2.94000,-4.53250,0.00000,-0.00732,0.01964,-0.98722,2023,6,12,13,27,7,653
0.05310,3.08000,-4.69000,0.00000,-0.00695,0.01720,-0.98942,2023,6,12,13,27,7,664
0.05320,2.83500,-4.65500,0.00000,-0.00891,0.01537,-0.99088,2023,6,12,13,27,7,676
0.05330,2.95750,-4.46250,0.00000,-0.00866,0.01696,-0.98771,2023,6,12,13,27,7,687
0.05340,2.99250,-4.81250,0.00000,-0.00878,0.01745,-0.98832,2023,6,12,13,27,7,698
0.05350,2.95750,-4.44500,0.00000,-0.00769,0.01696,-0.98722,2023,6,12,13,27,7,709
0.05360,3.08000,-4.70750,0.00000,-0.00842,0.01964,-0.98783,2023,6,12,13,27,7,720
0.05370,2.85250,-4.56750,0.00000,-0.00781,0.01818,-0.98637,2023,6,12,13,27,7,731
0.05380,2.94000,-4.46250,0.00000,-0.00805,0.01684,-0.98747,2023,6,12,13,27,7,742
0.05390,2.97500,-4.69000,0.00000,-0.00732,0.01684,-0.98661,2023,6,12,13,27,7,753
0.05400,3.13250,-4.67250,0.00000,-0.00610,0.01891,-0.98588,2023,6,12,13,27,7,764
0.05410,2.99250,-4.55000,0.00000,-0.00732,0.01745,-0.98783,2023,6,12,13,27,7,776
0.05420,2.90500,-4.37500,0.00000,-0.00842,0.01647,-0.98966,2023,6,12,13,27,7,787
0.05430,2.92250,-4.60250,0.00000,-0.00744,0.01720,-0.98808,2023,6,12,13,27,7,798
0.05440,2.76500,-4.69000,0.00000,-0.00708,0.01879,-0.98674,2023,6,12,13,27,7,809
0.05450,2.92250,-4.72500,0.00000,-0.00781,0.01720,-0.98625,2023,6,12,13,27,7,820
0.05460,2.90500,-4.77750,0.00000,-0.00805,0.01684,-0.98796,2023,6,12,13,27,7,831
0.05470,2.87000,-4.53250,0.00000,-0.00769,0.01574,-0.98381,2023,6,12,13,27,7,842
0.05480,3.06250,-4.55000,0.00000,-0.00781,0.01757,-0.98759,2023,6,12,13,27,7,853
0.05490,2.97500,-4.53250,0.00000,-0.01013,0.01464,-0.98710,2023,6,12,13,27,7,864
0.05500,3.02750,-4.69000,0.00000,-0.00744,0.01842,-0.98759,2023,6,12,13,27,7,876
0.05510,2.97500,-4.72500,0.00000,-0.00744,0.01879,-0.98735,2023,6,12,13,27,7,887
0.05520,2.85250,-4.72500,0.00000,-0.00805,0.01952,-0.98808,2023,6,12,13,27,7,898
0.05530,3.11500,-4.83000,0.00000,-0.00842,0.01781,-0.98735,2023,6,12,13,27,7,909
0.05540,2.94000,-4.49750,0.00000,-0.00598,0.01781,-0.98539,2023,6,12,13,27,7,920
0.05550,2.88750,-4.39250,0.00000,-0.01000,0.01635,-0.98649,2023,6,12,13,27,7,931
0.05560,3.01000,-4.60250,0.00000,-0.00878,0.01854,-0.98747,2023,6,12,13,27,7,942
0.05570,2.97500,-4.48000,0.00000,-0.00769,0.01745,-0.98796,2023,6,12,13,27,7,953
0.05580,2.83500,-4.77750,0.00000,-0.01061,0.01891,-0.98844,2023,6,12,13,27,7,964
0.05590,2.97500,-4.74250,0.00000,-0.00927,0.01915,-0.98637,2023,6,12,13,27,7,976
0.05600,3.09750,-4.58500,0.00000,-0.00830,0.01964,-0.98649,2023,6,12,13,27,8,7
0.05610,2.74750,-4.62000,0.00000,-0.00720,0.01537,-0.98588,2023,6,12,13,27,8,18
0.05620,2.97500,-4.56750,0.00000,-0.00781,0.01659,-0.98637,2023,6,12,13,27,8,29
0.05630,2.94000,-4.53250,0.00000,-0.00708,0.01635,-0.99186,2023,6,12,13,27,8,40
0.05640,2.95750,-4.72500,0.00000,-0.00647,0.01806,-0.98442,2023,6,12,13,27,8,51
0.05650,2.94000,-4.83000,0.00000,-0.00976,0.01867,-0.98905,2023,6,12,13,27,8,62
0.05660,2.97500,-4.79500,0.00000,-0.00915,0.01623,-0.98613,2023,6,12,13,27,8,73
0.05670,3.06250,-4.81250,0.00000,-0.00732,0.01769,-0.98576,2023,6,12,13,27,8,84
0.05680,3.01000,-4.62000,0.00000,-0.00842,0.01867,-0.98832,2023,6,12,13,27,8,96
0.05690,2.97500,-4.88250,0.00000,-0.00878,0.01915,-0.98869,2023,6,12,13,27,8,107
0.05700,2.73000,-4.62000,0.00000,-0.00854,0.01757,-0.98979,2023,6,12,13,27,8,118
0.05710,2.99250,-4.63750,0.00000,-0.00891,0.01879,-0.98637,2023,6,12,13,27,8,129
0.05720,3.11500,-4.70750,0.00000,-0.00622,0.01915,-0.98893,2023,6,12,13,27,8,140
0.05730,2.95750,-4.39250,0.00000,-0.00878,0.01976,-0.98771,2023,6,12,13,27,8,151
0.05740,2.94000,-4.79500,0.00000,-0.00817,0.01720,-0.98674,2023,6,12,13,27,8,162
0.05750,3.04500,-4.62000,0.00000,-0.00915,0.01793,-0.98759,2023,6,12,13,27,8,173
0.05760,2.66000,-4.42750,0.00000,-0.00695,0.01842,-0.98954,2023,6,12,13,27,8,184
0.05770,2.87000,-4.74250,0.00000,-0.00732,0.01696,-0.98747,2023,6,12,13,27,8,196
0.05780,2.99250,-4.74250,0.00000,-0.00842,0.02013,-0.98588,2023,6,12,13,27,8,207
0.05790,3.08000,-4.67250,0.00000,-0.00878,0.01964,-0.98674,2023,6,12,13,27,8,218
0.05800,2.76500,-4.55000,0.00000,-0.00769,0.01659,-0.98820,2023,6,12,13,27,8,229
0.05810,2.99250,-4.63750,0.00000,-0.00598,0.01806,-0.98735,2023,6,12,13,27,8,240
0.05820,2.85250,-4.60250,0.00000,-0.00866,0.01745,-0.98625,2023,6,12,13,27,8,251
0.05830,3.01000,-4.72500,0.00000,-0.00854,0.01793,-0.98747,2023,6,12,13,27,8,262
0.05840,2.85250,-4.44500,0.00000,-0.00756,0.01635,-0.98966,2023,6,12,13,27,8,273
0.05850,2.88750,-4.67250,0.00000,-0.00744,0.01891,-0.98979,2023,6,12,13,27,8,284
0.05860,2.90500,-4.46250,0.00000,-0.00708,0.01476,-0.98832,2023,6,12,13,27,8,296
0.05870,2.80000,-4.55000,0.00000,-0.00830,0.01769,-0.98796,2023,6,12,13,27,8,307
0.05880,3.09750,-4.72500,0.00000,-0.00915,0.01671,-0.98649,2023,6,12,13,27,8,318
0.05890,3.01000,-4.53250,0.00000,-0.00915,0.01647,-0.98710,2023,6,12,13,27,8,329
0.05900,2.69500,-4.62000,0.00000,-0.00793,0.01818,-0.98930,2023,6,12,13,27,8,340
0.05910,2.92250,-4.58500,0.00000,-0.00659,0.01659,-0.99088,2023,6,12,13,27,8,351
0.05920,2.92250,-4.56750,0.00000,-0.00805,0.01671,-0.98783,2023,6,12,13,27,8,362
0.05930,2.94000,-4.65500,0.00000,-0.00781,0.01830,-0.98625,2023,6,12,13,27,8,373
0.05940,2.97500,-4.58500,0.00000,-0.00793,0.01842,-0.98747,2023,6,12,13,27,8,384
0.05950,2.85250,-4.55000,0.00000,-0.00842,0.01745,-0.98857,2023,6,12,13,27,8,396
0.05960,2.83500,-4.60250,0.00000,-0.00903,0.01757,-0.98539,2023,6,12,13,27,8,407
0.05970,2.85250,-4.49750,0.00000,-0.00756,0.01598,-0.98649,2023,6,12,13,27,8,418
0.05980,2.83500,-4.55000,0.00000,-0.00939,0.01806,-0.98637,2023,6,12,13,27,8,429
0.05990,2.94000,-4.62000,0.00000,-0.00732,0.01964,-0.98954,2023,6,12,13,27,8,440
0.06000,2.87000,-4.62000,0.00000,-0.00708,0.01842,-0.98747,2023,6,12,13,27,8,451
0.06010,3.04500,-4.65500,0.00000,-0.00708,0.01562,-0.98600,2023,6,12,13,27,8,462
0.06020,3.01000,-4.72500,0.00000,-0.00842,0.01671,-0.98539,2023,6,12,13,27,8,473
0.06030,2.87000,-4.72500,0.00000,-0.00744,0.01769,-0.98613,2023,6,12,13,27,8,484
0.06040,2.83500,-4.48000,0.00000,-0.00903,0.01684,-0.98796,2023,6,12,13,27,8,496
0.06050,3.04500,-4.88250,0.00000,-0.00634,0.01647,-0.98564,2023,6,12,13,27,8,507
0.06060,3.04500,-4.58500,0.00000,-0.00756,0.01781,-0.98710,2023,6,12,13,27,8,518
0.06070,2.92250,-4.84750,0.00000,-0.00830,0.01720,-0.98893,2023,6,12,13,27,8,529
0.06080,2.81750,-4.58500,0.00000,-0.00659,0.01732,-0.98844,2023,6,12,13,27,8,540
0.06090,2.97500,-4.62000,0.00000,-0.00866,0.01806,-0.98503,2023,6,12,13,27,8,551
0.06100,2.92250,-4.53250,0.00000,-0.00683,0.01684,-0.98552,2023,6,12,13,27,8,562
0.06110,2.88750,-4.51500,0.00000,-0.00708,0.01732,-0.98844,2023,6,12,13,27,8,573
0.06120,2.87000,-4.51500,0.00000,-0.00903,0.01940,-0.98857,2023,6,12,13,27,8,584
0.06130,2.95750,-4.37500,0.00000,-0.00854,0.01806,-0.98478,2023,6,12,13,27,8,596
0.06140,2.94000,-4.77750,0.00000,-0.00866,0.01745,-0.98698,2023,6,12,13,27,8,607
0.06150,2.92250,-4.69000,0.00000,-0.00732,0.01684,-0.98771,2023,6,12,13,27,8,618
0.06160,2.87000,-4.46250,0.00000,-0.00695,0.01806,-0.98905,2023,6,12,13,27,8,629
0.06170,2.97500,-4.62000,0.00000,-0.00830,0.01720,-0.98771,2023,6,12,13,27,8,640
0.06180,2.74750,-4.53250,0.00000,-0.00817,0.01647,-0.98857,2023,6,12,13,27,8,651
0.06190,2.94000,-4.67250,0.00000,-0.00939,0.01745,-0.98735,2023,6,12,13,27,8,662
0.06200,2.97500,-4.76000,0.00000,-0.00732,0.01818,-0.99076,2023,6,12,13,27,8,673
0.06210,2.99250,-4.65500,0.00000,-0.00891,0.01732,-0.98759,2023,6,12,13,27,8,684
0.06220,2.71250,-4.70750,0.00000,-0.00805,0.01806,-0.98918,2023,6,12,13,27,8,696
0.06230,2.80000,-4.53250,0.00000,-0.00830,0.02037,-0.98698,2023,6,12,13,27,8,707
0.06240,2.80000,-4.48000,0.00000,-0.00939,0.01854,-0.98759,2023,6,12,13,27,8,718
0.06250,2.94000,-4.51500,0.00000,-0.00854,0.01830,-0.98808,2023,6,12,13,27,8,729
0.06260,2.87000,-4.76000,0.00000,-0.00622,0.01842,-0.98722,2023,6,12,13,27,8,740
0.06270,3.04500,-4.63750,0.00000,-0.00671,0.01769,-0.98503,2023,6,12,13,27,8,751
0.06280,2.78250,-4.63750,0.00000,-0.00695,0.01720,-0.98735,2023,6,12,13,27,8,762
0.06290,2.99250,-4.60250,0.00000,-0.00622,0.01720,-0.98918,2023,6,12,13,27,8,773
0.06300,2.73000,-4.55000,0.00000,-0.00903,0.01732,-0.98698,2023,6,12,13,27,8,784
0.06310,2.73000,-4.56750,0.00000,-0.01061,0.01671,-0.98869,2023,6,12,13,27,8,796
0.06320,3.08000,-4.74250,0.00000,-0.00720,0.01745,-0.98991,2023,6,12,13,27,8,807
0.06330,2.99250,-4.72500,0.00000,-0.00708,0.01879,-0.98710,2023,6,12,13,27,8,818
0.06340,3.02750,-4.63750,0.00000,-0.00634,0.01635,-0.98613,2023,6,12,13,27,8,829
0.06350,2.81750,-4.67250,0.00000,-0.00793,0.01903,-0.98637,2023,6,12,13,27,8,840
0.06360,2.73000,-4.44500,0.00000,-0.00598,0.01732,-0.98710,2023,6,12,13,27,8,851
0.06370,2.94000,-4.60250,0.00000,-0.00622,0.01915,-0.98771,2023,6,12,13,27,8,862
0.06380,2.87000,-4.58500,0.00000,-0.00805,0.01830,-0.98698,2023,6,12,13,27,8,873
0.06390,2.94000,-4.55000,0.00000,-0.00708,0.01830,-0.98735,2023,6,12,13,27,8,884
0.06400,2.80000,-4.62000,0.00000,-0.00671,0.01757,-0.98515,2023,6,12,13,27,8,896
0.06410,2.76500,-4.55000,0.00000,-0.00842,0.01806,-0.98966,2023,6,12,13,27,8,907
0.06420,2.97500,-4.63750,0.00000,-0.00695,0.01757,-0.98796,2023,6,12,13,27,8,918
0.06430,3.01000,-4.77750,0.00000,-0.00781,0.01781,-0.98918,2023,6,12,13,27,8,929
0.06440,3.06250,-4.53250,0.00000,-0.00842,0.01647,-0.99015,2023,6,12,13,27,8,940
0.06450,3.06250,-4.65500,0.00000,-0.00720,0.01745,-0.98466,2023,6,12,13,27,8,951
0.06460,2.76500,-4.63750,0.00000,-0.00854,0.01684,-0.98881,2023,6,12,13,27,8,962
0.06470,2.71250,-4.56750,0.00000,-0.00878,0.01781,-0.98722,2023,6,12,13,27,9,3
0.06480,2.83500,-4.60250,0.00000,-0.00842,0.01525,-0.98820,2023,6,12,13,27,9,14
0.06490,2.85250,-4.63750,0.00000,-0.00793,0.01952,-0.98625,2023,6,12,13,27,9,26
0.06500,2.83500,-4.41000,0.00000,-0.00744,0.01623,-0.98637,2023,6,12,13,27,9,37
0.06510,3.01000,-4.58500,0.00000,-0.00842,0.01708,-0.98674,2023,6,12,13,27,9,48
0.06520,2.94000,-4.65500,0.00000,-0.00952,0.01720,-0.98710,2023,6,12,13,27,9,59
0.06530,2.87000,-4.48000,0.00000,-0.00781,0.01684,-0.99113,2023,6,12,13,27,9,70
0.06540,2.94000,-4.55000,0.00000,-0.00708,0.01708,-0.98649,2023,6,12,13,27,9,81
0.06550,2.95750,-4.34000,0.00000,-0.00793,0.01757,-0.98735,2023,6,12,13,27,9,92
0.06560,2.94000,-4.65500,0.00000,-0.00903,0.01562,-0.98905,2023,6,12,13,27,9,103
0.06570,3.13250,-4.58500,0.00000,-0.00683,0.01684,-0.98857,2023,6,12,13,27,9,114
0.06580,2.94000,-4.65500,0.00000,-0.00769,0.01781,-0.98796,2023,6,12,13,27,9,126
0.06590,2.95750,-4.48000,0.00000,-0.00756,0.01671,-0.98686,2023,6,12,13,27,9,137
0.06600,2.81750,-4.55000,0.00000,-0.01025,0.01879,-0.98539,2023,6,12,13,27,9,148
0.06610,2.92250,-4.48000,0.00000,-0.00744,0.01647,-0.99027,2023,6,12,13,27,9,159
0.06620,2.83500,-4.69000,0.00000,-0.00720,0.01757,-0.98844,2023,6,12,13,27,9,170
0.06630,3.01000,-4.58500,0.00000,-0.00781,0.01659,-0.98625,2023,6,12,13,27,9,181
0.06640,2.78250,-4.48000,0.00000,-0.00756,0.01623,-0.98576,2023,6,12,13,27,9,192
0.06650,3.04500,-4.74250,0.00000,-0.00915,0.01891,-0.98698,2023,6,12,13,27,9,203
0.06660,2.90500,-4.56750,0.00000,-0.00720,0.01562,-0.99113,2023,6,12,13,27,9,214
0.06670,2.97500,-4.58500,0.00000,-0.00781,0.01854,-0.98930,2023,6,12,13,27,9,226
0.06680,3.06250,-4.48000,0.00000,-0.00744,0.01562,-0.99003,2023,6,12,13,27,9,237
0.06690,3.09750,-4.55000,0.00000,-0.00708,0.01793,-0.98820,2023,6,12,13,27,9,248
0.06700,2.92250,-4.67250,0.00000,-0.00659,0.01647,-0.98637,2023,6,12,13,27,9,259
0.06710,2.92250,-4.53250,0.00000,-0.00732,0.01610,-0.98844,2023,6,12,13,27,9,270
0.06720,2.95750,-4.55000,0.00000,-0.01000,0.01574,-0.98747,2023,6,12,13,27,9,281
0.06730,3.06250,-4.72500,0.00000,-0.01037,0.01732,-0.98881,2023,6,12,13,27,9,292
0.06740,3.16750,-4.90000,0.00000,-0.00708,0.01854,-0.98942,2023,6,12,13,27,9,303
0.06750,2.87000,-4.77750,0.00000,-0.00903,0.01781,-0.99015,2023,6,12,13,27,9,314
0.06760,2.97500,-4.53250,0.00000,-0.00781,0.01769,-0.98503,2023,6,12,13,27,9,326
0.06770,2.97500,-4.60250,0.00000,-0.00891,0.01732,-0.98649,2023,6,12,13,27,9,337
0.06780,3.08000,-4.60250,0.00000,-0.00610,0.01610,-0.98747,2023,6,12,13,27,9,348
0.06790,2.87000,-4.49750,0.00000,-0.01135,0.01696,-0.99137,2023,6,12,13,27,9,359
0.06800,2.85250,-4.70750,0.00000,-0.00817,0.01757,-0.98637,2023,6,12,13,27,9,370
0.06810,2.94000,-4.56750,0.00000,-0.00720,0.01769,-0.98942,2023,6,12,13,27,9,381
0.06820,2.95750,-4.70750,0.00000,-0.00915,0.01830,-0.98527,2023,6,12,13,27,9,392
0.06830,2.78250,-4.63750,0.00000,-0.00732,0.01501,-0.99088,2023,6,12,13,27,9,403
0.06840,2.97500,-4.67250,0.00000,-0.00854,0.01623,-0.98698,2023,6,12,13,27,9,414
0.06850,2.92250,-4.67250,0.00000,-0.00744,0.01842,-0.98771,2023,6,12,13,27,9,426
0.06860,2.99250,-4.58500,0.00000,-0.01025,0.01671,-0.98747,2023,6,12,13,27,9,437
0.06870,2.99250,-4.55000,0.00000,-0.00769,0.01818,-0.98832,2023,6,12,13,27,9,448
0.06880,2.88750,-4.60250,0.00000,-0.00915,0.01732,-0.98698,2023,6,12,13,27,9,459
0.06890,3.15000,-4.62000,0.00000,-0.00708,0.01684,-0.98783,2023,6,12,13,27,9,470
0.06900,3.06250,-4.67250,0.00000,-0.00683,0.01818,-0.98954,2023,6,12,13,27,9,481
0.06910,2.92250,-4.74250,0.00000,-0.00805,0.02001,-0.98747,2023,6,12,13,27,9,492
0.06920,2.97500,-4.58500,0.00000,-0.00842,0.01720,-0.98869,2023,6,12,13,27,9,503
0.06930,2.94000,-4.63750,0.00000,-0.00988,0.01745,-0.98918,2023,6,12,13,27,9,514
0.06940,2.92250,-4.67250,0.00000,-0.00878,0.01696,-0.99040,2023,6,12,13,27,9,526
0.06950,2.95750,-4.46250,0.00000,-0.00842,0.01720,-0.98417,2023,6,12,13,27,9,537
0.06960,3.04500,-4.56750,0.00000,-0.00756,0.01806,-0.98710,2023,6,12,13,27,9,548
0.06970,2.76500,-4.55000,0.00000,-0.00769,0.01793,-0.98588,2023,6,12,13,27,9,559
0.06980,2.76500,-4.65500,0.00000,-0.00695,0.01647,-0.99027,2023,6,12,13,27,9,570
0.06990,3.04500,-4.55000,0.00000,-0.00817,0.01928,-0.98759,2023,6,12,13,27,9,581
0.07000,2.85250,-4.35750,0.00000,-0.00830,0.01903,-0.98625,2023,6,12,13,27,9,592
0.07010,2.87000,-4.49750,0.00000,-0.00756,0.01757,-0.99003,2023,6,12,13,27,9,603
0.07020,2.81750,-4.55000,0.00000,-0.00878,0.01842,-0.98747,2023,6,12,13,27,9,614
0.07030,2.78250,-4.53250,0.00000,-0.00903,0.01818,-0.98637,2023,6,12,13,27,9,626
0.07040,3.06250,-4.91750,0.00000,-0.00610,0.01952,-0.98710,2023,6,12,13,27,9,637
0.07050,3.06250,-4.65500,0.00000,-0.00805,0.01781,-0.98613,2023,6,12,13,27,9,648
0.07060,3.06250,-4.60250,0.00000,-0.00805,0.01745,-0.98759,2023,6,12,13,27,9,659
0.07070,2.95750,-4.49750,0.00000,-0.00769,0.01610,-0.98783,2023,6,12,13,27,9,670
0.07080,2.69500,-4.46250,0.00000,-0.00830,0.01769,-0.98735,2023,6,12,13,27,9,681
0.07090,2.97500,-4.56750,0.00000,-0.01086,0.01635,-0.98844,2023,6,12,13,27,9,692
0.07100,3.18500,-4.77750,0.00000,-0.00866,0.01708,-0.99052,2023,6,12,13,27,9,703
0.07110,2.90500,-4.65500,0.00000,-0.00561,0.01793,-0.98539,2023,6,12,13,27,9,714
0.07120,3.08000,-4.49750,0.00000,-0.00683,0.01769,-0.98539,2023,6,12,13,27,9,726
0.07130,2.73000,-4.72500,0.00000,-0.00817,0.01549,-0.98576,2023,6,12,13,27,9,737
0.07140,2.85250,-4.65500,0.00000,-0.00732,0.01696,-0.98625,2023,6,12,13,27,9,748
0.07150,2.90500,-4.56750,0.00000,-0.00732,0.01867,-0.98613,2023,6,12,13,27,9,759
0.07160,2.87000,-4.48000,0.00000,-0.00817,0.01684,-0.98674,2023,6,12,13,27,9,770
0.07170,3.06250,-4.84750,0.00000,-0.00891,0.01854,-0.98796,2023,6,12,13,27,9,781
0.07180,2.71250,-4.58500,0.00000,-0.00647,0.01781,-0.98442,2023,6,12,13,27,9,792
0.07190,2.87000,-4.67250,0.00000,-0.00805,0.01928,-0.98820,2023,6,12,13,27,9,803
0.07200,2.88750,-4.72500,0.00000,-0.00805,0.01830,-0.98478,2023,6,12,13,27,9,814
0.07210,2.95750,-4.69000,0.00000,-0.00732,0.01549,-0.98966,2023,6,12,13,27,9,826
0.07220,2.99250,-4.69000,0.00000,-0.00817,0.01708,-0.98832,2023,6,12,13,27,9,837
0.07230,2.99250,-4.65500,0.00000,-0.00598,0.01867,-0.98722,2023,6,12,13,27,9,848
0.07240,2.87000,-4.55000,0.00000,-0.00512,0.01867,-0.98552,2023,6,12,13,27,9,859
0.07250,2.87000,-4.63750,0.00000,-0.00793,0.01671,-0.99076,2023,6,12,13,27,9,870
0.07260,3.06250,-4.56750,0.00000,-0.00756,0.01501,-0.98869,2023,6,12,13,27,9,881
0.07270,2.88750,-4.49750,0.00000,-0.00695,0.01842,-0.99003,2023,6,12,13,27,9,892
0.07280,2.99250,-4.62000,0.00000,-0.00683,0.01964,-0.98405,2023,6,12,13,27,9,903
0.07290,2.92250,-4.49750,0.00000,-0.00793,0.01806,-0.98783,2023,6,12,13,27,9,914
0.07300,2.94000,-4.69000,0.00000,-0.00805,0.01842,-0.98820,2023,6,12,13,27,9,926
0.07310,3.06250,-4.56750,0.00000,-0.00744,0.01867,-0.98820,2023,6,12,13,27,9,937
0.07320,2.90500,-4.48000,0.00000,-0.00793,0.01867,-0.98918,2023,6,12,13,27,9,948
0.07330,2.94000,-4.69000,0.00000,-0.00744,0.01891,-0.99027,2023,6,12,13,27,9,959
0.07340,3.09750,-4.62000,0.00000,-0.00830,0.01708,-0.98979,2023,6,12,13,27,9,970
0.07350,2.92250,-4.65500,0.00000,-0.00976,0.01525,-0.98686,2023,6,12,13,27,10,1
0.07360,3.13250,-4.60250,0.00000,-0.00695,0.01647,-0.98552,2023,6,12,13,27,10,12
0.07370,2.69500,-4.51500,0.00000,-0.00903,0.01720,-0.99003,2023,6,12,13,27,10,23
0.07380,3.04500,-4.63750,0.00000,-0.00708,0.01903,-0.98783,2023,6,12,13,27,10,34
0.07390,2.87000,-4.84750,0.00000,-0.00695,0.01574,-0.98783,2023,6,12,13,27,10,46
0.07400,2.92250,-4.56750,0.00000,-0.00732,0.01745,-0.98625,2023,6,12,13,27,10,57
0.07410,2.94000,-4.84750,0.00000,-0.00683,0.01745,-0.98710,2023,6,12,13,27,10,68
0.07420,2.83500,-4.65500,0.00000,-0.00732,0.01732,-0.99064,2023,6,12,13,27,10,79
0.07430,2.80000,-4.60250,0.00000,-0.00842,0.01684,-0.98539,2023,6,12,13,27,10,90
0.07440,3.15000,-4.67250,0.00000,-0.00732,0.01940,-0.98771,2023,6,12,13,27,10,101
0.07450,2.90500,-4.69000,0.00000,-0.00683,0.01562,-0.98820,2023,6,12,13,27,10,112
0.07460,2.90500,-4.53250,0.00000,-0.00769,0.01671,-0.98820,2023,6,12,13,27,10,123
0.07470,3.09750,-4.84750,0.00000,-0.00805,0.01781,-0.99064,2023,6,12,13,27,10,134
0.07480,2.97500,-4.53250,0.00000,-0.00878,0.01781,-0.98783,2023,6,12,13,27,10,146
0.07490,2.95750,-4.55000,0.00000,-0.00781,0.01830,-0.98844,2023,6,12,13,27,10,157
0.07500,2.99250,-4.55000,0.00000,-0.00744,0.01793,-0.98491,2023,6,12,13,27,10,168
0.07510,2.78250,-4.60250,0.00000,-0.00671,0.01708,-0.98661,2023,6,12,13,27,10,179
0.07520,2.85250,-4.55000,0.00000,-0.00830,0.01757,-0.98820,2023,6,12,13,27,10,190
0.07530,2.85250,-4.53250,0.00000,-0.00866,0.01830,-0.98942,2023,6,12,13,27,10,201
0.07540,2.94000,-4.56750,0.00000,-0.00903,0.01793,-0.98637,2023,6,12,13,27,10,212
0.07550,2.97500,-4.62000,0.00000,-0.00830,0.01757,-0.98722,2023,6,12,13,27,10,223
0.07560,2.95750,-4.88250,0.00000,-0.00671,0.01903,-0.98698,2023,6,12,13,27,10,234
0.07570,2.76500,-4.67250,0.00000,-0.01025,0.01757,-0.98808,2023,6,12,13,27,10,246
0.07580,2.99250,-4.83000,0.00000,-0.00647,0.01684,-0.98649,2023,6,12,13,27,10,257
0.07590,2.88750,-4.51500,0.00000,-0.00732,0.01903,-0.98796,2023,6,12,13,27,10,268
0.07600,2.88750,-4.56750,0.00000,-0.00842,0.01867,-0.98808,2023,6,12,13,27,10,279
0.07610,2.94000,-4.49750,0.00000,-0.00830,0.01708,-0.98747,2023,6,12,13,27,10,290
0.07620,2.88750,-4.65500,0.00000,-0.00744,0.01891,-0.98844,2023,6,12,13,27,10,301
0.07630,3.06250,-4.58500,0.00000,-0.00903,0.02025,-0.98869,2023,6,12,13,27,10,312
0.07640,2.97500,-4.62000,0.00000,-0.00854,0.01732,-0.98747,2023,6,12,13,27,10,323
0.07650,2.99250,-4.53250,0.00000,-0.00903,0.01976,-0.98783,2023,6,12,13,27,10,334
0.07660,2.67750,-4.51500,0.00000,-0.00927,0.01610,-0.98844,2023,6,12,13,27,10,346
0.07670,2.85250,-4.72500,0.00000,-0.00891,0.01830,-0.98796,2023,6,12,13,27,10,357
0.07680,3.02750,-4.70750,0.00000,-0.00878,0.01623,-0.98796,2023,6,12,13,27,10,368
0.07690,2.83500,-4.55000,0.00000,-0.00720,0.01854,-0.98759,2023,6,12,13,27,10,379
0.07700,2.87000,-4.60250,0.00000,-0.00866,0.01769,-0.98966,2023,6,12,13,27,10,390
0.07710,2.97500,-4.58500,0.00000,-0.00927,0.01671,-0.98686,2023,6,12,13,27,10,401
0.07720,3.04500,-4.84750,0.00000,-0.00830,0.01549,-0.98918,2023,6,12,13,27,10,412
0.07730,2.87000,-4.76000,0.00000,-0.00659,0.01732,-0.98661,2023,6,12,13,27,10,423
0.07740,2.97500,-4.76000,0.00000,-0.00598,0.01757,-0.98552,2023,6,12,13,27,10,434
0.07750,3.13250,-4.83000,0.00000,-0.00598,0.01598,-0.98722,2023,6,12,13,27,10,446
0.07760,2.94000,-4.55000,0.00000,-0.00769,0.01647,-0.98539,2023,6,12,13,27,10,457
0.07770,2.92250,-4.74250,0.00000,-0.00915,0.01623,-0.98832,2023,6,12,13,27,10,468
0.07780,2.92250,-4.49750,0.00000,-0.00695,0.01623,-0.98869,2023,6,12,13,27,10,479
0.07790,2.80000,-4.56750,0.00000,-0.00854,0.01952,-0.98722,2023,6,12,13,27,10,490
0.07800,2.95750,-4.69000,0.00000,-0.00988,0.01757,-0.98771,2023,6,12,13,27,10,501
0.07810,2.85250,-4.55000,0.00000,-0.00769,0.01842,-0.98515,2023,6,12,13,27,10,512
0.07820,2.76500,-4.65500,0.00000,-0.00939,0.01976,-0.98722,2023,6,12,13,27,10,523
0.07830,2.81750,-4.62000,0.00000,-0.00830,0.01793,-0.98930,2023,6,12,13,27,10,534
0.07840,2.88750,-4.70750,0.00000,-0.00805,0.01720,-0.98625,2023,6,12,13,27,10,546
0.07850,2.73000,-4.53250,0.00000,-0.00793,0.01732,-0.98869,2023,6,12,13,27,10,557
0.07860,2.92250,-4.55000,0.00000,-0.00732,0.01806,-0.98588,2023,6,12,13,27,10,568
0.07870,3.01000,-4.60250,0.00000,-0.00842,0.01769,-0.98491,2023,6,12,13,27,10,579
0.07880,2.83500,-4.55000,0.00000,-0.00720,0.01501,-0.98539,2023,6,12,13,27,10,590
0.07890,3.09750,-4.63750,0.00000,-0.00756,0.01708,-0.98771,2023,6,12,13,27,10,601
0.07900,2.90500,-4.62000,0.00000,-0.00720,0.01708,-0.98857,2023,6,12,13,27,10,612
0.07910,2.95750,-4.44500,0.00000,-0.00634,0.01976,-0.99162,2023,6,12,13,27,10,623
0.07920,2.92250,-4.48000,0.00000,-0.00769,0.01769,-0.98613,2023,6,12,13,27,10,634
0.07930,2.85250,-4.70750,0.00000,-0.00793,0.01757,-0.98796,2023,6,12,13,27,10,646
0.07940,2.92250,-4.56750,0.00000,-0.01000,0.01671,-0.98857,2023,6,12,13,27,10,657
0.07950,2.88750,-4.76000,0.00000,-0.00854,0.01976,-0.99162,2023,6,12,13,27,10,668
0.07960,3.11500,-4.60250,0.00000,-0.00708,0.02025,-0.98515,2023,6,12,13,27,10,679
0.07970,3.04500,-4.79500,0.00000,-0.00756,0.01867,-0.98857,2023,6,12,13,27,10,690
0.07980,2.85250,-4.67250,0.00000,-0.00854,0.01781,-0.98954,2023,6,12,13,27,10,701
0.07990,3.16750,-4.60250,0.00000,-0.00732,0.01891,-0.98918,2023,6,12,13,27,10,712
0.08000,2.97500,-4.63750,0.00000,-0.00891,0.01806,-0.98625,2023,6,12,13,27,10,723
0.08010,2.90500,-4.63750,0.00000,-0.00720,0.01952,-0.98832,2023,6,12,13,27,10,734
0.08020,3.08000,-4.51500,0.00000,-0.00793,0.01732,-0.98491,2023,6,12,13,27,10,746
0.08030,2.90500,-4.49750,0.00000,-0.00561,0.01879,-0.98698,2023,6,12,13,27,10,757
0.08040,2.69500,-4.60250,0.00000,-0.00903,0.01610,-0.99015,2023,6,12,13,27,10,768
0.08050,2.92250,-4.46250,0.00000,-0.00927,0.01659,-0.98844,2023,6,12,13,27,10,779
0.08060,2.99250,-4.65500,0.00000,-0.00610,0.01842,-0.98588,2023,6,12,13,27,10,790
0.08070,3.06250,-4.67250,0.00000,-0.00659,0.01574,-0.98783,2023,6,12,13,27,10,801
0.08080,2.90500,-4.41000,0.00000,-0.00732,0.01659,-0.98820,2023,6,12,13,27,10,812
0.08090,2.83500,-4.69000,0.00000,-0.00708,0.01586,-0.98771,2023,6,12,13,27,10,823
0.08100,2.87000,-4.53250,0.00000,-0.00622,0.01757,-0.98613,2023,6,12,13,27,10,834
0.08110,3.01000,-4.44500,0.00000,-0.00854,0.01842,-0.98759,2023,6,12,13,27,10,846
0.08120,2.92250,-4.72500,0.00000,-0.00866,0.01867,-0.98869,2023,6,12,13,27,10,857
0.08130,2.99250,-4.55000,0.00000,-0.00634,0.01696,-0.98796,2023,6,12,13,27,10,868
0.08140,2.95750,-4.53250,0.00000,-0.00781,0.01574,-0.98661,2023,6,12,13,27,10,879
0.08150,3.02750,-4.70750,0.00000,-0.00903,0.01659,-0.98649,2023,6,12,13,27,10,890
0.08160,2.95750,-4.72500,0.00000,-0.00720,0.01549,-0.98576,2023,6,12,13,27,10,901
0.08170,3.08000,-4.46250,0.00000,-0.00732,0.01671,-0.98905,2023,6,12,13,27,10,912
0.08180,2.97500,-4.79500,0.00000,-0.00952,0.02001,-0.98674,2023,6,12,13,27,10,923
0.08190,2.95750,-4.77750,0.00000,-0.00830,0.01586,-0.98674,2023,6,12,13,27,10,934
0.08200,2.94000,-4.53250,0.00000,-0.00878,0.01659,-0.98832,2023,6,12,13,27,10,946
0.08210,3.08000,-4.77750,0.00000,-0.00817,0.01647,-0.98661,2023,6,12,13,27,10,957
0.08220,3.04500,-4.41000,0.00000,-0.00781,0.01854,-0.98808,2023,6,12,13,27,11,8
0.08230,2.85250,-4.81250,0.00000,-0.00708,0.01574,-0.98808,2023,6,12,13,27,11,19
0.08240,2.97500,-4.77750,0.00000,-0.00695,0.01854,-0.98576,2023,6,12,13,27,11,30
0.08250,2.94000,-4.55000,0.00000,-0.00817,0.02001,-0.98783,2023,6,12,13,27,11,41
0.08260,2.94000,-4.77750,0.00000,-0.00866,0.01757,-0.98710,2023,6,12,13,27,11,52
0.08270,3.06250,-4.60250,0.00000,-0.00805,0.01708,-0.98588,2023,6,12,13,27,11,63
0.08280,3.04500,-4.72500,0.00000,-0.00720,0.01781,-0.98613,2023,6,12,13,27,11,74
0.08290,3.02750,-4.65500,0.00000,-0.01025,0.01635,-0.98747,2023,6,12,13,27,11,86
0.08300,2.94000,-4.58500,0.00000,-0.00756,0.01879,-0.98686,2023,6,12,13,27,11,97
0.08310,2.85250,-4.56750,0.00000,-0.00830,0.01757,-0.98783,2023,6,12,13,27,11,108
0.08320,2.95750,-4.67250,0.00000,-0.00769,0.01720,-0.98820,2023,6,12,13,27,11,119
0.08330,3.01000,-4.63750,0.00000,-0.00830,0.01793,-0.98796,2023,6,12,13,27,11,130
0.08340,2.87000,-4.53250,0.00000,-0.00720,0.01769,-0.98783,2023,6,12,13,27,11,141
0.08350,2.99250,-4.55000,0.00000,-0.00695,0.01915,-0.98649,2023,6,12,13,27,11,152
0.08360,3.02750,-4.67250,0.00000,-0.00744,0.01830,-0.98674,2023,6,12,13,27,11,163
0.08370,2.97500,-4.48000,0.00000,-0.00842,0.01586,-0.98771,2023,6,12,13,27,11,174
0.08380,3.06250,-4.72500,0.00000,-0.00720,0.01623,-0.98552,2023,6,12,13,27,11,186
0.08390,3.01000,-4.53250,0.00000,-0.00708,0.01879,-0.98710,2023,6,12,13,27,11,197
0.08400,2.85250,-4.76000,0.00000,-0.00695,0.01769,-0.98478,2023,6,12,13,27,11,208
0.08410,2.83500,-4.53250,0.00000,-0.00732,0.01720,-0.98332,2023,6,12,13,27,11,219
0.08420,2.83500,-4.62000,0.00000,-0.00854,0.01854,-0.98735,2023,6,12,13,27,11,230
0.08430,2.74750,-4.65500,0.00000,-0.00805,0.01732,-0.98857,2023,6,12,13,27,11,241
0.08440,2.97500,-4.46250,0.00000,-0.00854,0.01781,-0.98478,2023,6,12,13,27,11,252
0.08450,2.69500,-4.56750,0.00000,-0.00720,0.01732,-0.98722,2023,6,12,13,27,11,263
0.08460,2.99250,-4.62000,0.00000,-0.00744,0.01757,-0.98576,2023,6,12,13,27,11,274
0.08470,2.92250,-4.55000,0.00000,-0.00720,0.01671,-0.98710,2023,6,12,13,27,11,286
0.08480,2.88750,-4.74250,0.00000,-0.00732,0.01671,-0.98735,2023,6,12,13,27,11,297
0.08490,2.83500,-4.55000,0.00000,-0.00854,0.01879,-0.98820,2023,6,12,13,27,11,308
0.08500,3.02750,-4.51500,0.00000,-0.00842,0.01647,-0.98576,2023,6,12,13,27,11,319
0.08510,2.85250,-4.65500,0.00000,-0.00891,0.01732,-0.98783,2023,6,12,13,27,11,330
0.08520,2.94000,-4.56750,0.00000,-0.00793,0.02025,-0.98722,2023,6,12,13,27,11,341
0.08530,2.76500,-4.56750,0.00000,-0.00769,0.01598,-0.99003,2023,6,12,13,27,11,352
0.08540,2.94000,-4.74250,0.00000,-0.00866,0.01818,-0.98783,2023,6,12,13,27,11,363
0.08550,3.13250,-4.72500,0.00000,-0.00683,0.01818,-0.98356,2023,6,12,13,27,11,374
0.08560,2.97500,-4.60250,0.00000,-0.00769,0.01452,-0.98808,2023,6,12,13,27,11,386
0.08570,2.74750,-4.72500,0.00000,-0.00817,0.01989,-0.98625,2023,6,12,13,27,11,397
0.08580,2.92250,-4.46250,0.00000,-0.00866,0.01867,-0.98625,2023,6,12,13,27,11,408
0.08590,3.04500,-4.49750,0.00000,-0.00939,0.01671,-0.98771,2023,6,12,13,27,11,419
0.08600,3.01000,-4.65500,0.00000,-0.00634,0.01745,-0.98478,2023,6,12,13,27,11,430
0.08610,3.08000,-4.32250,0.00000,-0.00830,0.01635,-0.98613,2023,6,12,13,27,11,441
0.08620,2.90500,-4.74250,0.00000,-0.00732,0.01806,-0.98722,2023,6,12,13,27,11,452
0.08630,2.80000,-4.69000,0.00000,-0.00842,0.01647,-0.98600,2023,6,12,13,27,11,463
0.08640,2.97500,-4.53250,0.00000,-0.00915,0.01781,-0.98759,2023,6,12,13,27,11,474
0.08650,3.01000,-4.51500,0.00000,-0.00683,0.01793,-0.98881,2023,6,12,13,27,11,486
0.08660,3.01000,-4.53250,0.00000,-0.00720,0.01488,-0.98722,2023,6,12,13,27,11,497
0.08670,2.95750,-4.51500,0.00000,-0.00756,0.01818,-0.98698,2023,6,12,13,27,11,508
0.08680,3.04500,-4.58500,0.00000,-0.00976,0.02001,-0.98808,2023,6,12,13,27,11,519
0.08690,2.94000,-4.84750,0.00000,-0.00720,0.01708,-0.98503,2023,6,12,13,27,11,530
0.08700,2.85250,-4.70750,0.00000,-0.00854,0.01598,-0.98918,2023,6,12,13,27,11,541
0.08710,2.88750,-4.53250,0.00000,-0.00659,0.01671,-0.98527,2023,6,12,13,27,11,552
0.08720,3.01000,-4.70750,0.00000,-0.00756,0.01818,-0.98661,2023,6,12,13,27,11,563
0.08730,3.04500,-4.60250,0.00000,-0.00903,0.01830,-0.98771,2023,6,12,13,27,11,574
0.08740,2.95750,-4.55000,0.00000,-0.00769,0.01769,-0.98759,2023,6,12,13,27,11,586
0.08750,3.01000,-4.69000,0.00000,-0.00573,0.01781,-0.98405,2023,6,12,13,27,11,597
0.08760,3.01000,-4.97000,0.00000,-0.00793,0.01476,-0.98552,2023,6,12,13,27,11,608
0.08770,2.94000,-4.51500,0.00000,-0.00988,0.01708,-0.98466,2023,6,12,13,27,11,619
0.08780,2.90500,-4.65500,0.00000,-0.00781,0.01598,-0.98576,2023,6,12,13,27,11,630
0.08790,2.85250,-4.55000,0.00000,-0.00927,0.01830,-0.98503,2023,6,12,13,27,11,641
0.08800,2.92250,-4.60250,0.00000,-0.00781,0.01732,-0.98698,2023,6,12,13,27,11,652
0.08810,2.90500,-4.56750,0.00000,-0.00769,0.01696,-0.98735,2023,6,12,13,27,11,663
0.08820,3.04500,-4.30500,0.00000,-0.00769,0.01574,-0.98698,2023,6,12,13,27,11,674
0.08830,2.92250,-4.60250,0.00000,-0.00830,0.01757,-0.98905,2023,6,12,13,27,11,686
0.08840,3.04500,-4.72500,0.00000,-0.00964,0.01635,-0.98613,2023,6,12,13,27,11,697
0.08850,3.11500,-4.72500,0.00000,-0.00720,0.01623,-0.98503,2023,6,12,13,27,11,708
0.08860,3.08000,-4.56750,0.00000,-0.00695,0.01708,-0.98869,2023,6,12,13,27,11,719
0.08870,2.83500,-4.69000,0.00000,-0.00659,0.01488,-0.98649,2023,6,12,13,27,11,730
0.08880,2.94000,-4.69000,0.00000,-0.00537,0.01818,-0.98796,2023,6,12,13,27,11,741
0.08890,3.02750,-4.70750,0.00000,-0.00756,0.01842,-0.99003,2023,6,12,13,27,11,752
0.08900,2.92250,-4.53250,0.00000,-0.00915,0.01915,-0.98539,2023,6,12,13,27,11,763
0.08910,2.95750,-4.77750,0.00000,-0.00903,0.01659,-0.98625,2023,6,12,13,27,11,774
0.08920,2.90500,-4.67250,0.00000,-0.00878,0.01806,-0.98600,2023,6,12,13,27,11,786
0.08930,2.92250,-4.55000,0.00000,-0.00842,0.01671,-0.98857,2023,6,12,13,27,11,797
0.08940,2.99250,-4.56750,0.00000,-0.00915,0.01659,-0.98820,2023,6,12,13,27,11,808
0.08950,2.76500,-4.81250,0.00000,-0.00866,0.01793,-0.98661,2023,6,12,13,27,11,819
0.08960,2.78250,-4.60250,0.00000,-0.00756,0.01903,-0.98820,2023,6,12,13,27,11,830
0.08970,2.99250,-4.44500,0.00000,-0.00805,0.01842,-0.98759,2023,6,12,13,27,11,841
0.08980,3.06250,-4.74250,0.00000,-0.00732,0.01867,-0.98674,2023,6,12,13,27,11,852
0.08990,2.87000,-4.58500,0.00000,-0.00744,0.01745,-0.98491,2023,6,12,13,27,11,863
0.09000,2.92250,-4.42750,0.00000,-0.00781,0.01818,-0.98783,2023,6,12,13,27,11,874
0.09010,2.88750,-4.63750,0.00000,-0.00866,0.01867,-0.98808,2023,6,12,13,27,11,886
0.09020,2.78250,-4.58500,0.00000,-0.00634,0.01793,-0.98478,2023,6,12,13,27,11,897
0.09030,3.04500,-4.77750,0.00000,-0.00756,0.01818,-0.98491,2023,6,12,13,27,11,908
0.09040,2.80000,-4.62000,0.00000,-0.00695,0.01598,-0.98674,2023,6,12,13,27,11,919
0.09050,2.78250,-4.65500,0.00000,-0.00903,0.01598,-0.98759,2023,6,12,13,27,11,930
0.09060,2.83500,-4.60250,0.00000,-0.00793,0.01720,-0.98722,2023,6,12,13,27,11,941
0.09070,2.85250,-4.63750,0.00000,-0.00866,0.01891,-0.98576,2023,6,12,13,27,11,952
0.09080,3.01000,-4.65500,0.00000,-0.00683,0.01720,-0.99052,2023,6,12,13,27,11,963
0.09090,2.99250,-4.49750,0.00000,-0.00647,0.01830,-0.98735,2023,6,12,13,27,12,4
0.09100,2.88750,-4.81250,0.00000,-0.00878,0.01696,-0.98796,2023,6,12,13,27,12,16
0.09110,2.95750,-4.65500,0.00000,-0.00695,0.01635,-0.98625,2023,6,12,13,27,12,27
0.09120,2.94000,-4.56750,0.00000,-0.00878,0.01720,-0.98783,2023,6,12,13,27,12,38
0.09130,2.88750,-4.34000,0.00000,-0.00732,0.01720,-0.98759,2023,6,12,13,27,12,49
0.09140,2.90500,-4.62000,0.00000,-0.00854,0.01549,-0.98698,2023,6,12,13,27,12,60
0.09150,2.83500,-4.41000,0.00000,-0.00939,0.01659,-0.98820,2023,6,12,13,27,12,71
0.09160,2.99250,-4.67250,0.00000,-0.00878,0.01769,-0.98735,2023,6,12,13,27,12,82
0.09170,3.02750,-4.63750,0.00000,-0.00732,0.01854,-0.98588,2023,6,12,13,27,12,93
0.09180,2.99250,-4.62000,0.00000,-0.00769,0.01781,-0.98869,2023,6,12,13,27,12,104
0.09190,3.04500,-4.53250,0.00000,-0.00695,0.01708,-0.98832,2023,6,12,13,27,12,116
0.09200,2.83500,-4.51500,0.00000,-0.00708,0.01854,-0.98747,2023,6,12,13,27,12,127
0.09210,3.01000,-4.58500,0.00000,-0.00805,0.01854,-0.98771,2023,6,12,13,27,12,138
0.09220,2.83500,-4.72500,0.00000,-0.00720,0.01915,-0.98600,2023,6,12,13,27,12,149
0.09230,2.85250,-4.76000,0.00000,-0.00830,0.01781,-0.98844,2023,6,12,13,27,12,160
0.09240,2.95750,-4.76000,0.00000,-0.00708,0.01745,-0.98722,2023,6,12,13,27,12,171
0.09250,2.92250,-4.46250,0.00000,-0.00756,0.01537,-0.98735,2023,6,12,13,27,12,182
0.09260,2.92250,-4.51500,0.00000,-0.00659,0.01757,-0.98613,2023,6,12,13,27,12,193
0.09270,2.88750,-4.53250,0.00000,-0.00805,0.01537,-0.98515,2023,6,12,13,27,12,204
0.09280,2.81750,-4.55000,0.00000,-0.00695,0.01549,-0.98881,2023,6,12,13,27,12,216
0.09290,2.80000,-4.67250,0.00000,-0.00903,0.01879,-0.98661,2023,6,12,13,27,12,227
0.09300,2.85250,-4.49750,0.00000,-0.00964,0.01745,-0.98686,2023,6,12,13,27,12,238
0.09310,2.78250,-4.51500,0.00000,-0.00805,0.01757,-0.98674,2023,6,12,13,27,12,249
0.09320,2.99250,-4.63750,0.00000,-0.00927,0.01745,-0.98771,2023,6,12,13,27,12,260
0.09330,2.76500,-4.44500,0.00000,-0.01013,0.01684,-0.98783,2023,6,12,13,27,12,271
0.09340,3.01000,-4.27000,0.00000,-0.00976,0.01610,-0.98722,2023,6,12,13,27,12,282
0.09350,2.90500,-4.65500,0.00000,-0.00915,0.01635,-0.98661,2023,6,12,13,27,12,293
0.09360,3.04500,-4.60250,0.00000,-0.00732,0.01867,-0.98417,2023,6,12,13,27,12,304
0.09370,2.90500,-4.44500,0.00000,-0.00756,0.01757,-0.98759,2023,6,12,13,27,12,316
0.09380,2.80000,-4.77750,0.00000,-0.00622,0.01757,-0.98491,2023,6,12,13,27,12,327
0.09390,2.87000,-4.60250,0.00000,-0.00671,0.01696,-0.98893,2023,6,12,13,27,12,338
0.09400,3.13250,-4.49750,0.00000,-0.00927,0.01793,-0.98527,2023,6,12,13,27,12,349
0.09410,2.92250,-4.55000,0.00000,-0.00744,0.01830,-0.99003,2023,6,12,13,27,12,360
0.09420,2.99250,-4.62000,0.00000,-0.00842,0.01671,-0.98527,2023,6,12,13,27,12,371
0.09430,2.90500,-4.55000,0.00000,-0.00830,0.01745,-0.98783,2023,6,12,13,27,12,382
0.09440,3.02750,-4.56750,0.00000,-0.00781,0.01586,-0.98930,2023,6,12,13,27,12,393
0.09450,2.87000,-4.67250,0.00000,-0.00817,0.01891,-0.98771,2023,6,12,13,27,12,404
0.09460,2.74750,-4.60250,0.00000,-0.00781,0.01659,-0.98722,2023,6,12,13,27,12,416
0.09470,2.62500,-4.55000,0.00000,-0.00708,0.01732,-0.98637,2023,6,12,13,27,12,427
0.09480,3.06250,-4.79500,0.00000,-0.00659,0.01806,-0.98552,2023,6,12,13,27,12,438
0.09490,2.78250,-4.44500,0.00000,-0.00683,0.01732,-0.98710,2023,6,12,13,27,12,449
0.09500,2.88750,-4.69000,0.00000,-0.00512,0.01915,-0.98832,2023,6,12,13,27,12,460
0.09510,2.85250,-4.51500,0.00000,-0.00634,0.01574,-0.98771,2023,6,12,13,27,12,471
0.09520,2.95750,-4.53250,0.00000,-0.00671,0.01647,-0.98515,2023,6,12,13,27,12,482
0.09530,3.13250,-4.63750,0.00000,-0.00769,0.01732,-0.98613,2023,6,12,13,27,12,493
0.09540,3.09750,-4.65500,0.00000,-0.00744,0.02013,-0.98710,2023,6,12,13,27,12,504
0.09550,2.90500,-4.60250,0.00000,-0.00976,0.01745,-0.98747,2023,6,12,13,27,12,516
0.09560,3.08000,-4.79500,0.00000,-0.00842,0.01659,-0.98722,2023,6,12,13,27,12,527
0.09570,3.02750,-4.65500,0.00000,-0.00842,0.02050,-0.98613,2023,6,12,13,27,12,538
0.09580,3.01000,-4.62000,0.00000,-0.00769,0.01757,-0.98893,2023,6,12,13,27,12,549
0.09590,2.99250,-4.74250,0.00000,-0.00878,0.01769,-0.98783,2023,6,12,13,27,12,560
0.09600,2.73000,-4.53250,0.00000,-0.00695,0.01940,-0.98771,2023,6,12,13,27,12,571
0.09610,3.06250,-4.63750,0.00000,-0.00915,0.01940,-0.98466,2023,6,12,13,27,12,582
0.09620,2.76500,-4.69000,0.00000,-0.00720,0.01769,-0.98881,2023,6,12,13,27,12,593
0.09630,2.90500,-4.60250,0.00000,-0.00561,0.01964,-0.98783,2023,6,12,13,27,12,604
0.09640,3.02750,-4.62000,0.00000,-0.00756,0.01610,-0.98576,2023,6,12,13,27,12,616
0.09650,2.90500,-4.46250,0.00000,-0.00952,0.01793,-0.98686,2023,6,12,13,27,12,627
0.09660,3.08000,-4.77750,0.00000,-0.00939,0.01867,-0.99003,2023,6,12,13,27,12,638
0.09670,3.02750,-4.65500,0.00000,-0.00817,0.01671,-0.98759,2023,6,12,13,27,12,649
0.09680,2.83500,-4.60250,0.00000,-0.00781,0.01720,-0.98771,2023,6,12,13,27,12,660
0.09690,3.02750,-4.76000,0.00000,-0.00720,0.01488,-0.98747,2023,6,12,13,27,12,671
0.09700,2.94000,-4.60250,0.00000,-0.00671,0.01830,-0.99003,2023,6,12,13,27,12,682
0.09710,3.11500,-4.65500,0.00000,-0.00854,0.01830,-0.98832,2023,6,12,13,27,12,693
0.09720,2.94000,-4.44500,0.00000,-0.01037,0.01732,-0.98954,2023,6,12,13,27,12,704
0.09730,2.94000,-4.44500,0.00000,-0.00793,0.01842,-0.98808,2023,6,12,13,27,12,716
0.09740,2.78250,-4.44500,0.00000,-0.00671,0.01867,-0.98539,2023,6,12,13,27,12,727
0.09750,3.04500,-4.42750,0.00000,-0.00781,0.01830,-0.98930,2023,6,12,13,27,12,738
0.09760,2.87000,-4.83000,0.00000,-0.00695,0.01635,-0.98893,2023,6,12,13,27,12,749
0.09770,3.01000,-4.60250,0.00000,-0.00817,0.01830,-0.98783,2023,6,12,13,27,12,760
0.09780,2.80000,-4.48000,0.00000,-0.00952,0.01647,-0.98869,2023,6,12,13,27,12,771
0.09790,3.01000,-4.63750,0.00000,-0.00683,0.01720,-0.98637,2023,6,12,13,27,12,782
0.09800,3.09750,-4.69000,0.00000,-0.00720,0.01818,-0.98991,2023,6,12,13,27,12,793
0.09810,2.97500,-4.56750,0.00000,-0.00805,0.01854,-0.99003,2023,6,12,13,27,12,804
0.09820,2.97500,-4.65500,0.00000,-0.00744,0.01806,-0.98783,2023,6,12,13,27,12,816
0.09830,2.83500,-4.53250,0.00000,-0.00915,0.01647,-0.98649,2023,6,12,13,27,12,827
0.09840,2.80000,-4.58500,0.00000,-0.00586,0.01659,-0.98893,2023,6,12,13,27,12,838
0.09850,2.88750,-4.51500,0.00000,-0.00769,0.01757,-0.98881,2023,6,12,13,27,12,849
0.09860,3.08000,-4.84750,0.00000,-0.00781,0.01696,-0.98649,2023,6,12,13,27,12,860
0.09870,2.90500,-4.63750,0.00000,-0.00793,0.01708,-0.98796,2023,6,12,13,27,12,871
0.09880,2.99250,-4.76000,0.00000,-0.00610,0.01915,-0.98783,2023,6,12,13,27,12,882
0.09890,2.83500,-4.77750,0.00000,-0.00817,0.01452,-0.98735,2023,6,12,13,27,12,893
0.09900,2.95750,-4.48000,0.00000,-0.00683,0.01696,-0.98722,2023,6,12,13,27,12,904
0.09910,2.85250,-4.51500,0.00000,-0.00805,0.01818,-0.98771,2023,6,12,13,27,12,916
0.09920,2.99250,-4.63750,0.00000,-0.00756,0.01854,-0.98637,2023,6,12,13,27,12,927
0.09930,2.92250,-4.49750,0.00000,-0.00720,0.01623,-0.99223,2023,6,12,13,27,12,938
0.09940,2.88750,-4.48000,0.00000,-0.00903,0.01745,-0.98844,2023,6,12,13,27,12,949
0.09950,2.85250,-4.58500,0.00000,-0.00988,0.01684,-0.98661,2023,6,12,13,27,12,960
0.09960,2.74750,-4.56750,0.00000,-0.00952,0.01659,-0.98869,2023,6,12,13,27,13,1
0.09970,2.87000,-4.76000,0.00000,-0.00854,0.01720,-0.98759,2023,6,12,13,27,13,12
0.09980,3.08000,-4.56750,0.00000,-0.00708,0.01696,-0.98588,2023,6,12,13,27,13,23
0.09990,2.88750,-4.49750,0.00000,-0.00793,0.01915,-0.98722,2023,6,12,13,27,13,34
0.10000,2.87000,-4.58500,0.00000,-0.00805,0.01647,-0.98832,2023,6,12,13,27,13,46
0.10010,3.04500,-4.67250,0.00000,-0.00732,0.01562,-0.98759,2023,6,12,13,27,13,57
0.10020,3.06250,-4.74250,0.00000,-0.00903,0.01745,-0.98759,2023,6,12,13,27,13,68
0.10030,2.83500,-4.37500,0.00000,-0.00622,0.01745,-0.98674,2023,6,12,13,27,13,79
0.10040,2.94000,-4.72500,0.00000,-0.00781,0.01562,-0.98857,2023,6,12,13,27,13,90
0.10050,2.97500,-4.67250,0.00000,-0.01013,0.01903,-0.99015,2023,6,12,13,27,13,101
0.10060,2.90500,-4.60250,0.00000,-0.00561,0.01903,-0.98527,2023,6,12,13,27,13,112
0.10070,2.92250,-4.63750,0.00000,-0.00683,0.01915,-0.98832,2023,6,12,13,27,13,123
0.10080,3.04500,-4.37500,0.00000,-0.00671,0.01928,-0.98796,2023,6,12,13,27,13,134
0.10090,3.06250,-4.63750,0.00000,-0.00634,0.01915,-0.98783,2023,6,12,13,27,13,146
0.10100,2.99250,-4.83000,0.00000,-0.00817,0.01745,-0.98552,2023,6,12,13,27,13,157
0.10110,2.83500,-4.63750,0.00000,-0.00830,0.01806,-0.98735,2023,6,12,13,27,13,168
0.10120,2.92250,-4.65500,0.00000,-0.00805,0.01659,-0.98625,2023,6,12,13,27,13,179
0.10130,2.78250,-4.51500,0.00000,-0.00793,0.01684,-0.98613,2023,6,12,13,27,13,190
0.10140,2.78250,-4.53250,0.00000,-0.00708,0.01549,-0.98552,2023,6,12,13,27,13,201
0.10150,2.95750,-4.69000,0.00000,-0.00842,0.01781,-0.99210,2023,6,12,13,27,13,212
0.10160,2.90500,-4.58500,0.00000,-0.00964,0.01781,-0.98674,2023,6,12,13,27,13,223
0.10170,2.95750,-4.62000,0.00000,-0.00683,0.01806,-0.98710,2023,6,12,13,27,13,234
0.10180,2.90500,-4.65500,0.00000,-0.00842,0.01830,-0.98759,2023,6,12,13,27,13,246
0.10190,3.01000,-4.81250,0.00000,-0.01000,0.01806,-0.98905,2023,6,12,13,27,13,257
0.10200,3.01000,-4.81250,0.00000,-0.00781,0.01818,-0.98478,2023,6,12,13,27,13,268
0.10210,2.81750,-4.58500,0.00000,-0.00695,0.01854,-0.98808,2023,6,12,13,27,13,279
0.10220,3.01000,-4.65500,0.00000,-0.00952,0.01513,-0.98430,2023,6,12,13,27,13,290
0.10230,3.11500,-4.69000,0.00000,-0.00891,0.01610,-0.98661,2023,6,12,13,27,13,301
0.10240,2.74750,-4.60250,0.00000,-0.00781,0.01720,-0.98747,2023,6,12,13,27,13,312
0.10250,3.11500,-4.84750,0.00000,-0.00891,0.01818,-0.98710,2023,6,12,13,27,13,323
0.10260,2.83500,-4.46250,0.00000,-0.00817,0.01708,-0.98905,2023,6,12,13,27,13,334
0.10270,3.16750,-4.81250,0.00000,-0.00744,0.01732,-0.99052,2023,6,12,13,27,13,346
0.10280,2.97500,-4.70750,0.00000,-0.00878,0.01671,-0.98869,2023,6,12,13,27,13,357
0.10290,3.20250,-4.91750,0.00000,-0.00744,0.01488,-0.98747,2023,6,12,13,27,13,368
0.10300,2.94000,-4.53250,0.00000,-0.00781,0.01708,-0.98588,2023,6,12,13,27,13,379
0.10310,2.85250,-4.77750,0.00000,-0.00756,0.01684,-0.98905,2023,6,12,13,27,13,390
0.10320,2.95750,-4.67250,0.00000,-0.00634,0.01818,-0.98588,2023,6,12,13,27,13,401
0.10330,2.83500,-4.39250,0.00000,-0.00915,0.01915,-0.98503,2023,6,12,13,27,13,412
0.10340,2.94000,-4.62000,0.00000,-0.00927,0.01732,-0.98893,2023,6,12,13,27,13,423
0.10350,2.87000,-4.46250,0.00000,-0.00842,0.01757,-0.98588,2023,6,12,13,27,13,434
0.10360,3.01000,-4.67250,0.00000,-0.00683,0.01842,-0.98588,2023,6,12,13,27,13,446
0.10370,2.88750,-4.51500,0.00000,-0.00671,0.01842,-0.98747,2023,6,12,13,27,13,457
0.10380,2.94000,-4.70750,0.00000,-0.00805,0.01598,-0.98783,2023,6,12,13,27,13,468
0.10390,2.76500,-4.37500,0.00000,-0.00756,0.01659,-0.98454,2023,6,12,13,27,13,479
0.10400,3.06250,-4.63750,0.00000,-0.00769,0.01867,-0.98454,2023,6,12,13,27,13,490
0.10410,2.87000,-4.55000,0.00000,-0.00769,0.01696,-0.98796,2023,6,12,13,27,13,501
0.10420,2.81750,-4.42750,0.00000,-0.00842,0.01696,-0.98735,2023,6,12,13,27,13,512
0.10430,3.04500,-4.76000,0.00000,-0.00891,0.01769,-0.98625,2023,6,12,13,27,13,523
0.10440,2.87000,-4.46250,0.00000,-0.00744,0.01708,-0.98674,2023,6,12,13,27,13,534
0.10450,3.02750,-4.62000,0.00000,-0.00866,0.01989,-0.98722,2023,6,12,13,27,13,546
0.10460,2.97500,-4.35750,0.00000,-0.00756,0.01732,-0.98832,2023,6,12,13,27,13,557
0.10470,2.90500,-4.62000,0.00000,-0.00805,0.01671,-0.99003,2023,6,12,13,27,13,568
0.10480,2.90500,-4.70750,0.00000,-0.00732,0.01574,-0.98918,2023,6,12,13,27,13,579
0.10490,3.09750,-4.70750,0.00000,-0.00634,0.01574,-0.98796,2023,6,12,13,27,13,590
0.10500,2.92250,-4.37500,0.00000,-0.00610,0.01830,-0.98820,2023,6,12,13,27,13,601
0.10510,2.95750,-4.65500,0.00000,-0.00891,0.01720,-0.98796,2023,6,12,13,27,13,612
0.10520,2.81750,-4.67250,0.00000,-0.00915,0.01635,-0.98637,2023,6,12,13,27,13,623
0.10530,3.08000,-4.70750,0.00000,-0.00854,0.01732,-0.98698,2023,6,12,13,27,13,634
0.10540,2.92250,-4.65500,0.00000,-0.00708,0.01781,-0.98527,2023,6,12,13,27,13,646
0.10550,2.88750,-4.65500,0.00000,-0.00769,0.01757,-0.98893,2023,6,12,13,27,13,657
0.10560,2.97500,-4.67250,0.00000,-0.00976,0.01586,-0.98783,2023,6,12,13,27,13,668
0.10570,2.99250,-4.76000,0.00000,-0.00964,0.01708,-0.98808,2023,6,12,13,27,13,679
0.10580,3.09750,-4.51500,0.00000,-0.00573,0.01854,-0.98503,2023,6,12,13,27,13,690
0.10590,2.80000,-4.41000,0.00000,-0.00878,0.01659,-0.98783,2023,6,12,13,27,13,701
0.10600,2.99250,-4.49750,0.00000,-0.00708,0.01549,-0.98454,2023,6,12,13,27,13,712
0.10610,3.06250,-4.62000,0.00000,-0.00671,0.01818,-0.98600,2023,6,12,13,27,13,723
0.10620,2.80000,-4.69000,0.00000,-0.00769,0.01903,-0.98832,2023,6,12,13,27,13,734
0.10630,3.08000,-4.53250,0.00000,-0.00659,0.01952,-0.98576,2023,6,12,13,27,13,746
0.10640,2.81750,-4.77750,0.00000,-0.00927,0.01732,-0.98783,2023,6,12,13,27,13,757
0.10650,3.09750,-4.62000,0.00000,-0.00744,0.01732,-0.98661,2023,6,12,13,27,13,768
0.10660,2.81750,-4.53250,0.00000,-0.00817,0.01684,-0.98674,2023,6,12,13,27,13,779
0.10670,2.92250,-4.55000,0.00000,-0.00781,0.01671,-0.98649,2023,6,12,13,27,13,790
0.10680,2.90500,-4.76000,0.00000,-0.00732,0.01952,-0.98881,2023,6,12,13,27,13,801
0.10690,2.95750,-4.49750,0.00000,-0.00927,0.01647,-0.98564,2023,6,12,13,27,13,812
0.10700,2.97500,-4.56750,0.00000,-0.00769,0.01720,-0.98491,2023,6,12,13,27,13,823
0.10710,2.87000,-4.76000,0.00000,-0.00769,0.01732,-0.98881,2023,6,12,13,27,13,834
0.10720,2.94000,-4.74250,0.00000,-0.00695,0.01696,-0.98735,2023,6,12,13,27,13,846
0.10730,3.06250,-4.65500,0.00000,-0.01013,0.01769,-0.98930,2023,6,12,13,27,13,857
0.10740,2.92250,-4.67250,0.00000,-0.01074,0.01745,-0.98503,2023,6,12,13,27,13,868
0.10750,3.01000,-4.67250,0.00000,-0.00927,0.01610,-0.98759,2023,6,12,13,27,13,879
0.10760,2.95750,-4.49750,0.00000,-0.00769,0.01745,-0.98613,2023,6,12,13,27,13,890
0.10770,2.87000,-4.49750,0.00000,-0.00903,0.01732,-0.98710,2023,6,12,13,27,13,901
0.10780,2.94000,-4.27000,0.00000,-0.01000,0.01952,-0.98747,2023,6,12,13,27,13,912
0.10790,2.90500,-4.56750,0.00000,-0.00842,0.01842,-0.98600,2023,6,12,13,27,13,923
0.10800,2.95750,-4.70750,0.00000,-0.00598,0.01671,-0.98674,2023,6,12,13,27,13,934
0.10810,2.80000,-4.74250,0.00000,-0.00756,0.01757,-0.98783,2023,6,12,13,27,13,946
0.10820,3.04500,-4.69000,0.00000,-0.00891,0.01793,-0.98759,2023,6,12,13,27,13,957
0.10830,2.99250,-4.83000,0.00000,-0.00756,0.01586,-0.98710,2023,6,12,13,27,14,8
0.10840,2.92250,-4.84750,0.00000,-0.00817,0.01574,-0.98735,2023,6,12,13,27,14,19
0.10850,2.95750,-4.58500,0.00000,-0.00769,0.01659,-0.98649,2023,6,12,13,27,14,30
0.10860,2.85250,-4.62000,0.00000,-0.00708,0.01842,-0.98857,2023,6,12,13,27,14,41
0.10870,2.87000,-4.65500,0.00000,-0.00744,0.01842,-0.98722,2023,6,12,13,27,14,52
0.10880,2.95750,-4.72500,0.00000,-0.00830,0.01867,-0.98686,2023,6,12,13,27,14,63
0.10890,2.94000,-4.70750,0.00000,-0.00525,0.01830,-0.98466,2023,6,12,13,27,14,74
0.10900,2.97500,-4.81250,0.00000,-0.00744,0.01708,-0.98893,2023,6,12,13,27,14,86
0.10910,3.04500,-4.55000,0.00000,-0.00781,0.01830,-0.98405,2023,6,12,13,27,14,97
0.10920,2.81750,-4.53250,0.00000,-0.00671,0.01598,-0.98747,2023,6,12,13,27,14,108
0.10930,3.06250,-4.70750,0.00000,-0.00842,0.01659,-0.98991,2023,6,12,13,27,14,119
0.10940,3.16750,-4.62000,0.00000,-0.00756,0.01915,-0.98808,2023,6,12,13,27,14,130
0.10950,2.85250,-4.60250,0.00000,-0.00878,0.01696,-0.98918,2023,6,12,13,27,14,141
0.10960,2.87000,-4.58500,0.00000,-0.00891,0.01867,-0.98893,2023,6,12,13,27,14,152
0.10970,2.85250,-4.51500,0.00000,-0.00732,0.01635,-0.98356,2023,6,12,13,27,14,163
0.10980,2.87000,-4.37500,0.00000,-0.00647,0.01806,-0.98747,2023,6,12,13,27,14,174
0.10990,2.95750,-4.69000,0.00000,-0.00830,0.01635,-0.98735,2023,6,12,13,27,14,186
0.11000,2.76500,-4.49750,0.00000,-0.00939,0.01659,-0.98820,2023,6,12,13,27,14,197
0.11010,3.09750,-4.67250,0.00000,-0.00866,0.01745,-0.98625,2023,6,12,13,27,14,208
0.11020,2.83500,-4.56750,0.00000,-0.00842,0.01879,-0.98966,2023,6,12,13,27,14,219
0.11030,3.01000,-4.51500,0.00000,-0.00647,0.01635,-0.98661,2023,6,12,13,27,14,230
0.11040,2.90500,-4.56750,0.00000,-0.00842,0.01720,-0.98710,2023,6,12,13,27,14,241
0.11050,2.90500,-4.51500,0.00000,-0.00842,0.01806,-0.98844,2023,6,12,13,27,14,252
0.11060,2.87000,-4.49750,0.00000,-0.00586,0.01757,-0.98991,2023,6,12,13,27,14,263
0.11070,2.94000,-4.67250,0.00000,-0.00720,0.01659,-0.98918,2023,6,12,13,27,14,274
0.11080,2.88750,-4.60250,0.00000,-0.00708,0.01598,-0.98905,2023,6,12,13,27,14,286
0.11090,2.88750,-4.55000,0.00000,-0.00720,0.01659,-0.98588,2023,6,12,13,27,14,297
0.11100,3.13250,-4.72500,0.00000,-0.00756,0.01635,-0.98759,2023,6,12,13,27,14,308
0.11110,2.90500,-4.65500,0.00000,-0.00903,0.02025,-0.98674,2023,6,12,13,27,14,319
0.11120,3.20250,-4.69000,0.00000,-0.00830,0.01696,-0.98686,2023,6,12,13,27,14,330
0.11130,2.78250,-4.65500,0.00000,-0.00842,0.01793,-0.98722,2023,6,12,13,27,14,341
0.11140,2.95750,-4.53250,0.00000,-0.00622,0.01867,-0.98857,2023,6,12,13,27,14,352
0.11150,2.83500,-4.76000,0.00000,-0.00793,0.01818,-0.98783,2023,6,12,13,27,14,363
0.11160,2.83500,-4.53250,0.00000,-0.00756,0.01720,-0.98747,2023,6,12,13,27,14,374
0.11170,2.95750,-4.44500,0.00000,-0.01037,0.01708,-0.98478,2023,6,12,13,27,14,386
0.11180,2.92250,-4.55000,0.00000,-0.00659,0.01781,-0.99027,2023,6,12,13,27,14,397
0.11190,2.83500,-4.55000,0.00000,-0.00769,0.01610,-0.98674,2023,6,12,13,27,14,408
0.11200,3.04500,-4.86500,0.00000,-0.00903,0.01745,-0.98344,2023,6,12,13,27,14,419
0.11210,2.88750,-4.83000,0.00000,-0.00708,0.01610,-0.98320,2023,6,12,13,27,14,430
0.11220,3.02750,-4.74250,0.00000,-0.00854,0.01793,-0.98686,2023,6,12,13,27,14,441
0.11230,3.01000,-4.55000,0.00000,-0.00744,0.01915,-0.98600,2023,6,12,13,27,14,452
0.11240,2.95750,-4.55000,0.00000,-0.01086,0.01562,-0.98771,2023,6,12,13,27,14,463
0.11250,2.78250,-4.48000,0.00000,-0.00744,0.01818,-0.98735,2023,6,12,13,27,14,474
0.11260,2.90500,-4.46250,0.00000,-0.00769,0.01586,-0.98613,2023,6,12,13,27,14,486
0.11270,2.81750,-4.49750,0.00000,-0.00915,0.01806,-0.98613,2023,6,12,13,27,14,497
0.11280,3.01000,-4.62000,0.00000,-0.00842,0.01891,-0.98661,2023,6,12,13,27,14,508
0.11290,2.99250,-4.41000,0.00000,-0.00732,0.01732,-0.98649,2023,6,12,13,27,14,519
0.11300,3.11500,-4.48000,0.00000,-0.00927,0.01745,-0.98393,2023,6,12,13,27,14,530
0.11310,3.08000,-4.60250,0.00000,-0.00744,0.01684,-0.98613,2023,6,12,13,27,14,541
0.11320,2.99250,-4.58500,0.00000,-0.00854,0.01940,-0.98588,2023,6,12,13,27,14,552
0.11330,2.95750,-4.69000,0.00000,-0.00854,0.01745,-0.98210,2023,6,12,13,27,14,563
0.11340,2.76500,-4.55000,0.00000,-0.00683,0.02062,-0.98430,2023,6,12,13,27,14,574
0.11350,3.06250,-4.55000,0.00000,-0.00732,0.01720,-0.98942,2023,6,12,13,27,14,586
0.11360,3.02750,-4.58500,0.00000,-0.00598,0.01513,-0.98588,2023,6,12,13,27,14,597
0.11370,2.87000,-4.58500,0.00000,-0.00708,0.01440,-0.98857,2023,6,12,13,27,14,608
0.11380,2.81750,-4.42750,0.00000,-0.00805,0.01671,-0.98820,2023,6,12,13,27,14,619
0.11390,2.95750,-4.74250,0.00000,-0.00659,0.01659,-0.98747,2023,6,12,13,27,14,630
0.11400,3.04500,-4.69000,0.00000,-0.00659,0.01891,-0.98869,2023,6,12,13,27,14,641
0.11410,3.08000,-4.60250,0.00000,-0.00805,0.01708,-0.98759,2023,6,12,13,27,14,652
0.11420,2.73000,-4.48000,0.00000,-0.00659,0.01854,-0.98466,2023,6,12,13,27,14,663
0.11430,2.85250,-4.53250,0.00000,-0.00830,0.01708,-0.98710,2023,6,12,13,27,14,674
0.11440,2.99250,-4.74250,0.00000,-0.00854,0.01684,-0.98893,2023,6,12,13,27,14,686
0.11450,2.88750,-4.42750,0.00000,-0.00830,0.01928,-0.98637,2023,6,12,13,27,14,697
0.11460,3.04500,-4.56750,0.00000,-0.00732,0.01854,-0.98417,2023,6,12,13,27,14,708
0.11470,2.92250,-4.86500,0.00000,-0.00756,0.01879,-0.98466,2023,6,12,13,27,14,719
0.11480,2.95750,-4.49750,0.00000,-0.00903,0.01891,-0.98893,2023,6,12,13,27,14,730
0.11490,2.92250,-4.51500,0.00000,-0.00891,0.01696,-0.98710,2023,6,12,13,27,14,741
0.11500,3.01000,-4.72500,0.00000,-0.00622,0.01647,-0.98564,2023,6,12,13,27,14,752
0.11510,2.95750,-4.74250,0.00000,-0.00769,0.01684,-0.98600,2023,6,12,13,27,14,763
0.11520,2.92250,-4.41000,0.00000,-0.00939,0.01671,-0.98832,2023,6,12,13,27,14,774
0.11530,3.06250,-4.81250,0.00000,-0.00842,0.01610,-0.98674,2023,6,12,13,27,14,786
0.11540,3.01000,-4.72500,0.00000,-0.00830,0.01696,-0.98857,2023,6,12,13,27,14,797
0.11550,2.85250,-4.42750,0.00000,-0.00891,0.01745,-0.98869,2023,6,12,13,27,14,808
0.11560,3.02750,-4.51500,0.00000,-0.00695,0.01952,-0.98527,2023,6,12,13,27,14,819
0.11570,2.78250,-4.62000,0.00000,-0.00805,0.01842,-0.98698,2023,6,12,13,27,14,830
0.11580,2.97500,-4.76000,0.00000,-0.00622,0.01708,-0.98600,2023,6,12,13,27,14,841
0.11590,2.80000,-4.74250,0.00000,-0.00805,0.01623,-0.98686,2023,6,12,13,27,14,852
0.11600,2.97500,-4.79500,0.00000,-0.00903,0.01769,-0.98661,2023,6,12,13,27,14,863
0.11610,2.92250,-4.58500,0.00000,-0.00878,0.01598,-0.98686,2023,6,12,13,27,14,874
0.11620,2.90500,-4.49750,0.00000,-0.00793,0.01769,-0.98649,2023,6,12,13,27,14,886
0.11630,3.20250,-4.55000,0.00000,-0.00769,0.01989,-0.98796,2023,6,12,13,27,14,897
0.11640,2.83500,-4.53250,0.00000,-0.00708,0.01598,-0.98649,2023,6,12,13,27,14,908
0.11650,2.85250,-4.48000,0.00000,-0.00683,0.01732,-0.98454,2023,6,12,13,27,14,919
0.11660,2.95750,-4.63750,0.00000,-0.00769,0.01903,-0.98735,2023,6,12,13,27,14,930
0.11670,3.08000,-4.44500,0.00000,-0.00744,0.01793,-0.99015,2023,6,12,13,27,14,941
0.11680,2.99250,-4.48000,0.00000,-0.00964,0.01696,-0.98844,2023,6,12,13,27,14,952
0.11690,2.90500,-4.69000,0.00000,-0.00683,0.01854,-0.98710,2023,6,12,13,27,14,963
0.11700,2.80000,-4.56750,0.00000,-0.00634,0.01537,-0.98881,2023,6,12,13,27,15,4
0.11710,2.95750,-4.39250,0.00000,-0.00842,0.01745,-0.98747,2023,6,12,13,27,15,16
0.11720,3.09750,-4.69000,0.00000,-0.00866,0.01854,-0.98942,2023,6,12,13,27,15,27
0.11730,3.04500,-4.58500,0.00000,-0.00817,0.01464,-0.99149,2023,6,12,13,27,15,38
0.11740,3.04500,-4.65500,0.00000,-0.01000,0.01769,-0.98771,2023,6,12,13,27,15,49
0.11750,3.02750,-4.42750,0.00000,-0.00988,0.01769,-0.98966,2023,6,12,13,27,15,60
0.11760,2.85250,-4.69000,0.00000,-0.00976,0.01671,-0.98918,2023,6,12,13,27,15,71
0.11770,2.97500,-4.53250,0.00000,-0.00781,0.01598,-0.98857,2023,6,12,13,27,15,82
0.11780,2.81750,-4.60250,0.00000,-0.00878,0.01781,-0.98710,2023,6,12,13,27,15,93
0.11790,2.88750,-4.42750,0.00000,-0.00695,0.01806,-0.98869,2023,6,12,13,27,15,104
0.11800,3.25500,-4.70750,0.00000,-0.00830,0.01793,-0.98515,2023,6,12,13,27,15,116
0.11810,2.81750,-4.56750,0.00000,-0.00915,0.01696,-0.98869,2023,6,12,13,27,15,127
0.11820,2.83500,-4.62000,0.00000,-0.00683,0.01610,-0.98710,2023,6,12,13,27,15,138
0.11830,2.85250,-4.53250,0.00000,-0.00854,0.01525,-0.98698,2023,6,12,13,27,15,149
0.11840,2.81750,-4.60250,0.00000,-0.00964,0.01757,-0.98686,2023,6,12,13,27,15,160
0.11850,2.90500,-4.51500,0.00000,-0.00817,0.01940,-0.98832,2023,6,12,13,27,15,171
0.11860,3.06250,-4.48000,0.00000,-0.00805,0.01806,-0.98881,2023,6,12,13,27,15,182
0.11870,2.95750,-4.65500,0.00000,-0.00732,0.01879,-0.98478,2023,6,12,13,27,15,193
0.11880,3.06250,-4.56750,0.00000,-0.00708,0.01793,-0.98686,2023,6,12,13,27,15,204
0.11890,2.94000,-4.58500,0.00000,-0.00842,0.01659,-0.98722,2023,6,12,13,27,15,216
0.11900,2.95750,-4.69000,0.00000,-0.00891,0.01586,-0.98417,2023,6,12,13,27,15,227
0.11910,2.97500,-4.72500,0.00000,-0.00732,0.01818,-0.98637,2023,6,12,13,27,15,238
0.11920,2.76500,-4.55000,0.00000,-0.00756,0.01757,-0.98747,2023,6,12,13,27,15,249
0.11930,2.95750,-4.48000,0.00000,-0.00659,0.01745,-0.98857,2023,6,12,13,27,15,260
0.11940,2.87000,-4.60250,0.00000,-0.00793,0.01586,-0.98552,2023,6,12,13,27,15,271
0.11950,2.99250,-4.67250,0.00000,-0.00695,0.01806,-0.98869,2023,6,12,13,27,15,282
0.11960,2.76500,-4.63750,0.00000,-0.00842,0.01769,-0.98844,2023,6,12,13,27,15,293
0.11970,2.85250,-4.41000,0.00000,-0.00976,0.01696,-0.98710,2023,6,12,13,27,15,304
0.11980,2.94000,-4.55000,0.00000,-0.00830,0.01549,-0.98686,2023,6,12,13,27,15,316
0.11990,3.02750,-4.69000,0.00000,-0.00781,0.01708,-0.98625,2023,6,12,13,27,15,327
0.12000,3.06250,-4.55000,0.00000,-0.00756,0.01574,-0.98674,2023,6,12,13,27,15,338
0.12010,2.94000,-4.67250,0.00000,-0.00939,0.01915,-0.98918,2023,6,12,13,27,15,349
0.12020,2.94000,-4.51500,0.00000,-0.00878,0.01964,-0.98710,2023,6,12,13,27,15,360
0.12030,3.06250,-4.70750,0.00000,-0.00903,0.01647,-0.98857,2023,6,12,13,27,15,371
0.12040,3.08000,-4.46250,0.00000,-0.00903,0.01952,-0.98857,2023,6,12,13,27,15,382
0.12050,2.81750,-4.60250,0.00000,-0.00781,0.01598,-0.98905,2023,6,12,13,27,15,393
0.12060,2.87000,-4.72500,0.00000,-0.00903,0.01647,-0.98783,2023,6,12,13,27,15,404
0.12070,2.81750,-4.49750,0.00000,-0.00976,0.01610,-0.98881,2023,6,12,13,27,15,416
0.12080,2.92250,-4.51500,0.00000,-0.00830,0.01903,-0.98881,2023,6,12,13,27,15,427
0.12090,2.83500,-4.62000,0.00000,-0.00866,0.02001,-0.98686,2023,6,12,13,27,15,438
0.12100,2.94000,-4.58500,0.00000,-0.00793,0.01708,-0.98661,2023,6,12,13,27,15,449
0.12110,3.13250,-4.77750,0.00000,-0.00598,0.01671,-0.98674,2023,6,12,13,27,15,460
0.12120,2.90500,-4.69000,0.00000,-0.00842,0.01696,-0.98759,2023,6,12,13,27,15,471
0.12130,2.90500,-4.65500,0.00000,-0.00781,0.01781,-0.98588,2023,6,12,13,27,15,482
0.12140,2.90500,-4.51500,0.00000,-0.00769,0.01684,-0.98698,2023,6,12,13,27,15,493
0.12150,2.85250,-4.39250,0.00000,-0.00695,0.01671,-0.98661,2023,6,12,13,27,15,504
0.12160,2.90500,-4.79500,0.00000,-0.00842,0.01610,-0.98783,2023,6,12,13,27,15,516
0.12170,2.97500,-4.55000,0.00000,-0.00817,0.01671,-0.98759,2023,6,12,13,27,15,527
0.12180,2.95750,-4.70750,0.00000,-0.00866,0.01720,-0.98808,2023,6,12,13,27,15,538
0.12190,3.02750,-4.56750,0.00000,-0.00598,0.01513,-0.98637,2023,6,12,13,27,15,549
0.12200,2.85250,-4.58500,0.00000,-0.00952,0.01940,-0.98552,2023,6,12,13,27,15,560
0.12210,2.92250,-4.65500,0.00000,-0.00708,0.01635,-0.98771,2023,6,12,13,27,15,571
0.12220,2.90500,-4.67250,0.00000,-0.00842,0.01598,-0.98954,2023,6,12,13,27,15,582
0.12230,2.76500,-4.60250,0.00000,-0.00732,0.01781,-0.98576,2023,6,12,13,27,15,593
0.12240,2.83500,-4.74250,0.00000,-0.00720,0.01818,-0.98686,2023,6,12,13,27,15,604
0.12250,2.83500,-4.55000,0.00000,-0.00964,0.01964,-0.98771,2023,6,12,13,27,15,616
0.12260,3.01000,-4.55000,0.00000,-0.00634,0.01696,-0.98710,2023,6,12,13,27,15,627
0.12270,3.01000,-4.77750,0.00000,-0.00927,0.01696,-0.98442,2023,6,12,13,27,15,638
0.12280,3.06250,-4.65500,0.00000,-0.00781,0.01903,-0.98979,2023,6,12,13,27,15,649
0.12290,2.99250,-4.70750,0.00000,-0.00805,0.01708,-0.98759,2023,6,12,13,27,15,660
0.12300,2.95750,-4.69000,0.00000,-0.00744,0.01818,-0.98942,2023,6,12,13,27,15,671
0.12310,3.08000,-4.70750,0.00000,-0.00817,0.01806,-0.98686,2023,6,12,13,27,15,682
0.12320,2.97500,-4.58500,0.00000,-0.00683,0.01708,-0.98759,2023,6,12,13,27,15,693
0.12330,3.06250,-4.86500,0.00000,-0.00744,0.01586,-0.98783,2023,6,12,13,27,15,704
0.12340,3.04500,-4.42750,0.00000,-0.01000,0.01623,-0.98808,2023,6,12,13,27,15,716
0.12350,2.95750,-4.83000,0.00000,-0.00805,0.01696,-0.98686,2023,6,12,13,27,15,727
0.12360,2.92250,-4.60250,0.00000,-0.00756,0.01781,-0.98857,2023,6,12,13,27,15,738
0.12370,2.87000,-4.65500,0.00000,-0.00842,0.01696,-0.98893,2023,6,12,13,27,15,749
0.12380,2.99250,-4.51500,0.00000,-0.00708,0.01891,-0.98869,2023,6,12,13,27,15,760
0.12390,3.08000,-4.56750,0.00000,-0.00830,0.01745,-0.98747,2023,6,12,13,27,15,771
0.12400,2.90500,-4.51500,0.00000,-0.00842,0.01525,-0.98918,2023,6,12,13,27,15,782
0.12410,3.01000,-4.60250,0.00000,-0.00854,0.01745,-0.98600,2023,6,12,13,27,15,793
0.12420,2.99250,-4.84750,0.00000,-0.00903,0.01671,-0.98747,2023,6,12,13,27,15,804
0.12430,2.94000,-4.51500,0.00000,-0.00854,0.01659,-0.98857,2023,6,12,13,27,15,816
0.12440,2.95750,-4.63750,0.00000,-0.00891,0.01537,-0.98783,2023,6,12,13,27,15,827
0.12450,3.02750,-4.69000,0.00000,-0.00732,0.01610,-0.98808,2023,6,12,13,27,15,838
0.12460,2.83500,-4.76000,0.00000,-0.00817,0.01818,-0.98430,2023,6,12,13,27,15,849
0.12470,2.90500,-4.74250,0.00000,-0.00866,0.01867,-0.98808,2023,6,12,13,27,15,860
0.12480,2.94000,-4.67250,0.00000,-0.00842,0.01671,-0.98783,2023,6,12,13,27,15,871
0.12490,3.08000,-4.42750,0.00000,-0.00781,0.01671,-0.98649,2023,6,12,13,27,15,882
0.12500,2.76500,-4.48000,0.00000,-0.00732,0.01610,-0.98686,2023,6,12,13,27,15,893
0.12510,2.90500,-4.76000,0.00000,-0.00622,0.01806,-0.98796,2023,6,12,13,27,15,904
0.12520,2.92250,-4.65500,0.00000,-0.00683,0.01745,-0.98600,2023,6,12,13,27,15,916
0.12530,2.90500,-4.63750,0.00000,-0.00878,0.01879,-0.98588,2023,6,12,13,27,15,927
0.12540,3.15000,-4.62000,0.00000,-0.00891,0.01671,-0.98735,2023,6,12,13,27,15,938
0.12550,2.90500,-4.77750,0.00000,-0.00622,0.01781,-0.98649,2023,6,12,13,27,15,949
0.12560,2.90500,-4.72500,0.00000,-0.00830,0.01781,-0.98600,2023,6,12,13,27,15,960
0.12570,2.85250,-4.72500,0.00000,-0.00683,0.01452,-0.98722,2023,6,12,13,27,15,971
0.12580,2.74750,-4.58500,0.00000,-0.00659,0.01696,-0.98613,2023,6,12,13,27,16,2
0.12590,2.81750,-4.65500,0.00000,-0.00769,0.01598,-0.98759,2023,6,12,13,27,16,13
0.12600,3.01000,-4.72500,0.00000,-0.00732,0.01757,-0.98991,2023,6,12,13,27,16,24
0.12610,2.90500,-4.41000,0.00000,-0.00732,0.01818,-0.98478,2023,6,12,13,27,16,36
0.12620,2.92250,-4.55000,0.00000,-0.00659,0.01610,-0.98918,2023,6,12,13,27,16,47
0.12630,3.15000,-4.69000,0.00000,-0.00891,0.01537,-0.98637,2023,6,12,13,27,16,58
0.12640,2.78250,-4.77750,0.00000,-0.01037,0.01671,-0.98698,2023,6,12,13,27,16,69
0.12650,2.94000,-4.51500,0.00000,-0.01000,0.01635,-0.98869,2023,6,12,13,27,16,80
0.12660,2.95750,-4.84750,0.00000,-0.00732,0.01915,-0.98796,2023,6,12,13,27,16,91
0.12670,2.92250,-4.60250,0.00000,-0.00878,0.01562,-0.98698,2023,6,12,13,27,16,102
0.12680,3.04500,-4.49750,0.00000,-0.00647,0.01623,-0.98783,2023,6,12,13,27,16,113
0.12690,2.88750,-4.49750,0.00000,-0.00671,0.01598,-0.98674,2023,6,12,13,27,16,124
#2023/06/12 13:27:16
