#2023/06/12 14:17:44
time,wx,wy,wz,ax,ay,az,yy,MM,dd,hh,mm,ss,ms
0.00000,3.08000,-4.65500,0.00000,-0.00952,0.01452,-0.98844,2023,6,12,14,17,44,465
0.00010,2.97500,-4.55000,0.00000,-0.01037,0.00878,-0.98954,2023,6,12,14,17,44,476
0.00020,2.95750,-4.51500,0.00000,-0.01037,0.01025,-0.98783,2023,6,12,14,17,44,487
0.00030,2.73000,-4.39250,0.00000,-0.00878,0.01000,-0.98600,2023,6,12,14,17,44,498
0.00040,3.04500,-4.56750,0.00000,-0.01135,0.01061,-0.98771,2023,6,12,14,17,44,509
0.00050,2.99250,-4.48000,0.00000,-0.01061,0.01110,-0.98576,2023,6,12,14,17,44,520
0.00060,3.02750,-4.21750,0.00000,-0.01049,0.01000,-0.98832,2023,6,12,14,17,44,531
0.00070,2.69500,-4.37500,0.00000,-0.01037,0.01013,-0.98503,2023,6,12,14,17,44,542
0.00080,2.87000,-4.34000,0.00000,-0.01147,0.00854,-0.98771,2023,6,12,14,17,44,553
0.00090,2.99250,-4.55000,0.00000,-0.01122,0.01147,-0.98820,2023,6,12,14,17,44,564
0.00100,2.87000,-4.62000,0.00000,-0.01147,0.00744,-0.98942,2023,6,12,14,17,44,576
0.00110,2.88750,-4.67250,0.00000,-0.01074,0.00793,-0.98869,2023,6,12,14,17,44,587
0.00120,3.25500,-4.69000,0.00000,-0.01074,0.01074,-0.98503,2023,6,12,14,17,44,598
0.00130,2.83500,-4.48000,0.00000,-0.01110,0.00988,-0.98491,2023,6,12,14,17,44,609
0.00140,3.16750,-4.46250,0.00000,-0.01171,0.00976,-0.98710,2023,6,12,14,17,44,620
0.00150,2.95750,-4.53250,0.00000,-0.01220,0.00891,-0.98893,2023,6,12,14,17,44,631
0.00160,2.97500,-4.70750,0.00000,-0.01061,0.00830,-0.98698,2023,6,12,14,17,44,642
0.00170,2.88750,-4.37500,0.00000,-0.00964,0.01037,-0.98735,2023,6,12,14,17,44,653
0.00180,2.92250,-4.60250,0.00000,-0.01098,0.01122,-0.99101,2023,6,12,14,17,44,664
0.00190,2.85250,-4.39250,0.00000,-0.01037,0.01061,-0.98710,2023,6,12,14,17,44,676
0.00200,3.04500,-4.60250,0.00000,-0.01135,0.01013,-0.98832,2023,6,12,14,17,44,687
0.00210,3.01000,-4.65500,0.00000,-0.01110,0.00976,-0.98674,2023,6,12,14,17,44,698
0.00220,3.06250,-4.44500,0.00000,-0.01000,0.00866,-0.98783,2023,6,12,14,17,44,709
0.00230,2.80000,-4.48000,0.00000,-0.01037,0.00866,-0.98832,2023,6,12,14,17,44,720
0.00240,2.76500,-4.34000,0.00000,-0.01110,0.00939,-0.99040,2023,6,12,14,17,44,731
0.00250,2.97500,-4.63750,0.00000,-0.00854,0.00805,-0.98783,2023,6,12,14,17,44,742
0.00260,3.06250,-4.62000,0.00000,-0.01074,0.00939,-0.98698,2023,6,12,14,17,44,753
0.00270,3.08000,-4.70750,0.00000,-0.01098,0.00915,-0.98747,2023,6,12,14,17,44,764
0.00280,2.87000,-4.42750,0.00000,-0.01135,0.00976,-0.98698,2023,6,12,14,17,44,776
0.00290,3.08000,-4.67250,0.00000,-0.01269,0.01049,-0.98649,2023,6,12,14,17,44,787
0.00300,3.13250,-4.56750,0.00000,-0.00939,0.01061,-0.98686,2023,6,12,14,17,44,798
0.00310,2.81750,-4.39250,0.00000,-0.01232,0.00915,-0.98710,2023,6,12,14,17,44,809
0.00320,2.87000,-4.58500,0.00000,-0.01208,0.00866,-0.98820,2023,6,12,14,17,44,820
0.00330,3.01000,-4.46250,0.00000,-0.01098,0.01110,-0.98832,2023,6,12,14,17,44,831
0.00340,2.90500,-4.35750,0.00000,-0.01159,0.00939,-0.98930,2023,6,12,14,17,44,842
0.00350,2.81750,-4.58500,0.00000,-0.01232,0.01086,-0.98722,2023,6,12,14,17,44,853
0.00360,2.90500,-4.51500,0.00000,-0.00952,0.01061,-0.98686,2023,6,12,14,17,44,864
0.00370,3.02750,-4.56750,0.00000,-0.00793,0.01061,-0.98686,2023,6,12,14,17,44,876
0.00380,3.01000,-4.60250,0.00000,-0.00988,0.00976,-0.98893,2023,6,12,14,17,44,887
0.00390,2.95750,-4.58500,0.00000,-0.01110,0.00854,-0.98771,2023,6,12,14,17,44,898
0.00400,2.94000,-4.55000,0.00000,-0.01159,0.01122,-0.98600,2023,6,12,14,17,44,909
0.00410,3.16750,-4.88250,0.00000,-0.01025,0.00952,-0.98649,2023,6,12,14,17,44,920
0.00420,2.88750,-4.44500,0.00000,-0.01000,0.01013,-0.98698,2023,6,12,14,17,44,931
0.00430,2.94000,-4.51500,0.00000,-0.01025,0.00878,-0.98649,2023,6,12,14,17,44,942
0.00440,3.04500,-4.77750,0.00000,-0.01049,0.01086,-0.98759,2023,6,12,14,17,44,953
0.00450,3.01000,-4.53250,0.00000,-0.01098,0.01220,-0.98979,2023,6,12,14,17,44,964
0.00460,2.97500,-4.60250,0.00000,-0.01110,0.00976,-0.98722,2023,6,12,14,17,44,976
0.00470,3.04500,-4.58500,0.00000,-0.01135,0.01122,-0.99125,2023,6,12,14,17,44,987
0.00480,2.83500,-4.62000,0.00000,-0.01061,0.00952,-0.98588,2023,6,12,14,17,44,998
0.00490,2.94000,-4.46250,0.00000,-0.01025,0.01098,-0.98539,2023,6,12,14,17,44,9
0.00500,2.97500,-4.53250,0.00000,-0.01013,0.00903,-0.98686,2023,6,12,14,17,44,20
0.00510,2.95750,-4.65500,0.00000,-0.01061,0.01037,-0.98771,2023,6,12,14,17,44,31
0.00520,2.97500,-4.58500,0.00000,-0.01196,0.00988,-0.98661,2023,6,12,14,17,44,42
0.00530,3.08000,-4.60250,0.00000,-0.01086,0.01025,-0.98930,2023,6,12,14,17,44,53
0.00540,2.95750,-4.55000,0.00000,-0.01269,0.00817,-0.98698,2023,6,12,14,17,44,64
0.00550,3.08000,-4.77750,0.00000,-0.01183,0.00976,-0.98576,2023,6,12,14,17,44,76
0.00560,2.78250,-4.53250,0.00000,-0.01013,0.01037,-0.98808,2023,6,12,14,17,44,87
0.00570,2.92250,-4.55000,0.00000,-0.01086,0.01208,-0.98710,2023,6,12,14,17,44,98
0.00580,3.06250,-4.41000,0.00000,-0.01000,0.01110,-0.98905,2023,6,12,14,17,44,109
0.00590,3.11500,-4.58500,0.00000,-0.01208,0.00793,-0.98710,2023,6,12,14,17,44,120
0.00600,3.09750,-4.67250,0.00000,-0.01171,0.01013,-0.98613,2023,6,12,14,17,44,131
0.00610,2.90500,-4.60250,0.00000,-0.00842,0.01074,-0.98552,2023,6,12,14,17,44,142
0.00620,2.94000,-4.39250,0.00000,-0.00952,0.01000,-0.98771,2023,6,12,14,17,44,153
0.00630,3.02750,-4.67250,0.00000,-0.01147,0.01147,-0.98783,2023,6,12,14,17,44,164
0.00640,3.01000,-4.41000,0.00000,-0.01074,0.00830,-0.98698,2023,6,12,14,17,44,176
0.00650,3.06250,-4.56750,0.00000,-0.00976,0.01025,-0.98661,2023,6,12,14,17,44,187
0.00660,3.08000,-4.51500,0.00000,-0.01159,0.00927,-0.98832,2023,6,12,14,17,44,198
0.00670,2.99250,-4.70750,0.00000,-0.01135,0.01037,-0.98613,2023,6,12,14,17,44,209
0.00680,3.15000,-4.88250,0.00000,-0.01086,0.01135,-0.98735,2023,6,12,14,17,44,220
0.00690,2.99250,-4.49750,0.00000,-0.01318,0.00891,-0.98710,2023,6,12,14,17,44,231
0.00700,3.08000,-4.62000,0.00000,-0.01025,0.01159,-0.98661,2023,6,12,14,17,44,242
0.00710,3.11500,-4.63750,0.00000,-0.01257,0.00976,-0.98796,2023,6,12,14,17,44,253
0.00720,3.13250,-4.65500,0.00000,-0.01232,0.00781,-0.98722,2023,6,12,14,17,44,264
0.00730,2.94000,-4.44500,0.00000,-0.00964,0.00878,-0.98759,2023,6,12,14,17,44,276
0.00740,3.01000,-4.58500,0.00000,-0.01257,0.01037,-0.98808,2023,6,12,14,17,44,287
0.00750,2.85250,-4.53250,0.00000,-0.01159,0.01147,-0.98515,2023,6,12,14,17,44,298
0.00760,3.16750,-4.88250,0.00000,-0.01208,0.01183,-0.98417,2023,6,12,14,17,45,9
0.00770,2.97500,-4.62000,0.00000,-0.00952,0.00939,-0.98844,2023,6,12,14,17,45,20
0.00780,3.01000,-4.42750,0.00000,-0.00964,0.00939,-0.98722,2023,6,12,14,17,45,31
0.00790,2.74750,-4.67250,0.00000,-0.01049,0.00939,-0.98771,2023,6,12,14,17,45,42
0.00800,2.94000,-4.32250,0.00000,-0.01110,0.00988,-0.98637,2023,6,12,14,17,45,53
0.00810,3.01000,-4.83000,0.00000,-0.01098,0.01013,-0.99125,2023,6,12,14,17,45,64
0.00820,3.08000,-4.34000,0.00000,-0.01074,0.01025,-0.98698,2023,6,12,14,17,45,76
0.00830,3.02750,-4.56750,0.00000,-0.00988,0.00854,-0.98869,2023,6,12,14,17,45,87
0.00840,3.09750,-4.46250,0.00000,-0.01013,0.00793,-0.98759,2023,6,12,14,17,45,98
0.00850,2.83500,-4.51500,0.00000,-0.01232,0.01061,-0.98686,2023,6,12,14,17,45,109
0.00860,3.01000,-4.58500,0.00000,-0.01183,0.01013,-0.98942,2023,6,12,14,17,45,120
0.00870,2.90500,-4.42750,0.00000,-0.01110,0.01403,-0.98747,2023,6,12,14,17,45,131
0.00880,2.94000,-4.58500,0.00000,-0.00976,0.00903,-0.98783,2023,6,12,14,17,45,142
0.00890,3.01000,-4.56750,0.00000,-0.00817,0.00927,-0.98808,2023,6,12,14,17,45,153
0.00900,2.87000,-4.51500,0.00000,-0.00927,0.01086,-0.98808,2023,6,12,14,17,45,164
0.00910,2.87000,-4.35750,0.00000,-0.01135,0.00976,-0.98771,2023,6,12,14,17,45,176
0.00920,2.95750,-4.67250,0.00000,-0.00976,0.00964,-0.98564,2023,6,12,14,17,45,187
0.00930,2.99250,-4.63750,0.00000,-0.01208,0.01074,-0.98832,2023,6,12,14,17,45,198
0.00940,2.90500,-4.56750,0.00000,-0.01086,0.00793,-0.98905,2023,6,12,14,17,45,209
0.00950,2.97500,-4.62000,0.00000,-0.00952,0.00964,-0.98637,2023,6,12,14,17,45,220
0.00960,2.97500,-4.53250,0.00000,-0.01025,0.01159,-0.98710,2023,6,12,14,17,45,231
0.00970,2.94000,-4.39250,0.00000,-0.01061,0.01037,-0.98808,2023,6,12,14,17,45,242
0.00980,3.01000,-4.44500,0.00000,-0.01061,0.00939,-0.98979,2023,6,12,14,17,45,253
0.00990,3.02750,-4.48000,0.00000,-0.01098,0.00964,-0.98942,2023,6,12,14,17,45,264
0.01000,3.01000,-4.55000,0.00000,-0.01074,0.01086,-0.98674,2023,6,12,14,17,45,276
0.01010,2.97500,-4.51500,0.00000,-0.01061,0.01025,-0.98930,2023,6,12,14,17,45,287
0.01020,2.99250,-4.65500,0.00000,-0.01232,0.00769,-0.98783,2023,6,12,14,17,45,298
0.01030,2.97500,-4.70750,0.00000,-0.01086,0.00903,-0.98783,2023,6,12,14,17,45,309
0.01040,3.09750,-4.69000,0.00000,-0.01244,0.01074,-0.98698,2023,6,12,14,17,45,320
0.01050,2.85250,-4.41000,0.00000,-0.01061,0.01122,-0.98857,2023,6,12,14,17,45,331
0.01060,2.88750,-4.70750,0.00000,-0.00878,0.01135,-0.99003,2023,6,12,14,17,45,342
0.01070,3.09750,-4.53250,0.00000,-0.00939,0.00854,-0.98686,2023,6,12,14,17,45,353
0.01080,3.04500,-4.60250,0.00000,-0.00805,0.01074,-0.98564,2023,6,12,14,17,45,364
0.01090,2.94000,-4.42750,0.00000,-0.01135,0.00915,-0.98759,2023,6,12,14,17,45,376
0.01100,2.83500,-4.55000,0.00000,-0.01025,0.00952,-0.98881,2023,6,12,14,17,45,387
0.01110,3.04500,-4.35750,0.00000,-0.01013,0.01086,-0.98564,2023,6,12,14,17,45,398
0.01120,3.02750,-4.67250,0.00000,-0.00793,0.01147,-0.98796,2023,6,12,14,17,45,409
0.01130,2.80000,-4.53250,0.00000,-0.00952,0.01013,-0.98771,2023,6,12,14,17,45,420
0.01140,2.80000,-4.49750,0.00000,-0.01000,0.01049,-0.98771,2023,6,12,14,17,45,431
0.01150,2.99250,-4.58500,0.00000,-0.00976,0.00866,-0.98942,2023,6,12,14,17,45,442
0.01160,3.01000,-4.41000,0.00000,-0.01122,0.00927,-0.98649,2023,6,12,14,17,45,453
0.01170,2.81750,-4.56750,0.00000,-0.01330,0.01037,-0.98905,2023,6,12,14,17,45,464
0.01180,3.13250,-4.70750,0.00000,-0.01049,0.00964,-0.98564,2023,6,12,14,17,45,476
0.01190,2.95750,-4.58500,0.00000,-0.01122,0.01098,-0.98979,2023,6,12,14,17,45,487
0.01200,3.06250,-4.72500,0.00000,-0.00964,0.01257,-0.98686,2023,6,12,14,17,45,498
0.01210,2.92250,-4.42750,0.00000,-0.01098,0.01147,-0.98808,2023,6,12,14,17,45,509
0.01220,2.80000,-4.35750,0.00000,-0.01049,0.00915,-0.99113,2023,6,12,14,17,45,520
0.01230,3.08000,-4.65500,0.00000,-0.00976,0.01049,-0.98918,2023,6,12,14,17,45,531
0.01240,2.92250,-4.32250,0.00000,-0.01135,0.01074,-0.99040,2023,6,12,14,17,45,542
0.01250,3.04500,-4.55000,0.00000,-0.00805,0.00988,-0.99027,2023,6,12,14,17,45,553
0.01260,2.97500,-4.67250,0.00000,-0.01452,0.00830,-0.98661,2023,6,12,14,17,45,564
0.01270,3.15000,-4.67250,0.00000,-0.01074,0.01000,-0.98527,2023,6,12,14,17,45,576
0.01280,2.90500,-4.60250,0.00000,-0.00939,0.01183,-0.99003,2023,6,12,14,17,45,587
0.01290,3.01000,-4.67250,0.00000,-0.00988,0.01086,-0.98771,2023,6,12,14,17,45,598
0.01300,2.81750,-4.49750,0.00000,-0.01086,0.00939,-0.98808,2023,6,12,14,17,45,609
0.01310,3.06250,-4.74250,0.00000,-0.01037,0.01110,-0.98649,2023,6,12,14,17,45,620
0.01320,2.90500,-4.41000,0.00000,-0.01147,0.01049,-0.98649,2023,6,12,14,17,45,631
0.01330,3.15000,-4.74250,0.00000,-0.01159,0.01171,-0.98796,2023,6,12,14,17,45,642
0.01340,2.85250,-4.51500,0.00000,-0.01074,0.00878,-0.98674,2023,6,12,14,17,45,653
0.01350,3.04500,-4.44500,0.00000,-0.01305,0.00927,-0.98942,2023,6,12,14,17,45,664
0.01360,2.90500,-4.37500,0.00000,-0.00817,0.01135,-0.98905,2023,6,12,14,17,45,676
0.01370,2.87000,-4.56750,0.00000,-0.01147,0.01098,-0.98710,2023,6,12,14,17,45,687
0.01380,2.99250,-4.58500,0.00000,-0.01061,0.01000,-0.98783,2023,6,12,14,17,45,698
0.01390,2.94000,-4.51500,0.00000,-0.01086,0.00964,-0.98686,2023,6,12,14,17,45,709
0.01400,3.09750,-4.44500,0.00000,-0.01013,0.01061,-0.98674,2023,6,12,14,17,45,720
0.01410,2.95750,-4.46250,0.00000,-0.00976,0.01061,-0.98588,2023,6,12,14,17,45,731
0.01420,2.78250,-4.44500,0.00000,-0.01183,0.01000,-0.98857,2023,6,12,14,17,45,742
0.01430,3.06250,-4.60250,0.00000,-0.00915,0.01000,-0.98515,2023,6,12,14,17,45,753
0.01440,2.99250,-4.69000,0.00000,-0.01403,0.00927,-0.98747,2023,6,12,14,17,45,764
0.01450,2.95750,-4.62000,0.00000,-0.00927,0.00903,-0.98991,2023,6,12,14,17,45,776
0.01460,3.01000,-4.48000,0.00000,-0.01037,0.01000,-0.98771,2023,6,12,14,17,45,787
0.01470,3.06250,-4.30500,0.00000,-0.01110,0.00964,-0.98649,2023,6,12,14,17,45,798
0.01480,2.97500,-4.41000,0.00000,-0.00866,0.01037,-0.98930,2023,6,12,14,17,45,809
0.01490,2.95750,-4.49750,0.00000,-0.01122,0.00976,-0.98747,2023,6,12,14,17,45,820
0.01500,2.97500,-4.53250,0.00000,-0.00952,0.00805,-0.98857,2023,6,12,14,17,45,831
0.01510,2.90500,-4.44500,0.00000,-0.00976,0.01086,-0.99040,2023,6,12,14,17,45,842
0.01520,2.83500,-4.70750,0.00000,-0.01183,0.00805,-0.98893,2023,6,12,14,17,45,853
0.01530,3.04500,-4.56750,0.00000,-0.00939,0.01025,-0.98478,2023,6,12,14,17,45,864
0.01540,2.92250,-4.46250,0.00000,-0.01183,0.01000,-0.98820,2023,6,12,14,17,45,876
0.01550,2.83500,-4.69000,0.00000,-0.00964,0.00952,-0.98600,2023,6,12,14,17,45,887
0.01560,2.85250,-4.46250,0.00000,-0.01122,0.00927,-0.98979,2023,6,12,14,17,45,898
0.01570,3.02750,-4.44500,0.00000,-0.01049,0.00964,-0.98759,2023,6,12,14,17,45,909
0.01580,2.83500,-4.42750,0.00000,-0.00878,0.01098,-0.98747,2023,6,12,14,17,45,920
0.01590,2.92250,-4.55000,0.00000,-0.00927,0.00927,-0.99162,2023,6,12,14,17,45,931
0.01600,2.95750,-4.48000,0.00000,-0.01061,0.00976,-0.98844,2023,6,12,14,17,45,942
0.01610,2.94000,-4.69000,0.00000,-0.01110,0.01086,-0.98625,2023,6,12,14,17,45,953
0.01620,2.99250,-4.63750,0.00000,-0.00939,0.01122,-0.98759,2023,6,12,14,17,45,964
0.01630,3.09750,-4.56750,0.00000,-0.01013,0.01025,-0.98710,2023,6,12,14,17,45,976
0.01640,3.09750,-4.55000,0.00000,-0.01013,0.01110,-0.98869,2023,6,12,14,17,46,7
0.01650,2.97500,-4.49750,0.00000,-0.01257,0.01171,-0.98881,2023,6,12,14,17,46,18
0.01660,3.06250,-4.67250,0.00000,-0.01171,0.00939,-0.98759,2023,6,12,14,17,46,29
0.01670,2.90500,-4.35750,0.00000,-0.01049,0.01074,-0.98722,2023,6,12,14,17,46,40
0.01680,3.11500,-4.79500,0.00000,-0.00842,0.00805,-0.98905,2023,6,12,14,17,46,51
0.01690,2.92250,-4.49750,0.00000,-0.00976,0.00939,-0.98576,2023,6,12,14,17,46,62
0.01700,3.06250,-4.55000,0.00000,-0.00976,0.00866,-0.99003,2023,6,12,14,17,46,73
0.01710,2.87000,-4.37500,0.00000,-0.01232,0.01013,-0.98515,2023,6,12,14,17,46,84
0.01720,2.97500,-4.34000,0.00000,-0.01049,0.01452,-0.98771,2023,6,12,14,17,46,96
0.01730,3.22000,-4.58500,0.00000,-0.00952,0.00964,-0.98698,2023,6,12,14,17,46,107
0.01740,2.92250,-4.53250,0.00000,-0.00976,0.00866,-0.98918,2023,6,12,14,17,46,118
0.01750,2.95750,-4.42750,0.00000,-0.01379,0.00976,-0.98808,2023,6,12,14,17,46,129
0.01760,2.92250,-4.49750,0.00000,-0.01220,0.01183,-0.98698,2023,6,12,14,17,46,140
0.01770,2.99250,-4.35750,0.00000,-0.01196,0.00952,-0.98954,2023,6,12,14,17,46,151
0.01780,2.83500,-4.46250,0.00000,-0.01013,0.01025,-0.98796,2023,6,12,14,17,46,162
0.01790,3.20250,-4.51500,0.00000,-0.01061,0.01025,-0.98857,2023,6,12,14,17,46,173
0.01800,3.06250,-4.55000,0.00000,-0.01110,0.00988,-0.98637,2023,6,12,14,17,46,184
0.01810,2.94000,-4.39250,0.00000,-0.01318,0.01074,-0.98674,2023,6,12,14,17,46,196
0.01820,3.04500,-4.70750,0.00000,-0.01025,0.01086,-0.98783,2023,6,12,14,17,46,207
0.01830,2.97500,-4.48000,0.00000,-0.01086,0.00964,-0.98735,2023,6,12,14,17,46,218
0.01840,2.90500,-4.42750,0.00000,-0.01183,0.00988,-0.98527,2023,6,12,14,17,46,229
0.01850,2.94000,-4.34000,0.00000,-0.01098,0.01074,-0.98930,2023,6,12,14,17,46,240
0.01860,2.78250,-4.32250,0.00000,-0.01037,0.01098,-0.98771,2023,6,12,14,17,46,251
0.01870,3.01000,-4.51500,0.00000,-0.01061,0.01025,-0.98759,2023,6,12,14,17,46,262
0.01880,2.83500,-4.62000,0.00000,-0.01025,0.00866,-0.98710,2023,6,12,14,17,46,273
0.01890,3.06250,-4.58500,0.00000,-0.01196,0.00976,-0.98649,2023,6,12,14,17,46,284
0.01900,2.94000,-4.48000,0.00000,-0.01049,0.00927,-0.98576,2023,6,12,14,17,46,296
0.01910,3.11500,-4.58500,0.00000,-0.01135,0.01147,-0.98783,2023,6,12,14,17,46,307
0.01920,2.97500,-4.49750,0.00000,-0.01061,0.01086,-0.98686,2023,6,12,14,17,46,318
0.01930,3.04500,-4.37500,0.00000,-0.01110,0.01244,-0.98735,2023,6,12,14,17,46,329
0.01940,2.71250,-4.55000,0.00000,-0.01318,0.01183,-0.98710,2023,6,12,14,17,46,340
0.01950,2.83500,-4.53250,0.00000,-0.00964,0.01037,-0.98674,2023,6,12,14,17,46,351
0.01960,2.90500,-4.37500,0.00000,-0.00903,0.01159,-0.98783,2023,6,12,14,17,46,362
0.01970,2.97500,-4.42750,0.00000,-0.00878,0.00939,-0.98820,2023,6,12,14,17,46,373
0.01980,3.06250,-4.49750,0.00000,-0.01171,0.01061,-0.98966,2023,6,12,14,17,46,384
0.01990,2.78250,-4.55000,0.00000,-0.01379,0.01183,-0.98893,2023,6,12,14,17,46,396
0.02000,2.90500,-4.51500,0.00000,-0.01000,0.01098,-0.99015,2023,6,12,14,17,46,407
0.02010,3.04500,-4.39250,0.00000,-0.01037,0.01049,-0.99052,2023,6,12,14,17,46,418
0.02020,2.99250,-4.60250,0.00000,-0.01159,0.00976,-0.98844,2023,6,12,14,17,46,429
0.02030,2.95750,-4.49750,0.00000,-0.01232,0.01013,-0.98759,2023,6,12,14,17,46,440
0.02040,3.08000,-4.60250,0.00000,-0.01257,0.01159,-0.98771,2023,6,12,14,17,46,451
0.02050,2.99250,-4.39250,0.00000,-0.00878,0.01098,-0.98491,2023,6,12,14,17,46,462
0.02060,3.01000,-4.44500,0.00000,-0.00952,0.01122,-0.99113,2023,6,12,14,17,46,473
0.02070,2.90500,-4.55000,0.00000,-0.01257,0.00988,-0.98832,2023,6,12,14,17,46,484
0.02080,2.80000,-4.51500,0.00000,-0.01171,0.00830,-0.98844,2023,6,12,14,17,46,496
0.02090,3.09750,-4.41000,0.00000,-0.01061,0.01208,-0.98735,2023,6,12,14,17,46,507
0.02100,2.87000,-4.32250,0.00000,-0.01086,0.00939,-0.98747,2023,6,12,14,17,46,518
0.02110,2.83500,-4.30500,0.00000,-0.01061,0.01183,-0.98820,2023,6,12,14,17,46,529
0.02120,2.95750,-4.37500,0.00000,-0.01281,0.01025,-0.98881,2023,6,12,14,17,46,540
0.02130,3.02750,-4.53250,0.00000,-0.01135,0.00976,-0.98820,2023,6,12,14,17,46,551
0.02140,2.85250,-4.49750,0.00000,-0.01037,0.01135,-0.98759,2023,6,12,14,17,46,562
0.02150,3.01000,-4.62000,0.00000,-0.00903,0.01098,-0.98930,2023,6,12,14,17,46,573
0.02160,3.06250,-4.56750,0.00000,-0.01013,0.00952,-0.98771,2023,6,12,14,17,46,584
0.02170,2.97500,-4.30500,0.00000,-0.01013,0.01000,-0.98747,2023,6,12,14,17,46,596
0.02180,2.90500,-4.32250,0.00000,-0.01110,0.01159,-0.98661,2023,6,12,14,17,46,607
0.02190,2.92250,-4.56750,0.00000,-0.00842,0.01183,-0.98735,2023,6,12,14,17,46,618
0.02200,2.87000,-4.58500,0.00000,-0.00976,0.01025,-0.98783,2023,6,12,14,17,46,629
0.02210,3.13250,-4.55000,0.00000,-0.01037,0.01037,-0.98954,2023,6,12,14,17,46,640
0.02220,2.90500,-4.63750,0.00000,-0.01244,0.00805,-0.98954,2023,6,12,14,17,46,651
0.02230,2.87000,-4.55000,0.00000,-0.01171,0.01000,-0.98771,2023,6,12,14,17,46,662
0.02240,2.95750,-4.58500,0.00000,-0.01183,0.01049,-0.98600,2023,6,12,14,17,46,673
0.02250,2.90500,-4.48000,0.00000,-0.01342,0.01000,-0.98686,2023,6,12,14,17,46,684
0.02260,3.04500,-4.44500,0.00000,-0.01013,0.01147,-0.98674,2023,6,12,14,17,46,696
0.02270,2.90500,-4.49750,0.00000,-0.01049,0.00939,-0.98954,2023,6,12,14,17,46,707
0.02280,2.88750,-4.37500,0.00000,-0.01086,0.01086,-0.98796,2023,6,12,14,17,46,718
0.02290,2.87000,-4.53250,0.00000,-0.01061,0.01000,-0.98600,2023,6,12,14,17,46,729
0.02300,2.97500,-4.53250,0.00000,-0.01427,0.01037,-0.98698,2023,6,12,14,17,46,740
0.02310,3.01000,-4.42750,0.00000,-0.01147,0.00976,-0.98759,2023,6,12,14,17,46,751
0.02320,2.80000,-4.72500,0.00000,-0.01208,0.01159,-0.98783,2023,6,12,14,17,46,762
0.02330,2.88750,-4.46250,0.00000,-0.00927,0.01061,-0.98735,2023,6,12,14,17,46,773
0.02340,2.85250,-4.58500,0.00000,-0.00964,0.01025,-0.98735,2023,6,12,14,17,46,784
0.02350,3.04500,-4.53250,0.00000,-0.01257,0.01000,-0.98905,2023,6,12,14,17,46,796
0.02360,2.85250,-4.60250,0.00000,-0.01037,0.01025,-0.98600,2023,6,12,14,17,46,807
0.02370,3.06250,-4.41000,0.00000,-0.00927,0.00976,-0.98637,2023,6,12,14,17,46,818
0.02380,3.02750,-4.62000,0.00000,-0.01220,0.01122,-0.98661,2023,6,12,14,17,46,829
0.02390,2.81750,-4.56750,0.00000,-0.01159,0.00830,-0.98796,2023,6,12,14,17,46,840
0.02400,2.90500,-4.37500,0.00000,-0.01110,0.01354,-0.98905,2023,6,12,14,17,46,851
0.02410,2.78250,-4.51500,0.00000,-0.00952,0.01232,-0.98491,2023,6,12,14,17,46,862
0.02420,3.01000,-4.49750,0.00000,-0.01086,0.01098,-0.98735,2023,6,12,14,17,46,873
0.02430,2.83500,-4.30500,0.00000,-0.01135,0.01013,-0.98954,2023,6,12,14,17,46,884
0.02440,2.78250,-4.39250,0.00000,-0.00903,0.01061,-0.98356,2023,6,12,14,17,46,896
0.02450,2.95750,-4.46250,0.00000,-0.00854,0.01171,-0.98893,2023,6,12,14,17,46,907
0.02460,2.99250,-4.60250,0.00000,-0.00903,0.01025,-0.98930,2023,6,12,14,17,46,918
0.02470,3.06250,-4.69000,0.00000,-0.01098,0.00854,-0.98857,2023,6,12,14,17,46,929
0.02480,2.90500,-4.32250,0.00000,-0.01147,0.01074,-0.98735,2023,6,12,14,17,46,940
0.02490,3.11500,-4.60250,0.00000,-0.00976,0.01037,-0.98771,2023,6,12,14,17,46,951
0.02500,3.06250,-4.62000,0.00000,-0.01013,0.01171,-0.98905,2023,6,12,14,17,46,962
0.02510,2.83500,-4.51500,0.00000,-0.00988,0.01196,-0.98771,2023,6,12,14,17,46,973
0.02520,3.25500,-4.53250,0.00000,-0.01074,0.00756,-0.98966,2023,6,12,14,17,47,4
0.02530,2.97500,-4.67250,0.00000,-0.01074,0.01257,-0.98991,2023,6,12,14,17,47,16
0.02540,3.06250,-4.62000,0.00000,-0.01220,0.00915,-0.98515,2023,6,12,14,17,47,27
0.02550,3.02750,-4.56750,0.00000,-0.01135,0.01110,-0.98808,2023,6,12,14,17,47,38
0.02560,3.06250,-4.46250,0.00000,-0.01098,0.00854,-0.98881,2023,6,12,14,17,47,49
0.02570,2.87000,-4.42750,0.00000,-0.01135,0.01074,-0.98966,2023,6,12,14,17,47,60
0.02580,2.85250,-4.55000,0.00000,-0.00891,0.01074,-0.99052,2023,6,12,14,17,47,71
0.02590,2.78250,-4.53250,0.00000,-0.01037,0.00988,-0.98857,2023,6,12,14,17,47,82
0.02600,2.94000,-4.60250,0.00000,-0.00878,0.01135,-0.98552,2023,6,12,14,17,47,93
0.02610,2.97500,-4.41000,0.00000,-0.01013,0.00976,-0.98954,2023,6,12,14,17,47,104
0.02620,2.97500,-4.49750,0.00000,-0.01061,0.00817,-0.98881,2023,6,12,14,17,47,116
0.02630,3.18500,-4.58500,0.00000,-0.01171,0.01086,-0.98637,2023,6,12,14,17,47,127
0.02640,2.94000,-4.23500,0.00000,-0.01147,0.00988,-0.99101,2023,6,12,14,17,47,138
0.02650,2.83500,-4.58500,0.00000,-0.01049,0.00891,-0.98918,2023,6,12,14,17,47,149
0.02660,2.92250,-4.39250,0.00000,-0.01269,0.00952,-0.98893,2023,6,12,14,17,47,160
0.02670,2.99250,-4.42750,0.00000,-0.01086,0.01098,-0.98747,2023,6,12,14,17,47,171
0.02680,2.95750,-4.44500,0.00000,-0.01074,0.00988,-0.98991,2023,6,12,14,17,47,182
0.02690,3.01000,-4.51500,0.00000,-0.01196,0.01025,-0.98747,2023,6,12,14,17,47,193
0.02700,2.76500,-4.39250,0.00000,-0.01281,0.01025,-0.98844,2023,6,12,14,17,47,204
0.02710,2.87000,-4.41000,0.00000,-0.01415,0.01000,-0.99015,2023,6,12,14,17,47,216
0.02720,3.06250,-4.70750,0.00000,-0.00927,0.01049,-0.98735,2023,6,12,14,17,47,227
0.02730,2.85250,-4.46250,0.00000,-0.01122,0.01061,-0.98625,2023,6,12,14,17,47,238
0.02740,2.92250,-4.39250,0.00000,-0.01000,0.01208,-0.98442,2023,6,12,14,17,47,249
0.02750,2.88750,-4.62000,0.00000,-0.01049,0.00903,-0.98613,2023,6,12,14,17,47,260
0.02760,2.97500,-4.55000,0.00000,-0.00854,0.01049,-0.98857,2023,6,12,14,17,47,271
0.02770,3.09750,-4.53250,0.00000,-0.00903,0.00976,-0.98686,2023,6,12,14,17,47,282
0.02780,2.80000,-4.42750,0.00000,-0.01159,0.00891,-0.98625,2023,6,12,14,17,47,293
0.02790,2.94000,-4.49750,0.00000,-0.01147,0.00952,-0.98722,2023,6,12,14,17,47,304
0.02800,3.06250,-4.41000,0.00000,-0.00976,0.01147,-0.98710,2023,6,12,14,17,47,316
0.02810,2.76500,-4.49750,0.00000,-0.01061,0.00952,-0.99198,2023,6,12,14,17,47,327
0.02820,2.80000,-4.44500,0.00000,-0.01074,0.01257,-0.98698,2023,6,12,14,17,47,338
0.02830,2.92250,-4.58500,0.00000,-0.01379,0.00939,-0.98613,2023,6,12,14,17,47,349
0.02840,3.04500,-4.63750,0.00000,-0.00976,0.01074,-0.98905,2023,6,12,14,17,47,360
0.02850,3.01000,-4.55000,0.00000,-0.01196,0.01135,-0.98613,2023,6,12,14,17,47,371
0.02860,3.04500,-4.58500,0.00000,-0.01305,0.01000,-0.98613,2023,6,12,14,17,47,382
0.02870,3.11500,-4.55000,0.00000,-0.01074,0.01122,-0.98832,2023,6,12,14,17,47,393
0.02880,2.87000,-4.41000,0.00000,-0.01061,0.01086,-0.98600,2023,6,12,14,17,47,404
0.02890,3.04500,-4.55000,0.00000,-0.01354,0.00915,-0.98857,2023,6,12,14,17,47,416
0.02900,2.95750,-4.53250,0.00000,-0.01110,0.00939,-0.98661,2023,6,12,14,17,47,427
0.02910,2.85250,-4.62000,0.00000,-0.01147,0.01086,-0.98820,2023,6,12,14,17,47,438
0.02920,3.01000,-4.65500,0.00000,-0.00952,0.00903,-0.98918,2023,6,12,14,17,47,449
0.02930,3.25500,-4.51500,0.00000,-0.00891,0.00976,-0.98576,2023,6,12,14,17,47,460
0.02940,2.88750,-4.51500,0.00000,-0.01086,0.00939,-0.98698,2023,6,12,14,17,47,471
0.02950,2.90500,-4.55000,0.00000,-0.01110,0.01098,-0.98832,2023,6,12,14,17,47,482
0.02960,2.92250,-4.56750,0.00000,-0.01135,0.00939,-0.98820,2023,6,12,14,17,47,493
0.02970,2.88750,-4.60250,0.00000,-0.00952,0.01037,-0.98942,2023,6,12,14,17,47,504
0.02980,3.01000,-4.76000,0.00000,-0.01232,0.01037,-0.98698,2023,6,12,14,17,47,516
0.02990,2.88750,-4.49750,0.00000,-0.01025,0.01013,-0.98832,2023,6,12,14,17,47,527
0.03000,2.80000,-4.48000,0.00000,-0.01098,0.01074,-0.98930,2023,6,12,14,17,47,538
0.03010,2.85250,-4.37500,0.00000,-0.01135,0.00805,-0.98674,2023,6,12,14,17,47,549
0.03020,3.06250,-4.55000,0.00000,-0.01061,0.00878,-0.98783,2023,6,12,14,17,47,560
0.03030,2.87000,-4.30500,0.00000,-0.01086,0.00988,-0.98832,2023,6,12,14,17,47,571
0.03040,2.99250,-4.65500,0.00000,-0.00952,0.01220,-0.99186,2023,6,12,14,17,47,582
0.03050,2.87000,-4.37500,0.00000,-0.01098,0.00939,-0.98698,2023,6,12,14,17,47,593
0.03060,3.04500,-4.48000,0.00000,-0.00927,0.00854,-0.98942,2023,6,12,14,17,47,604
0.03070,2.90500,-4.65500,0.00000,-0.01098,0.00976,-0.98661,2023,6,12,14,17,47,616
0.03080,3.11500,-4.49750,0.00000,-0.00891,0.00866,-0.98954,2023,6,12,14,17,47,627
0.03090,3.06250,-4.49750,0.00000,-0.01159,0.01037,-0.98698,2023,6,12,14,17,47,638
0.03100,3.11500,-4.48000,0.00000,-0.01086,0.01049,-0.98954,2023,6,12,14,17,47,649
0.03110,3.02750,-4.49750,0.00000,-0.00781,0.01000,-0.99052,2023,6,12,14,17,47,660
0.03120,3.04500,-4.58500,0.00000,-0.01147,0.00964,-0.98991,2023,6,12,14,17,47,671
0.03130,3.04500,-4.53250,0.00000,-0.01196,0.01037,-0.98454,2023,6,12,14,17,47,682
0.03140,2.95750,-4.35750,0.00000,-0.01074,0.00915,-0.98857,2023,6,12,14,17,47,693
0.03150,2.73000,-4.48000,0.00000,-0.00976,0.01086,-0.98820,2023,6,12,14,17,47,704
0.03160,2.90500,-4.44500,0.00000,-0.01135,0.01098,-0.98722,2023,6,12,14,17,47,716
0.03170,2.97500,-4.63750,0.00000,-0.00952,0.00964,-0.98674,2023,6,12,14,17,47,727
0.03180,2.95750,-4.62000,0.00000,-0.01110,0.01098,-0.99088,2023,6,12,14,17,47,738
0.03190,2.94000,-4.51500,0.00000,-0.01025,0.01025,-0.98686,2023,6,12,14,17,47,749
0.03200,2.80000,-4.46250,0.00000,-0.01269,0.01000,-0.98979,2023,6,12,14,17,47,760
0.03210,2.85250,-4.37500,0.00000,-0.00927,0.01049,-0.98698,2023,6,12,14,17,47,771
0.03220,2.94000,-4.60250,0.00000,-0.01147,0.01208,-0.98552,2023,6,12,14,17,47,782
0.03230,2.87000,-4.65500,0.00000,-0.01208,0.01208,-0.98686,2023,6,12,14,17,47,793
0.03240,3.16750,-4.62000,0.00000,-0.01122,0.01037,-0.98796,2023,6,12,14,17,47,804
0.03250,3.15000,-4.35750,0.00000,-0.00842,0.00659,-0.98844,2023,6,12,14,17,47,816
0.03260,3.01000,-4.63750,0.00000,-0.01147,0.00878,-0.99003,2023,6,12,14,17,47,827
0.03270,3.01000,-4.56750,0.00000,-0.01330,0.01061,-0.98893,2023,6,12,14,17,47,838
0.03280,2.88750,-4.35750,0.00000,-0.00976,0.01074,-0.98442,2023,6,12,14,17,47,849
0.03290,2.94000,-4.46250,0.00000,-0.01037,0.00939,-0.98735,2023,6,12,14,17,47,860
0.03300,3.18500,-4.58500,0.00000,-0.01220,0.01025,-0.98552,2023,6,12,14,17,47,871
0.03310,2.92250,-4.63750,0.00000,-0.01049,0.01122,-0.99027,2023,6,12,14,17,47,882
0.03320,2.99250,-4.39250,0.00000,-0.01074,0.01183,-0.98576,2023,6,12,14,17,47,893
0.03330,2.97500,-4.63750,0.00000,-0.01135,0.01000,-0.98613,2023,6,12,14,17,47,904
0.03340,3.01000,-4.28750,0.00000,-0.01147,0.00927,-0.98808,2023,6,12,14,17,47,916
0.03350,3.01000,-4.70750,0.00000,-0.01135,0.01061,-0.98881,2023,6,12,14,17,47,927
0.03360,3.04500,-4.44500,0.00000,-0.01135,0.01049,-0.98747,2023,6,12,14,17,47,938
0.03370,3.08000,-4.48000,0.00000,-0.01086,0.00952,-0.98796,2023,6,12,14,17,47,949
0.03380,2.87000,-4.46250,0.00000,-0.00988,0.00976,-0.99015,2023,6,12,14,17,47,960
0.03390,2.88750,-4.51500,0.00000,-0.00903,0.00878,-0.98954,2023,6,12,14,17,47,971
0.03400,2.90500,-4.51500,0.00000,-0.01037,0.01135,-0.98796,2023,6,12,14,17,48,2
0.03410,2.99250,-4.51500,0.00000,-0.01305,0.00903,-0.99015,2023,6,12,14,17,48,13
0.03420,2.78250,-4.53250,0.00000,-0.01220,0.01318,-0.98759,2023,6,12,14,17,48,24
0.03430,2.99250,-4.53250,0.00000,-0.01159,0.00903,-0.98661,2023,6,12,14,17,48,36
0.03440,2.95750,-4.63750,0.00000,-0.00891,0.01110,-0.98661,2023,6,12,14,17,48,47
0.03450,2.95750,-4.49750,0.00000,-0.01147,0.00988,-0.98893,2023,6,12,14,17,48,58
0.03460,3.02750,-4.44500,0.00000,-0.00891,0.00927,-0.98564,2023,6,12,14,17,48,69
0.03470,2.88750,-4.44500,0.00000,-0.01232,0.01074,-0.98954,2023,6,12,14,17,48,80
0.03480,3.06250,-4.48000,0.00000,-0.01074,0.01013,-0.98759,2023,6,12,14,17,48,91
0.03490,2.88750,-4.55000,0.00000,-0.01000,0.00854,-0.98857,2023,6,12,14,17,48,102
0.03500,2.80000,-4.49750,0.00000,-0.01025,0.00805,-0.98857,2023,6,12,14,17,48,113
0.03510,3.01000,-4.53250,0.00000,-0.00927,0.00939,-0.98796,2023,6,12,14,17,48,124
0.03520,2.95750,-4.55000,0.00000,-0.01159,0.01025,-0.98808,2023,6,12,14,17,48,136
0.03530,3.08000,-4.55000,0.00000,-0.01183,0.01183,-0.98698,2023,6,12,14,17,48,147
0.03540,2.81750,-4.55000,0.00000,-0.01049,0.01244,-0.98686,2023,6,12,14,17,48,158
0.03550,2.80000,-4.60250,0.00000,-0.01183,0.01171,-0.99040,2023,6,12,14,17,48,169
0.03560,2.85250,-4.34000,0.00000,-0.01086,0.01049,-0.98881,2023,6,12,14,17,48,180
0.03570,3.01000,-4.65500,0.00000,-0.01281,0.01135,-0.98942,2023,6,12,14,17,48,191
0.03580,2.95750,-4.39250,0.00000,-0.00952,0.00915,-0.98954,2023,6,12,14,17,48,202
0.03590,2.83500,-4.56750,0.00000,-0.01061,0.01049,-0.98564,2023,6,12,14,17,48,213
0.03600,2.94000,-4.53250,0.00000,-0.01171,0.00805,-0.98588,2023,6,12,14,17,48,224
0.03610,2.85250,-4.48000,0.00000,-0.01147,0.01208,-0.98808,2023,6,12,14,17,48,236
0.03620,2.94000,-4.49750,0.00000,-0.01037,0.01013,-0.98588,2023,6,12,14,17,48,247
0.03630,2.95750,-4.70750,0.00000,-0.01074,0.01061,-0.98918,2023,6,12,14,17,48,258
0.03640,3.09750,-4.55000,0.00000,-0.01159,0.01171,-0.98881,2023,6,12,14,17,48,269
0.03650,2.92250,-4.62000,0.00000,-0.01000,0.00915,-0.98783,2023,6,12,14,17,48,280
0.03660,3.15000,-4.46250,0.00000,-0.01135,0.00903,-0.98881,2023,6,12,14,17,48,291
0.03670,2.88750,-4.46250,0.00000,-0.01135,0.00817,-0.98661,2023,6,12,14,17,48,302
0.03680,2.95750,-4.44500,0.00000,-0.00927,0.00781,-0.98820,2023,6,12,14,17,48,313
0.03690,3.04500,-4.70750,0.00000,-0.01098,0.01049,-0.98796,2023,6,12,14,17,48,324
0.03700,2.69500,-4.48000,0.00000,-0.01135,0.01049,-0.98771,2023,6,12,14,17,48,336
0.03710,3.01000,-4.44500,0.00000,-0.01000,0.00939,-0.98588,2023,6,12,14,17,48,347
0.03720,2.83500,-4.63750,0.00000,-0.01171,0.01379,-0.99027,2023,6,12,14,17,48,358
0.03730,2.94000,-4.63750,0.00000,-0.01122,0.00915,-0.98564,2023,6,12,14,17,48,369
0.03740,2.87000,-4.51500,0.00000,-0.01208,0.01171,-0.98686,2023,6,12,14,17,48,380
0.03750,2.90500,-4.42750,0.00000,-0.01196,0.00903,-0.98991,2023,6,12,14,17,48,391
0.03760,3.09750,-4.77750,0.00000,-0.01122,0.00915,-0.98820,2023,6,12,14,17,48,402
0.03770,2.95750,-4.42750,0.00000,-0.01025,0.00866,-0.98991,2023,6,12,14,17,48,413
0.03780,2.99250,-4.60250,0.00000,-0.00952,0.01305,-0.98942,2023,6,12,14,17,48,424
0.03790,3.02750,-4.69000,0.00000,-0.00866,0.01000,-0.98918,2023,6,12,14,17,48,436
0.03800,2.80000,-4.37500,0.00000,-0.01147,0.00866,-0.98747,2023,6,12,14,17,48,447
0.03810,2.88750,-4.48000,0.00000,-0.01122,0.01000,-0.98710,2023,6,12,14,17,48,458
0.03820,2.90500,-4.44500,0.00000,-0.00927,0.01025,-0.98661,2023,6,12,14,17,48,469
0.03830,3.11500,-4.53250,0.00000,-0.01403,0.00817,-0.98735,2023,6,12,14,17,48,480
0.03840,2.94000,-4.41000,0.00000,-0.01122,0.01049,-0.98735,2023,6,12,14,17,48,491
0.03850,2.99250,-4.72500,0.00000,-0.01000,0.01086,-0.98771,2023,6,12,14,17,48,502
0.03860,3.01000,-4.49750,0.00000,-0.00915,0.00988,-0.98844,2023,6,12,14,17,48,513
0.03870,2.90500,-4.53250,0.00000,-0.01147,0.01037,-0.98796,2023,6,12,14,17,48,524
0.03880,2.88750,-4.60250,0.00000,-0.01013,0.01122,-0.98552,2023,6,12,14,17,48,536
0.03890,2.99250,-4.65500,0.00000,-0.01074,0.00927,-0.99064,2023,6,12,14,17,48,547
0.03900,2.99250,-4.58500,0.00000,-0.01232,0.01000,-0.98844,2023,6,12,14,17,48,558
0.03910,2.99250,-4.65500,0.00000,-0.00988,0.01098,-0.98564,2023,6,12,14,17,48,569
0.03920,3.16750,-4.65500,0.00000,-0.01098,0.01135,-0.98808,2023,6,12,14,17,48,580
0.03930,2.64250,-4.46250,0.00000,-0.01000,0.01098,-0.98844,2023,6,12,14,17,48,591
0.03940,2.95750,-4.39250,0.00000,-0.01220,0.00683,-0.99064,2023,6,12,14,17,48,602
0.03950,2.88750,-4.49750,0.00000,-0.01074,0.00952,-0.98979,2023,6,12,14,17,48,613
0.03960,3.01000,-4.53250,0.00000,-0.01013,0.01013,-0.98698,2023,6,12,14,17,48,624
0.03970,3.04500,-4.55000,0.00000,-0.01049,0.01159,-0.98905,2023,6,12,14,17,48,636
0.03980,3.02750,-4.55000,0.00000,-0.01122,0.01171,-0.98552,2023,6,12,14,17,48,647
0.03990,2.81750,-4.35750,0.00000,-0.01049,0.00964,-0.98808,2023,6,12,14,17,48,658
0.04000,3.02750,-4.46250,0.00000,-0.01013,0.01110,-0.98588,2023,6,12,14,17,48,669
0.04010,3.11500,-4.62000,0.00000,-0.01122,0.01086,-0.99149,2023,6,12,14,17,48,680
0.04020,2.92250,-4.58500,0.00000,-0.01171,0.01000,-0.98747,2023,6,12,14,17,48,691
0.04030,3.04500,-4.74250,0.00000,-0.01098,0.00976,-0.98771,2023,6,12,14,17,48,702
0.04040,3.02750,-4.44500,0.00000,-0.00952,0.01025,-0.98649,2023,6,12,14,17,48,713
0.04050,2.94000,-4.62000,0.00000,-0.01232,0.01293,-0.98869,2023,6,12,14,17,48,724
0.04060,2.81750,-4.55000,0.00000,-0.01025,0.00903,-0.98808,2023,6,12,14,17,48,736
0.04070,3.01000,-4.77750,0.00000,-0.01000,0.01049,-0.98979,2023,6,12,14,17,48,747
0.04080,2.87000,-4.30500,0.00000,-0.01110,0.00866,-0.98649,2023,6,12,14,17,48,758
0.04090,2.92250,-4.37500,0.00000,-0.00939,0.01135,-0.98491,2023,6,12,14,17,48,769
0.04100,3.01000,-4.53250,0.00000,-0.01098,0.00988,-0.98783,2023,6,12,14,17,48,780
0.04110,3.02750,-4.55000,0.00000,-0.01098,0.01000,-0.98735,2023,6,12,14,17,48,791
0.04120,3.15000,-4.46250,0.00000,-0.01013,0.00952,-0.98442,2023,6,12,14,17,48,802
0.04130,2.74750,-4.42750,0.00000,-0.01196,0.00927,-0.98735,2023,6,12,14,17,48,813
0.04140,2.94000,-4.72500,0.00000,-0.00903,0.00939,-0.98588,2023,6,12,14,17,48,824
0.04150,2.87000,-4.25250,0.00000,-0.01147,0.00988,-0.98686,2023,6,12,14,17,48,836
0.04160,2.90500,-4.51500,0.00000,-0.01049,0.01061,-0.98491,2023,6,12,14,17,48,847
0.04170,3.02750,-4.55000,0.00000,-0.01000,0.00988,-0.98674,2023,6,12,14,17,48,858
0.04180,2.88750,-4.63750,0.00000,-0.00952,0.01159,-0.98710,2023,6,12,14,17,48,869
0.04190,2.94000,-4.63750,0.00000,-0.01269,0.01110,-0.98710,2023,6,12,14,17,48,880
0.04200,2.92250,-4.62000,0.00000,-0.01208,0.01147,-0.98796,2023,6,12,14,17,48,891
0.04210,2.97500,-4.35750,0.00000,-0.01086,0.01049,-0.98820,2023,6,12,14,17,48,902
0.04220,3.02750,-4.53250,0.00000,-0.01135,0.01122,-0.98820,2023,6,12,14,17,48,913
0.04230,2.88750,-4.56750,0.00000,-0.01037,0.01000,-0.98857,2023,6,12,14,17,48,924
0.04240,2.80000,-4.58500,0.00000,-0.00903,0.00891,-0.98857,2023,6,12,14,17,48,936
0.04250,2.92250,-4.49750,0.00000,-0.01147,0.00927,-0.98991,2023,6,12,14,17,48,947
0.04260,3.06250,-4.39250,0.00000,-0.00854,0.00927,-0.98942,2023,6,12,14,17,48,958
0.04270,2.80000,-4.48000,0.00000,-0.00976,0.00964,-0.98844,2023,6,12,14,17,48,969
0.04280,2.95750,-4.44500,0.00000,-0.00952,0.00854,-0.98564,2023,6,12,14,17,49,0
0.04290,3.09750,-4.48000,0.00000,-0.00842,0.00903,-0.98625,2023,6,12,14,17,49,11
0.04300,3.13250,-4.56750,0.00000,-0.01013,0.00964,-0.98808,2023,6,12,14,17,49,22
0.04310,3.08000,-4.56750,0.00000,-0.00878,0.01025,-0.99003,2023,6,12,14,17,49,33
0.04320,2.88750,-4.63750,0.00000,-0.01110,0.01061,-0.98796,2023,6,12,14,17,49,44
0.04330,3.08000,-4.49750,0.00000,-0.01135,0.01257,-0.98600,2023,6,12,14,17,49,56
0.04340,3.04500,-4.67250,0.00000,-0.01257,0.01086,-0.98613,2023,6,12,14,17,49,67
0.04350,2.80000,-4.60250,0.00000,-0.01098,0.00769,-0.98649,2023,6,12,14,17,49,78
0.04360,2.83500,-4.25250,0.00000,-0.01037,0.01086,-0.98820,2023,6,12,14,17,49,89
0.04370,2.85250,-4.70750,0.00000,-0.01025,0.01098,-0.98844,2023,6,12,14,17,49,100
0.04380,2.95750,-4.55000,0.00000,-0.01086,0.00793,-0.99137,2023,6,12,14,17,49,111
0.04390,3.04500,-4.27000,0.00000,-0.01049,0.00903,-0.98869,2023,6,12,14,17,49,122
0.04400,2.87000,-4.55000,0.00000,-0.01074,0.00988,-0.98698,2023,6,12,14,17,49,133
0.04410,2.99250,-4.42750,0.00000,-0.01074,0.01000,-0.98686,2023,6,12,14,17,49,144
0.04420,3.08000,-4.49750,0.00000,-0.01098,0.01098,-0.98930,2023,6,12,14,17,49,156
0.04430,3.09750,-4.65500,0.00000,-0.00964,0.01232,-0.98747,2023,6,12,14,17,49,167
0.04440,3.11500,-4.39250,0.00000,-0.01013,0.01025,-0.98844,2023,6,12,14,17,49,178
0.04450,2.94000,-4.56750,0.00000,-0.01159,0.01159,-0.99101,2023,6,12,14,17,49,189
0.04460,2.88750,-4.51500,0.00000,-0.01171,0.01171,-0.98747,2023,6,12,14,17,49,200
0.04470,2.99250,-4.55000,0.00000,-0.01110,0.01110,-0.98893,2023,6,12,14,17,49,211
0.04480,2.94000,-4.32250,0.00000,-0.01074,0.01147,-0.98722,2023,6,12,14,17,49,222
0.04490,2.90500,-4.53250,0.00000,-0.01061,0.01037,-0.98783,2023,6,12,14,17,49,233
0.04500,2.81750,-4.51500,0.00000,-0.00952,0.01074,-0.98625,2023,6,12,14,17,49,244
0.04510,2.94000,-4.48000,0.00000,-0.01074,0.01147,-0.98686,2023,6,12,14,17,49,256
0.04520,3.06250,-4.63750,0.00000,-0.01159,0.01000,-0.98747,2023,6,12,14,17,49,267
0.04530,2.95750,-4.41000,0.00000,-0.01098,0.00769,-0.98893,2023,6,12,14,17,49,278
0.04540,2.94000,-4.76000,0.00000,-0.01281,0.01061,-0.98722,2023,6,12,14,17,49,289
0.04550,2.87000,-4.65500,0.00000,-0.01147,0.01183,-0.98857,2023,6,12,14,17,49,300
0.04560,2.87000,-4.44500,0.00000,-0.00964,0.01000,-0.99003,2023,6,12,14,17,49,311
0.04570,2.94000,-4.46250,0.00000,-0.00952,0.00903,-0.98905,2023,6,12,14,17,49,322
0.04580,2.83500,-4.16500,0.00000,-0.01183,0.01257,-0.98735,2023,6,12,14,17,49,333
0.04590,3.09750,-4.48000,0.00000,-0.01232,0.01098,-0.99015,2023,6,12,14,17,49,344
0.04600,2.95750,-4.49750,0.00000,-0.01061,0.01159,-0.98905,2023,6,12,14,17,49,356
0.04610,3.04500,-4.35750,0.00000,-0.01061,0.01025,-0.98698,2023,6,12,14,17,49,367
0.04620,2.88750,-4.58500,0.00000,-0.01293,0.01000,-0.98661,2023,6,12,14,17,49,378
0.04630,2.87000,-4.56750,0.00000,-0.00830,0.00842,-0.99015,2023,6,12,14,17,49,389
0.04640,2.95750,-4.55000,0.00000,-0.01171,0.01159,-0.98844,2023,6,12,14,17,49,400
0.04650,2.87000,-4.48000,0.00000,-0.01086,0.00964,-0.98405,2023,6,12,14,17,49,411
0.04660,3.02750,-4.65500,0.00000,-0.01159,0.00866,-0.98759,2023,6,12,14,17,49,422
0.04670,3.02750,-4.67250,0.00000,-0.01135,0.01135,-0.98808,2023,6,12,14,17,49,433
0.04680,2.99250,-4.37500,0.00000,-0.00939,0.01086,-0.98783,2023,6,12,14,17,49,444
0.04690,2.78250,-4.60250,0.00000,-0.01049,0.00842,-0.98832,2023,6,12,14,17,49,456
0.04700,2.92250,-4.27000,0.00000,-0.01159,0.01232,-0.98844,2023,6,12,14,17,49,467
0.04710,3.04500,-4.41000,0.00000,-0.01074,0.01074,-0.98796,2023,6,12,14,17,49,478
0.04720,2.90500,-4.37500,0.00000,-0.01257,0.01074,-0.98698,2023,6,12,14,17,49,489
0.04730,2.88750,-4.44500,0.00000,-0.01061,0.01086,-0.98783,2023,6,12,14,17,49,500
0.04740,3.04500,-4.48000,0.00000,-0.01342,0.00988,-0.99076,2023,6,12,14,17,49,511
0.04750,2.71250,-4.51500,0.00000,-0.00878,0.01049,-0.98857,2023,6,12,14,17,49,522
0.04760,2.97500,-4.63750,0.00000,-0.01330,0.00976,-0.98625,2023,6,12,14,17,49,533
0.04770,2.87000,-4.39250,0.00000,-0.01086,0.00927,-0.98747,2023,6,12,14,17,49,544
0.04780,3.06250,-4.55000,0.00000,-0.01159,0.01074,-0.98881,2023,6,12,14,17,49,556
0.04790,2.92250,-4.51500,0.00000,-0.01061,0.01098,-0.98783,2023,6,12,14,17,49,567
0.04800,2.92250,-4.67250,0.00000,-0.01183,0.00927,-0.98918,2023,6,12,14,17,49,578
0.04810,3.08000,-4.69000,0.00000,-0.01232,0.00805,-0.98674,2023,6,12,14,17,49,589
0.04820,2.88750,-4.72500,0.00000,-0.01122,0.00891,-0.99308,2023,6,12,14,17,49,600
0.04830,2.80000,-4.41000,0.00000,-0.00878,0.01110,-0.98930,2023,6,12,14,17,49,611
0.04840,2.88750,-4.60250,0.00000,-0.01135,0.00854,-0.98710,2023,6,12,14,17,49,622
0.04850,3.04500,-4.70750,0.00000,-0.00988,0.00927,-0.98808,2023,6,12,14,17,49,633
0.04860,2.94000,-4.34000,0.00000,-0.01122,0.00891,-0.98771,2023,6,12,14,17,49,644
0.04870,2.99250,-4.60250,0.00000,-0.01122,0.01074,-0.98832,2023,6,12,14,17,49,656
0.04880,2.97500,-4.39250,0.00000,-0.01013,0.01013,-0.98637,2023,6,12,14,17,49,667
0.04890,2.90500,-4.28750,0.00000,-0.01196,0.01000,-0.98832,2023,6,12,14,17,49,678
0.04900,2.87000,-4.67250,0.00000,-0.01232,0.01037,-0.98918,2023,6,12,14,17,49,689
0.04910,2.81750,-4.51500,0.00000,-0.01232,0.00915,-0.99027,2023,6,12,14,17,49,700
0.04920,3.04500,-4.46250,0.00000,-0.01244,0.01159,-0.98881,2023,6,12,14,17,49,711
0.04930,2.99250,-4.55000,0.00000,-0.01122,0.01098,-0.98637,2023,6,12,14,17,49,722
0.04940,2.95750,-4.65500,0.00000,-0.01074,0.00915,-0.98808,2023,6,12,14,17,49,733
0.04950,3.11500,-4.56750,0.00000,-0.01013,0.01000,-0.98698,2023,6,12,14,17,49,744
0.04960,3.08000,-4.62000,0.00000,-0.01232,0.01196,-0.98722,2023,6,12,14,17,49,756
0.04970,2.87000,-4.37500,0.00000,-0.01061,0.00927,-0.98857,2023,6,12,14,17,49,767
0.04980,2.95750,-4.58500,0.00000,-0.01037,0.01183,-0.98722,2023,6,12,14,17,49,778
0.04990,2.97500,-4.51500,0.00000,-0.01061,0.01086,-0.98735,2023,6,12,14,17,49,789
0.05000,2.99250,-4.32250,0.00000,-0.01098,0.01049,-0.98722,2023,6,12,14,17,49,800
0.05010,2.95750,-4.51500,0.00000,-0.01025,0.00952,-0.98771,2023,6,12,14,17,49,811
0.05020,2.81750,-4.35750,0.00000,-0.01135,0.00988,-0.98735,2023,6,12,14,17,49,822
0.05030,2.92250,-4.55000,0.00000,-0.01061,0.00903,-0.98930,2023,6,12,14,17,49,833
0.05040,2.99250,-4.74250,0.00000,-0.00964,0.01037,-0.98649,2023,6,12,14,17,49,844
0.05050,2.85250,-4.76000,0.00000,-0.01208,0.00891,-0.98710,2023,6,12,14,17,49,856
0.05060,3.02750,-4.65500,0.00000,-0.01086,0.00988,-0.98869,2023,6,12,14,17,49,867
0.05070,2.99250,-4.55000,0.00000,-0.01269,0.01074,-0.98759,2023,6,12,14,17,49,878
0.05080,2.85250,-4.56750,0.00000,-0.00976,0.01049,-0.98808,2023,6,12,14,17,49,889
0.05090,3.01000,-4.69000,0.00000,-0.01122,0.00866,-0.98820,2023,6,12,14,17,49,900
0.05100,3.01000,-4.56750,0.00000,-0.01196,0.00903,-0.98747,2023,6,12,14,17,49,911
0.05110,2.90500,-4.42750,0.00000,-0.01257,0.00842,-0.99052,2023,6,12,14,17,49,922
0.05120,3.06250,-4.49750,0.00000,-0.01208,0.01074,-0.98832,2023,6,12,14,17,49,933
0.05130,3.02750,-4.42750,0.00000,-0.00964,0.01110,-0.98771,2023,6,12,14,17,49,944
0.05140,3.02750,-4.55000,0.00000,-0.01110,0.00988,-0.98905,2023,6,12,14,17,49,956
0.05150,2.97500,-4.56750,0.00000,-0.01000,0.00854,-0.98478,2023,6,12,14,17,49,967
0.05160,2.97500,-4.53250,0.00000,-0.00976,0.01086,-0.98979,2023,6,12,14,17,50,8
0.05170,3.04500,-4.37500,0.00000,-0.01000,0.01122,-0.98722,2023,6,12,14,17,50,19
0.05180,2.95750,-4.62000,0.00000,-0.01208,0.01159,-0.98796,2023,6,12,14,17,50,30
0.05190,2.76500,-4.49750,0.00000,-0.01171,0.01147,-0.98747,2023,6,12,14,17,50,41
0.05200,2.92250,-4.62000,0.00000,-0.01135,0.01000,-0.99113,2023,6,12,14,17,50,52
0.05210,3.08000,-4.42750,0.00000,-0.01135,0.01000,-0.99101,2023,6,12,14,17,50,63
0.05220,2.94000,-4.34000,0.00000,-0.01098,0.01196,-0.98820,2023,6,12,14,17,50,74
0.05230,2.99250,-4.56750,0.00000,-0.00988,0.00927,-0.98820,2023,6,12,14,17,50,86
0.05240,2.92250,-4.58500,0.00000,-0.00891,0.01025,-0.98503,2023,6,12,14,17,50,97
0.05250,3.04500,-4.63750,0.00000,-0.01208,0.01025,-0.98674,2023,6,12,14,17,50,108
0.05260,2.88750,-4.48000,0.00000,-0.01086,0.01110,-0.98722,2023,6,12,14,17,50,119
0.05270,2.74750,-4.37500,0.00000,-0.01159,0.00976,-0.98857,2023,6,12,14,17,50,130
0.05280,2.88750,-4.46250,0.00000,-0.01074,0.00842,-0.98857,2023,6,12,14,17,50,141
0.05290,3.20250,-4.67250,0.00000,-0.01074,0.00927,-0.98735,2023,6,12,14,17,50,152
0.05300,3.02750,-4.76000,0.00000,-0.01074,0.00952,-0.98747,2023,6,12,14,17,50,163
0.05310,2.94000,-4.72500,0.00000,-0.00854,0.01037,-0.98454,2023,6,12,14,17,50,174
0.05320,3.13250,-4.49750,0.00000,-0.00854,0.01037,-0.98832,2023,6,12,14,17,50,186
0.05330,2.80000,-4.65500,0.00000,-0.01025,0.00988,-0.98564,2023,6,12,14,17,50,197
0.05340,3.06250,-4.60250,0.00000,-0.01013,0.01000,-0.98661,2023,6,12,14,17,50,208
0.05350,2.87000,-4.55000,0.00000,-0.01013,0.00927,-0.98588,2023,6,12,14,17,50,219
0.05360,3.15000,-4.67250,0.00000,-0.01122,0.00610,-0.98759,2023,6,12,14,17,50,230
0.05370,2.87000,-4.41000,0.00000,-0.01049,0.01305,-0.98735,2023,6,12,14,17,50,241
0.05380,2.97500,-4.67250,0.00000,-0.01098,0.01049,-0.98747,2023,6,12,14,17,50,252
0.05390,3.04500,-4.74250,0.00000,-0.01147,0.00830,-0.98722,2023,6,12,14,17,50,263
0.05400,2.95750,-4.41000,0.00000,-0.01098,0.00878,-0.98674,2023,6,12,14,17,50,274
0.05410,2.97500,-4.65500,0.00000,-0.01098,0.00964,-0.98698,2023,6,12,14,17,50,286
0.05420,2.83500,-4.55000,0.00000,-0.01232,0.00708,-0.98893,2023,6,12,14,17,50,297
0.05430,2.92250,-4.46250,0.00000,-0.00988,0.01183,-0.98869,2023,6,12,14,17,50,308
0.05440,3.04500,-4.55000,0.00000,-0.01281,0.01183,-0.98796,2023,6,12,14,17,50,319
0.05450,2.85250,-4.62000,0.00000,-0.01013,0.00854,-0.98625,2023,6,12,14,17,50,330
0.05460,2.95750,-4.44500,0.00000,-0.01269,0.01025,-0.98674,2023,6,12,14,17,50,341
0.05470,3.13250,-4.55000,0.00000,-0.01122,0.01086,-0.98576,2023,6,12,14,17,50,352
0.05480,2.92250,-4.55000,0.00000,-0.01122,0.00952,-0.98844,2023,6,12,14,17,50,363
0.05490,2.94000,-4.41000,0.00000,-0.01110,0.01037,-0.98942,2023,6,12,14,17,50,374
0.05500,3.02750,-4.34000,0.00000,-0.01074,0.01183,-0.98783,2023,6,12,14,17,50,386
0.05510,2.92250,-4.56750,0.00000,-0.01098,0.00878,-0.98857,2023,6,12,14,17,50,397
0.05520,2.78250,-4.42750,0.00000,-0.01159,0.01086,-0.98747,2023,6,12,14,17,50,408
0.05530,2.83500,-4.48000,0.00000,-0.01269,0.01110,-0.98869,2023,6,12,14,17,50,419
0.05540,2.97500,-4.37500,0.00000,-0.01232,0.01013,-0.98857,2023,6,12,14,17,50,430
0.05550,3.09750,-4.62000,0.00000,-0.01025,0.00891,-0.98613,2023,6,12,14,17,50,441
0.05560,2.97500,-4.35750,0.00000,-0.01074,0.00939,-0.98613,2023,6,12,14,17,50,452
0.05570,3.06250,-4.53250,0.00000,-0.01110,0.00952,-0.98979,2023,6,12,14,17,50,463
0.05580,2.85250,-4.46250,0.00000,-0.01086,0.00976,-0.98820,2023,6,12,14,17,50,474
0.05590,2.97500,-4.37500,0.00000,-0.01147,0.01061,-0.98686,2023,6,12,14,17,50,486
0.05600,2.94000,-4.62000,0.00000,-0.01013,0.00878,-0.98808,2023,6,12,14,17,50,497
0.05610,2.80000,-4.72500,0.00000,-0.01159,0.01013,-0.98722,2023,6,12,14,17,50,508
0.05620,3.02750,-4.46250,0.00000,-0.01330,0.00976,-0.98881,2023,6,12,14,17,50,519
0.05630,2.92250,-4.46250,0.00000,-0.00976,0.01000,-0.98539,2023,6,12,14,17,50,530
0.05640,2.97500,-4.62000,0.00000,-0.01281,0.01257,-0.98954,2023,6,12,14,17,50,541
0.05650,3.09750,-4.58500,0.00000,-0.01293,0.01269,-0.98832,2023,6,12,14,17,50,552
0.05660,2.90500,-4.41000,0.00000,-0.01037,0.01086,-0.98759,2023,6,12,14,17,50,563
0.05670,3.13250,-4.77750,0.00000,-0.00988,0.00769,-0.98857,2023,6,12,14,17,50,574
0.05680,3.01000,-4.44500,0.00000,-0.01147,0.00964,-0.98918,2023,6,12,14,17,50,586
0.05690,2.99250,-4.69000,0.00000,-0.01013,0.01074,-0.98637,2023,6,12,14,17,50,597
0.05700,2.95750,-4.42750,0.00000,-0.01013,0.01171,-0.98552,2023,6,12,14,17,50,608
0.05710,2.78250,-4.44500,0.00000,-0.01061,0.01061,-0.98649,2023,6,12,14,17,50,619
0.05720,3.09750,-4.55000,0.00000,-0.01196,0.00891,-0.98869,2023,6,12,14,17,50,630
0.05730,2.94000,-4.58500,0.00000,-0.01098,0.00915,-0.98759,2023,6,12,14,17,50,641
0.05740,2.83500,-4.49750,0.00000,-0.01110,0.01013,-0.99040,2023,6,12,14,17,50,652
0.05750,2.99250,-4.53250,0.00000,-0.01257,0.01208,-0.98759,2023,6,12,14,17,50,663
0.05760,2.95750,-4.58500,0.00000,-0.01147,0.00817,-0.98771,2023,6,12,14,17,50,674
0.05770,3.01000,-4.46250,0.00000,-0.01196,0.00891,-0.98771,2023,6,12,14,17,50,686
0.05780,3.16750,-4.55000,0.00000,-0.01122,0.00830,-0.98991,2023,6,12,14,17,50,697
0.05790,3.02750,-4.58500,0.00000,-0.01000,0.00964,-0.99149,2023,6,12,14,17,50,708
0.05800,2.67750,-4.55000,0.00000,-0.01135,0.00891,-0.98686,2023,6,12,14,17,50,719
0.05810,3.06250,-4.49750,0.00000,-0.00781,0.00952,-0.98820,2023,6,12,14,17,50,730
0.05820,2.88750,-4.49750,0.00000,-0.00988,0.01122,-0.98698,2023,6,12,14,17,50,741
0.05830,2.95750,-4.48000,0.00000,-0.00952,0.00964,-0.98515,2023,6,12,14,17,50,752
0.05840,2.88750,-4.41000,0.00000,-0.01330,0.00903,-0.99406,2023,6,12,14,17,50,763
0.05850,2.94000,-4.67250,0.00000,-0.01086,0.00793,-0.98478,2023,6,12,14,17,50,774
0.05860,3.09750,-4.69000,0.00000,-0.01086,0.00793,-0.98783,2023,6,12,14,17,50,786
0.05870,2.88750,-4.32250,0.00000,-0.00927,0.01098,-0.98820,2023,6,12,14,17,50,797
0.05880,2.73000,-4.63750,0.00000,-0.00903,0.01147,-0.98613,2023,6,12,14,17,50,808
0.05890,3.08000,-4.55000,0.00000,-0.01000,0.01135,-0.98564,2023,6,12,14,17,50,819
0.05900,2.94000,-4.34000,0.00000,-0.01013,0.01257,-0.98991,2023,6,12,14,17,50,830
0.05910,2.95750,-4.37500,0.00000,-0.00817,0.01013,-0.98491,2023,6,12,14,17,50,841
0.05920,2.85250,-4.41000,0.00000,-0.01122,0.00939,-0.99015,2023,6,12,14,17,50,852
0.05930,3.02750,-4.55000,0.00000,-0.01049,0.00732,-0.98637,2023,6,12,14,17,50,863
0.05940,2.99250,-4.60250,0.00000,-0.01147,0.01135,-0.98661,2023,6,12,14,17,50,874
0.05950,2.92250,-4.69000,0.00000,-0.01122,0.01013,-0.98759,2023,6,12,14,17,50,886
0.05960,2.80000,-4.41000,0.00000,-0.01208,0.01061,-0.98881,2023,6,12,14,17,50,897
0.05970,3.11500,-4.42750,0.00000,-0.00915,0.01049,-0.98759,2023,6,12,14,17,50,908
0.05980,3.02750,-4.69000,0.00000,-0.01135,0.00964,-0.98600,2023,6,12,14,17,50,919
0.05990,2.99250,-4.77750,0.00000,-0.01147,0.01000,-0.98686,2023,6,12,14,17,50,930
0.06000,2.80000,-4.51500,0.00000,-0.01098,0.00976,-0.98600,2023,6,12,14,17,50,941
0.06010,2.88750,-4.37500,0.00000,-0.01074,0.00976,-0.98576,2023,6,12,14,17,50,952
0.06020,2.92250,-4.53250,0.00000,-0.01110,0.00988,-0.98674,2023,6,12,14,17,50,963
0.06030,2.81750,-4.37500,0.00000,-0.01061,0.01171,-0.98796,2023,6,12,14,17,50,974
0.06040,2.81750,-4.48000,0.00000,-0.01257,0.00976,-0.98881,2023,6,12,14,17,51,6
0.06050,2.90500,-4.48000,0.00000,-0.00939,0.00915,-0.98442,2023,6,12,14,17,51,17
0.06060,2.73000,-4.46250,0.00000,-0.00976,0.01000,-0.98600,2023,6,12,14,17,51,28
0.06070,2.87000,-4.55000,0.00000,-0.01220,0.01000,-0.98710,2023,6,12,14,17,51,39
0.06080,2.99250,-4.48000,0.00000,-0.01086,0.01037,-0.99015,2023,6,12,14,17,51,50
0.06090,3.08000,-4.48000,0.00000,-0.00903,0.01110,-0.98527,2023,6,12,14,17,51,61
0.06100,2.99250,-4.28750,0.00000,-0.01037,0.01074,-0.98466,2023,6,12,14,17,51,72
0.06110,3.06250,-4.67250,0.00000,-0.00878,0.01196,-0.98539,2023,6,12,14,17,51,83
0.06120,2.95750,-4.72500,0.00000,-0.00952,0.00878,-0.98820,2023,6,12,14,17,51,94
0.06130,3.06250,-4.65500,0.00000,-0.01000,0.01086,-0.98771,2023,6,12,14,17,51,106
0.06140,2.92250,-4.41000,0.00000,-0.01171,0.01013,-0.98735,2023,6,12,14,17,51,117
0.06150,2.99250,-4.46250,0.00000,-0.01135,0.01086,-0.98576,2023,6,12,14,17,51,128
0.06160,2.83500,-4.51500,0.00000,-0.01269,0.00964,-0.98686,2023,6,12,14,17,51,139
0.06170,2.90500,-4.42750,0.00000,-0.01086,0.01098,-0.98844,2023,6,12,14,17,51,150
0.06180,2.87000,-4.67250,0.00000,-0.00976,0.00878,-0.98503,2023,6,12,14,17,51,161
0.06190,2.85250,-4.56750,0.00000,-0.00988,0.01110,-0.98869,2023,6,12,14,17,51,172
0.06200,2.88750,-4.60250,0.00000,-0.01061,0.01013,-0.98491,2023,6,12,14,17,51,183
0.06210,3.06250,-4.46250,0.00000,-0.01147,0.01049,-0.99052,2023,6,12,14,17,51,194
0.06220,3.16750,-4.62000,0.00000,-0.01098,0.01013,-0.98881,2023,6,12,14,17,51,206
0.06230,2.81750,-4.42750,0.00000,-0.00939,0.01049,-0.98796,2023,6,12,14,17,51,217
0.06240,2.83500,-4.60250,0.00000,-0.01159,0.00988,-0.98405,2023,6,12,14,17,51,228
0.06250,3.18500,-4.63750,0.00000,-0.01061,0.00842,-0.98881,2023,6,12,14,17,51,239
0.06260,3.08000,-4.35750,0.00000,-0.00976,0.01196,-0.99040,2023,6,12,14,17,51,250
0.06270,3.09750,-4.55000,0.00000,-0.01135,0.00720,-0.98783,2023,6,12,14,17,51,261
0.06280,2.83500,-4.74250,0.00000,-0.01025,0.01049,-0.98930,2023,6,12,14,17,51,272
0.06290,2.90500,-4.62000,0.00000,-0.01196,0.00842,-0.98747,2023,6,12,14,17,51,283
0.06300,3.02750,-4.60250,0.00000,-0.00915,0.01135,-0.98759,2023,6,12,14,17,51,294
0.06310,2.90500,-4.39250,0.00000,-0.00903,0.00988,-0.99064,2023,6,12,14,17,51,306
0.06320,3.09750,-4.58500,0.00000,-0.00939,0.01025,-0.98613,2023,6,12,14,17,51,317
0.06330,2.95750,-4.63750,0.00000,-0.00964,0.01232,-0.98954,2023,6,12,14,17,51,328
0.06340,2.97500,-4.56750,0.00000,-0.01208,0.01061,-0.98808,2023,6,12,14,17,51,339
0.06350,2.90500,-4.46250,0.00000,-0.01025,0.00756,-0.98905,2023,6,12,14,17,51,350
0.06360,3.02750,-4.48000,0.00000,-0.01171,0.01061,-0.98857,2023,6,12,14,17,51,361
0.06370,2.87000,-4.62000,0.00000,-0.01025,0.01244,-0.98820,2023,6,12,14,17,51,372
0.06380,2.94000,-4.48000,0.00000,-0.01159,0.01171,-0.99027,2023,6,12,14,17,51,383
0.06390,2.74750,-4.41000,0.00000,-0.00976,0.01013,-0.98576,2023,6,12,14,17,51,394
0.06400,3.04500,-4.28750,0.00000,-0.01171,0.00988,-0.99040,2023,6,12,14,17,51,406
0.06410,2.90500,-4.60250,0.00000,-0.01122,0.01025,-0.98735,2023,6,12,14,17,51,417
0.06420,3.02750,-4.62000,0.00000,-0.01025,0.01074,-0.98722,2023,6,12,14,17,51,428
0.06430,2.97500,-4.55000,0.00000,-0.01183,0.01171,-0.98918,2023,6,12,14,17,51,439
0.06440,2.94000,-4.35750,0.00000,-0.01110,0.01074,-0.98930,2023,6,12,14,17,51,450
0.06450,2.95750,-4.72500,0.00000,-0.01025,0.01025,-0.98515,2023,6,12,14,17,51,461
0.06460,3.04500,-4.79500,0.00000,-0.01171,0.01074,-0.98722,2023,6,12,14,17,51,472
0.06470,3.09750,-4.49750,0.00000,-0.01171,0.00988,-0.98369,2023,6,12,14,17,51,483
0.06480,2.97500,-4.56750,0.00000,-0.00805,0.01086,-0.98930,2023,6,12,14,17,51,494
0.06490,2.95750,-4.77750,0.00000,-0.00891,0.01000,-0.98564,2023,6,12,14,17,51,506
0.06500,3.04500,-4.62000,0.00000,-0.01049,0.01049,-0.98686,2023,6,12,14,17,51,517
0.06510,3.02750,-4.76000,0.00000,-0.01244,0.00817,-0.99076,2023,6,12,14,17,51,528
0.06520,3.15000,-4.41000,0.00000,-0.00988,0.01013,-0.98747,2023,6,12,14,17,51,539
0.06530,3.04500,-4.60250,0.00000,-0.01110,0.01110,-0.98857,2023,6,12,14,17,51,550
0.06540,2.95750,-4.48000,0.00000,-0.01049,0.01159,-0.98771,2023,6,12,14,17,51,561
0.06550,2.87000,-4.44500,0.00000,-0.00927,0.01061,-0.98918,2023,6,12,14,17,51,572
0.06560,3.02750,-4.49750,0.00000,-0.01244,0.01061,-0.98759,2023,6,12,14,17,51,583
0.06570,3.06250,-4.72500,0.00000,-0.01061,0.00817,-0.99088,2023,6,12,14,17,51,594
0.06580,2.99250,-4.69000,0.00000,-0.01074,0.00903,-0.98783,2023,6,12,14,17,51,606
0.06590,3.11500,-4.48000,0.00000,-0.00903,0.00903,-0.98905,2023,6,12,14,17,51,617
0.06600,3.08000,-4.55000,0.00000,-0.01110,0.00988,-0.98820,2023,6,12,14,17,51,628
0.06610,2.67750,-4.53250,0.00000,-0.00976,0.00964,-0.98808,2023,6,12,14,17,51,639
0.06620,3.01000,-4.53250,0.00000,-0.01147,0.01025,-0.98710,2023,6,12,14,17,51,650
0.06630,3.02750,-4.62000,0.00000,-0.01147,0.01074,-0.98710,2023,6,12,14,17,51,661
0.06640,3.04500,-4.63750,0.00000,-0.01183,0.00939,-0.99027,2023,6,12,14,17,51,672
0.06650,2.87000,-4.56750,0.00000,-0.01196,0.00915,-0.98783,2023,6,12,14,17,51,683
0.06660,3.15000,-4.55000,0.00000,-0.00805,0.01037,-0.98808,2023,6,12,14,17,51,694
0.06670,2.85250,-4.30500,0.00000,-0.01061,0.01025,-0.98844,2023,6,12,14,17,51,706
0.06680,3.06250,-4.41000,0.00000,-0.00988,0.01244,-0.98613,2023,6,12,14,17,51,717
0.06690,2.88750,-4.27000,0.00000,-0.01147,0.01049,-0.98564,2023,6,12,14,17,51,728
0.06700,2.99250,-4.35750,0.00000,-0.00842,0.00927,-0.98857,2023,6,12,14,17,51,739
0.06710,2.99250,-4.48000,0.00000,-0.00976,0.00866,-0.98771,2023,6,12,14,17,51,750
0.06720,2.85250,-4.37500,0.00000,-0.01098,0.00927,-0.98857,2023,6,12,14,17,51,761
0.06730,2.81750,-4.58500,0.00000,-0.01354,0.00915,-0.99088,2023,6,12,14,17,51,772
0.06740,2.83500,-4.46250,0.00000,-0.00988,0.00927,-0.98820,2023,6,12,14,17,51,783
0.06750,3.04500,-4.53250,0.00000,-0.00988,0.00915,-0.99027,2023,6,12,14,17,51,794
0.06760,2.83500,-4.60250,0.00000,-0.01013,0.01061,-0.98808,2023,6,12,14,17,51,806
0.06770,2.99250,-4.58500,0.00000,-0.01086,0.00854,-0.98735,2023,6,12,14,17,51,817
0.06780,2.95750,-4.46250,0.00000,-0.01147,0.01122,-0.99174,2023,6,12,14,17,51,828
0.06790,3.08000,-4.77750,0.00000,-0.01049,0.00708,-0.98783,2023,6,12,14,17,51,839
0.06800,2.92250,-4.65500,0.00000,-0.01025,0.00878,-0.98515,2023,6,12,14,17,51,850
0.06810,3.08000,-4.49750,0.00000,-0.00866,0.00891,-0.98527,2023,6,12,14,17,51,861
0.06820,2.97500,-4.60250,0.00000,-0.00964,0.00866,-0.99088,2023,6,12,14,17,51,872
0.06830,3.01000,-4.51500,0.00000,-0.01013,0.00927,-0.98588,2023,6,12,14,17,51,883
0.06840,2.90500,-4.65500,0.00000,-0.01025,0.00927,-0.98881,2023,6,12,14,17,51,894
0.06850,3.08000,-4.67250,0.00000,-0.00915,0.00903,-0.98625,2023,6,12,14,17,51,906
0.06860,2.90500,-4.60250,0.00000,-0.01159,0.01074,-0.98649,2023,6,12,14,17,51,917
0.06870,2.97500,-4.58500,0.00000,-0.00939,0.01000,-0.98918,2023,6,12,14,17,51,928
0.06880,2.80000,-4.41000,0.00000,-0.01000,0.00988,-0.98588,2023,6,12,14,17,51,939
0.06890,2.94000,-4.60250,0.00000,-0.00964,0.00988,-0.98698,2023,6,12,14,17,51,950
0.06900,2.90500,-4.56750,0.00000,-0.01013,0.00927,-0.98783,2023,6,12,14,17,51,961
0.06910,3.15000,-4.58500,0.00000,-0.01147,0.00976,-0.98796,2023,6,12,14,17,51,972
0.06920,3.02750,-4.69000,0.00000,-0.01037,0.00988,-0.98747,2023,6,12,14,17,52,3
0.06930,2.92250,-4.48000,0.00000,-0.01110,0.00769,-0.98930,2023,6,12,14,17,52,14
0.06940,2.92250,-4.32250,0.00000,-0.00891,0.01147,-0.98771,2023,6,12,14,17,52,26
0.06950,2.88750,-4.65500,0.00000,-0.01159,0.00854,-0.98527,2023,6,12,14,17,52,37
0.06960,2.74750,-4.58500,0.00000,-0.01025,0.00891,-0.98747,2023,6,12,14,17,52,48
0.06970,2.92250,-4.44500,0.00000,-0.01037,0.01171,-0.98661,2023,6,12,14,17,52,59
0.06980,2.97500,-4.58500,0.00000,-0.01025,0.01013,-0.98686,2023,6,12,14,17,52,70
0.06990,3.04500,-4.70750,0.00000,-0.01122,0.01037,-0.99015,2023,6,12,14,17,52,81
0.07000,2.92250,-4.76000,0.00000,-0.01171,0.00939,-0.99125,2023,6,12,14,17,52,92
0.07010,2.90500,-4.49750,0.00000,-0.01147,0.01061,-0.98808,2023,6,12,14,17,52,103
0.07020,3.01000,-4.67250,0.00000,-0.01220,0.01013,-0.98710,2023,6,12,14,17,52,114
0.07030,2.90500,-4.88250,0.00000,-0.01086,0.01086,-0.98613,2023,6,12,14,17,52,126
0.07040,3.04500,-4.51500,0.00000,-0.00866,0.01098,-0.98857,2023,6,12,14,17,52,137
0.07050,3.01000,-4.65500,0.00000,-0.01074,0.01220,-0.98698,2023,6,12,14,17,52,148
0.07060,3.13250,-4.51500,0.00000,-0.01074,0.01098,-0.98783,2023,6,12,14,17,52,159
0.07070,3.01000,-4.53250,0.00000,-0.01171,0.01000,-0.98735,2023,6,12,14,17,52,170
0.07080,3.08000,-4.74250,0.00000,-0.01110,0.00939,-0.98991,2023,6,12,14,17,52,181
0.07090,3.01000,-4.44500,0.00000,-0.00964,0.01013,-0.98808,2023,6,12,14,17,52,192
0.07100,2.92250,-4.41000,0.00000,-0.00915,0.01159,-0.98674,2023,6,12,14,17,52,203
0.07110,2.64250,-4.51500,0.00000,-0.01086,0.00866,-0.98735,2023,6,12,14,17,52,214
0.07120,2.90500,-4.44500,0.00000,-0.01110,0.01269,-0.98576,2023,6,12,14,17,52,226
0.07130,2.97500,-4.46250,0.00000,-0.00952,0.01086,-0.98783,2023,6,12,14,17,52,237
0.07140,3.01000,-4.55000,0.00000,-0.01037,0.01074,-0.98747,2023,6,12,14,17,52,248
0.07150,3.20250,-4.63750,0.00000,-0.01171,0.01135,-0.98893,2023,6,12,14,17,52,259
0.07160,3.08000,-4.60250,0.00000,-0.00903,0.01037,-0.98698,2023,6,12,14,17,52,270
0.07170,3.02750,-4.48000,0.00000,-0.00903,0.01037,-0.98808,2023,6,12,14,17,52,281
0.07180,2.83500,-4.41000,0.00000,-0.01086,0.00964,-0.98661,2023,6,12,14,17,52,292
0.07190,2.97500,-4.58500,0.00000,-0.01232,0.00854,-0.98698,2023,6,12,14,17,52,303
0.07200,2.99250,-4.69000,0.00000,-0.01000,0.01013,-0.98759,2023,6,12,14,17,52,314
0.07210,2.99250,-4.35750,0.00000,-0.01013,0.00988,-0.98588,2023,6,12,14,17,52,326
0.07220,2.90500,-4.58500,0.00000,-0.01074,0.00952,-0.98710,2023,6,12,14,17,52,337
0.07230,2.95750,-4.60250,0.00000,-0.01110,0.00830,-0.98759,2023,6,12,14,17,52,348
0.07240,2.88750,-4.60250,0.00000,-0.01147,0.00866,-0.98674,2023,6,12,14,17,52,359
0.07250,2.99250,-4.72500,0.00000,-0.01061,0.00891,-0.98698,2023,6,12,14,17,52,370
0.07260,2.95750,-4.60250,0.00000,-0.01110,0.00952,-0.98576,2023,6,12,14,17,52,381
0.07270,2.88750,-4.65500,0.00000,-0.01000,0.01025,-0.98966,2023,6,12,14,17,52,392
0.07280,3.06250,-4.58500,0.00000,-0.01330,0.01049,-0.98454,2023,6,12,14,17,52,403
0.07290,2.90500,-4.63750,0.00000,-0.01061,0.01110,-0.98722,2023,6,12,14,17,52,414
0.07300,2.95750,-4.58500,0.00000,-0.00915,0.00939,-0.98576,2023,6,12,14,17,52,426
0.07310,2.94000,-4.49750,0.00000,-0.00988,0.01061,-0.98576,2023,6,12,14,17,52,437
0.07320,2.94000,-4.46250,0.00000,-0.01013,0.00915,-0.98832,2023,6,12,14,17,52,448
0.07330,3.08000,-4.69000,0.00000,-0.01220,0.01220,-0.98808,2023,6,12,14,17,52,459
0.07340,2.87000,-4.39250,0.00000,-0.01013,0.00964,-0.98759,2023,6,12,14,17,52,470
0.07350,3.01000,-4.58500,0.00000,-0.01183,0.01074,-0.98869,2023,6,12,14,17,52,481
0.07360,3.02750,-4.42750,0.00000,-0.00817,0.01122,-0.99027,2023,6,12,14,17,52,492
0.07370,3.08000,-4.46250,0.00000,-0.01208,0.01379,-0.98820,2023,6,12,14,17,52,503
0.07380,3.02750,-4.55000,0.00000,-0.01147,0.01049,-0.98796,2023,6,12,14,17,52,514
0.07390,3.08000,-4.44500,0.00000,-0.00976,0.01049,-0.98710,2023,6,12,14,17,52,526
0.07400,2.88750,-4.51500,0.00000,-0.01098,0.01098,-0.98710,2023,6,12,14,17,52,537
0.07410,2.85250,-4.49750,0.00000,-0.01171,0.00817,-0.98564,2023,6,12,14,17,52,548
0.07420,2.94000,-4.67250,0.00000,-0.01074,0.00891,-0.98905,2023,6,12,14,17,52,559
0.07430,2.83500,-4.34000,0.00000,-0.01196,0.00988,-0.98735,2023,6,12,14,17,52,570
0.07440,2.94000,-4.65500,0.00000,-0.00952,0.01074,-0.98576,2023,6,12,14,17,52,581
0.07450,2.90500,-4.56750,0.00000,-0.01196,0.01098,-0.98661,2023,6,12,14,17,52,592
0.07460,3.08000,-4.69000,0.00000,-0.01159,0.01061,-0.98576,2023,6,12,14,17,52,603
0.07470,2.92250,-4.51500,0.00000,-0.01171,0.00964,-0.98893,2023,6,12,14,17,52,614
0.07480,3.16750,-4.48000,0.00000,-0.01074,0.01074,-0.98844,2023,6,12,14,17,52,626
0.07490,3.09750,-4.70750,0.00000,-0.01037,0.01074,-0.98649,2023,6,12,14,17,52,637
0.07500,2.87000,-4.53250,0.00000,-0.01232,0.01074,-0.98649,2023,6,12,14,17,52,648
0.07510,3.09750,-4.53250,0.00000,-0.01013,0.01037,-0.98881,2023,6,12,14,17,52,659
0.07520,3.02750,-4.53250,0.00000,-0.01171,0.00878,-0.98905,2023,6,12,14,17,52,670
0.07530,2.85250,-4.58500,0.00000,-0.01171,0.00964,-0.98747,2023,6,12,14,17,52,681
0.07540,3.11500,-4.77750,0.00000,-0.01013,0.01061,-0.98747,2023,6,12,14,17,52,692
0.07550,2.73000,-4.49750,0.00000,-0.01122,0.01135,-0.98588,2023,6,12,14,17,52,703
0.07560,3.16750,-4.46250,0.00000,-0.01074,0.00952,-0.98539,2023,6,12,14,17,52,714
0.07570,2.87000,-4.28750,0.00000,-0.01037,0.01013,-0.98625,2023,6,12,14,17,52,726
0.07580,3.06250,-4.65500,0.00000,-0.00866,0.00952,-0.98405,2023,6,12,14,17,52,737
0.07590,2.94000,-4.35750,0.00000,-0.01122,0.01159,-0.98454,2023,6,12,14,17,52,748
0.07600,2.88750,-4.42750,0.00000,-0.00964,0.01196,-0.98600,2023,6,12,14,17,52,759
0.07610,2.80000,-4.27000,0.00000,-0.01037,0.00878,-0.98674,2023,6,12,14,17,52,770
0.07620,2.99250,-4.46250,0.00000,-0.01013,0.00903,-0.98881,2023,6,12,14,17,52,781
0.07630,3.02750,-4.63750,0.00000,-0.01086,0.00964,-0.98881,2023,6,12,14,17,52,792
0.07640,3.01000,-4.67250,0.00000,-0.01037,0.00952,-0.98588,2023,6,12,14,17,52,803
0.07650,2.92250,-4.60250,0.00000,-0.01135,0.01147,-0.98942,2023,6,12,14,17,52,814
0.07660,2.88750,-4.41000,0.00000,-0.00952,0.01135,-0.98747,2023,6,12,14,17,52,826
0.07670,2.99250,-4.49750,0.00000,-0.01037,0.01013,-0.98344,2023,6,12,14,17,52,837
0.07680,2.97500,-4.46250,0.00000,-0.01135,0.00988,-0.98588,2023,6,12,14,17,52,848
0.07690,2.88750,-4.51500,0.00000,-0.01074,0.00927,-0.98820,2023,6,12,14,17,52,859
0.07700,2.90500,-4.41000,0.00000,-0.01110,0.01061,-0.98783,2023,6,12,14,17,52,870
0.07710,2.99250,-4.42750,0.00000,-0.01122,0.00866,-0.98649,2023,6,12,14,17,52,881
0.07720,2.87000,-4.60250,0.00000,-0.01098,0.01135,-0.98661,2023,6,12,14,17,52,892
0.07730,2.95750,-4.49750,0.00000,-0.01159,0.01037,-0.98808,2023,6,12,14,17,52,903
0.07740,3.04500,-4.44500,0.00000,-0.00927,0.00927,-0.99113,2023,6,12,14,17,52,914
0.07750,3.09750,-4.62000,0.00000,-0.01183,0.00915,-0.98722,2023,6,12,14,17,52,926
0.07760,3.08000,-4.58500,0.00000,-0.00939,0.01220,-0.98820,2023,6,12,14,17,52,937
0.07770,2.94000,-4.63750,0.00000,-0.01000,0.00988,-0.98881,2023,6,12,14,17,52,948
0.07780,2.74750,-4.44500,0.00000,-0.01135,0.01171,-0.98600,2023,6,12,14,17,52,959
0.07790,2.94000,-4.51500,0.00000,-0.01061,0.00915,-0.98686,2023,6,12,14,17,52,970
0.07800,3.15000,-4.74250,0.00000,-0.01110,0.01061,-0.98466,2023,6,12,14,17,53,1
0.07810,2.88750,-4.65500,0.00000,-0.01159,0.01013,-0.98783,2023,6,12,14,17,53,12
0.07820,2.99250,-4.53250,0.00000,-0.00878,0.01208,-0.99149,2023,6,12,14,17,53,23
0.07830,2.92250,-4.49750,0.00000,-0.01147,0.00891,-0.98796,2023,6,12,14,17,53,34
0.07840,2.88750,-4.56750,0.00000,-0.00866,0.01061,-0.98759,2023,6,12,14,17,53,46
0.07850,3.08000,-4.60250,0.00000,-0.00854,0.00817,-0.98442,2023,6,12,14,17,53,57
0.07860,2.88750,-4.51500,0.00000,-0.01037,0.01037,-0.98857,2023,6,12,14,17,53,68
0.07870,2.83500,-4.46250,0.00000,-0.01318,0.00781,-0.98857,2023,6,12,14,17,53,79
0.07880,2.85250,-4.67250,0.00000,-0.01049,0.00903,-0.98820,2023,6,12,14,17,53,90
0.07890,3.11500,-4.69000,0.00000,-0.01208,0.00915,-0.98698,2023,6,12,14,17,53,101
0.07900,2.97500,-4.44500,0.00000,-0.01110,0.01074,-0.99101,2023,6,12,14,17,53,112
0.07910,2.97500,-4.62000,0.00000,-0.01171,0.00878,-0.99027,2023,6,12,14,17,53,123
0.07920,3.02750,-4.51500,0.00000,-0.01171,0.01025,-0.98796,2023,6,12,14,17,53,134
0.07930,2.90500,-4.41000,0.00000,-0.01305,0.01196,-0.99003,2023,6,12,14,17,53,146
0.07940,2.99250,-4.74250,0.00000,-0.01281,0.01061,-0.98881,2023,6,12,14,17,53,157
0.07950,2.88750,-4.51500,0.00000,-0.01147,0.01061,-0.98979,2023,6,12,14,17,53,168
0.07960,2.92250,-4.46250,0.00000,-0.01098,0.00878,-0.98796,2023,6,12,14,17,53,179
0.07970,2.90500,-4.69000,0.00000,-0.01037,0.00878,-0.98905,2023,6,12,14,17,53,190
0.07980,3.09750,-4.41000,0.00000,-0.01074,0.01110,-0.98966,2023,6,12,14,17,53,201
0.07990,3.06250,-4.72500,0.00000,-0.00927,0.01159,-0.98722,2023,6,12,14,17,53,212
0.08000,2.92250,-4.70750,0.00000,-0.00939,0.01025,-0.98722,2023,6,12,14,17,53,223
0.08010,3.09750,-4.63750,0.00000,-0.01074,0.00708,-0.98808,2023,6,12,14,17,53,234
0.08020,2.83500,-4.53250,0.00000,-0.01135,0.00842,-0.98783,2023,6,12,14,17,53,246
0.08030,2.97500,-4.62000,0.00000,-0.01244,0.00952,-0.98722,2023,6,12,14,17,53,257
0.08040,2.95750,-4.44500,0.00000,-0.01147,0.01013,-0.98661,2023,6,12,14,17,53,268
0.08050,3.04500,-4.76000,0.00000,-0.01183,0.01098,-0.98625,2023,6,12,14,17,53,279
0.08060,2.90500,-4.44500,0.00000,-0.00988,0.00927,-0.98783,2023,6,12,14,17,53,290
0.08070,2.99250,-4.41000,0.00000,-0.01147,0.00939,-0.98637,2023,6,12,14,17,53,301
0.08080,3.11500,-4.72500,0.00000,-0.01086,0.01074,-0.98844,2023,6,12,14,17,53,312
0.08090,2.80000,-4.58500,0.00000,-0.01244,0.01049,-0.98576,2023,6,12,14,17,53,323
0.08100,2.83500,-4.49750,0.00000,-0.00976,0.01086,-0.98710,2023,6,12,14,17,53,334
0.08110,2.87000,-4.58500,0.00000,-0.01013,0.00952,-0.98832,2023,6,12,14,17,53,346
0.08120,3.09750,-4.55000,0.00000,-0.00964,0.01000,-0.98747,2023,6,12,14,17,53,357
0.08130,3.16750,-4.51500,0.00000,-0.01196,0.01135,-0.98942,2023,6,12,14,17,53,368
0.08140,3.15000,-4.60250,0.00000,-0.00939,0.01013,-0.98771,2023,6,12,14,17,53,379
0.08150,3.13250,-4.67250,0.00000,-0.00964,0.01135,-0.98783,2023,6,12,14,17,53,390
0.08160,3.02750,-4.60250,0.00000,-0.00976,0.01061,-0.98588,2023,6,12,14,17,53,401
0.08170,2.95750,-4.37500,0.00000,-0.00988,0.01135,-0.98674,2023,6,12,14,17,53,412
0.08180,2.92250,-4.53250,0.00000,-0.01122,0.00878,-0.98796,2023,6,12,14,17,53,423
0.08190,3.08000,-4.79500,0.00000,-0.00952,0.01013,-0.98491,2023,6,12,14,17,53,434
0.08200,3.15000,-4.58500,0.00000,-0.01293,0.01049,-0.98905,2023,6,12,14,17,53,446
0.08210,2.92250,-4.44500,0.00000,-0.01257,0.00988,-0.98930,2023,6,12,14,17,53,457
0.08220,3.01000,-4.60250,0.00000,-0.01122,0.00891,-0.98600,2023,6,12,14,17,53,468
0.08230,2.99250,-4.44500,0.00000,-0.00842,0.01061,-0.98710,2023,6,12,14,17,53,479
0.08240,3.06250,-4.84750,0.00000,-0.00952,0.01208,-0.98564,2023,6,12,14,17,53,490
0.08250,2.87000,-4.39250,0.00000,-0.00805,0.01049,-0.98503,2023,6,12,14,17,53,501
0.08260,3.02750,-4.84750,0.00000,-0.01147,0.01049,-0.98857,2023,6,12,14,17,53,512
0.08270,3.16750,-4.42750,0.00000,-0.01257,0.00976,-0.98698,2023,6,12,14,17,53,523
0.08280,3.08000,-4.65500,0.00000,-0.01135,0.01061,-0.98808,2023,6,12,14,17,53,534
0.08290,2.99250,-4.53250,0.00000,-0.01171,0.01025,-0.98735,2023,6,12,14,17,53,546
0.08300,2.88750,-4.51500,0.00000,-0.01135,0.00903,-0.99015,2023,6,12,14,17,53,557
0.08310,2.95750,-4.41000,0.00000,-0.01196,0.00988,-0.99088,2023,6,12,14,17,53,568
0.08320,2.95750,-4.63750,0.00000,-0.01135,0.01147,-0.98832,2023,6,12,14,17,53,579
0.08330,2.83500,-4.67250,0.00000,-0.01049,0.00952,-0.98613,2023,6,12,14,17,53,590
0.08340,2.97500,-4.55000,0.00000,-0.01171,0.00781,-0.98637,2023,6,12,14,17,53,601
0.08350,3.04500,-4.51500,0.00000,-0.01000,0.01037,-0.98783,2023,6,12,14,17,53,612
0.08360,3.09750,-4.56750,0.00000,-0.01086,0.01183,-0.98747,2023,6,12,14,17,53,623
0.08370,3.13250,-4.53250,0.00000,-0.01281,0.00915,-0.98796,2023,6,12,14,17,53,634
0.08380,3.08000,-4.65500,0.00000,-0.01110,0.00915,-0.98674,2023,6,12,14,17,53,646
0.08390,2.85250,-4.58500,0.00000,-0.00988,0.01074,-0.98686,2023,6,12,14,17,53,657
0.08400,2.90500,-4.42750,0.00000,-0.01232,0.01074,-0.98661,2023,6,12,14,17,53,668
0.08410,2.99250,-4.55000,0.00000,-0.01257,0.00915,-0.98369,2023,6,12,14,17,53,679
0.08420,2.87000,-4.69000,0.00000,-0.00988,0.01171,-0.98478,2023,6,12,14,17,53,690
0.08430,2.95750,-4.56750,0.00000,-0.01122,0.01037,-0.98613,2023,6,12,14,17,53,701
0.08440,2.92250,-4.44500,0.00000,-0.01000,0.01037,-0.98698,2023,6,12,14,17,53,712
0.08450,2.83500,-4.44500,0.00000,-0.00976,0.00830,-0.98649,2023,6,12,14,17,53,723
0.08460,2.80000,-4.16500,0.00000,-0.01074,0.01013,-0.98698,2023,6,12,14,17,53,734
0.08470,2.92250,-4.72500,0.00000,-0.01147,0.00915,-0.98747,2023,6,12,14,17,53,746
0.08480,3.20250,-4.51500,0.00000,-0.01171,0.01159,-0.98747,2023,6,12,14,17,53,757
0.08490,2.99250,-4.53250,0.00000,-0.01037,0.01110,-0.98832,2023,6,12,14,17,53,768
0.08500,3.04500,-4.58500,0.00000,-0.01061,0.01135,-0.98881,2023,6,12,14,17,53,779
0.08510,2.94000,-4.48000,0.00000,-0.01098,0.01074,-0.98625,2023,6,12,14,17,53,790
0.08520,3.04500,-4.65500,0.00000,-0.01171,0.00817,-0.98905,2023,6,12,14,17,53,801
0.08530,3.11500,-4.44500,0.00000,-0.01074,0.00915,-0.98552,2023,6,12,14,17,53,812
0.08540,3.01000,-4.51500,0.00000,-0.01159,0.00927,-0.98637,2023,6,12,14,17,53,823
0.08550,3.18500,-4.62000,0.00000,-0.01061,0.01098,-0.98686,2023,6,12,14,17,53,834
0.08560,2.85250,-4.56750,0.00000,-0.01037,0.01000,-0.98747,2023,6,12,14,17,53,846
0.08570,2.85250,-4.51500,0.00000,-0.00964,0.01110,-0.98478,2023,6,12,14,17,53,857
0.08580,3.23750,-4.34000,0.00000,-0.00939,0.00915,-0.98735,2023,6,12,14,17,53,868
0.08590,2.95750,-4.65500,0.00000,-0.00878,0.01013,-0.98564,2023,6,12,14,17,53,879
0.08600,2.95750,-4.53250,0.00000,-0.01110,0.01074,-0.98783,2023,6,12,14,17,53,890
0.08610,2.94000,-4.58500,0.00000,-0.00952,0.00939,-0.98588,2023,6,12,14,17,53,901
0.08620,2.90500,-4.32250,0.00000,-0.01074,0.00964,-0.98613,2023,6,12,14,17,53,912
0.08630,3.11500,-4.49750,0.00000,-0.01135,0.00939,-0.98588,2023,6,12,14,17,53,923
0.08640,2.90500,-4.51500,0.00000,-0.01000,0.00988,-0.98820,2023,6,12,14,17,53,934
0.08650,2.95750,-4.44500,0.00000,-0.01086,0.01049,-0.98661,2023,6,12,14,17,53,946
0.08660,3.09750,-4.63750,0.00000,-0.01159,0.01147,-0.98710,2023,6,12,14,17,53,957
0.08670,2.99250,-4.55000,0.00000,-0.01232,0.01061,-0.98661,2023,6,12,14,17,53,968
0.08680,3.01000,-4.56750,0.00000,-0.01061,0.01074,-0.98552,2023,6,12,14,17,53,979
0.08690,3.06250,-4.34000,0.00000,-0.00988,0.00964,-0.98783,2023,6,12,14,17,54,0
0.08700,2.78250,-4.27000,0.00000,-0.01000,0.01037,-0.98527,2023,6,12,14,17,54,11
0.08710,3.04500,-4.60250,0.00000,-0.01098,0.01098,-0.98613,2023,6,12,14,17,54,22
0.08720,2.97500,-4.58500,0.00000,-0.01208,0.01183,-0.98759,2023,6,12,14,17,54,33
0.08730,2.87000,-4.35750,0.00000,-0.01196,0.01037,-0.98759,2023,6,12,14,17,54,44
0.08740,3.13250,-4.60250,0.00000,-0.00952,0.00988,-0.98893,2023,6,12,14,17,54,56
0.08750,3.36000,-4.72500,0.00000,-0.01074,0.01086,-0.98820,2023,6,12,14,17,54,67
0.08760,2.78250,-4.46250,0.00000,-0.01196,0.01049,-0.98771,2023,6,12,14,17,54,78
0.08770,2.90500,-4.65500,0.00000,-0.00976,0.00964,-0.98893,2023,6,12,14,17,54,89
0.08780,2.85250,-4.53250,0.00000,-0.01171,0.01074,-0.98820,2023,6,12,14,17,54,100
0.08790,2.85250,-4.42750,0.00000,-0.01159,0.00744,-0.98832,2023,6,12,14,17,54,111
0.08800,2.95750,-4.70750,0.00000,-0.01037,0.01000,-0.98979,2023,6,12,14,17,54,122
0.08810,3.02750,-4.55000,0.00000,-0.00952,0.01013,-0.98527,2023,6,12,14,17,54,133
0.08820,3.02750,-4.67250,0.00000,-0.01110,0.01147,-0.98625,2023,6,12,14,17,54,144
0.08830,2.85250,-4.62000,0.00000,-0.01061,0.01025,-0.98979,2023,6,12,14,17,54,156
0.08840,2.88750,-4.49750,0.00000,-0.00988,0.01013,-0.98491,2023,6,12,14,17,54,167
0.08850,2.94000,-4.48000,0.00000,-0.01171,0.00988,-0.98527,2023,6,12,14,17,54,178
0.08860,2.76500,-4.49750,0.00000,-0.00903,0.01037,-0.98674,2023,6,12,14,17,54,189
0.08870,2.95750,-4.53250,0.00000,-0.01171,0.01000,-0.98783,2023,6,12,14,17,54,200
0.08880,3.02750,-4.67250,0.00000,-0.00964,0.01074,-0.98735,2023,6,12,14,17,54,211
0.08890,2.83500,-4.44500,0.00000,-0.01025,0.01171,-0.98808,2023,6,12,14,17,54,222
0.08900,3.01000,-4.60250,0.00000,-0.00964,0.01086,-0.98698,2023,6,12,14,17,54,233
0.08910,3.04500,-4.48000,0.00000,-0.01122,0.00939,-0.98979,2023,6,12,14,17,54,244
0.08920,2.92250,-4.37500,0.00000,-0.01074,0.00903,-0.98759,2023,6,12,14,17,54,256
0.08930,3.01000,-4.39250,0.00000,-0.01025,0.01049,-0.98832,2023,6,12,14,17,54,267
0.08940,3.13250,-4.60250,0.00000,-0.01147,0.01061,-0.98808,2023,6,12,14,17,54,278
0.08950,2.94000,-4.67250,0.00000,-0.01232,0.01061,-0.98698,2023,6,12,14,17,54,289
0.08960,2.76500,-4.32250,0.00000,-0.01013,0.00817,-0.98637,2023,6,12,14,17,54,300
0.08970,3.01000,-4.62000,0.00000,-0.01208,0.01037,-0.98710,2023,6,12,14,17,54,311
0.08980,3.15000,-4.42750,0.00000,-0.01244,0.01037,-0.98881,2023,6,12,14,17,54,322
0.08990,2.95750,-4.65500,0.00000,-0.00988,0.01122,-0.98710,2023,6,12,14,17,54,333
0.09000,2.90500,-4.41000,0.00000,-0.01293,0.01049,-0.98625,2023,6,12,14,17,54,344
0.09010,3.13250,-4.58500,0.00000,-0.01110,0.01049,-0.98905,2023,6,12,14,17,54,356
0.09020,2.80000,-4.44500,0.00000,-0.01037,0.01037,-0.98808,2023,6,12,14,17,54,367
0.09030,2.87000,-4.44500,0.00000,-0.01074,0.01061,-0.98649,2023,6,12,14,17,54,378
0.09040,3.04500,-4.62000,0.00000,-0.00976,0.00952,-0.98600,2023,6,12,14,17,54,389
0.09050,2.90500,-4.69000,0.00000,-0.00891,0.00976,-0.98686,2023,6,12,14,17,54,400
0.09060,2.92250,-4.35750,0.00000,-0.01013,0.00964,-0.98747,2023,6,12,14,17,54,411
0.09070,3.02750,-4.60250,0.00000,-0.01025,0.01013,-0.98613,2023,6,12,14,17,54,422
0.09080,3.01000,-4.49750,0.00000,-0.01086,0.00878,-0.98722,2023,6,12,14,17,54,433
0.09090,2.95750,-4.35750,0.00000,-0.01013,0.01098,-0.98905,2023,6,12,14,17,54,444
0.09100,2.92250,-4.60250,0.00000,-0.01098,0.01037,-0.98735,2023,6,12,14,17,54,456
0.09110,3.13250,-4.58500,0.00000,-0.01098,0.01049,-0.98759,2023,6,12,14,17,54,467
0.09120,3.08000,-4.46250,0.00000,-0.01232,0.00976,-0.98783,2023,6,12,14,17,54,478
0.09130,2.94000,-4.62000,0.00000,-0.00927,0.01122,-0.99162,2023,6,12,14,17,54,489
0.09140,2.90500,-4.46250,0.00000,-0.01281,0.01244,-0.98613,2023,6,12,14,17,54,500
0.09150,2.97500,-4.44500,0.00000,-0.01098,0.00878,-0.98405,2023,6,12,14,17,54,511
0.09160,2.99250,-4.44500,0.00000,-0.01000,0.01293,-0.98991,2023,6,12,14,17,54,522
0.09170,3.01000,-4.55000,0.00000,-0.01000,0.01025,-0.98661,2023,6,12,14,17,54,533
0.09180,2.92250,-4.55000,0.00000,-0.01061,0.00976,-0.98698,2023,6,12,14,17,54,544
0.09190,2.87000,-4.32250,0.00000,-0.01171,0.00964,-0.98613,2023,6,12,14,17,54,556
0.09200,3.02750,-4.55000,0.00000,-0.01061,0.00952,-0.98637,2023,6,12,14,17,54,567
0.09210,2.88750,-4.55000,0.00000,-0.01000,0.01037,-0.98747,2023,6,12,14,17,54,578
0.09220,2.95750,-4.49750,0.00000,-0.01086,0.01000,-0.98649,2023,6,12,14,17,54,589
0.09230,2.97500,-4.34000,0.00000,-0.01037,0.00927,-0.98820,2023,6,12,14,17,54,600
0.09240,2.90500,-4.56750,0.00000,-0.00939,0.00952,-0.98844,2023,6,12,14,17,54,611
0.09250,2.99250,-4.44500,0.00000,-0.01086,0.00891,-0.98686,2023,6,12,14,17,54,622
0.09260,2.97500,-4.74250,0.00000,-0.01025,0.01025,-0.98722,2023,6,12,14,17,54,633
0.09270,2.99250,-4.56750,0.00000,-0.01025,0.01061,-0.98857,2023,6,12,14,17,54,644
0.09280,2.85250,-4.30500,0.00000,-0.00939,0.00952,-0.98564,2023,6,12,14,17,54,656
0.09290,2.87000,-4.60250,0.00000,-0.01147,0.00817,-0.98796,2023,6,12,14,17,54,667
0.09300,2.97500,-4.77750,0.00000,-0.01171,0.01171,-0.98783,2023,6,12,14,17,54,678
0.09310,2.99250,-4.41000,0.00000,-0.01000,0.01074,-0.98503,2023,6,12,14,17,54,689
0.09320,2.85250,-4.56750,0.00000,-0.01000,0.01098,-0.99015,2023,6,12,14,17,54,700
0.09330,2.87000,-4.74250,0.00000,-0.01244,0.01147,-0.98991,2023,6,12,14,17,54,711
0.09340,2.90500,-4.32250,0.00000,-0.00927,0.01049,-0.98844,2023,6,12,14,17,54,722
0.09350,2.85250,-4.56750,0.00000,-0.01037,0.01049,-0.98454,2023,6,12,14,17,54,733
0.09360,2.94000,-4.37500,0.00000,-0.00952,0.01098,-0.98869,2023,6,12,14,17,54,744
0.09370,3.04500,-4.49750,0.00000,-0.01147,0.00805,-0.98820,2023,6,12,14,17,54,756
0.09380,2.85250,-4.56750,0.00000,-0.01000,0.01074,-0.99332,2023,6,12,14,17,54,767
0.09390,2.99250,-4.63750,0.00000,-0.01074,0.00988,-0.98588,2023,6,12,14,17,54,778
0.09400,2.85250,-4.53250,0.00000,-0.00891,0.00756,-0.98759,2023,6,12,14,17,54,789
0.09410,2.92250,-4.46250,0.00000,-0.01025,0.01037,-0.98808,2023,6,12,14,17,54,800
0.09420,3.08000,-4.37500,0.00000,-0.01037,0.00964,-0.98527,2023,6,12,14,17,54,811
0.09430,2.81750,-4.37500,0.00000,-0.01086,0.00891,-0.98686,2023,6,12,14,17,54,822
0.09440,3.13250,-4.60250,0.00000,-0.00939,0.01037,-0.98698,2023,6,12,14,17,54,833
0.09450,2.97500,-4.58500,0.00000,-0.01110,0.00805,-0.98930,2023,6,12,14,17,54,844
0.09460,3.09750,-4.48000,0.00000,-0.01098,0.01159,-0.98637,2023,6,12,14,17,54,856
0.09470,2.99250,-4.74250,0.00000,-0.01232,0.01098,-0.98844,2023,6,12,14,17,54,867
0.09480,2.92250,-4.41000,0.00000,-0.01037,0.01098,-0.98613,2023,6,12,14,17,54,878
0.09490,2.83500,-4.48000,0.00000,-0.01110,0.00964,-0.99137,2023,6,12,14,17,54,889
0.09500,2.99250,-4.41000,0.00000,-0.01122,0.00891,-0.98857,2023,6,12,14,17,54,900
0.09510,3.04500,-4.48000,0.00000,-0.01013,0.00976,-0.98808,2023,6,12,14,17,54,911
0.09520,2.90500,-4.41000,0.00000,-0.01049,0.01086,-0.98539,2023,6,12,14,17,54,922
0.09530,2.81750,-4.41000,0.00000,-0.01269,0.01025,-0.98686,2023,6,12,14,17,54,933
0.09540,3.11500,-4.72500,0.00000,-0.01122,0.00976,-0.98600,2023,6,12,14,17,54,944
0.09550,2.94000,-4.63750,0.00000,-0.01159,0.01208,-0.98759,2023,6,12,14,17,54,956
0.09560,2.92250,-4.48000,0.00000,-0.01171,0.00952,-0.98698,2023,6,12,14,17,54,967
0.09570,2.85250,-4.58500,0.00000,-0.00830,0.00842,-0.98576,2023,6,12,14,17,55,8
0.09580,2.83500,-4.13000,0.00000,-0.00866,0.01049,-0.98771,2023,6,12,14,17,55,19
0.09590,2.83500,-4.37500,0.00000,-0.01049,0.01318,-0.98686,2023,6,12,14,17,55,30
0.09600,2.92250,-4.39250,0.00000,-0.00866,0.01013,-0.98857,2023,6,12,14,17,55,41
0.09610,2.88750,-4.60250,0.00000,-0.01171,0.00891,-0.98832,2023,6,12,14,17,55,52
0.09620,2.94000,-4.81250,0.00000,-0.01122,0.00988,-0.98832,2023,6,12,14,17,55,63
0.09630,2.85250,-4.41000,0.00000,-0.01159,0.01000,-0.98515,2023,6,12,14,17,55,74
0.09640,2.95750,-4.70750,0.00000,-0.01366,0.01049,-0.98857,2023,6,12,14,17,55,86
0.09650,2.94000,-4.58500,0.00000,-0.00976,0.01074,-0.98954,2023,6,12,14,17,55,97
0.09660,2.90500,-4.39250,0.00000,-0.01147,0.01013,-0.98808,2023,6,12,14,17,55,108
0.09670,2.92250,-4.55000,0.00000,-0.01110,0.01025,-0.98857,2023,6,12,14,17,55,119
0.09680,2.83500,-4.41000,0.00000,-0.01061,0.01220,-0.98710,2023,6,12,14,17,55,130
0.09690,3.09750,-4.58500,0.00000,-0.00915,0.01220,-0.98820,2023,6,12,14,17,55,141
0.09700,3.04500,-4.70750,0.00000,-0.01025,0.00988,-0.98405,2023,6,12,14,17,55,152
0.09710,2.94000,-4.51500,0.00000,-0.01147,0.00903,-0.98844,2023,6,12,14,17,55,163
0.09720,2.95750,-4.37500,0.00000,-0.01037,0.00939,-0.98649,2023,6,12,14,17,55,174
0.09730,2.88750,-4.53250,0.00000,-0.01122,0.01013,-0.98954,2023,6,12,14,17,55,186
0.09740,2.97500,-4.70750,0.00000,-0.00976,0.00891,-0.98808,2023,6,12,14,17,55,197
0.09750,2.85250,-4.42750,0.00000,-0.00915,0.01049,-0.98857,2023,6,12,14,17,55,208
0.09760,2.92250,-4.60250,0.00000,-0.00891,0.01000,-0.98637,2023,6,12,14,17,55,219
0.09770,2.92250,-4.55000,0.00000,-0.01122,0.00878,-0.98796,2023,6,12,14,17,55,230
0.09780,2.76500,-4.49750,0.00000,-0.00988,0.00878,-0.99137,2023,6,12,14,17,55,241
0.09790,3.16750,-4.46250,0.00000,-0.01025,0.00891,-0.98649,2023,6,12,14,17,55,252
0.09800,2.76500,-4.58500,0.00000,-0.01318,0.01049,-0.98820,2023,6,12,14,17,55,263
0.09810,2.76500,-4.44500,0.00000,-0.01196,0.01147,-0.98796,2023,6,12,14,17,55,274
0.09820,2.92250,-4.56750,0.00000,-0.01159,0.01000,-0.98783,2023,6,12,14,17,55,286
0.09830,2.99250,-4.63750,0.00000,-0.00952,0.01196,-0.98698,2023,6,12,14,17,55,297
0.09840,2.83500,-4.53250,0.00000,-0.00939,0.01269,-0.98600,2023,6,12,14,17,55,308
0.09850,3.11500,-4.42750,0.00000,-0.00830,0.01122,-0.98710,2023,6,12,14,17,55,319
0.09860,2.99250,-4.60250,0.00000,-0.01171,0.00817,-0.99027,2023,6,12,14,17,55,330
0.09870,2.90500,-4.18250,0.00000,-0.01208,0.01000,-0.98637,2023,6,12,14,17,55,341
0.09880,2.99250,-4.65500,0.00000,-0.01147,0.01000,-0.98759,2023,6,12,14,17,55,352
0.09890,2.88750,-4.48000,0.00000,-0.01171,0.00964,-0.98942,2023,6,12,14,17,55,363
0.09900,3.06250,-4.55000,0.00000,-0.01220,0.01000,-0.98783,2023,6,12,14,17,55,374
0.09910,2.85250,-4.48000,0.00000,-0.01086,0.01061,-0.98844,2023,6,12,14,17,55,386
0.09920,2.94000,-4.65500,0.00000,-0.00952,0.01171,-0.98625,2023,6,12,14,17,55,397
0.09930,3.02750,-4.69000,0.00000,-0.01086,0.00878,-0.98722,2023,6,12,14,17,55,408
0.09940,2.97500,-4.42750,0.00000,-0.01159,0.01183,-0.98637,2023,6,12,14,17,55,419
0.09950,3.08000,-4.74250,0.00000,-0.01220,0.00988,-0.99027,2023,6,12,14,17,55,430
0.09960,2.92250,-4.35750,0.00000,-0.01000,0.01061,-0.98832,2023,6,12,14,17,55,441
0.09970,3.04500,-4.34000,0.00000,-0.01110,0.00842,-0.98710,2023,6,12,14,17,55,452
0.09980,2.90500,-4.56750,0.00000,-0.00988,0.01049,-0.98942,2023,6,12,14,17,55,463
0.09990,2.80000,-4.27000,0.00000,-0.01025,0.01013,-0.98820,2023,6,12,14,17,55,474
0.10000,3.01000,-4.60250,0.00000,-0.01000,0.01110,-0.98918,2023,6,12,14,17,55,486
0.10010,2.92250,-4.76000,0.00000,-0.00878,0.01086,-0.98771,2023,6,12,14,17,55,497
0.10020,3.04500,-4.67250,0.00000,-0.01183,0.00891,-0.98942,2023,6,12,14,17,55,508
0.10030,3.01000,-4.44500,0.00000,-0.01037,0.01135,-0.98905,2023,6,12,14,17,55,519
0.10040,2.94000,-4.58500,0.00000,-0.01025,0.00830,-0.98637,2023,6,12,14,17,55,530
0.10050,2.92250,-4.53250,0.00000,-0.01110,0.01159,-0.98491,2023,6,12,14,17,55,541
0.10060,2.97500,-4.41000,0.00000,-0.01269,0.01122,-0.98820,2023,6,12,14,17,55,552
0.10070,3.01000,-4.65500,0.00000,-0.00878,0.01122,-0.98674,2023,6,12,14,17,55,563
0.10080,2.95750,-4.51500,0.00000,-0.01196,0.00915,-0.98808,2023,6,12,14,17,55,574
0.10090,2.95750,-4.30500,0.00000,-0.01049,0.01086,-0.98796,2023,6,12,14,17,55,586
0.10100,3.06250,-4.46250,0.00000,-0.00903,0.01025,-0.98674,2023,6,12,14,17,55,597
0.10110,2.99250,-4.49750,0.00000,-0.01049,0.01208,-0.98735,2023,6,12,14,17,55,608
0.10120,2.83500,-4.27000,0.00000,-0.01171,0.00781,-0.98783,2023,6,12,14,17,55,619
0.10130,3.11500,-4.56750,0.00000,-0.01074,0.01110,-0.98710,2023,6,12,14,17,55,630
0.10140,3.02750,-4.51500,0.00000,-0.00939,0.01025,-0.98588,2023,6,12,14,17,55,641
0.10150,3.13250,-4.44500,0.00000,-0.01110,0.00976,-0.98735,2023,6,12,14,17,55,652
0.10160,2.94000,-4.53250,0.00000,-0.01037,0.00891,-0.98637,2023,6,12,14,17,55,663
0.10170,2.90500,-4.69000,0.00000,-0.01122,0.00915,-0.98735,2023,6,12,14,17,55,674
0.10180,2.97500,-4.41000,0.00000,-0.01074,0.00866,-0.98674,2023,6,12,14,17,55,686
0.10190,2.99250,-4.60250,0.00000,-0.00988,0.01171,-0.98722,2023,6,12,14,17,55,697
0.10200,2.99250,-4.70750,0.00000,-0.01037,0.00927,-0.98539,2023,6,12,14,17,55,708
0.10210,2.73000,-4.30500,0.00000,-0.01293,0.00891,-0.98588,2023,6,12,14,17,55,719
0.10220,2.85250,-4.51500,0.00000,-0.01135,0.01098,-0.98661,2023,6,12,14,17,55,730
0.10230,3.13250,-4.84750,0.00000,-0.01000,0.01098,-0.98747,2023,6,12,14,17,55,741
0.10240,2.87000,-4.51500,0.00000,-0.01183,0.00927,-0.98588,2023,6,12,14,17,55,752
0.10250,2.90500,-4.55000,0.00000,-0.01244,0.00903,-0.99076,2023,6,12,14,17,55,763
0.10260,3.04500,-4.79500,0.00000,-0.00708,0.01220,-0.98808,2023,6,12,14,17,55,774
0.10270,2.99250,-4.62000,0.00000,-0.01330,0.01183,-0.98674,2023,6,12,14,17,55,786
0.10280,2.80000,-4.41000,0.00000,-0.01196,0.01074,-0.98881,2023,6,12,14,17,55,797
0.10290,2.95750,-4.62000,0.00000,-0.01135,0.00817,-0.98478,2023,6,12,14,17,55,808
0.10300,3.08000,-4.55000,0.00000,-0.01122,0.00866,-0.98820,2023,6,12,14,17,55,819
0.10310,2.92250,-4.55000,0.00000,-0.01220,0.01086,-0.98954,2023,6,12,14,17,55,830
0.10320,2.94000,-4.58500,0.00000,-0.01037,0.01122,-0.98710,2023,6,12,14,17,55,841
0.10330,2.87000,-4.27000,0.00000,-0.01098,0.00988,-0.98808,2023,6,12,14,17,55,852
0.10340,3.04500,-4.51500,0.00000,-0.00927,0.01098,-0.99076,2023,6,12,14,17,55,863
0.10350,2.99250,-4.35750,0.00000,-0.01269,0.00976,-0.98759,2023,6,12,14,17,55,874
0.10360,2.95750,-4.42750,0.00000,-0.01122,0.01013,-0.98759,2023,6,12,14,17,55,886
0.10370,2.97500,-4.37500,0.00000,-0.01049,0.00939,-0.98771,2023,6,12,14,17,55,897
0.10380,2.71250,-4.62000,0.00000,-0.00842,0.00952,-0.98979,2023,6,12,14,17,55,908
0.10390,2.87000,-4.41000,0.00000,-0.01037,0.01281,-0.98674,2023,6,12,14,17,55,919
0.10400,3.08000,-4.35750,0.00000,-0.00988,0.00939,-0.98918,2023,6,12,14,17,55,930
0.10410,2.97500,-4.58500,0.00000,-0.01208,0.01110,-0.98686,2023,6,12,14,17,55,941
0.10420,3.02750,-4.53250,0.00000,-0.01061,0.00781,-0.98698,2023,6,12,14,17,55,952
0.10430,2.80000,-4.48000,0.00000,-0.00927,0.00903,-0.98869,2023,6,12,14,17,55,963
0.10440,2.83500,-4.53250,0.00000,-0.01110,0.00939,-0.98857,2023,6,12,14,17,55,974
0.10450,2.99250,-4.35750,0.00000,-0.01305,0.01061,-0.98893,2023,6,12,14,17,56,6
0.10460,3.08000,-4.55000,0.00000,-0.01147,0.01110,-0.98844,2023,6,12,14,17,56,17
0.10470,3.01000,-4.67250,0.00000,-0.00952,0.01269,-0.98783,2023,6,12,14,17,56,28
0.10480,2.80000,-4.51500,0.00000,-0.00988,0.00878,-0.98832,2023,6,12,14,17,56,39
0.10490,2.99250,-4.67250,0.00000,-0.00964,0.01037,-0.98649,2023,6,12,14,17,56,50
0.10500,2.90500,-4.41000,0.00000,-0.01110,0.01013,-0.98832,2023,6,12,14,17,56,61
0.10510,2.90500,-4.39250,0.00000,-0.01220,0.01086,-0.98564,2023,6,12,14,17,56,72
0.10520,2.92250,-4.55000,0.00000,-0.00964,0.01025,-0.98832,2023,6,12,14,17,56,83
0.10530,2.85250,-4.44500,0.00000,-0.01110,0.00903,-0.98539,2023,6,12,14,17,56,94
0.10540,2.92250,-4.69000,0.00000,-0.01147,0.00976,-0.98747,2023,6,12,14,17,56,106
0.10550,3.08000,-4.51500,0.00000,-0.00976,0.00988,-0.98710,2023,6,12,14,17,56,117
0.10560,2.95750,-4.48000,0.00000,-0.01061,0.01147,-0.98783,2023,6,12,14,17,56,128
0.10570,3.04500,-4.58500,0.00000,-0.01098,0.01037,-0.98881,2023,6,12,14,17,56,139
0.10580,3.08000,-4.58500,0.00000,-0.01000,0.01257,-0.98796,2023,6,12,14,17,56,150
0.10590,2.90500,-4.48000,0.00000,-0.01122,0.01061,-0.98966,2023,6,12,14,17,56,161
0.10600,3.04500,-4.37500,0.00000,-0.01208,0.01098,-0.98649,2023,6,12,14,17,56,172
0.10610,3.01000,-4.62000,0.00000,-0.00976,0.01000,-0.98783,2023,6,12,14,17,56,183
0.10620,2.97500,-4.30500,0.00000,-0.00976,0.01135,-0.98527,2023,6,12,14,17,56,194
0.10630,2.99250,-4.53250,0.00000,-0.01244,0.01196,-0.98759,2023,6,12,14,17,56,206
0.10640,2.99250,-4.53250,0.00000,-0.01086,0.01208,-0.98747,2023,6,12,14,17,56,217
0.10650,3.01000,-4.60250,0.00000,-0.00927,0.01257,-0.98832,2023,6,12,14,17,56,228
0.10660,2.80000,-4.49750,0.00000,-0.01232,0.00939,-0.98710,2023,6,12,14,17,56,239
0.10670,2.85250,-4.56750,0.00000,-0.01037,0.00915,-0.98600,2023,6,12,14,17,56,250
0.10680,2.95750,-4.46250,0.00000,-0.01147,0.00939,-0.98820,2023,6,12,14,17,56,261
0.10690,2.94000,-4.62000,0.00000,-0.01159,0.00964,-0.98735,2023,6,12,14,17,56,272
0.10700,2.88750,-4.77750,0.00000,-0.00891,0.00988,-0.98600,2023,6,12,14,17,56,283
0.10710,2.88750,-4.39250,0.00000,-0.01086,0.00903,-0.99101,2023,6,12,14,17,56,294
0.10720,2.81750,-4.65500,0.00000,-0.01013,0.00915,-0.98710,2023,6,12,14,17,56,306
0.10730,2.94000,-4.32250,0.00000,-0.01159,0.01403,-0.98661,2023,6,12,14,17,56,317
0.10740,2.99250,-4.58500,0.00000,-0.01000,0.01074,-0.98796,2023,6,12,14,17,56,328
0.10750,3.04500,-4.44500,0.00000,-0.01171,0.00903,-0.98771,2023,6,12,14,17,56,339
0.10760,2.88750,-4.55000,0.00000,-0.01183,0.01037,-0.98759,2023,6,12,14,17,56,350
0.10770,2.81750,-4.42750,0.00000,-0.00866,0.00964,-0.98600,2023,6,12,14,17,56,361
0.10780,3.01000,-4.44500,0.00000,-0.00854,0.01013,-0.98661,2023,6,12,14,17,56,372
0.10790,2.94000,-4.74250,0.00000,-0.01171,0.01025,-0.98588,2023,6,12,14,17,56,383
0.10800,3.09750,-4.51500,0.00000,-0.01171,0.00988,-0.98759,2023,6,12,14,17,56,394
0.10810,2.88750,-4.34000,0.00000,-0.01000,0.01318,-0.98832,2023,6,12,14,17,56,406
0.10820,2.92250,-4.58500,0.00000,-0.01049,0.01135,-0.99076,2023,6,12,14,17,56,417
0.10830,2.97500,-4.72500,0.00000,-0.01159,0.00720,-0.98771,2023,6,12,14,17,56,428
0.10840,3.01000,-4.34000,0.00000,-0.01232,0.01196,-0.98857,2023,6,12,14,17,56,439
0.10850,3.06250,-4.41000,0.00000,-0.01098,0.01208,-0.98588,2023,6,12,14,17,56,450
0.10860,2.92250,-4.69000,0.00000,-0.01074,0.01098,-0.98930,2023,6,12,14,17,56,461
0.10870,2.85250,-4.42750,0.00000,-0.01135,0.01000,-0.98735,2023,6,12,14,17,56,472
0.10880,2.94000,-4.37500,0.00000,-0.00891,0.01293,-0.98686,2023,6,12,14,17,56,483
0.10890,3.13250,-4.62000,0.00000,-0.01061,0.00915,-0.98771,2023,6,12,14,17,56,494
0.10900,2.90500,-4.46250,0.00000,-0.01013,0.01220,-0.99003,2023,6,12,14,17,56,506
0.10910,3.15000,-4.53250,0.00000,-0.01049,0.01183,-0.98686,2023,6,12,14,17,56,517
0.10920,3.08000,-4.58500,0.00000,-0.01025,0.01000,-0.99064,2023,6,12,14,17,56,528
0.10930,2.85250,-4.46250,0.00000,-0.01074,0.01025,-0.98820,2023,6,12,14,17,56,539
0.10940,3.06250,-4.49750,0.00000,-0.01098,0.00964,-0.98844,2023,6,12,14,17,56,550
0.10950,3.08000,-4.76000,0.00000,-0.01171,0.01098,-0.98796,2023,6,12,14,17,56,561
0.10960,2.95750,-4.42750,0.00000,-0.01049,0.00915,-0.98966,2023,6,12,14,17,56,572
0.10970,3.02750,-4.35750,0.00000,-0.00878,0.01000,-0.98649,2023,6,12,14,17,56,583
0.10980,3.13250,-4.37500,0.00000,-0.01000,0.01037,-0.98771,2023,6,12,14,17,56,594
0.10990,2.97500,-4.42750,0.00000,-0.00952,0.01098,-0.98637,2023,6,12,14,17,56,606
0.11000,2.99250,-4.49750,0.00000,-0.01196,0.01000,-0.98759,2023,6,12,14,17,56,617
0.11010,3.11500,-4.55000,0.00000,-0.01208,0.00988,-0.98576,2023,6,12,14,17,56,628
0.11020,3.04500,-4.44500,0.00000,-0.00866,0.00842,-0.98808,2023,6,12,14,17,56,639
0.11030,3.06250,-4.69000,0.00000,-0.01049,0.01025,-0.98515,2023,6,12,14,17,56,650
0.11040,3.02750,-4.55000,0.00000,-0.01232,0.01171,-0.99040,2023,6,12,14,17,56,661
0.11050,2.87000,-4.67250,0.00000,-0.01098,0.01135,-0.98661,2023,6,12,14,17,56,672
0.11060,2.88750,-4.51500,0.00000,-0.01171,0.01061,-0.98747,2023,6,12,14,17,56,683
0.11070,2.95750,-4.48000,0.00000,-0.01171,0.00939,-0.99040,2023,6,12,14,17,56,694
0.11080,3.06250,-4.65500,0.00000,-0.01208,0.01269,-0.98515,2023,6,12,14,17,56,706
0.11090,3.25500,-4.76000,0.00000,-0.01049,0.01183,-0.98698,2023,6,12,14,17,56,717
0.11100,2.85250,-4.39250,0.00000,-0.01208,0.00878,-0.98588,2023,6,12,14,17,56,728
0.11110,2.99250,-4.72500,0.00000,-0.01074,0.01086,-0.98503,2023,6,12,14,17,56,739
0.11120,2.92250,-4.16500,0.00000,-0.00854,0.01000,-0.98820,2023,6,12,14,17,56,750
0.11130,3.01000,-4.48000,0.00000,-0.00952,0.00866,-0.98613,2023,6,12,14,17,56,761
0.11140,2.87000,-4.46250,0.00000,-0.01025,0.00915,-0.98796,2023,6,12,14,17,56,772
0.11150,2.90500,-4.62000,0.00000,-0.01049,0.01049,-0.98735,2023,6,12,14,17,56,783
0.11160,2.92250,-4.41000,0.00000,-0.00866,0.00927,-0.98588,2023,6,12,14,17,56,794
0.11170,2.90500,-4.49750,0.00000,-0.01159,0.00903,-0.98710,2023,6,12,14,17,56,806
0.11180,3.02750,-4.56750,0.00000,-0.01049,0.01013,-0.98771,2023,6,12,14,17,56,817
0.11190,2.85250,-4.44500,0.00000,-0.01257,0.00952,-0.98478,2023,6,12,14,17,56,828
0.11200,3.15000,-4.48000,0.00000,-0.01208,0.01196,-0.98796,2023,6,12,14,17,56,839
0.11210,3.04500,-4.69000,0.00000,-0.01037,0.00964,-0.98832,2023,6,12,14,17,56,850
0.11220,2.92250,-4.53250,0.00000,-0.01110,0.00866,-0.98698,2023,6,12,14,17,56,861
0.11230,2.83500,-4.46250,0.00000,-0.00952,0.00891,-0.98844,2023,6,12,14,17,56,872
0.11240,2.95750,-4.39250,0.00000,-0.01049,0.01013,-0.98674,2023,6,12,14,17,56,883
0.11250,2.94000,-4.53250,0.00000,-0.01025,0.01208,-0.98698,2023,6,12,14,17,56,894
0.11260,2.92250,-4.32250,0.00000,-0.00878,0.01037,-0.98686,2023,6,12,14,17,56,906
0.11270,3.08000,-4.65500,0.00000,-0.01293,0.01098,-0.99015,2023,6,12,14,17,56,917
0.11280,2.81750,-4.53250,0.00000,-0.01013,0.00964,-0.98930,2023,6,12,14,17,56,928
0.11290,2.97500,-4.34000,0.00000,-0.01049,0.01244,-0.98966,2023,6,12,14,17,56,939
0.11300,2.92250,-4.65500,0.00000,-0.00927,0.00976,-0.98539,2023,6,12,14,17,56,950
0.11310,2.76500,-4.60250,0.00000,-0.01122,0.01257,-0.98857,2023,6,12,14,17,56,961
0.11320,2.99250,-4.67250,0.00000,-0.01098,0.01025,-0.98796,2023,6,12,14,17,56,972
0.11330,2.71250,-4.60250,0.00000,-0.00939,0.01135,-0.98905,2023,6,12,14,17,57,3
0.11340,3.04500,-4.34000,0.00000,-0.01025,0.01220,-0.98759,2023,6,12,14,17,57,14
0.11350,2.85250,-4.63750,0.00000,-0.00976,0.01061,-0.98930,2023,6,12,14,17,57,26
0.11360,2.95750,-4.56750,0.00000,-0.01135,0.00964,-0.98674,2023,6,12,14,17,57,37
0.11370,2.95750,-4.48000,0.00000,-0.01074,0.01110,-0.98832,2023,6,12,14,17,57,48
0.11380,3.02750,-4.69000,0.00000,-0.01196,0.00952,-0.98588,2023,6,12,14,17,57,59
0.11390,3.09750,-4.60250,0.00000,-0.01074,0.00756,-0.98893,2023,6,12,14,17,57,70
0.11400,2.99250,-4.69000,0.00000,-0.00976,0.01000,-0.98710,2023,6,12,14,17,57,81
0.11410,2.95750,-4.56750,0.00000,-0.01037,0.00988,-0.98661,2023,6,12,14,17,57,92
0.11420,2.95750,-4.56750,0.00000,-0.01000,0.00878,-0.98832,2023,6,12,14,17,57,103
0.11430,2.95750,-4.63750,0.00000,-0.01159,0.00793,-0.98857,2023,6,12,14,17,57,114
0.11440,3.01000,-4.42750,0.00000,-0.01098,0.01013,-0.98515,2023,6,12,14,17,57,126
0.11450,2.97500,-4.58500,0.00000,-0.01135,0.00964,-0.98661,2023,6,12,14,17,57,137
0.11460,2.94000,-4.30500,0.00000,-0.01086,0.00976,-0.98686,2023,6,12,14,17,57,148
0.11470,3.13250,-4.63750,0.00000,-0.01025,0.00939,-0.98625,2023,6,12,14,17,57,159
0.11480,2.94000,-4.48000,0.00000,-0.01220,0.00927,-0.98686,2023,6,12,14,17,57,170
0.11490,3.02750,-4.62000,0.00000,-0.01171,0.01098,-0.98466,2023,6,12,14,17,57,181
0.11500,2.94000,-4.37500,0.00000,-0.01025,0.01074,-0.98491,2023,6,12,14,17,57,192
0.11510,2.97500,-4.44500,0.00000,-0.01159,0.01013,-0.98796,2023,6,12,14,17,57,203
0.11520,2.81750,-4.48000,0.00000,-0.00952,0.00939,-0.98600,2023,6,12,14,17,57,214
0.11530,2.78250,-4.48000,0.00000,-0.01074,0.01122,-0.98613,2023,6,12,14,17,57,226
0.11540,3.16750,-4.53250,0.00000,-0.01098,0.01049,-0.98735,2023,6,12,14,17,57,237
0.11550,2.88750,-4.46250,0.00000,-0.01074,0.01171,-0.98979,2023,6,12,14,17,57,248
0.11560,2.81750,-4.65500,0.00000,-0.01208,0.00891,-0.98844,2023,6,12,14,17,57,259
0.11570,3.06250,-4.62000,0.00000,-0.01171,0.01037,-0.98686,2023,6,12,14,17,57,270
0.11580,3.11500,-4.63750,0.00000,-0.00903,0.00878,-0.98710,2023,6,12,14,17,57,281
0.11590,2.83500,-4.39250,0.00000,-0.01257,0.00952,-0.98759,2023,6,12,14,17,57,292
0.11600,2.87000,-4.53250,0.00000,-0.01183,0.00878,-0.98527,2023,6,12,14,17,57,303
0.11610,3.04500,-4.62000,0.00000,-0.01110,0.01098,-0.98808,2023,6,12,14,17,57,314
0.11620,2.99250,-4.48000,0.00000,-0.01061,0.01159,-0.98832,2023,6,12,14,17,57,326
0.11630,2.85250,-4.46250,0.00000,-0.01183,0.01037,-0.98417,2023,6,12,14,17,57,337
0.11640,3.01000,-4.34000,0.00000,-0.01098,0.01025,-0.98869,2023,6,12,14,17,57,348
0.11650,2.95750,-4.56750,0.00000,-0.01122,0.01098,-0.98613,2023,6,12,14,17,57,359
0.11660,2.95750,-4.55000,0.00000,-0.01037,0.01013,-0.98796,2023,6,12,14,17,57,370
0.11670,3.06250,-4.62000,0.00000,-0.01074,0.01013,-0.98649,2023,6,12,14,17,57,381
0.11680,3.02750,-4.81250,0.00000,-0.00964,0.01086,-0.98637,2023,6,12,14,17,57,392
0.11690,3.06250,-4.30500,0.00000,-0.01074,0.01122,-0.98820,2023,6,12,14,17,57,403
0.11700,3.09750,-4.74250,0.00000,-0.01147,0.01086,-0.98674,2023,6,12,14,17,57,414
0.11710,2.81750,-4.55000,0.00000,-0.01220,0.01208,-0.98637,2023,6,12,14,17,57,426
0.11720,2.81750,-4.37500,0.00000,-0.00988,0.01074,-0.99040,2023,6,12,14,17,57,437
0.11730,2.95750,-4.32250,0.00000,-0.01110,0.01074,-0.98686,2023,6,12,14,17,57,448
0.11740,2.99250,-4.49750,0.00000,-0.00976,0.01147,-0.98820,2023,6,12,14,17,57,459
0.11750,2.97500,-4.74250,0.00000,-0.01098,0.00830,-0.98735,2023,6,12,14,17,57,470
0.11760,2.81750,-4.65500,0.00000,-0.01122,0.00964,-0.98698,2023,6,12,14,17,57,481
0.11770,2.83500,-4.60250,0.00000,-0.00891,0.01061,-0.98698,2023,6,12,14,17,57,492
0.11780,2.94000,-4.69000,0.00000,-0.01086,0.01147,-0.98576,2023,6,12,14,17,57,503
0.11790,2.87000,-4.48000,0.00000,-0.00988,0.01049,-0.98905,2023,6,12,14,17,57,514
0.11800,2.73000,-4.37500,0.00000,-0.00976,0.00891,-0.98442,2023,6,12,14,17,57,526
0.11810,3.02750,-4.44500,0.00000,-0.01220,0.01220,-0.98893,2023,6,12,14,17,57,537
0.11820,2.81750,-4.49750,0.00000,-0.01098,0.01098,-0.98857,2023,6,12,14,17,57,548
0.11830,2.97500,-4.58500,0.00000,-0.01147,0.01159,-0.98808,2023,6,12,14,17,57,559
0.11840,3.08000,-4.48000,0.00000,-0.01281,0.00952,-0.98552,2023,6,12,14,17,57,570
0.11850,2.92250,-4.63750,0.00000,-0.01086,0.01244,-0.98991,2023,6,12,14,17,57,581
0.11860,3.02750,-4.65500,0.00000,-0.00988,0.01147,-0.98466,2023,6,12,14,17,57,592
0.11870,3.02750,-4.49750,0.00000,-0.01049,0.01037,-0.98649,2023,6,12,14,17,57,603
0.11880,2.88750,-4.30500,0.00000,-0.01135,0.01013,-0.98613,2023,6,12,14,17,57,614
0.11890,2.97500,-4.20000,0.00000,-0.01183,0.00842,-0.98722,2023,6,12,14,17,57,626
0.11900,2.95750,-4.53250,0.00000,-0.00903,0.01013,-0.99076,2023,6,12,14,17,57,637
0.11910,2.94000,-4.55000,0.00000,-0.01025,0.00878,-0.98710,2023,6,12,14,17,57,648
0.11920,2.94000,-4.53250,0.00000,-0.01049,0.01037,-0.98808,2023,6,12,14,17,57,659
0.11930,3.06250,-4.65500,0.00000,-0.01086,0.01110,-0.98552,2023,6,12,14,17,57,670
0.11940,2.97500,-4.23500,0.00000,-0.01183,0.01025,-0.98820,2023,6,12,14,17,57,681
0.11950,3.08000,-4.58500,0.00000,-0.01049,0.00952,-0.98649,2023,6,12,14,17,57,692
0.11960,2.99250,-4.51500,0.00000,-0.01037,0.01293,-0.98722,2023,6,12,14,17,57,703
0.11970,3.02750,-4.41000,0.00000,-0.01208,0.00805,-0.99076,2023,6,12,14,17,57,714
0.11980,3.11500,-4.51500,0.00000,-0.01037,0.01049,-0.98674,2023,6,12,14,17,57,726
0.11990,2.97500,-4.58500,0.00000,-0.01183,0.00842,-0.98735,2023,6,12,14,17,57,737
0.12000,2.97500,-4.69000,0.00000,-0.01232,0.01025,-0.98783,2023,6,12,14,17,57,748
0.12010,2.94000,-4.70750,0.00000,-0.01122,0.00915,-0.98796,2023,6,12,14,17,57,759
0.12020,3.11500,-4.48000,0.00000,-0.01147,0.00988,-0.99088,2023,6,12,14,17,57,770
0.12030,3.09750,-4.62000,0.00000,-0.01159,0.00842,-0.98966,2023,6,12,14,17,57,781
0.12040,2.76500,-4.28750,0.00000,-0.01110,0.01208,-0.98832,2023,6,12,14,17,57,792
0.12050,3.11500,-4.93500,0.00000,-0.01171,0.01025,-0.98576,2023,6,12,14,17,57,803
0.12060,3.01000,-4.56750,0.00000,-0.01025,0.00903,-0.98710,2023,6,12,14,17,57,814
0.12070,2.87000,-4.51500,0.00000,-0.01208,0.00988,-0.98613,2023,6,12,14,17,57,826
0.12080,2.94000,-4.74250,0.00000,-0.01244,0.01061,-0.98832,2023,6,12,14,17,57,837
0.12090,3.06250,-4.63750,0.00000,-0.01098,0.01074,-0.98930,2023,6,12,14,17,57,848
0.12100,2.95750,-4.53250,0.00000,-0.00866,0.00927,-0.98905,2023,6,12,14,17,57,859
0.12110,2.88750,-4.56750,0.00000,-0.01110,0.00830,-0.98722,2023,6,12,14,17,57,870
0.12120,3.01000,-4.60250,0.00000,-0.00927,0.01025,-0.98649,2023,6,12,14,17,57,881
0.12130,2.81750,-4.62000,0.00000,-0.00817,0.01147,-0.98759,2023,6,12,14,17,57,892
0.12140,3.15000,-4.65500,0.00000,-0.01086,0.01098,-0.98564,2023,6,12,14,17,57,903
0.12150,2.85250,-4.39250,0.00000,-0.01281,0.00817,-0.98735,2023,6,12,14,17,57,914
0.12160,2.85250,-4.46250,0.00000,-0.01061,0.00793,-0.98783,2023,6,12,14,17,57,926
0.12170,2.92250,-4.42750,0.00000,-0.01049,0.00964,-0.98771,2023,6,12,14,17,57,937
0.12180,2.92250,-4.27000,0.00000,-0.01208,0.01000,-0.98954,2023,6,12,14,17,57,948
0.12190,2.94000,-4.62000,0.00000,-0.01061,0.01025,-0.98881,2023,6,12,14,17,57,959
0.12200,2.83500,-4.41000,0.00000,-0.01147,0.01000,-0.99040,2023,6,12,14,17,58,0
0.12210,3.02750,-4.32250,0.00000,-0.01098,0.00769,-0.98820,2023,6,12,14,17,58,11
0.12220,3.01000,-4.27000,0.00000,-0.01122,0.00878,-0.99101,2023,6,12,14,17,58,22
0.12230,3.15000,-4.48000,0.00000,-0.01013,0.00988,-0.98820,2023,6,12,14,17,58,33
0.12240,3.02750,-4.65500,0.00000,-0.01427,0.00903,-0.98808,2023,6,12,14,17,58,44
0.12250,2.92250,-4.51500,0.00000,-0.01110,0.00964,-0.98832,2023,6,12,14,17,58,56
0.12260,2.90500,-4.42750,0.00000,-0.00952,0.01098,-0.98820,2023,6,12,14,17,58,67
0.12270,3.08000,-4.62000,0.00000,-0.01037,0.01147,-0.98698,2023,6,12,14,17,58,78
0.12280,2.92250,-4.41000,0.00000,-0.00952,0.01220,-0.98783,2023,6,12,14,17,58,89
0.12290,2.87000,-4.41000,0.00000,-0.01061,0.00866,-0.98588,2023,6,12,14,17,58,100
0.12300,3.06250,-4.56750,0.00000,-0.01147,0.01147,-0.98759,2023,6,12,14,17,58,111
0.12310,3.06250,-4.63750,0.00000,-0.01110,0.00952,-0.98747,2023,6,12,14,17,58,122
0.12320,2.90500,-4.48000,0.00000,-0.00866,0.00952,-0.98905,2023,6,12,14,17,58,133
0.12330,3.08000,-4.55000,0.00000,-0.00939,0.00891,-0.98381,2023,6,12,14,17,58,144
0.12340,3.01000,-4.62000,0.00000,-0.01293,0.00988,-0.98710,2023,6,12,14,17,58,156
0.12350,2.87000,-4.91750,0.00000,-0.01305,0.01074,-0.98869,2023,6,12,14,17,58,167
0.12360,2.80000,-4.46250,0.00000,-0.00964,0.01037,-0.98637,2023,6,12,14,17,58,178
0.12370,2.87000,-4.44500,0.00000,-0.01025,0.01098,-0.98600,2023,6,12,14,17,58,189
0.12380,3.02750,-4.30500,0.00000,-0.01281,0.01208,-0.99027,2023,6,12,14,17,58,200
0.12390,3.04500,-4.56750,0.00000,-0.01098,0.00952,-0.98796,2023,6,12,14,17,58,211
0.12400,2.99250,-4.53250,0.00000,-0.00903,0.01037,-0.98503,2023,6,12,14,17,58,222
0.12410,3.08000,-4.55000,0.00000,-0.00964,0.01013,-0.98881,2023,6,12,14,17,58,233
0.12420,3.11500,-4.55000,0.00000,-0.00878,0.01086,-0.98552,2023,6,12,14,17,58,244
0.12430,2.94000,-4.42750,0.00000,-0.01037,0.00854,-0.98698,2023,6,12,14,17,58,256
0.12440,2.97500,-4.48000,0.00000,-0.01244,0.01147,-0.98698,2023,6,12,14,17,58,267
0.12450,3.01000,-4.49750,0.00000,-0.01049,0.00939,-0.98613,2023,6,12,14,17,58,278
0.12460,3.01000,-4.74250,0.00000,-0.00952,0.01061,-0.98503,2023,6,12,14,17,58,289
0.12470,3.11500,-4.72500,0.00000,-0.00988,0.00952,-0.98930,2023,6,12,14,17,58,300
0.12480,3.09750,-4.67250,0.00000,-0.01293,0.00952,-0.98698,2023,6,12,14,17,58,311
0.12490,2.87000,-4.39250,0.00000,-0.00939,0.01220,-0.98649,2023,6,12,14,17,58,322
0.12500,2.78250,-4.48000,0.00000,-0.01037,0.01147,-0.98979,2023,6,12,14,17,58,333
0.12510,3.01000,-4.72500,0.00000,-0.01244,0.00830,-0.98783,2023,6,12,14,17,58,344
0.12520,3.04500,-4.49750,0.00000,-0.01305,0.01147,-0.98649,2023,6,12,14,17,58,356
0.12530,2.92250,-4.69000,0.00000,-0.00976,0.01171,-0.98808,2023,6,12,14,17,58,367
0.12540,3.08000,-4.53250,0.00000,-0.01183,0.00939,-0.98735,2023,6,12,14,17,58,378
0.12550,2.97500,-4.55000,0.00000,-0.01342,0.01049,-0.98710,2023,6,12,14,17,58,389
0.12560,2.90500,-4.32250,0.00000,-0.01257,0.01025,-0.99015,2023,6,12,14,17,58,400
0.12570,2.88750,-4.30500,0.00000,-0.01183,0.01110,-0.99015,2023,6,12,14,17,58,411
0.12580,2.88750,-4.60250,0.00000,-0.01086,0.00927,-0.98576,2023,6,12,14,17,58,422
0.12590,2.94000,-4.46250,0.00000,-0.01086,0.00891,-0.98710,2023,6,12,14,17,58,433
0.12600,2.87000,-4.49750,0.00000,-0.01135,0.01013,-0.99186,2023,6,12,14,17,58,444
0.12610,3.06250,-4.53250,0.00000,-0.00927,0.00866,-0.98808,2023,6,12,14,17,58,456
0.12620,2.90500,-4.65500,0.00000,-0.00927,0.01098,-0.98491,2023,6,12,14,17,58,467
0.12630,3.04500,-4.62000,0.00000,-0.01098,0.00988,-0.98869,2023,6,12,14,17,58,478
0.12640,2.88750,-4.55000,0.00000,-0.01074,0.00976,-0.98783,2023,6,12,14,17,58,489
0.12650,3.02750,-4.55000,0.00000,-0.00842,0.00854,-0.98649,2023,6,12,14,17,58,500
0.12660,2.94000,-4.53250,0.00000,-0.01147,0.00732,-0.98649,2023,6,12,14,17,58,511
0.12670,3.02750,-4.49750,0.00000,-0.01000,0.01037,-0.98771,2023,6,12,14,17,58,522
0.12680,2.90500,-4.49750,0.00000,-0.01110,0.00866,-0.98637,2023,6,12,14,17,58,533
0.12690,2.94000,-4.46250,0.00000,-0.00988,0.01037,-0.98771,2023,6,12,14,17,58,544
0.12700,3.01000,-4.65500,0.00000,-0.01147,0.01074,-0.98832,2023,6,12,14,17,58,556
0.12710,2.73000,-4.58500,0.00000,-0.01013,0.00891,-0.98979,2023,6,12,14,17,58,567
0.12720,2.74750,-4.48000,0.00000,-0.01074,0.01098,-0.98747,2023,6,12,14,17,58,578
0.12730,3.06250,-4.51500,0.00000,-0.01135,0.00927,-0.98747,2023,6,12,14,17,58,589
0.12740,2.80000,-4.69000,0.00000,-0.01061,0.01037,-0.98832,2023,6,12,14,17,58,600
0.12750,2.95750,-4.55000,0.00000,-0.01257,0.01269,-0.98881,2023,6,12,14,17,58,611
0.12760,2.80000,-4.42750,0.00000,-0.00964,0.01086,-0.98686,2023,6,12,14,17,58,622
0.12770,3.01000,-4.56750,0.00000,-0.01159,0.01135,-0.98832,2023,6,12,14,17,58,633
0.12780,2.87000,-4.65500,0.00000,-0.01061,0.01122,-0.98735,2023,6,12,14,17,58,644
0.12790,2.94000,-4.58500,0.00000,-0.00976,0.00964,-0.98808,2023,6,12,14,17,58,656
0.12800,2.97500,-4.32250,0.00000,-0.00988,0.00915,-0.98710,2023,6,12,14,17,58,667
0.12810,2.97500,-4.56750,0.00000,-0.01013,0.00988,-0.98576,2023,6,12,14,17,58,678
0.12820,2.81750,-4.02500,0.00000,-0.01086,0.01159,-0.98625,2023,6,12,14,17,58,689
0.12830,3.01000,-4.67250,0.00000,-0.01086,0.01086,-0.98796,2023,6,12,14,17,58,700
0.12840,2.95750,-4.53250,0.00000,-0.01183,0.01061,-0.98637,2023,6,12,14,17,58,711
0.12850,2.69500,-4.49750,0.00000,-0.01196,0.00878,-0.98527,2023,6,12,14,17,58,722
0.12860,2.90500,-4.60250,0.00000,-0.01000,0.00952,-0.99003,2023,6,12,14,17,58,733
0.12870,2.87000,-4.55000,0.00000,-0.01269,0.00988,-0.98796,2023,6,12,14,17,58,744
0.12880,3.11500,-4.77750,0.00000,-0.01086,0.01110,-0.98661,2023,6,12,14,17,58,756
0.12890,2.99250,-4.48000,0.00000,-0.01037,0.00964,-0.98796,2023,6,12,14,17,58,767
0.12900,2.71250,-4.63750,0.00000,-0.00952,0.01074,-0.98625,2023,6,12,14,17,58,778
0.12910,2.94000,-4.58500,0.00000,-0.01061,0.01122,-0.98710,2023,6,12,14,17,58,789
0.12920,2.83500,-4.46250,0.00000,-0.01135,0.01098,-0.98588,2023,6,12,14,17,58,800
0.12930,2.95750,-4.62000,0.00000,-0.00952,0.00903,-0.98966,2023,6,12,14,17,58,811
0.12940,3.02750,-4.55000,0.00000,-0.00952,0.00952,-0.98686,2023,6,12,14,17,58,822
0.12950,2.99250,-4.42750,0.00000,-0.01122,0.01037,-0.98893,2023,6,12,14,17,58,833
0.12960,3.06250,-4.65500,0.00000,-0.01074,0.00939,-0.98564,2023,6,12,14,17,58,844
0.12970,3.04500,-4.74250,0.00000,-0.00964,0.01061,-0.98649,2023,6,12,14,17,58,856
0.12980,2.94000,-4.51500,0.00000,-0.01098,0.01086,-0.98625,2023,6,12,14,17,58,867
0.12990,2.99250,-4.60250,0.00000,-0.00903,0.01086,-0.99076,2023,6,12,14,17,58,878
0.13000,2.94000,-4.51500,0.00000,-0.01147,0.01049,-0.98576,2023,6,12,14,17,58,889
0.13010,2.95750,-4.49750,0.00000,-0.00915,0.01135,-0.98857,2023,6,12,14,17,58,900
0.13020,2.90500,-4.53250,0.00000,-0.01074,0.00903,-0.98710,2023,6,12,14,17,58,911
0.13030,2.80000,-4.49750,0.00000,-0.01220,0.00976,-0.98832,2023,6,12,14,17,58,922
0.13040,2.88750,-4.65500,0.00000,-0.01159,0.01159,-0.98820,2023,6,12,14,17,58,933
0.13050,3.15000,-4.44500,0.00000,-0.01220,0.00964,-0.98869,2023,6,12,14,17,58,944
0.13060,3.13250,-4.74250,0.00000,-0.00952,0.00939,-0.98613,2023,6,12,14,17,58,956
0.13070,2.90500,-4.53250,0.00000,-0.01037,0.01049,-0.98527,2023,6,12,14,17,58,967
0.13080,2.85250,-4.48000,0.00000,-0.01269,0.00866,-0.98796,2023,6,12,14,17,59,8
0.13090,2.87000,-4.53250,0.00000,-0.01074,0.01013,-0.98869,2023,6,12,14,17,59,19
0.13100,2.94000,-4.55000,0.00000,-0.00988,0.01110,-0.99040,2023,6,12,14,17,59,30
0.13110,3.01000,-4.56750,0.00000,-0.00927,0.00842,-0.98600,2023,6,12,14,17,59,41
0.13120,2.69500,-4.60250,0.00000,-0.01196,0.01122,-0.98820,2023,6,12,14,17,59,52
0.13130,2.97500,-4.51500,0.00000,-0.01037,0.00891,-0.98893,2023,6,12,14,17,59,63
0.13140,3.02750,-4.77750,0.00000,-0.00915,0.01037,-0.98674,2023,6,12,14,17,59,74
0.13150,3.02750,-4.70750,0.00000,-0.01318,0.01074,-0.98747,2023,6,12,14,17,59,86
0.13160,2.99250,-4.49750,0.00000,-0.01025,0.01159,-0.98771,2023,6,12,14,17,59,97
0.13170,2.92250,-4.56750,0.00000,-0.01318,0.00976,-0.99198,2023,6,12,14,17,59,108
0.13180,3.06250,-4.42750,0.00000,-0.01330,0.01025,-0.98820,2023,6,12,14,17,59,119
0.13190,2.78250,-4.48000,0.00000,-0.01110,0.01220,-0.98930,2023,6,12,14,17,59,130
0.13200,2.83500,-4.55000,0.00000,-0.01013,0.00964,-0.98771,2023,6,12,14,17,59,141
0.13210,2.99250,-4.44500,0.00000,-0.01159,0.00915,-0.98698,2023,6,12,14,17,59,152
0.13220,2.90500,-4.35750,0.00000,-0.01220,0.01049,-0.98857,2023,6,12,14,17,59,163
0.13230,2.81750,-4.51500,0.00000,-0.01086,0.01110,-0.98710,2023,6,12,14,17,59,174
0.13240,2.78250,-4.51500,0.00000,-0.01122,0.00976,-0.98661,2023,6,12,14,17,59,186
0.13250,2.88750,-4.56750,0.00000,-0.01013,0.01110,-0.98698,2023,6,12,14,17,59,197
0.13260,2.99250,-4.65500,0.00000,-0.01147,0.01171,-0.98857,2023,6,12,14,17,59,208
0.13270,2.95750,-4.53250,0.00000,-0.01086,0.01098,-0.98942,2023,6,12,14,17,59,219
0.13280,2.83500,-4.37500,0.00000,-0.01318,0.00793,-0.98637,2023,6,12,14,17,59,230
0.13290,2.92250,-4.46250,0.00000,-0.01013,0.01013,-0.99064,2023,6,12,14,17,59,241
0.13300,2.95750,-4.39250,0.00000,-0.01074,0.00915,-0.98844,2023,6,12,14,17,59,252
0.13310,2.80000,-4.51500,0.00000,-0.01208,0.01098,-0.98991,2023,6,12,14,17,59,263
0.13320,3.01000,-4.53250,0.00000,-0.01183,0.01110,-0.98796,2023,6,12,14,17,59,274
0.13330,2.90500,-4.37500,0.00000,-0.00976,0.01208,-0.99088,2023,6,12,14,17,59,286
0.13340,3.02750,-4.63750,0.00000,-0.01037,0.00854,-0.98979,2023,6,12,14,17,59,297
0.13350,2.88750,-4.70750,0.00000,-0.01183,0.00866,-0.98613,2023,6,12,14,17,59,308
0.13360,2.87000,-4.53250,0.00000,-0.01196,0.00927,-0.98930,2023,6,12,14,17,59,319
0.13370,3.01000,-4.70750,0.00000,-0.01000,0.00976,-0.98686,2023,6,12,14,17,59,330
0.13380,2.90500,-4.74250,0.00000,-0.01049,0.01013,-0.98515,2023,6,12,14,17,59,341
0.13390,2.85250,-4.53250,0.00000,-0.00927,0.01061,-0.99259,2023,6,12,14,17,59,352
0.13400,3.06250,-4.53250,0.00000,-0.01098,0.01013,-0.99198,2023,6,12,14,17,59,363
0.13410,2.90500,-4.62000,0.00000,-0.01037,0.01122,-0.99027,2023,6,12,14,17,59,374
0.13420,2.87000,-4.69000,0.00000,-0.01013,0.00903,-0.98344,2023,6,12,14,17,59,386
0.13430,3.25500,-4.62000,0.00000,-0.01171,0.01122,-0.98478,2023,6,12,14,17,59,397
0.13440,2.83500,-4.48000,0.00000,-0.00915,0.00976,-0.98588,2023,6,12,14,17,59,408
0.13450,3.04500,-4.63750,0.00000,-0.00988,0.01000,-0.99052,2023,6,12,14,17,59,419
0.13460,2.87000,-4.35750,0.00000,-0.01171,0.00939,-0.98881,2023,6,12,14,17,59,430
0.13470,2.83500,-4.49750,0.00000,-0.00964,0.00878,-0.99027,2023,6,12,14,17,59,441
0.13480,3.01000,-4.62000,0.00000,-0.00878,0.00952,-0.98747,2023,6,12,14,17,59,452
0.13490,3.04500,-4.70750,0.00000,-0.01183,0.00866,-0.98918,2023,6,12,14,17,59,463
0.13500,2.83500,-4.46250,0.00000,-0.01110,0.00817,-0.98759,2023,6,12,14,17,59,474
0.13510,3.01000,-4.60250,0.00000,-0.01318,0.00964,-0.98625,2023,6,12,14,17,59,486
0.13520,2.87000,-4.56750,0.00000,-0.01110,0.00830,-0.98808,2023,6,12,14,17,59,497
0.13530,3.09750,-4.93500,0.00000,-0.00903,0.01171,-0.98588,2023,6,12,14,17,59,508
0.13540,3.06250,-4.67250,0.00000,-0.00830,0.00976,-0.98869,2023,6,12,14,17,59,519
0.13550,3.08000,-4.79500,0.00000,-0.01147,0.00903,-0.98503,2023,6,12,14,17,59,530
0.13560,3.13250,-4.55000,0.00000,-0.01183,0.00939,-0.98600,2023,6,12,14,17,59,541
0.13570,2.97500,-4.58500,0.00000,-0.01037,0.01025,-0.98808,2023,6,12,14,17,59,552
0.13580,2.76500,-4.53250,0.00000,-0.01000,0.00952,-0.98674,2023,6,12,14,17,59,563
0.13590,2.92250,-4.79500,0.00000,-0.01098,0.01098,-0.99003,2023,6,12,14,17,59,574
0.13600,2.88750,-4.37500,0.00000,-0.01074,0.01013,-0.98588,2023,6,12,14,17,59,586
0.13610,2.90500,-4.39250,0.00000,-0.01196,0.01061,-0.98466,2023,6,12,14,17,59,597
0.13620,2.81750,-4.41000,0.00000,-0.01061,0.01122,-0.98735,2023,6,12,14,17,59,608
0.13630,3.06250,-4.55000,0.00000,-0.01049,0.00988,-0.98783,2023,6,12,14,17,59,619
0.13640,2.94000,-4.42750,0.00000,-0.01098,0.00952,-0.98796,2023,6,12,14,17,59,630
0.13650,2.97500,-4.60250,0.00000,-0.01342,0.01220,-0.98991,2023,6,12,14,17,59,641
0.13660,2.97500,-4.63750,0.00000,-0.01122,0.01037,-0.99003,2023,6,12,14,17,59,652
0.13670,2.97500,-4.55000,0.00000,-0.01037,0.01013,-0.98966,2023,6,12,14,17,59,663
0.13680,2.88750,-4.55000,0.00000,-0.01049,0.00976,-0.98844,2023,6,12,14,17,59,674
0.13690,2.95750,-4.63750,0.00000,-0.00891,0.01037,-0.98918,2023,6,12,14,17,59,686
0.13700,2.87000,-4.56750,0.00000,-0.00964,0.01122,-0.98930,2023,6,12,14,17,59,697
0.13710,3.08000,-4.48000,0.00000,-0.01196,0.01159,-0.98722,2023,6,12,14,17,59,708
0.13720,3.02750,-4.72500,0.00000,-0.01183,0.01159,-0.98735,2023,6,12,14,17,59,719
0.13730,2.85250,-4.65500,0.00000,-0.01171,0.01086,-0.98588,2023,6,12,14,17,59,730
0.13740,2.94000,-4.37500,0.00000,-0.01074,0.00830,-0.98893,2023,6,12,14,17,59,741
0.13750,2.88750,-4.63750,0.00000,-0.01074,0.00939,-0.98722,2023,6,12,14,17,59,752
0.13760,2.97500,-4.55000,0.00000,-0.01159,0.01122,-0.98783,2023,6,12,14,17,59,763
0.13770,2.88750,-4.69000,0.00000,-0.01122,0.00952,-0.98747,2023,6,12,14,17,59,774
0.13780,2.80000,-4.39250,0.00000,-0.01232,0.00927,-0.98808,2023,6,12,14,17,59,786
0.13790,2.97500,-4.44500,0.00000,-0.01049,0.00976,-0.98564,2023,6,12,14,17,59,797
0.13800,3.01000,-4.41000,0.00000,-0.01061,0.00964,-0.98796,2023,6,12,14,17,59,808
0.13810,3.04500,-4.62000,0.00000,-0.01171,0.01098,-0.98661,2023,6,12,14,17,59,819
0.13820,3.08000,-4.37500,0.00000,-0.01086,0.01000,-0.98771,2023,6,12,14,17,59,830
0.13830,2.88750,-4.37500,0.00000,-0.00915,0.01000,-0.98954,2023,6,12,14,17,59,841
0.13840,2.78250,-4.28750,0.00000,-0.01074,0.00817,-0.99040,2023,6,12,14,17,59,852
0.13850,3.11500,-4.77750,0.00000,-0.01122,0.01074,-0.99137,2023,6,12,14,17,59,863
0.13860,2.88750,-4.51500,0.00000,-0.00891,0.00952,-0.98722,2023,6,12,14,17,59,874
0.13870,2.99250,-4.65500,0.00000,-0.01318,0.01122,-0.98759,2023,6,12,14,17,59,886
0.13880,2.88750,-4.51500,0.00000,-0.00915,0.00952,-0.98552,2023,6,12,14,17,59,897
0.13890,2.94000,-4.56750,0.00000,-0.01171,0.01000,-0.98893,2023,6,12,14,17,59,908
0.13900,3.01000,-4.67250,0.00000,-0.01013,0.00903,-0.98442,2023,6,12,14,17,59,919
0.13910,3.11500,-4.67250,0.00000,-0.01305,0.01147,-0.98649,2023,6,12,14,17,59,930
0.13920,3.02750,-4.60250,0.00000,-0.01110,0.00903,-0.98783,2023,6,12,14,17,59,941
0.13930,2.94000,-4.49750,0.00000,-0.01037,0.01147,-0.98478,2023,6,12,14,17,59,952
0.13940,3.08000,-4.51500,0.00000,-0.01122,0.01196,-0.98613,2023,6,12,14,17,59,963
0.13950,2.95750,-4.55000,0.00000,-0.01074,0.01147,-0.99040,2023,6,12,14,17,59,974
0.13960,2.83500,-4.76000,0.00000,-0.01074,0.01098,-0.98918,2023,6,12,14,17,59,986
0.13970,2.80000,-4.30500,0.00000,-0.00878,0.01049,-0.98503,2023,6,12,14,18,0,7
0.13980,2.94000,-4.63750,0.00000,-0.01135,0.00976,-0.98649,2023,6,12,14,18,0,18
0.13990,2.81750,-4.44500,0.00000,-0.01122,0.01037,-0.98478,2023,6,12,14,18,0,29
0.14000,2.92250,-4.62000,0.00000,-0.01135,0.00915,-0.98796,2023,6,12,14,18,0,40
0.14010,3.01000,-4.67250,0.00000,-0.01305,0.01086,-0.98625,2023,6,12,14,18,0,51
0.14020,3.08000,-4.70750,0.00000,-0.01281,0.00988,-0.98674,2023,6,12,14,18,0,62
0.14030,2.97500,-4.53250,0.00000,-0.01074,0.01183,-0.98735,2023,6,12,14,18,0,73
0.14040,3.01000,-4.60250,0.00000,-0.00964,0.01098,-0.98747,2023,6,12,14,18,0,84
0.14050,2.94000,-4.48000,0.00000,-0.00988,0.01049,-0.98661,2023,6,12,14,18,0,96
0.14060,2.80000,-4.53250,0.00000,-0.01074,0.01183,-0.98771,2023,6,12,14,18,0,107
0.14070,3.01000,-4.37500,0.00000,-0.01086,0.00756,-0.99259,2023,6,12,14,18,0,118
0.14080,3.15000,-4.44500,0.00000,-0.01074,0.00988,-0.98796,2023,6,12,14,18,0,129
0.14090,2.88750,-4.48000,0.00000,-0.01086,0.00927,-0.98820,2023,6,12,14,18,0,140
0.14100,2.88750,-4.65500,0.00000,-0.01013,0.01159,-0.98661,2023,6,12,14,18,0,151
0.14110,3.09750,-4.67250,0.00000,-0.01122,0.00988,-0.98698,2023,6,12,14,18,0,162
0.14120,2.83500,-4.35750,0.00000,-0.00976,0.00964,-0.98979,2023,6,12,14,18,0,173
0.14130,2.97500,-4.44500,0.00000,-0.01037,0.01086,-0.99003,2023,6,12,14,18,0,184
0.14140,3.11500,-4.63750,0.00000,-0.01110,0.01013,-0.98844,2023,6,12,14,18,0,196
0.14150,2.99250,-4.69000,0.00000,-0.01257,0.00793,-0.98759,2023,6,12,14,18,0,207
0.14160,2.97500,-4.56750,0.00000,-0.01171,0.01147,-0.98710,2023,6,12,14,18,0,218
0.14170,2.81750,-4.51500,0.00000,-0.01135,0.01074,-0.98722,2023,6,12,14,18,0,229
0.14180,2.88750,-4.60250,0.00000,-0.01025,0.01037,-0.98710,2023,6,12,14,18,0,240
0.14190,2.95750,-4.76000,0.00000,-0.01159,0.01159,-0.98588,2023,6,12,14,18,0,251
0.14200,2.99250,-4.32250,0.00000,-0.01013,0.01122,-0.99088,2023,6,12,14,18,0,262
0.14210,2.78250,-4.42750,0.00000,-0.01147,0.00903,-0.98576,2023,6,12,14,18,0,273
0.14220,3.02750,-4.46250,0.00000,-0.01147,0.01074,-0.98820,2023,6,12,14,18,0,284
0.14230,2.88750,-4.49750,0.00000,-0.01159,0.00939,-0.98844,2023,6,12,14,18,0,296
0.14240,2.87000,-4.56750,0.00000,-0.01122,0.01000,-0.98930,2023,6,12,14,18,0,307
0.14250,2.88750,-4.49750,0.00000,-0.00964,0.01000,-0.98625,2023,6,12,14,18,0,318
0.14260,3.02750,-4.56750,0.00000,-0.00903,0.01342,-0.98954,2023,6,12,14,18,0,329
0.14270,3.16750,-4.72500,0.00000,-0.01013,0.00891,-0.98735,2023,6,12,14,18,0,340
0.14280,2.95750,-4.41000,0.00000,-0.00891,0.00952,-0.98661,2023,6,12,14,18,0,351
0.14290,2.99250,-4.69000,0.00000,-0.01147,0.01196,-0.98588,2023,6,12,14,18,0,362
0.14300,3.02750,-4.56750,0.00000,-0.01061,0.01098,-0.98881,2023,6,12,14,18,0,373
0.14310,2.85250,-4.41000,0.00000,-0.01159,0.01000,-0.99052,2023,6,12,14,18,0,384
0.14320,3.02750,-4.65500,0.00000,-0.01000,0.00891,-0.99113,2023,6,12,14,18,0,396
0.14330,2.85250,-4.53250,0.00000,-0.00988,0.00793,-0.98600,2023,6,12,14,18,0,407
0.14340,2.87000,-4.51500,0.00000,-0.00952,0.00976,-0.99003,2023,6,12,14,18,0,418
0.14350,3.02750,-4.41000,0.00000,-0.01220,0.01196,-0.98820,2023,6,12,14,18,0,429
0.14360,3.02750,-4.42750,0.00000,-0.01208,0.01183,-0.98881,2023,6,12,14,18,0,440
0.14370,2.90500,-4.67250,0.00000,-0.01147,0.01049,-0.98686,2023,6,12,14,18,0,451
0.14380,2.94000,-4.58500,0.00000,-0.01135,0.00952,-0.98771,2023,6,12,14,18,0,462
0.14390,2.99250,-4.56750,0.00000,-0.01171,0.01074,-0.98796,2023,6,12,14,18,0,473
0.14400,2.88750,-4.56750,0.00000,-0.00854,0.01086,-0.98503,2023,6,12,14,18,0,484
0.14410,3.02750,-4.41000,0.00000,-0.00927,0.01122,-0.98564,2023,6,12,14,18,0,496
0.14420,3.02750,-4.77750,0.00000,-0.01122,0.01147,-0.98576,2023,6,12,14,18,0,507
0.14430,2.99250,-4.49750,0.00000,-0.01281,0.01025,-0.98393,2023,6,12,14,18,0,518
0.14440,2.97500,-4.49750,0.00000,-0.01135,0.00878,-0.98710,2023,6,12,14,18,0,529
0.14450,2.88750,-4.53250,0.00000,-0.01049,0.01074,-0.98783,2023,6,12,14,18,0,540
0.14460,2.97500,-4.79500,0.00000,-0.01098,0.01074,-0.98539,2023,6,12,14,18,0,551
0.14470,2.85250,-4.41000,0.00000,-0.01135,0.01135,-0.98796,2023,6,12,14,18,0,562
0.14480,3.01000,-4.49750,0.00000,-0.01293,0.00854,-0.98747,2023,6,12,14,18,0,573
0.14490,2.88750,-4.53250,0.00000,-0.00952,0.01135,-0.98844,2023,6,12,14,18,0,584
0.14500,2.90500,-4.39250,0.00000,-0.01110,0.00744,-0.98735,2023,6,12,14,18,0,596
0.14510,3.04500,-4.58500,0.00000,-0.01061,0.00927,-0.98674,2023,6,12,14,18,0,607
0.14520,2.87000,-4.34000,0.00000,-0.01232,0.00878,-0.98759,2023,6,12,14,18,0,618
0.14530,2.81750,-4.53250,0.00000,-0.01098,0.00964,-0.98625,2023,6,12,14,18,0,629
0.14540,2.80000,-4.55000,0.00000,-0.01232,0.01037,-0.98844,2023,6,12,14,18,0,640
0.14550,2.81750,-4.65500,0.00000,-0.00964,0.00842,-0.98625,2023,6,12,14,18,0,651
0.14560,3.01000,-4.58500,0.00000,-0.01098,0.01135,-0.98759,2023,6,12,14,18,0,662
0.14570,2.90500,-4.56750,0.00000,-0.00964,0.01000,-0.98747,2023,6,12,14,18,0,673
0.14580,2.94000,-4.41000,0.00000,-0.01257,0.00964,-0.98649,2023,6,12,14,18,0,684
0.14590,2.76500,-4.48000,0.00000,-0.01086,0.00964,-0.98637,2023,6,12,14,18,0,696
0.14600,2.94000,-4.51500,0.00000,-0.00903,0.01049,-0.98796,2023,6,12,14,18,0,707
0.14610,3.04500,-4.39250,0.00000,-0.01037,0.01000,-0.98759,2023,6,12,14,18,0,718
0.14620,3.06250,-4.62000,0.00000,-0.00891,0.01171,-0.98966,2023,6,12,14,18,0,729
0.14630,2.76500,-4.49750,0.00000,-0.01147,0.00927,-0.98893,2023,6,12,14,18,0,740
0.14640,2.78250,-4.32250,0.00000,-0.00952,0.00793,-0.98918,2023,6,12,14,18,0,751
