#2023/06/12 13:47:55
time,wx,wy,wz,ax,ay,az,yy,MM,dd,hh,mm,ss,ms
0.00000,3.11500,-4.62000,0.00000,-0.01025,0.01183,-0.98381,2023,6,12,13,47,55,170
0.00010,2.81750,-4.30500,0.00000,-0.01061,0.01220,-0.98674,2023,6,12,13,47,55,181
0.00020,3.06250,-4.65500,0.00000,-0.01403,0.00976,-0.98747,2023,6,12,13,47,55,192
0.00030,3.02750,-4.39250,0.00000,-0.01171,0.01086,-0.98820,2023,6,12,13,47,55,203
0.00040,2.92250,-4.56750,0.00000,-0.01171,0.01037,-0.99003,2023,6,12,13,47,55,214
0.00050,2.83500,-4.32250,0.00000,-0.01183,0.01135,-0.99052,2023,6,12,13,47,55,225
0.00060,2.95750,-4.58500,0.00000,-0.01183,0.00988,-0.98808,2023,6,12,13,47,55,236
0.00070,3.08000,-4.69000,0.00000,-0.01135,0.01257,-0.98808,2023,6,12,13,47,55,247
0.00080,2.97500,-4.62000,0.00000,-0.01415,0.01196,-0.99174,2023,6,12,13,47,55,258
0.00090,3.08000,-4.65500,0.00000,-0.01049,0.01135,-0.98759,2023,6,12,13,47,55,270
0.00100,3.02750,-4.44500,0.00000,-0.01025,0.01061,-0.98893,2023,6,12,13,47,55,281
0.00110,2.94000,-4.77750,0.00000,-0.01098,0.01025,-0.98820,2023,6,12,13,47,55,292
0.00120,3.08000,-4.48000,0.00000,-0.01049,0.01159,-0.99076,2023,6,12,13,47,55,303
0.00130,2.81750,-4.65500,0.00000,-0.01232,0.01220,-0.99076,2023,6,12,13,47,55,314
0.00140,2.95750,-4.63750,0.00000,-0.00915,0.01037,-0.99027,2023,6,12,13,47,55,325
0.00150,2.95750,-4.51500,0.00000,-0.01049,0.01196,-0.99076,2023,6,12,13,47,55,336
0.00160,2.95750,-4.62000,0.00000,-0.01208,0.01232,-0.98881,2023,6,12,13,47,55,347
0.00170,2.90500,-4.56750,0.00000,-0.01171,0.01269,-0.98820,2023,6,12,13,47,55,358
0.00180,2.99250,-4.58500,0.00000,-0.01159,0.01110,-0.98979,2023,6,12,13,47,55,369
0.00190,3.13250,-4.56750,0.00000,-0.01220,0.00927,-0.98674,2023,6,12,13,47,55,381
0.00200,2.99250,-4.60250,0.00000,-0.01135,0.01183,-0.98844,2023,6,12,13,47,55,392
0.00210,2.83500,-4.51500,0.00000,-0.01159,0.01281,-0.98661,2023,6,12,13,47,55,403
0.00220,2.94000,-4.27000,0.00000,-0.01196,0.01171,-0.98954,2023,6,12,13,47,55,414
0.00230,2.97500,-4.55000,0.00000,-0.01452,0.01196,-0.98735,2023,6,12,13,47,55,425
0.00240,3.13250,-4.62000,0.00000,-0.01135,0.01171,-0.98893,2023,6,12,13,47,55,436
0.00250,3.13250,-4.58500,0.00000,-0.01281,0.01171,-0.99003,2023,6,12,13,47,55,447
0.00260,2.85250,-4.46250,0.00000,-0.01159,0.01074,-0.98832,2023,6,12,13,47,55,458
0.00270,3.01000,-4.44500,0.00000,-0.01098,0.01098,-0.98722,2023,6,12,13,47,55,469
0.00280,2.95750,-4.51500,0.00000,-0.01366,0.00988,-0.99088,2023,6,12,13,47,55,481
0.00290,3.13250,-4.69000,0.00000,-0.01269,0.01110,-0.99296,2023,6,12,13,47,55,492
0.00300,2.80000,-4.69000,0.00000,-0.00952,0.01098,-0.99003,2023,6,12,13,47,55,503
0.00310,2.95750,-4.70750,0.00000,-0.01183,0.01135,-0.98844,2023,6,12,13,47,55,514
0.00320,2.94000,-4.65500,0.00000,-0.01147,0.01159,-0.98869,2023,6,12,13,47,55,525
0.00330,2.90500,-4.72500,0.00000,-0.01122,0.01086,-0.98918,2023,6,12,13,47,55,536
0.00340,3.09750,-4.41000,0.00000,-0.01220,0.00988,-0.98478,2023,6,12,13,47,55,547
0.00350,2.94000,-4.74250,0.00000,-0.01159,0.01074,-0.98771,2023,6,12,13,47,55,558
0.00360,3.13250,-4.77750,0.00000,-0.00842,0.01220,-0.98844,2023,6,12,13,47,55,569
0.00370,2.97500,-4.48000,0.00000,-0.01086,0.00891,-0.98710,2023,6,12,13,47,55,581
0.00380,3.11500,-4.53250,0.00000,-0.00964,0.01098,-0.99113,2023,6,12,13,47,55,592
0.00390,3.20250,-4.79500,0.00000,-0.01183,0.00952,-0.99003,2023,6,12,13,47,55,603
0.00400,2.60750,-4.62000,0.00000,-0.01086,0.01244,-0.99320,2023,6,12,13,47,55,614
0.00410,2.95750,-4.58500,0.00000,-0.01171,0.01159,-0.98954,2023,6,12,13,47,55,625
0.00420,2.94000,-4.67250,0.00000,-0.01110,0.01110,-0.99210,2023,6,12,13,47,55,636
0.00430,2.83500,-4.76000,0.00000,-0.01147,0.01122,-0.98674,2023,6,12,13,47,55,647
0.00440,2.85250,-4.56750,0.00000,-0.01281,0.01086,-0.99223,2023,6,12,13,47,55,658
0.00450,3.06250,-4.56750,0.00000,-0.01244,0.01049,-0.99088,2023,6,12,13,47,55,669
0.00460,2.94000,-4.70750,0.00000,-0.01293,0.01000,-0.98881,2023,6,12,13,47,55,681
0.00470,3.04500,-4.58500,0.00000,-0.01281,0.01086,-0.99162,2023,6,12,13,47,55,692
0.00480,3.06250,-4.48000,0.00000,-0.01159,0.01110,-0.99015,2023,6,12,13,47,55,703
0.00490,2.95750,-4.46250,0.00000,-0.01037,0.01232,-0.99027,2023,6,12,13,47,55,714
0.00500,2.90500,-4.62000,0.00000,-0.01025,0.01000,-0.99162,2023,6,12,13,47,55,725
0.00510,3.13250,-4.51500,0.00000,-0.01074,0.01074,-0.98832,2023,6,12,13,47,55,736
0.00520,2.94000,-4.55000,0.00000,-0.00976,0.00976,-0.99003,2023,6,12,13,47,55,747
0.00530,2.71250,-4.58500,0.00000,-0.01171,0.01269,-0.98905,2023,6,12,13,47,55,758
0.00540,2.99250,-4.60250,0.00000,-0.01196,0.00988,-0.98747,2023,6,12,13,47,55,769
0.00550,2.97500,-4.62000,0.00000,-0.01159,0.01147,-0.98808,2023,6,12,13,47,55,781
0.00560,2.92250,-4.53250,0.00000,-0.01159,0.01171,-0.99210,2023,6,12,13,47,55,792
0.00570,3.13250,-4.62000,0.00000,-0.01025,0.01025,-0.98808,2023,6,12,13,47,55,803
0.00580,3.02750,-4.44500,0.00000,-0.01244,0.00866,-0.99149,2023,6,12,13,47,55,814
0.00590,2.97500,-4.60250,0.00000,-0.01318,0.01098,-0.99003,2023,6,12,13,47,55,825
0.00600,2.85250,-4.21750,0.00000,-0.01147,0.01244,-0.99015,2023,6,12,13,47,55,836
0.00610,3.08000,-4.48000,0.00000,-0.00952,0.01086,-0.98918,2023,6,12,13,47,55,847
0.00620,3.08000,-4.72500,0.00000,-0.00891,0.01293,-0.98893,2023,6,12,13,47,55,858
0.00630,3.04500,-4.62000,0.00000,-0.01110,0.01086,-0.99125,2023,6,12,13,47,55,869
0.00640,2.95750,-4.63750,0.00000,-0.01269,0.00964,-0.98954,2023,6,12,13,47,55,881
0.00650,3.01000,-4.65500,0.00000,-0.01122,0.01269,-0.99040,2023,6,12,13,47,55,892
0.00660,3.08000,-4.49750,0.00000,-0.00915,0.01037,-0.98905,2023,6,12,13,47,55,903
0.00670,2.85250,-4.63750,0.00000,-0.01049,0.01196,-0.99101,2023,6,12,13,47,55,914
0.00680,2.78250,-4.46250,0.00000,-0.00976,0.01098,-0.99003,2023,6,12,13,47,55,925
0.00690,3.01000,-4.51500,0.00000,-0.01147,0.01244,-0.99015,2023,6,12,13,47,55,936
0.00700,3.23750,-4.70750,0.00000,-0.01147,0.01171,-0.98942,2023,6,12,13,47,55,947
0.00710,3.01000,-4.37500,0.00000,-0.01074,0.01183,-0.98759,2023,6,12,13,47,55,958
0.00720,2.94000,-4.65500,0.00000,-0.01122,0.01061,-0.99040,2023,6,12,13,47,55,969
0.00730,3.01000,-4.55000,0.00000,-0.01135,0.01000,-0.98954,2023,6,12,13,47,55,981
0.00740,2.87000,-4.51500,0.00000,-0.01281,0.01122,-0.99174,2023,6,12,13,47,55,992
0.00750,2.90500,-4.49750,0.00000,-0.01281,0.01208,-0.98808,2023,6,12,13,47,55,3
0.00760,3.06250,-4.63750,0.00000,-0.01013,0.01074,-0.99027,2023,6,12,13,47,55,14
0.00770,2.90500,-4.69000,0.00000,-0.01135,0.00903,-0.98991,2023,6,12,13,47,55,25
0.00780,3.08000,-4.51500,0.00000,-0.01257,0.01257,-0.99174,2023,6,12,13,47,55,36
0.00790,2.94000,-4.53250,0.00000,-0.01208,0.01110,-0.99101,2023,6,12,13,47,55,47
0.00800,2.95750,-4.41000,0.00000,-0.01074,0.01061,-0.99528,2023,6,12,13,47,55,58
0.00810,3.11500,-4.37500,0.00000,-0.01147,0.01086,-0.98930,2023,6,12,13,47,55,69
0.00820,3.13250,-4.60250,0.00000,-0.01074,0.01269,-0.98893,2023,6,12,13,47,55,81
0.00830,2.95750,-4.53250,0.00000,-0.01305,0.01232,-0.98869,2023,6,12,13,47,55,92
0.00840,2.88750,-4.48000,0.00000,-0.01000,0.01037,-0.99149,2023,6,12,13,47,55,103
0.00850,3.06250,-4.56750,0.00000,-0.01135,0.01098,-0.98844,2023,6,12,13,47,55,114
0.00860,2.97500,-4.63750,0.00000,-0.01208,0.01037,-0.98808,2023,6,12,13,47,55,125
0.00870,2.90500,-4.56750,0.00000,-0.00988,0.01000,-0.99052,2023,6,12,13,47,55,136
0.00880,3.11500,-4.35750,0.00000,-0.01135,0.00915,-0.99186,2023,6,12,13,47,55,147
0.00890,3.02750,-4.77750,0.00000,-0.01257,0.00842,-0.99186,2023,6,12,13,47,55,158
0.00900,3.09750,-4.65500,0.00000,-0.01122,0.01403,-0.98905,2023,6,12,13,47,55,169
0.00910,2.95750,-4.42750,0.00000,-0.01049,0.00976,-0.99125,2023,6,12,13,47,55,181
0.00920,3.15000,-4.65500,0.00000,-0.01183,0.01196,-0.99320,2023,6,12,13,47,55,192
0.00930,2.92250,-4.65500,0.00000,-0.01110,0.00805,-0.99125,2023,6,12,13,47,55,203
0.00940,3.08000,-4.46250,0.00000,-0.01037,0.01244,-0.98966,2023,6,12,13,47,55,214
0.00950,3.01000,-4.51500,0.00000,-0.01293,0.01232,-0.98979,2023,6,12,13,47,55,225
0.00960,2.99250,-4.53250,0.00000,-0.00939,0.00878,-0.99235,2023,6,12,13,47,55,236
0.00970,3.04500,-4.37500,0.00000,-0.01159,0.01025,-0.99113,2023,6,12,13,47,55,247
0.00980,3.04500,-4.62000,0.00000,-0.01147,0.01049,-0.99125,2023,6,12,13,47,55,258
0.00990,2.92250,-4.48000,0.00000,-0.01159,0.01098,-0.98735,2023,6,12,13,47,55,269
0.01000,2.97500,-4.51500,0.00000,-0.01000,0.01183,-0.99088,2023,6,12,13,47,55,281
0.01010,3.08000,-4.63750,0.00000,-0.01122,0.01110,-0.99101,2023,6,12,13,47,55,292
0.01020,3.02750,-4.62000,0.00000,-0.01208,0.01171,-0.99052,2023,6,12,13,47,56,3
0.01030,3.04500,-4.67250,0.00000,-0.01098,0.01171,-0.99259,2023,6,12,13,47,56,14
0.01040,2.97500,-4.58500,0.00000,-0.01049,0.01098,-0.98942,2023,6,12,13,47,56,25
0.01050,2.95750,-4.76000,0.00000,-0.01281,0.01403,-0.99174,2023,6,12,13,47,56,36
0.01060,2.99250,-4.42750,0.00000,-0.01220,0.01110,-0.99101,2023,6,12,13,47,56,47
0.01070,3.06250,-4.48000,0.00000,-0.01293,0.01049,-0.98979,2023,6,12,13,47,56,58
0.01080,2.97500,-4.48000,0.00000,-0.01159,0.01049,-0.99015,2023,6,12,13,47,56,69
0.01090,2.94000,-4.51500,0.00000,-0.00976,0.01000,-0.99040,2023,6,12,13,47,56,81
0.01100,2.97500,-4.30500,0.00000,-0.00988,0.01257,-0.98930,2023,6,12,13,47,56,92
0.01110,2.81750,-4.74250,0.00000,-0.01281,0.01098,-0.99149,2023,6,12,13,47,56,103
0.01120,2.97500,-4.74250,0.00000,-0.01183,0.01074,-0.98857,2023,6,12,13,47,56,114
0.01130,2.90500,-4.77750,0.00000,-0.01049,0.01318,-0.99088,2023,6,12,13,47,56,125
0.01140,2.92250,-4.55000,0.00000,-0.00952,0.01305,-0.98918,2023,6,12,13,47,56,136
0.01150,3.02750,-4.77750,0.00000,-0.01220,0.01232,-0.98857,2023,6,12,13,47,56,147
0.01160,3.09750,-4.41000,0.00000,-0.01379,0.00964,-0.99052,2023,6,12,13,47,56,158
0.01170,3.01000,-4.53250,0.00000,-0.01086,0.01281,-0.99137,2023,6,12,13,47,56,169
0.01180,3.02750,-4.60250,0.00000,-0.01196,0.01013,-0.99064,2023,6,12,13,47,56,181
0.01190,3.01000,-4.37500,0.00000,-0.01098,0.01159,-0.99174,2023,6,12,13,47,56,192
0.01200,3.01000,-4.56750,0.00000,-0.01098,0.01183,-0.99113,2023,6,12,13,47,56,203
0.01210,2.95750,-4.51500,0.00000,-0.01122,0.01244,-0.99101,2023,6,12,13,47,56,214
0.01220,3.20250,-4.76000,0.00000,-0.01086,0.01135,-0.99003,2023,6,12,13,47,56,225
0.01230,3.02750,-4.60250,0.00000,-0.00866,0.01147,-0.99101,2023,6,12,13,47,56,236
0.01240,2.85250,-4.62000,0.00000,-0.01305,0.01061,-0.99247,2023,6,12,13,47,56,247
0.01250,2.95750,-4.56750,0.00000,-0.01257,0.01135,-0.98905,2023,6,12,13,47,56,258
0.01260,3.13250,-4.67250,0.00000,-0.01013,0.01220,-0.98991,2023,6,12,13,47,56,269
0.01270,2.99250,-4.63750,0.00000,-0.00927,0.01061,-0.99027,2023,6,12,13,47,56,281
0.01280,3.01000,-4.55000,0.00000,-0.01232,0.00988,-0.98893,2023,6,12,13,47,56,292
0.01290,3.01000,-4.42750,0.00000,-0.01135,0.01110,-0.99137,2023,6,12,13,47,56,303
0.01300,3.01000,-4.55000,0.00000,-0.01037,0.00988,-0.99027,2023,6,12,13,47,56,314
0.01310,2.92250,-4.84750,0.00000,-0.01232,0.01013,-0.99015,2023,6,12,13,47,56,325
0.01320,2.92250,-4.72500,0.00000,-0.01159,0.00817,-0.99210,2023,6,12,13,47,56,336
0.01330,3.08000,-4.39250,0.00000,-0.01122,0.01074,-0.98808,2023,6,12,13,47,56,347
0.01340,2.90500,-4.60250,0.00000,-0.00927,0.00976,-0.99332,2023,6,12,13,47,56,358
0.01350,2.95750,-4.60250,0.00000,-0.01183,0.00903,-0.99162,2023,6,12,13,47,56,369
0.01360,3.18500,-4.72500,0.00000,-0.01061,0.01110,-0.99149,2023,6,12,13,47,56,381
0.01370,2.92250,-4.63750,0.00000,-0.01159,0.01074,-0.99040,2023,6,12,13,47,56,392
0.01380,2.97500,-4.70750,0.00000,-0.01171,0.00976,-0.99088,2023,6,12,13,47,56,403
0.01390,2.94000,-4.74250,0.00000,-0.01074,0.01183,-0.98905,2023,6,12,13,47,56,414
0.01400,3.06250,-4.62000,0.00000,-0.01037,0.01257,-0.98979,2023,6,12,13,47,56,425
0.01410,3.01000,-4.83000,0.00000,-0.01183,0.01049,-0.98844,2023,6,12,13,47,56,436
0.01420,2.99250,-4.88250,0.00000,-0.01074,0.01269,-0.98954,2023,6,12,13,47,56,447
0.01430,3.06250,-4.86500,0.00000,-0.01013,0.01147,-0.99015,2023,6,12,13,47,56,458
0.01440,2.80000,-4.51500,0.00000,-0.01305,0.01220,-0.99149,2023,6,12,13,47,56,469
0.01450,3.23750,-4.69000,0.00000,-0.01122,0.01183,-0.99113,2023,6,12,13,47,56,481
0.01460,3.02750,-4.41000,0.00000,-0.01318,0.01196,-0.99101,2023,6,12,13,47,56,492
0.01470,2.87000,-4.49750,0.00000,-0.00915,0.01232,-0.99052,2023,6,12,13,47,56,503
0.01480,2.83500,-4.49750,0.00000,-0.01257,0.01098,-0.99027,2023,6,12,13,47,56,514
0.01490,2.97500,-4.44500,0.00000,-0.01110,0.01171,-0.98857,2023,6,12,13,47,56,525
0.01500,3.13250,-4.67250,0.00000,-0.01232,0.00952,-0.98759,2023,6,12,13,47,56,536
0.01510,2.80000,-4.58500,0.00000,-0.01122,0.01244,-0.98869,2023,6,12,13,47,56,547
0.01520,2.78250,-4.51500,0.00000,-0.00988,0.01074,-0.99332,2023,6,12,13,47,56,558
0.01530,2.97500,-4.62000,0.00000,-0.01086,0.01074,-0.99137,2023,6,12,13,47,56,569
0.01540,2.99250,-4.35750,0.00000,-0.01196,0.01196,-0.99113,2023,6,12,13,47,56,581
0.01550,3.22000,-4.51500,0.00000,-0.00964,0.00964,-0.98991,2023,6,12,13,47,56,592
0.01560,3.04500,-4.67250,0.00000,-0.01000,0.01147,-0.99040,2023,6,12,13,47,56,603
0.01570,2.88750,-4.49750,0.00000,-0.01074,0.01147,-0.99259,2023,6,12,13,47,56,614
0.01580,2.95750,-4.67250,0.00000,-0.01244,0.01013,-0.98979,2023,6,12,13,47,56,625
0.01590,3.08000,-4.42750,0.00000,-0.01074,0.01159,-0.99027,2023,6,12,13,47,56,636
0.01600,2.90500,-4.65500,0.00000,-0.01305,0.01122,-0.98930,2023,6,12,13,47,56,647
0.01610,2.83500,-4.56750,0.00000,-0.01061,0.01257,-0.99235,2023,6,12,13,47,56,658
0.01620,3.04500,-4.62000,0.00000,-0.01110,0.01183,-0.99198,2023,6,12,13,47,56,669
0.01630,3.02750,-4.55000,0.00000,-0.01013,0.00939,-0.99052,2023,6,12,13,47,56,681
0.01640,2.92250,-4.53250,0.00000,-0.01257,0.01122,-0.98942,2023,6,12,13,47,56,692
0.01650,3.08000,-4.76000,0.00000,-0.00988,0.01098,-0.98808,2023,6,12,13,47,56,703
0.01660,3.02750,-4.65500,0.00000,-0.01135,0.00976,-0.98783,2023,6,12,13,47,56,714
0.01670,2.99250,-4.65500,0.00000,-0.00830,0.01122,-0.99186,2023,6,12,13,47,56,725
0.01680,3.04500,-4.63750,0.00000,-0.01159,0.01098,-0.98759,2023,6,12,13,47,56,736
0.01690,3.01000,-4.55000,0.00000,-0.01171,0.00952,-0.98905,2023,6,12,13,47,56,747
0.01700,2.94000,-4.63750,0.00000,-0.01074,0.01086,-0.98954,2023,6,12,13,47,56,758
0.01710,3.02750,-4.42750,0.00000,-0.01049,0.01293,-0.98954,2023,6,12,13,47,56,769
0.01720,3.04500,-4.63750,0.00000,-0.01013,0.01110,-0.99027,2023,6,12,13,47,56,781
0.01730,3.13250,-4.55000,0.00000,-0.01098,0.01000,-0.98820,2023,6,12,13,47,56,792
0.01740,2.87000,-4.63750,0.00000,-0.01098,0.00988,-0.99027,2023,6,12,13,47,56,803
0.01750,3.06250,-4.49750,0.00000,-0.01098,0.01086,-0.98674,2023,6,12,13,47,56,814
0.01760,3.02750,-4.69000,0.00000,-0.01122,0.01391,-0.99027,2023,6,12,13,47,56,825
0.01770,2.87000,-4.58500,0.00000,-0.01074,0.01232,-0.99052,2023,6,12,13,47,56,836
0.01780,3.01000,-4.53250,0.00000,-0.01171,0.00964,-0.99064,2023,6,12,13,47,56,847
0.01790,2.83500,-4.55000,0.00000,-0.01257,0.00964,-0.99076,2023,6,12,13,47,56,858
0.01800,3.08000,-4.81250,0.00000,-0.01330,0.00952,-0.98979,2023,6,12,13,47,56,869
0.01810,3.11500,-4.53250,0.00000,-0.01269,0.00988,-0.98844,2023,6,12,13,47,56,881
0.01820,3.02750,-4.56750,0.00000,-0.01086,0.01098,-0.98783,2023,6,12,13,47,56,892
0.01830,3.08000,-4.37500,0.00000,-0.01220,0.01110,-0.98881,2023,6,12,13,47,56,903
0.01840,3.01000,-4.70750,0.00000,-0.01208,0.01135,-0.98869,2023,6,12,13,47,56,914
0.01850,2.94000,-4.53250,0.00000,-0.01110,0.01232,-0.99040,2023,6,12,13,47,56,925
0.01860,3.13250,-4.83000,0.00000,-0.01135,0.00988,-0.98844,2023,6,12,13,47,56,936
0.01870,3.01000,-4.60250,0.00000,-0.00988,0.01013,-0.98747,2023,6,12,13,47,56,947
0.01880,2.88750,-4.55000,0.00000,-0.01208,0.01208,-0.98966,2023,6,12,13,47,56,958
0.01890,3.06250,-4.60250,0.00000,-0.01257,0.01025,-0.98844,2023,6,12,13,47,56,969
0.01900,3.01000,-4.44500,0.00000,-0.01257,0.01342,-0.99174,2023,6,12,13,47,56,981
0.01910,2.92250,-4.69000,0.00000,-0.01000,0.01013,-0.99003,2023,6,12,13,47,57,2
0.01920,2.99250,-4.58500,0.00000,-0.01098,0.01159,-0.99064,2023,6,12,13,47,57,13
0.01930,2.87000,-4.44500,0.00000,-0.01220,0.01342,-0.99003,2023,6,12,13,47,57,24
0.01940,3.01000,-4.56750,0.00000,-0.01049,0.00939,-0.98942,2023,6,12,13,47,57,35
0.01950,2.76500,-4.65500,0.00000,-0.01135,0.01074,-0.98771,2023,6,12,13,47,57,46
0.01960,3.11500,-4.65500,0.00000,-0.01135,0.01061,-0.98881,2023,6,12,13,47,57,57
0.01970,3.04500,-4.56750,0.00000,-0.01220,0.01330,-0.99198,2023,6,12,13,47,57,68
0.01980,2.95750,-4.72500,0.00000,-0.01037,0.01061,-0.98918,2023,6,12,13,47,57,79
0.01990,3.06250,-4.79500,0.00000,-0.01208,0.00964,-0.98771,2023,6,12,13,47,57,91
0.02000,2.99250,-4.63750,0.00000,-0.01183,0.00952,-0.98722,2023,6,12,13,47,57,102
0.02010,2.90500,-4.63750,0.00000,-0.00964,0.01110,-0.98796,2023,6,12,13,47,57,113
0.02020,3.04500,-4.63750,0.00000,-0.01147,0.01171,-0.98832,2023,6,12,13,47,57,124
0.02030,2.97500,-4.56750,0.00000,-0.01049,0.01025,-0.98869,2023,6,12,13,47,57,135
0.02040,3.16750,-4.60250,0.00000,-0.01183,0.01171,-0.98893,2023,6,12,13,47,57,146
0.02050,2.97500,-4.67250,0.00000,-0.01196,0.01281,-0.99149,2023,6,12,13,47,57,157
0.02060,2.99250,-4.34000,0.00000,-0.00964,0.00976,-0.98820,2023,6,12,13,47,57,168
0.02070,2.97500,-4.60250,0.00000,-0.01061,0.01159,-0.98820,2023,6,12,13,47,57,179
0.02080,3.11500,-4.79500,0.00000,-0.01232,0.01000,-0.98918,2023,6,12,13,47,57,191
0.02090,3.01000,-4.55000,0.00000,-0.01000,0.01025,-0.98869,2023,6,12,13,47,57,202
0.02100,2.97500,-4.65500,0.00000,-0.01086,0.01147,-0.98966,2023,6,12,13,47,57,213
0.02110,3.22000,-4.53250,0.00000,-0.01074,0.01257,-0.99162,2023,6,12,13,47,57,224
0.02120,2.92250,-4.56750,0.00000,-0.01196,0.01159,-0.99040,2023,6,12,13,47,57,235
0.02130,3.09750,-4.63750,0.00000,-0.01037,0.01147,-0.98808,2023,6,12,13,47,57,246
0.02140,2.88750,-4.56750,0.00000,-0.01342,0.01013,-0.98905,2023,6,12,13,47,57,257
0.02150,2.97500,-4.51500,0.00000,-0.01025,0.00854,-0.98820,2023,6,12,13,47,57,268
0.02160,3.04500,-4.44500,0.00000,-0.01135,0.01061,-0.98918,2023,6,12,13,47,57,279
0.02170,2.81750,-4.56750,0.00000,-0.01196,0.01269,-0.98808,2023,6,12,13,47,57,291
0.02180,2.94000,-4.46250,0.00000,-0.01293,0.01110,-0.98686,2023,6,12,13,47,57,302
0.02190,3.08000,-4.46250,0.00000,-0.00915,0.01025,-0.98844,2023,6,12,13,47,57,313
0.02200,2.92250,-4.42750,0.00000,-0.01196,0.01208,-0.98783,2023,6,12,13,47,57,324
0.02210,3.08000,-4.49750,0.00000,-0.01281,0.01135,-0.98661,2023,6,12,13,47,57,335
0.02220,2.90500,-4.42750,0.00000,-0.01098,0.00866,-0.98857,2023,6,12,13,47,57,346
0.02230,2.94000,-4.46250,0.00000,-0.01257,0.01098,-0.98857,2023,6,12,13,47,57,357
0.02240,2.95750,-4.55000,0.00000,-0.01110,0.01269,-0.98625,2023,6,12,13,47,57,368
0.02250,3.09750,-4.69000,0.00000,-0.01159,0.01000,-0.99296,2023,6,12,13,47,57,379
0.02260,3.01000,-4.70750,0.00000,-0.01110,0.01086,-0.98796,2023,6,12,13,47,57,391
0.02270,3.18500,-4.65500,0.00000,-0.01074,0.00903,-0.98942,2023,6,12,13,47,57,402
0.02280,3.01000,-4.58500,0.00000,-0.01098,0.01293,-0.98979,2023,6,12,13,47,57,413
0.02290,3.15000,-4.84750,0.00000,-0.01171,0.01110,-0.98844,2023,6,12,13,47,57,424
0.02300,3.01000,-4.34000,0.00000,-0.01159,0.01049,-0.98613,2023,6,12,13,47,57,435
0.02310,2.80000,-4.44500,0.00000,-0.01293,0.00976,-0.98979,2023,6,12,13,47,57,446
0.02320,2.95750,-4.60250,0.00000,-0.01110,0.01293,-0.98954,2023,6,12,13,47,57,457
0.02330,2.94000,-4.58500,0.00000,-0.01196,0.01013,-0.98820,2023,6,12,13,47,57,468
0.02340,3.01000,-4.67250,0.00000,-0.01220,0.01074,-0.98979,2023,6,12,13,47,57,479
0.02350,3.01000,-4.39250,0.00000,-0.01147,0.01135,-0.98600,2023,6,12,13,47,57,491
0.02360,2.95750,-4.51500,0.00000,-0.01171,0.01244,-0.98674,2023,6,12,13,47,57,502
0.02370,2.99250,-4.60250,0.00000,-0.01403,0.01171,-0.98808,2023,6,12,13,47,57,513
0.02380,2.81750,-4.32250,0.00000,-0.01110,0.00964,-0.98674,2023,6,12,13,47,57,524
0.02390,2.90500,-4.51500,0.00000,-0.01208,0.01220,-0.98722,2023,6,12,13,47,57,535
0.02400,2.97500,-4.53250,0.00000,-0.00952,0.01000,-0.98564,2023,6,12,13,47,57,546
0.02410,2.88750,-4.58500,0.00000,-0.01269,0.01098,-0.98783,2023,6,12,13,47,57,557
0.02420,3.11500,-4.37500,0.00000,-0.01330,0.01013,-0.98686,2023,6,12,13,47,57,568
0.02430,3.01000,-4.62000,0.00000,-0.01171,0.01122,-0.98991,2023,6,12,13,47,57,579
0.02440,2.88750,-4.51500,0.00000,-0.00964,0.01147,-0.98771,2023,6,12,13,47,57,591
0.02450,2.99250,-4.58500,0.00000,-0.01183,0.01025,-0.98783,2023,6,12,13,47,57,602
0.02460,2.76500,-4.41000,0.00000,-0.01049,0.00964,-0.98893,2023,6,12,13,47,57,613
0.02470,2.87000,-4.34000,0.00000,-0.01171,0.01074,-0.98759,2023,6,12,13,47,57,624
0.02480,3.18500,-4.65500,0.00000,-0.01122,0.01037,-0.99162,2023,6,12,13,47,57,635
0.02490,3.13250,-4.74250,0.00000,-0.00976,0.01379,-0.98991,2023,6,12,13,47,57,646
0.02500,3.08000,-4.76000,0.00000,-0.01171,0.01147,-0.98686,2023,6,12,13,47,57,657
0.02510,3.06250,-4.67250,0.00000,-0.01159,0.01098,-0.98893,2023,6,12,13,47,57,668
0.02520,3.15000,-4.55000,0.00000,-0.01147,0.01208,-0.98820,2023,6,12,13,47,57,679
0.02530,2.99250,-4.60250,0.00000,-0.01171,0.01147,-0.98686,2023,6,12,13,47,57,691
0.02540,2.87000,-4.42750,0.00000,-0.01037,0.00976,-0.98869,2023,6,12,13,47,57,702
0.02550,3.09750,-4.74250,0.00000,-0.01196,0.01086,-0.99027,2023,6,12,13,47,57,713
0.02560,3.06250,-4.42750,0.00000,-0.01257,0.01098,-0.98820,2023,6,12,13,47,57,724
0.02570,3.04500,-4.90000,0.00000,-0.01208,0.01305,-0.98966,2023,6,12,13,47,57,735
0.02580,2.97500,-4.51500,0.00000,-0.01159,0.01293,-0.98979,2023,6,12,13,47,57,746
0.02590,3.11500,-4.79500,0.00000,-0.01159,0.00964,-0.98979,2023,6,12,13,47,57,757
0.02600,3.11500,-4.81250,0.00000,-0.01159,0.00964,-0.98857,2023,6,12,13,47,57,768
0.02610,2.83500,-4.39250,0.00000,-0.01171,0.01098,-0.98759,2023,6,12,13,47,57,779
0.02620,3.20250,-4.51500,0.00000,-0.01220,0.01013,-0.98710,2023,6,12,13,47,57,791
0.02630,2.85250,-4.49750,0.00000,-0.01220,0.01171,-0.98844,2023,6,12,13,47,57,802
0.02640,2.97500,-4.44500,0.00000,-0.01183,0.01025,-0.99003,2023,6,12,13,47,57,813
0.02650,3.11500,-4.67250,0.00000,-0.01208,0.01305,-0.98686,2023,6,12,13,47,57,824
0.02660,2.92250,-4.42750,0.00000,-0.01037,0.01293,-0.99076,2023,6,12,13,47,57,835
0.02670,2.85250,-4.42750,0.00000,-0.01293,0.01318,-0.98966,2023,6,12,13,47,57,846
0.02680,2.94000,-4.79500,0.00000,-0.01098,0.01366,-0.98881,2023,6,12,13,47,57,857
0.02690,2.92250,-4.58500,0.00000,-0.01086,0.01086,-0.98771,2023,6,12,13,47,57,868
0.02700,2.85250,-4.30500,0.00000,-0.01220,0.00903,-0.98649,2023,6,12,13,47,57,879
0.02710,3.01000,-4.55000,0.00000,-0.01293,0.01147,-0.99223,2023,6,12,13,47,57,891
0.02720,3.11500,-4.60250,0.00000,-0.01196,0.01122,-0.98808,2023,6,12,13,47,57,902
0.02730,2.88750,-4.62000,0.00000,-0.01122,0.01196,-0.98844,2023,6,12,13,47,57,913
0.02740,2.94000,-4.58500,0.00000,-0.01037,0.01171,-0.98954,2023,6,12,13,47,57,924
0.02750,2.95750,-4.53250,0.00000,-0.01269,0.01208,-0.98820,2023,6,12,13,47,57,935
0.02760,2.97500,-4.49750,0.00000,-0.01318,0.01220,-0.98649,2023,6,12,13,47,57,946
0.02770,2.92250,-4.49750,0.00000,-0.01196,0.01013,-0.99284,2023,6,12,13,47,57,957
0.02780,2.88750,-4.58500,0.00000,-0.01379,0.01061,-0.98954,2023,6,12,13,47,57,968
0.02790,3.04500,-4.72500,0.00000,-0.01135,0.00927,-0.98869,2023,6,12,13,47,58,9
0.02800,3.11500,-4.42750,0.00000,-0.01110,0.00964,-0.98625,2023,6,12,13,47,58,21
0.02810,3.04500,-4.51500,0.00000,-0.00988,0.01013,-0.98600,2023,6,12,13,47,58,32
0.02820,2.78250,-4.60250,0.00000,-0.01354,0.01281,-0.98613,2023,6,12,13,47,58,43
0.02830,3.15000,-4.74250,0.00000,-0.01257,0.00976,-0.98832,2023,6,12,13,47,58,54
0.02840,2.95750,-4.53250,0.00000,-0.01013,0.01147,-0.98698,2023,6,12,13,47,58,65
0.02850,3.02750,-4.77750,0.00000,-0.01147,0.01159,-0.98808,2023,6,12,13,47,58,76
0.02860,2.90500,-4.53250,0.00000,-0.00952,0.01330,-0.98796,2023,6,12,13,47,58,87
0.02870,3.13250,-4.74250,0.00000,-0.01183,0.01159,-0.98649,2023,6,12,13,47,58,98
0.02880,3.01000,-4.67250,0.00000,-0.01135,0.01220,-0.98771,2023,6,12,13,47,58,109
0.02890,2.87000,-4.77750,0.00000,-0.01122,0.01098,-0.98552,2023,6,12,13,47,58,121
0.02900,3.09750,-4.53250,0.00000,-0.01257,0.01196,-0.98942,2023,6,12,13,47,58,132
0.02910,2.80000,-4.69000,0.00000,-0.01232,0.00988,-0.98735,2023,6,12,13,47,58,143
0.02920,3.02750,-4.72500,0.00000,-0.01171,0.01244,-0.99003,2023,6,12,13,47,58,154
0.02930,2.99250,-4.46250,0.00000,-0.01196,0.01159,-0.98771,2023,6,12,13,47,58,165
0.02940,2.97500,-4.46250,0.00000,-0.00915,0.01281,-0.98722,2023,6,12,13,47,58,176
0.02950,3.01000,-4.51500,0.00000,-0.01244,0.01220,-0.98991,2023,6,12,13,47,58,187
0.02960,3.04500,-4.70750,0.00000,-0.01000,0.01074,-0.98661,2023,6,12,13,47,58,198
0.02970,3.04500,-4.53250,0.00000,-0.01074,0.00866,-0.98698,2023,6,12,13,47,58,209
0.02980,2.99250,-4.49750,0.00000,-0.00976,0.01098,-0.98832,2023,6,12,13,47,58,221
0.02990,3.01000,-4.83000,0.00000,-0.01086,0.01122,-0.98905,2023,6,12,13,47,58,232
0.03000,3.08000,-4.58500,0.00000,-0.01257,0.00878,-0.98613,2023,6,12,13,47,58,243
0.03010,2.90500,-4.63750,0.00000,-0.01183,0.01208,-0.98564,2023,6,12,13,47,58,254
0.03020,2.95750,-4.63750,0.00000,-0.01269,0.01061,-0.98735,2023,6,12,13,47,58,265
0.03030,2.94000,-4.58500,0.00000,-0.01098,0.01391,-0.99125,2023,6,12,13,47,58,276
0.03040,2.92250,-4.83000,0.00000,-0.00891,0.01037,-0.98686,2023,6,12,13,47,58,287
0.03050,2.92250,-4.39250,0.00000,-0.01379,0.01110,-0.98564,2023,6,12,13,47,58,298
0.03060,2.76500,-4.69000,0.00000,-0.01000,0.01074,-0.98613,2023,6,12,13,47,58,309
0.03070,3.04500,-4.32250,0.00000,-0.01196,0.01232,-0.98820,2023,6,12,13,47,58,321
0.03080,2.85250,-4.46250,0.00000,-0.01086,0.01110,-0.98613,2023,6,12,13,47,58,332
0.03090,2.90500,-4.44500,0.00000,-0.01342,0.01281,-0.98759,2023,6,12,13,47,58,343
0.03100,2.95750,-4.67250,0.00000,-0.01074,0.01196,-0.98905,2023,6,12,13,47,58,354
0.03110,2.80000,-4.55000,0.00000,-0.01244,0.01269,-0.98796,2023,6,12,13,47,58,365
0.03120,2.90500,-4.70750,0.00000,-0.01244,0.01159,-0.98796,2023,6,12,13,47,58,376
0.03130,3.08000,-4.49750,0.00000,-0.00988,0.01147,-0.98808,2023,6,12,13,47,58,387
0.03140,2.90500,-4.62000,0.00000,-0.01171,0.00952,-0.98588,2023,6,12,13,47,58,398
0.03150,2.87000,-4.53250,0.00000,-0.01122,0.01074,-0.98808,2023,6,12,13,47,58,409
0.03160,3.01000,-4.60250,0.00000,-0.01159,0.01257,-0.98564,2023,6,12,13,47,58,421
0.03170,3.04500,-4.63750,0.00000,-0.01269,0.01074,-0.98979,2023,6,12,13,47,58,432
0.03180,2.80000,-4.46250,0.00000,-0.01110,0.01159,-0.98576,2023,6,12,13,47,58,443
0.03190,3.08000,-4.53250,0.00000,-0.01220,0.01135,-0.98820,2023,6,12,13,47,58,454
0.03200,2.95750,-4.60250,0.00000,-0.01061,0.01147,-0.98979,2023,6,12,13,47,58,465
0.03210,2.78250,-4.32250,0.00000,-0.01281,0.01208,-0.98454,2023,6,12,13,47,58,476
0.03220,2.92250,-4.63750,0.00000,-0.01269,0.01257,-0.98942,2023,6,12,13,47,58,487
0.03230,3.08000,-4.28750,0.00000,-0.01074,0.01098,-0.98649,2023,6,12,13,47,58,498
0.03240,2.97500,-4.60250,0.00000,-0.01171,0.01318,-0.97649,2023,6,12,13,47,58,509
0.03250,3.04500,-4.70750,0.00000,-0.01086,0.00842,-0.98954,2023,6,12,13,47,58,521
0.03260,3.06250,-4.72500,0.00000,-0.01159,0.00964,-0.98637,2023,6,12,13,47,58,532
0.03270,3.11500,-4.58500,0.00000,-0.01220,0.01147,-0.98735,2023,6,12,13,47,58,543
0.03280,2.95750,-4.48000,0.00000,-0.01257,0.01366,-0.98759,2023,6,12,13,47,58,554
0.03290,2.97500,-4.63750,0.00000,-0.01086,0.01257,-0.98759,2023,6,12,13,47,58,565
0.03300,2.90500,-4.46250,0.00000,-0.01013,0.01342,-0.98930,2023,6,12,13,47,58,576
0.03310,2.90500,-4.60250,0.00000,-0.01147,0.01037,-0.98844,2023,6,12,13,47,58,587
0.03320,2.95750,-4.63750,0.00000,-0.01000,0.01098,-0.98722,2023,6,12,13,47,58,598
0.03330,2.99250,-4.60250,0.00000,-0.01049,0.01196,-0.98893,2023,6,12,13,47,58,609
0.03340,2.97500,-4.65500,0.00000,-0.01159,0.01135,-0.98674,2023,6,12,13,47,58,621
0.03350,2.97500,-4.56750,0.00000,-0.01208,0.00976,-0.98539,2023,6,12,13,47,58,632
0.03360,2.90500,-4.39250,0.00000,-0.01061,0.01086,-0.98759,2023,6,12,13,47,58,643
0.03370,3.04500,-4.62000,0.00000,-0.01305,0.01025,-0.98954,2023,6,12,13,47,58,654
0.03380,3.04500,-4.63750,0.00000,-0.01391,0.01220,-0.98930,2023,6,12,13,47,58,665
0.03390,3.01000,-4.58500,0.00000,-0.01122,0.00988,-0.98771,2023,6,12,13,47,58,676
0.03400,3.04500,-4.60250,0.00000,-0.01122,0.01086,-0.98722,2023,6,12,13,47,58,687
0.03410,3.01000,-4.51500,0.00000,-0.01281,0.01037,-0.98893,2023,6,12,13,47,58,698
0.03420,2.94000,-4.44500,0.00000,-0.01208,0.01135,-0.98783,2023,6,12,13,47,58,709
0.03430,2.80000,-4.70750,0.00000,-0.01196,0.01147,-0.98661,2023,6,12,13,47,58,721
0.03440,3.01000,-4.65500,0.00000,-0.01049,0.01074,-0.98649,2023,6,12,13,47,58,732
0.03450,2.83500,-4.53250,0.00000,-0.01208,0.01171,-0.98564,2023,6,12,13,47,58,743
0.03460,2.90500,-4.65500,0.00000,-0.01232,0.01208,-0.98625,2023,6,12,13,47,58,754
0.03470,3.01000,-4.55000,0.00000,-0.01220,0.01196,-0.98918,2023,6,12,13,47,58,765
0.03480,2.87000,-4.56750,0.00000,-0.01135,0.01147,-0.98771,2023,6,12,13,47,58,776
0.03490,2.88750,-4.42750,0.00000,-0.01086,0.01122,-0.98796,2023,6,12,13,47,58,787
0.03500,2.92250,-4.65500,0.00000,-0.01025,0.01257,-0.98698,2023,6,12,13,47,58,798
0.03510,3.20250,-4.74250,0.00000,-0.01135,0.01159,-0.98539,2023,6,12,13,47,58,809
0.03520,2.99250,-4.55000,0.00000,-0.00976,0.00866,-0.98600,2023,6,12,13,47,58,821
0.03530,2.92250,-4.42750,0.00000,-0.01098,0.01257,-0.98966,2023,6,12,13,47,58,832
0.03540,2.90500,-4.46250,0.00000,-0.01098,0.01366,-0.98649,2023,6,12,13,47,58,843
0.03550,2.87000,-4.30500,0.00000,-0.01147,0.01147,-0.98844,2023,6,12,13,47,58,854
0.03560,2.95750,-4.49750,0.00000,-0.01403,0.01025,-0.98600,2023,6,12,13,47,58,865
0.03570,2.90500,-4.63750,0.00000,-0.01159,0.01232,-0.98710,2023,6,12,13,47,58,876
0.03580,2.95750,-4.70750,0.00000,-0.01061,0.01025,-0.98686,2023,6,12,13,47,58,887
0.03590,3.06250,-4.69000,0.00000,-0.01269,0.01147,-0.98466,2023,6,12,13,47,58,898
0.03600,3.09750,-4.67250,0.00000,-0.01147,0.01196,-0.98637,2023,6,12,13,47,58,909
0.03610,2.94000,-4.65500,0.00000,-0.01232,0.01147,-0.98661,2023,6,12,13,47,58,921
0.03620,2.99250,-4.69000,0.00000,-0.00976,0.01208,-0.99137,2023,6,12,13,47,58,932
0.03630,3.06250,-4.49750,0.00000,-0.01098,0.01074,-0.98905,2023,6,12,13,47,58,943
0.03640,2.85250,-4.46250,0.00000,-0.01074,0.00817,-0.98918,2023,6,12,13,47,58,954
0.03650,3.15000,-4.56750,0.00000,-0.01305,0.01232,-0.98735,2023,6,12,13,47,58,965
0.03660,2.97500,-4.32250,0.00000,-0.01013,0.01379,-0.98820,2023,6,12,13,47,58,976
0.03670,3.09750,-4.86500,0.00000,-0.00952,0.01061,-0.98918,2023,6,12,13,47,58,987
0.03680,3.16750,-4.42750,0.00000,-0.01098,0.01049,-0.98783,2023,6,12,13,47,59,8
0.03690,2.99250,-4.69000,0.00000,-0.01159,0.01135,-0.98466,2023,6,12,13,47,59,19
0.03700,3.04500,-4.48000,0.00000,-0.00964,0.01110,-0.98881,2023,6,12,13,47,59,31
0.03710,2.92250,-4.69000,0.00000,-0.00952,0.01171,-0.98466,2023,6,12,13,47,59,42
0.03720,2.97500,-4.60250,0.00000,-0.00939,0.01183,-0.98771,2023,6,12,13,47,59,53
0.03730,2.94000,-4.58500,0.00000,-0.01220,0.01000,-0.98625,2023,6,12,13,47,59,64
0.03740,3.13250,-4.67250,0.00000,-0.01098,0.01305,-0.98625,2023,6,12,13,47,59,75
0.03750,3.32500,-4.51500,0.00000,-0.00976,0.01086,-0.98674,2023,6,12,13,47,59,86
0.03760,3.08000,-4.63750,0.00000,-0.01269,0.01318,-0.98954,2023,6,12,13,47,59,97
0.03770,2.85250,-4.67250,0.00000,-0.01122,0.01208,-0.98686,2023,6,12,13,47,59,108
0.03780,2.97500,-4.51500,0.00000,-0.01208,0.01110,-0.98564,2023,6,12,13,47,59,119
0.03790,2.90500,-4.48000,0.00000,-0.01196,0.01183,-0.98905,2023,6,12,13,47,59,131
0.03800,2.95750,-4.41000,0.00000,-0.01183,0.01220,-0.99088,2023,6,12,13,47,59,142
0.03810,3.09750,-4.70750,0.00000,-0.01171,0.01342,-0.98735,2023,6,12,13,47,59,153
0.03820,3.08000,-4.37500,0.00000,-0.00854,0.01086,-0.99088,2023,6,12,13,47,59,164
0.03830,3.08000,-4.67250,0.00000,-0.01232,0.01122,-0.98832,2023,6,12,13,47,59,175
0.03840,3.06250,-4.42750,0.00000,-0.01318,0.01208,-0.98857,2023,6,12,13,47,59,186
0.03850,2.99250,-4.44500,0.00000,-0.01061,0.01061,-0.99015,2023,6,12,13,47,59,197
0.03860,2.90500,-4.58500,0.00000,-0.00915,0.01122,-0.98710,2023,6,12,13,47,59,208
0.03870,3.02750,-4.63750,0.00000,-0.01025,0.00976,-0.98625,2023,6,12,13,47,59,219
0.03880,2.83500,-4.34000,0.00000,-0.01135,0.01025,-0.98661,2023,6,12,13,47,59,231
0.03890,2.90500,-4.55000,0.00000,-0.01232,0.00952,-0.99052,2023,6,12,13,47,59,242
0.03900,2.87000,-4.44500,0.00000,-0.01122,0.01086,-0.98954,2023,6,12,13,47,59,253
0.03910,3.01000,-4.58500,0.00000,-0.01208,0.01110,-0.98857,2023,6,12,13,47,59,264
0.03920,3.13250,-4.69000,0.00000,-0.01379,0.01013,-0.98722,2023,6,12,13,47,59,275
0.03930,2.90500,-4.49750,0.00000,-0.01159,0.01025,-0.98930,2023,6,12,13,47,59,286
0.03940,2.94000,-4.44500,0.00000,-0.01159,0.01171,-0.98649,2023,6,12,13,47,59,297
0.03950,3.08000,-4.72500,0.00000,-0.01293,0.01049,-0.99186,2023,6,12,13,47,59,308
0.03960,2.92250,-4.41000,0.00000,-0.01000,0.01159,-0.98832,2023,6,12,13,47,59,319
0.03970,3.06250,-4.56750,0.00000,-0.00988,0.01147,-0.98661,2023,6,12,13,47,59,331
0.03980,2.95750,-4.74250,0.00000,-0.01183,0.01171,-0.98893,2023,6,12,13,47,59,342
0.03990,2.83500,-4.67250,0.00000,-0.01159,0.01147,-0.98942,2023,6,12,13,47,59,353
0.04000,2.88750,-4.84750,0.00000,-0.01086,0.01025,-0.98613,2023,6,12,13,47,59,364
0.04010,3.08000,-4.53250,0.00000,-0.01074,0.01025,-0.98674,2023,6,12,13,47,59,375
0.04020,2.99250,-4.56750,0.00000,-0.01269,0.01281,-0.98942,2023,6,12,13,47,59,386
0.04030,2.99250,-4.56750,0.00000,-0.01318,0.01122,-0.98710,2023,6,12,13,47,59,397
0.04040,3.09750,-4.67250,0.00000,-0.01196,0.01013,-0.98661,2023,6,12,13,47,59,408
0.04050,2.83500,-4.42750,0.00000,-0.01122,0.01135,-0.98771,2023,6,12,13,47,59,419
0.04060,3.02750,-4.42750,0.00000,-0.01147,0.01110,-0.98674,2023,6,12,13,47,59,431
0.04070,3.08000,-4.60250,0.00000,-0.01293,0.01061,-0.98808,2023,6,12,13,47,59,442
0.04080,2.90500,-4.65500,0.00000,-0.01135,0.01110,-0.98832,2023,6,12,13,47,59,453
0.04090,2.99250,-4.56750,0.00000,-0.01257,0.01122,-0.98991,2023,6,12,13,47,59,464
0.04100,3.06250,-4.56750,0.00000,-0.01159,0.01074,-0.98625,2023,6,12,13,47,59,475
0.04110,2.97500,-4.63750,0.00000,-0.01061,0.01183,-0.98759,2023,6,12,13,47,59,486
0.04120,3.02750,-4.41000,0.00000,-0.01257,0.01183,-0.98759,2023,6,12,13,47,59,497
0.04130,2.87000,-4.58500,0.00000,-0.00964,0.00964,-0.99040,2023,6,12,13,47,59,508
0.04140,2.87000,-4.42750,0.00000,-0.01196,0.01147,-0.98918,2023,6,12,13,47,59,519
0.04150,2.97500,-4.58500,0.00000,-0.01183,0.00903,-0.98747,2023,6,12,13,47,59,531
0.04160,2.97500,-4.44500,0.00000,-0.01159,0.01061,-0.98735,2023,6,12,13,47,59,542
0.04170,3.06250,-4.76000,0.00000,-0.00964,0.01232,-0.98979,2023,6,12,13,47,59,553
0.04180,2.99250,-4.56750,0.00000,-0.00988,0.00915,-0.98991,2023,6,12,13,47,59,564
0.04190,3.01000,-4.53250,0.00000,-0.01110,0.01403,-0.99198,2023,6,12,13,47,59,575
0.04200,2.97500,-4.44500,0.00000,-0.01318,0.01074,-0.98832,2023,6,12,13,47,59,586
0.04210,2.87000,-4.77750,0.00000,-0.01013,0.01098,-0.98649,2023,6,12,13,47,59,597
0.04220,3.18500,-4.77750,0.00000,-0.01208,0.01232,-0.98905,2023,6,12,13,47,59,608
0.04230,2.81750,-4.58500,0.00000,-0.01330,0.00891,-0.99149,2023,6,12,13,47,59,619
0.04240,3.16750,-4.72500,0.00000,-0.00964,0.01098,-0.98991,2023,6,12,13,47,59,631
0.04250,2.99250,-4.49750,0.00000,-0.01257,0.01086,-0.98796,2023,6,12,13,47,59,642
0.04260,3.09750,-4.76000,0.00000,-0.00988,0.00939,-0.99015,2023,6,12,13,47,59,653
0.04270,3.11500,-4.56750,0.00000,-0.01159,0.01086,-0.98918,2023,6,12,13,47,59,664
0.04280,2.90500,-4.63750,0.00000,-0.01196,0.00830,-0.98979,2023,6,12,13,47,59,675
0.04290,3.02750,-4.46250,0.00000,-0.01147,0.00988,-0.99210,2023,6,12,13,47,59,686
0.04300,3.02750,-4.41000,0.00000,-0.01159,0.01171,-0.98808,2023,6,12,13,47,59,697
0.04310,3.06250,-4.60250,0.00000,-0.01135,0.01159,-0.99015,2023,6,12,13,47,59,708
0.04320,2.85250,-4.58500,0.00000,-0.01074,0.00891,-0.99076,2023,6,12,13,47,59,719
0.04330,2.99250,-4.63750,0.00000,-0.00988,0.01000,-0.99088,2023,6,12,13,47,59,731
0.04340,3.11500,-4.51500,0.00000,-0.01122,0.01147,-0.98966,2023,6,12,13,47,59,742
0.04350,2.90500,-4.39250,0.00000,-0.01098,0.01232,-0.99052,2023,6,12,13,47,59,753
0.04360,3.11500,-4.48000,0.00000,-0.01013,0.01269,-0.98857,2023,6,12,13,47,59,764
0.04370,2.90500,-4.62000,0.00000,-0.01171,0.01098,-0.98796,2023,6,12,13,47,59,775
0.04380,2.99250,-4.62000,0.00000,-0.01232,0.01293,-0.98808,2023,6,12,13,47,59,786
0.04390,2.99250,-4.48000,0.00000,-0.01037,0.01086,-0.99052,2023,6,12,13,47,59,797
0.04400,3.06250,-4.51500,0.00000,-0.01305,0.01037,-0.99174,2023,6,12,13,47,59,808
0.04410,2.97500,-4.60250,0.00000,-0.01171,0.01135,-0.99137,2023,6,12,13,47,59,819
0.04420,3.04500,-4.55000,0.00000,-0.01257,0.01110,-0.99076,2023,6,12,13,47,59,831
0.04430,3.04500,-4.41000,0.00000,-0.00976,0.01147,-0.98613,2023,6,12,13,47,59,842
0.04440,2.92250,-4.46250,0.00000,-0.01196,0.01196,-0.98698,2023,6,12,13,47,59,853
0.04450,2.87000,-4.48000,0.00000,-0.01110,0.00878,-0.98735,2023,6,12,13,47,59,864
0.04460,3.01000,-4.62000,0.00000,-0.01159,0.01135,-0.99015,2023,6,12,13,47,59,875
0.04470,2.97500,-4.67250,0.00000,-0.00744,0.01037,-0.98783,2023,6,12,13,47,59,886
0.04480,2.88750,-4.65500,0.00000,-0.01293,0.01147,-0.98893,2023,6,12,13,47,59,897
0.04490,2.88750,-4.60250,0.00000,-0.01061,0.00964,-0.99040,2023,6,12,13,47,59,908
0.04500,3.04500,-4.46250,0.00000,-0.01159,0.01025,-0.98991,2023,6,12,13,47,59,919
0.04510,2.97500,-4.76000,0.00000,-0.01025,0.01183,-0.98857,2023,6,12,13,47,59,931
0.04520,2.94000,-4.35750,0.00000,-0.01171,0.01000,-0.99235,2023,6,12,13,47,59,942
0.04530,2.94000,-4.67250,0.00000,-0.01074,0.01183,-0.98844,2023,6,12,13,47,59,953
0.04540,3.13250,-4.60250,0.00000,-0.01147,0.01171,-0.98954,2023,6,12,13,47,59,964
0.04550,2.90500,-4.62000,0.00000,-0.01183,0.00976,-0.98796,2023,6,12,13,47,59,975
0.04560,3.01000,-4.48000,0.00000,-0.01000,0.01159,-0.99040,2023,6,12,13,48,0,6
0.04570,3.11500,-4.70750,0.00000,-0.01452,0.01183,-0.98857,2023,6,12,13,48,0,17
0.04580,3.04500,-4.51500,0.00000,-0.01379,0.01159,-0.98796,2023,6,12,13,48,0,28
0.04590,3.06250,-4.58500,0.00000,-0.00939,0.01159,-0.98844,2023,6,12,13,48,0,39
0.04600,2.85250,-4.44500,0.00000,-0.01074,0.00964,-0.99027,2023,6,12,13,48,0,51
0.04610,2.90500,-4.67250,0.00000,-0.01086,0.01061,-0.99137,2023,6,12,13,48,0,62
0.04620,2.85250,-4.48000,0.00000,-0.01269,0.01220,-0.98881,2023,6,12,13,48,0,73
0.04630,3.02750,-4.58500,0.00000,-0.01013,0.01013,-0.98735,2023,6,12,13,48,0,84
0.04640,2.94000,-4.51500,0.00000,-0.01220,0.01086,-0.98905,2023,6,12,13,48,0,95
0.04650,3.08000,-4.53250,0.00000,-0.01354,0.01074,-0.98478,2023,6,12,13,48,0,106
0.04660,2.97500,-4.81250,0.00000,-0.01122,0.01110,-0.98857,2023,6,12,13,48,0,117
0.04670,2.97500,-4.56750,0.00000,-0.00939,0.01159,-0.99125,2023,6,12,13,48,0,128
0.04680,2.85250,-4.72500,0.00000,-0.01244,0.01159,-0.99040,2023,6,12,13,48,0,139
0.04690,2.88750,-4.58500,0.00000,-0.01098,0.01208,-0.98954,2023,6,12,13,48,0,151
0.04700,2.92250,-4.58500,0.00000,-0.01122,0.01025,-0.99052,2023,6,12,13,48,0,162
0.04710,3.04500,-4.55000,0.00000,-0.01232,0.01330,-0.98966,2023,6,12,13,48,0,173
0.04720,2.94000,-4.63750,0.00000,-0.00976,0.01086,-0.98808,2023,6,12,13,48,0,184
0.04730,2.92250,-4.72500,0.00000,-0.01135,0.01049,-0.98979,2023,6,12,13,48,0,195
0.04740,3.15000,-4.53250,0.00000,-0.01000,0.01147,-0.99076,2023,6,12,13,48,0,206
0.04750,3.29000,-4.65500,0.00000,-0.01159,0.00976,-0.98881,2023,6,12,13,48,0,217
0.04760,3.16750,-4.58500,0.00000,-0.01025,0.01232,-0.99162,2023,6,12,13,48,0,228
0.04770,3.06250,-4.62000,0.00000,-0.01159,0.00952,-0.98747,2023,6,12,13,48,0,239
0.04780,3.01000,-4.72500,0.00000,-0.01013,0.01379,-0.98783,2023,6,12,13,48,0,251
0.04790,3.16750,-4.55000,0.00000,-0.01013,0.01000,-0.99015,2023,6,12,13,48,0,262
0.04800,3.02750,-4.46250,0.00000,-0.01220,0.01244,-0.98942,2023,6,12,13,48,0,273
0.04810,3.02750,-4.65500,0.00000,-0.01110,0.00915,-0.98637,2023,6,12,13,48,0,284
0.04820,2.83500,-4.46250,0.00000,-0.00952,0.01122,-0.98857,2023,6,12,13,48,0,295
0.04830,2.87000,-4.42750,0.00000,-0.01159,0.01208,-0.98722,2023,6,12,13,48,0,306
0.04840,2.92250,-4.56750,0.00000,-0.01135,0.01220,-0.98466,2023,6,12,13,48,0,317
0.04850,3.08000,-4.65500,0.00000,-0.01220,0.01342,-0.98832,2023,6,12,13,48,0,328
0.04860,3.02750,-4.72500,0.00000,-0.01183,0.01086,-0.98954,2023,6,12,13,48,0,339
0.04870,3.01000,-4.41000,0.00000,-0.01232,0.01403,-0.99088,2023,6,12,13,48,0,351
0.04880,3.11500,-4.51500,0.00000,-0.01183,0.00964,-0.98674,2023,6,12,13,48,0,362
0.04890,2.90500,-4.53250,0.00000,-0.01049,0.01074,-0.98808,2023,6,12,13,48,0,373
0.04900,2.95750,-4.70750,0.00000,-0.00927,0.01159,-0.98893,2023,6,12,13,48,0,384
0.04910,2.99250,-4.39250,0.00000,-0.01293,0.01159,-0.99186,2023,6,12,13,48,0,395
0.04920,3.04500,-4.49750,0.00000,-0.01342,0.01013,-0.98954,2023,6,12,13,48,0,406
0.04930,3.18500,-4.72500,0.00000,-0.01305,0.01208,-0.99162,2023,6,12,13,48,0,417
0.04940,2.94000,-4.62000,0.00000,-0.01208,0.00976,-0.98698,2023,6,12,13,48,0,428
0.04950,3.13250,-4.53250,0.00000,-0.01183,0.00988,-0.99088,2023,6,12,13,48,0,439
0.04960,3.01000,-4.51500,0.00000,-0.01183,0.01086,-0.98857,2023,6,12,13,48,0,451
0.04970,3.02750,-4.56750,0.00000,-0.01208,0.01098,-0.99040,2023,6,12,13,48,0,462
0.04980,2.71250,-4.44500,0.00000,-0.01330,0.01196,-0.99076,2023,6,12,13,48,0,473
0.04990,3.06250,-4.67250,0.00000,-0.01061,0.01110,-0.99064,2023,6,12,13,48,0,484
0.05000,2.90500,-4.44500,0.00000,-0.01122,0.01025,-0.99015,2023,6,12,13,48,0,495
0.05010,3.20250,-4.72500,0.00000,-0.01159,0.01244,-0.98869,2023,6,12,13,48,0,506
0.05020,3.01000,-4.53250,0.00000,-0.01110,0.01086,-0.98954,2023,6,12,13,48,0,517
0.05030,2.97500,-4.58500,0.00000,-0.01074,0.01135,-0.98991,2023,6,12,13,48,0,528
0.05040,2.87000,-4.46250,0.00000,-0.01208,0.01171,-0.98893,2023,6,12,13,48,0,539
0.05050,2.92250,-4.42750,0.00000,-0.01098,0.01098,-0.99174,2023,6,12,13,48,0,551
0.05060,3.02750,-4.67250,0.00000,-0.00915,0.01086,-0.98710,2023,6,12,13,48,0,562
0.05070,2.99250,-4.53250,0.00000,-0.01074,0.01220,-0.99101,2023,6,12,13,48,0,573
0.05080,3.22000,-4.69000,0.00000,-0.01183,0.01269,-0.98771,2023,6,12,13,48,0,584
0.05090,3.13250,-4.60250,0.00000,-0.01122,0.01135,-0.98979,2023,6,12,13,48,0,595
0.05100,2.87000,-4.84750,0.00000,-0.01147,0.01013,-0.99076,2023,6,12,13,48,0,606
0.05110,2.90500,-4.70750,0.00000,-0.01354,0.01183,-0.98966,2023,6,12,13,48,0,617
0.05120,3.01000,-4.39250,0.00000,-0.01196,0.01049,-0.99101,2023,6,12,13,48,0,628
0.05130,3.13250,-4.74250,0.00000,-0.01098,0.01196,-0.98857,2023,6,12,13,48,0,639
0.05140,2.83500,-4.49750,0.00000,-0.01196,0.01183,-0.98844,2023,6,12,13,48,0,651
0.05150,2.97500,-4.41000,0.00000,-0.01135,0.00939,-0.99149,2023,6,12,13,48,0,662
0.05160,3.11500,-4.60250,0.00000,-0.01208,0.01318,-0.99088,2023,6,12,13,48,0,673
0.05170,2.87000,-4.42750,0.00000,-0.01257,0.01122,-0.98759,2023,6,12,13,48,0,684
0.05180,3.01000,-4.48000,0.00000,-0.01122,0.01098,-0.98735,2023,6,12,13,48,0,695
0.05190,2.88750,-4.60250,0.00000,-0.01220,0.01135,-0.99137,2023,6,12,13,48,0,706
0.05200,2.92250,-4.46250,0.00000,-0.01305,0.00915,-0.99186,2023,6,12,13,48,0,717
0.05210,2.85250,-4.51500,0.00000,-0.01159,0.01159,-0.98698,2023,6,12,13,48,0,728
0.05220,3.01000,-4.49750,0.00000,-0.00891,0.01061,-0.99076,2023,6,12,13,48,0,739
0.05230,3.04500,-4.60250,0.00000,-0.01110,0.01269,-0.98905,2023,6,12,13,48,0,751
0.05240,2.88750,-4.55000,0.00000,-0.00939,0.01391,-0.98979,2023,6,12,13,48,0,762
0.05250,3.06250,-4.55000,0.00000,-0.01196,0.01159,-0.98905,2023,6,12,13,48,0,773
0.05260,3.09750,-4.55000,0.00000,-0.01232,0.01135,-0.99162,2023,6,12,13,48,0,784
0.05270,3.01000,-4.49750,0.00000,-0.01196,0.00976,-0.99198,2023,6,12,13,48,0,795
0.05280,2.88750,-4.65500,0.00000,-0.01220,0.00964,-0.99186,2023,6,12,13,48,0,806
0.05290,2.88750,-4.72500,0.00000,-0.00927,0.01330,-0.99113,2023,6,12,13,48,0,817
0.05300,2.88750,-4.53250,0.00000,-0.01074,0.01000,-0.99101,2023,6,12,13,48,0,828
0.05310,3.09750,-4.62000,0.00000,-0.00988,0.01098,-0.99418,2023,6,12,13,48,0,839
0.05320,2.97500,-4.55000,0.00000,-0.01318,0.01183,-0.99223,2023,6,12,13,48,0,851
0.05330,2.95750,-4.77750,0.00000,-0.01196,0.01159,-0.98966,2023,6,12,13,48,0,862
0.05340,3.15000,-4.55000,0.00000,-0.01183,0.01147,-0.99003,2023,6,12,13,48,0,873
0.05350,2.95750,-4.58500,0.00000,-0.00988,0.01196,-0.98857,2023,6,12,13,48,0,884
0.05360,3.06250,-4.55000,0.00000,-0.01257,0.01110,-0.99064,2023,6,12,13,48,0,895
0.05370,3.06250,-4.46250,0.00000,-0.01013,0.01171,-0.99149,2023,6,12,13,48,0,906
0.05380,3.06250,-4.51500,0.00000,-0.01135,0.00915,-0.99052,2023,6,12,13,48,0,917
0.05390,2.88750,-4.51500,0.00000,-0.01415,0.00952,-0.99052,2023,6,12,13,48,0,928
0.05400,2.74750,-4.51500,0.00000,-0.01208,0.01049,-0.98869,2023,6,12,13,48,0,939
0.05410,2.88750,-4.60250,0.00000,-0.01208,0.01049,-0.99088,2023,6,12,13,48,0,951
0.05420,3.04500,-4.49750,0.00000,-0.01171,0.01257,-0.99284,2023,6,12,13,48,0,962
0.05430,2.99250,-4.63750,0.00000,-0.01269,0.01208,-0.98857,2023,6,12,13,48,0,973
0.05440,2.99250,-4.62000,0.00000,-0.01098,0.00805,-0.99088,2023,6,12,13,48,1,4
0.05450,2.97500,-4.49750,0.00000,-0.01074,0.01305,-0.98857,2023,6,12,13,48,1,15
0.05460,2.99250,-4.51500,0.00000,-0.01061,0.01159,-0.99027,2023,6,12,13,48,1,26
0.05470,2.90500,-4.65500,0.00000,-0.01281,0.01061,-0.98905,2023,6,12,13,48,1,37
0.05480,2.99250,-4.41000,0.00000,-0.01098,0.01110,-0.99088,2023,6,12,13,48,1,48
0.05490,3.04500,-4.51500,0.00000,-0.01244,0.00964,-0.99064,2023,6,12,13,48,1,59
0.05500,2.95750,-4.48000,0.00000,-0.00988,0.01000,-0.98808,2023,6,12,13,48,1,71
0.05510,2.88750,-4.56750,0.00000,-0.01037,0.01122,-0.98918,2023,6,12,13,48,1,82
0.05520,2.97500,-4.49750,0.00000,-0.00988,0.01110,-0.98735,2023,6,12,13,48,1,93
0.05530,3.06250,-4.44500,0.00000,-0.01098,0.01013,-0.98954,2023,6,12,13,48,1,104
0.05540,2.92250,-4.62000,0.00000,-0.01147,0.00988,-0.98698,2023,6,12,13,48,1,115
0.05550,3.06250,-4.65500,0.00000,-0.01147,0.01061,-0.98942,2023,6,12,13,48,1,126
0.05560,3.08000,-4.62000,0.00000,-0.01110,0.01220,-0.98747,2023,6,12,13,48,1,137
0.05570,2.99250,-4.60250,0.00000,-0.00927,0.01220,-0.98796,2023,6,12,13,48,1,148
0.05580,3.09750,-4.63750,0.00000,-0.00964,0.01183,-0.99284,2023,6,12,13,48,1,159
0.05590,3.13250,-4.49750,0.00000,-0.01122,0.01037,-0.98954,2023,6,12,13,48,1,171
0.05600,2.88750,-4.65500,0.00000,-0.01366,0.01220,-0.99308,2023,6,12,13,48,1,182
0.05610,3.15000,-4.60250,0.00000,-0.01110,0.01098,-0.98918,2023,6,12,13,48,1,193
0.05620,2.85250,-4.60250,0.00000,-0.01049,0.00964,-0.98783,2023,6,12,13,48,1,204
0.05630,3.15000,-4.55000,0.00000,-0.01281,0.00952,-0.98747,2023,6,12,13,48,1,215
0.05640,2.97500,-4.37500,0.00000,-0.00939,0.01013,-0.99162,2023,6,12,13,48,1,226
0.05650,2.99250,-4.58500,0.00000,-0.01269,0.01159,-0.98966,2023,6,12,13,48,1,237
0.05660,2.99250,-4.56750,0.00000,-0.01074,0.01098,-0.98918,2023,6,12,13,48,1,248
0.05670,3.01000,-4.55000,0.00000,-0.01135,0.01159,-0.98820,2023,6,12,13,48,1,259
0.05680,3.04500,-4.63750,0.00000,-0.01171,0.01074,-0.98979,2023,6,12,13,48,1,271
0.05690,2.95750,-4.63750,0.00000,-0.00988,0.01196,-0.98783,2023,6,12,13,48,1,282
0.05700,2.83500,-4.62000,0.00000,-0.01025,0.01244,-0.98759,2023,6,12,13,48,1,293
0.05710,3.04500,-4.51500,0.00000,-0.01061,0.01427,-0.98930,2023,6,12,13,48,1,304
0.05720,2.95750,-4.39250,0.00000,-0.01244,0.01293,-0.98832,2023,6,12,13,48,1,315
0.05730,2.88750,-4.55000,0.00000,-0.01293,0.01135,-0.98869,2023,6,12,13,48,1,326
0.05740,3.06250,-4.65500,0.00000,-0.00976,0.01305,-0.98881,2023,6,12,13,48,1,337
0.05750,3.02750,-4.51500,0.00000,-0.01061,0.01366,-0.98930,2023,6,12,13,48,1,348
0.05760,2.87000,-4.46250,0.00000,-0.01086,0.01110,-0.99223,2023,6,12,13,48,1,359
0.05770,3.02750,-4.69000,0.00000,-0.01110,0.01049,-0.99076,2023,6,12,13,48,1,371
0.05780,3.06250,-4.69000,0.00000,-0.00866,0.00952,-0.99040,2023,6,12,13,48,1,382
0.05790,3.08000,-4.88250,0.00000,-0.01049,0.01122,-0.98637,2023,6,12,13,48,1,393
0.05800,2.99250,-4.60250,0.00000,-0.01000,0.01244,-0.99015,2023,6,12,13,48,1,404
0.05810,2.92250,-4.65500,0.00000,-0.01013,0.01232,-0.98686,2023,6,12,13,48,1,415
0.05820,3.15000,-4.63750,0.00000,-0.01135,0.01171,-0.98698,2023,6,12,13,48,1,426
0.05830,2.97500,-4.55000,0.00000,-0.01269,0.01074,-0.98759,2023,6,12,13,48,1,437
0.05840,2.90500,-4.65500,0.00000,-0.01183,0.01196,-0.98820,2023,6,12,13,48,1,448
0.05850,2.83500,-4.62000,0.00000,-0.01086,0.01196,-0.98942,2023,6,12,13,48,1,459
0.05860,3.01000,-4.60250,0.00000,-0.01403,0.00952,-0.99162,2023,6,12,13,48,1,471
0.05870,3.06250,-4.48000,0.00000,-0.01257,0.00939,-0.99101,2023,6,12,13,48,1,482
0.05880,2.99250,-4.58500,0.00000,-0.01086,0.00915,-0.98832,2023,6,12,13,48,1,493
0.05890,2.99250,-4.60250,0.00000,-0.01171,0.00915,-0.99052,2023,6,12,13,48,1,504
0.05900,3.08000,-4.70750,0.00000,-0.01025,0.01000,-0.98857,2023,6,12,13,48,1,515
0.05910,3.15000,-4.60250,0.00000,-0.01061,0.01098,-0.99235,2023,6,12,13,48,1,526
0.05920,3.08000,-4.79500,0.00000,-0.01257,0.01135,-0.99076,2023,6,12,13,48,1,537
0.05930,3.09750,-4.55000,0.00000,-0.01086,0.01000,-0.98625,2023,6,12,13,48,1,548
0.05940,3.02750,-4.51500,0.00000,-0.01061,0.00988,-0.98881,2023,6,12,13,48,1,559
0.05950,2.85250,-4.34000,0.00000,-0.01208,0.01000,-0.98991,2023,6,12,13,48,1,571
0.05960,3.06250,-4.69000,0.00000,-0.01196,0.00988,-0.98881,2023,6,12,13,48,1,582
0.05970,3.04500,-4.62000,0.00000,-0.01220,0.01098,-0.98674,2023,6,12,13,48,1,593
0.05980,3.01000,-4.55000,0.00000,-0.01427,0.01257,-0.99052,2023,6,12,13,48,1,604
0.05990,2.87000,-4.48000,0.00000,-0.00988,0.01122,-0.98832,2023,6,12,13,48,1,615
0.06000,2.95750,-4.49750,0.00000,-0.00891,0.01171,-0.98710,2023,6,12,13,48,1,626
0.06010,2.97500,-4.62000,0.00000,-0.00866,0.01061,-0.98698,2023,6,12,13,48,1,637
0.06020,3.08000,-4.56750,0.00000,-0.01208,0.01135,-0.98954,2023,6,12,13,48,1,648
0.06030,2.95750,-4.69000,0.00000,-0.01305,0.01074,-0.98881,2023,6,12,13,48,1,659
0.06040,2.90500,-4.37500,0.00000,-0.01110,0.01269,-0.98893,2023,6,12,13,48,1,671
0.06050,2.83500,-4.44500,0.00000,-0.01220,0.01220,-0.99052,2023,6,12,13,48,1,682
0.06060,2.95750,-4.46250,0.00000,-0.01183,0.01110,-0.98918,2023,6,12,13,48,1,693
0.06070,3.02750,-4.53250,0.00000,-0.01013,0.01013,-0.98930,2023,6,12,13,48,1,704
0.06080,2.88750,-4.56750,0.00000,-0.01086,0.00927,-0.99003,2023,6,12,13,48,1,715
0.06090,3.01000,-4.49750,0.00000,-0.01098,0.00964,-0.99003,2023,6,12,13,48,1,726
0.06100,3.01000,-4.41000,0.00000,-0.01122,0.01220,-0.99027,2023,6,12,13,48,1,737
0.06110,3.06250,-4.60250,0.00000,-0.01147,0.00915,-0.98979,2023,6,12,13,48,1,748
0.06120,3.09750,-4.51500,0.00000,-0.01220,0.01281,-0.98869,2023,6,12,13,48,1,759
0.06130,2.88750,-4.56750,0.00000,-0.01074,0.01147,-0.98857,2023,6,12,13,48,1,771
0.06140,2.88750,-4.39250,0.00000,-0.01232,0.01220,-0.99320,2023,6,12,13,48,1,782
0.06150,3.01000,-4.65500,0.00000,-0.01196,0.01159,-0.98881,2023,6,12,13,48,1,793
0.06160,3.08000,-4.76000,0.00000,-0.01000,0.01061,-0.98771,2023,6,12,13,48,1,804
0.06170,2.90500,-4.62000,0.00000,-0.01135,0.01037,-0.99003,2023,6,12,13,48,1,815
0.06180,2.71250,-4.69000,0.00000,-0.00976,0.01000,-0.99113,2023,6,12,13,48,1,826
0.06190,3.08000,-4.60250,0.00000,-0.01244,0.01086,-0.98564,2023,6,12,13,48,1,837
0.06200,3.02750,-4.65500,0.00000,-0.00976,0.01220,-0.98588,2023,6,12,13,48,1,848
0.06210,2.95750,-4.84750,0.00000,-0.01220,0.01159,-0.99125,2023,6,12,13,48,1,859
0.06220,2.83500,-4.49750,0.00000,-0.01208,0.01196,-0.99027,2023,6,12,13,48,1,871
0.06230,2.97500,-4.72500,0.00000,-0.01196,0.01074,-0.98796,2023,6,12,13,48,1,882
0.06240,2.90500,-4.58500,0.00000,-0.00988,0.01208,-0.99113,2023,6,12,13,48,1,893
0.06250,2.95750,-4.49750,0.00000,-0.01171,0.01086,-0.99015,2023,6,12,13,48,1,904
0.06260,3.01000,-4.46250,0.00000,-0.01257,0.01013,-0.98991,2023,6,12,13,48,1,915
0.06270,3.08000,-4.41000,0.00000,-0.00964,0.01098,-0.98820,2023,6,12,13,48,1,926
0.06280,3.06250,-4.48000,0.00000,-0.00988,0.01196,-0.99125,2023,6,12,13,48,1,937
0.06290,3.08000,-4.37500,0.00000,-0.01147,0.01098,-0.98942,2023,6,12,13,48,1,948
0.06300,3.20250,-4.83000,0.00000,-0.01208,0.00988,-0.98735,2023,6,12,13,48,1,959
0.06310,2.80000,-4.60250,0.00000,-0.01208,0.01037,-0.99149,2023,6,12,13,48,1,971
0.06320,3.25500,-4.51500,0.00000,-0.01074,0.00903,-0.99076,2023,6,12,13,48,2,2
0.06330,3.02750,-4.62000,0.00000,-0.01183,0.00927,-0.98844,2023,6,12,13,48,2,13
0.06340,3.01000,-4.55000,0.00000,-0.00952,0.01147,-0.99113,2023,6,12,13,48,2,24
0.06350,2.81750,-4.44500,0.00000,-0.01110,0.01135,-0.99113,2023,6,12,13,48,2,35
0.06360,3.09750,-4.65500,0.00000,-0.01013,0.01318,-0.99113,2023,6,12,13,48,2,46
0.06370,2.88750,-4.60250,0.00000,-0.01171,0.01342,-0.98942,2023,6,12,13,48,2,57
0.06380,3.11500,-4.60250,0.00000,-0.01183,0.00988,-0.98844,2023,6,12,13,48,2,68
0.06390,3.01000,-4.58500,0.00000,-0.01244,0.01342,-0.99052,2023,6,12,13,48,2,79
0.06400,3.01000,-4.44500,0.00000,-0.00976,0.01000,-0.99015,2023,6,12,13,48,2,91
0.06410,2.92250,-4.56750,0.00000,-0.01122,0.01025,-0.99088,2023,6,12,13,48,2,102
0.06420,2.94000,-4.62000,0.00000,-0.01244,0.01098,-0.99027,2023,6,12,13,48,2,113
0.06430,3.08000,-4.51500,0.00000,-0.01183,0.00976,-0.98857,2023,6,12,13,48,2,124
0.06440,3.08000,-4.55000,0.00000,-0.01293,0.01086,-0.98954,2023,6,12,13,48,2,135
0.06450,2.92250,-4.39250,0.00000,-0.00854,0.01220,-0.98991,2023,6,12,13,48,2,146
0.06460,2.97500,-4.62000,0.00000,-0.01122,0.01013,-0.99052,2023,6,12,13,48,2,157
0.06470,2.90500,-4.46250,0.00000,-0.01159,0.01208,-0.98783,2023,6,12,13,48,2,168
0.06480,3.06250,-4.55000,0.00000,-0.01074,0.00964,-0.99125,2023,6,12,13,48,2,179
0.06490,2.94000,-4.51500,0.00000,-0.00976,0.01147,-0.98796,2023,6,12,13,48,2,191
0.06500,3.09750,-4.62000,0.00000,-0.01147,0.01122,-0.99040,2023,6,12,13,48,2,202
0.06510,3.08000,-4.53250,0.00000,-0.01110,0.01135,-0.98771,2023,6,12,13,48,2,213
0.06520,3.08000,-4.49750,0.00000,-0.01037,0.00817,-0.98869,2023,6,12,13,48,2,224
0.06530,2.85250,-4.70750,0.00000,-0.01159,0.00830,-0.98783,2023,6,12,13,48,2,235
0.06540,3.09750,-4.65500,0.00000,-0.00915,0.01013,-0.98930,2023,6,12,13,48,2,246
0.06550,2.88750,-4.60250,0.00000,-0.01086,0.01269,-0.99003,2023,6,12,13,48,2,257
0.06560,3.02750,-4.60250,0.00000,-0.01037,0.00939,-0.98942,2023,6,12,13,48,2,268
0.06570,2.99250,-4.51500,0.00000,-0.00952,0.01086,-0.98857,2023,6,12,13,48,2,279
0.06580,2.99250,-4.56750,0.00000,-0.01135,0.01086,-0.98686,2023,6,12,13,48,2,291
0.06590,3.01000,-4.46250,0.00000,-0.00927,0.01257,-0.99003,2023,6,12,13,48,2,302
0.06600,3.08000,-4.34000,0.00000,-0.01086,0.01098,-0.98759,2023,6,12,13,48,2,313
0.06610,3.04500,-4.48000,0.00000,-0.01074,0.01074,-0.99125,2023,6,12,13,48,2,324
0.06620,3.13250,-4.55000,0.00000,-0.01269,0.00964,-0.99101,2023,6,12,13,48,2,335
0.06630,3.06250,-4.44500,0.00000,-0.01293,0.01171,-0.99027,2023,6,12,13,48,2,346
0.06640,2.97500,-4.60250,0.00000,-0.01183,0.01037,-0.98783,2023,6,12,13,48,2,357
0.06650,2.90500,-4.70750,0.00000,-0.01074,0.01061,-0.98527,2023,6,12,13,48,2,368
0.06660,2.99250,-4.41000,0.00000,-0.00939,0.01183,-0.98649,2023,6,12,13,48,2,379
0.06670,2.85250,-4.58500,0.00000,-0.01098,0.01403,-0.98991,2023,6,12,13,48,2,391
0.06680,3.02750,-4.53250,0.00000,-0.00830,0.01025,-0.98771,2023,6,12,13,48,2,402
0.06690,2.83500,-4.53250,0.00000,-0.01196,0.01110,-0.98759,2023,6,12,13,48,2,413
0.06700,2.94000,-4.62000,0.00000,-0.01183,0.01025,-0.98783,2023,6,12,13,48,2,424
0.06710,3.09750,-4.56750,0.00000,-0.01013,0.01232,-0.98637,2023,6,12,13,48,2,435
0.06720,2.94000,-4.49750,0.00000,-0.01135,0.01208,-0.98674,2023,6,12,13,48,2,446
0.06730,2.94000,-4.65500,0.00000,-0.00939,0.01037,-0.98771,2023,6,12,13,48,2,457
0.06740,3.06250,-4.44500,0.00000,-0.01281,0.01061,-0.98674,2023,6,12,13,48,2,468
0.06750,2.95750,-4.56750,0.00000,-0.01025,0.01305,-0.98722,2023,6,12,13,48,2,479
0.06760,2.92250,-4.58500,0.00000,-0.01208,0.01013,-0.98918,2023,6,12,13,48,2,491
0.06770,3.09750,-4.70750,0.00000,-0.01208,0.01110,-0.99113,2023,6,12,13,48,2,502
0.06780,3.02750,-4.49750,0.00000,-0.01122,0.01110,-0.98783,2023,6,12,13,48,2,513
0.06790,3.04500,-4.70750,0.00000,-0.01025,0.01366,-0.98808,2023,6,12,13,48,2,524
0.06800,2.94000,-4.49750,0.00000,-0.00939,0.01000,-0.98674,2023,6,12,13,48,2,535
0.06810,3.02750,-4.76000,0.00000,-0.01318,0.00927,-0.98759,2023,6,12,13,48,2,546
0.06820,3.06250,-4.62000,0.00000,-0.01305,0.01110,-0.98710,2023,6,12,13,48,2,557
0.06830,3.01000,-4.65500,0.00000,-0.01159,0.01269,-0.98649,2023,6,12,13,48,2,568
0.06840,3.08000,-4.72500,0.00000,-0.01074,0.01147,-0.98844,2023,6,12,13,48,2,579
0.06850,3.02750,-4.41000,0.00000,-0.00988,0.01061,-0.98710,2023,6,12,13,48,2,591
0.06860,2.90500,-4.49750,0.00000,-0.01257,0.01244,-0.98796,2023,6,12,13,48,2,602
0.06870,3.08000,-4.77750,0.00000,-0.01244,0.01147,-0.98686,2023,6,12,13,48,2,613
0.06880,2.81750,-4.62000,0.00000,-0.01147,0.01049,-0.98783,2023,6,12,13,48,2,624
0.06890,2.95750,-4.84750,0.00000,-0.01232,0.01342,-0.98674,2023,6,12,13,48,2,635
0.06900,2.94000,-4.55000,0.00000,-0.01183,0.00939,-0.98686,2023,6,12,13,48,2,646
0.06910,2.92250,-4.62000,0.00000,-0.01013,0.01305,-0.98930,2023,6,12,13,48,2,657
0.06920,2.90500,-4.65500,0.00000,-0.01110,0.00964,-0.98771,2023,6,12,13,48,2,668
0.06930,2.94000,-4.69000,0.00000,-0.00952,0.01159,-0.98491,2023,6,12,13,48,2,679
0.06940,3.04500,-4.63750,0.00000,-0.00878,0.01135,-0.98759,2023,6,12,13,48,2,691
0.06950,3.02750,-4.46250,0.00000,-0.01183,0.01427,-0.98966,2023,6,12,13,48,2,702
0.06960,3.13250,-4.53250,0.00000,-0.00915,0.01135,-0.98893,2023,6,12,13,48,2,713
0.06970,3.13250,-4.72500,0.00000,-0.01110,0.01244,-0.98893,2023,6,12,13,48,2,724
0.06980,2.95750,-4.55000,0.00000,-0.01171,0.01098,-0.98588,2023,6,12,13,48,2,735
0.06990,3.11500,-4.77750,0.00000,-0.01135,0.01159,-0.98454,2023,6,12,13,48,2,746
0.07000,3.09750,-4.63750,0.00000,-0.00891,0.01049,-0.98576,2023,6,12,13,48,2,757
0.07010,2.87000,-4.46250,0.00000,-0.01013,0.00903,-0.98674,2023,6,12,13,48,2,768
0.07020,3.01000,-4.49750,0.00000,-0.00915,0.01061,-0.98613,2023,6,12,13,48,2,779
0.07030,2.94000,-4.55000,0.00000,-0.01086,0.01122,-0.98905,2023,6,12,13,48,2,791
0.07040,2.95750,-4.65500,0.00000,-0.00891,0.00915,-0.98918,2023,6,12,13,48,2,802
0.07050,2.90500,-4.56750,0.00000,-0.01208,0.01147,-0.98637,2023,6,12,13,48,2,813
0.07060,2.97500,-4.58500,0.00000,-0.01074,0.00927,-0.98747,2023,6,12,13,48,2,824
0.07070,3.01000,-4.55000,0.00000,-0.01232,0.01232,-0.99040,2023,6,12,13,48,2,835
0.07080,2.90500,-4.41000,0.00000,-0.01244,0.01171,-0.98759,2023,6,12,13,48,2,846
0.07090,3.04500,-4.69000,0.00000,-0.00927,0.01244,-0.98722,2023,6,12,13,48,2,857
0.07100,2.90500,-4.56750,0.00000,-0.01110,0.01183,-0.98808,2023,6,12,13,48,2,868
0.07110,3.01000,-4.56750,0.00000,-0.01293,0.00964,-0.98954,2023,6,12,13,48,2,879
0.07120,3.13250,-4.74250,0.00000,-0.01013,0.01074,-0.98808,2023,6,12,13,48,2,891
0.07130,2.76500,-4.58500,0.00000,-0.01196,0.01037,-0.98735,2023,6,12,13,48,2,902
0.07140,2.99250,-4.62000,0.00000,-0.01244,0.01159,-0.98796,2023,6,12,13,48,2,913
0.07150,3.15000,-4.56750,0.00000,-0.01232,0.01171,-0.98759,2023,6,12,13,48,2,924
0.07160,2.94000,-4.48000,0.00000,-0.01049,0.01000,-0.98674,2023,6,12,13,48,2,935
0.07170,3.13250,-4.74250,0.00000,-0.01269,0.00988,-0.98771,2023,6,12,13,48,2,946
0.07180,2.85250,-4.46250,0.00000,-0.01244,0.01159,-0.98930,2023,6,12,13,48,2,957
0.07190,2.99250,-4.65500,0.00000,-0.01147,0.01171,-0.98722,2023,6,12,13,48,2,968
0.07200,3.16750,-4.69000,0.00000,-0.01061,0.01208,-0.98881,2023,6,12,13,48,2,979
0.07210,2.85250,-4.37500,0.00000,-0.01135,0.00952,-0.98857,2023,6,12,13,48,3,1
0.07220,3.11500,-4.39250,0.00000,-0.01183,0.01086,-0.99027,2023,6,12,13,48,3,12
0.07230,3.11500,-4.88250,0.00000,-0.01269,0.00927,-0.98454,2023,6,12,13,48,3,23
0.07240,2.97500,-4.53250,0.00000,-0.01440,0.01330,-0.98857,2023,6,12,13,48,3,34
0.07250,3.09750,-4.62000,0.00000,-0.01183,0.01171,-0.98527,2023,6,12,13,48,3,45
0.07260,2.95750,-4.58500,0.00000,-0.01049,0.01122,-0.98820,2023,6,12,13,48,3,56
0.07270,2.94000,-4.48000,0.00000,-0.01281,0.01305,-0.99027,2023,6,12,13,48,3,67
0.07280,3.13250,-4.60250,0.00000,-0.01086,0.01000,-0.98832,2023,6,12,13,48,3,78
0.07290,3.02750,-4.69000,0.00000,-0.01025,0.01025,-0.98295,2023,6,12,13,48,3,89
0.07300,2.88750,-4.56750,0.00000,-0.01013,0.01159,-0.98613,2023,6,12,13,48,3,101
0.07310,2.94000,-4.83000,0.00000,-0.00988,0.01171,-0.98796,2023,6,12,13,48,3,112
0.07320,3.08000,-4.56750,0.00000,-0.01183,0.01086,-0.98783,2023,6,12,13,48,3,123
0.07330,3.06250,-4.65500,0.00000,-0.01013,0.01281,-0.98820,2023,6,12,13,48,3,134
0.07340,3.04500,-4.76000,0.00000,-0.00988,0.01013,-0.98954,2023,6,12,13,48,3,145
0.07350,2.95750,-4.49750,0.00000,-0.01135,0.01000,-0.98930,2023,6,12,13,48,3,156
0.07360,3.13250,-4.58500,0.00000,-0.01171,0.01147,-0.99003,2023,6,12,13,48,3,167
0.07370,3.13250,-4.65500,0.00000,-0.01086,0.00964,-0.98710,2023,6,12,13,48,3,178
0.07380,3.18500,-4.65500,0.00000,-0.01171,0.01049,-0.98588,2023,6,12,13,48,3,189
0.07390,3.04500,-4.28750,0.00000,-0.01049,0.01159,-0.99113,2023,6,12,13,48,3,201
0.07400,3.11500,-4.72500,0.00000,-0.01074,0.01232,-0.98844,2023,6,12,13,48,3,212
0.07410,3.11500,-4.63750,0.00000,-0.01061,0.00988,-0.98808,2023,6,12,13,48,3,223
0.07420,3.04500,-4.60250,0.00000,-0.01159,0.01147,-0.98820,2023,6,12,13,48,3,234
0.07430,2.95750,-4.49750,0.00000,-0.01269,0.01171,-0.98918,2023,6,12,13,48,3,245
0.07440,2.92250,-4.46250,0.00000,-0.01025,0.01122,-0.99027,2023,6,12,13,48,3,256
0.07450,2.85250,-4.69000,0.00000,-0.01232,0.01281,-0.98844,2023,6,12,13,48,3,267
0.07460,3.08000,-4.34000,0.00000,-0.00988,0.01281,-0.98966,2023,6,12,13,48,3,278
0.07470,3.02750,-4.42750,0.00000,-0.00927,0.01135,-0.98649,2023,6,12,13,48,3,289
0.07480,2.94000,-4.56750,0.00000,-0.01183,0.00976,-0.98844,2023,6,12,13,48,3,301
0.07490,2.95750,-4.65500,0.00000,-0.01086,0.01086,-0.98747,2023,6,12,13,48,3,312
0.07500,2.97500,-4.35750,0.00000,-0.01086,0.01122,-0.98844,2023,6,12,13,48,3,323
0.07510,2.99250,-4.55000,0.00000,-0.01305,0.01110,-0.98918,2023,6,12,13,48,3,334
0.07520,3.02750,-4.56750,0.00000,-0.01171,0.01257,-0.99064,2023,6,12,13,48,3,345
0.07530,2.97500,-4.60250,0.00000,-0.01244,0.01061,-0.98979,2023,6,12,13,48,3,356
0.07540,3.11500,-4.69000,0.00000,-0.01098,0.00976,-0.98844,2023,6,12,13,48,3,367
0.07550,2.83500,-4.72500,0.00000,-0.00988,0.01122,-0.98979,2023,6,12,13,48,3,378
0.07560,2.88750,-4.48000,0.00000,-0.01049,0.01171,-0.99040,2023,6,12,13,48,3,389
0.07570,2.76500,-4.44500,0.00000,-0.01037,0.01074,-0.98503,2023,6,12,13,48,3,401
0.07580,2.87000,-4.56750,0.00000,-0.01244,0.01074,-0.98783,2023,6,12,13,48,3,412
0.07590,2.78250,-4.44500,0.00000,-0.01244,0.01208,-0.98991,2023,6,12,13,48,3,423
0.07600,3.02750,-4.70750,0.00000,-0.01074,0.01000,-0.98698,2023,6,12,13,48,3,434
0.07610,3.18500,-4.60250,0.00000,-0.01269,0.01147,-0.98527,2023,6,12,13,48,3,445
0.07620,2.99250,-4.62000,0.00000,-0.01208,0.00988,-0.98722,2023,6,12,13,48,3,456
0.07630,2.99250,-4.51500,0.00000,-0.01122,0.01013,-0.98759,2023,6,12,13,48,3,467
0.07640,3.16750,-4.63750,0.00000,-0.01147,0.01074,-0.98869,2023,6,12,13,48,3,478
0.07650,3.01000,-4.72500,0.00000,-0.00964,0.00903,-0.98710,2023,6,12,13,48,3,489
0.07660,2.99250,-4.63750,0.00000,-0.01196,0.01147,-0.98905,2023,6,12,13,48,3,501
0.07670,3.02750,-4.77750,0.00000,-0.01086,0.00842,-0.99149,2023,6,12,13,48,3,512
0.07680,3.16750,-4.56750,0.00000,-0.01293,0.01098,-0.98796,2023,6,12,13,48,3,523
0.07690,3.09750,-4.84750,0.00000,-0.00964,0.01196,-0.98686,2023,6,12,13,48,3,534
0.07700,3.13250,-4.70750,0.00000,-0.01025,0.01122,-0.99125,2023,6,12,13,48,3,545
0.07710,2.94000,-4.62000,0.00000,-0.01122,0.01342,-0.98564,2023,6,12,13,48,3,556
0.07720,3.11500,-4.55000,0.00000,-0.00952,0.00939,-0.98808,2023,6,12,13,48,3,567
0.07730,3.11500,-4.49750,0.00000,-0.01196,0.01061,-0.98564,2023,6,12,13,48,3,578
0.07740,2.85250,-4.34000,0.00000,-0.01281,0.01171,-0.98735,2023,6,12,13,48,3,589
0.07750,2.92250,-4.53250,0.00000,-0.01135,0.01037,-0.98637,2023,6,12,13,48,3,601
0.07760,2.94000,-4.46250,0.00000,-0.01025,0.01110,-0.98808,2023,6,12,13,48,3,612
0.07770,2.85250,-4.63750,0.00000,-0.01122,0.01232,-0.98881,2023,6,12,13,48,3,623
0.07780,2.95750,-4.67250,0.00000,-0.01171,0.01318,-0.98820,2023,6,12,13,48,3,634
0.07790,2.88750,-4.34000,0.00000,-0.01159,0.01000,-0.98722,2023,6,12,13,48,3,645
0.07800,2.94000,-4.53250,0.00000,-0.01220,0.00976,-0.98881,2023,6,12,13,48,3,656
0.07810,2.94000,-4.58500,0.00000,-0.01159,0.01318,-0.98686,2023,6,12,13,48,3,667
0.07820,3.01000,-4.41000,0.00000,-0.01244,0.01269,-0.98857,2023,6,12,13,48,3,678
0.07830,3.08000,-4.55000,0.00000,-0.01257,0.01061,-0.98783,2023,6,12,13,48,3,689
0.07840,2.92250,-4.55000,0.00000,-0.01257,0.01098,-0.99003,2023,6,12,13,48,3,701
0.07850,3.09750,-4.76000,0.00000,-0.01159,0.01147,-0.98747,2023,6,12,13,48,3,712
0.07860,3.01000,-4.67250,0.00000,-0.01147,0.00964,-0.98844,2023,6,12,13,48,3,723
0.07870,3.11500,-4.65500,0.00000,-0.01232,0.01257,-0.98857,2023,6,12,13,48,3,734
0.07880,3.15000,-4.44500,0.00000,-0.00988,0.00866,-0.98820,2023,6,12,13,48,3,745
0.07890,3.09750,-4.62000,0.00000,-0.01269,0.01074,-0.98820,2023,6,12,13,48,3,756
0.07900,3.08000,-4.55000,0.00000,-0.01110,0.01147,-0.98600,2023,6,12,13,48,3,767
0.07910,3.06250,-4.65500,0.00000,-0.01244,0.01208,-0.99076,2023,6,12,13,48,3,778
0.07920,2.94000,-4.37500,0.00000,-0.01196,0.01098,-0.98796,2023,6,12,13,48,3,789
0.07930,2.87000,-4.67250,0.00000,-0.00976,0.01183,-0.98613,2023,6,12,13,48,3,801
0.07940,2.97500,-4.53250,0.00000,-0.01074,0.01208,-0.98832,2023,6,12,13,48,3,812
0.07950,3.20250,-4.46250,0.00000,-0.01208,0.01025,-0.98808,2023,6,12,13,48,3,823
0.07960,3.04500,-4.67250,0.00000,-0.01135,0.01110,-0.98722,2023,6,12,13,48,3,834
0.07970,2.87000,-4.30500,0.00000,-0.01257,0.01049,-0.98991,2023,6,12,13,48,3,845
0.07980,2.97500,-4.60250,0.00000,-0.01220,0.01220,-0.98771,2023,6,12,13,48,3,856
0.07990,3.08000,-4.63750,0.00000,-0.01269,0.01244,-0.98881,2023,6,12,13,48,3,867
0.08000,2.99250,-4.81250,0.00000,-0.01305,0.01122,-0.98820,2023,6,12,13,48,3,878
0.08010,2.99250,-4.51500,0.00000,-0.01257,0.01122,-0.99052,2023,6,12,13,48,3,889
0.08020,3.18500,-4.65500,0.00000,-0.00903,0.01135,-0.98783,2023,6,12,13,48,3,901
0.08030,2.97500,-4.48000,0.00000,-0.01098,0.01074,-0.99113,2023,6,12,13,48,3,912
0.08040,3.09750,-4.53250,0.00000,-0.01000,0.01061,-0.98930,2023,6,12,13,48,3,923
0.08050,2.80000,-4.41000,0.00000,-0.01159,0.01135,-0.98881,2023,6,12,13,48,3,934
0.08060,3.06250,-4.60250,0.00000,-0.01135,0.00939,-0.99003,2023,6,12,13,48,3,945
0.08070,2.99250,-4.55000,0.00000,-0.01171,0.01049,-0.98979,2023,6,12,13,48,3,956
0.08080,2.97500,-4.60250,0.00000,-0.01074,0.01147,-0.98844,2023,6,12,13,48,3,967
0.08090,3.01000,-4.39250,0.00000,-0.00866,0.01122,-0.98783,2023,6,12,13,48,4,8
0.08100,3.06250,-4.56750,0.00000,-0.00915,0.01098,-0.99064,2023,6,12,13,48,4,19
0.08110,2.83500,-4.42750,0.00000,-0.01061,0.01257,-0.98918,2023,6,12,13,48,4,31
0.08120,3.20250,-4.42750,0.00000,-0.01061,0.01342,-0.98918,2023,6,12,13,48,4,42
0.08130,2.97500,-4.70750,0.00000,-0.01135,0.01183,-0.98918,2023,6,12,13,48,4,53
0.08140,2.97500,-4.42750,0.00000,-0.01147,0.01330,-0.98930,2023,6,12,13,48,4,64
0.08150,2.97500,-4.51500,0.00000,-0.01171,0.01196,-0.98747,2023,6,12,13,48,4,75
0.08160,2.94000,-4.63750,0.00000,-0.01208,0.00756,-0.98808,2023,6,12,13,48,4,86
0.08170,2.94000,-4.46250,0.00000,-0.00964,0.01318,-0.99113,2023,6,12,13,48,4,97
0.08180,2.97500,-4.55000,0.00000,-0.01013,0.01000,-0.98954,2023,6,12,13,48,4,108
0.08190,2.95750,-4.46250,0.00000,-0.01293,0.01220,-0.99040,2023,6,12,13,48,4,119
0.08200,2.92250,-4.72500,0.00000,-0.01318,0.01269,-0.99101,2023,6,12,13,48,4,131
0.08210,3.04500,-4.60250,0.00000,-0.01025,0.01220,-0.99088,2023,6,12,13,48,4,142
0.08220,2.94000,-4.44500,0.00000,-0.01025,0.00952,-0.98759,2023,6,12,13,48,4,153
0.08230,2.95750,-4.34000,0.00000,-0.00988,0.01147,-0.98918,2023,6,12,13,48,4,164
0.08240,2.88750,-4.74250,0.00000,-0.01196,0.01147,-0.98808,2023,6,12,13,48,4,175
0.08250,3.18500,-4.60250,0.00000,-0.00988,0.01098,-0.99052,2023,6,12,13,48,4,186
0.08260,2.83500,-4.56750,0.00000,-0.01196,0.01110,-0.98893,2023,6,12,13,48,4,197
0.08270,2.99250,-4.84750,0.00000,-0.01257,0.01171,-0.99088,2023,6,12,13,48,4,208
0.08280,2.81750,-4.56750,0.00000,-0.01110,0.01098,-0.98808,2023,6,12,13,48,4,219
0.08290,3.08000,-4.44500,0.00000,-0.01196,0.01232,-0.99284,2023,6,12,13,48,4,231
0.08300,3.04500,-4.74250,0.00000,-0.00988,0.01074,-0.99003,2023,6,12,13,48,4,242
0.08310,3.13250,-4.49750,0.00000,-0.01232,0.01147,-0.99076,2023,6,12,13,48,4,253
0.08320,2.87000,-4.63750,0.00000,-0.01196,0.01074,-0.98942,2023,6,12,13,48,4,264
0.08330,2.95750,-4.58500,0.00000,-0.01220,0.00952,-0.98649,2023,6,12,13,48,4,275
0.08340,2.99250,-4.51500,0.00000,-0.01220,0.01293,-0.99003,2023,6,12,13,48,4,286
0.08350,3.01000,-4.70750,0.00000,-0.01098,0.01196,-0.98844,2023,6,12,13,48,4,297
0.08360,2.99250,-4.60250,0.00000,-0.01013,0.00903,-0.99149,2023,6,12,13,48,4,308
0.08370,2.87000,-4.63750,0.00000,-0.01122,0.01257,-0.99064,2023,6,12,13,48,4,319
0.08380,3.01000,-4.65500,0.00000,-0.01159,0.01110,-0.99125,2023,6,12,13,48,4,331
0.08390,2.97500,-4.39250,0.00000,-0.01318,0.01110,-0.99076,2023,6,12,13,48,4,342
0.08400,2.95750,-4.63750,0.00000,-0.01196,0.01061,-0.99162,2023,6,12,13,48,4,353
0.08410,3.16750,-4.63750,0.00000,-0.00976,0.01244,-0.99052,2023,6,12,13,48,4,364
0.08420,2.99250,-4.76000,0.00000,-0.01147,0.00964,-0.98954,2023,6,12,13,48,4,375
0.08430,2.81750,-4.53250,0.00000,-0.01476,0.01135,-0.99015,2023,6,12,13,48,4,386
0.08440,3.01000,-4.67250,0.00000,-0.00988,0.00952,-0.98857,2023,6,12,13,48,4,397
0.08450,3.01000,-4.62000,0.00000,-0.01232,0.01025,-0.98954,2023,6,12,13,48,4,408
0.08460,3.04500,-4.72500,0.00000,-0.01061,0.01037,-0.99027,2023,6,12,13,48,4,419
0.08470,2.97500,-4.28750,0.00000,-0.01159,0.01086,-0.99064,2023,6,12,13,48,4,431
0.08480,3.06250,-4.49750,0.00000,-0.01122,0.01232,-0.99393,2023,6,12,13,48,4,442
0.08490,2.87000,-4.49750,0.00000,-0.01147,0.01086,-0.98869,2023,6,12,13,48,4,453
0.08500,3.04500,-4.35750,0.00000,-0.01110,0.01061,-0.99101,2023,6,12,13,48,4,464
0.08510,2.78250,-4.41000,0.00000,-0.01000,0.01318,-0.99076,2023,6,12,13,48,4,475
0.08520,2.99250,-4.49750,0.00000,-0.01171,0.01135,-0.98979,2023,6,12,13,48,4,486
0.08530,2.87000,-4.44500,0.00000,-0.01171,0.01220,-0.99149,2023,6,12,13,48,4,497
0.08540,3.04500,-4.69000,0.00000,-0.00939,0.01183,-0.99162,2023,6,12,13,48,4,508
0.08550,2.95750,-4.53250,0.00000,-0.01232,0.01171,-0.99198,2023,6,12,13,48,4,519
0.08560,2.87000,-4.44500,0.00000,-0.01293,0.01074,-0.98857,2023,6,12,13,48,4,531
0.08570,3.06250,-4.77750,0.00000,-0.01159,0.01257,-0.99418,2023,6,12,13,48,4,542
0.08580,2.90500,-4.51500,0.00000,-0.01110,0.01147,-0.98808,2023,6,12,13,48,4,553
0.08590,2.88750,-4.32250,0.00000,-0.01110,0.01220,-0.99064,2023,6,12,13,48,4,564
0.08600,2.85250,-4.60250,0.00000,-0.01159,0.00927,-0.98954,2023,6,12,13,48,4,575
0.08610,2.97500,-4.58500,0.00000,-0.01257,0.01074,-0.99174,2023,6,12,13,48,4,586
0.08620,2.81750,-4.49750,0.00000,-0.01013,0.01232,-0.99125,2023,6,12,13,48,4,597
0.08630,2.83500,-4.44500,0.00000,-0.01183,0.01122,-0.98820,2023,6,12,13,48,4,608
0.08640,3.06250,-4.58500,0.00000,-0.01098,0.01196,-0.99137,2023,6,12,13,48,4,619
0.08650,2.95750,-4.48000,0.00000,-0.01183,0.01159,-0.98893,2023,6,12,13,48,4,631
0.08660,3.02750,-4.44500,0.00000,-0.01122,0.01171,-0.99088,2023,6,12,13,48,4,642
0.08670,3.08000,-4.46250,0.00000,-0.01269,0.01110,-0.98844,2023,6,12,13,48,4,653
0.08680,2.83500,-4.55000,0.00000,-0.01122,0.01049,-0.99064,2023,6,12,13,48,4,664
0.08690,2.94000,-4.41000,0.00000,-0.01086,0.00964,-0.98869,2023,6,12,13,48,4,675
0.08700,2.95750,-4.65500,0.00000,-0.00939,0.01183,-0.99223,2023,6,12,13,48,4,686
0.08710,2.94000,-4.56750,0.00000,-0.01196,0.00988,-0.99210,2023,6,12,13,48,4,697
0.08720,2.99250,-4.53250,0.00000,-0.00891,0.01183,-0.99052,2023,6,12,13,48,4,708
0.08730,3.01000,-4.63750,0.00000,-0.01135,0.01196,-0.98918,2023,6,12,13,48,4,719
0.08740,2.95750,-4.63750,0.00000,-0.01049,0.01208,-0.99271,2023,6,12,13,48,4,731
0.08750,3.01000,-4.67250,0.00000,-0.01061,0.01061,-0.99198,2023,6,12,13,48,4,742
0.08760,2.95750,-4.55000,0.00000,-0.01037,0.01135,-0.98820,2023,6,12,13,48,4,753
0.08770,3.08000,-4.48000,0.00000,-0.01159,0.01183,-0.98930,2023,6,12,13,48,4,764
0.08780,3.06250,-4.48000,0.00000,-0.00939,0.01171,-0.99088,2023,6,12,13,48,4,775
0.08790,2.73000,-4.25250,0.00000,-0.01318,0.01159,-0.99210,2023,6,12,13,48,4,786
0.08800,2.97500,-4.51500,0.00000,-0.01074,0.01110,-0.99125,2023,6,12,13,48,4,797
0.08810,2.81750,-4.46250,0.00000,-0.01232,0.01049,-0.99125,2023,6,12,13,48,4,808
0.08820,3.11500,-4.65500,0.00000,-0.01135,0.01135,-0.99235,2023,6,12,13,48,4,819
0.08830,3.06250,-4.65500,0.00000,-0.01330,0.01171,-0.98735,2023,6,12,13,48,4,831
0.08840,2.97500,-4.51500,0.00000,-0.01220,0.01305,-0.99308,2023,6,12,13,48,4,842
0.08850,3.08000,-4.93500,0.00000,-0.01110,0.01013,-0.99088,2023,6,12,13,48,4,853
0.08860,3.01000,-4.55000,0.00000,-0.01135,0.01110,-0.98918,2023,6,12,13,48,4,864
0.08870,2.81750,-4.77750,0.00000,-0.01098,0.01281,-0.98783,2023,6,12,13,48,4,875
0.08880,2.78250,-4.79500,0.00000,-0.01098,0.00939,-0.98857,2023,6,12,13,48,4,886
0.08890,2.97500,-4.39250,0.00000,-0.01330,0.01061,-0.99125,2023,6,12,13,48,4,897
0.08900,2.80000,-4.62000,0.00000,-0.01269,0.01086,-0.99052,2023,6,12,13,48,4,908
0.08910,2.85250,-4.42750,0.00000,-0.01098,0.01305,-0.99418,2023,6,12,13,48,4,919
0.08920,3.15000,-4.67250,0.00000,-0.00976,0.01196,-0.98905,2023,6,12,13,48,4,931
0.08930,2.90500,-4.44500,0.00000,-0.01147,0.01086,-0.98771,2023,6,12,13,48,4,942
0.08940,2.94000,-4.67250,0.00000,-0.01025,0.00903,-0.99003,2023,6,12,13,48,4,953
0.08950,3.06250,-4.49750,0.00000,-0.01208,0.01098,-0.98991,2023,6,12,13,48,4,964
0.08960,2.94000,-4.63750,0.00000,-0.01159,0.01147,-0.98918,2023,6,12,13,48,4,975
0.08970,3.11500,-4.65500,0.00000,-0.01318,0.01061,-0.99259,2023,6,12,13,48,5,6
0.08980,2.88750,-4.77750,0.00000,-0.00964,0.01147,-0.99064,2023,6,12,13,48,5,17
0.08990,2.76500,-4.60250,0.00000,-0.00939,0.01183,-0.98893,2023,6,12,13,48,5,28
0.09000,3.01000,-4.44500,0.00000,-0.01232,0.01159,-0.99015,2023,6,12,13,48,5,39
0.09010,3.11500,-4.79500,0.00000,-0.01220,0.01000,-0.98905,2023,6,12,13,48,5,51
0.09020,2.90500,-4.55000,0.00000,-0.00976,0.01281,-0.98881,2023,6,12,13,48,5,62
0.09030,2.97500,-4.67250,0.00000,-0.00952,0.01354,-0.99137,2023,6,12,13,48,5,73
0.09040,3.22000,-4.58500,0.00000,-0.00952,0.01110,-0.99125,2023,6,12,13,48,5,84
0.09050,3.04500,-4.58500,0.00000,-0.01257,0.01135,-0.99088,2023,6,12,13,48,5,95
0.09060,2.94000,-4.48000,0.00000,-0.00976,0.00903,-0.98832,2023,6,12,13,48,5,106
0.09070,2.85250,-4.39250,0.00000,-0.01086,0.01110,-0.98893,2023,6,12,13,48,5,117
0.09080,2.95750,-4.56750,0.00000,-0.01244,0.01086,-0.98881,2023,6,12,13,48,5,128
0.09090,3.01000,-4.49750,0.00000,-0.00952,0.01074,-0.98844,2023,6,12,13,48,5,139
0.09100,3.04500,-4.46250,0.00000,-0.00988,0.01074,-0.99113,2023,6,12,13,48,5,151
0.09110,2.94000,-4.42750,0.00000,-0.01159,0.01159,-0.99174,2023,6,12,13,48,5,162
0.09120,2.95750,-4.32250,0.00000,-0.01244,0.01049,-0.98857,2023,6,12,13,48,5,173
0.09130,2.94000,-4.39250,0.00000,-0.01183,0.00927,-0.99149,2023,6,12,13,48,5,184
0.09140,2.95750,-4.63750,0.00000,-0.01208,0.00988,-0.98832,2023,6,12,13,48,5,195
0.09150,3.16750,-4.39250,0.00000,-0.01049,0.01183,-0.98820,2023,6,12,13,48,5,206
0.09160,3.02750,-4.49750,0.00000,-0.01183,0.01122,-0.98942,2023,6,12,13,48,5,217
0.09170,2.95750,-4.44500,0.00000,-0.01220,0.01208,-0.99101,2023,6,12,13,48,5,228
0.09180,3.02750,-4.63750,0.00000,-0.01110,0.01086,-0.99003,2023,6,12,13,48,5,239
0.09190,2.95750,-4.46250,0.00000,-0.01074,0.01135,-0.99076,2023,6,12,13,48,5,251
0.09200,2.92250,-4.63750,0.00000,-0.01135,0.01232,-0.99308,2023,6,12,13,48,5,262
0.09210,2.92250,-4.58500,0.00000,-0.01122,0.01183,-0.98735,2023,6,12,13,48,5,273
0.09220,2.81750,-4.55000,0.00000,-0.01000,0.00891,-0.98954,2023,6,12,13,48,5,284
0.09230,3.02750,-4.63750,0.00000,-0.00927,0.01257,-0.98918,2023,6,12,13,48,5,295
0.09240,3.01000,-4.37500,0.00000,-0.01220,0.01061,-0.98808,2023,6,12,13,48,5,306
0.09250,2.88750,-4.46250,0.00000,-0.01305,0.01196,-0.99088,2023,6,12,13,48,5,317
0.09260,3.02750,-4.56750,0.00000,-0.01232,0.00891,-0.99149,2023,6,12,13,48,5,328
0.09270,2.97500,-4.56750,0.00000,-0.01232,0.01171,-0.99149,2023,6,12,13,48,5,339
0.09280,3.13250,-4.58500,0.00000,-0.01159,0.01086,-0.98881,2023,6,12,13,48,5,351
0.09290,3.02750,-4.58500,0.00000,-0.01110,0.01183,-0.99015,2023,6,12,13,48,5,362
0.09300,3.04500,-4.58500,0.00000,-0.01183,0.01110,-0.98991,2023,6,12,13,48,5,373
0.09310,3.15000,-4.42750,0.00000,-0.01232,0.01196,-0.98698,2023,6,12,13,48,5,384
0.09320,3.06250,-4.93500,0.00000,-0.01257,0.01196,-0.98783,2023,6,12,13,48,5,395
0.09330,2.90500,-4.55000,0.00000,-0.01208,0.00976,-0.98759,2023,6,12,13,48,5,406
0.09340,3.16750,-4.60250,0.00000,-0.01147,0.01049,-0.98796,2023,6,12,13,48,5,417
0.09350,3.04500,-4.65500,0.00000,-0.01110,0.01086,-0.98771,2023,6,12,13,48,5,428
0.09360,2.99250,-4.55000,0.00000,-0.01025,0.01147,-0.98966,2023,6,12,13,48,5,439
0.09370,3.06250,-4.39250,0.00000,-0.01025,0.01098,-0.98881,2023,6,12,13,48,5,451
0.09380,3.09750,-4.67250,0.00000,-0.01232,0.01244,-0.99052,2023,6,12,13,48,5,462
0.09390,3.09750,-4.56750,0.00000,-0.01220,0.01049,-0.98796,2023,6,12,13,48,5,473
0.09400,2.83500,-4.42750,0.00000,-0.01159,0.01232,-0.98844,2023,6,12,13,48,5,484
0.09410,3.01000,-4.56750,0.00000,-0.01281,0.01013,-0.98954,2023,6,12,13,48,5,495
0.09420,3.11500,-4.81250,0.00000,-0.01147,0.01074,-0.98722,2023,6,12,13,48,5,506
0.09430,2.94000,-4.51500,0.00000,-0.01196,0.01183,-0.99137,2023,6,12,13,48,5,517
0.09440,2.87000,-4.62000,0.00000,-0.01269,0.01220,-0.99003,2023,6,12,13,48,5,528
0.09450,3.06250,-4.72500,0.00000,-0.01183,0.01061,-0.98857,2023,6,12,13,48,5,539
0.09460,2.97500,-4.69000,0.00000,-0.01281,0.01122,-0.98930,2023,6,12,13,48,5,551
0.09470,2.94000,-4.53250,0.00000,-0.01208,0.01232,-0.98905,2023,6,12,13,48,5,562
0.09480,2.88750,-4.63750,0.00000,-0.01159,0.00903,-0.98625,2023,6,12,13,48,5,573
0.09490,2.95750,-4.69000,0.00000,-0.01196,0.01208,-0.98857,2023,6,12,13,48,5,584
0.09500,3.04500,-4.58500,0.00000,-0.01281,0.00903,-0.98905,2023,6,12,13,48,5,595
0.09510,2.90500,-4.48000,0.00000,-0.01086,0.01000,-0.99101,2023,6,12,13,48,5,606
0.09520,2.90500,-4.74250,0.00000,-0.01293,0.01366,-0.99027,2023,6,12,13,48,5,617
0.09530,2.76500,-4.49750,0.00000,-0.01074,0.01110,-0.98991,2023,6,12,13,48,5,628
0.09540,3.02750,-4.65500,0.00000,-0.01037,0.01135,-0.98881,2023,6,12,13,48,5,639
0.09550,3.01000,-4.63750,0.00000,-0.01342,0.01171,-0.98991,2023,6,12,13,48,5,651
0.09560,3.11500,-4.79500,0.00000,-0.01281,0.00891,-0.98966,2023,6,12,13,48,5,662
0.09570,2.94000,-4.55000,0.00000,-0.01135,0.01061,-0.98893,2023,6,12,13,48,5,673
0.09580,3.01000,-4.55000,0.00000,-0.01122,0.00988,-0.98918,2023,6,12,13,48,5,684
0.09590,2.97500,-4.62000,0.00000,-0.01049,0.01110,-0.98918,2023,6,12,13,48,5,695
0.09600,3.09750,-4.58500,0.00000,-0.01244,0.01049,-0.98759,2023,6,12,13,48,5,706
0.09610,2.90500,-4.65500,0.00000,-0.01049,0.01122,-0.98979,2023,6,12,13,48,5,717
0.09620,2.99250,-4.65500,0.00000,-0.01220,0.01074,-0.98735,2023,6,12,13,48,5,728
0.09630,3.20250,-4.81250,0.00000,-0.00927,0.01196,-0.99125,2023,6,12,13,48,5,739
0.09640,3.02750,-4.58500,0.00000,-0.01220,0.01147,-0.98893,2023,6,12,13,48,5,751
0.09650,2.92250,-4.58500,0.00000,-0.01171,0.00964,-0.98771,2023,6,12,13,48,5,762
0.09660,3.11500,-4.70750,0.00000,-0.01147,0.01269,-0.99174,2023,6,12,13,48,5,773
0.09670,2.92250,-4.51500,0.00000,-0.01135,0.01122,-0.99052,2023,6,12,13,48,5,784
0.09680,3.02750,-4.48000,0.00000,-0.01025,0.01196,-0.98869,2023,6,12,13,48,5,795
0.09690,2.73000,-4.39250,0.00000,-0.00842,0.01122,-0.98686,2023,6,12,13,48,5,806
0.09700,2.92250,-4.58500,0.00000,-0.01074,0.01330,-0.98735,2023,6,12,13,48,5,817
0.09710,2.94000,-4.56750,0.00000,-0.01000,0.01257,-0.99076,2023,6,12,13,48,5,828
0.09720,2.99250,-4.76000,0.00000,-0.01281,0.01159,-0.98637,2023,6,12,13,48,5,839
0.09730,3.01000,-4.72500,0.00000,-0.01220,0.01220,-0.98881,2023,6,12,13,48,5,851
0.09740,3.02750,-4.65500,0.00000,-0.01269,0.01025,-0.98844,2023,6,12,13,48,5,862
0.09750,3.09750,-4.62000,0.00000,-0.01061,0.01232,-0.98857,2023,6,12,13,48,5,873
0.09760,2.99250,-4.77750,0.00000,-0.01013,0.01269,-0.99125,2023,6,12,13,48,5,884
0.09770,2.97500,-4.70750,0.00000,-0.00891,0.01293,-0.98759,2023,6,12,13,48,5,895
0.09780,3.02750,-4.58500,0.00000,-0.01196,0.01244,-0.98991,2023,6,12,13,48,5,906
0.09790,2.95750,-4.34000,0.00000,-0.01074,0.01135,-0.98979,2023,6,12,13,48,5,917
0.09800,2.90500,-4.53250,0.00000,-0.01147,0.01135,-0.99052,2023,6,12,13,48,5,928
0.09810,2.95750,-4.44500,0.00000,-0.01269,0.01208,-0.98857,2023,6,12,13,48,5,939
0.09820,3.02750,-4.53250,0.00000,-0.01171,0.01281,-0.98588,2023,6,12,13,48,5,951
0.09830,3.04500,-4.56750,0.00000,-0.01244,0.01147,-0.98820,2023,6,12,13,48,5,962
0.09840,2.99250,-4.49750,0.00000,-0.01135,0.01098,-0.99027,2023,6,12,13,48,5,973
0.09850,2.99250,-4.42750,0.00000,-0.00988,0.01147,-0.98930,2023,6,12,13,48,5,984
0.09860,2.92250,-4.53250,0.00000,-0.01257,0.01208,-0.98918,2023,6,12,13,48,6,5
0.09870,2.97500,-4.46250,0.00000,-0.01086,0.01037,-0.99040,2023,6,12,13,48,6,16
0.09880,3.08000,-4.28750,0.00000,-0.00927,0.01342,-0.98661,2023,6,12,13,48,6,27
0.09890,2.90500,-4.58500,0.00000,-0.01110,0.01086,-0.98759,2023,6,12,13,48,6,38
0.09900,2.88750,-4.60250,0.00000,-0.01183,0.01061,-0.98881,2023,6,12,13,48,6,49
0.09910,3.06250,-4.65500,0.00000,-0.01061,0.01049,-0.99040,2023,6,12,13,48,6,61
0.09920,3.06250,-4.67250,0.00000,-0.01147,0.01220,-0.98588,2023,6,12,13,48,6,72
0.09930,3.20250,-4.58500,0.00000,-0.01305,0.01208,-0.99015,2023,6,12,13,48,6,83
0.09940,3.04500,-4.84750,0.00000,-0.01135,0.01098,-0.98893,2023,6,12,13,48,6,94
0.09950,3.01000,-4.69000,0.00000,-0.01232,0.00988,-0.98881,2023,6,12,13,48,6,105
0.09960,2.99250,-4.83000,0.00000,-0.01013,0.01232,-0.98857,2023,6,12,13,48,6,116
0.09970,2.90500,-4.49750,0.00000,-0.01232,0.01342,-0.99125,2023,6,12,13,48,6,127
0.09980,2.95750,-4.51500,0.00000,-0.01147,0.01159,-0.98844,2023,6,12,13,48,6,138
0.09990,2.88750,-4.72500,0.00000,-0.01171,0.01232,-0.99027,2023,6,12,13,48,6,149
0.10000,3.25500,-4.56750,0.00000,-0.01159,0.01061,-0.98942,2023,6,12,13,48,6,161
0.10010,2.87000,-4.51500,0.00000,-0.01049,0.01098,-0.99052,2023,6,12,13,48,6,172
0.10020,2.92250,-4.42750,0.00000,-0.01098,0.01049,-0.98979,2023,6,12,13,48,6,183
0.10030,3.11500,-4.58500,0.00000,-0.01293,0.01135,-0.99149,2023,6,12,13,48,6,194
0.10040,3.01000,-4.44500,0.00000,-0.01049,0.01049,-0.98930,2023,6,12,13,48,6,205
0.10050,3.01000,-4.56750,0.00000,-0.00988,0.01171,-0.99149,2023,6,12,13,48,6,216
0.10060,2.99250,-4.74250,0.00000,-0.01171,0.00903,-0.98808,2023,6,12,13,48,6,227
0.10070,2.90500,-4.55000,0.00000,-0.01122,0.00830,-0.98905,2023,6,12,13,48,6,238
0.10080,2.88750,-4.60250,0.00000,-0.01037,0.01159,-0.99113,2023,6,12,13,48,6,249
0.10090,3.04500,-4.60250,0.00000,-0.01000,0.01171,-0.98783,2023,6,12,13,48,6,261
0.10100,2.99250,-4.74250,0.00000,-0.01135,0.01232,-0.98722,2023,6,12,13,48,6,272
0.10110,2.87000,-4.46250,0.00000,-0.01086,0.00781,-0.98979,2023,6,12,13,48,6,283
0.10120,2.99250,-4.49750,0.00000,-0.01098,0.01110,-0.98918,2023,6,12,13,48,6,294
0.10130,3.08000,-4.67250,0.00000,-0.00964,0.01159,-0.98844,2023,6,12,13,48,6,305
0.10140,2.87000,-4.44500,0.00000,-0.01098,0.01049,-0.99101,2023,6,12,13,48,6,316
0.10150,2.80000,-4.77750,0.00000,-0.01208,0.01196,-0.98783,2023,6,12,13,48,6,327
0.10160,2.83500,-4.63750,0.00000,-0.01025,0.01269,-0.98857,2023,6,12,13,48,6,338
0.10170,2.99250,-4.53250,0.00000,-0.01122,0.01159,-0.98954,2023,6,12,13,48,6,349
0.10180,2.81750,-4.51500,0.00000,-0.01061,0.01025,-0.98844,2023,6,12,13,48,6,361
0.10190,3.18500,-4.55000,0.00000,-0.01147,0.00927,-0.98771,2023,6,12,13,48,6,372
0.10200,3.01000,-4.63750,0.00000,-0.01281,0.01061,-0.98832,2023,6,12,13,48,6,383
0.10210,2.85250,-4.39250,0.00000,-0.01171,0.01196,-0.98796,2023,6,12,13,48,6,394
0.10220,3.04500,-4.42750,0.00000,-0.01122,0.00988,-0.98942,2023,6,12,13,48,6,405
0.10230,2.92250,-4.44500,0.00000,-0.01281,0.01208,-0.99027,2023,6,12,13,48,6,416
0.10240,3.01000,-4.53250,0.00000,-0.01086,0.01037,-0.98771,2023,6,12,13,48,6,427
0.10250,3.01000,-4.62000,0.00000,-0.01305,0.01208,-0.98661,2023,6,12,13,48,6,438
0.10260,2.87000,-4.48000,0.00000,-0.01110,0.01025,-0.98661,2023,6,12,13,48,6,449
0.10270,2.99250,-4.48000,0.00000,-0.01074,0.01037,-0.99003,2023,6,12,13,48,6,461
0.10280,2.92250,-4.83000,0.00000,-0.01098,0.01061,-0.98747,2023,6,12,13,48,6,472
0.10290,2.94000,-4.49750,0.00000,-0.01159,0.01171,-0.98576,2023,6,12,13,48,6,483
0.10300,2.94000,-4.42750,0.00000,-0.01013,0.01135,-0.99125,2023,6,12,13,48,6,494
0.10310,2.97500,-4.63750,0.00000,-0.01147,0.01000,-0.99076,2023,6,12,13,48,6,505
0.10320,2.88750,-4.51500,0.00000,-0.01171,0.01000,-0.98954,2023,6,12,13,48,6,516
0.10330,2.90500,-4.67250,0.00000,-0.01232,0.01135,-0.99052,2023,6,12,13,48,6,527
0.10340,2.92250,-4.53250,0.00000,-0.01281,0.00878,-0.98661,2023,6,12,13,48,6,538
0.10350,2.90500,-4.56750,0.00000,-0.01013,0.01122,-0.98722,2023,6,12,13,48,6,549
0.10360,2.94000,-4.55000,0.00000,-0.01196,0.01208,-0.98844,2023,6,12,13,48,6,561
0.10370,3.01000,-4.53250,0.00000,-0.01159,0.01037,-0.98942,2023,6,12,13,48,6,572
0.10380,2.97500,-4.49750,0.00000,-0.01171,0.01025,-0.98759,2023,6,12,13,48,6,583
0.10390,2.95750,-4.58500,0.00000,-0.01244,0.01025,-0.98747,2023,6,12,13,48,6,594
0.10400,2.92250,-4.55000,0.00000,-0.01171,0.01196,-0.98808,2023,6,12,13,48,6,605
0.10410,3.01000,-4.60250,0.00000,-0.01122,0.01244,-0.98869,2023,6,12,13,48,6,616
0.10420,3.16750,-4.72500,0.00000,-0.01025,0.01061,-0.99418,2023,6,12,13,48,6,627
0.10430,2.90500,-4.69000,0.00000,-0.01208,0.01086,-0.98881,2023,6,12,13,48,6,638
0.10440,3.06250,-4.62000,0.00000,-0.01135,0.01086,-0.98820,2023,6,12,13,48,6,649
0.10450,2.99250,-4.55000,0.00000,-0.01208,0.01086,-0.99125,2023,6,12,13,48,6,661
0.10460,3.22000,-4.81250,0.00000,-0.01220,0.00988,-0.99125,2023,6,12,13,48,6,672
0.10470,2.92250,-4.37500,0.00000,-0.01110,0.01086,-0.98808,2023,6,12,13,48,6,683
0.10480,2.95750,-4.69000,0.00000,-0.01000,0.01110,-0.99223,2023,6,12,13,48,6,694
0.10490,2.95750,-4.60250,0.00000,-0.01171,0.01000,-0.98637,2023,6,12,13,48,6,705
0.10500,3.11500,-4.58500,0.00000,-0.01110,0.01086,-0.98979,2023,6,12,13,48,6,716
0.10510,3.01000,-4.53250,0.00000,-0.01013,0.01135,-0.98759,2023,6,12,13,48,6,727
0.10520,2.78250,-4.44500,0.00000,-0.01098,0.01037,-0.98857,2023,6,12,13,48,6,738
0.10530,3.01000,-4.48000,0.00000,-0.01232,0.01013,-0.98857,2023,6,12,13,48,6,749
0.10540,2.97500,-4.49750,0.00000,-0.00976,0.01086,-0.98637,2023,6,12,13,48,6,761
0.10550,3.15000,-4.35750,0.00000,-0.01025,0.01025,-0.98979,2023,6,12,13,48,6,772
0.10560,2.94000,-4.35750,0.00000,-0.01013,0.01074,-0.98686,2023,6,12,13,48,6,783
0.10570,3.06250,-4.56750,0.00000,-0.01122,0.00988,-0.99040,2023,6,12,13,48,6,794
0.10580,3.01000,-4.58500,0.00000,-0.01318,0.01098,-0.99259,2023,6,12,13,48,6,805
0.10590,2.83500,-4.65500,0.00000,-0.01025,0.01000,-0.98954,2023,6,12,13,48,6,816
0.10600,2.88750,-4.53250,0.00000,-0.01000,0.01147,-0.99052,2023,6,12,13,48,6,827
0.10610,3.02750,-4.58500,0.00000,-0.01171,0.01025,-0.99003,2023,6,12,13,48,6,838
0.10620,2.74750,-4.63750,0.00000,-0.01305,0.01135,-0.98844,2023,6,12,13,48,6,849
0.10630,3.13250,-4.69000,0.00000,-0.01269,0.00964,-0.98832,2023,6,12,13,48,6,861
0.10640,3.01000,-4.51500,0.00000,-0.01000,0.01330,-0.99101,2023,6,12,13,48,6,872
0.10650,2.87000,-4.48000,0.00000,-0.01061,0.01183,-0.98576,2023,6,12,13,48,6,883
0.10660,2.74750,-4.49750,0.00000,-0.01074,0.01098,-0.98710,2023,6,12,13,48,6,894
0.10670,2.95750,-4.67250,0.00000,-0.01061,0.01025,-0.98979,2023,6,12,13,48,6,905
0.10680,2.99250,-4.63750,0.00000,-0.01171,0.00878,-0.99101,2023,6,12,13,48,6,916
0.10690,3.01000,-4.77750,0.00000,-0.01122,0.01049,-0.98820,2023,6,12,13,48,6,927
0.10700,3.15000,-4.74250,0.00000,-0.01257,0.01025,-0.99064,2023,6,12,13,48,6,938
0.10710,3.13250,-4.62000,0.00000,-0.01147,0.01257,-0.98735,2023,6,12,13,48,6,949
0.10720,3.18500,-4.67250,0.00000,-0.01305,0.01013,-0.98661,2023,6,12,13,48,6,961
0.10730,2.99250,-4.74250,0.00000,-0.01269,0.00939,-0.98966,2023,6,12,13,48,6,972
0.10740,2.92250,-4.49750,0.00000,-0.01037,0.00891,-0.98759,2023,6,12,13,48,6,983
0.10750,2.85250,-4.37500,0.00000,-0.01074,0.01061,-0.98966,2023,6,12,13,48,7,4
0.10760,2.92250,-4.46250,0.00000,-0.01159,0.00830,-0.98722,2023,6,12,13,48,7,15
0.10770,3.08000,-4.58500,0.00000,-0.01183,0.01269,-0.98783,2023,6,12,13,48,7,26
0.10780,3.04500,-4.62000,0.00000,-0.01220,0.01000,-0.98820,2023,6,12,13,48,7,37
0.10790,3.06250,-4.46250,0.00000,-0.01013,0.01147,-0.98820,2023,6,12,13,48,7,48
0.10800,3.01000,-4.84750,0.00000,-0.00915,0.01305,-0.98966,2023,6,12,13,48,7,59
0.10810,3.13250,-4.51500,0.00000,-0.01330,0.01037,-0.98674,2023,6,12,13,48,7,71
0.10820,2.92250,-4.46250,0.00000,-0.01196,0.01061,-0.98844,2023,6,12,13,48,7,82
0.10830,2.94000,-4.62000,0.00000,-0.01086,0.01147,-0.98661,2023,6,12,13,48,7,93
0.10840,3.01000,-4.74250,0.00000,-0.01147,0.00939,-0.98930,2023,6,12,13,48,7,104
0.10850,2.97500,-4.67250,0.00000,-0.01061,0.01000,-0.98600,2023,6,12,13,48,7,115
0.10860,3.06250,-4.53250,0.00000,-0.00976,0.01037,-0.99052,2023,6,12,13,48,7,126
0.10870,2.99250,-4.70750,0.00000,-0.01135,0.01122,-0.98857,2023,6,12,13,48,7,137
0.10880,2.85250,-4.46250,0.00000,-0.01220,0.01196,-0.98759,2023,6,12,13,48,7,148
0.10890,2.81750,-4.63750,0.00000,-0.01037,0.01244,-0.98942,2023,6,12,13,48,7,159
0.10900,2.87000,-4.58500,0.00000,-0.01049,0.01159,-0.98527,2023,6,12,13,48,7,171
0.10910,2.83500,-4.32250,0.00000,-0.01122,0.01366,-0.98759,2023,6,12,13,48,7,182
0.10920,2.83500,-4.51500,0.00000,-0.01013,0.01244,-0.98796,2023,6,12,13,48,7,193
0.10930,2.85250,-4.42750,0.00000,-0.01098,0.01196,-0.98564,2023,6,12,13,48,7,204
0.10940,3.08000,-4.35750,0.00000,-0.01232,0.01061,-0.98674,2023,6,12,13,48,7,215
0.10950,3.01000,-4.69000,0.00000,-0.01098,0.01208,-0.98857,2023,6,12,13,48,7,226
0.10960,3.09750,-4.70750,0.00000,-0.01257,0.01061,-0.98796,2023,6,12,13,48,7,237
0.10970,2.85250,-4.67250,0.00000,-0.01013,0.01269,-0.99015,2023,6,12,13,48,7,248
0.10980,2.81750,-4.56750,0.00000,-0.01293,0.01049,-0.98759,2023,6,12,13,48,7,259
0.10990,2.97500,-4.65500,0.00000,-0.01159,0.01000,-0.98881,2023,6,12,13,48,7,271
0.11000,3.09750,-4.48000,0.00000,-0.01135,0.01159,-0.98857,2023,6,12,13,48,7,282
0.11010,2.97500,-4.60250,0.00000,-0.01171,0.01110,-0.98844,2023,6,12,13,48,7,293
0.11020,3.02750,-4.84750,0.00000,-0.01208,0.01183,-0.98637,2023,6,12,13,48,7,304
0.11030,2.87000,-4.67250,0.00000,-0.01086,0.01208,-0.98710,2023,6,12,13,48,7,315
0.11040,3.02750,-4.48000,0.00000,-0.01135,0.01183,-0.99015,2023,6,12,13,48,7,326
0.11050,3.04500,-4.55000,0.00000,-0.01269,0.01244,-0.98905,2023,6,12,13,48,7,337
0.11060,2.92250,-4.55000,0.00000,-0.00915,0.01232,-0.98747,2023,6,12,13,48,7,348
0.11070,2.88750,-4.34000,0.00000,-0.01135,0.01025,-0.99003,2023,6,12,13,48,7,359
0.11080,3.02750,-4.79500,0.00000,-0.00976,0.01257,-0.98710,2023,6,12,13,48,7,371
0.11090,3.01000,-4.58500,0.00000,-0.01110,0.01159,-0.99027,2023,6,12,13,48,7,382
0.11100,3.02750,-4.58500,0.00000,-0.01135,0.01232,-0.98881,2023,6,12,13,48,7,393
0.11110,2.97500,-4.55000,0.00000,-0.01086,0.01049,-0.98966,2023,6,12,13,48,7,404
0.11120,3.16750,-4.56750,0.00000,-0.01049,0.01196,-0.98893,2023,6,12,13,48,7,415
0.11130,3.04500,-4.69000,0.00000,-0.00817,0.01232,-0.98979,2023,6,12,13,48,7,426
0.11140,3.11500,-4.49750,0.00000,-0.01208,0.00842,-0.98796,2023,6,12,13,48,7,437
0.11150,2.81750,-4.63750,0.00000,-0.01086,0.01049,-0.98783,2023,6,12,13,48,7,448
0.11160,3.34250,-4.76000,0.00000,-0.01049,0.01220,-0.98820,2023,6,12,13,48,7,459
0.11170,3.01000,-4.55000,0.00000,-0.00915,0.01159,-0.98783,2023,6,12,13,48,7,471
0.11180,2.92250,-4.37500,0.00000,-0.01293,0.01013,-0.98954,2023,6,12,13,48,7,482
0.11190,2.83500,-4.63750,0.00000,-0.01208,0.01074,-0.98686,2023,6,12,13,48,7,493
0.11200,2.99250,-4.60250,0.00000,-0.01159,0.01037,-0.98905,2023,6,12,13,48,7,504
0.11210,2.97500,-4.56750,0.00000,-0.01098,0.01110,-0.98759,2023,6,12,13,48,7,515
0.11220,2.73000,-4.56750,0.00000,-0.01330,0.01013,-0.98783,2023,6,12,13,48,7,526
0.11230,3.01000,-4.34000,0.00000,-0.01049,0.01244,-0.98588,2023,6,12,13,48,7,537
0.11240,2.88750,-4.63750,0.00000,-0.01354,0.00976,-0.98966,2023,6,12,13,48,7,548
0.11250,3.16750,-4.46250,0.00000,-0.01098,0.01147,-0.98625,2023,6,12,13,48,7,559
0.11260,2.95750,-4.37500,0.00000,-0.01244,0.01122,-0.98661,2023,6,12,13,48,7,571
0.11270,3.02750,-4.74250,0.00000,-0.01074,0.01147,-0.99040,2023,6,12,13,48,7,582
0.11280,2.97500,-4.67250,0.00000,-0.01013,0.00781,-0.98674,2023,6,12,13,48,7,593
0.11290,2.97500,-4.53250,0.00000,-0.01232,0.01366,-0.98893,2023,6,12,13,48,7,604
0.11300,2.97500,-4.69000,0.00000,-0.01098,0.01049,-0.98539,2023,6,12,13,48,7,615
0.11310,2.97500,-4.63750,0.00000,-0.01086,0.00976,-0.98783,2023,6,12,13,48,7,626
0.11320,2.97500,-4.69000,0.00000,-0.01257,0.00915,-0.98844,2023,6,12,13,48,7,637
0.11330,2.97500,-4.42750,0.00000,-0.01025,0.01293,-0.98661,2023,6,12,13,48,7,648
0.11340,2.99250,-4.42750,0.00000,-0.01025,0.01000,-0.98783,2023,6,12,13,48,7,659
0.11350,2.97500,-4.49750,0.00000,-0.01183,0.01208,-0.98869,2023,6,12,13,48,7,671
0.11360,2.88750,-4.58500,0.00000,-0.01000,0.01135,-0.98625,2023,6,12,13,48,7,682
0.11370,3.13250,-4.58500,0.00000,-0.01135,0.01366,-0.98905,2023,6,12,13,48,7,693
0.11380,3.20250,-4.48000,0.00000,-0.01208,0.01074,-0.98991,2023,6,12,13,48,7,704
0.11390,2.85250,-4.65500,0.00000,-0.00976,0.01013,-0.98844,2023,6,12,13,48,7,715
0.11400,2.80000,-4.65500,0.00000,-0.01074,0.01061,-0.98539,2023,6,12,13,48,7,726
0.11410,3.04500,-4.70750,0.00000,-0.01074,0.01013,-0.98979,2023,6,12,13,48,7,737
0.11420,2.87000,-4.70750,0.00000,-0.00976,0.01183,-0.98478,2023,6,12,13,48,7,748
0.11430,2.94000,-4.49750,0.00000,-0.01037,0.01171,-0.98613,2023,6,12,13,48,7,759
0.11440,2.90500,-4.63750,0.00000,-0.01183,0.01269,-0.98832,2023,6,12,13,48,7,771
0.11450,3.02750,-4.65500,0.00000,-0.01086,0.01025,-0.98686,2023,6,12,13,48,7,782
0.11460,2.92250,-4.49750,0.00000,-0.01025,0.01232,-0.98954,2023,6,12,13,48,7,793
0.11470,2.97500,-4.51500,0.00000,-0.01098,0.01293,-0.98759,2023,6,12,13,48,7,804
0.11480,2.87000,-4.56750,0.00000,-0.01147,0.01220,-0.98686,2023,6,12,13,48,7,815
0.11490,3.06250,-4.55000,0.00000,-0.00988,0.01159,-0.98954,2023,6,12,13,48,7,826
0.11500,3.01000,-4.48000,0.00000,-0.01196,0.01183,-0.98735,2023,6,12,13,48,7,837
0.11510,2.95750,-4.72500,0.00000,-0.01232,0.01061,-0.98625,2023,6,12,13,48,7,848
0.11520,3.06250,-4.56750,0.00000,-0.01086,0.01196,-0.98747,2023,6,12,13,48,7,859
0.11530,3.20250,-4.48000,0.00000,-0.01037,0.01208,-0.98820,2023,6,12,13,48,7,871
0.11540,2.87000,-4.65500,0.00000,-0.00988,0.01159,-0.98954,2023,6,12,13,48,7,882
0.11550,3.13250,-4.74250,0.00000,-0.01147,0.01244,-0.98649,2023,6,12,13,48,7,893
0.11560,3.15000,-4.63750,0.00000,-0.01037,0.01061,-0.98600,2023,6,12,13,48,7,904
0.11570,3.02750,-4.55000,0.00000,-0.01159,0.00903,-0.98722,2023,6,12,13,48,7,915
0.11580,2.95750,-4.56750,0.00000,-0.01257,0.01171,-0.99040,2023,6,12,13,48,7,926
0.11590,2.83500,-4.49750,0.00000,-0.01074,0.00915,-0.98844,2023,6,12,13,48,7,937
0.11600,2.90500,-4.53250,0.00000,-0.00976,0.01122,-0.98796,2023,6,12,13,48,7,948
0.11610,3.04500,-4.67250,0.00000,-0.01110,0.00915,-0.98759,2023,6,12,13,48,7,959
0.11620,2.87000,-4.69000,0.00000,-0.01037,0.01122,-0.98820,2023,6,12,13,48,7,971
0.11630,2.90500,-4.60250,0.00000,-0.01122,0.01122,-0.98820,2023,6,12,13,48,8,2
0.11640,2.94000,-4.34000,0.00000,-0.01086,0.01037,-0.98759,2023,6,12,13,48,8,13
0.11650,3.02750,-4.56750,0.00000,-0.01208,0.01110,-0.98430,2023,6,12,13,48,8,24
0.11660,2.81750,-4.62000,0.00000,-0.01037,0.01220,-0.99137,2023,6,12,13,48,8,35
0.11670,2.81750,-4.51500,0.00000,-0.01257,0.01061,-0.98698,2023,6,12,13,48,8,46
0.11680,3.01000,-4.44500,0.00000,-0.01025,0.01037,-0.98503,2023,6,12,13,48,8,57
0.11690,3.01000,-4.51500,0.00000,-0.01196,0.01086,-0.98869,2023,6,12,13,48,8,68
0.11700,2.90500,-4.37500,0.00000,-0.01086,0.01183,-0.98552,2023,6,12,13,48,8,79
0.11710,2.81750,-4.56750,0.00000,-0.01244,0.01232,-0.98893,2023,6,12,13,48,8,91
0.11720,3.02750,-4.83000,0.00000,-0.01098,0.00854,-0.98552,2023,6,12,13,48,8,102
0.11730,2.90500,-4.60250,0.00000,-0.00915,0.01025,-0.98564,2023,6,12,13,48,8,113
0.11740,3.02750,-4.51500,0.00000,-0.01122,0.01037,-0.98710,2023,6,12,13,48,8,124
0.11750,3.02750,-4.69000,0.00000,-0.01098,0.01110,-0.98600,2023,6,12,13,48,8,135
0.11760,3.06250,-4.51500,0.00000,-0.01330,0.01086,-0.98783,2023,6,12,13,48,8,146
0.11770,2.97500,-4.44500,0.00000,-0.00976,0.01049,-0.98613,2023,6,12,13,48,8,157
0.11780,3.02750,-4.46250,0.00000,-0.01110,0.01025,-0.98466,2023,6,12,13,48,8,168
0.11790,3.09750,-4.30500,0.00000,-0.01183,0.01220,-0.98747,2023,6,12,13,48,8,179
0.11800,3.04500,-4.49750,0.00000,-0.00976,0.01135,-0.98966,2023,6,12,13,48,8,191
0.11810,2.85250,-4.51500,0.00000,-0.01025,0.00939,-0.98820,2023,6,12,13,48,8,202
0.11820,2.66000,-4.44500,0.00000,-0.01135,0.01342,-0.98771,2023,6,12,13,48,8,213
0.11830,2.95750,-4.51500,0.00000,-0.01025,0.01183,-0.98759,2023,6,12,13,48,8,224
0.11840,2.97500,-4.83000,0.00000,-0.01220,0.01122,-0.98820,2023,6,12,13,48,8,235
0.11850,3.04500,-4.60250,0.00000,-0.01415,0.01220,-0.98783,2023,6,12,13,48,8,246
0.11860,2.92250,-4.49750,0.00000,-0.00915,0.01220,-0.98905,2023,6,12,13,48,8,257
0.11870,2.85250,-4.21750,0.00000,-0.01171,0.01196,-0.98893,2023,6,12,13,48,8,268
0.11880,3.09750,-4.69000,0.00000,-0.01232,0.01086,-0.98637,2023,6,12,13,48,8,279
0.11890,2.87000,-4.49750,0.00000,-0.01025,0.01122,-0.98832,2023,6,12,13,48,8,291
0.11900,3.01000,-4.58500,0.00000,-0.01208,0.00927,-0.98613,2023,6,12,13,48,8,302
0.11910,3.04500,-4.58500,0.00000,-0.01074,0.01037,-0.98759,2023,6,12,13,48,8,313
0.11920,2.76500,-4.53250,0.00000,-0.00915,0.01208,-0.98832,2023,6,12,13,48,8,324
0.11930,2.88750,-4.76000,0.00000,-0.01110,0.01037,-0.98857,2023,6,12,13,48,8,335
0.11940,3.13250,-4.42750,0.00000,-0.01171,0.01110,-0.98600,2023,6,12,13,48,8,346
0.11950,3.15000,-4.70750,0.00000,-0.01061,0.01025,-0.98759,2023,6,12,13,48,8,357
0.11960,2.90500,-4.48000,0.00000,-0.01025,0.01061,-0.99027,2023,6,12,13,48,8,368
0.11970,2.99250,-4.58500,0.00000,-0.01074,0.01244,-0.98600,2023,6,12,13,48,8,379
0.11980,3.15000,-4.49750,0.00000,-0.01061,0.01013,-0.98918,2023,6,12,13,48,8,391
0.11990,3.02750,-4.72500,0.00000,-0.01159,0.01183,-0.98625,2023,6,12,13,48,8,402
0.12000,3.02750,-4.65500,0.00000,-0.01000,0.00988,-0.98930,2023,6,12,13,48,8,413
0.12010,2.92250,-4.55000,0.00000,-0.00891,0.01147,-0.98405,2023,6,12,13,48,8,424
0.12020,3.02750,-4.56750,0.00000,-0.01220,0.01000,-0.98783,2023,6,12,13,48,8,435
0.12030,3.08000,-4.77750,0.00000,-0.01196,0.01110,-0.98600,2023,6,12,13,48,8,446
0.12040,2.76500,-4.35750,0.00000,-0.01232,0.01049,-0.98747,2023,6,12,13,48,8,457
0.12050,3.01000,-4.51500,0.00000,-0.01208,0.01110,-0.98649,2023,6,12,13,48,8,468
0.12060,2.99250,-4.62000,0.00000,-0.00988,0.01208,-0.98991,2023,6,12,13,48,8,479
0.12070,3.11500,-4.42750,0.00000,-0.00939,0.00903,-0.98905,2023,6,12,13,48,8,491
0.12080,3.08000,-4.58500,0.00000,-0.01098,0.01086,-0.98771,2023,6,12,13,48,8,502
0.12090,2.90500,-4.44500,0.00000,-0.01196,0.01098,-0.98844,2023,6,12,13,48,8,513
0.12100,3.04500,-4.74250,0.00000,-0.01342,0.01098,-0.98747,2023,6,12,13,48,8,524
0.12110,2.99250,-4.49750,0.00000,-0.01220,0.01122,-0.98722,2023,6,12,13,48,8,535
0.12120,2.92250,-4.65500,0.00000,-0.01208,0.01293,-0.98942,2023,6,12,13,48,8,546
0.12130,3.01000,-4.70750,0.00000,-0.01171,0.01183,-0.98905,2023,6,12,13,48,8,557
0.12140,3.02750,-4.55000,0.00000,-0.01061,0.01098,-0.98698,2023,6,12,13,48,8,568
0.12150,2.94000,-4.55000,0.00000,-0.00915,0.01330,-0.98613,2023,6,12,13,48,8,579
0.12160,2.95750,-4.67250,0.00000,-0.01025,0.01074,-0.98820,2023,6,12,13,48,8,591
0.12170,2.97500,-4.41000,0.00000,-0.00952,0.01147,-0.98832,2023,6,12,13,48,8,602
0.12180,2.94000,-4.63750,0.00000,-0.01147,0.01086,-0.98686,2023,6,12,13,48,8,613
0.12190,2.90500,-4.63750,0.00000,-0.01269,0.01171,-0.98771,2023,6,12,13,48,8,624
0.12200,2.99250,-4.55000,0.00000,-0.01061,0.00988,-0.98466,2023,6,12,13,48,8,635
0.12210,2.97500,-4.62000,0.00000,-0.01183,0.01257,-0.98881,2023,6,12,13,48,8,646
0.12220,3.13250,-4.83000,0.00000,-0.01159,0.01049,-0.98796,2023,6,12,13,48,8,657
0.12230,3.11500,-4.65500,0.00000,-0.01147,0.01025,-0.98649,2023,6,12,13,48,8,668
0.12240,3.20250,-4.79500,0.00000,-0.01183,0.01049,-0.98600,2023,6,12,13,48,8,679
0.12250,2.80000,-4.72500,0.00000,-0.01159,0.01086,-0.98857,2023,6,12,13,48,8,691
0.12260,3.18500,-4.60250,0.00000,-0.01269,0.01135,-0.98698,2023,6,12,13,48,8,702
0.12270,3.16750,-4.41000,0.00000,-0.01013,0.01098,-0.98637,2023,6,12,13,48,8,713
0.12280,3.01000,-4.62000,0.00000,-0.00891,0.01269,-0.99040,2023,6,12,13,48,8,724
0.12290,3.09750,-4.58500,0.00000,-0.00939,0.00939,-0.98491,2023,6,12,13,48,8,735
0.12300,2.88750,-4.58500,0.00000,-0.01196,0.00976,-0.98710,2023,6,12,13,48,8,746
0.12310,2.97500,-4.37500,0.00000,-0.01074,0.01074,-0.98661,2023,6,12,13,48,8,757
0.12320,2.95750,-4.63750,0.00000,-0.01183,0.01281,-0.99040,2023,6,12,13,48,8,768
0.12330,2.95750,-4.46250,0.00000,-0.01269,0.01025,-0.98759,2023,6,12,13,48,8,779
0.12340,3.02750,-4.55000,0.00000,-0.01013,0.01122,-0.98637,2023,6,12,13,48,8,791
0.12350,2.90500,-4.42750,0.00000,-0.01220,0.00976,-0.98844,2023,6,12,13,48,8,802
0.12360,3.04500,-4.77750,0.00000,-0.01220,0.01049,-0.98796,2023,6,12,13,48,8,813
0.12370,3.16750,-4.72500,0.00000,-0.00964,0.01183,-0.98527,2023,6,12,13,48,8,824
0.12380,3.04500,-4.70750,0.00000,-0.01208,0.01257,-0.98796,2023,6,12,13,48,8,835
0.12390,3.09750,-4.56750,0.00000,-0.01049,0.01183,-0.98979,2023,6,12,13,48,8,846
0.12400,2.97500,-4.56750,0.00000,-0.01110,0.01171,-0.99064,2023,6,12,13,48,8,857
0.12410,2.92250,-4.69000,0.00000,-0.00964,0.01208,-0.98844,2023,6,12,13,48,8,868
0.12420,2.83500,-4.44500,0.00000,-0.01110,0.01147,-0.98698,2023,6,12,13,48,8,879
0.12430,3.11500,-4.65500,0.00000,-0.01122,0.00952,-0.98686,2023,6,12,13,48,8,891
0.12440,3.11500,-4.53250,0.00000,-0.00988,0.01318,-0.98832,2023,6,12,13,48,8,902
0.12450,2.87000,-4.72500,0.00000,-0.01257,0.01025,-0.98564,2023,6,12,13,48,8,913
0.12460,2.85250,-4.42750,0.00000,-0.01232,0.01183,-0.98881,2023,6,12,13,48,8,924
0.12470,2.90500,-4.44500,0.00000,-0.01232,0.01183,-0.98759,2023,6,12,13,48,8,935
0.12480,3.06250,-4.70750,0.00000,-0.01220,0.01074,-0.98832,2023,6,12,13,48,8,946
0.12490,2.99250,-4.62000,0.00000,-0.01025,0.01098,-0.98857,2023,6,12,13,48,8,957
0.12500,2.88750,-4.51500,0.00000,-0.01074,0.01135,-0.98905,2023,6,12,13,48,8,968
0.12510,2.87000,-4.63750,0.00000,-0.01244,0.01147,-0.98844,2023,6,12,13,48,8,979
0.12520,2.87000,-4.13000,0.00000,-0.01025,0.01049,-0.98564,2023,6,12,13,48,9,1
0.12530,2.95750,-4.42750,0.00000,-0.01257,0.01049,-0.98735,2023,6,12,13,48,9,12
0.12540,3.01000,-4.55000,0.00000,-0.01135,0.01074,-0.98881,2023,6,12,13,48,9,23
0.12550,3.15000,-4.56750,0.00000,-0.01122,0.01061,-0.98747,2023,6,12,13,48,9,34
0.12560,2.85250,-4.35750,0.00000,-0.01074,0.01232,-0.98808,2023,6,12,13,48,9,45
0.12570,2.92250,-4.67250,0.00000,-0.01013,0.01171,-0.99052,2023,6,12,13,48,9,56
0.12580,2.95750,-4.58500,0.00000,-0.01232,0.01135,-0.99052,2023,6,12,13,48,9,67
0.12590,2.94000,-4.51500,0.00000,-0.01232,0.01159,-0.98844,2023,6,12,13,48,9,78
0.12600,2.99250,-4.83000,0.00000,-0.01269,0.01049,-0.98796,2023,6,12,13,48,9,89
0.12610,3.06250,-4.72500,0.00000,-0.01196,0.01171,-0.98771,2023,6,12,13,48,9,101
0.12620,2.80000,-4.53250,0.00000,-0.01183,0.01135,-0.98966,2023,6,12,13,48,9,112
0.12630,3.06250,-4.74250,0.00000,-0.01232,0.01318,-0.98942,2023,6,12,13,48,9,123
0.12640,2.92250,-4.70750,0.00000,-0.01086,0.01147,-0.98857,2023,6,12,13,48,9,134
0.12650,2.85250,-4.48000,0.00000,-0.01025,0.01122,-0.98783,2023,6,12,13,48,9,145
0.12660,2.81750,-4.63750,0.00000,-0.01098,0.00964,-0.98588,2023,6,12,13,48,9,156
0.12670,2.95750,-4.35750,0.00000,-0.01135,0.01135,-0.98857,2023,6,12,13,48,9,167
0.12680,2.87000,-4.51500,0.00000,-0.01159,0.01074,-0.98747,2023,6,12,13,48,9,178
0.12690,2.95750,-4.62000,0.00000,-0.01147,0.01293,-0.98808,2023,6,12,13,48,9,189
0.12700,2.85250,-4.58500,0.00000,-0.01061,0.01269,-0.98869,2023,6,12,13,48,9,201
0.12710,3.06250,-4.72500,0.00000,-0.01122,0.01086,-0.98844,2023,6,12,13,48,9,212
0.12720,3.08000,-4.67250,0.00000,-0.01086,0.01098,-0.98527,2023,6,12,13,48,9,223
0.12730,2.90500,-4.48000,0.00000,-0.01159,0.01281,-0.98881,2023,6,12,13,48,9,234
0.12740,3.06250,-4.35750,0.00000,-0.01037,0.01171,-0.98405,2023,6,12,13,48,9,245
0.12750,2.97500,-4.63750,0.00000,-0.00964,0.01330,-0.98600,2023,6,12,13,48,9,256
0.12760,2.92250,-4.56750,0.00000,-0.01354,0.01220,-0.98954,2023,6,12,13,48,9,267
0.12770,3.01000,-4.56750,0.00000,-0.01183,0.00976,-0.98832,2023,6,12,13,48,9,278
0.12780,3.13250,-4.69000,0.00000,-0.01257,0.00988,-0.98783,2023,6,12,13,48,9,289
0.12790,2.94000,-4.63750,0.00000,-0.01293,0.01086,-0.98661,2023,6,12,13,48,9,301
0.12800,3.02750,-4.46250,0.00000,-0.00891,0.01171,-0.98808,2023,6,12,13,48,9,312
0.12810,2.88750,-4.53250,0.00000,-0.01220,0.01147,-0.98966,2023,6,12,13,48,9,323
0.12820,2.71250,-4.37500,0.00000,-0.01232,0.00988,-0.98722,2023,6,12,13,48,9,334
0.12830,3.08000,-4.60250,0.00000,-0.01074,0.00891,-0.98918,2023,6,12,13,48,9,345
0.12840,2.97500,-4.72500,0.00000,-0.01330,0.01025,-0.98893,2023,6,12,13,48,9,356
0.12850,2.97500,-4.55000,0.00000,-0.01183,0.01232,-0.99052,2023,6,12,13,48,9,367
0.12860,2.85250,-4.51500,0.00000,-0.01135,0.01049,-0.98564,2023,6,12,13,48,9,378
0.12870,2.99250,-4.63750,0.00000,-0.01196,0.01281,-0.98857,2023,6,12,13,48,9,389
0.12880,3.09750,-4.56750,0.00000,-0.01147,0.01305,-0.98722,2023,6,12,13,48,9,401
0.12890,3.11500,-4.63750,0.00000,-0.01098,0.01086,-0.98649,2023,6,12,13,48,9,412
0.12900,3.11500,-4.70750,0.00000,-0.01122,0.01171,-0.98735,2023,6,12,13,48,9,423
0.12910,3.04500,-4.74250,0.00000,-0.01196,0.00988,-0.98710,2023,6,12,13,48,9,434
0.12920,3.18500,-4.69000,0.00000,-0.01110,0.01000,-0.99064,2023,6,12,13,48,9,445
0.12930,3.01000,-4.60250,0.00000,-0.01098,0.01000,-0.98735,2023,6,12,13,48,9,456
0.12940,3.09750,-4.44500,0.00000,-0.01000,0.00976,-0.98942,2023,6,12,13,48,9,467
0.12950,2.99250,-4.55000,0.00000,-0.01330,0.01183,-0.98796,2023,6,12,13,48,9,478
0.12960,2.90500,-4.48000,0.00000,-0.01000,0.01037,-0.98674,2023,6,12,13,48,9,489
0.12970,2.95750,-4.70750,0.00000,-0.01305,0.01208,-0.98808,2023,6,12,13,48,9,501
0.12980,2.94000,-4.37500,0.00000,-0.01000,0.01196,-0.98454,2023,6,12,13,48,9,512
0.12990,3.15000,-4.72500,0.00000,-0.01098,0.01391,-0.98930,2023,6,12,13,48,9,523
0.13000,3.04500,-4.58500,0.00000,-0.01135,0.01074,-0.98747,2023,6,12,13,48,9,534
0.13010,3.06250,-4.63750,0.00000,-0.01147,0.01135,-0.98844,2023,6,12,13,48,9,545
0.13020,3.01000,-4.63750,0.00000,-0.01220,0.01257,-0.98649,2023,6,12,13,48,9,556
0.13030,3.02750,-4.53250,0.00000,-0.01000,0.00988,-0.98808,2023,6,12,13,48,9,567
0.13040,2.99250,-4.67250,0.00000,-0.01281,0.01171,-0.98710,2023,6,12,13,48,9,578
0.13050,2.90500,-4.69000,0.00000,-0.01159,0.00964,-0.98674,2023,6,12,13,48,9,589
0.13060,2.90500,-4.51500,0.00000,-0.01366,0.00854,-0.98893,2023,6,12,13,48,9,601
0.13070,2.90500,-4.56750,0.00000,-0.01086,0.01208,-0.98881,2023,6,12,13,48,9,612
0.13080,2.92250,-4.65500,0.00000,-0.00927,0.01171,-0.99027,2023,6,12,13,48,9,623
0.13090,2.88750,-4.56750,0.00000,-0.01159,0.01098,-0.98930,2023,6,12,13,48,9,634
0.13100,2.95750,-4.70750,0.00000,-0.00964,0.01074,-0.98979,2023,6,12,13,48,9,645
0.13110,2.99250,-4.44500,0.00000,-0.01025,0.01049,-0.98747,2023,6,12,13,48,9,656
0.13120,3.06250,-4.51500,0.00000,-0.01110,0.01013,-0.98820,2023,6,12,13,48,9,667
0.13130,3.02750,-4.65500,0.00000,-0.01086,0.00988,-0.98686,2023,6,12,13,48,9,678
0.13140,2.92250,-4.49750,0.00000,-0.00866,0.01293,-0.98808,2023,6,12,13,48,9,689
0.13150,2.97500,-4.55000,0.00000,-0.01171,0.01049,-0.98454,2023,6,12,13,48,9,701
0.13160,3.01000,-4.49750,0.00000,-0.01086,0.01147,-0.99064,2023,6,12,13,48,9,712
0.13170,2.92250,-4.69000,0.00000,-0.01037,0.00939,-0.98808,2023,6,12,13,48,9,723
0.13180,2.97500,-4.67250,0.00000,-0.01159,0.01098,-0.98918,2023,6,12,13,48,9,734
0.13190,2.87000,-4.53250,0.00000,-0.01208,0.01232,-0.98747,2023,6,12,13,48,9,745
0.13200,2.85250,-4.39250,0.00000,-0.01159,0.01293,-0.99003,2023,6,12,13,48,9,756
0.13210,2.99250,-4.72500,0.00000,-0.00915,0.01049,-0.99418,2023,6,12,13,48,9,767
0.13220,3.13250,-4.51500,0.00000,-0.01061,0.01037,-0.98991,2023,6,12,13,48,9,778
0.13230,2.92250,-4.62000,0.00000,-0.01171,0.01025,-0.98686,2023,6,12,13,48,9,789
0.13240,2.94000,-4.48000,0.00000,-0.01025,0.01220,-0.98735,2023,6,12,13,48,9,801
0.13250,3.08000,-4.55000,0.00000,-0.01000,0.01135,-0.99125,2023,6,12,13,48,9,812
0.13260,3.15000,-4.58500,0.00000,-0.01269,0.01305,-0.99125,2023,6,12,13,48,9,823
0.13270,3.01000,-4.49750,0.00000,-0.01415,0.01037,-0.99027,2023,6,12,13,48,9,834
0.13280,2.97500,-4.58500,0.00000,-0.01147,0.01147,-0.99113,2023,6,12,13,48,9,845
0.13290,3.18500,-4.62000,0.00000,-0.01257,0.01098,-0.98954,2023,6,12,13,48,9,856
0.13300,2.97500,-4.69000,0.00000,-0.01159,0.01037,-0.99027,2023,6,12,13,48,9,867
0.13310,3.06250,-4.65500,0.00000,-0.01025,0.01147,-0.98844,2023,6,12,13,48,9,878
0.13320,2.90500,-4.65500,0.00000,-0.01147,0.01037,-0.98735,2023,6,12,13,48,9,889
0.13330,2.81750,-4.81250,0.00000,-0.01208,0.01171,-0.98759,2023,6,12,13,48,9,901
0.13340,3.06250,-4.48000,0.00000,-0.00976,0.01049,-0.98686,2023,6,12,13,48,9,912
0.13350,2.87000,-4.30500,0.00000,-0.01061,0.01086,-0.98588,2023,6,12,13,48,9,923
0.13360,2.90500,-4.39250,0.00000,-0.01159,0.00964,-0.99149,2023,6,12,13,48,9,934
0.13370,2.92250,-4.58500,0.00000,-0.01135,0.01013,-0.98625,2023,6,12,13,48,9,945
0.13380,2.85250,-4.39250,0.00000,-0.01098,0.01013,-0.98710,2023,6,12,13,48,9,956
0.13390,2.95750,-4.62000,0.00000,-0.01232,0.01013,-0.98783,2023,6,12,13,48,9,967
0.13400,3.06250,-4.63750,0.00000,-0.01037,0.01086,-0.98918,2023,6,12,13,48,10,8
0.13410,3.11500,-4.72500,0.00000,-0.01098,0.01293,-0.98747,2023,6,12,13,48,10,19
0.13420,3.04500,-4.67250,0.00000,-0.00939,0.01135,-0.98893,2023,6,12,13,48,10,31
0.13430,3.04500,-4.41000,0.00000,-0.01098,0.00805,-0.98954,2023,6,12,13,48,10,42
0.13440,2.88750,-4.53250,0.00000,-0.01183,0.01196,-0.98588,2023,6,12,13,48,10,53
0.13450,3.11500,-4.77750,0.00000,-0.00988,0.01110,-0.98832,2023,6,12,13,48,10,64
0.13460,2.99250,-4.65500,0.00000,-0.01110,0.01074,-0.98808,2023,6,12,13,48,10,75
0.13470,3.20250,-4.79500,0.00000,-0.01110,0.01196,-0.98832,2023,6,12,13,48,10,86
0.13480,2.97500,-4.65500,0.00000,-0.01305,0.01159,-0.98808,2023,6,12,13,48,10,97
0.13490,2.94000,-4.55000,0.00000,-0.01232,0.01025,-0.98979,2023,6,12,13,48,10,108
0.13500,3.04500,-4.49750,0.00000,-0.01025,0.00878,-0.98942,2023,6,12,13,48,10,119
0.13510,2.95750,-4.58500,0.00000,-0.01244,0.00939,-0.98893,2023,6,12,13,48,10,131
0.13520,2.97500,-4.69000,0.00000,-0.01122,0.01171,-0.98637,2023,6,12,13,48,10,142
0.13530,2.99250,-4.81250,0.00000,-0.01110,0.01196,-0.98905,2023,6,12,13,48,10,153
0.13540,3.09750,-4.48000,0.00000,-0.01061,0.01208,-0.99113,2023,6,12,13,48,10,164
0.13550,3.01000,-4.74250,0.00000,-0.01122,0.01013,-0.98576,2023,6,12,13,48,10,175
0.13560,2.97500,-4.63750,0.00000,-0.01196,0.01037,-0.98637,2023,6,12,13,48,10,186
0.13570,2.95750,-4.56750,0.00000,-0.01171,0.01025,-0.98661,2023,6,12,13,48,10,197
0.13580,2.88750,-4.65500,0.00000,-0.01183,0.01135,-0.98820,2023,6,12,13,48,10,208
0.13590,3.01000,-4.60250,0.00000,-0.01196,0.00939,-0.98466,2023,6,12,13,48,10,219
0.13600,2.95750,-4.37500,0.00000,-0.01025,0.01244,-0.98722,2023,6,12,13,48,10,231
0.13610,3.02750,-4.37500,0.00000,-0.01257,0.01025,-0.99223,2023,6,12,13,48,10,242
0.13620,3.15000,-4.53250,0.00000,-0.00964,0.01318,-0.98820,2023,6,12,13,48,10,253
0.13630,2.85250,-4.35750,0.00000,-0.01220,0.01244,-0.98918,2023,6,12,13,48,10,264
0.13640,3.06250,-4.53250,0.00000,-0.01147,0.01147,-0.98905,2023,6,12,13,48,10,275
0.13650,3.06250,-4.53250,0.00000,-0.00988,0.01354,-0.98954,2023,6,12,13,48,10,286
0.13660,3.23750,-4.65500,0.00000,-0.00952,0.01135,-0.98844,2023,6,12,13,48,10,297
0.13670,2.99250,-4.48000,0.00000,-0.01318,0.00964,-0.98942,2023,6,12,13,48,10,308
0.13680,3.18500,-4.65500,0.00000,-0.01171,0.01159,-0.98918,2023,6,12,13,48,10,319
0.13690,2.67750,-4.49750,0.00000,-0.01086,0.01013,-0.98844,2023,6,12,13,48,10,331
0.13700,3.01000,-4.48000,0.00000,-0.01110,0.01098,-0.99003,2023,6,12,13,48,10,342
0.13710,3.08000,-4.58500,0.00000,-0.01122,0.00891,-0.99076,2023,6,12,13,48,10,353
0.13720,3.06250,-4.69000,0.00000,-0.01208,0.01037,-0.98686,2023,6,12,13,48,10,364
0.13730,2.55500,-4.53250,0.00000,-0.01086,0.01220,-0.98808,2023,6,12,13,48,10,375
0.13740,2.52000,-4.56750,0.00000,-0.01159,0.01037,-0.99564,2023,6,12,13,48,10,386
0.13750,2.80000,-4.25250,0.00000,-0.01159,0.01232,-0.98857,2023,6,12,13,48,10,397
0.13760,1.80250,-3.83250,0.00000,-0.00988,0.01440,-0.98454,2023,6,12,13,48,10,408
0.13770,-1.38250,-2.74750,0.00000,-0.01025,0.01354,-0.99320,2023,6,12,13,48,10,419
0.13780,-2.29250,-2.10000,0.00000,-0.01208,0.01330,-0.99491,2023,6,12,13,48,10,431
0.13790,-5.07500,-0.82250,0.00000,-0.00232,-0.00085,-0.99698,2023,6,12,13,48,10,442
0.13800,-13.72000,3.22000,0.00000,-0.01488,0.02086,-1.00967,2023,6,12,13,48,10,453
0.13810,-36.68000,13.37000,0.00000,-0.04111,-0.02428,-0.98051,2023,6,12,13,48,10,464
0.13820,-32.84750,11.44500,0.00000,-0.01232,0.14689,-1.00150,2023,6,12,13,48,10,475
0.13830,-18.97000,6.75500,0.00000,0.03953,-0.04514,-0.96685,2023,6,12,13,48,10,486
0.13840,-2.85250,-1.34750,0.00000,0.00793,0.01196,-0.97722,2023,6,12,13,48,10,497
0.13850,0.01750,-2.95750,0.00000,0.00012,0.02843,-1.00186,2023,6,12,13,48,10,508
0.13860,2.11750,-4.09500,0.00000,0.01293,0.04892,-0.96343,2023,6,12,13,48,10,519
0.13870,-3.90250,-1.38250,0.00000,-0.00610,0.03074,-1.00199,2023,6,12,13,48,10,531
0.13880,-10.83250,1.57500,0.00000,0.00903,0.04551,-0.97673,2023,6,12,13,48,10,542
0.13890,0.22750,-3.99000,0.00000,0.00744,0.05490,-0.94782,2023,6,12,13,48,10,553
0.13900,12.53000,-9.48500,0.00000,0.01867,0.04221,-0.96197,2023,6,12,13,48,10,564
0.13910,24.32500,-14.84000,0.00000,-0.00024,-0.01000,-0.95514,2023,6,12,13,48,10,575
0.13920,48.37000,-26.79250,0.00000,0.02379,0.12749,-1.01955,2023,6,12,13,48,10,586
0.13930,36.64500,-20.49250,0.00000,-0.02428,-0.00415,-1.06482,2023,6,12,13,48,10,597
0.13940,20.98250,-13.19500,0.00000,-0.03135,-0.01342,-1.04676,2023,6,12,13,48,10,608
0.13950,-0.08750,-3.15000,0.00000,-0.01025,0.01708,-0.99467,2023,6,12,13,48,10,619
0.13960,12.18000,-9.10000,0.00000,-0.01366,0.00781,-0.99491,2023,6,12,13,48,10,631
0.13970,2.48500,-4.37500,0.00000,-0.00988,0.02135,-0.98710,2023,6,12,13,48,10,642
0.13980,9.08250,-7.52500,0.00000,-0.00817,0.02001,-0.98137,2023,6,12,13,48,10,653
0.13990,5.07500,-5.56500,0.00000,-0.00988,0.01257,-0.99601,2023,6,12,13,48,10,664
0.14000,5.82750,-5.79250,0.00000,-0.01171,0.01452,-0.98552,2023,6,12,13,48,10,675
0.14010,4.21750,-5.26750,0.00000,-0.01049,0.01232,-0.99369,2023,6,12,13,48,10,686
0.14020,4.04250,-5.16250,0.00000,-0.00830,0.01684,-0.99125,2023,6,12,13,48,10,697
0.14030,3.32500,-4.62000,0.00000,-0.00964,0.01391,-0.98783,2023,6,12,13,48,10,708
0.14040,3.79750,-5.23250,0.00000,-0.00830,0.01659,-0.98600,2023,6,12,13,48,10,719
0.14050,4.07750,-4.93500,0.00000,-0.00976,0.01952,-0.98369,2023,6,12,13,48,10,731
0.14060,7.61250,-7.07000,0.00000,-0.00598,0.02452,-0.98186,2023,6,12,13,48,10,742
0.14070,1.29500,-3.79750,0.00000,-0.01366,0.00451,-0.99942,2023,6,12,13,48,10,753
0.14080,4.77750,-5.56500,0.00000,-0.01098,0.01415,-0.98539,2023,6,12,13,48,10,764
0.14090,1.69750,-3.78000,0.00000,-0.00793,0.01928,-0.98222,2023,6,12,13,48,10,775
0.14100,3.85000,-5.09250,0.00000,-0.00976,0.01415,-0.99271,2023,6,12,13,48,10,786
0.14110,2.87000,-4.48000,0.00000,-0.01098,0.01379,-0.98771,2023,6,12,13,48,10,797
0.14120,3.71000,-4.67250,0.00000,-0.01025,0.01281,-0.98942,2023,6,12,13,48,10,808
0.14130,2.69500,-4.56750,0.00000,-0.01000,0.01440,-0.98918,2023,6,12,13,48,10,819
0.14140,3.27250,-4.67250,0.00000,-0.01122,0.01684,-0.98881,2023,6,12,13,48,10,831
0.14150,3.06250,-4.56750,0.00000,-0.01013,0.01379,-0.99027,2023,6,12,13,48,10,842
0.14160,3.16750,-4.83000,0.00000,-0.01196,0.01257,-0.99137,2023,6,12,13,48,10,853
0.14170,2.97500,-4.60250,0.00000,-0.01122,0.01403,-0.98832,2023,6,12,13,48,10,864
0.14180,3.13250,-4.58500,0.00000,-0.01061,0.01342,-0.98747,2023,6,12,13,48,10,875
0.14190,3.13250,-4.72500,0.00000,-0.00939,0.01525,-0.98759,2023,6,12,13,48,10,886
0.14200,3.08000,-4.79500,0.00000,-0.00939,0.01464,-0.99027,2023,6,12,13,48,10,897
0.14210,3.15000,-4.76000,0.00000,-0.00878,0.01257,-0.98930,2023,6,12,13,48,10,908
0.14220,2.97500,-4.49750,0.00000,-0.01220,0.01281,-0.99223,2023,6,12,13,48,10,919
0.14230,3.13250,-4.46250,0.00000,-0.01086,0.01452,-0.98832,2023,6,12,13,48,10,931
0.14240,2.81750,-4.48000,0.00000,-0.00964,0.01330,-0.99125,2023,6,12,13,48,10,942
0.14250,2.88750,-4.69000,0.00000,-0.00854,0.01196,-0.99027,2023,6,12,13,48,10,953
0.14260,3.01000,-4.69000,0.00000,-0.00878,0.01610,-0.99137,2023,6,12,13,48,10,964
0.14270,3.13250,-4.55000,0.00000,-0.01025,0.01293,-0.99064,2023,6,12,13,48,10,975
0.14280,2.87000,-4.28750,0.00000,-0.01086,0.01427,-0.99125,2023,6,12,13,48,10,986
0.14290,3.23750,-4.58500,0.00000,-0.01086,0.01269,-0.98930,2023,6,12,13,48,11,7
#2023/06/12 13:48:11
