#2023/06/12 14:13:52
time,wx,wy,wz,ax,ay,az,yy,MM,dd,hh,mm,ss,ms
0.04020,3.23750,-4.51500,0.00000,-0.00891,0.01598,-0.98808,2023,6,12,14,13,52,70
0.04030,2.94000,-4.72500,0.00000,-0.00891,0.01525,-0.99003,2023,6,12,14,13,52,81
0.04040,3.01000,-4.62000,0.00000,-0.00964,0.01379,-0.98844,2023,6,12,14,13,52,92
0.04050,3.22000,-4.58500,0.00000,-0.01049,0.01366,-0.99076,2023,6,12,14,13,52,103
0.04060,3.08000,-4.62000,0.00000,-0.00964,0.01415,-0.98869,2023,6,12,14,13,52,114
0.04070,2.85250,-4.58500,0.00000,-0.00903,0.01574,-0.98710,2023,6,12,14,13,52,125
0.04080,2.94000,-4.72500,0.00000,-0.00952,0.01623,-0.98796,2023,6,12,14,13,52,136
0.04090,3.06250,-4.60250,0.00000,-0.01074,0.01403,-0.98698,2023,6,12,14,13,52,147
0.04100,3.06250,-4.62000,0.00000,-0.00854,0.01598,-0.98857,2023,6,12,14,13,52,158
0.04110,2.99250,-4.60250,0.00000,-0.01049,0.01440,-0.98808,2023,6,12,14,13,52,170
0.04120,2.99250,-4.35750,0.00000,-0.00903,0.01488,-0.98588,2023,6,12,14,13,52,181
0.04130,2.87000,-4.39250,0.00000,-0.01013,0.01537,-0.98503,2023,6,12,14,13,52,192
0.04140,2.92250,-4.44500,0.00000,-0.01061,0.01549,-0.99125,2023,6,12,14,13,52,203
0.04150,3.09750,-4.63750,0.00000,-0.00927,0.01501,-0.98588,2023,6,12,14,13,52,214
0.04160,2.92250,-4.46250,0.00000,-0.00756,0.01488,-0.98930,2023,6,12,14,13,52,225
0.04170,3.20250,-4.79500,0.00000,-0.00976,0.01476,-0.98698,2023,6,12,14,13,52,236
0.04180,3.08000,-4.65500,0.00000,-0.00927,0.01574,-0.99003,2023,6,12,14,13,52,247
0.04190,2.81750,-4.60250,0.00000,-0.00939,0.01549,-0.98759,2023,6,12,14,13,52,258
0.04200,3.01000,-4.65500,0.00000,-0.00976,0.01549,-0.98613,2023,6,12,14,13,52,270
0.04210,2.92250,-4.42750,0.00000,-0.01000,0.01415,-0.98686,2023,6,12,14,13,52,281
0.04220,3.04500,-4.53250,0.00000,-0.01147,0.01440,-0.98637,2023,6,12,14,13,52,292
0.04230,3.01000,-4.76000,0.00000,-0.01025,0.01464,-0.98503,2023,6,12,14,13,52,303
0.04240,2.92250,-4.72500,0.00000,-0.01074,0.01513,-0.98759,2023,6,12,14,13,52,314
0.04250,3.02750,-4.65500,0.00000,-0.01037,0.01464,-0.98564,2023,6,12,14,13,52,325
0.04260,2.94000,-4.58500,0.00000,-0.01037,0.01391,-0.98771,2023,6,12,14,13,52,336
0.04270,3.01000,-4.67250,0.00000,-0.00927,0.01330,-0.98893,2023,6,12,14,13,52,347
0.04280,3.16750,-4.63750,0.00000,-0.01000,0.01330,-0.98747,2023,6,12,14,13,52,358
0.04290,3.06250,-4.58500,0.00000,-0.01074,0.01635,-0.98649,2023,6,12,14,13,52,369
0.04300,2.95750,-4.39250,0.00000,-0.01061,0.01379,-0.98771,2023,6,12,14,13,52,381
0.04310,3.09750,-4.51500,0.00000,-0.01049,0.01488,-0.98674,2023,6,12,14,13,52,392
0.04320,3.22000,-4.56750,0.00000,-0.00891,0.01476,-0.98686,2023,6,12,14,13,52,403
0.04330,2.95750,-4.46250,0.00000,-0.01025,0.01427,-0.98527,2023,6,12,14,13,52,414
0.04340,3.16750,-4.67250,0.00000,-0.01074,0.01110,-0.98674,2023,6,12,14,13,52,425
0.04350,2.88750,-4.55000,0.00000,-0.01025,0.01537,-0.98661,2023,6,12,14,13,52,436
0.04360,3.06250,-4.49750,0.00000,-0.00830,0.01635,-0.98625,2023,6,12,14,13,52,447
0.04370,3.06250,-4.74250,0.00000,-0.00891,0.01440,-0.98869,2023,6,12,14,13,52,458
0.04380,3.13250,-4.48000,0.00000,-0.00842,0.01525,-0.98564,2023,6,12,14,13,52,469
0.04390,2.99250,-4.55000,0.00000,-0.01000,0.01305,-0.98796,2023,6,12,14,13,52,481
0.04400,2.95750,-4.37500,0.00000,-0.01147,0.01513,-0.98735,2023,6,12,14,13,52,492
0.04410,3.09750,-4.60250,0.00000,-0.00878,0.01574,-0.98588,2023,6,12,14,13,52,503
0.04420,2.92250,-4.46250,0.00000,-0.01074,0.01476,-0.98747,2023,6,12,14,13,52,514
0.04430,3.22000,-4.53250,0.00000,-0.00927,0.01318,-0.98576,2023,6,12,14,13,52,525
0.04440,3.08000,-4.65500,0.00000,-0.00988,0.01330,-0.98527,2023,6,12,14,13,52,536
0.04450,3.11500,-4.74250,0.00000,-0.00793,0.01488,-0.98783,2023,6,12,14,13,52,547
0.04460,2.81750,-4.44500,0.00000,-0.00878,0.01427,-0.98661,2023,6,12,14,13,52,558
0.04470,3.11500,-4.58500,0.00000,-0.00781,0.01452,-0.98759,2023,6,12,14,13,52,569
0.04480,3.08000,-4.74250,0.00000,-0.00903,0.01537,-0.98539,2023,6,12,14,13,52,581
0.04490,2.97500,-4.72500,0.00000,-0.00952,0.01464,-0.98613,2023,6,12,14,13,52,592
0.04500,2.97500,-4.46250,0.00000,-0.01086,0.01305,-0.98747,2023,6,12,14,13,52,603
0.04510,2.88750,-4.51500,0.00000,-0.00988,0.01549,-0.98649,2023,6,12,14,13,52,614
0.04520,2.81750,-4.41000,0.00000,-0.00866,0.01732,-0.98735,2023,6,12,14,13,52,625
0.04530,2.99250,-4.58500,0.00000,-0.00866,0.01549,-0.98796,2023,6,12,14,13,52,636
0.04540,3.04500,-4.74250,0.00000,-0.01000,0.01293,-0.98491,2023,6,12,14,13,52,647
0.04550,2.97500,-4.48000,0.00000,-0.01000,0.01623,-0.98881,2023,6,12,14,13,52,658
0.04560,3.13250,-4.65500,0.00000,-0.00891,0.01415,-0.98661,2023,6,12,14,13,52,669
0.04570,2.85250,-4.41000,0.00000,-0.00878,0.01342,-0.98649,2023,6,12,14,13,52,681
0.04580,3.11500,-4.55000,0.00000,-0.00793,0.01366,-0.98808,2023,6,12,14,13,52,692
0.04590,2.97500,-4.62000,0.00000,-0.00830,0.01415,-0.98881,2023,6,12,14,13,52,703
0.04600,2.99250,-4.32250,0.00000,-0.01049,0.01379,-0.98600,2023,6,12,14,13,52,714
0.04610,3.02750,-4.56750,0.00000,-0.01000,0.01562,-0.98991,2023,6,12,14,13,52,725
0.04620,3.08000,-4.74250,0.00000,-0.00781,0.01476,-0.98979,2023,6,12,14,13,52,736
0.04630,3.20250,-4.37500,0.00000,-0.00878,0.01427,-0.98808,2023,6,12,14,13,52,747
0.04640,3.08000,-4.69000,0.00000,-0.00915,0.01476,-0.99064,2023,6,12,14,13,52,758
0.04650,2.90500,-4.56750,0.00000,-0.00988,0.01513,-0.98576,2023,6,12,14,13,52,769
0.04660,2.99250,-4.63750,0.00000,-0.00927,0.01513,-0.98954,2023,6,12,14,13,52,781
0.04670,2.81750,-4.51500,0.00000,-0.01086,0.01366,-0.98576,2023,6,12,14,13,52,792
0.04680,2.97500,-4.62000,0.00000,-0.00817,0.01549,-0.98698,2023,6,12,14,13,52,803
0.04690,3.08000,-4.62000,0.00000,-0.00927,0.01354,-0.98686,2023,6,12,14,13,52,814
0.04700,2.94000,-4.53250,0.00000,-0.00964,0.01354,-0.98710,2023,6,12,14,13,52,825
0.04710,3.01000,-4.48000,0.00000,-0.00988,0.01403,-0.98808,2023,6,12,14,13,52,836
0.04720,2.95750,-4.63750,0.00000,-0.00903,0.01537,-0.98674,2023,6,12,14,13,52,847
0.04730,2.94000,-4.49750,0.00000,-0.01074,0.01440,-0.98979,2023,6,12,14,13,52,858
0.04740,2.99250,-4.39250,0.00000,-0.01061,0.01427,-0.98539,2023,6,12,14,13,52,869
0.04750,3.13250,-4.63750,0.00000,-0.00915,0.01415,-0.98869,2023,6,12,14,13,52,881
0.04760,2.97500,-4.46250,0.00000,-0.01025,0.01549,-0.98686,2023,6,12,14,13,52,892
0.04770,2.74750,-4.44500,0.00000,-0.01049,0.01440,-0.98478,2023,6,12,14,13,52,903
0.04780,2.90500,-4.27000,0.00000,-0.01013,0.01647,-0.98722,2023,6,12,14,13,52,914
0.04790,3.13250,-4.53250,0.00000,-0.00732,0.01586,-0.98613,2023,6,12,14,13,52,925
0.04800,3.08000,-4.37500,0.00000,-0.00817,0.01574,-0.98661,2023,6,12,14,13,52,936
0.04810,3.04500,-4.70750,0.00000,-0.00939,0.01476,-0.98869,2023,6,12,14,13,52,947
0.04820,3.09750,-4.84750,0.00000,-0.01049,0.01354,-0.98771,2023,6,12,14,13,52,958
0.04830,3.06250,-4.55000,0.00000,-0.00805,0.01476,-0.98515,2023,6,12,14,13,52,969
0.04840,2.94000,-4.42750,0.00000,-0.00952,0.01488,-0.98698,2023,6,12,14,13,52,981
0.04850,3.09750,-4.63750,0.00000,-0.01061,0.01574,-0.98747,2023,6,12,14,13,52,992
0.04860,2.99250,-4.39250,0.00000,-0.00952,0.01610,-0.98808,2023,6,12,14,13,52,3
0.04870,2.95750,-4.63750,0.00000,-0.00805,0.01415,-0.98698,2023,6,12,14,13,52,14
0.04880,3.09750,-4.56750,0.00000,-0.00988,0.01452,-0.98735,2023,6,12,14,13,52,25
0.04890,2.97500,-4.60250,0.00000,-0.01147,0.01549,-0.98588,2023,6,12,14,13,52,36
0.04900,3.01000,-4.51500,0.00000,-0.01000,0.01488,-0.98893,2023,6,12,14,13,52,47
0.04910,2.94000,-4.62000,0.00000,-0.00915,0.01330,-0.98796,2023,6,12,14,13,52,58
0.04920,2.90500,-4.63750,0.00000,-0.00988,0.01415,-0.98722,2023,6,12,14,13,52,69
0.04930,3.09750,-4.58500,0.00000,-0.00866,0.01562,-0.98393,2023,6,12,14,13,52,81
0.04940,2.90500,-4.62000,0.00000,-0.00927,0.01415,-0.98576,2023,6,12,14,13,52,92
0.04950,2.95750,-4.46250,0.00000,-0.00830,0.01513,-0.98649,2023,6,12,14,13,52,103
0.04960,2.87000,-4.72500,0.00000,-0.01037,0.01379,-0.98625,2023,6,12,14,13,52,114
0.04970,3.13250,-4.62000,0.00000,-0.00903,0.01598,-0.99113,2023,6,12,14,13,52,125
0.04980,3.08000,-4.69000,0.00000,-0.01110,0.01488,-0.98747,2023,6,12,14,13,52,136
0.04990,3.09750,-4.51500,0.00000,-0.00903,0.01330,-0.99027,2023,6,12,14,13,52,147
0.05000,3.06250,-4.72500,0.00000,-0.00964,0.01598,-0.98991,2023,6,12,14,13,52,158
0.05010,3.08000,-4.62000,0.00000,-0.00964,0.01501,-0.99076,2023,6,12,14,13,52,169
0.05020,2.85250,-4.39250,0.00000,-0.00976,0.01440,-0.98588,2023,6,12,14,13,52,181
0.05030,3.20250,-4.53250,0.00000,-0.00964,0.01366,-0.98759,2023,6,12,14,13,52,192
0.05040,2.99250,-4.63750,0.00000,-0.01000,0.01488,-0.98747,2023,6,12,14,13,52,203
0.05050,3.02750,-4.48000,0.00000,-0.01074,0.01196,-0.98991,2023,6,12,14,13,52,214
0.05060,3.04500,-4.60250,0.00000,-0.00817,0.01354,-0.98564,2023,6,12,14,13,52,225
0.05070,2.97500,-4.63750,0.00000,-0.01025,0.01610,-0.98869,2023,6,12,14,13,52,236
0.05080,3.18500,-4.81250,0.00000,-0.00830,0.01537,-0.98722,2023,6,12,14,13,52,247
0.05090,3.13250,-4.53250,0.00000,-0.00866,0.01610,-0.98796,2023,6,12,14,13,52,258
0.05100,2.90500,-4.62000,0.00000,-0.01000,0.01440,-0.99003,2023,6,12,14,13,52,269
0.05110,3.11500,-4.81250,0.00000,-0.00915,0.01403,-0.98783,2023,6,12,14,13,52,281
0.05120,3.13250,-4.77750,0.00000,-0.00988,0.01379,-0.98759,2023,6,12,14,13,52,292
0.05130,3.04500,-4.53250,0.00000,-0.01122,0.01330,-0.98735,2023,6,12,14,13,53,3
0.05140,3.01000,-4.63750,0.00000,-0.00878,0.01476,-0.98735,2023,6,12,14,13,53,14
0.05150,3.27250,-4.76000,0.00000,-0.00927,0.01574,-0.98832,2023,6,12,14,13,53,25
0.05160,3.13250,-4.62000,0.00000,-0.00939,0.01427,-0.98783,2023,6,12,14,13,53,36
0.05170,2.85250,-4.48000,0.00000,-0.00830,0.01562,-0.98796,2023,6,12,14,13,53,47
0.05180,3.32500,-4.58500,0.00000,-0.01098,0.01537,-0.98991,2023,6,12,14,13,53,58
0.05190,3.06250,-4.63750,0.00000,-0.00988,0.01293,-0.98820,2023,6,12,14,13,53,69
0.05200,3.18500,-4.39250,0.00000,-0.00708,0.01610,-0.99040,2023,6,12,14,13,53,81
0.05210,3.01000,-4.60250,0.00000,-0.00976,0.01427,-0.98881,2023,6,12,14,13,53,92
0.05220,3.04500,-4.46250,0.00000,-0.00964,0.01562,-0.98661,2023,6,12,14,13,53,103
0.05230,3.11500,-4.70750,0.00000,-0.00830,0.01501,-0.98844,2023,6,12,14,13,53,114
0.05240,3.06250,-4.35750,0.00000,-0.00927,0.01427,-0.98942,2023,6,12,14,13,53,125
0.05250,2.97500,-4.58500,0.00000,-0.01159,0.01586,-0.98954,2023,6,12,14,13,53,136
0.05260,2.88750,-4.60250,0.00000,-0.00830,0.01549,-0.98979,2023,6,12,14,13,53,147
0.05270,3.08000,-4.34000,0.00000,-0.00891,0.01452,-0.98661,2023,6,12,14,13,53,158
0.05280,3.06250,-4.69000,0.00000,-0.01232,0.01379,-0.99052,2023,6,12,14,13,53,169
0.05290,3.13250,-4.65500,0.00000,-0.01232,0.01525,-0.98796,2023,6,12,14,13,53,181
0.05300,3.11500,-4.55000,0.00000,-0.01086,0.01464,-0.98735,2023,6,12,14,13,53,192
0.05310,3.09750,-4.62000,0.00000,-0.00988,0.01525,-0.98515,2023,6,12,14,13,53,203
0.05320,2.97500,-4.65500,0.00000,-0.00976,0.01501,-0.98588,2023,6,12,14,13,53,214
0.05330,2.94000,-4.55000,0.00000,-0.00927,0.01513,-0.98771,2023,6,12,14,13,53,225
0.05340,2.94000,-4.67250,0.00000,-0.01025,0.01549,-0.98942,2023,6,12,14,13,53,236
0.05350,3.06250,-4.72500,0.00000,-0.00915,0.01720,-0.98869,2023,6,12,14,13,53,247
0.05360,3.01000,-4.56750,0.00000,-0.00952,0.01513,-0.99003,2023,6,12,14,13,53,258
0.05370,2.88750,-4.56750,0.00000,-0.00781,0.01293,-0.99149,2023,6,12,14,13,53,269
0.05380,2.94000,-4.48000,0.00000,-0.00866,0.01501,-0.99088,2023,6,12,14,13,53,281
0.05390,3.04500,-4.48000,0.00000,-0.00891,0.01671,-0.99064,2023,6,12,14,13,53,292
0.05400,2.95750,-4.58500,0.00000,-0.01122,0.01574,-0.98722,2023,6,12,14,13,53,303
0.05410,2.94000,-4.51500,0.00000,-0.00793,0.01403,-0.98881,2023,6,12,14,13,53,314
0.05420,2.94000,-4.46250,0.00000,-0.00903,0.01403,-0.99040,2023,6,12,14,13,53,325
0.05430,3.09750,-4.62000,0.00000,-0.00891,0.01366,-0.98698,2023,6,12,14,13,53,336
0.05440,3.09750,-4.77750,0.00000,-0.01013,0.01488,-0.98686,2023,6,12,14,13,53,347
0.05450,3.02750,-4.91750,0.00000,-0.01061,0.01574,-0.98759,2023,6,12,14,13,53,358
0.05460,3.01000,-4.53250,0.00000,-0.01159,0.01635,-0.98893,2023,6,12,14,13,53,369
0.05470,3.04500,-4.65500,0.00000,-0.00793,0.01488,-0.98527,2023,6,12,14,13,53,381
0.05480,2.85250,-4.49750,0.00000,-0.00939,0.01488,-0.98661,2023,6,12,14,13,53,392
0.05490,2.99250,-4.53250,0.00000,-0.00976,0.01610,-0.99027,2023,6,12,14,13,53,403
0.05500,3.18500,-4.32250,0.00000,-0.00952,0.01598,-0.98881,2023,6,12,14,13,53,414
0.05510,3.15000,-4.62000,0.00000,-0.01037,0.01549,-0.99088,2023,6,12,14,13,53,425
0.05520,2.95750,-4.55000,0.00000,-0.00964,0.01525,-0.98869,2023,6,12,14,13,53,436
0.05530,3.08000,-4.48000,0.00000,-0.00976,0.01354,-0.98857,2023,6,12,14,13,53,447
0.05540,3.16750,-4.77750,0.00000,-0.00927,0.01379,-0.98832,2023,6,12,14,13,53,458
0.05550,3.13250,-4.62000,0.00000,-0.01098,0.01586,-0.98783,2023,6,12,14,13,53,469
0.05560,3.09750,-4.65500,0.00000,-0.00891,0.01488,-0.99027,2023,6,12,14,13,53,481
0.05570,3.04500,-4.67250,0.00000,-0.00952,0.01903,-0.98625,2023,6,12,14,13,53,492
0.05580,2.95750,-4.58500,0.00000,-0.01110,0.01488,-0.99125,2023,6,12,14,13,53,503
0.05590,2.94000,-4.49750,0.00000,-0.01013,0.01354,-0.98735,2023,6,12,14,13,53,514
0.05600,2.92250,-4.55000,0.00000,-0.00915,0.01501,-0.98881,2023,6,12,14,13,53,525
0.05610,2.71250,-4.56750,0.00000,-0.00927,0.01537,-0.98735,2023,6,12,14,13,53,536
0.05620,3.04500,-4.56750,0.00000,-0.00903,0.01427,-0.98881,2023,6,12,14,13,53,547
0.05630,3.27250,-4.81250,0.00000,-0.00939,0.01623,-0.98295,2023,6,12,14,13,53,558
0.05640,3.02750,-4.58500,0.00000,-0.00988,0.01208,-0.99137,2023,6,12,14,13,53,569
0.05650,3.16750,-4.55000,0.00000,-0.00805,0.01586,-0.98478,2023,6,12,14,13,53,581
0.05660,3.16750,-4.79500,0.00000,-0.00988,0.01476,-0.98869,2023,6,12,14,13,53,592
0.05670,3.11500,-4.48000,0.00000,-0.01074,0.01452,-0.98905,2023,6,12,14,13,53,603
0.05680,3.06250,-4.55000,0.00000,-0.00988,0.01366,-0.98735,2023,6,12,14,13,53,614
0.05690,2.83500,-4.51500,0.00000,-0.00878,0.01403,-0.98283,2023,6,12,14,13,53,625
0.05700,3.43000,-4.95250,0.00000,-0.01013,0.01513,-0.99442,2023,6,12,14,13,53,636
0.05710,2.43250,-4.20000,0.00000,-0.00817,0.01501,-0.98320,2023,6,12,14,13,53,647
0.05720,3.58750,-4.83000,0.00000,-0.01025,0.01342,-0.99174,2023,6,12,14,13,53,658
0.05730,2.38000,-4.41000,0.00000,-0.01098,0.01537,-0.98405,2023,6,12,14,13,53,669
0.05740,3.60500,-4.72500,0.00000,-0.00964,0.01476,-0.99357,2023,6,12,14,13,53,681
0.05750,2.62500,-4.18250,0.00000,-0.01171,0.01537,-0.98454,2023,6,12,14,13,53,692
0.05760,3.23750,-4.79500,0.00000,-0.00915,0.01671,-0.98783,2023,6,12,14,13,53,703
0.05770,2.60750,-4.53250,0.00000,-0.01037,0.01513,-0.98564,2023,6,12,14,13,53,714
0.05780,3.27250,-4.83000,0.00000,-0.00903,0.01610,-0.99210,2023,6,12,14,13,53,725
0.05790,2.55500,-4.46250,0.00000,-0.00793,0.01305,-0.98600,2023,6,12,14,13,53,736
0.05800,3.15000,-4.74250,0.00000,-0.00878,0.01501,-0.99271,2023,6,12,14,13,53,747
0.05810,2.59000,-4.37500,0.00000,-0.00891,0.01610,-0.98625,2023,6,12,14,13,53,758
0.05820,3.32500,-4.76000,0.00000,-0.00830,0.01366,-0.99027,2023,6,12,14,13,53,769
0.05830,2.76500,-4.62000,0.00000,-0.01122,0.01635,-0.98893,2023,6,12,14,13,53,781
0.05840,3.34250,-4.81250,0.00000,-0.00976,0.01488,-0.98796,2023,6,12,14,13,53,792
0.05850,2.87000,-4.37500,0.00000,-0.00976,0.01440,-0.98783,2023,6,12,14,13,53,803
0.05860,3.15000,-4.77750,0.00000,-0.00854,0.01476,-0.98722,2023,6,12,14,13,53,814
0.05870,2.83500,-4.44500,0.00000,-0.01013,0.01732,-0.99174,2023,6,12,14,13,53,825
0.05880,3.13250,-4.53250,0.00000,-0.01049,0.01598,-0.98844,2023,6,12,14,13,53,836
0.05890,2.95750,-4.58500,0.00000,-0.01000,0.01452,-0.98625,2023,6,12,14,13,53,847
0.05900,3.11500,-4.63750,0.00000,-0.00939,0.01305,-0.98698,2023,6,12,14,13,53,858
0.05910,3.04500,-4.42750,0.00000,-0.01037,0.01476,-0.99027,2023,6,12,14,13,53,869
0.05920,2.95750,-4.39250,0.00000,-0.00988,0.01525,-0.98808,2023,6,12,14,13,53,881
0.05930,2.94000,-4.62000,0.00000,-0.00817,0.01574,-0.98759,2023,6,12,14,13,53,892
0.05940,3.04500,-4.55000,0.00000,-0.00939,0.01635,-0.98674,2023,6,12,14,13,53,903
0.05950,3.06250,-4.37500,0.00000,-0.00817,0.01452,-0.98759,2023,6,12,14,13,53,914
0.05960,2.85250,-4.42750,0.00000,-0.00903,0.01464,-0.98783,2023,6,12,14,13,53,925
0.05970,2.90500,-4.60250,0.00000,-0.01171,0.01501,-0.98771,2023,6,12,14,13,53,936
0.05980,2.90500,-4.48000,0.00000,-0.00976,0.01452,-0.98918,2023,6,12,14,13,53,947
0.05990,2.87000,-4.58500,0.00000,-0.01013,0.01586,-0.98844,2023,6,12,14,13,53,958
0.06000,3.23750,-4.67250,0.00000,-0.01000,0.01440,-0.98588,2023,6,12,14,13,53,969
0.06010,2.92250,-4.60250,0.00000,-0.00817,0.01257,-0.98905,2023,6,12,14,13,54,1
0.06020,3.20250,-4.58500,0.00000,-0.00817,0.01440,-0.98979,2023,6,12,14,13,54,12
0.06030,3.08000,-4.56750,0.00000,-0.00915,0.01525,-0.98881,2023,6,12,14,13,54,23
0.06040,3.11500,-4.46250,0.00000,-0.01135,0.01330,-0.98759,2023,6,12,14,13,54,34
0.06050,3.04500,-4.62000,0.00000,-0.01013,0.01562,-0.98686,2023,6,12,14,13,54,45
0.06060,2.88750,-4.63750,0.00000,-0.00927,0.01452,-0.98881,2023,6,12,14,13,54,56
0.06070,2.92250,-4.55000,0.00000,-0.00817,0.01537,-0.98747,2023,6,12,14,13,54,67
0.06080,2.99250,-4.48000,0.00000,-0.00927,0.01562,-0.99088,2023,6,12,14,13,54,78
0.06090,2.97500,-4.65500,0.00000,-0.00903,0.01586,-0.98649,2023,6,12,14,13,54,89
0.06100,2.88750,-4.81250,0.00000,-0.00903,0.01574,-0.98625,2023,6,12,14,13,54,101
0.06110,2.92250,-4.28750,0.00000,-0.00915,0.01379,-0.98600,2023,6,12,14,13,54,112
0.06120,2.88750,-4.58500,0.00000,-0.00817,0.01696,-0.98747,2023,6,12,14,13,54,123
0.06130,2.80000,-4.67250,0.00000,-0.00952,0.01452,-0.98832,2023,6,12,14,13,54,134
0.06140,3.18500,-4.55000,0.00000,-0.01037,0.01257,-0.98808,2023,6,12,14,13,54,145
0.06150,2.88750,-4.37500,0.00000,-0.00769,0.01415,-0.98759,2023,6,12,14,13,54,156
0.06160,2.95750,-4.86500,0.00000,-0.00939,0.01610,-0.98930,2023,6,12,14,13,54,167
0.06170,2.83500,-4.46250,0.00000,-0.00952,0.01330,-0.98796,2023,6,12,14,13,54,178
0.06180,3.02750,-4.51500,0.00000,-0.00830,0.01452,-0.98686,2023,6,12,14,13,54,189
0.06190,2.94000,-4.60250,0.00000,-0.01037,0.01257,-0.98905,2023,6,12,14,13,54,201
0.06200,2.87000,-4.58500,0.00000,-0.00927,0.01440,-0.98747,2023,6,12,14,13,54,212
0.06210,2.92250,-4.63750,0.00000,-0.01000,0.01427,-0.98698,2023,6,12,14,13,54,223
0.06220,3.20250,-4.53250,0.00000,-0.01000,0.01488,-0.98881,2023,6,12,14,13,54,234
0.06230,3.08000,-4.56750,0.00000,-0.01025,0.01330,-0.98600,2023,6,12,14,13,54,245
0.06240,3.16750,-4.69000,0.00000,-0.00988,0.01598,-0.98844,2023,6,12,14,13,54,256
0.06250,3.02750,-4.58500,0.00000,0.02806,-0.09675,-0.93574,2023,6,12,14,13,54,267
0.06260,5.82750,-6.28250,0.00000,-0.06076,-0.06966,-1.11776,2023,6,12,14,13,54,278
0.06270,-2.64250,-1.82000,0.00000,-0.10382,0.03672,-1.13899,2023,6,12,14,13,54,289
0.06280,2.50250,-4.16500,0.00000,-0.01574,-0.02184,-1.12850,2023,6,12,14,13,54,301
0.06290,11.07750,-6.63250,0.00000,-0.03733,-0.08552,-0.98259,2023,6,12,14,13,54,312
0.06300,3.65750,-3.55250,0.00000,-0.08747,-0.09626,-0.70955,2023,6,12,14,13,54,323
0.06310,16.36250,-5.26750,0.00000,-0.01696,-0.03001,-0.54351,2023,6,12,14,13,54,334
0.06320,-12.67000,2.13500,0.00000,-0.03294,0.20337,-0.99650,2023,6,12,14,13,54,345
0.06330,11.77750,-7.50750,0.00000,0.04819,0.10516,-0.88962,2023,6,12,14,13,54,356
0.06340,-0.98000,-2.50250,0.00000,0.05368,0.19740,-1.21207,2023,6,12,14,13,54,367
0.06350,16.20500,-9.53750,0.00000,-0.00183,0.13213,-1.05347,2023,6,12,14,13,54,378
0.06360,5.65250,-4.83000,0.00000,-0.00634,0.12456,-1.03651,2023,6,12,14,13,54,389
0.06370,1.10250,-3.65750,0.00000,-0.00464,-0.00793,-0.99174,2023,6,12,14,13,54,401
0.06380,0.61250,-3.18500,0.00000,-0.00403,0.00464,-0.96343,2023,6,12,14,13,54,412
0.06390,3.92000,-5.02250,0.00000,-0.01452,0.00451,-1.00138,2023,6,12,14,13,54,423
0.06400,2.97500,-4.56750,0.00000,-0.00817,0.01903,-0.97990,2023,6,12,14,13,54,434
0.06410,2.71250,-4.34000,0.00000,-0.01208,0.00891,-0.99503,2023,6,12,14,13,54,445
0.06420,2.66000,-4.48000,0.00000,-0.00817,0.01757,-0.98222,2023,6,12,14,13,54,456
0.06430,2.95750,-4.51500,0.00000,-0.01074,0.00817,-0.99332,2023,6,12,14,13,54,467
0.06440,3.30750,-4.72500,0.00000,-0.00952,0.01318,-0.98588,2023,6,12,14,13,54,478
0.06450,3.02750,-4.67250,0.00000,-0.01025,0.01196,-0.98820,2023,6,12,14,13,54,489
0.06460,2.97500,-4.55000,0.00000,-0.00830,0.01391,-0.98344,2023,6,12,14,13,54,501
0.06470,2.87000,-4.51500,0.00000,-0.01220,0.01232,-0.98771,2023,6,12,14,13,54,512
0.06480,3.06250,-4.62000,0.00000,-0.01000,0.01342,-0.98771,2023,6,12,14,13,54,523
0.06490,3.04500,-4.39250,0.00000,-0.00903,0.01122,-0.98844,2023,6,12,14,13,54,534
0.06500,3.02750,-4.32250,0.00000,-0.00964,0.01269,-0.98710,2023,6,12,14,13,54,545
0.06510,2.92250,-4.53250,0.00000,-0.01061,0.01452,-0.98735,2023,6,12,14,13,54,556
0.06520,3.02750,-4.49750,0.00000,-0.00903,0.01342,-0.98454,2023,6,12,14,13,54,567
0.06530,3.11500,-4.69000,0.00000,-0.00988,0.01488,-0.98576,2023,6,12,14,13,54,578
0.06540,3.09750,-5.00500,0.00000,-0.01013,0.01415,-0.99003,2023,6,12,14,13,54,589
0.06550,2.87000,-4.44500,0.00000,-0.00793,0.01440,-0.99064,2023,6,12,14,13,54,601
0.06560,2.64250,-4.32250,0.00000,0.10309,-0.26608,-0.85705,2023,6,12,14,13,54,612
0.06570,4.20000,-5.65250,0.00000,0.00415,-0.16860,-1.17510,2023,6,12,14,13,54,623
0.06580,22.75000,-10.60500,0.00000,-0.02391,-0.09540,-1.40080,2023,6,12,14,13,54,634
0.06590,-4.18250,-2.25750,0.00000,0.05612,-0.27584,-0.73932,2023,6,12,14,13,54,645
0.06600,-11.02500,-3.16750,0.00000,-0.21362,0.12956,-1.50926,2023,6,12,14,13,54,656
0.06610,16.18750,-3.90250,0.00000,0.10065,0.01745,-1.28600,2023,6,12,14,13,54,667
0.06620,3.95500,-4.02500,0.00000,-0.01598,0.00378,-0.53509,2023,6,12,14,13,54,678
0.06630,6.07250,-0.54250,0.00000,-0.00842,0.23607,-1.84867,2023,6,12,14,13,54,689
0.06640,7.08750,2.43250,0.00000,-0.20228,-0.01684,-1.22878,2023,6,12,14,13,54,701
0.06650,9.55500,-1.10250,0.00000,0.08503,-0.03379,-1.13692,2023,6,12,14,13,54,712
0.06660,-10.16750,-8.33000,0.00000,0.09736,-0.11724,-0.65782,2023,6,12,14,13,54,723
0.06670,4.84750,-9.94000,0.00000,-0.04172,0.02196,-1.77815,2023,6,12,14,13,54,734
0.06680,-20.54500,-1.90750,0.00000,0.13444,0.06442,-1.16644,2023,6,12,14,13,54,745
0.06690,30.03000,-12.28500,0.00000,-0.18629,0.60256,-3.17627,2023,6,12,14,13,54,756
0.06700,27.24750,-11.60250,0.00000,-0.33587,0.41492,-1.68238,2023,6,12,14,13,54,767
0.06710,-13.96500,3.44750,0.00000,-0.14750,0.08784,-0.92891,2023,6,12,14,13,54,778
0.06720,12.79250,-6.21250,0.00000,0.16555,0.01366,-0.96002,2023,6,12,14,13,54,789
0.06730,8.57500,-4.62000,0.00000,0.07283,0.22411,-0.97685,2023,6,12,14,13,54,801
0.06740,-10.39500,-5.19750,0.00000,0.10065,0.21350,-0.97624,2023,6,12,14,13,54,812
0.06750,-12.18000,-3.36000,0.00000,-0.07039,0.30927,-1.44594,2023,6,12,14,13,54,823
0.06760,17.27250,-8.52250,0.00000,-0.03270,0.27328,-1.36786,2023,6,12,14,13,54,834
0.06770,16.04750,-8.87250,0.00000,0.08406,0.10150,-0.84412,2023,6,12,14,13,54,845
0.06780,-0.78750,-4.23500,0.00000,-0.10260,-0.05368,-0.70711,2023,6,12,14,13,54,856
0.06790,2.71250,-5.11000,0.00000,-0.02050,0.21313,-1.16437,2023,6,12,14,13,54,867
0.06800,-7.12250,0.59500,0.00000,-0.02379,0.03489,-0.91744,2023,6,12,14,13,54,878
0.06810,5.74000,-5.70500,0.00000,-0.02818,-0.03038,-1.00699,2023,6,12,14,13,54,889
0.06820,3.65750,-4.95250,0.00000,-0.00561,0.02574,-0.97136,2023,6,12,14,13,54,901
0.06830,4.27000,-5.11000,0.00000,-0.01635,0.00073,-1.00321,2023,6,12,14,13,54,912
0.06840,2.55500,-4.21750,0.00000,-0.00720,0.01952,-0.97588,2023,6,12,14,13,54,923
0.06850,2.92250,-4.56750,0.00000,-0.01269,0.00744,-0.99210,2023,6,12,14,13,54,934
0.06860,3.20250,-4.60250,0.00000,-0.00915,0.01354,-0.98295,2023,6,12,14,13,54,945
0.06870,3.22000,-4.58500,0.00000,-0.01110,0.00854,-0.99027,2023,6,12,14,13,54,956
0.06880,2.95750,-4.53250,0.00000,-0.01013,0.01305,-0.98222,2023,6,12,14,13,54,967
0.06890,2.78250,-4.53250,0.00000,-0.01061,0.01147,-0.98796,2023,6,12,14,13,54,978
0.06900,3.34250,-4.84750,0.00000,-0.01037,0.01403,-0.98576,2023,6,12,14,13,55,9
0.06910,2.85250,-4.62000,0.00000,-0.01122,0.01122,-0.98430,2023,6,12,14,13,55,21
0.06920,3.36000,-4.56750,0.00000,-0.01013,0.01257,-0.98576,2023,6,12,14,13,55,32
0.06930,2.97500,-4.44500,0.00000,-0.01025,0.01244,-0.98686,2023,6,12,14,13,55,43
0.06940,3.15000,-4.65500,0.00000,-0.00988,0.00939,-0.98808,2023,6,12,14,13,55,54
0.06950,2.99250,-4.49750,0.00000,-0.01122,0.01074,-0.98796,2023,6,12,14,13,55,65
0.06960,2.90500,-4.69000,0.00000,-0.01086,0.01147,-0.98722,2023,6,12,14,13,55,76
0.06970,2.99250,-4.58500,0.00000,-0.00878,0.01159,-0.98722,2023,6,12,14,13,55,87
0.06980,2.95750,-4.69000,0.00000,-0.01098,0.01025,-0.98698,2023,6,12,14,13,55,98
0.06990,3.01000,-4.72500,0.00000,-0.00878,0.01025,-0.98600,2023,6,12,14,13,55,109
0.07000,2.94000,-4.48000,0.00000,-0.00939,0.01171,-0.98649,2023,6,12,14,13,55,121
0.07010,3.08000,-4.51500,0.00000,-0.00915,0.01183,-0.98649,2023,6,12,14,13,55,132
0.07020,2.99250,-4.83000,0.00000,-0.01098,0.01257,-0.98576,2023,6,12,14,13,55,143
0.07030,3.02750,-4.55000,0.00000,-0.01049,0.01025,-0.98527,2023,6,12,14,13,55,154
0.07040,3.01000,-4.70750,0.00000,-0.00939,0.01257,-0.98515,2023,6,12,14,13,55,165
0.07050,2.90500,-4.49750,0.00000,-0.00842,0.01183,-0.98613,2023,6,12,14,13,55,176
0.07060,2.97500,-4.44500,0.00000,-0.01135,0.01086,-0.98747,2023,6,12,14,13,55,187
0.07070,3.02750,-4.53250,0.00000,-0.00866,0.01086,-0.98942,2023,6,12,14,13,55,198
0.07080,3.01000,-4.60250,0.00000,-0.01171,0.01171,-0.98637,2023,6,12,14,13,55,209
0.07090,3.04500,-4.53250,0.00000,-0.01025,0.01074,-0.98478,2023,6,12,14,13,55,221
0.07100,2.97500,-4.56750,0.00000,-0.01220,0.01171,-0.98649,2023,6,12,14,13,55,232
0.07110,2.80000,-4.42750,0.00000,-0.01159,0.01086,-0.98674,2023,6,12,14,13,55,243
0.07120,3.15000,-4.67250,0.00000,-0.00878,0.01122,-0.98527,2023,6,12,14,13,55,254
0.07130,2.95750,-4.55000,0.00000,-0.01061,0.01147,-0.98308,2023,6,12,14,13,55,265
0.07140,3.01000,-4.37500,0.00000,-0.00915,0.01244,-0.98759,2023,6,12,14,13,55,276
0.07150,2.97500,-4.46250,0.00000,-0.01196,0.01037,-0.98771,2023,6,12,14,13,55,287
0.07160,2.85250,-4.69000,0.00000,-0.01135,0.01135,-0.98649,2023,6,12,14,13,55,298
0.07170,2.87000,-4.63750,0.00000,-0.00976,0.01391,-0.98649,2023,6,12,14,13,55,309
0.07180,2.92250,-4.37500,0.00000,-0.01074,0.01159,-0.98661,2023,6,12,14,13,55,321
0.07190,2.99250,-4.55000,0.00000,-0.01061,0.01171,-0.98576,2023,6,12,14,13,55,332
0.07200,3.06250,-4.67250,0.00000,-0.01318,0.01305,-0.98649,2023,6,12,14,13,55,343
0.07210,3.22000,-4.79500,0.00000,-0.01013,0.01208,-0.98722,2023,6,12,14,13,55,354
0.07220,3.02750,-4.58500,0.00000,-0.00939,0.01074,-0.98649,2023,6,12,14,13,55,365
0.07230,3.11500,-4.53250,0.00000,-0.01086,0.01110,-0.98466,2023,6,12,14,13,55,376
0.07240,3.02750,-4.46250,0.00000,-0.00671,0.01122,-0.98722,2023,6,12,14,13,55,387
0.07250,3.11500,-4.69000,0.00000,-0.01061,0.01110,-0.98820,2023,6,12,14,13,55,398
0.07260,3.06250,-4.55000,0.00000,-0.01061,0.01208,-0.98771,2023,6,12,14,13,55,409
0.07270,2.83500,-4.21750,0.00000,-0.01269,0.01098,-0.98576,2023,6,12,14,13,55,421
0.07280,2.88750,-4.62000,0.00000,-0.00964,0.01061,-0.98869,2023,6,12,14,13,55,432
0.07290,2.97500,-4.72500,0.00000,-0.01013,0.01086,-0.98393,2023,6,12,14,13,55,443
0.07300,2.85250,-4.69000,0.00000,-0.01013,0.01196,-0.98857,2023,6,12,14,13,55,454
0.07310,3.02750,-4.63750,0.00000,-0.00891,0.01220,-0.98478,2023,6,12,14,13,55,465
0.07320,3.08000,-4.88250,0.00000,-0.00964,0.01220,-0.98698,2023,6,12,14,13,55,476
0.07330,2.90500,-4.62000,0.00000,-0.01122,0.01415,-0.99003,2023,6,12,14,13,55,487
0.07340,3.06250,-4.51500,0.00000,-0.01086,0.01061,-0.98796,2023,6,12,14,13,55,498
0.07350,2.85250,-4.56750,0.00000,-0.00927,0.01000,-0.98881,2023,6,12,14,13,55,509
0.07360,3.13250,-4.53250,0.00000,-0.00964,0.01159,-0.98832,2023,6,12,14,13,55,521
0.07370,2.83500,-4.37500,0.00000,-0.01000,0.01110,-0.98491,2023,6,12,14,13,55,532
0.07380,2.97500,-4.53250,0.00000,-0.01122,0.01196,-0.98649,2023,6,12,14,13,55,543
0.07390,2.94000,-4.53250,0.00000,-0.01135,0.01269,-0.98478,2023,6,12,14,13,55,554
0.07400,2.97500,-4.60250,0.00000,-0.01086,0.01061,-0.98722,2023,6,12,14,13,55,565
0.07410,2.76500,-4.30500,0.00000,-0.01147,0.01171,-0.98857,2023,6,12,14,13,55,576
0.07420,2.95750,-4.62000,0.00000,-0.01037,0.01232,-0.98783,2023,6,12,14,13,55,587
0.07430,3.13250,-4.48000,0.00000,-0.01257,0.01208,-0.98698,2023,6,12,14,13,55,598
0.07440,3.02750,-4.76000,0.00000,-0.01147,0.01318,-0.98796,2023,6,12,14,13,55,609
0.07450,3.02750,-4.56750,0.00000,-0.01049,0.00976,-0.98515,2023,6,12,14,13,55,621
0.07460,2.88750,-4.42750,0.00000,-0.00903,0.01049,-0.98759,2023,6,12,14,13,55,632
0.07470,3.02750,-4.69000,0.00000,-0.01000,0.01257,-0.98759,2023,6,12,14,13,55,643
0.07480,3.15000,-4.60250,0.00000,-0.01159,0.01037,-0.98698,2023,6,12,14,13,55,654
0.07490,3.25500,-4.60250,0.00000,-0.01086,0.01122,-0.98771,2023,6,12,14,13,55,665
0.07500,3.06250,-4.65500,0.00000,-0.01183,0.01257,-0.98735,2023,6,12,14,13,55,676
0.07510,3.09750,-4.51500,0.00000,-0.01318,0.01183,-0.98710,2023,6,12,14,13,55,687
0.07520,3.29000,-4.69000,0.00000,-0.00915,0.01232,-0.98613,2023,6,12,14,13,55,698
0.07530,3.01000,-4.74250,0.00000,-0.01122,0.01025,-0.98796,2023,6,12,14,13,55,709
0.07540,2.92250,-4.53250,0.00000,-0.01293,0.01183,-0.98771,2023,6,12,14,13,55,721
0.07550,2.99250,-4.55000,0.00000,-0.00927,0.01196,-0.98527,2023,6,12,14,13,55,732
0.07560,3.09750,-4.60250,0.00000,-0.01049,0.01293,-0.98564,2023,6,12,14,13,55,743
0.07570,3.15000,-4.46250,0.00000,-0.01257,0.01159,-0.98625,2023,6,12,14,13,55,754
0.07580,3.11500,-4.74250,0.00000,-0.01171,0.01196,-0.98722,2023,6,12,14,13,55,765
0.07590,2.97500,-4.34000,0.00000,-0.01196,0.01147,-0.98747,2023,6,12,14,13,55,776
0.07600,3.06250,-4.56750,0.00000,-0.01122,0.01183,-0.98747,2023,6,12,14,13,55,787
0.07610,2.94000,-4.62000,0.00000,-0.00878,0.01196,-0.98857,2023,6,12,14,13,55,798
0.07620,2.97500,-4.60250,0.00000,-0.00939,0.01220,-0.98625,2023,6,12,14,13,55,809
0.07630,3.01000,-4.56750,0.00000,-0.01135,0.01122,-0.98515,2023,6,12,14,13,55,821
0.07640,2.94000,-4.42750,0.00000,-0.00915,0.01037,-0.98783,2023,6,12,14,13,55,832
0.07650,3.08000,-4.55000,0.00000,-0.01135,0.01086,-0.98588,2023,6,12,14,13,55,843
0.07660,3.06250,-4.63750,0.00000,-0.01183,0.01135,-0.98686,2023,6,12,14,13,55,854
0.07670,2.94000,-4.56750,0.00000,-0.01049,0.01110,-0.98722,2023,6,12,14,13,55,865
0.07680,3.06250,-4.67250,0.00000,-0.00866,0.01049,-0.98417,2023,6,12,14,13,55,876
0.07690,3.08000,-4.56750,0.00000,-0.01086,0.01135,-0.98552,2023,6,12,14,13,55,887
0.07700,2.92250,-4.58500,0.00000,-0.00952,0.01208,-0.98698,2023,6,12,14,13,55,898
0.07710,2.85250,-4.67250,0.00000,-0.00903,0.01147,-0.98649,2023,6,12,14,13,55,909
0.07720,2.88750,-4.70750,0.00000,-0.01000,0.01110,-0.98771,2023,6,12,14,13,55,921
0.07730,3.32500,-4.74250,0.00000,-0.01159,0.01147,-0.98759,2023,6,12,14,13,55,932
0.07740,3.02750,-4.56750,0.00000,-0.01147,0.01171,-0.98625,2023,6,12,14,13,55,943
0.07750,3.01000,-4.58500,0.00000,-0.01098,0.01196,-0.98649,2023,6,12,14,13,55,954
0.07760,2.97500,-4.44500,0.00000,-0.00903,0.01049,-0.98417,2023,6,12,14,13,55,965
0.07770,2.94000,-4.65500,0.00000,-0.00817,0.01037,-0.98613,2023,6,12,14,13,55,976
0.07780,3.08000,-4.46250,0.00000,-0.01183,0.01086,-0.98710,2023,6,12,14,13,56,7
0.07790,2.90500,-4.48000,0.00000,-0.01196,0.01257,-0.98661,2023,6,12,14,13,56,18
0.07800,2.88750,-4.72500,0.00000,-0.00952,0.01049,-0.98600,2023,6,12,14,13,56,29
0.07810,2.95750,-4.58500,0.00000,-0.01037,0.00988,-0.98552,2023,6,12,14,13,56,41
0.07820,3.06250,-4.51500,0.00000,-0.01147,0.01049,-0.98515,2023,6,12,14,13,56,52
0.07830,3.04500,-4.63750,0.00000,-0.01086,0.01159,-0.98625,2023,6,12,14,13,56,63
0.07840,2.99250,-4.62000,0.00000,-0.01037,0.01220,-0.98759,2023,6,12,14,13,56,74
0.07850,2.94000,-4.60250,0.00000,-0.00866,0.01196,-0.98698,2023,6,12,14,13,56,85
0.07860,3.06250,-4.63750,0.00000,-0.00964,0.01244,-0.98649,2023,6,12,14,13,56,96
0.07870,2.97500,-4.46250,0.00000,-0.01074,0.01232,-0.98552,2023,6,12,14,13,56,107
0.07880,2.99250,-4.70750,0.00000,-0.01049,0.00988,-0.98771,2023,6,12,14,13,56,118
0.07890,3.13250,-4.60250,0.00000,-0.00878,0.01147,-0.98491,2023,6,12,14,13,56,129
0.07900,2.92250,-4.48000,0.00000,-0.01135,0.01049,-0.98600,2023,6,12,14,13,56,141
0.07910,3.09750,-4.65500,0.00000,-0.01086,0.01257,-0.98625,2023,6,12,14,13,56,152
0.07920,2.99250,-4.76000,0.00000,-0.01049,0.01086,-0.98710,2023,6,12,14,13,56,163
0.07930,2.97500,-4.42750,0.00000,-0.00903,0.01086,-0.98515,2023,6,12,14,13,56,174
0.07940,2.97500,-4.76000,0.00000,-0.01110,0.01159,-0.98442,2023,6,12,14,13,56,185
0.07950,2.97500,-4.77750,0.00000,-0.01000,0.01196,-0.98905,2023,6,12,14,13,56,196
0.07960,3.25500,-4.76000,0.00000,-0.01049,0.01281,-0.98564,2023,6,12,14,13,56,207
0.07970,3.02750,-4.58500,0.00000,-0.00915,0.01257,-0.98722,2023,6,12,14,13,56,218
0.07980,3.06250,-4.63750,0.00000,-0.01147,0.01183,-0.98820,2023,6,12,14,13,56,229
0.07990,2.90500,-4.49750,0.00000,-0.01037,0.01354,-0.98625,2023,6,12,14,13,56,241
0.08000,3.13250,-4.65500,0.00000,-0.01074,0.01147,-0.98649,2023,6,12,14,13,56,252
0.08010,2.92250,-4.49750,0.00000,-0.01000,0.01049,-0.98686,2023,6,12,14,13,56,263
0.08020,2.95750,-4.74250,0.00000,-0.01000,0.01159,-0.98686,2023,6,12,14,13,56,274
0.08030,3.06250,-4.74250,0.00000,-0.00988,0.01403,-0.98881,2023,6,12,14,13,56,285
0.08040,2.94000,-4.30500,0.00000,-0.01049,0.01049,-0.98674,2023,6,12,14,13,56,296
0.08050,3.01000,-4.62000,0.00000,-0.01025,0.01025,-0.98637,2023,6,12,14,13,56,307
0.08060,3.01000,-4.49750,0.00000,-0.00866,0.01244,-0.98564,2023,6,12,14,13,56,318
0.08070,3.09750,-4.56750,0.00000,-0.01025,0.01318,-0.98722,2023,6,12,14,13,56,329
0.08080,2.87000,-4.70750,0.00000,-0.01122,0.01074,-0.98588,2023,6,12,14,13,56,341
0.08090,2.97500,-4.55000,0.00000,-0.00769,0.01183,-0.98722,2023,6,12,14,13,56,352
0.08100,3.01000,-4.62000,0.00000,-0.00915,0.01147,-0.98576,2023,6,12,14,13,56,363
0.08110,3.04500,-4.62000,0.00000,-0.01196,0.01318,-0.98417,2023,6,12,14,13,56,374
0.08120,3.06250,-4.62000,0.00000,-0.00927,0.01061,-0.98796,2023,6,12,14,13,56,385
0.08130,2.97500,-4.60250,0.00000,-0.00891,0.01208,-0.99015,2023,6,12,14,13,56,396
0.08140,2.94000,-4.67250,0.00000,-0.00988,0.01159,-0.98808,2023,6,12,14,13,56,407
0.08150,2.95750,-4.53250,0.00000,-0.00976,0.01000,-0.98344,2023,6,12,14,13,56,418
0.08160,3.16750,-4.74250,0.00000,-0.00952,0.01305,-0.98979,2023,6,12,14,13,56,429
0.08170,3.13250,-4.62000,0.00000,-0.01318,0.01379,-0.98674,2023,6,12,14,13,56,441
0.08180,3.18500,-4.56750,0.00000,-0.01135,0.01122,-0.99040,2023,6,12,14,13,56,452
0.08190,3.27250,-4.70750,0.00000,-0.01037,0.00988,-0.98893,2023,6,12,14,13,56,463
0.08200,3.02750,-4.63750,0.00000,-0.00842,0.01037,-0.98783,2023,6,12,14,13,56,474
0.08210,2.88750,-4.63750,0.00000,-0.01086,0.01049,-0.98905,2023,6,12,14,13,56,485
0.08220,3.11500,-4.63750,0.00000,-0.01000,0.01208,-0.98564,2023,6,12,14,13,56,496
0.08230,3.16750,-4.60250,0.00000,-0.01013,0.01086,-0.98759,2023,6,12,14,13,56,507
0.08240,2.88750,-4.74250,0.00000,-0.01074,0.01061,-0.98710,2023,6,12,14,13,56,518
0.08250,2.87000,-4.65500,0.00000,-0.01086,0.01025,-0.98747,2023,6,12,14,13,56,529
0.08260,3.06250,-4.46250,0.00000,-0.00976,0.01196,-0.98710,2023,6,12,14,13,56,541
0.08270,2.90500,-4.51500,0.00000,-0.00939,0.01061,-0.98857,2023,6,12,14,13,56,552
0.08280,3.02750,-4.77750,0.00000,-0.01159,0.01037,-0.98783,2023,6,12,14,13,56,563
0.08290,3.11500,-4.63750,0.00000,-0.01025,0.01196,-0.98613,2023,6,12,14,13,56,574
0.08300,2.85250,-4.81250,0.00000,-0.01244,0.01232,-0.98710,2023,6,12,14,13,56,585
0.08310,3.16750,-4.62000,0.00000,-0.00939,0.01159,-0.98735,2023,6,12,14,13,56,596
0.08320,3.09750,-4.65500,0.00000,-0.01110,0.01110,-0.98759,2023,6,12,14,13,56,607
0.08330,3.01000,-4.74250,0.00000,-0.00891,0.01257,-0.98674,2023,6,12,14,13,56,618
0.08340,3.16750,-4.84750,0.00000,-0.01196,0.00891,-0.98637,2023,6,12,14,13,56,629
0.08350,2.90500,-4.63750,0.00000,-0.01208,0.01196,-0.98808,2023,6,12,14,13,56,641
0.08360,3.01000,-4.65500,0.00000,-0.01159,0.01269,-0.98783,2023,6,12,14,13,56,652
0.08370,2.99250,-4.58500,0.00000,-0.01037,0.01318,-0.98710,2023,6,12,14,13,56,663
0.08380,3.13250,-4.44500,0.00000,-0.00939,0.01183,-0.98637,2023,6,12,14,13,56,674
0.08390,3.08000,-4.51500,0.00000,-0.01171,0.01196,-0.98710,2023,6,12,14,13,56,685
0.08400,2.90500,-4.56750,0.00000,-0.01110,0.00927,-0.98649,2023,6,12,14,13,56,696
0.08410,2.88750,-4.65500,0.00000,-0.01013,0.01281,-0.98735,2023,6,12,14,13,56,707
0.08420,3.09750,-4.53250,0.00000,-0.01049,0.01122,-0.99040,2023,6,12,14,13,56,718
0.08430,2.99250,-4.58500,0.00000,-0.01110,0.01110,-0.98710,2023,6,12,14,13,56,729
0.08440,2.94000,-4.67250,0.00000,-0.01122,0.01013,-0.98661,2023,6,12,14,13,56,741
0.08450,3.15000,-4.65500,0.00000,-0.01135,0.01391,-0.98698,2023,6,12,14,13,56,752
0.08460,3.06250,-4.58500,0.00000,-0.00964,0.01208,-0.98759,2023,6,12,14,13,56,763
0.08470,2.95750,-4.62000,0.00000,-0.00988,0.01110,-0.98552,2023,6,12,14,13,56,774
0.08480,3.15000,-4.42750,0.00000,-0.01135,0.01037,-0.98735,2023,6,12,14,13,56,785
0.08490,2.97500,-4.46250,0.00000,-0.01342,0.00878,-0.98625,2023,6,12,14,13,56,796
0.08500,3.13250,-4.74250,0.00000,-0.00927,0.01208,-0.98649,2023,6,12,14,13,56,807
0.08510,3.01000,-4.79500,0.00000,-0.01013,0.01098,-0.98979,2023,6,12,14,13,56,818
0.08520,2.97500,-4.63750,0.00000,-0.01074,0.01305,-0.98759,2023,6,12,14,13,56,829
0.08530,3.13250,-4.48000,0.00000,-0.00927,0.01354,-0.98186,2023,6,12,14,13,56,841
0.08540,3.09750,-4.65500,0.00000,-0.00927,0.01122,-0.98722,2023,6,12,14,13,56,852
0.08550,2.88750,-4.42750,0.00000,-0.01147,0.01147,-0.98893,2023,6,12,14,13,56,863
0.08560,3.08000,-4.63750,0.00000,-0.01086,0.01110,-0.98710,2023,6,12,14,13,56,874
0.08570,2.94000,-4.62000,0.00000,-0.01086,0.01147,-0.98600,2023,6,12,14,13,56,885
0.08580,2.90500,-4.42750,0.00000,-0.01025,0.01122,-0.98735,2023,6,12,14,13,56,896
0.08590,2.99250,-4.58500,0.00000,-0.00964,0.01281,-0.98747,2023,6,12,14,13,56,907
0.08600,2.97500,-4.63750,0.00000,-0.01269,0.01171,-0.98808,2023,6,12,14,13,56,918
0.08610,3.01000,-4.42750,0.00000,-0.01257,0.01049,-0.98637,2023,6,12,14,13,56,929
0.08620,3.13250,-4.62000,0.00000,-0.00964,0.01171,-0.98332,2023,6,12,14,13,56,941
0.08630,3.06250,-4.79500,0.00000,-0.01049,0.01110,-0.98552,2023,6,12,14,13,56,952
0.08640,2.88750,-4.46250,0.00000,-0.00915,0.01196,-0.98491,2023,6,12,14,13,56,963
0.08650,3.20250,-4.56750,0.00000,-0.01135,0.01159,-0.98942,2023,6,12,14,13,56,974
0.08660,2.92250,-4.70750,0.00000,-0.01049,0.01208,-0.98637,2023,6,12,14,13,57,5
0.08670,2.94000,-4.46250,0.00000,-0.00988,0.01049,-0.98979,2023,6,12,14,13,57,16
0.08680,3.09750,-4.70750,0.00000,-0.01269,0.01244,-0.98759,2023,6,12,14,13,57,27
0.08690,3.06250,-4.62000,0.00000,-0.01135,0.01171,-0.98735,2023,6,12,14,13,57,38
0.08700,3.09750,-4.58500,0.00000,-0.00915,0.01330,-0.98600,2023,6,12,14,13,57,49
0.08710,3.01000,-4.42750,0.00000,-0.00817,0.01232,-0.98930,2023,6,12,14,13,57,61
0.08720,3.16750,-4.86500,0.00000,-0.01013,0.01061,-0.98674,2023,6,12,14,13,57,72
0.08730,3.22000,-4.76000,0.00000,-0.00927,0.01342,-0.99247,2023,6,12,14,13,57,83
0.08740,3.11500,-4.67250,0.00000,-0.00939,0.01244,-0.98808,2023,6,12,14,13,57,94
0.08750,3.18500,-4.46250,0.00000,-0.01049,0.01098,-0.98527,2023,6,12,14,13,57,105
0.08760,2.99250,-4.39250,0.00000,-0.00915,0.01220,-0.98649,2023,6,12,14,13,57,116
0.08770,2.90500,-4.34000,0.00000,-0.01074,0.01196,-0.99003,2023,6,12,14,13,57,127
0.08780,3.15000,-4.69000,0.00000,-0.01220,0.01013,-0.98503,2023,6,12,14,13,57,138
0.08790,3.11500,-4.55000,0.00000,-0.01183,0.01208,-0.98759,2023,6,12,14,13,57,149
0.08800,2.87000,-4.55000,0.00000,-0.00830,0.01086,-0.98881,2023,6,12,14,13,57,161
0.08810,3.09750,-4.81250,0.00000,-0.01257,0.01049,-0.98808,2023,6,12,14,13,57,172
0.08820,3.08000,-4.76000,0.00000,-0.01000,0.01183,-0.98783,2023,6,12,14,13,57,183
0.08830,3.01000,-4.83000,0.00000,-0.01074,0.01159,-0.98686,2023,6,12,14,13,57,194
0.08840,2.94000,-4.63750,0.00000,-0.00988,0.01061,-0.98564,2023,6,12,14,13,57,205
0.08850,3.01000,-4.65500,0.00000,-0.01037,0.01098,-0.98844,2023,6,12,14,13,57,216
0.08860,2.99250,-4.44500,0.00000,-0.01281,0.00964,-0.98613,2023,6,12,14,13,57,227
0.08870,3.06250,-4.55000,0.00000,-0.01074,0.01110,-0.98771,2023,6,12,14,13,57,238
0.08880,3.16750,-4.76000,0.00000,-0.00903,0.01122,-0.98808,2023,6,12,14,13,57,249
0.08890,3.13250,-4.65500,0.00000,-0.01037,0.01013,-0.98674,2023,6,12,14,13,57,261
0.08900,3.01000,-4.58500,0.00000,-0.01000,0.01171,-0.98783,2023,6,12,14,13,57,272
0.08910,2.87000,-4.48000,0.00000,-0.01244,0.01159,-0.99040,2023,6,12,14,13,57,283
0.08920,2.88750,-4.44500,0.00000,-0.01037,0.01098,-0.98527,2023,6,12,14,13,57,294
0.08930,2.99250,-4.65500,0.00000,-0.01000,0.01257,-0.98796,2023,6,12,14,13,57,305
0.08940,3.09750,-4.51500,0.00000,-0.01196,0.01061,-0.98783,2023,6,12,14,13,57,316
0.08950,2.87000,-4.56750,0.00000,-0.00988,0.01403,-0.98722,2023,6,12,14,13,57,327
0.08960,2.97500,-4.49750,0.00000,-0.01061,0.01086,-0.98820,2023,6,12,14,13,57,338
0.08970,3.18500,-4.67250,0.00000,-0.01171,0.01135,-0.98625,2023,6,12,14,13,57,349
0.08980,3.02750,-4.70750,0.00000,-0.00964,0.01305,-0.98796,2023,6,12,14,13,57,361
0.08990,2.88750,-4.53250,0.00000,-0.00891,0.01171,-0.98454,2023,6,12,14,13,57,372
0.09000,2.95750,-4.49750,0.00000,-0.01122,0.01196,-0.99015,2023,6,12,14,13,57,383
0.09010,3.06250,-4.55000,0.00000,-0.01013,0.01098,-0.98783,2023,6,12,14,13,57,394
0.09020,2.95750,-4.60250,0.00000,-0.01013,0.00988,-0.98552,2023,6,12,14,13,57,405
0.09030,3.16750,-4.58500,0.00000,-0.00866,0.01122,-0.98686,2023,6,12,14,13,57,416
0.09040,3.16750,-4.34000,0.00000,-0.01110,0.01135,-0.99101,2023,6,12,14,13,57,427
0.09050,3.04500,-4.65500,0.00000,-0.00964,0.01013,-0.98674,2023,6,12,14,13,57,438
0.09060,2.99250,-4.63750,0.00000,-0.01049,0.00903,-0.98576,2023,6,12,14,13,57,449
0.09070,3.04500,-4.70750,0.00000,-0.01025,0.01269,-0.98771,2023,6,12,14,13,57,461
0.09080,3.06250,-4.77750,0.00000,-0.01000,0.01074,-0.98527,2023,6,12,14,13,57,472
0.09090,2.95750,-4.62000,0.00000,-0.01025,0.01122,-0.98661,2023,6,12,14,13,57,483
0.09100,2.83500,-4.46250,0.00000,-0.01025,0.01171,-0.98747,2023,6,12,14,13,57,494
0.09110,3.06250,-4.65500,0.00000,-0.01135,0.01147,-0.98905,2023,6,12,14,13,57,505
0.09120,2.87000,-4.70750,0.00000,-0.00952,0.01208,-0.98808,2023,6,12,14,13,57,516
0.09130,3.08000,-4.46250,0.00000,-0.00817,0.01074,-0.98844,2023,6,12,14,13,57,527
0.09140,2.92250,-4.49750,0.00000,-0.01049,0.01159,-0.98710,2023,6,12,14,13,57,538
0.09150,3.22000,-4.53250,0.00000,-0.01196,0.01269,-0.99052,2023,6,12,14,13,57,549
0.09160,3.08000,-4.79500,0.00000,-0.01000,0.01220,-0.98783,2023,6,12,14,13,57,561
0.09170,3.01000,-4.48000,0.00000,-0.01098,0.01305,-0.98747,2023,6,12,14,13,57,572
0.09180,3.11500,-4.69000,0.00000,-0.01135,0.00964,-0.98771,2023,6,12,14,13,57,583
0.09190,2.78250,-4.74250,0.00000,-0.01049,0.01147,-0.98515,2023,6,12,14,13,57,594
0.09200,2.97500,-4.83000,0.00000,-0.01110,0.01171,-0.98954,2023,6,12,14,13,57,605
0.09210,2.88750,-4.58500,0.00000,-0.01098,0.01135,-0.98674,2023,6,12,14,13,57,616
0.09220,2.88750,-4.41000,0.00000,-0.01025,0.01147,-0.98979,2023,6,12,14,13,57,627
0.09230,3.08000,-4.83000,0.00000,-0.01074,0.01391,-0.98832,2023,6,12,14,13,57,638
0.09240,3.06250,-4.62000,0.00000,-0.00903,0.00903,-0.98625,2023,6,12,14,13,57,649
0.09250,2.90500,-4.74250,0.00000,-0.00878,0.01122,-0.98735,2023,6,12,14,13,57,661
0.09260,3.01000,-4.53250,0.00000,-0.01086,0.01135,-0.98905,2023,6,12,14,13,57,672
0.09270,2.92250,-4.34000,0.00000,-0.01122,0.00976,-0.98698,2023,6,12,14,13,57,683
0.09280,3.06250,-4.60250,0.00000,-0.01269,0.01293,-0.98674,2023,6,12,14,13,57,694
0.09290,3.02750,-4.48000,0.00000,-0.00891,0.01257,-0.98722,2023,6,12,14,13,57,705
0.09300,2.97500,-4.53250,0.00000,-0.00976,0.01330,-0.98698,2023,6,12,14,13,57,716
0.09310,3.04500,-4.62000,0.00000,-0.01110,0.01171,-0.98735,2023,6,12,14,13,57,727
0.09320,3.06250,-4.35750,0.00000,-0.01098,0.01074,-0.98796,2023,6,12,14,13,57,738
0.09330,2.76500,-4.63750,0.00000,-0.01110,0.01159,-0.98552,2023,6,12,14,13,57,749
0.09340,2.88750,-4.60250,0.00000,-0.00915,0.01159,-0.98588,2023,6,12,14,13,57,761
0.09350,2.83500,-4.60250,0.00000,-0.00952,0.01025,-0.98796,2023,6,12,14,13,57,772
0.09360,2.88750,-4.67250,0.00000,-0.01122,0.01000,-0.98649,2023,6,12,14,13,57,783
0.09370,3.01000,-4.58500,0.00000,-0.00927,0.01122,-0.98820,2023,6,12,14,13,57,794
0.09380,3.13250,-4.79500,0.00000,-0.01171,0.01159,-0.98930,2023,6,12,14,13,57,805
0.09390,3.23750,-4.70750,0.00000,-0.00964,0.01244,-0.98747,2023,6,12,14,13,57,816
0.09400,2.81750,-4.60250,0.00000,-0.00988,0.01135,-0.99015,2023,6,12,14,13,57,827
0.09410,3.06250,-4.55000,0.00000,-0.00964,0.01220,-0.98832,2023,6,12,14,13,57,838
0.09420,3.15000,-4.81250,0.00000,-0.01183,0.01244,-0.98686,2023,6,12,14,13,57,849
0.09430,2.94000,-4.42750,0.00000,-0.01110,0.01171,-0.98686,2023,6,12,14,13,57,861
0.09440,3.08000,-4.81250,0.00000,-0.01122,0.01025,-0.98796,2023,6,12,14,13,57,872
0.09450,3.13250,-4.65500,0.00000,-0.01098,0.01086,-0.98844,2023,6,12,14,13,57,883
0.09460,2.94000,-4.63750,0.00000,-0.01220,0.01086,-0.98747,2023,6,12,14,13,57,894
0.09470,3.15000,-4.65500,0.00000,-0.01098,0.01037,-0.98600,2023,6,12,14,13,57,905
0.09480,2.95750,-4.76000,0.00000,-0.01159,0.01232,-0.98844,2023,6,12,14,13,57,916
0.09490,3.04500,-4.81250,0.00000,-0.01269,0.01147,-0.98600,2023,6,12,14,13,57,927
0.09500,2.99250,-4.62000,0.00000,-0.01183,0.01232,-0.98747,2023,6,12,14,13,57,938
0.09510,3.08000,-4.62000,0.00000,-0.01232,0.01098,-0.98661,2023,6,12,14,13,57,949
0.09520,3.01000,-4.46250,0.00000,-0.01074,0.01269,-0.98674,2023,6,12,14,13,57,961
0.09530,2.90500,-4.42750,0.00000,-0.01122,0.01147,-0.98539,2023,6,12,14,13,57,972
0.09540,2.83500,-4.65500,0.00000,-0.01147,0.00939,-0.98747,2023,6,12,14,13,58,3
0.09550,3.06250,-4.77750,0.00000,-0.01208,0.01171,-0.98844,2023,6,12,14,13,58,14
0.09560,2.88750,-4.53250,0.00000,-0.00988,0.01049,-0.98613,2023,6,12,14,13,58,25
0.09570,2.90500,-4.76000,0.00000,-0.01159,0.01098,-0.98417,2023,6,12,14,13,58,36
0.09580,3.01000,-4.67250,0.00000,-0.01013,0.01305,-0.98735,2023,6,12,14,13,58,47
0.09590,2.88750,-4.60250,0.00000,-0.00976,0.01086,-0.98905,2023,6,12,14,13,58,58
0.09600,3.02750,-4.37500,0.00000,-0.01220,0.01013,-0.98686,2023,6,12,14,13,58,69
0.09610,3.20250,-4.60250,0.00000,-0.00964,0.01147,-0.98466,2023,6,12,14,13,58,81
0.09620,3.06250,-4.76000,0.00000,-0.01110,0.00964,-0.98954,2023,6,12,14,13,58,92
0.09630,2.99250,-4.79500,0.00000,-0.01037,0.01110,-0.98881,2023,6,12,14,13,58,103
0.09640,2.94000,-4.46250,0.00000,-0.00939,0.01122,-0.98881,2023,6,12,14,13,58,114
0.09650,3.08000,-4.42750,0.00000,-0.01000,0.01244,-0.98295,2023,6,12,14,13,58,125
0.09660,2.71250,-4.48000,0.00000,-0.01135,0.01171,-0.98552,2023,6,12,14,13,58,136
0.09670,3.11500,-4.48000,0.00000,-0.01098,0.00976,-0.98674,2023,6,12,14,13,58,147
0.09680,3.20250,-4.55000,0.00000,-0.01013,0.01171,-0.98661,2023,6,12,14,13,58,158
0.09690,2.94000,-4.41000,0.00000,-0.00952,0.01122,-0.98478,2023,6,12,14,13,58,169
0.09700,3.22000,-4.63750,0.00000,-0.01025,0.01183,-0.98735,2023,6,12,14,13,58,181
0.09710,3.11500,-4.51500,0.00000,-0.00952,0.01159,-0.98869,2023,6,12,14,13,58,192
0.09720,2.76500,-4.46250,0.00000,-0.00976,0.01135,-0.98600,2023,6,12,14,13,58,203
0.09730,2.88750,-4.48000,0.00000,-0.00952,0.01049,-0.98466,2023,6,12,14,13,58,214
0.09740,2.97500,-4.49750,0.00000,-0.01098,0.01135,-0.98771,2023,6,12,14,13,58,225
0.09750,3.01000,-4.76000,0.00000,-0.00830,0.01171,-0.98661,2023,6,12,14,13,58,236
0.09760,3.27250,-4.86500,0.00000,-0.01110,0.01159,-0.98771,2023,6,12,14,13,58,247
0.09770,2.92250,-4.60250,0.00000,-0.01135,0.01025,-0.98722,2023,6,12,14,13,58,258
0.09780,2.88750,-4.69000,0.00000,-0.00939,0.01257,-0.98649,2023,6,12,14,13,58,269
0.09790,2.97500,-4.46250,0.00000,-0.01000,0.01147,-0.98722,2023,6,12,14,13,58,281
0.09800,3.04500,-4.60250,0.00000,-0.01000,0.01171,-0.98661,2023,6,12,14,13,58,292
0.09810,3.15000,-4.65500,0.00000,-0.00976,0.01061,-0.98552,2023,6,12,14,13,58,303
0.09820,2.92250,-4.51500,0.00000,-0.00891,0.01244,-0.98747,2023,6,12,14,13,58,314
0.09830,3.09750,-4.65500,0.00000,-0.01061,0.01098,-0.98686,2023,6,12,14,13,58,325
0.09840,3.01000,-4.63750,0.00000,-0.00976,0.01330,-0.98930,2023,6,12,14,13,58,336
0.09850,3.06250,-4.56750,0.00000,-0.00866,0.01159,-0.98893,2023,6,12,14,13,58,347
0.09860,3.06250,-4.70750,0.00000,-0.00878,0.01049,-0.98820,2023,6,12,14,13,58,358
0.09870,3.02750,-4.77750,0.00000,-0.01037,0.01122,-0.98405,2023,6,12,14,13,58,369
0.09880,2.76500,-4.60250,0.00000,-0.00842,0.01379,-0.98735,2023,6,12,14,13,58,381
0.09890,3.20250,-4.67250,0.00000,-0.01244,0.01098,-0.98661,2023,6,12,14,13,58,392
0.09900,3.01000,-4.67250,0.00000,-0.01049,0.01171,-0.98832,2023,6,12,14,13,58,403
0.09910,2.95750,-4.55000,0.00000,-0.00854,0.01098,-0.98698,2023,6,12,14,13,58,414
0.09920,3.18500,-4.76000,0.00000,-0.01208,0.01269,-0.98808,2023,6,12,14,13,58,425
0.09930,3.04500,-4.65500,0.00000,-0.01086,0.01232,-0.98747,2023,6,12,14,13,58,436
0.09940,2.99250,-4.44500,0.00000,-0.01000,0.01208,-0.98564,2023,6,12,14,13,58,447
0.09950,3.01000,-4.65500,0.00000,-0.01208,0.01159,-0.98600,2023,6,12,14,13,58,458
0.09960,2.95750,-4.56750,0.00000,-0.01049,0.01135,-0.98588,2023,6,12,14,13,58,469
0.09970,3.16750,-4.62000,0.00000,-0.00817,0.01159,-0.98637,2023,6,12,14,13,58,481
0.09980,3.30750,-4.81250,0.00000,-0.01110,0.01074,-0.98588,2023,6,12,14,13,58,492
0.09990,3.06250,-4.51500,0.00000,-0.01061,0.01281,-0.98576,2023,6,12,14,13,58,503
0.10000,2.92250,-4.56750,0.00000,-0.00976,0.01013,-0.98747,2023,6,12,14,13,58,514
0.10010,2.95750,-4.63750,0.00000,-0.01122,0.01171,-0.98698,2023,6,12,14,13,58,525
0.10020,3.13250,-4.79500,0.00000,-0.01037,0.01342,-0.98515,2023,6,12,14,13,58,536
0.10030,2.90500,-4.48000,0.00000,-0.01110,0.01122,-0.98686,2023,6,12,14,13,58,547
0.10040,2.95750,-4.49750,0.00000,-0.01293,0.01147,-0.98735,2023,6,12,14,13,58,558
0.10050,2.95750,-4.48000,0.00000,-0.01403,0.00903,-0.98710,2023,6,12,14,13,58,569
0.10060,3.15000,-4.41000,0.00000,-0.01147,0.01135,-0.98722,2023,6,12,14,13,58,581
0.10070,3.01000,-4.51500,0.00000,-0.01000,0.01318,-0.98918,2023,6,12,14,13,58,592
0.10080,3.06250,-4.74250,0.00000,-0.00805,0.01098,-0.98613,2023,6,12,14,13,58,603
0.10090,3.06250,-4.74250,0.00000,-0.01025,0.01122,-0.98722,2023,6,12,14,13,58,614
0.10100,3.15000,-4.65500,0.00000,-0.00915,0.01196,-0.98600,2023,6,12,14,13,58,625
0.10110,3.11500,-4.63750,0.00000,-0.01208,0.01232,-0.98661,2023,6,12,14,13,58,636
0.10120,3.01000,-4.48000,0.00000,-0.01196,0.01037,-0.98564,2023,6,12,14,13,58,647
0.10130,3.16750,-4.76000,0.00000,-0.00927,0.01049,-0.98820,2023,6,12,14,13,58,658
0.10140,3.09750,-4.86500,0.00000,-0.00976,0.01379,-0.98430,2023,6,12,14,13,58,669
0.10150,3.16750,-4.65500,0.00000,-0.01061,0.01025,-0.98649,2023,6,12,14,13,58,681
0.10160,3.04500,-4.58500,0.00000,-0.01025,0.01403,-0.98722,2023,6,12,14,13,58,692
0.10170,3.06250,-4.77750,0.00000,-0.01049,0.01098,-0.98771,2023,6,12,14,13,58,703
0.10180,3.04500,-4.60250,0.00000,-0.01098,0.01098,-0.98783,2023,6,12,14,13,58,714
0.10190,3.04500,-4.58500,0.00000,-0.01000,0.01000,-0.98747,2023,6,12,14,13,58,725
0.10200,2.87000,-4.49750,0.00000,-0.01391,0.01061,-0.98674,2023,6,12,14,13,58,736
0.10210,3.02750,-4.72500,0.00000,-0.00988,0.01037,-0.98686,2023,6,12,14,13,58,747
0.10220,3.13250,-4.51500,0.00000,-0.00805,0.01354,-0.98735,2023,6,12,14,13,58,758
0.10230,3.18500,-4.49750,0.00000,-0.01147,0.01086,-0.98930,2023,6,12,14,13,58,769
0.10240,3.15000,-4.72500,0.00000,-0.01000,0.01061,-0.99015,2023,6,12,14,13,58,781
0.10250,2.99250,-4.72500,0.00000,-0.01147,0.01183,-0.98844,2023,6,12,14,13,58,792
0.10260,3.25500,-4.69000,0.00000,-0.01232,0.01147,-0.98857,2023,6,12,14,13,58,803
0.10270,3.01000,-4.44500,0.00000,-0.01135,0.01122,-0.98747,2023,6,12,14,13,58,814
0.10280,2.92250,-4.53250,0.00000,-0.00952,0.01122,-0.98722,2023,6,12,14,13,58,825
0.10290,2.94000,-4.72500,0.00000,-0.01000,0.01220,-0.98759,2023,6,12,14,13,58,836
0.10300,3.06250,-4.42750,0.00000,-0.01135,0.01318,-0.98759,2023,6,12,14,13,58,847
0.10310,3.01000,-4.58500,0.00000,-0.00976,0.01098,-0.98881,2023,6,12,14,13,58,858
0.10320,3.25500,-4.42750,0.00000,-0.01025,0.01159,-0.98869,2023,6,12,14,13,58,869
0.10330,2.88750,-4.44500,0.00000,-0.00842,0.01208,-0.98661,2023,6,12,14,13,58,881
0.10340,2.90500,-4.58500,0.00000,-0.00988,0.01135,-0.98686,2023,6,12,14,13,58,892
0.10350,3.11500,-4.67250,0.00000,-0.01196,0.01183,-0.98674,2023,6,12,14,13,58,903
0.10360,3.09750,-4.65500,0.00000,-0.01013,0.01354,-0.98649,2023,6,12,14,13,58,914
0.10370,2.97500,-4.39250,0.00000,-0.01086,0.00976,-0.98747,2023,6,12,14,13,58,925
0.10380,3.16750,-4.69000,0.00000,-0.01049,0.00976,-0.98588,2023,6,12,14,13,58,936
0.10390,3.06250,-4.60250,0.00000,-0.01110,0.01257,-0.98527,2023,6,12,14,13,58,947
0.10400,2.94000,-4.51500,0.00000,-0.01135,0.01086,-0.98539,2023,6,12,14,13,58,958
0.10410,2.97500,-4.49750,0.00000,-0.01147,0.01196,-0.98710,2023,6,12,14,13,58,969
0.10420,3.08000,-4.62000,0.00000,-0.00915,0.01257,-0.98881,2023,6,12,14,13,59,1
0.10430,2.94000,-4.69000,0.00000,-0.01183,0.01244,-0.98771,2023,6,12,14,13,59,12
0.10440,3.01000,-4.53250,0.00000,-0.01086,0.00939,-0.98539,2023,6,12,14,13,59,23
0.10450,2.95750,-4.65500,0.00000,-0.00866,0.01110,-0.98576,2023,6,12,14,13,59,34
0.10460,3.15000,-4.55000,0.00000,-0.01061,0.01110,-0.98637,2023,6,12,14,13,59,45
0.10470,2.90500,-4.55000,0.00000,-0.00952,0.01196,-0.98600,2023,6,12,14,13,59,56
0.10480,3.06250,-4.77750,0.00000,-0.01196,0.01244,-0.98613,2023,6,12,14,13,59,67
0.10490,3.01000,-4.56750,0.00000,-0.01037,0.01208,-0.98759,2023,6,12,14,13,59,78
0.10500,3.20250,-4.55000,0.00000,-0.00939,0.01183,-0.98796,2023,6,12,14,13,59,89
0.10510,2.97500,-4.72500,0.00000,-0.00915,0.01208,-0.98637,2023,6,12,14,13,59,101
0.10520,2.92250,-4.51500,0.00000,-0.00988,0.01220,-0.98381,2023,6,12,14,13,59,112
0.10530,3.02750,-4.55000,0.00000,-0.01159,0.01281,-0.98710,2023,6,12,14,13,59,123
0.10540,3.11500,-4.74250,0.00000,-0.00964,0.01061,-0.98552,2023,6,12,14,13,59,134
0.10550,3.08000,-4.63750,0.00000,-0.01196,0.01318,-0.98600,2023,6,12,14,13,59,145
0.10560,2.95750,-4.58500,0.00000,-0.01025,0.01257,-0.98930,2023,6,12,14,13,59,156
0.10570,2.90500,-4.48000,0.00000,-0.01013,0.01147,-0.98491,2023,6,12,14,13,59,167
0.10580,3.11500,-4.74250,0.00000,-0.00927,0.00976,-0.98405,2023,6,12,14,13,59,178
0.10590,2.88750,-4.48000,0.00000,-0.01269,0.01159,-0.98783,2023,6,12,14,13,59,189
0.10600,3.04500,-4.70750,0.00000,-0.01269,0.00939,-0.98722,2023,6,12,14,13,59,201
0.10610,2.95750,-4.62000,0.00000,-0.01049,0.00976,-0.98869,2023,6,12,14,13,59,212
0.10620,2.74750,-4.34000,0.00000,-0.00927,0.01147,-0.99052,2023,6,12,14,13,59,223
0.10630,3.02750,-4.76000,0.00000,-0.01037,0.01379,-0.98625,2023,6,12,14,13,59,234
0.10640,3.09750,-4.74250,0.00000,-0.00781,0.00964,-0.98588,2023,6,12,14,13,59,245
0.10650,2.99250,-4.62000,0.00000,-0.01122,0.00964,-0.98735,2023,6,12,14,13,59,256
0.10660,3.09750,-4.44500,0.00000,-0.01086,0.01135,-0.98661,2023,6,12,14,13,59,267
0.10670,2.94000,-4.60250,0.00000,-0.01196,0.01305,-0.98735,2023,6,12,14,13,59,278
0.10680,3.11500,-4.58500,0.00000,-0.01074,0.01098,-0.98771,2023,6,12,14,13,59,289
0.10690,2.99250,-4.53250,0.00000,-0.01159,0.01086,-0.98625,2023,6,12,14,13,59,301
0.10700,3.01000,-4.65500,0.00000,-0.00927,0.01220,-0.98649,2023,6,12,14,13,59,312
0.10710,3.09750,-4.79500,0.00000,-0.00915,0.01110,-0.98478,2023,6,12,14,13,59,323
0.10720,3.04500,-4.58500,0.00000,-0.01110,0.01366,-0.99040,2023,6,12,14,13,59,334
0.10730,3.18500,-4.46250,0.00000,-0.01147,0.01269,-0.98844,2023,6,12,14,13,59,345
0.10740,2.94000,-4.53250,0.00000,-0.01183,0.01147,-0.98686,2023,6,12,14,13,59,356
0.10750,2.94000,-4.70750,0.00000,-0.00830,0.01159,-0.98747,2023,6,12,14,13,59,367
0.10760,3.22000,-4.74250,0.00000,-0.01025,0.01061,-0.98588,2023,6,12,14,13,59,378
0.10770,3.11500,-4.74250,0.00000,-0.01257,0.01074,-0.98698,2023,6,12,14,13,59,389
0.10780,2.94000,-4.53250,0.00000,-0.01147,0.01159,-0.98588,2023,6,12,14,13,59,401
0.10790,2.92250,-4.49750,0.00000,-0.01147,0.01025,-0.98735,2023,6,12,14,13,59,412
0.10800,2.97500,-4.44500,0.00000,-0.00866,0.01330,-0.98625,2023,6,12,14,13,59,423
0.10810,2.90500,-4.37500,0.00000,-0.01000,0.01244,-0.98588,2023,6,12,14,13,59,434
0.10820,3.11500,-4.65500,0.00000,-0.00915,0.01232,-0.98698,2023,6,12,14,13,59,445
0.10830,2.95750,-4.65500,0.00000,-0.01061,0.01159,-0.99015,2023,6,12,14,13,59,456
0.10840,3.06250,-4.42750,0.00000,-0.00988,0.01110,-0.98625,2023,6,12,14,13,59,467
0.10850,2.95750,-4.56750,0.00000,-0.01013,0.01171,-0.98735,2023,6,12,14,13,59,478
0.10860,3.04500,-4.62000,0.00000,-0.01159,0.01147,-0.98747,2023,6,12,14,13,59,489
0.10870,2.94000,-4.74250,0.00000,-0.01220,0.01110,-0.98710,2023,6,12,14,13,59,501
0.10880,2.95750,-4.69000,0.00000,-0.01147,0.01037,-0.98698,2023,6,12,14,13,59,512
0.10890,2.85250,-4.53250,0.00000,-0.00903,0.01098,-0.98552,2023,6,12,14,13,59,523
0.10900,2.87000,-4.48000,0.00000,-0.00756,0.01208,-0.98979,2023,6,12,14,13,59,534
0.10910,3.02750,-4.56750,0.00000,-0.01037,0.01354,-0.98735,2023,6,12,14,13,59,545
0.10920,2.88750,-4.69000,0.00000,-0.01061,0.01013,-0.98661,2023,6,12,14,13,59,556
0.10930,2.80000,-4.44500,0.00000,-0.01135,0.01232,-0.98735,2023,6,12,14,13,59,567
0.10940,2.95750,-4.65500,0.00000,-0.01086,0.01049,-0.98588,2023,6,12,14,13,59,578
0.10950,2.99250,-4.56750,0.00000,-0.01074,0.00952,-0.98674,2023,6,12,14,13,59,589
0.10960,3.02750,-4.74250,0.00000,-0.00878,0.01013,-0.98515,2023,6,12,14,13,59,601
0.10970,2.95750,-4.42750,0.00000,-0.01171,0.01281,-0.98808,2023,6,12,14,13,59,612
0.10980,3.11500,-4.48000,0.00000,-0.01220,0.01159,-0.98759,2023,6,12,14,13,59,623
0.10990,3.18500,-4.65500,0.00000,-0.01122,0.01061,-0.98796,2023,6,12,14,13,59,634
0.11000,3.04500,-4.74250,0.00000,-0.01000,0.01196,-0.98735,2023,6,12,14,13,59,645
0.11010,2.95750,-4.46250,0.00000,-0.00915,0.01183,-0.98698,2023,6,12,14,13,59,656
0.11020,2.97500,-4.74250,0.00000,-0.00927,0.00915,-0.98613,2023,6,12,14,13,59,667
0.11030,2.97500,-4.65500,0.00000,-0.01135,0.01098,-0.98552,2023,6,12,14,13,59,678
0.11040,3.18500,-4.55000,0.00000,-0.00878,0.00988,-0.98649,2023,6,12,14,13,59,689
0.11050,3.23750,-4.55000,0.00000,-0.00866,0.01208,-0.98625,2023,6,12,14,13,59,701
0.11060,2.90500,-4.62000,0.00000,-0.01098,0.01159,-0.98588,2023,6,12,14,13,59,712
0.11070,2.99250,-4.42750,0.00000,-0.00793,0.01281,-0.98539,2023,6,12,14,13,59,723
0.11080,3.06250,-4.69000,0.00000,-0.00817,0.01220,-0.98686,2023,6,12,14,13,59,734
0.11090,3.06250,-4.49750,0.00000,-0.00927,0.01159,-0.98783,2023,6,12,14,13,59,745
0.11100,2.87000,-4.72500,0.00000,-0.01049,0.01086,-0.98661,2023,6,12,14,13,59,756
0.11110,3.06250,-4.60250,0.00000,-0.01379,0.01147,-0.98759,2023,6,12,14,13,59,767
0.11120,2.83500,-4.53250,0.00000,-0.00830,0.01000,-0.98478,2023,6,12,14,13,59,778
0.11130,2.92250,-4.46250,0.00000,-0.01208,0.01135,-0.98637,2023,6,12,14,13,59,789
0.11140,3.04500,-4.39250,0.00000,-0.01061,0.01379,-0.99076,2023,6,12,14,13,59,801
0.11150,3.04500,-4.55000,0.00000,-0.01220,0.01147,-0.98905,2023,6,12,14,13,59,812
0.11160,3.18500,-4.72500,0.00000,-0.01013,0.01196,-0.98808,2023,6,12,14,13,59,823
0.11170,3.02750,-4.62000,0.00000,-0.00903,0.01159,-0.98625,2023,6,12,14,13,59,834
0.11180,3.02750,-4.60250,0.00000,-0.01098,0.01366,-0.98844,2023,6,12,14,13,59,845
0.11190,3.01000,-4.49750,0.00000,-0.01171,0.00976,-0.98564,2023,6,12,14,13,59,856
0.11200,2.87000,-4.44500,0.00000,-0.01061,0.01257,-0.99003,2023,6,12,14,13,59,867
0.11210,3.08000,-4.76000,0.00000,-0.00976,0.01232,-0.98954,2023,6,12,14,13,59,878
0.11220,2.97500,-4.70750,0.00000,-0.01098,0.01159,-0.98674,2023,6,12,14,13,59,889
0.11230,3.01000,-4.58500,0.00000,-0.00952,0.01196,-0.98808,2023,6,12,14,13,59,901
0.11240,2.97500,-4.48000,0.00000,-0.00964,0.01013,-0.98759,2023,6,12,14,13,59,912
0.11250,2.95750,-4.49750,0.00000,-0.01147,0.01183,-0.98515,2023,6,12,14,13,59,923
0.11260,3.08000,-4.51500,0.00000,-0.00854,0.01281,-0.98722,2023,6,12,14,13,59,934
0.11270,2.83500,-4.49750,0.00000,-0.00866,0.01220,-0.98966,2023,6,12,14,13,59,945
0.11280,2.88750,-4.58500,0.00000,-0.01183,0.01183,-0.98808,2023,6,12,14,13,59,956
0.11290,3.04500,-4.72500,0.00000,-0.01086,0.01305,-0.98759,2023,6,12,14,13,59,967
0.11300,3.04500,-4.69000,0.00000,-0.01013,0.01208,-0.98942,2023,6,12,14,14,0,8
0.11310,3.11500,-4.77750,0.00000,-0.01196,0.01208,-0.98808,2023,6,12,14,14,0,19
0.11320,3.15000,-4.60250,0.00000,-0.01049,0.01110,-0.98430,2023,6,12,14,14,0,31
0.11330,3.09750,-4.76000,0.00000,-0.01074,0.01110,-0.98844,2023,6,12,14,14,0,42
0.11340,3.11500,-4.58500,0.00000,-0.01220,0.01147,-0.98881,2023,6,12,14,14,0,53
0.11350,3.16750,-4.70750,0.00000,-0.00781,0.01098,-0.98747,2023,6,12,14,14,0,64
0.11360,3.09750,-4.60250,0.00000,-0.01147,0.01061,-0.98637,2023,6,12,14,14,0,75
0.11370,3.27250,-4.60250,0.00000,-0.01061,0.01244,-0.98832,2023,6,12,14,14,0,86
0.11380,3.11500,-4.51500,0.00000,-0.01025,0.01171,-0.98649,2023,6,12,14,14,0,97
0.11390,3.02750,-4.42750,0.00000,-0.01135,0.01281,-0.98881,2023,6,12,14,14,0,108
0.11400,3.08000,-4.74250,0.00000,-0.01098,0.01244,-0.98966,2023,6,12,14,14,0,119
0.11410,3.18500,-4.74250,0.00000,-0.01122,0.01183,-0.98552,2023,6,12,14,14,0,131
0.11420,3.11500,-4.70750,0.00000,-0.01013,0.01122,-0.98747,2023,6,12,14,14,0,142
0.11430,3.08000,-4.53250,0.00000,-0.01244,0.01147,-0.98820,2023,6,12,14,14,0,153
0.11440,2.97500,-4.51500,0.00000,-0.01086,0.01232,-0.98637,2023,6,12,14,14,0,164
0.11450,2.95750,-4.56750,0.00000,-0.01037,0.01403,-0.99198,2023,6,12,14,14,0,175
0.11460,3.01000,-4.69000,0.00000,-0.01013,0.01086,-0.99027,2023,6,12,14,14,0,186
0.11470,3.15000,-4.46250,0.00000,-0.01135,0.01147,-0.99064,2023,6,12,14,14,0,197
0.11480,2.83500,-4.53250,0.00000,-0.00939,0.01122,-0.98808,2023,6,12,14,14,0,208
0.11490,3.13250,-4.86500,0.00000,-0.01025,0.01037,-0.98966,2023,6,12,14,14,0,219
0.11500,2.90500,-4.44500,0.00000,-0.01305,0.01110,-0.98869,2023,6,12,14,14,0,231
0.11510,2.95750,-4.55000,0.00000,-0.01281,0.01159,-0.98539,2023,6,12,14,14,0,242
0.11520,2.97500,-4.62000,0.00000,-0.01061,0.00988,-0.98954,2023,6,12,14,14,0,253
0.11530,2.87000,-4.37500,0.00000,-0.00952,0.01196,-0.98637,2023,6,12,14,14,0,264
0.11540,3.02750,-4.58500,0.00000,-0.00878,0.01196,-0.99015,2023,6,12,14,14,0,275
0.11550,3.13250,-4.56750,0.00000,-0.00952,0.01330,-0.98796,2023,6,12,14,14,0,286
0.11560,3.16750,-4.72500,0.00000,-0.01098,0.01000,-0.98649,2023,6,12,14,14,0,297
0.11570,2.94000,-4.34000,0.00000,-0.01110,0.01110,-0.98893,2023,6,12,14,14,0,308
0.11580,3.04500,-4.49750,0.00000,-0.01098,0.01135,-0.98808,2023,6,12,14,14,0,319
0.11590,3.02750,-4.48000,0.00000,-0.01086,0.01074,-0.98857,2023,6,12,14,14,0,331
0.11600,3.01000,-4.56750,0.00000,-0.00903,0.01305,-0.99137,2023,6,12,14,14,0,342
0.11610,3.02750,-4.58500,0.00000,-0.01086,0.01098,-0.98625,2023,6,12,14,14,0,353
0.11620,3.08000,-4.58500,0.00000,-0.01110,0.01086,-0.98954,2023,6,12,14,14,0,364
0.11630,2.97500,-4.60250,0.00000,-0.01086,0.01098,-0.98759,2023,6,12,14,14,0,375
0.11640,3.08000,-4.34000,0.00000,-0.01098,0.01171,-0.98674,2023,6,12,14,14,0,386
0.11650,3.20250,-4.51500,0.00000,-0.01135,0.01208,-0.98918,2023,6,12,14,14,0,397
0.11660,3.02750,-4.51500,0.00000,-0.01013,0.01159,-0.98820,2023,6,12,14,14,0,408
0.11670,2.88750,-4.55000,0.00000,-0.01122,0.01061,-0.98625,2023,6,12,14,14,0,419
0.11680,2.90500,-4.53250,0.00000,-0.00988,0.01159,-0.98991,2023,6,12,14,14,0,431
0.11690,3.01000,-4.53250,0.00000,-0.01171,0.01196,-0.98649,2023,6,12,14,14,0,442
0.11700,3.01000,-4.55000,0.00000,-0.01122,0.01171,-0.98796,2023,6,12,14,14,0,453
0.11710,2.81750,-4.35750,0.00000,-0.01086,0.01098,-0.98710,2023,6,12,14,14,0,464
0.11720,3.08000,-4.84750,0.00000,-0.01171,0.00952,-0.98869,2023,6,12,14,14,0,475
0.11730,3.01000,-4.41000,0.00000,-0.01086,0.01074,-0.98820,2023,6,12,14,14,0,486
0.11740,3.02750,-4.60250,0.00000,-0.01049,0.01208,-0.99003,2023,6,12,14,14,0,497
0.11750,2.99250,-4.63750,0.00000,-0.01110,0.01086,-0.98954,2023,6,12,14,14,0,508
0.11760,2.90500,-4.49750,0.00000,-0.01110,0.00988,-0.99015,2023,6,12,14,14,0,519
0.11770,3.01000,-4.77750,0.00000,-0.01013,0.01183,-0.98661,2023,6,12,14,14,0,531
0.11780,3.01000,-4.46250,0.00000,-0.01122,0.01110,-0.98661,2023,6,12,14,14,0,542
0.11790,3.11500,-4.56750,0.00000,-0.01000,0.01025,-0.98478,2023,6,12,14,14,0,553
0.11800,3.02750,-4.55000,0.00000,-0.01074,0.01281,-0.98637,2023,6,12,14,14,0,564
0.11810,2.83500,-4.55000,0.00000,-0.00976,0.01122,-0.99052,2023,6,12,14,14,0,575
0.11820,2.99250,-4.63750,0.00000,-0.01049,0.00988,-0.98954,2023,6,12,14,14,0,586
0.11830,2.97500,-4.62000,0.00000,-0.01025,0.00976,-0.98979,2023,6,12,14,14,0,597
0.11840,3.06250,-4.53250,0.00000,-0.01135,0.01147,-0.98722,2023,6,12,14,14,0,608
0.11850,2.88750,-4.55000,0.00000,-0.01025,0.01110,-0.99271,2023,6,12,14,14,0,619
0.11860,2.95750,-4.35750,0.00000,-0.01061,0.01086,-0.99064,2023,6,12,14,14,0,631
0.11870,2.85250,-4.58500,0.00000,-0.01049,0.01074,-0.99027,2023,6,12,14,14,0,642
0.11880,3.04500,-4.48000,0.00000,-0.01037,0.01074,-0.98832,2023,6,12,14,14,0,653
0.11890,3.04500,-4.53250,0.00000,-0.01098,0.00927,-0.99149,2023,6,12,14,14,0,664
0.11900,3.04500,-4.62000,0.00000,-0.01037,0.01110,-0.98869,2023,6,12,14,14,0,675
0.11910,2.80000,-4.39250,0.00000,-0.01037,0.01232,-0.99125,2023,6,12,14,14,0,686
0.11920,2.83500,-4.44500,0.00000,-0.01122,0.01074,-0.99174,2023,6,12,14,14,0,697
0.11930,2.95750,-4.79500,0.00000,-0.01183,0.01159,-0.99040,2023,6,12,14,14,0,708
0.11940,2.92250,-4.51500,0.00000,-0.01086,0.01147,-0.99027,2023,6,12,14,14,0,719
0.11950,3.08000,-4.70750,0.00000,-0.00939,0.01086,-0.99088,2023,6,12,14,14,0,731
0.11960,3.09750,-4.63750,0.00000,-0.01147,0.01269,-0.98796,2023,6,12,14,14,0,742
0.11970,3.15000,-4.60250,0.00000,-0.01074,0.01135,-0.99076,2023,6,12,14,14,0,753
0.11980,3.15000,-4.69000,0.00000,-0.01037,0.01122,-0.99223,2023,6,12,14,14,0,764
0.11990,3.20250,-4.65500,0.00000,-0.01305,0.01281,-0.99101,2023,6,12,14,14,0,775
0.12000,3.11500,-4.46250,0.00000,-0.01000,0.01305,-0.99015,2023,6,12,14,14,0,786
0.12010,3.30750,-4.76000,0.00000,-0.01025,0.01122,-0.99003,2023,6,12,14,14,0,797
0.12020,2.94000,-4.56750,0.00000,-0.00964,0.01122,-0.98918,2023,6,12,14,14,0,808
0.12030,3.04500,-4.67250,0.00000,-0.01049,0.01159,-0.99137,2023,6,12,14,14,0,819
0.12040,3.09750,-4.69000,0.00000,-0.01061,0.01232,-0.98661,2023,6,12,14,14,0,831
0.12050,3.01000,-4.49750,0.00000,-0.01269,0.01135,-0.98918,2023,6,12,14,14,0,842
0.12060,3.06250,-4.56750,0.00000,-0.01074,0.01183,-0.98820,2023,6,12,14,14,0,853
0.12070,3.04500,-4.62000,0.00000,-0.00891,0.01122,-0.99003,2023,6,12,14,14,0,864
0.12080,2.95750,-4.58500,0.00000,-0.01000,0.01244,-0.99113,2023,6,12,14,14,0,875
0.12090,3.04500,-4.53250,0.00000,-0.00964,0.01025,-0.98686,2023,6,12,14,14,0,886
0.12100,3.02750,-4.56750,0.00000,-0.01086,0.01074,-0.98844,2023,6,12,14,14,0,897
0.12110,2.99250,-4.51500,0.00000,-0.00891,0.01074,-0.98710,2023,6,12,14,14,0,908
0.12120,3.13250,-4.42750,0.00000,-0.01000,0.01049,-0.98735,2023,6,12,14,14,0,919
0.12130,3.09750,-4.65500,0.00000,-0.00915,0.01135,-0.98796,2023,6,12,14,14,0,931
0.12140,3.01000,-4.58500,0.00000,-0.01171,0.00976,-0.98796,2023,6,12,14,14,0,942
0.12150,2.85250,-4.49750,0.00000,-0.01366,0.01135,-0.98698,2023,6,12,14,14,0,953
0.12160,2.81750,-4.55000,0.00000,-0.01098,0.01049,-0.98893,2023,6,12,14,14,0,964
0.12170,2.99250,-4.63750,0.00000,-0.01037,0.01208,-0.98991,2023,6,12,14,14,0,975
0.12180,3.13250,-4.65500,0.00000,-0.01098,0.00927,-0.98722,2023,6,12,14,14,0,986
0.12190,2.99250,-4.70750,0.00000,-0.00903,0.01147,-0.98808,2023,6,12,14,14,1,7
0.12200,3.08000,-4.65500,0.00000,-0.01086,0.01110,-0.98966,2023,6,12,14,14,1,18
0.12210,3.08000,-4.62000,0.00000,-0.01013,0.01110,-0.99076,2023,6,12,14,14,1,29
0.12220,2.95750,-4.39250,0.00000,-0.01037,0.01171,-0.98954,2023,6,12,14,14,1,41
0.12230,3.16750,-4.60250,0.00000,-0.00903,0.01122,-0.98918,2023,6,12,14,14,1,52
0.12240,2.95750,-4.58500,0.00000,-0.01025,0.01135,-0.98674,2023,6,12,14,14,1,63
0.12250,2.94000,-4.72500,0.00000,-0.01257,0.01098,-0.98832,2023,6,12,14,14,1,74
0.12260,3.01000,-4.63750,0.00000,-0.01037,0.01208,-0.98674,2023,6,12,14,14,1,85
0.12270,3.16750,-4.74250,0.00000,-0.01122,0.01220,-0.98759,2023,6,12,14,14,1,96
0.12280,2.94000,-4.53250,0.00000,-0.01037,0.01135,-0.98686,2023,6,12,14,14,1,107
0.12290,2.90500,-4.76000,0.00000,-0.01110,0.01122,-0.98783,2023,6,12,14,14,1,118
0.12300,2.85250,-4.53250,0.00000,-0.01098,0.01049,-0.98918,2023,6,12,14,14,1,129
0.12310,3.02750,-4.34000,0.00000,-0.01098,0.01269,-0.98820,2023,6,12,14,14,1,141
0.12320,3.20250,-4.63750,0.00000,-0.00915,0.01025,-0.98576,2023,6,12,14,14,1,152
0.12330,3.08000,-4.72500,0.00000,-0.00891,0.01013,-0.98844,2023,6,12,14,14,1,163
0.12340,2.99250,-4.49750,0.00000,-0.01122,0.01196,-0.98869,2023,6,12,14,14,1,174
0.12350,2.88750,-4.41000,0.00000,-0.00939,0.01318,-0.99040,2023,6,12,14,14,1,185
0.12360,2.97500,-4.39250,0.00000,-0.01086,0.01171,-0.98661,2023,6,12,14,14,1,196
0.12370,3.06250,-4.65500,0.00000,-0.01110,0.01220,-0.98637,2023,6,12,14,14,1,207
0.12380,2.95750,-4.51500,0.00000,-0.01049,0.01159,-0.98698,2023,6,12,14,14,1,218
0.12390,3.11500,-4.55000,0.00000,-0.01269,0.01061,-0.98698,2023,6,12,14,14,1,229
0.12400,3.01000,-4.56750,0.00000,-0.01086,0.01318,-0.99064,2023,6,12,14,14,1,241
0.12410,2.99250,-4.56750,0.00000,-0.00976,0.01196,-0.98759,2023,6,12,14,14,1,252
0.12420,3.04500,-4.62000,0.00000,-0.00952,0.01061,-0.98759,2023,6,12,14,14,1,263
0.12430,3.16750,-4.63750,0.00000,-0.00927,0.01171,-0.98576,2023,6,12,14,14,1,274
0.12440,3.02750,-4.53250,0.00000,-0.00817,0.01159,-0.98710,2023,6,12,14,14,1,285
0.12450,3.09750,-4.63750,0.00000,-0.01220,0.01074,-0.98649,2023,6,12,14,14,1,296
0.12460,3.04500,-4.70750,0.00000,-0.01013,0.01122,-0.98564,2023,6,12,14,14,1,307
0.12470,2.99250,-4.53250,0.00000,-0.00927,0.01330,-0.99076,2023,6,12,14,14,1,318
0.12480,3.04500,-4.69000,0.00000,-0.01196,0.01305,-0.98698,2023,6,12,14,14,1,329
0.12490,2.94000,-4.46250,0.00000,-0.01049,0.01086,-0.98588,2023,6,12,14,14,1,341
0.12500,3.01000,-4.63750,0.00000,-0.00988,0.01159,-0.98844,2023,6,12,14,14,1,352
0.12510,2.81750,-4.51500,0.00000,-0.01122,0.00976,-0.98588,2023,6,12,14,14,1,363
0.12520,2.92250,-4.44500,0.00000,-0.00952,0.01086,-0.98539,2023,6,12,14,14,1,374
0.12530,3.13250,-4.70750,0.00000,-0.01025,0.01013,-0.98808,2023,6,12,14,14,1,385
0.12540,3.20250,-4.72500,0.00000,-0.01061,0.01074,-0.98820,2023,6,12,14,14,1,396
0.12550,2.92250,-4.51500,0.00000,-0.01037,0.01122,-0.98686,2023,6,12,14,14,1,407
0.12560,3.18500,-4.62000,0.00000,-0.01049,0.01098,-0.99003,2023,6,12,14,14,1,418
0.12570,3.04500,-4.72500,0.00000,-0.01122,0.01122,-0.98820,2023,6,12,14,14,1,429
0.12580,3.15000,-4.48000,0.00000,-0.01232,0.01244,-0.98637,2023,6,12,14,14,1,441
0.12590,3.06250,-4.51500,0.00000,-0.00915,0.01293,-0.98686,2023,6,12,14,14,1,452
0.12600,3.11500,-4.69000,0.00000,-0.01171,0.01208,-0.98966,2023,6,12,14,14,1,463
0.12610,2.97500,-4.70750,0.00000,-0.00976,0.01122,-0.98747,2023,6,12,14,14,1,474
0.12620,2.80000,-4.70750,0.00000,-0.01049,0.01122,-0.98881,2023,6,12,14,14,1,485
0.12630,3.13250,-4.60250,0.00000,-0.01074,0.01305,-0.98686,2023,6,12,14,14,1,496
0.12640,2.95750,-4.53250,0.00000,-0.01147,0.01037,-0.98881,2023,6,12,14,14,1,507
0.12650,2.97500,-4.49750,0.00000,-0.01208,0.01366,-0.98808,2023,6,12,14,14,1,518
0.12660,2.78250,-4.55000,0.00000,-0.00903,0.01135,-0.98905,2023,6,12,14,14,1,529
0.12670,3.18500,-4.74250,0.00000,-0.01086,0.01147,-0.99003,2023,6,12,14,14,1,541
0.12680,2.90500,-4.49750,0.00000,-0.01122,0.01086,-0.98637,2023,6,12,14,14,1,552
0.12690,2.90500,-4.49750,0.00000,-0.01061,0.01098,-0.98576,2023,6,12,14,14,1,563
0.12700,2.85250,-4.49750,0.00000,-0.01147,0.01171,-0.98393,2023,6,12,14,14,1,574
0.12710,2.99250,-4.77750,0.00000,-0.00952,0.01232,-0.98686,2023,6,12,14,14,1,585
0.12720,3.15000,-4.84750,0.00000,-0.01122,0.01135,-0.98930,2023,6,12,14,14,1,596
0.12730,2.92250,-4.53250,0.00000,-0.00952,0.01037,-0.98539,2023,6,12,14,14,1,607
0.12740,3.11500,-4.62000,0.00000,-0.00903,0.01110,-0.98454,2023,6,12,14,14,1,618
0.12750,3.11500,-4.55000,0.00000,-0.01000,0.01183,-0.98820,2023,6,12,14,14,1,629
0.12760,3.02750,-4.67250,0.00000,-0.01049,0.01232,-0.99149,2023,6,12,14,14,1,641
0.12770,2.92250,-4.79500,0.00000,-0.00915,0.01086,-0.98698,2023,6,12,14,14,1,652
0.12780,3.01000,-4.46250,0.00000,-0.01208,0.01293,-0.98832,2023,6,12,14,14,1,663
0.12790,3.02750,-4.72500,0.00000,-0.01293,0.00988,-0.98710,2023,6,12,14,14,1,674
0.12800,3.01000,-4.53250,0.00000,-0.00805,0.00903,-0.98783,2023,6,12,14,14,1,685
0.12810,3.01000,-4.60250,0.00000,-0.00817,0.01159,-0.98649,2023,6,12,14,14,1,696
0.12820,3.27250,-4.60250,0.00000,-0.00866,0.01013,-0.98869,2023,6,12,14,14,1,707
0.12830,2.95750,-4.48000,0.00000,-0.01049,0.01061,-0.98832,2023,6,12,14,14,1,718
0.12840,3.06250,-4.65500,0.00000,-0.01061,0.01244,-0.98686,2023,6,12,14,14,1,729
0.12850,2.97500,-4.55000,0.00000,-0.00891,0.01293,-0.98564,2023,6,12,14,14,1,741
0.12860,3.02750,-4.44500,0.00000,-0.01244,0.01049,-0.98710,2023,6,12,14,14,1,752
0.12870,3.27250,-4.67250,0.00000,-0.00903,0.01135,-0.98759,2023,6,12,14,14,1,763
0.12880,3.11500,-4.55000,0.00000,-0.01171,0.01281,-0.98759,2023,6,12,14,14,1,774
0.12890,2.90500,-4.28750,0.00000,-0.01208,0.01208,-0.98661,2023,6,12,14,14,1,785
0.12900,3.02750,-4.55000,0.00000,-0.01122,0.01220,-0.98796,2023,6,12,14,14,1,796
0.12910,2.95750,-4.58500,0.00000,-0.00976,0.00939,-0.98747,2023,6,12,14,14,1,807
0.12920,3.18500,-4.53250,0.00000,-0.01074,0.01037,-0.98771,2023,6,12,14,14,1,818
0.12930,3.01000,-4.63750,0.00000,-0.01171,0.01159,-0.98661,2023,6,12,14,14,1,829
0.12940,3.04500,-4.60250,0.00000,-0.01025,0.01135,-0.98515,2023,6,12,14,14,1,841
0.12950,3.01000,-4.39250,0.00000,-0.01147,0.01159,-0.98722,2023,6,12,14,14,1,852
0.12960,3.08000,-4.55000,0.00000,-0.00976,0.01244,-0.98747,2023,6,12,14,14,1,863
0.12970,3.02750,-4.46250,0.00000,-0.00988,0.01061,-0.98539,2023,6,12,14,14,1,874
0.12980,3.04500,-4.69000,0.00000,-0.00817,0.01110,-0.98552,2023,6,12,14,14,1,885
0.12990,3.01000,-4.63750,0.00000,-0.01000,0.01171,-0.98747,2023,6,12,14,14,1,896
0.13000,3.13250,-4.88250,0.00000,-0.01281,0.01196,-0.98747,2023,6,12,14,14,1,907
0.13010,3.04500,-4.58500,0.00000,-0.00964,0.01342,-0.98674,2023,6,12,14,14,1,918
0.13020,3.09750,-4.55000,0.00000,-0.00988,0.01061,-0.98759,2023,6,12,14,14,1,929
0.13030,2.92250,-4.56750,0.00000,-0.01000,0.01098,-0.98539,2023,6,12,14,14,1,941
0.13040,2.90500,-4.53250,0.00000,-0.01049,0.01208,-0.98674,2023,6,12,14,14,1,952
0.13050,3.09750,-4.88250,0.00000,-0.01354,0.01159,-0.98796,2023,6,12,14,14,1,963
0.13060,2.85250,-4.55000,0.00000,-0.01110,0.01232,-0.98844,2023,6,12,14,14,1,974
0.13070,2.76500,-4.46250,0.00000,-0.01122,0.01086,-0.98796,2023,6,12,14,14,2,5
0.13080,3.11500,-4.69000,0.00000,-0.01061,0.01061,-0.98661,2023,6,12,14,14,2,16
0.13090,3.02750,-4.67250,0.00000,-0.00939,0.01281,-0.98722,2023,6,12,14,14,2,27
0.13100,2.92250,-4.44500,0.00000,-0.00927,0.01000,-0.98625,2023,6,12,14,14,2,38
0.13110,2.90500,-4.49750,0.00000,-0.01110,0.00964,-0.98771,2023,6,12,14,14,2,49
0.13120,3.11500,-4.67250,0.00000,-0.01086,0.01000,-0.98466,2023,6,12,14,14,2,61
0.13130,3.06250,-4.77750,0.00000,-0.00927,0.01244,-0.98466,2023,6,12,14,14,2,72
0.13140,3.04500,-4.67250,0.00000,-0.00915,0.01086,-0.98344,2023,6,12,14,14,2,83
0.13150,2.92250,-4.37500,0.00000,-0.00891,0.01440,-0.98820,2023,6,12,14,14,2,94
0.13160,2.97500,-4.62000,0.00000,-0.00939,0.01440,-0.98552,2023,6,12,14,14,2,105
0.13170,2.92250,-4.65500,0.00000,-0.01000,0.01147,-0.98625,2023,6,12,14,14,2,116
0.13180,2.94000,-4.51500,0.00000,-0.01000,0.00878,-0.98625,2023,6,12,14,14,2,127
0.13190,3.09750,-4.56750,0.00000,-0.00891,0.01074,-0.98820,2023,6,12,14,14,2,138
0.13200,2.88750,-4.56750,0.00000,-0.00915,0.01086,-0.98747,2023,6,12,14,14,2,149
0.13210,3.18500,-4.69000,0.00000,-0.00805,0.01220,-0.98783,2023,6,12,14,14,2,161
0.13220,3.01000,-4.65500,0.00000,-0.00842,0.01183,-0.98771,2023,6,12,14,14,2,172
0.13230,3.06250,-4.76000,0.00000,-0.01098,0.01122,-0.98796,2023,6,12,14,14,2,183
0.13240,3.11500,-4.53250,0.00000,-0.01000,0.01147,-0.98844,2023,6,12,14,14,2,194
0.13250,3.08000,-4.56750,0.00000,-0.00988,0.01110,-0.98686,2023,6,12,14,14,2,205
0.13260,3.13250,-4.16500,0.00000,-0.00866,0.01232,-0.98674,2023,6,12,14,14,2,216
0.13270,2.90500,-4.58500,0.00000,-0.00952,0.01318,-0.98942,2023,6,12,14,14,2,227
0.13280,3.09750,-4.62000,0.00000,-0.00854,0.01147,-0.98820,2023,6,12,14,14,2,238
0.13290,2.92250,-4.62000,0.00000,-0.00866,0.01244,-0.98613,2023,6,12,14,14,2,249
0.13300,2.99250,-4.56750,0.00000,-0.00854,0.01366,-0.98686,2023,6,12,14,14,2,261
0.13310,2.97500,-4.34000,0.00000,-0.00927,0.01196,-0.98600,2023,6,12,14,14,2,272
0.13320,3.01000,-4.48000,0.00000,-0.01171,0.00939,-0.98539,2023,6,12,14,14,2,283
0.13330,3.11500,-4.62000,0.00000,-0.00915,0.01196,-0.98771,2023,6,12,14,14,2,294
0.13340,3.08000,-4.65500,0.00000,-0.00817,0.01183,-0.98674,2023,6,12,14,14,2,305
0.13350,3.01000,-4.48000,0.00000,-0.01061,0.01366,-0.98710,2023,6,12,14,14,2,316
0.13360,3.09750,-4.63750,0.00000,-0.01269,0.01049,-0.98808,2023,6,12,14,14,2,327
0.13370,3.15000,-4.65500,0.00000,-0.01049,0.01074,-0.98600,2023,6,12,14,14,2,338
0.13380,2.87000,-4.53250,0.00000,-0.01122,0.01183,-0.98881,2023,6,12,14,14,2,349
0.13390,3.06250,-4.53250,0.00000,-0.01440,0.01061,-0.98905,2023,6,12,14,14,2,361
0.13400,3.02750,-4.42750,0.00000,-0.01061,0.01147,-0.98661,2023,6,12,14,14,2,372
0.13410,2.83500,-4.46250,0.00000,-0.01269,0.01183,-0.98527,2023,6,12,14,14,2,383
0.13420,2.85250,-4.23500,0.00000,-0.01025,0.01122,-0.98942,2023,6,12,14,14,2,394
0.13430,3.11500,-4.90000,0.00000,-0.00939,0.01342,-0.98747,2023,6,12,14,14,2,405
0.13440,3.18500,-4.34000,0.00000,-0.01061,0.01159,-0.98722,2023,6,12,14,14,2,416
0.13450,2.88750,-4.67250,0.00000,-0.01061,0.01208,-0.98844,2023,6,12,14,14,2,427
0.13460,3.22000,-4.63750,0.00000,-0.01232,0.01098,-0.98503,2023,6,12,14,14,2,438
0.13470,2.90500,-4.48000,0.00000,-0.01098,0.01098,-0.98698,2023,6,12,14,14,2,449
0.13480,3.08000,-4.63750,0.00000,-0.01049,0.01086,-0.98539,2023,6,12,14,14,2,461
0.13490,2.95750,-4.62000,0.00000,-0.01061,0.01122,-0.98539,2023,6,12,14,14,2,472
0.13500,3.09750,-4.62000,0.00000,-0.01049,0.01305,-0.98869,2023,6,12,14,14,2,483
0.13510,3.06250,-4.63750,0.00000,-0.01000,0.01013,-0.98735,2023,6,12,14,14,2,494
0.13520,3.08000,-4.51500,0.00000,-0.01269,0.01147,-0.98966,2023,6,12,14,14,2,505
0.13530,3.09750,-4.65500,0.00000,-0.01135,0.01342,-0.98637,2023,6,12,14,14,2,516
0.13540,3.18500,-4.67250,0.00000,-0.01086,0.01281,-0.98759,2023,6,12,14,14,2,527
0.13550,3.15000,-4.76000,0.00000,-0.01147,0.01171,-0.98686,2023,6,12,14,14,2,538
0.13560,2.81750,-4.46250,0.00000,-0.01232,0.01293,-0.98942,2023,6,12,14,14,2,549
0.13570,3.29000,-4.55000,0.00000,-0.01074,0.01074,-0.98966,2023,6,12,14,14,2,561
0.13580,3.01000,-4.56750,0.00000,-0.01147,0.01244,-0.98735,2023,6,12,14,14,2,572
0.13590,3.11500,-4.63750,0.00000,-0.01013,0.01159,-0.98576,2023,6,12,14,14,2,583
0.13600,3.06250,-4.62000,0.00000,-0.00781,0.01257,-0.98613,2023,6,12,14,14,2,594
0.13610,3.18500,-4.58500,0.00000,-0.01000,0.01232,-0.98649,2023,6,12,14,14,2,605
0.13620,2.83500,-4.37500,0.00000,-0.00976,0.01159,-0.98539,2023,6,12,14,14,2,616
0.13630,2.88750,-4.58500,0.00000,-0.00964,0.01244,-0.98600,2023,6,12,14,14,2,627
0.13640,3.18500,-4.60250,0.00000,-0.01232,0.01196,-0.98808,2023,6,12,14,14,2,638
0.13650,2.97500,-4.67250,0.00000,-0.01110,0.01037,-0.98759,2023,6,12,14,14,2,649
0.13660,3.06250,-4.51500,0.00000,-0.00891,0.01086,-0.98735,2023,6,12,14,14,2,661
0.13670,3.08000,-4.46250,0.00000,-0.00891,0.01098,-0.98515,2023,6,12,14,14,2,672
0.13680,2.95750,-4.44500,0.00000,-0.01257,0.01196,-0.98747,2023,6,12,14,14,2,683
0.13690,2.97500,-4.67250,0.00000,-0.01171,0.01049,-0.98979,2023,6,12,14,14,2,694
0.13700,2.92250,-4.48000,0.00000,-0.01049,0.01147,-0.98674,2023,6,12,14,14,2,705
0.13710,2.73000,-4.74250,0.00000,-0.01086,0.01049,-0.98674,2023,6,12,14,14,2,716
0.13720,3.06250,-4.53250,0.00000,-0.00903,0.01183,-0.98735,2023,6,12,14,14,2,727
0.13730,3.22000,-4.83000,0.00000,-0.00939,0.01208,-0.98735,2023,6,12,14,14,2,738
0.13740,2.78250,-4.56750,0.00000,-0.00976,0.01135,-0.98832,2023,6,12,14,14,2,749
0.13750,3.08000,-4.72500,0.00000,-0.01159,0.01220,-0.98893,2023,6,12,14,14,2,761
0.13760,3.09750,-4.49750,0.00000,-0.01049,0.01086,-0.98539,2023,6,12,14,14,2,772
0.13770,3.02750,-4.56750,0.00000,-0.01000,0.01086,-0.98759,2023,6,12,14,14,2,783
0.13780,2.92250,-4.48000,0.00000,-0.01000,0.00976,-0.98503,2023,6,12,14,14,2,794
0.13790,2.97500,-4.62000,0.00000,-0.00988,0.01171,-0.99003,2023,6,12,14,14,2,805
0.13800,2.87000,-4.60250,0.00000,-0.00988,0.01122,-0.98820,2023,6,12,14,14,2,816
0.13810,2.99250,-4.77750,0.00000,-0.00952,0.00891,-0.98649,2023,6,12,14,14,2,827
0.13820,3.02750,-4.72500,0.00000,-0.01037,0.01183,-0.98674,2023,6,12,14,14,2,838
0.13830,3.06250,-4.53250,0.00000,-0.01196,0.01293,-0.98783,2023,6,12,14,14,2,849
0.13840,2.94000,-4.42750,0.00000,-0.00793,0.01061,-0.98454,2023,6,12,14,14,2,861
0.13850,3.13250,-4.74250,0.00000,-0.00939,0.01147,-0.98539,2023,6,12,14,14,2,872
0.13860,3.13250,-4.60250,0.00000,-0.01110,0.01171,-0.98735,2023,6,12,14,14,2,883
0.13870,3.08000,-4.70750,0.00000,-0.01098,0.01110,-0.98844,2023,6,12,14,14,2,894
0.13880,2.92250,-4.42750,0.00000,-0.01110,0.01342,-0.98857,2023,6,12,14,14,2,905
0.13890,3.09750,-4.70750,0.00000,-0.01037,0.01196,-0.98796,2023,6,12,14,14,2,916
0.13900,3.08000,-4.76000,0.00000,-0.01122,0.01196,-0.99076,2023,6,12,14,14,2,927
0.13910,2.92250,-4.48000,0.00000,-0.01000,0.00903,-0.98722,2023,6,12,14,14,2,938
0.13920,3.04500,-4.74250,0.00000,-0.01086,0.00927,-0.98759,2023,6,12,14,14,2,949
0.13930,3.08000,-4.58500,0.00000,-0.01086,0.01086,-0.98771,2023,6,12,14,14,2,961
0.13940,2.92250,-4.48000,0.00000,-0.01074,0.01147,-0.98600,2023,6,12,14,14,2,972
0.13950,2.87000,-4.65500,0.00000,-0.00952,0.01000,-0.98515,2023,6,12,14,14,3,3
0.13960,3.16750,-4.62000,0.00000,-0.01013,0.01135,-0.99052,2023,6,12,14,14,3,14
0.13970,2.80000,-4.65500,0.00000,-0.00988,0.01086,-0.98698,2023,6,12,14,14,3,25
0.13980,3.20250,-4.53250,0.00000,-0.00964,0.01049,-0.98844,2023,6,12,14,14,3,36
0.13990,2.95750,-4.81250,0.00000,-0.01037,0.01183,-0.98661,2023,6,12,14,14,3,47
0.14000,3.11500,-4.46250,0.00000,-0.01049,0.00976,-0.98808,2023,6,12,14,14,3,58
0.14010,3.01000,-4.60250,0.00000,-0.01049,0.01269,-0.98796,2023,6,12,14,14,3,69
0.14020,3.18500,-4.49750,0.00000,-0.00939,0.01220,-0.98661,2023,6,12,14,14,3,81
0.14030,3.08000,-4.44500,0.00000,-0.01147,0.01098,-0.98710,2023,6,12,14,14,3,92
0.14040,2.94000,-4.46250,0.00000,-0.00866,0.01086,-0.98625,2023,6,12,14,14,3,103
0.14050,2.88750,-4.62000,0.00000,-0.00964,0.01159,-0.98674,2023,6,12,14,14,3,114
0.14060,2.95750,-4.83000,0.00000,-0.01183,0.01305,-0.98625,2023,6,12,14,14,3,125
0.14070,3.06250,-4.63750,0.00000,-0.00988,0.01171,-0.98417,2023,6,12,14,14,3,136
0.14080,2.95750,-4.62000,0.00000,-0.00927,0.00988,-0.98759,2023,6,12,14,14,3,147
0.14090,3.11500,-4.76000,0.00000,-0.01049,0.01257,-0.98564,2023,6,12,14,14,3,158
0.14100,3.11500,-4.62000,0.00000,-0.01037,0.01110,-0.98942,2023,6,12,14,14,3,169
0.14110,3.04500,-4.76000,0.00000,-0.01220,0.01061,-0.98503,2023,6,12,14,14,3,181
0.14120,3.13250,-4.77750,0.00000,-0.00891,0.01122,-0.98552,2023,6,12,14,14,3,192
0.14130,3.06250,-4.58500,0.00000,-0.01122,0.01244,-0.98796,2023,6,12,14,14,3,203
0.14140,3.22000,-4.46250,0.00000,-0.01000,0.01232,-0.98649,2023,6,12,14,14,3,214
0.14150,3.11500,-4.67250,0.00000,-0.01086,0.01293,-0.98625,2023,6,12,14,14,3,225
0.14160,2.92250,-4.55000,0.00000,-0.01013,0.01391,-0.98771,2023,6,12,14,14,3,236
0.14170,2.95750,-4.53250,0.00000,-0.00781,0.01330,-0.98735,2023,6,12,14,14,3,247
0.14180,2.97500,-4.77750,0.00000,-0.01196,0.01098,-0.98796,2023,6,12,14,14,3,258
0.14190,2.90500,-4.39250,0.00000,-0.01013,0.01293,-0.98735,2023,6,12,14,14,3,269
0.14200,3.11500,-4.72500,0.00000,-0.01122,0.01159,-0.99015,2023,6,12,14,14,3,281
0.14210,3.06250,-4.74250,0.00000,-0.01159,0.01196,-0.98661,2023,6,12,14,14,3,292
0.14220,3.09750,-4.67250,0.00000,-0.00952,0.01147,-0.98881,2023,6,12,14,14,3,303
0.14230,2.94000,-4.70750,0.00000,-0.01061,0.01110,-0.98747,2023,6,12,14,14,3,314
0.14240,2.99250,-4.41000,0.00000,-0.00988,0.01098,-0.98661,2023,6,12,14,14,3,325
0.14250,2.88750,-4.63750,0.00000,-0.01196,0.01171,-0.98649,2023,6,12,14,14,3,336
0.14260,2.88750,-4.55000,0.00000,-0.00891,0.01086,-0.98661,2023,6,12,14,14,3,347
0.14270,2.94000,-4.56750,0.00000,-0.01147,0.00964,-0.98674,2023,6,12,14,14,3,358
0.14280,3.23750,-4.58500,0.00000,-0.00952,0.01135,-0.98905,2023,6,12,14,14,3,369
0.14290,3.13250,-4.62000,0.00000,-0.00927,0.01074,-0.98637,2023,6,12,14,14,3,381
0.14300,3.09750,-4.62000,0.00000,-0.00988,0.01232,-0.98808,2023,6,12,14,14,3,392
0.14310,3.09750,-4.48000,0.00000,-0.01159,0.01171,-0.98552,2023,6,12,14,14,3,403
0.14320,2.87000,-4.42750,0.00000,-0.01000,0.01135,-0.98783,2023,6,12,14,14,3,414
0.14330,3.04500,-4.67250,0.00000,-0.00976,0.01244,-0.98735,2023,6,12,14,14,3,425
0.14340,2.95750,-4.60250,0.00000,-0.01074,0.01257,-0.98710,2023,6,12,14,14,3,436
0.14350,3.04500,-4.70750,0.00000,-0.01208,0.01159,-0.98552,2023,6,12,14,14,3,447
0.14360,3.13250,-4.77750,0.00000,-0.00988,0.01074,-0.98954,2023,6,12,14,14,3,458
0.14370,3.01000,-4.86500,0.00000,-0.01037,0.01061,-0.98674,2023,6,12,14,14,3,469
0.14380,3.06250,-4.49750,0.00000,-0.01110,0.01244,-0.98710,2023,6,12,14,14,3,481
0.14390,2.92250,-4.51500,0.00000,-0.01086,0.01318,-0.98698,2023,6,12,14,14,3,492
0.14400,3.09750,-4.84750,0.00000,-0.01074,0.01159,-0.98539,2023,6,12,14,14,3,503
0.14410,3.08000,-4.60250,0.00000,-0.01061,0.00952,-0.98674,2023,6,12,14,14,3,514
0.14420,3.09750,-4.42750,0.00000,-0.00964,0.01135,-0.98722,2023,6,12,14,14,3,525
0.14430,3.08000,-4.62000,0.00000,-0.01049,0.01159,-0.98576,2023,6,12,14,14,3,536
0.14440,3.01000,-4.62000,0.00000,-0.01269,0.01208,-0.98918,2023,6,12,14,14,3,547
0.14450,2.99250,-4.63750,0.00000,-0.01013,0.01074,-0.98649,2023,6,12,14,14,3,558
0.14460,2.95750,-4.62000,0.00000,-0.00915,0.01354,-0.98747,2023,6,12,14,14,3,569
0.14470,2.95750,-4.56750,0.00000,-0.00976,0.01293,-0.98966,2023,6,12,14,14,3,581
0.14480,2.99250,-4.49750,0.00000,-0.01159,0.00952,-0.98722,2023,6,12,14,14,3,592
0.14490,2.99250,-4.41000,0.00000,-0.01281,0.01208,-0.98710,2023,6,12,14,14,3,603
0.14500,3.16750,-4.51500,0.00000,-0.00720,0.01061,-0.98735,2023,6,12,14,14,3,614
0.14510,2.87000,-4.53250,0.00000,-0.01098,0.01244,-0.98649,2023,6,12,14,14,3,625
0.14520,3.13250,-4.72500,0.00000,-0.01074,0.01293,-0.98771,2023,6,12,14,14,3,636
0.14530,3.11500,-4.70750,0.00000,-0.01013,0.01049,-0.98686,2023,6,12,14,14,3,647
0.14540,3.20250,-4.41000,0.00000,-0.00964,0.01171,-0.98698,2023,6,12,14,14,3,658
0.14550,2.92250,-4.46250,0.00000,-0.01074,0.01135,-0.98905,2023,6,12,14,14,3,669
0.14560,2.88750,-4.62000,0.00000,-0.01147,0.01196,-0.98966,2023,6,12,14,14,3,681
0.14570,2.83500,-4.42750,0.00000,-0.00878,0.00964,-0.98747,2023,6,12,14,14,3,692
0.14580,3.02750,-4.51500,0.00000,-0.00878,0.01232,-0.98478,2023,6,12,14,14,3,703
0.14590,2.87000,-4.62000,0.00000,-0.01025,0.01183,-0.98430,2023,6,12,14,14,3,714
0.14600,2.95750,-4.55000,0.00000,-0.01000,0.01098,-0.99015,2023,6,12,14,14,3,725
0.14610,3.01000,-4.53250,0.00000,-0.01086,0.01110,-0.98820,2023,6,12,14,14,3,736
0.14620,3.08000,-4.60250,0.00000,-0.01061,0.01110,-0.99040,2023,6,12,14,14,3,747
0.14630,3.02750,-4.65500,0.00000,-0.01110,0.01232,-0.98722,2023,6,12,14,14,3,758
0.14640,2.85250,-4.37500,0.00000,-0.00805,0.01220,-0.98796,2023,6,12,14,14,3,769
0.14650,2.83500,-4.48000,0.00000,-0.01061,0.01220,-0.98661,2023,6,12,14,14,3,781
0.14660,2.95750,-4.55000,0.00000,-0.01183,0.00976,-0.98918,2023,6,12,14,14,3,792
0.14670,3.15000,-4.62000,0.00000,-0.00988,0.01086,-0.98783,2023,6,12,14,14,3,803
0.14680,2.92250,-4.65500,0.00000,-0.01013,0.01318,-0.98747,2023,6,12,14,14,3,814
0.14690,2.99250,-4.72500,0.00000,-0.01110,0.01049,-0.98686,2023,6,12,14,14,3,825
0.14700,3.08000,-4.46250,0.00000,-0.01232,0.00903,-0.98674,2023,6,12,14,14,3,836
0.14710,3.01000,-4.69000,0.00000,-0.01000,0.01196,-0.98771,2023,6,12,14,14,3,847
0.14720,3.02750,-4.70750,0.00000,-0.01183,0.01330,-0.98649,2023,6,12,14,14,3,858
0.14730,2.94000,-4.55000,0.00000,-0.00842,0.01122,-0.98637,2023,6,12,14,14,3,869
0.14740,2.88750,-4.67250,0.00000,-0.01110,0.01269,-0.98966,2023,6,12,14,14,3,881
0.14750,3.06250,-4.55000,0.00000,-0.01135,0.01098,-0.98771,2023,6,12,14,14,3,892
0.14760,3.06250,-4.60250,0.00000,-0.00964,0.01464,-0.98576,2023,6,12,14,14,3,903
0.14770,3.15000,-4.65500,0.00000,-0.00952,0.01330,-0.98735,2023,6,12,14,14,3,914
0.14780,2.99250,-4.55000,0.00000,-0.01110,0.01110,-0.98600,2023,6,12,14,14,3,925
0.14790,3.18500,-4.60250,0.00000,-0.01171,0.01232,-0.98759,2023,6,12,14,14,3,936
0.14800,3.04500,-4.65500,0.00000,-0.01074,0.01110,-0.99003,2023,6,12,14,14,3,947
0.14810,3.01000,-4.58500,0.00000,-0.01074,0.01074,-0.98588,2023,6,12,14,14,3,958
0.14820,2.99250,-4.62000,0.00000,-0.01025,0.00964,-0.98747,2023,6,12,14,14,3,969
0.14830,3.04500,-4.84750,0.00000,-0.01000,0.01196,-0.98881,2023,6,12,14,14,4,1
0.14840,3.04500,-4.53250,0.00000,-0.01208,0.01269,-0.98722,2023,6,12,14,14,4,12
0.14850,2.94000,-4.32250,0.00000,-0.00891,0.01232,-0.98857,2023,6,12,14,14,4,23
0.14860,2.97500,-4.49750,0.00000,-0.01196,0.01366,-0.98759,2023,6,12,14,14,4,34
0.14870,3.08000,-4.79500,0.00000,-0.01159,0.01049,-0.98588,2023,6,12,14,14,4,45
0.14880,3.11500,-4.58500,0.00000,-0.01147,0.01061,-0.98759,2023,6,12,14,14,4,56
0.14890,3.06250,-4.51500,0.00000,-0.00939,0.01122,-0.98600,2023,6,12,14,14,4,67
0.14900,2.76500,-4.60250,0.00000,-0.01257,0.01061,-0.98771,2023,6,12,14,14,4,78
0.14910,2.92250,-4.51500,0.00000,-0.00976,0.01135,-0.98893,2023,6,12,14,14,4,89
0.14920,3.04500,-4.79500,0.00000,-0.00866,0.01025,-0.98552,2023,6,12,14,14,4,101
0.14930,2.85250,-4.65500,0.00000,-0.00939,0.01183,-0.98661,2023,6,12,14,14,4,112
0.14940,3.15000,-4.56750,0.00000,-0.01098,0.01171,-0.98674,2023,6,12,14,14,4,123
0.14950,2.94000,-4.60250,0.00000,-0.01098,0.01171,-0.98491,2023,6,12,14,14,4,134
0.14960,2.87000,-4.56750,0.00000,-0.01122,0.01135,-0.98661,2023,6,12,14,14,4,145
0.14970,3.01000,-4.65500,0.00000,-0.01025,0.01269,-0.98613,2023,6,12,14,14,4,156
0.14980,3.01000,-4.63750,0.00000,-0.01013,0.01086,-0.98820,2023,6,12,14,14,4,167
0.14990,2.95750,-4.67250,0.00000,-0.01013,0.01318,-0.98735,2023,6,12,14,14,4,178
0.15000,3.23750,-4.70750,0.00000,-0.01061,0.01098,-0.98808,2023,6,12,14,14,4,189
0.15010,3.18500,-4.28750,0.00000,-0.01086,0.01037,-0.98869,2023,6,12,14,14,4,201
0.15020,2.99250,-4.93500,0.00000,-0.01232,0.01086,-0.98649,2023,6,12,14,14,4,212
0.15030,3.08000,-4.83000,0.00000,-0.01025,0.01159,-0.98857,2023,6,12,14,14,4,223
0.15040,2.94000,-4.41000,0.00000,-0.01086,0.01086,-0.98808,2023,6,12,14,14,4,234
0.15050,2.99250,-4.48000,0.00000,-0.01147,0.01220,-0.98613,2023,6,12,14,14,4,245
0.15060,3.18500,-4.53250,0.00000,-0.01269,0.01183,-0.98637,2023,6,12,14,14,4,256
0.15070,3.01000,-4.58500,0.00000,-0.00964,0.01122,-0.98637,2023,6,12,14,14,4,267
0.15080,3.01000,-4.37500,0.00000,-0.01037,0.01074,-0.98698,2023,6,12,14,14,4,278
0.15090,3.11500,-4.42750,0.00000,-0.00915,0.01305,-0.98503,2023,6,12,14,14,4,289
0.15100,2.99250,-4.48000,0.00000,-0.01110,0.01147,-0.98625,2023,6,12,14,14,4,301
0.15110,3.13250,-4.53250,0.00000,-0.01061,0.01269,-0.98918,2023,6,12,14,14,4,312
0.15120,2.94000,-4.53250,0.00000,-0.00964,0.01257,-0.98735,2023,6,12,14,14,4,323
0.15130,3.25500,-4.49750,0.00000,-0.00769,0.01037,-0.98600,2023,6,12,14,14,4,334
0.15140,2.99250,-4.46250,0.00000,-0.00988,0.01147,-0.98796,2023,6,12,14,14,4,345
0.15150,3.02750,-4.53250,0.00000,-0.01244,0.01122,-0.98735,2023,6,12,14,14,4,356
0.15160,3.22000,-4.69000,0.00000,-0.01147,0.01122,-0.98796,2023,6,12,14,14,4,367
0.15170,2.94000,-4.63750,0.00000,-0.00903,0.01257,-0.98515,2023,6,12,14,14,4,378
0.15180,3.25500,-4.84750,0.00000,-0.01061,0.01025,-0.99101,2023,6,12,14,14,4,389
0.15190,2.92250,-4.39250,0.00000,-0.01110,0.01196,-0.98686,2023,6,12,14,14,4,401
0.15200,2.92250,-4.51500,0.00000,-0.00952,0.01122,-0.98905,2023,6,12,14,14,4,412
0.15210,2.99250,-4.86500,0.00000,-0.01098,0.01257,-0.98674,2023,6,12,14,14,4,423
0.15220,2.78250,-4.42750,0.00000,-0.01220,0.01196,-0.98722,2023,6,12,14,14,4,434
0.15230,2.97500,-4.74250,0.00000,-0.00952,0.01244,-0.98857,2023,6,12,14,14,4,445
0.15240,3.09750,-4.41000,0.00000,-0.01000,0.01354,-0.98881,2023,6,12,14,14,4,456
0.15250,3.04500,-4.35750,0.00000,-0.01025,0.01305,-0.98759,2023,6,12,14,14,4,467
0.15260,3.08000,-4.46250,0.00000,-0.01000,0.01196,-0.98637,2023,6,12,14,14,4,478
0.15270,3.06250,-4.69000,0.00000,-0.00988,0.01135,-0.98735,2023,6,12,14,14,4,489
0.15280,2.99250,-4.72500,0.00000,-0.01061,0.00793,-0.98588,2023,6,12,14,14,4,501
0.15290,2.97500,-4.46250,0.00000,-0.00915,0.01086,-0.98527,2023,6,12,14,14,4,512
0.15300,2.95750,-4.63750,0.00000,-0.01086,0.01049,-0.98600,2023,6,12,14,14,4,523
0.15310,3.20250,-4.60250,0.00000,-0.01061,0.00927,-0.98491,2023,6,12,14,14,4,534
0.15320,3.06250,-4.65500,0.00000,-0.00781,0.01366,-0.98686,2023,6,12,14,14,4,545
0.15330,3.11500,-4.65500,0.00000,-0.01147,0.01244,-0.98844,2023,6,12,14,14,4,556
0.15340,2.94000,-4.60250,0.00000,-0.01122,0.01232,-0.98930,2023,6,12,14,14,4,567
0.15350,3.04500,-4.69000,0.00000,-0.01013,0.01330,-0.98613,2023,6,12,14,14,4,578
0.15360,3.11500,-4.83000,0.00000,-0.00988,0.01171,-0.98869,2023,6,12,14,14,4,589
0.15370,2.95750,-4.69000,0.00000,-0.01000,0.01098,-0.98759,2023,6,12,14,14,4,601
0.15380,2.95750,-4.49750,0.00000,-0.01171,0.01086,-0.98820,2023,6,12,14,14,4,612
0.15390,2.92250,-4.44500,0.00000,-0.01074,0.00952,-0.98869,2023,6,12,14,14,4,623
0.15400,3.18500,-4.51500,0.00000,-0.01074,0.01147,-0.98783,2023,6,12,14,14,4,634
0.15410,3.04500,-4.55000,0.00000,-0.01110,0.01318,-0.98820,2023,6,12,14,14,4,645
0.15420,2.97500,-4.42750,0.00000,-0.00891,0.01196,-0.98832,2023,6,12,14,14,4,656
0.15430,2.99250,-4.63750,0.00000,-0.01135,0.01220,-0.98759,2023,6,12,14,14,4,667
0.15440,3.06250,-4.63750,0.00000,-0.01000,0.01013,-0.98600,2023,6,12,14,14,4,678
0.15450,3.09750,-4.77750,0.00000,-0.01037,0.01013,-0.98552,2023,6,12,14,14,4,689
0.15460,3.01000,-4.69000,0.00000,-0.01122,0.01098,-0.98893,2023,6,12,14,14,4,701
0.15470,2.97500,-4.60250,0.00000,-0.00988,0.01269,-0.98710,2023,6,12,14,14,4,712
0.15480,3.02750,-4.46250,0.00000,-0.01061,0.01342,-0.98527,2023,6,12,14,14,4,723
0.15490,2.95750,-4.53250,0.00000,-0.00976,0.01171,-0.98454,2023,6,12,14,14,4,734
0.15500,3.02750,-4.65500,0.00000,-0.00903,0.01196,-0.98466,2023,6,12,14,14,4,745
0.15510,3.02750,-4.62000,0.00000,-0.00891,0.01110,-0.98820,2023,6,12,14,14,4,756
0.15520,2.80000,-4.60250,0.00000,-0.01037,0.00988,-0.98515,2023,6,12,14,14,4,767
0.15530,3.04500,-4.49750,0.00000,-0.01013,0.01147,-0.98369,2023,6,12,14,14,4,778
0.15540,2.99250,-4.63750,0.00000,-0.01098,0.01208,-0.98308,2023,6,12,14,14,4,789
0.15550,2.88750,-4.63750,0.00000,-0.00915,0.01244,-0.98808,2023,6,12,14,14,4,801
0.15560,3.02750,-4.56750,0.00000,-0.00976,0.01110,-0.98332,2023,6,12,14,14,4,812
0.15570,3.22000,-4.69000,0.00000,-0.01049,0.01074,-0.98808,2023,6,12,14,14,4,823
0.15580,3.01000,-4.74250,0.00000,-0.01086,0.01171,-0.98759,2023,6,12,14,14,4,834
0.15590,3.01000,-4.63750,0.00000,-0.00976,0.01159,-0.98649,2023,6,12,14,14,4,845
0.15600,2.88750,-4.48000,0.00000,-0.01049,0.01147,-0.98576,2023,6,12,14,14,4,856
0.15610,3.06250,-4.58500,0.00000,-0.01171,0.01049,-0.98613,2023,6,12,14,14,4,867
0.15620,2.78250,-4.39250,0.00000,-0.01037,0.01318,-0.98722,2023,6,12,14,14,4,878
0.15630,2.95750,-4.65500,0.00000,-0.00781,0.01342,-0.98491,2023,6,12,14,14,4,889
0.15640,3.20250,-4.63750,0.00000,-0.00964,0.01074,-0.98783,2023,6,12,14,14,4,901
0.15650,2.92250,-4.42750,0.00000,-0.01000,0.01196,-0.98600,2023,6,12,14,14,4,912
0.15660,3.04500,-4.67250,0.00000,-0.01013,0.00976,-0.98747,2023,6,12,14,14,4,923
0.15670,3.11500,-4.42750,0.00000,-0.01049,0.00903,-0.98735,2023,6,12,14,14,4,934
0.15680,3.18500,-4.63750,0.00000,-0.00842,0.01318,-0.98649,2023,6,12,14,14,4,945
0.15690,3.06250,-4.42750,0.00000,-0.01013,0.00976,-0.98503,2023,6,12,14,14,4,956
0.15700,3.04500,-4.49750,0.00000,-0.01159,0.01318,-0.98637,2023,6,12,14,14,4,967
0.15710,2.90500,-4.60250,0.00000,-0.01086,0.01342,-0.98905,2023,6,12,14,14,5,8
0.15720,2.80000,-4.44500,0.00000,-0.01037,0.01244,-0.98979,2023,6,12,14,14,5,19
0.15730,2.90500,-4.70750,0.00000,-0.01025,0.01147,-0.98783,2023,6,12,14,14,5,31
0.15740,3.04500,-4.56750,0.00000,-0.01025,0.01147,-0.98637,2023,6,12,14,14,5,42
0.15750,3.11500,-4.46250,0.00000,-0.00817,0.01122,-0.98686,2023,6,12,14,14,5,53
0.15760,3.11500,-4.46250,0.00000,-0.01074,0.01049,-0.98735,2023,6,12,14,14,5,64
0.15770,3.06250,-4.69000,0.00000,-0.01147,0.01257,-0.98881,2023,6,12,14,14,5,75
0.15780,3.15000,-4.81250,0.00000,-0.01013,0.01208,-0.98771,2023,6,12,14,14,5,86
0.15790,2.90500,-4.55000,0.00000,-0.00781,0.01110,-0.98576,2023,6,12,14,14,5,97
0.15800,3.04500,-4.63750,0.00000,-0.01110,0.01061,-0.98539,2023,6,12,14,14,5,108
0.15810,2.97500,-4.67250,0.00000,-0.01183,0.01183,-0.98844,2023,6,12,14,14,5,119
0.15820,3.13250,-4.32250,0.00000,-0.00952,0.01122,-0.98844,2023,6,12,14,14,5,131
0.15830,3.13250,-4.49750,0.00000,-0.01135,0.01342,-0.98893,2023,6,12,14,14,5,142
0.15840,3.04500,-4.77750,0.00000,-0.01098,0.00988,-0.98661,2023,6,12,14,14,5,153
0.15850,3.06250,-4.51500,0.00000,-0.00939,0.01232,-0.98710,2023,6,12,14,14,5,164
0.15860,3.15000,-4.72500,0.00000,-0.01037,0.01244,-0.98832,2023,6,12,14,14,5,175
0.15870,2.78250,-4.51500,0.00000,-0.01098,0.01122,-0.98686,2023,6,12,14,14,5,186
0.15880,3.06250,-4.65500,0.00000,-0.00952,0.01086,-0.98905,2023,6,12,14,14,5,197
0.15890,3.16750,-4.55000,0.00000,-0.01244,0.01244,-0.98832,2023,6,12,14,14,5,208
0.15900,3.06250,-4.56750,0.00000,-0.01086,0.00964,-0.98576,2023,6,12,14,14,5,219
0.15910,2.99250,-4.67250,0.00000,-0.00891,0.01342,-0.98686,2023,6,12,14,14,5,231
0.15920,3.04500,-4.74250,0.00000,-0.01037,0.01183,-0.98539,2023,6,12,14,14,5,242
0.15930,3.13250,-4.62000,0.00000,-0.01086,0.01025,-0.98686,2023,6,12,14,14,5,253
0.15940,3.01000,-4.39250,0.00000,-0.01122,0.01269,-0.98979,2023,6,12,14,14,5,264
0.15950,2.88750,-4.56750,0.00000,-0.01183,0.01171,-0.98454,2023,6,12,14,14,5,275
0.15960,3.08000,-4.39250,0.00000,-0.01171,0.01074,-0.98747,2023,6,12,14,14,5,286
0.15970,3.11500,-4.70750,0.00000,-0.00781,0.01366,-0.98613,2023,6,12,14,14,5,297
0.15980,2.88750,-4.58500,0.00000,-0.01000,0.01257,-0.98808,2023,6,12,14,14,5,308
0.15990,2.76500,-4.39250,0.00000,-0.01110,0.01257,-0.98661,2023,6,12,14,14,5,319
0.16000,3.09750,-4.44500,0.00000,-0.01257,0.01330,-0.98552,2023,6,12,14,14,5,331
0.16010,3.15000,-4.55000,0.00000,-0.01110,0.01257,-0.98478,2023,6,12,14,14,5,342
0.16020,2.87000,-4.62000,0.00000,-0.01086,0.01122,-0.98466,2023,6,12,14,14,5,353
0.16030,3.08000,-4.74250,0.00000,-0.00903,0.01000,-0.98478,2023,6,12,14,14,5,364
0.16040,3.13250,-4.51500,0.00000,-0.01074,0.01147,-0.98747,2023,6,12,14,14,5,375
0.16050,2.97500,-4.67250,0.00000,-0.01135,0.01159,-0.98771,2023,6,12,14,14,5,386
0.16060,3.22000,-4.67250,0.00000,-0.01049,0.01232,-0.98735,2023,6,12,14,14,5,397
0.16070,2.97500,-4.63750,0.00000,-0.00878,0.01074,-0.98771,2023,6,12,14,14,5,408
0.16080,2.94000,-4.53250,0.00000,-0.00939,0.01135,-0.98600,2023,6,12,14,14,5,419
0.16090,2.97500,-4.77750,0.00000,-0.01122,0.00964,-0.98783,2023,6,12,14,14,5,431
0.16100,3.06250,-4.60250,0.00000,-0.01013,0.00964,-0.98600,2023,6,12,14,14,5,442
0.16110,2.99250,-4.42750,0.00000,-0.00891,0.01269,-0.98759,2023,6,12,14,14,5,453
0.16120,3.30750,-4.67250,0.00000,-0.00952,0.01025,-0.98759,2023,6,12,14,14,5,464
0.16130,3.06250,-4.72500,0.00000,-0.01013,0.01330,-0.98771,2023,6,12,14,14,5,475
0.16140,2.87000,-4.56750,0.00000,-0.00976,0.01476,-0.98759,2023,6,12,14,14,5,486
0.16150,2.85250,-4.44500,0.00000,-0.01000,0.00878,-0.98625,2023,6,12,14,14,5,497
0.16160,3.11500,-4.60250,0.00000,-0.01037,0.01208,-0.98796,2023,6,12,14,14,5,508
0.16170,2.99250,-4.56750,0.00000,-0.01037,0.01232,-0.98588,2023,6,12,14,14,5,519
0.16180,3.13250,-4.72500,0.00000,-0.00976,0.01074,-0.98771,2023,6,12,14,14,5,531
0.16190,3.16750,-4.76000,0.00000,-0.01000,0.01232,-0.98527,2023,6,12,14,14,5,542
0.16200,2.95750,-4.63750,0.00000,-0.00830,0.01086,-0.98759,2023,6,12,14,14,5,553
0.16210,3.04500,-4.32250,0.00000,-0.01013,0.01037,-0.98503,2023,6,12,14,14,5,564
0.16220,2.95750,-4.60250,0.00000,-0.01000,0.01183,-0.98576,2023,6,12,14,14,5,575
0.16230,3.18500,-4.83000,0.00000,-0.01183,0.01147,-0.98625,2023,6,12,14,14,5,586
0.16240,3.09750,-4.42750,0.00000,-0.00915,0.01122,-0.98515,2023,6,12,14,14,5,597
0.16250,3.08000,-4.58500,0.00000,-0.01159,0.01061,-0.98783,2023,6,12,14,14,5,608
0.16260,2.90500,-4.56750,0.00000,-0.01086,0.01159,-0.98552,2023,6,12,14,14,5,619
0.16270,3.02750,-4.58500,0.00000,-0.01147,0.01086,-0.98503,2023,6,12,14,14,5,631
0.16280,3.06250,-4.46250,0.00000,-0.01074,0.00927,-0.98637,2023,6,12,14,14,5,642
0.16290,3.02750,-4.53250,0.00000,-0.01037,0.01000,-0.98722,2023,6,12,14,14,5,653
0.16300,3.02750,-4.35750,0.00000,-0.00915,0.01366,-0.98600,2023,6,12,14,14,5,664
0.16310,2.90500,-4.49750,0.00000,-0.01281,0.00915,-0.98832,2023,6,12,14,14,5,675
0.16320,3.20250,-4.76000,0.00000,-0.01135,0.01257,-0.98735,2023,6,12,14,14,5,686
0.16330,3.06250,-4.74250,0.00000,-0.01171,0.01135,-0.98600,2023,6,12,14,14,5,697
0.16340,3.08000,-4.72500,0.00000,-0.01183,0.01183,-0.98905,2023,6,12,14,14,5,708
0.16350,3.01000,-4.58500,0.00000,-0.01037,0.01086,-0.98747,2023,6,12,14,14,5,719
0.16360,2.88750,-4.51500,0.00000,-0.01037,0.01208,-0.98613,2023,6,12,14,14,5,731
0.16370,2.81750,-4.67250,0.00000,-0.00866,0.01232,-0.98771,2023,6,12,14,14,5,742
0.16380,2.87000,-4.51500,0.00000,-0.01049,0.01183,-0.98808,2023,6,12,14,14,5,753
0.16390,3.18500,-4.58500,0.00000,-0.00964,0.01159,-0.98637,2023,6,12,14,14,5,764
0.16400,2.92250,-4.65500,0.00000,-0.00927,0.00927,-0.98552,2023,6,12,14,14,5,775
0.16410,3.01000,-4.48000,0.00000,-0.01013,0.01061,-0.98698,2023,6,12,14,14,5,786
0.16420,3.02750,-4.46250,0.00000,-0.01110,0.01220,-0.98674,2023,6,12,14,14,5,797
0.16430,3.08000,-4.60250,0.00000,-0.00939,0.01171,-0.99027,2023,6,12,14,14,5,808
0.16440,3.06250,-4.60250,0.00000,-0.00964,0.01086,-0.98881,2023,6,12,14,14,5,819
0.16450,2.88750,-4.67250,0.00000,-0.00878,0.01427,-0.98820,2023,6,12,14,14,5,831
0.16460,3.16750,-4.76000,0.00000,-0.00805,0.01122,-0.98649,2023,6,12,14,14,5,842
0.16470,3.11500,-4.67250,0.00000,-0.01098,0.01110,-0.98735,2023,6,12,14,14,5,853
0.16480,2.95750,-4.42750,0.00000,-0.00964,0.01147,-0.98869,2023,6,12,14,14,5,864
0.16490,3.04500,-4.55000,0.00000,-0.01135,0.01196,-0.98954,2023,6,12,14,14,5,875
0.16500,3.06250,-4.84750,0.00000,-0.01037,0.01244,-0.98442,2023,6,12,14,14,5,886
0.16510,3.01000,-4.49750,0.00000,-0.01110,0.01244,-0.98722,2023,6,12,14,14,5,897
0.16520,3.09750,-4.65500,0.00000,-0.01074,0.01135,-0.98588,2023,6,12,14,14,5,908
0.16530,2.67750,-4.44500,0.00000,-0.01074,0.01098,-0.98747,2023,6,12,14,14,5,919
0.16540,3.09750,-4.70750,0.00000,-0.01183,0.01000,-0.98625,2023,6,12,14,14,5,931
0.16550,3.11500,-4.56750,0.00000,-0.01074,0.01208,-0.99064,2023,6,12,14,14,5,942
0.16560,3.01000,-4.53250,0.00000,-0.00866,0.01232,-0.98613,2023,6,12,14,14,5,953
0.16570,3.09750,-4.65500,0.00000,-0.00805,0.01305,-0.98417,2023,6,12,14,14,5,964
0.16580,2.90500,-4.44500,0.00000,-0.00915,0.01232,-0.98857,2023,6,12,14,14,5,975
0.16590,2.99250,-4.63750,0.00000,-0.01086,0.01049,-0.98649,2023,6,12,14,14,5,986
0.16600,3.02750,-4.60250,0.00000,-0.01110,0.01086,-0.98576,2023,6,12,14,14,6,7
0.16610,2.88750,-4.39250,0.00000,-0.01098,0.01305,-0.98844,2023,6,12,14,14,6,18
0.16620,2.99250,-4.65500,0.00000,-0.00744,0.01098,-0.98552,2023,6,12,14,14,6,29
0.16630,3.13250,-4.39250,0.00000,-0.00952,0.01159,-0.98661,2023,6,12,14,14,6,41
0.16640,2.94000,-4.55000,0.00000,-0.01037,0.01147,-0.98759,2023,6,12,14,14,6,52
0.16650,3.08000,-4.62000,0.00000,-0.01098,0.01159,-0.98979,2023,6,12,14,14,6,63
0.16660,3.13250,-4.72500,0.00000,-0.01098,0.01196,-0.98454,2023,6,12,14,14,6,74
0.16670,2.97500,-4.55000,0.00000,-0.00817,0.01037,-0.98844,2023,6,12,14,14,6,85
0.16680,2.99250,-4.60250,0.00000,-0.01098,0.01025,-0.98710,2023,6,12,14,14,6,96
0.16690,2.94000,-4.53250,0.00000,-0.01305,0.00988,-0.98515,2023,6,12,14,14,6,107
0.16700,3.04500,-4.65500,0.00000,-0.01037,0.01171,-0.98503,2023,6,12,14,14,6,118
0.16710,2.97500,-4.39250,0.00000,-0.00964,0.01196,-0.98686,2023,6,12,14,14,6,129
0.16720,3.08000,-4.55000,0.00000,-0.00903,0.01061,-0.99040,2023,6,12,14,14,6,141
0.16730,3.20250,-4.86500,0.00000,-0.01049,0.01159,-0.98820,2023,6,12,14,14,6,152
0.16740,2.90500,-4.72500,0.00000,-0.00927,0.01122,-0.98686,2023,6,12,14,14,6,163
0.16750,2.90500,-4.48000,0.00000,-0.01013,0.01122,-0.98722,2023,6,12,14,14,6,174
0.16760,3.13250,-4.51500,0.00000,-0.00952,0.01135,-0.98637,2023,6,12,14,14,6,185
0.16770,3.01000,-4.58500,0.00000,-0.01220,0.01061,-0.98491,2023,6,12,14,14,6,196
0.16780,3.04500,-4.72500,0.00000,-0.01037,0.01098,-0.98808,2023,6,12,14,14,6,207
0.16790,3.01000,-4.70750,0.00000,-0.00866,0.01159,-0.98857,2023,6,12,14,14,6,218
0.16800,2.95750,-4.48000,0.00000,-0.00915,0.01122,-0.98893,2023,6,12,14,14,6,229
0.16810,3.04500,-4.72500,0.00000,-0.01232,0.01305,-0.98564,2023,6,12,14,14,6,241
0.16820,2.99250,-4.41000,0.00000,-0.00891,0.01000,-0.98491,2023,6,12,14,14,6,252
0.16830,3.01000,-4.74250,0.00000,-0.00988,0.00988,-0.98503,2023,6,12,14,14,6,263
0.16840,3.16750,-4.37500,0.00000,-0.01098,0.01000,-0.98661,2023,6,12,14,14,6,274
0.16850,2.99250,-4.60250,0.00000,-0.01061,0.01196,-0.98722,2023,6,12,14,14,6,285
0.16860,3.13250,-4.48000,0.00000,-0.01110,0.01220,-0.98649,2023,6,12,14,14,6,296
0.16870,2.99250,-4.69000,0.00000,-0.01098,0.01183,-0.98759,2023,6,12,14,14,6,307
0.16880,3.04500,-4.49750,0.00000,-0.01098,0.01122,-0.98735,2023,6,12,14,14,6,318
0.16890,3.11500,-4.55000,0.00000,-0.00878,0.01159,-0.98661,2023,6,12,14,14,6,329
0.16900,3.06250,-4.70750,0.00000,-0.00952,0.01061,-0.98539,2023,6,12,14,14,6,341
0.16910,2.97500,-4.58500,0.00000,-0.01049,0.01025,-0.98698,2023,6,12,14,14,6,352
0.16920,2.99250,-4.72500,0.00000,-0.01037,0.01135,-0.98637,2023,6,12,14,14,6,363
0.16930,2.97500,-4.84750,0.00000,-0.01159,0.01110,-0.98674,2023,6,12,14,14,6,374
0.16940,2.95750,-4.49750,0.00000,-0.00964,0.01269,-0.98661,2023,6,12,14,14,6,385
0.16950,3.11500,-4.51500,0.00000,-0.00866,0.01147,-0.98735,2023,6,12,14,14,6,396
0.16960,3.25500,-4.74250,0.00000,-0.00927,0.01354,-0.98783,2023,6,12,14,14,6,407
0.16970,3.13250,-4.56750,0.00000,-0.00927,0.01208,-0.98881,2023,6,12,14,14,6,418
0.16980,3.18500,-4.51500,0.00000,-0.00964,0.01037,-0.98539,2023,6,12,14,14,6,429
0.16990,3.20250,-4.56750,0.00000,-0.00976,0.01135,-0.98832,2023,6,12,14,14,6,441
0.17000,2.71250,-4.49750,0.00000,-0.01122,0.01330,-0.98796,2023,6,12,14,14,6,452
0.17010,2.87000,-4.84750,0.00000,-0.01196,0.01074,-0.98674,2023,6,12,14,14,6,463
0.17020,3.02750,-4.53250,0.00000,-0.00988,0.01061,-0.98625,2023,6,12,14,14,6,474
0.17030,2.90500,-4.69000,0.00000,-0.01037,0.01171,-0.98613,2023,6,12,14,14,6,485
0.17040,3.02750,-4.60250,0.00000,-0.01061,0.01061,-0.98625,2023,6,12,14,14,6,496
0.17050,2.95750,-4.65500,0.00000,-0.01086,0.01049,-0.98722,2023,6,12,14,14,6,507
0.17060,3.08000,-4.49750,0.00000,-0.01147,0.01220,-0.98796,2023,6,12,14,14,6,518
0.17070,2.85250,-4.51500,0.00000,-0.00915,0.01061,-0.98600,2023,6,12,14,14,6,529
0.17080,3.16750,-4.46250,0.00000,-0.00976,0.01232,-0.98625,2023,6,12,14,14,6,541
0.17090,3.16750,-4.62000,0.00000,-0.01147,0.01366,-0.98942,2023,6,12,14,14,6,552
0.17100,3.04500,-4.79500,0.00000,-0.01098,0.01244,-0.98893,2023,6,12,14,14,6,563
0.17110,2.85250,-4.67250,0.00000,-0.01049,0.01074,-0.98491,2023,6,12,14,14,6,574
0.17120,2.88750,-4.67250,0.00000,-0.01110,0.01232,-0.98588,2023,6,12,14,14,6,585
0.17130,2.87000,-4.58500,0.00000,-0.01171,0.01281,-0.98796,2023,6,12,14,14,6,596
0.17140,3.08000,-4.88250,0.00000,-0.01086,0.01232,-0.99015,2023,6,12,14,14,6,607
0.17150,3.02750,-4.72500,0.00000,-0.00988,0.01025,-0.98869,2023,6,12,14,14,6,618
0.17160,2.97500,-4.56750,0.00000,-0.01318,0.01135,-0.98771,2023,6,12,14,14,6,629
0.17170,2.88750,-4.62000,0.00000,-0.01037,0.01208,-0.98637,2023,6,12,14,14,6,641
0.17180,3.11500,-4.51500,0.00000,-0.01074,0.01220,-0.98796,2023,6,12,14,14,6,652
0.17190,3.06250,-4.39250,0.00000,-0.00817,0.01244,-0.98881,2023,6,12,14,14,6,663
0.17200,2.97500,-4.51500,0.00000,-0.01086,0.01086,-0.98539,2023,6,12,14,14,6,674
0.17210,3.02750,-4.58500,0.00000,-0.00842,0.01183,-0.98515,2023,6,12,14,14,6,685
0.17220,3.02750,-4.63750,0.00000,-0.00964,0.01135,-0.98759,2023,6,12,14,14,6,696
0.17230,2.94000,-4.77750,0.00000,-0.01098,0.01171,-0.98649,2023,6,12,14,14,6,707
0.17240,3.04500,-4.44500,0.00000,-0.01159,0.01110,-0.98564,2023,6,12,14,14,6,718
0.17250,2.83500,-4.53250,0.00000,-0.01159,0.01269,-0.98722,2023,6,12,14,14,6,729
0.17260,3.08000,-4.58500,0.00000,-0.01061,0.01232,-0.98710,2023,6,12,14,14,6,741
0.17270,2.88750,-4.53250,0.00000,-0.01086,0.01354,-0.98637,2023,6,12,14,14,6,752
0.17280,3.01000,-4.58500,0.00000,-0.01061,0.01220,-0.98954,2023,6,12,14,14,6,763
0.17290,3.18500,-4.72500,0.00000,-0.01281,0.01110,-0.98759,2023,6,12,14,14,6,774
0.17300,3.18500,-4.70750,0.00000,-0.01135,0.01391,-0.98661,2023,6,12,14,14,6,785
0.17310,3.18500,-4.51500,0.00000,-0.01037,0.01257,-0.98625,2023,6,12,14,14,6,796
0.17320,2.90500,-4.48000,0.00000,-0.00915,0.01305,-0.98832,2023,6,12,14,14,6,807
0.17330,3.08000,-4.46250,0.00000,-0.00866,0.01000,-0.98796,2023,6,12,14,14,6,818
0.17340,2.94000,-4.37500,0.00000,-0.01013,0.01098,-0.98478,2023,6,12,14,14,6,829
0.17350,3.15000,-4.62000,0.00000,-0.01122,0.01183,-0.98881,2023,6,12,14,14,6,841
0.17360,3.02750,-4.55000,0.00000,-0.00952,0.01086,-0.98942,2023,6,12,14,14,6,852
0.17370,3.11500,-4.74250,0.00000,-0.00854,0.01110,-0.98674,2023,6,12,14,14,6,863
0.17380,2.94000,-4.51500,0.00000,-0.01025,0.01098,-0.98820,2023,6,12,14,14,6,874
0.17390,3.09750,-4.55000,0.00000,-0.01122,0.01061,-0.98954,2023,6,12,14,14,6,885
0.17400,3.01000,-4.62000,0.00000,-0.01037,0.01147,-0.98613,2023,6,12,14,14,6,896
0.17410,3.06250,-4.49750,0.00000,-0.01171,0.01086,-0.98771,2023,6,12,14,14,6,907
0.17420,3.20250,-4.81250,0.00000,-0.01025,0.01086,-0.98552,2023,6,12,14,14,6,918
0.17430,3.02750,-4.67250,0.00000,-0.00842,0.01147,-0.98588,2023,6,12,14,14,6,929
0.17440,2.83500,-4.51500,0.00000,-0.00964,0.01257,-0.98735,2023,6,12,14,14,6,941
0.17450,3.13250,-4.27000,0.00000,-0.01122,0.01208,-0.98783,2023,6,12,14,14,6,952
0.17460,3.11500,-4.58500,0.00000,-0.01232,0.01415,-0.98881,2023,6,12,14,14,6,963
0.17470,3.13250,-4.83000,0.00000,-0.01013,0.01196,-0.98747,2023,6,12,14,14,6,974
0.17480,3.04500,-4.58500,0.00000,-0.00915,0.01061,-0.98905,2023,6,12,14,14,7,5
0.17490,3.15000,-4.69000,0.00000,-0.01110,0.01196,-0.98796,2023,6,12,14,14,7,16
0.17500,2.92250,-4.32250,0.00000,-0.00952,0.01196,-0.98674,2023,6,12,14,14,7,27
0.17510,3.06250,-4.67250,0.00000,-0.00866,0.01305,-0.98661,2023,6,12,14,14,7,38
0.17520,3.11500,-4.72500,0.00000,-0.01159,0.01086,-0.98710,2023,6,12,14,14,7,49
0.17530,3.08000,-4.51500,0.00000,-0.01330,0.01330,-0.98832,2023,6,12,14,14,7,61
0.17540,2.97500,-4.58500,0.00000,-0.01147,0.00964,-0.98735,2023,6,12,14,14,7,72
0.17550,3.11500,-4.53250,0.00000,-0.01220,0.01232,-0.98735,2023,6,12,14,14,7,83
0.17560,3.16750,-4.72500,0.00000,-0.00988,0.01379,-0.98637,2023,6,12,14,14,7,94
0.17570,2.95750,-4.46250,0.00000,-0.00988,0.01098,-0.98735,2023,6,12,14,14,7,105
0.17580,3.18500,-4.41000,0.00000,-0.00988,0.01013,-0.98759,2023,6,12,14,14,7,116
0.17590,2.94000,-4.41000,0.00000,-0.00988,0.01159,-0.98527,2023,6,12,14,14,7,127
0.17600,3.04500,-4.39250,0.00000,-0.01086,0.01061,-0.98808,2023,6,12,14,14,7,138
0.17610,2.94000,-4.60250,0.00000,-0.00976,0.01025,-0.98661,2023,6,12,14,14,7,149
0.17620,3.20250,-4.65500,0.00000,-0.01159,0.01000,-0.98515,2023,6,12,14,14,7,161
0.17630,3.02750,-4.44500,0.00000,-0.01037,0.01025,-0.98625,2023,6,12,14,14,7,172
0.17640,3.22000,-4.84750,0.00000,-0.01025,0.01159,-0.98649,2023,6,12,14,14,7,183
0.17650,3.20250,-4.72500,0.00000,-0.01147,0.01147,-0.98478,2023,6,12,14,14,7,194
0.17660,3.02750,-4.70750,0.00000,-0.00964,0.01098,-0.98808,2023,6,12,14,14,7,205
0.17670,3.01000,-4.44500,0.00000,-0.01086,0.01098,-0.98783,2023,6,12,14,14,7,216
0.17680,3.02750,-4.58500,0.00000,-0.00964,0.01232,-0.98869,2023,6,12,14,14,7,227
0.17690,3.04500,-4.51500,0.00000,-0.01171,0.01257,-0.99052,2023,6,12,14,14,7,238
0.17700,2.90500,-4.48000,0.00000,-0.01196,0.01122,-0.98832,2023,6,12,14,14,7,249
0.17710,2.97500,-4.74250,0.00000,-0.01098,0.00927,-0.98698,2023,6,12,14,14,7,261
0.17720,2.74750,-4.49750,0.00000,-0.01257,0.01330,-0.98637,2023,6,12,14,14,7,272
0.17730,3.20250,-4.77750,0.00000,-0.01220,0.00952,-0.98686,2023,6,12,14,14,7,283
0.17740,3.04500,-4.53250,0.00000,-0.00927,0.00927,-0.98686,2023,6,12,14,14,7,294
0.17750,3.18500,-4.65500,0.00000,-0.01110,0.01074,-0.98356,2023,6,12,14,14,7,305
0.17760,3.04500,-4.60250,0.00000,-0.01074,0.01220,-0.98686,2023,6,12,14,14,7,316
0.17770,3.04500,-4.67250,0.00000,-0.01074,0.01196,-0.98844,2023,6,12,14,14,7,327
0.17780,3.04500,-4.46250,0.00000,-0.01074,0.01013,-0.98771,2023,6,12,14,14,7,338
0.17790,3.08000,-4.35750,0.00000,-0.01037,0.01196,-0.98393,2023,6,12,14,14,7,349
0.17800,3.11500,-4.74250,0.00000,-0.00830,0.01110,-0.98613,2023,6,12,14,14,7,361
0.17810,2.97500,-4.49750,0.00000,-0.01037,0.01183,-0.98783,2023,6,12,14,14,7,372
0.17820,3.13250,-4.60250,0.00000,-0.00988,0.01122,-0.98649,2023,6,12,14,14,7,383
0.17830,3.18500,-4.63750,0.00000,-0.00964,0.01074,-0.98735,2023,6,12,14,14,7,394
0.17840,2.69500,-4.44500,0.00000,-0.01061,0.01135,-0.98783,2023,6,12,14,14,7,405
0.17850,2.90500,-4.55000,0.00000,-0.01171,0.00988,-0.98832,2023,6,12,14,14,7,416
0.17860,2.97500,-4.55000,0.00000,-0.01122,0.01147,-0.98674,2023,6,12,14,14,7,427
0.17870,3.08000,-4.72500,0.00000,-0.01061,0.00939,-0.98588,2023,6,12,14,14,7,438
0.17880,2.99250,-4.44500,0.00000,-0.01025,0.01159,-0.98564,2023,6,12,14,14,7,449
0.17890,3.29000,-4.77750,0.00000,-0.01013,0.01232,-0.98515,2023,6,12,14,14,7,461
0.17900,2.95750,-4.48000,0.00000,-0.01049,0.01074,-0.98783,2023,6,12,14,14,7,472
0.17910,2.85250,-4.46250,0.00000,-0.00903,0.01000,-0.98674,2023,6,12,14,14,7,483
0.17920,2.94000,-4.60250,0.00000,-0.01013,0.00964,-0.98625,2023,6,12,14,14,7,494
0.17930,3.06250,-4.53250,0.00000,-0.01232,0.01244,-0.98893,2023,6,12,14,14,7,505
0.17940,2.99250,-4.62000,0.00000,-0.00878,0.01171,-0.98698,2023,6,12,14,14,7,516
0.17950,2.78250,-4.49750,0.00000,-0.00964,0.01122,-0.98783,2023,6,12,14,14,7,527
0.17960,2.92250,-4.69000,0.00000,-0.00781,0.00915,-0.98491,2023,6,12,14,14,7,538
0.17970,2.94000,-4.51500,0.00000,-0.00842,0.01098,-0.98735,2023,6,12,14,14,7,549
0.17980,2.94000,-4.67250,0.00000,-0.01049,0.01086,-0.98857,2023,6,12,14,14,7,561
0.17990,3.06250,-4.72500,0.00000,-0.01013,0.01196,-0.98942,2023,6,12,14,14,7,572
0.18000,3.11500,-4.62000,0.00000,-0.01171,0.01196,-0.98625,2023,6,12,14,14,7,583
0.18010,3.29000,-4.65500,0.00000,-0.00964,0.01183,-0.98747,2023,6,12,14,14,7,594
0.18020,3.01000,-4.70750,0.00000,-0.01220,0.01074,-0.98613,2023,6,12,14,14,7,605
0.18030,3.06250,-4.70750,0.00000,-0.01196,0.00988,-0.98857,2023,6,12,14,14,7,616
0.18040,3.06250,-4.77750,0.00000,-0.01025,0.01013,-0.98808,2023,6,12,14,14,7,627
0.18050,3.06250,-4.76000,0.00000,-0.01061,0.01208,-0.98710,2023,6,12,14,14,7,638
0.18060,3.23750,-4.42750,0.00000,-0.00976,0.01171,-0.98710,2023,6,12,14,14,7,649
0.18070,3.06250,-4.60250,0.00000,-0.01122,0.01037,-0.98747,2023,6,12,14,14,7,661
0.18080,3.06250,-4.55000,0.00000,-0.01159,0.00878,-0.98661,2023,6,12,14,14,7,672
0.18090,3.04500,-4.56750,0.00000,-0.00927,0.01318,-0.98796,2023,6,12,14,14,7,683
0.18100,2.90500,-4.46250,0.00000,-0.00964,0.01061,-0.98515,2023,6,12,14,14,7,694
0.18110,3.20250,-4.62000,0.00000,-0.01159,0.01196,-0.98747,2023,6,12,14,14,7,705
0.18120,2.87000,-4.53250,0.00000,-0.01159,0.01183,-0.98576,2023,6,12,14,14,7,716
0.18130,3.01000,-4.42750,0.00000,-0.00976,0.01147,-0.98881,2023,6,12,14,14,7,727
0.18140,2.97500,-4.60250,0.00000,-0.01025,0.00891,-0.98454,2023,6,12,14,14,7,738
0.18150,2.88750,-4.58500,0.00000,-0.01049,0.01171,-0.98649,2023,6,12,14,14,7,749
0.18160,3.02750,-4.41000,0.00000,-0.00964,0.01232,-0.98576,2023,6,12,14,14,7,761
0.18170,2.99250,-4.62000,0.00000,-0.01147,0.01196,-0.98661,2023,6,12,14,14,7,772
0.18180,3.04500,-4.69000,0.00000,-0.00939,0.00903,-0.98430,2023,6,12,14,14,7,783
0.18190,2.88750,-4.60250,0.00000,-0.01122,0.01147,-0.98600,2023,6,12,14,14,7,794
0.18200,3.20250,-4.81250,0.00000,-0.01196,0.01220,-0.98686,2023,6,12,14,14,7,805
0.18210,3.23750,-4.69000,0.00000,-0.01122,0.01183,-0.98759,2023,6,12,14,14,7,816
0.18220,3.13250,-4.49750,0.00000,-0.01074,0.00988,-0.98735,2023,6,12,14,14,7,827
0.18230,2.92250,-4.65500,0.00000,-0.01098,0.01086,-0.98539,2023,6,12,14,14,7,838
0.18240,2.85250,-4.49750,0.00000,-0.01086,0.01000,-0.98722,2023,6,12,14,14,7,849
0.18250,2.99250,-4.70750,0.00000,-0.00976,0.01049,-0.98686,2023,6,12,14,14,7,861
0.18260,2.95750,-4.63750,0.00000,-0.01257,0.01220,-0.98808,2023,6,12,14,14,7,872
0.18270,3.01000,-4.53250,0.00000,-0.01074,0.01135,-0.98808,2023,6,12,14,14,7,883
0.18280,2.90500,-4.28750,0.00000,-0.01074,0.01159,-0.98600,2023,6,12,14,14,7,894
0.18290,2.92250,-4.56750,0.00000,-0.00939,0.01135,-0.98759,2023,6,12,14,14,7,905
0.18300,3.15000,-4.46250,0.00000,-0.00830,0.01122,-0.98832,2023,6,12,14,14,7,916
0.18310,3.09750,-4.44500,0.00000,-0.01086,0.00964,-0.98686,2023,6,12,14,14,7,927
0.18320,3.11500,-4.46250,0.00000,-0.01183,0.01183,-0.98271,2023,6,12,14,14,7,938
0.18330,3.01000,-4.60250,0.00000,-0.01147,0.00976,-0.98613,2023,6,12,14,14,7,949
0.18340,3.01000,-4.74250,0.00000,-0.01086,0.01318,-0.98698,2023,6,12,14,14,7,961
0.18350,3.06250,-4.63750,0.00000,-0.01025,0.01257,-0.98661,2023,6,12,14,14,7,972
0.18360,3.09750,-4.62000,0.00000,-0.00964,0.01049,-0.98698,2023,6,12,14,14,8,3
0.18370,3.02750,-4.56750,0.00000,-0.00964,0.01110,-0.98783,2023,6,12,14,14,8,14
0.18380,3.02750,-4.55000,0.00000,-0.00915,0.01196,-0.98515,2023,6,12,14,14,8,25
0.18390,2.92250,-4.51500,0.00000,-0.01098,0.01342,-0.98661,2023,6,12,14,14,8,36
0.18400,3.04500,-4.65500,0.00000,-0.00952,0.01318,-0.98930,2023,6,12,14,14,8,47
0.18410,2.97500,-4.58500,0.00000,-0.01000,0.01098,-0.98759,2023,6,12,14,14,8,58
0.18420,2.83500,-4.69000,0.00000,-0.01037,0.01086,-0.99064,2023,6,12,14,14,8,69
0.18430,2.97500,-4.60250,0.00000,-0.01135,0.01501,-0.98771,2023,6,12,14,14,8,81
0.18440,3.08000,-4.83000,0.00000,-0.01049,0.01244,-0.98527,2023,6,12,14,14,8,92
0.18450,2.95750,-4.41000,0.00000,-0.00939,0.01196,-0.98698,2023,6,12,14,14,8,103
0.18460,2.87000,-4.60250,0.00000,-0.00854,0.01110,-0.98491,2023,6,12,14,14,8,114
0.18470,3.02750,-4.55000,0.00000,-0.00915,0.01183,-0.98747,2023,6,12,14,14,8,125
0.18480,3.18500,-4.63750,0.00000,-0.01159,0.01171,-0.98710,2023,6,12,14,14,8,136
0.18490,3.06250,-4.70750,0.00000,-0.01086,0.01086,-0.98966,2023,6,12,14,14,8,147
0.18500,3.02750,-4.60250,0.00000,-0.01037,0.01183,-0.98796,2023,6,12,14,14,8,158
0.18510,3.01000,-4.48000,0.00000,-0.01110,0.01086,-0.98722,2023,6,12,14,14,8,169
0.18520,2.99250,-4.55000,0.00000,-0.01086,0.01122,-0.98625,2023,6,12,14,14,8,181
0.18530,3.06250,-4.53250,0.00000,-0.01110,0.01159,-0.98356,2023,6,12,14,14,8,192
0.18540,2.97500,-4.39250,0.00000,-0.01122,0.01061,-0.98771,2023,6,12,14,14,8,203
0.18550,2.99250,-4.51500,0.00000,-0.01159,0.01281,-0.98332,2023,6,12,14,14,8,214
0.18560,3.01000,-4.55000,0.00000,-0.00891,0.01086,-0.98649,2023,6,12,14,14,8,225
0.18570,2.94000,-4.56750,0.00000,-0.01086,0.01122,-0.99003,2023,6,12,14,14,8,236
0.18580,3.15000,-4.46250,0.00000,-0.00976,0.01257,-0.98454,2023,6,12,14,14,8,247
0.18590,2.99250,-4.74250,0.00000,-0.01171,0.01183,-0.98735,2023,6,12,14,14,8,258
0.18600,2.87000,-4.65500,0.00000,-0.01025,0.01061,-0.98808,2023,6,12,14,14,8,269
0.18610,3.04500,-4.72500,0.00000,-0.01061,0.01110,-0.98503,2023,6,12,14,14,8,281
0.18620,3.11500,-4.51500,0.00000,-0.01110,0.00964,-0.98564,2023,6,12,14,14,8,292
0.18630,3.11500,-4.63750,0.00000,-0.00903,0.01208,-0.98430,2023,6,12,14,14,8,303
0.18640,3.02750,-4.56750,0.00000,-0.01049,0.01196,-0.98832,2023,6,12,14,14,8,314
0.18650,3.09750,-4.55000,0.00000,-0.00964,0.01269,-0.98759,2023,6,12,14,14,8,325
0.18660,3.11500,-4.53250,0.00000,-0.01086,0.01354,-0.98722,2023,6,12,14,14,8,336
0.18670,3.11500,-4.67250,0.00000,-0.00903,0.01318,-0.98686,2023,6,12,14,14,8,347
0.18680,3.01000,-4.62000,0.00000,-0.01037,0.01061,-0.98539,2023,6,12,14,14,8,358
0.18690,3.01000,-4.39250,0.00000,-0.01000,0.01232,-0.98747,2023,6,12,14,14,8,369
0.18700,3.02750,-4.65500,0.00000,-0.01098,0.01171,-0.98759,2023,6,12,14,14,8,381
0.18710,2.99250,-4.65500,0.00000,-0.01110,0.00878,-0.98478,2023,6,12,14,14,8,392
0.18720,2.94000,-4.53250,0.00000,-0.01159,0.01147,-0.98649,2023,6,12,14,14,8,403
0.18730,2.99250,-4.76000,0.00000,-0.01183,0.01147,-0.98478,2023,6,12,14,14,8,414
0.18740,3.20250,-4.67250,0.00000,-0.01220,0.01354,-0.98783,2023,6,12,14,14,8,425
