#2023/06/12 16:02:32
time,wx,wy,wz,ax,ay,az,yy,MM,dd,hh,mm,ss,ms
0.00000,3.11500,-4.51500,0.00000,0.00317,0.04416,-0.99223,2023,6,12,16,2,32,50
0.00010,2.90500,-4.44500,0.00000,0.00622,0.04538,-0.98930,2023,6,12,16,2,32,61
0.00020,3.09750,-4.63750,0.00000,0.00378,0.04294,-0.99003,2023,6,12,16,2,32,72
0.00030,3.34250,-4.74250,0.00000,0.00573,0.04612,-0.98808,2023,6,12,16,2,32,83
0.00040,3.13250,-4.60250,0.00000,0.00586,0.04331,-0.98979,2023,6,12,16,2,32,94
0.00050,3.25500,-4.70750,0.00000,0.00561,0.04477,-0.98796,2023,6,12,16,2,32,105
0.00060,3.01000,-4.58500,0.00000,0.00549,0.04368,-0.98808,2023,6,12,16,2,32,116
0.00070,2.81750,-4.62000,0.00000,0.00403,0.04355,-0.98771,2023,6,12,16,2,32,127
0.00080,2.73000,-4.41000,0.00000,0.00488,0.04172,-0.98857,2023,6,12,16,2,32,138
0.00090,2.45000,-4.21750,0.00000,0.00439,0.04197,-0.98698,2023,6,12,16,2,32,150
0.00100,2.31000,-4.25250,0.00000,0.00390,0.04416,-0.98857,2023,6,12,16,2,32,161
0.00110,2.53750,-4.41000,0.00000,0.00634,0.04477,-0.98722,2023,6,12,16,2,32,172
0.00120,2.92250,-4.51500,0.00000,0.00561,0.04502,-0.98844,2023,6,12,16,2,32,183
0.00130,2.76500,-4.55000,0.00000,0.00549,0.04429,-0.98832,2023,6,12,16,2,32,194
0.00140,2.71250,-4.42750,0.00000,0.00622,0.04526,-0.98759,2023,6,12,16,2,32,205
0.00150,3.04500,-4.76000,0.00000,0.00439,0.04551,-0.98857,2023,6,12,16,2,32,216
0.00160,3.30750,-4.74250,0.00000,0.00476,0.04587,-0.98674,2023,6,12,16,2,32,227
0.00170,3.69250,-4.84750,0.00000,0.00561,0.04465,-0.98808,2023,6,12,16,2,32,238
0.00180,4.09500,-5.12750,0.00000,0.00464,0.04319,-0.98808,2023,6,12,16,2,32,250
0.00190,4.04250,-5.11000,0.00000,0.00500,0.04636,-0.98905,2023,6,12,16,2,32,261
0.00200,4.14750,-5.00500,0.00000,0.00561,0.04453,-0.98722,2023,6,12,16,2,32,272
0.00210,3.64000,-4.88250,0.00000,0.00525,0.04221,-0.98832,2023,6,12,16,2,32,283
0.00220,2.92250,-4.53250,0.00000,0.00598,0.04355,-0.98942,2023,6,12,16,2,32,294
0.00230,3.01000,-4.55000,0.00000,0.00415,0.04380,-0.98747,2023,6,12,16,2,32,305
0.00240,2.88750,-4.34000,0.00000,0.00451,0.04380,-0.98869,2023,6,12,16,2,32,316
0.00250,2.92250,-4.55000,0.00000,0.00512,0.04319,-0.99137,2023,6,12,16,2,32,327
0.00260,2.95750,-4.56750,0.00000,0.00403,0.04270,-0.99088,2023,6,12,16,2,32,338
0.00270,3.04500,-4.60250,0.00000,0.00439,0.04307,-0.98881,2023,6,12,16,2,32,349
0.00280,3.23750,-4.74250,0.00000,0.00427,0.04392,-0.98881,2023,6,12,16,2,32,361
0.00290,3.23750,-4.90000,0.00000,0.00586,0.04368,-0.98686,2023,6,12,16,2,32,372
0.00300,3.30750,-4.91750,0.00000,0.00561,0.04368,-0.98991,2023,6,12,16,2,32,383
0.00310,3.11500,-4.62000,0.00000,0.00622,0.04355,-0.98954,2023,6,12,16,2,32,394
0.00320,3.01000,-4.69000,0.00000,0.00439,0.04465,-0.99088,2023,6,12,16,2,32,405
0.00330,2.64250,-4.32250,0.00000,0.00354,0.04490,-0.98588,2023,6,12,16,2,32,416
0.00340,2.38000,-4.48000,0.00000,0.00525,0.04477,-0.98869,2023,6,12,16,2,32,427
0.00350,2.15250,-4.13000,0.00000,0.00403,0.04246,-0.98735,2023,6,12,16,2,32,438
0.00360,2.46750,-4.55000,0.00000,0.00744,0.04477,-0.99003,2023,6,12,16,2,32,449
0.00370,2.46750,-4.21750,0.00000,0.00537,0.04246,-0.98796,2023,6,12,16,2,32,461
0.00380,2.64250,-4.32250,0.00000,0.00439,0.04392,-0.98820,2023,6,12,16,2,32,472
0.00390,2.38000,-4.23500,0.00000,0.00549,0.04514,-0.99015,2023,6,12,16,2,32,483
0.00400,2.10000,-4.09500,0.00000,0.00439,0.04416,-0.99027,2023,6,12,16,2,32,494
0.00410,2.34500,-4.28750,0.00000,0.00488,0.04453,-0.98735,2023,6,12,16,2,32,505
0.00420,2.62500,-4.46250,0.00000,0.00598,0.04477,-0.98722,2023,6,12,16,2,32,516
0.00430,3.15000,-4.53250,0.00000,0.00366,0.04319,-0.98722,2023,6,12,16,2,32,527
0.00440,3.34250,-4.69000,0.00000,0.00427,0.04490,-0.98783,2023,6,12,16,2,32,538
0.00450,3.29000,-4.62000,0.00000,0.00659,0.04514,-0.98783,2023,6,12,16,2,32,549
0.00460,2.90500,-4.67250,0.00000,0.00549,0.04331,-0.98747,2023,6,12,16,2,32,561
0.00470,2.87000,-4.32250,0.00000,0.00500,0.04429,-0.98783,2023,6,12,16,2,32,572
0.00480,2.87000,-4.77750,0.00000,0.00659,0.04185,-0.98796,2023,6,12,16,2,32,583
0.00490,3.01000,-4.56750,0.00000,0.00390,0.04465,-0.99125,2023,6,12,16,2,32,594
0.00500,3.30750,-4.74250,0.00000,0.00598,0.04538,-0.98783,2023,6,12,16,2,32,605
0.00510,3.22000,-4.81250,0.00000,0.00390,0.04355,-0.98759,2023,6,12,16,2,32,616
0.00520,3.18500,-4.58500,0.00000,0.00390,0.04404,-0.98820,2023,6,12,16,2,32,627
0.00530,2.85250,-4.58500,0.00000,0.00512,0.04392,-0.98576,2023,6,12,16,2,32,638
0.00540,2.94000,-4.48000,0.00000,0.00403,0.04368,-0.98881,2023,6,12,16,2,32,649
0.00550,3.22000,-4.67250,0.00000,0.00561,0.04319,-0.98832,2023,6,12,16,2,32,661
0.00560,3.13250,-4.67250,0.00000,0.00439,0.04307,-0.98930,2023,6,12,16,2,32,672
0.00570,3.39500,-4.83000,0.00000,0.00439,0.04514,-0.99271,2023,6,12,16,2,32,683
0.00580,3.29000,-4.60250,0.00000,0.00366,0.04465,-0.98930,2023,6,12,16,2,32,694
0.00590,3.01000,-4.60250,0.00000,0.00488,0.04307,-0.98844,2023,6,12,16,2,32,705
0.00600,2.83500,-4.51500,0.00000,0.00317,0.04429,-0.98808,2023,6,12,16,2,32,716
0.00610,2.67750,-4.30500,0.00000,0.00610,0.04490,-0.98686,2023,6,12,16,2,32,727
0.00620,2.73000,-4.65500,0.00000,0.00549,0.04185,-0.98820,2023,6,12,16,2,32,738
0.00630,3.11500,-4.74250,0.00000,0.00329,0.04490,-0.98759,2023,6,12,16,2,32,749
0.00640,3.16750,-4.65500,0.00000,0.00512,0.04404,-0.98881,2023,6,12,16,2,32,761
0.00650,3.18500,-4.62000,0.00000,0.00378,0.04429,-0.98686,2023,6,12,16,2,32,772
0.00660,3.06250,-4.44500,0.00000,0.00403,0.04575,-0.98808,2023,6,12,16,2,32,783
0.00670,2.92250,-4.44500,0.00000,0.00525,0.04429,-0.98649,2023,6,12,16,2,32,794
0.00680,2.53750,-4.28750,0.00000,0.00366,0.04392,-0.98869,2023,6,12,16,2,32,805
0.00690,2.73000,-4.25250,0.00000,0.00586,0.04282,-0.99076,2023,6,12,16,2,32,816
0.00700,2.74750,-4.53250,0.00000,0.00561,0.04514,-0.98918,2023,6,12,16,2,32,827
0.00710,2.76500,-4.58500,0.00000,0.00439,0.04441,-0.98857,2023,6,12,16,2,32,838
0.00720,2.97500,-4.49750,0.00000,0.00427,0.04270,-0.98771,2023,6,12,16,2,32,849
0.00730,3.09750,-4.67250,0.00000,0.00525,0.04514,-0.99003,2023,6,12,16,2,32,861
0.00740,3.20250,-4.51500,0.00000,0.00512,0.04294,-0.98649,2023,6,12,16,2,32,872
0.00750,3.15000,-4.69000,0.00000,0.00329,0.04563,-0.98918,2023,6,12,16,2,32,883
0.00760,3.06250,-4.58500,0.00000,0.00439,0.04343,-0.98747,2023,6,12,16,2,32,894
0.00770,2.59000,-4.46250,0.00000,0.00549,0.04538,-0.99015,2023,6,12,16,2,32,905
0.00780,2.45000,-4.02500,0.00000,0.00622,0.04368,-0.98979,2023,6,12,16,2,32,916
0.00790,2.64250,-4.49750,0.00000,0.00695,0.04185,-0.98954,2023,6,12,16,2,32,927
0.00800,2.73000,-4.39250,0.00000,0.00525,0.04404,-0.98710,2023,6,12,16,2,32,938
0.00810,2.78250,-4.60250,0.00000,0.00366,0.04294,-0.98832,2023,6,12,16,2,32,949
0.00820,2.80000,-4.35750,0.00000,0.00610,0.04294,-0.99076,2023,6,12,16,2,32,961
0.00830,2.97500,-4.81250,0.00000,0.00488,0.04490,-0.98552,2023,6,12,16,2,32,972
0.00840,3.02750,-4.56750,0.00000,0.00622,0.04490,-0.98783,2023,6,12,16,2,32,983
0.00850,3.08000,-4.49750,0.00000,0.00354,0.04355,-0.98881,2023,6,12,16,2,32,994
0.00860,3.37750,-4.91750,0.00000,0.00427,0.04416,-0.98796,2023,6,12,16,2,32,5
0.00870,3.06250,-4.91750,0.00000,0.00659,0.04465,-0.98881,2023,6,12,16,2,32,16
0.00880,2.85250,-4.46250,0.00000,0.00525,0.04538,-0.99052,2023,6,12,16,2,32,27
0.00890,2.87000,-4.74250,0.00000,0.00537,0.04258,-0.98918,2023,6,12,16,2,32,38
0.00900,3.01000,-4.72500,0.00000,0.00488,0.04185,-0.99015,2023,6,12,16,2,32,49
0.00910,2.59000,-4.55000,0.00000,0.00403,0.04343,-0.98808,2023,6,12,16,2,32,61
0.00920,2.74750,-4.53250,0.00000,0.00427,0.04441,-0.98930,2023,6,12,16,2,32,72
0.00930,3.09750,-4.65500,0.00000,0.00415,0.04380,-0.98747,2023,6,12,16,2,32,83
0.00940,3.01000,-4.62000,0.00000,0.00622,0.04538,-0.98722,2023,6,12,16,2,32,94
0.00950,2.92250,-4.72500,0.00000,0.00427,0.04563,-0.98722,2023,6,12,16,2,32,105
0.00960,3.15000,-4.62000,0.00000,0.00476,0.04587,-0.99015,2023,6,12,16,2,32,116
0.00970,2.97500,-4.69000,0.00000,0.00647,0.04477,-0.98966,2023,6,12,16,2,32,127
0.00980,2.97500,-4.58500,0.00000,0.00415,0.04453,-0.98954,2023,6,12,16,2,32,138
0.00990,3.01000,-4.62000,0.00000,0.00476,0.04453,-0.98918,2023,6,12,16,2,32,149
0.01000,3.04500,-4.63750,0.00000,0.00512,0.04294,-0.98905,2023,6,12,16,2,32,161
0.01010,3.13250,-4.69000,0.00000,0.00500,0.04343,-0.99064,2023,6,12,16,2,32,172
0.01020,2.71250,-4.42750,0.00000,0.00329,0.04380,-0.98649,2023,6,12,16,2,32,183
0.01030,2.74750,-4.32250,0.00000,0.00525,0.04612,-0.98954,2023,6,12,16,2,32,194
0.01040,2.39750,-4.04250,0.00000,0.00549,0.04368,-0.99052,2023,6,12,16,2,32,205
0.01050,2.18750,-4.16500,0.00000,0.00476,0.04319,-0.99040,2023,6,12,16,2,32,216
0.01060,2.53750,-4.42750,0.00000,0.00512,0.04465,-0.98722,2023,6,12,16,2,32,227
0.01070,2.66000,-4.55000,0.00000,0.00512,0.04392,-0.98771,2023,6,12,16,2,32,238
0.01080,2.73000,-4.46250,0.00000,0.00634,0.04538,-0.98942,2023,6,12,16,2,32,249
0.01090,2.90500,-4.62000,0.00000,0.00610,0.04380,-0.98771,2023,6,12,16,2,32,261
0.01100,3.11500,-4.53250,0.00000,0.00476,0.04453,-0.98747,2023,6,12,16,2,32,272
0.01110,3.25500,-4.65500,0.00000,0.00573,0.04453,-0.98747,2023,6,12,16,2,32,283
0.01120,3.41250,-4.76000,0.00000,0.00451,0.04416,-0.98844,2023,6,12,16,2,32,294
0.01130,3.02750,-4.65500,0.00000,0.00403,0.04392,-0.99308,2023,6,12,16,2,33,5
0.01140,2.83500,-4.44500,0.00000,0.00622,0.04538,-0.98881,2023,6,12,16,2,33,16
0.01150,2.81750,-4.53250,0.00000,0.00586,0.04416,-0.99137,2023,6,12,16,2,33,27
0.01160,3.18500,-4.56750,0.00000,0.00586,0.04709,-0.98735,2023,6,12,16,2,33,38
0.01170,3.29000,-4.62000,0.00000,0.00659,0.04892,-0.98735,2023,6,12,16,2,33,49
0.01180,3.22000,-4.53250,0.00000,0.00464,0.04404,-0.98783,2023,6,12,16,2,33,61
0.01190,3.30750,-4.70750,0.00000,0.00317,0.04526,-0.98783,2023,6,12,16,2,33,72
0.01200,3.02750,-4.56750,0.00000,0.00476,0.04319,-0.98674,2023,6,12,16,2,33,83
0.01210,3.02750,-4.53250,0.00000,0.00342,0.04282,-0.98844,2023,6,12,16,2,33,94
0.01220,3.32500,-4.72500,0.00000,0.00464,0.04599,-0.98881,2023,6,12,16,2,33,105
0.01230,3.18500,-4.53250,0.00000,0.00549,0.04368,-0.98796,2023,6,12,16,2,33,116
0.01240,3.37750,-4.77750,0.00000,0.00500,0.04514,-0.99088,2023,6,12,16,2,33,127
0.01250,3.34250,-4.55000,0.00000,0.00354,0.04599,-0.98869,2023,6,12,16,2,33,138
0.01260,3.34250,-4.79500,0.00000,0.00476,0.04502,-0.98832,2023,6,12,16,2,33,149
0.01270,3.20250,-4.79500,0.00000,0.00427,0.04404,-0.99137,2023,6,12,16,2,33,161
0.01280,2.83500,-4.42750,0.00000,0.00488,0.04331,-0.99003,2023,6,12,16,2,33,172
0.01290,2.62500,-4.49750,0.00000,0.00329,0.04502,-0.98893,2023,6,12,16,2,33,183
0.01300,2.64250,-4.35750,0.00000,0.00427,0.04307,-0.98698,2023,6,12,16,2,33,194
0.01310,3.04500,-4.56750,0.00000,0.00354,0.04416,-0.99003,2023,6,12,16,2,33,205
0.01320,2.95750,-4.51500,0.00000,0.00610,0.04233,-0.98942,2023,6,12,16,2,33,216
0.01330,3.34250,-4.79500,0.00000,0.00390,0.04392,-0.98747,2023,6,12,16,2,33,227
0.01340,3.18500,-4.48000,0.00000,0.00403,0.04429,-0.98735,2023,6,12,16,2,33,238
0.01350,3.30750,-4.60250,0.00000,0.00732,0.04063,-0.99015,2023,6,12,16,2,33,249
0.01360,2.95750,-4.62000,0.00000,0.00403,0.04319,-0.98991,2023,6,12,16,2,33,261
0.01370,2.59000,-4.39250,0.00000,0.00427,0.04331,-0.98966,2023,6,12,16,2,33,272
0.01380,2.50250,-4.35750,0.00000,0.00427,0.04270,-0.99076,2023,6,12,16,2,33,283
0.01390,2.48500,-4.25250,0.00000,0.00586,0.04526,-0.98759,2023,6,12,16,2,33,294
0.01400,2.55500,-4.56750,0.00000,0.00366,0.04514,-0.98698,2023,6,12,16,2,33,305
0.01410,2.55500,-4.37500,0.00000,0.00500,0.04355,-0.99027,2023,6,12,16,2,33,316
0.01420,2.64250,-4.20000,0.00000,0.00427,0.04294,-0.98869,2023,6,12,16,2,33,327
0.01430,2.59000,-4.32250,0.00000,0.00537,0.04599,-0.99052,2023,6,12,16,2,33,338
0.01440,2.32750,-4.20000,0.00000,0.00537,0.04502,-0.99162,2023,6,12,16,2,33,349
0.01450,2.34500,-4.28750,0.00000,0.00439,0.04392,-0.98637,2023,6,12,16,2,33,361
0.01460,2.08250,-4.16500,0.00000,0.00561,0.04477,-0.98857,2023,6,12,16,2,33,372
0.01470,1.97750,-3.99000,0.00000,0.00439,0.04563,-0.98857,2023,6,12,16,2,33,383
0.01480,2.73000,-4.39250,0.00000,0.00451,0.04709,-0.98893,2023,6,12,16,2,33,394
0.01490,2.78250,-4.39250,0.00000,0.00512,0.04551,-0.98698,2023,6,12,16,2,33,405
0.01500,3.39500,-4.72500,0.00000,0.00464,0.04575,-0.99113,2023,6,12,16,2,33,416
0.01510,3.60500,-4.79500,0.00000,0.00634,0.04331,-0.98820,2023,6,12,16,2,33,427
0.01520,3.46500,-4.69000,0.00000,0.00512,0.04404,-0.99052,2023,6,12,16,2,33,438
0.01530,3.30750,-4.77750,0.00000,0.00622,0.04429,-0.99003,2023,6,12,16,2,33,449
0.01540,2.87000,-4.44500,0.00000,0.00488,0.04502,-0.99101,2023,6,12,16,2,33,461
0.01550,2.32750,-4.06000,0.00000,0.00464,0.04282,-0.98991,2023,6,12,16,2,33,472
0.01560,1.89000,-3.97250,0.00000,0.00378,0.04612,-0.98881,2023,6,12,16,2,33,483
0.01570,2.10000,-4.06000,0.00000,0.00598,0.04685,-0.98588,2023,6,12,16,2,33,494
0.01580,2.41500,-4.37500,0.00000,0.00549,0.04453,-0.98649,2023,6,12,16,2,33,505
0.01590,2.71250,-4.37500,0.00000,0.00512,0.04575,-0.98820,2023,6,12,16,2,33,516
0.01600,2.85250,-4.53250,0.00000,0.00561,0.04624,-0.98930,2023,6,12,16,2,33,527
0.01610,2.92250,-4.70750,0.00000,0.00769,0.04758,-0.98832,2023,6,12,16,2,33,538
0.01620,2.90500,-4.69000,0.00000,0.00573,0.04441,-0.98918,2023,6,12,16,2,33,549
0.01630,3.09750,-4.58500,0.00000,0.00622,0.04392,-0.99015,2023,6,12,16,2,33,561
0.01640,2.95750,-4.48000,0.00000,0.00427,0.04465,-0.98735,2023,6,12,16,2,33,572
0.01650,3.90250,-5.04000,0.00000,0.00378,0.04307,-0.98808,2023,6,12,16,2,33,583
0.01660,3.76250,-4.79500,0.00000,0.00403,0.04246,-0.98844,2023,6,12,16,2,33,594
0.01670,3.78000,-4.72500,0.00000,0.00439,0.04477,-0.99186,2023,6,12,16,2,33,605
0.01680,3.39500,-4.86500,0.00000,0.00525,0.04477,-0.99076,2023,6,12,16,2,33,616
0.01690,2.81750,-4.49750,0.00000,0.00488,0.04563,-0.98820,2023,6,12,16,2,33,627
0.01700,2.59000,-4.39250,0.00000,0.00732,0.04416,-0.99162,2023,6,12,16,2,33,638
0.01710,2.04750,-4.00750,0.00000,0.00427,0.04575,-0.98991,2023,6,12,16,2,33,649
0.01720,1.90750,-4.13000,0.00000,0.00634,0.04551,-0.98783,2023,6,12,16,2,33,661
0.01730,2.01250,-3.99000,0.00000,0.00415,0.04514,-0.99027,2023,6,12,16,2,33,672
0.01740,2.48500,-4.46250,0.00000,0.00427,0.04453,-0.98954,2023,6,12,16,2,33,683
0.01750,2.90500,-4.48000,0.00000,0.00512,0.04575,-0.98905,2023,6,12,16,2,33,694
0.01760,3.08000,-4.79500,0.00000,0.00708,0.04575,-0.99052,2023,6,12,16,2,33,705
0.01770,3.27250,-4.79500,0.00000,0.00683,0.04697,-0.99040,2023,6,12,16,2,33,716
0.01780,3.04500,-4.62000,0.00000,0.00451,0.04209,-0.99052,2023,6,12,16,2,33,727
0.01790,3.01000,-4.53250,0.00000,0.00500,0.04538,-0.99125,2023,6,12,16,2,33,738
0.01800,2.87000,-4.41000,0.00000,0.00634,0.04490,-0.99174,2023,6,12,16,2,33,749
0.01810,3.18500,-4.65500,0.00000,0.00842,0.04319,-0.98942,2023,6,12,16,2,33,761
0.01820,2.99250,-4.46250,0.00000,0.00476,0.04429,-0.98735,2023,6,12,16,2,33,772
0.01830,3.06250,-4.62000,0.00000,0.00488,0.04526,-0.98869,2023,6,12,16,2,33,783
0.01840,3.13250,-4.69000,0.00000,0.00610,0.04502,-0.98722,2023,6,12,16,2,33,794
0.01850,2.85250,-4.58500,0.00000,0.00598,0.04551,-0.98832,2023,6,12,16,2,33,805
0.01860,5.51250,-5.93250,0.00000,-0.00073,0.03636,-1.00674,2023,6,12,16,2,33,816
0.01870,2.71250,-4.55000,0.00000,0.00793,0.04856,-0.98283,2023,6,12,16,2,33,827
0.01880,3.18500,-4.65500,0.00000,0.00342,0.04221,-0.99137,2023,6,12,16,2,33,838
0.01890,2.73000,-4.60250,0.00000,0.00366,0.04307,-0.99418,2023,6,12,16,2,33,849
0.01900,2.43250,-4.16500,0.00000,0.00512,0.04709,-0.98905,2023,6,12,16,2,33,861
0.01910,2.29250,-4.28750,0.00000,0.00354,0.04416,-0.98893,2023,6,12,16,2,33,872
0.01920,2.53750,-4.44500,0.00000,0.00647,0.04648,-0.98881,2023,6,12,16,2,33,883
0.01930,2.41500,-4.39250,0.00000,0.00622,0.04624,-0.99027,2023,6,12,16,2,33,894
0.01940,2.95750,-4.27000,0.00000,0.00573,0.04233,-0.98942,2023,6,12,16,2,33,905
0.01950,3.23750,-4.74250,0.00000,0.00561,0.04636,-0.98966,2023,6,12,16,2,33,916
0.01960,3.18500,-4.51500,0.00000,0.00659,0.04685,-0.98918,2023,6,12,16,2,33,927
0.01970,3.08000,-4.49750,0.00000,0.00561,0.04282,-0.98869,2023,6,12,16,2,33,938
0.01980,2.73000,-4.56750,0.00000,0.00256,0.04416,-0.99198,2023,6,12,16,2,33,949
0.01990,2.53750,-4.56750,0.00000,0.00720,0.04429,-0.98710,2023,6,12,16,2,33,961
0.02000,2.60750,-4.32250,0.00000,0.00610,0.04636,-0.98649,2023,6,12,16,2,33,972
0.02010,2.57250,-4.32250,0.00000,0.00647,0.04660,-0.99064,2023,6,12,16,2,34,3
0.02020,2.90500,-4.51500,0.00000,0.00586,0.04526,-0.98869,2023,6,12,16,2,34,14
0.02030,2.83500,-4.56750,0.00000,0.00537,0.04734,-0.99064,2023,6,12,16,2,34,25
0.02040,3.18500,-4.63750,0.00000,0.00720,0.04368,-0.98808,2023,6,12,16,2,34,36
0.02050,2.80000,-4.69000,0.00000,0.00354,0.04660,-0.99149,2023,6,12,16,2,34,47
0.02060,2.85250,-4.56750,0.00000,0.00390,0.04416,-0.99052,2023,6,12,16,2,34,58
0.02070,2.71250,-4.49750,0.00000,0.00732,0.04551,-0.98844,2023,6,12,16,2,34,69
0.02080,2.45000,-4.28750,0.00000,0.00561,0.04551,-0.98930,2023,6,12,16,2,34,81
0.02090,2.66000,-4.35750,0.00000,0.00525,0.04685,-0.99101,2023,6,12,16,2,34,92
0.02100,2.31000,-4.27000,0.00000,0.00720,0.04819,-0.98783,2023,6,12,16,2,34,103
0.02110,2.76500,-4.34000,0.00000,0.00488,0.04599,-0.99052,2023,6,12,16,2,34,114
0.02120,2.69500,-4.35750,0.00000,0.00586,0.04404,-0.99003,2023,6,12,16,2,34,125
0.02130,2.62500,-4.42750,0.00000,0.00537,0.04612,-0.98966,2023,6,12,16,2,34,136
0.02140,2.78250,-4.67250,0.00000,0.00561,0.04636,-0.98844,2023,6,12,16,2,34,147
0.02150,2.66000,-4.53250,0.00000,0.00830,0.04819,-0.98979,2023,6,12,16,2,34,158
0.02160,2.83500,-4.69000,0.00000,0.00769,0.04538,-0.98637,2023,6,12,16,2,34,169
0.02170,3.23750,-4.79500,0.00000,0.00525,0.04685,-0.99040,2023,6,12,16,2,34,181
0.02180,3.71000,-5.07500,0.00000,0.00659,0.04612,-0.99088,2023,6,12,16,2,34,192
0.02190,3.71000,-5.04000,0.00000,0.00537,0.04673,-0.99064,2023,6,12,16,2,34,203
0.02200,3.43000,-4.65500,0.00000,0.00537,0.04490,-0.98857,2023,6,12,16,2,34,214
0.02210,3.13250,-4.46250,0.00000,0.00671,0.04575,-0.99076,2023,6,12,16,2,34,225
0.02220,2.76500,-4.44500,0.00000,0.00769,0.04551,-0.98796,2023,6,12,16,2,34,236
0.02230,2.50250,-4.25250,0.00000,0.00634,0.04673,-0.99113,2023,6,12,16,2,34,247
0.02240,2.45000,-4.41000,0.00000,0.00708,0.04502,-0.98747,2023,6,12,16,2,34,258
0.02250,2.32750,-4.42750,0.00000,0.00561,0.04685,-0.98905,2023,6,12,16,2,34,269
0.02260,2.73000,-4.46250,0.00000,0.00769,0.04624,-0.99027,2023,6,12,16,2,34,281
0.02270,2.60750,-4.51500,0.00000,0.00634,0.04709,-0.99015,2023,6,12,16,2,34,292
0.02280,2.53750,-4.46250,0.00000,0.00598,0.04673,-0.98735,2023,6,12,16,2,34,303
0.02290,2.88750,-4.44500,0.00000,0.00525,0.04685,-0.98857,2023,6,12,16,2,34,314
0.02300,2.59000,-4.39250,0.00000,0.00610,0.04514,-0.99003,2023,6,12,16,2,34,325
0.02310,2.59000,-4.48000,0.00000,0.00842,0.04465,-0.98893,2023,6,12,16,2,34,336
0.02320,2.88750,-4.48000,0.00000,0.00561,0.04856,-0.98820,2023,6,12,16,2,34,347
0.02330,2.48500,-4.27000,0.00000,0.00671,0.04551,-0.98991,2023,6,12,16,2,34,358
0.02340,2.29250,-4.07750,0.00000,0.00525,0.04819,-0.98820,2023,6,12,16,2,34,369
0.02350,2.22250,-4.13000,0.00000,0.00598,0.04551,-0.98820,2023,6,12,16,2,34,381
0.02360,2.22250,-4.25250,0.00000,0.00622,0.04612,-0.99320,2023,6,12,16,2,34,392
0.02370,2.43250,-4.42750,0.00000,0.00561,0.04721,-0.98966,2023,6,12,16,2,34,403
0.02380,2.43250,-4.07750,0.00000,0.00854,0.04843,-0.98857,2023,6,12,16,2,34,414
0.02390,2.57250,-4.41000,0.00000,0.00403,0.04697,-0.99040,2023,6,12,16,2,34,425
0.02400,2.74750,-4.49750,0.00000,0.00586,0.04636,-0.98905,2023,6,12,16,2,34,436
0.02410,2.90500,-4.42750,0.00000,0.00671,0.04868,-0.99015,2023,6,12,16,2,34,447
0.02420,3.34250,-4.49750,0.00000,0.00488,0.04660,-0.98991,2023,6,12,16,2,34,458
0.02430,3.23750,-4.72500,0.00000,0.00732,0.04831,-0.98893,2023,6,12,16,2,34,469
0.02440,3.32500,-4.74250,0.00000,0.00708,0.04697,-0.99027,2023,6,12,16,2,34,481
0.02450,3.51750,-4.93500,0.00000,0.00732,0.04685,-0.98735,2023,6,12,16,2,34,492
0.02460,3.04500,-4.74250,0.00000,0.00622,0.04843,-0.98979,2023,6,12,16,2,34,503
0.02470,3.23750,-4.83000,0.00000,0.00744,0.04636,-0.99064,2023,6,12,16,2,34,514
0.02480,3.43000,-4.79500,0.00000,0.00586,0.04624,-0.99113,2023,6,12,16,2,34,525
0.02490,3.50000,-4.76000,0.00000,0.00634,0.04746,-0.98832,2023,6,12,16,2,34,536
0.02500,3.27250,-4.56750,0.00000,0.00500,0.04575,-0.99332,2023,6,12,16,2,34,547
0.02510,3.22000,-4.62000,0.00000,0.00622,0.04807,-0.99125,2023,6,12,16,2,34,558
0.02520,2.92250,-4.53250,0.00000,0.00573,0.04575,-0.99064,2023,6,12,16,2,34,569
0.02530,2.90500,-4.53250,0.00000,0.00830,0.04392,-0.98661,2023,6,12,16,2,34,581
0.02540,2.88750,-4.58500,0.00000,0.00659,0.04599,-0.99235,2023,6,12,16,2,34,592
0.02550,2.71250,-4.48000,0.00000,0.00744,0.04624,-0.99027,2023,6,12,16,2,34,603
0.02560,2.80000,-4.60250,0.00000,0.00634,0.04538,-0.98771,2023,6,12,16,2,34,614
0.02570,2.73000,-4.37500,0.00000,0.00451,0.04648,-0.99162,2023,6,12,16,2,34,625
0.02580,2.55500,-4.27000,0.00000,0.00561,0.04392,-0.98942,2023,6,12,16,2,34,636
0.02590,3.01000,-4.49750,0.00000,0.00854,0.04575,-0.98954,2023,6,12,16,2,34,647
0.02600,3.08000,-4.67250,0.00000,0.00586,0.04551,-0.99076,2023,6,12,16,2,34,658
0.02610,2.94000,-4.48000,0.00000,0.00647,0.04709,-0.98918,2023,6,12,16,2,34,669
0.02620,3.11500,-4.79500,0.00000,0.00842,0.04624,-0.99088,2023,6,12,16,2,34,681
0.02630,3.15000,-4.70750,0.00000,0.00525,0.04575,-0.98942,2023,6,12,16,2,34,692
0.02640,3.11500,-4.53250,0.00000,0.00586,0.04514,-0.99174,2023,6,12,16,2,34,703
0.02650,2.92250,-4.55000,0.00000,0.00464,0.04697,-0.99247,2023,6,12,16,2,34,714
0.02660,3.16750,-4.63750,0.00000,0.00500,0.04612,-0.98905,2023,6,12,16,2,34,725
0.02670,2.90500,-4.56750,0.00000,0.00854,0.04868,-0.99101,2023,6,12,16,2,34,736
0.02680,2.73000,-4.88250,0.00000,0.00610,0.04660,-0.99113,2023,6,12,16,2,34,747
0.02690,3.01000,-4.60250,0.00000,0.00793,0.04465,-0.98625,2023,6,12,16,2,34,758
0.02700,2.87000,-4.55000,0.00000,0.00622,0.04856,-0.98942,2023,6,12,16,2,34,769
0.02710,2.97500,-4.67250,0.00000,0.00720,0.04856,-0.98905,2023,6,12,16,2,34,781
0.02720,3.18500,-4.67250,0.00000,0.00756,0.04587,-0.98686,2023,6,12,16,2,34,792
0.02730,3.02750,-4.77750,0.00000,0.00561,0.04904,-0.98771,2023,6,12,16,2,34,803
0.02740,2.99250,-4.63750,0.00000,0.00647,0.04636,-0.99113,2023,6,12,16,2,34,814
0.02750,3.16750,-4.60250,0.00000,0.00525,0.04575,-0.99064,2023,6,12,16,2,34,825
0.02760,3.13250,-4.69000,0.00000,0.00586,0.04673,-0.98918,2023,6,12,16,2,34,836
0.02770,3.32500,-4.56750,0.00000,0.00647,0.04770,-0.99052,2023,6,12,16,2,34,847
0.02780,3.13250,-4.69000,0.00000,0.00695,0.04868,-0.98832,2023,6,12,16,2,34,858
0.02790,2.64250,-4.63750,0.00000,0.00744,0.04404,-0.99174,2023,6,12,16,2,34,869
0.02800,2.60750,-4.55000,0.00000,0.00622,0.04612,-0.99137,2023,6,12,16,2,34,881
0.02810,2.78250,-4.42750,0.00000,0.00830,0.04441,-0.99015,2023,6,12,16,2,34,892
0.02820,3.06250,-4.65500,0.00000,0.00610,0.04734,-0.99198,2023,6,12,16,2,34,903
0.02830,3.51750,-4.58500,0.00000,0.00573,0.04612,-0.99052,2023,6,12,16,2,34,914
0.02840,3.76250,-5.02250,0.00000,0.00512,0.04636,-0.99027,2023,6,12,16,2,34,925
0.02850,3.97250,-5.02250,0.00000,0.00647,0.04770,-0.99149,2023,6,12,16,2,34,936
0.02860,3.79750,-4.93500,0.00000,0.00525,0.04587,-0.98844,2023,6,12,16,2,34,947
0.02870,2.99250,-4.46250,0.00000,0.00756,0.04538,-0.99101,2023,6,12,16,2,34,958
0.02880,2.59000,-4.41000,0.00000,0.00695,0.04575,-0.99015,2023,6,12,16,2,34,969
0.02890,2.10000,-4.18250,0.00000,0.00342,0.04490,-0.98808,2023,6,12,16,2,35,1
0.02900,1.80250,-3.92000,0.00000,0.00415,0.04429,-0.98905,2023,6,12,16,2,35,12
0.02910,2.27500,-4.09500,0.00000,0.00720,0.04843,-0.99113,2023,6,12,16,2,35,23
0.02920,2.76500,-4.51500,0.00000,0.00622,0.04538,-0.98832,2023,6,12,16,2,35,34
0.02930,2.97500,-4.62000,0.00000,0.00549,0.04795,-0.98808,2023,6,12,16,2,35,45
0.02940,3.09750,-4.60250,0.00000,0.00586,0.04538,-0.98991,2023,6,12,16,2,35,56
0.02950,3.18500,-4.69000,0.00000,0.00793,0.04636,-0.99052,2023,6,12,16,2,35,67
0.02960,3.16750,-4.74250,0.00000,0.00732,0.04599,-0.98930,2023,6,12,16,2,35,78
0.02970,2.76500,-4.48000,0.00000,0.00573,0.04599,-0.99015,2023,6,12,16,2,35,89
0.02980,2.85250,-4.48000,0.00000,0.00647,0.04526,-0.98918,2023,6,12,16,2,35,101
0.02990,2.85250,-4.42750,0.00000,0.00634,0.04526,-0.98930,2023,6,12,16,2,35,112
0.03000,2.53750,-4.20000,0.00000,0.00537,0.04551,-0.99235,2023,6,12,16,2,35,123
0.03010,2.46750,-4.25250,0.00000,0.00512,0.04453,-0.98808,2023,6,12,16,2,35,134
0.03020,2.46750,-4.32250,0.00000,0.00720,0.04404,-0.98991,2023,6,12,16,2,35,145
0.03030,2.38000,-4.23500,0.00000,0.00500,0.04807,-0.99101,2023,6,12,16,2,35,156
0.03040,2.53750,-4.27000,0.00000,0.00732,0.04904,-0.98930,2023,6,12,16,2,35,167
0.03050,2.83500,-4.58500,0.00000,0.00598,0.04636,-0.99088,2023,6,12,16,2,35,178
0.03060,2.80000,-4.41000,0.00000,0.00720,0.04807,-0.98844,2023,6,12,16,2,35,189
0.03070,2.81750,-4.65500,0.00000,0.00683,0.04538,-0.98759,2023,6,12,16,2,35,201
0.03080,2.87000,-4.53250,0.00000,0.00354,0.04709,-0.98759,2023,6,12,16,2,35,212
0.03090,2.73000,-4.42750,0.00000,0.00903,0.04965,-0.98844,2023,6,12,16,2,35,223
0.03100,2.87000,-4.58500,0.00000,0.00439,0.04538,-0.98991,2023,6,12,16,2,35,234
0.03110,2.87000,-4.51500,0.00000,0.00695,0.04856,-0.99223,2023,6,12,16,2,35,245
0.03120,2.80000,-4.83000,0.00000,0.00610,0.04551,-0.98893,2023,6,12,16,2,35,256
0.03130,3.04500,-4.65500,0.00000,0.00561,0.04831,-0.99125,2023,6,12,16,2,35,267
0.03140,3.15000,-4.84750,0.00000,0.00647,0.04563,-0.99076,2023,6,12,16,2,35,278
0.03150,3.09750,-4.60250,0.00000,0.00647,0.04721,-0.99064,2023,6,12,16,2,35,289
0.03160,3.06250,-4.42750,0.00000,0.00561,0.04782,-0.99162,2023,6,12,16,2,35,301
0.03170,2.76500,-4.44500,0.00000,0.00769,0.04782,-0.98710,2023,6,12,16,2,35,312
0.03180,2.50250,-4.25250,0.00000,0.00683,0.04575,-0.99076,2023,6,12,16,2,35,323
0.03190,2.74750,-4.37500,0.00000,0.00805,0.04917,-0.98820,2023,6,12,16,2,35,334
0.03200,3.11500,-4.84750,0.00000,0.00427,0.04721,-0.98686,2023,6,12,16,2,35,345
0.03210,2.92250,-4.62000,0.00000,0.00817,0.04758,-0.98832,2023,6,12,16,2,35,356
0.03220,3.41250,-4.77750,0.00000,0.00708,0.04746,-0.98869,2023,6,12,16,2,35,367
0.03230,3.22000,-4.76000,0.00000,0.00647,0.04612,-0.99149,2023,6,12,16,2,35,378
0.03240,3.13250,-4.70750,0.00000,0.00512,0.04612,-0.99015,2023,6,12,16,2,35,389
0.03250,2.95750,-4.60250,0.00000,0.00573,0.04624,-0.99101,2023,6,12,16,2,35,401
0.03260,2.99250,-4.58500,0.00000,0.00854,0.04551,-0.98881,2023,6,12,16,2,35,412
0.03270,3.30750,-4.72500,0.00000,0.00744,0.04648,-0.98564,2023,6,12,16,2,35,423
0.03280,3.36000,-4.83000,0.00000,0.00647,0.04575,-0.98991,2023,6,12,16,2,35,434
0.03290,3.27250,-4.70750,0.00000,0.00537,0.04831,-0.98820,2023,6,12,16,2,35,445
0.03300,3.41250,-4.65500,0.00000,0.00488,0.04624,-0.98759,2023,6,12,16,2,35,456
0.03310,3.18500,-4.60250,0.00000,0.00708,0.04624,-0.98930,2023,6,12,16,2,35,467
0.03320,3.15000,-4.58500,0.00000,0.00634,0.04673,-0.98881,2023,6,12,16,2,35,478
0.03330,2.88750,-4.65500,0.00000,0.00573,0.04648,-0.99088,2023,6,12,16,2,35,489
0.03340,2.60750,-4.60250,0.00000,0.00695,0.04636,-0.99088,2023,6,12,16,2,35,501
0.03350,2.66000,-4.58500,0.00000,0.00586,0.04941,-0.98722,2023,6,12,16,2,35,512
0.03360,2.94000,-4.63750,0.00000,0.00573,0.04807,-0.98942,2023,6,12,16,2,35,523
0.03370,2.90500,-4.44500,0.00000,0.00598,0.04612,-0.98857,2023,6,12,16,2,35,534
0.03380,3.29000,-4.62000,0.00000,0.00598,0.04429,-0.98552,2023,6,12,16,2,35,545
0.03390,3.22000,-4.51500,0.00000,0.00769,0.04343,-0.99064,2023,6,12,16,2,35,556
0.03400,3.20250,-4.79500,0.00000,0.00549,0.04721,-0.99076,2023,6,12,16,2,35,567
0.03410,2.99250,-4.53250,0.00000,0.00488,0.04477,-0.98808,2023,6,12,16,2,35,578
0.03420,3.04500,-4.53250,0.00000,0.00708,0.04490,-0.98905,2023,6,12,16,2,35,589
0.03430,3.04500,-4.74250,0.00000,0.00830,0.04587,-0.98783,2023,6,12,16,2,35,601
0.03440,2.69500,-4.53250,0.00000,0.00866,0.04892,-0.98844,2023,6,12,16,2,35,612
0.03450,2.78250,-4.39250,0.00000,0.00720,0.04453,-0.98954,2023,6,12,16,2,35,623
0.03460,2.80000,-4.49750,0.00000,0.00488,0.04734,-0.98966,2023,6,12,16,2,35,634
0.03470,3.09750,-4.51500,0.00000,0.00683,0.04673,-0.98954,2023,6,12,16,2,35,645
0.03480,2.85250,-4.46250,0.00000,0.00561,0.04514,-0.98808,2023,6,12,16,2,35,656
0.03490,2.66000,-4.63750,0.00000,0.00488,0.04721,-0.98527,2023,6,12,16,2,35,667
0.03500,2.90500,-4.65500,0.00000,0.00573,0.04904,-0.98796,2023,6,12,16,2,35,678
0.03510,2.92250,-4.60250,0.00000,0.00708,0.04990,-0.98771,2023,6,12,16,2,35,689
0.03520,3.64000,-4.84750,0.00000,0.00671,0.04685,-0.98893,2023,6,12,16,2,35,701
0.03530,3.71000,-4.86500,0.00000,0.00756,0.04526,-0.99064,2023,6,12,16,2,35,712
0.03540,3.90250,-5.23250,0.00000,0.00708,0.04502,-0.99088,2023,6,12,16,2,35,723
0.03550,3.85000,-5.11000,0.00000,0.00573,0.04551,-0.98735,2023,6,12,16,2,35,734
0.03560,3.44750,-4.93500,0.00000,0.00622,0.04538,-0.99149,2023,6,12,16,2,35,745
0.03570,2.69500,-4.55000,0.00000,0.00586,0.04392,-0.99064,2023,6,12,16,2,35,756
0.03580,2.10000,-4.34000,0.00000,0.00708,0.04502,-0.99052,2023,6,12,16,2,35,767
0.03590,2.15250,-4.30500,0.00000,0.00732,0.04660,-0.99015,2023,6,12,16,2,35,778
0.03600,2.43250,-4.53250,0.00000,0.00512,0.04709,-0.98881,2023,6,12,16,2,35,789
0.03610,2.94000,-4.56750,0.00000,0.00464,0.04502,-0.98783,2023,6,12,16,2,35,801
0.03620,3.22000,-4.81250,0.00000,0.00537,0.04599,-0.98722,2023,6,12,16,2,35,812
0.03630,3.64000,-4.70750,0.00000,0.00610,0.04636,-0.98796,2023,6,12,16,2,35,823
0.03640,3.58750,-4.86500,0.00000,0.00598,0.04563,-0.98979,2023,6,12,16,2,35,834
0.03650,3.48250,-5.04000,0.00000,0.00586,0.04673,-0.99162,2023,6,12,16,2,35,845
0.03660,3.15000,-4.65500,0.00000,0.00598,0.04648,-0.98893,2023,6,12,16,2,35,856
0.03670,2.81750,-4.51500,0.00000,0.00451,0.04697,-0.98783,2023,6,12,16,2,35,867
0.03680,2.87000,-4.53250,0.00000,0.00671,0.04648,-0.99052,2023,6,12,16,2,35,878
0.03690,2.66000,-4.49750,0.00000,0.00329,0.04648,-0.98735,2023,6,12,16,2,35,889
0.03700,2.74750,-4.35750,0.00000,0.00622,0.04416,-0.98686,2023,6,12,16,2,35,901
0.03710,2.76500,-4.67250,0.00000,0.00464,0.04465,-0.98979,2023,6,12,16,2,35,912
0.03720,2.88750,-4.42750,0.00000,0.00610,0.04673,-0.98954,2023,6,12,16,2,35,923
0.03730,2.62500,-4.28750,0.00000,0.00598,0.04685,-0.98747,2023,6,12,16,2,35,934
0.03740,2.81750,-4.44500,0.00000,0.00610,0.04392,-0.99015,2023,6,12,16,2,35,945
0.03750,2.83500,-4.35750,0.00000,0.00598,0.04734,-0.98844,2023,6,12,16,2,35,956
0.03760,2.53750,-4.21750,0.00000,0.00512,0.04599,-0.98893,2023,6,12,16,2,36,7
0.03770,3.02750,-4.53250,0.00000,0.00744,0.04587,-0.98576,2023,6,12,16,2,36,18
0.03780,3.11500,-5.02250,0.00000,0.00610,0.04709,-0.99027,2023,6,12,16,2,36,29
0.03790,3.37750,-4.91750,0.00000,0.00622,0.04514,-0.98722,2023,6,12,16,2,36,41
0.03800,3.64000,-4.72500,0.00000,0.00781,0.04538,-0.99015,2023,6,12,16,2,36,52
0.03810,3.20250,-4.63750,0.00000,0.00537,0.04709,-0.98649,2023,6,12,16,2,36,63
0.03820,3.27250,-4.72500,0.00000,0.00464,0.04575,-0.98808,2023,6,12,16,2,36,74
0.03830,3.09750,-4.86500,0.00000,0.00610,0.04563,-0.98954,2023,6,12,16,2,36,85
0.03840,3.30750,-4.83000,0.00000,0.00549,0.04490,-0.98710,2023,6,12,16,2,36,96
0.03850,3.08000,-4.58500,0.00000,0.00573,0.04392,-0.98661,2023,6,12,16,2,36,107
0.03860,2.90500,-4.60250,0.00000,0.00842,0.04563,-0.98991,2023,6,12,16,2,36,118
0.03870,3.55250,-4.77750,0.00000,0.00525,0.04795,-0.98857,2023,6,12,16,2,36,129
0.03880,3.48250,-4.86500,0.00000,0.00610,0.04551,-0.98942,2023,6,12,16,2,36,141
0.03890,3.32500,-4.77750,0.00000,0.00695,0.04453,-0.98478,2023,6,12,16,2,36,152
0.03900,3.30750,-4.76000,0.00000,0.00561,0.04575,-0.98942,2023,6,12,16,2,36,163
0.03910,3.23750,-4.72500,0.00000,0.00451,0.04587,-0.98844,2023,6,12,16,2,36,174
0.03920,3.04500,-4.46250,0.00000,0.00561,0.04538,-0.99247,2023,6,12,16,2,36,185
0.03930,2.85250,-4.42750,0.00000,0.00598,0.04368,-0.99064,2023,6,12,16,2,36,196
0.03940,3.04500,-4.42750,0.00000,0.00268,0.04404,-0.99125,2023,6,12,16,2,36,207
0.03950,3.04500,-4.49750,0.00000,0.00403,0.04660,-0.99015,2023,6,12,16,2,36,218
0.03960,2.88750,-4.34000,0.00000,0.00634,0.04441,-0.98893,2023,6,12,16,2,36,229
0.03970,2.92250,-4.44500,0.00000,0.00537,0.04563,-0.99027,2023,6,12,16,2,36,241
0.03980,2.94000,-4.49750,0.00000,0.00500,0.04477,-0.98869,2023,6,12,16,2,36,252
0.03990,2.83500,-4.42750,0.00000,0.00464,0.04380,-0.99040,2023,6,12,16,2,36,263
0.04000,2.85250,-4.42750,0.00000,0.00293,0.04404,-0.98759,2023,6,12,16,2,36,274
0.04010,2.97500,-4.44500,0.00000,0.00439,0.04575,-0.98893,2023,6,12,16,2,36,285
0.04020,2.85250,-4.49750,0.00000,0.00634,0.04453,-0.98991,2023,6,12,16,2,36,296
0.04030,3.04500,-4.72500,0.00000,0.00525,0.04514,-0.98869,2023,6,12,16,2,36,307
0.04040,3.02750,-4.58500,0.00000,0.00610,0.04526,-0.98808,2023,6,12,16,2,36,318
0.04050,2.95750,-4.46250,0.00000,0.00207,0.04526,-0.99040,2023,6,12,16,2,36,329
0.04060,2.99250,-4.62000,0.00000,0.00622,0.04563,-0.98722,2023,6,12,16,2,36,341
0.04070,3.04500,-4.41000,0.00000,0.00488,0.04575,-0.98686,2023,6,12,16,2,36,352
0.04080,2.66000,-4.49750,0.00000,0.00403,0.04380,-0.98808,2023,6,12,16,2,36,363
0.04090,2.53750,-4.27000,0.00000,0.00525,0.04392,-0.98710,2023,6,12,16,2,36,374
0.04100,2.55500,-4.46250,0.00000,0.00586,0.04404,-0.98905,2023,6,12,16,2,36,385
0.04110,2.46750,-4.25250,0.00000,0.00561,0.04477,-0.98649,2023,6,12,16,2,36,396
0.04120,2.45000,-4.25250,0.00000,0.00683,0.04673,-0.98747,2023,6,12,16,2,36,407
0.04130,2.45000,-4.20000,0.00000,0.00573,0.04551,-0.99040,2023,6,12,16,2,36,418
0.04140,2.60750,-4.62000,0.00000,0.00598,0.04599,-0.98905,2023,6,12,16,2,36,429
0.04150,2.73000,-4.67250,0.00000,0.00610,0.04526,-0.98625,2023,6,12,16,2,36,441
0.04160,2.95750,-4.60250,0.00000,0.00634,0.04660,-0.99210,2023,6,12,16,2,36,452
0.04170,3.37750,-4.95250,0.00000,0.00537,0.04660,-0.98966,2023,6,12,16,2,36,463
0.04180,3.20250,-4.76000,0.00000,0.00451,0.04685,-0.99015,2023,6,12,16,2,36,474
0.04190,3.55250,-4.97000,0.00000,0.00817,0.04734,-0.98527,2023,6,12,16,2,36,485
0.04200,3.83250,-4.84750,0.00000,0.00415,0.04599,-0.98881,2023,6,12,16,2,36,496
0.04210,3.69250,-4.90000,0.00000,0.00500,0.04514,-0.98710,2023,6,12,16,2,36,507
0.04220,3.15000,-4.63750,0.00000,0.00549,0.04636,-0.98930,2023,6,12,16,2,36,518
0.04230,2.94000,-4.51500,0.00000,0.00500,0.04697,-0.98905,2023,6,12,16,2,36,529
0.04240,2.53750,-4.16500,0.00000,0.00537,0.04514,-0.98869,2023,6,12,16,2,36,541
0.04250,2.55500,-4.34000,0.00000,0.00512,0.04258,-0.98625,2023,6,12,16,2,36,552
0.04260,2.67750,-4.51500,0.00000,0.00329,0.04453,-0.99052,2023,6,12,16,2,36,563
0.04270,3.04500,-4.70750,0.00000,0.00464,0.04490,-0.98747,2023,6,12,16,2,36,574
0.04280,3.23750,-4.56750,0.00000,0.00561,0.04660,-0.98832,2023,6,12,16,2,36,585
0.04290,2.92250,-4.62000,0.00000,0.00525,0.04294,-0.98905,2023,6,12,16,2,36,596
0.04300,2.95750,-4.37500,0.00000,0.00695,0.04599,-0.98869,2023,6,12,16,2,36,607
0.04310,2.94000,-4.60250,0.00000,0.00537,0.04355,-0.99064,2023,6,12,16,2,36,618
0.04320,2.55500,-4.35750,0.00000,0.00537,0.04453,-0.99015,2023,6,12,16,2,36,629
0.04330,2.31000,-4.23500,0.00000,0.00561,0.04624,-0.98857,2023,6,12,16,2,36,641
0.04340,2.31000,-4.02500,0.00000,0.00622,0.04575,-0.98649,2023,6,12,16,2,36,652
0.04350,2.45000,-4.28750,0.00000,0.00537,0.04636,-0.98735,2023,6,12,16,2,36,663
0.04360,2.24000,-4.21750,0.00000,0.00464,0.04368,-0.98759,2023,6,12,16,2,36,674
0.04370,2.36250,-4.20000,0.00000,0.00695,0.04612,-0.99015,2023,6,12,16,2,36,685
0.04380,2.36250,-4.20000,0.00000,0.00634,0.04648,-0.98613,2023,6,12,16,2,36,696
0.04390,2.43250,-4.25250,0.00000,0.00488,0.04514,-0.98576,2023,6,12,16,2,36,707
0.04400,2.18750,-4.39250,0.00000,0.00549,0.04709,-0.98881,2023,6,12,16,2,36,718
0.04410,2.36250,-4.46250,0.00000,0.00464,0.04416,-0.98796,2023,6,12,16,2,36,729
0.04420,2.59000,-4.46250,0.00000,0.00586,0.04807,-0.98686,2023,6,12,16,2,36,741
0.04430,2.62500,-4.34000,0.00000,0.00512,0.04477,-0.98649,2023,6,12,16,2,36,752
0.04440,2.99250,-4.58500,0.00000,0.00708,0.04758,-0.98881,2023,6,12,16,2,36,763
0.04450,3.08000,-4.55000,0.00000,0.00695,0.04758,-0.98832,2023,6,12,16,2,36,774
0.04460,2.80000,-4.65500,0.00000,0.00622,0.04429,-0.98722,2023,6,12,16,2,36,785
0.04470,2.80000,-4.56750,0.00000,0.00610,0.04746,-0.98893,2023,6,12,16,2,36,796
0.04480,2.78250,-4.37500,0.00000,0.00573,0.04538,-0.98832,2023,6,12,16,2,36,807
0.04490,2.24000,-4.34000,0.00000,0.00512,0.04599,-0.98674,2023,6,12,16,2,36,818
0.04500,2.20500,-4.13000,0.00000,0.00732,0.04660,-0.98735,2023,6,12,16,2,36,829
0.04510,1.89000,-4.09500,0.00000,0.00695,0.04965,-0.99003,2023,6,12,16,2,36,841
0.04520,1.78500,-4.13000,0.00000,0.00573,0.04636,-0.98820,2023,6,12,16,2,36,852
0.04530,2.03000,-4.35750,0.00000,0.00573,0.04795,-0.98869,2023,6,12,16,2,36,863
0.04540,2.52000,-4.49750,0.00000,0.00830,0.04685,-0.98625,2023,6,12,16,2,36,874
0.04550,2.60750,-4.58500,0.00000,0.00549,0.04709,-0.98991,2023,6,12,16,2,36,885
0.04560,2.74750,-4.25250,0.00000,0.00854,0.04685,-0.98686,2023,6,12,16,2,36,896
0.04570,2.74750,-4.41000,0.00000,0.00586,0.04892,-0.98674,2023,6,12,16,2,36,907
0.04580,2.53750,-4.25250,0.00000,0.00878,0.04770,-0.98625,2023,6,12,16,2,36,918
0.04590,2.45000,-4.32250,0.00000,0.00817,0.04721,-0.98771,2023,6,12,16,2,36,929
0.04600,2.59000,-4.48000,0.00000,0.00769,0.04929,-0.98832,2023,6,12,16,2,36,941
0.04610,2.53750,-4.27000,0.00000,0.00659,0.04758,-0.98661,2023,6,12,16,2,36,952
0.04620,2.62500,-4.41000,0.00000,0.00586,0.04807,-0.98613,2023,6,12,16,2,36,963
0.04630,2.92250,-4.56750,0.00000,0.00842,0.04843,-0.98698,2023,6,12,16,2,36,974
0.04640,2.95750,-4.39250,0.00000,0.00683,0.04807,-0.98649,2023,6,12,16,2,37,5
0.04650,2.74750,-4.28750,0.00000,0.00732,0.04819,-0.98869,2023,6,12,16,2,37,16
0.04660,2.69500,-4.27000,0.00000,0.00671,0.05100,-0.98613,2023,6,12,16,2,37,27
0.04670,2.50250,-4.41000,0.00000,0.00622,0.04868,-0.98613,2023,6,12,16,2,37,38
0.04680,2.48500,-4.25250,0.00000,0.00732,0.04868,-0.98771,2023,6,12,16,2,37,49
0.04690,2.67750,-4.35750,0.00000,0.00659,0.04685,-0.98991,2023,6,12,16,2,37,61
0.04700,2.87000,-4.60250,0.00000,0.00708,0.05014,-0.98857,2023,6,12,16,2,37,72
0.04710,2.85250,-4.39250,0.00000,0.00720,0.04843,-0.98966,2023,6,12,16,2,37,83
0.04720,2.94000,-4.74250,0.00000,0.00781,0.04660,-0.98722,2023,6,12,16,2,37,94
0.04730,2.88750,-4.60250,0.00000,0.00476,0.04856,-0.98674,2023,6,12,16,2,37,105
0.04740,2.80000,-4.53250,0.00000,0.00671,0.04746,-0.99186,2023,6,12,16,2,37,116
0.04750,2.60750,-4.65500,0.00000,0.00805,0.04904,-0.98832,2023,6,12,16,2,37,127
0.04760,2.85250,-4.56750,0.00000,0.00781,0.04892,-0.98857,2023,6,12,16,2,37,138
0.04770,2.64250,-4.51500,0.00000,0.00573,0.04709,-0.99101,2023,6,12,16,2,37,149
0.04780,2.43250,-4.14750,0.00000,0.00732,0.04782,-0.98844,2023,6,12,16,2,37,161
0.04790,2.60750,-4.60250,0.00000,0.00720,0.04929,-0.98966,2023,6,12,16,2,37,172
0.04800,2.87000,-4.42750,0.00000,0.00647,0.04929,-0.98783,2023,6,12,16,2,37,183
0.04810,3.11500,-4.53250,0.00000,0.00634,0.04758,-0.98588,2023,6,12,16,2,37,194
0.04820,3.58750,-4.86500,0.00000,0.00683,0.04795,-0.98954,2023,6,12,16,2,37,205
0.04830,3.85000,-4.74250,0.00000,0.01049,0.04782,-0.98905,2023,6,12,16,2,37,216
0.04840,3.72750,-5.02250,0.00000,0.00573,0.04807,-0.98918,2023,6,12,16,2,37,227
0.04850,3.71000,-4.76000,0.00000,0.00878,0.04807,-0.99137,2023,6,12,16,2,37,238
0.04860,2.81750,-4.39250,0.00000,0.00683,0.04770,-0.98771,2023,6,12,16,2,37,249
0.04870,2.60750,-4.42750,0.00000,0.00671,0.05051,-0.98820,2023,6,12,16,2,37,261
0.04880,1.90750,-4.23500,0.00000,0.00732,0.04758,-0.98857,2023,6,12,16,2,37,272
0.04890,2.06500,-4.18250,0.00000,0.00671,0.04843,-0.98844,2023,6,12,16,2,37,283
0.04900,2.27500,-4.20000,0.00000,0.00537,0.04636,-0.98869,2023,6,12,16,2,37,294
0.04910,2.92250,-4.42750,0.00000,0.00769,0.04843,-0.98893,2023,6,12,16,2,37,305
0.04920,2.95750,-4.55000,0.00000,0.00744,0.04953,-0.98857,2023,6,12,16,2,37,316
0.04930,3.04500,-4.53250,0.00000,0.00439,0.04673,-0.98930,2023,6,12,16,2,37,327
0.04940,2.87000,-4.48000,0.00000,0.00561,0.04795,-0.99162,2023,6,12,16,2,37,338
0.04950,2.53750,-4.30500,0.00000,0.00647,0.04807,-0.99015,2023,6,12,16,2,37,349
0.04960,2.55500,-4.58500,0.00000,0.00708,0.04917,-0.98832,2023,6,12,16,2,37,361
0.04970,2.64250,-4.58500,0.00000,0.00573,0.04868,-0.98783,2023,6,12,16,2,37,372
0.04980,2.87000,-4.53250,0.00000,0.00488,0.04575,-0.98966,2023,6,12,16,2,37,383
0.04990,2.94000,-4.55000,0.00000,0.00793,0.05039,-0.99088,2023,6,12,16,2,37,394
0.05000,3.78000,-4.88250,0.00000,0.00927,0.04978,-0.98637,2023,6,12,16,2,37,405
0.05010,4.21750,-5.18000,0.00000,0.00610,0.04819,-0.98747,2023,6,12,16,2,37,416
0.05020,4.88250,-5.21500,0.00000,0.00537,0.04917,-0.98942,2023,6,12,16,2,37,427
0.05030,4.13000,-5.18000,0.00000,0.00732,0.04978,-0.99101,2023,6,12,16,2,37,438
0.05040,3.78000,-4.76000,0.00000,0.00561,0.04721,-0.98893,2023,6,12,16,2,37,449
0.05050,3.34250,-4.76000,0.00000,0.00586,0.04636,-0.98979,2023,6,12,16,2,37,461
0.05060,2.53750,-4.37500,0.00000,0.00756,0.04685,-0.98905,2023,6,12,16,2,37,472
0.05070,2.41500,-4.21750,0.00000,0.00756,0.04819,-0.99137,2023,6,12,16,2,37,483
0.05080,2.55500,-4.32250,0.00000,0.00586,0.04709,-0.99015,2023,6,12,16,2,37,494
0.05090,2.74750,-4.25250,0.00000,0.00610,0.04819,-0.98552,2023,6,12,16,2,37,505
0.05100,2.74750,-4.49750,0.00000,0.00830,0.04770,-0.98930,2023,6,12,16,2,37,516
0.05110,3.15000,-4.88250,0.00000,0.00561,0.04660,-0.98918,2023,6,12,16,2,37,527
0.05120,3.37750,-4.74250,0.00000,0.00610,0.04843,-0.99247,2023,6,12,16,2,37,538
0.05130,3.22000,-4.56750,0.00000,0.00622,0.04819,-0.98881,2023,6,12,16,2,37,549
0.05140,2.76500,-4.62000,0.00000,0.00756,0.04575,-0.99015,2023,6,12,16,2,37,561
0.05150,2.66000,-4.53250,0.00000,0.00598,0.04892,-0.98991,2023,6,12,16,2,37,572
0.05160,2.53750,-4.21750,0.00000,0.00695,0.04807,-0.98759,2023,6,12,16,2,37,583
0.05170,2.64250,-4.49750,0.00000,0.00732,0.04636,-0.98905,2023,6,12,16,2,37,594
0.05180,3.11500,-4.86500,0.00000,0.00634,0.04941,-0.98869,2023,6,12,16,2,37,605
0.05190,3.27250,-4.81250,0.00000,0.00781,0.04965,-0.98735,2023,6,12,16,2,37,616
0.05200,3.43000,-4.77750,0.00000,0.00659,0.04819,-0.98893,2023,6,12,16,2,37,627
0.05210,3.29000,-4.60250,0.00000,0.00525,0.04868,-0.98857,2023,6,12,16,2,37,638
0.05220,3.11500,-4.65500,0.00000,0.00732,0.04807,-0.98979,2023,6,12,16,2,37,649
0.05230,2.85250,-4.32250,0.00000,0.00708,0.04697,-0.99040,2023,6,12,16,2,37,661
0.05240,2.95750,-4.51500,0.00000,0.00659,0.04782,-0.98539,2023,6,12,16,2,37,672
0.05250,3.02750,-4.55000,0.00000,0.00549,0.04782,-0.98710,2023,6,12,16,2,37,683
0.05260,3.22000,-4.62000,0.00000,0.00634,0.04807,-0.99101,2023,6,12,16,2,37,694
0.05270,3.18500,-4.70750,0.00000,0.00744,0.04831,-0.99174,2023,6,12,16,2,37,705
0.05280,2.87000,-4.32250,0.00000,0.00756,0.04782,-0.98881,2023,6,12,16,2,37,716
0.05290,3.36000,-4.69000,0.00000,0.00903,0.04795,-0.98771,2023,6,12,16,2,37,727
0.05300,3.23750,-4.74250,0.00000,0.00671,0.04795,-0.99003,2023,6,12,16,2,37,738
0.05310,3.20250,-4.83000,0.00000,0.00586,0.04807,-0.99088,2023,6,12,16,2,37,749
0.05320,3.09750,-4.60250,0.00000,0.00720,0.04636,-0.98820,2023,6,12,16,2,37,761
0.05330,2.87000,-4.76000,0.00000,0.00805,0.04734,-0.99076,2023,6,12,16,2,37,772
0.05340,3.02750,-4.56750,0.00000,0.00647,0.04746,-0.99137,2023,6,12,16,2,37,783
0.05350,3.09750,-4.53250,0.00000,0.00720,0.04648,-0.98966,2023,6,12,16,2,37,794
0.05360,3.13250,-4.58500,0.00000,0.00561,0.04868,-0.98966,2023,6,12,16,2,37,805
0.05370,3.30750,-4.67250,0.00000,0.00586,0.04746,-0.99027,2023,6,12,16,2,37,816
0.05380,3.29000,-4.84750,0.00000,0.00781,0.04758,-0.99296,2023,6,12,16,2,37,827
0.05390,3.20250,-4.86500,0.00000,0.00622,0.04673,-0.99198,2023,6,12,16,2,37,838
0.05400,3.04500,-4.67250,0.00000,0.00598,0.04734,-0.99125,2023,6,12,16,2,37,849
0.05410,2.97500,-4.41000,0.00000,0.00573,0.04746,-0.99003,2023,6,12,16,2,37,861
0.05420,3.02750,-4.39250,0.00000,0.00647,0.04807,-0.98991,2023,6,12,16,2,37,872
0.05430,3.15000,-4.60250,0.00000,0.00683,0.04709,-0.99101,2023,6,12,16,2,37,883
0.05440,3.01000,-4.53250,0.00000,0.00561,0.04721,-0.98991,2023,6,12,16,2,37,894
0.05450,2.81750,-4.49750,0.00000,0.00634,0.04636,-0.99137,2023,6,12,16,2,37,905
0.05460,3.41250,-4.86500,0.00000,0.00427,0.04721,-0.99271,2023,6,12,16,2,37,916
0.05470,3.51750,-4.69000,0.00000,0.00817,0.04526,-0.99125,2023,6,12,16,2,37,927
0.05480,3.55250,-4.95250,0.00000,0.00561,0.04782,-0.98857,2023,6,12,16,2,37,938
0.05490,4.09500,-5.19750,0.00000,0.00598,0.04685,-0.99198,2023,6,12,16,2,37,949
0.05500,3.85000,-4.91750,0.00000,0.00695,0.04599,-0.98771,2023,6,12,16,2,38,1
0.05510,3.67500,-4.84750,0.00000,0.00598,0.04453,-0.99149,2023,6,12,16,2,38,12
0.05520,3.09750,-4.72500,0.00000,0.00622,0.04477,-0.99027,2023,6,12,16,2,38,23
0.05530,2.48500,-4.16500,0.00000,0.00378,0.04368,-0.98979,2023,6,12,16,2,38,34
0.05540,2.50250,-4.35750,0.00000,0.00573,0.04514,-0.99027,2023,6,12,16,2,38,45
0.05550,2.69500,-4.41000,0.00000,0.00561,0.04636,-0.98735,2023,6,12,16,2,38,56
0.05560,2.74750,-4.44500,0.00000,0.00683,0.04636,-0.99040,2023,6,12,16,2,38,67
0.05570,2.85250,-4.56750,0.00000,0.00659,0.04624,-0.99198,2023,6,12,16,2,38,78
0.05580,2.85250,-4.44500,0.00000,0.00500,0.04624,-0.98881,2023,6,12,16,2,38,89
0.05590,2.95750,-4.62000,0.00000,0.00622,0.04685,-0.99149,2023,6,12,16,2,38,101
0.05600,3.20250,-4.62000,0.00000,0.00732,0.04770,-0.98771,2023,6,12,16,2,38,112
0.05610,2.85250,-4.48000,0.00000,0.00586,0.04624,-0.99125,2023,6,12,16,2,38,123
0.05620,3.01000,-4.55000,0.00000,0.00647,0.04563,-0.98942,2023,6,12,16,2,38,134
0.05630,2.83500,-4.81250,0.00000,0.00708,0.04355,-0.99113,2023,6,12,16,2,38,145
0.05640,2.46750,-4.39250,0.00000,0.00586,0.04526,-0.99027,2023,6,12,16,2,38,156
0.05650,2.24000,-4.09500,0.00000,0.00756,0.04648,-0.99088,2023,6,12,16,2,38,167
0.05660,2.38000,-4.16500,0.00000,0.00537,0.04697,-0.98771,2023,6,12,16,2,38,178
0.05670,2.53750,-4.34000,0.00000,0.00451,0.04904,-0.98832,2023,6,12,16,2,38,189
0.05680,2.29250,-4.39250,0.00000,0.00744,0.04843,-0.98893,2023,6,12,16,2,38,201
0.05690,2.85250,-4.41000,0.00000,0.01025,0.04782,-0.99235,2023,6,12,16,2,38,212
0.05700,2.64250,-4.58500,0.00000,0.00805,0.04599,-0.99271,2023,6,12,16,2,38,223
0.05710,2.60750,-4.34000,0.00000,0.00488,0.04953,-0.98979,2023,6,12,16,2,38,234
0.05720,2.55500,-4.28750,0.00000,0.00830,0.04843,-0.99101,2023,6,12,16,2,38,245
0.05730,2.78250,-4.41000,0.00000,0.00610,0.04502,-0.99162,2023,6,12,16,2,38,256
0.05740,2.87000,-4.58500,0.00000,0.00561,0.04868,-0.99162,2023,6,12,16,2,38,267
0.05750,3.16750,-4.67250,0.00000,0.00756,0.04331,-0.99052,2023,6,12,16,2,38,278
0.05760,3.06250,-4.67250,0.00000,0.00708,0.04697,-0.99174,2023,6,12,16,2,38,289
0.05770,2.74750,-4.65500,0.00000,0.00854,0.04599,-0.98796,2023,6,12,16,2,38,301
0.05780,2.92250,-4.58500,0.00000,0.00549,0.04807,-0.99125,2023,6,12,16,2,38,312
0.05790,2.80000,-4.37500,0.00000,0.00708,0.04807,-0.98808,2023,6,12,16,2,38,323
0.05800,2.92250,-4.77750,0.00000,0.00732,0.04721,-0.99076,2023,6,12,16,2,38,334
0.05810,2.67750,-4.49750,0.00000,0.00769,0.04599,-0.99149,2023,6,12,16,2,38,345
0.05820,3.08000,-4.49750,0.00000,0.00512,0.04660,-0.99076,2023,6,12,16,2,38,356
0.05830,3.13250,-4.62000,0.00000,0.00561,0.04868,-0.98832,2023,6,12,16,2,38,367
0.05840,3.20250,-4.65500,0.00000,0.00744,0.04697,-0.99064,2023,6,12,16,2,38,378
0.05850,3.27250,-4.70750,0.00000,0.00683,0.04856,-0.99162,2023,6,12,16,2,38,389
0.05860,3.23750,-4.67250,0.00000,0.00659,0.04636,-0.99259,2023,6,12,16,2,38,401
0.05870,3.08000,-4.72500,0.00000,0.00610,0.04819,-0.99064,2023,6,12,16,2,38,412
0.05880,2.76500,-4.44500,0.00000,0.00671,0.04538,-0.98991,2023,6,12,16,2,38,423
0.05890,2.95750,-4.35750,0.00000,0.00500,0.04636,-0.98808,2023,6,12,16,2,38,434
0.05900,2.59000,-4.28750,0.00000,0.00732,0.04575,-0.99003,2023,6,12,16,2,38,445
0.05910,2.87000,-4.70750,0.00000,0.00622,0.04709,-0.99003,2023,6,12,16,2,38,456
0.05920,3.08000,-4.58500,0.00000,0.00683,0.04758,-0.98942,2023,6,12,16,2,38,467
0.05930,3.08000,-4.74250,0.00000,0.00610,0.04746,-0.99064,2023,6,12,16,2,38,478
0.05940,3.16750,-4.63750,0.00000,0.00659,0.04624,-0.98881,2023,6,12,16,2,38,489
0.05950,3.25500,-4.56750,0.00000,0.00817,0.04477,-0.98979,2023,6,12,16,2,38,501
0.05960,2.97500,-4.51500,0.00000,0.00549,0.04538,-0.99101,2023,6,12,16,2,38,512
0.05970,3.11500,-4.60250,0.00000,0.00573,0.04441,-0.98820,2023,6,12,16,2,38,523
0.05980,2.92250,-4.53250,0.00000,0.00732,0.04612,-0.98783,2023,6,12,16,2,38,534
0.05990,3.06250,-4.53250,0.00000,0.00464,0.04502,-0.99125,2023,6,12,16,2,38,545
0.06000,3.08000,-4.58500,0.00000,0.00756,0.04819,-0.99040,2023,6,12,16,2,38,556
0.06010,3.22000,-4.77750,0.00000,0.00683,0.04709,-0.98966,2023,6,12,16,2,38,567
0.06020,3.34250,-4.83000,0.00000,0.00732,0.04746,-0.98979,2023,6,12,16,2,38,578
0.06030,3.25500,-4.72500,0.00000,0.00622,0.04636,-0.98783,2023,6,12,16,2,38,589
0.06040,3.09750,-4.65500,0.00000,0.00695,0.04465,-0.98869,2023,6,12,16,2,38,601
0.06050,3.11500,-4.49750,0.00000,0.00415,0.04612,-0.98722,2023,6,12,16,2,38,612
0.06060,3.02750,-4.53250,0.00000,0.00659,0.04758,-0.99027,2023,6,12,16,2,38,623
0.06070,3.08000,-4.55000,0.00000,0.00586,0.04856,-0.98942,2023,6,12,16,2,38,634
0.06080,2.99250,-4.44500,0.00000,0.00756,0.04660,-0.98857,2023,6,12,16,2,38,645
0.06090,2.95750,-4.60250,0.00000,0.00647,0.04563,-0.98783,2023,6,12,16,2,38,656
0.06100,3.02750,-4.63750,0.00000,0.00598,0.04575,-0.99113,2023,6,12,16,2,38,667
0.06110,3.01000,-4.74250,0.00000,0.00549,0.04673,-0.99076,2023,6,12,16,2,38,678
0.06120,3.04500,-4.60250,0.00000,0.00610,0.04660,-0.98857,2023,6,12,16,2,38,689
0.06130,3.18500,-4.70750,0.00000,0.00512,0.04526,-0.98783,2023,6,12,16,2,38,701
0.06140,3.39500,-4.65500,0.00000,0.00622,0.04709,-0.99174,2023,6,12,16,2,38,712
0.06150,3.39500,-4.63750,0.00000,0.00427,0.04697,-0.99174,2023,6,12,16,2,38,723
0.06160,3.34250,-4.79500,0.00000,0.00512,0.04551,-0.98771,2023,6,12,16,2,38,734
0.06170,3.78000,-5.00500,0.00000,0.00427,0.04551,-0.98954,2023,6,12,16,2,38,745
0.06180,3.88500,-5.16250,0.00000,0.00634,0.04477,-0.99125,2023,6,12,16,2,38,756
0.06190,3.48250,-4.88250,0.00000,0.00720,0.04343,-0.99027,2023,6,12,16,2,38,767
0.06200,2.59000,-4.42750,0.00000,0.00476,0.04502,-0.99162,2023,6,12,16,2,38,778
0.06210,2.18750,-3.99000,0.00000,0.00695,0.04563,-0.98857,2023,6,12,16,2,38,789
0.06220,2.25750,-4.25250,0.00000,0.00549,0.04587,-0.98649,2023,6,12,16,2,38,801
0.06230,2.39750,-4.16500,0.00000,0.00634,0.04636,-0.98881,2023,6,12,16,2,38,812
0.06240,2.81750,-4.30500,0.00000,0.00647,0.04770,-0.98576,2023,6,12,16,2,38,823
0.06250,2.73000,-4.55000,0.00000,0.00659,0.04563,-0.98735,2023,6,12,16,2,38,834
0.06260,3.23750,-4.77750,0.00000,0.00537,0.04587,-0.98991,2023,6,12,16,2,38,845
0.06270,3.13250,-4.77750,0.00000,0.00500,0.04502,-0.99113,2023,6,12,16,2,38,856
0.06280,2.81750,-4.56750,0.00000,0.00512,0.04477,-0.99186,2023,6,12,16,2,38,867
0.06290,2.97500,-4.60250,0.00000,0.00708,0.04673,-0.99027,2023,6,12,16,2,38,878
0.06300,2.71250,-4.48000,0.00000,0.00537,0.04502,-0.99088,2023,6,12,16,2,38,889
0.06310,2.43250,-4.39250,0.00000,0.00732,0.04587,-0.98783,2023,6,12,16,2,38,901
0.06320,2.46750,-4.42750,0.00000,0.00586,0.04502,-0.98759,2023,6,12,16,2,38,912
0.06330,2.55500,-4.41000,0.00000,0.00622,0.04904,-0.98881,2023,6,12,16,2,38,923
0.06340,2.39750,-4.16500,0.00000,0.00573,0.04685,-0.98966,2023,6,12,16,2,38,934
0.06350,2.57250,-4.44500,0.00000,0.00586,0.04624,-0.98893,2023,6,12,16,2,38,945
0.06360,2.76500,-4.41000,0.00000,0.00659,0.04624,-0.98820,2023,6,12,16,2,38,956
0.06370,2.53750,-4.42750,0.00000,0.00720,0.04770,-0.98844,2023,6,12,16,2,38,967
0.06380,2.66000,-4.42750,0.00000,0.00781,0.04697,-0.98808,2023,6,12,16,2,39,8
0.06390,2.80000,-4.27000,0.00000,0.00793,0.04843,-0.98820,2023,6,12,16,2,39,19
0.06400,3.11500,-4.77750,0.00000,0.00659,0.04782,-0.98930,2023,6,12,16,2,39,31
0.06410,3.11500,-4.53250,0.00000,0.00683,0.04648,-0.98771,2023,6,12,16,2,39,42
0.06420,3.69250,-4.74250,0.00000,0.00769,0.04721,-0.98759,2023,6,12,16,2,39,53
0.06430,3.67500,-4.76000,0.00000,0.00720,0.04734,-0.99271,2023,6,12,16,2,39,64
0.06440,3.22000,-4.65500,0.00000,0.00366,0.04856,-0.99003,2023,6,12,16,2,39,75
0.06450,3.39500,-4.81250,0.00000,0.00756,0.04709,-0.98783,2023,6,12,16,2,39,86
0.06460,3.57000,-5.07500,0.00000,0.00756,0.04758,-0.99113,2023,6,12,16,2,39,97
0.06470,3.51750,-4.83000,0.00000,0.00659,0.04770,-0.98613,2023,6,12,16,2,39,108
0.06480,3.15000,-4.69000,0.00000,0.00769,0.04575,-0.99162,2023,6,12,16,2,39,119
0.06490,3.11500,-4.53250,0.00000,0.00598,0.04612,-0.98844,2023,6,12,16,2,39,131
0.06500,3.04500,-4.56750,0.00000,0.00488,0.04477,-0.98905,2023,6,12,16,2,39,142
0.06510,3.20250,-4.62000,0.00000,0.00744,0.04673,-0.98735,2023,6,12,16,2,39,153
0.06520,3.43000,-4.76000,0.00000,0.00561,0.04563,-0.98552,2023,6,12,16,2,39,164
0.06530,3.55250,-4.84750,0.00000,0.00573,0.04746,-0.98832,2023,6,12,16,2,39,175
0.06540,3.62250,-4.69000,0.00000,0.00537,0.04477,-0.98808,2023,6,12,16,2,39,186
0.06550,3.64000,-4.76000,0.00000,0.00366,0.04526,-0.99040,2023,6,12,16,2,39,197
0.06560,3.37750,-4.74250,0.00000,0.00647,0.04453,-0.99064,2023,6,12,16,2,39,208
0.06570,3.01000,-4.72500,0.00000,0.00537,0.04526,-0.98735,2023,6,12,16,2,39,219
0.06580,3.08000,-4.48000,0.00000,0.00439,0.04355,-0.98844,2023,6,12,16,2,39,231
0.06590,3.04500,-4.65500,0.00000,0.00659,0.04551,-0.98625,2023,6,12,16,2,39,242
0.06600,3.30750,-4.79500,0.00000,0.00708,0.04648,-0.99149,2023,6,12,16,2,39,253
0.06610,3.30750,-4.60250,0.00000,0.00744,0.04551,-0.99064,2023,6,12,16,2,39,264
0.06620,3.34250,-4.86500,0.00000,0.00622,0.04526,-0.98783,2023,6,12,16,2,39,275
0.06630,3.30750,-4.77750,0.00000,0.00586,0.04526,-0.99003,2023,6,12,16,2,39,286
0.06640,3.02750,-4.58500,0.00000,0.00561,0.04453,-0.98930,2023,6,12,16,2,39,297
0.06650,2.52000,-4.39250,0.00000,0.00415,0.04441,-0.98759,2023,6,12,16,2,39,308
0.06660,2.50250,-4.44500,0.00000,0.00525,0.04673,-0.99076,2023,6,12,16,2,39,319
0.06670,2.45000,-4.39250,0.00000,0.00720,0.04563,-0.98966,2023,6,12,16,2,39,331
0.06680,2.57250,-4.63750,0.00000,0.00598,0.04416,-0.98527,2023,6,12,16,2,39,342
0.06690,2.71250,-4.39250,0.00000,0.00488,0.04465,-0.99113,2023,6,12,16,2,39,353
0.06700,2.78250,-4.41000,0.00000,0.00476,0.04453,-0.98832,2023,6,12,16,2,39,364
0.06710,3.02750,-4.56750,0.00000,0.00695,0.04624,-0.98759,2023,6,12,16,2,39,375
0.06720,3.11500,-4.63750,0.00000,0.00537,0.04575,-0.98820,2023,6,12,16,2,39,386
0.06730,3.11500,-4.77750,0.00000,0.00366,0.04648,-0.98759,2023,6,12,16,2,39,397
0.06740,2.60750,-4.46250,0.00000,0.00659,0.04538,-0.99076,2023,6,12,16,2,39,408
0.06750,3.01000,-4.65500,0.00000,0.00537,0.04453,-0.98698,2023,6,12,16,2,39,419
0.06760,2.94000,-4.49750,0.00000,0.00403,0.04587,-0.99101,2023,6,12,16,2,39,431
0.06770,2.83500,-4.67250,0.00000,0.00427,0.04551,-0.98869,2023,6,12,16,2,39,442
0.06780,2.97500,-4.74250,0.00000,0.00769,0.04477,-0.99052,2023,6,12,16,2,39,453
0.06790,2.92250,-4.67250,0.00000,0.00769,0.04477,-0.98918,2023,6,12,16,2,39,464
0.06800,2.46750,-4.35750,0.00000,0.00512,0.04551,-0.98783,2023,6,12,16,2,39,475
0.06810,2.38000,-4.14750,0.00000,0.00671,0.04587,-0.98844,2023,6,12,16,2,39,486
0.06820,2.60750,-4.48000,0.00000,0.00512,0.04526,-0.98820,2023,6,12,16,2,39,497
0.06830,2.90500,-4.49750,0.00000,0.00634,0.04721,-0.98722,2023,6,12,16,2,39,508
0.06840,3.34250,-4.41000,0.00000,0.00622,0.04770,-0.98991,2023,6,12,16,2,39,519
0.06850,3.23750,-4.83000,0.00000,0.00390,0.04563,-0.98747,2023,6,12,16,2,39,531
0.06860,3.13250,-4.62000,0.00000,0.00586,0.04673,-0.98613,2023,6,12,16,2,39,542
0.06870,2.81750,-4.46250,0.00000,0.00561,0.04587,-0.98759,2023,6,12,16,2,39,553
0.06880,2.71250,-4.42750,0.00000,0.00305,0.04441,-0.98783,2023,6,12,16,2,39,564
0.06890,2.38000,-4.25250,0.00000,0.00659,0.04551,-0.98930,2023,6,12,16,2,39,575
0.06900,2.66000,-4.41000,0.00000,0.00464,0.04624,-0.98844,2023,6,12,16,2,39,586
0.06910,2.52000,-4.46250,0.00000,0.00598,0.04782,-0.98966,2023,6,12,16,2,39,597
0.06920,3.02750,-4.51500,0.00000,0.00598,0.04514,-0.98942,2023,6,12,16,2,39,608
0.06930,2.94000,-4.56750,0.00000,0.00525,0.04673,-0.98759,2023,6,12,16,2,39,619
0.06940,3.15000,-4.60250,0.00000,0.00586,0.04734,-0.98735,2023,6,12,16,2,39,631
0.06950,3.08000,-4.86500,0.00000,0.00549,0.04587,-0.98686,2023,6,12,16,2,39,642
0.06960,3.06250,-4.67250,0.00000,0.00573,0.04355,-0.98857,2023,6,12,16,2,39,653
0.06970,2.85250,-4.42750,0.00000,0.00390,0.04563,-0.98747,2023,6,12,16,2,39,664
0.06980,2.78250,-4.39250,0.00000,0.00512,0.04575,-0.98869,2023,6,12,16,2,39,675
0.06990,2.60750,-4.46250,0.00000,0.00598,0.04453,-0.98783,2023,6,12,16,2,39,686
0.07000,2.41500,-4.46250,0.00000,0.00598,0.04526,-0.98722,2023,6,12,16,2,39,697
0.07010,2.66000,-4.67250,0.00000,0.00561,0.04538,-0.98771,2023,6,12,16,2,39,708
0.07020,2.80000,-4.58500,0.00000,0.00634,0.04770,-0.98844,2023,6,12,16,2,39,719
0.07030,3.01000,-4.46250,0.00000,0.00476,0.04404,-0.98771,2023,6,12,16,2,39,731
0.07040,3.11500,-4.56750,0.00000,0.00647,0.04477,-0.98613,2023,6,12,16,2,39,742
0.07050,2.95750,-4.67250,0.00000,0.00695,0.04587,-0.98905,2023,6,12,16,2,39,753
0.07060,2.67750,-4.30500,0.00000,0.00586,0.04612,-0.98857,2023,6,12,16,2,39,764
0.07070,2.57250,-4.44500,0.00000,0.00573,0.04575,-0.98747,2023,6,12,16,2,39,775
0.07080,2.76500,-4.58500,0.00000,0.00464,0.04563,-0.98539,2023,6,12,16,2,39,786
0.07090,3.01000,-4.42750,0.00000,0.00573,0.04673,-0.98893,2023,6,12,16,2,39,797
0.07100,3.27250,-4.63750,0.00000,0.00793,0.04636,-0.98332,2023,6,12,16,2,39,808
0.07110,3.41250,-4.79500,0.00000,0.00549,0.04490,-0.98710,2023,6,12,16,2,39,819
0.07120,3.34250,-4.88250,0.00000,0.00708,0.04758,-0.98783,2023,6,12,16,2,39,831
0.07130,3.36000,-4.79500,0.00000,0.00647,0.04868,-0.98820,2023,6,12,16,2,39,842
0.07140,3.30750,-4.77750,0.00000,0.00500,0.04575,-0.98649,2023,6,12,16,2,39,853
0.07150,2.83500,-4.49750,0.00000,0.00439,0.04660,-0.98613,2023,6,12,16,2,39,864
0.07160,2.50250,-4.55000,0.00000,0.00708,0.04502,-0.99369,2023,6,12,16,2,39,875
0.07170,2.43250,-4.34000,0.00000,0.00549,0.04660,-0.98796,2023,6,12,16,2,39,886
0.07180,2.69500,-4.32250,0.00000,0.00573,0.04551,-0.98588,2023,6,12,16,2,39,897
0.07190,2.87000,-4.53250,0.00000,0.00488,0.04563,-0.98491,2023,6,12,16,2,39,908
0.07200,2.78250,-4.48000,0.00000,0.00671,0.04502,-0.98735,2023,6,12,16,2,39,919
0.07210,3.08000,-4.56750,0.00000,0.00549,0.04709,-0.99027,2023,6,12,16,2,39,931
0.07220,2.95750,-4.65500,0.00000,0.00512,0.04575,-0.98478,2023,6,12,16,2,39,942
0.07230,2.74750,-4.42750,0.00000,0.00525,0.04746,-0.98783,2023,6,12,16,2,39,953
0.07240,2.57250,-4.27000,0.00000,0.00598,0.04746,-0.98930,2023,6,12,16,2,39,964
0.07250,2.46750,-4.16500,0.00000,0.00573,0.04563,-0.98869,2023,6,12,16,2,40,5
0.07260,2.80000,-4.53250,0.00000,0.00586,0.04673,-0.98698,2023,6,12,16,2,40,16
0.07270,2.81750,-4.42750,0.00000,0.00647,0.04416,-0.98954,2023,6,12,16,2,40,27
0.07280,3.02750,-4.42750,0.00000,0.00537,0.04660,-0.98759,2023,6,12,16,2,40,38
0.07290,3.04500,-4.69000,0.00000,0.00573,0.04624,-0.98625,2023,6,12,16,2,40,49
0.07300,2.87000,-4.46250,0.00000,0.00525,0.04575,-0.98735,2023,6,12,16,2,40,61
0.07310,2.57250,-4.51500,0.00000,0.00586,0.04685,-0.99027,2023,6,12,16,2,40,72
0.07320,2.24000,-4.13000,0.00000,0.00634,0.04660,-0.99052,2023,6,12,16,2,40,83
0.07330,2.36250,-4.04250,0.00000,0.00598,0.04624,-0.99186,2023,6,12,16,2,40,94
0.07340,2.31000,-4.37500,0.00000,0.00586,0.04660,-0.98588,2023,6,12,16,2,40,105
0.07350,2.38000,-4.41000,0.00000,0.00805,0.04685,-0.98869,2023,6,12,16,2,40,116
0.07360,2.64250,-4.32250,0.00000,0.00451,0.04770,-0.98954,2023,6,12,16,2,40,127
0.07370,2.59000,-4.49750,0.00000,0.00598,0.04526,-0.98808,2023,6,12,16,2,40,138
0.07380,2.71250,-4.25250,0.00000,0.00464,0.04782,-0.98918,2023,6,12,16,2,40,149
0.07390,2.36250,-4.21750,0.00000,0.00622,0.04904,-0.98783,2023,6,12,16,2,40,161
0.07400,2.27500,-4.20000,0.00000,0.00634,0.04673,-0.98698,2023,6,12,16,2,40,172
0.07410,2.03000,-4.23500,0.00000,0.00537,0.04807,-0.98857,2023,6,12,16,2,40,183
0.07420,1.94250,-4.18250,0.00000,0.00732,0.04697,-0.99064,2023,6,12,16,2,40,194
0.07430,2.06500,-4.16500,0.00000,0.00976,0.05039,-0.99027,2023,6,12,16,2,40,205
0.07440,2.55500,-4.51500,0.00000,0.00561,0.04880,-0.98722,2023,6,12,16,2,40,216
0.07450,2.55500,-4.44500,0.00000,0.00537,0.04990,-0.98552,2023,6,12,16,2,40,227
0.07460,2.87000,-4.76000,0.00000,0.00586,0.05087,-0.98649,2023,6,12,16,2,40,238
0.07470,3.30750,-4.65500,0.00000,0.00817,0.04880,-0.99040,2023,6,12,16,2,40,249
0.07480,3.60500,-4.76000,0.00000,0.00683,0.04929,-0.98771,2023,6,12,16,2,40,261
0.07490,3.39500,-4.69000,0.00000,0.00488,0.04782,-0.98796,2023,6,12,16,2,40,272
0.07500,3.18500,-4.62000,0.00000,0.00695,0.04563,-0.98979,2023,6,12,16,2,40,283
0.07510,3.01000,-4.39250,0.00000,0.00598,0.04782,-0.98783,2023,6,12,16,2,40,294
0.07520,2.52000,-4.39250,0.00000,0.00610,0.04868,-0.98771,2023,6,12,16,2,40,305
0.07530,2.27500,-4.18250,0.00000,0.00573,0.04502,-0.98808,2023,6,12,16,2,40,316
0.07540,1.76750,-3.97250,0.00000,0.00817,0.04746,-0.98747,2023,6,12,16,2,40,327
0.07550,2.24000,-4.28750,0.00000,0.00683,0.04929,-0.98808,2023,6,12,16,2,40,338
0.07560,2.38000,-4.28750,0.00000,0.00695,0.04880,-0.98478,2023,6,12,16,2,40,349
0.07570,2.50250,-4.39250,0.00000,0.00756,0.04819,-0.98796,2023,6,12,16,2,40,361
0.07580,2.90500,-4.44500,0.00000,0.00695,0.04636,-0.98991,2023,6,12,16,2,40,372
0.07590,3.04500,-4.48000,0.00000,0.00695,0.04843,-0.98771,2023,6,12,16,2,40,383
0.07600,2.88750,-4.63750,0.00000,0.00805,0.04721,-0.98759,2023,6,12,16,2,40,394
0.07610,2.81750,-4.44500,0.00000,0.00549,0.04953,-0.98857,2023,6,12,16,2,40,405
0.07620,2.22250,-4.37500,0.00000,0.00720,0.04697,-0.99088,2023,6,12,16,2,40,416
0.07630,2.15250,-4.41000,0.00000,0.00939,0.05039,-0.99064,2023,6,12,16,2,40,427
0.07640,2.17000,-4.28750,0.00000,0.00817,0.04782,-0.98735,2023,6,12,16,2,40,438
0.07650,2.08250,-4.18250,0.00000,0.00659,0.04990,-0.98783,2023,6,12,16,2,40,449
0.07660,2.62500,-4.62000,0.00000,0.00842,0.04880,-0.98844,2023,6,12,16,2,40,461
0.07670,2.29250,-4.51500,0.00000,0.00708,0.05014,-0.98966,2023,6,12,16,2,40,472
0.07680,2.32750,-4.20000,0.00000,0.00854,0.05222,-0.98820,2023,6,12,16,2,40,483
0.07690,2.53750,-4.67250,0.00000,0.00805,0.04880,-0.98832,2023,6,12,16,2,40,494
0.07700,2.81750,-4.35750,0.00000,0.00903,0.04917,-0.98942,2023,6,12,16,2,40,505
0.07710,2.90500,-4.62000,0.00000,0.00683,0.05014,-0.98759,2023,6,12,16,2,40,516
0.07720,2.69500,-4.34000,0.00000,0.00708,0.05014,-0.98771,2023,6,12,16,2,40,527
0.07730,2.83500,-4.51500,0.00000,0.00659,0.05014,-0.98649,2023,6,12,16,2,40,538
0.07740,2.81750,-4.41000,0.00000,0.00817,0.05087,-0.98613,2023,6,12,16,2,40,549
0.07750,2.71250,-4.56750,0.00000,0.00695,0.05124,-0.99186,2023,6,12,16,2,40,561
0.07760,2.87000,-4.46250,0.00000,0.00720,0.04965,-0.98759,2023,6,12,16,2,40,572
0.07770,3.08000,-4.91750,0.00000,0.00720,0.04734,-0.99003,2023,6,12,16,2,40,583
0.07780,3.02750,-4.63750,0.00000,0.00744,0.05185,-0.98637,2023,6,12,16,2,40,594
0.07790,2.80000,-4.46250,0.00000,0.00732,0.05039,-0.99003,2023,6,12,16,2,40,605
0.07800,2.73000,-4.49750,0.00000,0.00817,0.04843,-0.98710,2023,6,12,16,2,40,616
0.07810,2.52000,-4.32250,0.00000,0.00781,0.05051,-0.98881,2023,6,12,16,2,40,627
0.07820,2.80000,-4.44500,0.00000,0.00842,0.04965,-0.98661,2023,6,12,16,2,40,638
0.07830,3.04500,-4.84750,0.00000,0.00647,0.05063,-0.98832,2023,6,12,16,2,40,649
0.07840,3.02750,-4.69000,0.00000,0.00866,0.04978,-0.98808,2023,6,12,16,2,40,661
0.07850,2.90500,-4.37500,0.00000,0.00732,0.05197,-0.98954,2023,6,12,16,2,40,672
0.07860,3.18500,-4.69000,0.00000,0.00842,0.04721,-0.99149,2023,6,12,16,2,40,683
0.07870,2.94000,-4.62000,0.00000,0.00854,0.05087,-0.98966,2023,6,12,16,2,40,694
0.07880,3.15000,-4.62000,0.00000,0.00854,0.05075,-0.98478,2023,6,12,16,2,40,705
0.07890,3.02750,-4.63750,0.00000,0.00793,0.05124,-0.98686,2023,6,12,16,2,40,716
0.07900,2.88750,-4.79500,0.00000,0.00756,0.05124,-0.98991,2023,6,12,16,2,40,727
0.07910,3.04500,-4.65500,0.00000,0.00598,0.04880,-0.98796,2023,6,12,16,2,40,738
0.07920,2.95750,-4.30500,0.00000,0.00878,0.04965,-0.98771,2023,6,12,16,2,40,749
0.07930,3.02750,-4.51500,0.00000,0.00805,0.04807,-0.98613,2023,6,12,16,2,40,761
0.07940,3.01000,-4.76000,0.00000,0.00781,0.04880,-0.98564,2023,6,12,16,2,40,772
0.07950,3.43000,-4.77750,0.00000,0.00769,0.04831,-0.98857,2023,6,12,16,2,40,783
0.07960,3.57000,-4.81250,0.00000,0.00805,0.04953,-0.98820,2023,6,12,16,2,40,794
0.07970,3.65750,-4.88250,0.00000,0.00671,0.04758,-0.98430,2023,6,12,16,2,40,805
0.07980,3.78000,-4.88250,0.00000,0.00695,0.05075,-0.98478,2023,6,12,16,2,40,816
0.07990,3.46500,-4.65500,0.00000,0.00854,0.04709,-0.98783,2023,6,12,16,2,40,827
0.08000,3.16750,-4.83000,0.00000,0.00878,0.04807,-0.98905,2023,6,12,16,2,40,838
0.08010,3.16750,-4.58500,0.00000,0.00952,0.05014,-0.99015,2023,6,12,16,2,40,849
0.08020,3.08000,-4.56750,0.00000,0.00744,0.04856,-0.98564,2023,6,12,16,2,40,861
0.08030,2.90500,-4.62000,0.00000,0.01000,0.05014,-0.98942,2023,6,12,16,2,40,872
0.08040,3.22000,-4.72500,0.00000,0.00659,0.05100,-0.98783,2023,6,12,16,2,40,883
0.08050,3.01000,-4.44500,0.00000,0.00512,0.04721,-0.98747,2023,6,12,16,2,40,894
0.08060,3.39500,-4.70750,0.00000,0.00683,0.04941,-0.98979,2023,6,12,16,2,40,905
0.08070,3.08000,-4.62000,0.00000,0.00781,0.04831,-0.98857,2023,6,12,16,2,40,916
0.08080,2.46750,-4.42750,0.00000,0.00634,0.04843,-0.98661,2023,6,12,16,2,40,927
0.08090,2.76500,-4.41000,0.00000,0.00695,0.04819,-0.98747,2023,6,12,16,2,40,938
0.08100,3.01000,-4.63750,0.00000,0.00830,0.05014,-0.98466,2023,6,12,16,2,40,949
0.08110,3.41250,-4.86500,0.00000,0.00708,0.04880,-0.98747,2023,6,12,16,2,40,961
0.08120,3.65750,-5.04000,0.00000,0.00549,0.04831,-0.98674,2023,6,12,16,2,40,972
0.08130,4.28750,-5.18000,0.00000,0.00805,0.05026,-0.99064,2023,6,12,16,2,41,3
0.08140,4.42750,-5.35500,0.00000,0.00927,0.04758,-0.98844,2023,6,12,16,2,41,14
0.08150,4.23500,-5.04000,0.00000,0.00647,0.04734,-0.98820,2023,6,12,16,2,41,25
0.08160,3.34250,-4.77750,0.00000,0.00512,0.04709,-0.98991,2023,6,12,16,2,41,36
0.08170,2.71250,-4.34000,0.00000,0.00476,0.04685,-0.98930,2023,6,12,16,2,41,47
0.08180,2.11750,-4.25250,0.00000,0.00671,0.04734,-0.98881,2023,6,12,16,2,41,58
0.08190,2.10000,-4.42750,0.00000,0.00561,0.04880,-0.98930,2023,6,12,16,2,41,69
0.08200,2.38000,-4.30500,0.00000,0.00842,0.04819,-0.98991,2023,6,12,16,2,41,81
0.08210,2.92250,-4.49750,0.00000,0.00476,0.04795,-0.98918,2023,6,12,16,2,41,92
0.08220,2.92250,-4.34000,0.00000,0.00842,0.04892,-0.98649,2023,6,12,16,2,41,103
0.08230,3.23750,-4.63750,0.00000,0.00720,0.04746,-0.98747,2023,6,12,16,2,41,114
0.08240,3.18500,-4.60250,0.00000,0.00708,0.04660,-0.98991,2023,6,12,16,2,41,125
0.08250,3.04500,-4.60250,0.00000,0.00708,0.04770,-0.98698,2023,6,12,16,2,41,136
0.08260,2.81750,-4.65500,0.00000,0.00610,0.04819,-0.98771,2023,6,12,16,2,41,147
0.08270,2.87000,-4.44500,0.00000,0.00598,0.04965,-0.98735,2023,6,12,16,2,41,158
0.08280,2.73000,-4.49750,0.00000,0.00647,0.04819,-0.98552,2023,6,12,16,2,41,169
0.08290,2.45000,-4.23500,0.00000,0.00915,0.04807,-0.98356,2023,6,12,16,2,41,181
0.08300,2.32750,-4.28750,0.00000,0.00573,0.04978,-0.98771,2023,6,12,16,2,41,192
0.08310,2.43250,-4.32250,0.00000,0.00720,0.05014,-0.98735,2023,6,12,16,2,41,203
0.08320,2.90500,-4.42750,0.00000,0.00610,0.04831,-0.98954,2023,6,12,16,2,41,214
0.08330,2.81750,-4.60250,0.00000,0.00781,0.04917,-0.99223,2023,6,12,16,2,41,225
0.08340,2.74750,-4.53250,0.00000,0.00695,0.04965,-0.98759,2023,6,12,16,2,41,236
0.08350,2.64250,-4.35750,0.00000,0.00634,0.05100,-0.98844,2023,6,12,16,2,41,247
0.08360,2.67750,-4.41000,0.00000,0.00720,0.04978,-0.98722,2023,6,12,16,2,41,258
0.08370,2.64250,-4.32250,0.00000,0.00634,0.04953,-0.98747,2023,6,12,16,2,41,269
0.08380,3.04500,-4.67250,0.00000,0.00744,0.04843,-0.98930,2023,6,12,16,2,41,281
0.08390,3.02750,-4.77750,0.00000,0.00586,0.04990,-0.98625,2023,6,12,16,2,41,292
0.08400,3.02750,-4.63750,0.00000,0.00671,0.05063,-0.98820,2023,6,12,16,2,41,303
0.08410,2.88750,-4.60250,0.00000,0.00647,0.05075,-0.98893,2023,6,12,16,2,41,314
0.08420,3.11500,-4.53250,0.00000,0.00695,0.04673,-0.98637,2023,6,12,16,2,41,325
0.08430,2.78250,-4.44500,0.00000,0.00732,0.05014,-0.98564,2023,6,12,16,2,41,336
0.08440,2.80000,-4.55000,0.00000,0.00805,0.04782,-0.98918,2023,6,12,16,2,41,347
0.08450,2.74750,-4.41000,0.00000,0.00878,0.04990,-0.98918,2023,6,12,16,2,41,358
0.08460,2.69500,-4.23500,0.00000,0.00634,0.04965,-0.98893,2023,6,12,16,2,41,369
0.08470,2.99250,-4.65500,0.00000,0.00842,0.05112,-0.98454,2023,6,12,16,2,41,381
0.08480,2.94000,-4.62000,0.00000,0.00683,0.04941,-0.98710,2023,6,12,16,2,41,392
0.08490,3.39500,-4.84750,0.00000,0.00732,0.04868,-0.98649,2023,6,12,16,2,41,403
0.08500,3.27250,-4.76000,0.00000,0.00952,0.04990,-0.98686,2023,6,12,16,2,41,414
0.08510,3.53500,-4.72500,0.00000,0.00756,0.04965,-0.98796,2023,6,12,16,2,41,425
0.08520,2.97500,-4.60250,0.00000,0.00732,0.04880,-0.98747,2023,6,12,16,2,41,436
0.08530,2.71250,-4.42750,0.00000,0.00634,0.04856,-0.98417,2023,6,12,16,2,41,447
0.08540,2.50250,-4.23500,0.00000,0.00744,0.04941,-0.98625,2023,6,12,16,2,41,458
0.08550,2.74750,-4.41000,0.00000,0.00793,0.04758,-0.98820,2023,6,12,16,2,41,469
0.08560,2.62500,-4.41000,0.00000,0.00659,0.04917,-0.98735,2023,6,12,16,2,41,481
0.08570,2.92250,-4.55000,0.00000,0.00891,0.04978,-0.99125,2023,6,12,16,2,41,492
0.08580,3.27250,-4.76000,0.00000,0.00634,0.04721,-0.98844,2023,6,12,16,2,41,503
0.08590,3.11500,-4.37500,0.00000,0.00439,0.04709,-0.98735,2023,6,12,16,2,41,514
0.08600,2.88750,-4.55000,0.00000,0.00830,0.04697,-0.98539,2023,6,12,16,2,41,525
0.08610,2.71250,-4.48000,0.00000,0.00647,0.04941,-0.98674,2023,6,12,16,2,41,536
0.08620,2.62500,-4.53250,0.00000,0.00781,0.04990,-0.98857,2023,6,12,16,2,41,547
0.08630,2.57250,-4.25250,0.00000,0.00988,0.04856,-0.98771,2023,6,12,16,2,41,558
0.08640,2.64250,-4.44500,0.00000,0.00671,0.04990,-0.98625,2023,6,12,16,2,41,569
0.08650,2.90500,-4.35750,0.00000,0.00732,0.04929,-0.98759,2023,6,12,16,2,41,581
0.08660,3.20250,-4.49750,0.00000,0.00793,0.04880,-0.98686,2023,6,12,16,2,41,592
0.08670,3.25500,-4.83000,0.00000,0.00854,0.04856,-0.98771,2023,6,12,16,2,41,603
0.08680,3.46500,-5.09250,0.00000,0.00830,0.04892,-0.98930,2023,6,12,16,2,41,614
0.08690,3.30750,-4.93500,0.00000,0.00793,0.04819,-0.98747,2023,6,12,16,2,41,625
0.08700,3.09750,-4.44500,0.00000,0.00927,0.04831,-0.98588,2023,6,12,16,2,41,636
0.08710,3.34250,-4.84750,0.00000,0.00683,0.04965,-0.98588,2023,6,12,16,2,41,647
0.08720,3.55250,-4.90000,0.00000,0.00793,0.04892,-0.98844,2023,6,12,16,2,41,658
0.08730,3.55250,-4.77750,0.00000,0.00903,0.04721,-0.98661,2023,6,12,16,2,41,669
0.08740,3.29000,-4.69000,0.00000,0.00671,0.04782,-0.98722,2023,6,12,16,2,41,681
0.08750,3.39500,-4.72500,0.00000,0.00720,0.04929,-0.98613,2023,6,12,16,2,41,692
0.08760,3.51750,-5.05750,0.00000,0.00756,0.04746,-0.98735,2023,6,12,16,2,41,703
0.08770,3.69250,-4.77750,0.00000,0.00744,0.05014,-0.98954,2023,6,12,16,2,41,714
0.08780,3.62250,-4.90000,0.00000,0.00805,0.04892,-0.98759,2023,6,12,16,2,41,725
0.08790,3.88500,-5.18000,0.00000,0.00683,0.04965,-0.98808,2023,6,12,16,2,41,736
0.08800,3.97250,-5.02250,0.00000,0.00610,0.04673,-0.98637,2023,6,12,16,2,41,747
0.08810,3.67500,-4.77750,0.00000,0.00708,0.04563,-0.98905,2023,6,12,16,2,41,758
0.08820,2.90500,-4.63750,0.00000,0.00756,0.04612,-0.98869,2023,6,12,16,2,41,769
0.08830,2.81750,-4.44500,0.00000,0.00659,0.04709,-0.98735,2023,6,12,16,2,41,781
0.08840,2.31000,-4.16500,0.00000,0.00830,0.04770,-0.98954,2023,6,12,16,2,41,792
0.08850,2.45000,-4.32250,0.00000,0.00830,0.04746,-0.98515,2023,6,12,16,2,41,803
0.08860,2.78250,-4.39250,0.00000,0.00769,0.04746,-0.98539,2023,6,12,16,2,41,814
0.08870,2.81750,-4.65500,0.00000,0.00561,0.04795,-0.98930,2023,6,12,16,2,41,825
0.08880,2.87000,-4.62000,0.00000,0.00708,0.04843,-0.98539,2023,6,12,16,2,41,836
0.08890,2.90500,-4.51500,0.00000,0.00610,0.04734,-0.98869,2023,6,12,16,2,41,847
0.08900,2.95750,-4.53250,0.00000,0.00622,0.04782,-0.98783,2023,6,12,16,2,41,858
0.08910,2.87000,-4.41000,0.00000,0.00793,0.04856,-0.98991,2023,6,12,16,2,41,869
0.08920,2.64250,-4.21750,0.00000,0.00720,0.04758,-0.98905,2023,6,12,16,2,41,881
0.08930,2.46750,-4.37500,0.00000,0.00878,0.04660,-0.98979,2023,6,12,16,2,41,892
0.08940,2.55500,-4.41000,0.00000,0.00695,0.04721,-0.98942,2023,6,12,16,2,41,903
0.08950,2.15250,-4.23500,0.00000,0.00671,0.04941,-0.98637,2023,6,12,16,2,41,914
0.08960,2.25750,-4.32250,0.00000,0.00720,0.04819,-0.98918,2023,6,12,16,2,41,925
0.08970,2.43250,-4.21750,0.00000,0.00378,0.05014,-0.98881,2023,6,12,16,2,41,936
0.08980,2.41500,-4.00750,0.00000,0.00610,0.04831,-0.98979,2023,6,12,16,2,41,947
0.08990,2.57250,-4.41000,0.00000,0.00939,0.04880,-0.98820,2023,6,12,16,2,41,958
0.09000,2.41500,-4.34000,0.00000,0.00793,0.04819,-0.98857,2023,6,12,16,2,42,9
0.09010,2.41500,-4.28750,0.00000,0.00842,0.04843,-0.98759,2023,6,12,16,2,42,21
0.09020,2.74750,-4.55000,0.00000,0.00573,0.04892,-0.98661,2023,6,12,16,2,42,32
0.09030,2.92250,-4.35750,0.00000,0.00720,0.05100,-0.98796,2023,6,12,16,2,42,43
0.09040,3.30750,-4.84750,0.00000,0.00805,0.05051,-0.98820,2023,6,12,16,2,42,54
0.09050,3.43000,-4.77750,0.00000,0.00720,0.05063,-0.98808,2023,6,12,16,2,42,65
0.09060,3.29000,-4.77750,0.00000,0.00695,0.04758,-0.98698,2023,6,12,16,2,42,76
0.09070,3.16750,-4.77750,0.00000,0.00634,0.04807,-0.98796,2023,6,12,16,2,42,87
0.09080,3.29000,-4.60250,0.00000,0.00793,0.04917,-0.99015,2023,6,12,16,2,42,98
0.09090,3.13250,-4.72500,0.00000,0.00708,0.05014,-0.98747,2023,6,12,16,2,42,109
0.09100,3.22000,-4.41000,0.00000,0.00659,0.04734,-0.99064,2023,6,12,16,2,42,121
0.09110,3.13250,-4.51500,0.00000,0.00769,0.04843,-0.98820,2023,6,12,16,2,42,132
0.09120,2.88750,-4.53250,0.00000,0.00671,0.04917,-0.98832,2023,6,12,16,2,42,143
0.09130,2.92250,-4.65500,0.00000,0.00708,0.05124,-0.98710,2023,6,12,16,2,42,154
0.09140,2.88750,-4.67250,0.00000,0.00720,0.05026,-0.98637,2023,6,12,16,2,42,165
0.09150,3.44750,-4.83000,0.00000,0.00695,0.04624,-0.99015,2023,6,12,16,2,42,176
0.09160,3.64000,-4.83000,0.00000,0.00915,0.04868,-0.98747,2023,6,12,16,2,42,187
0.09170,3.29000,-4.79500,0.00000,0.00891,0.04746,-0.99088,2023,6,12,16,2,42,198
0.09180,2.74750,-4.60250,0.00000,0.00561,0.04807,-0.98783,2023,6,12,16,2,42,209
0.09190,2.85250,-4.34000,0.00000,0.00817,0.04953,-0.99088,2023,6,12,16,2,42,221
0.09200,2.87000,-4.62000,0.00000,0.00683,0.05100,-0.98722,2023,6,12,16,2,42,232
0.09210,2.85250,-4.34000,0.00000,0.00720,0.04856,-0.98600,2023,6,12,16,2,42,243
0.09220,3.27250,-4.65500,0.00000,0.00781,0.04697,-0.98783,2023,6,12,16,2,42,254
0.09230,3.22000,-4.67250,0.00000,0.00769,0.04795,-0.98893,2023,6,12,16,2,42,265
0.09240,3.37750,-4.83000,0.00000,0.00573,0.04660,-0.98491,2023,6,12,16,2,42,276
0.09250,3.27250,-4.77750,0.00000,0.00598,0.04843,-0.98942,2023,6,12,16,2,42,287
0.09260,3.23750,-4.49750,0.00000,0.00732,0.04673,-0.98698,2023,6,12,16,2,42,298
0.09270,2.95750,-4.67250,0.00000,0.00598,0.04941,-0.98747,2023,6,12,16,2,42,309
0.09280,2.94000,-4.62000,0.00000,0.00488,0.04697,-0.98991,2023,6,12,16,2,42,321
0.09290,2.94000,-4.41000,0.00000,0.00622,0.04856,-0.98637,2023,6,12,16,2,42,332
0.09300,2.87000,-4.39250,0.00000,0.00598,0.04953,-0.99113,2023,6,12,16,2,42,343
0.09310,3.06250,-4.53250,0.00000,0.00573,0.04831,-0.98869,2023,6,12,16,2,42,354
0.09320,3.15000,-4.79500,0.00000,0.00586,0.04953,-0.98991,2023,6,12,16,2,42,365
0.09330,3.08000,-4.48000,0.00000,0.00720,0.04807,-0.98893,2023,6,12,16,2,42,376
0.09340,3.06250,-4.83000,0.00000,0.00671,0.04856,-0.98796,2023,6,12,16,2,42,387
0.09350,2.64250,-4.39250,0.00000,0.00732,0.04660,-0.99137,2023,6,12,16,2,42,398
0.09360,2.99250,-4.46250,0.00000,0.00659,0.05014,-0.98991,2023,6,12,16,2,42,409
0.09370,2.67750,-4.28750,0.00000,0.00634,0.04965,-0.98844,2023,6,12,16,2,42,421
0.09380,3.01000,-4.48000,0.00000,0.00573,0.05075,-0.99125,2023,6,12,16,2,42,432
0.09390,3.04500,-4.79500,0.00000,0.00720,0.04843,-0.99015,2023,6,12,16,2,42,443
0.09400,3.32500,-4.55000,0.00000,0.00720,0.04758,-0.98686,2023,6,12,16,2,42,454
0.09410,3.08000,-4.74250,0.00000,0.00744,0.04770,-0.98857,2023,6,12,16,2,42,465
0.09420,2.94000,-4.67250,0.00000,0.00695,0.04843,-0.98832,2023,6,12,16,2,42,476
0.09430,2.85250,-4.49750,0.00000,0.00793,0.04648,-0.99003,2023,6,12,16,2,42,487
0.09440,3.09750,-4.81250,0.00000,0.00708,0.04892,-0.98698,2023,6,12,16,2,42,498
0.09450,3.43000,-4.67250,0.00000,0.00708,0.04770,-0.98417,2023,6,12,16,2,42,509
0.09460,3.57000,-4.58500,0.00000,0.00647,0.04917,-0.98674,2023,6,12,16,2,42,521
0.09470,3.76250,-5.00500,0.00000,0.00647,0.04758,-0.98759,2023,6,12,16,2,42,532
0.09480,3.44750,-4.79500,0.00000,0.00695,0.04734,-0.99137,2023,6,12,16,2,42,543
0.09490,3.11500,-4.93500,0.00000,0.00464,0.04709,-0.98869,2023,6,12,16,2,42,554
0.09500,2.36250,-4.35750,0.00000,0.00708,0.04575,-0.98905,2023,6,12,16,2,42,565
0.09510,2.15250,-4.11250,0.00000,0.00659,0.04758,-0.98698,2023,6,12,16,2,42,576
0.09520,2.11750,-4.14750,0.00000,0.00500,0.04697,-0.98844,2023,6,12,16,2,42,587
0.09530,2.36250,-4.16500,0.00000,0.00756,0.04770,-0.98686,2023,6,12,16,2,42,598
0.09540,2.87000,-4.58500,0.00000,0.00793,0.04880,-0.98979,2023,6,12,16,2,42,609
0.09550,3.37750,-4.83000,0.00000,0.00671,0.04880,-0.98381,2023,6,12,16,2,42,621
0.09560,3.62250,-4.83000,0.00000,0.00708,0.04880,-0.98783,2023,6,12,16,2,42,632
0.09570,3.93750,-4.98750,0.00000,0.00744,0.04807,-0.99101,2023,6,12,16,2,42,643
0.09580,3.58750,-4.77750,0.00000,0.00708,0.04831,-0.98991,2023,6,12,16,2,42,654
0.09590,3.34250,-4.76000,0.00000,0.00561,0.04734,-0.98820,2023,6,12,16,2,42,665
0.09600,3.23750,-4.56750,0.00000,0.00793,0.04782,-0.98820,2023,6,12,16,2,42,676
0.09610,3.04500,-4.58500,0.00000,0.00610,0.04563,-0.98954,2023,6,12,16,2,42,687
0.09620,2.67750,-4.35750,0.00000,0.00634,0.04721,-0.98808,2023,6,12,16,2,42,698
0.09630,2.88750,-4.74250,0.00000,0.00512,0.04782,-0.98649,2023,6,12,16,2,42,709
0.09640,2.85250,-4.67250,0.00000,0.00744,0.04734,-0.98832,2023,6,12,16,2,42,721
0.09650,2.81750,-4.32250,0.00000,0.00622,0.04697,-0.98905,2023,6,12,16,2,42,732
0.09660,2.80000,-4.23500,0.00000,0.00586,0.04795,-0.98796,2023,6,12,16,2,42,743
0.09670,2.78250,-4.39250,0.00000,0.00622,0.04648,-0.98539,2023,6,12,16,2,42,754
0.09680,2.39750,-4.30500,0.00000,0.00732,0.04697,-0.98710,2023,6,12,16,2,42,765
0.09690,2.52000,-4.51500,0.00000,0.00622,0.04782,-0.98796,2023,6,12,16,2,42,776
0.09700,2.76500,-4.28750,0.00000,0.00659,0.04795,-0.98552,2023,6,12,16,2,42,787
0.09710,3.15000,-4.72500,0.00000,0.00549,0.04636,-0.98844,2023,6,12,16,2,42,798
0.09720,3.20250,-4.72500,0.00000,0.00708,0.04770,-0.98820,2023,6,12,16,2,42,809
0.09730,3.36000,-4.69000,0.00000,0.00878,0.04697,-0.98661,2023,6,12,16,2,42,821
0.09740,2.97500,-4.60250,0.00000,0.00586,0.04856,-0.98783,2023,6,12,16,2,42,832
0.09750,3.02750,-4.77750,0.00000,0.00756,0.04709,-0.98893,2023,6,12,16,2,42,843
0.09760,2.62500,-4.34000,0.00000,0.00598,0.04709,-0.98808,2023,6,12,16,2,42,854
0.09770,2.55500,-4.35750,0.00000,0.00708,0.04697,-0.99064,2023,6,12,16,2,42,865
0.09780,2.41500,-4.25250,0.00000,0.00659,0.04831,-0.99088,2023,6,12,16,2,42,876
0.09790,2.32750,-4.35750,0.00000,0.00878,0.04868,-0.98759,2023,6,12,16,2,42,887
0.09800,2.67750,-4.65500,0.00000,0.00793,0.04709,-0.98796,2023,6,12,16,2,42,898
0.09810,3.06250,-4.69000,0.00000,0.00769,0.04770,-0.98747,2023,6,12,16,2,42,909
0.09820,3.43000,-4.88250,0.00000,0.00854,0.04807,-0.98552,2023,6,12,16,2,42,921
0.09830,3.46500,-4.91750,0.00000,0.00573,0.04709,-0.98930,2023,6,12,16,2,42,932
0.09840,3.43000,-4.79500,0.00000,0.00720,0.04526,-0.98820,2023,6,12,16,2,42,943
0.09850,3.44750,-4.84750,0.00000,0.00756,0.04807,-0.98686,2023,6,12,16,2,42,954
0.09860,2.90500,-4.37500,0.00000,0.00366,0.04575,-0.98979,2023,6,12,16,2,42,965
0.09870,2.60750,-4.32250,0.00000,0.00647,0.04599,-0.98979,2023,6,12,16,2,42,976
0.09880,2.59000,-4.44500,0.00000,0.00695,0.04892,-0.98905,2023,6,12,16,2,43,7
0.09890,2.78250,-4.49750,0.00000,0.00622,0.04819,-0.98698,2023,6,12,16,2,43,18
0.09900,3.13250,-4.69000,0.00000,0.00891,0.05039,-0.99015,2023,6,12,16,2,43,29
0.09910,2.99250,-4.74250,0.00000,0.00793,0.04965,-0.98844,2023,6,12,16,2,43,41
0.09920,3.11500,-4.81250,0.00000,0.00622,0.04990,-0.99015,2023,6,12,16,2,43,52
0.09930,3.09750,-4.55000,0.00000,0.00683,0.04660,-0.98771,2023,6,12,16,2,43,63
0.09940,3.18500,-4.79500,0.00000,0.00793,0.04868,-0.98954,2023,6,12,16,2,43,74
0.09950,3.18500,-4.81250,0.00000,0.00403,0.04673,-0.98881,2023,6,12,16,2,43,85
0.09960,3.50000,-4.91750,0.00000,0.00683,0.04795,-0.98869,2023,6,12,16,2,43,96
0.09970,3.57000,-4.72500,0.00000,0.00756,0.04709,-0.98966,2023,6,12,16,2,43,107
0.09980,3.39500,-4.63750,0.00000,0.00659,0.04636,-0.99101,2023,6,12,16,2,43,118
0.09990,3.39500,-4.63750,0.00000,0.00537,0.04685,-0.98979,2023,6,12,16,2,43,129
0.10000,3.01000,-4.46250,0.00000,0.00683,0.04660,-0.98600,2023,6,12,16,2,43,141
0.10010,2.59000,-4.41000,0.00000,0.00683,0.04758,-0.98832,2023,6,12,16,2,43,152
0.10020,2.64250,-4.49750,0.00000,0.00647,0.04734,-0.98796,2023,6,12,16,2,43,163
0.10030,2.67750,-4.39250,0.00000,0.00769,0.04612,-0.98954,2023,6,12,16,2,43,174
0.10040,2.67750,-4.28750,0.00000,0.00634,0.04709,-0.98808,2023,6,12,16,2,43,185
0.10050,2.43250,-4.44500,0.00000,0.00537,0.04782,-0.98918,2023,6,12,16,2,43,196
0.10060,2.78250,-4.28750,0.00000,0.00671,0.04563,-0.99076,2023,6,12,16,2,43,207
0.10070,2.90500,-4.53250,0.00000,0.00744,0.04734,-0.98918,2023,6,12,16,2,43,218
0.10080,3.48250,-4.95250,0.00000,0.00622,0.04770,-0.98930,2023,6,12,16,2,43,229
0.10090,3.43000,-4.86500,0.00000,0.00683,0.04782,-0.98820,2023,6,12,16,2,43,241
0.10100,3.83250,-4.90000,0.00000,0.00525,0.04709,-0.98857,2023,6,12,16,2,43,252
0.10110,3.97250,-5.09250,0.00000,0.00586,0.04624,-0.98857,2023,6,12,16,2,43,263
0.10120,3.62250,-4.86500,0.00000,0.00512,0.04514,-0.98735,2023,6,12,16,2,43,274
0.10130,3.01000,-4.60250,0.00000,0.00756,0.04538,-0.99088,2023,6,12,16,2,43,285
0.10140,2.55500,-4.41000,0.00000,0.00695,0.04502,-0.98918,2023,6,12,16,2,43,296
0.10150,2.27500,-4.37500,0.00000,0.00610,0.04502,-0.98771,2023,6,12,16,2,43,307
0.10160,2.18750,-4.30500,0.00000,0.00695,0.04758,-0.98552,2023,6,12,16,2,43,318
0.10170,2.67750,-4.56750,0.00000,0.00817,0.04782,-0.98710,2023,6,12,16,2,43,329
0.10180,2.80000,-4.20000,0.00000,0.00683,0.04782,-0.98527,2023,6,12,16,2,43,341
0.10190,3.29000,-4.63750,0.00000,0.00830,0.04758,-0.98710,2023,6,12,16,2,43,352
0.10200,3.29000,-4.62000,0.00000,0.00720,0.04551,-0.98820,2023,6,12,16,2,43,363
0.10210,3.51750,-4.58500,0.00000,0.00488,0.04648,-0.98710,2023,6,12,16,2,43,374
0.10220,3.20250,-4.56750,0.00000,0.00598,0.04490,-0.98893,2023,6,12,16,2,43,385
0.10230,3.18500,-4.74250,0.00000,0.00695,0.04624,-0.98442,2023,6,12,16,2,43,396
0.10240,3.02750,-4.56750,0.00000,0.00586,0.04758,-0.98771,2023,6,12,16,2,43,407
0.10250,2.83500,-4.48000,0.00000,0.00720,0.04648,-0.98686,2023,6,12,16,2,43,418
0.10260,2.85250,-4.42750,0.00000,0.00793,0.04734,-0.98783,2023,6,12,16,2,43,429
0.10270,2.53750,-4.34000,0.00000,0.00817,0.04538,-0.98905,2023,6,12,16,2,43,441
0.10280,2.39750,-4.27000,0.00000,0.00586,0.04734,-0.98686,2023,6,12,16,2,43,452
0.10290,2.48500,-4.35750,0.00000,0.00537,0.04599,-0.98625,2023,6,12,16,2,43,463
0.10300,2.06500,-4.23500,0.00000,0.00830,0.04526,-0.98722,2023,6,12,16,2,43,474
0.10310,2.10000,-4.04250,0.00000,0.00793,0.04563,-0.98942,2023,6,12,16,2,43,485
0.10320,2.13500,-4.53250,0.00000,0.00683,0.04477,-0.98600,2023,6,12,16,2,43,496
0.10330,2.22250,-4.35750,0.00000,0.00793,0.04660,-0.98564,2023,6,12,16,2,43,507
0.10340,2.52000,-4.53250,0.00000,0.00720,0.04624,-0.98918,2023,6,12,16,2,43,518
0.10350,2.71250,-4.60250,0.00000,0.00903,0.04904,-0.98735,2023,6,12,16,2,43,529
0.10360,2.45000,-4.39250,0.00000,0.00732,0.05002,-0.98966,2023,6,12,16,2,43,541
0.10370,2.66000,-4.46250,0.00000,0.00695,0.04782,-0.98747,2023,6,12,16,2,43,552
0.10380,2.73000,-4.41000,0.00000,0.00695,0.04856,-0.98808,2023,6,12,16,2,43,563
0.10390,2.76500,-4.51500,0.00000,0.00647,0.04685,-0.99027,2023,6,12,16,2,43,574
0.10400,2.53750,-4.39250,0.00000,0.00598,0.04734,-0.98857,2023,6,12,16,2,43,585
0.10410,2.67750,-4.44500,0.00000,0.00805,0.04856,-0.99113,2023,6,12,16,2,43,596
0.10420,2.39750,-4.27000,0.00000,0.00720,0.04697,-0.98771,2023,6,12,16,2,43,607
0.10430,2.38000,-4.34000,0.00000,0.00878,0.04587,-0.99040,2023,6,12,16,2,43,618
0.10440,2.22250,-4.11250,0.00000,0.00708,0.04612,-0.98796,2023,6,12,16,2,43,629
0.10450,2.17000,-4.14750,0.00000,0.00500,0.04685,-0.98661,2023,6,12,16,2,43,641
0.10460,2.38000,-4.20000,0.00000,0.00805,0.04990,-0.98771,2023,6,12,16,2,43,652
0.10470,2.52000,-4.30500,0.00000,0.00793,0.04782,-0.98686,2023,6,12,16,2,43,663
0.10480,2.53750,-4.27000,0.00000,0.00573,0.04843,-0.98698,2023,6,12,16,2,43,674
0.10490,2.67750,-4.51500,0.00000,0.00744,0.04856,-0.98564,2023,6,12,16,2,43,685
0.10500,2.71250,-4.48000,0.00000,0.00976,0.05124,-0.98796,2023,6,12,16,2,43,696
0.10510,3.25500,-4.49750,0.00000,0.00573,0.04929,-0.99088,2023,6,12,16,2,43,707
0.10520,3.22000,-4.67250,0.00000,0.00744,0.04758,-0.99137,2023,6,12,16,2,43,718
0.10530,2.83500,-4.58500,0.00000,0.00488,0.04734,-0.98735,2023,6,12,16,2,43,729
0.10540,3.04500,-4.70750,0.00000,0.00634,0.04746,-0.98783,2023,6,12,16,2,43,741
0.10550,2.94000,-4.56750,0.00000,0.00537,0.04734,-0.98820,2023,6,12,16,2,43,752
0.10560,2.74750,-4.49750,0.00000,0.00647,0.04770,-0.98808,2023,6,12,16,2,43,763
0.10570,2.76500,-4.46250,0.00000,0.00720,0.04965,-0.98759,2023,6,12,16,2,43,774
0.10580,2.66000,-4.42750,0.00000,0.00622,0.04795,-0.99052,2023,6,12,16,2,43,785
0.10590,2.66000,-4.55000,0.00000,0.00805,0.04843,-0.98698,2023,6,12,16,2,43,796
0.10600,2.48500,-4.37500,0.00000,0.00708,0.04758,-0.99137,2023,6,12,16,2,43,807
0.10610,2.45000,-4.23500,0.00000,0.00781,0.04807,-0.98588,2023,6,12,16,2,43,818
0.10620,2.31000,-4.21750,0.00000,0.00537,0.04880,-0.98869,2023,6,12,16,2,43,829
0.10630,1.99500,-4.21750,0.00000,0.00671,0.04978,-0.98747,2023,6,12,16,2,43,841
0.10640,2.39750,-4.21750,0.00000,0.00781,0.04746,-0.98674,2023,6,12,16,2,43,852
0.10650,2.18750,-4.07750,0.00000,0.00634,0.04917,-0.98783,2023,6,12,16,2,43,863
0.10660,2.27500,-4.46250,0.00000,0.00842,0.05039,-0.98771,2023,6,12,16,2,43,874
0.10670,3.22000,-4.79500,0.00000,0.00561,0.04990,-0.98539,2023,6,12,16,2,43,885
0.10680,5.04000,-5.25000,0.00000,0.00573,0.05209,-0.98808,2023,6,12,16,2,43,896
0.10690,3.30750,-4.63750,0.00000,0.00537,0.04624,-0.99113,2023,6,12,16,2,43,907
0.10700,4.27000,-5.05750,0.00000,0.00805,0.04880,-0.98893,2023,6,12,16,2,43,918
0.10710,3.92000,-5.05750,0.00000,0.00769,0.04880,-0.98588,2023,6,12,16,2,43,929
0.10720,4.76000,-5.28500,0.00000,0.00866,0.04941,-0.98674,2023,6,12,16,2,43,941
0.10730,4.60250,-5.40750,0.00000,0.00805,0.05014,-0.98442,2023,6,12,16,2,43,952
0.10740,4.35750,-5.21500,0.00000,0.00817,0.04587,-0.98698,2023,6,12,16,2,43,963
0.10750,3.90250,-5.04000,0.00000,0.00586,0.04660,-0.98832,2023,6,12,16,2,43,974
0.10760,3.01000,-4.55000,0.00000,0.00671,0.04599,-0.98905,2023,6,12,16,2,44,5
0.10770,2.57250,-4.30500,0.00000,0.00769,0.04697,-0.98747,2023,6,12,16,2,44,16
0.10780,2.39750,-4.48000,0.00000,0.00744,0.04782,-0.98539,2023,6,12,16,2,44,27
0.10790,2.43250,-4.21750,0.00000,0.00488,0.04685,-0.98979,2023,6,12,16,2,44,38
0.10800,2.27500,-4.13000,0.00000,0.00573,0.04795,-0.98857,2023,6,12,16,2,44,49
0.10810,2.34500,-4.16500,0.00000,0.00805,0.04807,-0.98661,2023,6,12,16,2,44,61
0.10820,2.92250,-4.58500,0.00000,0.00683,0.04953,-0.98869,2023,6,12,16,2,44,72
0.10830,2.67750,-4.44500,0.00000,0.00622,0.05075,-0.98466,2023,6,12,16,2,44,83
0.10840,2.69500,-4.25250,0.00000,0.00671,0.04856,-0.98722,2023,6,12,16,2,44,94
0.10850,2.85250,-4.42750,0.00000,0.00634,0.04917,-0.98832,2023,6,12,16,2,44,105
0.10860,2.78250,-4.41000,0.00000,0.01000,0.04734,-0.98722,2023,6,12,16,2,44,116
0.10870,2.57250,-4.48000,0.00000,0.00805,0.04770,-0.99101,2023,6,12,16,2,44,127
0.10880,2.52000,-4.35750,0.00000,0.00525,0.04648,-0.99003,2023,6,12,16,2,44,138
0.10890,2.25750,-4.27000,0.00000,0.00830,0.04648,-0.98722,2023,6,12,16,2,44,149
0.10900,2.27500,-4.25250,0.00000,0.00659,0.04904,-0.99064,2023,6,12,16,2,44,161
0.10910,2.29250,-4.04250,0.00000,0.00732,0.04831,-0.98759,2023,6,12,16,2,44,172
0.10920,2.27500,-4.16500,0.00000,0.00817,0.05026,-0.98466,2023,6,12,16,2,44,183
0.10930,2.38000,-4.23500,0.00000,0.00781,0.05075,-0.98539,2023,6,12,16,2,44,194
0.10940,2.08250,-4.34000,0.00000,0.00732,0.04868,-0.98735,2023,6,12,16,2,44,205
0.10950,2.31000,-4.35750,0.00000,0.00708,0.04843,-0.98588,2023,6,12,16,2,44,216
0.10960,2.64250,-4.13000,0.00000,0.00842,0.04941,-0.98588,2023,6,12,16,2,44,227
0.10970,2.73000,-4.49750,0.00000,0.00805,0.05087,-0.98832,2023,6,12,16,2,44,238
0.10980,3.11500,-4.51500,0.00000,0.00756,0.04990,-0.98442,2023,6,12,16,2,44,249
0.10990,3.25500,-4.62000,0.00000,0.00683,0.04990,-0.98564,2023,6,12,16,2,44,261
0.11000,3.36000,-4.81250,0.00000,0.00610,0.04782,-0.98698,2023,6,12,16,2,44,272
0.11010,3.23750,-4.65500,0.00000,0.00671,0.04721,-0.98796,2023,6,12,16,2,44,283
0.11020,2.94000,-4.63750,0.00000,0.00622,0.04953,-0.99296,2023,6,12,16,2,44,294
0.11030,3.27250,-4.83000,0.00000,0.00817,0.04758,-0.98930,2023,6,12,16,2,44,305
0.11040,3.08000,-4.41000,0.00000,0.00769,0.04746,-0.98869,2023,6,12,16,2,44,316
0.11050,2.62500,-4.51500,0.00000,0.00769,0.05051,-0.98991,2023,6,12,16,2,44,327
0.11060,2.50250,-4.32250,0.00000,0.00988,0.04978,-0.98783,2023,6,12,16,2,44,338
0.11070,2.78250,-4.35750,0.00000,0.00744,0.04978,-0.98820,2023,6,12,16,2,44,349
0.11080,2.90500,-4.69000,0.00000,0.00744,0.04856,-0.98771,2023,6,12,16,2,44,361
0.11090,2.76500,-4.48000,0.00000,0.00561,0.04880,-0.99027,2023,6,12,16,2,44,372
0.11100,3.32500,-4.60250,0.00000,0.00695,0.05136,-0.98808,2023,6,12,16,2,44,383
0.11110,3.06250,-4.62000,0.00000,0.00903,0.04892,-0.98893,2023,6,12,16,2,44,394
0.11120,3.16750,-4.60250,0.00000,0.00830,0.04880,-0.98722,2023,6,12,16,2,44,405
0.11130,3.11500,-4.41000,0.00000,0.00720,0.04965,-0.98637,2023,6,12,16,2,44,416
0.11140,3.27250,-4.72500,0.00000,0.00781,0.04856,-0.98686,2023,6,12,16,2,44,427
0.11150,3.06250,-4.70750,0.00000,0.00708,0.04660,-0.99040,2023,6,12,16,2,44,438
0.11160,3.09750,-4.72500,0.00000,0.00732,0.04892,-0.98857,2023,6,12,16,2,44,449
0.11170,3.25500,-4.69000,0.00000,0.00708,0.04965,-0.98893,2023,6,12,16,2,44,461
0.11180,3.02750,-4.65500,0.00000,0.00732,0.04868,-0.99064,2023,6,12,16,2,44,472
0.11190,3.15000,-4.53250,0.00000,0.00647,0.04721,-0.99088,2023,6,12,16,2,44,483
0.11200,3.32500,-4.65500,0.00000,0.00598,0.05002,-0.98759,2023,6,12,16,2,44,494
0.11210,3.22000,-4.70750,0.00000,0.00708,0.04673,-0.98808,2023,6,12,16,2,44,505
0.11220,3.18500,-4.58500,0.00000,0.00659,0.04795,-0.98783,2023,6,12,16,2,44,516
0.11230,3.37750,-4.91750,0.00000,0.00732,0.04868,-0.98979,2023,6,12,16,2,44,527
0.11240,3.37750,-4.83000,0.00000,0.00647,0.04795,-0.98783,2023,6,12,16,2,44,538
0.11250,2.99250,-4.53250,0.00000,0.00525,0.04831,-0.98930,2023,6,12,16,2,44,549
0.11260,3.22000,-4.81250,0.00000,0.00878,0.04758,-0.98661,2023,6,12,16,2,44,561
0.11270,3.08000,-4.65500,0.00000,0.00817,0.04807,-0.98771,2023,6,12,16,2,44,572
0.11280,2.90500,-4.44500,0.00000,0.00732,0.05026,-0.98820,2023,6,12,16,2,44,583
0.11290,3.15000,-4.72500,0.00000,0.00732,0.04843,-0.99162,2023,6,12,16,2,44,594
0.11300,2.85250,-4.63750,0.00000,0.00610,0.04831,-0.98820,2023,6,12,16,2,44,605
0.11310,2.62500,-4.41000,0.00000,0.00805,0.04843,-0.98857,2023,6,12,16,2,44,616
0.11320,2.73000,-4.48000,0.00000,0.00634,0.04648,-0.99125,2023,6,12,16,2,44,627
0.11330,2.55500,-4.39250,0.00000,0.00988,0.04843,-0.98674,2023,6,12,16,2,44,638
0.11340,2.83500,-4.62000,0.00000,0.00671,0.04734,-0.98771,2023,6,12,16,2,44,649
0.11350,3.29000,-4.62000,0.00000,0.00683,0.04807,-0.98698,2023,6,12,16,2,44,661
0.11360,3.44750,-4.72500,0.00000,0.00830,0.04953,-0.98625,2023,6,12,16,2,44,672
0.11370,3.79750,-4.76000,0.00000,0.00744,0.04807,-0.98857,2023,6,12,16,2,44,683
0.11380,4.18250,-5.21500,0.00000,0.00573,0.04892,-0.98844,2023,6,12,16,2,44,694
0.11390,4.00750,-5.02250,0.00000,0.00610,0.04746,-0.98783,2023,6,12,16,2,44,705
0.11400,3.58750,-4.90000,0.00000,0.00634,0.04660,-0.99101,2023,6,12,16,2,44,716
0.11410,3.04500,-4.44500,0.00000,0.00610,0.04685,-0.98966,2023,6,12,16,2,44,727
0.11420,2.50250,-4.34000,0.00000,0.00634,0.04746,-0.99088,2023,6,12,16,2,44,738
0.11430,2.18750,-4.27000,0.00000,0.00586,0.04746,-0.98698,2023,6,12,16,2,44,749
0.11440,2.20500,-4.30500,0.00000,0.00781,0.04904,-0.98966,2023,6,12,16,2,44,761
0.11450,2.74750,-4.53250,0.00000,0.00586,0.04782,-0.98698,2023,6,12,16,2,44,772
0.11460,3.13250,-4.62000,0.00000,0.00756,0.04612,-0.98747,2023,6,12,16,2,44,783
0.11470,3.20250,-4.62000,0.00000,0.00708,0.04965,-0.98686,2023,6,12,16,2,44,794
0.11480,3.27250,-4.93500,0.00000,0.00610,0.04770,-0.98735,2023,6,12,16,2,44,805
0.11490,3.06250,-4.56750,0.00000,0.00561,0.04673,-0.99113,2023,6,12,16,2,44,816
0.11500,3.13250,-4.63750,0.00000,0.00622,0.04819,-0.98747,2023,6,12,16,2,44,827
0.11510,3.06250,-4.63750,0.00000,0.00720,0.04782,-0.98966,2023,6,12,16,2,44,838
0.11520,2.99250,-4.65500,0.00000,0.00683,0.04758,-0.98808,2023,6,12,16,2,44,849
0.11530,2.62500,-4.39250,0.00000,0.00744,0.04734,-0.98796,2023,6,12,16,2,44,861
0.11540,2.53750,-4.32250,0.00000,0.00537,0.04758,-0.98881,2023,6,12,16,2,44,872
0.11550,2.69500,-4.55000,0.00000,0.00586,0.04770,-0.98771,2023,6,12,16,2,44,883
0.11560,2.69500,-4.46250,0.00000,0.00683,0.04929,-0.98588,2023,6,12,16,2,44,894
0.11570,2.81750,-4.42750,0.00000,0.00744,0.04575,-0.98820,2023,6,12,16,2,44,905
0.11580,2.87000,-4.41000,0.00000,0.00647,0.04843,-0.98771,2023,6,12,16,2,44,916
0.11590,2.50250,-4.32250,0.00000,0.00793,0.05026,-0.98637,2023,6,12,16,2,44,927
0.11600,2.41500,-4.28750,0.00000,0.00781,0.04843,-0.99064,2023,6,12,16,2,44,938
0.11610,2.69500,-4.51500,0.00000,0.00476,0.04795,-0.98613,2023,6,12,16,2,44,949
0.11620,2.94000,-4.37500,0.00000,0.00512,0.04746,-0.98832,2023,6,12,16,2,44,961
0.11630,3.20250,-4.79500,0.00000,0.00586,0.04856,-0.98759,2023,6,12,16,2,44,972
0.11640,3.44750,-4.91750,0.00000,0.00598,0.04612,-0.98735,2023,6,12,16,2,45,3
0.11650,3.29000,-4.69000,0.00000,0.00647,0.04697,-0.98905,2023,6,12,16,2,45,14
0.11660,3.04500,-4.84750,0.00000,0.00732,0.04770,-0.98844,2023,6,12,16,2,45,25
0.11670,2.90500,-4.42750,0.00000,0.00415,0.04648,-0.98759,2023,6,12,16,2,45,36
0.11680,2.62500,-4.42750,0.00000,0.00793,0.04843,-0.98600,2023,6,12,16,2,45,47
0.11690,2.46750,-4.42750,0.00000,0.00659,0.04758,-0.99027,2023,6,12,16,2,45,58
0.11700,2.59000,-4.30500,0.00000,0.00720,0.04843,-0.98808,2023,6,12,16,2,45,69
0.11710,2.95750,-4.27000,0.00000,0.00647,0.04868,-0.99003,2023,6,12,16,2,45,81
0.11720,3.09750,-4.65500,0.00000,0.00720,0.04843,-0.98637,2023,6,12,16,2,45,92
0.11730,3.36000,-4.72500,0.00000,0.00769,0.04673,-0.98625,2023,6,12,16,2,45,103
0.11740,3.23750,-4.69000,0.00000,0.00720,0.04917,-0.98783,2023,6,12,16,2,45,114
0.11750,3.06250,-4.53250,0.00000,0.00744,0.04575,-0.98857,2023,6,12,16,2,45,125
0.11760,2.66000,-4.23500,0.00000,0.00903,0.04807,-0.98698,2023,6,12,16,2,45,136
0.11770,2.73000,-4.65500,0.00000,0.00647,0.04843,-0.98796,2023,6,12,16,2,45,147
0.11780,2.48500,-4.51500,0.00000,0.00671,0.04795,-0.98588,2023,6,12,16,2,45,158
0.11790,2.64250,-4.37500,0.00000,0.00683,0.04929,-0.98905,2023,6,12,16,2,45,169
0.11800,2.97500,-4.49750,0.00000,0.00561,0.04697,-0.98808,2023,6,12,16,2,45,181
0.11810,3.30750,-4.56750,0.00000,0.00561,0.04880,-0.98942,2023,6,12,16,2,45,192
0.11820,3.32500,-4.76000,0.00000,0.00647,0.05039,-0.98552,2023,6,12,16,2,45,203
0.11830,3.53500,-4.83000,0.00000,0.00586,0.04746,-0.98686,2023,6,12,16,2,45,214
0.11840,3.39500,-4.83000,0.00000,0.00671,0.04599,-0.98661,2023,6,12,16,2,45,225
0.11850,3.13250,-4.62000,0.00000,0.00769,0.04904,-0.98844,2023,6,12,16,2,45,236
0.11860,3.25500,-4.48000,0.00000,0.00866,0.04795,-0.98674,2023,6,12,16,2,45,247
0.11870,2.83500,-4.60250,0.00000,0.00500,0.04978,-0.98747,2023,6,12,16,2,45,258
0.11880,2.74750,-4.49750,0.00000,0.00573,0.04831,-0.98966,2023,6,12,16,2,45,269
0.11890,2.99250,-4.60250,0.00000,0.00756,0.04917,-0.98735,2023,6,12,16,2,45,281
0.11900,2.99250,-4.67250,0.00000,0.00622,0.04514,-0.98661,2023,6,12,16,2,45,292
0.11910,3.41250,-4.77750,0.00000,0.00915,0.04782,-0.98613,2023,6,12,16,2,45,303
0.11920,3.43000,-4.74250,0.00000,0.00708,0.04758,-0.98661,2023,6,12,16,2,45,314
0.11930,3.06250,-4.55000,0.00000,0.00805,0.04807,-0.99015,2023,6,12,16,2,45,325
0.11940,3.18500,-4.72500,0.00000,0.00525,0.04770,-0.98783,2023,6,12,16,2,45,336
0.11950,3.04500,-4.65500,0.00000,0.00781,0.04746,-0.98674,2023,6,12,16,2,45,347
0.11960,3.01000,-4.60250,0.00000,0.00842,0.04721,-0.98491,2023,6,12,16,2,45,358
0.11970,2.74750,-4.37500,0.00000,0.00549,0.04856,-0.98881,2023,6,12,16,2,45,369
0.11980,2.66000,-4.46250,0.00000,0.00805,0.04770,-0.98918,2023,6,12,16,2,45,381
0.11990,2.46750,-4.25250,0.00000,0.00720,0.04953,-0.98771,2023,6,12,16,2,45,392
0.12000,1.97750,-4.09500,0.00000,0.00512,0.04734,-0.98710,2023,6,12,16,2,45,403
0.12010,1.19000,-3.83250,0.00000,0.00622,0.04587,-0.99149,2023,6,12,16,2,45,414
0.12020,0.54250,-3.37750,0.00000,0.00671,0.04904,-0.98686,2023,6,12,16,2,45,425
0.12030,0.31500,-3.34250,0.00000,0.00927,0.04587,-0.98832,2023,6,12,16,2,45,436
0.12040,1.41750,-3.92000,0.00000,0.00903,0.04953,-0.98320,2023,6,12,16,2,45,447
0.12050,6.16000,-6.16000,0.00000,0.01476,-0.00220,-0.94404,2023,6,12,16,2,45,458
0.12060,9.06500,-7.59500,0.00000,-0.00659,0.04843,-0.99137,2023,6,12,16,2,45,469
0.12070,11.77750,-9.53750,0.00000,0.04904,-0.09931,-0.94282,2023,6,12,16,2,45,481
0.12080,35.26250,-20.24750,0.00000,0.01318,-0.03636,-0.90024,2023,6,12,16,2,45,492
0.12090,30.88750,-19.75750,0.00000,-0.02025,0.21191,-1.32455,2023,6,12,16,2,45,503
0.12100,31.46500,-17.92000,0.00000,0.03514,0.07100,-1.09214,2023,6,12,16,2,45,514
0.12110,19.63500,-12.23250,0.00000,0.01257,0.01037,-0.89487,2023,6,12,16,2,45,525
0.12120,0.91000,-10.62250,0.00000,0.00915,0.02904,-1.04139,2023,6,12,16,2,45,536
0.12130,41.30000,9.03000,0.00000,-0.04075,0.07857,-0.48812,2023,6,12,16,2,45,547
0.12140,18.65500,-14.63000,0.00000,-0.15921,0.16189,-1.21549,2023,6,12,16,2,45,558
0.12150,19.12750,-12.84500,0.00000,-0.01135,0.11980,-1.02480,2023,6,12,16,2,45,569
0.12160,-5.21500,0.31500,0.00000,-0.04087,-0.05075,-1.04054,2023,6,12,16,2,45,581
0.12170,-3.09750,-2.71250,0.00000,-0.00769,-0.04197,-0.98637,2023,6,12,16,2,45,592
0.12180,-6.77250,-0.01750,0.00000,-0.00244,0.03087,-0.97478,2023,6,12,16,2,45,603
0.12190,9.20500,-7.47250,0.00000,-0.00976,0.01549,-0.99357,2023,6,12,16,2,45,614
0.12200,-1.12000,-2.59000,0.00000,-0.00317,0.02696,-0.98100,2023,6,12,16,2,45,625
0.12210,5.44250,-5.81000,0.00000,-0.00354,0.02696,-0.98149,2023,6,12,16,2,45,636
0.12220,1.40000,-3.90250,0.00000,-0.00610,0.01879,-0.99015,2023,6,12,16,2,45,647
0.12230,4.72500,-5.37250,0.00000,-0.00488,0.02342,-0.98735,2023,6,12,16,2,45,658
0.12240,2.87000,-3.90250,0.00000,-0.00732,0.01537,-0.99223,2023,6,12,16,2,45,669
0.12250,3.57000,-4.93500,0.00000,-0.00671,0.02245,-0.98503,2023,6,12,16,2,45,681
0.12260,2.83500,-4.34000,0.00000,-0.00610,0.01891,-0.98918,2023,6,12,16,2,45,692
0.12270,3.58750,-4.63750,0.00000,-0.00586,0.02123,-0.98735,2023,6,12,16,2,45,703
0.12280,2.87000,-4.48000,0.00000,-0.00720,0.02050,-0.99027,2023,6,12,16,2,45,714
0.12290,3.39500,-4.86500,0.00000,-0.00561,0.02086,-0.98796,2023,6,12,16,2,45,725
0.12300,2.99250,-4.51500,0.00000,-0.00610,0.01891,-0.98808,2023,6,12,16,2,45,736
0.12310,3.25500,-4.74250,0.00000,-0.00659,0.02062,-0.98820,2023,6,12,16,2,45,747
0.12320,3.11500,-4.39250,0.00000,-0.00549,0.02025,-0.98613,2023,6,12,16,2,45,758
0.12330,3.20250,-4.70750,0.00000,-0.00744,0.02111,-0.98747,2023,6,12,16,2,45,769
0.12340,3.02750,-4.77750,0.00000,-0.00659,0.01915,-0.98942,2023,6,12,16,2,45,781
0.12350,3.29000,-4.76000,0.00000,-0.00732,0.02098,-0.98478,2023,6,12,16,2,45,792
0.12360,3.09750,-4.65500,0.00000,-0.00683,0.02220,-0.98478,2023,6,12,16,2,45,803
0.12370,3.16750,-4.58500,0.00000,-0.00659,0.02086,-0.98759,2023,6,12,16,2,45,814
0.12380,3.15000,-4.69000,0.00000,-0.00573,0.01854,-0.99003,2023,6,12,16,2,45,825
0.12390,2.95750,-4.49750,0.00000,-0.00610,0.01964,-0.98783,2023,6,12,16,2,45,836
0.12400,3.08000,-4.46250,0.00000,-0.00659,0.02001,-0.98771,2023,6,12,16,2,45,847
0.12410,2.95750,-4.42750,0.00000,-0.00476,0.02037,-0.98857,2023,6,12,16,2,45,858
0.12420,3.25500,-4.65500,0.00000,-0.00537,0.02074,-0.98966,2023,6,12,16,2,45,869
0.12430,2.94000,-4.53250,0.00000,-0.00756,0.02123,-0.98979,2023,6,12,16,2,45,881
0.12440,3.18500,-4.46250,0.00000,-0.00476,0.02220,-0.98869,2023,6,12,16,2,45,892
0.12450,2.95750,-4.69000,0.00000,-0.00683,0.02050,-0.98661,2023,6,12,16,2,45,903
0.12460,3.22000,-4.70750,0.00000,-0.00671,0.01708,-0.98747,2023,6,12,16,2,45,914
0.12470,3.09750,-4.58500,0.00000,-0.00561,0.02037,-0.98722,2023,6,12,16,2,45,925
0.12480,2.90500,-4.56750,0.00000,-0.00744,0.01854,-0.98759,2023,6,12,16,2,45,936
0.12490,3.08000,-4.51500,0.00000,-0.00671,0.01842,-0.98564,2023,6,12,16,2,45,947
0.12500,3.06250,-4.67250,0.00000,-0.00634,0.01989,-0.98832,2023,6,12,16,2,45,958
0.12510,3.16750,-4.62000,0.00000,-0.00769,0.01842,-0.98735,2023,6,12,16,2,45,969
0.12520,3.08000,-4.63750,0.00000,-0.00525,0.01964,-0.98735,2023,6,12,16,2,46,1
0.12530,2.87000,-4.46250,0.00000,-0.00561,0.01989,-0.98759,2023,6,12,16,2,46,12
0.12540,3.06250,-4.69000,0.00000,-0.00537,0.02159,-0.98649,2023,6,12,16,2,46,23
0.12550,3.01000,-4.56750,0.00000,-0.00817,0.02172,-0.98942,2023,6,12,16,2,46,34
0.12560,3.11500,-4.56750,0.00000,-0.00537,0.01952,-0.98942,2023,6,12,16,2,46,45
0.12570,3.01000,-4.62000,0.00000,-0.00805,0.02001,-0.99052,2023,6,12,16,2,46,56
0.12580,2.99250,-4.69000,0.00000,-0.00476,0.02159,-0.98966,2023,6,12,16,2,46,67
0.12590,2.99250,-4.55000,0.00000,-0.00634,0.02050,-0.98686,2023,6,12,16,2,46,78
0.12600,3.09750,-4.79500,0.00000,-0.00756,0.01940,-0.98552,2023,6,12,16,2,46,89
0.12610,2.97500,-4.39250,0.00000,-0.00622,0.01659,-0.98747,2023,6,12,16,2,46,101
0.12620,3.06250,-4.65500,0.00000,-0.00732,0.01940,-0.98674,2023,6,12,16,2,46,112
0.12630,2.97500,-4.70750,0.00000,-0.00683,0.01940,-0.98796,2023,6,12,16,2,46,123
0.12640,2.85250,-4.48000,0.00000,-0.00622,0.02123,-0.98820,2023,6,12,16,2,46,134
0.12650,3.11500,-4.67250,0.00000,-0.00634,0.01879,-0.98759,2023,6,12,16,2,46,145
0.12660,2.95750,-4.58500,0.00000,-0.00537,0.02013,-0.99088,2023,6,12,16,2,46,156
0.12670,3.01000,-4.55000,0.00000,-0.00683,0.02050,-0.98820,2023,6,12,16,2,46,167
0.12680,3.06250,-4.74250,0.00000,-0.00647,0.02013,-0.98796,2023,6,12,16,2,46,178
0.12690,3.15000,-4.67250,0.00000,-0.00634,0.01915,-0.98857,2023,6,12,16,2,46,189
0.12700,2.92250,-4.69000,0.00000,-0.00695,0.02037,-0.98796,2023,6,12,16,2,46,201
0.12710,3.09750,-4.67250,0.00000,-0.00573,0.02098,-0.98783,2023,6,12,16,2,46,212
0.12720,3.08000,-4.53250,0.00000,-0.00695,0.01952,-0.98966,2023,6,12,16,2,46,223
0.12730,3.02750,-4.69000,0.00000,-0.00634,0.01891,-0.98613,2023,6,12,16,2,46,234
0.12740,2.81750,-4.58500,0.00000,-0.00793,0.01879,-0.98832,2023,6,12,16,2,46,245
0.12750,3.23750,-4.83000,0.00000,-0.00476,0.02025,-0.98637,2023,6,12,16,2,46,256
0.12760,3.20250,-4.60250,0.00000,-0.00610,0.02013,-0.98674,2023,6,12,16,2,46,267
0.12770,3.11500,-4.62000,0.00000,-0.00732,0.02208,-0.98710,2023,6,12,16,2,46,278
0.12780,2.87000,-4.62000,0.00000,-0.00525,0.02025,-0.99113,2023,6,12,16,2,46,289
0.12790,3.04500,-4.34000,0.00000,-0.00769,0.01781,-0.98832,2023,6,12,16,2,46,301
0.12800,3.04500,-4.77750,0.00000,-0.00732,0.02135,-0.99113,2023,6,12,16,2,46,312
0.12810,3.04500,-4.49750,0.00000,-0.00647,0.01891,-0.98832,2023,6,12,16,2,46,323
0.12820,3.22000,-4.86500,0.00000,0.00195,-0.13932,-0.89670,2023,6,12,16,2,46,334
0.12830,94.13250,-15.38250,0.00000,-0.15348,-0.03306,-1.32626,2023,6,12,16,2,46,345
0.12840,-3.79750,-2.24000,0.00000,0.04612,-0.09967,-0.99650,2023,6,12,16,2,46,356
0.12850,5.75750,-7.03500,0.00000,-0.04307,0.08479,-1.50731,2023,6,12,16,2,46,367
0.12860,-9.27500,-1.78500,0.00000,0.01976,0.08442,-1.36152,2023,6,12,16,2,46,378
0.12870,-32.42750,11.04250,0.00000,0.09248,0.11956,-0.71297,2023,6,12,16,2,46,389
0.12880,29.90750,-14.61250,0.00000,-0.02062,0.25474,-1.12350,2023,6,12,16,2,46,401
0.12890,-9.31000,0.91000,0.00000,0.03648,0.21313,-1.10678,2023,6,12,16,2,46,412
0.12900,15.92500,-10.23750,0.00000,-0.00634,0.02245,-0.96990,2023,6,12,16,2,46,423
0.12910,-2.41500,-2.18750,0.00000,-0.01293,0.00000,-1.00918,2023,6,12,16,2,46,434
0.12920,7.00000,-6.42250,0.00000,-0.00256,0.02440,-0.97356,2023,6,12,16,2,46,445
0.12930,3.29000,-4.77750,0.00000,-0.01598,0.00146,-1.00943,2023,6,12,16,2,46,456
0.12940,3.25500,-4.62000,0.00000,-0.00378,0.02721,-0.97039,2023,6,12,16,2,46,467
0.12950,2.74750,-4.65500,0.00000,-0.01074,0.00647,-1.00186,2023,6,12,16,2,46,478
0.12960,1.80250,-4.00750,0.00000,-0.00573,0.02123,-0.97393,2023,6,12,16,2,46,489
0.12970,3.67500,-4.83000,0.00000,-0.01293,0.00952,-0.99515,2023,6,12,16,2,46,501
0.12980,2.46750,-4.37500,0.00000,-0.00500,0.02159,-0.98112,2023,6,12,16,2,46,512
0.12990,14.42000,-11.98750,0.00000,0.06173,-0.18995,-0.99894,2023,6,12,16,2,46,523
0.13000,9.48500,-7.91000,0.00000,-0.11505,-0.16824,-1.05933,2023,6,12,16,2,46,534
0.13010,4.90000,-1.24250,0.00000,0.14250,-0.30512,-0.94343,2023,6,12,16,2,46,545
0.13020,-9.01250,9.31000,0.00000,0.07893,-0.19117,-1.05249,2023,6,12,16,2,46,556
0.13030,25.55000,-3.64000,0.00000,-0.09211,0.12310,-0.98149,2023,6,12,16,2,46,567
0.13040,-7.00000,-1.01500,0.00000,-0.04465,0.14652,-1.16913,2023,6,12,16,2,46,578
0.13050,0.63000,-5.91500,0.00000,-0.03062,0.21948,-1.11728,2023,6,12,16,2,46,589
0.13060,2.88750,-3.95500,0.00000,-0.18349,0.27462,-0.86779,2023,6,12,16,2,46,601
0.13070,2.24000,-3.69250,0.00000,-0.00915,0.20813,-1.01443,2023,6,12,16,2,46,612
0.13080,13.87750,-9.83500,0.00000,-0.02184,0.02050,-0.98881,2023,6,12,16,2,46,623
0.13090,-2.71250,-1.87250,0.00000,-0.00720,0.00732,-0.99406,2023,6,12,16,2,46,634
0.13100,7.33250,-6.68500,0.00000,-0.01171,0.00732,-1.00308,2023,6,12,16,2,46,645
0.13110,-0.10500,-3.13250,0.00000,0.02489,-0.01708,-1.00674,2023,6,12,16,2,46,656
0.13120,4.13000,-4.86500,0.00000,-0.02074,-0.09882,-0.91756,2023,6,12,16,2,46,667
0.13130,-4.53250,0.12250,0.00000,0.01476,-0.15787,-0.85180,2023,6,12,16,2,46,678
0.13140,5.02250,-2.39750,0.00000,0.09479,-0.09479,-1.25867,2023,6,12,16,2,46,689
0.13150,-6.93000,-3.30750,0.00000,-0.07735,-0.11126,-1.27856,2023,6,12,16,2,46,701
0.13160,6.47500,-6.65000,0.00000,-0.06917,-0.09016,-0.73115,2023,6,12,16,2,46,712
0.13170,-0.28000,-4.11250,0.00000,-0.18922,0.32696,-0.64135,2023,6,12,16,2,46,723
0.13180,-2.08250,-3.20250,0.00000,-0.04319,0.44725,-0.89816,2023,6,12,16,2,46,734
0.13190,33.53000,-9.32750,0.00000,0.09479,-0.23644,-1.28856,2023,6,12,16,2,46,745
0.13200,-3.13250,-2.74750,0.00000,-0.02306,-0.10529,-0.99576,2023,6,12,16,2,46,756
0.13210,32.37500,-8.06750,0.00000,0.02391,-0.00268,-1.07250,2023,6,12,16,2,46,767
0.13220,98.36750,-10.23750,0.00000,0.06673,-0.02416,-1.24989,2023,6,12,16,2,46,778
0.13230,124.26750,-9.74750,0.00000,-0.02879,-0.07747,-0.84461,2023,6,12,16,2,46,789
0.13240,108.69250,-7.14000,0.00000,-0.08979,-0.02745,-0.68515,2023,6,12,16,2,46,801
0.13250,100.01250,-2.50250,0.00000,-0.03355,-0.16250,-0.75799,2023,6,12,16,2,46,812
0.13260,52.41250,21.31500,0.00000,-0.08369,-0.21496,-1.19572,2023,6,12,16,2,46,823
0.13270,63.98000,34.12500,0.00000,-0.12493,-0.20777,-0.91463,2023,6,12,16,2,46,834
0.13280,212.27500,20.07250,0.00000,-0.11041,-0.21692,-1.26197,2023,6,12,16,2,46,845
0.13290,263.42750,-34.02000,0.00000,-0.05173,-0.28182,-1.17828,2023,6,12,16,2,46,856
0.13300,315.14000,-50.71500,0.00000,-0.04392,-0.24656,-1.01101,2023,6,12,16,2,46,867
0.13310,327.23250,-46.60250,0.00000,-0.00281,-0.32318,-0.96587,2023,6,12,16,2,46,878
0.13320,405.79000,-42.70000,0.00000,-0.07357,-0.41346,-0.97649,2023,6,12,16,2,46,889
0.13330,505.08500,-52.55250,0.00000,-0.01976,-0.58914,-1.00638,2023,6,12,16,2,46,901
0.13340,537.77500,-64.03250,0.00000,-0.05295,-0.66136,-0.96234,2023,6,12,16,2,46,912
0.13350,505.52250,-64.43500,0.00000,-0.05905,-0.76189,-0.84619,2023,6,12,16,2,46,923
0.13360,534.03000,-57.66250,0.00000,-0.14518,-0.85180,-0.79263,2023,6,12,16,2,46,934
0.13370,543.20000,-61.21500,0.00000,-0.15628,-0.97100,-0.73529,2023,6,12,16,2,46,945
0.13380,528.11500,-63.75250,0.00000,-0.13725,-1.08763,-0.64636,2023,6,12,16,2,46,956
0.13390,546.21000,-59.62250,0.00000,-0.21179,-1.12984,-0.44225,2023,6,12,16,2,46,967
0.13400,560.61250,-60.39250,0.00000,-0.26193,-1.05359,-0.28231,2023,6,12,16,2,47,8
0.13410,509.65250,-48.86000,0.00000,-0.27206,-1.02163,-0.10870,2023,6,12,16,2,47,19
0.13420,459.81250,-27.87750,0.00000,-0.24168,-0.97173,-0.05575,2023,6,12,16,2,47,31
0.13430,377.17750,-5.44250,0.00000,-0.19849,-0.96746,0.03562,2023,6,12,16,2,47,42
0.13440,357.17500,9.94000,0.00000,-0.16738,-0.90365,0.05026,2023,6,12,16,2,47,53
0.13450,356.16000,17.64000,0.00000,-0.16995,-0.82057,0.04697,2023,6,12,16,2,47,64
0.13460,340.35750,15.96000,0.00000,-0.18288,-0.76762,0.06478,2023,6,12,16,2,47,75
0.13470,307.09000,11.23500,0.00000,-0.26413,-0.73249,0.16031,2023,6,12,16,2,47,86
0.13480,277.09500,10.78000,0.00000,-0.26486,-0.71724,0.30378,2023,6,12,16,2,47,97
0.13490,288.19000,19.98500,0.00000,-0.30366,-0.68723,0.32891,2023,6,12,16,2,47,108
0.13500,271.02250,28.84000,0.00000,-0.34965,-0.70797,0.35661,2023,6,12,16,2,47,119
0.13510,255.99000,38.69250,0.00000,-0.35978,-0.76396,0.39369,2023,6,12,16,2,47,131
0.13520,232.01500,51.94000,0.00000,-0.34599,-0.79227,0.34062,2023,6,12,16,2,47,142
0.13530,207.97000,64.29500,0.00000,-0.26535,-0.79715,0.32062,2023,6,12,16,2,47,153
0.13540,199.53500,70.64750,0.00000,-0.24376,-0.70675,0.27889,2023,6,12,16,2,47,164
0.13550,171.95500,60.51500,0.00000,-0.34892,-0.63477,0.35185,2023,6,12,16,2,47,175
0.13560,181.49250,55.19500,0.00000,-0.36990,-0.67417,0.46055,2023,6,12,16,2,47,186
0.13570,177.69500,59.55250,0.00000,-0.38442,-0.67161,0.43334,2023,6,12,16,2,47,197
0.13580,157.27250,53.93500,0.00000,-0.34685,-0.67271,0.44579,2023,6,12,16,2,47,208
0.13590,185.78000,43.54000,0.00000,-0.27853,-0.64294,0.35173,2023,6,12,16,2,47,219
0.13600,190.75000,19.56500,0.00000,-0.29683,-0.63843,0.27340,2023,6,12,16,2,47,231
0.13610,182.66500,-9.55500,0.00000,-0.36088,-0.64794,0.33574,2023,6,12,16,2,47,242
0.13620,164.34250,-24.93750,0.00000,-0.39967,-0.66075,0.43359,2023,6,12,16,2,47,253
0.13630,139.45750,-29.01500,0.00000,-0.43969,-0.68015,0.55608,2023,6,12,16,2,47,264
0.13640,106.22500,-24.15000,0.00000,-0.47385,-0.67722,0.61805,2023,6,12,16,2,47,275
0.13650,86.48500,-18.00750,0.00000,-0.51691,-0.65636,0.68308,2023,6,12,16,2,47,286
0.13660,59.99000,-9.08250,0.00000,-0.53985,-0.65441,0.77116,2023,6,12,16,2,47,297
0.13670,59.43000,2.46750,0.00000,-0.55766,-0.64880,0.80203,2023,6,12,16,2,47,308
0.13680,52.74500,16.36250,0.00000,-0.56950,-0.68967,0.81045,2023,6,12,16,2,47,319
0.13690,56.38500,33.98500,0.00000,-0.52411,-0.67600,0.78800,2023,6,12,16,2,47,331
0.13700,60.56750,45.85000,0.00000,-0.46567,-0.62220,0.63367,2023,6,12,16,2,47,342
0.13710,48.56250,39.69000,0.00000,-0.43066,-0.59670,0.53155,2023,6,12,16,2,47,353
0.13720,47.40750,22.89000,0.00000,-0.42944,-0.54717,0.53985,2023,6,12,16,2,47,364
0.13730,31.65750,13.26500,0.00000,-0.44347,-0.52045,0.54131,2023,6,12,16,2,47,375
0.13740,4.81250,9.52000,0.00000,-0.44567,-0.50044,0.54131,2023,6,12,16,2,47,386
0.13750,-31.79750,3.11500,0.00000,-0.46494,-0.48178,0.55486,2023,6,12,16,2,47,397
0.13760,-55.37000,-3.64000,0.00000,-0.47702,-0.47299,0.57145,2023,6,12,16,2,47,408
0.13770,-71.05000,-8.83750,0.00000,-0.48288,-0.48824,0.63135,2023,6,12,16,2,47,419
0.13780,-99.10250,-5.09250,0.00000,-0.51691,-0.54522,0.59731,2023,6,12,16,2,47,431
0.13790,-123.07750,-5.46000,0.00000,-0.52179,-0.57791,0.63830,2023,6,12,16,2,47,442
0.13800,-138.65250,-7.07000,0.00000,-0.48837,-0.55449,0.57438,2023,6,12,16,2,47,453
0.13810,-182.89250,-14.12250,0.00000,-0.40101,-0.66246,0.43578,2023,6,12,16,2,47,464
0.13820,-210.52500,-37.69500,0.00000,-0.43493,-0.76360,0.38503,2023,6,12,16,2,47,475
0.13830,-247.36250,-50.90750,0.00000,-0.46116,-0.83765,0.43676,2023,6,12,16,2,47,486
0.13840,-310.39750,-44.22250,0.00000,-0.46323,-0.81411,0.46970,2023,6,12,16,2,47,497
0.13850,-376.58250,-32.91750,0.00000,-0.47580,-0.74457,0.52655,2023,6,12,16,2,47,508
0.13860,-397.96750,-20.66750,0.00000,-0.48568,-0.68576,0.60890,2023,6,12,16,2,47,519
0.13870,-330.69750,-5.68750,0.00000,-0.46848,-0.71382,0.64953,2023,6,12,16,2,47,531
0.13880,-208.18000,0.36750,0.00000,-0.45457,-0.77189,0.65282,2023,6,12,16,2,47,542
0.13890,-44.34500,0.75250,0.00000,-0.48727,-0.76348,0.54375,2023,6,12,16,2,47,553
0.13900,20.21250,4.44500,0.00000,-0.47226,-0.73651,0.44140,2023,6,12,16,2,47,564
0.13910,38.37750,8.82000,0.00000,-0.46079,-0.76518,0.32733,2023,6,12,16,2,47,575
0.13920,20.59750,9.52000,0.00000,-0.46079,-0.81960,0.24241,2023,6,12,16,2,47,586
0.13930,-10.11500,7.08750,0.00000,-0.46336,-0.87450,0.19581,2023,6,12,16,2,47,597
0.13940,-32.88250,2.78250,0.00000,-0.48373,-0.89975,0.16055,2023,6,12,16,2,47,608
0.13950,-76.23000,-4.51500,0.00000,-0.48885,-0.90219,0.17056,2023,6,12,16,2,47,619
0.13960,-89.75750,-10.13250,0.00000,-0.47800,-0.88011,0.24449,2023,6,12,16,2,47,631
0.13970,-68.72250,-9.97500,0.00000,-0.47568,-0.81801,0.28633,2023,6,12,16,2,47,642
0.13980,-67.93500,-7.26250,0.00000,-0.46677,-0.78397,0.28414,2023,6,12,16,2,47,653
0.13990,-71.40000,-3.97250,0.00000,-0.46677,-0.76799,0.27011,2023,6,12,16,2,47,664
0.14000,-93.43250,1.12000,0.00000,-0.47336,-0.76823,0.27011,2023,6,12,16,2,47,675
0.14010,-117.75750,8.83750,0.00000,-0.45994,-0.82143,0.26340,2023,6,12,16,2,47,686
0.14020,-105.03500,12.42500,0.00000,-0.46006,-0.82313,0.19618,2023,6,12,16,2,47,697
0.14030,-116.06000,12.81000,0.00000,-0.46909,-0.79971,0.14847,2023,6,12,16,2,47,708
0.14040,-134.54000,12.32000,0.00000,-0.47482,-0.78946,0.11858,2023,6,12,16,2,47,719
0.14050,-171.46500,13.40500,0.00000,-0.47934,-0.78397,0.07015,2023,6,12,16,2,47,731
0.14060,-234.57000,14.08750,0.00000,-0.48971,-0.80776,0.04660,2023,6,12,16,2,47,742
0.14070,-285.56500,16.38000,0.00000,-0.50105,-0.82948,0.03392,2023,6,12,16,2,47,753
0.14080,-329.07000,22.36500,0.00000,-0.50825,-0.85607,-0.00390,2023,6,12,16,2,47,764
0.14090,-371.91000,29.01500,0.00000,-0.50740,-0.87986,-0.08613,2023,6,12,16,2,47,775
0.14100,-405.61500,32.93500,0.00000,-0.48910,-0.87791,-0.16019,2023,6,12,16,2,47,786
0.14110,-411.60000,32.00750,0.00000,-0.48471,-0.85412,-0.22192,2023,6,12,16,2,47,797
0.14120,-431.49750,27.61500,0.00000,-0.49605,-0.81703,-0.29536,2023,6,12,16,2,47,808
0.14130,-464.34500,28.19250,0.00000,-0.49898,-0.81545,-0.30634,2023,6,12,16,2,47,819
0.14140,-477.26000,31.78000,0.00000,-0.49068,-0.78117,-0.34904,2023,6,12,16,2,47,831
0.14150,-479.93750,40.91500,0.00000,-0.47983,-0.74432,-0.43103,2023,6,12,16,2,47,842
0.14160,-505.76750,47.70500,0.00000,-0.50581,-0.71736,-0.51557,2023,6,12,16,2,47,853
0.14170,-542.43000,56.28000,0.00000,-0.49922,-0.67771,-0.58792,2023,6,12,16,2,47,864
0.14180,-573.38750,61.02250,0.00000,-0.51142,-0.62440,-0.66466,2023,6,12,16,2,47,875
0.14190,-573.40500,63.36750,0.00000,-0.49861,-0.53521,-0.70858,2023,6,12,16,2,47,886
0.14200,-573.40500,64.15500,0.00000,-0.48849,-0.39125,-0.80483,2023,6,12,16,2,47,897
0.14210,-573.40500,63.01750,0.00000,-0.48605,-0.22448,-0.89682,2023,6,12,16,2,47,908
0.14220,-573.40500,55.94750,0.00000,-0.47043,-0.07113,-0.90707,2023,6,12,16,2,47,919
0.14230,-573.40500,48.16000,0.00000,-0.45164,0.04868,-0.86193,2023,6,12,16,2,47,931
0.14240,-538.26500,41.49250,0.00000,-0.42627,0.13469,-0.82899,2023,6,12,16,2,47,942
0.14250,-478.17000,36.50500,0.00000,-0.40114,0.22924,-0.81301,2023,6,12,16,2,47,953
0.14260,-425.91500,33.74000,0.00000,-0.39418,0.32794,-0.77153,2023,6,12,16,2,47,964
0.14270,-365.64500,30.36250,0.00000,-0.39064,0.39321,-0.75799,2023,6,12,16,2,47,975
0.14280,-329.19250,28.36750,0.00000,-0.38162,0.43786,-0.71346,2023,6,12,16,2,47,986
0.14290,-310.31000,30.90500,0.00000,-0.36161,0.48788,-0.69259,2023,6,12,16,2,48,7
0.14300,-310.99250,29.85500,0.00000,-0.35026,0.53204,-0.66990,2023,6,12,16,2,48,18
0.14310,-303.62500,28.87500,0.00000,-0.34941,0.57413,-0.63538,2023,6,12,16,2,48,29
0.14320,-287.17500,27.52750,0.00000,-0.36942,0.61366,-0.63623,2023,6,12,16,2,48,41
0.14330,-245.50750,25.25250,0.00000,-0.35429,0.64453,-0.61903,2023,6,12,16,2,48,52
0.14340,-225.80250,23.76500,0.00000,-0.36027,0.66673,-0.68552,2023,6,12,16,2,48,63
0.14350,-235.30500,20.42250,0.00000,-0.36405,0.72480,-0.67844,2023,6,12,16,2,48,74
0.14360,-248.95500,14.47250,0.00000,-0.35685,0.79349,-0.58292,2023,6,12,16,2,48,85
0.14370,-229.95000,12.67000,0.00000,-0.33355,0.84131,-0.46153,2023,6,12,16,2,48,96
0.14380,-202.45750,17.55250,0.00000,-0.27926,0.85229,-0.40101,2023,6,12,16,2,48,107
0.14390,-202.16000,19.95000,0.00000,-0.25217,0.84021,-0.41199,2023,6,12,16,2,48,118
0.14400,-246.62750,20.24750,0.00000,-0.27194,0.82094,-0.38515,2023,6,12,16,2,48,129
0.14410,-272.23000,20.21250,0.00000,-0.27523,0.82326,-0.37442,2023,6,12,16,2,48,141
0.14420,-292.63500,19.56500,0.00000,-0.27084,0.83460,-0.32452,2023,6,12,16,2,48,152
0.14430,-296.34500,20.35250,0.00000,-0.26974,0.87755,-0.27657,2023,6,12,16,2,48,163
0.14440,-282.80000,21.19250,0.00000,-0.29780,0.96356,-0.23900,2023,6,12,16,2,48,174
0.14450,-255.86750,18.53250,0.00000,-0.27194,1.04542,-0.17226,2023,6,12,16,2,48,185
0.14460,-242.41000,17.60500,0.00000,-0.25413,1.06799,-0.12420,2023,6,12,16,2,48,196
0.14470,-222.65250,19.67000,0.00000,-0.20764,1.05262,-0.04697,2023,6,12,16,2,48,207
0.14480,-235.09500,26.86250,0.00000,-0.17690,0.99589,0.00830,2023,6,12,16,2,48,218
0.14490,-261.62500,36.36500,0.00000,-0.14018,0.96160,0.07686,2023,6,12,16,2,48,229
0.14500,-287.12250,41.56250,0.00000,-0.07723,0.98625,0.19971,2023,6,12,16,2,48,241
0.14510,-275.71250,48.45750,0.00000,-0.07576,1.02846,0.24022,2023,6,12,16,2,48,252
0.14520,-261.73000,53.04250,0.00000,-0.10809,1.05493,0.20960,2023,6,12,16,2,48,263
0.14530,-255.58750,57.05000,0.00000,-0.14042,1.10337,0.18715,2023,6,12,16,2,48,274
0.14540,-218.52250,58.15250,0.00000,-0.14994,1.11288,0.15067,2023,6,12,16,2,48,285
0.14550,-176.47000,54.93250,0.00000,-0.16995,1.09288,0.06991,2023,6,12,16,2,48,296
0.14560,-149.83500,42.12250,0.00000,-0.21045,1.06445,0.08784,2023,6,12,16,2,48,307
0.14570,-128.52000,31.39500,0.00000,-0.16555,1.03944,0.13810,2023,6,12,16,2,48,318
0.14580,-104.09000,14.52500,0.00000,-0.11444,0.99698,0.24144,2023,6,12,16,2,48,329
0.14590,-113.34750,3.62250,0.00000,-0.05588,0.99174,0.38332,2023,6,12,16,2,48,341
0.14600,-132.86000,-0.82250,0.00000,-0.03062,0.94672,0.52411,2023,6,12,16,2,48,352
0.14610,-131.51250,3.20250,0.00000,-0.03111,0.88365,0.55730,2023,6,12,16,2,48,363
0.14620,-130.74250,8.61000,0.00000,-0.06100,0.81801,0.50191,2023,6,12,16,2,48,374
0.14630,-131.39000,11.67250,0.00000,-0.12603,0.79532,0.43725,2023,6,12,16,2,48,385
0.14640,-134.29500,6.66750,0.00000,-0.15897,0.82753,0.42322,2023,6,12,16,2,48,396
0.14650,-109.79500,0.68250,0.00000,-0.15689,0.84290,0.47104,2023,6,12,16,2,48,407
0.14660,-77.40250,-1.64500,0.00000,-0.18617,0.84424,0.50654,2023,6,12,16,2,48,418
0.14670,-71.50500,-0.36750,0.00000,-0.17092,0.84717,0.50520,2023,6,12,16,2,48,429
0.14680,-90.23000,-0.26250,0.00000,-0.15152,0.83887,0.60597,2023,6,12,16,2,48,441
0.14690,-83.89500,-0.08750,0.00000,-0.15128,0.81179,0.64392,2023,6,12,16,2,48,452
0.14700,-72.43250,2.25750,0.00000,-0.15665,0.78251,0.62659,2023,6,12,16,2,48,463
0.14710,-61.37250,4.27000,0.00000,-0.18032,0.73810,0.60536,2023,6,12,16,2,48,474
0.14720,-39.04250,2.88750,0.00000,-0.20081,0.73139,0.57096,2023,6,12,16,2,48,485
0.14730,-22.66250,0.80500,0.00000,-0.21118,0.74920,0.56559,2023,6,12,16,2,48,496
0.14740,-12.95000,-2.50250,0.00000,-0.18520,0.76689,0.56291,2023,6,12,16,2,48,507
0.14750,-0.08750,-7.80500,0.00000,-0.18617,0.77775,0.58926,2023,6,12,16,2,48,518
0.14760,18.13000,-13.38750,0.00000,-0.16641,0.77116,0.56303,2023,6,12,16,2,48,529
0.14770,63.40250,-26.04000,0.00000,-0.19032,0.81764,0.51130,2023,6,12,16,2,48,541
0.14780,123.49750,-43.57500,0.00000,-0.17092,0.84143,0.50276,2023,6,12,16,2,48,552
0.14790,152.53000,-66.97250,0.00000,-0.22582,0.80398,0.51691,2023,6,12,16,2,48,563
0.14800,130.21750,-70.54250,0.00000,-0.23839,0.80801,0.52497,2023,6,12,16,2,48,574
0.14810,81.88250,-56.29750,0.00000,-0.20325,0.81374,0.63647,2023,6,12,16,2,48,585
0.14820,32.67250,-37.45000,0.00000,-0.18276,0.82069,0.63257,2023,6,12,16,2,48,596
0.14830,-2.32750,-19.44250,0.00000,-0.23034,0.84668,0.61049,2023,6,12,16,2,48,607
0.14840,-13.38750,-5.12750,0.00000,-0.26950,0.86254,0.55425,2023,6,12,16,2,48,618
0.14850,-8.83750,0.56000,0.00000,-0.24351,0.90390,0.54900,2023,6,12,16,2,48,629
0.14860,30.46750,-8.83750,0.00000,-0.17592,0.92134,0.56218,2023,6,12,16,2,48,641
0.14870,34.56250,-17.60500,0.00000,-0.14689,0.90975,0.57779,2023,6,12,16,2,48,652
0.14880,7.03500,-17.57000,0.00000,-0.18654,0.90573,0.56120,2023,6,12,16,2,48,663
0.14890,-10.78000,-16.88750,0.00000,-0.23131,0.90902,0.51679,2023,6,12,16,2,48,674
0.14900,-30.39750,-16.41500,0.00000,-0.26450,0.94050,0.46128,2023,6,12,16,2,48,685
0.14910,-64.08500,-13.87750,0.00000,-0.27584,0.84936,0.49422,2023,6,12,16,2,48,696
