#2023/06/12 15:30:07
time,wx,wy,wz,ax,ay,az,yy,MM,dd,hh,mm,ss,ms
0.00000,2.83500,-4.65500,0.00000,-0.00854,0.01318,-0.98844,2023,6,12,15,30,7,34
0.00010,3.09750,-4.63750,0.00000,-0.01122,0.01208,-0.98722,2023,6,12,15,30,7,45
0.00020,2.90500,-4.65500,0.00000,-0.00842,0.01379,-0.98710,2023,6,12,15,30,7,56
0.00030,2.99250,-4.67250,0.00000,-0.00952,0.01183,-0.98698,2023,6,12,15,30,7,67
0.00040,3.06250,-4.63750,0.00000,-0.01074,0.01110,-0.98686,2023,6,12,15,30,7,78
0.00050,2.95750,-4.58500,0.00000,-0.01013,0.01159,-0.99040,2023,6,12,15,30,7,89
0.00060,2.99250,-4.48000,0.00000,-0.00952,0.00939,-0.98918,2023,6,12,15,30,7,100
0.00070,3.01000,-4.69000,0.00000,-0.00952,0.01098,-0.98417,2023,6,12,15,30,7,111
0.00080,2.78250,-4.58500,0.00000,-0.00830,0.00939,-0.98637,2023,6,12,15,30,7,122
0.00090,2.85250,-4.49750,0.00000,-0.01037,0.01196,-0.98661,2023,6,12,15,30,7,134
0.00100,2.92250,-4.62000,0.00000,-0.01074,0.00952,-0.99125,2023,6,12,15,30,7,145
0.00110,3.02750,-4.53250,0.00000,-0.00964,0.01147,-0.98527,2023,6,12,15,30,7,156
0.00120,2.90500,-4.44500,0.00000,-0.01147,0.01183,-0.98710,2023,6,12,15,30,7,167
0.00130,2.99250,-4.55000,0.00000,-0.01183,0.01220,-0.98710,2023,6,12,15,30,7,178
0.00140,3.04500,-4.55000,0.00000,-0.00939,0.01074,-0.98844,2023,6,12,15,30,7,189
0.00150,2.88750,-4.41000,0.00000,-0.00915,0.01208,-0.98979,2023,6,12,15,30,7,200
0.00160,2.94000,-4.63750,0.00000,-0.01135,0.01305,-0.99149,2023,6,12,15,30,7,211
0.00170,2.81750,-4.44500,0.00000,-0.00915,0.01220,-0.98491,2023,6,12,15,30,7,222
0.00180,3.02750,-4.58500,0.00000,-0.01147,0.01452,-0.98942,2023,6,12,15,30,7,234
0.00190,2.71250,-4.49750,0.00000,-0.01196,0.01318,-0.98942,2023,6,12,15,30,7,245
0.00200,2.99250,-4.63750,0.00000,-0.01037,0.01318,-0.98942,2023,6,12,15,30,7,256
0.00210,2.90500,-4.46250,0.00000,-0.01244,0.01171,-0.99174,2023,6,12,15,30,7,267
0.00220,2.81750,-4.53250,0.00000,-0.00903,0.00988,-0.98844,2023,6,12,15,30,7,278
0.00230,2.99250,-4.67250,0.00000,-0.01074,0.01183,-0.98918,2023,6,12,15,30,7,289
0.00240,3.16750,-4.53250,0.00000,-0.01049,0.01232,-0.99064,2023,6,12,15,30,7,300
0.00250,3.01000,-4.60250,0.00000,-0.01122,0.01208,-0.98954,2023,6,12,15,30,7,311
0.00260,2.99250,-4.69000,0.00000,-0.00988,0.01086,-0.98844,2023,6,12,15,30,7,322
0.00270,2.94000,-4.60250,0.00000,-0.01147,0.01025,-0.98832,2023,6,12,15,30,7,333
0.00280,3.08000,-4.55000,0.00000,-0.00952,0.01232,-0.98661,2023,6,12,15,30,7,345
0.00290,3.11500,-4.76000,0.00000,-0.01086,0.01074,-0.98783,2023,6,12,15,30,7,356
0.00300,2.88750,-4.35750,0.00000,-0.01159,0.01061,-0.98808,2023,6,12,15,30,7,367
0.00310,3.13250,-4.51500,0.00000,-0.00952,0.01232,-0.98820,2023,6,12,15,30,7,378
0.00320,3.09750,-4.35750,0.00000,-0.01086,0.01318,-0.98869,2023,6,12,15,30,7,389
0.00330,3.02750,-4.53250,0.00000,-0.01171,0.01281,-0.99040,2023,6,12,15,30,7,400
0.00340,3.04500,-4.56750,0.00000,-0.01025,0.01147,-0.98613,2023,6,12,15,30,7,411
0.00350,2.85250,-4.53250,0.00000,-0.01183,0.00964,-0.98710,2023,6,12,15,30,7,422
0.00360,3.06250,-4.70750,0.00000,-0.01147,0.01086,-0.98857,2023,6,12,15,30,7,433
0.00370,3.15000,-4.65500,0.00000,-0.00927,0.01013,-0.98588,2023,6,12,15,30,7,445
0.00380,3.01000,-4.67250,0.00000,-0.00976,0.01147,-0.98808,2023,6,12,15,30,7,456
0.00390,3.11500,-4.60250,0.00000,-0.01110,0.01110,-0.98844,2023,6,12,15,30,7,467
0.00400,3.22000,-4.56750,0.00000,-0.01293,0.01025,-0.98698,2023,6,12,15,30,7,478
0.00410,2.88750,-4.53250,0.00000,-0.01013,0.01244,-0.98747,2023,6,12,15,30,7,489
0.00420,2.99250,-4.62000,0.00000,-0.01049,0.01086,-0.98759,2023,6,12,15,30,7,500
0.00430,3.04500,-4.51500,0.00000,-0.00976,0.01098,-0.98564,2023,6,12,15,30,7,511
0.00440,2.99250,-4.51500,0.00000,-0.00964,0.01208,-0.98576,2023,6,12,15,30,7,522
0.00450,2.97500,-4.79500,0.00000,-0.01159,0.00952,-0.98698,2023,6,12,15,30,7,533
0.00460,3.02750,-4.67250,0.00000,-0.01208,0.01098,-0.98905,2023,6,12,15,30,7,545
0.00470,2.85250,-4.39250,0.00000,-0.01025,0.01061,-0.98771,2023,6,12,15,30,7,556
0.00480,3.01000,-4.49750,0.00000,-0.01244,0.01171,-0.98991,2023,6,12,15,30,7,567
0.00490,3.04500,-4.51500,0.00000,-0.01061,0.01391,-0.98808,2023,6,12,15,30,7,578
0.00500,3.02750,-4.65500,0.00000,-0.01000,0.01318,-0.98783,2023,6,12,15,30,7,589
0.00510,3.13250,-4.74250,0.00000,-0.01171,0.01171,-0.98832,2023,6,12,15,30,7,600
0.00520,3.09750,-4.69000,0.00000,-0.00903,0.01171,-0.98796,2023,6,12,15,30,7,611
0.00530,2.81750,-4.44500,0.00000,-0.01098,0.00976,-0.98539,2023,6,12,15,30,7,622
0.00540,2.92250,-4.55000,0.00000,-0.01025,0.01196,-0.98710,2023,6,12,15,30,7,633
0.00550,3.06250,-4.79500,0.00000,-0.00964,0.01476,-0.99052,2023,6,12,15,30,7,645
0.00560,3.09750,-4.63750,0.00000,-0.00915,0.01318,-0.99076,2023,6,12,15,30,7,656
0.00570,3.01000,-4.60250,0.00000,-0.01257,0.01049,-0.98832,2023,6,12,15,30,7,667
0.00580,2.87000,-4.70750,0.00000,-0.01061,0.01293,-0.98869,2023,6,12,15,30,7,678
0.00590,2.92250,-4.70750,0.00000,-0.01171,0.01257,-0.99162,2023,6,12,15,30,7,689
0.00600,2.97500,-4.69000,0.00000,-0.01049,0.01196,-0.99015,2023,6,12,15,30,7,700
0.00610,3.13250,-4.67250,0.00000,-0.01183,0.01122,-0.98661,2023,6,12,15,30,7,711
0.00620,2.94000,-4.51500,0.00000,-0.01061,0.01147,-0.98930,2023,6,12,15,30,7,722
0.00630,2.83500,-4.51500,0.00000,-0.00927,0.01135,-0.98966,2023,6,12,15,30,7,733
0.00640,3.04500,-4.55000,0.00000,-0.01196,0.01086,-0.98613,2023,6,12,15,30,7,745
0.00650,2.92250,-4.58500,0.00000,-0.01232,0.01220,-0.99076,2023,6,12,15,30,7,756
0.00660,3.08000,-4.53250,0.00000,-0.01000,0.01147,-0.99076,2023,6,12,15,30,7,767
0.00670,2.92250,-4.62000,0.00000,-0.01257,0.01342,-0.98844,2023,6,12,15,30,7,778
0.00680,3.01000,-4.55000,0.00000,-0.00720,0.01183,-0.98771,2023,6,12,15,30,7,789
0.00690,3.06250,-4.74250,0.00000,-0.00976,0.00976,-0.98698,2023,6,12,15,30,7,800
0.00700,2.99250,-4.55000,0.00000,-0.01183,0.01037,-0.99003,2023,6,12,15,30,7,811
0.00710,2.78250,-4.56750,0.00000,-0.01013,0.01110,-0.98783,2023,6,12,15,30,7,822
0.00720,2.88750,-4.53250,0.00000,-0.00964,0.01110,-0.98722,2023,6,12,15,30,7,833
0.00730,3.09750,-4.63750,0.00000,-0.01049,0.01074,-0.98844,2023,6,12,15,30,7,845
0.00740,3.09750,-4.76000,0.00000,-0.00964,0.01293,-0.98905,2023,6,12,15,30,7,856
0.00750,2.87000,-4.60250,0.00000,-0.01037,0.01147,-0.98674,2023,6,12,15,30,7,867
0.00760,2.97500,-4.49750,0.00000,-0.01000,0.01159,-0.98905,2023,6,12,15,30,7,878
0.00770,2.99250,-4.60250,0.00000,-0.00988,0.01269,-0.99015,2023,6,12,15,30,7,889
0.00780,3.01000,-4.62000,0.00000,-0.01049,0.01232,-0.98820,2023,6,12,15,30,7,900
0.00790,2.92250,-4.49750,0.00000,-0.01074,0.01391,-0.99052,2023,6,12,15,30,7,911
0.00800,2.83500,-4.58500,0.00000,-0.00903,0.00805,-0.99052,2023,6,12,15,30,7,922
0.00810,3.01000,-4.67250,0.00000,-0.00952,0.01208,-0.98735,2023,6,12,15,30,7,933
0.00820,2.94000,-4.72500,0.00000,-0.01098,0.01135,-0.98844,2023,6,12,15,30,7,945
0.00830,3.13250,-4.63750,0.00000,-0.01013,0.01086,-0.98759,2023,6,12,15,30,7,956
0.00840,3.11500,-4.65500,0.00000,-0.01122,0.01074,-0.98796,2023,6,12,15,30,7,967
0.00850,2.87000,-4.60250,0.00000,-0.01159,0.01244,-0.98771,2023,6,12,15,30,7,978
0.00860,2.97500,-4.60250,0.00000,-0.00952,0.01074,-0.99174,2023,6,12,15,30,7,989
0.00870,3.01000,-4.51500,0.00000,-0.00903,0.01244,-0.98698,2023,6,12,15,30,7,0
0.00880,2.85250,-4.35750,0.00000,-0.00927,0.01135,-0.98966,2023,6,12,15,30,7,11
0.00890,2.94000,-4.69000,0.00000,-0.00891,0.01171,-0.99015,2023,6,12,15,30,7,22
0.00900,2.97500,-4.79500,0.00000,-0.01061,0.01281,-0.98942,2023,6,12,15,30,7,33
0.00910,3.01000,-4.51500,0.00000,-0.01037,0.01098,-0.98808,2023,6,12,15,30,7,45
0.00920,2.97500,-4.79500,0.00000,-0.01000,0.01220,-0.98747,2023,6,12,15,30,7,56
0.00930,2.94000,-4.63750,0.00000,-0.01354,0.01318,-0.98808,2023,6,12,15,30,7,67
0.00940,3.04500,-4.49750,0.00000,-0.00756,0.01025,-0.98649,2023,6,12,15,30,7,78
0.00950,2.99250,-4.77750,0.00000,-0.00964,0.01147,-0.98637,2023,6,12,15,30,7,89
0.00960,3.02750,-4.53250,0.00000,-0.01074,0.01098,-0.98564,2023,6,12,15,30,7,100
0.00970,2.95750,-4.67250,0.00000,-0.01000,0.01183,-0.98966,2023,6,12,15,30,7,111
0.00980,3.04500,-4.63750,0.00000,-0.01122,0.01171,-0.98771,2023,6,12,15,30,7,122
0.00990,2.78250,-4.58500,0.00000,-0.01013,0.01318,-0.99162,2023,6,12,15,30,7,133
0.01000,2.97500,-4.58500,0.00000,-0.00976,0.01159,-0.98796,2023,6,12,15,30,7,145
0.01010,2.87000,-4.41000,0.00000,-0.00769,0.01452,-0.98722,2023,6,12,15,30,7,156
0.01020,2.81750,-4.42750,0.00000,-0.01000,0.01159,-0.98747,2023,6,12,15,30,7,167
0.01030,3.08000,-4.74250,0.00000,-0.00915,0.01061,-0.98576,2023,6,12,15,30,7,178
0.01040,2.97500,-4.67250,0.00000,-0.01147,0.01196,-0.98686,2023,6,12,15,30,7,189
0.01050,2.83500,-4.67250,0.00000,-0.00952,0.00915,-0.98808,2023,6,12,15,30,7,200
0.01060,3.08000,-4.69000,0.00000,-0.01000,0.01318,-0.98552,2023,6,12,15,30,7,211
0.01070,2.90500,-4.69000,0.00000,-0.01037,0.01220,-0.98686,2023,6,12,15,30,7,222
0.01080,2.95750,-4.69000,0.00000,-0.00830,0.01244,-0.98661,2023,6,12,15,30,7,233
0.01090,2.90500,-4.60250,0.00000,-0.01037,0.01232,-0.98820,2023,6,12,15,30,7,245
0.01100,2.80000,-4.44500,0.00000,-0.01269,0.01220,-0.98844,2023,6,12,15,30,7,256
0.01110,2.95750,-4.69000,0.00000,-0.00976,0.01074,-0.98930,2023,6,12,15,30,7,267
0.01120,2.95750,-4.49750,0.00000,-0.01013,0.01147,-0.98759,2023,6,12,15,30,7,278
0.01130,2.97500,-4.46250,0.00000,-0.01074,0.01147,-0.98820,2023,6,12,15,30,7,289
0.01140,2.94000,-4.65500,0.00000,-0.00915,0.01159,-0.99149,2023,6,12,15,30,7,300
0.01150,2.71250,-4.41000,0.00000,-0.01013,0.01232,-0.98783,2023,6,12,15,30,8,1
0.01160,2.85250,-4.63750,0.00000,-0.00988,0.01220,-0.98783,2023,6,12,15,30,8,12
0.01170,3.27250,-4.55000,0.00000,-0.01013,0.01122,-0.99052,2023,6,12,15,30,8,23
0.01180,3.02750,-4.72500,0.00000,-0.00988,0.01391,-0.98686,2023,6,12,15,30,8,35
0.01190,2.95750,-4.53250,0.00000,-0.01061,0.01098,-0.98820,2023,6,12,15,30,8,46
0.01200,3.01000,-4.60250,0.00000,-0.01208,0.01159,-0.98942,2023,6,12,15,30,8,57
0.01210,3.01000,-4.67250,0.00000,-0.01122,0.01232,-0.98515,2023,6,12,15,30,8,68
0.01220,3.13250,-4.65500,0.00000,-0.01122,0.00952,-0.98564,2023,6,12,15,30,8,79
0.01230,2.90500,-4.69000,0.00000,-0.01037,0.01171,-0.98515,2023,6,12,15,30,8,90
0.01240,2.81750,-4.49750,0.00000,-0.01013,0.00964,-0.98686,2023,6,12,15,30,8,101
0.01250,3.22000,-4.88250,0.00000,-0.00939,0.01183,-0.98686,2023,6,12,15,30,8,112
0.01260,3.15000,-4.72500,0.00000,-0.00817,0.00988,-0.98674,2023,6,12,15,30,8,123
0.01270,3.01000,-4.58500,0.00000,-0.00915,0.01208,-0.98832,2023,6,12,15,30,8,135
0.01280,2.99250,-4.53250,0.00000,-0.01135,0.01269,-0.99040,2023,6,12,15,30,8,146
0.01290,2.94000,-4.56750,0.00000,-0.01244,0.01257,-0.98820,2023,6,12,15,30,8,157
0.01300,2.95750,-4.72500,0.00000,-0.01086,0.01318,-0.98979,2023,6,12,15,30,8,168
0.01310,2.90500,-4.51500,0.00000,-0.01122,0.01098,-0.98832,2023,6,12,15,30,8,179
0.01320,3.04500,-4.55000,0.00000,-0.00939,0.01220,-0.98747,2023,6,12,15,30,8,190
0.01330,3.22000,-4.70750,0.00000,-0.01135,0.01305,-0.98783,2023,6,12,15,30,8,201
0.01340,3.02750,-4.60250,0.00000,-0.01061,0.00964,-0.98600,2023,6,12,15,30,8,212
0.01350,3.01000,-4.83000,0.00000,-0.00891,0.01122,-0.98539,2023,6,12,15,30,8,223
0.01360,2.94000,-4.49750,0.00000,-0.00927,0.01257,-0.98857,2023,6,12,15,30,8,235
0.01370,2.80000,-4.34000,0.00000,-0.01037,0.01122,-0.98649,2023,6,12,15,30,8,246
0.01380,2.85250,-4.30500,0.00000,-0.01122,0.01269,-0.98747,2023,6,12,15,30,8,257
0.01390,2.92250,-4.79500,0.00000,-0.00830,0.01183,-0.98966,2023,6,12,15,30,8,268
0.01400,2.88750,-4.49750,0.00000,-0.00964,0.01159,-0.98979,2023,6,12,15,30,8,279
0.01410,2.88750,-4.51500,0.00000,-0.00891,0.00988,-0.98832,2023,6,12,15,30,8,290
0.01420,2.81750,-4.49750,0.00000,-0.01305,0.01232,-0.98771,2023,6,12,15,30,8,301
0.01430,3.01000,-4.48000,0.00000,-0.01013,0.01208,-0.98686,2023,6,12,15,30,8,312
0.01440,2.99250,-4.83000,0.00000,-0.01000,0.01257,-0.98722,2023,6,12,15,30,8,323
0.01450,2.90500,-4.42750,0.00000,-0.00939,0.01379,-0.98771,2023,6,12,15,30,8,335
0.01460,2.87000,-4.56750,0.00000,-0.01049,0.01366,-0.98966,2023,6,12,15,30,8,346
0.01470,3.30750,-4.70750,0.00000,-0.01196,0.01086,-0.98661,2023,6,12,15,30,8,357
0.01480,3.06250,-4.67250,0.00000,-0.00988,0.01232,-0.99088,2023,6,12,15,30,8,368
0.01490,3.22000,-4.55000,0.00000,-0.01000,0.01220,-0.98783,2023,6,12,15,30,8,379
0.01500,2.85250,-4.53250,0.00000,-0.00817,0.01086,-0.98783,2023,6,12,15,30,8,390
0.01510,2.92250,-4.77750,0.00000,-0.00939,0.01244,-0.98857,2023,6,12,15,30,8,401
0.01520,2.81750,-4.51500,0.00000,-0.01061,0.01305,-0.99027,2023,6,12,15,30,8,412
0.01530,2.92250,-4.42750,0.00000,-0.00915,0.01208,-0.98686,2023,6,12,15,30,8,423
0.01540,3.04500,-4.49750,0.00000,-0.00964,0.01208,-0.98905,2023,6,12,15,30,8,435
0.01550,2.78250,-4.49750,0.00000,-0.01086,0.01220,-0.99027,2023,6,12,15,30,8,446
0.01560,2.94000,-4.62000,0.00000,-0.01000,0.01122,-0.98674,2023,6,12,15,30,8,457
0.01570,2.87000,-4.58500,0.00000,-0.01098,0.01037,-0.98918,2023,6,12,15,30,8,468
0.01580,2.99250,-4.46250,0.00000,-0.00878,0.01305,-0.98857,2023,6,12,15,30,8,479
0.01590,3.02750,-4.44500,0.00000,-0.00988,0.00842,-0.98576,2023,6,12,15,30,8,490
0.01600,2.97500,-4.49750,0.00000,-0.01061,0.01086,-0.98796,2023,6,12,15,30,8,501
0.01610,3.01000,-4.55000,0.00000,-0.01013,0.01159,-0.98808,2023,6,12,15,30,8,512
0.01620,2.87000,-4.55000,0.00000,-0.01049,0.01013,-0.98649,2023,6,12,15,30,8,523
0.01630,3.08000,-4.62000,0.00000,-0.00976,0.01159,-0.98686,2023,6,12,15,30,8,535
0.01640,2.87000,-4.48000,0.00000,-0.01013,0.01086,-0.98686,2023,6,12,15,30,8,546
0.01650,2.83500,-4.63750,0.00000,-0.01074,0.01074,-0.98783,2023,6,12,15,30,8,557
0.01660,2.95750,-4.53250,0.00000,-0.01305,0.00988,-0.98759,2023,6,12,15,30,8,568
0.01670,2.90500,-4.56750,0.00000,-0.01025,0.01403,-0.98796,2023,6,12,15,30,8,579
0.01680,2.97500,-4.86500,0.00000,-0.01122,0.01061,-0.98747,2023,6,12,15,30,8,590
0.01690,2.92250,-4.48000,0.00000,-0.00915,0.01183,-0.98808,2023,6,12,15,30,8,601
0.01700,3.08000,-4.76000,0.00000,-0.01000,0.01037,-0.98881,2023,6,12,15,30,8,612
0.01710,3.04500,-4.69000,0.00000,-0.00805,0.01074,-0.98930,2023,6,12,15,30,8,623
0.01720,3.08000,-4.35750,0.00000,-0.00964,0.01208,-0.98649,2023,6,12,15,30,8,635
0.01730,2.94000,-4.48000,0.00000,-0.01049,0.01244,-0.98832,2023,6,12,15,30,8,646
0.01740,3.04500,-4.62000,0.00000,-0.00988,0.01159,-0.98979,2023,6,12,15,30,8,657
0.01750,2.87000,-4.49750,0.00000,-0.00988,0.01257,-0.98661,2023,6,12,15,30,8,668
0.01760,3.11500,-4.49750,0.00000,-0.01147,0.00927,-0.98698,2023,6,12,15,30,8,679
0.01770,2.92250,-4.56750,0.00000,-0.01013,0.01025,-0.98869,2023,6,12,15,30,8,690
0.01780,2.99250,-4.74250,0.00000,-0.01061,0.01257,-0.98710,2023,6,12,15,30,8,701
0.01790,3.08000,-4.42750,0.00000,-0.00830,0.01513,-0.98515,2023,6,12,15,30,8,712
0.01800,3.02750,-4.60250,0.00000,-0.00878,0.01318,-0.98600,2023,6,12,15,30,8,723
0.01810,2.88750,-4.48000,0.00000,-0.01013,0.01257,-0.98844,2023,6,12,15,30,8,735
0.01820,2.97500,-4.53250,0.00000,-0.00915,0.01257,-0.98686,2023,6,12,15,30,8,746
0.01830,2.95750,-4.60250,0.00000,-0.01074,0.01171,-0.98759,2023,6,12,15,30,8,757
0.01840,2.78250,-4.39250,0.00000,-0.01257,0.01110,-0.98710,2023,6,12,15,30,8,768
0.01850,2.81750,-4.51500,0.00000,-0.01013,0.01122,-0.98515,2023,6,12,15,30,8,779
0.01860,2.74750,-4.62000,0.00000,-0.01025,0.01293,-0.98783,2023,6,12,15,30,8,790
0.01870,2.90500,-4.62000,0.00000,-0.01086,0.01293,-0.98747,2023,6,12,15,30,8,801
0.01880,3.22000,-4.69000,0.00000,-0.00952,0.01318,-0.98539,2023,6,12,15,30,8,812
0.01890,2.97500,-4.51500,0.00000,-0.01061,0.01171,-0.98881,2023,6,12,15,30,8,823
0.01900,3.09750,-4.53250,0.00000,-0.01025,0.01281,-0.98808,2023,6,12,15,30,8,835
0.01910,2.99250,-4.65500,0.00000,-0.01183,0.01074,-0.98796,2023,6,12,15,30,8,846
0.01920,2.85250,-4.48000,0.00000,-0.01049,0.01000,-0.98893,2023,6,12,15,30,8,857
0.01930,2.80000,-4.58500,0.00000,-0.01147,0.01061,-0.98796,2023,6,12,15,30,8,868
0.01940,3.11500,-4.55000,0.00000,-0.01098,0.01074,-0.99027,2023,6,12,15,30,8,879
0.01950,2.85250,-4.60250,0.00000,-0.01000,0.01208,-0.98893,2023,6,12,15,30,8,890
0.01960,3.02750,-4.74250,0.00000,-0.01000,0.01098,-0.98552,2023,6,12,15,30,8,901
0.01970,2.94000,-4.51500,0.00000,-0.01171,0.01000,-0.98747,2023,6,12,15,30,8,912
0.01980,2.97500,-4.42750,0.00000,-0.01135,0.01147,-0.98930,2023,6,12,15,30,8,923
0.01990,2.85250,-4.70750,0.00000,-0.01269,0.01037,-0.99003,2023,6,12,15,30,8,935
0.02000,2.99250,-4.51500,0.00000,-0.01305,0.01000,-0.98966,2023,6,12,15,30,8,946
0.02010,2.92250,-4.48000,0.00000,-0.00915,0.01232,-0.98771,2023,6,12,15,30,8,957
0.02020,3.08000,-4.44500,0.00000,-0.01013,0.01013,-0.98710,2023,6,12,15,30,8,968
0.02030,2.85250,-4.48000,0.00000,-0.01037,0.01366,-0.98759,2023,6,12,15,30,8,979
0.02040,2.97500,-4.55000,0.00000,-0.00976,0.00891,-0.98808,2023,6,12,15,30,9,0
0.02050,2.87000,-4.58500,0.00000,-0.00854,0.01452,-0.98454,2023,6,12,15,30,9,11
0.02060,2.85250,-4.69000,0.00000,-0.00964,0.00915,-0.98710,2023,6,12,15,30,9,22
0.02070,2.99250,-4.49750,0.00000,-0.01122,0.01171,-0.98783,2023,6,12,15,30,9,33
0.02080,2.81750,-4.44500,0.00000,-0.01391,0.01232,-0.98686,2023,6,12,15,30,9,45
0.02090,2.87000,-4.70750,0.00000,-0.01049,0.01086,-0.99162,2023,6,12,15,30,9,56
0.02100,3.11500,-4.55000,0.00000,-0.00671,0.00952,-0.98710,2023,6,12,15,30,9,67
0.02110,2.81750,-4.63750,0.00000,-0.00939,0.01342,-0.98698,2023,6,12,15,30,9,78
0.02120,3.02750,-4.46250,0.00000,-0.00927,0.01415,-0.98759,2023,6,12,15,30,9,89
0.02130,2.80000,-4.42750,0.00000,-0.01037,0.01159,-0.98808,2023,6,12,15,30,9,100
0.02140,2.73000,-4.48000,0.00000,-0.01074,0.01293,-0.98966,2023,6,12,15,30,9,111
0.02150,3.02750,-4.77750,0.00000,-0.01171,0.01135,-0.99003,2023,6,12,15,30,9,122
0.02160,2.90500,-4.70750,0.00000,-0.01000,0.01220,-0.98869,2023,6,12,15,30,9,133
0.02170,2.95750,-4.46250,0.00000,-0.01037,0.01257,-0.98491,2023,6,12,15,30,9,145
0.02180,3.01000,-4.56750,0.00000,-0.01086,0.01257,-0.98966,2023,6,12,15,30,9,156
0.02190,2.99250,-4.63750,0.00000,-0.00976,0.01159,-0.98820,2023,6,12,15,30,9,167
0.02200,2.94000,-4.63750,0.00000,-0.00976,0.00976,-0.98808,2023,6,12,15,30,9,178
0.02210,3.04500,-4.41000,0.00000,-0.01196,0.01366,-0.98710,2023,6,12,15,30,9,189
0.02220,2.83500,-4.67250,0.00000,-0.01122,0.00988,-0.98905,2023,6,12,15,30,9,200
0.02230,3.04500,-4.67250,0.00000,-0.01257,0.01025,-0.98771,2023,6,12,15,30,9,211
0.02240,3.02750,-4.49750,0.00000,-0.01244,0.01196,-0.98637,2023,6,12,15,30,9,222
0.02250,2.92250,-4.67250,0.00000,-0.01074,0.01293,-0.98881,2023,6,12,15,30,9,233
0.02260,2.95750,-4.74250,0.00000,-0.00988,0.01208,-0.98857,2023,6,12,15,30,9,245
0.02270,2.90500,-4.55000,0.00000,-0.01037,0.01037,-0.98930,2023,6,12,15,30,9,256
0.02280,2.92250,-4.46250,0.00000,-0.01098,0.01183,-0.98783,2023,6,12,15,30,9,267
0.02290,2.92250,-4.46250,0.00000,-0.01147,0.01086,-0.98844,2023,6,12,15,30,9,278
0.02300,3.08000,-4.60250,0.00000,-0.01208,0.01074,-0.98710,2023,6,12,15,30,9,289
0.02310,3.04500,-4.81250,0.00000,-0.01110,0.01159,-0.99076,2023,6,12,15,30,9,300
0.02320,2.99250,-4.49750,0.00000,-0.01000,0.01171,-0.98832,2023,6,12,15,30,9,311
0.02330,2.87000,-4.48000,0.00000,-0.01037,0.01037,-0.98710,2023,6,12,15,30,9,322
0.02340,2.99250,-4.56750,0.00000,-0.00939,0.01196,-0.98881,2023,6,12,15,30,9,333
0.02350,2.87000,-4.63750,0.00000,-0.01110,0.00842,-0.98869,2023,6,12,15,30,9,345
0.02360,2.87000,-4.53250,0.00000,-0.00988,0.01244,-0.99052,2023,6,12,15,30,9,356
0.02370,3.01000,-4.58500,0.00000,-0.01208,0.01086,-0.98783,2023,6,12,15,30,9,367
0.02380,2.94000,-4.56750,0.00000,-0.01037,0.01208,-0.98564,2023,6,12,15,30,9,378
0.02390,3.23750,-4.65500,0.00000,-0.01098,0.01037,-0.98722,2023,6,12,15,30,9,389
0.02400,3.13250,-4.91750,0.00000,-0.01086,0.01318,-0.99223,2023,6,12,15,30,9,400
0.02410,2.99250,-4.56750,0.00000,-0.00988,0.01013,-0.98918,2023,6,12,15,30,9,411
0.02420,3.11500,-4.53250,0.00000,-0.01098,0.01354,-0.98954,2023,6,12,15,30,9,422
0.02430,3.04500,-4.55000,0.00000,-0.01061,0.01318,-0.98991,2023,6,12,15,30,9,433
0.02440,3.04500,-4.58500,0.00000,-0.00891,0.01183,-0.98918,2023,6,12,15,30,9,445
0.02450,2.99250,-4.51500,0.00000,-0.01025,0.01342,-0.98844,2023,6,12,15,30,9,456
0.02460,2.92250,-4.46250,0.00000,-0.00964,0.01098,-0.98661,2023,6,12,15,30,9,467
0.02470,2.92250,-4.39250,0.00000,-0.00976,0.01293,-0.98710,2023,6,12,15,30,9,478
0.02480,2.99250,-4.56750,0.00000,-0.01049,0.00976,-0.99015,2023,6,12,15,30,9,489
0.02490,2.97500,-4.39250,0.00000,-0.01183,0.01122,-0.98515,2023,6,12,15,30,9,500
0.02500,3.13250,-4.69000,0.00000,-0.00891,0.01269,-0.98881,2023,6,12,15,30,9,511
0.02510,3.02750,-4.49750,0.00000,-0.00976,0.00866,-0.99040,2023,6,12,15,30,9,522
0.02520,3.13250,-4.56750,0.00000,-0.01049,0.01196,-0.98881,2023,6,12,15,30,9,533
0.02530,3.02750,-4.60250,0.00000,-0.01049,0.01220,-0.98637,2023,6,12,15,30,9,545
0.02540,3.08000,-4.63750,0.00000,-0.00793,0.01183,-0.98564,2023,6,12,15,30,9,556
0.02550,2.99250,-4.76000,0.00000,-0.01037,0.01257,-0.98722,2023,6,12,15,30,9,567
0.02560,3.20250,-4.79500,0.00000,-0.01013,0.01269,-0.98869,2023,6,12,15,30,9,578
0.02570,2.97500,-4.70750,0.00000,-0.00744,0.00878,-0.98783,2023,6,12,15,30,9,589
0.02580,3.01000,-4.56750,0.00000,-0.01086,0.01135,-0.98698,2023,6,12,15,30,9,600
0.02590,2.87000,-4.53250,0.00000,-0.00891,0.00830,-0.99076,2023,6,12,15,30,9,611
0.02600,3.06250,-4.69000,0.00000,-0.01000,0.00927,-0.98954,2023,6,12,15,30,9,622
0.02610,2.99250,-4.55000,0.00000,-0.01061,0.01037,-0.98991,2023,6,12,15,30,9,633
0.02620,2.97500,-4.74250,0.00000,-0.01098,0.00988,-0.98954,2023,6,12,15,30,9,645
0.02630,2.81750,-4.44500,0.00000,-0.01000,0.01049,-0.98552,2023,6,12,15,30,9,656
0.02640,2.92250,-4.58500,0.00000,-0.01147,0.01183,-0.98783,2023,6,12,15,30,9,667
0.02650,2.95750,-4.65500,0.00000,-0.01171,0.01122,-0.98881,2023,6,12,15,30,9,678
0.02660,3.08000,-4.69000,0.00000,-0.01037,0.01074,-0.98966,2023,6,12,15,30,9,689
0.02670,3.09750,-4.62000,0.00000,-0.01025,0.01183,-0.98881,2023,6,12,15,30,9,700
0.02680,2.85250,-4.55000,0.00000,-0.00939,0.01244,-0.98832,2023,6,12,15,30,9,711
0.02690,2.83500,-4.60250,0.00000,-0.00964,0.01025,-0.98625,2023,6,12,15,30,9,722
0.02700,2.87000,-4.56750,0.00000,-0.01098,0.00915,-0.98710,2023,6,12,15,30,9,733
0.02710,2.76500,-4.62000,0.00000,-0.01000,0.01183,-0.98942,2023,6,12,15,30,9,745
0.02720,2.80000,-4.51500,0.00000,-0.01049,0.01366,-0.98832,2023,6,12,15,30,9,756
0.02730,2.97500,-4.44500,0.00000,-0.00976,0.01232,-0.98905,2023,6,12,15,30,9,767
0.02740,2.87000,-4.49750,0.00000,-0.00817,0.01086,-0.98905,2023,6,12,15,30,9,778
0.02750,2.87000,-4.65500,0.00000,-0.01159,0.00976,-0.99101,2023,6,12,15,30,9,789
0.02760,2.80000,-4.44500,0.00000,-0.01135,0.01122,-0.99003,2023,6,12,15,30,9,800
0.02770,2.99250,-4.58500,0.00000,-0.01061,0.01183,-0.98844,2023,6,12,15,30,9,811
0.02780,3.06250,-4.49750,0.00000,-0.01147,0.01269,-0.98991,2023,6,12,15,30,9,822
0.02790,3.04500,-4.74250,0.00000,-0.01122,0.01013,-0.98820,2023,6,12,15,30,9,833
0.02800,2.88750,-4.60250,0.00000,-0.01086,0.01232,-0.98722,2023,6,12,15,30,9,845
0.02810,2.85250,-4.48000,0.00000,-0.01269,0.01183,-0.99125,2023,6,12,15,30,9,856
0.02820,2.94000,-4.79500,0.00000,-0.00878,0.01135,-0.98808,2023,6,12,15,30,9,867
0.02830,3.06250,-4.63750,0.00000,-0.00976,0.01318,-0.98930,2023,6,12,15,30,9,878
0.02840,2.81750,-4.56750,0.00000,-0.00952,0.01244,-0.98820,2023,6,12,15,30,9,889
0.02850,2.88750,-4.56750,0.00000,-0.01037,0.01366,-0.98796,2023,6,12,15,30,9,900
0.02860,3.09750,-4.51500,0.00000,-0.01086,0.01293,-0.98722,2023,6,12,15,30,9,911
0.02870,3.04500,-4.70750,0.00000,-0.01013,0.01208,-0.98832,2023,6,12,15,30,9,922
0.02880,2.73000,-4.53250,0.00000,-0.00988,0.01147,-0.99015,2023,6,12,15,30,9,933
0.02890,3.08000,-4.70750,0.00000,-0.01086,0.01159,-0.98722,2023,6,12,15,30,9,945
0.02900,2.88750,-4.76000,0.00000,-0.00976,0.01269,-0.98905,2023,6,12,15,30,9,956
0.02910,3.01000,-4.72500,0.00000,-0.01098,0.01232,-0.98820,2023,6,12,15,30,9,967
0.02920,2.88750,-4.28750,0.00000,-0.00915,0.01318,-0.98783,2023,6,12,15,30,9,978
0.02930,3.06250,-4.55000,0.00000,-0.00964,0.01196,-0.98637,2023,6,12,15,30,9,989
0.02940,2.97500,-4.65500,0.00000,-0.01135,0.01098,-0.99052,2023,6,12,15,30,10,0
0.02950,2.95750,-4.58500,0.00000,-0.01086,0.01122,-0.99162,2023,6,12,15,30,10,11
0.02960,2.94000,-4.53250,0.00000,-0.01025,0.01244,-0.98796,2023,6,12,15,30,10,22
0.02970,3.06250,-4.63750,0.00000,-0.01147,0.01159,-0.99015,2023,6,12,15,30,10,33
0.02980,3.11500,-4.74250,0.00000,-0.01037,0.01208,-0.98881,2023,6,12,15,30,10,45
0.02990,2.99250,-4.53250,0.00000,-0.01122,0.01354,-0.98857,2023,6,12,15,30,10,56
0.03000,2.78250,-4.42750,0.00000,-0.00952,0.01074,-0.98625,2023,6,12,15,30,10,67
0.03010,3.13250,-4.69000,0.00000,-0.01037,0.01244,-0.98844,2023,6,12,15,30,10,78
0.03020,3.09750,-4.77750,0.00000,-0.01074,0.01049,-0.98942,2023,6,12,15,30,10,89
0.03030,2.95750,-4.60250,0.00000,-0.01037,0.01049,-0.98783,2023,6,12,15,30,10,100
0.03040,2.99250,-4.67250,0.00000,-0.00976,0.01013,-0.99052,2023,6,12,15,30,10,111
0.03050,2.95750,-4.44500,0.00000,-0.01000,0.00927,-0.98747,2023,6,12,15,30,10,122
0.03060,3.11500,-4.70750,0.00000,-0.01061,0.01183,-0.99052,2023,6,12,15,30,10,133
0.03070,2.85250,-4.41000,0.00000,-0.01013,0.01025,-0.98832,2023,6,12,15,30,10,145
0.03080,2.95750,-4.60250,0.00000,-0.01000,0.01232,-0.98576,2023,6,12,15,30,10,156
0.03090,3.08000,-4.62000,0.00000,-0.01037,0.00976,-0.98722,2023,6,12,15,30,10,167
0.03100,3.02750,-4.69000,0.00000,-0.01037,0.01281,-0.98527,2023,6,12,15,30,10,178
0.03110,2.95750,-4.86500,0.00000,-0.01208,0.01061,-0.98832,2023,6,12,15,30,10,189
0.03120,2.99250,-4.53250,0.00000,-0.01086,0.01244,-0.98808,2023,6,12,15,30,10,200
0.03130,3.08000,-4.56750,0.00000,-0.01171,0.01220,-0.98905,2023,6,12,15,30,10,211
0.03140,3.16750,-4.70750,0.00000,-0.01183,0.01220,-0.98844,2023,6,12,15,30,10,222
0.03150,2.87000,-4.81250,0.00000,-0.01074,0.01135,-0.98954,2023,6,12,15,30,10,233
0.03160,2.81750,-4.53250,0.00000,-0.00903,0.01061,-0.98771,2023,6,12,15,30,10,245
0.03170,2.92250,-4.58500,0.00000,-0.01013,0.01366,-0.98771,2023,6,12,15,30,10,256
0.03180,2.95750,-4.51500,0.00000,-0.01171,0.01305,-0.98552,2023,6,12,15,30,10,267
0.03190,2.99250,-4.83000,0.00000,-0.01013,0.01269,-0.98735,2023,6,12,15,30,10,278
0.03200,3.04500,-4.53250,0.00000,-0.01098,0.01293,-0.98832,2023,6,12,15,30,10,289
0.03210,2.90500,-4.56750,0.00000,-0.01000,0.01025,-0.98783,2023,6,12,15,30,10,300
0.03220,3.09750,-4.70750,0.00000,-0.01025,0.01110,-0.98600,2023,6,12,15,30,10,311
0.03230,2.74750,-4.41000,0.00000,-0.01159,0.01318,-0.98991,2023,6,12,15,30,10,322
0.03240,2.87000,-4.51500,0.00000,-0.01000,0.01110,-0.98991,2023,6,12,15,30,10,333
0.03250,3.01000,-4.48000,0.00000,-0.01049,0.01452,-0.99186,2023,6,12,15,30,10,345
0.03260,2.85250,-4.56750,0.00000,-0.00939,0.01074,-0.99040,2023,6,12,15,30,10,356
0.03270,2.88750,-4.62000,0.00000,-0.01159,0.01074,-0.98710,2023,6,12,15,30,10,367
0.03280,2.92250,-4.55000,0.00000,-0.01147,0.01330,-0.98942,2023,6,12,15,30,10,378
0.03290,3.13250,-4.60250,0.00000,-0.01122,0.01244,-0.98796,2023,6,12,15,30,10,389
0.03300,2.85250,-4.53250,0.00000,-0.01037,0.01415,-0.98735,2023,6,12,15,30,10,400
0.03310,2.85250,-4.49750,0.00000,-0.01110,0.00830,-0.98759,2023,6,12,15,30,10,411
0.03320,2.90500,-4.63750,0.00000,-0.00976,0.01086,-0.98966,2023,6,12,15,30,10,422
0.03330,3.06250,-4.62000,0.00000,-0.00891,0.01171,-0.99027,2023,6,12,15,30,10,433
0.03340,3.01000,-4.49750,0.00000,-0.00964,0.01049,-0.98844,2023,6,12,15,30,10,445
0.03350,2.92250,-4.49750,0.00000,-0.00988,0.01232,-0.98649,2023,6,12,15,30,10,456
0.03360,2.88750,-4.32250,0.00000,-0.00988,0.01208,-0.98857,2023,6,12,15,30,10,467
0.03370,2.85250,-4.63750,0.00000,-0.01159,0.01244,-0.99027,2023,6,12,15,30,10,478
0.03380,2.90500,-4.70750,0.00000,-0.01147,0.01293,-0.99040,2023,6,12,15,30,10,489
0.03390,2.83500,-4.65500,0.00000,-0.00952,0.00988,-0.98722,2023,6,12,15,30,10,500
0.03400,3.02750,-4.58500,0.00000,-0.00976,0.01061,-0.98844,2023,6,12,15,30,10,511
0.03410,3.02750,-4.76000,0.00000,-0.00927,0.01257,-0.98954,2023,6,12,15,30,10,522
0.03420,2.95750,-4.63750,0.00000,-0.01098,0.01147,-0.99064,2023,6,12,15,30,10,533
0.03430,2.90500,-4.51500,0.00000,-0.01098,0.01122,-0.99027,2023,6,12,15,30,10,545
0.03440,3.15000,-4.51500,0.00000,-0.01049,0.01269,-0.98979,2023,6,12,15,30,10,556
0.03450,2.94000,-4.62000,0.00000,-0.00988,0.01086,-0.98649,2023,6,12,15,30,10,567
0.03460,2.97500,-4.51500,0.00000,-0.01208,0.01244,-0.98796,2023,6,12,15,30,10,578
0.03470,3.11500,-4.77750,0.00000,-0.01122,0.01208,-0.98722,2023,6,12,15,30,10,589
0.03480,2.99250,-4.72500,0.00000,-0.00964,0.01354,-0.98710,2023,6,12,15,30,10,600
0.03490,3.04500,-4.67250,0.00000,-0.01025,0.01208,-0.98613,2023,6,12,15,30,10,611
0.03500,2.94000,-4.69000,0.00000,-0.00964,0.01293,-0.98759,2023,6,12,15,30,10,622
0.03510,2.92250,-4.41000,0.00000,-0.00915,0.01208,-0.98991,2023,6,12,15,30,10,633
0.03520,2.97500,-4.51500,0.00000,-0.01049,0.01110,-0.98844,2023,6,12,15,30,10,645
0.03530,3.09750,-4.58500,0.00000,-0.01098,0.01183,-0.98747,2023,6,12,15,30,10,656
0.03540,3.13250,-4.88250,0.00000,-0.01159,0.01354,-0.99247,2023,6,12,15,30,10,667
0.03550,3.04500,-4.76000,0.00000,-0.01244,0.01196,-0.98722,2023,6,12,15,30,10,678
0.03560,2.97500,-4.46250,0.00000,-0.01196,0.01159,-0.98832,2023,6,12,15,30,10,689
0.03570,3.09750,-4.69000,0.00000,-0.01110,0.01183,-0.98832,2023,6,12,15,30,10,700
0.03580,2.83500,-4.53250,0.00000,-0.01110,0.00988,-0.98674,2023,6,12,15,30,10,711
0.03590,2.94000,-4.58500,0.00000,-0.00866,0.01135,-0.98722,2023,6,12,15,30,10,722
0.03600,2.95750,-4.49750,0.00000,-0.00964,0.01025,-0.98649,2023,6,12,15,30,10,733
0.03610,3.18500,-4.76000,0.00000,-0.00976,0.01220,-0.98698,2023,6,12,15,30,10,745
0.03620,3.04500,-4.65500,0.00000,-0.01025,0.00891,-0.98600,2023,6,12,15,30,10,756
0.03630,3.02750,-4.49750,0.00000,-0.01196,0.01086,-0.98722,2023,6,12,15,30,10,767
0.03640,2.95750,-4.58500,0.00000,-0.01159,0.01061,-0.98503,2023,6,12,15,30,10,778
0.03650,3.15000,-4.56750,0.00000,-0.01330,0.01208,-0.98930,2023,6,12,15,30,10,789
0.03660,3.02750,-4.65500,0.00000,-0.00939,0.01232,-0.98661,2023,6,12,15,30,10,800
0.03670,3.01000,-4.76000,0.00000,-0.01061,0.01232,-0.98478,2023,6,12,15,30,10,811
0.03680,3.01000,-4.77750,0.00000,-0.00952,0.01281,-0.98881,2023,6,12,15,30,10,822
0.03690,3.13250,-4.67250,0.00000,-0.01025,0.01098,-0.98893,2023,6,12,15,30,10,833
0.03700,3.22000,-4.93500,0.00000,-0.00842,0.01244,-0.99101,2023,6,12,15,30,10,845
0.03710,3.08000,-4.62000,0.00000,-0.01086,0.00976,-0.99064,2023,6,12,15,30,10,856
0.03720,2.97500,-4.63750,0.00000,-0.01159,0.01269,-0.98966,2023,6,12,15,30,10,867
0.03730,3.01000,-4.39250,0.00000,-0.01281,0.01171,-0.98796,2023,6,12,15,30,10,878
0.03740,3.06250,-4.60250,0.00000,-0.01318,0.01171,-0.98735,2023,6,12,15,30,10,889
0.03750,2.99250,-4.72500,0.00000,-0.01061,0.01171,-0.98722,2023,6,12,15,30,10,900
0.03760,2.83500,-4.48000,0.00000,-0.01208,0.01086,-0.98661,2023,6,12,15,30,10,911
0.03770,2.99250,-4.76000,0.00000,-0.01208,0.01171,-0.98588,2023,6,12,15,30,10,922
0.03780,3.08000,-4.69000,0.00000,-0.01159,0.01074,-0.98442,2023,6,12,15,30,10,933
0.03790,3.02750,-4.67250,0.00000,-0.00817,0.01074,-0.99040,2023,6,12,15,30,10,945
0.03800,2.85250,-4.72500,0.00000,-0.01037,0.01122,-0.99027,2023,6,12,15,30,10,956
0.03810,2.95750,-4.58500,0.00000,-0.01000,0.01427,-0.98710,2023,6,12,15,30,10,967
0.03820,2.85250,-4.42750,0.00000,-0.01061,0.01232,-0.98869,2023,6,12,15,30,10,978
0.03830,2.99250,-4.60250,0.00000,-0.01037,0.01049,-0.98747,2023,6,12,15,30,11,9
0.03840,3.04500,-4.53250,0.00000,-0.01061,0.00891,-0.98600,2023,6,12,15,30,11,20
0.03850,3.02750,-4.58500,0.00000,-0.01110,0.01098,-0.98478,2023,6,12,15,30,11,31
0.03860,2.95750,-4.56750,0.00000,-0.01183,0.01098,-0.98796,2023,6,12,15,30,11,42
0.03870,3.09750,-4.44500,0.00000,-0.01025,0.01281,-0.98722,2023,6,12,15,30,11,53
0.03880,2.85250,-4.55000,0.00000,-0.01037,0.01135,-0.98869,2023,6,12,15,30,11,65
0.03890,3.18500,-4.46250,0.00000,-0.01049,0.01196,-0.98722,2023,6,12,15,30,11,76
0.03900,2.90500,-4.67250,0.00000,-0.00891,0.01171,-0.98930,2023,6,12,15,30,11,87
0.03910,2.99250,-4.56750,0.00000,-0.00830,0.01049,-0.98710,2023,6,12,15,30,11,98
0.03920,2.94000,-4.58500,0.00000,-0.00964,0.01086,-0.98686,2023,6,12,15,30,11,109
0.03930,3.01000,-4.51500,0.00000,-0.00927,0.01159,-0.98942,2023,6,12,15,30,11,120
0.03940,2.97500,-4.67250,0.00000,-0.01110,0.01183,-0.98637,2023,6,12,15,30,11,131
0.03950,3.06250,-4.62000,0.00000,-0.01183,0.01135,-0.98844,2023,6,12,15,30,11,142
0.03960,2.94000,-4.58500,0.00000,-0.01135,0.01086,-0.98942,2023,6,12,15,30,11,153
0.03970,2.97500,-4.51500,0.00000,-0.01074,0.01342,-0.98735,2023,6,12,15,30,11,165
0.03980,2.99250,-4.51500,0.00000,-0.01098,0.01147,-0.98661,2023,6,12,15,30,11,176
0.03990,2.97500,-4.58500,0.00000,-0.01013,0.01147,-0.98857,2023,6,12,15,30,11,187
0.04000,2.87000,-4.55000,0.00000,-0.01159,0.01025,-0.98954,2023,6,12,15,30,11,198
0.04010,3.09750,-4.56750,0.00000,-0.00988,0.01379,-0.98527,2023,6,12,15,30,11,209
0.04020,2.95750,-4.49750,0.00000,-0.01086,0.00988,-0.98637,2023,6,12,15,30,11,220
0.04030,2.92250,-4.65500,0.00000,-0.00866,0.01244,-0.98710,2023,6,12,15,30,11,231
0.04040,2.87000,-4.76000,0.00000,-0.01110,0.01147,-0.99064,2023,6,12,15,30,11,242
0.04050,3.09750,-4.65500,0.00000,-0.00671,0.01098,-0.98942,2023,6,12,15,30,11,253
0.04060,2.83500,-4.65500,0.00000,-0.00915,0.01208,-0.98979,2023,6,12,15,30,11,265
0.04070,2.87000,-4.56750,0.00000,-0.01171,0.01122,-0.98686,2023,6,12,15,30,11,276
0.04080,3.04500,-4.42750,0.00000,-0.01049,0.01183,-0.98747,2023,6,12,15,30,11,287
0.04090,3.18500,-4.65500,0.00000,-0.01159,0.01135,-0.98942,2023,6,12,15,30,11,298
0.04100,3.11500,-4.65500,0.00000,-0.00830,0.01122,-0.98686,2023,6,12,15,30,11,309
0.04110,3.04500,-4.67250,0.00000,-0.00988,0.01232,-0.98857,2023,6,12,15,30,11,320
0.04120,3.02750,-4.56750,0.00000,-0.00988,0.01330,-0.98674,2023,6,12,15,30,11,331
0.04130,3.08000,-4.55000,0.00000,-0.00988,0.01159,-0.98796,2023,6,12,15,30,11,342
0.04140,2.83500,-4.49750,0.00000,-0.01037,0.01171,-0.98783,2023,6,12,15,30,11,353
0.04150,3.01000,-4.88250,0.00000,-0.01171,0.01342,-0.98564,2023,6,12,15,30,11,365
0.04160,2.99250,-4.58500,0.00000,-0.00988,0.01318,-0.98661,2023,6,12,15,30,11,376
0.04170,3.11500,-4.44500,0.00000,-0.01025,0.00939,-0.98661,2023,6,12,15,30,11,387
0.04180,3.16750,-4.60250,0.00000,-0.00805,0.01244,-0.98783,2023,6,12,15,30,11,398
0.04190,2.94000,-4.67250,0.00000,-0.01159,0.01013,-0.98820,2023,6,12,15,30,11,409
0.04200,2.87000,-4.67250,0.00000,-0.01196,0.01183,-0.98893,2023,6,12,15,30,11,420
0.04210,3.04500,-4.48000,0.00000,-0.01171,0.01159,-0.98796,2023,6,12,15,30,11,431
0.04220,2.95750,-4.76000,0.00000,-0.00952,0.00988,-0.98820,2023,6,12,15,30,11,442
0.04230,3.08000,-4.67250,0.00000,-0.00988,0.01183,-0.98564,2023,6,12,15,30,11,453
0.04240,3.01000,-4.51500,0.00000,-0.01098,0.01208,-0.99015,2023,6,12,15,30,11,465
0.04250,2.90500,-4.55000,0.00000,-0.00903,0.01244,-0.98552,2023,6,12,15,30,11,476
0.04260,2.95750,-4.62000,0.00000,-0.01159,0.01171,-0.98869,2023,6,12,15,30,11,487
0.04270,2.99250,-4.35750,0.00000,-0.01074,0.01183,-0.98918,2023,6,12,15,30,11,498
0.04280,2.99250,-4.56750,0.00000,-0.01049,0.01049,-0.98796,2023,6,12,15,30,11,509
0.04290,2.99250,-4.60250,0.00000,-0.01147,0.01257,-0.98869,2023,6,12,15,30,11,520
0.04300,3.13250,-4.67250,0.00000,-0.01013,0.01330,-0.98430,2023,6,12,15,30,11,531
0.04310,2.99250,-4.77750,0.00000,-0.00976,0.01232,-0.98808,2023,6,12,15,30,11,542
0.04320,3.01000,-4.27000,0.00000,-0.01074,0.01098,-0.98747,2023,6,12,15,30,11,553
0.04330,2.95750,-4.44500,0.00000,-0.01183,0.01147,-0.98747,2023,6,12,15,30,11,565
0.04340,2.95750,-4.53250,0.00000,-0.00769,0.01098,-0.98417,2023,6,12,15,30,11,576
0.04350,2.99250,-4.62000,0.00000,-0.01110,0.01232,-0.98844,2023,6,12,15,30,11,587
0.04360,3.15000,-4.65500,0.00000,-0.01196,0.01110,-0.98698,2023,6,12,15,30,11,598
0.04370,2.80000,-4.55000,0.00000,-0.00988,0.01037,-0.98576,2023,6,12,15,30,11,609
0.04380,3.02750,-4.55000,0.00000,-0.00988,0.01098,-0.98808,2023,6,12,15,30,11,620
0.04390,3.02750,-4.44500,0.00000,-0.00805,0.01220,-0.98649,2023,6,12,15,30,11,631
0.04400,2.90500,-4.58500,0.00000,-0.00866,0.01305,-0.99015,2023,6,12,15,30,11,642
0.04410,3.04500,-4.51500,0.00000,-0.01159,0.01208,-0.98454,2023,6,12,15,30,11,653
0.04420,2.83500,-4.60250,0.00000,-0.00988,0.01135,-0.98796,2023,6,12,15,30,11,665
0.04430,2.94000,-4.65500,0.00000,-0.01269,0.00854,-0.98771,2023,6,12,15,30,11,676
0.04440,2.88750,-4.44500,0.00000,-0.00903,0.01135,-0.98735,2023,6,12,15,30,11,687
0.04450,3.06250,-4.58500,0.00000,-0.00939,0.01110,-0.98808,2023,6,12,15,30,11,698
0.04460,2.92250,-4.30500,0.00000,-0.01098,0.01122,-0.99040,2023,6,12,15,30,11,709
0.04470,2.88750,-4.63750,0.00000,-0.00720,0.01257,-0.98564,2023,6,12,15,30,11,720
0.04480,3.01000,-4.79500,0.00000,-0.00964,0.01305,-0.98613,2023,6,12,15,30,11,731
0.04490,2.87000,-4.49750,0.00000,-0.01208,0.01049,-0.98820,2023,6,12,15,30,11,742
0.04500,2.94000,-4.63750,0.00000,-0.01086,0.01037,-0.98771,2023,6,12,15,30,11,753
0.04510,3.15000,-4.58500,0.00000,-0.01220,0.00903,-0.98869,2023,6,12,15,30,11,765
0.04520,2.85250,-4.35750,0.00000,-0.01037,0.01135,-0.98600,2023,6,12,15,30,11,776
0.04530,2.90500,-4.72500,0.00000,-0.01049,0.01232,-0.98771,2023,6,12,15,30,11,787
0.04540,3.02750,-4.67250,0.00000,-0.01061,0.01171,-0.98674,2023,6,12,15,30,11,798
0.04550,3.08000,-4.70750,0.00000,-0.01086,0.01061,-0.98820,2023,6,12,15,30,11,809
0.04560,3.20250,-4.84750,0.00000,-0.00964,0.01159,-0.98661,2023,6,12,15,30,11,820
0.04570,3.06250,-4.79500,0.00000,-0.01086,0.01110,-0.98759,2023,6,12,15,30,11,831
0.04580,2.76500,-4.69000,0.00000,-0.01244,0.01074,-0.98686,2023,6,12,15,30,11,842
0.04590,2.90500,-4.58500,0.00000,-0.01171,0.01196,-0.98588,2023,6,12,15,30,11,853
0.04600,2.76500,-4.53250,0.00000,-0.01159,0.01135,-0.98759,2023,6,12,15,30,11,865
0.04610,3.18500,-4.72500,0.00000,-0.01037,0.01086,-0.98857,2023,6,12,15,30,11,876
0.04620,2.99250,-4.70750,0.00000,-0.01074,0.01220,-0.98942,2023,6,12,15,30,11,887
0.04630,2.87000,-4.44500,0.00000,-0.00952,0.01086,-0.98881,2023,6,12,15,30,11,898
0.04640,2.87000,-4.70750,0.00000,-0.01171,0.01257,-0.98979,2023,6,12,15,30,11,909
0.04650,2.97500,-4.65500,0.00000,-0.00927,0.01171,-0.98637,2023,6,12,15,30,11,920
0.04660,2.97500,-4.35750,0.00000,-0.01025,0.01049,-0.98674,2023,6,12,15,30,11,931
0.04670,2.97500,-4.46250,0.00000,-0.01086,0.01244,-0.98759,2023,6,12,15,30,11,942
0.04680,2.97500,-4.70750,0.00000,-0.00976,0.01208,-0.98869,2023,6,12,15,30,11,953
0.04690,2.99250,-4.70750,0.00000,-0.01110,0.01013,-0.98808,2023,6,12,15,30,11,965
0.04700,2.90500,-4.69000,0.00000,-0.01025,0.01159,-0.98722,2023,6,12,15,30,11,976
0.04710,3.16750,-4.62000,0.00000,-0.00964,0.00903,-0.98796,2023,6,12,15,30,11,987
0.04720,3.01000,-4.67250,0.00000,-0.01037,0.01257,-0.98905,2023,6,12,15,30,12,8
0.04730,2.90500,-4.56750,0.00000,-0.01098,0.01244,-0.99027,2023,6,12,15,30,12,19
0.04740,3.04500,-4.63750,0.00000,-0.01098,0.01379,-0.98661,2023,6,12,15,30,12,30
0.04750,3.30750,-4.76000,0.00000,-0.00976,0.01196,-0.98808,2023,6,12,15,30,12,41
0.04760,2.76500,-4.42750,0.00000,-0.00988,0.01244,-0.98942,2023,6,12,15,30,12,52
0.04770,3.04500,-4.55000,0.00000,-0.01183,0.01293,-0.98796,2023,6,12,15,30,12,63
0.04780,3.01000,-4.58500,0.00000,-0.00793,0.01183,-0.98747,2023,6,12,15,30,12,75
0.04790,2.97500,-4.86500,0.00000,-0.01159,0.01269,-0.98844,2023,6,12,15,30,12,86
0.04800,2.99250,-4.72500,0.00000,-0.01122,0.00952,-0.98735,2023,6,12,15,30,12,97
0.04810,2.88750,-4.63750,0.00000,-0.01000,0.01159,-0.98954,2023,6,12,15,30,12,108
0.04820,2.95750,-4.76000,0.00000,-0.01232,0.01220,-0.99040,2023,6,12,15,30,12,119
0.04830,2.99250,-4.49750,0.00000,-0.01061,0.01159,-0.98698,2023,6,12,15,30,12,130
0.04840,2.94000,-4.41000,0.00000,-0.00939,0.01366,-0.98771,2023,6,12,15,30,12,141
0.04850,2.99250,-4.69000,0.00000,-0.01196,0.01293,-0.98710,2023,6,12,15,30,12,152
0.04860,3.01000,-4.81250,0.00000,-0.01074,0.01000,-0.98466,2023,6,12,15,30,12,163
0.04870,3.06250,-4.67250,0.00000,-0.00988,0.01305,-0.98661,2023,6,12,15,30,12,175
0.04880,2.85250,-4.62000,0.00000,-0.01013,0.01110,-0.98722,2023,6,12,15,30,12,186
0.04890,2.81750,-4.65500,0.00000,-0.00939,0.01159,-0.98771,2023,6,12,15,30,12,197
0.04900,2.92250,-4.35750,0.00000,-0.01013,0.01025,-0.98735,2023,6,12,15,30,12,208
0.04910,2.90500,-4.70750,0.00000,-0.01159,0.01000,-0.98783,2023,6,12,15,30,12,219
0.04920,2.95750,-4.67250,0.00000,-0.01159,0.01135,-0.98747,2023,6,12,15,30,12,230
0.04930,3.02750,-4.65500,0.00000,-0.00805,0.01061,-0.99040,2023,6,12,15,30,12,241
0.04940,3.09750,-4.37500,0.00000,-0.00988,0.01147,-0.98698,2023,6,12,15,30,12,252
0.04950,2.97500,-4.41000,0.00000,-0.00976,0.01135,-0.98759,2023,6,12,15,30,12,263
0.04960,2.90500,-4.48000,0.00000,-0.00988,0.01122,-0.98796,2023,6,12,15,30,12,275
0.04970,3.01000,-4.53250,0.00000,-0.00988,0.01183,-0.99003,2023,6,12,15,30,12,286
0.04980,2.95750,-4.63750,0.00000,-0.01025,0.01220,-0.98869,2023,6,12,15,30,12,297
0.04990,3.08000,-4.46250,0.00000,-0.01232,0.01183,-0.98759,2023,6,12,15,30,12,308
0.05000,2.87000,-4.53250,0.00000,-0.01122,0.00988,-0.98881,2023,6,12,15,30,12,319
0.05010,3.08000,-4.62000,0.00000,-0.01074,0.01110,-0.98686,2023,6,12,15,30,12,330
0.05020,2.92250,-4.58500,0.00000,-0.01159,0.01269,-0.98747,2023,6,12,15,30,12,341
0.05030,2.81750,-4.60250,0.00000,-0.01122,0.01183,-0.98832,2023,6,12,15,30,12,352
0.05040,2.92250,-4.53250,0.00000,-0.01086,0.01061,-0.98661,2023,6,12,15,30,12,363
0.05050,3.02750,-4.76000,0.00000,-0.00988,0.00903,-0.98722,2023,6,12,15,30,12,375
0.05060,2.92250,-4.51500,0.00000,-0.00939,0.01135,-0.98783,2023,6,12,15,30,12,386
0.05070,3.02750,-4.65500,0.00000,-0.01122,0.01220,-0.99015,2023,6,12,15,30,12,397
0.05080,2.97500,-4.51500,0.00000,-0.01061,0.01171,-0.98722,2023,6,12,15,30,12,408
0.05090,2.73000,-4.62000,0.00000,-0.01061,0.01061,-0.98625,2023,6,12,15,30,12,419
0.05100,2.97500,-4.51500,0.00000,-0.01110,0.01061,-0.99088,2023,6,12,15,30,12,430
0.05110,2.74750,-4.49750,0.00000,-0.01074,0.01208,-0.98771,2023,6,12,15,30,12,441
0.05120,3.18500,-4.67250,0.00000,-0.00976,0.01220,-0.98942,2023,6,12,15,30,12,452
0.05130,3.09750,-4.67250,0.00000,-0.01061,0.01110,-0.98576,2023,6,12,15,30,12,463
0.05140,2.94000,-4.53250,0.00000,-0.00891,0.01147,-0.98588,2023,6,12,15,30,12,475
0.05150,3.06250,-4.32250,0.00000,-0.01086,0.01366,-0.99015,2023,6,12,15,30,12,486
0.05160,3.11500,-4.55000,0.00000,-0.01086,0.01208,-0.98869,2023,6,12,15,30,12,497
0.05170,2.92250,-4.60250,0.00000,-0.00976,0.01183,-0.98905,2023,6,12,15,30,12,508
0.05180,3.06250,-4.42750,0.00000,-0.00964,0.01061,-0.99052,2023,6,12,15,30,12,519
0.05190,3.01000,-4.53250,0.00000,-0.01049,0.01257,-0.98649,2023,6,12,15,30,12,530
0.05200,3.04500,-4.56750,0.00000,-0.00952,0.01074,-0.98295,2023,6,12,15,30,12,541
0.05210,3.04500,-4.51500,0.00000,-0.01061,0.01074,-0.98747,2023,6,12,15,30,12,552
0.05220,2.97500,-4.44500,0.00000,-0.00952,0.01086,-0.98966,2023,6,12,15,30,12,563
0.05230,2.97500,-4.51500,0.00000,-0.01049,0.01147,-0.98661,2023,6,12,15,30,12,575
0.05240,2.88750,-4.56750,0.00000,-0.00988,0.01305,-0.98991,2023,6,12,15,30,12,586
0.05250,3.04500,-4.53250,0.00000,-0.01171,0.01122,-0.98844,2023,6,12,15,30,12,597
0.05260,2.94000,-4.55000,0.00000,-0.01196,0.01135,-0.98686,2023,6,12,15,30,12,608
0.05270,2.83500,-4.51500,0.00000,-0.01074,0.01135,-0.98771,2023,6,12,15,30,12,619
0.05280,2.88750,-4.46250,0.00000,-0.01061,0.01061,-0.98674,2023,6,12,15,30,12,630
0.05290,2.95750,-4.48000,0.00000,-0.01159,0.01110,-0.99113,2023,6,12,15,30,12,641
0.05300,3.08000,-4.69000,0.00000,-0.01049,0.01122,-0.98515,2023,6,12,15,30,12,652
0.05310,2.94000,-4.56750,0.00000,-0.01183,0.01049,-0.98844,2023,6,12,15,30,12,663
0.05320,3.11500,-4.70750,0.00000,-0.01013,0.01159,-0.98857,2023,6,12,15,30,12,675
0.05330,2.99250,-4.63750,0.00000,-0.01037,0.01013,-0.98881,2023,6,12,15,30,12,686
0.05340,3.08000,-4.65500,0.00000,-0.00964,0.01061,-0.98771,2023,6,12,15,30,12,697
0.05350,2.97500,-4.62000,0.00000,-0.00903,0.01086,-0.99027,2023,6,12,15,30,12,708
0.05360,2.83500,-4.63750,0.00000,-0.01122,0.01049,-0.98893,2023,6,12,15,30,12,719
0.05370,2.88750,-4.63750,0.00000,-0.01196,0.01147,-0.99125,2023,6,12,15,30,12,730
0.05380,2.99250,-4.44500,0.00000,-0.01025,0.01086,-0.98674,2023,6,12,15,30,12,741
0.05390,3.09750,-4.79500,0.00000,-0.00842,0.01159,-0.98759,2023,6,12,15,30,12,752
0.05400,2.69500,-4.37500,0.00000,-0.00939,0.01293,-0.98576,2023,6,12,15,30,12,763
0.05410,2.99250,-4.56750,0.00000,-0.00842,0.01135,-0.98527,2023,6,12,15,30,12,775
0.05420,2.92250,-4.53250,0.00000,-0.00964,0.01244,-0.98881,2023,6,12,15,30,12,786
0.05430,3.02750,-4.44500,0.00000,-0.00903,0.01244,-0.98722,2023,6,12,15,30,12,797
0.05440,2.88750,-4.63750,0.00000,-0.01244,0.01110,-0.98674,2023,6,12,15,30,12,808
0.05450,2.85250,-4.48000,0.00000,-0.01171,0.01208,-0.98893,2023,6,12,15,30,12,819
0.05460,2.90500,-4.51500,0.00000,-0.00988,0.01379,-0.98747,2023,6,12,15,30,12,830
0.05470,3.02750,-4.60250,0.00000,-0.01098,0.01000,-0.98869,2023,6,12,15,30,12,841
0.05480,3.02750,-4.65500,0.00000,-0.01232,0.01208,-0.98783,2023,6,12,15,30,12,852
0.05490,2.94000,-4.56750,0.00000,-0.00866,0.01220,-0.98966,2023,6,12,15,30,12,863
0.05500,3.06250,-4.53250,0.00000,-0.00952,0.01159,-0.98820,2023,6,12,15,30,12,875
0.05510,2.92250,-4.55000,0.00000,-0.00866,0.01293,-0.98686,2023,6,12,15,30,12,886
0.05520,2.95750,-4.69000,0.00000,-0.01098,0.01293,-0.98869,2023,6,12,15,30,12,897
0.05530,3.09750,-4.55000,0.00000,-0.00976,0.01135,-0.98820,2023,6,12,15,30,12,908
0.05540,3.13250,-4.58500,0.00000,-0.01025,0.01098,-0.98771,2023,6,12,15,30,12,919
0.05550,3.09750,-4.41000,0.00000,-0.01037,0.01379,-0.98844,2023,6,12,15,30,12,930
0.05560,2.90500,-4.53250,0.00000,-0.01061,0.01147,-0.98808,2023,6,12,15,30,12,941
0.05570,2.85250,-4.58500,0.00000,-0.01196,0.01196,-0.98893,2023,6,12,15,30,12,952
0.05580,3.02750,-4.67250,0.00000,-0.00866,0.01244,-0.98735,2023,6,12,15,30,12,963
0.05590,2.85250,-4.65500,0.00000,-0.00927,0.01147,-0.98905,2023,6,12,15,30,12,975
0.05600,3.22000,-4.69000,0.00000,-0.01171,0.01159,-0.99052,2023,6,12,15,30,12,986
0.05610,2.83500,-4.65500,0.00000,-0.01037,0.01049,-0.99027,2023,6,12,15,30,13,7
0.05620,2.99250,-4.72500,0.00000,-0.00866,0.01147,-0.98881,2023,6,12,15,30,13,18
0.05630,3.11500,-4.70750,0.00000,-0.01086,0.01305,-0.98637,2023,6,12,15,30,13,29
0.05640,2.92250,-4.58500,0.00000,-0.00964,0.01293,-0.98808,2023,6,12,15,30,13,40
0.05650,2.88750,-4.56750,0.00000,-0.01037,0.01147,-0.98857,2023,6,12,15,30,13,51
0.05660,3.04500,-4.65500,0.00000,-0.01147,0.01074,-0.98844,2023,6,12,15,30,13,62
0.05670,2.94000,-4.55000,0.00000,-0.01196,0.01232,-0.98881,2023,6,12,15,30,13,73
0.05680,3.02750,-4.84750,0.00000,-0.00915,0.01061,-0.98869,2023,6,12,15,30,13,85
0.05690,2.95750,-4.56750,0.00000,-0.01037,0.01061,-0.98796,2023,6,12,15,30,13,96
0.05700,2.99250,-4.70750,0.00000,-0.01025,0.01196,-0.99052,2023,6,12,15,30,13,107
0.05710,3.02750,-4.60250,0.00000,-0.01159,0.01244,-0.98735,2023,6,12,15,30,13,118
0.05720,2.94000,-4.63750,0.00000,-0.00927,0.01122,-0.98735,2023,6,12,15,30,13,129
0.05730,2.78250,-4.53250,0.00000,-0.00964,0.01232,-0.99040,2023,6,12,15,30,13,140
0.05740,3.09750,-4.46250,0.00000,-0.01013,0.01232,-0.98905,2023,6,12,15,30,13,151
0.05750,3.11500,-4.74250,0.00000,-0.00927,0.01061,-0.98661,2023,6,12,15,30,13,162
0.05760,2.87000,-4.63750,0.00000,-0.01037,0.01342,-0.98661,2023,6,12,15,30,13,173
0.05770,3.09750,-4.79500,0.00000,-0.01147,0.01196,-0.98735,2023,6,12,15,30,13,185
0.05780,3.09750,-4.56750,0.00000,-0.01208,0.01196,-0.98771,2023,6,12,15,30,13,196
0.05790,3.06250,-4.51500,0.00000,-0.00939,0.01135,-0.98503,2023,6,12,15,30,13,207
0.05800,3.02750,-4.55000,0.00000,-0.00878,0.00964,-0.98954,2023,6,12,15,30,13,218
0.05810,2.90500,-4.62000,0.00000,-0.01074,0.01208,-0.98783,2023,6,12,15,30,13,229
0.05820,3.04500,-4.74250,0.00000,-0.01122,0.01147,-0.98759,2023,6,12,15,30,13,240
0.05830,3.15000,-4.88250,0.00000,-0.01183,0.00964,-0.98637,2023,6,12,15,30,13,251
0.05840,3.02750,-4.69000,0.00000,-0.00793,0.01171,-0.98588,2023,6,12,15,30,13,262
0.05850,2.87000,-4.49750,0.00000,-0.01110,0.01208,-0.99101,2023,6,12,15,30,13,273
0.05860,3.04500,-4.63750,0.00000,-0.00927,0.01122,-0.98966,2023,6,12,15,30,13,285
0.05870,3.02750,-4.83000,0.00000,-0.01074,0.01403,-0.98808,2023,6,12,15,30,13,296
0.05880,3.06250,-4.62000,0.00000,-0.00891,0.01244,-0.98771,2023,6,12,15,30,13,307
0.05890,2.87000,-4.60250,0.00000,-0.01037,0.01171,-0.98991,2023,6,12,15,30,13,318
0.05900,2.83500,-4.55000,0.00000,-0.00927,0.01196,-0.98625,2023,6,12,15,30,13,329
0.05910,2.74750,-4.60250,0.00000,-0.01000,0.01318,-0.98698,2023,6,12,15,30,13,340
0.05920,2.62500,-4.55000,0.00000,-0.01098,0.01183,-0.98918,2023,6,12,15,30,13,351
0.05930,2.83500,-4.46250,0.00000,-0.00878,0.01135,-0.99125,2023,6,12,15,30,13,362
0.05940,2.81750,-4.49750,0.00000,-0.00964,0.01074,-0.98747,2023,6,12,15,30,13,373
0.05950,3.08000,-4.58500,0.00000,-0.01293,0.01110,-0.98686,2023,6,12,15,30,13,385
0.05960,2.88750,-4.44500,0.00000,-0.00939,0.01232,-0.98796,2023,6,12,15,30,13,396
0.05970,2.85250,-4.56750,0.00000,-0.01037,0.01013,-0.98613,2023,6,12,15,30,13,407
0.05980,3.18500,-4.53250,0.00000,-0.01342,0.01025,-0.98954,2023,6,12,15,30,13,418
0.05990,3.01000,-4.49750,0.00000,-0.01098,0.01220,-0.98905,2023,6,12,15,30,13,429
0.06000,3.22000,-4.65500,0.00000,-0.01098,0.01342,-0.98966,2023,6,12,15,30,13,440
0.06010,2.99250,-4.62000,0.00000,-0.01098,0.01171,-0.98649,2023,6,12,15,30,13,451
0.06020,2.78250,-4.56750,0.00000,-0.00939,0.01220,-0.98710,2023,6,12,15,30,13,462
0.06030,2.73000,-4.49750,0.00000,-0.01183,0.01196,-0.98698,2023,6,12,15,30,13,473
0.06040,3.04500,-4.53250,0.00000,-0.00854,0.01171,-0.98808,2023,6,12,15,30,13,485
0.06050,3.13250,-4.65500,0.00000,-0.01122,0.01257,-0.99003,2023,6,12,15,30,13,496
0.06060,2.97500,-4.67250,0.00000,-0.00927,0.01330,-0.98759,2023,6,12,15,30,13,507
0.06070,3.01000,-4.56750,0.00000,-0.01000,0.01257,-0.98552,2023,6,12,15,30,13,518
0.06080,3.16750,-4.60250,0.00000,-0.00878,0.01049,-0.98722,2023,6,12,15,30,13,529
0.06090,3.01000,-4.42750,0.00000,-0.01049,0.01098,-0.98710,2023,6,12,15,30,13,540
0.06100,2.88750,-4.42750,0.00000,-0.01147,0.01208,-0.98759,2023,6,12,15,30,13,551
0.06110,2.80000,-4.56750,0.00000,-0.00927,0.01159,-0.99174,2023,6,12,15,30,13,562
0.06120,2.74750,-4.39250,0.00000,-0.01110,0.00927,-0.98905,2023,6,12,15,30,13,573
0.06130,3.02750,-4.58500,0.00000,-0.01147,0.00988,-0.98588,2023,6,12,15,30,13,585
0.06140,2.94000,-4.42750,0.00000,-0.00988,0.01379,-0.98844,2023,6,12,15,30,13,596
0.06150,3.02750,-4.44500,0.00000,-0.00781,0.01318,-0.98783,2023,6,12,15,30,13,607
0.06160,2.95750,-4.77750,0.00000,-0.00964,0.01086,-0.98735,2023,6,12,15,30,13,618
0.06170,2.94000,-4.74250,0.00000,-0.01061,0.01098,-0.98759,2023,6,12,15,30,13,629
0.06180,3.01000,-4.46250,0.00000,-0.01086,0.01098,-0.98625,2023,6,12,15,30,13,640
0.06190,2.92250,-4.62000,0.00000,-0.00915,0.01147,-0.98613,2023,6,12,15,30,13,651
0.06200,2.87000,-4.49750,0.00000,-0.01171,0.01232,-0.98820,2023,6,12,15,30,13,662
0.06210,2.94000,-4.65500,0.00000,-0.01196,0.01183,-0.98747,2023,6,12,15,30,13,673
0.06220,2.95750,-4.41000,0.00000,-0.01086,0.01110,-0.98625,2023,6,12,15,30,13,685
0.06230,3.02750,-4.76000,0.00000,-0.01074,0.01074,-0.98710,2023,6,12,15,30,13,696
0.06240,3.27250,-4.65500,0.00000,-0.00817,0.01232,-0.99003,2023,6,12,15,30,13,707
0.06250,2.87000,-4.55000,0.00000,-0.00964,0.01074,-0.98503,2023,6,12,15,30,13,718
0.06260,3.02750,-4.34000,0.00000,-0.01330,0.01074,-0.98466,2023,6,12,15,30,13,729
0.06270,2.95750,-4.60250,0.00000,-0.01000,0.01147,-0.98796,2023,6,12,15,30,13,740
0.06280,2.95750,-4.42750,0.00000,-0.01025,0.00976,-0.98698,2023,6,12,15,30,13,751
0.06290,3.02750,-4.51500,0.00000,-0.01013,0.01196,-0.98625,2023,6,12,15,30,13,762
0.06300,3.09750,-4.65500,0.00000,-0.00976,0.01281,-0.98588,2023,6,12,15,30,13,773
0.06310,2.95750,-4.84750,0.00000,-0.01061,0.01196,-0.98796,2023,6,12,15,30,13,785
0.06320,3.01000,-4.74250,0.00000,-0.01147,0.01110,-0.98661,2023,6,12,15,30,13,796
0.06330,2.87000,-4.62000,0.00000,-0.00817,0.00988,-0.98600,2023,6,12,15,30,13,807
0.06340,2.94000,-4.55000,0.00000,-0.00964,0.01269,-0.98771,2023,6,12,15,30,13,818
0.06350,2.88750,-4.41000,0.00000,-0.01122,0.01074,-0.98832,2023,6,12,15,30,13,829
0.06360,3.02750,-4.53250,0.00000,-0.01061,0.01232,-0.98796,2023,6,12,15,30,13,840
0.06370,2.99250,-4.70750,0.00000,-0.01281,0.01244,-0.98844,2023,6,12,15,30,13,851
0.06380,2.87000,-4.34000,0.00000,-0.00854,0.01257,-0.98625,2023,6,12,15,30,13,862
0.06390,2.90500,-4.69000,0.00000,-0.00854,0.01232,-0.98588,2023,6,12,15,30,13,873
0.06400,3.01000,-4.48000,0.00000,-0.01110,0.01269,-0.99198,2023,6,12,15,30,13,885
0.06410,3.06250,-4.72500,0.00000,-0.00903,0.01183,-0.98747,2023,6,12,15,30,13,896
0.06420,3.04500,-4.56750,0.00000,-0.00964,0.01122,-0.98442,2023,6,12,15,30,13,907
0.06430,3.02750,-4.72500,0.00000,-0.01135,0.01025,-0.98979,2023,6,12,15,30,13,918
0.06440,3.08000,-4.56750,0.00000,-0.00964,0.01135,-0.98759,2023,6,12,15,30,13,929
0.06450,2.74750,-4.62000,0.00000,-0.00964,0.01208,-0.98344,2023,6,12,15,30,13,940
0.06460,2.83500,-4.60250,0.00000,-0.01000,0.01159,-0.98820,2023,6,12,15,30,13,951
0.06470,3.02750,-4.49750,0.00000,-0.01061,0.01342,-0.98820,2023,6,12,15,30,13,962
0.06480,2.90500,-4.53250,0.00000,-0.01086,0.01208,-0.98539,2023,6,12,15,30,13,973
0.06490,2.80000,-4.56750,0.00000,-0.01293,0.01049,-0.98930,2023,6,12,15,30,14,5
0.06500,2.94000,-4.48000,0.00000,-0.00952,0.01159,-0.98600,2023,6,12,15,30,14,16
0.06510,2.80000,-4.58500,0.00000,-0.01049,0.01086,-0.98832,2023,6,12,15,30,14,27
0.06520,3.18500,-4.74250,0.00000,-0.01098,0.01122,-0.98832,2023,6,12,15,30,14,38
0.06530,2.99250,-4.53250,0.00000,-0.01208,0.01220,-0.98881,2023,6,12,15,30,14,49
0.06540,2.97500,-4.53250,0.00000,-0.00830,0.01122,-0.98783,2023,6,12,15,30,14,60
0.06550,3.11500,-4.76000,0.00000,-0.00964,0.01257,-0.98686,2023,6,12,15,30,14,71
0.06560,2.92250,-4.49750,0.00000,-0.00927,0.01086,-0.98637,2023,6,12,15,30,14,82
0.06570,3.16750,-4.67250,0.00000,-0.00842,0.01122,-0.98698,2023,6,12,15,30,14,93
0.06580,2.94000,-4.46250,0.00000,-0.01208,0.01135,-0.98674,2023,6,12,15,30,14,105
0.06590,3.08000,-4.65500,0.00000,-0.00988,0.01110,-0.98783,2023,6,12,15,30,14,116
0.06600,2.97500,-4.44500,0.00000,-0.01196,0.01074,-0.98674,2023,6,12,15,30,14,127
0.06610,2.92250,-4.56750,0.00000,-0.00878,0.01025,-0.98613,2023,6,12,15,30,14,138
0.06620,2.83500,-4.51500,0.00000,-0.01196,0.01171,-0.98783,2023,6,12,15,30,14,149
0.06630,3.04500,-4.81250,0.00000,-0.01061,0.01013,-0.98600,2023,6,12,15,30,14,160
0.06640,3.02750,-4.51500,0.00000,-0.00854,0.01110,-0.98759,2023,6,12,15,30,14,171
0.06650,3.02750,-4.72500,0.00000,-0.01171,0.01159,-0.99015,2023,6,12,15,30,14,182
0.06660,2.94000,-4.63750,0.00000,-0.00854,0.01000,-0.98393,2023,6,12,15,30,14,193
0.06670,2.92250,-4.62000,0.00000,-0.01013,0.01318,-0.98759,2023,6,12,15,30,14,205
0.06680,2.83500,-4.37500,0.00000,-0.01037,0.01293,-0.98649,2023,6,12,15,30,14,216
0.06690,3.01000,-4.42750,0.00000,-0.01013,0.01171,-0.98759,2023,6,12,15,30,14,227
0.06700,2.92250,-4.69000,0.00000,-0.01220,0.01025,-0.98759,2023,6,12,15,30,14,238
0.06710,2.92250,-4.44500,0.00000,-0.01147,0.01000,-0.98820,2023,6,12,15,30,14,249
0.06720,2.85250,-4.65500,0.00000,-0.00817,0.01098,-0.98893,2023,6,12,15,30,14,260
0.06730,3.13250,-4.67250,0.00000,-0.01159,0.01122,-0.98930,2023,6,12,15,30,14,271
0.06740,2.92250,-4.83000,0.00000,-0.00915,0.01171,-0.98686,2023,6,12,15,30,14,282
0.06750,3.16750,-4.44500,0.00000,-0.01232,0.01208,-0.98844,2023,6,12,15,30,14,293
0.06760,3.02750,-4.62000,0.00000,-0.01074,0.01257,-0.98869,2023,6,12,15,30,14,305
0.06770,2.80000,-4.70750,0.00000,-0.01110,0.01293,-0.99113,2023,6,12,15,30,14,316
0.06780,3.01000,-4.51500,0.00000,-0.01208,0.01147,-0.98686,2023,6,12,15,30,14,327
0.06790,2.88750,-4.67250,0.00000,-0.01086,0.00976,-0.98918,2023,6,12,15,30,14,338
0.06800,2.95750,-4.56750,0.00000,-0.00952,0.01122,-0.99076,2023,6,12,15,30,14,349
0.06810,3.04500,-4.48000,0.00000,-0.00817,0.01281,-0.98661,2023,6,12,15,30,14,360
0.06820,2.94000,-4.44500,0.00000,-0.00988,0.01220,-0.98637,2023,6,12,15,30,14,371
0.06830,2.87000,-4.69000,0.00000,-0.00915,0.01330,-0.98771,2023,6,12,15,30,14,382
0.06840,2.97500,-4.67250,0.00000,-0.01000,0.01037,-0.99125,2023,6,12,15,30,14,393
0.06850,3.13250,-4.30500,0.00000,-0.01110,0.01305,-0.99015,2023,6,12,15,30,14,405
0.06860,2.90500,-4.76000,0.00000,-0.01074,0.00976,-0.98674,2023,6,12,15,30,14,416
0.06870,2.80000,-4.51500,0.00000,-0.01135,0.01147,-0.98966,2023,6,12,15,30,14,427
0.06880,2.94000,-4.67250,0.00000,-0.00964,0.01244,-0.98698,2023,6,12,15,30,14,438
0.06890,3.04500,-4.60250,0.00000,-0.01037,0.01305,-0.98832,2023,6,12,15,30,14,449
0.06900,3.02750,-4.55000,0.00000,-0.00793,0.00891,-0.98515,2023,6,12,15,30,14,460
0.06910,2.87000,-4.48000,0.00000,-0.01122,0.01061,-0.98735,2023,6,12,15,30,14,471
0.06920,3.01000,-4.62000,0.00000,-0.01049,0.01366,-0.98783,2023,6,12,15,30,14,482
0.06930,2.94000,-4.48000,0.00000,-0.01135,0.01037,-0.98954,2023,6,12,15,30,14,493
0.06940,3.02750,-4.65500,0.00000,-0.00976,0.01000,-0.98905,2023,6,12,15,30,14,505
0.06950,3.09750,-4.56750,0.00000,-0.01110,0.01122,-0.98735,2023,6,12,15,30,14,516
0.06960,2.88750,-4.67250,0.00000,-0.01171,0.01501,-0.98869,2023,6,12,15,30,14,527
0.06970,3.04500,-4.55000,0.00000,-0.01293,0.01293,-0.98747,2023,6,12,15,30,14,538
0.06980,3.01000,-4.55000,0.00000,-0.00988,0.01342,-0.98698,2023,6,12,15,30,14,549
0.06990,2.92250,-4.65500,0.00000,-0.01013,0.01257,-0.98661,2023,6,12,15,30,14,560
0.07000,2.90500,-4.58500,0.00000,-0.00915,0.01135,-0.98844,2023,6,12,15,30,14,571
0.07010,2.92250,-4.65500,0.00000,-0.00866,0.01135,-0.98735,2023,6,12,15,30,14,582
0.07020,3.06250,-4.74250,0.00000,-0.01110,0.01269,-0.98613,2023,6,12,15,30,14,593
0.07030,3.08000,-4.46250,0.00000,-0.01037,0.01305,-0.99064,2023,6,12,15,30,14,605
0.07040,2.94000,-4.63750,0.00000,-0.01257,0.01281,-0.98637,2023,6,12,15,30,14,616
0.07050,2.99250,-4.65500,0.00000,-0.01086,0.01061,-0.98869,2023,6,12,15,30,14,627
0.07060,3.09750,-4.51500,0.00000,-0.00952,0.01171,-0.99076,2023,6,12,15,30,14,638
0.07070,3.01000,-4.35750,0.00000,-0.01086,0.01025,-0.98844,2023,6,12,15,30,14,649
0.07080,3.04500,-4.60250,0.00000,-0.01000,0.01196,-0.98954,2023,6,12,15,30,14,660
0.07090,3.04500,-4.56750,0.00000,-0.00732,0.01281,-0.98783,2023,6,12,15,30,14,671
0.07100,2.90500,-4.72500,0.00000,-0.01110,0.00988,-0.98735,2023,6,12,15,30,14,682
0.07110,2.95750,-4.34000,0.00000,-0.01159,0.00952,-0.98844,2023,6,12,15,30,14,693
0.07120,3.04500,-4.72500,0.00000,-0.01000,0.01049,-0.99149,2023,6,12,15,30,14,705
0.07130,2.95750,-4.62000,0.00000,-0.01342,0.00976,-0.98661,2023,6,12,15,30,14,716
0.07140,3.23750,-4.53250,0.00000,-0.01196,0.01208,-0.99015,2023,6,12,15,30,14,727
0.07150,3.04500,-4.55000,0.00000,-0.01098,0.01110,-0.98844,2023,6,12,15,30,14,738
0.07160,2.97500,-4.67250,0.00000,-0.01110,0.01208,-0.98710,2023,6,12,15,30,14,749
0.07170,2.94000,-4.55000,0.00000,-0.01110,0.00976,-0.99040,2023,6,12,15,30,14,760
0.07180,3.02750,-4.53250,0.00000,-0.01013,0.01110,-0.99052,2023,6,12,15,30,14,771
0.07190,2.95750,-4.62000,0.00000,-0.01013,0.01196,-0.99125,2023,6,12,15,30,14,782
0.07200,2.99250,-4.48000,0.00000,-0.01061,0.01086,-0.98771,2023,6,12,15,30,14,793
0.07210,2.97500,-4.90000,0.00000,-0.01049,0.01269,-0.98869,2023,6,12,15,30,14,805
0.07220,2.73000,-4.42750,0.00000,-0.01318,0.01147,-0.98759,2023,6,12,15,30,14,816
0.07230,3.13250,-4.55000,0.00000,-0.01098,0.01452,-0.99040,2023,6,12,15,30,14,827
0.07240,3.06250,-4.65500,0.00000,-0.00891,0.01110,-0.99064,2023,6,12,15,30,14,838
0.07250,2.95750,-4.56750,0.00000,-0.01037,0.01049,-0.98747,2023,6,12,15,30,14,849
0.07260,2.95750,-4.83000,0.00000,-0.01013,0.01147,-0.98674,2023,6,12,15,30,14,860
0.07270,2.97500,-4.53250,0.00000,-0.00805,0.01427,-0.98857,2023,6,12,15,30,14,871
0.07280,2.92250,-4.55000,0.00000,-0.00842,0.01122,-0.98515,2023,6,12,15,30,14,882
0.07290,3.09750,-4.84750,0.00000,-0.00964,0.01074,-0.98930,2023,6,12,15,30,14,893
0.07300,3.04500,-4.62000,0.00000,-0.00952,0.01330,-0.99210,2023,6,12,15,30,14,905
0.07310,2.90500,-4.48000,0.00000,-0.01086,0.01135,-0.98796,2023,6,12,15,30,14,916
0.07320,2.99250,-4.46250,0.00000,-0.01122,0.01074,-0.98735,2023,6,12,15,30,14,927
0.07330,3.01000,-4.56750,0.00000,-0.01171,0.01122,-0.98576,2023,6,12,15,30,14,938
0.07340,3.08000,-4.55000,0.00000,-0.00903,0.01232,-0.98735,2023,6,12,15,30,14,949
0.07350,3.11500,-4.51500,0.00000,-0.00964,0.00939,-0.99015,2023,6,12,15,30,14,960
0.07360,3.04500,-4.46250,0.00000,-0.01183,0.01257,-0.98710,2023,6,12,15,30,15,1
0.07370,2.85250,-4.84750,0.00000,-0.01000,0.01342,-0.98771,2023,6,12,15,30,15,12
0.07380,3.01000,-4.55000,0.00000,-0.01244,0.01244,-0.98930,2023,6,12,15,30,15,23
0.07390,2.99250,-4.28750,0.00000,-0.01196,0.01086,-0.98808,2023,6,12,15,30,15,35
0.07400,2.87000,-4.62000,0.00000,-0.00964,0.01281,-0.98674,2023,6,12,15,30,15,46
0.07410,3.04500,-4.65500,0.00000,-0.01074,0.01281,-0.98771,2023,6,12,15,30,15,57
0.07420,3.04500,-4.51500,0.00000,-0.01000,0.01342,-0.98918,2023,6,12,15,30,15,68
0.07430,2.97500,-4.56750,0.00000,-0.00939,0.01086,-0.98832,2023,6,12,15,30,15,79
0.07440,2.92250,-4.74250,0.00000,-0.01049,0.01305,-0.98808,2023,6,12,15,30,15,90
0.07450,2.81750,-4.56750,0.00000,-0.00988,0.01281,-0.99088,2023,6,12,15,30,15,101
0.07460,2.92250,-4.79500,0.00000,-0.00988,0.00976,-0.98771,2023,6,12,15,30,15,112
0.07470,2.87000,-4.63750,0.00000,-0.01244,0.00915,-0.98808,2023,6,12,15,30,15,123
0.07480,2.87000,-4.35750,0.00000,-0.00976,0.01293,-0.98747,2023,6,12,15,30,15,135
0.07490,2.80000,-4.51500,0.00000,-0.01232,0.01379,-0.99003,2023,6,12,15,30,15,146
0.07500,3.22000,-4.67250,0.00000,-0.01061,0.01061,-0.98966,2023,6,12,15,30,15,157
0.07510,3.02750,-4.69000,0.00000,-0.00988,0.01183,-0.98991,2023,6,12,15,30,15,168
0.07520,2.88750,-4.67250,0.00000,-0.00915,0.01415,-0.98966,2023,6,12,15,30,15,179
0.07530,2.88750,-4.56750,0.00000,-0.01110,0.01244,-0.98661,2023,6,12,15,30,15,190
0.07540,2.97500,-4.44500,0.00000,-0.01110,0.01293,-0.99149,2023,6,12,15,30,15,201
0.07550,3.06250,-4.76000,0.00000,-0.01098,0.01122,-0.98735,2023,6,12,15,30,15,212
0.07560,3.02750,-4.60250,0.00000,-0.01220,0.01183,-0.98954,2023,6,12,15,30,15,223
0.07570,3.08000,-4.63750,0.00000,-0.00939,0.01244,-0.98759,2023,6,12,15,30,15,235
0.07580,2.90500,-4.79500,0.00000,-0.01000,0.01013,-0.98722,2023,6,12,15,30,15,246
0.07590,3.01000,-4.63750,0.00000,-0.01086,0.00964,-0.98661,2023,6,12,15,30,15,257
0.07600,2.76500,-4.77750,0.00000,-0.01086,0.01037,-0.98710,2023,6,12,15,30,15,268
0.07610,3.02750,-4.55000,0.00000,-0.01183,0.01135,-0.98905,2023,6,12,15,30,15,279
0.07620,2.81750,-4.44500,0.00000,-0.00939,0.01025,-0.98930,2023,6,12,15,30,15,290
0.07630,2.74750,-4.42750,0.00000,-0.01281,0.01269,-0.99052,2023,6,12,15,30,15,301
0.07640,3.09750,-4.48000,0.00000,-0.01025,0.01037,-0.98966,2023,6,12,15,30,15,312
0.07650,2.92250,-4.49750,0.00000,-0.00878,0.01110,-0.98893,2023,6,12,15,30,15,323
0.07660,2.97500,-4.55000,0.00000,-0.01037,0.01122,-0.98820,2023,6,12,15,30,15,335
0.07670,2.81750,-4.42750,0.00000,-0.00927,0.01074,-0.98930,2023,6,12,15,30,15,346
0.07680,2.87000,-4.49750,0.00000,-0.00964,0.01183,-0.99015,2023,6,12,15,30,15,357
0.07690,3.16750,-4.72500,0.00000,-0.01171,0.01171,-0.98820,2023,6,12,15,30,15,368
0.07700,2.85250,-4.60250,0.00000,-0.01061,0.01257,-0.98832,2023,6,12,15,30,15,379
0.07710,3.01000,-4.51500,0.00000,-0.00952,0.01196,-0.98637,2023,6,12,15,30,15,390
0.07720,3.06250,-4.72500,0.00000,-0.01013,0.01171,-0.98966,2023,6,12,15,30,15,401
0.07730,3.02750,-4.28750,0.00000,-0.00891,0.01074,-0.98808,2023,6,12,15,30,15,412
0.07740,2.88750,-4.76000,0.00000,-0.01037,0.01293,-0.99027,2023,6,12,15,30,15,423
0.07750,2.95750,-4.42750,0.00000,-0.01074,0.01135,-0.99149,2023,6,12,15,30,15,435
0.07760,2.92250,-4.44500,0.00000,-0.00927,0.01220,-0.99027,2023,6,12,15,30,15,446
0.07770,3.02750,-4.65500,0.00000,-0.01122,0.01318,-0.98966,2023,6,12,15,30,15,457
0.07780,2.99250,-4.74250,0.00000,-0.01013,0.01171,-0.98783,2023,6,12,15,30,15,468
0.07790,3.04500,-4.81250,0.00000,-0.01000,0.01171,-0.98503,2023,6,12,15,30,15,479
0.07800,2.97500,-4.58500,0.00000,-0.01098,0.01159,-0.98771,2023,6,12,15,30,15,490
0.07810,3.04500,-4.72500,0.00000,-0.01110,0.01171,-0.98930,2023,6,12,15,30,15,501
0.07820,2.92250,-4.60250,0.00000,-0.01086,0.01110,-0.98820,2023,6,12,15,30,15,512
0.07830,2.94000,-4.62000,0.00000,-0.00976,0.01147,-0.99015,2023,6,12,15,30,15,523
0.07840,2.99250,-4.56750,0.00000,-0.01037,0.01208,-0.98893,2023,6,12,15,30,15,535
0.07850,2.87000,-4.76000,0.00000,-0.01147,0.01293,-0.99027,2023,6,12,15,30,15,546
0.07860,3.04500,-4.60250,0.00000,-0.01037,0.01025,-0.98808,2023,6,12,15,30,15,557
0.07870,2.97500,-4.63750,0.00000,-0.01159,0.01122,-0.98832,2023,6,12,15,30,15,568
0.07880,3.04500,-4.67250,0.00000,-0.01061,0.01147,-0.98942,2023,6,12,15,30,15,579
0.07890,2.97500,-4.58500,0.00000,-0.00964,0.01281,-0.98869,2023,6,12,15,30,15,590
0.07900,2.99250,-4.39250,0.00000,-0.01098,0.00842,-0.98832,2023,6,12,15,30,15,601
0.07910,2.94000,-4.69000,0.00000,-0.01037,0.01183,-0.98722,2023,6,12,15,30,15,612
0.07920,2.97500,-4.53250,0.00000,-0.00903,0.01244,-0.98930,2023,6,12,15,30,15,623
0.07930,2.76500,-4.65500,0.00000,-0.00939,0.01342,-0.98783,2023,6,12,15,30,15,635
0.07940,3.11500,-4.51500,0.00000,-0.01232,0.01281,-0.98869,2023,6,12,15,30,15,646
0.07950,2.99250,-4.48000,0.00000,-0.01098,0.01257,-0.98930,2023,6,12,15,30,15,657
0.07960,3.01000,-4.53250,0.00000,-0.00939,0.01220,-0.98613,2023,6,12,15,30,15,668
0.07970,3.06250,-4.39250,0.00000,-0.01147,0.01135,-0.99088,2023,6,12,15,30,15,679
0.07980,2.87000,-4.53250,0.00000,-0.00976,0.01220,-0.98942,2023,6,12,15,30,15,690
0.07990,2.80000,-4.53250,0.00000,-0.01000,0.01183,-0.98820,2023,6,12,15,30,15,701
0.08000,2.87000,-4.42750,0.00000,-0.01013,0.01049,-0.98637,2023,6,12,15,30,15,712
0.08010,3.01000,-4.56750,0.00000,-0.01159,0.01208,-0.98735,2023,6,12,15,30,15,723
0.08020,3.01000,-4.65500,0.00000,-0.01074,0.01074,-0.98466,2023,6,12,15,30,15,735
0.08030,3.06250,-4.67250,0.00000,-0.00866,0.01281,-0.99040,2023,6,12,15,30,15,746
0.08040,2.87000,-4.69000,0.00000,-0.01061,0.01427,-0.98881,2023,6,12,15,30,15,757
0.08050,3.08000,-4.63750,0.00000,-0.01061,0.01208,-0.99223,2023,6,12,15,30,15,768
0.08060,3.06250,-4.65500,0.00000,-0.00915,0.01013,-0.98930,2023,6,12,15,30,15,779
0.08070,3.01000,-4.67250,0.00000,-0.01013,0.01037,-0.98686,2023,6,12,15,30,15,790
0.08080,2.76500,-4.55000,0.00000,-0.01293,0.01196,-0.98808,2023,6,12,15,30,15,801
0.08090,2.88750,-4.51500,0.00000,-0.01122,0.01281,-0.98747,2023,6,12,15,30,15,812
0.08100,2.85250,-4.49750,0.00000,-0.01122,0.01183,-0.98600,2023,6,12,15,30,15,823
0.08110,2.90500,-4.44500,0.00000,-0.01037,0.01318,-0.98954,2023,6,12,15,30,15,835
0.08120,3.02750,-4.70750,0.00000,-0.01086,0.01147,-0.98759,2023,6,12,15,30,15,846
0.08130,2.92250,-4.49750,0.00000,-0.01110,0.00952,-0.98722,2023,6,12,15,30,15,857
0.08140,2.99250,-4.77750,0.00000,-0.01122,0.01049,-0.98710,2023,6,12,15,30,15,868
0.08150,3.01000,-4.41000,0.00000,-0.01183,0.01220,-0.99015,2023,6,12,15,30,15,879
0.08160,3.04500,-4.53250,0.00000,-0.01147,0.01135,-0.98710,2023,6,12,15,30,15,890
0.08170,3.01000,-4.37500,0.00000,-0.01025,0.01269,-0.98747,2023,6,12,15,30,15,901
0.08180,2.88750,-4.53250,0.00000,-0.00891,0.01257,-0.98857,2023,6,12,15,30,15,912
0.08190,3.11500,-4.58500,0.00000,-0.01196,0.01244,-0.98771,2023,6,12,15,30,15,923
0.08200,2.88750,-4.39250,0.00000,-0.01074,0.01244,-0.99125,2023,6,12,15,30,15,935
0.08210,3.09750,-4.58500,0.00000,-0.01269,0.01000,-0.98735,2023,6,12,15,30,15,946
0.08220,2.94000,-4.81250,0.00000,-0.01061,0.01281,-0.98820,2023,6,12,15,30,15,957
0.08230,2.95750,-4.62000,0.00000,-0.01183,0.01122,-0.98966,2023,6,12,15,30,15,968
0.08240,3.02750,-4.53250,0.00000,-0.01086,0.01342,-0.98759,2023,6,12,15,30,15,979
0.08250,2.74750,-4.58500,0.00000,-0.00842,0.01147,-0.98893,2023,6,12,15,30,16,0
0.08260,2.90500,-4.60250,0.00000,-0.00976,0.01208,-0.98930,2023,6,12,15,30,16,11
0.08270,2.88750,-4.42750,0.00000,-0.00964,0.01135,-0.99040,2023,6,12,15,30,16,22
0.08280,3.01000,-4.77750,0.00000,-0.00927,0.01037,-0.98820,2023,6,12,15,30,16,33
0.08290,3.06250,-4.55000,0.00000,-0.01000,0.01049,-0.98759,2023,6,12,15,30,16,45
0.08300,2.99250,-4.53250,0.00000,-0.01208,0.01220,-0.98893,2023,6,12,15,30,16,56
0.08310,2.94000,-4.48000,0.00000,-0.01037,0.00988,-0.99149,2023,6,12,15,30,16,67
0.08320,2.92250,-4.60250,0.00000,-0.01147,0.01354,-0.98905,2023,6,12,15,30,16,78
0.08330,2.85250,-4.48000,0.00000,-0.00854,0.01135,-0.98600,2023,6,12,15,30,16,89
0.08340,3.04500,-4.62000,0.00000,-0.01049,0.01257,-0.98710,2023,6,12,15,30,16,100
0.08350,2.95750,-4.58500,0.00000,-0.00939,0.01147,-0.98869,2023,6,12,15,30,16,111
0.08360,2.87000,-4.55000,0.00000,-0.01122,0.00988,-0.98820,2023,6,12,15,30,16,122
0.08370,2.87000,-4.25250,0.00000,-0.01025,0.01000,-0.98600,2023,6,12,15,30,16,133
0.08380,3.04500,-4.67250,0.00000,-0.00891,0.01220,-0.98564,2023,6,12,15,30,16,145
0.08390,3.15000,-4.60250,0.00000,-0.00769,0.00903,-0.98979,2023,6,12,15,30,16,156
0.08400,3.13250,-4.67250,0.00000,-0.00939,0.00915,-0.98686,2023,6,12,15,30,16,167
0.08410,2.95750,-4.72500,0.00000,-0.01061,0.01049,-0.98954,2023,6,12,15,30,16,178
0.08420,3.04500,-4.79500,0.00000,-0.00939,0.00939,-0.98808,2023,6,12,15,30,16,189
0.08430,2.88750,-4.63750,0.00000,-0.01037,0.01196,-0.98844,2023,6,12,15,30,16,200
0.08440,2.92250,-4.48000,0.00000,-0.00976,0.01257,-0.98771,2023,6,12,15,30,16,211
0.08450,3.16750,-4.53250,0.00000,-0.01232,0.01257,-0.99040,2023,6,12,15,30,16,222
0.08460,3.01000,-4.51500,0.00000,-0.00854,0.01183,-0.98747,2023,6,12,15,30,16,233
0.08470,2.90500,-4.70750,0.00000,-0.01025,0.01086,-0.99003,2023,6,12,15,30,16,245
0.08480,3.11500,-4.62000,0.00000,-0.00964,0.01244,-0.98844,2023,6,12,15,30,16,256
0.08490,3.02750,-4.27000,0.00000,-0.01232,0.01220,-0.98966,2023,6,12,15,30,16,267
0.08500,2.90500,-4.62000,0.00000,-0.01135,0.01037,-0.98832,2023,6,12,15,30,16,278
0.08510,2.92250,-4.67250,0.00000,-0.00952,0.01135,-0.98832,2023,6,12,15,30,16,289
0.08520,2.90500,-4.55000,0.00000,-0.01037,0.01318,-0.98905,2023,6,12,15,30,16,300
0.08530,2.99250,-4.49750,0.00000,-0.01171,0.00976,-0.98735,2023,6,12,15,30,16,311
0.08540,2.99250,-4.53250,0.00000,-0.01037,0.01391,-0.98613,2023,6,12,15,30,16,322
0.08550,3.08000,-4.56750,0.00000,-0.00915,0.01183,-0.98661,2023,6,12,15,30,16,333
0.08560,2.92250,-4.56750,0.00000,-0.01135,0.01183,-0.98771,2023,6,12,15,30,16,345
0.08570,2.90500,-4.51500,0.00000,-0.00964,0.01196,-0.98796,2023,6,12,15,30,16,356
0.08580,3.01000,-4.70750,0.00000,-0.01098,0.01269,-0.98808,2023,6,12,15,30,16,367
0.08590,2.99250,-4.70750,0.00000,-0.01013,0.01147,-0.98869,2023,6,12,15,30,16,378
0.08600,3.01000,-4.55000,0.00000,-0.01025,0.01147,-0.98796,2023,6,12,15,30,16,389
0.08610,2.81750,-4.55000,0.00000,-0.01147,0.01293,-0.98783,2023,6,12,15,30,16,400
0.08620,2.92250,-4.60250,0.00000,-0.00927,0.01135,-0.98539,2023,6,12,15,30,16,411
0.08630,3.09750,-4.62000,0.00000,-0.00939,0.01135,-0.98759,2023,6,12,15,30,16,422
0.08640,3.09750,-4.62000,0.00000,-0.00939,0.01110,-0.98820,2023,6,12,15,30,16,433
0.08650,2.94000,-4.65500,0.00000,-0.01183,0.01208,-0.98710,2023,6,12,15,30,16,445
0.08660,3.34250,-4.55000,0.00000,-0.01074,0.01110,-0.98869,2023,6,12,15,30,16,456
0.08670,3.09750,-4.76000,0.00000,-0.00927,0.01013,-0.98613,2023,6,12,15,30,16,467
0.08680,2.99250,-4.53250,0.00000,-0.00976,0.01220,-0.98844,2023,6,12,15,30,16,478
0.08690,3.04500,-4.74250,0.00000,-0.01037,0.01257,-0.99003,2023,6,12,15,30,16,489
0.08700,2.87000,-4.49750,0.00000,-0.00903,0.01147,-0.98649,2023,6,12,15,30,16,500
0.08710,2.87000,-4.51500,0.00000,-0.01086,0.01086,-0.98637,2023,6,12,15,30,16,511
0.08720,2.81750,-4.60250,0.00000,-0.01013,0.01183,-0.98930,2023,6,12,15,30,16,522
0.08730,3.04500,-4.48000,0.00000,-0.01061,0.01220,-0.98735,2023,6,12,15,30,16,533
0.08740,2.78250,-4.44500,0.00000,-0.01110,0.01037,-0.98625,2023,6,12,15,30,16,545
0.08750,2.87000,-4.69000,0.00000,-0.01086,0.01147,-0.98722,2023,6,12,15,30,16,556
0.08760,2.95750,-4.58500,0.00000,-0.00817,0.01135,-0.98722,2023,6,12,15,30,16,567
0.08770,2.92250,-4.35750,0.00000,-0.01037,0.01257,-0.98857,2023,6,12,15,30,16,578
0.08780,3.15000,-4.67250,0.00000,-0.01049,0.01037,-0.98942,2023,6,12,15,30,16,589
0.08790,2.80000,-4.48000,0.00000,-0.01171,0.00976,-0.98771,2023,6,12,15,30,16,600
0.08800,2.90500,-4.56750,0.00000,-0.00915,0.01159,-0.98637,2023,6,12,15,30,16,611
0.08810,3.13250,-4.44500,0.00000,-0.01037,0.01159,-0.98759,2023,6,12,15,30,16,622
0.08820,3.02750,-4.65500,0.00000,-0.00756,0.01232,-0.98698,2023,6,12,15,30,16,633
0.08830,3.04500,-4.35750,0.00000,-0.00781,0.01086,-0.98808,2023,6,12,15,30,16,645
0.08840,2.80000,-4.58500,0.00000,-0.01013,0.01074,-0.98991,2023,6,12,15,30,16,656
0.08850,3.02750,-4.55000,0.00000,-0.01013,0.01000,-0.98588,2023,6,12,15,30,16,667
0.08860,2.83500,-4.63750,0.00000,-0.01061,0.01330,-0.98747,2023,6,12,15,30,16,678
0.08870,2.92250,-4.79500,0.00000,-0.01086,0.01037,-0.99052,2023,6,12,15,30,16,689
0.08880,2.87000,-4.55000,0.00000,-0.01061,0.01196,-0.98954,2023,6,12,15,30,16,700
0.08890,2.81750,-4.13000,0.00000,-0.01159,0.01074,-0.98844,2023,6,12,15,30,16,711
0.08900,2.74750,-4.27000,0.00000,-0.01037,0.01147,-0.98759,2023,6,12,15,30,16,722
0.08910,3.15000,-4.63750,0.00000,-0.01086,0.01135,-0.98918,2023,6,12,15,30,16,733
0.08920,2.88750,-4.55000,0.00000,-0.01098,0.01208,-0.98698,2023,6,12,15,30,16,745
0.08930,2.94000,-4.39250,0.00000,-0.01098,0.01171,-0.98930,2023,6,12,15,30,16,756
0.08940,2.97500,-4.67250,0.00000,-0.00866,0.01208,-0.98613,2023,6,12,15,30,16,767
0.08950,2.95750,-4.55000,0.00000,-0.01220,0.00781,-0.98710,2023,6,12,15,30,16,778
0.08960,2.94000,-4.42750,0.00000,-0.01037,0.01135,-0.98820,2023,6,12,15,30,16,789
0.08970,3.15000,-4.60250,0.00000,-0.01122,0.01013,-0.98820,2023,6,12,15,30,16,800
0.08980,2.66000,-4.56750,0.00000,-0.01110,0.01318,-0.98966,2023,6,12,15,30,16,811
0.08990,3.09750,-4.48000,0.00000,-0.00988,0.01171,-0.98698,2023,6,12,15,30,16,822
0.09000,3.01000,-4.65500,0.00000,-0.01354,0.01037,-0.98637,2023,6,12,15,30,16,833
0.09010,3.11500,-4.63750,0.00000,-0.01049,0.01330,-0.99040,2023,6,12,15,30,16,845
0.09020,2.88750,-4.51500,0.00000,-0.00891,0.01257,-0.98576,2023,6,12,15,30,16,856
0.09030,3.16750,-4.79500,0.00000,-0.00964,0.01342,-0.99149,2023,6,12,15,30,16,867
0.09040,2.97500,-4.32250,0.00000,-0.01000,0.01257,-0.98991,2023,6,12,15,30,16,878
0.09050,2.76500,-4.56750,0.00000,-0.00878,0.01269,-0.98832,2023,6,12,15,30,16,889
0.09060,3.18500,-4.62000,0.00000,-0.01122,0.01122,-0.98722,2023,6,12,15,30,16,900
0.09070,3.04500,-4.62000,0.00000,-0.00964,0.01000,-0.98905,2023,6,12,15,30,16,911
0.09080,2.92250,-4.60250,0.00000,-0.00952,0.01318,-0.98722,2023,6,12,15,30,16,922
0.09090,2.90500,-4.44500,0.00000,-0.01025,0.01220,-0.99088,2023,6,12,15,30,16,933
0.09100,2.92250,-4.49750,0.00000,-0.01025,0.01183,-0.98735,2023,6,12,15,30,16,945
0.09110,2.87000,-4.49750,0.00000,-0.00903,0.01220,-0.98722,2023,6,12,15,30,16,956
0.09120,3.08000,-4.67250,0.00000,-0.01098,0.01196,-0.98820,2023,6,12,15,30,16,967
0.09130,3.01000,-4.58500,0.00000,-0.01098,0.01147,-0.98844,2023,6,12,15,30,17,8
0.09140,3.06250,-4.63750,0.00000,-0.01098,0.01135,-0.98783,2023,6,12,15,30,17,19
0.09150,2.95750,-4.67250,0.00000,-0.01086,0.01147,-0.98417,2023,6,12,15,30,17,30
0.09160,3.16750,-4.46250,0.00000,-0.00793,0.01379,-0.98527,2023,6,12,15,30,17,41
0.09170,2.95750,-4.56750,0.00000,-0.01159,0.01281,-0.98735,2023,6,12,15,30,17,52
0.09180,2.92250,-4.53250,0.00000,-0.01110,0.01220,-0.98747,2023,6,12,15,30,17,63
0.09190,2.81750,-4.53250,0.00000,-0.00927,0.01171,-0.98698,2023,6,12,15,30,17,75
0.09200,2.94000,-4.39250,0.00000,-0.01061,0.01147,-0.98686,2023,6,12,15,30,17,86
0.09210,2.97500,-4.63750,0.00000,-0.01025,0.01037,-0.98478,2023,6,12,15,30,17,97
0.09220,2.78250,-4.51500,0.00000,-0.01171,0.01183,-0.99064,2023,6,12,15,30,17,108
0.09230,2.94000,-4.49750,0.00000,-0.01049,0.01208,-0.98735,2023,6,12,15,30,17,119
0.09240,3.11500,-4.60250,0.00000,-0.00939,0.00988,-0.98649,2023,6,12,15,30,17,130
0.09250,2.99250,-4.51500,0.00000,-0.00793,0.01000,-0.98295,2023,6,12,15,30,17,141
0.09260,2.95750,-4.63750,0.00000,-0.01318,0.00964,-0.98637,2023,6,12,15,30,17,152
0.09270,2.92250,-4.63750,0.00000,-0.01049,0.01183,-0.98820,2023,6,12,15,30,17,163
0.09280,2.87000,-4.46250,0.00000,-0.01049,0.01135,-0.98600,2023,6,12,15,30,17,175
0.09290,3.15000,-4.51500,0.00000,-0.00878,0.01135,-0.98979,2023,6,12,15,30,17,186
0.09300,2.94000,-4.51500,0.00000,-0.01000,0.01013,-0.98637,2023,6,12,15,30,17,197
0.09310,2.97500,-4.67250,0.00000,-0.01025,0.01318,-0.98771,2023,6,12,15,30,17,208
0.09320,3.02750,-4.72500,0.00000,-0.01110,0.01220,-0.98808,2023,6,12,15,30,17,219
0.09330,2.92250,-4.44500,0.00000,-0.00878,0.01037,-0.98649,2023,6,12,15,30,17,230
0.09340,2.95750,-4.67250,0.00000,-0.00964,0.01013,-0.98674,2023,6,12,15,30,17,241
0.09350,2.85250,-4.46250,0.00000,-0.01074,0.01025,-0.98832,2023,6,12,15,30,17,252
0.09360,3.01000,-4.74250,0.00000,-0.00988,0.01074,-0.98857,2023,6,12,15,30,17,263
0.09370,3.09750,-4.69000,0.00000,-0.01037,0.01110,-0.98698,2023,6,12,15,30,17,275
0.09380,3.02750,-4.55000,0.00000,-0.01122,0.01281,-0.98735,2023,6,12,15,30,17,286
0.09390,2.94000,-4.53250,0.00000,-0.00830,0.01159,-0.98759,2023,6,12,15,30,17,297
0.09400,3.04500,-4.62000,0.00000,-0.01122,0.01293,-0.98832,2023,6,12,15,30,17,308
0.09410,3.01000,-4.49750,0.00000,-0.01037,0.01244,-0.98844,2023,6,12,15,30,17,319
0.09420,3.04500,-4.62000,0.00000,-0.01000,0.01281,-0.98820,2023,6,12,15,30,17,330
0.09430,2.85250,-4.41000,0.00000,-0.01049,0.01220,-0.98783,2023,6,12,15,30,17,341
0.09440,3.08000,-4.55000,0.00000,-0.01074,0.01257,-0.98674,2023,6,12,15,30,17,352
0.09450,2.97500,-4.53250,0.00000,-0.01220,0.01147,-0.98686,2023,6,12,15,30,17,363
0.09460,2.80000,-4.48000,0.00000,-0.01025,0.00939,-0.99040,2023,6,12,15,30,17,375
0.09470,2.92250,-4.49750,0.00000,-0.01037,0.01269,-0.98869,2023,6,12,15,30,17,386
0.09480,2.97500,-4.76000,0.00000,-0.00866,0.01232,-0.98710,2023,6,12,15,30,17,397
0.09490,2.95750,-4.79500,0.00000,-0.01025,0.01037,-0.98698,2023,6,12,15,30,17,408
0.09500,2.85250,-4.49750,0.00000,-0.01037,0.01098,-0.99064,2023,6,12,15,30,17,419
0.09510,2.97500,-4.63750,0.00000,-0.00988,0.01086,-0.99027,2023,6,12,15,30,17,430
0.09520,2.95750,-4.58500,0.00000,-0.01086,0.01013,-0.98747,2023,6,12,15,30,17,441
0.09530,2.85250,-4.58500,0.00000,-0.00915,0.01122,-0.98832,2023,6,12,15,30,17,452
0.09540,2.97500,-4.72500,0.00000,-0.01159,0.01086,-0.98942,2023,6,12,15,30,17,463
0.09550,2.88750,-4.74250,0.00000,-0.01037,0.00964,-0.98722,2023,6,12,15,30,17,475
0.09560,3.06250,-4.58500,0.00000,-0.01074,0.01171,-0.98686,2023,6,12,15,30,17,486
0.09570,2.88750,-4.56750,0.00000,-0.01049,0.01159,-0.98735,2023,6,12,15,30,17,497
0.09580,2.85250,-4.49750,0.00000,-0.01074,0.00976,-0.98918,2023,6,12,15,30,17,508
0.09590,2.90500,-4.91750,0.00000,-0.00695,0.01135,-0.98783,2023,6,12,15,30,17,519
0.09600,3.11500,-4.72500,0.00000,-0.01183,0.00988,-0.98844,2023,6,12,15,30,17,530
0.09610,3.04500,-4.55000,0.00000,-0.00891,0.01086,-0.98808,2023,6,12,15,30,17,541
0.09620,2.99250,-4.62000,0.00000,-0.01171,0.00964,-0.98491,2023,6,12,15,30,17,552
0.09630,3.06250,-4.51500,0.00000,-0.00927,0.01135,-0.98771,2023,6,12,15,30,17,563
0.09640,3.18500,-4.83000,0.00000,-0.00964,0.01159,-0.98979,2023,6,12,15,30,17,575
0.09650,3.09750,-4.42750,0.00000,-0.01013,0.01122,-0.98930,2023,6,12,15,30,17,586
0.09660,2.94000,-4.58500,0.00000,-0.00854,0.01232,-0.98796,2023,6,12,15,30,17,597
0.09670,2.97500,-4.46250,0.00000,-0.01086,0.01415,-0.99003,2023,6,12,15,30,17,608
0.09680,2.95750,-4.53250,0.00000,-0.01037,0.01098,-0.98783,2023,6,12,15,30,17,619
0.09690,3.08000,-4.69000,0.00000,-0.00927,0.01305,-0.98991,2023,6,12,15,30,17,630
0.09700,3.11500,-4.49750,0.00000,-0.01196,0.01171,-0.99088,2023,6,12,15,30,17,641
0.09710,2.92250,-4.58500,0.00000,-0.01086,0.01208,-0.98759,2023,6,12,15,30,17,652
0.09720,3.11500,-4.63750,0.00000,-0.01135,0.01171,-0.98710,2023,6,12,15,30,17,663
0.09730,2.80000,-4.69000,0.00000,-0.00939,0.00964,-0.98722,2023,6,12,15,30,17,675
0.09740,3.09750,-4.76000,0.00000,-0.00781,0.00976,-0.98710,2023,6,12,15,30,17,686
0.09750,3.04500,-4.72500,0.00000,-0.00915,0.01122,-0.98918,2023,6,12,15,30,17,697
0.09760,2.94000,-4.60250,0.00000,-0.01269,0.01110,-0.98747,2023,6,12,15,30,17,708
0.09770,3.01000,-4.63750,0.00000,-0.01049,0.01122,-0.98820,2023,6,12,15,30,17,719
0.09780,3.04500,-4.51500,0.00000,-0.00793,0.01110,-0.98552,2023,6,12,15,30,17,730
0.09790,2.85250,-4.56750,0.00000,-0.01196,0.01159,-0.98820,2023,6,12,15,30,17,741
0.09800,2.94000,-4.62000,0.00000,-0.01147,0.01171,-0.98722,2023,6,12,15,30,17,752
0.09810,2.90500,-4.72500,0.00000,-0.00866,0.01269,-0.98698,2023,6,12,15,30,17,763
0.09820,2.80000,-4.37500,0.00000,-0.01159,0.01220,-0.98942,2023,6,12,15,30,17,775
0.09830,3.02750,-4.55000,0.00000,-0.01049,0.01220,-0.98808,2023,6,12,15,30,17,786
0.09840,3.18500,-4.70750,0.00000,-0.00915,0.01049,-0.99003,2023,6,12,15,30,17,797
0.09850,2.95750,-4.42750,0.00000,-0.00854,0.01049,-0.98735,2023,6,12,15,30,17,808
0.09860,3.13250,-4.56750,0.00000,-0.00952,0.01366,-0.98832,2023,6,12,15,30,17,819
0.09870,3.08000,-4.53250,0.00000,-0.00817,0.01379,-0.98979,2023,6,12,15,30,17,830
0.09880,3.02750,-4.41000,0.00000,-0.01269,0.00988,-0.98747,2023,6,12,15,30,17,841
0.09890,2.92250,-4.72500,0.00000,-0.00891,0.01000,-0.98491,2023,6,12,15,30,17,852
0.09900,2.88750,-4.67250,0.00000,-0.01159,0.01122,-0.98747,2023,6,12,15,30,17,863
0.09910,2.81750,-4.35750,0.00000,-0.01074,0.01061,-0.98600,2023,6,12,15,30,17,875
0.09920,2.97500,-4.69000,0.00000,-0.01086,0.01086,-0.98954,2023,6,12,15,30,17,886
0.09930,2.76500,-4.55000,0.00000,-0.00866,0.01318,-0.99027,2023,6,12,15,30,17,897
0.09940,3.06250,-4.62000,0.00000,-0.01061,0.00976,-0.98661,2023,6,12,15,30,17,908
0.09950,3.01000,-4.39250,0.00000,-0.01025,0.01061,-0.98661,2023,6,12,15,30,17,919
0.09960,2.85250,-4.42750,0.00000,-0.01183,0.01086,-0.98820,2023,6,12,15,30,17,930
0.09970,3.09750,-4.62000,0.00000,-0.01122,0.01183,-0.98796,2023,6,12,15,30,17,941
0.09980,2.95750,-4.86500,0.00000,-0.01013,0.01061,-0.98930,2023,6,12,15,30,17,952
0.09990,2.94000,-4.81250,0.00000,-0.00964,0.01305,-0.98954,2023,6,12,15,30,17,963
0.10000,2.80000,-4.60250,0.00000,-0.01000,0.01159,-0.98576,2023,6,12,15,30,17,975
0.10010,2.95750,-4.74250,0.00000,-0.00915,0.01025,-0.98613,2023,6,12,15,30,17,986
0.10020,2.95750,-4.76000,0.00000,-0.00842,0.01086,-0.99027,2023,6,12,15,30,18,7
0.10030,2.55500,-4.60250,0.00000,-0.01110,0.01159,-0.98820,2023,6,12,15,30,18,18
0.10040,2.88750,-4.42750,0.00000,-0.01159,0.01305,-0.98844,2023,6,12,15,30,18,29
0.10050,3.18500,-4.72500,0.00000,-0.01037,0.01098,-0.98686,2023,6,12,15,30,18,40
0.10060,3.09750,-4.70750,0.00000,-0.01171,0.01147,-0.98808,2023,6,12,15,30,18,51
0.10070,3.06250,-4.72500,0.00000,-0.01013,0.01086,-0.99101,2023,6,12,15,30,18,62
0.10080,2.95750,-4.72500,0.00000,-0.01000,0.01208,-0.99137,2023,6,12,15,30,18,73
0.10090,3.16750,-4.72500,0.00000,-0.00976,0.01196,-0.98893,2023,6,12,15,30,18,85
0.10100,3.01000,-4.55000,0.00000,-0.00927,0.01110,-0.98783,2023,6,12,15,30,18,96
0.10110,3.02750,-4.63750,0.00000,-0.00964,0.01244,-0.98759,2023,6,12,15,30,18,107
0.10120,2.90500,-4.53250,0.00000,-0.01159,0.01025,-0.98649,2023,6,12,15,30,18,118
0.10130,2.88750,-4.55000,0.00000,-0.00927,0.00988,-0.98710,2023,6,12,15,30,18,129
0.10140,2.99250,-4.76000,0.00000,-0.01135,0.01208,-0.98796,2023,6,12,15,30,18,140
0.10150,2.94000,-4.63750,0.00000,-0.01049,0.01196,-0.98771,2023,6,12,15,30,18,151
0.10160,2.81750,-4.51500,0.00000,-0.01049,0.01232,-0.98771,2023,6,12,15,30,18,162
0.10170,2.80000,-4.42750,0.00000,-0.00988,0.01098,-0.98881,2023,6,12,15,30,18,173
0.10180,3.13250,-4.97000,0.00000,-0.01110,0.01159,-0.98747,2023,6,12,15,30,18,185
0.10190,2.97500,-4.53250,0.00000,-0.01037,0.01269,-0.98991,2023,6,12,15,30,18,196
0.10200,2.92250,-4.62000,0.00000,-0.00866,0.01135,-0.98710,2023,6,12,15,30,18,207
0.10210,3.11500,-4.74250,0.00000,-0.00866,0.01135,-0.99015,2023,6,12,15,30,18,218
0.10220,3.27250,-4.67250,0.00000,-0.00830,0.01220,-0.98552,2023,6,12,15,30,18,229
0.10230,2.88750,-4.63750,0.00000,-0.01074,0.01122,-0.98844,2023,6,12,15,30,18,240
0.10240,3.01000,-4.49750,0.00000,-0.01013,0.01159,-0.98966,2023,6,12,15,30,18,251
0.10250,2.95750,-4.51500,0.00000,-0.01110,0.01244,-0.98857,2023,6,12,15,30,18,262
0.10260,3.11500,-4.51500,0.00000,-0.01159,0.01037,-0.98722,2023,6,12,15,30,18,273
0.10270,2.92250,-4.67250,0.00000,-0.00976,0.01196,-0.98942,2023,6,12,15,30,18,285
0.10280,2.90500,-4.44500,0.00000,-0.01098,0.01220,-0.98710,2023,6,12,15,30,18,296
0.10290,3.11500,-4.56750,0.00000,-0.01159,0.00964,-0.98661,2023,6,12,15,30,18,307
0.10300,3.16750,-4.77750,0.00000,-0.01159,0.01000,-0.98686,2023,6,12,15,30,18,318
0.10310,2.97500,-4.39250,0.00000,-0.00988,0.01281,-0.98796,2023,6,12,15,30,18,329
0.10320,2.88750,-4.41000,0.00000,-0.01013,0.01159,-0.98979,2023,6,12,15,30,18,340
0.10330,2.99250,-4.74250,0.00000,-0.01159,0.01220,-0.99247,2023,6,12,15,30,18,351
0.10340,2.97500,-4.51500,0.00000,-0.01110,0.01269,-0.98735,2023,6,12,15,30,18,362
0.10350,2.88750,-4.58500,0.00000,-0.01000,0.01147,-0.98783,2023,6,12,15,30,18,373
0.10360,3.01000,-4.56750,0.00000,-0.01171,0.01281,-0.98844,2023,6,12,15,30,18,385
0.10370,2.85250,-4.44500,0.00000,-0.01025,0.01281,-0.98454,2023,6,12,15,30,18,396
0.10380,3.06250,-4.74250,0.00000,-0.00952,0.01122,-0.98722,2023,6,12,15,30,18,407
0.10390,2.97500,-4.60250,0.00000,-0.01049,0.01232,-0.98820,2023,6,12,15,30,18,418
0.10400,3.06250,-4.63750,0.00000,-0.00878,0.01013,-0.98979,2023,6,12,15,30,18,429
0.10410,2.78250,-4.58500,0.00000,-0.01147,0.01183,-0.98857,2023,6,12,15,30,18,440
0.10420,3.08000,-4.56750,0.00000,-0.00988,0.01318,-0.98796,2023,6,12,15,30,18,451
0.10430,2.95750,-4.70750,0.00000,-0.01025,0.01147,-0.98796,2023,6,12,15,30,18,462
0.10440,2.95750,-4.48000,0.00000,-0.00952,0.01110,-0.98954,2023,6,12,15,30,18,473
0.10450,3.08000,-4.62000,0.00000,-0.00769,0.01232,-0.98796,2023,6,12,15,30,18,485
0.10460,3.25500,-4.58500,0.00000,-0.01122,0.01110,-0.99137,2023,6,12,15,30,18,496
0.10470,2.76500,-4.35750,0.00000,-0.01147,0.01122,-0.99052,2023,6,12,15,30,18,507
0.10480,2.99250,-4.70750,0.00000,-0.00915,0.01330,-0.98832,2023,6,12,15,30,18,518
0.10490,2.99250,-4.63750,0.00000,-0.01049,0.01135,-0.98698,2023,6,12,15,30,18,529
0.10500,2.97500,-4.49750,0.00000,-0.00988,0.01074,-0.98735,2023,6,12,15,30,18,540
0.10510,3.01000,-4.65500,0.00000,-0.01171,0.01049,-0.98759,2023,6,12,15,30,18,551
0.10520,3.04500,-4.81250,0.00000,-0.00927,0.01171,-0.98478,2023,6,12,15,30,18,562
0.10530,2.95750,-4.48000,0.00000,-0.01135,0.01037,-0.98808,2023,6,12,15,30,18,573
0.10540,2.88750,-4.49750,0.00000,-0.01049,0.01025,-0.98783,2023,6,12,15,30,18,585
0.10550,2.95750,-4.76000,0.00000,-0.01037,0.01037,-0.98710,2023,6,12,15,30,18,596
0.10560,2.92250,-4.53250,0.00000,-0.00927,0.01183,-0.98478,2023,6,12,15,30,18,607
0.10570,2.90500,-4.65500,0.00000,-0.00988,0.01086,-0.98649,2023,6,12,15,30,18,618
0.10580,3.18500,-4.46250,0.00000,-0.01196,0.01281,-0.98747,2023,6,12,15,30,18,629
0.10590,2.94000,-4.67250,0.00000,-0.01025,0.01147,-0.98796,2023,6,12,15,30,18,640
0.10600,3.02750,-4.48000,0.00000,-0.00964,0.01110,-0.98808,2023,6,12,15,30,18,651
0.10610,2.99250,-4.83000,0.00000,-0.01098,0.01171,-0.98796,2023,6,12,15,30,18,662
0.10620,3.02750,-4.72500,0.00000,-0.01037,0.01330,-0.98759,2023,6,12,15,30,18,673
0.10630,2.87000,-4.55000,0.00000,-0.01147,0.01196,-0.98820,2023,6,12,15,30,18,685
0.10640,3.11500,-4.65500,0.00000,-0.00854,0.01135,-0.98661,2023,6,12,15,30,18,696
0.10650,2.99250,-4.63750,0.00000,-0.00976,0.01269,-0.98686,2023,6,12,15,30,18,707
0.10660,2.88750,-4.48000,0.00000,-0.01098,0.01147,-0.98637,2023,6,12,15,30,18,718
0.10670,2.97500,-4.53250,0.00000,-0.01049,0.01000,-0.98771,2023,6,12,15,30,18,729
0.10680,3.08000,-4.46250,0.00000,-0.01244,0.01305,-0.98783,2023,6,12,15,30,18,740
0.10690,3.01000,-4.63750,0.00000,-0.01037,0.01061,-0.98698,2023,6,12,15,30,18,751
0.10700,3.06250,-4.67250,0.00000,-0.01098,0.01305,-0.98881,2023,6,12,15,30,18,762
0.10710,2.97500,-4.46250,0.00000,-0.01000,0.01183,-0.98832,2023,6,12,15,30,18,773
0.10720,2.99250,-4.51500,0.00000,-0.01135,0.01086,-0.98759,2023,6,12,15,30,18,785
0.10730,2.99250,-4.46250,0.00000,-0.01171,0.01122,-0.98783,2023,6,12,15,30,18,796
0.10740,3.01000,-4.74250,0.00000,-0.00952,0.01135,-0.98820,2023,6,12,15,30,18,807
0.10750,3.13250,-4.83000,0.00000,-0.00927,0.01244,-0.98759,2023,6,12,15,30,18,818
0.10760,3.02750,-4.62000,0.00000,-0.00988,0.01074,-0.98796,2023,6,12,15,30,18,829
0.10770,3.02750,-4.69000,0.00000,-0.00976,0.01208,-0.98747,2023,6,12,15,30,18,840
0.10780,2.97500,-4.46250,0.00000,-0.01110,0.01159,-0.98759,2023,6,12,15,30,18,851
0.10790,3.01000,-4.41000,0.00000,-0.01037,0.01171,-0.98735,2023,6,12,15,30,18,862
0.10800,2.99250,-4.60250,0.00000,-0.00769,0.01061,-0.98564,2023,6,12,15,30,18,873
0.10810,2.88750,-4.49750,0.00000,-0.00976,0.01342,-0.98515,2023,6,12,15,30,18,885
0.10820,2.90500,-4.70750,0.00000,-0.01318,0.01354,-0.99088,2023,6,12,15,30,18,896
0.10830,3.08000,-4.62000,0.00000,-0.01110,0.01086,-0.98625,2023,6,12,15,30,18,907
0.10840,3.02750,-4.55000,0.00000,-0.00952,0.01110,-0.98869,2023,6,12,15,30,18,918
0.10850,2.90500,-4.63750,0.00000,-0.01000,0.01159,-0.98918,2023,6,12,15,30,18,929
0.10860,2.99250,-4.67250,0.00000,-0.00964,0.01183,-0.98832,2023,6,12,15,30,18,940
0.10870,2.99250,-4.51500,0.00000,-0.01183,0.01244,-0.98820,2023,6,12,15,30,18,951
0.10880,3.09750,-4.65500,0.00000,-0.00939,0.01110,-0.98466,2023,6,12,15,30,18,962
0.10890,2.95750,-4.51500,0.00000,-0.01074,0.01183,-0.98600,2023,6,12,15,30,18,973
0.10900,2.90500,-4.44500,0.00000,-0.01000,0.01037,-0.98491,2023,6,12,15,30,19,5
0.10910,2.90500,-4.84750,0.00000,-0.01025,0.01135,-0.98832,2023,6,12,15,30,19,16
0.10920,3.15000,-4.77750,0.00000,-0.01135,0.01147,-0.98857,2023,6,12,15,30,19,27
0.10930,3.09750,-4.56750,0.00000,-0.00891,0.01293,-0.98637,2023,6,12,15,30,19,38
0.10940,2.97500,-4.62000,0.00000,-0.01196,0.01196,-0.98576,2023,6,12,15,30,19,49
0.10950,2.92250,-4.63750,0.00000,-0.01208,0.01232,-0.98991,2023,6,12,15,30,19,60
0.10960,3.02750,-4.56750,0.00000,-0.00903,0.01135,-0.98759,2023,6,12,15,30,19,71
0.10970,2.92250,-4.55000,0.00000,-0.01135,0.01183,-0.98564,2023,6,12,15,30,19,82
0.10980,2.97500,-4.63750,0.00000,-0.01049,0.01525,-0.98539,2023,6,12,15,30,19,93
0.10990,2.97500,-4.62000,0.00000,-0.00964,0.01244,-0.98661,2023,6,12,15,30,19,105
0.11000,2.94000,-4.74250,0.00000,-0.01049,0.01098,-0.98576,2023,6,12,15,30,19,116
0.11010,3.18500,-4.48000,0.00000,-0.00915,0.01269,-0.99064,2023,6,12,15,30,19,127
0.11020,2.97500,-4.74250,0.00000,-0.00915,0.00939,-0.98796,2023,6,12,15,30,19,138
0.11030,2.90500,-4.60250,0.00000,-0.01025,0.01049,-0.98808,2023,6,12,15,30,19,149
0.11040,2.71250,-4.41000,0.00000,-0.01049,0.01281,-0.98783,2023,6,12,15,30,19,160
0.11050,2.92250,-4.60250,0.00000,-0.00927,0.01122,-0.98942,2023,6,12,15,30,19,171
0.11060,3.06250,-4.58500,0.00000,-0.01110,0.01293,-0.99162,2023,6,12,15,30,19,182
0.11070,2.95750,-4.62000,0.00000,-0.01025,0.01061,-0.98771,2023,6,12,15,30,19,193
0.11080,2.81750,-4.62000,0.00000,-0.00866,0.01147,-0.98735,2023,6,12,15,30,19,205
0.11090,2.87000,-4.34000,0.00000,-0.01074,0.01281,-0.98759,2023,6,12,15,30,19,216
0.11100,2.85250,-4.60250,0.00000,-0.01013,0.01305,-0.99064,2023,6,12,15,30,19,227
0.11110,3.02750,-4.63750,0.00000,-0.00805,0.01220,-0.98930,2023,6,12,15,30,19,238
0.11120,3.02750,-4.55000,0.00000,-0.00817,0.01232,-0.99052,2023,6,12,15,30,19,249
0.11130,3.06250,-4.83000,0.00000,-0.01037,0.01171,-0.98783,2023,6,12,15,30,19,260
0.11140,2.78250,-4.55000,0.00000,-0.01037,0.01318,-0.98966,2023,6,12,15,30,19,271
0.11150,2.95750,-4.63750,0.00000,-0.01135,0.01110,-0.98893,2023,6,12,15,30,19,282
0.11160,3.02750,-4.67250,0.00000,-0.01147,0.01098,-0.99064,2023,6,12,15,30,19,293
0.11170,3.18500,-4.67250,0.00000,-0.01061,0.01171,-0.98466,2023,6,12,15,30,19,305
0.11180,2.97500,-4.48000,0.00000,-0.00988,0.00964,-0.98783,2023,6,12,15,30,19,316
0.11190,2.94000,-4.55000,0.00000,-0.01122,0.01086,-0.98783,2023,6,12,15,30,19,327
0.11200,2.97500,-4.67250,0.00000,-0.00964,0.01281,-0.99027,2023,6,12,15,30,19,338
0.11210,3.09750,-4.67250,0.00000,-0.01000,0.01037,-0.98613,2023,6,12,15,30,19,349
0.11220,2.97500,-4.34000,0.00000,-0.01074,0.01183,-0.98918,2023,6,12,15,30,19,360
0.11230,2.97500,-4.62000,0.00000,-0.00964,0.01257,-0.98820,2023,6,12,15,30,19,371
0.11240,3.08000,-4.67250,0.00000,-0.01244,0.01220,-0.98918,2023,6,12,15,30,19,382
0.11250,2.90500,-4.56750,0.00000,-0.01000,0.01281,-0.98735,2023,6,12,15,30,19,393
0.11260,3.11500,-4.53250,0.00000,-0.00952,0.01330,-0.98930,2023,6,12,15,30,19,405
0.11270,2.95750,-4.39250,0.00000,-0.01037,0.01318,-0.98661,2023,6,12,15,30,19,416
0.11280,3.11500,-4.67250,0.00000,-0.00976,0.01074,-0.98613,2023,6,12,15,30,19,427
0.11290,3.01000,-4.67250,0.00000,-0.01037,0.01110,-0.98771,2023,6,12,15,30,19,438
0.11300,2.97500,-4.41000,0.00000,-0.01086,0.01159,-0.98771,2023,6,12,15,30,19,449
0.11310,3.11500,-4.69000,0.00000,-0.00866,0.01196,-0.98686,2023,6,12,15,30,19,460
0.11320,2.95750,-4.55000,0.00000,-0.01220,0.01183,-0.98613,2023,6,12,15,30,19,471
0.11330,2.88750,-4.42750,0.00000,-0.01025,0.01269,-0.98918,2023,6,12,15,30,19,482
0.11340,3.02750,-4.53250,0.00000,-0.01025,0.01147,-0.98698,2023,6,12,15,30,19,493
0.11350,3.06250,-4.88250,0.00000,-0.00976,0.01305,-0.98637,2023,6,12,15,30,19,505
0.11360,2.97500,-4.65500,0.00000,-0.00769,0.01110,-0.98771,2023,6,12,15,30,19,516
0.11370,2.92250,-4.39250,0.00000,-0.01098,0.01147,-0.98832,2023,6,12,15,30,19,527
0.11380,2.83500,-4.44500,0.00000,-0.00915,0.01305,-0.98527,2023,6,12,15,30,19,538
0.11390,2.78250,-4.60250,0.00000,-0.01196,0.01269,-0.98808,2023,6,12,15,30,19,549
0.11400,3.15000,-4.65500,0.00000,-0.00964,0.01049,-0.98808,2023,6,12,15,30,19,560
0.11410,3.02750,-4.51500,0.00000,-0.01013,0.01305,-0.98930,2023,6,12,15,30,19,571
0.11420,2.85250,-4.63750,0.00000,-0.00988,0.01318,-0.98991,2023,6,12,15,30,19,582
0.11430,3.01000,-4.56750,0.00000,-0.00939,0.01220,-0.98686,2023,6,12,15,30,19,593
0.11440,3.06250,-4.63750,0.00000,-0.01098,0.01220,-0.98588,2023,6,12,15,30,19,605
0.11450,2.95750,-4.60250,0.00000,-0.01159,0.01244,-0.98722,2023,6,12,15,30,19,616
0.11460,2.87000,-4.34000,0.00000,-0.00854,0.01171,-0.98698,2023,6,12,15,30,19,627
0.11470,2.99250,-4.55000,0.00000,-0.01110,0.01281,-0.98796,2023,6,12,15,30,19,638
0.11480,3.02750,-4.55000,0.00000,-0.00952,0.01171,-0.98735,2023,6,12,15,30,19,649
0.11490,2.83500,-4.65500,0.00000,-0.00891,0.01244,-0.98588,2023,6,12,15,30,19,660
0.11500,2.94000,-4.67250,0.00000,-0.01000,0.01330,-0.98698,2023,6,12,15,30,19,671
0.11510,3.06250,-4.69000,0.00000,-0.01086,0.00964,-0.98759,2023,6,12,15,30,19,682
0.11520,3.01000,-4.62000,0.00000,-0.01110,0.01110,-0.98844,2023,6,12,15,30,19,693
0.11530,2.87000,-4.46250,0.00000,-0.00927,0.01110,-0.98722,2023,6,12,15,30,19,705
0.11540,2.83500,-4.53250,0.00000,-0.00976,0.01232,-0.98552,2023,6,12,15,30,19,716
0.11550,3.08000,-4.51500,0.00000,-0.00891,0.01244,-0.98930,2023,6,12,15,30,19,727
0.11560,3.08000,-4.62000,0.00000,-0.01318,0.01281,-0.98661,2023,6,12,15,30,19,738
0.11570,3.01000,-4.48000,0.00000,-0.01000,0.01147,-0.98564,2023,6,12,15,30,19,749
0.11580,2.94000,-4.63750,0.00000,-0.01086,0.01086,-0.98735,2023,6,12,15,30,19,760
0.11590,2.87000,-4.56750,0.00000,-0.01000,0.01061,-0.98796,2023,6,12,15,30,19,771
0.11600,2.90500,-4.74250,0.00000,-0.01171,0.01257,-0.98649,2023,6,12,15,30,19,782
0.11610,2.99250,-4.55000,0.00000,-0.01257,0.01208,-0.98661,2023,6,12,15,30,19,793
0.11620,3.04500,-4.67250,0.00000,-0.01159,0.01208,-0.98869,2023,6,12,15,30,19,805
0.11630,2.90500,-4.70750,0.00000,-0.01171,0.01049,-0.98588,2023,6,12,15,30,19,816
0.11640,3.02750,-4.58500,0.00000,-0.01037,0.01025,-0.98796,2023,6,12,15,30,19,827
0.11650,3.08000,-4.84750,0.00000,-0.01110,0.01159,-0.98698,2023,6,12,15,30,19,838
0.11660,2.90500,-4.74250,0.00000,-0.01086,0.01025,-0.98881,2023,6,12,15,30,19,849
0.11670,2.88750,-4.51500,0.00000,-0.01049,0.01086,-0.98857,2023,6,12,15,30,19,860
0.11680,3.09750,-4.65500,0.00000,-0.00878,0.01293,-0.99003,2023,6,12,15,30,19,871
0.11690,3.16750,-4.62000,0.00000,-0.01074,0.01122,-0.98796,2023,6,12,15,30,19,882
0.11700,3.23750,-4.70750,0.00000,-0.00769,0.01086,-0.98771,2023,6,12,15,30,19,893
0.11710,3.15000,-4.56750,0.00000,-0.00830,0.01305,-0.98759,2023,6,12,15,30,19,905
0.11720,3.02750,-4.55000,0.00000,-0.00964,0.01220,-0.98954,2023,6,12,15,30,19,916
0.11730,3.02750,-4.53250,0.00000,-0.00903,0.01232,-0.98857,2023,6,12,15,30,19,927
0.11740,3.01000,-4.67250,0.00000,-0.00891,0.01110,-0.98588,2023,6,12,15,30,19,938
0.11750,3.27250,-4.84750,0.00000,-0.00964,0.01147,-0.98722,2023,6,12,15,30,19,949
0.11760,2.97500,-4.42750,0.00000,-0.01037,0.01110,-0.98735,2023,6,12,15,30,20,0
0.11770,3.08000,-4.62000,0.00000,-0.01074,0.00903,-0.98637,2023,6,12,15,30,20,11
0.11780,2.87000,-4.60250,0.00000,-0.01086,0.00952,-0.98808,2023,6,12,15,30,20,22
0.11790,2.90500,-4.69000,0.00000,-0.01000,0.01061,-0.98661,2023,6,12,15,30,20,33
0.11800,2.95750,-4.39250,0.00000,-0.00976,0.01049,-0.98942,2023,6,12,15,30,20,45
0.11810,2.83500,-4.60250,0.00000,-0.00964,0.01220,-0.98539,2023,6,12,15,30,20,56
0.11820,2.87000,-4.56750,0.00000,-0.01074,0.01147,-0.98918,2023,6,12,15,30,20,67
0.11830,2.83500,-4.53250,0.00000,-0.00964,0.01110,-0.98710,2023,6,12,15,30,20,78
0.11840,3.04500,-4.67250,0.00000,-0.01135,0.01049,-0.98808,2023,6,12,15,30,20,89
0.11850,3.09750,-4.62000,0.00000,-0.00964,0.01122,-0.98918,2023,6,12,15,30,20,100
0.11860,3.01000,-4.58500,0.00000,-0.01159,0.01257,-0.99088,2023,6,12,15,30,20,111
0.11870,3.02750,-4.79500,0.00000,-0.01098,0.00988,-0.98735,2023,6,12,15,30,20,122
0.11880,3.01000,-4.70750,0.00000,-0.00830,0.01122,-0.98820,2023,6,12,15,30,20,133
0.11890,2.83500,-4.67250,0.00000,-0.01074,0.01330,-0.98515,2023,6,12,15,30,20,145
0.11900,2.94000,-4.63750,0.00000,-0.00964,0.01122,-0.98576,2023,6,12,15,30,20,156
0.11910,2.85250,-4.74250,0.00000,-0.01037,0.01122,-0.98649,2023,6,12,15,30,20,167
0.11920,2.95750,-4.46250,0.00000,-0.01013,0.01135,-0.98759,2023,6,12,15,30,20,178
0.11930,2.97500,-4.56750,0.00000,-0.00878,0.00952,-0.98649,2023,6,12,15,30,20,189
0.11940,2.78250,-4.21750,0.00000,-0.01232,0.01342,-0.98942,2023,6,12,15,30,20,200
0.11950,2.99250,-4.44500,0.00000,-0.01147,0.01147,-0.98844,2023,6,12,15,30,20,211
0.11960,2.90500,-4.51500,0.00000,-0.01013,0.01147,-0.98905,2023,6,12,15,30,20,222
0.11970,2.94000,-4.63750,0.00000,-0.00927,0.01049,-0.98942,2023,6,12,15,30,20,233
0.11980,2.99250,-4.48000,0.00000,-0.01183,0.01061,-0.98674,2023,6,12,15,30,20,245
0.11990,3.06250,-4.63750,0.00000,-0.01171,0.01269,-0.99113,2023,6,12,15,30,20,256
0.12000,3.06250,-4.69000,0.00000,-0.00915,0.01135,-0.98564,2023,6,12,15,30,20,267
0.12010,2.94000,-4.84750,0.00000,-0.00952,0.01086,-0.98930,2023,6,12,15,30,20,278
0.12020,3.06250,-4.77750,0.00000,-0.01074,0.00903,-0.98747,2023,6,12,15,30,20,289
0.12030,3.06250,-4.79500,0.00000,-0.01196,0.01196,-0.98930,2023,6,12,15,30,20,300
0.12040,2.99250,-4.69000,0.00000,-0.00976,0.01135,-0.98857,2023,6,12,15,30,20,311
0.12050,3.01000,-4.48000,0.00000,-0.01196,0.01110,-0.98918,2023,6,12,15,30,20,322
0.12060,2.92250,-4.51500,0.00000,-0.01220,0.01366,-0.98857,2023,6,12,15,30,20,333
0.12070,2.92250,-4.42750,0.00000,-0.01061,0.01110,-0.98637,2023,6,12,15,30,20,345
0.12080,2.90500,-4.62000,0.00000,-0.01293,0.01147,-0.98857,2023,6,12,15,30,20,356
0.12090,3.06250,-4.42750,0.00000,-0.00866,0.01159,-0.98771,2023,6,12,15,30,20,367
0.12100,2.80000,-4.55000,0.00000,-0.00964,0.01220,-0.98771,2023,6,12,15,30,20,378
0.12110,2.97500,-4.48000,0.00000,-0.01074,0.00939,-0.98771,2023,6,12,15,30,20,389
0.12120,2.99250,-4.65500,0.00000,-0.01196,0.01086,-0.98674,2023,6,12,15,30,20,400
0.12130,2.90500,-4.56750,0.00000,-0.01122,0.01122,-0.98771,2023,6,12,15,30,20,411
0.12140,2.81750,-4.65500,0.00000,-0.00891,0.01257,-0.98686,2023,6,12,15,30,20,422
0.12150,2.92250,-4.48000,0.00000,-0.01074,0.01171,-0.98893,2023,6,12,15,30,20,433
0.12160,2.85250,-4.48000,0.00000,-0.01110,0.01049,-0.98832,2023,6,12,15,30,20,445
0.12170,3.13250,-4.77750,0.00000,-0.01098,0.00939,-0.98661,2023,6,12,15,30,20,456
0.12180,3.06250,-4.56750,0.00000,-0.01000,0.01196,-0.98759,2023,6,12,15,30,20,467
0.12190,3.02750,-4.62000,0.00000,-0.01098,0.01171,-0.98661,2023,6,12,15,30,20,478
0.12200,2.94000,-4.53250,0.00000,-0.01061,0.01074,-0.98698,2023,6,12,15,30,20,489
0.12210,3.01000,-4.67250,0.00000,-0.01061,0.01379,-0.98869,2023,6,12,15,30,20,500
0.12220,2.97500,-4.60250,0.00000,-0.00964,0.01147,-0.98796,2023,6,12,15,30,20,511
0.12230,2.87000,-4.51500,0.00000,-0.00988,0.01269,-0.98625,2023,6,12,15,30,20,522
0.12240,2.95750,-4.56750,0.00000,-0.01257,0.01232,-0.98759,2023,6,12,15,30,20,533
0.12250,2.94000,-4.58500,0.00000,-0.01232,0.01037,-0.98442,2023,6,12,15,30,20,545
0.12260,3.02750,-4.62000,0.00000,-0.00964,0.01086,-0.98820,2023,6,12,15,30,20,556
0.12270,2.74750,-4.48000,0.00000,-0.00903,0.01159,-0.98979,2023,6,12,15,30,20,567
0.12280,3.04500,-4.62000,0.00000,-0.01013,0.01159,-0.98564,2023,6,12,15,30,20,578
0.12290,3.06250,-4.69000,0.00000,-0.00964,0.01183,-0.98808,2023,6,12,15,30,20,589
0.12300,2.92250,-4.48000,0.00000,-0.00976,0.01171,-0.98686,2023,6,12,15,30,20,600
0.12310,2.99250,-4.55000,0.00000,-0.01220,0.01208,-0.98808,2023,6,12,15,30,20,611
0.12320,2.99250,-4.77750,0.00000,-0.00952,0.01037,-0.98747,2023,6,12,15,30,20,622
0.12330,2.94000,-4.60250,0.00000,-0.00964,0.01281,-0.98686,2023,6,12,15,30,20,633
0.12340,3.02750,-4.79500,0.00000,-0.00964,0.01061,-0.98698,2023,6,12,15,30,20,645
0.12350,2.87000,-4.56750,0.00000,-0.00964,0.01159,-0.98576,2023,6,12,15,30,20,656
0.12360,2.87000,-4.76000,0.00000,-0.00964,0.01232,-0.98783,2023,6,12,15,30,20,667
0.12370,3.09750,-4.86500,0.00000,-0.00988,0.01049,-0.98576,2023,6,12,15,30,20,678
0.12380,3.02750,-4.76000,0.00000,-0.00891,0.01025,-0.99052,2023,6,12,15,30,20,689
0.12390,2.88750,-4.39250,0.00000,-0.01171,0.01183,-0.98637,2023,6,12,15,30,20,700
0.12400,3.02750,-4.41000,0.00000,-0.00939,0.01098,-0.98637,2023,6,12,15,30,20,711
0.12410,2.92250,-4.49750,0.00000,-0.01098,0.01147,-0.99003,2023,6,12,15,30,20,722
0.12420,3.16750,-4.70750,0.00000,-0.01086,0.01232,-0.98881,2023,6,12,15,30,20,733
0.12430,3.04500,-4.90000,0.00000,-0.01183,0.01061,-0.98710,2023,6,12,15,30,20,745
0.12440,2.83500,-4.76000,0.00000,-0.01196,0.01135,-0.98735,2023,6,12,15,30,20,756
0.12450,2.85250,-4.62000,0.00000,-0.01013,0.01269,-0.98674,2023,6,12,15,30,20,767
0.12460,3.08000,-4.65500,0.00000,-0.00939,0.01110,-0.98637,2023,6,12,15,30,20,778
0.12470,2.87000,-4.60250,0.00000,-0.01025,0.01208,-0.99003,2023,6,12,15,30,20,789
0.12480,2.87000,-4.48000,0.00000,-0.00976,0.01379,-0.98954,2023,6,12,15,30,20,800
0.12490,2.87000,-4.81250,0.00000,-0.01098,0.01183,-0.99064,2023,6,12,15,30,20,811
0.12500,2.85250,-4.55000,0.00000,-0.01183,0.01244,-0.98710,2023,6,12,15,30,20,822
0.12510,2.88750,-4.48000,0.00000,-0.01135,0.01305,-0.98857,2023,6,12,15,30,20,833
0.12520,3.01000,-4.46250,0.00000,-0.00976,0.01183,-0.98844,2023,6,12,15,30,20,845
0.12530,3.02750,-4.79500,0.00000,-0.01110,0.01171,-0.98710,2023,6,12,15,30,20,856
0.12540,3.04500,-4.51500,0.00000,-0.01049,0.01135,-0.98552,2023,6,12,15,30,20,867
0.12550,2.87000,-4.56750,0.00000,-0.00952,0.00964,-0.98832,2023,6,12,15,30,20,878
0.12560,3.15000,-4.79500,0.00000,-0.01147,0.01061,-0.98869,2023,6,12,15,30,20,889
0.12570,2.81750,-4.60250,0.00000,-0.01061,0.01110,-0.98991,2023,6,12,15,30,20,900
0.12580,3.06250,-4.72500,0.00000,-0.01037,0.01110,-0.98735,2023,6,12,15,30,20,911
0.12590,3.16750,-4.70750,0.00000,-0.01183,0.01135,-0.98515,2023,6,12,15,30,20,922
0.12600,3.01000,-4.69000,0.00000,-0.00988,0.01257,-0.99003,2023,6,12,15,30,20,933
0.12610,3.09750,-4.79500,0.00000,-0.01232,0.01061,-0.99040,2023,6,12,15,30,20,945
0.12620,2.99250,-4.53250,0.00000,-0.00952,0.01196,-0.98625,2023,6,12,15,30,20,956
0.12630,2.99250,-4.62000,0.00000,-0.01013,0.01074,-0.98820,2023,6,12,15,30,20,967
0.12640,2.94000,-4.79500,0.00000,-0.01135,0.01074,-0.98979,2023,6,12,15,30,20,978
0.12650,3.01000,-4.67250,0.00000,-0.01086,0.01147,-0.98832,2023,6,12,15,30,21,9
0.12660,2.90500,-4.46250,0.00000,-0.01183,0.01208,-0.98588,2023,6,12,15,30,21,20
0.12670,3.01000,-4.62000,0.00000,-0.00952,0.01342,-0.98857,2023,6,12,15,30,21,31
0.12680,3.06250,-4.62000,0.00000,-0.00952,0.01147,-0.98710,2023,6,12,15,30,21,42
0.12690,2.95750,-4.58500,0.00000,-0.01013,0.01013,-0.99052,2023,6,12,15,30,21,53
0.12700,3.01000,-4.72500,0.00000,-0.01049,0.01086,-0.98674,2023,6,12,15,30,21,65
0.12710,2.83500,-4.81250,0.00000,-0.01110,0.01098,-0.98515,2023,6,12,15,30,21,76
0.12720,2.92250,-4.62000,0.00000,-0.01196,0.01171,-0.98905,2023,6,12,15,30,21,87
0.12730,3.13250,-4.70750,0.00000,-0.01074,0.01013,-0.98698,2023,6,12,15,30,21,98
0.12740,2.97500,-4.67250,0.00000,-0.00927,0.01135,-0.98539,2023,6,12,15,30,21,109
0.12750,2.94000,-4.67250,0.00000,-0.00866,0.01464,-0.98698,2023,6,12,15,30,21,120
0.12760,2.94000,-4.60250,0.00000,-0.00878,0.01110,-0.98661,2023,6,12,15,30,21,131
0.12770,3.04500,-4.63750,0.00000,-0.00964,0.01208,-0.98905,2023,6,12,15,30,21,142
0.12780,2.78250,-4.62000,0.00000,-0.01000,0.01074,-0.98686,2023,6,12,15,30,21,153
0.12790,2.69500,-4.60250,0.00000,-0.00952,0.01354,-0.98735,2023,6,12,15,30,21,165
0.12800,2.97500,-4.62000,0.00000,-0.01000,0.01220,-0.98905,2023,6,12,15,30,21,176
0.12810,3.02750,-4.56750,0.00000,-0.01000,0.01257,-0.98686,2023,6,12,15,30,21,187
0.12820,3.02750,-4.65500,0.00000,-0.00891,0.01074,-0.98979,2023,6,12,15,30,21,198
0.12830,2.97500,-4.56750,0.00000,-0.00891,0.01110,-0.98771,2023,6,12,15,30,21,209
0.12840,2.92250,-4.62000,0.00000,-0.00988,0.01232,-0.98796,2023,6,12,15,30,21,220
0.12850,3.08000,-4.81250,0.00000,-0.00927,0.01074,-0.98735,2023,6,12,15,30,21,231
0.12860,2.87000,-4.55000,0.00000,-0.01037,0.01208,-0.98808,2023,6,12,15,30,21,242
0.12870,2.81750,-4.62000,0.00000,-0.00927,0.01196,-0.98356,2023,6,12,15,30,21,253
0.12880,3.11500,-4.74250,0.00000,-0.01013,0.00927,-0.98783,2023,6,12,15,30,21,265
0.12890,3.01000,-4.63750,0.00000,-0.01171,0.01135,-0.98649,2023,6,12,15,30,21,276
0.12900,2.95750,-4.56750,0.00000,-0.01196,0.01122,-0.98905,2023,6,12,15,30,21,287
0.12910,3.01000,-4.76000,0.00000,-0.01135,0.01196,-0.98686,2023,6,12,15,30,21,298
0.12920,3.01000,-4.51500,0.00000,-0.00964,0.01208,-0.98698,2023,6,12,15,30,21,309
0.12930,3.01000,-4.63750,0.00000,-0.00976,0.01244,-0.98503,2023,6,12,15,30,21,320
0.12940,2.99250,-4.63750,0.00000,-0.00988,0.01403,-0.98698,2023,6,12,15,30,21,331
0.12950,3.04500,-4.72500,0.00000,-0.01196,0.01086,-0.98515,2023,6,12,15,30,21,342
0.12960,3.11500,-4.70750,0.00000,-0.01013,0.01183,-0.99027,2023,6,12,15,30,21,353
0.12970,2.97500,-4.81250,0.00000,-0.00756,0.01171,-0.98637,2023,6,12,15,30,21,365
0.12980,3.08000,-4.49750,0.00000,-0.01013,0.01000,-0.99040,2023,6,12,15,30,21,376
0.12990,2.85250,-4.39250,0.00000,-0.01037,0.01171,-0.98735,2023,6,12,15,30,21,387
0.13000,2.94000,-4.72500,0.00000,-0.01074,0.01122,-0.98771,2023,6,12,15,30,21,398
0.13010,2.87000,-4.70750,0.00000,-0.01196,0.01342,-0.99113,2023,6,12,15,30,21,409
0.13020,3.01000,-4.60250,0.00000,-0.00988,0.01110,-0.98966,2023,6,12,15,30,21,420
0.13030,2.76500,-4.55000,0.00000,-0.01196,0.01086,-0.98783,2023,6,12,15,30,21,431
0.13040,3.15000,-4.65500,0.00000,-0.01281,0.01037,-0.98625,2023,6,12,15,30,21,442
0.13050,3.11500,-4.58500,0.00000,-0.00866,0.01293,-0.98918,2023,6,12,15,30,21,453
0.13060,2.88750,-4.48000,0.00000,-0.01013,0.01281,-0.98930,2023,6,12,15,30,21,465
0.13070,2.95750,-4.58500,0.00000,-0.00769,0.01183,-0.98930,2023,6,12,15,30,21,476
0.13080,3.09750,-4.63750,0.00000,-0.00964,0.01098,-0.98722,2023,6,12,15,30,21,487
0.13090,3.09750,-4.58500,0.00000,-0.01049,0.00927,-0.98759,2023,6,12,15,30,21,498
0.13100,3.01000,-4.53250,0.00000,-0.01171,0.01196,-0.98649,2023,6,12,15,30,21,509
0.13110,3.11500,-4.69000,0.00000,-0.01110,0.01025,-0.98747,2023,6,12,15,30,21,520
0.13120,2.99250,-4.48000,0.00000,-0.01000,0.01501,-0.98808,2023,6,12,15,30,21,531
0.13130,2.81750,-4.79500,0.00000,-0.00927,0.01147,-0.98979,2023,6,12,15,30,21,542
0.13140,2.94000,-4.44500,0.00000,-0.01098,0.00976,-0.98783,2023,6,12,15,30,21,553
0.13150,2.99250,-4.67250,0.00000,-0.01159,0.01025,-0.98759,2023,6,12,15,30,21,565
0.13160,3.15000,-4.42750,0.00000,-0.00927,0.01196,-0.98820,2023,6,12,15,30,21,576
0.13170,3.04500,-4.74250,0.00000,-0.01147,0.01000,-0.98674,2023,6,12,15,30,21,587
0.13180,2.78250,-4.67250,0.00000,-0.00903,0.01061,-0.99149,2023,6,12,15,30,21,598
0.13190,3.08000,-4.53250,0.00000,-0.00988,0.01135,-0.98674,2023,6,12,15,30,21,609
0.13200,2.81750,-4.60250,0.00000,-0.01049,0.01110,-0.98820,2023,6,12,15,30,21,620
0.13210,3.04500,-4.53250,0.00000,-0.01171,0.01147,-0.98722,2023,6,12,15,30,21,631
0.13220,3.09750,-4.58500,0.00000,-0.01025,0.01305,-0.99052,2023,6,12,15,30,21,642
0.13230,2.94000,-4.76000,0.00000,-0.01049,0.00805,-0.98637,2023,6,12,15,30,21,653
0.13240,3.06250,-4.53250,0.00000,-0.01000,0.01159,-0.98783,2023,6,12,15,30,21,665
0.13250,2.90500,-4.32250,0.00000,-0.00976,0.01342,-0.98539,2023,6,12,15,30,21,676
0.13260,2.97500,-4.60250,0.00000,-0.01000,0.01183,-0.99223,2023,6,12,15,30,21,687
0.13270,2.90500,-4.63750,0.00000,-0.01037,0.01183,-0.98857,2023,6,12,15,30,21,698
0.13280,3.02750,-4.49750,0.00000,-0.00891,0.01196,-0.98637,2023,6,12,15,30,21,709
0.13290,2.94000,-4.69000,0.00000,-0.01208,0.01183,-0.98674,2023,6,12,15,30,21,720
0.13300,2.94000,-4.56750,0.00000,-0.01025,0.01244,-0.98857,2023,6,12,15,30,21,731
0.13310,3.08000,-4.62000,0.00000,-0.01147,0.01074,-0.99040,2023,6,12,15,30,21,742
0.13320,2.95750,-4.51500,0.00000,-0.00988,0.01135,-0.98881,2023,6,12,15,30,21,753
0.13330,2.78250,-4.67250,0.00000,-0.01110,0.01159,-0.98893,2023,6,12,15,30,21,765
0.13340,3.20250,-4.84750,0.00000,-0.01159,0.01025,-0.99247,2023,6,12,15,30,21,776
0.13350,2.99250,-4.63750,0.00000,-0.01049,0.01354,-0.99015,2023,6,12,15,30,21,787
0.13360,2.85250,-4.48000,0.00000,-0.01000,0.00976,-0.99015,2023,6,12,15,30,21,798
0.13370,2.80000,-4.51500,0.00000,-0.01098,0.01220,-0.98918,2023,6,12,15,30,21,809
0.13380,3.02750,-4.46250,0.00000,-0.00976,0.01037,-0.98588,2023,6,12,15,30,21,820
0.13390,2.95750,-4.53250,0.00000,-0.01086,0.01122,-0.98844,2023,6,12,15,30,21,831
0.13400,2.94000,-4.56750,0.00000,-0.00976,0.01037,-0.99052,2023,6,12,15,30,21,842
0.13410,3.02750,-4.67250,0.00000,-0.01037,0.01122,-0.98783,2023,6,12,15,30,21,853
0.13420,2.95750,-4.39250,0.00000,-0.01098,0.01147,-0.98820,2023,6,12,15,30,21,865
0.13430,3.11500,-4.49750,0.00000,-0.01074,0.00964,-0.98722,2023,6,12,15,30,21,876
0.13440,2.95750,-4.49750,0.00000,-0.01061,0.01220,-0.99149,2023,6,12,15,30,21,887
0.13450,2.97500,-4.39250,0.00000,-0.01159,0.00988,-0.98930,2023,6,12,15,30,21,898
0.13460,3.09750,-4.39250,0.00000,-0.01061,0.01318,-0.98905,2023,6,12,15,30,21,909
0.13470,2.92250,-4.42750,0.00000,-0.01110,0.01281,-0.99113,2023,6,12,15,30,21,920
0.13480,3.04500,-4.51500,0.00000,-0.01110,0.01098,-0.99040,2023,6,12,15,30,21,931
0.13490,2.92250,-4.51500,0.00000,-0.01086,0.01159,-0.99003,2023,6,12,15,30,21,942
0.13500,2.92250,-4.51500,0.00000,-0.01098,0.01220,-0.99113,2023,6,12,15,30,22,3
0.13510,2.97500,-4.55000,0.00000,-0.01147,0.01025,-0.98832,2023,6,12,15,30,22,15
0.13520,3.01000,-4.49750,0.00000,-0.01098,0.00927,-0.98625,2023,6,12,15,30,22,26
0.13530,2.92250,-4.70750,0.00000,-0.01196,0.01147,-0.98771,2023,6,12,15,30,22,37
0.13540,3.02750,-4.49750,0.00000,-0.01000,0.01318,-0.99064,2023,6,12,15,30,22,48
0.13550,2.99250,-4.63750,0.00000,-0.01122,0.01122,-0.98893,2023,6,12,15,30,22,59
0.13560,2.97500,-4.42750,0.00000,-0.00976,0.01208,-0.98783,2023,6,12,15,30,22,70
0.13570,2.97500,-4.62000,0.00000,-0.01135,0.01049,-0.98844,2023,6,12,15,30,22,81
0.13580,2.94000,-4.60250,0.00000,-0.01061,0.01269,-0.99125,2023,6,12,15,30,22,92
0.13590,2.99250,-4.55000,0.00000,-0.00964,0.01257,-0.99076,2023,6,12,15,30,22,103
0.13600,2.90500,-4.58500,0.00000,-0.00854,0.01208,-0.98857,2023,6,12,15,30,22,115
0.13610,3.06250,-4.55000,0.00000,-0.01147,0.01110,-0.98844,2023,6,12,15,30,22,126
0.13620,2.94000,-4.56750,0.00000,-0.01135,0.00988,-0.98637,2023,6,12,15,30,22,137
0.13630,2.92250,-4.72500,0.00000,-0.01049,0.01147,-0.99015,2023,6,12,15,30,22,148
0.13640,2.99250,-4.53250,0.00000,-0.01232,0.01257,-0.98832,2023,6,12,15,30,22,159
0.13650,2.87000,-4.81250,0.00000,-0.00976,0.01244,-0.98783,2023,6,12,15,30,22,170
0.13660,3.09750,-4.55000,0.00000,-0.00854,0.01135,-0.98722,2023,6,12,15,30,22,181
0.13670,2.95750,-4.60250,0.00000,-0.00927,0.01122,-0.98661,2023,6,12,15,30,22,192
0.13680,2.99250,-4.44500,0.00000,-0.00952,0.01257,-0.98600,2023,6,12,15,30,22,203
0.13690,3.09750,-4.60250,0.00000,-0.01000,0.01354,-0.98918,2023,6,12,15,30,22,215
0.13700,2.94000,-4.63750,0.00000,-0.01354,0.01159,-0.98808,2023,6,12,15,30,22,226
0.13710,2.87000,-4.42750,0.00000,-0.01135,0.01257,-0.98613,2023,6,12,15,30,22,237
0.13720,3.11500,-4.44500,0.00000,-0.01086,0.01305,-0.98783,2023,6,12,15,30,22,248
0.13730,3.02750,-4.46250,0.00000,-0.01013,0.01074,-0.98661,2023,6,12,15,30,22,259
0.13740,2.73000,-4.56750,0.00000,-0.01135,0.01061,-0.98735,2023,6,12,15,30,22,270
0.13750,3.06250,-4.72500,0.00000,-0.01159,0.01220,-0.98820,2023,6,12,15,30,22,281
0.13760,2.95750,-4.63750,0.00000,-0.01037,0.01110,-0.98930,2023,6,12,15,30,22,292
0.13770,2.90500,-4.56750,0.00000,-0.00964,0.01318,-0.98869,2023,6,12,15,30,22,303
0.13780,2.87000,-4.55000,0.00000,-0.01147,0.01342,-0.99003,2023,6,12,15,30,22,315
0.13790,2.99250,-4.62000,0.00000,-0.01342,0.01208,-0.98808,2023,6,12,15,30,22,326
0.13800,3.04500,-4.67250,0.00000,-0.01122,0.00952,-0.98844,2023,6,12,15,30,22,337
0.13810,2.92250,-4.60250,0.00000,-0.01171,0.01074,-0.99064,2023,6,12,15,30,22,348
0.13820,3.13250,-4.76000,0.00000,-0.01086,0.01098,-0.98857,2023,6,12,15,30,22,359
0.13830,2.92250,-4.63750,0.00000,-0.01000,0.01183,-0.98735,2023,6,12,15,30,22,370
0.13840,2.88750,-4.42750,0.00000,-0.00988,0.01366,-0.99076,2023,6,12,15,30,22,381
0.13850,2.97500,-4.60250,0.00000,-0.01110,0.01318,-0.99052,2023,6,12,15,30,22,392
0.13860,2.80000,-4.53250,0.00000,-0.01135,0.01135,-0.98771,2023,6,12,15,30,22,403
0.13870,3.02750,-4.97000,0.00000,-0.01147,0.01147,-0.99088,2023,6,12,15,30,22,415
0.13880,2.92250,-4.62000,0.00000,-0.01171,0.01013,-0.99186,2023,6,12,15,30,22,426
0.13890,3.15000,-4.62000,0.00000,-0.00964,0.01318,-0.98576,2023,6,12,15,30,22,437
0.13900,3.01000,-4.49750,0.00000,-0.00805,0.01049,-0.98625,2023,6,12,15,30,22,448
0.13910,3.08000,-4.74250,0.00000,-0.00988,0.01220,-0.98808,2023,6,12,15,30,22,459
0.13920,2.95750,-4.63750,0.00000,-0.01110,0.01244,-0.98942,2023,6,12,15,30,22,470
0.13930,3.09750,-4.60250,0.00000,-0.01147,0.01110,-0.99076,2023,6,12,15,30,22,481
0.13940,3.02750,-4.70750,0.00000,-0.01061,0.00976,-0.99015,2023,6,12,15,30,22,492
0.13950,3.09750,-4.60250,0.00000,-0.00866,0.01330,-0.98979,2023,6,12,15,30,22,503
0.13960,3.01000,-4.84750,0.00000,-0.01244,0.01171,-0.98796,2023,6,12,15,30,22,515
0.13970,2.90500,-4.58500,0.00000,-0.00988,0.01220,-0.98576,2023,6,12,15,30,22,526
0.13980,3.04500,-4.63750,0.00000,-0.01220,0.01122,-0.98991,2023,6,12,15,30,22,537
0.13990,3.06250,-4.56750,0.00000,-0.00927,0.01342,-0.98954,2023,6,12,15,30,22,548
0.14000,2.97500,-4.79500,0.00000,-0.00878,0.01171,-0.98820,2023,6,12,15,30,22,559
0.14010,2.95750,-4.67250,0.00000,-0.01037,0.01269,-0.98832,2023,6,12,15,30,22,570
0.14020,2.90500,-4.62000,0.00000,-0.00878,0.01196,-0.98942,2023,6,12,15,30,22,581
0.14030,2.90500,-4.56750,0.00000,-0.01086,0.01196,-0.98783,2023,6,12,15,30,22,592
0.14040,2.95750,-4.27000,0.00000,-0.00976,0.00976,-0.98954,2023,6,12,15,30,22,603
0.14050,2.81750,-4.49750,0.00000,-0.01049,0.01244,-0.98588,2023,6,12,15,30,22,615
0.14060,2.85250,-4.34000,0.00000,-0.01122,0.01171,-0.99101,2023,6,12,15,30,22,626
0.14070,3.06250,-4.69000,0.00000,-0.01086,0.01147,-0.98796,2023,6,12,15,30,22,637
0.14080,3.09750,-4.58500,0.00000,-0.01208,0.01196,-0.98515,2023,6,12,15,30,22,648
0.14090,3.04500,-4.90000,0.00000,-0.01110,0.01025,-0.98832,2023,6,12,15,30,22,659
0.14100,3.09750,-4.79500,0.00000,-0.01013,0.01110,-0.98808,2023,6,12,15,30,22,670
0.14110,3.09750,-4.83000,0.00000,-0.01074,0.01159,-0.99088,2023,6,12,15,30,22,681
0.14120,2.92250,-4.53250,0.00000,-0.00988,0.01098,-0.98783,2023,6,12,15,30,22,692
0.14130,3.04500,-4.51500,0.00000,-0.01049,0.01110,-0.98613,2023,6,12,15,30,22,703
0.14140,3.06250,-4.69000,0.00000,-0.00976,0.00903,-0.98991,2023,6,12,15,30,22,715
0.14150,3.11500,-4.62000,0.00000,-0.00976,0.01244,-0.98857,2023,6,12,15,30,22,726
0.14160,2.80000,-4.37500,0.00000,-0.01037,0.01305,-0.98991,2023,6,12,15,30,22,737
0.14170,2.94000,-4.70750,0.00000,-0.01025,0.01391,-0.98942,2023,6,12,15,30,22,748
0.14180,3.04500,-4.49750,0.00000,-0.01025,0.01244,-0.98979,2023,6,12,15,30,22,759
0.14190,2.90500,-4.62000,0.00000,-0.01037,0.01196,-0.98722,2023,6,12,15,30,22,770
0.14200,2.92250,-4.58500,0.00000,-0.01013,0.01305,-0.98857,2023,6,12,15,30,22,781
0.14210,2.94000,-4.72500,0.00000,-0.01000,0.01281,-0.98600,2023,6,12,15,30,22,792
0.14220,2.97500,-4.81250,0.00000,-0.00817,0.01244,-0.98747,2023,6,12,15,30,22,803
0.14230,3.04500,-4.53250,0.00000,-0.01049,0.01122,-0.98771,2023,6,12,15,30,22,815
0.14240,3.04500,-4.74250,0.00000,-0.00915,0.01232,-0.98893,2023,6,12,15,30,22,826
0.14250,2.92250,-4.76000,0.00000,-0.00952,0.01318,-0.98698,2023,6,12,15,30,22,837
0.14260,3.08000,-4.69000,0.00000,-0.00964,0.01415,-0.99040,2023,6,12,15,30,22,848
0.14270,2.99250,-4.62000,0.00000,-0.01049,0.01293,-0.99332,2023,6,12,15,30,22,859
0.14280,2.92250,-4.46250,0.00000,-0.00915,0.01159,-0.98637,2023,6,12,15,30,22,870
0.14290,2.87000,-4.37500,0.00000,-0.01025,0.01220,-0.98796,2023,6,12,15,30,22,881
0.14300,3.11500,-4.58500,0.00000,-0.01086,0.01037,-0.98710,2023,6,12,15,30,22,892
0.14310,3.08000,-4.60250,0.00000,-0.01196,0.01281,-0.99027,2023,6,12,15,30,22,903
0.14320,2.90500,-4.65500,0.00000,-0.00878,0.01147,-0.98698,2023,6,12,15,30,22,915
0.14330,3.09750,-4.77750,0.00000,-0.01293,0.01220,-0.98796,2023,6,12,15,30,22,926
0.14340,3.02750,-4.49750,0.00000,-0.01098,0.01293,-0.98722,2023,6,12,15,30,22,937
0.14350,3.06250,-4.44500,0.00000,-0.00988,0.01110,-0.98771,2023,6,12,15,30,22,948
0.14360,2.97500,-4.51500,0.00000,-0.01122,0.00952,-0.98796,2023,6,12,15,30,22,959
0.14370,2.99250,-4.74250,0.00000,-0.00878,0.01196,-0.98661,2023,6,12,15,30,22,970
0.14380,2.83500,-4.63750,0.00000,-0.01086,0.01135,-0.98844,2023,6,12,15,30,22,981
0.14390,3.02750,-4.42750,0.00000,-0.01074,0.01208,-0.98820,2023,6,12,15,30,22,992
0.14400,3.09750,-4.49750,0.00000,-0.01013,0.01305,-0.98820,2023,6,12,15,30,23,3
0.14410,2.95750,-4.55000,0.00000,-0.00854,0.01025,-0.98869,2023,6,12,15,30,23,15
0.14420,3.01000,-4.48000,0.00000,-0.01220,0.01061,-0.98820,2023,6,12,15,30,23,26
0.14430,3.09750,-4.86500,0.00000,-0.01013,0.01049,-0.98942,2023,6,12,15,30,23,37
0.14440,2.92250,-4.72500,0.00000,-0.01074,0.01147,-0.98710,2023,6,12,15,30,23,48
0.14450,2.99250,-4.41000,0.00000,-0.01122,0.01293,-0.98991,2023,6,12,15,30,23,59
0.14460,2.94000,-4.44500,0.00000,-0.01098,0.01086,-0.98844,2023,6,12,15,30,23,70
0.14470,2.80000,-4.51500,0.00000,-0.01147,0.01208,-0.98881,2023,6,12,15,30,23,81
0.14480,3.06250,-4.74250,0.00000,-0.01025,0.00939,-0.98698,2023,6,12,15,30,23,92
0.14490,3.02750,-4.62000,0.00000,-0.00915,0.01183,-0.98954,2023,6,12,15,30,23,103
0.14500,2.99250,-4.41000,0.00000,-0.00781,0.01098,-0.98686,2023,6,12,15,30,23,115
0.14510,2.99250,-4.49750,0.00000,-0.01159,0.01196,-0.98698,2023,6,12,15,30,23,126
0.14520,2.85250,-4.53250,0.00000,-0.01074,0.01098,-0.99003,2023,6,12,15,30,23,137
0.14530,2.92250,-4.58500,0.00000,-0.00817,0.01305,-0.98649,2023,6,12,15,30,23,148
0.14540,3.02750,-4.69000,0.00000,-0.01049,0.01403,-0.98832,2023,6,12,15,30,23,159
0.14550,3.13250,-4.53250,0.00000,-0.00939,0.01074,-0.98905,2023,6,12,15,30,23,170
0.14560,2.78250,-4.65500,0.00000,-0.01110,0.01122,-0.98710,2023,6,12,15,30,23,181
0.14570,2.83500,-4.55000,0.00000,-0.00964,0.01098,-0.99015,2023,6,12,15,30,23,192
0.14580,2.83500,-4.39250,0.00000,-0.01061,0.00927,-0.98796,2023,6,12,15,30,23,203
0.14590,2.90500,-4.70750,0.00000,-0.01037,0.00964,-0.99052,2023,6,12,15,30,23,215
0.14600,3.01000,-4.37500,0.00000,-0.01183,0.01269,-0.99015,2023,6,12,15,30,23,226
0.14610,2.92250,-4.51500,0.00000,-0.01098,0.01293,-0.98954,2023,6,12,15,30,23,237
0.14620,2.95750,-4.74250,0.00000,-0.01269,0.01244,-0.99101,2023,6,12,15,30,23,248
0.14630,2.94000,-4.56750,0.00000,-0.01000,0.01013,-0.98722,2023,6,12,15,30,23,259
0.14640,2.92250,-4.51500,0.00000,-0.01074,0.00891,-0.98661,2023,6,12,15,30,23,270
0.14650,3.13250,-4.81250,0.00000,-0.00976,0.01196,-0.99003,2023,6,12,15,30,23,281
0.14660,2.87000,-4.63750,0.00000,-0.00939,0.01257,-0.98844,2023,6,12,15,30,23,292
0.14670,3.09750,-4.88250,0.00000,-0.01037,0.01293,-0.98771,2023,6,12,15,30,23,303
