#2023/06/12 15:24:57
time,wx,wy,wz,ax,ay,az,yy,MM,dd,hh,mm,ss,ms
0.00000,2.97500,-4.65500,0.00000,-0.00988,0.01257,-0.98930,2023,6,12,15,24,57,473
0.00010,2.87000,-4.41000,0.00000,-0.00964,0.01196,-0.98796,2023,6,12,15,24,57,484
0.00020,2.99250,-4.83000,0.00000,-0.01013,0.01110,-0.99137,2023,6,12,15,24,57,495
0.00030,2.95750,-4.65500,0.00000,-0.00927,0.01196,-0.98905,2023,6,12,15,24,57,506
0.00040,2.80000,-4.60250,0.00000,-0.01013,0.01110,-0.98796,2023,6,12,15,24,57,517
0.00050,2.94000,-4.69000,0.00000,-0.00976,0.00976,-0.98661,2023,6,12,15,24,57,528
0.00060,2.94000,-4.60250,0.00000,-0.00988,0.01086,-0.98686,2023,6,12,15,24,57,539
0.00070,2.92250,-4.48000,0.00000,-0.00939,0.01122,-0.98686,2023,6,12,15,24,57,550
0.00080,2.76500,-4.30500,0.00000,-0.00952,0.01232,-0.98832,2023,6,12,15,24,57,561
0.00090,2.83500,-4.58500,0.00000,-0.01159,0.01147,-0.98576,2023,6,12,15,24,57,572
0.00100,2.81750,-4.63750,0.00000,-0.01159,0.01330,-0.98747,2023,6,12,15,24,57,584
0.00110,3.08000,-4.69000,0.00000,-0.00817,0.01061,-0.98881,2023,6,12,15,24,57,595
0.00120,2.87000,-4.41000,0.00000,-0.01074,0.01098,-0.99040,2023,6,12,15,24,57,606
0.00130,2.99250,-4.63750,0.00000,-0.01171,0.01135,-0.98747,2023,6,12,15,24,57,617
0.00140,2.85250,-4.63750,0.00000,-0.01061,0.01269,-0.98783,2023,6,12,15,24,57,628
0.00150,2.80000,-4.39250,0.00000,-0.01037,0.01208,-0.98832,2023,6,12,15,24,57,639
0.00160,3.02750,-4.44500,0.00000,-0.00830,0.01159,-0.98966,2023,6,12,15,24,57,650
0.00170,3.02750,-4.53250,0.00000,-0.00988,0.01305,-0.98698,2023,6,12,15,24,57,661
0.00180,2.76500,-4.39250,0.00000,-0.01000,0.01159,-0.98735,2023,6,12,15,24,57,672
0.00190,2.97500,-4.81250,0.00000,-0.01098,0.01305,-0.99052,2023,6,12,15,24,57,684
0.00200,3.04500,-4.41000,0.00000,-0.00878,0.00976,-0.98966,2023,6,12,15,24,57,695
0.00210,2.88750,-4.55000,0.00000,-0.01037,0.01330,-0.98966,2023,6,12,15,24,57,706
0.00220,2.85250,-4.49750,0.00000,-0.01000,0.01318,-0.98771,2023,6,12,15,24,57,717
0.00230,2.97500,-4.70750,0.00000,-0.01171,0.01183,-0.98844,2023,6,12,15,24,57,728
0.00240,2.76500,-4.55000,0.00000,-0.01000,0.01171,-0.98820,2023,6,12,15,24,57,739
0.00250,3.01000,-4.41000,0.00000,-0.00854,0.01403,-0.98783,2023,6,12,15,24,57,750
0.00260,2.95750,-4.39250,0.00000,-0.00952,0.01440,-0.98954,2023,6,12,15,24,57,761
0.00270,2.83500,-4.51500,0.00000,-0.01037,0.01147,-0.98820,2023,6,12,15,24,57,772
0.00280,3.02750,-4.42750,0.00000,-0.01037,0.01208,-0.98661,2023,6,12,15,24,57,784
0.00290,2.92250,-4.48000,0.00000,-0.00817,0.01232,-0.98979,2023,6,12,15,24,57,795
0.00300,2.90500,-4.51500,0.00000,-0.01074,0.01110,-0.98893,2023,6,12,15,24,57,806
0.00310,2.90500,-4.74250,0.00000,-0.00964,0.01366,-0.98857,2023,6,12,15,24,57,817
0.00320,2.92250,-4.44500,0.00000,-0.01147,0.01159,-0.98832,2023,6,12,15,24,57,828
0.00330,2.87000,-4.58500,0.00000,-0.01061,0.01183,-0.99027,2023,6,12,15,24,57,839
0.00340,2.85250,-4.63750,0.00000,-0.00683,0.01220,-0.98808,2023,6,12,15,24,57,850
0.00350,2.99250,-4.49750,0.00000,-0.01086,0.01366,-0.98759,2023,6,12,15,24,57,861
0.00360,2.90500,-4.62000,0.00000,-0.01074,0.01354,-0.98966,2023,6,12,15,24,57,872
0.00370,2.97500,-4.90000,0.00000,-0.01074,0.01427,-0.99076,2023,6,12,15,24,57,884
0.00380,3.04500,-4.56750,0.00000,-0.00976,0.01183,-0.98881,2023,6,12,15,24,57,895
0.00390,2.81750,-4.65500,0.00000,-0.00964,0.01293,-0.98576,2023,6,12,15,24,57,906
0.00400,2.95750,-4.55000,0.00000,-0.01098,0.00927,-0.98918,2023,6,12,15,24,57,917
0.00410,2.83500,-4.53250,0.00000,-0.01049,0.01196,-0.98747,2023,6,12,15,24,57,928
0.00420,2.95750,-4.44500,0.00000,-0.01061,0.01415,-0.99088,2023,6,12,15,24,57,939
0.00430,2.90500,-4.72500,0.00000,-0.01061,0.01013,-0.98625,2023,6,12,15,24,57,950
0.00440,2.83500,-4.60250,0.00000,-0.01037,0.01098,-0.99064,2023,6,12,15,24,57,961
0.00450,2.85250,-4.65500,0.00000,-0.01086,0.01159,-0.98918,2023,6,12,15,24,57,972
0.00460,2.90500,-4.63750,0.00000,-0.00952,0.01476,-0.98979,2023,6,12,15,24,57,984
0.00470,2.76500,-4.46250,0.00000,-0.01122,0.01257,-0.98722,2023,6,12,15,24,57,995
0.00480,2.97500,-4.79500,0.00000,-0.01098,0.01171,-0.98796,2023,6,12,15,24,57,6
0.00490,3.04500,-4.42750,0.00000,-0.00854,0.01037,-0.98771,2023,6,12,15,24,57,17
0.00500,2.95750,-4.65500,0.00000,-0.01025,0.01232,-0.98710,2023,6,12,15,24,57,28
0.00510,2.92250,-4.69000,0.00000,-0.01025,0.01037,-0.98637,2023,6,12,15,24,57,39
0.00520,2.90500,-4.62000,0.00000,-0.01049,0.01305,-0.98759,2023,6,12,15,24,57,50
0.00530,2.78250,-4.49750,0.00000,-0.01098,0.01037,-0.98869,2023,6,12,15,24,57,61
0.00540,2.78250,-4.55000,0.00000,-0.00964,0.01330,-0.98869,2023,6,12,15,24,57,72
0.00550,2.90500,-4.60250,0.00000,-0.00952,0.01074,-0.98820,2023,6,12,15,24,57,84
0.00560,2.99250,-4.60250,0.00000,-0.01098,0.01183,-0.98869,2023,6,12,15,24,57,95
0.00570,2.94000,-4.60250,0.00000,-0.01000,0.01330,-0.98747,2023,6,12,15,24,57,106
0.00580,2.95750,-4.56750,0.00000,-0.00988,0.01208,-0.98783,2023,6,12,15,24,57,117
0.00590,2.99250,-4.70750,0.00000,-0.01110,0.01098,-0.98796,2023,6,12,15,24,57,128
0.00600,2.99250,-4.60250,0.00000,-0.00805,0.01244,-0.98600,2023,6,12,15,24,57,139
0.00610,2.83500,-4.58500,0.00000,-0.00952,0.01232,-0.98832,2023,6,12,15,24,57,150
0.00620,2.85250,-4.69000,0.00000,-0.00964,0.01257,-0.98783,2023,6,12,15,24,57,161
0.00630,3.04500,-4.63750,0.00000,-0.00988,0.01244,-0.98954,2023,6,12,15,24,57,172
0.00640,2.85250,-4.37500,0.00000,-0.01110,0.01330,-0.99027,2023,6,12,15,24,57,184
0.00650,2.80000,-4.65500,0.00000,-0.01013,0.01110,-0.98942,2023,6,12,15,24,57,195
0.00660,2.95750,-4.42750,0.00000,-0.01049,0.01354,-0.98942,2023,6,12,15,24,57,206
0.00670,2.92250,-4.62000,0.00000,-0.00756,0.01293,-0.98820,2023,6,12,15,24,57,217
0.00680,3.13250,-4.86500,0.00000,-0.01074,0.01244,-0.99406,2023,6,12,15,24,57,228
0.00690,2.81750,-4.56750,0.00000,-0.01171,0.01171,-0.98808,2023,6,12,15,24,57,239
0.00700,2.83500,-4.46250,0.00000,-0.01013,0.01098,-0.98918,2023,6,12,15,24,57,250
0.00710,2.97500,-4.58500,0.00000,-0.00915,0.01183,-0.98881,2023,6,12,15,24,57,261
0.00720,3.09750,-4.56750,0.00000,-0.01305,0.01232,-0.98759,2023,6,12,15,24,57,272
0.00730,3.02750,-4.53250,0.00000,-0.01147,0.01196,-0.98820,2023,6,12,15,24,57,284
0.00740,3.27250,-4.60250,0.00000,-0.01110,0.01208,-0.98857,2023,6,12,15,24,57,295
0.00750,2.80000,-4.56750,0.00000,-0.01000,0.01293,-0.98966,2023,6,12,15,24,57,306
0.00760,3.16750,-4.77750,0.00000,-0.00976,0.01232,-0.98844,2023,6,12,15,24,58,7
0.00770,3.15000,-4.56750,0.00000,-0.01147,0.01354,-0.98893,2023,6,12,15,24,58,18
0.00780,3.06250,-4.60250,0.00000,-0.01025,0.00976,-0.98966,2023,6,12,15,24,58,29
0.00790,2.80000,-4.60250,0.00000,-0.01013,0.01171,-0.98869,2023,6,12,15,24,58,40
0.00800,2.78250,-4.58500,0.00000,-0.01183,0.01086,-0.98771,2023,6,12,15,24,58,51
0.00810,2.90500,-4.56750,0.00000,-0.01122,0.01025,-0.98869,2023,6,12,15,24,58,62
0.00820,2.92250,-4.53250,0.00000,-0.00964,0.01135,-0.98905,2023,6,12,15,24,58,74
0.00830,2.87000,-4.48000,0.00000,-0.01074,0.01220,-0.98844,2023,6,12,15,24,58,85
0.00840,3.06250,-4.69000,0.00000,-0.01159,0.01196,-0.98857,2023,6,12,15,24,58,96
0.00850,3.22000,-4.44500,0.00000,-0.00976,0.01074,-0.99015,2023,6,12,15,24,58,107
0.00860,2.95750,-4.51500,0.00000,-0.01232,0.01305,-0.98576,2023,6,12,15,24,58,118
0.00870,2.88750,-4.62000,0.00000,-0.00976,0.01391,-0.98808,2023,6,12,15,24,58,129
0.00880,2.83500,-4.42750,0.00000,-0.00976,0.01220,-0.98869,2023,6,12,15,24,58,140
0.00890,2.87000,-4.55000,0.00000,-0.01025,0.01269,-0.98783,2023,6,12,15,24,58,151
0.00900,2.99250,-4.46250,0.00000,-0.00659,0.01122,-0.98674,2023,6,12,15,24,58,162
0.00910,2.78250,-4.41000,0.00000,-0.01159,0.01098,-0.99162,2023,6,12,15,24,58,174
0.00920,2.99250,-4.76000,0.00000,-0.01025,0.00952,-0.99027,2023,6,12,15,24,58,185
0.00930,2.90500,-4.62000,0.00000,-0.01074,0.01366,-0.98710,2023,6,12,15,24,58,196
0.00940,2.94000,-4.81250,0.00000,-0.00964,0.01244,-0.98832,2023,6,12,15,24,58,207
0.00950,3.06250,-4.58500,0.00000,-0.00952,0.01086,-0.98613,2023,6,12,15,24,58,218
0.00960,2.85250,-4.72500,0.00000,-0.00769,0.01305,-0.98442,2023,6,12,15,24,58,229
0.00970,3.11500,-4.76000,0.00000,-0.01110,0.01122,-0.98735,2023,6,12,15,24,58,240
0.00980,2.92250,-4.41000,0.00000,-0.00927,0.01086,-0.98735,2023,6,12,15,24,58,251
0.00990,2.87000,-4.41000,0.00000,-0.00952,0.01208,-0.99003,2023,6,12,15,24,58,262
0.01000,2.83500,-4.58500,0.00000,-0.01183,0.01330,-0.98979,2023,6,12,15,24,58,274
0.01010,3.01000,-4.60250,0.00000,-0.01086,0.01220,-0.99052,2023,6,12,15,24,58,285
0.01020,2.99250,-4.53250,0.00000,-0.01025,0.00988,-0.99186,2023,6,12,15,24,58,296
0.01030,3.01000,-4.70750,0.00000,-0.00976,0.01281,-0.98979,2023,6,12,15,24,58,307
0.01040,2.83500,-4.63750,0.00000,-0.01074,0.01232,-0.98820,2023,6,12,15,24,58,318
0.01050,3.09750,-4.62000,0.00000,-0.00878,0.01257,-0.99064,2023,6,12,15,24,58,329
0.01060,3.09750,-4.69000,0.00000,-0.01074,0.01110,-0.98832,2023,6,12,15,24,58,340
0.01070,2.83500,-4.83000,0.00000,-0.00988,0.01196,-0.99015,2023,6,12,15,24,58,351
0.01080,3.09750,-4.56750,0.00000,-0.01257,0.01110,-0.98979,2023,6,12,15,24,58,362
0.01090,2.97500,-4.69000,0.00000,-0.00915,0.01122,-0.98857,2023,6,12,15,24,58,374
0.01100,3.04500,-4.48000,0.00000,-0.00964,0.01415,-0.98552,2023,6,12,15,24,58,385
0.01110,3.09750,-4.63750,0.00000,-0.00939,0.01257,-0.99003,2023,6,12,15,24,58,396
0.01120,3.15000,-4.53250,0.00000,-0.00915,0.01293,-0.99149,2023,6,12,15,24,58,407
0.01130,2.88750,-4.55000,0.00000,-0.01110,0.01232,-0.98686,2023,6,12,15,24,58,418
0.01140,2.97500,-4.74250,0.00000,-0.01086,0.01257,-0.98918,2023,6,12,15,24,58,429
0.01150,2.90500,-4.39250,0.00000,-0.01061,0.01196,-0.99015,2023,6,12,15,24,58,440
0.01160,2.81750,-4.63750,0.00000,-0.01183,0.01171,-0.98747,2023,6,12,15,24,58,451
0.01170,3.01000,-4.55000,0.00000,-0.01013,0.01269,-0.98979,2023,6,12,15,24,58,462
0.01180,2.80000,-4.56750,0.00000,-0.00939,0.01220,-0.99137,2023,6,12,15,24,58,474
0.01190,3.02750,-4.46250,0.00000,-0.01000,0.01086,-0.98857,2023,6,12,15,24,58,485
0.01200,2.88750,-4.77750,0.00000,-0.01147,0.01269,-0.98979,2023,6,12,15,24,58,496
0.01210,2.90500,-4.67250,0.00000,-0.00988,0.01183,-0.99003,2023,6,12,15,24,58,507
0.01220,3.06250,-4.63750,0.00000,-0.00952,0.01171,-0.99186,2023,6,12,15,24,58,518
0.01230,3.01000,-4.62000,0.00000,-0.00952,0.01171,-0.98698,2023,6,12,15,24,58,529
0.01240,2.87000,-4.53250,0.00000,-0.01330,0.01318,-0.99015,2023,6,12,15,24,58,540
0.01250,2.88750,-4.42750,0.00000,-0.01074,0.01061,-0.99149,2023,6,12,15,24,58,551
0.01260,2.73000,-4.63750,0.00000,-0.01147,0.01171,-0.98844,2023,6,12,15,24,58,562
0.01270,2.92250,-4.55000,0.00000,-0.01037,0.01135,-0.98564,2023,6,12,15,24,58,574
0.01280,2.88750,-4.39250,0.00000,-0.01110,0.01208,-0.98905,2023,6,12,15,24,58,585
0.01290,2.94000,-4.70750,0.00000,-0.01049,0.01171,-0.98808,2023,6,12,15,24,58,596
0.01300,2.83500,-4.67250,0.00000,-0.01257,0.01135,-0.98661,2023,6,12,15,24,58,607
0.01310,3.18500,-4.72500,0.00000,-0.01061,0.01305,-0.98893,2023,6,12,15,24,58,618
0.01320,2.90500,-4.56750,0.00000,-0.01183,0.01220,-0.98820,2023,6,12,15,24,58,629
0.01330,2.90500,-4.42750,0.00000,-0.01183,0.01171,-0.98710,2023,6,12,15,24,58,640
0.01340,2.87000,-4.60250,0.00000,-0.01147,0.01318,-0.98844,2023,6,12,15,24,58,651
0.01350,2.92250,-4.44500,0.00000,-0.01110,0.01025,-0.98796,2023,6,12,15,24,58,662
0.01360,2.95750,-4.58500,0.00000,-0.00988,0.01159,-0.99076,2023,6,12,15,24,58,674
0.01370,3.02750,-4.60250,0.00000,-0.01122,0.01061,-0.98722,2023,6,12,15,24,58,685
0.01380,2.62500,-4.53250,0.00000,-0.01061,0.01183,-0.98674,2023,6,12,15,24,58,696
0.01390,2.95750,-4.44500,0.00000,-0.01208,0.01281,-0.98844,2023,6,12,15,24,58,707
0.01400,2.78250,-4.60250,0.00000,-0.00927,0.01318,-0.99125,2023,6,12,15,24,58,718
0.01410,2.88750,-4.58500,0.00000,-0.01086,0.01257,-0.99015,2023,6,12,15,24,58,729
0.01420,3.06250,-4.60250,0.00000,-0.00903,0.01452,-0.99113,2023,6,12,15,24,58,740
0.01430,2.90500,-4.62000,0.00000,-0.00817,0.01281,-0.98759,2023,6,12,15,24,58,751
0.01440,3.08000,-4.62000,0.00000,-0.01098,0.01342,-0.98844,2023,6,12,15,24,58,762
0.01450,2.90500,-4.51500,0.00000,-0.01196,0.01403,-0.98844,2023,6,12,15,24,58,774
0.01460,2.94000,-4.49750,0.00000,-0.01098,0.01208,-0.99064,2023,6,12,15,24,58,785
0.01470,3.01000,-4.56750,0.00000,-0.01025,0.01196,-0.98661,2023,6,12,15,24,58,796
0.01480,2.80000,-4.41000,0.00000,-0.00830,0.01110,-0.98698,2023,6,12,15,24,58,807
0.01490,3.09750,-4.56750,0.00000,-0.01196,0.01196,-0.99003,2023,6,12,15,24,58,818
0.01500,3.06250,-4.56750,0.00000,-0.01061,0.01269,-0.98722,2023,6,12,15,24,58,829
0.01510,2.99250,-4.51500,0.00000,-0.01232,0.01110,-0.98905,2023,6,12,15,24,58,840
0.01520,3.02750,-4.58500,0.00000,-0.00952,0.01293,-0.99076,2023,6,12,15,24,58,851
0.01530,2.97500,-4.37500,0.00000,-0.00830,0.01122,-0.99015,2023,6,12,15,24,58,862
0.01540,2.80000,-4.84750,0.00000,-0.01025,0.01183,-0.98918,2023,6,12,15,24,58,874
0.01550,2.92250,-4.65500,0.00000,-0.00915,0.01171,-0.98930,2023,6,12,15,24,58,885
0.01560,3.02750,-4.46250,0.00000,-0.01037,0.01232,-0.98698,2023,6,12,15,24,58,896
0.01570,2.74750,-4.44500,0.00000,-0.01183,0.01440,-0.98759,2023,6,12,15,24,58,907
0.01580,2.90500,-4.48000,0.00000,-0.01049,0.01305,-0.98857,2023,6,12,15,24,58,918
0.01590,3.08000,-4.63750,0.00000,-0.01098,0.01147,-0.98905,2023,6,12,15,24,58,929
0.01600,2.87000,-4.46250,0.00000,-0.01110,0.01171,-0.98661,2023,6,12,15,24,58,940
0.01610,2.85250,-4.51500,0.00000,-0.01159,0.01098,-0.99149,2023,6,12,15,24,58,951
0.01620,2.99250,-4.70750,0.00000,-0.00927,0.01025,-0.98918,2023,6,12,15,24,58,962
0.01630,2.81750,-4.55000,0.00000,-0.01147,0.01281,-0.98771,2023,6,12,15,24,58,974
0.01640,3.15000,-4.63750,0.00000,-0.01171,0.01244,-0.99003,2023,6,12,15,24,58,985
0.01650,2.85250,-4.56750,0.00000,-0.01061,0.01330,-0.99040,2023,6,12,15,24,59,6
0.01660,3.06250,-4.83000,0.00000,-0.00939,0.01122,-0.98637,2023,6,12,15,24,59,17
0.01670,2.80000,-4.46250,0.00000,-0.01037,0.01269,-0.98844,2023,6,12,15,24,59,28
0.01680,2.90500,-4.67250,0.00000,-0.00817,0.01013,-0.98930,2023,6,12,15,24,59,39
0.01690,2.95750,-4.65500,0.00000,-0.01025,0.01122,-0.98820,2023,6,12,15,24,59,50
0.01700,2.94000,-4.53250,0.00000,-0.00952,0.01000,-0.98881,2023,6,12,15,24,59,61
0.01710,3.02750,-4.46250,0.00000,-0.01061,0.01171,-0.98942,2023,6,12,15,24,59,72
0.01720,2.81750,-4.51500,0.00000,-0.01049,0.01513,-0.98979,2023,6,12,15,24,59,84
0.01730,2.90500,-4.63750,0.00000,-0.01135,0.01269,-0.99015,2023,6,12,15,24,59,95
0.01740,2.97500,-4.65500,0.00000,-0.01098,0.01281,-0.98796,2023,6,12,15,24,59,106
0.01750,2.90500,-4.70750,0.00000,-0.01171,0.01257,-0.98759,2023,6,12,15,24,59,117
0.01760,2.87000,-4.65500,0.00000,-0.00878,0.01513,-0.98832,2023,6,12,15,24,59,128
0.01770,2.99250,-4.51500,0.00000,-0.01000,0.01257,-0.99076,2023,6,12,15,24,59,139
0.01780,2.85250,-4.88250,0.00000,-0.01086,0.01232,-0.98613,2023,6,12,15,24,59,150
0.01790,2.97500,-4.51500,0.00000,-0.00891,0.01086,-0.98918,2023,6,12,15,24,59,161
0.01800,3.16750,-4.70750,0.00000,-0.00903,0.01220,-0.98759,2023,6,12,15,24,59,172
0.01810,2.76500,-4.69000,0.00000,-0.01171,0.01415,-0.98661,2023,6,12,15,24,59,184
0.01820,3.02750,-4.35750,0.00000,-0.01171,0.01257,-0.98881,2023,6,12,15,24,59,195
0.01830,2.74750,-4.41000,0.00000,-0.01037,0.01318,-0.98905,2023,6,12,15,24,59,206
0.01840,3.13250,-4.70750,0.00000,-0.01074,0.01293,-0.98832,2023,6,12,15,24,59,217
0.01850,2.92250,-4.63750,0.00000,-0.00903,0.01281,-0.98771,2023,6,12,15,24,59,228
0.01860,2.95750,-4.49750,0.00000,-0.01135,0.01147,-0.98844,2023,6,12,15,24,59,239
0.01870,2.80000,-4.60250,0.00000,-0.01013,0.01257,-0.98857,2023,6,12,15,24,59,250
0.01880,2.78250,-4.65500,0.00000,-0.01135,0.01159,-0.98698,2023,6,12,15,24,59,261
0.01890,2.94000,-4.63750,0.00000,-0.01147,0.01013,-0.98735,2023,6,12,15,24,59,272
0.01900,2.90500,-4.69000,0.00000,-0.01000,0.01220,-0.98759,2023,6,12,15,24,59,284
0.01910,2.97500,-4.65500,0.00000,-0.00891,0.01061,-0.99003,2023,6,12,15,24,59,295
0.01920,3.01000,-4.58500,0.00000,-0.01159,0.01147,-0.99076,2023,6,12,15,24,59,306
0.01930,3.01000,-4.58500,0.00000,-0.00927,0.01232,-0.99125,2023,6,12,15,24,59,317
0.01940,2.94000,-4.58500,0.00000,-0.00891,0.01147,-0.99137,2023,6,12,15,24,59,328
0.01950,2.99250,-4.58500,0.00000,-0.00915,0.01281,-0.98966,2023,6,12,15,24,59,339
0.01960,3.08000,-4.55000,0.00000,-0.00781,0.01379,-0.99027,2023,6,12,15,24,59,350
0.01970,2.83500,-4.51500,0.00000,-0.01110,0.01135,-0.98844,2023,6,12,15,24,59,361
0.01980,2.90500,-4.42750,0.00000,-0.01122,0.01171,-0.98966,2023,6,12,15,24,59,372
0.01990,2.94000,-4.65500,0.00000,-0.00988,0.01074,-0.98759,2023,6,12,15,24,59,384
0.02000,2.87000,-4.63750,0.00000,-0.01013,0.01220,-0.98686,2023,6,12,15,24,59,395
0.02010,3.02750,-4.60250,0.00000,-0.01305,0.00952,-0.98588,2023,6,12,15,24,59,406
0.02020,2.76500,-4.70750,0.00000,-0.01110,0.01098,-0.99088,2023,6,12,15,24,59,417
0.02030,3.09750,-4.69000,0.00000,-0.01086,0.01183,-0.98918,2023,6,12,15,24,59,428
0.02040,2.85250,-4.41000,0.00000,-0.00939,0.01074,-0.98832,2023,6,12,15,24,59,439
0.02050,2.99250,-4.60250,0.00000,-0.01244,0.01232,-0.98905,2023,6,12,15,24,59,450
0.02060,2.99250,-4.65500,0.00000,-0.01049,0.01183,-0.99015,2023,6,12,15,24,59,461
0.02070,2.85250,-4.63750,0.00000,-0.01183,0.01147,-0.98820,2023,6,12,15,24,59,472
0.02080,2.87000,-4.62000,0.00000,-0.01159,0.01208,-0.99003,2023,6,12,15,24,59,484
0.02090,2.99250,-4.55000,0.00000,-0.01061,0.01452,-0.98930,2023,6,12,15,24,59,495
0.02100,3.02750,-4.79500,0.00000,-0.00988,0.01147,-0.98783,2023,6,12,15,24,59,506
0.02110,2.83500,-4.77750,0.00000,-0.00976,0.01220,-0.98991,2023,6,12,15,24,59,517
0.02120,2.81750,-4.58500,0.00000,-0.01098,0.00964,-0.98674,2023,6,12,15,24,59,528
0.02130,2.88750,-4.56750,0.00000,-0.01086,0.01220,-0.98747,2023,6,12,15,24,59,539
0.02140,2.73000,-4.39250,0.00000,-0.01098,0.01305,-0.98674,2023,6,12,15,24,59,550
0.02150,2.97500,-4.86500,0.00000,-0.01061,0.01220,-0.98759,2023,6,12,15,24,59,561
0.02160,3.01000,-4.51500,0.00000,-0.01074,0.01122,-0.98844,2023,6,12,15,24,59,572
0.02170,2.94000,-4.67250,0.00000,-0.00964,0.01269,-0.98979,2023,6,12,15,24,59,584
0.02180,3.08000,-4.48000,0.00000,-0.00891,0.01318,-0.98722,2023,6,12,15,24,59,595
0.02190,2.90500,-4.27000,0.00000,-0.01135,0.01269,-0.99027,2023,6,12,15,24,59,606
0.02200,2.80000,-4.39250,0.00000,-0.00988,0.01159,-0.98930,2023,6,12,15,24,59,617
0.02210,3.04500,-4.70750,0.00000,-0.01208,0.01379,-0.98771,2023,6,12,15,24,59,628
0.02220,2.90500,-4.60250,0.00000,-0.01000,0.01171,-0.98808,2023,6,12,15,24,59,639
0.02230,2.87000,-4.76000,0.00000,-0.00842,0.01244,-0.98674,2023,6,12,15,24,59,650
0.02240,3.13250,-4.46250,0.00000,-0.00830,0.01269,-0.98808,2023,6,12,15,24,59,661
0.02250,3.01000,-4.67250,0.00000,-0.01110,0.01110,-0.98759,2023,6,12,15,24,59,672
0.02260,2.95750,-4.62000,0.00000,-0.00817,0.01159,-0.98698,2023,6,12,15,24,59,684
0.02270,2.95750,-4.37500,0.00000,-0.01110,0.01196,-0.98686,2023,6,12,15,24,59,695
0.02280,3.01000,-4.56750,0.00000,-0.00891,0.01122,-0.98491,2023,6,12,15,24,59,706
0.02290,2.78250,-4.67250,0.00000,-0.01135,0.00976,-0.98808,2023,6,12,15,24,59,717
0.02300,2.90500,-4.41000,0.00000,-0.01147,0.01122,-0.98722,2023,6,12,15,24,59,728
0.02310,2.90500,-4.62000,0.00000,-0.01208,0.01074,-0.99064,2023,6,12,15,24,59,739
0.02320,2.92250,-4.56750,0.00000,-0.01025,0.01208,-0.98539,2023,6,12,15,24,59,750
0.02330,2.83500,-4.56750,0.00000,-0.00891,0.01281,-0.98588,2023,6,12,15,24,59,761
0.02340,2.80000,-4.48000,0.00000,-0.00842,0.01257,-0.98747,2023,6,12,15,24,59,772
0.02350,2.87000,-4.53250,0.00000,-0.01183,0.01183,-0.98613,2023,6,12,15,24,59,784
0.02360,2.95750,-4.56750,0.00000,-0.01049,0.01183,-0.98808,2023,6,12,15,24,59,795
0.02370,2.81750,-4.32250,0.00000,-0.01086,0.01305,-0.98783,2023,6,12,15,24,59,806
0.02380,2.88750,-4.76000,0.00000,-0.00952,0.01257,-0.98393,2023,6,12,15,24,59,817
0.02390,2.97500,-4.72500,0.00000,-0.01061,0.01025,-0.98722,2023,6,12,15,24,59,828
0.02400,2.97500,-4.51500,0.00000,-0.01110,0.01037,-0.98905,2023,6,12,15,24,59,839
0.02410,2.97500,-4.63750,0.00000,-0.01013,0.01147,-0.98515,2023,6,12,15,24,59,850
0.02420,2.81750,-4.39250,0.00000,-0.01122,0.01049,-0.98661,2023,6,12,15,24,59,861
0.02430,2.99250,-4.48000,0.00000,-0.01049,0.01159,-0.98625,2023,6,12,15,24,59,872
0.02440,3.04500,-4.70750,0.00000,-0.00964,0.01464,-0.98722,2023,6,12,15,24,59,884
0.02450,2.90500,-4.55000,0.00000,-0.01147,0.01208,-0.99040,2023,6,12,15,24,59,895
0.02460,2.94000,-4.58500,0.00000,-0.00695,0.01183,-0.98783,2023,6,12,15,24,59,906
0.02470,3.02750,-4.48000,0.00000,-0.01061,0.01086,-0.98796,2023,6,12,15,24,59,917
0.02480,2.88750,-4.44500,0.00000,-0.01025,0.01244,-0.98930,2023,6,12,15,24,59,928
0.02490,2.73000,-4.35750,0.00000,-0.01098,0.01135,-0.98844,2023,6,12,15,24,59,939
0.02500,3.08000,-4.48000,0.00000,-0.01061,0.01305,-0.98735,2023,6,12,15,24,59,950
0.02510,2.88750,-4.53250,0.00000,-0.00891,0.01330,-0.98808,2023,6,12,15,24,59,961
0.02520,2.92250,-4.63750,0.00000,-0.01025,0.01244,-0.98966,2023,6,12,15,24,59,972
0.02530,2.97500,-4.67250,0.00000,-0.00988,0.01196,-0.99125,2023,6,12,15,25,0,4
0.02540,2.99250,-4.76000,0.00000,-0.01147,0.01244,-0.99040,2023,6,12,15,25,0,15
0.02550,2.90500,-4.65500,0.00000,-0.01000,0.01427,-0.99186,2023,6,12,15,25,0,26
0.02560,2.94000,-4.60250,0.00000,-0.01000,0.01037,-0.98942,2023,6,12,15,25,0,37
0.02570,2.90500,-4.51500,0.00000,-0.00915,0.01159,-0.98893,2023,6,12,15,25,0,48
0.02580,2.92250,-4.65500,0.00000,-0.00903,0.01403,-0.98722,2023,6,12,15,25,0,59
0.02590,2.80000,-4.58500,0.00000,-0.01232,0.01244,-0.98747,2023,6,12,15,25,0,70
0.02600,2.80000,-4.46250,0.00000,-0.00976,0.01098,-0.98832,2023,6,12,15,25,0,81
0.02610,2.87000,-4.55000,0.00000,-0.00842,0.01244,-0.98771,2023,6,12,15,25,0,92
0.02620,2.78250,-4.41000,0.00000,-0.00952,0.01037,-0.98881,2023,6,12,15,25,0,104
0.02630,2.99250,-4.56750,0.00000,-0.00952,0.01427,-0.98698,2023,6,12,15,25,0,115
0.02640,2.78250,-4.44500,0.00000,-0.00744,0.01171,-0.99137,2023,6,12,15,25,0,126
0.02650,2.95750,-4.60250,0.00000,-0.00952,0.01269,-0.99027,2023,6,12,15,25,0,137
0.02660,3.09750,-4.65500,0.00000,-0.01013,0.01122,-0.99088,2023,6,12,15,25,0,148
0.02670,3.06250,-4.63750,0.00000,-0.01147,0.01110,-0.98942,2023,6,12,15,25,0,159
0.02680,2.78250,-4.56750,0.00000,-0.01171,0.01013,-0.98966,2023,6,12,15,25,0,170
0.02690,2.85250,-4.60250,0.00000,-0.01293,0.01244,-0.98686,2023,6,12,15,25,0,181
0.02700,2.88750,-4.49750,0.00000,-0.01135,0.01122,-0.98820,2023,6,12,15,25,0,192
0.02710,3.04500,-4.83000,0.00000,-0.01110,0.01293,-0.98905,2023,6,12,15,25,0,204
0.02720,2.90500,-4.51500,0.00000,-0.00927,0.01269,-0.98857,2023,6,12,15,25,0,215
0.02730,2.78250,-4.56750,0.00000,-0.00939,0.01391,-0.98893,2023,6,12,15,25,0,226
0.02740,3.11500,-4.76000,0.00000,-0.01074,0.01257,-0.98820,2023,6,12,15,25,0,237
0.02750,2.85250,-4.63750,0.00000,-0.01049,0.01281,-0.98844,2023,6,12,15,25,0,248
0.02760,3.11500,-4.74250,0.00000,-0.01025,0.01171,-0.98539,2023,6,12,15,25,0,259
0.02770,2.95750,-4.67250,0.00000,-0.01013,0.01257,-0.98881,2023,6,12,15,25,0,270
0.02780,2.81750,-4.69000,0.00000,-0.01196,0.01440,-0.98686,2023,6,12,15,25,0,281
0.02790,2.90500,-4.51500,0.00000,-0.00939,0.01330,-0.98637,2023,6,12,15,25,0,292
0.02800,2.95750,-4.51500,0.00000,-0.01013,0.01427,-0.98710,2023,6,12,15,25,0,304
0.02810,2.97500,-4.41000,0.00000,-0.00878,0.01318,-0.98722,2023,6,12,15,25,0,315
0.02820,2.71250,-4.48000,0.00000,-0.00915,0.01171,-0.98698,2023,6,12,15,25,0,326
0.02830,3.02750,-4.42750,0.00000,-0.01013,0.01379,-0.98857,2023,6,12,15,25,0,337
0.02840,3.25500,-4.63750,0.00000,-0.00939,0.01415,-0.99027,2023,6,12,15,25,0,348
0.02850,2.99250,-4.58500,0.00000,-0.01159,0.01025,-0.98710,2023,6,12,15,25,0,359
0.02860,2.87000,-4.44500,0.00000,-0.01086,0.01305,-0.98735,2023,6,12,15,25,0,370
0.02870,3.02750,-4.58500,0.00000,-0.00964,0.01049,-0.98747,2023,6,12,15,25,0,381
0.02880,2.94000,-4.69000,0.00000,-0.00952,0.01281,-0.98832,2023,6,12,15,25,0,392
0.02890,3.02750,-4.84750,0.00000,-0.01086,0.01342,-0.98966,2023,6,12,15,25,0,404
0.02900,2.94000,-4.81250,0.00000,-0.00976,0.01427,-0.98759,2023,6,12,15,25,0,415
0.02910,2.95750,-4.63750,0.00000,-0.01025,0.01354,-0.98771,2023,6,12,15,25,0,426
0.02920,2.80000,-4.41000,0.00000,-0.00830,0.01147,-0.98698,2023,6,12,15,25,0,437
0.02930,2.83500,-4.70750,0.00000,-0.01049,0.01147,-0.98649,2023,6,12,15,25,0,448
0.02940,2.88750,-4.39250,0.00000,-0.01171,0.01135,-0.98576,2023,6,12,15,25,0,459
0.02950,2.90500,-4.49750,0.00000,-0.00964,0.01244,-0.98844,2023,6,12,15,25,0,470
0.02960,2.95750,-4.69000,0.00000,-0.00927,0.01257,-0.98747,2023,6,12,15,25,0,481
0.02970,3.01000,-4.60250,0.00000,-0.01159,0.01269,-0.98857,2023,6,12,15,25,0,492
0.02980,3.11500,-4.51500,0.00000,-0.00939,0.01318,-0.98722,2023,6,12,15,25,0,504
0.02990,2.97500,-4.55000,0.00000,-0.01196,0.01232,-0.98735,2023,6,12,15,25,0,515
0.03000,2.99250,-4.48000,0.00000,-0.01098,0.01061,-0.98796,2023,6,12,15,25,0,526
0.03010,2.88750,-4.70750,0.00000,-0.01171,0.01147,-0.98930,2023,6,12,15,25,0,537
0.03020,2.88750,-4.67250,0.00000,-0.00903,0.01122,-0.98674,2023,6,12,15,25,0,548
0.03030,2.92250,-4.63750,0.00000,-0.00939,0.01110,-0.98735,2023,6,12,15,25,0,559
0.03040,3.06250,-4.28750,0.00000,-0.01110,0.01257,-0.98918,2023,6,12,15,25,0,570
0.03050,2.87000,-4.55000,0.00000,-0.01049,0.01171,-0.98600,2023,6,12,15,25,0,581
0.03060,2.99250,-4.67250,0.00000,-0.00927,0.01110,-0.98857,2023,6,12,15,25,0,592
0.03070,2.78250,-4.46250,0.00000,-0.00939,0.01257,-0.99027,2023,6,12,15,25,0,604
0.03080,3.15000,-4.56750,0.00000,-0.01000,0.01196,-0.98966,2023,6,12,15,25,0,615
0.03090,3.04500,-4.69000,0.00000,-0.01269,0.01342,-0.98918,2023,6,12,15,25,0,626
0.03100,2.88750,-4.27000,0.00000,-0.00952,0.01037,-0.98649,2023,6,12,15,25,0,637
0.03110,2.90500,-4.70750,0.00000,-0.01122,0.01244,-0.98857,2023,6,12,15,25,0,648
0.03120,2.95750,-4.67250,0.00000,-0.01122,0.01232,-0.98832,2023,6,12,15,25,0,659
0.03130,2.90500,-4.53250,0.00000,-0.00866,0.01269,-0.98686,2023,6,12,15,25,0,670
0.03140,2.83500,-4.51500,0.00000,-0.00903,0.01354,-0.98796,2023,6,12,15,25,0,681
0.03150,2.88750,-4.62000,0.00000,-0.00976,0.01257,-0.98832,2023,6,12,15,25,0,692
0.03160,2.78250,-4.63750,0.00000,-0.00976,0.01159,-0.98747,2023,6,12,15,25,0,704
0.03170,2.88750,-4.81250,0.00000,-0.01098,0.01049,-0.98674,2023,6,12,15,25,0,715
0.03180,3.09750,-4.69000,0.00000,-0.00830,0.01257,-0.98503,2023,6,12,15,25,0,726
0.03190,2.94000,-4.44500,0.00000,-0.00915,0.01037,-0.98674,2023,6,12,15,25,0,737
0.03200,2.94000,-4.37500,0.00000,-0.01220,0.01135,-0.98454,2023,6,12,15,25,0,748
0.03210,2.80000,-4.41000,0.00000,-0.01098,0.01305,-0.98710,2023,6,12,15,25,0,759
0.03220,2.87000,-4.46250,0.00000,-0.00878,0.01232,-0.98832,2023,6,12,15,25,0,770
0.03230,2.73000,-4.53250,0.00000,-0.01122,0.00964,-0.98893,2023,6,12,15,25,0,781
0.03240,3.01000,-4.81250,0.00000,-0.00952,0.01147,-0.98881,2023,6,12,15,25,0,792
0.03250,2.76500,-4.58500,0.00000,-0.01086,0.01269,-0.99040,2023,6,12,15,25,0,804
0.03260,2.74750,-4.51500,0.00000,-0.00878,0.01074,-0.98686,2023,6,12,15,25,0,815
0.03270,2.85250,-4.44500,0.00000,-0.00891,0.01318,-0.98515,2023,6,12,15,25,0,826
0.03280,2.97500,-4.44500,0.00000,-0.00915,0.01122,-0.98783,2023,6,12,15,25,0,837
0.03290,2.99250,-4.56750,0.00000,-0.00976,0.01110,-0.98625,2023,6,12,15,25,0,848
0.03300,2.83500,-4.53250,0.00000,-0.01122,0.01037,-0.98881,2023,6,12,15,25,0,859
0.03310,2.78250,-4.51500,0.00000,-0.01037,0.01110,-0.98783,2023,6,12,15,25,0,870
0.03320,2.97500,-4.62000,0.00000,-0.00903,0.01098,-0.98759,2023,6,12,15,25,0,881
0.03330,2.85250,-4.62000,0.00000,-0.01110,0.01244,-0.98942,2023,6,12,15,25,0,892
0.03340,2.87000,-4.53250,0.00000,-0.00903,0.01196,-0.98844,2023,6,12,15,25,0,904
0.03350,2.94000,-4.42750,0.00000,-0.01049,0.01159,-0.98771,2023,6,12,15,25,0,915
0.03360,2.99250,-4.48000,0.00000,-0.01135,0.01196,-0.98820,2023,6,12,15,25,0,926
0.03370,2.87000,-4.63750,0.00000,-0.01110,0.01122,-0.98649,2023,6,12,15,25,0,937
0.03380,2.73000,-4.44500,0.00000,-0.00878,0.01257,-0.98698,2023,6,12,15,25,0,948
0.03390,2.97500,-4.62000,0.00000,-0.01159,0.01196,-0.98722,2023,6,12,15,25,0,959
0.03400,2.99250,-4.56750,0.00000,-0.01049,0.01098,-0.98857,2023,6,12,15,25,0,970
0.03410,2.97500,-4.58500,0.00000,-0.00952,0.01269,-0.99015,2023,6,12,15,25,0,981
0.03420,2.88750,-4.67250,0.00000,-0.00866,0.01171,-0.98966,2023,6,12,15,25,0,992
0.03430,3.01000,-4.67250,0.00000,-0.00854,0.01354,-0.98966,2023,6,12,15,25,1,4
0.03440,2.94000,-4.51500,0.00000,-0.00793,0.01147,-0.99015,2023,6,12,15,25,1,15
0.03450,3.02750,-4.70750,0.00000,-0.01013,0.01135,-0.98759,2023,6,12,15,25,1,26
0.03460,2.94000,-4.62000,0.00000,-0.01196,0.01318,-0.98698,2023,6,12,15,25,1,37
0.03470,2.88750,-4.72500,0.00000,-0.00988,0.01269,-0.98869,2023,6,12,15,25,1,48
0.03480,2.74750,-4.62000,0.00000,-0.01232,0.01281,-0.98832,2023,6,12,15,25,1,59
0.03490,2.76500,-4.49750,0.00000,-0.01110,0.01110,-0.98588,2023,6,12,15,25,1,70
0.03500,2.95750,-4.35750,0.00000,-0.00952,0.01391,-0.98625,2023,6,12,15,25,1,81
0.03510,3.04500,-4.72500,0.00000,-0.00976,0.01318,-0.98613,2023,6,12,15,25,1,92
0.03520,3.09750,-4.69000,0.00000,-0.00830,0.01269,-0.98625,2023,6,12,15,25,1,104
0.03530,2.94000,-4.48000,0.00000,-0.00915,0.01183,-0.98637,2023,6,12,15,25,1,115
0.03540,2.99250,-4.67250,0.00000,-0.01061,0.01147,-0.98844,2023,6,12,15,25,1,126
0.03550,3.09750,-4.53250,0.00000,-0.01074,0.01281,-0.98637,2023,6,12,15,25,1,137
0.03560,2.85250,-4.37500,0.00000,-0.01110,0.01379,-0.98808,2023,6,12,15,25,1,148
0.03570,2.87000,-4.63750,0.00000,-0.01037,0.01049,-0.98771,2023,6,12,15,25,1,159
0.03580,2.90500,-4.44500,0.00000,-0.00878,0.01037,-0.98881,2023,6,12,15,25,1,170
0.03590,2.92250,-4.41000,0.00000,-0.00891,0.01330,-0.99052,2023,6,12,15,25,1,181
0.03600,2.90500,-4.65500,0.00000,-0.00842,0.01244,-0.98905,2023,6,12,15,25,1,192
0.03610,3.09750,-4.58500,0.00000,-0.00952,0.01257,-0.98722,2023,6,12,15,25,1,204
0.03620,2.97500,-4.44500,0.00000,-0.00830,0.01171,-0.98686,2023,6,12,15,25,1,215
0.03630,2.94000,-4.35750,0.00000,-0.01086,0.01098,-0.98600,2023,6,12,15,25,1,226
0.03640,2.90500,-4.74250,0.00000,-0.00866,0.01391,-0.98979,2023,6,12,15,25,1,237
0.03650,2.94000,-4.69000,0.00000,-0.01000,0.01196,-0.98759,2023,6,12,15,25,1,248
0.03660,2.90500,-4.67250,0.00000,-0.01086,0.01244,-0.98771,2023,6,12,15,25,1,259
0.03670,2.88750,-4.76000,0.00000,-0.01098,0.01330,-0.98747,2023,6,12,15,25,1,270
0.03680,3.02750,-4.70750,0.00000,-0.01074,0.01257,-0.98930,2023,6,12,15,25,1,281
0.03690,2.97500,-4.23500,0.00000,-0.01135,0.01257,-0.98783,2023,6,12,15,25,1,292
0.03700,2.78250,-4.51500,0.00000,-0.00793,0.01122,-0.98844,2023,6,12,15,25,1,304
0.03710,2.87000,-4.49750,0.00000,-0.01061,0.01147,-0.98735,2023,6,12,15,25,1,315
0.03720,2.74750,-4.72500,0.00000,-0.00927,0.01147,-0.98918,2023,6,12,15,25,1,326
0.03730,2.78250,-4.60250,0.00000,-0.01000,0.01318,-0.98686,2023,6,12,15,25,1,337
0.03740,3.02750,-4.76000,0.00000,-0.00878,0.01171,-0.98735,2023,6,12,15,25,1,348
0.03750,3.11500,-4.62000,0.00000,-0.01025,0.01305,-0.98783,2023,6,12,15,25,1,359
0.03760,2.90500,-4.76000,0.00000,-0.01183,0.01232,-0.98796,2023,6,12,15,25,1,370
0.03770,3.15000,-4.51500,0.00000,-0.01257,0.01183,-0.98881,2023,6,12,15,25,1,381
0.03780,2.78250,-4.46250,0.00000,-0.00842,0.01208,-0.98881,2023,6,12,15,25,1,392
0.03790,2.81750,-4.51500,0.00000,-0.00854,0.01244,-0.99052,2023,6,12,15,25,1,404
0.03800,2.74750,-4.37500,0.00000,-0.00805,0.00976,-0.98844,2023,6,12,15,25,1,415
0.03810,2.87000,-4.58500,0.00000,-0.01086,0.01183,-0.99040,2023,6,12,15,25,1,426
0.03820,2.85250,-4.46250,0.00000,-0.01098,0.01183,-0.98735,2023,6,12,15,25,1,437
0.03830,2.78250,-4.44500,0.00000,-0.01074,0.01147,-0.98991,2023,6,12,15,25,1,448
0.03840,2.73000,-4.48000,0.00000,-0.01086,0.01049,-0.98747,2023,6,12,15,25,1,459
0.03850,2.99250,-4.70750,0.00000,-0.01086,0.01086,-0.98747,2023,6,12,15,25,1,470
0.03860,2.80000,-4.55000,0.00000,-0.00915,0.01171,-0.98820,2023,6,12,15,25,1,481
0.03870,2.97500,-4.41000,0.00000,-0.01074,0.01220,-0.98991,2023,6,12,15,25,1,492
0.03880,2.95750,-4.70750,0.00000,-0.01061,0.01293,-0.98771,2023,6,12,15,25,1,504
0.03890,2.83500,-4.37500,0.00000,-0.01257,0.01440,-0.98930,2023,6,12,15,25,1,515
0.03900,2.92250,-4.70750,0.00000,-0.01122,0.01013,-0.98844,2023,6,12,15,25,1,526
0.03910,2.94000,-4.46250,0.00000,-0.00952,0.01244,-0.98759,2023,6,12,15,25,1,537
0.03920,2.85250,-4.55000,0.00000,-0.01074,0.01220,-0.98710,2023,6,12,15,25,1,548
0.03930,2.76500,-4.53250,0.00000,-0.00891,0.01305,-0.98759,2023,6,12,15,25,1,559
0.03940,2.95750,-4.51500,0.00000,-0.01061,0.01086,-0.98930,2023,6,12,15,25,1,570
0.03950,3.04500,-4.74250,0.00000,-0.01049,0.01000,-0.98881,2023,6,12,15,25,1,581
0.03960,2.94000,-4.48000,0.00000,-0.01159,0.01281,-0.98857,2023,6,12,15,25,1,592
0.03970,2.92250,-4.51500,0.00000,-0.01000,0.01098,-0.98881,2023,6,12,15,25,1,604
0.03980,2.64250,-4.39250,0.00000,-0.01086,0.01183,-0.99015,2023,6,12,15,25,1,615
0.03990,2.99250,-4.46250,0.00000,-0.00964,0.01427,-0.98527,2023,6,12,15,25,1,626
0.04000,2.83500,-4.60250,0.00000,-0.00939,0.01269,-0.98808,2023,6,12,15,25,1,637
0.04010,3.06250,-4.76000,0.00000,-0.00744,0.01305,-0.98552,2023,6,12,15,25,1,648
0.04020,2.99250,-4.58500,0.00000,-0.00854,0.01196,-0.98759,2023,6,12,15,25,1,659
0.04030,2.95750,-4.48000,0.00000,-0.00976,0.01135,-0.98710,2023,6,12,15,25,1,670
0.04040,2.97500,-4.81250,0.00000,-0.00903,0.01110,-0.98881,2023,6,12,15,25,1,681
0.04050,2.83500,-4.56750,0.00000,-0.00988,0.01220,-0.98905,2023,6,12,15,25,1,692
0.04060,2.76500,-4.35750,0.00000,-0.01013,0.01183,-0.98905,2023,6,12,15,25,1,704
0.04070,2.85250,-4.48000,0.00000,-0.01098,0.01122,-0.98942,2023,6,12,15,25,1,715
0.04080,2.81750,-4.65500,0.00000,-0.01110,0.01122,-0.99210,2023,6,12,15,25,1,726
0.04090,2.94000,-4.48000,0.00000,-0.01147,0.01257,-0.98991,2023,6,12,15,25,1,737
0.04100,2.95750,-4.53250,0.00000,-0.00988,0.01269,-0.99003,2023,6,12,15,25,1,748
0.04110,2.99250,-4.53250,0.00000,-0.00964,0.01232,-0.98637,2023,6,12,15,25,1,759
0.04120,2.99250,-4.65500,0.00000,-0.00866,0.01391,-0.99015,2023,6,12,15,25,1,770
0.04130,3.06250,-4.46250,0.00000,-0.00927,0.01110,-0.98783,2023,6,12,15,25,1,781
0.04140,2.71250,-4.42750,0.00000,-0.01074,0.01196,-0.98942,2023,6,12,15,25,1,792
0.04150,2.95750,-4.62000,0.00000,-0.00939,0.01464,-0.98857,2023,6,12,15,25,1,804
0.04160,2.88750,-4.53250,0.00000,-0.00964,0.01269,-0.98759,2023,6,12,15,25,1,815
0.04170,3.01000,-4.60250,0.00000,-0.00927,0.01330,-0.98674,2023,6,12,15,25,1,826
0.04180,2.95750,-4.44500,0.00000,-0.01098,0.01061,-0.99040,2023,6,12,15,25,1,837
0.04190,2.97500,-4.69000,0.00000,-0.01074,0.01049,-0.98649,2023,6,12,15,25,1,848
0.04200,2.83500,-4.46250,0.00000,-0.01147,0.01074,-0.98661,2023,6,12,15,25,1,859
0.04210,2.85250,-4.65500,0.00000,-0.01171,0.01086,-0.98637,2023,6,12,15,25,1,870
0.04220,2.78250,-4.56750,0.00000,-0.01013,0.01196,-0.98661,2023,6,12,15,25,1,881
0.04230,2.90500,-4.60250,0.00000,-0.01037,0.01196,-0.98844,2023,6,12,15,25,1,892
0.04240,2.95750,-4.58500,0.00000,-0.00744,0.01110,-0.98918,2023,6,12,15,25,1,904
0.04250,2.87000,-4.48000,0.00000,-0.00976,0.01293,-0.98905,2023,6,12,15,25,1,915
0.04260,2.87000,-4.76000,0.00000,-0.01025,0.01305,-0.98869,2023,6,12,15,25,1,926
0.04270,2.94000,-4.48000,0.00000,-0.00952,0.00976,-0.98735,2023,6,12,15,25,1,937
0.04280,2.90500,-4.51500,0.00000,-0.01159,0.01269,-0.98844,2023,6,12,15,25,1,948
0.04290,3.13250,-4.72500,0.00000,-0.01037,0.01086,-0.98625,2023,6,12,15,25,1,959
0.04300,3.08000,-4.20000,0.00000,-0.01049,0.01305,-0.99113,2023,6,12,15,25,1,970
0.04310,3.08000,-4.51500,0.00000,-0.01013,0.01305,-0.98613,2023,6,12,15,25,1,981
0.04320,3.09750,-4.60250,0.00000,-0.01037,0.01305,-0.98722,2023,6,12,15,25,1,992
0.04330,2.97500,-4.58500,0.00000,-0.01159,0.01318,-0.98613,2023,6,12,15,25,1,4
0.04340,2.87000,-4.55000,0.00000,-0.01061,0.01159,-0.98966,2023,6,12,15,25,2,5
0.04350,3.01000,-4.70750,0.00000,-0.00964,0.01147,-0.98783,2023,6,12,15,25,2,16
0.04360,3.04500,-4.69000,0.00000,-0.01257,0.01208,-0.98747,2023,6,12,15,25,2,27
0.04370,2.99250,-4.37500,0.00000,-0.01013,0.01220,-0.98857,2023,6,12,15,25,2,38
0.04380,2.99250,-4.46250,0.00000,-0.01000,0.01220,-0.99247,2023,6,12,15,25,2,49
0.04390,2.95750,-4.70750,0.00000,-0.00878,0.01232,-0.98710,2023,6,12,15,25,2,60
0.04400,3.02750,-4.56750,0.00000,-0.00952,0.01159,-0.98649,2023,6,12,15,25,2,71
0.04410,2.90500,-4.70750,0.00000,-0.00988,0.01171,-0.98600,2023,6,12,15,25,2,82
0.04420,2.94000,-4.44500,0.00000,-0.01330,0.01269,-0.98698,2023,6,12,15,25,2,94
0.04430,3.02750,-4.67250,0.00000,-0.00988,0.01257,-0.98686,2023,6,12,15,25,2,105
0.04440,2.97500,-4.53250,0.00000,-0.00976,0.01122,-0.99223,2023,6,12,15,25,2,116
0.04450,2.90500,-4.51500,0.00000,-0.01061,0.01208,-0.98869,2023,6,12,15,25,2,127
0.04460,2.99250,-4.62000,0.00000,-0.00964,0.01232,-0.98820,2023,6,12,15,25,2,138
0.04470,3.01000,-4.55000,0.00000,-0.01122,0.01208,-0.98674,2023,6,12,15,25,2,149
0.04480,2.73000,-4.49750,0.00000,-0.01135,0.01330,-0.99052,2023,6,12,15,25,2,160
0.04490,2.88750,-4.63750,0.00000,-0.01220,0.01013,-0.98796,2023,6,12,15,25,2,171
0.04500,2.94000,-4.69000,0.00000,-0.00927,0.01196,-0.99015,2023,6,12,15,25,2,182
0.04510,2.81750,-4.65500,0.00000,-0.00964,0.01159,-0.98735,2023,6,12,15,25,2,194
0.04520,2.94000,-4.51500,0.00000,-0.01196,0.01269,-0.99064,2023,6,12,15,25,2,205
0.04530,2.99250,-4.76000,0.00000,-0.01159,0.01208,-0.98649,2023,6,12,15,25,2,216
0.04540,3.11500,-4.60250,0.00000,-0.01037,0.01098,-0.98637,2023,6,12,15,25,2,227
0.04550,3.08000,-4.44500,0.00000,-0.00976,0.01342,-0.98735,2023,6,12,15,25,2,238
0.04560,3.09750,-4.41000,0.00000,-0.01061,0.01293,-0.99076,2023,6,12,15,25,2,249
0.04570,2.95750,-4.56750,0.00000,-0.01122,0.01025,-0.98771,2023,6,12,15,25,2,260
0.04580,3.02750,-4.72500,0.00000,-0.01135,0.01257,-0.98954,2023,6,12,15,25,2,271
0.04590,2.92250,-4.63750,0.00000,-0.00976,0.01159,-0.98625,2023,6,12,15,25,2,282
0.04600,2.81750,-4.41000,0.00000,-0.00903,0.01318,-0.98722,2023,6,12,15,25,2,294
0.04610,2.99250,-4.67250,0.00000,-0.00903,0.01293,-0.98783,2023,6,12,15,25,2,305
0.04620,2.69500,-4.49750,0.00000,-0.00866,0.01061,-0.98808,2023,6,12,15,25,2,316
0.04630,2.74750,-4.67250,0.00000,-0.00939,0.01196,-0.98759,2023,6,12,15,25,2,327
0.04640,2.85250,-4.53250,0.00000,-0.01000,0.01354,-0.98905,2023,6,12,15,25,2,338
0.04650,2.85250,-4.55000,0.00000,-0.01086,0.01074,-0.98759,2023,6,12,15,25,2,349
0.04660,2.85250,-4.49750,0.00000,-0.01074,0.01098,-0.98869,2023,6,12,15,25,2,360
0.04670,2.94000,-4.72500,0.00000,-0.01025,0.01159,-0.99052,2023,6,12,15,25,2,371
0.04680,2.76500,-4.39250,0.00000,-0.01098,0.00952,-0.98783,2023,6,12,15,25,2,382
0.04690,2.83500,-4.55000,0.00000,-0.01208,0.01086,-0.98783,2023,6,12,15,25,2,394
0.04700,2.88750,-4.53250,0.00000,-0.01000,0.01098,-0.99003,2023,6,12,15,25,2,405
0.04710,2.88750,-4.44500,0.00000,-0.01098,0.01244,-0.98918,2023,6,12,15,25,2,416
0.04720,2.90500,-4.69000,0.00000,-0.01208,0.01183,-0.99186,2023,6,12,15,25,2,427
0.04730,2.85250,-4.63750,0.00000,-0.01086,0.01159,-0.98881,2023,6,12,15,25,2,438
0.04740,3.02750,-4.67250,0.00000,-0.00988,0.01159,-0.98991,2023,6,12,15,25,2,449
0.04750,2.81750,-4.63750,0.00000,-0.01025,0.01037,-0.98881,2023,6,12,15,25,2,460
0.04760,2.94000,-4.46250,0.00000,-0.01159,0.01196,-0.98771,2023,6,12,15,25,2,471
0.04770,3.09750,-4.51500,0.00000,-0.00927,0.01232,-0.98918,2023,6,12,15,25,2,482
0.04780,2.95750,-4.63750,0.00000,-0.00964,0.01232,-0.98674,2023,6,12,15,25,2,494
0.04790,2.73000,-4.48000,0.00000,-0.01013,0.01257,-0.98832,2023,6,12,15,25,2,505
0.04800,3.01000,-4.35750,0.00000,-0.01147,0.01147,-0.98991,2023,6,12,15,25,2,516
0.04810,2.99250,-4.53250,0.00000,-0.01110,0.01281,-0.99174,2023,6,12,15,25,2,527
0.04820,2.83500,-4.74250,0.00000,-0.01037,0.01415,-0.98893,2023,6,12,15,25,2,538
0.04830,2.90500,-4.63750,0.00000,-0.00939,0.01257,-0.98881,2023,6,12,15,25,2,549
0.04840,3.01000,-4.74250,0.00000,-0.00976,0.01293,-0.99015,2023,6,12,15,25,2,560
0.04850,2.95750,-4.35750,0.00000,-0.01013,0.01171,-0.98979,2023,6,12,15,25,2,571
0.04860,2.73000,-4.65500,0.00000,-0.01074,0.01049,-0.99052,2023,6,12,15,25,2,582
0.04870,2.83500,-4.49750,0.00000,-0.01025,0.01147,-0.98783,2023,6,12,15,25,2,594
0.04880,2.69500,-4.51500,0.00000,-0.00964,0.01159,-0.98820,2023,6,12,15,25,2,605
0.04890,3.06250,-4.70750,0.00000,-0.01037,0.01196,-0.99088,2023,6,12,15,25,2,616
0.04900,2.95750,-4.53250,0.00000,-0.01061,0.00988,-0.98832,2023,6,12,15,25,2,627
0.04910,2.85250,-4.39250,0.00000,-0.01244,0.01220,-0.98966,2023,6,12,15,25,2,638
0.04920,2.90500,-4.67250,0.00000,-0.00952,0.01232,-0.99052,2023,6,12,15,25,2,649
0.04930,2.83500,-4.39250,0.00000,-0.01086,0.01208,-0.98686,2023,6,12,15,25,2,660
0.04940,2.88750,-4.62000,0.00000,-0.01269,0.01244,-0.98930,2023,6,12,15,25,2,671
0.04950,2.87000,-4.74250,0.00000,-0.01147,0.01135,-0.98820,2023,6,12,15,25,2,682
0.04960,2.94000,-4.46250,0.00000,-0.01257,0.01135,-0.98783,2023,6,12,15,25,2,694
0.04970,2.95750,-4.63750,0.00000,-0.01135,0.01183,-0.98771,2023,6,12,15,25,2,705
0.04980,3.02750,-4.60250,0.00000,-0.01013,0.01159,-0.98918,2023,6,12,15,25,2,716
0.04990,3.11500,-4.62000,0.00000,-0.01086,0.01379,-0.98893,2023,6,12,15,25,2,727
0.05000,2.90500,-4.44500,0.00000,-0.01244,0.01354,-0.98844,2023,6,12,15,25,2,738
0.05010,2.94000,-4.51500,0.00000,-0.01122,0.01159,-0.98942,2023,6,12,15,25,2,749
0.05020,2.92250,-4.56750,0.00000,-0.01281,0.01244,-0.98844,2023,6,12,15,25,2,760
0.05030,3.25500,-4.69000,0.00000,-0.00939,0.01305,-0.98808,2023,6,12,15,25,2,771
0.05040,2.95750,-4.72500,0.00000,-0.00927,0.01196,-0.98942,2023,6,12,15,25,2,782
0.05050,2.85250,-4.60250,0.00000,-0.01049,0.01086,-0.98844,2023,6,12,15,25,2,794
0.05060,2.92250,-4.67250,0.00000,-0.01037,0.01257,-0.99088,2023,6,12,15,25,2,805
0.05070,2.85250,-4.53250,0.00000,-0.00976,0.01220,-0.98722,2023,6,12,15,25,2,816
0.05080,2.81750,-4.74250,0.00000,-0.01159,0.01086,-0.98735,2023,6,12,15,25,2,827
0.05090,2.92250,-4.42750,0.00000,-0.01269,0.01159,-0.98905,2023,6,12,15,25,2,838
0.05100,2.99250,-4.58500,0.00000,-0.00988,0.01122,-0.98954,2023,6,12,15,25,2,849
0.05110,3.04500,-4.69000,0.00000,-0.01061,0.01220,-0.98881,2023,6,12,15,25,2,860
0.05120,2.85250,-4.49750,0.00000,-0.01244,0.01354,-0.98796,2023,6,12,15,25,2,871
0.05130,2.83500,-4.55000,0.00000,-0.00964,0.01196,-0.99125,2023,6,12,15,25,2,882
0.05140,3.02750,-4.90000,0.00000,-0.00988,0.01293,-0.98869,2023,6,12,15,25,2,894
0.05150,2.81750,-4.49750,0.00000,-0.01025,0.01074,-0.98930,2023,6,12,15,25,2,905
0.05160,2.90500,-4.53250,0.00000,-0.01061,0.01159,-0.98771,2023,6,12,15,25,2,916
0.05170,3.15000,-4.42750,0.00000,-0.01061,0.01379,-0.99040,2023,6,12,15,25,2,927
0.05180,2.99250,-4.62000,0.00000,-0.01013,0.01342,-0.98661,2023,6,12,15,25,2,938
0.05190,2.83500,-4.70750,0.00000,-0.01013,0.01159,-0.99040,2023,6,12,15,25,2,949
0.05200,2.87000,-4.48000,0.00000,-0.01122,0.01464,-0.98954,2023,6,12,15,25,2,960
0.05210,2.95750,-4.63750,0.00000,-0.00927,0.01147,-0.98905,2023,6,12,15,25,2,971
0.05220,2.83500,-4.55000,0.00000,-0.00988,0.01220,-0.98466,2023,6,12,15,25,3,2
0.05230,3.09750,-4.84750,0.00000,-0.01061,0.01269,-0.99052,2023,6,12,15,25,3,14
0.05240,3.08000,-4.60250,0.00000,-0.00976,0.01208,-0.99040,2023,6,12,15,25,3,25
0.05250,2.97500,-4.69000,0.00000,-0.01122,0.01281,-0.98869,2023,6,12,15,25,3,36
0.05260,2.95750,-4.53250,0.00000,-0.00915,0.01257,-0.98674,2023,6,12,15,25,3,47
0.05270,2.88750,-4.53250,0.00000,-0.01025,0.01183,-0.99149,2023,6,12,15,25,3,58
0.05280,3.01000,-4.55000,0.00000,-0.01074,0.01208,-0.99064,2023,6,12,15,25,3,69
0.05290,2.80000,-4.60250,0.00000,-0.01074,0.01098,-0.98588,2023,6,12,15,25,3,80
0.05300,2.92250,-4.58500,0.00000,-0.01000,0.01196,-0.98661,2023,6,12,15,25,3,91
0.05310,2.71250,-4.51500,0.00000,-0.01098,0.00939,-0.98832,2023,6,12,15,25,3,102
0.05320,2.94000,-4.79500,0.00000,-0.01183,0.01061,-0.98893,2023,6,12,15,25,3,114
0.05330,2.87000,-4.44500,0.00000,-0.01049,0.01196,-0.98722,2023,6,12,15,25,3,125
0.05340,2.94000,-4.65500,0.00000,-0.01244,0.01122,-0.98674,2023,6,12,15,25,3,136
0.05350,2.74750,-4.55000,0.00000,-0.01013,0.01074,-0.98857,2023,6,12,15,25,3,147
0.05360,3.01000,-4.58500,0.00000,-0.00903,0.01098,-0.98820,2023,6,12,15,25,3,158
0.05370,2.92250,-4.49750,0.00000,-0.01135,0.01354,-0.98796,2023,6,12,15,25,3,169
0.05380,2.76500,-4.35750,0.00000,-0.00964,0.01110,-0.98735,2023,6,12,15,25,3,180
0.05390,3.15000,-4.51500,0.00000,-0.01257,0.01220,-0.98893,2023,6,12,15,25,3,191
0.05400,2.97500,-4.35750,0.00000,-0.01025,0.01293,-0.99064,2023,6,12,15,25,3,202
0.05410,3.06250,-4.67250,0.00000,-0.01025,0.01171,-0.98637,2023,6,12,15,25,3,214
0.05420,2.92250,-4.60250,0.00000,-0.01037,0.01208,-0.98600,2023,6,12,15,25,3,225
0.05430,2.97500,-4.77750,0.00000,-0.00952,0.01013,-0.98722,2023,6,12,15,25,3,236
0.05440,2.88750,-4.58500,0.00000,-0.01025,0.01244,-0.98918,2023,6,12,15,25,3,247
0.05450,2.92250,-4.49750,0.00000,-0.01244,0.01305,-0.98918,2023,6,12,15,25,3,258
0.05460,3.04500,-4.48000,0.00000,-0.01049,0.01074,-0.98844,2023,6,12,15,25,3,269
0.05470,2.81750,-4.41000,0.00000,-0.01037,0.01159,-0.99064,2023,6,12,15,25,3,280
0.05480,2.74750,-4.51500,0.00000,-0.01159,0.01025,-0.98808,2023,6,12,15,25,3,291
0.05490,2.88750,-4.60250,0.00000,-0.01183,0.01281,-0.98600,2023,6,12,15,25,3,302
0.05500,2.87000,-4.56750,0.00000,-0.01037,0.01171,-0.98405,2023,6,12,15,25,3,314
0.05510,3.08000,-4.67250,0.00000,-0.01074,0.01257,-0.99040,2023,6,12,15,25,3,325
0.05520,2.74750,-4.58500,0.00000,-0.00964,0.01208,-0.98747,2023,6,12,15,25,3,336
0.05530,2.88750,-4.55000,0.00000,-0.00891,0.01196,-0.98747,2023,6,12,15,25,3,347
0.05540,3.11500,-4.37500,0.00000,-0.00952,0.01171,-0.98857,2023,6,12,15,25,3,358
0.05550,2.88750,-4.70750,0.00000,-0.01061,0.01330,-0.98710,2023,6,12,15,25,3,369
0.05560,2.81750,-4.56750,0.00000,-0.01122,0.01244,-0.98832,2023,6,12,15,25,3,380
0.05570,2.94000,-4.67250,0.00000,-0.00976,0.01196,-0.98613,2023,6,12,15,25,3,391
0.05580,3.02750,-4.77750,0.00000,-0.01366,0.01354,-0.98771,2023,6,12,15,25,3,402
0.05590,2.69500,-4.53250,0.00000,-0.01098,0.01013,-0.98686,2023,6,12,15,25,3,414
0.05600,3.08000,-4.65500,0.00000,-0.00964,0.01269,-0.98552,2023,6,12,15,25,3,425
0.05610,2.88750,-4.70750,0.00000,-0.00927,0.01318,-0.98905,2023,6,12,15,25,3,436
0.05620,2.81750,-4.58500,0.00000,-0.01147,0.01244,-0.98832,2023,6,12,15,25,3,447
0.05630,2.78250,-4.56750,0.00000,-0.01269,0.01220,-0.98649,2023,6,12,15,25,3,458
0.05640,3.08000,-4.53250,0.00000,-0.01135,0.01098,-0.98857,2023,6,12,15,25,3,469
0.05650,2.97500,-4.58500,0.00000,-0.01025,0.01049,-0.98564,2023,6,12,15,25,3,480
0.05660,2.87000,-4.41000,0.00000,-0.01049,0.01196,-0.99040,2023,6,12,15,25,3,491
0.05670,2.80000,-4.56750,0.00000,-0.01000,0.01061,-0.98759,2023,6,12,15,25,3,502
0.05680,3.08000,-4.62000,0.00000,-0.00964,0.01269,-0.98905,2023,6,12,15,25,3,514
0.05690,3.13250,-4.49750,0.00000,-0.00952,0.01232,-0.98722,2023,6,12,15,25,3,525
0.05700,2.81750,-4.58500,0.00000,-0.01086,0.01196,-0.98881,2023,6,12,15,25,3,536
0.05710,2.88750,-4.48000,0.00000,-0.00939,0.01330,-0.98844,2023,6,12,15,25,3,547
0.05720,3.09750,-4.63750,0.00000,-0.00915,0.01330,-0.98783,2023,6,12,15,25,3,558
0.05730,3.06250,-4.79500,0.00000,-0.00952,0.01342,-0.98722,2023,6,12,15,25,3,569
0.05740,2.85250,-4.27000,0.00000,-0.00952,0.01379,-0.98710,2023,6,12,15,25,3,580
0.05750,3.06250,-4.49750,0.00000,-0.01208,0.01305,-0.98991,2023,6,12,15,25,3,591
0.05760,2.94000,-4.49750,0.00000,-0.01171,0.01171,-0.98954,2023,6,12,15,25,3,602
0.05770,3.01000,-4.60250,0.00000,-0.01000,0.01171,-0.98613,2023,6,12,15,25,3,614
0.05780,3.09750,-4.65500,0.00000,-0.01049,0.01086,-0.98722,2023,6,12,15,25,3,625
0.05790,2.97500,-4.49750,0.00000,-0.00952,0.01257,-0.98722,2023,6,12,15,25,3,636
0.05800,2.94000,-4.51500,0.00000,-0.00964,0.01122,-0.98588,2023,6,12,15,25,3,647
0.05810,2.94000,-4.67250,0.00000,-0.01147,0.00952,-0.98783,2023,6,12,15,25,3,658
0.05820,2.99250,-4.60250,0.00000,-0.01110,0.01171,-0.98918,2023,6,12,15,25,3,669
0.05830,2.87000,-4.48000,0.00000,-0.01061,0.01257,-0.98735,2023,6,12,15,25,3,680
0.05840,2.92250,-4.48000,0.00000,-0.01074,0.01086,-0.98966,2023,6,12,15,25,3,691
0.05850,3.08000,-4.46250,0.00000,-0.00939,0.01122,-0.98564,2023,6,12,15,25,3,702
0.05860,2.94000,-4.46250,0.00000,-0.00964,0.01244,-0.98661,2023,6,12,15,25,3,714
0.05870,3.13250,-4.58500,0.00000,-0.00939,0.01061,-0.98942,2023,6,12,15,25,3,725
0.05880,3.11500,-4.69000,0.00000,-0.00866,0.01183,-0.98844,2023,6,12,15,25,3,736
0.05890,2.78250,-4.70750,0.00000,-0.01122,0.01305,-0.98808,2023,6,12,15,25,3,747
0.05900,2.90500,-4.46250,0.00000,-0.00830,0.01159,-0.98588,2023,6,12,15,25,3,758
0.05910,2.97500,-4.46250,0.00000,-0.00769,0.01257,-0.98686,2023,6,12,15,25,3,769
0.05920,3.02750,-4.53250,0.00000,-0.01025,0.01330,-0.98966,2023,6,12,15,25,3,780
0.05930,2.78250,-4.60250,0.00000,-0.01013,0.01330,-0.98771,2023,6,12,15,25,3,791
0.05940,2.87000,-4.35750,0.00000,-0.01025,0.01232,-0.98893,2023,6,12,15,25,3,802
0.05950,3.01000,-4.62000,0.00000,-0.00952,0.01244,-0.98783,2023,6,12,15,25,3,814
0.05960,2.87000,-4.55000,0.00000,-0.00988,0.01354,-0.99076,2023,6,12,15,25,3,825
0.05970,2.95750,-4.49750,0.00000,-0.00878,0.01208,-0.98405,2023,6,12,15,25,3,836
0.05980,2.69500,-4.77750,0.00000,-0.00952,0.01183,-0.98747,2023,6,12,15,25,3,847
0.05990,2.94000,-4.51500,0.00000,-0.00939,0.01391,-0.98698,2023,6,12,15,25,3,858
0.06000,2.99250,-4.41000,0.00000,-0.01074,0.01305,-0.98820,2023,6,12,15,25,3,869
0.06010,2.88750,-4.55000,0.00000,-0.00952,0.01220,-0.99064,2023,6,12,15,25,3,880
0.06020,2.83500,-4.60250,0.00000,-0.01037,0.01244,-0.98808,2023,6,12,15,25,3,891
0.06030,2.99250,-4.60250,0.00000,-0.01244,0.01281,-0.98869,2023,6,12,15,25,3,902
0.06040,2.92250,-4.69000,0.00000,-0.01025,0.01183,-0.98539,2023,6,12,15,25,3,914
0.06050,3.06250,-4.48000,0.00000,-0.01110,0.01379,-0.98710,2023,6,12,15,25,3,925
0.06060,2.90500,-4.69000,0.00000,-0.00964,0.01147,-0.99040,2023,6,12,15,25,3,936
0.06070,3.11500,-4.77750,0.00000,-0.00964,0.01110,-0.98869,2023,6,12,15,25,3,947
0.06080,2.83500,-4.48000,0.00000,-0.01183,0.01257,-0.98759,2023,6,12,15,25,3,958
0.06090,2.90500,-4.72500,0.00000,-0.01110,0.01208,-0.98966,2023,6,12,15,25,3,969
0.06100,2.95750,-4.56750,0.00000,-0.00927,0.01171,-0.98405,2023,6,12,15,25,4,0
0.06110,2.80000,-4.72500,0.00000,-0.01135,0.01135,-0.98600,2023,6,12,15,25,4,11
0.06120,2.92250,-4.48000,0.00000,-0.00939,0.01135,-0.98454,2023,6,12,15,25,4,22
0.06130,3.15000,-4.62000,0.00000,-0.01074,0.00939,-0.98600,2023,6,12,15,25,4,34
0.06140,2.94000,-4.42750,0.00000,-0.01074,0.01269,-0.98893,2023,6,12,15,25,4,45
0.06150,3.11500,-4.53250,0.00000,-0.00854,0.01122,-0.98796,2023,6,12,15,25,4,56
0.06160,2.95750,-4.41000,0.00000,-0.01061,0.01354,-0.98759,2023,6,12,15,25,4,67
0.06170,2.78250,-4.51500,0.00000,-0.00805,0.01281,-0.98881,2023,6,12,15,25,4,78
0.06180,2.97500,-4.42750,0.00000,-0.00964,0.01183,-0.98747,2023,6,12,15,25,4,89
0.06190,2.76500,-4.63750,0.00000,-0.01159,0.01159,-0.98588,2023,6,12,15,25,4,100
0.06200,2.90500,-4.55000,0.00000,-0.00915,0.01269,-0.98649,2023,6,12,15,25,4,111
0.06210,3.02750,-4.58500,0.00000,-0.00988,0.01305,-0.98771,2023,6,12,15,25,4,122
0.06220,2.81750,-4.55000,0.00000,-0.01013,0.01159,-0.98881,2023,6,12,15,25,4,134
0.06230,2.97500,-4.65500,0.00000,-0.01013,0.01135,-0.98539,2023,6,12,15,25,4,145
0.06240,2.92250,-4.74250,0.00000,-0.00927,0.01147,-0.98722,2023,6,12,15,25,4,156
0.06250,2.99250,-4.53250,0.00000,-0.00976,0.01293,-0.98759,2023,6,12,15,25,4,167
0.06260,2.90500,-4.63750,0.00000,-0.01147,0.01147,-0.98613,2023,6,12,15,25,4,178
0.06270,2.88750,-4.72500,0.00000,-0.01159,0.01196,-0.98454,2023,6,12,15,25,4,189
0.06280,2.92250,-4.69000,0.00000,-0.00988,0.01208,-0.98796,2023,6,12,15,25,4,200
0.06290,2.92250,-4.67250,0.00000,-0.00988,0.01244,-0.98698,2023,6,12,15,25,4,211
0.06300,3.01000,-4.63750,0.00000,-0.01025,0.01110,-0.98820,2023,6,12,15,25,4,222
0.06310,2.88750,-4.63750,0.00000,-0.01074,0.01257,-0.98661,2023,6,12,15,25,4,234
0.06320,3.01000,-4.53250,0.00000,-0.00952,0.01330,-0.98771,2023,6,12,15,25,4,245
0.06330,2.94000,-4.41000,0.00000,-0.00976,0.00952,-0.98625,2023,6,12,15,25,4,256
0.06340,2.85250,-4.67250,0.00000,-0.01183,0.01013,-0.98649,2023,6,12,15,25,4,267
0.06350,3.01000,-4.48000,0.00000,-0.01183,0.01183,-0.98710,2023,6,12,15,25,4,278
0.06360,2.74750,-4.35750,0.00000,-0.01196,0.01318,-0.98661,2023,6,12,15,25,4,289
0.06370,2.90500,-4.58500,0.00000,-0.01098,0.01342,-0.98783,2023,6,12,15,25,4,300
0.06380,2.81750,-4.39250,0.00000,-0.01147,0.01110,-0.98796,2023,6,12,15,25,4,311
0.06390,2.99250,-4.48000,0.00000,-0.00976,0.01366,-0.98649,2023,6,12,15,25,4,322
0.06400,2.80000,-4.56750,0.00000,-0.00964,0.01208,-0.98698,2023,6,12,15,25,4,334
0.06410,2.88750,-4.55000,0.00000,-0.01135,0.01122,-0.98918,2023,6,12,15,25,4,345
0.06420,2.87000,-4.51500,0.00000,-0.01098,0.01281,-0.98613,2023,6,12,15,25,4,356
0.06430,2.74750,-4.63750,0.00000,-0.01159,0.01159,-0.98747,2023,6,12,15,25,4,367
0.06440,2.76500,-4.34000,0.00000,-0.00842,0.01171,-0.98783,2023,6,12,15,25,4,378
0.06450,2.94000,-4.69000,0.00000,-0.00964,0.01183,-0.98771,2023,6,12,15,25,4,389
0.06460,2.94000,-4.60250,0.00000,-0.01013,0.01220,-0.98710,2023,6,12,15,25,4,400
0.06470,2.94000,-4.74250,0.00000,-0.01049,0.01208,-0.98783,2023,6,12,15,25,4,411
0.06480,2.87000,-4.63750,0.00000,-0.01098,0.01049,-0.98722,2023,6,12,15,25,4,422
0.06490,3.13250,-4.58500,0.00000,-0.01025,0.01305,-0.98796,2023,6,12,15,25,4,434
0.06500,2.80000,-4.53250,0.00000,-0.01086,0.01135,-0.98832,2023,6,12,15,25,4,445
0.06510,2.94000,-4.55000,0.00000,-0.01159,0.01135,-0.98454,2023,6,12,15,25,4,456
0.06520,3.02750,-4.77750,0.00000,-0.01049,0.01013,-0.98649,2023,6,12,15,25,4,467
0.06530,2.92250,-4.63750,0.00000,-0.01013,0.01110,-0.98735,2023,6,12,15,25,4,478
0.06540,3.04500,-4.56750,0.00000,-0.01074,0.01061,-0.98820,2023,6,12,15,25,4,489
0.06550,2.92250,-4.58500,0.00000,-0.01147,0.01244,-0.98930,2023,6,12,15,25,4,500
0.06560,2.92250,-4.58500,0.00000,-0.01122,0.01135,-0.98661,2023,6,12,15,25,4,511
0.06570,2.94000,-4.72500,0.00000,-0.00976,0.01220,-0.98503,2023,6,12,15,25,4,522
0.06580,2.90500,-4.60250,0.00000,-0.00976,0.01232,-0.98759,2023,6,12,15,25,4,534
0.06590,2.95750,-4.58500,0.00000,-0.01098,0.01013,-0.98796,2023,6,12,15,25,4,545
0.06600,2.94000,-4.37500,0.00000,-0.01013,0.01281,-0.98881,2023,6,12,15,25,4,556
0.06610,2.88750,-4.60250,0.00000,-0.00976,0.00952,-0.98674,2023,6,12,15,25,4,567
0.06620,2.92250,-4.58500,0.00000,-0.01037,0.01147,-0.98686,2023,6,12,15,25,4,578
0.06630,2.78250,-4.55000,0.00000,-0.00915,0.01183,-0.98759,2023,6,12,15,25,4,589
0.06640,2.97500,-4.55000,0.00000,-0.01159,0.01293,-0.98466,2023,6,12,15,25,4,600
0.06650,2.87000,-4.77750,0.00000,-0.00939,0.01354,-0.98808,2023,6,12,15,25,4,611
0.06660,3.02750,-4.62000,0.00000,-0.01196,0.01147,-0.98686,2023,6,12,15,25,4,622
0.06670,2.90500,-4.60250,0.00000,-0.00939,0.01342,-0.98600,2023,6,12,15,25,4,634
0.06680,3.11500,-4.72500,0.00000,-0.01208,0.01086,-0.98954,2023,6,12,15,25,4,645
0.06690,2.99250,-4.53250,0.00000,-0.01074,0.01000,-0.98686,2023,6,12,15,25,4,656
0.06700,2.95750,-4.62000,0.00000,-0.01013,0.01098,-0.98527,2023,6,12,15,25,4,667
0.06710,3.06250,-4.60250,0.00000,-0.00891,0.01013,-0.99015,2023,6,12,15,25,4,678
0.06720,2.90500,-4.34000,0.00000,-0.01244,0.01013,-0.98893,2023,6,12,15,25,4,689
0.06730,2.85250,-4.56750,0.00000,-0.01098,0.01183,-0.98686,2023,6,12,15,25,4,700
0.06740,3.06250,-4.44500,0.00000,-0.01086,0.01318,-0.98735,2023,6,12,15,25,4,711
0.06750,2.92250,-4.49750,0.00000,-0.01159,0.01208,-0.98600,2023,6,12,15,25,4,722
0.06760,2.90500,-4.62000,0.00000,-0.00988,0.01354,-0.98759,2023,6,12,15,25,4,734
0.06770,2.92250,-4.60250,0.00000,-0.01013,0.01391,-0.98649,2023,6,12,15,25,4,745
0.06780,2.85250,-4.60250,0.00000,-0.00964,0.01171,-0.98686,2023,6,12,15,25,4,756
0.06790,3.01000,-4.79500,0.00000,-0.01208,0.01257,-0.98954,2023,6,12,15,25,4,767
0.06800,2.99250,-4.65500,0.00000,-0.00854,0.01220,-0.98747,2023,6,12,15,25,4,778
0.06810,2.87000,-4.56750,0.00000,-0.01122,0.01208,-0.98832,2023,6,12,15,25,4,789
0.06820,2.85250,-4.53250,0.00000,-0.00769,0.01305,-0.98918,2023,6,12,15,25,4,800
0.06830,2.90500,-4.44500,0.00000,-0.01000,0.01415,-0.98698,2023,6,12,15,25,4,811
0.06840,3.01000,-4.74250,0.00000,-0.01171,0.01220,-0.98661,2023,6,12,15,25,4,822
0.06850,2.95750,-4.44500,0.00000,-0.01110,0.01208,-0.99064,2023,6,12,15,25,4,834
0.06860,2.73000,-4.63750,0.00000,-0.01196,0.01330,-0.98735,2023,6,12,15,25,4,845
0.06870,2.95750,-4.55000,0.00000,-0.00988,0.01183,-0.98771,2023,6,12,15,25,4,856
0.06880,2.90500,-4.62000,0.00000,-0.01000,0.00988,-0.98698,2023,6,12,15,25,4,867
0.06890,2.71250,-4.32250,0.00000,-0.01135,0.01183,-0.98759,2023,6,12,15,25,4,878
0.06900,2.97500,-4.39250,0.00000,-0.01208,0.01305,-0.98918,2023,6,12,15,25,4,889
0.06910,2.78250,-4.74250,0.00000,-0.01098,0.01196,-0.98503,2023,6,12,15,25,4,900
0.06920,2.92250,-4.53250,0.00000,-0.00756,0.01074,-0.98649,2023,6,12,15,25,4,911
0.06930,3.01000,-4.58500,0.00000,-0.00976,0.01086,-0.98674,2023,6,12,15,25,4,922
0.06940,2.76500,-4.44500,0.00000,-0.01013,0.01220,-0.98881,2023,6,12,15,25,4,934
0.06950,3.08000,-4.67250,0.00000,-0.01147,0.01086,-0.98454,2023,6,12,15,25,4,945
0.06960,2.92250,-4.70750,0.00000,-0.01159,0.01208,-0.98759,2023,6,12,15,25,4,956
0.06970,2.99250,-4.55000,0.00000,-0.01013,0.01293,-0.98503,2023,6,12,15,25,4,967
0.06980,3.04500,-4.60250,0.00000,-0.00817,0.01305,-0.98759,2023,6,12,15,25,4,978
0.06990,2.88750,-4.55000,0.00000,-0.00964,0.01061,-0.98515,2023,6,12,15,25,4,989
0.07000,3.01000,-4.58500,0.00000,-0.01220,0.01293,-0.98979,2023,6,12,15,25,4,0
0.07010,2.95750,-4.58500,0.00000,-0.01086,0.01147,-0.98759,2023,6,12,15,25,5,1
0.07020,3.11500,-4.51500,0.00000,-0.00854,0.01208,-0.98759,2023,6,12,15,25,5,12
0.07030,2.94000,-4.60250,0.00000,-0.01110,0.01196,-0.98710,2023,6,12,15,25,5,24
0.07040,2.94000,-4.58500,0.00000,-0.01147,0.01208,-0.98649,2023,6,12,15,25,5,35
0.07050,2.78250,-4.65500,0.00000,-0.01183,0.01342,-0.98710,2023,6,12,15,25,5,46
0.07060,3.02750,-4.60250,0.00000,-0.01074,0.01049,-0.98576,2023,6,12,15,25,5,57
0.07070,2.76500,-4.56750,0.00000,-0.00866,0.01135,-0.98600,2023,6,12,15,25,5,68
0.07080,2.90500,-4.42750,0.00000,-0.01086,0.01257,-0.98747,2023,6,12,15,25,5,79
0.07090,3.13250,-4.55000,0.00000,-0.01220,0.01110,-0.98552,2023,6,12,15,25,5,90
0.07100,2.83500,-4.44500,0.00000,-0.00927,0.01318,-0.99088,2023,6,12,15,25,5,101
0.07110,2.92250,-4.49750,0.00000,-0.01074,0.01244,-0.98771,2023,6,12,15,25,5,112
0.07120,3.01000,-4.58500,0.00000,-0.01013,0.01183,-0.98661,2023,6,12,15,25,5,124
0.07130,2.95750,-4.65500,0.00000,-0.00976,0.01257,-0.98417,2023,6,12,15,25,5,135
0.07140,2.94000,-4.56750,0.00000,-0.01135,0.01318,-0.98564,2023,6,12,15,25,5,146
0.07150,2.94000,-4.39250,0.00000,-0.00976,0.01220,-0.98491,2023,6,12,15,25,5,157
0.07160,3.04500,-4.58500,0.00000,-0.00952,0.01391,-0.98747,2023,6,12,15,25,5,168
0.07170,2.94000,-4.42750,0.00000,-0.01049,0.01086,-0.98796,2023,6,12,15,25,5,179
0.07180,2.95750,-4.62000,0.00000,-0.00915,0.01074,-0.98600,2023,6,12,15,25,5,190
0.07190,2.88750,-4.60250,0.00000,-0.01061,0.01000,-0.98686,2023,6,12,15,25,5,201
0.07200,2.88750,-4.70750,0.00000,-0.01061,0.01257,-0.98783,2023,6,12,15,25,5,212
0.07210,2.83500,-4.35750,0.00000,-0.01074,0.01110,-0.98771,2023,6,12,15,25,5,224
0.07220,3.02750,-4.56750,0.00000,-0.00964,0.01574,-0.99027,2023,6,12,15,25,5,235
0.07230,3.18500,-4.49750,0.00000,-0.01171,0.01196,-0.98674,2023,6,12,15,25,5,246
0.07240,2.94000,-4.76000,0.00000,-0.00988,0.01208,-0.98808,2023,6,12,15,25,5,257
0.07250,2.87000,-4.56750,0.00000,-0.00878,0.01281,-0.98661,2023,6,12,15,25,5,268
0.07260,2.85250,-4.42750,0.00000,-0.01135,0.01122,-0.98735,2023,6,12,15,25,5,279
0.07270,2.81750,-4.53250,0.00000,-0.01098,0.01135,-0.98600,2023,6,12,15,25,5,290
0.07280,2.90500,-4.41000,0.00000,-0.00939,0.01196,-0.98625,2023,6,12,15,25,5,301
0.07290,3.08000,-4.39250,0.00000,-0.01098,0.01183,-0.98771,2023,6,12,15,25,5,312
0.07300,2.97500,-4.48000,0.00000,-0.01220,0.01159,-0.99088,2023,6,12,15,25,5,324
0.07310,2.90500,-4.60250,0.00000,-0.01074,0.01183,-0.98881,2023,6,12,15,25,5,335
0.07320,3.06250,-4.44500,0.00000,-0.00866,0.00854,-0.99003,2023,6,12,15,25,5,346
0.07330,2.83500,-4.67250,0.00000,-0.01049,0.01159,-0.98759,2023,6,12,15,25,5,357
0.07340,2.99250,-4.77750,0.00000,-0.01171,0.01391,-0.98759,2023,6,12,15,25,5,368
0.07350,2.87000,-4.53250,0.00000,-0.00952,0.01122,-0.98930,2023,6,12,15,25,5,379
0.07360,2.90500,-4.42750,0.00000,-0.01220,0.01122,-0.98661,2023,6,12,15,25,5,390
0.07370,2.83500,-4.55000,0.00000,-0.01013,0.01305,-0.98515,2023,6,12,15,25,5,401
0.07380,2.83500,-4.42750,0.00000,-0.01110,0.01305,-0.99003,2023,6,12,15,25,5,412
0.07390,2.66000,-4.49750,0.00000,-0.01183,0.01135,-0.99064,2023,6,12,15,25,5,424
0.07400,2.99250,-4.49750,0.00000,-0.00927,0.01208,-0.98954,2023,6,12,15,25,5,435
0.07410,2.99250,-4.42750,0.00000,-0.01086,0.01122,-0.98613,2023,6,12,15,25,5,446
0.07420,2.78250,-4.48000,0.00000,-0.01244,0.01293,-0.98552,2023,6,12,15,25,5,457
0.07430,2.95750,-4.72500,0.00000,-0.00830,0.01122,-0.98478,2023,6,12,15,25,5,468
0.07440,2.87000,-4.41000,0.00000,-0.01025,0.01269,-0.98735,2023,6,12,15,25,5,479
0.07450,2.95750,-4.55000,0.00000,-0.01110,0.01208,-0.98820,2023,6,12,15,25,5,490
0.07460,2.99250,-4.53250,0.00000,-0.00915,0.01330,-0.98722,2023,6,12,15,25,5,501
0.07470,2.83500,-4.53250,0.00000,-0.00988,0.01354,-0.98942,2023,6,12,15,25,5,512
0.07480,2.92250,-4.56750,0.00000,-0.01196,0.01110,-0.98552,2023,6,12,15,25,5,524
0.07490,3.02750,-4.53250,0.00000,-0.00866,0.01086,-0.98515,2023,6,12,15,25,5,535
0.07500,2.94000,-4.65500,0.00000,-0.01135,0.01147,-0.98686,2023,6,12,15,25,5,546
0.07510,3.09750,-4.90000,0.00000,-0.00878,0.01061,-0.98442,2023,6,12,15,25,5,557
0.07520,2.95750,-4.60250,0.00000,-0.01061,0.01269,-0.98857,2023,6,12,15,25,5,568
0.07530,2.99250,-4.58500,0.00000,-0.01049,0.01098,-0.98979,2023,6,12,15,25,5,579
0.07540,3.04500,-4.60250,0.00000,-0.00976,0.01440,-0.98869,2023,6,12,15,25,5,590
0.07550,2.95750,-4.62000,0.00000,-0.00927,0.01476,-0.98661,2023,6,12,15,25,5,601
0.07560,2.90500,-4.53250,0.00000,-0.00866,0.01281,-0.98698,2023,6,12,15,25,5,612
0.07570,2.87000,-4.74250,0.00000,-0.01086,0.01257,-0.98698,2023,6,12,15,25,5,624
0.07580,2.95750,-4.79500,0.00000,-0.00988,0.01257,-0.98613,2023,6,12,15,25,5,635
0.07590,2.88750,-4.53250,0.00000,-0.01135,0.01086,-0.98539,2023,6,12,15,25,5,646
0.07600,3.06250,-4.53250,0.00000,-0.00842,0.01305,-0.98613,2023,6,12,15,25,5,657
0.07610,2.87000,-4.63750,0.00000,-0.01110,0.01074,-0.98979,2023,6,12,15,25,5,668
0.07620,3.06250,-4.51500,0.00000,-0.01098,0.01232,-0.98576,2023,6,12,15,25,5,679
0.07630,2.90500,-4.42750,0.00000,-0.01159,0.01305,-0.98344,2023,6,12,15,25,5,690
0.07640,3.06250,-4.51500,0.00000,-0.00988,0.01135,-0.98759,2023,6,12,15,25,5,701
0.07650,2.90500,-4.65500,0.00000,-0.01147,0.01135,-0.98722,2023,6,12,15,25,5,712
0.07660,2.99250,-4.42750,0.00000,-0.01037,0.01354,-0.98954,2023,6,12,15,25,5,724
0.07670,2.90500,-4.56750,0.00000,-0.01147,0.01330,-0.98625,2023,6,12,15,25,5,735
0.07680,2.92250,-4.69000,0.00000,-0.01086,0.01196,-0.98722,2023,6,12,15,25,5,746
0.07690,2.76500,-4.58500,0.00000,-0.00964,0.01110,-0.98698,2023,6,12,15,25,5,757
0.07700,2.88750,-4.48000,0.00000,-0.01000,0.01196,-0.98759,2023,6,12,15,25,5,768
0.07710,3.04500,-4.41000,0.00000,-0.00878,0.01366,-0.98527,2023,6,12,15,25,5,779
0.07720,2.94000,-4.51500,0.00000,-0.01074,0.01244,-0.98759,2023,6,12,15,25,5,790
0.07730,2.87000,-4.44500,0.00000,-0.01061,0.01135,-0.98869,2023,6,12,15,25,5,801
0.07740,2.87000,-4.58500,0.00000,-0.00988,0.01269,-0.98722,2023,6,12,15,25,5,812
0.07750,2.87000,-4.55000,0.00000,-0.00927,0.01452,-0.98722,2023,6,12,15,25,5,824
0.07760,2.92250,-4.69000,0.00000,-0.01110,0.01232,-0.98503,2023,6,12,15,25,5,835
0.07770,2.97500,-4.53250,0.00000,-0.00939,0.01135,-0.98735,2023,6,12,15,25,5,846
0.07780,2.92250,-4.70750,0.00000,-0.00988,0.01305,-0.98771,2023,6,12,15,25,5,857
0.07790,2.87000,-4.46250,0.00000,-0.01013,0.00976,-0.98686,2023,6,12,15,25,5,868
0.07800,2.90500,-4.58500,0.00000,-0.00854,0.01159,-0.98796,2023,6,12,15,25,5,879
0.07810,2.78250,-4.55000,0.00000,-0.01147,0.01171,-0.98564,2023,6,12,15,25,5,890
0.07820,2.83500,-4.49750,0.00000,-0.01122,0.01269,-0.98881,2023,6,12,15,25,5,901
0.07830,2.87000,-4.35750,0.00000,-0.00915,0.01318,-0.98747,2023,6,12,15,25,5,912
0.07840,2.97500,-4.58500,0.00000,-0.01074,0.01232,-0.98637,2023,6,12,15,25,5,924
0.07850,3.01000,-4.60250,0.00000,-0.01061,0.01122,-0.98613,2023,6,12,15,25,5,935
0.07860,2.95750,-4.34000,0.00000,-0.01086,0.01452,-0.98625,2023,6,12,15,25,5,946
0.07870,2.87000,-4.44500,0.00000,-0.01159,0.01098,-0.98478,2023,6,12,15,25,5,957
0.07880,2.78250,-4.55000,0.00000,-0.00793,0.01147,-0.98686,2023,6,12,15,25,5,968
0.07890,3.04500,-4.60250,0.00000,-0.01061,0.01293,-0.98430,2023,6,12,15,25,6,9
0.07900,2.83500,-4.51500,0.00000,-0.01379,0.01586,-0.98759,2023,6,12,15,25,6,20
0.07910,2.97500,-4.77750,0.00000,-0.01025,0.01220,-0.98918,2023,6,12,15,25,6,31
0.07920,2.83500,-4.44500,0.00000,-0.00854,0.01257,-0.98722,2023,6,12,15,25,6,42
0.07930,2.80000,-4.76000,0.00000,-0.01074,0.01281,-0.98625,2023,6,12,15,25,6,54
0.07940,3.04500,-4.55000,0.00000,-0.00903,0.01403,-0.98796,2023,6,12,15,25,6,65
0.07950,2.95750,-4.72500,0.00000,-0.00866,0.01049,-0.98771,2023,6,12,15,25,6,76
0.07960,2.88750,-4.51500,0.00000,-0.01171,0.01183,-0.98857,2023,6,12,15,25,6,87
0.07970,2.88750,-4.58500,0.00000,-0.01037,0.01391,-0.98942,2023,6,12,15,25,6,98
0.07980,2.73000,-4.51500,0.00000,-0.00952,0.01147,-0.98564,2023,6,12,15,25,6,109
0.07990,2.88750,-4.44500,0.00000,-0.00988,0.01391,-0.98893,2023,6,12,15,25,6,120
0.08000,2.95750,-4.63750,0.00000,-0.01122,0.01354,-0.98722,2023,6,12,15,25,6,131
0.08010,3.15000,-4.79500,0.00000,-0.00988,0.01318,-0.98783,2023,6,12,15,25,6,142
0.08020,2.97500,-4.56750,0.00000,-0.01110,0.01110,-0.98771,2023,6,12,15,25,6,154
0.08030,2.74750,-4.55000,0.00000,-0.00866,0.01305,-0.98783,2023,6,12,15,25,6,165
0.08040,2.85250,-4.48000,0.00000,-0.01000,0.01330,-0.98869,2023,6,12,15,25,6,176
0.08050,2.99250,-4.56750,0.00000,-0.00976,0.01171,-0.98417,2023,6,12,15,25,6,187
0.08060,2.97500,-4.67250,0.00000,-0.00817,0.01269,-0.98808,2023,6,12,15,25,6,198
0.08070,2.95750,-4.53250,0.00000,-0.01061,0.01305,-0.98869,2023,6,12,15,25,6,209
0.08080,2.83500,-4.58500,0.00000,-0.01074,0.01232,-0.98710,2023,6,12,15,25,6,220
0.08090,2.92250,-4.77750,0.00000,-0.01208,0.01220,-0.98698,2023,6,12,15,25,6,231
0.08100,2.83500,-4.60250,0.00000,-0.01135,0.01342,-0.99003,2023,6,12,15,25,6,242
0.08110,2.92250,-4.46250,0.00000,-0.01074,0.01403,-0.98405,2023,6,12,15,25,6,254
0.08120,2.85250,-4.62000,0.00000,-0.01061,0.01208,-0.98735,2023,6,12,15,25,6,265
0.08130,2.88750,-4.81250,0.00000,-0.01037,0.01427,-0.99064,2023,6,12,15,25,6,276
0.08140,3.02750,-4.62000,0.00000,-0.01000,0.01366,-0.98320,2023,6,12,15,25,6,287
0.08150,2.95750,-4.69000,0.00000,-0.01037,0.01257,-0.98759,2023,6,12,15,25,6,298
0.08160,2.99250,-4.49750,0.00000,-0.00927,0.01281,-0.98832,2023,6,12,15,25,6,309
0.08170,3.01000,-4.63750,0.00000,-0.00878,0.01122,-0.98625,2023,6,12,15,25,6,320
0.08180,2.97500,-4.65500,0.00000,-0.00891,0.01159,-0.98820,2023,6,12,15,25,6,331
0.08190,3.11500,-4.70750,0.00000,-0.01025,0.01318,-0.98844,2023,6,12,15,25,6,342
0.08200,2.90500,-4.56750,0.00000,-0.00854,0.01220,-0.98527,2023,6,12,15,25,6,354
0.08210,2.90500,-4.27000,0.00000,-0.01049,0.01110,-0.98783,2023,6,12,15,25,6,365
0.08220,2.95750,-4.51500,0.00000,-0.00732,0.01196,-0.98588,2023,6,12,15,25,6,376
0.08230,2.95750,-4.44500,0.00000,-0.00964,0.01049,-0.98515,2023,6,12,15,25,6,387
0.08240,2.78250,-4.67250,0.00000,-0.00952,0.01098,-0.98747,2023,6,12,15,25,6,398
0.08250,2.94000,-4.51500,0.00000,-0.00976,0.01257,-0.98710,2023,6,12,15,25,6,409
0.08260,3.06250,-4.74250,0.00000,-0.01159,0.01122,-0.98942,2023,6,12,15,25,6,420
0.08270,3.02750,-4.69000,0.00000,-0.00927,0.01391,-0.98661,2023,6,12,15,25,6,431
0.08280,3.08000,-4.74250,0.00000,-0.00927,0.01208,-0.98698,2023,6,12,15,25,6,442
0.08290,2.94000,-4.28750,0.00000,-0.00952,0.01147,-0.98649,2023,6,12,15,25,6,454
0.08300,2.87000,-4.46250,0.00000,-0.00952,0.01171,-0.98783,2023,6,12,15,25,6,465
0.08310,2.87000,-4.53250,0.00000,-0.01061,0.01257,-0.98844,2023,6,12,15,25,6,476
0.08320,2.78250,-4.37500,0.00000,-0.01000,0.01220,-0.98722,2023,6,12,15,25,6,487
0.08330,2.87000,-4.42750,0.00000,-0.01074,0.01171,-0.98588,2023,6,12,15,25,6,498
0.08340,2.95750,-4.49750,0.00000,-0.00952,0.01122,-0.98454,2023,6,12,15,25,6,509
0.08350,2.92250,-4.65500,0.00000,-0.00988,0.01196,-0.98844,2023,6,12,15,25,6,520
0.08360,2.97500,-4.62000,0.00000,-0.00891,0.01464,-0.98796,2023,6,12,15,25,6,531
0.08370,2.92250,-4.55000,0.00000,-0.00952,0.01379,-0.98783,2023,6,12,15,25,6,542
0.08380,2.83500,-4.63750,0.00000,-0.01098,0.01159,-0.98478,2023,6,12,15,25,6,554
0.08390,2.97500,-4.83000,0.00000,-0.01110,0.01220,-0.98735,2023,6,12,15,25,6,565
0.08400,2.90500,-4.32250,0.00000,-0.01074,0.01208,-0.98722,2023,6,12,15,25,6,576
0.08410,2.87000,-4.48000,0.00000,-0.01171,0.01293,-0.98686,2023,6,12,15,25,6,587
0.08420,3.08000,-4.56750,0.00000,-0.00915,0.01281,-0.98747,2023,6,12,15,25,6,598
0.08430,3.01000,-4.53250,0.00000,-0.01110,0.01391,-0.99040,2023,6,12,15,25,6,609
0.08440,2.85250,-4.62000,0.00000,-0.01257,0.01342,-0.98759,2023,6,12,15,25,6,620
0.08450,2.81750,-4.51500,0.00000,-0.01074,0.01183,-0.98771,2023,6,12,15,25,6,631
0.08460,2.76500,-4.56750,0.00000,-0.01196,0.01269,-0.98796,2023,6,12,15,25,6,642
0.08470,2.87000,-4.63750,0.00000,-0.01293,0.01135,-0.98881,2023,6,12,15,25,6,654
0.08480,2.99250,-4.48000,0.00000,-0.00854,0.01122,-0.98808,2023,6,12,15,25,6,665
0.08490,2.95750,-4.65500,0.00000,-0.00988,0.01379,-0.98539,2023,6,12,15,25,6,676
0.08500,3.04500,-4.83000,0.00000,-0.01147,0.01305,-0.98686,2023,6,12,15,25,6,687
0.08510,2.90500,-4.32250,0.00000,-0.01013,0.01293,-0.98722,2023,6,12,15,25,6,698
0.08520,2.87000,-4.72500,0.00000,-0.01013,0.01110,-0.98808,2023,6,12,15,25,6,709
0.08530,2.85250,-4.58500,0.00000,-0.00988,0.01208,-0.98808,2023,6,12,15,25,6,720
0.08540,2.94000,-4.58500,0.00000,-0.00988,0.01183,-0.98698,2023,6,12,15,25,6,731
0.08550,2.83500,-4.41000,0.00000,-0.00964,0.01037,-0.98600,2023,6,12,15,25,6,742
0.08560,2.95750,-4.56750,0.00000,-0.01025,0.01318,-0.98393,2023,6,12,15,25,6,754
0.08570,3.02750,-4.65500,0.00000,-0.01122,0.01147,-0.98771,2023,6,12,15,25,6,765
0.08580,2.76500,-4.51500,0.00000,-0.01183,0.01232,-0.98930,2023,6,12,15,25,6,776
0.08590,2.85250,-4.35750,0.00000,-0.00939,0.01147,-0.98832,2023,6,12,15,25,6,787
0.08600,3.04500,-4.70750,0.00000,-0.01025,0.01232,-0.98796,2023,6,12,15,25,6,798
0.08610,2.92250,-4.56750,0.00000,-0.01257,0.01037,-0.98552,2023,6,12,15,25,6,809
0.08620,3.11500,-4.77750,0.00000,-0.00964,0.01318,-0.98808,2023,6,12,15,25,6,820
0.08630,2.92250,-4.58500,0.00000,-0.00903,0.01342,-0.98491,2023,6,12,15,25,6,831
0.08640,2.81750,-4.49750,0.00000,-0.01037,0.01122,-0.98674,2023,6,12,15,25,6,842
0.08650,2.99250,-4.67250,0.00000,-0.00976,0.01391,-0.98771,2023,6,12,15,25,6,854
0.08660,2.87000,-4.58500,0.00000,-0.01305,0.01220,-0.98649,2023,6,12,15,25,6,865
0.08670,3.01000,-4.55000,0.00000,-0.01025,0.01281,-0.98783,2023,6,12,15,25,6,876
0.08680,2.83500,-4.65500,0.00000,-0.00756,0.00964,-0.98405,2023,6,12,15,25,6,887
0.08690,2.94000,-4.62000,0.00000,-0.01074,0.01330,-0.98661,2023,6,12,15,25,6,898
0.08700,2.94000,-4.55000,0.00000,-0.01171,0.01269,-0.98735,2023,6,12,15,25,6,909
0.08710,2.76500,-4.62000,0.00000,-0.01086,0.01427,-0.98918,2023,6,12,15,25,6,920
0.08720,2.97500,-4.35750,0.00000,-0.01074,0.01293,-0.98674,2023,6,12,15,25,6,931
0.08730,2.94000,-4.39250,0.00000,-0.01183,0.00903,-0.98674,2023,6,12,15,25,6,942
0.08740,2.67750,-4.34000,0.00000,-0.01147,0.01013,-0.98661,2023,6,12,15,25,6,954
0.08750,2.74750,-4.56750,0.00000,-0.01013,0.01354,-0.98674,2023,6,12,15,25,6,965
0.08760,2.87000,-4.39250,0.00000,-0.00891,0.01293,-0.98796,2023,6,12,15,25,6,976
0.08770,2.97500,-4.49750,0.00000,-0.00964,0.01415,-0.98674,2023,6,12,15,25,6,987
0.08780,2.85250,-4.46250,0.00000,-0.00732,0.01110,-0.99113,2023,6,12,15,25,7,8
0.08790,2.90500,-4.41000,0.00000,-0.01183,0.01342,-0.98600,2023,6,12,15,25,7,19
0.08800,2.87000,-4.56750,0.00000,-0.01086,0.01196,-0.98491,2023,6,12,15,25,7,30
0.08810,2.95750,-4.63750,0.00000,-0.01000,0.01440,-0.98857,2023,6,12,15,25,7,41
0.08820,2.95750,-4.62000,0.00000,-0.01000,0.01293,-0.98600,2023,6,12,15,25,7,52
0.08830,2.99250,-4.56750,0.00000,-0.01074,0.01037,-0.98527,2023,6,12,15,25,7,64
0.08840,3.04500,-4.56750,0.00000,-0.00964,0.01232,-0.98686,2023,6,12,15,25,7,75
0.08850,3.11500,-4.58500,0.00000,-0.01037,0.01330,-0.98613,2023,6,12,15,25,7,86
0.08860,3.02750,-4.56750,0.00000,-0.01208,0.01086,-0.98710,2023,6,12,15,25,7,97
0.08870,2.95750,-4.60250,0.00000,-0.00927,0.01354,-0.98564,2023,6,12,15,25,7,108
0.08880,3.06250,-4.65500,0.00000,-0.01061,0.01147,-0.98857,2023,6,12,15,25,7,119
0.08890,3.08000,-4.48000,0.00000,-0.00781,0.01305,-0.98759,2023,6,12,15,25,7,130
0.08900,3.04500,-4.62000,0.00000,-0.01013,0.01427,-0.98686,2023,6,12,15,25,7,141
0.08910,2.99250,-4.65500,0.00000,-0.00988,0.01293,-0.98857,2023,6,12,15,25,7,152
0.08920,2.90500,-4.53250,0.00000,-0.01122,0.01208,-0.98881,2023,6,12,15,25,7,164
0.08930,2.76500,-4.51500,0.00000,-0.01171,0.01220,-0.98661,2023,6,12,15,25,7,175
0.08940,2.78250,-4.62000,0.00000,-0.01061,0.01269,-0.99210,2023,6,12,15,25,7,186
0.08950,2.99250,-4.63750,0.00000,-0.01049,0.01232,-0.98857,2023,6,12,15,25,7,197
0.08960,2.94000,-4.58500,0.00000,-0.00964,0.01257,-0.98979,2023,6,12,15,25,7,208
0.08970,2.95750,-4.65500,0.00000,-0.01049,0.01403,-0.98918,2023,6,12,15,25,7,219
0.08980,2.87000,-4.46250,0.00000,-0.01086,0.01086,-0.98930,2023,6,12,15,25,7,230
0.08990,2.99250,-4.62000,0.00000,-0.01074,0.01366,-0.98613,2023,6,12,15,25,7,241
0.09000,3.06250,-4.83000,0.00000,-0.00854,0.01403,-0.98893,2023,6,12,15,25,7,252
0.09010,2.95750,-4.44500,0.00000,-0.00952,0.01025,-0.98698,2023,6,12,15,25,7,264
0.09020,3.02750,-4.65500,0.00000,-0.00964,0.01342,-0.98661,2023,6,12,15,25,7,275
0.09030,2.92250,-4.56750,0.00000,-0.00817,0.01342,-0.98552,2023,6,12,15,25,7,286
0.09040,2.92250,-4.39250,0.00000,-0.01037,0.01159,-0.98954,2023,6,12,15,25,7,297
0.09050,2.95750,-4.42750,0.00000,-0.00964,0.01196,-0.98674,2023,6,12,15,25,7,308
0.09060,3.01000,-4.65500,0.00000,-0.01135,0.01183,-0.98686,2023,6,12,15,25,7,319
0.09070,2.94000,-4.51500,0.00000,-0.01159,0.01122,-0.98783,2023,6,12,15,25,7,330
0.09080,2.85250,-4.72500,0.00000,-0.01061,0.00988,-0.98539,2023,6,12,15,25,7,341
0.09090,2.83500,-4.56750,0.00000,-0.01074,0.01110,-0.98686,2023,6,12,15,25,7,352
0.09100,2.95750,-4.55000,0.00000,-0.00952,0.01269,-0.98808,2023,6,12,15,25,7,364
0.09110,2.99250,-4.65500,0.00000,-0.01159,0.01110,-0.98893,2023,6,12,15,25,7,375
0.09120,2.94000,-4.83000,0.00000,-0.01147,0.01061,-0.98503,2023,6,12,15,25,7,386
0.09130,2.81750,-4.48000,0.00000,-0.00927,0.01135,-0.98625,2023,6,12,15,25,7,397
0.09140,2.76500,-4.49750,0.00000,-0.01037,0.01061,-0.98686,2023,6,12,15,25,7,408
0.09150,2.95750,-4.63750,0.00000,-0.01049,0.01488,-0.98808,2023,6,12,15,25,7,419
0.09160,2.80000,-4.55000,0.00000,-0.01086,0.01342,-0.98613,2023,6,12,15,25,7,430
0.09170,2.66000,-4.46250,0.00000,-0.01000,0.01330,-0.98796,2023,6,12,15,25,7,441
0.09180,3.09750,-4.65500,0.00000,-0.01074,0.01013,-0.98905,2023,6,12,15,25,7,452
0.09190,2.92250,-4.60250,0.00000,-0.00915,0.00976,-0.98722,2023,6,12,15,25,7,464
0.09200,2.99250,-4.55000,0.00000,-0.00952,0.01147,-0.98649,2023,6,12,15,25,7,475
0.09210,2.87000,-4.67250,0.00000,-0.01037,0.01318,-0.99088,2023,6,12,15,25,7,486
0.09220,2.90500,-4.63750,0.00000,-0.01000,0.01244,-0.98942,2023,6,12,15,25,7,497
0.09230,2.95750,-4.58500,0.00000,-0.00744,0.01110,-0.98674,2023,6,12,15,25,7,508
0.09240,2.97500,-4.69000,0.00000,-0.00854,0.01086,-0.98576,2023,6,12,15,25,7,519
0.09250,2.88750,-4.46250,0.00000,-0.01086,0.01305,-0.98637,2023,6,12,15,25,7,530
0.09260,2.92250,-4.70750,0.00000,-0.01049,0.01293,-0.99125,2023,6,12,15,25,7,541
0.09270,2.87000,-4.37500,0.00000,-0.00903,0.01183,-0.98600,2023,6,12,15,25,7,552
0.09280,2.92250,-4.58500,0.00000,-0.00988,0.01208,-0.98844,2023,6,12,15,25,7,564
0.09290,2.73000,-4.56750,0.00000,-0.01257,0.01281,-0.98759,2023,6,12,15,25,7,575
0.09300,3.06250,-4.48000,0.00000,-0.00976,0.01208,-0.98686,2023,6,12,15,25,7,586
0.09310,2.92250,-4.49750,0.00000,-0.00952,0.01171,-0.98771,2023,6,12,15,25,7,597
0.09320,2.92250,-4.49750,0.00000,-0.01110,0.01122,-0.98857,2023,6,12,15,25,7,608
0.09330,2.83500,-4.62000,0.00000,-0.00952,0.01305,-0.98539,2023,6,12,15,25,7,619
0.09340,2.71250,-4.69000,0.00000,-0.01220,0.01037,-0.98759,2023,6,12,15,25,7,630
0.09350,2.80000,-4.53250,0.00000,-0.00988,0.01061,-0.98722,2023,6,12,15,25,7,641
0.09360,2.92250,-4.27000,0.00000,-0.01025,0.01257,-0.98796,2023,6,12,15,25,7,652
0.09370,3.02750,-4.63750,0.00000,-0.00915,0.01061,-0.98771,2023,6,12,15,25,7,664
0.09380,2.92250,-4.46250,0.00000,-0.01171,0.01049,-0.98747,2023,6,12,15,25,7,675
0.09390,2.94000,-4.72500,0.00000,-0.01086,0.01086,-0.98832,2023,6,12,15,25,7,686
0.09400,2.81750,-4.51500,0.00000,-0.00915,0.01232,-0.99003,2023,6,12,15,25,7,697
0.09410,2.83500,-4.37500,0.00000,-0.01049,0.01086,-0.98722,2023,6,12,15,25,7,708
0.09420,2.92250,-4.51500,0.00000,-0.01013,0.01244,-0.98369,2023,6,12,15,25,7,719
0.09430,2.81750,-4.51500,0.00000,-0.01110,0.01098,-0.98857,2023,6,12,15,25,7,730
0.09440,2.85250,-4.41000,0.00000,-0.01110,0.01183,-0.98844,2023,6,12,15,25,7,741
0.09450,3.01000,-4.60250,0.00000,-0.00952,0.01342,-0.98686,2023,6,12,15,25,7,752
0.09460,2.95750,-4.63750,0.00000,-0.01061,0.01269,-0.98637,2023,6,12,15,25,7,764
0.09470,2.92250,-4.55000,0.00000,-0.00976,0.01122,-0.98832,2023,6,12,15,25,7,775
0.09480,2.67750,-4.63750,0.00000,-0.01208,0.01342,-0.99027,2023,6,12,15,25,7,786
0.09490,2.87000,-4.46250,0.00000,-0.00842,0.01147,-0.98808,2023,6,12,15,25,7,797
0.09500,3.23750,-4.60250,0.00000,-0.01013,0.01244,-0.98625,2023,6,12,15,25,7,808
0.09510,2.88750,-4.69000,0.00000,-0.00952,0.01403,-0.98796,2023,6,12,15,25,7,819
0.09520,3.06250,-4.49750,0.00000,-0.01147,0.01305,-0.98588,2023,6,12,15,25,7,830
0.09530,2.92250,-4.76000,0.00000,-0.01061,0.01061,-0.98771,2023,6,12,15,25,7,841
0.09540,2.87000,-4.51500,0.00000,-0.00964,0.01391,-0.98783,2023,6,12,15,25,7,852
0.09550,3.15000,-4.65500,0.00000,-0.01086,0.01220,-0.98991,2023,6,12,15,25,7,864
0.09560,2.76500,-4.55000,0.00000,-0.00976,0.01110,-0.98478,2023,6,12,15,25,7,875
0.09570,3.13250,-4.62000,0.00000,-0.01086,0.01330,-0.98722,2023,6,12,15,25,7,886
0.09580,3.09750,-4.79500,0.00000,-0.01122,0.01110,-0.98869,2023,6,12,15,25,7,897
0.09590,2.87000,-4.60250,0.00000,-0.01049,0.01183,-0.98893,2023,6,12,15,25,7,908
0.09600,2.80000,-4.46250,0.00000,-0.00915,0.01147,-0.98747,2023,6,12,15,25,7,919
0.09610,2.74750,-4.65500,0.00000,-0.01013,0.01025,-0.98783,2023,6,12,15,25,7,930
0.09620,2.80000,-4.46250,0.00000,-0.00976,0.01208,-0.98808,2023,6,12,15,25,7,941
0.09630,2.92250,-4.60250,0.00000,-0.01220,0.01293,-0.98759,2023,6,12,15,25,7,952
0.09640,2.80000,-4.56750,0.00000,-0.00976,0.01171,-0.98808,2023,6,12,15,25,7,964
0.09650,2.74750,-4.48000,0.00000,-0.01061,0.01196,-0.98869,2023,6,12,15,25,7,975
0.09660,2.88750,-4.55000,0.00000,-0.01061,0.01318,-0.98820,2023,6,12,15,25,8,6
0.09670,3.01000,-4.74250,0.00000,-0.01098,0.01281,-0.98979,2023,6,12,15,25,8,17
0.09680,2.73000,-4.65500,0.00000,-0.00988,0.01171,-0.98722,2023,6,12,15,25,8,28
0.09690,2.97500,-4.44500,0.00000,-0.01196,0.01354,-0.98857,2023,6,12,15,25,8,39
0.09700,2.90500,-4.53250,0.00000,-0.00964,0.01147,-0.99052,2023,6,12,15,25,8,50
0.09710,2.92250,-4.53250,0.00000,-0.01086,0.01122,-0.98869,2023,6,12,15,25,8,61
0.09720,3.06250,-4.55000,0.00000,-0.01061,0.01098,-0.98710,2023,6,12,15,25,8,72
0.09730,2.81750,-4.41000,0.00000,-0.00939,0.01074,-0.98979,2023,6,12,15,25,8,84
0.09740,2.85250,-4.79500,0.00000,-0.00988,0.01220,-0.98625,2023,6,12,15,25,8,95
0.09750,3.04500,-4.44500,0.00000,-0.01074,0.01196,-0.98820,2023,6,12,15,25,8,106
0.09760,2.81750,-4.63750,0.00000,-0.01013,0.01171,-0.99113,2023,6,12,15,25,8,117
0.09770,3.02750,-4.56750,0.00000,-0.01147,0.01220,-0.99162,2023,6,12,15,25,8,128
0.09780,3.02750,-4.67250,0.00000,-0.01135,0.01232,-0.98857,2023,6,12,15,25,8,139
0.09790,2.85250,-4.35750,0.00000,-0.00939,0.01122,-0.98613,2023,6,12,15,25,8,150
0.09800,2.94000,-4.51500,0.00000,-0.01025,0.01257,-0.98832,2023,6,12,15,25,8,161
0.09810,2.97500,-4.70750,0.00000,-0.01098,0.01098,-0.98954,2023,6,12,15,25,8,172
0.09820,2.85250,-4.53250,0.00000,-0.01049,0.01147,-0.99052,2023,6,12,15,25,8,184
0.09830,2.97500,-4.51500,0.00000,-0.00988,0.01305,-0.98661,2023,6,12,15,25,8,195
0.09840,2.90500,-4.55000,0.00000,-0.00964,0.01037,-0.98844,2023,6,12,15,25,8,206
0.09850,2.88750,-4.55000,0.00000,-0.01025,0.01354,-0.99015,2023,6,12,15,25,8,217
0.09860,2.99250,-4.56750,0.00000,-0.01061,0.01196,-0.98735,2023,6,12,15,25,8,228
0.09870,2.99250,-4.60250,0.00000,-0.01122,0.01208,-0.98991,2023,6,12,15,25,8,239
0.09880,2.97500,-4.58500,0.00000,-0.00866,0.01159,-0.98857,2023,6,12,15,25,8,250
0.09890,2.99250,-4.55000,0.00000,-0.00988,0.01281,-0.98869,2023,6,12,15,25,8,261
0.09900,3.06250,-4.48000,0.00000,-0.01013,0.01049,-0.98698,2023,6,12,15,25,8,272
0.09910,3.04500,-4.44500,0.00000,-0.01147,0.01183,-0.98832,2023,6,12,15,25,8,284
0.09920,2.88750,-4.67250,0.00000,-0.01122,0.01122,-0.98869,2023,6,12,15,25,8,295
0.09930,3.02750,-4.46250,0.00000,-0.01049,0.01159,-0.98674,2023,6,12,15,25,8,306
0.09940,2.94000,-4.60250,0.00000,-0.01000,0.01049,-0.98466,2023,6,12,15,25,8,317
0.09950,2.97500,-4.49750,0.00000,-0.01074,0.01196,-0.98759,2023,6,12,15,25,8,328
0.09960,3.04500,-4.62000,0.00000,-0.00854,0.01025,-0.98783,2023,6,12,15,25,8,339
0.09970,2.76500,-4.44500,0.00000,-0.01037,0.01281,-0.98966,2023,6,12,15,25,8,350
0.09980,2.99250,-4.63750,0.00000,-0.01037,0.01220,-0.98820,2023,6,12,15,25,8,361
0.09990,2.97500,-4.41000,0.00000,-0.00939,0.01183,-0.99003,2023,6,12,15,25,8,372
0.10000,2.80000,-4.51500,0.00000,-0.01025,0.01147,-0.98796,2023,6,12,15,25,8,384
0.10010,2.87000,-4.34000,0.00000,-0.01110,0.01196,-0.98979,2023,6,12,15,25,8,395
0.10020,3.04500,-4.62000,0.00000,-0.01196,0.01098,-0.98649,2023,6,12,15,25,8,406
0.10030,2.83500,-4.56750,0.00000,-0.00988,0.01354,-0.98808,2023,6,12,15,25,8,417
0.10040,2.67750,-4.39250,0.00000,-0.00793,0.01220,-0.98637,2023,6,12,15,25,8,428
0.10050,2.73000,-4.42750,0.00000,-0.00842,0.01122,-0.98832,2023,6,12,15,25,8,439
0.10060,2.90500,-4.62000,0.00000,-0.01074,0.01183,-0.98771,2023,6,12,15,25,8,450
0.10070,3.01000,-4.62000,0.00000,-0.00927,0.01244,-0.99125,2023,6,12,15,25,8,461
0.10080,3.20250,-4.56750,0.00000,-0.01183,0.01196,-0.99101,2023,6,12,15,25,8,472
0.10090,2.95750,-4.58500,0.00000,-0.00939,0.01183,-0.98942,2023,6,12,15,25,8,484
0.10100,2.85250,-4.62000,0.00000,-0.01171,0.01110,-0.99027,2023,6,12,15,25,8,495
0.10110,2.87000,-4.37500,0.00000,-0.01086,0.01098,-0.98783,2023,6,12,15,25,8,506
0.10120,2.99250,-4.42750,0.00000,-0.01086,0.01208,-0.99113,2023,6,12,15,25,8,517
0.10130,2.94000,-4.37500,0.00000,-0.00964,0.01391,-0.99040,2023,6,12,15,25,8,528
0.10140,3.02750,-4.56750,0.00000,-0.01061,0.01183,-0.98698,2023,6,12,15,25,8,539
0.10150,2.92250,-4.55000,0.00000,-0.01061,0.01305,-0.98771,2023,6,12,15,25,8,550
0.10160,2.90500,-4.65500,0.00000,-0.01122,0.01232,-0.98710,2023,6,12,15,25,8,561
0.10170,3.01000,-4.69000,0.00000,-0.01025,0.01257,-0.98881,2023,6,12,15,25,8,572
0.10180,3.08000,-4.63750,0.00000,-0.01025,0.01183,-0.99064,2023,6,12,15,25,8,584
0.10190,3.04500,-4.58500,0.00000,-0.01049,0.01415,-0.98930,2023,6,12,15,25,8,595
0.10200,3.04500,-4.41000,0.00000,-0.01208,0.01232,-0.99015,2023,6,12,15,25,8,606
0.10210,2.99250,-4.60250,0.00000,-0.00915,0.01122,-0.98942,2023,6,12,15,25,8,617
0.10220,2.90500,-4.70750,0.00000,-0.00866,0.01318,-0.98881,2023,6,12,15,25,8,628
0.10230,2.92250,-4.62000,0.00000,-0.00842,0.01122,-0.98942,2023,6,12,15,25,8,639
0.10240,2.90500,-4.72500,0.00000,-0.01330,0.01183,-0.98930,2023,6,12,15,25,8,650
0.10250,2.94000,-4.56750,0.00000,-0.01025,0.01135,-0.98857,2023,6,12,15,25,8,661
0.10260,2.76500,-4.60250,0.00000,-0.00952,0.01232,-0.99015,2023,6,12,15,25,8,672
0.10270,3.04500,-4.44500,0.00000,-0.00891,0.01135,-0.98625,2023,6,12,15,25,8,684
0.10280,2.92250,-4.60250,0.00000,-0.00915,0.01403,-0.98783,2023,6,12,15,25,8,695
0.10290,2.80000,-4.58500,0.00000,-0.00939,0.01305,-0.99027,2023,6,12,15,25,8,706
0.10300,2.92250,-4.65500,0.00000,-0.01037,0.01086,-0.98808,2023,6,12,15,25,8,717
0.10310,3.08000,-4.84750,0.00000,-0.01110,0.01171,-0.99088,2023,6,12,15,25,8,728
0.10320,2.83500,-4.39250,0.00000,-0.00964,0.01122,-0.98966,2023,6,12,15,25,8,739
0.10330,3.04500,-4.65500,0.00000,-0.00939,0.00988,-0.98893,2023,6,12,15,25,8,750
0.10340,2.88750,-4.65500,0.00000,-0.00988,0.01196,-0.98735,2023,6,12,15,25,8,761
0.10350,2.83500,-4.65500,0.00000,-0.01049,0.01269,-0.98637,2023,6,12,15,25,8,772
0.10360,2.83500,-4.55000,0.00000,-0.01232,0.01330,-0.98710,2023,6,12,15,25,8,784
0.10370,2.88750,-4.67250,0.00000,-0.00878,0.01122,-0.98674,2023,6,12,15,25,8,795
0.10380,2.99250,-4.53250,0.00000,-0.01086,0.01061,-0.98832,2023,6,12,15,25,8,806
0.10390,3.02750,-4.58500,0.00000,-0.00964,0.01110,-0.98661,2023,6,12,15,25,8,817
0.10400,2.92250,-4.51500,0.00000,-0.01122,0.01549,-0.98747,2023,6,12,15,25,8,828
0.10410,2.78250,-4.48000,0.00000,-0.01196,0.01171,-0.98552,2023,6,12,15,25,8,839
0.10420,3.08000,-4.58500,0.00000,-0.01147,0.01159,-0.99137,2023,6,12,15,25,8,850
0.10430,2.95750,-4.49750,0.00000,-0.01135,0.01269,-0.99003,2023,6,12,15,25,8,861
0.10440,2.99250,-4.56750,0.00000,-0.01037,0.01232,-0.98722,2023,6,12,15,25,8,872
0.10450,2.85250,-4.58500,0.00000,-0.01086,0.01244,-0.99088,2023,6,12,15,25,8,884
0.10460,3.01000,-4.69000,0.00000,-0.01183,0.01281,-0.98698,2023,6,12,15,25,8,895
0.10470,2.92250,-4.58500,0.00000,-0.01147,0.01183,-0.98747,2023,6,12,15,25,8,906
0.10480,3.04500,-4.81250,0.00000,-0.01147,0.01098,-0.98893,2023,6,12,15,25,8,917
0.10490,2.90500,-4.58500,0.00000,-0.01074,0.01208,-0.99101,2023,6,12,15,25,8,928
0.10500,2.74750,-4.51500,0.00000,-0.01013,0.01220,-0.98918,2023,6,12,15,25,8,939
0.10510,2.95750,-4.49750,0.00000,-0.01025,0.01232,-0.98503,2023,6,12,15,25,8,950
0.10520,3.02750,-4.62000,0.00000,-0.01086,0.01232,-0.98674,2023,6,12,15,25,8,961
0.10530,3.04500,-4.58500,0.00000,-0.01086,0.01464,-0.99015,2023,6,12,15,25,8,972
0.10540,3.01000,-4.35750,0.00000,-0.00988,0.01159,-0.98735,2023,6,12,15,25,8,984
0.10550,2.78250,-4.55000,0.00000,-0.01098,0.01061,-0.98918,2023,6,12,15,25,9,5
0.10560,2.85250,-4.53250,0.00000,-0.01013,0.01293,-0.98686,2023,6,12,15,25,9,16
0.10570,2.92250,-4.63750,0.00000,-0.01171,0.01147,-0.98686,2023,6,12,15,25,9,27
0.10580,3.08000,-4.63750,0.00000,-0.01061,0.01098,-0.98735,2023,6,12,15,25,9,38
0.10590,2.92250,-4.49750,0.00000,-0.01049,0.01330,-0.99088,2023,6,12,15,25,9,49
0.10600,3.02750,-4.55000,0.00000,-0.00976,0.01257,-0.98905,2023,6,12,15,25,9,60
0.10610,2.99250,-4.69000,0.00000,-0.01159,0.01171,-0.98539,2023,6,12,15,25,9,71
0.10620,2.85250,-4.63750,0.00000,-0.00781,0.01183,-0.98905,2023,6,12,15,25,9,82
0.10630,2.88750,-4.44500,0.00000,-0.00781,0.01135,-0.98649,2023,6,12,15,25,9,94
0.10640,2.81750,-4.60250,0.00000,-0.01281,0.01269,-0.98759,2023,6,12,15,25,9,105
0.10650,2.83500,-4.55000,0.00000,-0.00964,0.01110,-0.98966,2023,6,12,15,25,9,116
0.10660,2.92250,-4.51500,0.00000,-0.00964,0.01318,-0.98674,2023,6,12,15,25,9,127
0.10670,2.95750,-4.83000,0.00000,-0.01171,0.01379,-0.98527,2023,6,12,15,25,9,138
0.10680,2.85250,-4.58500,0.00000,-0.01000,0.01379,-0.98832,2023,6,12,15,25,9,149
0.10690,2.90500,-4.53250,0.00000,-0.00952,0.01061,-0.98796,2023,6,12,15,25,9,160
0.10700,3.08000,-4.39250,0.00000,-0.01025,0.01232,-0.98893,2023,6,12,15,25,9,171
0.10710,2.85250,-4.44500,0.00000,-0.01110,0.01196,-0.99076,2023,6,12,15,25,9,182
0.10720,2.95750,-4.48000,0.00000,-0.00939,0.01476,-0.98966,2023,6,12,15,25,9,194
0.10730,2.85250,-4.65500,0.00000,-0.01305,0.01147,-0.98552,2023,6,12,15,25,9,205
0.10740,2.90500,-4.72500,0.00000,-0.01086,0.01086,-0.98820,2023,6,12,15,25,9,216
0.10750,2.87000,-4.63750,0.00000,-0.01061,0.01183,-0.99125,2023,6,12,15,25,9,227
0.10760,2.97500,-4.56750,0.00000,-0.00842,0.01244,-0.98674,2023,6,12,15,25,9,238
0.10770,2.94000,-4.74250,0.00000,-0.01025,0.01110,-0.98832,2023,6,12,15,25,9,249
0.10780,2.74750,-4.48000,0.00000,-0.01074,0.01159,-0.98942,2023,6,12,15,25,9,260
0.10790,2.90500,-4.39250,0.00000,-0.01013,0.01196,-0.99137,2023,6,12,15,25,9,271
0.10800,3.15000,-4.65500,0.00000,-0.01037,0.01196,-0.98759,2023,6,12,15,25,9,282
0.10810,2.80000,-4.41000,0.00000,-0.01269,0.01183,-0.98832,2023,6,12,15,25,9,294
0.10820,2.83500,-4.58500,0.00000,-0.00964,0.01232,-0.98918,2023,6,12,15,25,9,305
0.10830,3.08000,-4.77750,0.00000,-0.01171,0.01366,-0.98930,2023,6,12,15,25,9,316
0.10840,2.94000,-4.72500,0.00000,-0.01049,0.01257,-0.98722,2023,6,12,15,25,9,327
0.10850,2.99250,-4.70750,0.00000,-0.01098,0.01257,-0.99113,2023,6,12,15,25,9,338
0.10860,2.99250,-4.56750,0.00000,-0.01086,0.01415,-0.98832,2023,6,12,15,25,9,349
0.10870,2.85250,-4.62000,0.00000,-0.01208,0.01281,-0.98820,2023,6,12,15,25,9,360
0.10880,2.80000,-4.63750,0.00000,-0.01086,0.01220,-0.98893,2023,6,12,15,25,9,371
0.10890,2.85250,-4.44500,0.00000,-0.01098,0.01232,-0.99174,2023,6,12,15,25,9,382
0.10900,2.81750,-4.42750,0.00000,-0.01415,0.01257,-0.98710,2023,6,12,15,25,9,394
0.10910,2.85250,-4.49750,0.00000,-0.01037,0.01244,-0.98893,2023,6,12,15,25,9,405
0.10920,2.99250,-4.62000,0.00000,-0.00976,0.01281,-0.98808,2023,6,12,15,25,9,416
0.10930,3.01000,-4.67250,0.00000,-0.01049,0.01244,-0.98600,2023,6,12,15,25,9,427
0.10940,3.04500,-4.60250,0.00000,-0.01305,0.01147,-0.98478,2023,6,12,15,25,9,438
0.10950,2.81750,-4.49750,0.00000,-0.00878,0.01122,-0.98820,2023,6,12,15,25,9,449
0.10960,2.87000,-4.42750,0.00000,-0.01135,0.01049,-0.98796,2023,6,12,15,25,9,460
0.10970,2.97500,-4.70750,0.00000,-0.01013,0.01159,-0.98393,2023,6,12,15,25,9,471
0.10980,2.94000,-4.76000,0.00000,-0.00830,0.01305,-0.98710,2023,6,12,15,25,9,482
0.10990,2.97500,-4.60250,0.00000,-0.01037,0.01281,-0.98979,2023,6,12,15,25,9,494
0.11000,2.88750,-4.39250,0.00000,-0.00976,0.01293,-0.98796,2023,6,12,15,25,9,505
0.11010,3.02750,-4.63750,0.00000,-0.00988,0.01281,-0.98637,2023,6,12,15,25,9,516
0.11020,2.88750,-4.81250,0.00000,-0.00964,0.01171,-0.99040,2023,6,12,15,25,9,527
0.11030,2.78250,-4.46250,0.00000,-0.01049,0.01318,-0.98979,2023,6,12,15,25,9,538
0.11040,3.06250,-4.41000,0.00000,-0.00915,0.01257,-0.98674,2023,6,12,15,25,9,549
0.11050,3.11500,-4.62000,0.00000,-0.01025,0.01086,-0.98759,2023,6,12,15,25,9,560
0.11060,3.01000,-4.65500,0.00000,-0.01208,0.01366,-0.98918,2023,6,12,15,25,9,571
0.11070,2.71250,-4.37500,0.00000,-0.01000,0.01098,-0.98930,2023,6,12,15,25,9,582
0.11080,2.76500,-4.60250,0.00000,-0.01061,0.01013,-0.98674,2023,6,12,15,25,9,594
0.11090,2.76500,-4.56750,0.00000,-0.00927,0.01098,-0.99003,2023,6,12,15,25,9,605
0.11100,2.97500,-4.18250,0.00000,-0.00976,0.01147,-0.98576,2023,6,12,15,25,9,616
0.11110,2.88750,-4.67250,0.00000,-0.00988,0.01220,-0.98783,2023,6,12,15,25,9,627
0.11120,2.95750,-4.58500,0.00000,-0.01049,0.01342,-0.98942,2023,6,12,15,25,9,638
0.11130,2.95750,-4.62000,0.00000,-0.00964,0.01171,-0.98832,2023,6,12,15,25,9,649
0.11140,2.94000,-4.63750,0.00000,-0.01013,0.01220,-0.98747,2023,6,12,15,25,9,660
0.11150,2.95750,-4.65500,0.00000,-0.01244,0.01220,-0.98710,2023,6,12,15,25,9,671
0.11160,2.94000,-4.56750,0.00000,-0.01220,0.01171,-0.98759,2023,6,12,15,25,9,682
0.11170,2.95750,-4.60250,0.00000,-0.00891,0.01232,-0.98771,2023,6,12,15,25,9,694
0.11180,2.97500,-4.63750,0.00000,-0.00903,0.01196,-0.98783,2023,6,12,15,25,9,705
0.11190,2.83500,-4.76000,0.00000,-0.01122,0.01293,-0.98979,2023,6,12,15,25,9,716
0.11200,2.81750,-4.62000,0.00000,-0.00939,0.01171,-0.99125,2023,6,12,15,25,9,727
0.11210,3.01000,-4.70750,0.00000,-0.01049,0.01061,-0.98552,2023,6,12,15,25,9,738
0.11220,2.90500,-4.58500,0.00000,-0.01013,0.01281,-0.98771,2023,6,12,15,25,9,749
0.11230,2.99250,-4.65500,0.00000,-0.01110,0.01183,-0.98844,2023,6,12,15,25,9,760
0.11240,2.97500,-4.58500,0.00000,-0.00903,0.01257,-0.98625,2023,6,12,15,25,9,771
0.11250,2.90500,-4.49750,0.00000,-0.00903,0.01208,-0.98979,2023,6,12,15,25,9,782
0.11260,2.83500,-4.53250,0.00000,-0.00915,0.01281,-0.98930,2023,6,12,15,25,9,794
0.11270,3.02750,-4.34000,0.00000,-0.00939,0.01281,-0.98783,2023,6,12,15,25,9,805
0.11280,3.08000,-4.70750,0.00000,-0.00952,0.00927,-0.98588,2023,6,12,15,25,9,816
0.11290,2.76500,-4.69000,0.00000,-0.00988,0.01220,-0.98832,2023,6,12,15,25,9,827
0.11300,2.81750,-4.48000,0.00000,-0.01074,0.01244,-0.98698,2023,6,12,15,25,9,838
0.11310,2.97500,-4.53250,0.00000,-0.01074,0.01183,-0.98674,2023,6,12,15,25,9,849
0.11320,2.95750,-4.60250,0.00000,-0.00939,0.01037,-0.98857,2023,6,12,15,25,9,860
0.11330,2.92250,-4.72500,0.00000,-0.00952,0.01318,-0.98527,2023,6,12,15,25,9,871
0.11340,2.95750,-4.72500,0.00000,-0.01061,0.01208,-0.98979,2023,6,12,15,25,9,882
0.11350,2.88750,-4.49750,0.00000,-0.00891,0.01147,-0.98661,2023,6,12,15,25,9,894
0.11360,2.83500,-4.63750,0.00000,-0.01196,0.00988,-0.98869,2023,6,12,15,25,9,905
0.11370,3.01000,-4.91750,0.00000,-0.01135,0.01183,-0.98905,2023,6,12,15,25,9,916
0.11380,2.92250,-4.58500,0.00000,-0.00891,0.01244,-0.98783,2023,6,12,15,25,9,927
0.11390,3.11500,-4.55000,0.00000,-0.01122,0.01110,-0.98759,2023,6,12,15,25,9,938
0.11400,2.95750,-4.58500,0.00000,-0.00988,0.01074,-0.98564,2023,6,12,15,25,9,949
0.11410,2.99250,-4.65500,0.00000,-0.00927,0.01147,-0.98991,2023,6,12,15,25,9,960
0.11420,2.88750,-4.53250,0.00000,-0.00903,0.01330,-0.98637,2023,6,12,15,25,9,971
0.11430,2.80000,-4.49750,0.00000,-0.01000,0.01488,-0.99101,2023,6,12,15,25,9,982
0.11440,2.83500,-4.42750,0.00000,-0.00988,0.01183,-0.98954,2023,6,12,15,25,10,4
0.11450,2.85250,-4.79500,0.00000,-0.00866,0.01318,-0.98796,2023,6,12,15,25,10,15
0.11460,2.94000,-4.35750,0.00000,-0.01147,0.01025,-0.98735,2023,6,12,15,25,10,26
0.11470,2.83500,-4.44500,0.00000,-0.01110,0.01171,-0.98747,2023,6,12,15,25,10,37
0.11480,2.95750,-4.69000,0.00000,-0.01220,0.01208,-0.98893,2023,6,12,15,25,10,48
0.11490,2.81750,-4.76000,0.00000,-0.00793,0.01232,-0.98808,2023,6,12,15,25,10,59
0.11500,2.99250,-4.69000,0.00000,-0.01208,0.01269,-0.98832,2023,6,12,15,25,10,70
0.11510,3.02750,-4.63750,0.00000,-0.00878,0.01452,-0.99076,2023,6,12,15,25,10,81
0.11520,2.90500,-4.65500,0.00000,-0.00915,0.01257,-0.98747,2023,6,12,15,25,10,92
0.11530,2.88750,-4.53250,0.00000,-0.01147,0.01281,-0.98857,2023,6,12,15,25,10,104
0.11540,2.81750,-4.67250,0.00000,-0.01013,0.01208,-0.99040,2023,6,12,15,25,10,115
0.11550,3.02750,-4.77750,0.00000,-0.01061,0.01183,-0.98930,2023,6,12,15,25,10,126
0.11560,2.95750,-4.56750,0.00000,-0.00988,0.01269,-0.98783,2023,6,12,15,25,10,137
0.11570,2.85250,-4.55000,0.00000,-0.00915,0.01269,-0.98905,2023,6,12,15,25,10,148
0.11580,2.94000,-4.53250,0.00000,-0.00915,0.01220,-0.99052,2023,6,12,15,25,10,159
0.11590,3.01000,-4.72500,0.00000,-0.00793,0.01257,-0.98649,2023,6,12,15,25,10,170
0.11600,3.01000,-4.48000,0.00000,-0.01013,0.01232,-0.98930,2023,6,12,15,25,10,181
0.11610,2.85250,-4.51500,0.00000,-0.01074,0.00964,-0.98881,2023,6,12,15,25,10,192
0.11620,2.92250,-4.35750,0.00000,-0.01074,0.01025,-0.98808,2023,6,12,15,25,10,204
0.11630,2.94000,-4.62000,0.00000,-0.01025,0.01366,-0.98735,2023,6,12,15,25,10,215
0.11640,2.81750,-4.62000,0.00000,-0.00964,0.01122,-0.98942,2023,6,12,15,25,10,226
0.11650,2.94000,-4.60250,0.00000,-0.01183,0.01171,-0.98783,2023,6,12,15,25,10,237
0.11660,2.92250,-4.56750,0.00000,-0.00915,0.01366,-0.99003,2023,6,12,15,25,10,248
0.11670,2.67750,-4.62000,0.00000,-0.01074,0.01269,-0.99015,2023,6,12,15,25,10,259
0.11680,2.92250,-4.63750,0.00000,-0.00988,0.01244,-0.98832,2023,6,12,15,25,10,270
0.11690,3.06250,-4.44500,0.00000,-0.01013,0.01391,-0.99076,2023,6,12,15,25,10,281
0.11700,2.87000,-4.91750,0.00000,-0.00927,0.01122,-0.98625,2023,6,12,15,25,10,292
0.11710,2.87000,-4.37500,0.00000,-0.01037,0.01220,-0.99101,2023,6,12,15,25,10,304
0.11720,3.08000,-4.51500,0.00000,-0.01013,0.01049,-0.99027,2023,6,12,15,25,10,315
0.11730,3.04500,-4.62000,0.00000,-0.01110,0.01208,-0.98771,2023,6,12,15,25,10,326
0.11740,3.02750,-4.60250,0.00000,-0.01000,0.01257,-0.98820,2023,6,12,15,25,10,337
0.11750,2.80000,-4.69000,0.00000,-0.00866,0.01208,-0.99003,2023,6,12,15,25,10,348
0.11760,2.95750,-4.53250,0.00000,-0.01159,0.01293,-0.98930,2023,6,12,15,25,10,359
0.11770,2.80000,-4.74250,0.00000,-0.01013,0.01135,-0.98552,2023,6,12,15,25,10,370
0.11780,2.74750,-4.67250,0.00000,-0.01000,0.01232,-0.98661,2023,6,12,15,25,10,381
0.11790,2.90500,-4.49750,0.00000,-0.01049,0.01037,-0.98832,2023,6,12,15,25,10,392
0.11800,2.76500,-4.76000,0.00000,-0.00842,0.01281,-0.98661,2023,6,12,15,25,10,404
0.11810,2.83500,-4.46250,0.00000,-0.01037,0.01269,-0.98918,2023,6,12,15,25,10,415
0.11820,2.94000,-4.77750,0.00000,-0.01086,0.01013,-0.99040,2023,6,12,15,25,10,426
0.11830,2.78250,-4.51500,0.00000,-0.01037,0.01196,-0.98808,2023,6,12,15,25,10,437
0.11840,2.99250,-4.70750,0.00000,-0.01025,0.01330,-0.98930,2023,6,12,15,25,10,448
0.11850,2.99250,-4.72500,0.00000,-0.01025,0.01135,-0.98735,2023,6,12,15,25,10,459
0.11860,3.02750,-4.58500,0.00000,-0.01000,0.01208,-0.99003,2023,6,12,15,25,10,470
0.11870,2.88750,-4.37500,0.00000,-0.01098,0.01025,-0.99125,2023,6,12,15,25,10,481
0.11880,3.06250,-4.72500,0.00000,-0.01037,0.01159,-0.98820,2023,6,12,15,25,10,492
0.11890,2.90500,-4.49750,0.00000,-0.01049,0.01208,-0.98820,2023,6,12,15,25,10,504
0.11900,2.90500,-4.44500,0.00000,-0.01147,0.01171,-0.98771,2023,6,12,15,25,10,515
0.11910,2.81750,-4.65500,0.00000,-0.01013,0.01305,-0.98735,2023,6,12,15,25,10,526
0.11920,2.90500,-4.53250,0.00000,-0.01049,0.01318,-0.98783,2023,6,12,15,25,10,537
0.11930,2.87000,-4.65500,0.00000,-0.01122,0.01122,-0.98564,2023,6,12,15,25,10,548
0.11940,2.85250,-4.42750,0.00000,-0.00891,0.01318,-0.98966,2023,6,12,15,25,10,559
0.11950,3.02750,-4.60250,0.00000,-0.01049,0.01232,-0.98844,2023,6,12,15,25,10,570
0.11960,2.73000,-4.14750,0.00000,-0.01049,0.01269,-0.98893,2023,6,12,15,25,10,581
0.11970,2.90500,-4.41000,0.00000,-0.00976,0.01269,-0.98857,2023,6,12,15,25,10,592
0.11980,2.85250,-4.42750,0.00000,-0.01000,0.01281,-0.98820,2023,6,12,15,25,10,604
0.11990,2.97500,-4.81250,0.00000,-0.00964,0.01586,-0.98686,2023,6,12,15,25,10,615
0.12000,2.90500,-4.35750,0.00000,-0.00952,0.01196,-0.98796,2023,6,12,15,25,10,626
0.12010,2.90500,-4.48000,0.00000,-0.01049,0.01147,-0.98808,2023,6,12,15,25,10,637
0.12020,2.80000,-4.48000,0.00000,-0.01122,0.01098,-0.98771,2023,6,12,15,25,10,648
0.12030,2.78250,-4.62000,0.00000,-0.00964,0.01244,-0.99027,2023,6,12,15,25,10,659
0.12040,3.11500,-4.86500,0.00000,-0.01159,0.01403,-0.98735,2023,6,12,15,25,10,670
0.12050,2.88750,-4.62000,0.00000,-0.00988,0.01391,-0.98966,2023,6,12,15,25,10,681
0.12060,2.97500,-4.53250,0.00000,-0.01074,0.01037,-0.99076,2023,6,12,15,25,10,692
0.12070,2.81750,-4.72500,0.00000,-0.00939,0.01159,-0.98759,2023,6,12,15,25,10,704
0.12080,2.90500,-4.56750,0.00000,-0.00866,0.01220,-0.98783,2023,6,12,15,25,10,715
0.12090,2.83500,-4.51500,0.00000,-0.01086,0.01196,-0.98771,2023,6,12,15,25,10,726
0.12100,3.08000,-4.39250,0.00000,-0.00976,0.01293,-0.98942,2023,6,12,15,25,10,737
0.12110,3.01000,-4.48000,0.00000,-0.00866,0.01281,-0.98857,2023,6,12,15,25,10,748
0.12120,2.87000,-4.63750,0.00000,-0.00988,0.01147,-0.98918,2023,6,12,15,25,10,759
0.12130,2.90500,-4.55000,0.00000,-0.01147,0.01147,-0.98881,2023,6,12,15,25,10,770
0.12140,2.74750,-4.53250,0.00000,-0.01013,0.01086,-0.98881,2023,6,12,15,25,10,781
0.12150,2.83500,-4.60250,0.00000,-0.01147,0.01208,-0.98771,2023,6,12,15,25,10,792
0.12160,2.94000,-4.62000,0.00000,-0.00830,0.01098,-0.99027,2023,6,12,15,25,10,804
0.12170,2.85250,-4.56750,0.00000,-0.00866,0.00927,-0.98686,2023,6,12,15,25,10,815
0.12180,2.95750,-4.46250,0.00000,-0.01147,0.01135,-0.98771,2023,6,12,15,25,10,826
0.12190,2.76500,-4.49750,0.00000,-0.01183,0.01244,-0.98808,2023,6,12,15,25,10,837
0.12200,2.94000,-4.32250,0.00000,-0.00964,0.01305,-0.98893,2023,6,12,15,25,10,848
0.12210,2.81750,-4.51500,0.00000,-0.01049,0.01232,-0.98503,2023,6,12,15,25,10,859
0.12220,2.78250,-4.55000,0.00000,-0.00793,0.01061,-0.98674,2023,6,12,15,25,10,870
0.12230,2.99250,-4.60250,0.00000,-0.00878,0.01159,-0.98942,2023,6,12,15,25,10,881
0.12240,2.92250,-4.44500,0.00000,-0.00842,0.01086,-0.98966,2023,6,12,15,25,10,892
0.12250,2.94000,-4.69000,0.00000,-0.01196,0.01220,-0.98613,2023,6,12,15,25,10,904
0.12260,2.71250,-4.62000,0.00000,-0.01159,0.01305,-0.98735,2023,6,12,15,25,10,915
0.12270,2.81750,-4.60250,0.00000,-0.00878,0.01305,-0.98735,2023,6,12,15,25,10,926
0.12280,3.02750,-4.48000,0.00000,-0.00964,0.01098,-0.98674,2023,6,12,15,25,10,937
0.12290,2.69500,-4.48000,0.00000,-0.00976,0.01086,-0.98674,2023,6,12,15,25,10,948
0.12300,3.15000,-4.81250,0.00000,-0.00964,0.01159,-0.98918,2023,6,12,15,25,10,959
0.12310,2.88750,-4.63750,0.00000,-0.01086,0.01135,-0.98747,2023,6,12,15,25,10,970
0.12320,2.88750,-4.58500,0.00000,-0.01025,0.01342,-0.98661,2023,6,12,15,25,10,981
0.12330,2.81750,-4.58500,0.00000,-0.00830,0.01354,-0.99113,2023,6,12,15,25,10,992
0.12340,2.97500,-4.39250,0.00000,-0.01183,0.01147,-0.98954,2023,6,12,15,25,10,4
0.12350,2.90500,-4.62000,0.00000,-0.01061,0.01220,-0.98771,2023,6,12,15,25,11,5
0.12360,3.02750,-4.49750,0.00000,-0.01147,0.01122,-0.98832,2023,6,12,15,25,11,16
0.12370,2.95750,-4.60250,0.00000,-0.00915,0.01318,-0.99015,2023,6,12,15,25,11,27
0.12380,2.90500,-4.48000,0.00000,-0.01135,0.01342,-0.98735,2023,6,12,15,25,11,38
0.12390,3.11500,-4.56750,0.00000,-0.01013,0.01122,-0.98966,2023,6,12,15,25,11,49
0.12400,2.95750,-4.67250,0.00000,-0.00927,0.01244,-0.99015,2023,6,12,15,25,11,60
0.12410,3.09750,-4.62000,0.00000,-0.00976,0.01281,-0.98722,2023,6,12,15,25,11,71
0.12420,2.90500,-4.74250,0.00000,-0.00988,0.01305,-0.99076,2023,6,12,15,25,11,82
0.12430,2.94000,-4.35750,0.00000,-0.00878,0.01342,-0.98649,2023,6,12,15,25,11,94
0.12440,2.81750,-4.53250,0.00000,-0.01086,0.01171,-0.98979,2023,6,12,15,25,11,105
0.12450,3.06250,-4.70750,0.00000,-0.00878,0.01171,-0.98905,2023,6,12,15,25,11,116
0.12460,2.94000,-4.51500,0.00000,-0.01037,0.01196,-0.98539,2023,6,12,15,25,11,127
0.12470,2.87000,-4.53250,0.00000,-0.01196,0.01330,-0.98930,2023,6,12,15,25,11,138
0.12480,2.81750,-4.58500,0.00000,-0.01098,0.01074,-0.99064,2023,6,12,15,25,11,149
0.12490,2.78250,-4.77750,0.00000,-0.01013,0.01183,-0.98820,2023,6,12,15,25,11,160
0.12500,2.99250,-4.69000,0.00000,-0.00866,0.01171,-0.99040,2023,6,12,15,25,11,171
0.12510,2.81750,-4.60250,0.00000,-0.01074,0.01244,-0.99040,2023,6,12,15,25,11,182
0.12520,2.85250,-4.55000,0.00000,-0.00927,0.01110,-0.98832,2023,6,12,15,25,11,194
0.12530,3.06250,-4.51500,0.00000,-0.01135,0.01074,-0.98588,2023,6,12,15,25,11,205
0.12540,2.81750,-4.55000,0.00000,-0.01122,0.01086,-0.98686,2023,6,12,15,25,11,216
0.12550,2.71250,-4.60250,0.00000,-0.01244,0.01086,-0.98783,2023,6,12,15,25,11,227
0.12560,3.01000,-4.56750,0.00000,-0.01061,0.01196,-0.98808,2023,6,12,15,25,11,238
0.12570,2.88750,-4.49750,0.00000,-0.01086,0.01269,-0.98930,2023,6,12,15,25,11,249
0.12580,2.99250,-4.49750,0.00000,-0.01061,0.01208,-0.98771,2023,6,12,15,25,11,260
0.12590,2.83500,-4.48000,0.00000,-0.00830,0.01196,-0.98649,2023,6,12,15,25,11,271
0.12600,3.01000,-4.65500,0.00000,-0.00769,0.01122,-0.98674,2023,6,12,15,25,11,282
0.12610,2.87000,-4.84750,0.00000,-0.01147,0.01488,-0.99052,2023,6,12,15,25,11,294
0.12620,2.87000,-4.55000,0.00000,-0.01037,0.01049,-0.98783,2023,6,12,15,25,11,305
0.12630,2.85250,-4.48000,0.00000,-0.01061,0.01074,-0.99015,2023,6,12,15,25,11,316
0.12640,2.90500,-4.60250,0.00000,-0.01074,0.01196,-0.98710,2023,6,12,15,25,11,327
0.12650,2.74750,-4.32250,0.00000,-0.00866,0.01159,-0.98771,2023,6,12,15,25,11,338
0.12660,2.80000,-4.49750,0.00000,-0.00805,0.01074,-0.98966,2023,6,12,15,25,11,349
0.12670,2.95750,-4.65500,0.00000,-0.00976,0.01196,-0.99015,2023,6,12,15,25,11,360
0.12680,2.87000,-4.65500,0.00000,-0.00976,0.01098,-0.99015,2023,6,12,15,25,11,371
0.12690,2.80000,-4.44500,0.00000,-0.00964,0.01318,-0.98918,2023,6,12,15,25,11,382
0.12700,2.88750,-4.56750,0.00000,-0.00903,0.01293,-0.98393,2023,6,12,15,25,11,394
0.12710,2.81750,-4.67250,0.00000,-0.01257,0.01452,-0.98881,2023,6,12,15,25,11,405
0.12720,2.83500,-4.74250,0.00000,-0.00866,0.01171,-0.98649,2023,6,12,15,25,11,416
0.12730,2.81750,-4.58500,0.00000,-0.01049,0.01013,-0.99101,2023,6,12,15,25,11,427
0.12740,2.78250,-4.58500,0.00000,-0.00805,0.01391,-0.99003,2023,6,12,15,25,11,438
0.12750,2.97500,-4.44500,0.00000,-0.01110,0.01330,-0.98942,2023,6,12,15,25,11,449
0.12760,2.94000,-4.60250,0.00000,-0.00976,0.01098,-0.98893,2023,6,12,15,25,11,460
0.12770,2.90500,-4.63750,0.00000,-0.01025,0.01281,-0.98747,2023,6,12,15,25,11,471
0.12780,2.85250,-4.48000,0.00000,-0.00976,0.01098,-0.99174,2023,6,12,15,25,11,482
0.12790,2.81750,-4.39250,0.00000,-0.01086,0.01098,-0.98710,2023,6,12,15,25,11,494
0.12800,3.02750,-4.58500,0.00000,-0.01171,0.01000,-0.98722,2023,6,12,15,25,11,505
0.12810,2.81750,-4.51500,0.00000,-0.01061,0.01244,-0.98564,2023,6,12,15,25,11,516
0.12820,2.85250,-4.55000,0.00000,-0.00878,0.01232,-0.98515,2023,6,12,15,25,11,527
0.12830,2.92250,-4.56750,0.00000,-0.01000,0.01379,-0.98686,2023,6,12,15,25,11,538
0.12840,2.92250,-4.42750,0.00000,-0.01159,0.01135,-0.98844,2023,6,12,15,25,11,549
0.12850,2.99250,-4.67250,0.00000,-0.00854,0.01220,-0.98844,2023,6,12,15,25,11,560
0.12860,2.88750,-4.51500,0.00000,-0.01049,0.01135,-0.98942,2023,6,12,15,25,11,571
0.12870,2.99250,-4.48000,0.00000,-0.01074,0.01232,-0.98930,2023,6,12,15,25,11,582
0.12880,2.83500,-4.77750,0.00000,-0.01061,0.01257,-0.98710,2023,6,12,15,25,11,594
0.12890,2.97500,-4.42750,0.00000,-0.01122,0.01110,-0.98857,2023,6,12,15,25,11,605
0.12900,3.04500,-4.53250,0.00000,-0.00952,0.01220,-0.98857,2023,6,12,15,25,11,616
0.12910,2.83500,-4.65500,0.00000,-0.01000,0.01220,-0.98759,2023,6,12,15,25,11,627
0.12920,2.78250,-4.53250,0.00000,-0.00939,0.01061,-0.98600,2023,6,12,15,25,11,638
0.12930,2.88750,-4.56750,0.00000,-0.01220,0.01366,-0.98844,2023,6,12,15,25,11,649
0.12940,2.99250,-4.51500,0.00000,-0.01196,0.01269,-0.98686,2023,6,12,15,25,11,660
0.12950,2.76500,-4.56750,0.00000,-0.00915,0.01281,-0.98661,2023,6,12,15,25,11,671
0.12960,3.16750,-4.69000,0.00000,-0.00927,0.01293,-0.98442,2023,6,12,15,25,11,682
0.12970,3.02750,-4.58500,0.00000,-0.01025,0.01208,-0.98844,2023,6,12,15,25,11,694
0.12980,2.73000,-4.30500,0.00000,-0.00976,0.01208,-0.98893,2023,6,12,15,25,11,705
0.12990,2.94000,-4.76000,0.00000,-0.00988,0.01293,-0.98808,2023,6,12,15,25,11,716
0.13000,2.94000,-4.42750,0.00000,-0.01183,0.01220,-0.98649,2023,6,12,15,25,11,727
0.13010,2.81750,-4.49750,0.00000,-0.01110,0.01171,-0.98918,2023,6,12,15,25,11,738
0.13020,2.92250,-4.58500,0.00000,-0.00891,0.01208,-0.98649,2023,6,12,15,25,11,749
0.13030,2.94000,-4.49750,0.00000,-0.00927,0.01135,-0.98564,2023,6,12,15,25,11,760
0.13040,2.74750,-4.60250,0.00000,-0.01098,0.01110,-0.98966,2023,6,12,15,25,11,771
0.13050,2.92250,-4.76000,0.00000,-0.01037,0.01061,-0.98783,2023,6,12,15,25,11,782
0.13060,3.15000,-4.65500,0.00000,-0.01159,0.01110,-0.98759,2023,6,12,15,25,11,794
0.13070,3.02750,-4.53250,0.00000,-0.00915,0.01281,-0.98759,2023,6,12,15,25,11,805
0.13080,2.81750,-4.51500,0.00000,-0.01061,0.01257,-0.98698,2023,6,12,15,25,11,816
0.13090,2.90500,-4.53250,0.00000,-0.01232,0.01110,-0.99003,2023,6,12,15,25,11,827
0.13100,2.94000,-4.48000,0.00000,-0.00866,0.01232,-0.99040,2023,6,12,15,25,11,838
0.13110,2.83500,-4.62000,0.00000,-0.01232,0.01281,-0.98881,2023,6,12,15,25,11,849
0.13120,2.95750,-4.60250,0.00000,-0.01061,0.01074,-0.98942,2023,6,12,15,25,11,860
0.13130,2.76500,-4.51500,0.00000,-0.01147,0.01232,-0.98893,2023,6,12,15,25,11,871
0.13140,2.87000,-4.53250,0.00000,-0.01122,0.01086,-0.98783,2023,6,12,15,25,11,882
0.13150,2.85250,-4.83000,0.00000,-0.01135,0.01269,-0.99040,2023,6,12,15,25,11,894
0.13160,2.85250,-4.62000,0.00000,-0.01061,0.01318,-0.98832,2023,6,12,15,25,11,905
0.13170,2.92250,-4.72500,0.00000,-0.01025,0.01244,-0.99064,2023,6,12,15,25,11,916
0.13180,3.09750,-4.60250,0.00000,-0.01061,0.01074,-0.98783,2023,6,12,15,25,11,927
0.13190,3.06250,-4.49750,0.00000,-0.01074,0.01208,-0.98735,2023,6,12,15,25,11,938
0.13200,2.88750,-4.51500,0.00000,-0.00964,0.01244,-0.98832,2023,6,12,15,25,11,949
0.13210,2.99250,-4.46250,0.00000,-0.01122,0.01183,-0.98942,2023,6,12,15,25,11,960
0.13220,3.08000,-4.83000,0.00000,-0.01061,0.01244,-0.98576,2023,6,12,15,25,11,971
0.13230,2.97500,-4.84750,0.00000,-0.01000,0.01183,-0.98747,2023,6,12,15,25,11,982
0.13240,2.76500,-4.62000,0.00000,-0.01000,0.01330,-0.98796,2023,6,12,15,25,12,4
0.13250,2.88750,-4.49750,0.00000,-0.01074,0.01183,-0.99015,2023,6,12,15,25,12,15
0.13260,2.95750,-4.72500,0.00000,-0.01074,0.01281,-0.99076,2023,6,12,15,25,12,26
0.13270,3.04500,-4.48000,0.00000,-0.00976,0.01171,-0.98710,2023,6,12,15,25,12,37
0.13280,2.78250,-4.58500,0.00000,-0.00830,0.01257,-0.98564,2023,6,12,15,25,12,48
0.13290,3.04500,-4.60250,0.00000,-0.00976,0.01122,-0.98783,2023,6,12,15,25,12,59
0.13300,2.73000,-4.56750,0.00000,-0.00866,0.01086,-0.98503,2023,6,12,15,25,12,70
0.13310,2.83500,-4.51500,0.00000,-0.01061,0.01183,-0.99223,2023,6,12,15,25,12,81
0.13320,2.92250,-4.56750,0.00000,-0.00939,0.01098,-0.98881,2023,6,12,15,25,12,92
0.13330,2.94000,-4.56750,0.00000,-0.00939,0.01244,-0.98771,2023,6,12,15,25,12,104
0.13340,2.92250,-4.58500,0.00000,-0.00976,0.01208,-0.98613,2023,6,12,15,25,12,115
0.13350,2.92250,-4.67250,0.00000,-0.01147,0.01318,-0.99284,2023,6,12,15,25,12,126
0.13360,2.94000,-4.79500,0.00000,-0.01037,0.01074,-0.98613,2023,6,12,15,25,12,137
0.13370,2.92250,-4.55000,0.00000,-0.00927,0.01135,-0.98869,2023,6,12,15,25,12,148
0.13380,2.83500,-4.53250,0.00000,-0.01135,0.01281,-0.98771,2023,6,12,15,25,12,159
0.13390,2.80000,-4.37500,0.00000,-0.01013,0.01232,-0.99076,2023,6,12,15,25,12,170
0.13400,3.01000,-4.60250,0.00000,-0.00891,0.01257,-0.98747,2023,6,12,15,25,12,181
0.13410,2.94000,-4.55000,0.00000,-0.01074,0.01049,-0.98893,2023,6,12,15,25,12,192
0.13420,2.97500,-4.58500,0.00000,-0.00891,0.01037,-0.98674,2023,6,12,15,25,12,204
0.13430,2.81750,-4.70750,0.00000,-0.00952,0.01464,-0.98930,2023,6,12,15,25,12,215
0.13440,3.13250,-4.44500,0.00000,-0.00988,0.01244,-0.98942,2023,6,12,15,25,12,226
0.13450,2.99250,-4.42750,0.00000,-0.01232,0.01061,-0.98783,2023,6,12,15,25,12,237
0.13460,2.88750,-4.51500,0.00000,-0.01049,0.01122,-0.98796,2023,6,12,15,25,12,248
0.13470,2.92250,-4.70750,0.00000,-0.01122,0.01013,-0.98918,2023,6,12,15,25,12,259
0.13480,2.85250,-4.74250,0.00000,-0.01110,0.01305,-0.98869,2023,6,12,15,25,12,270
0.13490,2.74750,-4.41000,0.00000,-0.00964,0.01330,-0.98979,2023,6,12,15,25,12,281
0.13500,2.97500,-4.74250,0.00000,-0.01061,0.01354,-0.99003,2023,6,12,15,25,12,292
0.13510,2.87000,-4.58500,0.00000,-0.01074,0.01293,-0.98588,2023,6,12,15,25,12,304
0.13520,2.85250,-4.72500,0.00000,-0.00842,0.01086,-0.98747,2023,6,12,15,25,12,315
0.13530,2.76500,-4.51500,0.00000,-0.00964,0.01342,-0.99113,2023,6,12,15,25,12,326
0.13540,2.85250,-4.62000,0.00000,-0.00939,0.01427,-0.99088,2023,6,12,15,25,12,337
0.13550,3.01000,-4.44500,0.00000,-0.01147,0.01147,-0.99015,2023,6,12,15,25,12,348
0.13560,2.92250,-4.58500,0.00000,-0.00927,0.01379,-0.98722,2023,6,12,15,25,12,359
0.13570,3.02750,-4.53250,0.00000,-0.01037,0.01122,-0.98844,2023,6,12,15,25,12,370
0.13580,3.11500,-4.58500,0.00000,-0.01147,0.01183,-0.98783,2023,6,12,15,25,12,381
0.13590,2.99250,-4.72500,0.00000,-0.00732,0.01342,-0.98613,2023,6,12,15,25,12,392
0.13600,2.81750,-4.67250,0.00000,-0.00915,0.01086,-0.98893,2023,6,12,15,25,12,404
0.13610,2.85250,-4.46250,0.00000,-0.01013,0.01183,-0.98820,2023,6,12,15,25,12,415
0.13620,3.02750,-4.79500,0.00000,-0.00976,0.01110,-0.98539,2023,6,12,15,25,12,426
0.13630,2.92250,-4.41000,0.00000,-0.01135,0.01244,-0.98613,2023,6,12,15,25,12,437
0.13640,3.15000,-4.62000,0.00000,-0.00927,0.01147,-0.98918,2023,6,12,15,25,12,448
0.13650,2.88750,-4.70750,0.00000,-0.00952,0.01196,-0.98722,2023,6,12,15,25,12,459
0.13660,2.90500,-4.70750,0.00000,-0.00830,0.00927,-0.98771,2023,6,12,15,25,12,470
0.13670,2.92250,-4.60250,0.00000,-0.00964,0.01061,-0.98649,2023,6,12,15,25,12,481
0.13680,2.90500,-4.37500,0.00000,-0.00708,0.01379,-0.98674,2023,6,12,15,25,12,492
0.13690,2.78250,-4.35750,0.00000,-0.01074,0.01147,-0.98722,2023,6,12,15,25,12,504
0.13700,2.94000,-4.41000,0.00000,-0.00817,0.01110,-0.98832,2023,6,12,15,25,12,515
0.13710,2.97500,-4.63750,0.00000,-0.01098,0.01354,-0.98674,2023,6,12,15,25,12,526
0.13720,2.83500,-4.51500,0.00000,-0.01183,0.01220,-0.98759,2023,6,12,15,25,12,537
0.13730,2.87000,-4.62000,0.00000,-0.01122,0.01171,-0.98881,2023,6,12,15,25,12,548
0.13740,2.99250,-4.49750,0.00000,-0.01000,0.01074,-0.98783,2023,6,12,15,25,12,559
0.13750,3.01000,-4.72500,0.00000,-0.00878,0.01244,-0.98832,2023,6,12,15,25,12,570
0.13760,2.76500,-4.49750,0.00000,-0.01305,0.01342,-0.98735,2023,6,12,15,25,12,581
0.13770,2.97500,-4.67250,0.00000,-0.01037,0.01196,-0.98820,2023,6,12,15,25,12,592
0.13780,2.87000,-4.65500,0.00000,-0.00976,0.01013,-0.98527,2023,6,12,15,25,12,604
0.13790,3.01000,-4.79500,0.00000,-0.01037,0.01220,-0.98857,2023,6,12,15,25,12,615
0.13800,2.88750,-4.58500,0.00000,-0.01037,0.01135,-0.98735,2023,6,12,15,25,12,626
0.13810,3.09750,-4.60250,0.00000,-0.01135,0.01391,-0.98796,2023,6,12,15,25,12,637
0.13820,2.92250,-4.48000,0.00000,-0.00964,0.01122,-0.98759,2023,6,12,15,25,12,648
0.13830,2.87000,-4.56750,0.00000,-0.01171,0.01171,-0.98393,2023,6,12,15,25,12,659
0.13840,3.06250,-4.56750,0.00000,-0.01110,0.01366,-0.98759,2023,6,12,15,25,12,670
0.13850,2.85250,-4.60250,0.00000,-0.01037,0.01293,-0.98515,2023,6,12,15,25,12,681
0.13860,2.76500,-4.58500,0.00000,-0.01159,0.01074,-0.98808,2023,6,12,15,25,12,692
0.13870,2.90500,-4.56750,0.00000,-0.00854,0.01171,-0.98369,2023,6,12,15,25,12,704
0.13880,2.94000,-4.49750,0.00000,-0.01025,0.01415,-0.98820,2023,6,12,15,25,12,715
0.13890,2.94000,-4.56750,0.00000,-0.01232,0.01196,-0.98869,2023,6,12,15,25,12,726
0.13900,2.94000,-4.70750,0.00000,-0.01074,0.01135,-0.98710,2023,6,12,15,25,12,737
0.13910,2.94000,-4.72500,0.00000,-0.01122,0.00927,-0.98576,2023,6,12,15,25,12,748
0.13920,2.88750,-4.39250,0.00000,-0.00939,0.01147,-0.98832,2023,6,12,15,25,12,759
0.13930,2.95750,-4.46250,0.00000,-0.00903,0.01220,-0.98905,2023,6,12,15,25,12,770
0.13940,2.90500,-4.49750,0.00000,-0.00903,0.01427,-0.99113,2023,6,12,15,25,12,781
0.13950,3.02750,-4.63750,0.00000,-0.00903,0.01220,-0.98722,2023,6,12,15,25,12,792
0.13960,2.92250,-4.56750,0.00000,-0.01000,0.01342,-0.98649,2023,6,12,15,25,12,804
0.13970,2.95750,-4.74250,0.00000,-0.00927,0.01061,-0.98649,2023,6,12,15,25,12,815
0.13980,2.94000,-4.51500,0.00000,-0.00976,0.01379,-0.98918,2023,6,12,15,25,12,826
0.13990,2.88750,-4.55000,0.00000,-0.00866,0.01135,-0.98674,2023,6,12,15,25,12,837
0.14000,2.94000,-4.79500,0.00000,-0.00952,0.01330,-0.98710,2023,6,12,15,25,12,848
0.14010,2.92250,-4.56750,0.00000,-0.00927,0.01452,-0.99052,2023,6,12,15,25,12,859
0.14020,2.88750,-4.49750,0.00000,-0.01171,0.01354,-0.98735,2023,6,12,15,25,12,870
0.14030,2.80000,-4.65500,0.00000,-0.01013,0.01183,-0.98893,2023,6,12,15,25,12,881
0.14040,2.76500,-4.51500,0.00000,-0.01171,0.01037,-0.98686,2023,6,12,15,25,12,892
0.14050,2.88750,-4.46250,0.00000,-0.00988,0.01208,-0.98710,2023,6,12,15,25,12,904
0.14060,2.88750,-4.63750,0.00000,-0.00805,0.01159,-0.99003,2023,6,12,15,25,12,915
0.14070,2.90500,-4.72500,0.00000,-0.00927,0.01061,-0.98491,2023,6,12,15,25,12,926
0.14080,2.88750,-4.63750,0.00000,-0.00976,0.01220,-0.98820,2023,6,12,15,25,12,937
0.14090,2.85250,-4.27000,0.00000,-0.01159,0.01025,-0.98918,2023,6,12,15,25,12,948
0.14100,2.90500,-4.62000,0.00000,-0.01269,0.01037,-0.98808,2023,6,12,15,25,12,959
0.14110,2.85250,-4.44500,0.00000,-0.00903,0.01244,-0.98710,2023,6,12,15,25,12,970
0.14120,3.11500,-4.56750,0.00000,-0.01086,0.01269,-0.98808,2023,6,12,15,25,12,981
0.14130,2.78250,-4.72500,0.00000,-0.01086,0.01342,-0.98844,2023,6,12,15,25,13,2
0.14140,2.78250,-4.48000,0.00000,-0.01000,0.01354,-0.98771,2023,6,12,15,25,13,14
0.14150,2.80000,-4.67250,0.00000,-0.00915,0.01403,-0.98539,2023,6,12,15,25,13,25
0.14160,2.76500,-4.67250,0.00000,-0.00866,0.01196,-0.98661,2023,6,12,15,25,13,36
0.14170,2.90500,-4.55000,0.00000,-0.00976,0.01281,-0.98930,2023,6,12,15,25,13,47
0.14180,2.94000,-4.63750,0.00000,-0.00842,0.01208,-0.98930,2023,6,12,15,25,13,58
0.14190,2.92250,-4.48000,0.00000,-0.00976,0.01305,-0.98869,2023,6,12,15,25,13,69
0.14200,3.01000,-4.48000,0.00000,-0.01232,0.01183,-0.98735,2023,6,12,15,25,13,80
0.14210,2.94000,-4.53250,0.00000,-0.00866,0.01196,-0.98552,2023,6,12,15,25,13,91
0.14220,2.88750,-4.83000,0.00000,-0.01049,0.01025,-0.98905,2023,6,12,15,25,13,102
0.14230,3.06250,-4.49750,0.00000,-0.00927,0.01135,-0.98796,2023,6,12,15,25,13,114
0.14240,2.76500,-4.49750,0.00000,-0.01013,0.01330,-0.98808,2023,6,12,15,25,13,125
0.14250,3.02750,-4.63750,0.00000,-0.00964,0.01232,-0.98759,2023,6,12,15,25,13,136
0.14260,2.97500,-4.58500,0.00000,-0.01098,0.01147,-0.98686,2023,6,12,15,25,13,147
0.14270,2.90500,-4.41000,0.00000,-0.01000,0.01354,-0.99040,2023,6,12,15,25,13,158
0.14280,2.87000,-4.55000,0.00000,-0.01074,0.01049,-0.98881,2023,6,12,15,25,13,169
0.14290,2.90500,-4.37500,0.00000,-0.01208,0.01293,-0.98820,2023,6,12,15,25,13,180
0.14300,2.88750,-4.56750,0.00000,-0.01110,0.01305,-0.98771,2023,6,12,15,25,13,191
0.14310,2.94000,-4.56750,0.00000,-0.01110,0.01196,-0.98674,2023,6,12,15,25,13,202
0.14320,2.88750,-4.65500,0.00000,-0.00927,0.01232,-0.99027,2023,6,12,15,25,13,214
0.14330,3.02750,-4.70750,0.00000,-0.01013,0.01403,-0.98625,2023,6,12,15,25,13,225
0.14340,2.94000,-4.53250,0.00000,-0.01025,0.01208,-0.98991,2023,6,12,15,25,13,236
0.14350,3.18500,-4.69000,0.00000,-0.01122,0.01220,-0.98747,2023,6,12,15,25,13,247
0.14360,2.87000,-4.93500,0.00000,-0.01013,0.01171,-0.98844,2023,6,12,15,25,13,258
0.14370,2.97500,-4.55000,0.00000,-0.01061,0.01037,-0.98698,2023,6,12,15,25,13,269
0.14380,3.15000,-4.72500,0.00000,-0.00915,0.01269,-0.98893,2023,6,12,15,25,13,280
0.14390,2.76500,-4.65500,0.00000,-0.01061,0.01025,-0.98661,2023,6,12,15,25,13,291
0.14400,2.78250,-4.55000,0.00000,-0.01183,0.01318,-0.98918,2023,6,12,15,25,13,302
0.14410,3.02750,-4.62000,0.00000,-0.01122,0.01135,-0.98893,2023,6,12,15,25,13,314
0.14420,2.87000,-4.53250,0.00000,-0.01000,0.01220,-0.98820,2023,6,12,15,25,13,325
0.14430,3.02750,-4.72500,0.00000,-0.01049,0.01159,-0.98796,2023,6,12,15,25,13,336
0.14440,3.02750,-4.55000,0.00000,-0.01061,0.01000,-0.98808,2023,6,12,15,25,13,347
0.14450,2.76500,-4.48000,0.00000,-0.01013,0.01159,-0.98735,2023,6,12,15,25,13,358
0.14460,3.02750,-4.58500,0.00000,-0.01196,0.01269,-0.98564,2023,6,12,15,25,13,369
0.14470,2.81750,-4.46250,0.00000,-0.00988,0.01403,-0.98930,2023,6,12,15,25,13,380
0.14480,2.90500,-4.49750,0.00000,-0.00781,0.01171,-0.98722,2023,6,12,15,25,13,391
0.14490,2.94000,-4.55000,0.00000,-0.01147,0.01208,-0.98930,2023,6,12,15,25,13,402
0.14500,3.01000,-4.81250,0.00000,-0.01025,0.01061,-0.98832,2023,6,12,15,25,13,414
0.14510,3.08000,-4.81250,0.00000,-0.01037,0.01159,-0.98698,2023,6,12,15,25,13,425
0.14520,3.04500,-4.70750,0.00000,-0.00939,0.01501,-0.98771,2023,6,12,15,25,13,436
0.14530,2.97500,-4.63750,0.00000,-0.01061,0.01110,-0.98759,2023,6,12,15,25,13,447
0.14540,3.01000,-4.65500,0.00000,-0.01025,0.01122,-0.98576,2023,6,12,15,25,13,458
0.14550,2.78250,-4.49750,0.00000,-0.01000,0.01171,-0.98796,2023,6,12,15,25,13,469
0.14560,2.92250,-4.49750,0.00000,-0.01061,0.01122,-0.99015,2023,6,12,15,25,13,480
0.14570,2.90500,-4.56750,0.00000,-0.00903,0.01257,-0.98966,2023,6,12,15,25,13,491
0.14580,2.78250,-4.70750,0.00000,-0.01122,0.01269,-0.98710,2023,6,12,15,25,13,502
0.14590,2.85250,-4.48000,0.00000,-0.00866,0.01354,-0.98820,2023,6,12,15,25,13,514
0.14600,3.04500,-4.58500,0.00000,-0.00964,0.01122,-0.98857,2023,6,12,15,25,13,525
0.14610,3.04500,-4.62000,0.00000,-0.00878,0.01403,-0.98954,2023,6,12,15,25,13,536
0.14620,2.92250,-4.48000,0.00000,-0.00915,0.01147,-0.98844,2023,6,12,15,25,13,547
0.14630,2.81750,-4.46250,0.00000,-0.01110,0.01342,-0.98759,2023,6,12,15,25,13,558
0.14640,3.15000,-4.69000,0.00000,-0.01135,0.01159,-0.98710,2023,6,12,15,25,13,569
0.14650,2.76500,-4.63750,0.00000,-0.01110,0.01257,-0.98698,2023,6,12,15,25,13,580
0.14660,3.06250,-4.63750,0.00000,-0.01196,0.01403,-0.98661,2023,6,12,15,25,13,591
0.14670,2.94000,-4.79500,0.00000,-0.00939,0.01159,-0.98808,2023,6,12,15,25,13,602
0.14680,2.92250,-4.42750,0.00000,-0.00976,0.01183,-0.98613,2023,6,12,15,25,13,614
0.14690,2.90500,-4.72500,0.00000,-0.01000,0.01061,-0.98796,2023,6,12,15,25,13,625
0.14700,2.94000,-4.76000,0.00000,-0.00927,0.01147,-0.98735,2023,6,12,15,25,13,636
0.14710,3.02750,-4.49750,0.00000,-0.00903,0.01318,-0.98808,2023,6,12,15,25,13,647
0.14720,2.95750,-4.35750,0.00000,-0.01049,0.01391,-0.98857,2023,6,12,15,25,13,658
0.14730,2.99250,-4.37500,0.00000,-0.01098,0.01110,-0.99149,2023,6,12,15,25,13,669
0.14740,2.95750,-4.41000,0.00000,-0.00915,0.01183,-0.98905,2023,6,12,15,25,13,680
