#2023/06/12 10:21:44
time,wx,wy,wz,ax,ay,az,yy,MM,dd,hh,mm,ss,ms
0.00000,2.83500,-4.63750,0.00000,0.01610,0.96990,-0.20923,2023,6,12,10,21,44,191
0.00010,2.85250,-4.32250,0.00000,0.01549,0.97173,-0.21082,2023,6,12,10,21,44,202
0.00020,2.95750,-4.62000,0.00000,0.01623,0.97271,-0.20886,2023,6,12,10,21,44,213
0.00030,3.20250,-4.56750,0.00000,0.01562,0.97234,-0.21057,2023,6,12,10,21,44,224
0.00040,3.23750,-4.83000,0.00000,0.01623,0.97173,-0.20996,2023,6,12,10,21,44,235
0.00050,3.08000,-4.69000,0.00000,0.01745,0.97039,-0.20874,2023,6,12,10,21,44,246
0.00060,3.09750,-4.67250,0.00000,0.01537,0.97124,-0.20655,2023,6,12,10,21,44,257
0.00070,3.16750,-4.81250,0.00000,0.01708,0.96966,-0.20764,2023,6,12,10,21,44,268
0.00080,2.95750,-4.62000,0.00000,0.01562,0.97014,-0.20886,2023,6,12,10,21,44,279
0.00090,2.95750,-4.53250,0.00000,0.01513,0.97149,-0.20972,2023,6,12,10,21,44,290
0.00100,3.16750,-4.58500,0.00000,0.01586,0.97014,-0.20813,2023,6,12,10,21,44,302
0.00110,3.09750,-4.60250,0.00000,0.01635,0.97295,-0.20886,2023,6,12,10,21,44,313
0.00120,3.08000,-4.34000,0.00000,0.01720,0.97210,-0.20789,2023,6,12,10,21,44,324
0.00130,3.09750,-4.53250,0.00000,0.01513,0.97161,-0.20935,2023,6,12,10,21,44,335
0.00140,2.80000,-4.49750,0.00000,0.01391,0.97136,-0.21008,2023,6,12,10,21,44,346
0.00150,3.02750,-4.62000,0.00000,0.01598,0.97234,-0.20996,2023,6,12,10,21,44,357
0.00160,3.23750,-4.81250,0.00000,0.01537,0.97002,-0.21167,2023,6,12,10,21,44,368
0.00170,3.02750,-4.44500,0.00000,0.01757,0.97161,-0.20630,2023,6,12,10,21,44,379
0.00180,2.99250,-4.60250,0.00000,0.01537,0.97075,-0.20935,2023,6,12,10,21,44,390
0.00190,3.02750,-4.56750,0.00000,0.01513,0.96978,-0.21106,2023,6,12,10,21,44,402
0.00200,3.13250,-4.42750,0.00000,0.01708,0.97063,-0.21069,2023,6,12,10,21,44,413
0.00210,3.06250,-4.62000,0.00000,0.01598,0.97295,-0.21021,2023,6,12,10,21,44,424
0.00220,3.04500,-4.48000,0.00000,0.01659,0.97161,-0.20972,2023,6,12,10,21,44,435
0.00230,3.11500,-4.60250,0.00000,0.01732,0.97234,-0.20923,2023,6,12,10,21,44,446
0.00240,3.15000,-4.74250,0.00000,0.01647,0.97002,-0.21143,2023,6,12,10,21,44,457
0.00250,2.88750,-4.32250,0.00000,0.01415,0.97258,-0.21289,2023,6,12,10,21,44,468
0.00260,2.88750,-4.53250,0.00000,0.01623,0.97124,-0.21179,2023,6,12,10,21,44,479
0.00270,3.13250,-4.48000,0.00000,0.01574,0.97100,-0.21106,2023,6,12,10,21,44,490
0.00280,3.06250,-4.34000,0.00000,0.01781,0.97173,-0.20972,2023,6,12,10,21,44,502
0.00290,2.95750,-4.53250,0.00000,0.01610,0.97307,-0.20728,2023,6,12,10,21,44,513
0.00300,3.25500,-4.77750,0.00000,0.01562,0.96978,-0.20801,2023,6,12,10,21,44,524
0.00310,3.23750,-4.62000,0.00000,0.01732,0.96953,-0.21045,2023,6,12,10,21,44,535
0.00320,2.92250,-4.41000,0.00000,0.01549,0.97075,-0.20923,2023,6,12,10,21,44,546
0.00330,3.34250,-4.72500,0.00000,0.01623,0.97136,-0.20874,2023,6,12,10,21,44,557
0.00340,2.97500,-4.53250,0.00000,0.01684,0.97380,-0.20996,2023,6,12,10,21,44,568
0.00350,2.99250,-4.67250,0.00000,0.01806,0.97088,-0.21021,2023,6,12,10,21,44,579
0.00360,3.16750,-4.46250,0.00000,0.01671,0.96953,-0.20935,2023,6,12,10,21,44,590
0.00370,3.18500,-4.58500,0.00000,0.01549,0.97161,-0.21094,2023,6,12,10,21,44,602
0.00380,3.11500,-4.51500,0.00000,0.01513,0.97014,-0.21118,2023,6,12,10,21,44,613
0.00390,3.02750,-4.49750,0.00000,0.01549,0.97112,-0.20935,2023,6,12,10,21,44,624
0.00400,3.06250,-4.51500,0.00000,0.01232,0.97173,-0.21069,2023,6,12,10,21,44,635
0.00410,3.18500,-4.72500,0.00000,0.01501,0.97185,-0.21057,2023,6,12,10,21,44,646
0.00420,3.11500,-4.67250,0.00000,0.01391,0.97161,-0.21118,2023,6,12,10,21,44,657
0.00430,2.99250,-4.46250,0.00000,0.01488,0.97063,-0.21106,2023,6,12,10,21,44,668
0.00440,3.09750,-4.60250,0.00000,0.01342,0.97002,-0.21033,2023,6,12,10,21,44,679
0.00450,3.25500,-4.70750,0.00000,0.01366,0.97258,-0.21094,2023,6,12,10,21,44,690
0.00460,3.13250,-4.51500,0.00000,0.01513,0.97100,-0.21191,2023,6,12,10,21,44,702
0.00470,3.04500,-4.60250,0.00000,0.01647,0.97356,-0.21033,2023,6,12,10,21,44,713
0.00480,2.88750,-4.44500,0.00000,0.01708,0.97161,-0.21057,2023,6,12,10,21,44,724
0.00490,3.02750,-4.69000,0.00000,0.01610,0.97136,-0.21057,2023,6,12,10,21,44,735
0.00500,3.08000,-4.49750,0.00000,0.01684,0.97088,-0.21021,2023,6,12,10,21,44,746
0.00510,3.13250,-4.42750,0.00000,0.01586,0.97283,-0.21204,2023,6,12,10,21,44,757
0.00520,3.06250,-4.48000,0.00000,0.01513,0.97002,-0.21033,2023,6,12,10,21,44,768
0.00530,3.04500,-4.63750,0.00000,0.01415,0.97039,-0.20911,2023,6,12,10,21,44,779
0.00540,3.04500,-4.51500,0.00000,0.01452,0.96966,-0.21008,2023,6,12,10,21,44,790
0.00550,3.11500,-4.48000,0.00000,0.01647,0.97222,-0.21228,2023,6,12,10,21,44,802
0.00560,3.13250,-4.51500,0.00000,0.01452,0.97124,-0.21082,2023,6,12,10,21,44,813
0.00570,3.02750,-4.56750,0.00000,0.01684,0.97051,-0.20825,2023,6,12,10,21,44,824
0.00580,3.08000,-4.49750,0.00000,0.01610,0.97246,-0.20960,2023,6,12,10,21,44,835
0.00590,3.15000,-4.55000,0.00000,0.01635,0.96941,-0.20972,2023,6,12,10,21,44,846
0.00600,2.97500,-4.56750,0.00000,0.01635,0.96746,-0.20935,2023,6,12,10,21,44,857
0.00610,3.08000,-4.72500,0.00000,0.01623,0.96831,-0.20838,2023,6,12,10,21,44,868
0.00620,2.85250,-4.48000,0.00000,0.01623,0.96990,-0.21082,2023,6,12,10,21,44,879
0.00630,3.11500,-4.42750,0.00000,0.01696,0.96990,-0.20813,2023,6,12,10,21,44,890
0.00640,3.16750,-4.46250,0.00000,0.01501,0.97075,-0.21240,2023,6,12,10,21,44,902
0.00650,2.97500,-4.51500,0.00000,0.01513,0.97088,-0.20899,2023,6,12,10,21,44,913
0.00660,3.15000,-4.49750,0.00000,0.01720,0.96892,-0.21021,2023,6,12,10,21,44,924
0.00670,3.02750,-4.42750,0.00000,0.01281,0.97039,-0.21069,2023,6,12,10,21,44,935
0.00680,2.85250,-4.62000,0.00000,0.01562,0.97136,-0.20935,2023,6,12,10,21,44,946
0.00690,3.04500,-4.49750,0.00000,0.01574,0.97027,-0.21033,2023,6,12,10,21,44,957
0.00700,2.95750,-4.39250,0.00000,0.01659,0.97112,-0.20899,2023,6,12,10,21,44,968
0.00710,2.88750,-4.76000,0.00000,0.01415,0.97161,-0.21069,2023,6,12,10,21,44,979
0.00720,3.15000,-4.65500,0.00000,0.01610,0.96990,-0.20996,2023,6,12,10,21,44,990
0.00730,3.13250,-4.74250,0.00000,0.01537,0.96966,-0.20899,2023,6,12,10,21,44,2
0.00740,3.09750,-4.55000,0.00000,0.01464,0.97295,-0.21057,2023,6,12,10,21,44,13
0.00750,3.01000,-4.62000,0.00000,0.01525,0.97014,-0.20972,2023,6,12,10,21,44,24
0.00760,2.92250,-4.37500,0.00000,0.01452,0.97271,-0.21155,2023,6,12,10,21,44,35
0.00770,3.01000,-4.56750,0.00000,0.01549,0.96966,-0.21033,2023,6,12,10,21,44,46
0.00780,3.02750,-4.58500,0.00000,0.01598,0.96905,-0.21240,2023,6,12,10,21,44,57
0.00790,3.11500,-4.72500,0.00000,0.01867,0.97039,-0.21411,2023,6,12,10,21,44,68
0.00800,3.13250,-4.56750,0.00000,0.01757,0.97063,-0.21033,2023,6,12,10,21,44,79
0.00810,2.90500,-4.28750,0.00000,0.01427,0.97112,-0.20972,2023,6,12,10,21,44,90
0.00820,3.13250,-4.60250,0.00000,0.01501,0.97136,-0.20935,2023,6,12,10,21,44,102
0.00830,3.04500,-4.72500,0.00000,0.01464,0.97173,-0.21387,2023,6,12,10,21,44,113
0.00840,3.09750,-4.46250,0.00000,0.01671,0.97039,-0.20972,2023,6,12,10,21,44,124
0.00850,3.09750,-4.69000,0.00000,0.01757,0.97027,-0.21118,2023,6,12,10,21,44,135
0.00860,2.94000,-4.63750,0.00000,0.01854,0.96856,-0.20947,2023,6,12,10,21,44,146
0.00870,3.02750,-4.53250,0.00000,0.01549,0.97161,-0.21082,2023,6,12,10,21,44,157
0.00880,3.20250,-4.58500,0.00000,0.01525,0.97088,-0.21033,2023,6,12,10,21,44,168
0.00890,3.01000,-4.56750,0.00000,0.01574,0.96953,-0.21143,2023,6,12,10,21,44,179
0.00900,3.04500,-4.53250,0.00000,0.01537,0.97149,-0.21240,2023,6,12,10,21,44,190
0.00910,3.13250,-4.60250,0.00000,0.01635,0.97185,-0.20947,2023,6,12,10,21,44,202
0.00920,2.92250,-4.55000,0.00000,0.01684,0.97185,-0.21045,2023,6,12,10,21,44,213
0.00930,3.09750,-4.51500,0.00000,0.01537,0.97051,-0.20960,2023,6,12,10,21,44,224
0.00940,3.11500,-4.76000,0.00000,0.01476,0.96868,-0.21130,2023,6,12,10,21,44,235
0.00950,3.11500,-4.51500,0.00000,0.01671,0.97161,-0.21130,2023,6,12,10,21,44,246
0.00960,3.06250,-4.46250,0.00000,0.01769,0.97063,-0.21045,2023,6,12,10,21,44,257
0.00970,2.99250,-4.63750,0.00000,0.01427,0.96905,-0.21033,2023,6,12,10,21,44,268
0.00980,2.85250,-4.53250,0.00000,0.01525,0.97063,-0.21033,2023,6,12,10,21,44,279
0.00990,3.25500,-4.58500,0.00000,0.01659,0.96905,-0.21045,2023,6,12,10,21,44,290
0.01000,3.20250,-4.67250,0.00000,0.01598,0.96917,-0.21021,2023,6,12,10,21,45,2
0.01010,2.87000,-4.25250,0.00000,0.01440,0.96917,-0.20947,2023,6,12,10,21,45,13
0.01020,3.09750,-4.44500,0.00000,0.01598,0.97027,-0.20996,2023,6,12,10,21,45,24
0.01030,3.30750,-4.42750,0.00000,0.01464,0.97124,-0.20996,2023,6,12,10,21,45,35
0.01040,3.08000,-4.58500,0.00000,0.01732,0.97222,-0.21082,2023,6,12,10,21,45,46
0.01050,3.16750,-4.79500,0.00000,0.01562,0.97149,-0.21155,2023,6,12,10,21,45,57
0.01060,3.08000,-4.56750,0.00000,0.01671,0.97246,-0.20923,2023,6,12,10,21,45,68
0.01070,3.18500,-4.41000,0.00000,0.01501,0.97161,-0.21008,2023,6,12,10,21,45,79
0.01080,3.08000,-4.60250,0.00000,0.01598,0.97405,-0.20911,2023,6,12,10,21,45,90
0.01090,3.08000,-4.58500,0.00000,0.01781,0.97161,-0.20886,2023,6,12,10,21,45,102
0.01100,3.13250,-4.67250,0.00000,0.01696,0.96966,-0.21082,2023,6,12,10,21,45,113
0.01110,3.08000,-4.51500,0.00000,0.01562,0.97283,-0.21069,2023,6,12,10,21,45,124
0.01120,2.97500,-4.62000,0.00000,0.01427,0.97149,-0.21094,2023,6,12,10,21,45,135
0.01130,2.99250,-4.28750,0.00000,0.01549,0.97161,-0.20996,2023,6,12,10,21,45,146
0.01140,3.04500,-4.65500,0.00000,0.01488,0.97063,-0.21021,2023,6,12,10,21,45,157
0.01150,3.27250,-4.69000,0.00000,0.01574,0.97100,-0.21301,2023,6,12,10,21,45,168
0.01160,3.04500,-4.56750,0.00000,0.01501,0.97222,-0.20996,2023,6,12,10,21,45,179
0.01170,3.02750,-4.46250,0.00000,0.01586,0.97295,-0.20996,2023,6,12,10,21,45,190
0.01180,2.95750,-4.65500,0.00000,0.01488,0.97112,-0.20728,2023,6,12,10,21,45,202
0.01190,3.01000,-4.41000,0.00000,0.01549,0.97234,-0.20984,2023,6,12,10,21,45,213
0.01200,3.15000,-4.58500,0.00000,0.01476,0.97014,-0.21045,2023,6,12,10,21,45,224
0.01210,2.99250,-4.67250,0.00000,0.01501,0.97112,-0.20972,2023,6,12,10,21,45,235
0.01220,3.04500,-4.76000,0.00000,0.01574,0.97039,-0.20947,2023,6,12,10,21,45,246
0.01230,2.85250,-4.55000,0.00000,0.01549,0.96856,-0.21069,2023,6,12,10,21,45,257
0.01240,3.15000,-4.67250,0.00000,0.01513,0.97197,-0.21094,2023,6,12,10,21,45,268
0.01250,3.06250,-4.55000,0.00000,0.01732,0.97051,-0.21033,2023,6,12,10,21,45,279
0.01260,3.18500,-4.70750,0.00000,0.01574,0.97234,-0.21374,2023,6,12,10,21,45,290
0.01270,3.04500,-4.39250,0.00000,0.01549,0.97124,-0.20740,2023,6,12,10,21,45,302
0.01280,3.02750,-4.51500,0.00000,0.01427,0.97039,-0.20899,2023,6,12,10,21,45,313
0.01290,3.13250,-4.58500,0.00000,0.01391,0.97185,-0.20825,2023,6,12,10,21,45,324
0.01300,3.32500,-4.62000,0.00000,0.01586,0.97210,-0.21045,2023,6,12,10,21,45,335
0.01310,3.06250,-4.49750,0.00000,0.01659,0.97051,-0.20984,2023,6,12,10,21,45,346
0.01320,2.74750,-4.58500,0.00000,0.01562,0.97185,-0.21008,2023,6,12,10,21,45,357
0.01330,3.04500,-4.63750,0.00000,0.01696,0.96880,-0.21130,2023,6,12,10,21,45,368
0.01340,3.11500,-4.67250,0.00000,0.01452,0.97332,-0.20947,2023,6,12,10,21,45,379
0.01350,2.99250,-4.60250,0.00000,0.01452,0.97149,-0.21094,2023,6,12,10,21,45,390
0.01360,3.13250,-4.58500,0.00000,0.01586,0.96929,-0.21057,2023,6,12,10,21,45,402
0.01370,3.01000,-4.62000,0.00000,0.01598,0.97136,-0.21106,2023,6,12,10,21,45,413
0.01380,2.97500,-4.53250,0.00000,0.01732,0.97051,-0.21008,2023,6,12,10,21,45,424
0.01390,2.94000,-4.51500,0.00000,0.01696,0.97088,-0.20972,2023,6,12,10,21,45,435
0.01400,3.02750,-4.46250,0.00000,0.01623,0.97161,-0.21069,2023,6,12,10,21,45,446
0.01410,3.04500,-4.48000,0.00000,0.01659,0.97149,-0.21057,2023,6,12,10,21,45,457
0.01420,3.15000,-4.83000,0.00000,0.01513,0.97112,-0.21106,2023,6,12,10,21,45,468
0.01430,3.08000,-4.46250,0.00000,0.01635,0.97234,-0.21045,2023,6,12,10,21,45,479
0.01440,3.06250,-4.46250,0.00000,0.01586,0.97100,-0.20923,2023,6,12,10,21,45,490
0.01450,3.22000,-4.56750,0.00000,0.01525,0.97149,-0.20996,2023,6,12,10,21,45,502
0.01460,3.02750,-4.60250,0.00000,0.01610,0.96953,-0.20777,2023,6,12,10,21,45,513
0.01470,2.90500,-4.56750,0.00000,0.01659,0.97283,-0.20947,2023,6,12,10,21,45,524
0.01480,3.01000,-4.63750,0.00000,0.01549,0.97014,-0.21008,2023,6,12,10,21,45,535
0.01490,2.88750,-4.44500,0.00000,0.01281,0.97002,-0.20752,2023,6,12,10,21,45,546
0.01500,3.15000,-4.39250,0.00000,0.01574,0.96953,-0.21130,2023,6,12,10,21,45,557
0.01510,3.04500,-4.65500,0.00000,0.01720,0.97307,-0.21143,2023,6,12,10,21,45,568
0.01520,3.06250,-4.72500,0.00000,0.01598,0.96880,-0.20947,2023,6,12,10,21,45,579
0.01530,3.01000,-4.65500,0.00000,0.01549,0.97210,-0.20838,2023,6,12,10,21,45,590
0.01540,3.01000,-4.30500,0.00000,0.01415,0.97149,-0.21179,2023,6,12,10,21,45,602
0.01550,3.02750,-4.53250,0.00000,0.01488,0.96917,-0.20960,2023,6,12,10,21,45,613
0.01560,2.99250,-4.56750,0.00000,0.01610,0.96966,-0.20667,2023,6,12,10,21,45,624
0.01570,3.02750,-4.56750,0.00000,0.01647,0.97332,-0.20947,2023,6,12,10,21,45,635
0.01580,2.99250,-4.42750,0.00000,0.01708,0.96831,-0.20777,2023,6,12,10,21,45,646
0.01590,3.18500,-4.42750,0.00000,0.01586,0.97234,-0.20935,2023,6,12,10,21,45,657
0.01600,3.30750,-4.56750,0.00000,0.01623,0.97088,-0.21130,2023,6,12,10,21,45,668
0.01610,2.99250,-4.56750,0.00000,0.01525,0.96941,-0.20825,2023,6,12,10,21,45,679
0.01620,2.97500,-4.56750,0.00000,0.01745,0.97112,-0.20923,2023,6,12,10,21,45,690
0.01630,3.01000,-4.62000,0.00000,0.01549,0.97088,-0.21143,2023,6,12,10,21,45,702
0.01640,2.95750,-4.49750,0.00000,0.01757,0.97051,-0.21167,2023,6,12,10,21,45,713
0.01650,3.01000,-4.69000,0.00000,0.01525,0.97283,-0.21008,2023,6,12,10,21,45,724
0.01660,3.08000,-4.48000,0.00000,0.01708,0.97027,-0.20825,2023,6,12,10,21,45,735
0.01670,3.02750,-4.58500,0.00000,0.01806,0.97197,-0.20923,2023,6,12,10,21,45,746
0.01680,3.15000,-4.53250,0.00000,0.01732,0.97014,-0.20911,2023,6,12,10,21,45,757
0.01690,3.13250,-4.60250,0.00000,0.01464,0.97210,-0.21069,2023,6,12,10,21,45,768
0.01700,3.06250,-4.53250,0.00000,0.01525,0.96953,-0.21179,2023,6,12,10,21,45,779
0.01710,3.04500,-4.84750,0.00000,0.01391,0.96966,-0.21252,2023,6,12,10,21,45,790
0.01720,3.08000,-4.55000,0.00000,0.01818,0.96990,-0.21155,2023,6,12,10,21,45,802
0.01730,3.09750,-4.46250,0.00000,0.01793,0.96880,-0.21155,2023,6,12,10,21,45,813
0.01740,3.06250,-4.70750,0.00000,0.01464,0.97063,-0.20813,2023,6,12,10,21,45,824
0.01750,2.85250,-4.51500,0.00000,0.01659,0.97027,-0.20874,2023,6,12,10,21,45,835
0.01760,3.15000,-4.63750,0.00000,0.01610,0.96953,-0.21021,2023,6,12,10,21,45,846
0.01770,3.04500,-4.55000,0.00000,0.01318,0.97100,-0.20825,2023,6,12,10,21,45,857
0.01780,2.99250,-4.51500,0.00000,0.01586,0.97027,-0.20874,2023,6,12,10,21,45,868
0.01790,3.08000,-4.56750,0.00000,0.01671,0.97002,-0.21069,2023,6,12,10,21,45,879
0.01800,3.18500,-4.58500,0.00000,0.01452,0.97185,-0.20923,2023,6,12,10,21,45,890
0.01810,3.08000,-4.53250,0.00000,0.01696,0.96880,-0.20996,2023,6,12,10,21,45,902
0.01820,3.04500,-4.58500,0.00000,0.01647,0.97136,-0.20777,2023,6,12,10,21,45,913
0.01830,2.99250,-4.32250,0.00000,0.01415,0.97039,-0.20789,2023,6,12,10,21,45,924
0.01840,3.02750,-4.58500,0.00000,0.01476,0.97100,-0.21130,2023,6,12,10,21,45,935
0.01850,3.01000,-4.49750,0.00000,0.01562,0.96990,-0.20655,2023,6,12,10,21,45,946
0.01860,3.13250,-4.48000,0.00000,0.01501,0.97149,-0.21265,2023,6,12,10,21,45,957
0.01870,2.85250,-4.44500,0.00000,0.01586,0.97136,-0.21106,2023,6,12,10,21,46,8
0.01880,3.13250,-4.69000,0.00000,0.01562,0.97234,-0.21179,2023,6,12,10,21,46,19
0.01890,3.11500,-4.56750,0.00000,0.01684,0.97112,-0.20850,2023,6,12,10,21,46,30
0.01900,2.90500,-4.49750,0.00000,0.01464,0.97075,-0.20972,2023,6,12,10,21,46,42
0.01910,2.80000,-4.51500,0.00000,0.01647,0.96990,-0.20850,2023,6,12,10,21,46,53
0.01920,3.11500,-4.60250,0.00000,0.01440,0.97197,-0.21021,2023,6,12,10,21,46,64
0.01930,3.06250,-4.46250,0.00000,0.01708,0.97027,-0.20850,2023,6,12,10,21,46,75
0.01940,3.09750,-4.32250,0.00000,0.01562,0.97185,-0.21069,2023,6,12,10,21,46,86
0.01950,3.18500,-4.56750,0.00000,0.01513,0.97112,-0.21252,2023,6,12,10,21,46,97
0.01960,3.22000,-4.72500,0.00000,0.01732,0.97246,-0.21021,2023,6,12,10,21,46,108
0.01970,3.13250,-4.60250,0.00000,0.01708,0.97039,-0.20777,2023,6,12,10,21,46,119
0.01980,3.18500,-4.65500,0.00000,0.01330,0.97075,-0.20740,2023,6,12,10,21,46,130
0.01990,2.94000,-4.53250,0.00000,0.01623,0.97100,-0.20911,2023,6,12,10,21,46,142
0.02000,3.13250,-4.58500,0.00000,0.01476,0.97136,-0.20886,2023,6,12,10,21,46,153
0.02010,2.97500,-4.65500,0.00000,0.01391,0.97246,-0.20947,2023,6,12,10,21,46,164
0.02020,2.92250,-4.34000,0.00000,0.01635,0.97234,-0.20899,2023,6,12,10,21,46,175
0.02030,3.04500,-4.44500,0.00000,0.01244,0.97197,-0.20984,2023,6,12,10,21,46,186
0.02040,2.88750,-4.44500,0.00000,0.01623,0.97173,-0.21082,2023,6,12,10,21,46,197
0.02050,3.08000,-4.58500,0.00000,0.01745,0.97051,-0.20777,2023,6,12,10,21,46,208
0.02060,2.94000,-4.63750,0.00000,0.01537,0.97149,-0.20801,2023,6,12,10,21,46,219
0.02070,3.09750,-4.69000,0.00000,0.01757,0.97027,-0.20740,2023,6,12,10,21,46,230
0.02080,3.06250,-4.69000,0.00000,0.01647,0.96929,-0.20972,2023,6,12,10,21,46,242
0.02090,3.15000,-4.46250,0.00000,0.01708,0.97136,-0.21033,2023,6,12,10,21,46,253
0.02100,3.15000,-4.34000,0.00000,0.01562,0.97173,-0.20996,2023,6,12,10,21,46,264
0.02110,3.13250,-4.53250,0.00000,0.01586,0.96819,-0.21216,2023,6,12,10,21,46,275
0.02120,3.23750,-4.58500,0.00000,0.01549,0.97271,-0.21057,2023,6,12,10,21,46,286
0.02130,2.88750,-4.62000,0.00000,0.01537,0.97185,-0.21008,2023,6,12,10,21,46,297
0.02140,2.81750,-4.60250,0.00000,0.01586,0.97124,-0.20825,2023,6,12,10,21,46,308
0.02150,3.04500,-4.63750,0.00000,0.01415,0.97173,-0.20874,2023,6,12,10,21,46,319
0.02160,3.08000,-4.60250,0.00000,0.01501,0.97075,-0.21082,2023,6,12,10,21,46,330
0.02170,3.23750,-4.65500,0.00000,0.01671,0.97075,-0.21082,2023,6,12,10,21,46,342
0.02180,2.97500,-4.30500,0.00000,0.01574,0.97161,-0.20801,2023,6,12,10,21,46,353
0.02190,2.99250,-4.48000,0.00000,0.01635,0.97136,-0.21167,2023,6,12,10,21,46,364
0.02200,3.27250,-4.56750,0.00000,0.01732,0.97246,-0.20777,2023,6,12,10,21,46,375
0.02210,3.15000,-4.55000,0.00000,0.01793,0.97197,-0.21008,2023,6,12,10,21,46,386
0.02220,3.08000,-4.53250,0.00000,0.01708,0.96953,-0.20789,2023,6,12,10,21,46,397
0.02230,3.02750,-4.41000,0.00000,0.01806,0.97039,-0.20960,2023,6,12,10,21,46,408
0.02240,3.06250,-4.65500,0.00000,0.01415,0.97063,-0.21216,2023,6,12,10,21,46,419
0.02250,2.87000,-4.51500,0.00000,0.01452,0.97136,-0.20996,2023,6,12,10,21,46,430
0.02260,2.99250,-4.35750,0.00000,0.01427,0.97161,-0.20935,2023,6,12,10,21,46,442
0.02270,3.04500,-4.42750,0.00000,0.01525,0.96856,-0.20813,2023,6,12,10,21,46,453
0.02280,3.25500,-4.77750,0.00000,0.01525,0.97149,-0.20996,2023,6,12,10,21,46,464
0.02290,3.01000,-4.48000,0.00000,0.01635,0.97234,-0.21021,2023,6,12,10,21,46,475
0.02300,3.11500,-4.53250,0.00000,0.01720,0.97063,-0.20923,2023,6,12,10,21,46,486
0.02310,3.04500,-4.70750,0.00000,0.01574,0.96856,-0.21094,2023,6,12,10,21,46,497
0.02320,2.90500,-4.63750,0.00000,0.01513,0.96929,-0.21094,2023,6,12,10,21,46,508
0.02330,3.04500,-4.74250,0.00000,0.01562,0.96819,-0.20923,2023,6,12,10,21,46,519
0.02340,3.01000,-4.46250,0.00000,0.01623,0.97246,-0.21008,2023,6,12,10,21,46,530
0.02350,3.09750,-4.86500,0.00000,0.01732,0.97173,-0.20862,2023,6,12,10,21,46,542
0.02360,3.30750,-4.46250,0.00000,0.01586,0.97063,-0.20960,2023,6,12,10,21,46,553
0.02370,3.06250,-4.55000,0.00000,0.01647,0.97307,-0.21179,2023,6,12,10,21,46,564
0.02380,2.99250,-4.58500,0.00000,0.01464,0.97136,-0.20996,2023,6,12,10,21,46,575
0.02390,3.04500,-4.48000,0.00000,0.01671,0.97027,-0.20874,2023,6,12,10,21,46,586
0.02400,2.94000,-4.65500,0.00000,0.01574,0.97088,-0.20850,2023,6,12,10,21,46,597
0.02410,3.13250,-4.51500,0.00000,0.01671,0.96819,-0.20886,2023,6,12,10,21,46,608
0.02420,3.18500,-4.48000,0.00000,0.01732,0.97271,-0.21106,2023,6,12,10,21,46,619
0.02430,2.97500,-4.72500,0.00000,0.01586,0.96941,-0.20667,2023,6,12,10,21,46,630
0.02440,2.99250,-4.49750,0.00000,0.01549,0.96941,-0.20935,2023,6,12,10,21,46,642
0.02450,2.99250,-4.35750,0.00000,0.01464,0.96868,-0.21008,2023,6,12,10,21,46,653
0.02460,3.04500,-4.62000,0.00000,0.01586,0.97149,-0.21118,2023,6,12,10,21,46,664
0.02470,3.04500,-4.56750,0.00000,0.01708,0.97307,-0.20777,2023,6,12,10,21,46,675
0.02480,2.94000,-4.53250,0.00000,0.01476,0.97173,-0.20740,2023,6,12,10,21,46,686
0.02490,2.97500,-4.46250,0.00000,0.01830,0.97136,-0.21033,2023,6,12,10,21,46,697
0.02500,2.99250,-4.63750,0.00000,0.01635,0.97112,-0.21008,2023,6,12,10,21,46,708
0.02510,3.18500,-4.56750,0.00000,0.01586,0.97027,-0.20813,2023,6,12,10,21,46,719
0.02520,3.08000,-4.62000,0.00000,0.01586,0.97161,-0.20911,2023,6,12,10,21,46,730
0.02530,3.01000,-4.63750,0.00000,0.01415,0.96990,-0.21179,2023,6,12,10,21,46,742
0.02540,3.04500,-4.65500,0.00000,0.01342,0.96905,-0.21216,2023,6,12,10,21,46,753
0.02550,3.04500,-4.67250,0.00000,0.01574,0.97185,-0.20813,2023,6,12,10,21,46,764
0.02560,3.08000,-4.70750,0.00000,0.01440,0.96966,-0.21033,2023,6,12,10,21,46,775
0.02570,2.99250,-4.49750,0.00000,0.01793,0.97088,-0.20642,2023,6,12,10,21,46,786
0.02580,2.78250,-4.37500,0.00000,0.01720,0.97088,-0.21191,2023,6,12,10,21,46,797
0.02590,2.92250,-4.42750,0.00000,0.01488,0.97185,-0.21057,2023,6,12,10,21,46,808
0.02600,2.92250,-4.46250,0.00000,0.01427,0.97051,-0.21008,2023,6,12,10,21,46,819
0.02610,2.97500,-4.37500,0.00000,0.01647,0.97319,-0.21265,2023,6,12,10,21,46,830
0.02620,2.95750,-4.42750,0.00000,0.01549,0.97234,-0.20886,2023,6,12,10,21,46,842
0.02630,3.16750,-4.60250,0.00000,0.01610,0.96892,-0.20911,2023,6,12,10,21,46,853
0.02640,3.13250,-4.51500,0.00000,0.01647,0.96905,-0.21021,2023,6,12,10,21,46,864
0.02650,2.88750,-4.44500,0.00000,0.01671,0.97222,-0.20874,2023,6,12,10,21,46,875
0.02660,2.97500,-4.63750,0.00000,0.01342,0.96990,-0.21057,2023,6,12,10,21,46,886
0.02670,3.02750,-4.63750,0.00000,0.01586,0.97112,-0.20984,2023,6,12,10,21,46,897
0.02680,3.09750,-4.62000,0.00000,0.01427,0.97100,-0.21252,2023,6,12,10,21,46,908
0.02690,3.08000,-4.42750,0.00000,0.01610,0.97490,-0.21130,2023,6,12,10,21,46,919
0.02700,2.87000,-4.35750,0.00000,0.01635,0.96978,-0.21155,2023,6,12,10,21,46,930
0.02710,3.08000,-4.63750,0.00000,0.01854,0.97088,-0.20716,2023,6,12,10,21,46,942
0.02720,3.16750,-4.56750,0.00000,0.01513,0.97112,-0.21033,2023,6,12,10,21,46,953
0.02730,3.15000,-4.44500,0.00000,0.01525,0.97332,-0.20862,2023,6,12,10,21,46,964
0.02740,2.99250,-4.46250,0.00000,0.01671,0.97185,-0.20777,2023,6,12,10,21,46,975
0.02750,2.97500,-4.58500,0.00000,0.01574,0.97063,-0.20789,2023,6,12,10,21,47,6
0.02760,3.30750,-4.74250,0.00000,0.01586,0.97039,-0.21118,2023,6,12,10,21,47,17
0.02770,3.20250,-4.72500,0.00000,0.01574,0.97295,-0.20984,2023,6,12,10,21,47,28
0.02780,3.02750,-4.53250,0.00000,0.01513,0.97161,-0.20825,2023,6,12,10,21,47,39
0.02790,3.04500,-4.34000,0.00000,0.01488,0.97063,-0.20886,2023,6,12,10,21,47,50
0.02800,3.04500,-4.60250,0.00000,0.01647,0.97307,-0.20947,2023,6,12,10,21,47,62
0.02810,3.18500,-4.46250,0.00000,0.01574,0.97319,-0.20984,2023,6,12,10,21,47,73
0.02820,2.88750,-4.51500,0.00000,0.01501,0.97027,-0.20752,2023,6,12,10,21,47,84
0.02830,2.92250,-4.55000,0.00000,0.01464,0.97100,-0.20935,2023,6,12,10,21,47,95
0.02840,2.97500,-4.32250,0.00000,0.01696,0.97063,-0.20752,2023,6,12,10,21,47,106
0.02850,2.99250,-4.58500,0.00000,0.01513,0.97088,-0.20960,2023,6,12,10,21,47,117
0.02860,3.13250,-4.67250,0.00000,0.01769,0.96905,-0.20996,2023,6,12,10,21,47,128
0.02870,3.06250,-4.58500,0.00000,0.01464,0.97027,-0.20972,2023,6,12,10,21,47,139
0.02880,3.11500,-4.58500,0.00000,0.01684,0.97380,-0.20862,2023,6,12,10,21,47,150
0.02890,3.02750,-4.76000,0.00000,0.01476,0.97027,-0.21069,2023,6,12,10,21,47,162
0.02900,2.95750,-4.56750,0.00000,0.01598,0.96831,-0.20923,2023,6,12,10,21,47,173
0.02910,3.16750,-4.34000,0.00000,0.01696,0.96844,-0.20801,2023,6,12,10,21,47,184
0.02920,3.06250,-4.58500,0.00000,0.01549,0.97149,-0.21179,2023,6,12,10,21,47,195
0.02930,3.11500,-4.53250,0.00000,0.01440,0.97112,-0.20886,2023,6,12,10,21,47,206
0.02940,3.08000,-4.46250,0.00000,0.01684,0.97100,-0.20655,2023,6,12,10,21,47,217
0.02950,2.95750,-4.62000,0.00000,0.01488,0.97039,-0.20764,2023,6,12,10,21,47,228
0.02960,2.97500,-4.55000,0.00000,0.01574,0.96941,-0.20996,2023,6,12,10,21,47,239
0.02970,2.95750,-4.90000,0.00000,0.01671,0.97173,-0.20911,2023,6,12,10,21,47,250
0.02980,3.06250,-4.55000,0.00000,0.01781,0.97088,-0.20679,2023,6,12,10,21,47,262
0.02990,2.90500,-4.60250,0.00000,0.01635,0.96953,-0.20825,2023,6,12,10,21,47,273
0.03000,3.01000,-4.67250,0.00000,0.01684,0.96990,-0.20862,2023,6,12,10,21,47,284
0.03010,3.06250,-4.69000,0.00000,0.01501,0.96844,-0.21033,2023,6,12,10,21,47,295
0.03020,2.94000,-4.44500,0.00000,0.01318,0.97002,-0.21008,2023,6,12,10,21,47,306
0.03030,3.04500,-4.74250,0.00000,0.01598,0.97246,-0.20972,2023,6,12,10,21,47,317
0.03040,2.94000,-4.51500,0.00000,0.01659,0.97063,-0.20911,2023,6,12,10,21,47,328
0.03050,3.02750,-4.53250,0.00000,0.01574,0.97295,-0.21008,2023,6,12,10,21,47,339
0.03060,3.11500,-4.69000,0.00000,0.01488,0.97063,-0.20996,2023,6,12,10,21,47,350
0.03070,3.02750,-4.42750,0.00000,0.01464,0.96856,-0.20862,2023,6,12,10,21,47,362
0.03080,2.97500,-4.48000,0.00000,0.01610,0.96990,-0.20984,2023,6,12,10,21,47,373
0.03090,2.81750,-4.37500,0.00000,0.01708,0.97149,-0.21082,2023,6,12,10,21,47,384
0.03100,2.95750,-4.65500,0.00000,0.01745,0.97149,-0.21069,2023,6,12,10,21,47,395
0.03110,2.97500,-4.48000,0.00000,0.01501,0.97051,-0.20996,2023,6,12,10,21,47,406
0.03120,3.06250,-4.51500,0.00000,0.01464,0.97014,-0.21252,2023,6,12,10,21,47,417
0.03130,3.01000,-4.69000,0.00000,0.01598,0.97185,-0.20935,2023,6,12,10,21,47,428
0.03140,3.20250,-4.35750,0.00000,0.01464,0.97332,-0.20838,2023,6,12,10,21,47,439
0.03150,3.02750,-4.60250,0.00000,0.01623,0.97027,-0.20740,2023,6,12,10,21,47,450
0.03160,2.92250,-4.49750,0.00000,0.01684,0.97039,-0.20825,2023,6,12,10,21,47,462
0.03170,3.18500,-4.55000,0.00000,0.01732,0.97161,-0.21106,2023,6,12,10,21,47,473
0.03180,3.04500,-4.58500,0.00000,0.01549,0.97258,-0.20899,2023,6,12,10,21,47,484
0.03190,3.01000,-4.51500,0.00000,0.01427,0.96892,-0.20606,2023,6,12,10,21,47,495
0.03200,2.90500,-4.58500,0.00000,0.01635,0.97210,-0.20972,2023,6,12,10,21,47,506
0.03210,3.06250,-4.58500,0.00000,0.01684,0.97100,-0.20874,2023,6,12,10,21,47,517
0.03220,3.04500,-4.65500,0.00000,0.01501,0.96856,-0.20899,2023,6,12,10,21,47,528
0.03230,2.88750,-4.56750,0.00000,0.01562,0.97173,-0.20874,2023,6,12,10,21,47,539
0.03240,3.09750,-4.67250,0.00000,0.01635,0.97075,-0.20923,2023,6,12,10,21,47,550
0.03250,3.11500,-4.53250,0.00000,0.01525,0.97014,-0.21191,2023,6,12,10,21,47,562
0.03260,2.99250,-4.35750,0.00000,0.01720,0.97136,-0.20947,2023,6,12,10,21,47,573
0.03270,3.01000,-4.53250,0.00000,0.01427,0.97173,-0.21143,2023,6,12,10,21,47,584
0.03280,2.90500,-4.55000,0.00000,0.01574,0.97258,-0.21118,2023,6,12,10,21,47,595
0.03290,3.06250,-4.55000,0.00000,0.01391,0.97149,-0.21106,2023,6,12,10,21,47,606
0.03300,3.01000,-4.42750,0.00000,0.01928,0.97173,-0.20801,2023,6,12,10,21,47,617
0.03310,3.20250,-4.51500,0.00000,0.01671,0.97014,-0.20947,2023,6,12,10,21,47,628
0.03320,3.11500,-4.53250,0.00000,0.01366,0.97051,-0.20935,2023,6,12,10,21,47,639
0.03330,2.80000,-4.42750,0.00000,0.01671,0.96868,-0.20716,2023,6,12,10,21,47,650
0.03340,2.99250,-4.58500,0.00000,0.01708,0.97051,-0.20764,2023,6,12,10,21,47,662
0.03350,3.15000,-4.58500,0.00000,0.01574,0.97210,-0.20850,2023,6,12,10,21,47,673
0.03360,2.94000,-4.53250,0.00000,0.01586,0.97136,-0.20740,2023,6,12,10,21,47,684
0.03370,2.97500,-4.32250,0.00000,0.01513,0.97136,-0.20850,2023,6,12,10,21,47,695
0.03380,3.15000,-4.49750,0.00000,0.01879,0.97234,-0.20850,2023,6,12,10,21,47,706
0.03390,3.06250,-4.53250,0.00000,0.01574,0.97173,-0.20874,2023,6,12,10,21,47,717
0.03400,3.08000,-4.53250,0.00000,0.01684,0.97039,-0.20947,2023,6,12,10,21,47,728
0.03410,2.97500,-4.55000,0.00000,0.01610,0.96966,-0.20850,2023,6,12,10,21,47,739
0.03420,3.04500,-4.72500,0.00000,0.01525,0.97124,-0.20740,2023,6,12,10,21,47,750
0.03430,2.95750,-4.56750,0.00000,0.01476,0.97088,-0.20960,2023,6,12,10,21,47,762
0.03440,3.08000,-4.37500,0.00000,0.01732,0.97039,-0.20911,2023,6,12,10,21,47,773
0.03450,2.90500,-4.65500,0.00000,0.01574,0.97344,-0.21008,2023,6,12,10,21,47,784
0.03460,2.83500,-4.35750,0.00000,0.01513,0.96892,-0.20642,2023,6,12,10,21,47,795
0.03470,2.99250,-4.48000,0.00000,0.01647,0.97039,-0.20899,2023,6,12,10,21,47,806
0.03480,3.08000,-4.48000,0.00000,0.01513,0.97136,-0.20886,2023,6,12,10,21,47,817
0.03490,3.06250,-4.44500,0.00000,0.01647,0.97283,-0.21008,2023,6,12,10,21,47,828
0.03500,3.15000,-4.60250,0.00000,0.01549,0.97124,-0.20996,2023,6,12,10,21,47,839
0.03510,2.95750,-4.53250,0.00000,0.01757,0.97136,-0.21057,2023,6,12,10,21,47,850
0.03520,2.90500,-4.44500,0.00000,0.01574,0.97051,-0.20789,2023,6,12,10,21,47,862
0.03530,3.08000,-4.41000,0.00000,0.01586,0.96905,-0.20923,2023,6,12,10,21,47,873
0.03540,2.87000,-4.48000,0.00000,0.01427,0.97149,-0.20862,2023,6,12,10,21,47,884
0.03550,3.13250,-4.62000,0.00000,0.01659,0.97173,-0.20777,2023,6,12,10,21,47,895
0.03560,3.09750,-4.41000,0.00000,0.01562,0.97185,-0.21069,2023,6,12,10,21,47,906
0.03570,2.95750,-4.53250,0.00000,0.01696,0.97039,-0.21008,2023,6,12,10,21,47,917
0.03580,2.99250,-4.44500,0.00000,0.01623,0.97063,-0.20972,2023,6,12,10,21,47,928
0.03590,2.90500,-4.53250,0.00000,0.01537,0.97234,-0.21045,2023,6,12,10,21,47,939
0.03600,3.08000,-4.34000,0.00000,0.01818,0.96990,-0.21021,2023,6,12,10,21,47,950
0.03610,3.02750,-4.44500,0.00000,0.01781,0.97051,-0.21033,2023,6,12,10,21,47,962
0.03620,3.08000,-4.51500,0.00000,0.01574,0.96990,-0.21069,2023,6,12,10,21,48,3
0.03630,2.94000,-4.67250,0.00000,0.01647,0.97283,-0.21228,2023,6,12,10,21,48,14
0.03640,2.99250,-4.62000,0.00000,0.01610,0.97112,-0.20789,2023,6,12,10,21,48,25
0.03650,3.01000,-4.48000,0.00000,0.01562,0.97051,-0.20838,2023,6,12,10,21,48,36
0.03660,2.94000,-4.44500,0.00000,0.01488,0.97136,-0.20838,2023,6,12,10,21,48,47
0.03670,3.08000,-4.39250,0.00000,0.01635,0.97051,-0.21265,2023,6,12,10,21,48,58
0.03680,3.27250,-4.51500,0.00000,0.01525,0.97210,-0.21130,2023,6,12,10,21,48,69
0.03690,2.95750,-4.48000,0.00000,0.01513,0.97149,-0.20972,2023,6,12,10,21,48,80
0.03700,3.02750,-4.60250,0.00000,0.01501,0.97014,-0.20801,2023,6,12,10,21,48,92
0.03710,3.20250,-4.69000,0.00000,0.01427,0.96990,-0.20923,2023,6,12,10,21,48,103
0.03720,3.27250,-4.60250,0.00000,0.01659,0.97210,-0.21265,2023,6,12,10,21,48,114
0.03730,3.15000,-4.67250,0.00000,0.01586,0.97222,-0.21008,2023,6,12,10,21,48,125
0.03740,3.25500,-4.65500,0.00000,0.01671,0.97124,-0.20984,2023,6,12,10,21,48,136
0.03750,2.95750,-4.56750,0.00000,0.01708,0.97051,-0.21106,2023,6,12,10,21,48,147
0.03760,3.04500,-4.60250,0.00000,0.01476,0.97185,-0.20886,2023,6,12,10,21,48,158
0.03770,3.22000,-4.70750,0.00000,0.01623,0.97185,-0.21216,2023,6,12,10,21,48,169
0.03780,3.15000,-4.41000,0.00000,0.01586,0.97075,-0.21008,2023,6,12,10,21,48,180
0.03790,3.22000,-4.48000,0.00000,0.01476,0.97124,-0.21362,2023,6,12,10,21,48,192
0.03800,3.08000,-4.63750,0.00000,0.01696,0.97283,-0.20947,2023,6,12,10,21,48,203
0.03810,2.85250,-4.53250,0.00000,0.01440,0.97063,-0.21045,2023,6,12,10,21,48,214
0.03820,3.22000,-4.58500,0.00000,0.01720,0.97075,-0.21069,2023,6,12,10,21,48,225
0.03830,3.18500,-4.62000,0.00000,0.01525,0.97051,-0.21033,2023,6,12,10,21,48,236
0.03840,2.87000,-4.41000,0.00000,0.01745,0.96953,-0.20838,2023,6,12,10,21,48,247
0.03850,3.08000,-4.67250,0.00000,0.01671,0.97051,-0.20996,2023,6,12,10,21,48,258
0.03860,3.02750,-4.56750,0.00000,0.01440,0.97051,-0.21191,2023,6,12,10,21,48,269
0.03870,3.08000,-4.37500,0.00000,0.01745,0.97149,-0.20947,2023,6,12,10,21,48,280
0.03880,3.27250,-4.77750,0.00000,0.01391,0.97014,-0.21008,2023,6,12,10,21,48,292
0.03890,2.99250,-4.49750,0.00000,0.01318,0.96929,-0.21008,2023,6,12,10,21,48,303
0.03900,3.06250,-4.53250,0.00000,0.01684,0.97161,-0.21045,2023,6,12,10,21,48,314
0.03910,2.87000,-4.48000,0.00000,0.01488,0.97295,-0.21338,2023,6,12,10,21,48,325
0.03920,2.94000,-4.56750,0.00000,0.01769,0.97063,-0.20789,2023,6,12,10,21,48,336
0.03930,2.90500,-4.51500,0.00000,0.01586,0.97124,-0.20874,2023,6,12,10,21,48,347
0.03940,3.15000,-4.69000,0.00000,0.01610,0.97393,-0.21143,2023,6,12,10,21,48,358
0.03950,3.18500,-4.77750,0.00000,0.01708,0.97149,-0.21094,2023,6,12,10,21,48,369
0.03960,2.97500,-4.51500,0.00000,0.01610,0.96880,-0.20984,2023,6,12,10,21,48,380
0.03970,3.13250,-4.49750,0.00000,0.01635,0.96917,-0.21021,2023,6,12,10,21,48,392
0.03980,3.01000,-4.46250,0.00000,0.01464,0.97197,-0.20935,2023,6,12,10,21,48,403
0.03990,2.95750,-4.46250,0.00000,0.01769,0.97063,-0.20691,2023,6,12,10,21,48,414
0.04000,3.01000,-4.62000,0.00000,0.01598,0.97014,-0.20813,2023,6,12,10,21,48,425
0.04010,3.02750,-4.49750,0.00000,0.01488,0.97173,-0.21021,2023,6,12,10,21,48,436
0.04020,2.92250,-4.44500,0.00000,0.01671,0.97319,-0.20996,2023,6,12,10,21,48,447
0.04030,2.92250,-4.42750,0.00000,0.01562,0.96941,-0.20752,2023,6,12,10,21,48,458
0.04040,3.23750,-4.51500,0.00000,0.01659,0.97149,-0.20947,2023,6,12,10,21,48,469
0.04050,3.09750,-4.70750,0.00000,0.01391,0.97295,-0.20996,2023,6,12,10,21,48,480
0.04060,3.01000,-4.48000,0.00000,0.01574,0.97051,-0.21045,2023,6,12,10,21,48,492
0.04070,3.04500,-4.72500,0.00000,0.01623,0.97136,-0.20764,2023,6,12,10,21,48,503
0.04080,3.11500,-4.49750,0.00000,0.01806,0.97344,-0.21021,2023,6,12,10,21,48,514
0.04090,3.04500,-4.41000,0.00000,0.01574,0.97173,-0.20996,2023,6,12,10,21,48,525
0.04100,3.20250,-4.62000,0.00000,0.01488,0.97136,-0.21130,2023,6,12,10,21,48,536
0.04110,2.92250,-4.62000,0.00000,0.01586,0.96917,-0.20996,2023,6,12,10,21,48,547
0.04120,3.16750,-4.55000,0.00000,0.01671,0.97149,-0.20947,2023,6,12,10,21,48,558
0.04130,3.04500,-4.51500,0.00000,0.01476,0.97161,-0.20886,2023,6,12,10,21,48,569
0.04140,2.87000,-4.51500,0.00000,0.01671,0.96978,-0.21057,2023,6,12,10,21,48,580
0.04150,2.95750,-4.51500,0.00000,0.01720,0.96880,-0.20935,2023,6,12,10,21,48,592
0.04160,3.04500,-4.51500,0.00000,0.01696,0.96953,-0.20960,2023,6,12,10,21,48,603
0.04170,3.09750,-4.63750,0.00000,0.01525,0.97124,-0.21021,2023,6,12,10,21,48,614
0.04180,2.99250,-4.51500,0.00000,0.01562,0.97075,-0.21094,2023,6,12,10,21,48,625
0.04190,3.04500,-4.62000,0.00000,0.01781,0.97210,-0.21045,2023,6,12,10,21,48,636
0.04200,3.18500,-4.63750,0.00000,0.01623,0.97222,-0.21021,2023,6,12,10,21,48,647
0.04210,3.01000,-4.60250,0.00000,0.01427,0.96868,-0.20777,2023,6,12,10,21,48,658
0.04220,2.78250,-4.65500,0.00000,0.01635,0.97185,-0.20886,2023,6,12,10,21,48,669
0.04230,3.08000,-4.58500,0.00000,0.01696,0.96953,-0.20960,2023,6,12,10,21,48,680
0.04240,3.04500,-4.48000,0.00000,0.01488,0.97063,-0.21094,2023,6,12,10,21,48,692
0.04250,3.06250,-4.62000,0.00000,0.01537,0.97258,-0.20972,2023,6,12,10,21,48,703
0.04260,2.94000,-4.83000,0.00000,0.01647,0.96990,-0.20801,2023,6,12,10,21,48,714
0.04270,3.04500,-4.58500,0.00000,0.01427,0.97283,-0.20923,2023,6,12,10,21,48,725
0.04280,3.23750,-4.72500,0.00000,0.01659,0.97039,-0.20972,2023,6,12,10,21,48,736
0.04290,3.30750,-4.77750,0.00000,0.01464,0.97441,-0.20886,2023,6,12,10,21,48,747
0.04300,3.09750,-4.56750,0.00000,0.01684,0.97027,-0.20935,2023,6,12,10,21,48,758
0.04310,2.83500,-4.72500,0.00000,0.01720,0.97380,-0.20667,2023,6,12,10,21,48,769
0.04320,3.16750,-4.63750,0.00000,0.01525,0.97283,-0.20655,2023,6,12,10,21,48,780
0.04330,3.15000,-4.37500,0.00000,0.01635,0.97063,-0.20911,2023,6,12,10,21,48,792
0.04340,3.04500,-4.42750,0.00000,0.01488,0.97002,-0.20813,2023,6,12,10,21,48,803
0.04350,2.92250,-4.49750,0.00000,0.01623,0.97100,-0.21021,2023,6,12,10,21,48,814
0.04360,2.85250,-4.39250,0.00000,0.01574,0.96880,-0.20886,2023,6,12,10,21,48,825
0.04370,3.04500,-4.76000,0.00000,0.01684,0.97014,-0.20838,2023,6,12,10,21,48,836
0.04380,3.11500,-4.69000,0.00000,0.01501,0.97149,-0.20679,2023,6,12,10,21,48,847
0.04390,2.92250,-4.49750,0.00000,0.01659,0.97075,-0.20886,2023,6,12,10,21,48,858
0.04400,3.15000,-4.77750,0.00000,0.01403,0.97088,-0.20764,2023,6,12,10,21,48,869
0.04410,3.08000,-4.60250,0.00000,0.01574,0.97124,-0.21130,2023,6,12,10,21,48,880
0.04420,3.02750,-4.65500,0.00000,0.01635,0.97112,-0.20813,2023,6,12,10,21,48,892
0.04430,2.90500,-4.30500,0.00000,0.01659,0.97149,-0.20850,2023,6,12,10,21,48,903
0.04440,3.18500,-4.70750,0.00000,0.01476,0.97173,-0.21045,2023,6,12,10,21,48,914
0.04450,2.94000,-4.42750,0.00000,0.01501,0.97075,-0.21204,2023,6,12,10,21,48,925
0.04460,3.13250,-4.53250,0.00000,0.01830,0.97039,-0.20813,2023,6,12,10,21,48,936
0.04470,3.04500,-4.37500,0.00000,0.01586,0.97210,-0.20740,2023,6,12,10,21,48,947
0.04480,3.04500,-4.53250,0.00000,0.01635,0.97027,-0.20764,2023,6,12,10,21,48,958
0.04490,3.08000,-4.56750,0.00000,0.01513,0.96990,-0.20984,2023,6,12,10,21,48,969
0.04500,3.08000,-4.69000,0.00000,0.01562,0.97063,-0.21301,2023,6,12,10,21,49,0
0.04510,3.08000,-4.37500,0.00000,0.01586,0.97124,-0.20874,2023,6,12,10,21,49,12
0.04520,3.08000,-4.44500,0.00000,0.01586,0.97307,-0.21057,2023,6,12,10,21,49,23
0.04530,3.01000,-4.63750,0.00000,0.01696,0.97014,-0.20874,2023,6,12,10,21,49,34
0.04540,3.06250,-4.55000,0.00000,0.01537,0.97014,-0.20923,2023,6,12,10,21,49,45
0.04550,3.13250,-4.49750,0.00000,0.01549,0.97258,-0.20838,2023,6,12,10,21,49,56
0.04560,2.95750,-4.55000,0.00000,0.01745,0.97246,-0.20899,2023,6,12,10,21,49,67
0.04570,3.02750,-4.63750,0.00000,0.01537,0.97075,-0.20947,2023,6,12,10,21,49,78
0.04580,2.95750,-4.48000,0.00000,0.01647,0.96990,-0.21118,2023,6,12,10,21,49,89
0.04590,3.02750,-4.62000,0.00000,0.01671,0.96917,-0.20984,2023,6,12,10,21,49,100
0.04600,2.97500,-4.55000,0.00000,0.01696,0.97002,-0.20899,2023,6,12,10,21,49,112
0.04610,3.04500,-4.62000,0.00000,0.01403,0.97173,-0.20825,2023,6,12,10,21,49,123
0.04620,3.11500,-4.70750,0.00000,0.01525,0.97173,-0.21106,2023,6,12,10,21,49,134
0.04630,3.01000,-4.46250,0.00000,0.01379,0.96929,-0.20825,2023,6,12,10,21,49,145
0.04640,2.92250,-4.70750,0.00000,0.01501,0.96831,-0.20886,2023,6,12,10,21,49,156
0.04650,2.85250,-4.46250,0.00000,0.01586,0.97222,-0.20801,2023,6,12,10,21,49,167
0.04660,3.20250,-4.84750,0.00000,0.01598,0.97063,-0.20960,2023,6,12,10,21,49,178
0.04670,3.13250,-4.58500,0.00000,0.01732,0.96917,-0.20825,2023,6,12,10,21,49,189
0.04680,2.88750,-4.44500,0.00000,0.01635,0.97075,-0.20960,2023,6,12,10,21,49,200
0.04690,3.27250,-4.86500,0.00000,0.01318,0.97063,-0.21082,2023,6,12,10,21,49,212
0.04700,3.29000,-4.65500,0.00000,0.01598,0.97149,-0.20886,2023,6,12,10,21,49,223
0.04710,2.97500,-4.42750,0.00000,0.01647,0.97210,-0.21008,2023,6,12,10,21,49,234
0.04720,3.06250,-4.55000,0.00000,0.01745,0.97185,-0.20899,2023,6,12,10,21,49,245
0.04730,3.01000,-4.58500,0.00000,0.01769,0.96880,-0.20716,2023,6,12,10,21,49,256
0.04740,3.04500,-4.79500,0.00000,0.01488,0.97039,-0.20728,2023,6,12,10,21,49,267
0.04750,3.13250,-4.55000,0.00000,0.01659,0.97161,-0.21094,2023,6,12,10,21,49,278
0.04760,3.06250,-4.60250,0.00000,0.01598,0.97173,-0.20862,2023,6,12,10,21,49,289
0.04770,3.13250,-4.39250,0.00000,0.01635,0.97039,-0.20996,2023,6,12,10,21,49,300
0.04780,2.80000,-4.32250,0.00000,0.01671,0.97014,-0.21057,2023,6,12,10,21,49,312
0.04790,3.01000,-4.46250,0.00000,0.01537,0.97014,-0.20886,2023,6,12,10,21,49,323
0.04800,3.01000,-4.49750,0.00000,0.01598,0.97075,-0.20960,2023,6,12,10,21,49,334
0.04810,3.11500,-4.37500,0.00000,0.01476,0.97136,-0.20886,2023,6,12,10,21,49,345
0.04820,2.97500,-4.51500,0.00000,0.01488,0.97295,-0.20825,2023,6,12,10,21,49,356
0.04830,2.99250,-4.56750,0.00000,0.01732,0.97063,-0.20899,2023,6,12,10,21,49,367
0.04840,3.09750,-4.58500,0.00000,0.01769,0.97075,-0.20996,2023,6,12,10,21,49,378
0.04850,3.13250,-4.48000,0.00000,0.01598,0.97283,-0.20935,2023,6,12,10,21,49,389
0.04860,3.01000,-4.58500,0.00000,0.01549,0.97246,-0.20825,2023,6,12,10,21,49,400
0.04870,2.90500,-4.63750,0.00000,0.01513,0.97075,-0.20825,2023,6,12,10,21,49,412
0.04880,3.08000,-4.53250,0.00000,0.01537,0.96990,-0.20923,2023,6,12,10,21,49,423
0.04890,3.11500,-4.63750,0.00000,0.01452,0.97112,-0.20911,2023,6,12,10,21,49,434
0.04900,2.95750,-4.62000,0.00000,0.01476,0.97100,-0.21033,2023,6,12,10,21,49,445
0.04910,3.11500,-4.51500,0.00000,0.01318,0.97063,-0.20874,2023,6,12,10,21,49,456
0.04920,2.97500,-4.44500,0.00000,0.01891,0.97149,-0.20923,2023,6,12,10,21,49,467
0.04930,3.16750,-4.37500,0.00000,0.01671,0.97319,-0.21118,2023,6,12,10,21,49,478
0.04940,3.06250,-4.60250,0.00000,0.01464,0.97002,-0.21094,2023,6,12,10,21,49,489
0.04950,3.06250,-4.63750,0.00000,0.01647,0.97149,-0.20813,2023,6,12,10,21,49,500
0.04960,2.95750,-4.67250,0.00000,0.01610,0.97246,-0.21057,2023,6,12,10,21,49,512
0.04970,3.01000,-4.77750,0.00000,0.01537,0.97051,-0.21082,2023,6,12,10,21,49,523
0.04980,3.13250,-4.56750,0.00000,0.01598,0.96978,-0.20984,2023,6,12,10,21,49,534
0.04990,3.16750,-4.60250,0.00000,0.01732,0.96892,-0.20899,2023,6,12,10,21,49,545
0.05000,3.06250,-4.44500,0.00000,0.01537,0.97014,-0.20972,2023,6,12,10,21,49,556
0.05010,3.18500,-4.55000,0.00000,0.01391,0.97051,-0.21057,2023,6,12,10,21,49,567
0.05020,3.27250,-4.48000,0.00000,0.01745,0.97197,-0.21045,2023,6,12,10,21,49,578
0.05030,2.95750,-4.67250,0.00000,0.01745,0.97075,-0.21106,2023,6,12,10,21,49,589
0.05040,3.01000,-4.74250,0.00000,0.01659,0.97039,-0.21155,2023,6,12,10,21,49,600
0.05050,3.08000,-4.56750,0.00000,0.01659,0.97051,-0.21130,2023,6,12,10,21,49,612
0.05060,3.08000,-4.49750,0.00000,0.01464,0.97124,-0.21167,2023,6,12,10,21,49,623
0.05070,3.08000,-4.60250,0.00000,0.01647,0.97222,-0.21094,2023,6,12,10,21,49,634
0.05080,3.06250,-4.37500,0.00000,0.01427,0.97002,-0.20838,2023,6,12,10,21,49,645
0.05090,3.06250,-4.42750,0.00000,0.01403,0.97124,-0.21082,2023,6,12,10,21,49,656
0.05100,3.15000,-4.46250,0.00000,0.01427,0.96819,-0.21118,2023,6,12,10,21,49,667
0.05110,3.04500,-4.51500,0.00000,0.01647,0.97234,-0.21216,2023,6,12,10,21,49,678
0.05120,3.08000,-4.48000,0.00000,0.01549,0.97039,-0.20923,2023,6,12,10,21,49,689
0.05130,3.15000,-4.42750,0.00000,0.01403,0.96905,-0.20862,2023,6,12,10,21,49,700
0.05140,3.04500,-4.69000,0.00000,0.01684,0.97197,-0.21228,2023,6,12,10,21,49,712
0.05150,2.97500,-4.46250,0.00000,0.01623,0.96990,-0.21118,2023,6,12,10,21,49,723
0.05160,3.09750,-4.46250,0.00000,0.01610,0.96990,-0.20935,2023,6,12,10,21,49,734
0.05170,3.02750,-4.83000,0.00000,0.01781,0.97161,-0.21082,2023,6,12,10,21,49,745
0.05180,3.01000,-4.46250,0.00000,0.01781,0.97063,-0.21179,2023,6,12,10,21,49,756
0.05190,3.18500,-4.69000,0.00000,0.01452,0.97161,-0.21130,2023,6,12,10,21,49,767
0.05200,3.01000,-4.67250,0.00000,0.01501,0.97075,-0.20667,2023,6,12,10,21,49,778
0.05210,2.95750,-4.65500,0.00000,0.01732,0.96648,-0.21033,2023,6,12,10,21,49,789
0.05220,3.11500,-4.56750,0.00000,0.01684,0.97075,-0.20972,2023,6,12,10,21,49,800
0.05230,2.99250,-4.67250,0.00000,0.01684,0.97112,-0.21033,2023,6,12,10,21,49,812
0.05240,2.95750,-4.53250,0.00000,0.01427,0.97124,-0.20947,2023,6,12,10,21,49,823
0.05250,3.02750,-4.37500,0.00000,0.01781,0.97124,-0.21094,2023,6,12,10,21,49,834
0.05260,3.27250,-4.70750,0.00000,0.01659,0.97210,-0.21082,2023,6,12,10,21,49,845
0.05270,3.09750,-4.62000,0.00000,0.01464,0.97149,-0.21094,2023,6,12,10,21,49,856
0.05280,3.06250,-4.60250,0.00000,0.01708,0.96746,-0.20703,2023,6,12,10,21,49,867
0.05290,3.01000,-4.42750,0.00000,0.01549,0.97234,-0.21130,2023,6,12,10,21,49,878
0.05300,2.94000,-4.35750,0.00000,0.01671,0.96844,-0.20813,2023,6,12,10,21,49,889
0.05310,2.97500,-4.70750,0.00000,0.01537,0.97014,-0.21045,2023,6,12,10,21,49,900
0.05320,3.01000,-4.77750,0.00000,0.01659,0.97014,-0.20886,2023,6,12,10,21,49,912
0.05330,2.99250,-4.69000,0.00000,0.01610,0.97002,-0.21033,2023,6,12,10,21,49,923
0.05340,2.97500,-4.69000,0.00000,0.01501,0.96978,-0.20947,2023,6,12,10,21,49,934
0.05350,2.83500,-4.55000,0.00000,0.01525,0.96722,-0.20764,2023,6,12,10,21,49,945
0.05360,3.18500,-4.79500,0.00000,0.01549,0.97002,-0.21204,2023,6,12,10,21,50,6
0.05370,3.09750,-4.56750,0.00000,0.01659,0.97100,-0.21179,2023,6,12,10,21,50,17
0.05380,3.15000,-4.67250,0.00000,0.01427,0.96966,-0.20996,2023,6,12,10,21,50,28
0.05390,3.04500,-4.41000,0.00000,0.01488,0.97075,-0.20984,2023,6,12,10,21,50,39
0.05400,3.16750,-4.44500,0.00000,0.01501,0.97234,-0.20911,2023,6,12,10,21,50,50
0.05410,2.88750,-4.18250,0.00000,0.01464,0.97161,-0.21069,2023,6,12,10,21,50,62
0.05420,3.20250,-4.53250,0.00000,0.01720,0.97124,-0.20972,2023,6,12,10,21,50,73
0.05430,3.01000,-4.65500,0.00000,0.01732,0.96953,-0.20899,2023,6,12,10,21,50,84
0.05440,3.13250,-4.56750,0.00000,0.01562,0.97185,-0.20813,2023,6,12,10,21,50,95
0.05450,3.02750,-4.49750,0.00000,0.01476,0.97258,-0.21008,2023,6,12,10,21,50,106
0.05460,3.04500,-4.69000,0.00000,0.01525,0.97258,-0.21045,2023,6,12,10,21,50,117
0.05470,2.94000,-4.58500,0.00000,0.01513,0.97075,-0.20740,2023,6,12,10,21,50,128
0.05480,2.85250,-4.55000,0.00000,0.01537,0.96929,-0.20752,2023,6,12,10,21,50,139
0.05490,2.97500,-4.69000,0.00000,0.01269,0.97075,-0.21045,2023,6,12,10,21,50,150
0.05500,2.99250,-4.44500,0.00000,0.01549,0.96966,-0.21216,2023,6,12,10,21,50,162
0.05510,3.04500,-4.76000,0.00000,0.01647,0.96831,-0.20886,2023,6,12,10,21,50,173
0.05520,3.01000,-4.55000,0.00000,0.01793,0.97405,-0.21106,2023,6,12,10,21,50,184
0.05530,3.11500,-4.69000,0.00000,0.01549,0.97197,-0.20838,2023,6,12,10,21,50,195
0.05540,3.08000,-4.32250,0.00000,0.01647,0.97051,-0.21216,2023,6,12,10,21,50,206
0.05550,3.25500,-4.48000,0.00000,0.01708,0.97100,-0.21179,2023,6,12,10,21,50,217
0.05560,3.06250,-4.42750,0.00000,0.01427,0.97039,-0.20935,2023,6,12,10,21,50,228
0.05570,3.11500,-4.53250,0.00000,0.01745,0.96978,-0.21350,2023,6,12,10,21,50,239
0.05580,3.02750,-4.60250,0.00000,0.01549,0.97173,-0.21130,2023,6,12,10,21,50,250
0.05590,3.04500,-4.72500,0.00000,0.01501,0.97197,-0.21021,2023,6,12,10,21,50,262
0.05600,3.20250,-4.51500,0.00000,0.01464,0.96831,-0.20642,2023,6,12,10,21,50,273
0.05610,3.08000,-4.39250,0.00000,0.01720,0.97149,-0.20984,2023,6,12,10,21,50,284
0.05620,3.13250,-4.60250,0.00000,0.01684,0.97173,-0.21216,2023,6,12,10,21,50,295
0.05630,3.02750,-4.76000,0.00000,0.01659,0.97124,-0.20960,2023,6,12,10,21,50,306
0.05640,3.18500,-4.56750,0.00000,0.01684,0.97039,-0.21167,2023,6,12,10,21,50,317
0.05650,3.13250,-4.58500,0.00000,0.01915,0.97100,-0.20984,2023,6,12,10,21,50,328
0.05660,3.15000,-4.28750,0.00000,0.01671,0.97039,-0.20789,2023,6,12,10,21,50,339
0.05670,3.01000,-4.58500,0.00000,0.01659,0.97136,-0.21094,2023,6,12,10,21,50,350
0.05680,3.11500,-4.65500,0.00000,0.01391,0.97039,-0.21045,2023,6,12,10,21,50,362
0.05690,3.01000,-4.62000,0.00000,0.01696,0.97039,-0.20960,2023,6,12,10,21,50,373
0.05700,3.13250,-4.35750,0.00000,0.01708,0.97039,-0.20960,2023,6,12,10,21,50,384
0.05710,2.97500,-4.55000,0.00000,0.01647,0.96685,-0.21204,2023,6,12,10,21,50,395
0.05720,2.92250,-4.56750,0.00000,0.01525,0.97173,-0.20874,2023,6,12,10,21,50,406
0.05730,2.95750,-4.53250,0.00000,0.01574,0.96966,-0.20777,2023,6,12,10,21,50,417
0.05740,3.18500,-4.69000,0.00000,0.01476,0.97063,-0.20947,2023,6,12,10,21,50,428
0.05750,2.95750,-4.62000,0.00000,0.01513,0.97161,-0.20984,2023,6,12,10,21,50,439
0.05760,3.04500,-4.53250,0.00000,0.01537,0.96978,-0.21106,2023,6,12,10,21,50,450
0.05770,3.04500,-4.53250,0.00000,0.01196,0.97173,-0.21106,2023,6,12,10,21,50,462
0.05780,2.95750,-4.83000,0.00000,0.01598,0.96905,-0.21326,2023,6,12,10,21,50,473
0.05790,3.22000,-4.53250,0.00000,0.01574,0.97210,-0.20911,2023,6,12,10,21,50,484
0.05800,3.01000,-4.62000,0.00000,0.01525,0.96917,-0.21069,2023,6,12,10,21,50,495
0.05810,2.94000,-4.65500,0.00000,0.01696,0.97234,-0.20777,2023,6,12,10,21,50,506
0.05820,2.99250,-4.53250,0.00000,0.01525,0.97002,-0.21021,2023,6,12,10,21,50,517
0.05830,3.04500,-4.56750,0.00000,0.01647,0.97271,-0.21094,2023,6,12,10,21,50,528
0.05840,3.22000,-4.62000,0.00000,0.01427,0.97136,-0.21045,2023,6,12,10,21,50,539
0.05850,3.08000,-4.70750,0.00000,0.01562,0.97039,-0.21289,2023,6,12,10,21,50,550
0.05860,2.85250,-4.56750,0.00000,0.01488,0.97149,-0.20874,2023,6,12,10,21,50,562
0.05870,3.20250,-4.58500,0.00000,0.01513,0.97002,-0.20838,2023,6,12,10,21,50,573
0.05880,2.95750,-4.35750,0.00000,0.01623,0.96953,-0.21045,2023,6,12,10,21,50,584
0.05890,3.04500,-4.49750,0.00000,0.01659,0.97075,-0.20850,2023,6,12,10,21,50,595
0.05900,2.99250,-4.70750,0.00000,0.01342,0.97063,-0.20789,2023,6,12,10,21,50,606
0.05910,2.87000,-4.62000,0.00000,0.01513,0.96953,-0.20838,2023,6,12,10,21,50,617
0.05920,3.15000,-4.41000,0.00000,0.01549,0.97295,-0.21118,2023,6,12,10,21,50,628
0.05930,3.13250,-4.53250,0.00000,0.01671,0.97027,-0.21082,2023,6,12,10,21,50,639
0.05940,3.11500,-4.60250,0.00000,0.01427,0.97112,-0.20886,2023,6,12,10,21,50,650
0.05950,2.99250,-4.53250,0.00000,0.01488,0.97100,-0.20764,2023,6,12,10,21,50,662
0.05960,2.95750,-4.46250,0.00000,0.01488,0.97185,-0.21045,2023,6,12,10,21,50,673
0.05970,3.08000,-4.69000,0.00000,0.01537,0.97136,-0.21008,2023,6,12,10,21,50,684
0.05980,3.01000,-4.60250,0.00000,0.01562,0.97136,-0.21057,2023,6,12,10,21,50,695
0.05990,3.04500,-4.37500,0.00000,0.01549,0.97197,-0.20947,2023,6,12,10,21,50,706
0.06000,3.06250,-4.44500,0.00000,0.01440,0.97161,-0.21008,2023,6,12,10,21,50,717
0.06010,2.94000,-4.42750,0.00000,0.01757,0.97027,-0.21240,2023,6,12,10,21,50,728
0.06020,3.11500,-4.69000,0.00000,0.01598,0.97222,-0.20984,2023,6,12,10,21,50,739
0.06030,2.99250,-4.58500,0.00000,0.01806,0.97271,-0.20911,2023,6,12,10,21,50,750
0.06040,3.06250,-4.69000,0.00000,0.01671,0.97112,-0.21289,2023,6,12,10,21,50,762
0.06050,3.18500,-4.74250,0.00000,0.01610,0.97075,-0.21179,2023,6,12,10,21,50,773
0.06060,3.02750,-4.63750,0.00000,0.01854,0.97295,-0.21387,2023,6,12,10,21,50,784
0.06070,3.08000,-4.60250,0.00000,0.01379,0.97051,-0.21033,2023,6,12,10,21,50,795
0.06080,3.13250,-4.48000,0.00000,0.01818,0.97051,-0.21155,2023,6,12,10,21,50,806
0.06090,3.08000,-4.53250,0.00000,0.01501,0.97063,-0.21191,2023,6,12,10,21,50,817
0.06100,2.92250,-4.27000,0.00000,0.01708,0.96917,-0.20923,2023,6,12,10,21,50,828
0.06110,3.08000,-4.39250,0.00000,0.01610,0.97051,-0.21008,2023,6,12,10,21,50,839
0.06120,2.97500,-4.56750,0.00000,0.01525,0.97271,-0.21008,2023,6,12,10,21,50,850
0.06130,2.88750,-4.49750,0.00000,0.01671,0.96929,-0.21204,2023,6,12,10,21,50,862
0.06140,3.04500,-4.65500,0.00000,0.01391,0.97014,-0.21033,2023,6,12,10,21,50,873
0.06150,3.01000,-4.39250,0.00000,0.01684,0.97039,-0.20984,2023,6,12,10,21,50,884
0.06160,2.94000,-4.51500,0.00000,0.01647,0.97149,-0.21106,2023,6,12,10,21,50,895
0.06170,3.02750,-4.44500,0.00000,0.01598,0.97027,-0.21191,2023,6,12,10,21,50,906
0.06180,3.08000,-4.62000,0.00000,0.01488,0.96978,-0.21338,2023,6,12,10,21,50,917
0.06190,3.08000,-4.46250,0.00000,0.01513,0.97234,-0.20667,2023,6,12,10,21,50,928
0.06200,2.95750,-4.51500,0.00000,0.01562,0.97002,-0.20777,2023,6,12,10,21,50,939
0.06210,2.81750,-4.44500,0.00000,0.01598,0.97173,-0.20813,2023,6,12,10,21,50,950
0.06220,3.08000,-4.69000,0.00000,0.01257,0.97100,-0.20947,2023,6,12,10,21,50,962
0.06230,2.95750,-4.41000,0.00000,0.01623,0.97075,-0.20947,2023,6,12,10,21,51,3
0.06240,3.01000,-4.69000,0.00000,0.01684,0.97173,-0.20911,2023,6,12,10,21,51,14
0.06250,2.97500,-4.62000,0.00000,0.01501,0.97295,-0.20972,2023,6,12,10,21,51,25
0.06260,3.02750,-4.60250,0.00000,0.01720,0.97197,-0.20996,2023,6,12,10,21,51,36
0.06270,2.97500,-4.34000,0.00000,0.01501,0.96929,-0.21240,2023,6,12,10,21,51,47
0.06280,2.99250,-4.18250,0.00000,0.01745,0.97197,-0.21045,2023,6,12,10,21,51,58
0.06290,3.08000,-4.58500,0.00000,0.01720,0.97185,-0.20935,2023,6,12,10,21,51,69
0.06300,2.99250,-4.65500,0.00000,0.01659,0.97051,-0.21045,2023,6,12,10,21,51,80
0.06310,2.99250,-4.46250,0.00000,0.01501,0.97075,-0.21094,2023,6,12,10,21,51,92
0.06320,2.87000,-4.46250,0.00000,0.01574,0.96929,-0.21167,2023,6,12,10,21,51,103
0.06330,2.95750,-4.44500,0.00000,0.01427,0.97295,-0.21082,2023,6,12,10,21,51,114
0.06340,2.94000,-4.76000,0.00000,0.01708,0.97258,-0.20764,2023,6,12,10,21,51,125
0.06350,3.08000,-4.58500,0.00000,0.01391,0.96929,-0.21204,2023,6,12,10,21,51,136
0.06360,3.13250,-4.69000,0.00000,0.01574,0.97210,-0.20886,2023,6,12,10,21,51,147
0.06370,3.11500,-4.48000,0.00000,0.01610,0.96978,-0.20996,2023,6,12,10,21,51,158
0.06380,3.18500,-4.69000,0.00000,0.01708,0.97100,-0.21167,2023,6,12,10,21,51,169
0.06390,2.99250,-4.25250,0.00000,0.01501,0.96978,-0.20801,2023,6,12,10,21,51,180
0.06400,3.08000,-4.67250,0.00000,0.01623,0.96905,-0.20996,2023,6,12,10,21,51,192
0.06410,2.97500,-4.65500,0.00000,0.01488,0.97185,-0.21057,2023,6,12,10,21,51,203
0.06420,3.09750,-4.76000,0.00000,0.01623,0.97100,-0.21106,2023,6,12,10,21,51,214
0.06430,2.92250,-4.39250,0.00000,0.01537,0.97014,-0.20935,2023,6,12,10,21,51,225
0.06440,3.04500,-4.79500,0.00000,0.01452,0.97246,-0.20874,2023,6,12,10,21,51,236
0.06450,3.25500,-4.58500,0.00000,0.01537,0.97051,-0.20752,2023,6,12,10,21,51,247
0.06460,3.22000,-4.81250,0.00000,0.01452,0.97014,-0.21167,2023,6,12,10,21,51,258
0.06470,2.99250,-4.35750,0.00000,0.01647,0.97222,-0.21204,2023,6,12,10,21,51,269
0.06480,3.01000,-4.42750,0.00000,0.01806,0.97051,-0.20838,2023,6,12,10,21,51,280
0.06490,3.11500,-4.34000,0.00000,0.01732,0.96831,-0.20972,2023,6,12,10,21,51,292
0.06500,3.27250,-4.56750,0.00000,0.01476,0.97197,-0.21130,2023,6,12,10,21,51,303
0.06510,3.16750,-4.48000,0.00000,0.01452,0.96990,-0.20850,2023,6,12,10,21,51,314
0.06520,2.78250,-4.65500,0.00000,0.01647,0.96807,-0.20825,2023,6,12,10,21,51,325
0.06530,3.09750,-4.58500,0.00000,0.01537,0.97234,-0.21094,2023,6,12,10,21,51,336
0.06540,3.04500,-4.62000,0.00000,0.01598,0.97075,-0.21228,2023,6,12,10,21,51,347
0.06550,2.90500,-4.67250,0.00000,0.01525,0.97210,-0.20911,2023,6,12,10,21,51,358
0.06560,2.95750,-4.56750,0.00000,0.01769,0.97173,-0.21069,2023,6,12,10,21,51,369
0.06570,3.13250,-4.37500,0.00000,0.01366,0.97197,-0.20972,2023,6,12,10,21,51,380
0.06580,2.99250,-4.70750,0.00000,0.01696,0.97283,-0.21045,2023,6,12,10,21,51,392
0.06590,3.04500,-4.62000,0.00000,0.01757,0.97210,-0.21008,2023,6,12,10,21,51,403
0.06600,3.15000,-4.62000,0.00000,0.01781,0.97161,-0.20911,2023,6,12,10,21,51,414
0.06610,2.94000,-4.58500,0.00000,0.01525,0.97271,-0.20899,2023,6,12,10,21,51,425
0.06620,3.01000,-4.76000,0.00000,0.01708,0.97173,-0.21033,2023,6,12,10,21,51,436
0.06630,3.22000,-4.72500,0.00000,0.01659,0.97307,-0.21069,2023,6,12,10,21,51,447
0.06640,3.09750,-4.51500,0.00000,0.01732,0.97027,-0.20972,2023,6,12,10,21,51,458
0.06650,3.29000,-4.44500,0.00000,0.01684,0.96770,-0.20935,2023,6,12,10,21,51,469
0.06660,3.13250,-4.76000,0.00000,0.01464,0.97051,-0.21265,2023,6,12,10,21,51,480
0.06670,3.01000,-4.63750,0.00000,0.01525,0.97332,-0.20886,2023,6,12,10,21,51,492
0.06680,3.01000,-4.56750,0.00000,0.01684,0.97258,-0.20764,2023,6,12,10,21,51,503
0.06690,2.97500,-4.34000,0.00000,0.01610,0.97124,-0.20996,2023,6,12,10,21,51,514
0.06700,2.94000,-4.65500,0.00000,0.01598,0.97234,-0.20911,2023,6,12,10,21,51,525
0.06710,2.99250,-4.51500,0.00000,0.01488,0.97124,-0.20838,2023,6,12,10,21,51,536
0.06720,2.88750,-4.51500,0.00000,0.01586,0.96880,-0.20972,2023,6,12,10,21,51,547
0.06730,3.01000,-4.62000,0.00000,0.01574,0.97075,-0.21143,2023,6,12,10,21,51,558
0.06740,2.90500,-4.44500,0.00000,0.01549,0.97088,-0.21021,2023,6,12,10,21,51,569
0.06750,3.04500,-4.62000,0.00000,0.01391,0.97051,-0.21179,2023,6,12,10,21,51,580
0.06760,3.08000,-4.60250,0.00000,0.01635,0.97100,-0.20960,2023,6,12,10,21,51,592
0.06770,3.18500,-4.60250,0.00000,0.01513,0.97197,-0.20862,2023,6,12,10,21,51,603
0.06780,3.16750,-4.49750,0.00000,0.01501,0.97027,-0.21008,2023,6,12,10,21,51,614
0.06790,3.01000,-4.44500,0.00000,0.01610,0.97002,-0.20947,2023,6,12,10,21,51,625
0.06800,3.18500,-4.62000,0.00000,0.01708,0.97210,-0.21082,2023,6,12,10,21,51,636
0.06810,2.97500,-4.48000,0.00000,0.01696,0.97088,-0.20850,2023,6,12,10,21,51,647
0.06820,3.06250,-4.60250,0.00000,0.01562,0.97027,-0.20899,2023,6,12,10,21,51,658
0.06830,3.09750,-4.49750,0.00000,0.01525,0.97149,-0.21167,2023,6,12,10,21,51,669
0.06840,2.97500,-4.58500,0.00000,0.01501,0.97185,-0.21033,2023,6,12,10,21,51,680
0.06850,3.18500,-4.65500,0.00000,0.01732,0.97075,-0.20935,2023,6,12,10,21,51,692
0.06860,2.95750,-4.53250,0.00000,0.01476,0.96880,-0.21118,2023,6,12,10,21,51,703
0.06870,3.08000,-4.72500,0.00000,0.01305,0.97380,-0.21216,2023,6,12,10,21,51,714
0.06880,2.95750,-4.55000,0.00000,0.01781,0.97258,-0.21082,2023,6,12,10,21,51,725
0.06890,3.09750,-4.48000,0.00000,0.01684,0.96856,-0.21069,2023,6,12,10,21,51,736
0.06900,3.01000,-4.69000,0.00000,0.01598,0.96929,-0.20960,2023,6,12,10,21,51,747
0.06910,2.88750,-4.44500,0.00000,0.01635,0.97185,-0.21021,2023,6,12,10,21,51,758
0.06920,2.99250,-4.28750,0.00000,0.01708,0.97100,-0.20947,2023,6,12,10,21,51,769
0.06930,2.90500,-4.56750,0.00000,0.01549,0.97063,-0.20801,2023,6,12,10,21,51,780
0.06940,2.87000,-4.60250,0.00000,0.01549,0.97197,-0.20874,2023,6,12,10,21,51,792
0.06950,2.99250,-4.46250,0.00000,0.01586,0.97319,-0.21167,2023,6,12,10,21,51,803
0.06960,3.09750,-4.42750,0.00000,0.01671,0.96966,-0.21082,2023,6,12,10,21,51,814
0.06970,2.87000,-4.83000,0.00000,0.01745,0.96966,-0.20923,2023,6,12,10,21,51,825
0.06980,2.94000,-4.55000,0.00000,0.01476,0.97173,-0.20972,2023,6,12,10,21,51,836
0.06990,3.18500,-4.69000,0.00000,0.01781,0.97014,-0.21057,2023,6,12,10,21,51,847
0.07000,2.94000,-4.46250,0.00000,0.01537,0.97234,-0.21167,2023,6,12,10,21,51,858
0.07010,2.97500,-4.60250,0.00000,0.01696,0.97161,-0.20923,2023,6,12,10,21,51,869
0.07020,2.99250,-4.41000,0.00000,0.01647,0.97161,-0.20984,2023,6,12,10,21,51,880
0.07030,3.06250,-4.53250,0.00000,0.01574,0.97124,-0.20764,2023,6,12,10,21,51,892
0.07040,3.11500,-4.56750,0.00000,0.01586,0.97051,-0.21057,2023,6,12,10,21,51,903
0.07050,2.94000,-4.55000,0.00000,0.01562,0.97136,-0.21155,2023,6,12,10,21,51,914
0.07060,2.99250,-4.58500,0.00000,0.01781,0.96941,-0.21130,2023,6,12,10,21,51,925
0.07070,2.95750,-4.46250,0.00000,0.01586,0.97124,-0.21021,2023,6,12,10,21,51,936
0.07080,3.01000,-4.53250,0.00000,0.01647,0.97149,-0.20972,2023,6,12,10,21,51,947
0.07090,3.18500,-4.58500,0.00000,0.01623,0.97002,-0.20630,2023,6,12,10,21,51,958
0.07100,3.02750,-4.62000,0.00000,0.01696,0.97039,-0.20862,2023,6,12,10,21,51,969
0.07110,2.94000,-4.53250,0.00000,0.01379,0.97197,-0.21069,2023,6,12,10,21,52,0
0.07120,3.13250,-4.70750,0.00000,0.01671,0.97002,-0.21082,2023,6,12,10,21,52,12
0.07130,2.99250,-4.70750,0.00000,0.01635,0.97039,-0.20996,2023,6,12,10,21,52,23
0.07140,2.90500,-4.46250,0.00000,0.01586,0.97417,-0.20960,2023,6,12,10,21,52,34
0.07150,3.13250,-4.60250,0.00000,0.01732,0.97112,-0.20789,2023,6,12,10,21,52,45
0.07160,3.18500,-4.72500,0.00000,0.01732,0.97173,-0.20789,2023,6,12,10,21,52,56
0.07170,3.18500,-4.55000,0.00000,0.01525,0.97307,-0.21069,2023,6,12,10,21,52,67
0.07180,2.99250,-4.70750,0.00000,0.01586,0.97161,-0.20825,2023,6,12,10,21,52,78
0.07190,2.81750,-4.44500,0.00000,0.01403,0.96978,-0.20899,2023,6,12,10,21,52,89
0.07200,3.04500,-4.55000,0.00000,0.01501,0.97112,-0.21167,2023,6,12,10,21,52,100
0.07210,3.01000,-4.62000,0.00000,0.01684,0.97112,-0.20838,2023,6,12,10,21,52,112
0.07220,3.18500,-4.60250,0.00000,0.01696,0.97088,-0.20813,2023,6,12,10,21,52,123
0.07230,2.94000,-4.55000,0.00000,0.01549,0.97161,-0.21106,2023,6,12,10,21,52,134
0.07240,2.99250,-4.63750,0.00000,0.01623,0.97222,-0.21033,2023,6,12,10,21,52,145
0.07250,3.13250,-4.69000,0.00000,0.01623,0.97161,-0.21228,2023,6,12,10,21,52,156
0.07260,3.04500,-4.55000,0.00000,0.01745,0.97039,-0.20984,2023,6,12,10,21,52,167
0.07270,2.92250,-4.51500,0.00000,0.01452,0.96905,-0.21008,2023,6,12,10,21,52,178
0.07280,3.08000,-4.60250,0.00000,0.01745,0.97161,-0.21069,2023,6,12,10,21,52,189
0.07290,3.01000,-4.65500,0.00000,0.01659,0.97246,-0.21167,2023,6,12,10,21,52,200
0.07300,3.18500,-4.51500,0.00000,0.01623,0.97112,-0.20960,2023,6,12,10,21,52,212
0.07310,3.18500,-4.65500,0.00000,0.01549,0.96990,-0.20996,2023,6,12,10,21,52,223
0.07320,3.09750,-4.69000,0.00000,0.01684,0.97088,-0.21106,2023,6,12,10,21,52,234
0.07330,3.01000,-4.39250,0.00000,0.01562,0.97283,-0.21118,2023,6,12,10,21,52,245
0.07340,3.02750,-4.48000,0.00000,0.01476,0.97197,-0.21082,2023,6,12,10,21,52,256
0.07350,3.04500,-4.49750,0.00000,0.01452,0.97197,-0.20752,2023,6,12,10,21,52,267
0.07360,2.95750,-4.65500,0.00000,0.01671,0.96880,-0.20813,2023,6,12,10,21,52,278
0.07370,3.22000,-4.67250,0.00000,0.01427,0.97063,-0.21118,2023,6,12,10,21,52,289
0.07380,3.02750,-4.70750,0.00000,0.01684,0.97112,-0.21155,2023,6,12,10,21,52,300
0.07390,2.85250,-4.63750,0.00000,0.01488,0.97283,-0.21265,2023,6,12,10,21,52,312
0.07400,3.01000,-4.67250,0.00000,0.01476,0.97173,-0.20813,2023,6,12,10,21,52,323
0.07410,3.09750,-4.56750,0.00000,0.01623,0.97197,-0.21313,2023,6,12,10,21,52,334
0.07420,3.04500,-4.55000,0.00000,0.01598,0.97161,-0.21069,2023,6,12,10,21,52,345
0.07430,3.06250,-4.49750,0.00000,0.01562,0.96819,-0.21094,2023,6,12,10,21,52,356
0.07440,2.97500,-4.51500,0.00000,0.01513,0.97039,-0.21191,2023,6,12,10,21,52,367
0.07450,3.02750,-4.49750,0.00000,0.01623,0.97149,-0.21008,2023,6,12,10,21,52,378
0.07460,3.01000,-4.41000,0.00000,0.01745,0.97136,-0.20886,2023,6,12,10,21,52,389
0.07470,3.11500,-4.60250,0.00000,0.01415,0.97100,-0.20886,2023,6,12,10,21,52,400
0.07480,2.99250,-4.67250,0.00000,0.01720,0.96856,-0.21143,2023,6,12,10,21,52,412
0.07490,3.16750,-4.62000,0.00000,0.01586,0.97136,-0.21191,2023,6,12,10,21,52,423
0.07500,3.02750,-4.62000,0.00000,0.01757,0.96941,-0.20911,2023,6,12,10,21,52,434
0.07510,2.94000,-4.55000,0.00000,0.01488,0.97063,-0.20923,2023,6,12,10,21,52,445
0.07520,3.02750,-4.23500,0.00000,0.01842,0.97124,-0.20911,2023,6,12,10,21,52,456
0.07530,2.85250,-4.65500,0.00000,0.01513,0.97075,-0.21082,2023,6,12,10,21,52,467
0.07540,3.04500,-4.53250,0.00000,0.01818,0.97014,-0.20899,2023,6,12,10,21,52,478
0.07550,3.06250,-4.55000,0.00000,0.01562,0.96953,-0.20984,2023,6,12,10,21,52,489
0.07560,3.18500,-4.69000,0.00000,0.01610,0.97039,-0.21008,2023,6,12,10,21,52,500
0.07570,3.04500,-4.49750,0.00000,0.01513,0.96978,-0.20984,2023,6,12,10,21,52,512
0.07580,3.08000,-4.46250,0.00000,0.01623,0.97124,-0.20838,2023,6,12,10,21,52,523
0.07590,3.06250,-4.76000,0.00000,0.01684,0.97075,-0.20752,2023,6,12,10,21,52,534
0.07600,3.20250,-4.46250,0.00000,0.01598,0.97161,-0.21155,2023,6,12,10,21,52,545
0.07610,3.02750,-4.56750,0.00000,0.01464,0.97283,-0.21143,2023,6,12,10,21,52,556
0.07620,2.99250,-4.51500,0.00000,0.01708,0.97014,-0.20703,2023,6,12,10,21,52,567
0.07630,3.02750,-4.63750,0.00000,0.01562,0.96917,-0.20777,2023,6,12,10,21,52,578
0.07640,3.13250,-4.58500,0.00000,0.01391,0.97149,-0.21045,2023,6,12,10,21,52,589
0.07650,3.22000,-4.41000,0.00000,0.01647,0.97063,-0.20984,2023,6,12,10,21,52,600
0.07660,3.01000,-4.69000,0.00000,0.01623,0.97014,-0.20850,2023,6,12,10,21,52,612
0.07670,2.90500,-4.55000,0.00000,0.01647,0.97124,-0.20667,2023,6,12,10,21,52,623
0.07680,2.87000,-4.44500,0.00000,0.01501,0.97161,-0.20923,2023,6,12,10,21,52,634
0.07690,3.13250,-4.55000,0.00000,0.01684,0.97185,-0.20752,2023,6,12,10,21,52,645
0.07700,3.06250,-4.49750,0.00000,0.01647,0.97149,-0.21069,2023,6,12,10,21,52,656
0.07710,3.02750,-4.77750,0.00000,0.01598,0.96978,-0.20789,2023,6,12,10,21,52,667
0.07720,3.06250,-4.60250,0.00000,0.01696,0.97063,-0.21008,2023,6,12,10,21,52,678
0.07730,2.94000,-4.51500,0.00000,0.01623,0.96917,-0.21021,2023,6,12,10,21,52,689
0.07740,2.92250,-4.44500,0.00000,0.01452,0.97173,-0.20667,2023,6,12,10,21,52,700
0.07750,2.94000,-4.60250,0.00000,0.01488,0.97039,-0.20947,2023,6,12,10,21,52,712
0.07760,3.22000,-4.44500,0.00000,0.01501,0.97014,-0.20972,2023,6,12,10,21,52,723
0.07770,3.18500,-4.56750,0.00000,0.01696,0.96941,-0.21143,2023,6,12,10,21,52,734
0.07780,3.08000,-4.41000,0.00000,0.01440,0.97063,-0.21008,2023,6,12,10,21,52,745
0.07790,2.97500,-4.65500,0.00000,0.01684,0.97197,-0.20789,2023,6,12,10,21,52,756
0.07800,3.09750,-4.44500,0.00000,0.01659,0.97136,-0.20850,2023,6,12,10,21,52,767
0.07810,2.87000,-4.48000,0.00000,0.01745,0.96917,-0.20960,2023,6,12,10,21,52,778
0.07820,3.16750,-4.46250,0.00000,0.01671,0.97002,-0.20947,2023,6,12,10,21,52,789
0.07830,2.90500,-4.42750,0.00000,0.01635,0.97100,-0.20984,2023,6,12,10,21,52,800
0.07840,2.97500,-4.56750,0.00000,0.01732,0.97246,-0.20972,2023,6,12,10,21,52,812
0.07850,3.09750,-4.48000,0.00000,0.01366,0.97002,-0.20716,2023,6,12,10,21,52,823
0.07860,2.81750,-4.62000,0.00000,0.01757,0.97124,-0.21143,2023,6,12,10,21,52,834
0.07870,3.11500,-4.77750,0.00000,0.01501,0.97197,-0.21045,2023,6,12,10,21,52,845
0.07880,3.11500,-4.65500,0.00000,0.01562,0.97210,-0.21057,2023,6,12,10,21,52,856
0.07890,3.08000,-4.49750,0.00000,0.01928,0.97063,-0.20935,2023,6,12,10,21,52,867
0.07900,3.11500,-4.49750,0.00000,0.01488,0.97234,-0.21167,2023,6,12,10,21,52,878
0.07910,2.94000,-4.41000,0.00000,0.01562,0.97234,-0.20642,2023,6,12,10,21,52,889
0.07920,3.16750,-4.62000,0.00000,0.01574,0.96990,-0.20996,2023,6,12,10,21,52,900
0.07930,2.97500,-4.32250,0.00000,0.01623,0.97210,-0.20886,2023,6,12,10,21,52,912
0.07940,3.02750,-4.67250,0.00000,0.01476,0.97124,-0.20801,2023,6,12,10,21,52,923
0.07950,3.02750,-4.46250,0.00000,0.01501,0.97124,-0.20923,2023,6,12,10,21,52,934
0.07960,3.22000,-4.67250,0.00000,0.01854,0.97075,-0.20984,2023,6,12,10,21,52,945
0.07970,2.97500,-4.55000,0.00000,0.01647,0.97307,-0.20874,2023,6,12,10,21,52,956
0.07980,3.02750,-4.44500,0.00000,0.01757,0.96978,-0.20874,2023,6,12,10,21,52,967
0.07990,3.08000,-4.55000,0.00000,0.01452,0.97014,-0.20764,2023,6,12,10,21,53,8
0.08000,2.97500,-4.48000,0.00000,0.01354,0.97088,-0.21130,2023,6,12,10,21,53,19
0.08010,2.78250,-4.55000,0.00000,0.01757,0.97075,-0.20996,2023,6,12,10,21,53,30
0.08020,2.80000,-4.55000,0.00000,0.01403,0.97100,-0.20825,2023,6,12,10,21,53,42
0.08030,3.11500,-4.55000,0.00000,0.01537,0.97051,-0.21057,2023,6,12,10,21,53,53
0.08040,3.18500,-4.62000,0.00000,0.01647,0.96953,-0.20911,2023,6,12,10,21,53,64
0.08050,3.16750,-4.58500,0.00000,0.01305,0.97100,-0.20923,2023,6,12,10,21,53,75
0.08060,3.01000,-4.58500,0.00000,0.01440,0.97014,-0.20862,2023,6,12,10,21,53,86
0.08070,3.01000,-4.58500,0.00000,0.01684,0.97185,-0.21191,2023,6,12,10,21,53,97
0.08080,3.04500,-4.69000,0.00000,0.01745,0.97100,-0.21216,2023,6,12,10,21,53,108
0.08090,2.92250,-4.67250,0.00000,0.01879,0.97124,-0.20825,2023,6,12,10,21,53,119
0.08100,3.02750,-4.53250,0.00000,0.01452,0.96917,-0.20960,2023,6,12,10,21,53,130
0.08110,3.06250,-4.65500,0.00000,0.01513,0.97075,-0.20911,2023,6,12,10,21,53,142
0.08120,3.13250,-4.56750,0.00000,0.01537,0.97136,-0.21106,2023,6,12,10,21,53,153
0.08130,3.06250,-4.60250,0.00000,0.01708,0.97075,-0.21094,2023,6,12,10,21,53,164
0.08140,2.90500,-4.58500,0.00000,0.01488,0.96892,-0.20764,2023,6,12,10,21,53,175
0.08150,2.99250,-4.56750,0.00000,0.01745,0.97112,-0.21045,2023,6,12,10,21,53,186
0.08160,3.11500,-4.69000,0.00000,0.01537,0.96856,-0.21118,2023,6,12,10,21,53,197
0.08170,2.87000,-4.44500,0.00000,0.01598,0.96990,-0.20813,2023,6,12,10,21,53,208
0.08180,2.90500,-4.67250,0.00000,0.01647,0.96990,-0.20996,2023,6,12,10,21,53,219
0.08190,3.08000,-4.62000,0.00000,0.01769,0.97112,-0.21094,2023,6,12,10,21,53,230
0.08200,3.04500,-4.56750,0.00000,0.01793,0.96966,-0.21179,2023,6,12,10,21,53,242
0.08210,3.06250,-4.56750,0.00000,0.01684,0.97185,-0.21021,2023,6,12,10,21,53,253
0.08220,3.02750,-4.42750,0.00000,0.01610,0.97185,-0.20984,2023,6,12,10,21,53,264
0.08230,3.15000,-4.76000,0.00000,0.01562,0.97173,-0.20935,2023,6,12,10,21,53,275
0.08240,3.18500,-4.37500,0.00000,0.01501,0.97112,-0.21130,2023,6,12,10,21,53,286
0.08250,2.92250,-4.28750,0.00000,0.01647,0.97258,-0.20801,2023,6,12,10,21,53,297
0.08260,2.90500,-4.63750,0.00000,0.01391,0.97124,-0.20911,2023,6,12,10,21,53,308
0.08270,3.04500,-4.44500,0.00000,0.01427,0.97136,-0.21216,2023,6,12,10,21,53,319
0.08280,2.87000,-4.42750,0.00000,0.01379,0.97307,-0.21118,2023,6,12,10,21,53,330
0.08290,3.11500,-4.55000,0.00000,0.01647,0.96929,-0.21057,2023,6,12,10,21,53,342
0.08300,3.13250,-4.55000,0.00000,0.01598,0.97173,-0.20960,2023,6,12,10,21,53,353
0.08310,3.04500,-4.53250,0.00000,0.01403,0.97075,-0.21106,2023,6,12,10,21,53,364
0.08320,3.01000,-4.58500,0.00000,0.01598,0.97307,-0.21069,2023,6,12,10,21,53,375
0.08330,3.02750,-4.72500,0.00000,0.01488,0.97027,-0.21216,2023,6,12,10,21,53,386
0.08340,2.99250,-4.55000,0.00000,0.01513,0.97197,-0.20984,2023,6,12,10,21,53,397
0.08350,2.99250,-4.48000,0.00000,0.01598,0.97210,-0.21082,2023,6,12,10,21,53,408
0.08360,3.11500,-4.69000,0.00000,0.01562,0.97222,-0.21021,2023,6,12,10,21,53,419
0.08370,3.08000,-4.53250,0.00000,0.01635,0.97112,-0.21118,2023,6,12,10,21,53,430
0.08380,3.18500,-4.70750,0.00000,0.01696,0.97075,-0.20960,2023,6,12,10,21,53,442
0.08390,2.83500,-4.51500,0.00000,0.01598,0.97356,-0.21021,2023,6,12,10,21,53,453
0.08400,3.11500,-4.53250,0.00000,0.01549,0.97136,-0.21057,2023,6,12,10,21,53,464
0.08410,3.06250,-4.42750,0.00000,0.01513,0.96966,-0.20996,2023,6,12,10,21,53,475
0.08420,2.90500,-4.48000,0.00000,0.01708,0.97112,-0.21008,2023,6,12,10,21,53,486
0.08430,3.01000,-4.44500,0.00000,0.01452,0.97112,-0.20996,2023,6,12,10,21,53,497
0.08440,2.97500,-4.62000,0.00000,0.01525,0.97039,-0.20899,2023,6,12,10,21,53,508
0.08450,3.04500,-4.49750,0.00000,0.01501,0.97222,-0.20911,2023,6,12,10,21,53,519
0.08460,3.02750,-4.56750,0.00000,0.01671,0.97161,-0.21240,2023,6,12,10,21,53,530
0.08470,3.06250,-4.39250,0.00000,0.01549,0.97100,-0.20789,2023,6,12,10,21,53,542
0.08480,2.95750,-4.63750,0.00000,0.01549,0.96978,-0.20716,2023,6,12,10,21,53,553
0.08490,2.92250,-4.39250,0.00000,0.01818,0.97295,-0.21350,2023,6,12,10,21,53,564
0.08500,3.04500,-4.60250,0.00000,0.01562,0.97124,-0.21143,2023,6,12,10,21,53,575
0.08510,3.18500,-4.69000,0.00000,0.01464,0.97088,-0.21021,2023,6,12,10,21,53,586
0.08520,2.92250,-4.39250,0.00000,0.01586,0.97271,-0.20923,2023,6,12,10,21,53,597
0.08530,3.06250,-4.56750,0.00000,0.01586,0.97210,-0.21204,2023,6,12,10,21,53,608
0.08540,3.16750,-4.58500,0.00000,0.01720,0.97258,-0.20996,2023,6,12,10,21,53,619
0.08550,3.09750,-4.39250,0.00000,0.01586,0.97124,-0.21069,2023,6,12,10,21,53,630
0.08560,3.02750,-4.49750,0.00000,0.01440,0.97307,-0.20972,2023,6,12,10,21,53,642
0.08570,3.08000,-4.56750,0.00000,0.01232,0.97075,-0.20947,2023,6,12,10,21,53,653
0.08580,3.04500,-4.58500,0.00000,0.01488,0.97112,-0.20984,2023,6,12,10,21,53,664
0.08590,3.09750,-4.67250,0.00000,0.01671,0.97124,-0.21082,2023,6,12,10,21,53,675
0.08600,3.04500,-4.48000,0.00000,0.01745,0.97014,-0.20911,2023,6,12,10,21,53,686
0.08610,3.16750,-4.58500,0.00000,0.01720,0.97051,-0.20740,2023,6,12,10,21,53,697
0.08620,3.16750,-4.53250,0.00000,0.01745,0.97197,-0.21338,2023,6,12,10,21,53,708
0.08630,2.99250,-4.58500,0.00000,0.01586,0.97356,-0.20703,2023,6,12,10,21,53,719
0.08640,3.06250,-4.67250,0.00000,0.01427,0.97027,-0.21008,2023,6,12,10,21,53,730
0.08650,2.99250,-4.39250,0.00000,0.01623,0.97185,-0.20850,2023,6,12,10,21,53,742
0.08660,3.02750,-4.44500,0.00000,0.01586,0.97149,-0.21069,2023,6,12,10,21,53,753
0.08670,2.90500,-4.51500,0.00000,0.01610,0.97222,-0.20899,2023,6,12,10,21,53,764
0.08680,2.92250,-4.53250,0.00000,0.01659,0.97210,-0.21057,2023,6,12,10,21,53,775
0.08690,3.04500,-4.62000,0.00000,0.01684,0.97002,-0.21118,2023,6,12,10,21,53,786
0.08700,3.06250,-4.72500,0.00000,0.01696,0.97002,-0.20813,2023,6,12,10,21,53,797
0.08710,2.94000,-4.53250,0.00000,0.01501,0.96953,-0.20703,2023,6,12,10,21,53,808
0.08720,3.22000,-4.69000,0.00000,0.01793,0.97112,-0.20947,2023,6,12,10,21,53,819
0.08730,2.95750,-4.41000,0.00000,0.01684,0.97063,-0.21021,2023,6,12,10,21,53,830
0.08740,3.08000,-4.63750,0.00000,0.01488,0.97210,-0.20825,2023,6,12,10,21,53,842
0.08750,3.09750,-4.27000,0.00000,0.01391,0.97051,-0.20789,2023,6,12,10,21,53,853
0.08760,3.01000,-4.46250,0.00000,0.01659,0.97258,-0.20825,2023,6,12,10,21,53,864
0.08770,2.97500,-4.77750,0.00000,0.01720,0.97136,-0.20984,2023,6,12,10,21,53,875
0.08780,3.01000,-4.63750,0.00000,0.01623,0.97063,-0.20874,2023,6,12,10,21,53,886
0.08790,3.15000,-4.76000,0.00000,0.01476,0.97136,-0.21033,2023,6,12,10,21,53,897
0.08800,2.97500,-4.53250,0.00000,0.01610,0.97222,-0.20862,2023,6,12,10,21,53,908
0.08810,3.11500,-4.74250,0.00000,0.01586,0.97173,-0.21069,2023,6,12,10,21,53,919
0.08820,2.97500,-4.69000,0.00000,0.01537,0.97063,-0.21118,2023,6,12,10,21,53,930
0.08830,2.97500,-4.42750,0.00000,0.01366,0.97039,-0.20911,2023,6,12,10,21,53,942
0.08840,3.02750,-4.46250,0.00000,0.01598,0.96880,-0.20972,2023,6,12,10,21,53,953
0.08850,2.87000,-4.48000,0.00000,0.01635,0.97149,-0.20935,2023,6,12,10,21,53,964
0.08860,3.11500,-4.67250,0.00000,0.01720,0.97124,-0.21130,2023,6,12,10,21,54,5
0.08870,2.95750,-4.41000,0.00000,0.01732,0.97197,-0.20972,2023,6,12,10,21,54,16
0.08880,3.04500,-4.63750,0.00000,0.01781,0.97100,-0.21130,2023,6,12,10,21,54,27
0.08890,2.97500,-4.37500,0.00000,0.01635,0.97124,-0.20911,2023,6,12,10,21,54,38
0.08900,2.94000,-4.62000,0.00000,0.01562,0.97258,-0.20935,2023,6,12,10,21,54,49
0.08910,3.09750,-4.70750,0.00000,0.01257,0.97185,-0.20960,2023,6,12,10,21,54,60
0.08920,3.29000,-4.63750,0.00000,0.01708,0.96941,-0.20899,2023,6,12,10,21,54,72
0.08930,3.08000,-4.76000,0.00000,0.01464,0.97149,-0.20886,2023,6,12,10,21,54,83
0.08940,3.08000,-4.49750,0.00000,0.01684,0.97136,-0.20899,2023,6,12,10,21,54,94
0.08950,3.18500,-4.72500,0.00000,0.01562,0.97197,-0.21033,2023,6,12,10,21,54,105
0.08960,3.09750,-4.69000,0.00000,0.01720,0.96917,-0.21069,2023,6,12,10,21,54,116
0.08970,3.04500,-4.63750,0.00000,0.01659,0.97100,-0.21204,2023,6,12,10,21,54,127
0.08980,3.13250,-4.53250,0.00000,0.01586,0.97149,-0.21155,2023,6,12,10,21,54,138
0.08990,2.97500,-4.46250,0.00000,0.01671,0.97246,-0.20874,2023,6,12,10,21,54,149
0.09000,3.02750,-4.53250,0.00000,0.01757,0.97271,-0.21069,2023,6,12,10,21,54,160
0.09010,3.04500,-4.62000,0.00000,0.01671,0.97100,-0.20691,2023,6,12,10,21,54,172
0.09020,3.11500,-4.53250,0.00000,0.01806,0.97124,-0.20838,2023,6,12,10,21,54,183
0.09030,3.11500,-4.60250,0.00000,0.01610,0.96941,-0.20850,2023,6,12,10,21,54,194
0.09040,3.01000,-4.72500,0.00000,0.01562,0.97210,-0.21155,2023,6,12,10,21,54,205
0.09050,2.88750,-4.62000,0.00000,0.01476,0.97136,-0.20996,2023,6,12,10,21,54,216
0.09060,3.06250,-4.58500,0.00000,0.01623,0.96990,-0.20886,2023,6,12,10,21,54,227
0.09070,2.95750,-4.81250,0.00000,0.01464,0.97283,-0.20813,2023,6,12,10,21,54,238
0.09080,2.95750,-4.56750,0.00000,0.01732,0.97185,-0.20728,2023,6,12,10,21,54,249
0.09090,3.22000,-4.72500,0.00000,0.01635,0.97319,-0.20984,2023,6,12,10,21,54,260
0.09100,3.04500,-4.41000,0.00000,0.01427,0.97039,-0.21033,2023,6,12,10,21,54,272
0.09110,2.97500,-4.76000,0.00000,0.01610,0.97149,-0.20667,2023,6,12,10,21,54,283
0.09120,3.01000,-4.56750,0.00000,0.01708,0.96953,-0.20667,2023,6,12,10,21,54,294
0.09130,2.92250,-4.58500,0.00000,0.01671,0.97307,-0.21069,2023,6,12,10,21,54,305
0.09140,3.04500,-4.41000,0.00000,0.01342,0.96917,-0.21082,2023,6,12,10,21,54,316
0.09150,3.20250,-4.49750,0.00000,0.01769,0.97136,-0.20899,2023,6,12,10,21,54,327
0.09160,2.81750,-4.55000,0.00000,0.01769,0.97063,-0.20789,2023,6,12,10,21,54,338
0.09170,3.09750,-4.65500,0.00000,0.01586,0.97173,-0.21069,2023,6,12,10,21,54,349
0.09180,2.99250,-4.70750,0.00000,0.01623,0.97149,-0.21130,2023,6,12,10,21,54,360
0.09190,2.90500,-4.55000,0.00000,0.01720,0.97185,-0.20569,2023,6,12,10,21,54,372
0.09200,3.01000,-4.67250,0.00000,0.01720,0.96856,-0.20996,2023,6,12,10,21,54,383
0.09210,2.95750,-4.63750,0.00000,0.01379,0.97124,-0.20972,2023,6,12,10,21,54,394
0.09220,3.08000,-4.49750,0.00000,0.01696,0.97124,-0.21191,2023,6,12,10,21,54,405
0.09230,2.92250,-4.37500,0.00000,0.01415,0.97088,-0.21045,2023,6,12,10,21,54,416
0.09240,3.01000,-4.48000,0.00000,0.01647,0.97136,-0.20886,2023,6,12,10,21,54,427
0.09250,3.08000,-4.62000,0.00000,0.01720,0.97149,-0.21069,2023,6,12,10,21,54,438
0.09260,2.99250,-4.58500,0.00000,0.01403,0.97124,-0.20850,2023,6,12,10,21,54,449
0.09270,2.99250,-4.51500,0.00000,0.01696,0.97478,-0.21057,2023,6,12,10,21,54,460
0.09280,2.78250,-4.56750,0.00000,0.01452,0.97075,-0.20862,2023,6,12,10,21,54,472
0.09290,2.94000,-4.60250,0.00000,0.01635,0.97149,-0.20728,2023,6,12,10,21,54,483
0.09300,2.95750,-4.53250,0.00000,0.01976,0.97136,-0.21094,2023,6,12,10,21,54,494
0.09310,2.94000,-4.49750,0.00000,0.01623,0.96966,-0.20911,2023,6,12,10,21,54,505
0.09320,3.09750,-4.58500,0.00000,0.01391,0.96966,-0.20850,2023,6,12,10,21,54,516
0.09330,2.97500,-4.44500,0.00000,0.01745,0.97197,-0.20813,2023,6,12,10,21,54,527
0.09340,2.94000,-4.55000,0.00000,0.01647,0.97161,-0.20899,2023,6,12,10,21,54,538
0.09350,3.13250,-4.69000,0.00000,0.01598,0.97063,-0.20862,2023,6,12,10,21,54,549
0.09360,2.88750,-4.46250,0.00000,0.01574,0.97075,-0.20752,2023,6,12,10,21,54,560
0.09370,3.08000,-4.79500,0.00000,0.01806,0.97124,-0.20886,2023,6,12,10,21,54,572
0.09380,3.13250,-4.62000,0.00000,0.01635,0.97307,-0.20886,2023,6,12,10,21,54,583
0.09390,3.02750,-4.53250,0.00000,0.01391,0.97088,-0.20862,2023,6,12,10,21,54,594
0.09400,2.97500,-4.65500,0.00000,0.01537,0.96795,-0.20764,2023,6,12,10,21,54,605
0.09410,3.09750,-4.74250,0.00000,0.01586,0.97002,-0.20740,2023,6,12,10,21,54,616
0.09420,2.99250,-4.74250,0.00000,0.01684,0.97027,-0.20899,2023,6,12,10,21,54,627
0.09430,2.85250,-4.63750,0.00000,0.01488,0.97100,-0.20679,2023,6,12,10,21,54,638
0.09440,3.13250,-4.60250,0.00000,0.01562,0.97185,-0.20923,2023,6,12,10,21,54,649
0.09450,3.04500,-4.76000,0.00000,0.01574,0.97039,-0.20911,2023,6,12,10,21,54,660
0.09460,3.06250,-4.51500,0.00000,0.01610,0.97173,-0.21033,2023,6,12,10,21,54,672
0.09470,2.99250,-4.46250,0.00000,0.01513,0.96941,-0.20813,2023,6,12,10,21,54,683
0.09480,2.88750,-4.65500,0.00000,0.01574,0.97100,-0.20801,2023,6,12,10,21,54,694
0.09490,3.11500,-4.62000,0.00000,0.01769,0.97197,-0.20996,2023,6,12,10,21,54,705
0.09500,3.06250,-4.70750,0.00000,0.01769,0.97271,-0.20862,2023,6,12,10,21,54,716
0.09510,3.02750,-4.60250,0.00000,0.01635,0.97173,-0.20801,2023,6,12,10,21,54,727
0.09520,3.04500,-4.63750,0.00000,0.01549,0.97319,-0.21033,2023,6,12,10,21,54,738
0.09530,3.01000,-4.72500,0.00000,0.01757,0.97124,-0.21326,2023,6,12,10,21,54,749
0.09540,3.16750,-4.48000,0.00000,0.01537,0.96770,-0.20813,2023,6,12,10,21,54,760
0.09550,3.09750,-4.63750,0.00000,0.01598,0.97210,-0.20960,2023,6,12,10,21,54,772
0.09560,3.15000,-4.65500,0.00000,0.01745,0.97271,-0.20703,2023,6,12,10,21,54,783
0.09570,3.16750,-4.65500,0.00000,0.01464,0.97185,-0.21069,2023,6,12,10,21,54,794
0.09580,3.04500,-4.53250,0.00000,0.01501,0.97417,-0.20813,2023,6,12,10,21,54,805
0.09590,2.99250,-4.74250,0.00000,0.01659,0.96917,-0.20960,2023,6,12,10,21,54,816
0.09600,2.94000,-4.58500,0.00000,0.01525,0.97088,-0.20764,2023,6,12,10,21,54,827
0.09610,3.06250,-4.46250,0.00000,0.01366,0.97295,-0.20728,2023,6,12,10,21,54,838
0.09620,3.01000,-4.60250,0.00000,0.01476,0.97039,-0.20899,2023,6,12,10,21,54,849
0.09630,3.15000,-4.62000,0.00000,0.01647,0.96892,-0.20972,2023,6,12,10,21,54,860
0.09640,2.88750,-4.56750,0.00000,0.01440,0.96990,-0.21094,2023,6,12,10,21,54,872
0.09650,2.83500,-4.48000,0.00000,0.01781,0.97039,-0.20740,2023,6,12,10,21,54,883
0.09660,2.73000,-4.42750,0.00000,0.01549,0.97271,-0.20716,2023,6,12,10,21,54,894
0.09670,3.06250,-4.70750,0.00000,0.01745,0.97100,-0.20801,2023,6,12,10,21,54,905
0.09680,2.90500,-4.55000,0.00000,0.01696,0.97112,-0.21045,2023,6,12,10,21,54,916
0.09690,3.11500,-4.34000,0.00000,0.01513,0.96966,-0.21155,2023,6,12,10,21,54,927
0.09700,2.83500,-4.60250,0.00000,0.01440,0.97197,-0.21155,2023,6,12,10,21,54,938
0.09710,2.92250,-4.58500,0.00000,0.01647,0.97161,-0.20947,2023,6,12,10,21,54,949
0.09720,2.97500,-4.35750,0.00000,0.01647,0.97124,-0.20923,2023,6,12,10,21,54,960
0.09730,3.08000,-4.51500,0.00000,0.01562,0.96990,-0.20764,2023,6,12,10,21,55,2
0.09740,2.92250,-4.55000,0.00000,0.01635,0.97100,-0.20703,2023,6,12,10,21,55,13
0.09750,3.11500,-4.69000,0.00000,0.01525,0.97210,-0.21008,2023,6,12,10,21,55,24
0.09760,2.90500,-4.25250,0.00000,0.01501,0.97063,-0.20960,2023,6,12,10,21,55,35
0.09770,3.09750,-4.72500,0.00000,0.01488,0.97075,-0.20899,2023,6,12,10,21,55,46
0.09780,2.92250,-4.60250,0.00000,0.01501,0.97002,-0.20801,2023,6,12,10,21,55,57
0.09790,3.04500,-4.70750,0.00000,0.01647,0.96966,-0.20557,2023,6,12,10,21,55,68
0.09800,2.85250,-4.55000,0.00000,0.01610,0.97210,-0.20813,2023,6,12,10,21,55,79
0.09810,3.02750,-4.44500,0.00000,0.01623,0.97051,-0.20752,2023,6,12,10,21,55,90
0.09820,2.87000,-4.46250,0.00000,0.01623,0.97112,-0.20813,2023,6,12,10,21,55,102
0.09830,3.11500,-4.46250,0.00000,0.01623,0.97222,-0.20533,2023,6,12,10,21,55,113
0.09840,3.11500,-4.55000,0.00000,0.01403,0.97161,-0.20874,2023,6,12,10,21,55,124
0.09850,3.11500,-4.41000,0.00000,0.01525,0.97149,-0.20764,2023,6,12,10,21,55,135
0.09860,3.01000,-4.51500,0.00000,0.01610,0.97161,-0.20972,2023,6,12,10,21,55,146
0.09870,2.87000,-4.51500,0.00000,0.01806,0.97051,-0.20789,2023,6,12,10,21,55,157
0.09880,2.99250,-4.63750,0.00000,0.01867,0.97063,-0.20691,2023,6,12,10,21,55,168
0.09890,3.08000,-4.55000,0.00000,0.01793,0.96917,-0.20899,2023,6,12,10,21,55,179
0.09900,3.04500,-4.53250,0.00000,0.01562,0.97002,-0.20801,2023,6,12,10,21,55,190
0.09910,3.08000,-4.55000,0.00000,0.01574,0.97246,-0.20899,2023,6,12,10,21,55,202
0.09920,3.06250,-4.56750,0.00000,0.01476,0.96929,-0.20923,2023,6,12,10,21,55,213
0.09930,3.04500,-4.60250,0.00000,0.01562,0.97063,-0.20825,2023,6,12,10,21,55,224
0.09940,2.95750,-4.41000,0.00000,0.01659,0.96880,-0.20703,2023,6,12,10,21,55,235
0.09950,2.99250,-4.48000,0.00000,0.01671,0.97161,-0.20825,2023,6,12,10,21,55,246
0.09960,2.90500,-4.67250,0.00000,0.01745,0.97088,-0.20972,2023,6,12,10,21,55,257
0.09970,3.20250,-4.48000,0.00000,0.01818,0.97075,-0.20752,2023,6,12,10,21,55,268
0.09980,2.97500,-4.49750,0.00000,0.01598,0.96953,-0.20752,2023,6,12,10,21,55,279
0.09990,2.92250,-4.70750,0.00000,0.01586,0.97051,-0.21057,2023,6,12,10,21,55,290
0.10000,3.01000,-4.41000,0.00000,0.01488,0.97185,-0.20642,2023,6,12,10,21,55,302
0.10010,2.87000,-4.51500,0.00000,0.01732,0.97161,-0.21033,2023,6,12,10,21,55,313
0.10020,3.04500,-4.56750,0.00000,0.01366,0.97149,-0.20716,2023,6,12,10,21,55,324
0.10030,3.06250,-4.72500,0.00000,0.01415,0.97185,-0.20923,2023,6,12,10,21,55,335
0.10040,3.04500,-4.48000,0.00000,0.01696,0.97136,-0.21094,2023,6,12,10,21,55,346
0.10050,3.22000,-4.49750,0.00000,0.01720,0.97088,-0.20874,2023,6,12,10,21,55,357
0.10060,3.02750,-4.56750,0.00000,0.01623,0.96929,-0.20703,2023,6,12,10,21,55,368
0.10070,3.22000,-4.53250,0.00000,0.01562,0.97088,-0.20947,2023,6,12,10,21,55,379
0.10080,3.01000,-4.49750,0.00000,0.01501,0.97051,-0.21008,2023,6,12,10,21,55,390
0.10090,2.95750,-4.55000,0.00000,0.01732,0.96966,-0.20740,2023,6,12,10,21,55,402
0.10100,2.94000,-4.55000,0.00000,0.01610,0.97136,-0.21094,2023,6,12,10,21,55,413
0.10110,3.02750,-4.60250,0.00000,0.01659,0.97075,-0.20667,2023,6,12,10,21,55,424
0.10120,2.81750,-4.56750,0.00000,0.01366,0.97063,-0.20899,2023,6,12,10,21,55,435
0.10130,2.94000,-4.58500,0.00000,0.01586,0.96917,-0.20899,2023,6,12,10,21,55,446
0.10140,2.99250,-4.49750,0.00000,0.01537,0.97319,-0.20557,2023,6,12,10,21,55,457
0.10150,3.01000,-4.55000,0.00000,0.01488,0.97210,-0.20740,2023,6,12,10,21,55,468
0.10160,3.22000,-4.69000,0.00000,0.01696,0.97027,-0.21130,2023,6,12,10,21,55,479
0.10170,3.11500,-4.55000,0.00000,0.01635,0.96966,-0.20874,2023,6,12,10,21,55,490
0.10180,3.23750,-4.60250,0.00000,0.01842,0.97027,-0.21033,2023,6,12,10,21,55,502
0.10190,3.13250,-4.44500,0.00000,0.01427,0.97100,-0.20545,2023,6,12,10,21,55,513
0.10200,3.16750,-4.76000,0.00000,0.01635,0.97100,-0.20777,2023,6,12,10,21,55,524
0.10210,2.95750,-4.51500,0.00000,0.01671,0.97161,-0.21143,2023,6,12,10,21,55,535
0.10220,3.09750,-4.67250,0.00000,0.01525,0.96966,-0.20716,2023,6,12,10,21,55,546
0.10230,3.08000,-4.56750,0.00000,0.01745,0.97002,-0.20996,2023,6,12,10,21,55,557
0.10240,3.06250,-4.84750,0.00000,0.01415,0.97063,-0.20923,2023,6,12,10,21,55,568
0.10250,2.97500,-4.48000,0.00000,0.01537,0.97136,-0.20984,2023,6,12,10,21,55,579
0.10260,2.92250,-4.56750,0.00000,0.01647,0.97185,-0.21008,2023,6,12,10,21,55,590
0.10270,3.08000,-4.60250,0.00000,0.01720,0.97100,-0.20777,2023,6,12,10,21,55,602
0.10280,2.85250,-4.62000,0.00000,0.01598,0.97124,-0.20996,2023,6,12,10,21,55,613
0.10290,3.06250,-4.90000,0.00000,0.01647,0.97112,-0.20764,2023,6,12,10,21,55,624
0.10300,3.13250,-4.93500,0.00000,0.01635,0.97088,-0.20947,2023,6,12,10,21,55,635
0.10310,2.92250,-4.44500,0.00000,0.01440,0.97136,-0.20838,2023,6,12,10,21,55,646
0.10320,2.78250,-4.34000,0.00000,0.01696,0.97088,-0.20801,2023,6,12,10,21,55,657
0.10330,3.13250,-4.39250,0.00000,0.01720,0.96941,-0.20947,2023,6,12,10,21,55,668
0.10340,3.02750,-4.56750,0.00000,0.01671,0.96990,-0.20886,2023,6,12,10,21,55,679
0.10350,2.95750,-4.53250,0.00000,0.01793,0.97173,-0.20838,2023,6,12,10,21,55,690
0.10360,3.18500,-4.41000,0.00000,0.01586,0.97136,-0.20764,2023,6,12,10,21,55,702
0.10370,3.06250,-4.56750,0.00000,0.01598,0.97234,-0.20923,2023,6,12,10,21,55,713
0.10380,3.13250,-4.70750,0.00000,0.01354,0.97246,-0.21021,2023,6,12,10,21,55,724
0.10390,2.85250,-4.51500,0.00000,0.01549,0.97100,-0.20764,2023,6,12,10,21,55,735
0.10400,2.95750,-4.69000,0.00000,0.01830,0.97136,-0.20923,2023,6,12,10,21,55,746
0.10410,3.08000,-4.67250,0.00000,0.01696,0.97149,-0.20691,2023,6,12,10,21,55,757
0.10420,3.02750,-4.63750,0.00000,0.01562,0.97185,-0.21057,2023,6,12,10,21,55,768
0.10430,3.08000,-4.51500,0.00000,0.01452,0.97173,-0.20850,2023,6,12,10,21,55,779
0.10440,2.95750,-4.58500,0.00000,0.01745,0.97039,-0.20996,2023,6,12,10,21,55,790
0.10450,2.90500,-4.58500,0.00000,0.01610,0.97088,-0.20874,2023,6,12,10,21,55,802
0.10460,2.92250,-4.63750,0.00000,0.01671,0.97014,-0.20947,2023,6,12,10,21,55,813
0.10470,2.95750,-4.58500,0.00000,0.01598,0.97136,-0.20911,2023,6,12,10,21,55,824
0.10480,3.02750,-4.65500,0.00000,0.01598,0.97173,-0.20716,2023,6,12,10,21,55,835
0.10490,2.92250,-4.39250,0.00000,0.01696,0.96941,-0.20740,2023,6,12,10,21,55,846
0.10500,3.04500,-4.53250,0.00000,0.01379,0.97319,-0.20886,2023,6,12,10,21,55,857
0.10510,3.06250,-4.51500,0.00000,0.01574,0.97075,-0.20899,2023,6,12,10,21,55,868
0.10520,2.97500,-4.60250,0.00000,0.01659,0.97319,-0.20764,2023,6,12,10,21,55,879
0.10530,2.88750,-4.62000,0.00000,0.01452,0.97063,-0.20764,2023,6,12,10,21,55,890
0.10540,3.02750,-4.63750,0.00000,0.01659,0.96990,-0.21057,2023,6,12,10,21,55,902
0.10550,3.13250,-4.67250,0.00000,0.01671,0.97307,-0.20801,2023,6,12,10,21,55,913
0.10560,2.99250,-4.41000,0.00000,0.01610,0.97417,-0.20801,2023,6,12,10,21,55,924
0.10570,3.02750,-4.77750,0.00000,0.01562,0.97027,-0.20728,2023,6,12,10,21,55,935
0.10580,3.15000,-4.60250,0.00000,0.01659,0.97124,-0.20899,2023,6,12,10,21,55,946
0.10590,3.15000,-4.53250,0.00000,0.01684,0.97136,-0.20886,2023,6,12,10,21,55,957
0.10600,2.95750,-4.34000,0.00000,0.01781,0.97124,-0.20984,2023,6,12,10,21,56,8
0.10610,2.73000,-4.70750,0.00000,0.01696,0.97161,-0.20960,2023,6,12,10,21,56,19
0.10620,3.04500,-4.53250,0.00000,0.01647,0.97185,-0.20825,2023,6,12,10,21,56,30
0.10630,3.08000,-4.67250,0.00000,0.01513,0.97356,-0.21033,2023,6,12,10,21,56,42
0.10640,2.90500,-4.63750,0.00000,0.01745,0.97002,-0.20862,2023,6,12,10,21,56,53
0.10650,3.01000,-4.67250,0.00000,0.01525,0.96978,-0.20947,2023,6,12,10,21,56,64
0.10660,3.16750,-4.53250,0.00000,0.01647,0.96966,-0.20911,2023,6,12,10,21,56,75
0.10670,3.06250,-4.58500,0.00000,0.01671,0.97075,-0.21118,2023,6,12,10,21,56,86
0.10680,3.01000,-4.56750,0.00000,0.01562,0.97100,-0.21008,2023,6,12,10,21,56,97
0.10690,3.08000,-4.49750,0.00000,0.01623,0.97161,-0.20862,2023,6,12,10,21,56,108
0.10700,3.20250,-4.51500,0.00000,0.01562,0.97075,-0.20801,2023,6,12,10,21,56,119
0.10710,3.01000,-4.58500,0.00000,0.01586,0.96978,-0.20947,2023,6,12,10,21,56,130
0.10720,3.02750,-4.67250,0.00000,0.01671,0.97136,-0.21008,2023,6,12,10,21,56,142
0.10730,2.88750,-4.60250,0.00000,0.01623,0.97173,-0.20581,2023,6,12,10,21,56,153
0.10740,3.08000,-4.48000,0.00000,0.01464,0.97051,-0.20947,2023,6,12,10,21,56,164
0.10750,2.81750,-4.44500,0.00000,0.01488,0.96905,-0.20960,2023,6,12,10,21,56,175
0.10760,2.88750,-4.62000,0.00000,0.01501,0.97039,-0.21179,2023,6,12,10,21,56,186
0.10770,3.09750,-4.44500,0.00000,0.01562,0.97332,-0.20874,2023,6,12,10,21,56,197
0.10780,3.02750,-4.39250,0.00000,0.01671,0.97185,-0.20886,2023,6,12,10,21,56,208
0.10790,2.97500,-4.41000,0.00000,0.01623,0.97027,-0.20679,2023,6,12,10,21,56,219
0.10800,2.99250,-4.60250,0.00000,0.01732,0.96892,-0.20850,2023,6,12,10,21,56,230
0.10810,2.95750,-4.62000,0.00000,0.01598,0.97283,-0.21057,2023,6,12,10,21,56,242
0.10820,3.06250,-4.58500,0.00000,0.01513,0.97136,-0.20899,2023,6,12,10,21,56,253
0.10830,3.09750,-4.46250,0.00000,0.01623,0.97161,-0.20899,2023,6,12,10,21,56,264
0.10840,3.02750,-4.56750,0.00000,0.01830,0.97124,-0.20874,2023,6,12,10,21,56,275
0.10850,3.15000,-4.65500,0.00000,0.01635,0.97258,-0.21118,2023,6,12,10,21,56,286
0.10860,3.02750,-4.65500,0.00000,0.01452,0.97063,-0.20850,2023,6,12,10,21,56,297
0.10870,2.99250,-4.49750,0.00000,0.01610,0.97027,-0.21021,2023,6,12,10,21,56,308
0.10880,3.20250,-4.76000,0.00000,0.01525,0.96880,-0.21179,2023,6,12,10,21,56,319
0.10890,2.94000,-4.51500,0.00000,0.01891,0.97185,-0.20886,2023,6,12,10,21,56,330
0.10900,3.01000,-4.49750,0.00000,0.01440,0.97185,-0.20838,2023,6,12,10,21,56,342
0.10910,2.92250,-4.65500,0.00000,0.01623,0.96978,-0.20960,2023,6,12,10,21,56,353
0.10920,3.04500,-4.55000,0.00000,0.01684,0.97039,-0.21033,2023,6,12,10,21,56,364
0.10930,2.99250,-4.72500,0.00000,0.01598,0.97136,-0.20813,2023,6,12,10,21,56,375
0.10940,3.20250,-4.46250,0.00000,0.01427,0.97161,-0.20886,2023,6,12,10,21,56,386
0.10950,2.87000,-4.60250,0.00000,0.01647,0.97027,-0.20972,2023,6,12,10,21,56,397
0.10960,2.97500,-4.44500,0.00000,0.01574,0.96953,-0.21008,2023,6,12,10,21,56,408
0.10970,3.04500,-4.63750,0.00000,0.01610,0.97197,-0.20996,2023,6,12,10,21,56,419
0.10980,2.94000,-4.58500,0.00000,0.01623,0.97185,-0.20801,2023,6,12,10,21,56,430
0.10990,2.83500,-4.51500,0.00000,0.01610,0.97027,-0.20886,2023,6,12,10,21,56,442
0.11000,2.90500,-4.56750,0.00000,0.01635,0.97063,-0.20838,2023,6,12,10,21,56,453
0.11010,3.09750,-4.46250,0.00000,0.01720,0.97063,-0.21130,2023,6,12,10,21,56,464
0.11020,2.94000,-4.51500,0.00000,0.01781,0.97112,-0.20996,2023,6,12,10,21,56,475
0.11030,2.74750,-4.53250,0.00000,0.01793,0.97210,-0.20764,2023,6,12,10,21,56,486
0.11040,2.87000,-4.60250,0.00000,0.01659,0.97039,-0.20984,2023,6,12,10,21,56,497
0.11050,2.85250,-4.53250,0.00000,0.01806,0.96844,-0.20947,2023,6,12,10,21,56,508
0.11060,3.06250,-4.56750,0.00000,0.01586,0.97234,-0.20874,2023,6,12,10,21,56,519
0.11070,2.92250,-4.34000,0.00000,0.01354,0.97149,-0.21204,2023,6,12,10,21,56,530
0.11080,2.88750,-4.55000,0.00000,0.01452,0.97002,-0.20923,2023,6,12,10,21,56,542
0.11090,2.85250,-4.48000,0.00000,0.01586,0.97136,-0.21069,2023,6,12,10,21,56,553
0.11100,3.13250,-4.39250,0.00000,0.01647,0.96990,-0.21008,2023,6,12,10,21,56,564
0.11110,2.99250,-4.41000,0.00000,0.01720,0.96929,-0.20935,2023,6,12,10,21,56,575
0.11120,3.20250,-4.86500,0.00000,0.01769,0.97234,-0.21130,2023,6,12,10,21,56,586
0.11130,3.06250,-4.74250,0.00000,0.01610,0.96953,-0.20984,2023,6,12,10,21,56,597
0.11140,3.01000,-4.72500,0.00000,0.01793,0.97088,-0.21228,2023,6,12,10,21,56,608
0.11150,3.13250,-4.70750,0.00000,0.01598,0.97112,-0.21289,2023,6,12,10,21,56,619
0.11160,2.95750,-4.44500,0.00000,0.01671,0.97112,-0.21094,2023,6,12,10,21,56,630
0.11170,3.01000,-4.48000,0.00000,0.01501,0.97075,-0.20825,2023,6,12,10,21,56,642
0.11180,3.09750,-4.60250,0.00000,0.01757,0.97014,-0.20862,2023,6,12,10,21,56,653
0.11190,3.09750,-4.67250,0.00000,0.01452,0.96905,-0.21045,2023,6,12,10,21,56,664
0.11200,3.06250,-4.63750,0.00000,0.01562,0.97136,-0.21326,2023,6,12,10,21,56,675
0.11210,3.32500,-4.69000,0.00000,0.01610,0.97234,-0.21057,2023,6,12,10,21,56,686
0.11220,3.18500,-4.63750,0.00000,0.01793,0.97075,-0.21033,2023,6,12,10,21,56,697
0.11230,3.02750,-4.39250,0.00000,0.01488,0.97088,-0.20886,2023,6,12,10,21,56,708
0.11240,3.06250,-4.72500,0.00000,0.01769,0.96966,-0.20740,2023,6,12,10,21,56,719
0.11250,3.02750,-4.56750,0.00000,0.01708,0.97185,-0.20935,2023,6,12,10,21,56,730
0.11260,3.09750,-4.46250,0.00000,0.01647,0.97197,-0.21106,2023,6,12,10,21,56,742
0.11270,2.94000,-4.49750,0.00000,0.01574,0.97063,-0.21130,2023,6,12,10,21,56,753
0.11280,3.06250,-4.72500,0.00000,0.01549,0.97210,-0.21204,2023,6,12,10,21,56,764
0.11290,2.99250,-4.72500,0.00000,0.01586,0.96892,-0.21021,2023,6,12,10,21,56,775
0.11300,2.99250,-4.58500,0.00000,0.01671,0.97100,-0.21021,2023,6,12,10,21,56,786
0.11310,3.04500,-4.67250,0.00000,0.01610,0.97307,-0.20874,2023,6,12,10,21,56,797
0.11320,2.94000,-4.51500,0.00000,0.01562,0.97075,-0.21033,2023,6,12,10,21,56,808
0.11330,3.02750,-4.84750,0.00000,0.01635,0.97222,-0.21106,2023,6,12,10,21,56,819
0.11340,2.83500,-4.67250,0.00000,0.01623,0.96978,-0.21045,2023,6,12,10,21,56,830
0.11350,2.83500,-4.56750,0.00000,0.01647,0.96966,-0.21069,2023,6,12,10,21,56,842
0.11360,3.09750,-4.91750,0.00000,0.01659,0.97075,-0.20825,2023,6,12,10,21,56,853
0.11370,3.02750,-4.56750,0.00000,0.01476,0.97246,-0.21155,2023,6,12,10,21,56,864
0.11380,3.18500,-4.62000,0.00000,0.01562,0.97210,-0.20886,2023,6,12,10,21,56,875
0.11390,3.09750,-4.70750,0.00000,0.01732,0.97246,-0.20984,2023,6,12,10,21,56,886
0.11400,2.97500,-4.65500,0.00000,0.01708,0.97051,-0.20886,2023,6,12,10,21,56,897
0.11410,2.83500,-4.48000,0.00000,0.01806,0.97039,-0.20764,2023,6,12,10,21,56,908
0.11420,2.87000,-4.69000,0.00000,0.01513,0.97112,-0.21057,2023,6,12,10,21,56,919
0.11430,2.99250,-4.69000,0.00000,0.01659,0.97063,-0.21094,2023,6,12,10,21,56,930
0.11440,2.87000,-4.60250,0.00000,0.01671,0.97185,-0.20911,2023,6,12,10,21,56,942
0.11450,3.13250,-4.65500,0.00000,0.01623,0.97210,-0.20960,2023,6,12,10,21,56,953
0.11460,3.06250,-4.81250,0.00000,0.01525,0.96966,-0.21277,2023,6,12,10,21,56,964
0.11470,2.97500,-4.28750,0.00000,0.01720,0.96868,-0.21008,2023,6,12,10,21,57,5
0.11480,3.22000,-4.53250,0.00000,0.01537,0.97136,-0.21204,2023,6,12,10,21,57,16
0.11490,2.97500,-4.58500,0.00000,0.01305,0.97234,-0.21069,2023,6,12,10,21,57,27
0.11500,3.02750,-4.49750,0.00000,0.01684,0.96917,-0.20862,2023,6,12,10,21,57,38
0.11510,3.16750,-4.42750,0.00000,0.01684,0.97075,-0.21106,2023,6,12,10,21,57,49
0.11520,2.92250,-4.56750,0.00000,0.01696,0.97063,-0.21082,2023,6,12,10,21,57,60
0.11530,2.95750,-4.55000,0.00000,0.01586,0.97039,-0.21008,2023,6,12,10,21,57,72
0.11540,3.15000,-4.72500,0.00000,0.01684,0.97344,-0.21057,2023,6,12,10,21,57,83
0.11550,3.13250,-4.48000,0.00000,0.01818,0.97173,-0.21057,2023,6,12,10,21,57,94
0.11560,3.06250,-4.77750,0.00000,0.01830,0.96953,-0.20899,2023,6,12,10,21,57,105
0.11570,3.01000,-4.67250,0.00000,0.01647,0.97234,-0.20923,2023,6,12,10,21,57,116
0.11580,3.09750,-4.51500,0.00000,0.01476,0.96990,-0.20972,2023,6,12,10,21,57,127
0.11590,2.99250,-4.58500,0.00000,0.01488,0.96892,-0.20923,2023,6,12,10,21,57,138
0.11600,3.20250,-4.44500,0.00000,0.01610,0.97014,-0.21143,2023,6,12,10,21,57,149
0.11610,3.08000,-4.60250,0.00000,0.01684,0.97380,-0.21008,2023,6,12,10,21,57,160
0.11620,3.15000,-4.48000,0.00000,0.01635,0.97295,-0.21240,2023,6,12,10,21,57,172
0.11630,3.06250,-4.62000,0.00000,0.01562,0.97002,-0.21191,2023,6,12,10,21,57,183
0.11640,3.11500,-4.76000,0.00000,0.01598,0.97124,-0.20813,2023,6,12,10,21,57,194
0.11650,2.99250,-4.49750,0.00000,0.01623,0.97173,-0.20984,2023,6,12,10,21,57,205
0.11660,2.95750,-4.51500,0.00000,0.01476,0.97124,-0.21228,2023,6,12,10,21,57,216
0.11670,2.99250,-4.48000,0.00000,0.01452,0.96868,-0.21118,2023,6,12,10,21,57,227
0.11680,3.13250,-4.63750,0.00000,0.01720,0.96892,-0.21179,2023,6,12,10,21,57,238
0.11690,2.95750,-4.41000,0.00000,0.01586,0.97185,-0.21008,2023,6,12,10,21,57,249
0.11700,3.04500,-4.49750,0.00000,0.01427,0.97014,-0.20838,2023,6,12,10,21,57,260
0.11710,3.08000,-4.34000,0.00000,0.01452,0.97075,-0.21082,2023,6,12,10,21,57,272
0.11720,3.29000,-4.46250,0.00000,0.01403,0.97027,-0.21228,2023,6,12,10,21,57,283
0.11730,2.81750,-4.25250,0.00000,0.01623,0.96917,-0.21057,2023,6,12,10,21,57,294
0.11740,3.34250,-4.70750,0.00000,0.01354,0.97014,-0.20911,2023,6,12,10,21,57,305
0.11750,2.92250,-4.58500,0.00000,0.01586,0.96990,-0.20923,2023,6,12,10,21,57,316
0.11760,3.01000,-4.67250,0.00000,0.01513,0.97112,-0.20923,2023,6,12,10,21,57,327
0.11770,3.02750,-4.51500,0.00000,0.01488,0.97271,-0.21155,2023,6,12,10,21,57,338
0.11780,2.95750,-4.83000,0.00000,0.01501,0.97332,-0.21045,2023,6,12,10,21,57,349
0.11790,3.16750,-4.49750,0.00000,0.01598,0.97027,-0.20728,2023,6,12,10,21,57,360
0.11800,3.02750,-4.60250,0.00000,0.01464,0.97039,-0.20789,2023,6,12,10,21,57,372
0.11810,3.11500,-4.44500,0.00000,0.01513,0.97222,-0.20850,2023,6,12,10,21,57,383
0.11820,2.94000,-4.49750,0.00000,0.01757,0.97356,-0.21130,2023,6,12,10,21,57,394
0.11830,2.95750,-4.62000,0.00000,0.01525,0.97185,-0.20716,2023,6,12,10,21,57,405
0.11840,3.11500,-4.51500,0.00000,0.01610,0.96953,-0.20960,2023,6,12,10,21,57,416
0.11850,3.13250,-4.65500,0.00000,0.01476,0.97063,-0.21094,2023,6,12,10,21,57,427
0.11860,3.02750,-4.60250,0.00000,0.01525,0.97185,-0.20984,2023,6,12,10,21,57,438
0.11870,3.02750,-4.51500,0.00000,0.01610,0.97100,-0.21167,2023,6,12,10,21,57,449
0.11880,2.95750,-4.62000,0.00000,0.01696,0.97124,-0.20899,2023,6,12,10,21,57,460
0.11890,3.04500,-4.65500,0.00000,0.01525,0.97136,-0.21228,2023,6,12,10,21,57,472
0.11900,3.18500,-4.62000,0.00000,0.01562,0.97112,-0.20984,2023,6,12,10,21,57,483
0.11910,2.88750,-4.60250,0.00000,0.01525,0.96978,-0.21021,2023,6,12,10,21,57,494
0.11920,3.04500,-4.70750,0.00000,0.01610,0.97100,-0.20911,2023,6,12,10,21,57,505
0.11930,2.97500,-4.46250,0.00000,0.01745,0.96978,-0.20984,2023,6,12,10,21,57,516
0.11940,3.06250,-4.81250,0.00000,0.01513,0.97075,-0.21021,2023,6,12,10,21,57,527
0.11950,2.94000,-4.51500,0.00000,0.01598,0.97161,-0.20935,2023,6,12,10,21,57,538
0.11960,2.94000,-4.46250,0.00000,0.01452,0.97039,-0.20813,2023,6,12,10,21,57,549
0.11970,2.95750,-4.49750,0.00000,0.01818,0.97161,-0.21143,2023,6,12,10,21,57,560
0.11980,3.01000,-4.49750,0.00000,0.01635,0.97112,-0.21033,2023,6,12,10,21,57,572
0.11990,2.99250,-4.58500,0.00000,0.01586,0.97088,-0.20996,2023,6,12,10,21,57,583
0.12000,3.04500,-4.42750,0.00000,0.01549,0.96978,-0.21033,2023,6,12,10,21,57,594
0.12010,3.08000,-4.65500,0.00000,0.01781,0.97051,-0.21143,2023,6,12,10,21,57,605
0.12020,2.99250,-4.58500,0.00000,0.01610,0.97039,-0.20935,2023,6,12,10,21,57,616
0.12030,3.06250,-4.79500,0.00000,0.01440,0.97100,-0.20606,2023,6,12,10,21,57,627
0.12040,3.09750,-4.62000,0.00000,0.01562,0.97051,-0.20972,2023,6,12,10,21,57,638
0.12050,3.23750,-4.72500,0.00000,0.01574,0.97283,-0.21252,2023,6,12,10,21,57,649
0.12060,3.02750,-4.55000,0.00000,0.01537,0.96966,-0.20923,2023,6,12,10,21,57,660
0.12070,3.08000,-4.58500,0.00000,0.01610,0.97173,-0.20801,2023,6,12,10,21,57,672
0.12080,3.04500,-4.65500,0.00000,0.01745,0.97136,-0.20996,2023,6,12,10,21,57,683
0.12090,3.06250,-4.58500,0.00000,0.01513,0.97356,-0.21033,2023,6,12,10,21,57,694
0.12100,2.81750,-4.70750,0.00000,0.01720,0.97100,-0.21143,2023,6,12,10,21,57,705
0.12110,3.06250,-4.63750,0.00000,0.01562,0.97100,-0.21069,2023,6,12,10,21,57,716
0.12120,2.90500,-4.49750,0.00000,0.01598,0.96978,-0.21021,2023,6,12,10,21,57,727
0.12130,3.08000,-4.62000,0.00000,0.01549,0.97124,-0.21143,2023,6,12,10,21,57,738
0.12140,3.02750,-4.37500,0.00000,0.01757,0.96953,-0.20996,2023,6,12,10,21,57,749
0.12150,2.99250,-4.62000,0.00000,0.01684,0.97112,-0.21021,2023,6,12,10,21,57,760
0.12160,3.09750,-4.42750,0.00000,0.01488,0.96953,-0.21191,2023,6,12,10,21,57,772
0.12170,2.99250,-4.39250,0.00000,0.01598,0.97149,-0.21240,2023,6,12,10,21,57,783
0.12180,3.13250,-4.32250,0.00000,0.01623,0.97161,-0.20960,2023,6,12,10,21,57,794
0.12190,3.08000,-4.67250,0.00000,0.01452,0.96966,-0.20923,2023,6,12,10,21,57,805
0.12200,2.85250,-4.44500,0.00000,0.01842,0.97136,-0.21106,2023,6,12,10,21,57,816
0.12210,2.99250,-4.77750,0.00000,0.01501,0.97197,-0.21204,2023,6,12,10,21,57,827
0.12220,2.92250,-4.63750,0.00000,0.01696,0.97075,-0.21045,2023,6,12,10,21,57,838
0.12230,3.18500,-4.65500,0.00000,0.01635,0.97027,-0.20935,2023,6,12,10,21,57,849
0.12240,3.01000,-4.81250,0.00000,0.01659,0.97027,-0.21277,2023,6,12,10,21,57,860
0.12250,2.81750,-4.44500,0.00000,0.01574,0.97112,-0.21143,2023,6,12,10,21,57,872
0.12260,2.99250,-4.49750,0.00000,0.01391,0.96978,-0.20923,2023,6,12,10,21,57,883
0.12270,3.11500,-4.79500,0.00000,0.01623,0.97136,-0.21118,2023,6,12,10,21,57,894
0.12280,3.16750,-4.69000,0.00000,0.01440,0.96929,-0.21143,2023,6,12,10,21,57,905
0.12290,3.08000,-4.42750,0.00000,0.01708,0.97246,-0.21057,2023,6,12,10,21,57,916
0.12300,3.11500,-4.67250,0.00000,0.01562,0.97014,-0.20972,2023,6,12,10,21,57,927
0.12310,2.88750,-4.32250,0.00000,0.01623,0.97136,-0.20813,2023,6,12,10,21,57,938
0.12320,3.18500,-4.56750,0.00000,0.01671,0.97283,-0.21118,2023,6,12,10,21,57,949
0.12330,2.78250,-4.51500,0.00000,0.01427,0.97271,-0.20972,2023,6,12,10,21,57,960
0.12340,2.78250,-4.28750,0.00000,0.01549,0.97136,-0.20935,2023,6,12,10,21,58,2
0.12350,3.06250,-4.56750,0.00000,0.01598,0.97197,-0.20996,2023,6,12,10,21,58,13
0.12360,3.09750,-4.63750,0.00000,0.01537,0.97173,-0.21191,2023,6,12,10,21,58,24
0.12370,3.18500,-4.60250,0.00000,0.01574,0.96990,-0.20923,2023,6,12,10,21,58,35
0.12380,2.95750,-4.72500,0.00000,0.01623,0.96990,-0.21008,2023,6,12,10,21,58,46
0.12390,2.99250,-4.48000,0.00000,0.01574,0.97063,-0.21289,2023,6,12,10,21,58,57
0.12400,3.13250,-4.83000,0.00000,0.01940,0.97344,-0.21069,2023,6,12,10,21,58,68
0.12410,3.16750,-4.62000,0.00000,0.01598,0.97100,-0.20960,2023,6,12,10,21,58,79
0.12420,3.01000,-4.63750,0.00000,0.01720,0.97051,-0.21204,2023,6,12,10,21,58,90
0.12430,2.92250,-4.77750,0.00000,0.01623,0.96795,-0.20813,2023,6,12,10,21,58,102
0.12440,3.01000,-4.51500,0.00000,0.01476,0.97075,-0.20935,2023,6,12,10,21,58,113
0.12450,2.88750,-4.51500,0.00000,0.01586,0.97002,-0.20838,2023,6,12,10,21,58,124
0.12460,2.87000,-4.39250,0.00000,0.01732,0.97063,-0.21008,2023,6,12,10,21,58,135
0.12470,3.16750,-4.65500,0.00000,0.01732,0.96905,-0.21301,2023,6,12,10,21,58,146
0.12480,3.08000,-4.69000,0.00000,0.01696,0.97149,-0.21033,2023,6,12,10,21,58,157
0.12490,2.97500,-4.62000,0.00000,0.01671,0.97063,-0.20850,2023,6,12,10,21,58,168
0.12500,3.13250,-4.62000,0.00000,0.01305,0.97112,-0.21167,2023,6,12,10,21,58,179
0.12510,3.13250,-4.56750,0.00000,0.01635,0.97051,-0.20899,2023,6,12,10,21,58,190
0.12520,3.11500,-4.60250,0.00000,0.01318,0.97027,-0.20862,2023,6,12,10,21,58,202
0.12530,2.99250,-4.60250,0.00000,0.01366,0.97051,-0.21179,2023,6,12,10,21,58,213
0.12540,3.25500,-4.67250,0.00000,0.01562,0.96978,-0.21155,2023,6,12,10,21,58,224
0.12550,3.06250,-4.70750,0.00000,0.01513,0.97246,-0.21033,2023,6,12,10,21,58,235
0.12560,3.06250,-4.53250,0.00000,0.01757,0.96844,-0.20947,2023,6,12,10,21,58,246
0.12570,3.23750,-4.83000,0.00000,0.01684,0.96978,-0.20935,2023,6,12,10,21,58,257
0.12580,2.97500,-4.35750,0.00000,0.01562,0.96917,-0.21045,2023,6,12,10,21,58,268
0.12590,3.13250,-4.91750,0.00000,0.01659,0.97088,-0.21021,2023,6,12,10,21,58,279
0.12600,2.88750,-4.58500,0.00000,0.01501,0.97063,-0.21033,2023,6,12,10,21,58,290
0.12610,2.97500,-4.67250,0.00000,0.01610,0.97173,-0.20801,2023,6,12,10,21,58,302
0.12620,3.11500,-4.62000,0.00000,0.01476,0.97283,-0.21277,2023,6,12,10,21,58,313
0.12630,2.99250,-4.44500,0.00000,0.01427,0.96905,-0.21082,2023,6,12,10,21,58,324
0.12640,3.15000,-4.62000,0.00000,0.01830,0.97149,-0.20960,2023,6,12,10,21,58,335
0.12650,2.88750,-4.37500,0.00000,0.01635,0.97051,-0.21191,2023,6,12,10,21,58,346
0.12660,3.15000,-4.62000,0.00000,0.01574,0.97027,-0.21252,2023,6,12,10,21,58,357
0.12670,3.02750,-4.62000,0.00000,0.01488,0.97124,-0.21082,2023,6,12,10,21,58,368
0.12680,2.94000,-4.60250,0.00000,0.01403,0.96917,-0.21045,2023,6,12,10,21,58,379
0.12690,3.02750,-4.60250,0.00000,0.01549,0.97197,-0.21033,2023,6,12,10,21,58,390
0.12700,3.13250,-4.49750,0.00000,0.01793,0.96966,-0.20960,2023,6,12,10,21,58,402
0.12710,3.06250,-4.56750,0.00000,0.01598,0.97332,-0.20923,2023,6,12,10,21,58,413
0.12720,2.95750,-4.41000,0.00000,0.01647,0.97173,-0.20935,2023,6,12,10,21,58,424
0.12730,2.97500,-4.76000,0.00000,0.01501,0.96990,-0.21155,2023,6,12,10,21,58,435
0.12740,3.02750,-4.56750,0.00000,0.01391,0.96953,-0.21265,2023,6,12,10,21,58,446
0.12750,2.95750,-4.72500,0.00000,0.01879,0.97149,-0.21094,2023,6,12,10,21,58,457
0.12760,3.01000,-4.62000,0.00000,0.01830,0.97039,-0.21094,2023,6,12,10,21,58,468
0.12770,2.90500,-4.53250,0.00000,0.01525,0.97222,-0.20972,2023,6,12,10,21,58,479
0.12780,3.09750,-4.65500,0.00000,0.01659,0.97051,-0.21289,2023,6,12,10,21,58,490
0.12790,2.94000,-4.74250,0.00000,0.01671,0.97088,-0.21008,2023,6,12,10,21,58,502
0.12800,3.02750,-4.51500,0.00000,0.01549,0.96953,-0.21021,2023,6,12,10,21,58,513
0.12810,3.01000,-4.62000,0.00000,0.01513,0.97051,-0.20862,2023,6,12,10,21,58,524
0.12820,3.02750,-4.79500,0.00000,0.01476,0.97149,-0.21155,2023,6,12,10,21,58,535
0.12830,3.04500,-4.58500,0.00000,0.01574,0.97161,-0.20923,2023,6,12,10,21,58,546
0.12840,2.90500,-4.51500,0.00000,0.01513,0.97027,-0.20886,2023,6,12,10,21,58,557
0.12850,3.22000,-4.63750,0.00000,0.01525,0.97149,-0.20886,2023,6,12,10,21,58,568
0.12860,3.08000,-4.60250,0.00000,0.01635,0.97112,-0.21033,2023,6,12,10,21,58,579
0.12870,3.04500,-4.49750,0.00000,0.01525,0.97197,-0.21106,2023,6,12,10,21,58,590
0.12880,2.95750,-4.70750,0.00000,0.01366,0.97149,-0.21118,2023,6,12,10,21,58,602
0.12890,3.08000,-4.65500,0.00000,0.01562,0.97027,-0.21045,2023,6,12,10,21,58,613
0.12900,2.99250,-4.62000,0.00000,0.01696,0.97112,-0.20972,2023,6,12,10,21,58,624
0.12910,3.13250,-4.51500,0.00000,0.01659,0.97014,-0.21069,2023,6,12,10,21,58,635
0.12920,3.15000,-4.62000,0.00000,0.01769,0.97014,-0.20862,2023,6,12,10,21,58,646
0.12930,2.94000,-4.48000,0.00000,0.01781,0.97185,-0.20947,2023,6,12,10,21,58,657
0.12940,2.80000,-4.69000,0.00000,0.01879,0.97063,-0.20923,2023,6,12,10,21,58,668
0.12950,2.94000,-4.49750,0.00000,0.01574,0.97124,-0.21021,2023,6,12,10,21,58,679
0.12960,3.11500,-4.58500,0.00000,0.01598,0.96990,-0.21533,2023,6,12,10,21,58,690
0.12970,3.11500,-4.65500,0.00000,0.01525,0.96990,-0.20886,2023,6,12,10,21,58,702
0.12980,3.01000,-4.62000,0.00000,0.01562,0.97027,-0.20935,2023,6,12,10,21,58,713
0.12990,2.99250,-4.62000,0.00000,0.01635,0.96966,-0.20862,2023,6,12,10,21,58,724
0.13000,2.95750,-4.48000,0.00000,0.01513,0.97039,-0.21130,2023,6,12,10,21,58,735
0.13010,3.01000,-4.49750,0.00000,0.01537,0.97063,-0.20960,2023,6,12,10,21,58,746
0.13020,3.09750,-4.56750,0.00000,0.01696,0.96990,-0.21057,2023,6,12,10,21,58,757
0.13030,2.83500,-4.74250,0.00000,0.01452,0.97112,-0.21021,2023,6,12,10,21,58,768
0.13040,2.95750,-4.58500,0.00000,0.01513,0.97161,-0.20947,2023,6,12,10,21,58,779
0.13050,3.13250,-4.65500,0.00000,0.01427,0.96990,-0.20960,2023,6,12,10,21,58,790
0.13060,3.01000,-4.56750,0.00000,0.01598,0.97234,-0.21118,2023,6,12,10,21,58,802
0.13070,2.94000,-4.62000,0.00000,0.01427,0.97124,-0.20630,2023,6,12,10,21,58,813
0.13080,3.06250,-4.74250,0.00000,0.01452,0.97210,-0.21033,2023,6,12,10,21,58,824
0.13090,2.99250,-4.53250,0.00000,0.01415,0.97210,-0.21277,2023,6,12,10,21,58,835
0.13100,3.20250,-4.63750,0.00000,0.01696,0.96856,-0.21228,2023,6,12,10,21,58,846
0.13110,2.94000,-4.53250,0.00000,0.01403,0.96990,-0.21057,2023,6,12,10,21,58,857
0.13120,2.87000,-4.55000,0.00000,0.01464,0.97197,-0.21277,2023,6,12,10,21,58,868
0.13130,3.02750,-4.69000,0.00000,0.01549,0.96929,-0.21082,2023,6,12,10,21,58,879
0.13140,3.11500,-4.60250,0.00000,0.01598,0.97075,-0.20825,2023,6,12,10,21,58,890
0.13150,3.09750,-4.76000,0.00000,0.01525,0.96990,-0.21045,2023,6,12,10,21,58,902
0.13160,3.13250,-4.49750,0.00000,0.01501,0.97283,-0.21252,2023,6,12,10,21,58,913
0.13170,2.92250,-4.65500,0.00000,0.01671,0.96941,-0.20899,2023,6,12,10,21,58,924
0.13180,3.06250,-4.55000,0.00000,0.01549,0.96856,-0.21130,2023,6,12,10,21,58,935
0.13190,2.81750,-4.39250,0.00000,0.01549,0.97332,-0.21240,2023,6,12,10,21,58,946
0.13200,3.06250,-4.53250,0.00000,0.01732,0.96953,-0.21204,2023,6,12,10,21,58,957
0.13210,2.94000,-4.67250,0.00000,0.01562,0.96917,-0.20899,2023,6,12,10,21,59,8
0.13220,3.01000,-4.69000,0.00000,0.01513,0.97051,-0.20850,2023,6,12,10,21,59,19
0.13230,2.94000,-4.65500,0.00000,0.01623,0.97014,-0.20960,2023,6,12,10,21,59,30
0.13240,3.06250,-4.55000,0.00000,0.01440,0.97149,-0.21167,2023,6,12,10,21,59,42
0.13250,2.99250,-4.76000,0.00000,0.01793,0.97051,-0.20862,2023,6,12,10,21,59,53
0.13260,2.97500,-4.55000,0.00000,0.01427,0.96978,-0.20911,2023,6,12,10,21,59,64
0.13270,3.04500,-4.51500,0.00000,0.01720,0.97014,-0.21069,2023,6,12,10,21,59,75
0.13280,3.04500,-4.56750,0.00000,0.01598,0.97014,-0.20972,2023,6,12,10,21,59,86
0.13290,2.97500,-4.67250,0.00000,0.01842,0.97332,-0.21228,2023,6,12,10,21,59,97
0.13300,3.16750,-4.55000,0.00000,0.01452,0.96929,-0.20947,2023,6,12,10,21,59,108
0.13310,2.99250,-4.74250,0.00000,0.01610,0.96880,-0.21155,2023,6,12,10,21,59,119
0.13320,3.01000,-4.42750,0.00000,0.01366,0.97002,-0.21204,2023,6,12,10,21,59,130
0.13330,2.87000,-4.62000,0.00000,0.01501,0.97014,-0.21143,2023,6,12,10,21,59,142
0.13340,3.06250,-4.65500,0.00000,0.01610,0.96990,-0.21008,2023,6,12,10,21,59,153
0.13350,2.90500,-4.63750,0.00000,0.01684,0.97075,-0.20960,2023,6,12,10,21,59,164
0.13360,2.94000,-4.48000,0.00000,0.01549,0.97149,-0.21240,2023,6,12,10,21,59,175
0.13370,3.04500,-4.48000,0.00000,0.01708,0.97185,-0.21252,2023,6,12,10,21,59,186
0.13380,3.11500,-4.51500,0.00000,0.01513,0.96966,-0.21069,2023,6,12,10,21,59,197
0.13390,2.94000,-4.60250,0.00000,0.01647,0.97185,-0.21057,2023,6,12,10,21,59,208
0.13400,2.88750,-4.69000,0.00000,0.01586,0.97002,-0.21057,2023,6,12,10,21,59,219
0.13410,3.02750,-4.48000,0.00000,0.01452,0.97185,-0.21021,2023,6,12,10,21,59,230
0.13420,3.01000,-4.51500,0.00000,0.01659,0.97234,-0.20984,2023,6,12,10,21,59,242
0.13430,3.06250,-4.55000,0.00000,0.01391,0.96990,-0.20886,2023,6,12,10,21,59,253
0.13440,2.99250,-4.60250,0.00000,0.01610,0.97185,-0.20935,2023,6,12,10,21,59,264
0.13450,3.02750,-4.62000,0.00000,0.01647,0.97051,-0.21289,2023,6,12,10,21,59,275
0.13460,2.83500,-4.63750,0.00000,0.01440,0.96966,-0.20984,2023,6,12,10,21,59,286
0.13470,2.97500,-4.63750,0.00000,0.01391,0.97112,-0.21021,2023,6,12,10,21,59,297
0.13480,2.99250,-4.46250,0.00000,0.01647,0.97295,-0.21082,2023,6,12,10,21,59,308
0.13490,3.04500,-4.53250,0.00000,0.01732,0.97051,-0.20923,2023,6,12,10,21,59,319
0.13500,2.97500,-4.49750,0.00000,0.01757,0.97185,-0.21277,2023,6,12,10,21,59,330
0.13510,3.06250,-4.67250,0.00000,0.01671,0.97051,-0.21204,2023,6,12,10,21,59,342
0.13520,2.92250,-4.42750,0.00000,0.01586,0.97173,-0.20984,2023,6,12,10,21,59,353
0.13530,2.94000,-4.42750,0.00000,0.01366,0.97319,-0.21106,2023,6,12,10,21,59,364
0.13540,2.85250,-4.53250,0.00000,0.01415,0.96966,-0.21033,2023,6,12,10,21,59,375
0.13550,2.90500,-4.44500,0.00000,0.01671,0.97210,-0.21008,2023,6,12,10,21,59,386
0.13560,3.16750,-4.69000,0.00000,0.01549,0.97185,-0.21033,2023,6,12,10,21,59,397
0.13570,2.88750,-4.65500,0.00000,0.01574,0.96917,-0.20996,2023,6,12,10,21,59,408
0.13580,2.97500,-4.55000,0.00000,0.01501,0.97271,-0.20984,2023,6,12,10,21,59,419
0.13590,2.99250,-4.55000,0.00000,0.01440,0.97295,-0.20825,2023,6,12,10,21,59,430
0.13600,3.16750,-4.62000,0.00000,0.01415,0.96966,-0.21094,2023,6,12,10,21,59,442
0.13610,3.22000,-4.74250,0.00000,0.01391,0.96966,-0.21045,2023,6,12,10,21,59,453
0.13620,2.97500,-4.67250,0.00000,0.01586,0.97185,-0.20911,2023,6,12,10,21,59,464
0.13630,2.85250,-4.62000,0.00000,0.01671,0.96917,-0.21130,2023,6,12,10,21,59,475
0.13640,2.92250,-4.69000,0.00000,0.01781,0.97149,-0.20960,2023,6,12,10,21,59,486
0.13650,3.16750,-4.55000,0.00000,0.01476,0.97136,-0.21069,2023,6,12,10,21,59,497
0.13660,2.94000,-4.35750,0.00000,0.01574,0.97295,-0.21033,2023,6,12,10,21,59,508
0.13670,2.88750,-4.46250,0.00000,0.01501,0.97222,-0.21167,2023,6,12,10,21,59,519
0.13680,3.06250,-4.60250,0.00000,0.01586,0.97210,-0.21008,2023,6,12,10,21,59,530
0.13690,3.06250,-4.69000,0.00000,0.01769,0.96941,-0.20850,2023,6,12,10,21,59,542
0.13700,3.25500,-4.70750,0.00000,0.01696,0.96966,-0.20984,2023,6,12,10,21,59,553
0.13710,3.11500,-4.34000,0.00000,0.01671,0.97161,-0.20703,2023,6,12,10,21,59,564
0.13720,3.18500,-4.65500,0.00000,0.01708,0.96978,-0.20947,2023,6,12,10,21,59,575
0.13730,3.22000,-4.62000,0.00000,0.01476,0.97295,-0.21240,2023,6,12,10,21,59,586
0.13740,3.18500,-4.58500,0.00000,0.01366,0.96844,-0.21240,2023,6,12,10,21,59,597
0.13750,2.95750,-4.63750,0.00000,0.01708,0.97332,-0.20777,2023,6,12,10,21,59,608
0.13760,2.97500,-4.63750,0.00000,0.01684,0.97124,-0.20862,2023,6,12,10,21,59,619
0.13770,3.11500,-4.62000,0.00000,0.01464,0.97100,-0.21179,2023,6,12,10,21,59,630
0.13780,3.04500,-4.53250,0.00000,0.01610,0.97246,-0.21313,2023,6,12,10,21,59,642
0.13790,2.87000,-4.51500,0.00000,0.01586,0.97088,-0.21045,2023,6,12,10,21,59,653
0.13800,3.18500,-4.67250,0.00000,0.01427,0.97002,-0.21252,2023,6,12,10,21,59,664
0.13810,2.92250,-4.49750,0.00000,0.01732,0.97063,-0.21008,2023,6,12,10,21,59,675
0.13820,3.11500,-4.60250,0.00000,0.01769,0.96917,-0.20850,2023,6,12,10,21,59,686
0.13830,2.87000,-4.53250,0.00000,0.01525,0.97063,-0.21045,2023,6,12,10,21,59,697
0.13840,2.99250,-4.41000,0.00000,0.01537,0.97332,-0.21435,2023,6,12,10,21,59,708
0.13850,2.87000,-4.48000,0.00000,0.01647,0.97210,-0.21021,2023,6,12,10,21,59,719
0.13860,3.02750,-4.51500,0.00000,0.01757,0.97063,-0.20960,2023,6,12,10,21,59,730
0.13870,2.95750,-4.34000,0.00000,0.01586,0.97185,-0.21045,2023,6,12,10,21,59,742
0.13880,2.99250,-4.60250,0.00000,0.01806,0.97149,-0.21252,2023,6,12,10,21,59,753
0.13890,3.16750,-4.55000,0.00000,0.01720,0.97185,-0.21228,2023,6,12,10,21,59,764
0.13900,2.81750,-4.60250,0.00000,0.01745,0.97088,-0.21118,2023,6,12,10,21,59,775
0.13910,2.97500,-4.74250,0.00000,0.01671,0.97002,-0.21130,2023,6,12,10,21,59,786
0.13920,3.06250,-4.79500,0.00000,0.01769,0.97307,-0.20996,2023,6,12,10,21,59,797
0.13930,3.02750,-4.39250,0.00000,0.01781,0.97136,-0.21167,2023,6,12,10,21,59,808
0.13940,3.02750,-4.77750,0.00000,0.01720,0.97136,-0.21204,2023,6,12,10,21,59,819
0.13950,3.11500,-4.37500,0.00000,0.01659,0.96990,-0.21216,2023,6,12,10,21,59,830
0.13960,3.04500,-4.60250,0.00000,0.01696,0.97039,-0.21106,2023,6,12,10,21,59,842
0.13970,3.04500,-4.53250,0.00000,0.01586,0.97075,-0.21057,2023,6,12,10,21,59,853
0.13980,3.02750,-4.42750,0.00000,0.01635,0.96929,-0.21082,2023,6,12,10,21,59,864
0.13990,2.94000,-4.48000,0.00000,0.01562,0.97258,-0.21167,2023,6,12,10,21,59,875
0.14000,2.88750,-4.65500,0.00000,0.01684,0.96819,-0.20996,2023,6,12,10,21,59,886
0.14010,2.95750,-4.72500,0.00000,0.01818,0.97161,-0.21265,2023,6,12,10,21,59,897
0.14020,2.99250,-4.60250,0.00000,0.01598,0.97258,-0.21106,2023,6,12,10,21,59,908
0.14030,3.16750,-4.65500,0.00000,0.01659,0.96953,-0.21411,2023,6,12,10,21,59,919
0.14040,3.02750,-4.51500,0.00000,0.01684,0.96990,-0.21082,2023,6,12,10,21,59,930
0.14050,2.99250,-4.83000,0.00000,0.01415,0.97112,-0.21191,2023,6,12,10,21,59,942
0.14060,3.06250,-4.28750,0.00000,0.01354,0.97136,-0.21313,2023,6,12,10,21,59,953
0.14070,2.90500,-4.58500,0.00000,0.01488,0.97149,-0.20996,2023,6,12,10,21,59,964
0.14080,3.13250,-4.79500,0.00000,0.01793,0.97088,-0.21155,2023,6,12,10,21,59,975
0.14090,3.11500,-4.70750,0.00000,0.01574,0.97124,-0.20960,2023,6,12,10,22,0,6
0.14100,3.04500,-4.42750,0.00000,0.01574,0.97051,-0.21008,2023,6,12,10,22,0,17
0.14110,2.94000,-4.56750,0.00000,0.01659,0.97014,-0.21277,2023,6,12,10,22,0,28
0.14120,3.13250,-4.56750,0.00000,0.01684,0.96892,-0.21252,2023,6,12,10,22,0,39
0.14130,2.99250,-4.63750,0.00000,0.01720,0.97027,-0.21008,2023,6,12,10,22,0,50
0.14140,2.97500,-4.63750,0.00000,0.01684,0.97014,-0.20850,2023,6,12,10,22,0,62
0.14150,3.09750,-4.65500,0.00000,0.01562,0.97344,-0.21155,2023,6,12,10,22,0,73
0.14160,3.15000,-4.60250,0.00000,0.01391,0.97039,-0.21167,2023,6,12,10,22,0,84
0.14170,3.01000,-4.58500,0.00000,0.01525,0.97124,-0.20850,2023,6,12,10,22,0,95
0.14180,3.08000,-4.63750,0.00000,0.01586,0.96880,-0.20947,2023,6,12,10,22,0,106
0.14190,3.08000,-4.49750,0.00000,0.01659,0.97197,-0.20984,2023,6,12,10,22,0,117
0.14200,3.11500,-4.55000,0.00000,0.01537,0.97246,-0.20838,2023,6,12,10,22,0,128
0.14210,3.15000,-4.60250,0.00000,0.01732,0.97075,-0.21130,2023,6,12,10,22,0,139
0.14220,2.90500,-4.76000,0.00000,0.01623,0.97197,-0.21082,2023,6,12,10,22,0,150
0.14230,2.97500,-4.42750,0.00000,0.01562,0.97002,-0.21313,2023,6,12,10,22,0,162
0.14240,3.11500,-4.74250,0.00000,0.01366,0.97112,-0.21252,2023,6,12,10,22,0,173
0.14250,3.27250,-4.70750,0.00000,0.01525,0.96953,-0.21191,2023,6,12,10,22,0,184
0.14260,3.04500,-4.37500,0.00000,0.01586,0.97063,-0.20996,2023,6,12,10,22,0,195
0.14270,2.99250,-4.51500,0.00000,0.01806,0.97149,-0.21179,2023,6,12,10,22,0,206
0.14280,3.20250,-4.72500,0.00000,0.01720,0.96966,-0.21143,2023,6,12,10,22,0,217
0.14290,2.88750,-4.53250,0.00000,0.01610,0.96868,-0.20960,2023,6,12,10,22,0,228
0.14300,2.92250,-4.55000,0.00000,0.01452,0.96966,-0.20947,2023,6,12,10,22,0,239
0.14310,3.11500,-4.55000,0.00000,0.01635,0.97051,-0.20899,2023,6,12,10,22,0,250
0.14320,3.02750,-4.58500,0.00000,0.01488,0.97088,-0.20984,2023,6,12,10,22,0,262
0.14330,3.02750,-4.53250,0.00000,0.01562,0.96892,-0.21094,2023,6,12,10,22,0,273
0.14340,2.99250,-4.55000,0.00000,0.01623,0.97100,-0.21130,2023,6,12,10,22,0,284
0.14350,3.11500,-4.60250,0.00000,0.01671,0.97136,-0.21106,2023,6,12,10,22,0,295
0.14360,3.02750,-4.65500,0.00000,0.01501,0.96990,-0.21301,2023,6,12,10,22,0,306
0.14370,2.88750,-4.53250,0.00000,0.01366,0.97210,-0.20984,2023,6,12,10,22,0,317
0.14380,3.09750,-4.60250,0.00000,0.01647,0.97112,-0.21167,2023,6,12,10,22,0,328
0.14390,2.83500,-4.53250,0.00000,0.01647,0.97027,-0.20716,2023,6,12,10,22,0,339
0.14400,2.99250,-4.53250,0.00000,0.01708,0.97063,-0.21228,2023,6,12,10,22,0,350
0.14410,2.95750,-4.65500,0.00000,0.01464,0.97173,-0.20984,2023,6,12,10,22,0,362
0.14420,2.92250,-4.56750,0.00000,0.01525,0.96953,-0.21094,2023,6,12,10,22,0,373
0.14430,2.95750,-4.46250,0.00000,0.01549,0.97124,-0.20911,2023,6,12,10,22,0,384
0.14440,2.92250,-4.58500,0.00000,0.01659,0.97258,-0.20935,2023,6,12,10,22,0,395
0.14450,2.80000,-4.62000,0.00000,0.01684,0.96795,-0.20911,2023,6,12,10,22,0,406
0.14460,2.92250,-4.56750,0.00000,0.01623,0.97246,-0.21094,2023,6,12,10,22,0,417
0.14470,2.81750,-4.65500,0.00000,0.01574,0.97124,-0.20947,2023,6,12,10,22,0,428
0.14480,2.92250,-4.55000,0.00000,0.01915,0.97332,-0.21008,2023,6,12,10,22,0,439
0.14490,3.06250,-4.70750,0.00000,0.01574,0.97197,-0.20984,2023,6,12,10,22,0,450
0.14500,3.01000,-4.56750,0.00000,0.01745,0.97124,-0.20984,2023,6,12,10,22,0,462
0.14510,2.95750,-4.63750,0.00000,0.01488,0.97051,-0.20642,2023,6,12,10,22,0,473
0.14520,3.02750,-4.60250,0.00000,0.01610,0.96966,-0.21045,2023,6,12,10,22,0,484
0.14530,3.27250,-4.62000,0.00000,0.01440,0.97112,-0.20972,2023,6,12,10,22,0,495
0.14540,2.88750,-4.41000,0.00000,0.01427,0.96978,-0.20886,2023,6,12,10,22,0,506
0.14550,2.85250,-4.49750,0.00000,0.01708,0.97222,-0.20825,2023,6,12,10,22,0,517
0.14560,3.01000,-4.70750,0.00000,0.01647,0.97002,-0.21082,2023,6,12,10,22,0,528
0.14570,3.04500,-4.51500,0.00000,0.01635,0.97136,-0.21179,2023,6,12,10,22,0,539
0.14580,2.94000,-4.51500,0.00000,0.01635,0.97246,-0.21106,2023,6,12,10,22,0,550
0.14590,3.13250,-4.65500,0.00000,0.01452,0.96990,-0.21033,2023,6,12,10,22,0,562
0.14600,2.97500,-4.28750,0.00000,0.01415,0.97161,-0.21240,2023,6,12,10,22,0,573
0.14610,3.04500,-4.79500,0.00000,0.01391,0.97100,-0.21265,2023,6,12,10,22,0,584
0.14620,3.06250,-4.74250,0.00000,0.01598,0.97027,-0.21179,2023,6,12,10,22,0,595
0.14630,2.99250,-4.65500,0.00000,0.01684,0.97332,-0.21021,2023,6,12,10,22,0,606
0.14640,3.20250,-4.55000,0.00000,0.01623,0.97075,-0.20911,2023,6,12,10,22,0,617
0.14650,2.95750,-4.32250,0.00000,0.01793,0.97185,-0.21106,2023,6,12,10,22,0,628
0.14660,3.13250,-4.62000,0.00000,0.01537,0.97197,-0.21094,2023,6,12,10,22,0,639
0.14670,2.99250,-4.55000,0.00000,0.01720,0.97124,-0.20960,2023,6,12,10,22,0,650
0.14680,3.22000,-4.65500,0.00000,0.01501,0.97185,-0.21021,2023,6,12,10,22,0,662
0.14690,2.99250,-4.69000,0.00000,0.01501,0.96953,-0.20935,2023,6,12,10,22,0,673
0.14700,2.99250,-4.70750,0.00000,0.01476,0.97051,-0.21143,2023,6,12,10,22,0,684
0.14710,3.06250,-4.56750,0.00000,0.01586,0.97075,-0.20996,2023,6,12,10,22,0,695
0.14720,2.85250,-4.63750,0.00000,0.01659,0.97246,-0.21021,2023,6,12,10,22,0,706
0.14730,2.90500,-4.60250,0.00000,0.01757,0.97014,-0.21252,2023,6,12,10,22,0,717
0.14740,3.06250,-4.63750,0.00000,0.01732,0.96892,-0.21045,2023,6,12,10,22,0,728
0.14750,2.95750,-4.37500,0.00000,0.01635,0.97185,-0.21082,2023,6,12,10,22,0,739
0.14760,3.04500,-4.76000,0.00000,0.01269,0.97124,-0.21130,2023,6,12,10,22,0,750
0.14770,2.76500,-4.51500,0.00000,0.01488,0.96844,-0.21289,2023,6,12,10,22,0,762
0.14780,2.95750,-4.79500,0.00000,0.01720,0.97100,-0.21313,2023,6,12,10,22,0,773
0.14790,3.06250,-4.51500,0.00000,0.01732,0.97344,-0.21167,2023,6,12,10,22,0,784
0.14800,2.88750,-4.58500,0.00000,0.01549,0.97161,-0.21179,2023,6,12,10,22,0,795
0.14810,2.92250,-4.49750,0.00000,0.01745,0.97051,-0.21130,2023,6,12,10,22,0,806
0.14820,2.95750,-4.70750,0.00000,0.01513,0.97161,-0.21118,2023,6,12,10,22,0,817
