#2023/06/12 13:29:51
time,wx,wy,wz,ax,ay,az,yy,MM,dd,hh,mm,ss,ms
0.16230,2.87000,-4.58500,0.00000,-0.00903,0.01671,-0.99052,2023,6,12,13,29,51,965
0.16240,3.11500,-4.69000,0.00000,-0.00976,0.01647,-0.99088,2023,6,12,13,29,51,976
0.16250,2.83500,-4.67250,0.00000,-0.00878,0.01903,-0.98796,2023,6,12,13,29,51,987
0.16260,3.04500,-4.79500,0.00000,-0.00866,0.02025,-0.99137,2023,6,12,13,29,51,998
0.16270,2.97500,-4.67250,0.00000,-0.00708,0.01879,-0.99162,2023,6,12,13,29,51,9
0.16280,2.83500,-4.56750,0.00000,-0.00817,0.01598,-0.98991,2023,6,12,13,29,51,20
0.16290,2.85250,-4.58500,0.00000,-0.00927,0.01806,-0.99101,2023,6,12,13,29,51,31
0.16300,2.83500,-4.70750,0.00000,-0.00769,0.01708,-0.98857,2023,6,12,13,29,51,42
0.16310,2.97500,-4.55000,0.00000,-0.00830,0.01928,-0.99247,2023,6,12,13,29,51,53
0.16320,2.88750,-4.77750,0.00000,-0.00793,0.01684,-0.99064,2023,6,12,13,29,51,64
0.16330,2.87000,-4.55000,0.00000,-0.00634,0.01769,-0.98808,2023,6,12,13,29,51,76
0.16340,2.95750,-4.65500,0.00000,-0.00683,0.01891,-0.98979,2023,6,12,13,29,51,87
0.16350,3.08000,-4.77750,0.00000,-0.00878,0.01842,-0.99101,2023,6,12,13,29,51,98
0.16360,2.88750,-4.63750,0.00000,-0.00756,0.01574,-0.98820,2023,6,12,13,29,51,109
0.16370,2.97500,-4.63750,0.00000,-0.00854,0.01720,-0.99064,2023,6,12,13,29,51,120
0.16380,2.88750,-4.69000,0.00000,-0.00708,0.01708,-0.98942,2023,6,12,13,29,51,131
0.16390,3.04500,-4.70750,0.00000,-0.00952,0.01647,-0.98869,2023,6,12,13,29,51,142
0.16400,3.01000,-4.76000,0.00000,-0.00842,0.01818,-0.98844,2023,6,12,13,29,51,153
0.16410,2.78250,-4.46250,0.00000,-0.00915,0.01793,-0.98844,2023,6,12,13,29,51,164
0.16420,3.08000,-4.48000,0.00000,-0.00744,0.01537,-0.98918,2023,6,12,13,29,51,176
0.16430,3.04500,-4.44500,0.00000,-0.00732,0.01696,-0.98844,2023,6,12,13,29,51,187
0.16440,2.87000,-4.69000,0.00000,-0.00793,0.01610,-0.99003,2023,6,12,13,29,51,198
0.16450,2.87000,-4.51500,0.00000,-0.00866,0.01769,-0.98783,2023,6,12,13,29,51,209
0.16460,3.01000,-4.55000,0.00000,-0.00805,0.01769,-0.99125,2023,6,12,13,29,51,220
0.16470,2.92250,-4.51500,0.00000,-0.00756,0.01745,-0.98722,2023,6,12,13,29,51,231
0.16480,3.08000,-4.60250,0.00000,-0.00866,0.01769,-0.99003,2023,6,12,13,29,51,242
0.16490,3.09750,-4.83000,0.00000,-0.00744,0.01671,-0.98747,2023,6,12,13,29,51,253
0.16500,2.92250,-4.69000,0.00000,-0.00769,0.01830,-0.98954,2023,6,12,13,29,51,264
0.16510,2.92250,-4.60250,0.00000,-0.00769,0.01427,-0.98918,2023,6,12,13,29,51,276
0.16520,2.94000,-4.27000,0.00000,-0.00830,0.01696,-0.98930,2023,6,12,13,29,51,287
0.16530,2.81750,-4.58500,0.00000,-0.01013,0.01732,-0.98796,2023,6,12,13,29,52,8
0.16540,3.09750,-4.53250,0.00000,-0.00854,0.01574,-0.98930,2023,6,12,13,29,52,19
0.16550,2.95750,-4.67250,0.00000,-0.00891,0.01745,-0.98844,2023,6,12,13,29,52,30
0.16560,3.01000,-4.44500,0.00000,-0.00927,0.01574,-0.99088,2023,6,12,13,29,52,41
0.16570,2.81750,-4.58500,0.00000,-0.00805,0.01732,-0.99040,2023,6,12,13,29,52,52
0.16580,3.02750,-4.62000,0.00000,-0.00854,0.01879,-0.98869,2023,6,12,13,29,52,63
0.16590,2.97500,-4.62000,0.00000,-0.00781,0.01684,-0.98966,2023,6,12,13,29,52,74
0.16600,2.99250,-4.42750,0.00000,-0.00720,0.01598,-0.98881,2023,6,12,13,29,52,86
0.16610,3.01000,-4.63750,0.00000,-0.00756,0.01793,-0.98771,2023,6,12,13,29,52,97
0.16620,2.94000,-4.67250,0.00000,-0.00732,0.01769,-0.98820,2023,6,12,13,29,52,108
0.16630,2.76500,-4.77750,0.00000,-0.00842,0.01537,-0.99076,2023,6,12,13,29,52,119
0.16640,2.92250,-4.72500,0.00000,-0.00659,0.01720,-0.98796,2023,6,12,13,29,52,130
0.16650,2.88750,-4.60250,0.00000,-0.01074,0.01720,-0.99137,2023,6,12,13,29,52,141
0.16660,2.95750,-4.56750,0.00000,-0.00878,0.01757,-0.98930,2023,6,12,13,29,52,152
0.16670,3.09750,-4.55000,0.00000,-0.00708,0.01586,-0.98979,2023,6,12,13,29,52,163
0.16680,2.78250,-4.63750,0.00000,-0.00842,0.01635,-0.98808,2023,6,12,13,29,52,174
0.16690,2.99250,-4.55000,0.00000,-0.00830,0.01610,-0.98844,2023,6,12,13,29,52,186
0.16700,2.83500,-4.74250,0.00000,-0.00793,0.01696,-0.98808,2023,6,12,13,29,52,197
0.16710,2.87000,-4.69000,0.00000,-0.00781,0.01549,-0.98808,2023,6,12,13,29,52,208
0.16720,2.80000,-4.60250,0.00000,-0.01000,0.01830,-0.98735,2023,6,12,13,29,52,219
0.16730,2.92250,-4.48000,0.00000,-0.00708,0.01720,-0.98930,2023,6,12,13,29,52,230
0.16740,3.11500,-4.62000,0.00000,-0.00842,0.01708,-0.98783,2023,6,12,13,29,52,241
0.16750,3.02750,-4.70750,0.00000,-0.00634,0.01793,-0.98857,2023,6,12,13,29,52,252
0.16760,2.95750,-4.63750,0.00000,-0.00903,0.01867,-0.98649,2023,6,12,13,29,52,263
0.16770,2.95750,-4.67250,0.00000,-0.00830,0.01806,-0.98869,2023,6,12,13,29,52,274
0.16780,3.09750,-4.62000,0.00000,-0.00952,0.01598,-0.98930,2023,6,12,13,29,52,286
0.16790,2.95750,-4.53250,0.00000,-0.00610,0.01757,-0.99003,2023,6,12,13,29,52,297
0.16800,3.02750,-4.48000,0.00000,-0.01037,0.01940,-0.98735,2023,6,12,13,29,52,308
0.16810,2.87000,-4.72500,0.00000,-0.00988,0.01793,-0.98991,2023,6,12,13,29,52,319
0.16820,2.87000,-4.70750,0.00000,-0.00647,0.01842,-0.98832,2023,6,12,13,29,52,330
0.16830,3.01000,-4.74250,0.00000,-0.00903,0.01684,-0.98893,2023,6,12,13,29,52,341
0.16840,2.94000,-4.69000,0.00000,-0.00671,0.01671,-0.98905,2023,6,12,13,29,52,352
0.16850,2.87000,-4.44500,0.00000,-0.00854,0.01903,-0.98979,2023,6,12,13,29,52,363
0.16860,2.94000,-4.46250,0.00000,-0.00927,0.01586,-0.99113,2023,6,12,13,29,52,374
0.16870,2.94000,-4.62000,0.00000,-0.01074,0.01659,-0.99088,2023,6,12,13,29,52,386
0.16880,2.90500,-4.63750,0.00000,-0.00756,0.01501,-0.99101,2023,6,12,13,29,52,397
0.16890,3.08000,-4.76000,0.00000,-0.01000,0.01891,-0.98991,2023,6,12,13,29,52,408
0.16900,3.04500,-4.63750,0.00000,-0.00952,0.01940,-0.98832,2023,6,12,13,29,52,419
0.16910,2.88750,-4.58500,0.00000,-0.00939,0.01781,-0.98698,2023,6,12,13,29,52,430
0.16920,2.97500,-4.67250,0.00000,-0.00854,0.01806,-0.98905,2023,6,12,13,29,52,441
0.16930,3.04500,-4.69000,0.00000,-0.00769,0.01623,-0.98759,2023,6,12,13,29,52,452
0.16940,3.09750,-4.65500,0.00000,-0.00830,0.02001,-0.99235,2023,6,12,13,29,52,463
0.16950,3.01000,-4.76000,0.00000,-0.00756,0.01830,-0.99027,2023,6,12,13,29,52,474
0.16960,3.06250,-4.84750,0.00000,-0.00695,0.01598,-0.98625,2023,6,12,13,29,52,486
0.16970,2.92250,-4.81250,0.00000,-0.00939,0.01732,-0.98844,2023,6,12,13,29,52,497
0.16980,3.01000,-4.74250,0.00000,-0.00830,0.01684,-0.98966,2023,6,12,13,29,52,508
0.16990,2.97500,-4.48000,0.00000,-0.00781,0.01659,-0.98979,2023,6,12,13,29,52,519
0.17000,2.94000,-4.60250,0.00000,-0.00878,0.01732,-0.98747,2023,6,12,13,29,52,530
0.17010,2.99250,-4.56750,0.00000,-0.00756,0.01879,-0.98771,2023,6,12,13,29,52,541
0.17020,2.94000,-4.79500,0.00000,-0.00830,0.01635,-0.99015,2023,6,12,13,29,52,552
0.17030,2.83500,-4.72500,0.00000,-0.00720,0.01684,-0.99052,2023,6,12,13,29,52,563
0.17040,3.04500,-4.72500,0.00000,-0.00988,0.01671,-0.98820,2023,6,12,13,29,52,574
0.17050,2.66000,-4.53250,0.00000,-0.00708,0.01745,-0.98942,2023,6,12,13,29,52,586
0.17060,2.83500,-4.55000,0.00000,-0.00744,0.01769,-0.98881,2023,6,12,13,29,52,597
0.17070,2.99250,-4.84750,0.00000,-0.00903,0.01610,-0.98905,2023,6,12,13,29,52,608
0.17080,3.08000,-4.77750,0.00000,-0.00854,0.01720,-0.98979,2023,6,12,13,29,52,619
0.17090,2.95750,-4.63750,0.00000,-0.00854,0.01757,-0.98686,2023,6,12,13,29,52,630
0.17100,2.87000,-4.72500,0.00000,-0.01013,0.01757,-0.98942,2023,6,12,13,29,52,641
0.17110,3.11500,-4.53250,0.00000,-0.00964,0.01989,-0.98759,2023,6,12,13,29,52,652
0.17120,3.01000,-4.74250,0.00000,-0.00830,0.01671,-0.98796,2023,6,12,13,29,52,663
0.17130,2.83500,-4.60250,0.00000,-0.00842,0.01842,-0.98710,2023,6,12,13,29,52,674
0.17140,3.04500,-4.67250,0.00000,-0.00878,0.01708,-0.99162,2023,6,12,13,29,52,686
0.17150,2.94000,-4.70750,0.00000,-0.00708,0.01635,-0.98844,2023,6,12,13,29,52,697
0.17160,2.94000,-4.56750,0.00000,-0.00708,0.01452,-0.99064,2023,6,12,13,29,52,708
0.17170,3.01000,-4.56750,0.00000,-0.00817,0.01598,-0.98991,2023,6,12,13,29,52,719
0.17180,3.20250,-4.77750,0.00000,-0.00952,0.02062,-0.99210,2023,6,12,13,29,52,730
0.17190,2.87000,-4.32250,0.00000,-0.00830,0.01854,-0.98954,2023,6,12,13,29,52,741
0.17200,2.97500,-4.60250,0.00000,-0.00842,0.01842,-0.99113,2023,6,12,13,29,52,752
0.17210,2.85250,-4.72500,0.00000,-0.00549,0.01671,-0.99186,2023,6,12,13,29,52,763
0.17220,2.81750,-4.44500,0.00000,-0.00610,0.01598,-0.98979,2023,6,12,13,29,52,774
0.17230,2.74750,-4.49750,0.00000,-0.00830,0.01867,-0.98881,2023,6,12,13,29,52,786
0.17240,3.09750,-4.46250,0.00000,-0.00866,0.01684,-0.99027,2023,6,12,13,29,52,797
0.17250,3.06250,-4.97000,0.00000,-0.00756,0.01940,-0.98918,2023,6,12,13,29,52,808
0.17260,2.99250,-4.83000,0.00000,-0.00793,0.01537,-0.98881,2023,6,12,13,29,52,819
0.17270,3.02750,-4.69000,0.00000,-0.00903,0.01818,-0.99162,2023,6,12,13,29,52,830
0.17280,2.85250,-4.63750,0.00000,-0.00866,0.01903,-0.98930,2023,6,12,13,29,52,841
0.17290,2.94000,-4.69000,0.00000,-0.00878,0.01769,-0.99162,2023,6,12,13,29,52,852
0.17300,2.76500,-4.35750,0.00000,-0.00891,0.01854,-0.98759,2023,6,12,13,29,52,863
0.17310,2.87000,-4.72500,0.00000,-0.00842,0.01806,-0.99027,2023,6,12,13,29,52,874
0.17320,3.04500,-4.58500,0.00000,-0.00805,0.01635,-0.98954,2023,6,12,13,29,52,886
0.17330,2.87000,-4.72500,0.00000,-0.00683,0.01732,-0.98564,2023,6,12,13,29,52,897
0.17340,3.22000,-4.74250,0.00000,-0.00915,0.01684,-0.99040,2023,6,12,13,29,52,908
0.17350,2.76500,-4.69000,0.00000,-0.00854,0.01696,-0.98771,2023,6,12,13,29,52,919
0.17360,2.85250,-4.53250,0.00000,-0.00756,0.01513,-0.99125,2023,6,12,13,29,52,930
0.17370,2.78250,-4.55000,0.00000,-0.00939,0.01842,-0.99101,2023,6,12,13,29,52,941
0.17380,2.71250,-4.51500,0.00000,-0.00756,0.01586,-0.99174,2023,6,12,13,29,52,952
0.17390,3.09750,-4.72500,0.00000,-0.00842,0.01769,-0.99149,2023,6,12,13,29,52,963
0.17400,3.08000,-4.67250,0.00000,-0.00695,0.01562,-0.99125,2023,6,12,13,29,52,974
0.17410,2.90500,-4.56750,0.00000,-0.00805,0.01476,-0.98954,2023,6,12,13,29,52,986
0.17420,2.81750,-4.55000,0.00000,-0.00805,0.01684,-0.99137,2023,6,12,13,29,52,997
0.17430,2.85250,-4.44500,0.00000,-0.00842,0.01793,-0.98808,2023,6,12,13,29,53,8
0.17440,2.78250,-4.56750,0.00000,-0.01013,0.02013,-0.98930,2023,6,12,13,29,53,19
0.17450,2.97500,-4.69000,0.00000,-0.00793,0.01879,-0.99052,2023,6,12,13,29,53,30
0.17460,2.73000,-4.42750,0.00000,-0.00903,0.01793,-0.98832,2023,6,12,13,29,53,41
0.17470,2.97500,-4.34000,0.00000,-0.00793,0.01830,-0.98918,2023,6,12,13,29,53,52
0.17480,2.90500,-4.56750,0.00000,-0.01025,0.01623,-0.99137,2023,6,12,13,29,53,63
0.17490,2.87000,-4.55000,0.00000,-0.00708,0.01781,-0.99174,2023,6,12,13,29,53,74
0.17500,3.04500,-4.67250,0.00000,-0.00964,0.01781,-0.98771,2023,6,12,13,29,53,86
0.17510,2.99250,-4.70750,0.00000,-0.00891,0.01769,-0.99076,2023,6,12,13,29,53,97
0.17520,3.01000,-4.62000,0.00000,-0.00732,0.01818,-0.99125,2023,6,12,13,29,53,108
0.17530,2.94000,-4.65500,0.00000,-0.00903,0.01781,-0.98674,2023,6,12,13,29,53,119
0.17540,3.09750,-4.62000,0.00000,-0.00622,0.01769,-0.98942,2023,6,12,13,29,53,130
0.17550,2.97500,-4.49750,0.00000,-0.00793,0.01842,-0.98979,2023,6,12,13,29,53,141
0.17560,3.02750,-4.67250,0.00000,-0.00854,0.01562,-0.98796,2023,6,12,13,29,53,152
0.17570,2.97500,-4.69000,0.00000,-0.00659,0.01732,-0.99125,2023,6,12,13,29,53,163
0.17580,2.97500,-4.56750,0.00000,-0.00744,0.01757,-0.99040,2023,6,12,13,29,53,174
0.17590,2.95750,-4.67250,0.00000,-0.01000,0.01769,-0.98539,2023,6,12,13,29,53,186
0.17600,2.99250,-4.49750,0.00000,-0.00830,0.01781,-0.98844,2023,6,12,13,29,53,197
0.17610,2.85250,-4.63750,0.00000,-0.00939,0.01781,-0.98820,2023,6,12,13,29,53,208
0.17620,2.99250,-4.69000,0.00000,-0.00634,0.01671,-0.99101,2023,6,12,13,29,53,219
0.17630,2.92250,-4.56750,0.00000,-0.00817,0.01903,-0.98893,2023,6,12,13,29,53,230
0.17640,2.90500,-4.70750,0.00000,-0.00964,0.01684,-0.98747,2023,6,12,13,29,53,241
0.17650,2.95750,-4.56750,0.00000,-0.00976,0.01610,-0.98954,2023,6,12,13,29,53,252
0.17660,2.94000,-4.67250,0.00000,-0.00939,0.01623,-0.99113,2023,6,12,13,29,53,263
0.17670,2.97500,-4.60250,0.00000,-0.00854,0.01708,-0.99027,2023,6,12,13,29,53,274
0.17680,3.08000,-4.84750,0.00000,-0.00915,0.01867,-0.98832,2023,6,12,13,29,53,286
0.17690,3.02750,-4.55000,0.00000,-0.00830,0.01684,-0.98991,2023,6,12,13,29,53,297
0.17700,2.85250,-4.76000,0.00000,-0.00720,0.01562,-0.99125,2023,6,12,13,29,53,308
0.17710,2.95750,-4.58500,0.00000,-0.00671,0.01806,-0.98905,2023,6,12,13,29,53,319
0.17720,3.08000,-4.70750,0.00000,-0.00720,0.01671,-0.99149,2023,6,12,13,29,53,330
0.17730,2.97500,-4.55000,0.00000,-0.00671,0.01745,-0.98893,2023,6,12,13,29,53,341
0.17740,2.83500,-4.55000,0.00000,-0.00695,0.01549,-0.98735,2023,6,12,13,29,53,352
0.17750,2.94000,-4.90000,0.00000,-0.00817,0.01647,-0.99015,2023,6,12,13,29,53,363
0.17760,2.87000,-4.62000,0.00000,-0.00842,0.01684,-0.98783,2023,6,12,13,29,53,374
0.17770,3.02750,-4.67250,0.00000,-0.00671,0.01879,-0.98698,2023,6,12,13,29,53,386
0.17780,3.08000,-4.70750,0.00000,-0.00720,0.01586,-0.98771,2023,6,12,13,29,53,397
0.17790,2.97500,-4.56750,0.00000,-0.00854,0.01671,-0.98808,2023,6,12,13,29,53,408
0.17800,2.95750,-4.65500,0.00000,-0.00903,0.01537,-0.98844,2023,6,12,13,29,53,419
0.17810,2.87000,-4.69000,0.00000,-0.00842,0.01671,-0.99064,2023,6,12,13,29,53,430
0.17820,2.78250,-4.41000,0.00000,-0.00915,0.01781,-0.98966,2023,6,12,13,29,53,441
0.17830,3.01000,-4.70750,0.00000,-0.00866,0.01574,-0.98759,2023,6,12,13,29,53,452
0.17840,3.04500,-4.51500,0.00000,-0.00793,0.01659,-0.98735,2023,6,12,13,29,53,463
0.17850,2.92250,-4.58500,0.00000,-0.00939,0.01501,-0.99015,2023,6,12,13,29,53,474
0.17860,2.88750,-4.23500,0.00000,-0.01000,0.01720,-0.98966,2023,6,12,13,29,53,486
0.17870,2.88750,-4.77750,0.00000,-0.00756,0.01842,-0.98820,2023,6,12,13,29,53,497
0.17880,2.90500,-4.72500,0.00000,-0.01049,0.01671,-0.98832,2023,6,12,13,29,53,508
0.17890,3.06250,-4.46250,0.00000,-0.00586,0.01452,-0.98796,2023,6,12,13,29,53,519
0.17900,2.90500,-4.60250,0.00000,-0.00903,0.01623,-0.98844,2023,6,12,13,29,53,530
0.17910,2.97500,-4.83000,0.00000,-0.01049,0.01769,-0.98808,2023,6,12,13,29,53,541
0.17920,3.01000,-4.67250,0.00000,-0.00744,0.01745,-0.98661,2023,6,12,13,29,53,552
0.17930,2.94000,-4.58500,0.00000,-0.00891,0.01745,-0.98942,2023,6,12,13,29,53,563
0.17940,2.97500,-4.65500,0.00000,-0.00830,0.01781,-0.98954,2023,6,12,13,29,53,574
0.17950,2.88750,-4.55000,0.00000,-0.00915,0.01549,-0.98735,2023,6,12,13,29,53,586
0.17960,2.99250,-4.44500,0.00000,-0.00769,0.01598,-0.98686,2023,6,12,13,29,53,597
0.17970,3.01000,-4.72500,0.00000,-0.00805,0.01867,-0.99015,2023,6,12,13,29,53,608
0.17980,3.06250,-4.60250,0.00000,-0.00891,0.02074,-0.98832,2023,6,12,13,29,53,619
0.17990,3.16750,-4.58500,0.00000,-0.00988,0.01684,-0.98966,2023,6,12,13,29,53,630
0.18000,2.99250,-4.67250,0.00000,-0.00830,0.01635,-0.98844,2023,6,12,13,29,53,641
0.18010,2.81750,-4.56750,0.00000,-0.00659,0.01732,-0.98930,2023,6,12,13,29,53,652
0.18020,3.02750,-4.70750,0.00000,-0.00732,0.01769,-0.98869,2023,6,12,13,29,53,663
0.18030,3.06250,-4.70750,0.00000,-0.00683,0.01732,-0.98966,2023,6,12,13,29,53,674
0.18040,3.15000,-4.74250,0.00000,-0.00720,0.01610,-0.99040,2023,6,12,13,29,53,686
0.18050,2.85250,-4.62000,0.00000,-0.00891,0.01769,-0.98649,2023,6,12,13,29,53,697
0.18060,2.99250,-4.65500,0.00000,-0.00744,0.01525,-0.98686,2023,6,12,13,29,53,708
0.18070,2.99250,-4.60250,0.00000,-0.00988,0.01915,-0.98918,2023,6,12,13,29,53,719
0.18080,3.02750,-4.70750,0.00000,-0.00891,0.01720,-0.99003,2023,6,12,13,29,53,730
0.18090,2.78250,-4.77750,0.00000,-0.00756,0.01696,-0.99040,2023,6,12,13,29,53,741
0.18100,2.94000,-4.58500,0.00000,-0.00842,0.01781,-0.98844,2023,6,12,13,29,53,752
0.18110,3.01000,-4.53250,0.00000,-0.00647,0.01684,-0.98564,2023,6,12,13,29,53,763
0.18120,2.87000,-4.62000,0.00000,-0.00903,0.01635,-0.98735,2023,6,12,13,29,53,774
0.18130,2.80000,-4.70750,0.00000,-0.00842,0.01793,-0.99076,2023,6,12,13,29,53,786
0.18140,2.94000,-4.35750,0.00000,-0.00878,0.01781,-0.98796,2023,6,12,13,29,53,797
0.18150,2.94000,-4.62000,0.00000,-0.00817,0.01671,-0.98808,2023,6,12,13,29,53,808
0.18160,2.97500,-4.65500,0.00000,-0.00708,0.01769,-0.98417,2023,6,12,13,29,53,819
0.18170,2.95750,-4.79500,0.00000,-0.00854,0.01793,-0.98857,2023,6,12,13,29,53,830
0.18180,2.94000,-4.65500,0.00000,-0.00756,0.01976,-0.98966,2023,6,12,13,29,53,841
0.18190,2.78250,-4.67250,0.00000,-0.00720,0.01464,-0.99040,2023,6,12,13,29,53,852
0.18200,2.87000,-4.56750,0.00000,-0.00952,0.01635,-0.98857,2023,6,12,13,29,53,863
0.18210,2.94000,-4.63750,0.00000,-0.00756,0.01659,-0.98588,2023,6,12,13,29,53,874
0.18220,3.06250,-4.53250,0.00000,-0.00805,0.01562,-0.99003,2023,6,12,13,29,53,886
0.18230,3.04500,-4.60250,0.00000,-0.00573,0.01659,-0.98600,2023,6,12,13,29,53,897
0.18240,2.83500,-4.72500,0.00000,-0.01013,0.01671,-0.98661,2023,6,12,13,29,53,908
0.18250,2.95750,-4.79500,0.00000,-0.00842,0.01745,-0.98857,2023,6,12,13,29,53,919
0.18260,3.13250,-4.60250,0.00000,-0.00866,0.01525,-0.98905,2023,6,12,13,29,53,930
0.18270,3.01000,-4.62000,0.00000,-0.00732,0.01854,-0.98588,2023,6,12,13,29,53,941
0.18280,3.04500,-4.84750,0.00000,-0.00854,0.01647,-0.98771,2023,6,12,13,29,53,952
0.18290,2.95750,-4.48000,0.00000,-0.00793,0.01720,-0.98905,2023,6,12,13,29,53,963
0.18300,2.78250,-4.56750,0.00000,-0.00939,0.01708,-0.98698,2023,6,12,13,29,53,974
0.18310,3.08000,-4.63750,0.00000,-0.00817,0.01696,-0.98954,2023,6,12,13,29,54,6
0.18320,2.88750,-4.53250,0.00000,-0.00793,0.01623,-0.98869,2023,6,12,13,29,54,17
0.18330,2.92250,-4.70750,0.00000,-0.00952,0.01659,-0.98869,2023,6,12,13,29,54,28
0.18340,2.99250,-4.77750,0.00000,-0.00695,0.01623,-0.99198,2023,6,12,13,29,54,39
0.18350,2.85250,-4.83000,0.00000,-0.00927,0.01671,-0.98820,2023,6,12,13,29,54,50
0.18360,2.95750,-4.53250,0.00000,-0.00744,0.01781,-0.98710,2023,6,12,13,29,54,61
0.18370,2.80000,-4.49750,0.00000,-0.01013,0.01647,-0.98808,2023,6,12,13,29,54,72
0.18380,2.97500,-4.60250,0.00000,-0.00952,0.01598,-0.98698,2023,6,12,13,29,54,83
0.18390,2.83500,-4.74250,0.00000,-0.00915,0.01769,-0.98588,2023,6,12,13,29,54,94
0.18400,3.02750,-4.55000,0.00000,-0.00683,0.01696,-0.98857,2023,6,12,13,29,54,106
0.18410,3.04500,-4.60250,0.00000,-0.00573,0.01830,-0.98417,2023,6,12,13,29,54,117
0.18420,3.06250,-4.60250,0.00000,-0.00976,0.01757,-0.98588,2023,6,12,13,29,54,128
0.18430,3.04500,-4.60250,0.00000,-0.00732,0.01684,-0.98844,2023,6,12,13,29,54,139
0.18440,3.04500,-4.63750,0.00000,-0.01000,0.01537,-0.99003,2023,6,12,13,29,54,150
0.18450,2.67750,-4.56750,0.00000,-0.00866,0.01610,-0.98844,2023,6,12,13,29,54,161
0.18460,2.92250,-4.51500,0.00000,-0.01037,0.01818,-0.98796,2023,6,12,13,29,54,172
0.18470,2.97500,-4.56750,0.00000,-0.00964,0.01818,-0.98869,2023,6,12,13,29,54,183
0.18480,2.97500,-4.79500,0.00000,-0.00878,0.01647,-0.99027,2023,6,12,13,29,54,194
0.18490,2.94000,-4.55000,0.00000,-0.00915,0.01513,-0.98893,2023,6,12,13,29,54,206
0.18500,2.90500,-4.60250,0.00000,-0.00939,0.01671,-0.98820,2023,6,12,13,29,54,217
0.18510,2.81750,-4.74250,0.00000,-0.00866,0.01769,-0.98820,2023,6,12,13,29,54,228
0.18520,2.92250,-4.72500,0.00000,-0.00866,0.01537,-0.98759,2023,6,12,13,29,54,239
0.18530,2.85250,-4.34000,0.00000,-0.00720,0.01732,-0.98881,2023,6,12,13,29,54,250
0.18540,2.94000,-4.58500,0.00000,-0.00988,0.01781,-0.98686,2023,6,12,13,29,54,261
0.18550,3.08000,-4.49750,0.00000,-0.00781,0.01671,-0.98661,2023,6,12,13,29,54,272
0.18560,2.87000,-4.67250,0.00000,-0.00659,0.01915,-0.98686,2023,6,12,13,29,54,283
0.18570,3.09750,-4.79500,0.00000,-0.00927,0.01635,-0.98942,2023,6,12,13,29,54,294
0.18580,2.95750,-4.72500,0.00000,-0.00964,0.01720,-0.98991,2023,6,12,13,29,54,306
0.18590,2.92250,-4.53250,0.00000,-0.00805,0.01574,-0.98954,2023,6,12,13,29,54,317
0.18600,3.02750,-4.46250,0.00000,-0.00744,0.01806,-0.98649,2023,6,12,13,29,54,328
0.18610,2.78250,-4.44500,0.00000,-0.00939,0.01732,-0.98796,2023,6,12,13,29,54,339
0.18620,3.01000,-4.65500,0.00000,-0.00854,0.01574,-0.98979,2023,6,12,13,29,54,350
0.18630,2.90500,-4.51500,0.00000,-0.00842,0.01891,-0.99076,2023,6,12,13,29,54,361
0.18640,2.92250,-4.62000,0.00000,-0.00756,0.01830,-0.98808,2023,6,12,13,29,54,372
0.18650,2.92250,-4.56750,0.00000,-0.00842,0.01635,-0.98857,2023,6,12,13,29,54,383
0.18660,2.87000,-4.48000,0.00000,-0.01000,0.01598,-0.99247,2023,6,12,13,29,54,394
0.18670,2.83500,-4.74250,0.00000,-0.00842,0.01586,-0.98942,2023,6,12,13,29,54,406
0.18680,3.09750,-4.67250,0.00000,-0.00976,0.01830,-0.98808,2023,6,12,13,29,54,417
0.18690,3.04500,-4.65500,0.00000,-0.00903,0.01549,-0.98844,2023,6,12,13,29,54,428
0.18700,2.94000,-4.72500,0.00000,-0.00805,0.01610,-0.98771,2023,6,12,13,29,54,439
0.18710,2.85250,-4.72500,0.00000,-0.00903,0.01903,-0.98722,2023,6,12,13,29,54,450
0.18720,2.94000,-4.77750,0.00000,-0.00805,0.01586,-0.98844,2023,6,12,13,29,54,461
0.18730,2.99250,-4.63750,0.00000,-0.00939,0.01708,-0.98930,2023,6,12,13,29,54,472
0.18740,2.90500,-4.76000,0.00000,-0.00671,0.01574,-0.98710,2023,6,12,13,29,54,483
0.18750,2.94000,-4.69000,0.00000,-0.00744,0.01574,-0.98881,2023,6,12,13,29,54,494
0.18760,2.76500,-4.63750,0.00000,-0.01037,0.01745,-0.98820,2023,6,12,13,29,54,506
0.18770,3.02750,-4.86500,0.00000,-0.00793,0.01635,-0.98954,2023,6,12,13,29,54,517
0.18780,2.94000,-4.72500,0.00000,-0.00903,0.01830,-0.98808,2023,6,12,13,29,54,528
0.18790,2.94000,-4.49750,0.00000,-0.00939,0.01647,-0.98783,2023,6,12,13,29,54,539
0.18800,2.92250,-4.81250,0.00000,-0.00744,0.01830,-0.98783,2023,6,12,13,29,54,550
0.18810,3.01000,-4.56750,0.00000,-0.00720,0.01696,-0.98808,2023,6,12,13,29,54,561
0.18820,2.76500,-4.48000,0.00000,-0.00744,0.01708,-0.98381,2023,6,12,13,29,54,572
0.18830,2.88750,-4.60250,0.00000,-0.00622,0.01598,-0.98857,2023,6,12,13,29,54,583
0.18840,2.97500,-4.67250,0.00000,-0.00817,0.01793,-0.98954,2023,6,12,13,29,54,594
0.18850,2.97500,-4.65500,0.00000,-0.00854,0.01830,-0.98649,2023,6,12,13,29,54,606
0.18860,2.90500,-4.67250,0.00000,-0.00793,0.01549,-0.98722,2023,6,12,13,29,54,617
0.18870,3.01000,-4.69000,0.00000,-0.00927,0.01891,-0.98808,2023,6,12,13,29,54,628
0.18880,2.99250,-4.60250,0.00000,-0.00830,0.01684,-0.98478,2023,6,12,13,29,54,639
0.18890,3.09750,-4.76000,0.00000,-0.00793,0.01708,-0.98820,2023,6,12,13,29,54,650
0.18900,2.76500,-4.39250,0.00000,-0.00671,0.01830,-0.98674,2023,6,12,13,29,54,661
0.18910,2.87000,-4.69000,0.00000,-0.00878,0.01537,-0.98930,2023,6,12,13,29,54,672
0.18920,3.06250,-4.69000,0.00000,-0.00866,0.01598,-0.98869,2023,6,12,13,29,54,683
0.18930,2.85250,-4.58500,0.00000,-0.00769,0.01769,-0.98735,2023,6,12,13,29,54,694
0.18940,2.87000,-4.63750,0.00000,-0.00805,0.01671,-0.98698,2023,6,12,13,29,54,706
0.18950,2.87000,-4.79500,0.00000,-0.00781,0.01818,-0.98905,2023,6,12,13,29,54,717
0.18960,3.01000,-4.46250,0.00000,-0.01074,0.01818,-0.98759,2023,6,12,13,29,54,728
0.18970,3.08000,-4.60250,0.00000,-0.00817,0.01549,-0.98905,2023,6,12,13,29,54,739
0.18980,3.04500,-4.60250,0.00000,-0.00817,0.01574,-0.98661,2023,6,12,13,29,54,750
0.18990,2.85250,-4.70750,0.00000,-0.00744,0.01635,-0.98905,2023,6,12,13,29,54,761
0.19000,2.95750,-4.34000,0.00000,-0.00793,0.01757,-0.99027,2023,6,12,13,29,54,772
0.19010,2.92250,-4.42750,0.00000,-0.00769,0.01488,-0.98893,2023,6,12,13,29,54,783
0.19020,2.90500,-4.58500,0.00000,-0.00720,0.01598,-0.98613,2023,6,12,13,29,54,794
0.19030,2.94000,-4.67250,0.00000,-0.00793,0.01793,-0.98625,2023,6,12,13,29,54,806
0.19040,2.92250,-4.60250,0.00000,-0.00927,0.01842,-0.98979,2023,6,12,13,29,54,817
0.19050,2.92250,-4.56750,0.00000,-0.00903,0.01854,-0.98527,2023,6,12,13,29,54,828
0.19060,2.90500,-4.65500,0.00000,-0.00744,0.01769,-0.98893,2023,6,12,13,29,54,839
0.19070,2.99250,-4.69000,0.00000,-0.00805,0.01842,-0.98771,2023,6,12,13,29,54,850
0.19080,3.09750,-4.70750,0.00000,-0.00927,0.01854,-0.98747,2023,6,12,13,29,54,861
0.19090,2.87000,-4.41000,0.00000,-0.00830,0.01562,-0.98796,2023,6,12,13,29,54,872
0.19100,2.88750,-4.55000,0.00000,-0.00781,0.01867,-0.98576,2023,6,12,13,29,54,883
0.19110,2.95750,-4.53250,0.00000,-0.00769,0.01842,-0.98857,2023,6,12,13,29,54,894
0.19120,3.01000,-4.63750,0.00000,-0.00793,0.01635,-0.98979,2023,6,12,13,29,54,906
0.19130,2.94000,-4.46250,0.00000,-0.00732,0.01671,-0.98991,2023,6,12,13,29,54,917
0.19140,3.01000,-4.60250,0.00000,-0.01086,0.01501,-0.98832,2023,6,12,13,29,54,928
0.19150,2.99250,-4.84750,0.00000,-0.00866,0.01574,-0.98966,2023,6,12,13,29,54,939
0.19160,3.04500,-4.60250,0.00000,-0.00781,0.01757,-0.98820,2023,6,12,13,29,54,950
0.19170,2.97500,-4.79500,0.00000,-0.00769,0.01915,-0.99027,2023,6,12,13,29,54,961
0.19180,2.90500,-4.44500,0.00000,-0.00854,0.01696,-0.98808,2023,6,12,13,29,55,2
0.19190,2.74750,-4.49750,0.00000,-0.00634,0.01732,-0.98637,2023,6,12,13,29,55,13
0.19200,2.81750,-4.65500,0.00000,-0.00695,0.01806,-0.98771,2023,6,12,13,29,55,24
0.19210,2.90500,-4.69000,0.00000,-0.00866,0.01830,-0.98991,2023,6,12,13,29,55,36
0.19220,2.85250,-4.49750,0.00000,-0.00781,0.01854,-0.98735,2023,6,12,13,29,55,47
0.19230,3.08000,-4.53250,0.00000,-0.00805,0.01928,-0.98905,2023,6,12,13,29,55,58
0.19240,3.06250,-4.63750,0.00000,-0.00866,0.01793,-0.98942,2023,6,12,13,29,55,69
0.19250,3.16750,-4.55000,0.00000,-0.00952,0.01891,-0.98783,2023,6,12,13,29,55,80
0.19260,3.06250,-4.67250,0.00000,-0.00756,0.01781,-0.98722,2023,6,12,13,29,55,91
0.19270,2.81750,-4.42750,0.00000,-0.00976,0.01659,-0.98649,2023,6,12,13,29,55,102
0.19280,2.69500,-4.48000,0.00000,-0.00610,0.01818,-0.98991,2023,6,12,13,29,55,113
0.19290,2.69500,-4.62000,0.00000,-0.00512,0.01940,-0.98722,2023,6,12,13,29,55,124
0.19300,2.85250,-4.32250,0.00000,-0.00952,0.01598,-0.98698,2023,6,12,13,29,55,136
0.19310,3.02750,-4.56750,0.00000,-0.00769,0.01806,-0.98698,2023,6,12,13,29,55,147
0.19320,3.13250,-4.56750,0.00000,-0.00744,0.01879,-0.98588,2023,6,12,13,29,55,158
0.19330,2.90500,-4.65500,0.00000,-0.00793,0.01806,-0.98515,2023,6,12,13,29,55,169
0.19340,3.11500,-4.81250,0.00000,-0.00830,0.01610,-0.98637,2023,6,12,13,29,55,180
0.19350,2.92250,-4.51500,0.00000,-0.00781,0.01769,-0.98759,2023,6,12,13,29,55,191
0.19360,2.94000,-4.55000,0.00000,-0.00842,0.01488,-0.98832,2023,6,12,13,29,55,202
0.19370,2.94000,-4.67250,0.00000,-0.00756,0.01549,-0.98710,2023,6,12,13,29,55,213
0.19380,2.87000,-4.53250,0.00000,-0.00720,0.01708,-0.98539,2023,6,12,13,29,55,224
0.19390,2.95750,-4.63750,0.00000,-0.00561,0.01720,-0.98905,2023,6,12,13,29,55,236
0.19400,2.90500,-4.51500,0.00000,-0.00695,0.01745,-0.98820,2023,6,12,13,29,55,247
0.19410,2.95750,-4.63750,0.00000,-0.00781,0.01854,-0.98783,2023,6,12,13,29,55,258
0.19420,2.83500,-4.65500,0.00000,-0.00964,0.01659,-0.98710,2023,6,12,13,29,55,269
0.19430,2.92250,-4.49750,0.00000,-0.00732,0.01684,-0.98832,2023,6,12,13,29,55,280
0.19440,2.85250,-4.56750,0.00000,-0.00915,0.01842,-0.98869,2023,6,12,13,29,55,291
0.19450,3.09750,-4.69000,0.00000,-0.00830,0.01781,-0.98869,2023,6,12,13,29,55,302
0.19460,2.99250,-4.72500,0.00000,-0.00708,0.01854,-0.99027,2023,6,12,13,29,55,313
0.19470,3.02750,-4.62000,0.00000,-0.01013,0.01867,-0.98893,2023,6,12,13,29,55,324
0.19480,3.08000,-4.55000,0.00000,-0.00915,0.01708,-0.99162,2023,6,12,13,29,55,336
0.19490,2.83500,-4.79500,0.00000,-0.00793,0.01647,-0.98820,2023,6,12,13,29,55,347
0.19500,3.01000,-4.56750,0.00000,-0.01049,0.01598,-0.98979,2023,6,12,13,29,55,358
0.19510,2.99250,-4.34000,0.00000,-0.00756,0.01952,-0.98796,2023,6,12,13,29,55,369
0.19520,2.95750,-4.65500,0.00000,-0.00756,0.01708,-0.98905,2023,6,12,13,29,55,380
0.19530,3.16750,-4.53250,0.00000,-0.00634,0.01501,-0.98783,2023,6,12,13,29,55,391
0.19540,2.97500,-4.62000,0.00000,-0.00854,0.01806,-0.98869,2023,6,12,13,29,55,402
0.19550,2.92250,-4.41000,0.00000,-0.00781,0.01757,-0.99052,2023,6,12,13,29,55,413
0.19560,2.95750,-4.72500,0.00000,-0.00903,0.01781,-0.98661,2023,6,12,13,29,55,424
0.19570,2.94000,-4.55000,0.00000,-0.00866,0.01647,-0.99003,2023,6,12,13,29,55,436
0.19580,3.02750,-4.83000,0.00000,-0.00756,0.01757,-0.98735,2023,6,12,13,29,55,447
0.19590,2.95750,-4.46250,0.00000,-0.00830,0.01915,-0.98930,2023,6,12,13,29,55,458
0.19600,3.06250,-4.70750,0.00000,-0.00744,0.01671,-0.98857,2023,6,12,13,29,55,469
0.19610,2.92250,-4.65500,0.00000,-0.00988,0.01830,-0.98808,2023,6,12,13,29,55,480
0.19620,2.87000,-4.41000,0.00000,-0.00744,0.01757,-0.98905,2023,6,12,13,29,55,491
0.19630,2.95750,-4.63750,0.00000,-0.00781,0.01928,-0.98930,2023,6,12,13,29,55,502
0.19640,3.02750,-4.51500,0.00000,-0.00830,0.01684,-0.98832,2023,6,12,13,29,55,513
0.19650,2.97500,-4.46250,0.00000,-0.00854,0.01903,-0.98844,2023,6,12,13,29,55,524
0.19660,2.90500,-4.35750,0.00000,-0.00866,0.01732,-0.99345,2023,6,12,13,29,55,536
0.19670,3.11500,-4.74250,0.00000,-0.00854,0.01793,-0.98796,2023,6,12,13,29,55,547
0.19680,2.97500,-4.62000,0.00000,-0.00976,0.01647,-0.98771,2023,6,12,13,29,55,558
0.19690,2.95750,-4.58500,0.00000,-0.00720,0.01647,-0.98686,2023,6,12,13,29,55,569
0.19700,2.94000,-4.69000,0.00000,-0.00878,0.01745,-0.98844,2023,6,12,13,29,55,580
0.19710,2.87000,-4.69000,0.00000,-0.00756,0.01562,-0.98808,2023,6,12,13,29,55,591
0.19720,3.01000,-4.32250,0.00000,-0.00854,0.01842,-0.98857,2023,6,12,13,29,55,602
0.19730,3.11500,-4.65500,0.00000,-0.00854,0.01732,-0.98625,2023,6,12,13,29,55,613
0.19740,2.90500,-4.77750,0.00000,-0.01086,0.01806,-0.98613,2023,6,12,13,29,55,624
0.19750,3.01000,-4.65500,0.00000,-0.00781,0.01769,-0.98735,2023,6,12,13,29,55,636
0.19760,2.94000,-4.60250,0.00000,-0.00866,0.01720,-0.98771,2023,6,12,13,29,55,647
0.19770,2.97500,-4.44500,0.00000,-0.00976,0.01598,-0.98820,2023,6,12,13,29,55,658
0.19780,2.83500,-4.53250,0.00000,-0.01013,0.01842,-0.99052,2023,6,12,13,29,55,669
0.19790,3.02750,-4.58500,0.00000,-0.00744,0.01684,-0.98783,2023,6,12,13,29,55,680
0.19800,2.83500,-4.62000,0.00000,-0.00891,0.01671,-0.98918,2023,6,12,13,29,55,691
0.19810,2.81750,-4.55000,0.00000,-0.00720,0.01623,-0.98674,2023,6,12,13,29,55,702
0.19820,3.09750,-4.79500,0.00000,-0.00744,0.01769,-0.99003,2023,6,12,13,29,55,713
0.19830,2.92250,-4.65500,0.00000,-0.00903,0.01623,-0.98783,2023,6,12,13,29,55,724
0.19840,2.94000,-4.58500,0.00000,-0.00915,0.01781,-0.99125,2023,6,12,13,29,55,736
0.19850,2.87000,-4.67250,0.00000,-0.00756,0.01732,-0.99040,2023,6,12,13,29,55,747
0.19860,3.06250,-4.67250,0.00000,-0.00915,0.01720,-0.98771,2023,6,12,13,29,55,758
0.19870,2.92250,-4.76000,0.00000,-0.00805,0.01708,-0.99015,2023,6,12,13,29,55,769
0.19880,3.18500,-4.63750,0.00000,-0.00769,0.01659,-0.98600,2023,6,12,13,29,55,780
0.19890,2.90500,-4.63750,0.00000,-0.00927,0.01647,-0.98564,2023,6,12,13,29,55,791
0.19900,3.02750,-4.55000,0.00000,-0.00720,0.01769,-0.98637,2023,6,12,13,29,55,802
0.19910,2.94000,-4.51500,0.00000,-0.00805,0.01769,-0.98698,2023,6,12,13,29,55,813
0.19920,2.83500,-4.70750,0.00000,-0.00659,0.01684,-0.99125,2023,6,12,13,29,55,824
0.19930,2.92250,-4.42750,0.00000,-0.00671,0.01647,-0.98942,2023,6,12,13,29,55,836
0.19940,3.20250,-4.62000,0.00000,-0.00866,0.01745,-0.99101,2023,6,12,13,29,55,847
0.19950,3.04500,-4.72500,0.00000,-0.00817,0.01684,-0.99247,2023,6,12,13,29,55,858
0.19960,2.97500,-4.62000,0.00000,-0.00756,0.01696,-0.98527,2023,6,12,13,29,55,869
0.19970,3.06250,-4.69000,0.00000,-0.00793,0.01757,-0.98796,2023,6,12,13,29,55,880
0.19980,2.90500,-4.55000,0.00000,-0.00769,0.01720,-0.98966,2023,6,12,13,29,55,891
0.19990,2.88750,-4.69000,0.00000,-0.00610,0.01928,-0.98783,2023,6,12,13,29,55,902
0.20000,3.01000,-4.63750,0.00000,-0.00781,0.01464,-0.98735,2023,6,12,13,29,55,913
0.20010,2.90500,-4.49750,0.00000,-0.00793,0.01659,-0.98905,2023,6,12,13,29,55,924
0.20020,2.97500,-4.48000,0.00000,-0.00805,0.01537,-0.99015,2023,6,12,13,29,55,936
0.20030,3.02750,-4.67250,0.00000,-0.00695,0.01732,-0.98918,2023,6,12,13,29,55,947
0.20040,2.85250,-4.76000,0.00000,-0.00842,0.01720,-0.98710,2023,6,12,13,29,55,958
0.20050,2.90500,-4.65500,0.00000,-0.00854,0.01684,-0.98954,2023,6,12,13,29,56,9
0.20060,2.92250,-4.60250,0.00000,-0.00744,0.01830,-0.98930,2023,6,12,13,29,56,20
0.20070,3.06250,-4.35750,0.00000,-0.00659,0.01476,-0.99149,2023,6,12,13,29,56,31
0.20080,2.94000,-4.62000,0.00000,-0.00695,0.01549,-0.98661,2023,6,12,13,29,56,42
0.20090,2.99250,-4.58500,0.00000,-0.00793,0.01684,-0.98930,2023,6,12,13,29,56,53
0.20100,2.99250,-4.77750,0.00000,-0.00854,0.01757,-0.99015,2023,6,12,13,29,56,64
0.20110,2.78250,-4.55000,0.00000,-0.00683,0.01732,-0.98954,2023,6,12,13,29,56,76
0.20120,3.08000,-4.77750,0.00000,-0.00854,0.01806,-0.98832,2023,6,12,13,29,56,87
0.20130,2.85250,-4.65500,0.00000,-0.00830,0.01586,-0.98857,2023,6,12,13,29,56,98
0.20140,2.99250,-4.46250,0.00000,-0.01000,0.01562,-0.99137,2023,6,12,13,29,56,109
0.20150,2.94000,-4.62000,0.00000,-0.01037,0.01879,-0.98759,2023,6,12,13,29,56,120
0.20160,3.04500,-4.84750,0.00000,-0.01000,0.01659,-0.98796,2023,6,12,13,29,56,131
0.20170,2.81750,-4.49750,0.00000,-0.00927,0.01757,-0.98796,2023,6,12,13,29,56,142
0.20180,2.99250,-4.60250,0.00000,-0.00708,0.01903,-0.99027,2023,6,12,13,29,56,153
0.20190,3.01000,-4.76000,0.00000,-0.00769,0.01842,-0.99076,2023,6,12,13,29,56,164
0.20200,2.92250,-4.53250,0.00000,-0.00659,0.01501,-0.98930,2023,6,12,13,29,56,176
0.20210,2.78250,-4.49750,0.00000,-0.00756,0.01513,-0.99101,2023,6,12,13,29,56,187
0.20220,3.08000,-4.67250,0.00000,-0.00854,0.01842,-0.98722,2023,6,12,13,29,56,198
0.20230,2.99250,-4.58500,0.00000,-0.00842,0.01806,-0.98893,2023,6,12,13,29,56,209
0.20240,2.95750,-4.62000,0.00000,-0.00927,0.01769,-0.99015,2023,6,12,13,29,56,220
0.20250,3.01000,-4.84750,0.00000,-0.00842,0.01781,-0.98808,2023,6,12,13,29,56,231
0.20260,2.95750,-4.56750,0.00000,-0.00683,0.01842,-0.98771,2023,6,12,13,29,56,242
0.20270,3.02750,-4.62000,0.00000,-0.00903,0.01976,-0.98893,2023,6,12,13,29,56,253
0.20280,2.99250,-4.62000,0.00000,-0.00927,0.01452,-0.99064,2023,6,12,13,29,56,264
0.20290,2.97500,-4.60250,0.00000,-0.01086,0.01610,-0.99027,2023,6,12,13,29,56,276
0.20300,2.94000,-4.63750,0.00000,-0.01074,0.01708,-0.98686,2023,6,12,13,29,56,287
0.20310,2.92250,-4.34000,0.00000,-0.00744,0.01708,-0.98747,2023,6,12,13,29,56,298
0.20320,2.85250,-4.72500,0.00000,-0.00671,0.01635,-0.98832,2023,6,12,13,29,56,309
0.20330,2.81750,-4.35750,0.00000,-0.00866,0.01793,-0.98954,2023,6,12,13,29,56,320
0.20340,3.04500,-4.58500,0.00000,-0.00952,0.01623,-0.99174,2023,6,12,13,29,56,331
0.20350,3.08000,-4.51500,0.00000,-0.00805,0.01745,-0.98942,2023,6,12,13,29,56,342
0.20360,2.90500,-4.77750,0.00000,-0.01013,0.01879,-0.98649,2023,6,12,13,29,56,353
0.20370,3.13250,-4.58500,0.00000,-0.00769,0.01781,-0.98869,2023,6,12,13,29,56,364
0.20380,2.88750,-4.58500,0.00000,-0.00817,0.01806,-0.99003,2023,6,12,13,29,56,376
0.20390,2.87000,-4.42750,0.00000,-0.00634,0.01513,-0.98966,2023,6,12,13,29,56,387
0.20400,2.99250,-4.48000,0.00000,-0.00915,0.01623,-0.98820,2023,6,12,13,29,56,398
0.20410,3.11500,-4.83000,0.00000,-0.01025,0.01745,-0.99247,2023,6,12,13,29,56,409
0.20420,2.99250,-4.58500,0.00000,-0.00732,0.01708,-0.98552,2023,6,12,13,29,56,420
0.20430,3.02750,-4.74250,0.00000,-0.00781,0.01671,-0.98759,2023,6,12,13,29,56,431
0.20440,3.01000,-4.55000,0.00000,-0.00708,0.01793,-0.98808,2023,6,12,13,29,56,442
0.20450,2.85250,-4.60250,0.00000,-0.00793,0.01647,-0.98710,2023,6,12,13,29,56,453
0.20460,2.80000,-4.51500,0.00000,-0.00903,0.01598,-0.98844,2023,6,12,13,29,56,464
0.20470,2.99250,-4.48000,0.00000,-0.00793,0.01732,-0.98759,2023,6,12,13,29,56,476
0.20480,2.99250,-4.79500,0.00000,-0.00647,0.01635,-0.98930,2023,6,12,13,29,56,487
0.20490,3.13250,-4.63750,0.00000,-0.00878,0.01488,-0.98771,2023,6,12,13,29,56,498
0.20500,2.87000,-4.55000,0.00000,-0.00830,0.01635,-0.98869,2023,6,12,13,29,56,509
0.20510,2.97500,-4.56750,0.00000,-0.00854,0.01806,-0.98552,2023,6,12,13,29,56,520
0.20520,2.92250,-4.62000,0.00000,-0.00830,0.01879,-0.99003,2023,6,12,13,29,56,531
0.20530,2.87000,-4.55000,0.00000,-0.00647,0.01684,-0.98503,2023,6,12,13,29,56,542
0.20540,2.97500,-4.72500,0.00000,-0.00891,0.01684,-0.98661,2023,6,12,13,29,56,553
0.20550,3.01000,-4.69000,0.00000,-0.00830,0.01647,-0.98637,2023,6,12,13,29,56,564
0.20560,3.15000,-4.76000,0.00000,-0.00964,0.01696,-0.98905,2023,6,12,13,29,56,576
0.20570,3.04500,-4.56750,0.00000,-0.00659,0.01696,-0.98686,2023,6,12,13,29,56,587
0.20580,2.85250,-4.34000,0.00000,-0.00720,0.01635,-0.98979,2023,6,12,13,29,56,598
0.20590,2.85250,-4.65500,0.00000,-0.01061,0.01842,-0.98820,2023,6,12,13,29,56,609
0.20600,3.02750,-4.79500,0.00000,-0.00744,0.01598,-0.98491,2023,6,12,13,29,56,620
0.20610,2.95750,-4.67250,0.00000,-0.00708,0.01818,-0.98637,2023,6,12,13,29,56,631
0.20620,2.97500,-4.76000,0.00000,-0.00805,0.01562,-0.98820,2023,6,12,13,29,56,642
0.20630,3.02750,-4.37500,0.00000,-0.00817,0.01745,-0.98820,2023,6,12,13,29,56,653
0.20640,2.87000,-4.53250,0.00000,-0.00891,0.01806,-0.98600,2023,6,12,13,29,56,664
0.20650,2.85250,-4.60250,0.00000,-0.00781,0.01525,-0.98552,2023,6,12,13,29,56,676
0.20660,3.01000,-4.67250,0.00000,-0.00915,0.01806,-0.98661,2023,6,12,13,29,56,687
0.20670,2.97500,-4.74250,0.00000,-0.00817,0.01745,-0.98674,2023,6,12,13,29,56,698
0.20680,3.06250,-4.53250,0.00000,-0.00744,0.01659,-0.98905,2023,6,12,13,29,56,709
0.20690,2.88750,-4.83000,0.00000,-0.00903,0.01793,-0.98796,2023,6,12,13,29,56,720
0.20700,2.87000,-4.49750,0.00000,-0.00927,0.01769,-0.98710,2023,6,12,13,29,56,731
0.20710,2.83500,-4.74250,0.00000,-0.00952,0.01830,-0.98844,2023,6,12,13,29,56,742
0.20720,2.88750,-4.53250,0.00000,-0.00708,0.01757,-0.98588,2023,6,12,13,29,56,753
0.20730,2.90500,-4.44500,0.00000,-0.00671,0.01867,-0.98698,2023,6,12,13,29,56,764
0.20740,3.01000,-4.69000,0.00000,-0.00769,0.01684,-0.98905,2023,6,12,13,29,56,776
0.20750,3.01000,-4.72500,0.00000,-0.00939,0.01732,-0.98832,2023,6,12,13,29,56,787
0.20760,3.02750,-4.60250,0.00000,-0.00866,0.01647,-0.98820,2023,6,12,13,29,56,798
0.20770,3.04500,-4.76000,0.00000,-0.00927,0.01745,-0.98930,2023,6,12,13,29,56,809
0.20780,2.92250,-4.62000,0.00000,-0.00878,0.01745,-0.98832,2023,6,12,13,29,56,820
0.20790,3.08000,-4.67250,0.00000,-0.00866,0.01513,-0.99027,2023,6,12,13,29,56,831
0.20800,2.94000,-4.67250,0.00000,-0.00769,0.01696,-0.98698,2023,6,12,13,29,56,842
0.20810,2.92250,-4.49750,0.00000,-0.00683,0.01720,-0.98771,2023,6,12,13,29,56,853
0.20820,2.88750,-4.63750,0.00000,-0.00720,0.01732,-0.98783,2023,6,12,13,29,56,864
0.20830,2.95750,-4.32250,0.00000,-0.00878,0.01696,-0.98771,2023,6,12,13,29,56,876
0.20840,3.16750,-4.74250,0.00000,-0.00769,0.01586,-0.98905,2023,6,12,13,29,56,887
0.20850,3.09750,-4.83000,0.00000,-0.01049,0.01708,-0.98979,2023,6,12,13,29,56,898
0.20860,2.97500,-4.83000,0.00000,-0.00732,0.01549,-0.98783,2023,6,12,13,29,56,909
0.20870,3.09750,-4.70750,0.00000,-0.00708,0.01586,-0.99101,2023,6,12,13,29,56,920
0.20880,2.88750,-4.51500,0.00000,-0.00781,0.01623,-0.98832,2023,6,12,13,29,56,931
0.20890,2.78250,-4.53250,0.00000,-0.00927,0.01818,-0.98771,2023,6,12,13,29,56,942
0.20900,3.06250,-4.48000,0.00000,-0.00854,0.01696,-0.98857,2023,6,12,13,29,56,953
0.20910,3.01000,-4.79500,0.00000,-0.00915,0.01781,-0.98564,2023,6,12,13,29,56,964
0.20920,2.95750,-4.77750,0.00000,-0.00976,0.01781,-0.99137,2023,6,12,13,29,56,976
0.20930,2.97500,-4.60250,0.00000,-0.00952,0.01720,-0.98783,2023,6,12,13,29,57,7
0.20940,3.15000,-4.49750,0.00000,-0.00964,0.01671,-0.98905,2023,6,12,13,29,57,18
0.20950,2.85250,-4.69000,0.00000,-0.00781,0.01842,-0.98893,2023,6,12,13,29,57,29
0.20960,2.95750,-4.27000,0.00000,-0.00842,0.01842,-0.98796,2023,6,12,13,29,57,40
0.20970,2.90500,-4.53250,0.00000,-0.00732,0.01586,-0.98905,2023,6,12,13,29,57,51
0.20980,3.02750,-4.53250,0.00000,-0.00878,0.01781,-0.98735,2023,6,12,13,29,57,62
0.20990,2.94000,-4.60250,0.00000,-0.00854,0.01708,-0.98637,2023,6,12,13,29,57,73
0.21000,3.04500,-4.62000,0.00000,-0.00866,0.02001,-0.98710,2023,6,12,13,29,57,84
0.21010,3.06250,-4.65500,0.00000,-0.00732,0.01574,-0.98918,2023,6,12,13,29,57,96
0.21020,2.95750,-4.55000,0.00000,-0.00891,0.01647,-0.98918,2023,6,12,13,29,57,107
0.21030,2.87000,-4.69000,0.00000,-0.00854,0.01732,-0.98613,2023,6,12,13,29,57,118
0.21040,2.94000,-4.72500,0.00000,-0.00927,0.01781,-0.98783,2023,6,12,13,29,57,129
0.21050,2.95750,-4.67250,0.00000,-0.00854,0.01635,-0.99052,2023,6,12,13,29,57,140
0.21060,2.81750,-4.49750,0.00000,-0.00817,0.01818,-0.98661,2023,6,12,13,29,57,151
0.21070,2.87000,-4.60250,0.00000,-0.00805,0.01793,-0.98844,2023,6,12,13,29,57,162
0.21080,3.09750,-4.62000,0.00000,-0.00793,0.01720,-0.98686,2023,6,12,13,29,57,173
0.21090,3.16750,-4.81250,0.00000,-0.00903,0.01623,-0.99003,2023,6,12,13,29,57,184
0.21100,2.80000,-4.65500,0.00000,-0.01122,0.01708,-0.99088,2023,6,12,13,29,57,196
0.21110,2.92250,-4.65500,0.00000,-0.00805,0.01745,-0.98747,2023,6,12,13,29,57,207
0.21120,2.64250,-4.58500,0.00000,-0.00817,0.01769,-0.98893,2023,6,12,13,29,57,218
0.21130,3.01000,-4.62000,0.00000,-0.00842,0.01574,-0.98796,2023,6,12,13,29,57,229
0.21140,2.78250,-4.62000,0.00000,-0.00866,0.01745,-0.98930,2023,6,12,13,29,57,240
0.21150,3.09750,-4.83000,0.00000,-0.00720,0.01525,-0.98979,2023,6,12,13,29,57,251
0.21160,3.01000,-4.53250,0.00000,-0.00927,0.01647,-0.98930,2023,6,12,13,29,57,262
0.21170,3.13250,-4.70750,0.00000,-0.00866,0.01745,-0.98698,2023,6,12,13,29,57,273
0.21180,3.02750,-4.65500,0.00000,-0.00952,0.01879,-0.98930,2023,6,12,13,29,57,284
0.21190,2.85250,-4.46250,0.00000,-0.00866,0.01647,-0.98820,2023,6,12,13,29,57,296
0.21200,2.88750,-4.44500,0.00000,-0.00866,0.01854,-0.98735,2023,6,12,13,29,57,307
0.21210,2.87000,-4.63750,0.00000,-0.00830,0.01696,-0.98674,2023,6,12,13,29,57,318
0.21220,3.02750,-4.55000,0.00000,-0.00854,0.01781,-0.98893,2023,6,12,13,29,57,329
0.21230,3.11500,-4.76000,0.00000,-0.00817,0.01781,-0.98905,2023,6,12,13,29,57,340
0.21240,2.94000,-4.60250,0.00000,-0.00842,0.01781,-0.98722,2023,6,12,13,29,57,351
0.21250,2.95750,-4.51500,0.00000,-0.00903,0.01586,-0.98893,2023,6,12,13,29,57,362
0.21260,2.99250,-4.67250,0.00000,-0.00781,0.01659,-0.98979,2023,6,12,13,29,57,373
0.21270,3.02750,-4.67250,0.00000,-0.00854,0.01549,-0.98637,2023,6,12,13,29,57,384
0.21280,2.97500,-4.72500,0.00000,-0.00903,0.01635,-0.98893,2023,6,12,13,29,57,396
0.21290,3.01000,-4.69000,0.00000,-0.00891,0.01854,-0.98954,2023,6,12,13,29,57,407
0.21300,3.08000,-4.83000,0.00000,-0.00769,0.01928,-0.98991,2023,6,12,13,29,57,418
0.21310,2.81750,-4.53250,0.00000,-0.00964,0.01769,-0.98796,2023,6,12,13,29,57,429
0.21320,2.87000,-4.58500,0.00000,-0.00744,0.01623,-0.99076,2023,6,12,13,29,57,440
0.21330,2.85250,-4.63750,0.00000,-0.00878,0.01659,-0.98857,2023,6,12,13,29,57,451
0.21340,2.92250,-4.69000,0.00000,-0.00781,0.01586,-0.98686,2023,6,12,13,29,57,462
0.21350,3.06250,-4.51500,0.00000,-0.00903,0.01806,-0.99186,2023,6,12,13,29,57,473
0.21360,3.04500,-4.51500,0.00000,-0.00976,0.01806,-0.98954,2023,6,12,13,29,57,484
0.21370,2.83500,-4.37500,0.00000,-0.00769,0.01745,-0.98857,2023,6,12,13,29,57,496
0.21380,2.85250,-4.53250,0.00000,-0.00708,0.01501,-0.99003,2023,6,12,13,29,57,507
0.21390,3.15000,-4.72500,0.00000,-0.00964,0.01854,-0.98735,2023,6,12,13,29,57,518
0.21400,2.97500,-4.67250,0.00000,-0.00903,0.01745,-0.98808,2023,6,12,13,29,57,529
0.21410,2.81750,-4.41000,0.00000,-0.00744,0.01671,-0.98966,2023,6,12,13,29,57,540
0.21420,2.99250,-4.83000,0.00000,-0.00732,0.01610,-0.98930,2023,6,12,13,29,57,551
0.21430,2.69500,-4.62000,0.00000,-0.00952,0.01745,-0.99076,2023,6,12,13,29,57,562
0.21440,2.97500,-4.55000,0.00000,-0.00756,0.01513,-0.99271,2023,6,12,13,29,57,573
0.21450,3.15000,-4.65500,0.00000,-0.00817,0.01830,-0.99003,2023,6,12,13,29,57,584
0.21460,2.92250,-4.53250,0.00000,-0.00805,0.01647,-0.98735,2023,6,12,13,29,57,596
0.21470,2.97500,-4.58500,0.00000,-0.00793,0.01659,-0.98783,2023,6,12,13,29,57,607
0.21480,2.83500,-4.58500,0.00000,-0.00671,0.01671,-0.98991,2023,6,12,13,29,57,618
0.21490,3.01000,-4.63750,0.00000,-0.00732,0.01684,-0.98991,2023,6,12,13,29,57,629
0.21500,3.13250,-4.63750,0.00000,-0.00732,0.01928,-0.98783,2023,6,12,13,29,57,640
0.21510,2.90500,-4.34000,0.00000,-0.00659,0.01781,-0.98966,2023,6,12,13,29,57,651
0.21520,3.01000,-4.62000,0.00000,-0.00732,0.01964,-0.98759,2023,6,12,13,29,57,662
0.21530,2.81750,-4.60250,0.00000,-0.00817,0.01537,-0.98857,2023,6,12,13,29,57,673
0.21540,2.83500,-4.46250,0.00000,-0.00756,0.01671,-0.98844,2023,6,12,13,29,57,684
0.21550,2.78250,-4.70750,0.00000,-0.00805,0.01769,-0.98832,2023,6,12,13,29,57,696
0.21560,2.88750,-4.56750,0.00000,-0.00695,0.01440,-0.98942,2023,6,12,13,29,57,707
0.21570,2.78250,-4.62000,0.00000,-0.00903,0.01769,-0.98625,2023,6,12,13,29,57,718
0.21580,3.09750,-4.70750,0.00000,-0.00769,0.01903,-0.99015,2023,6,12,13,29,57,729
0.21590,2.95750,-4.74250,0.00000,-0.00610,0.01793,-0.98832,2023,6,12,13,29,57,740
0.21600,3.11500,-4.58500,0.00000,-0.00988,0.01769,-0.98844,2023,6,12,13,29,57,751
0.21610,2.88750,-4.70750,0.00000,-0.01147,0.01488,-0.98820,2023,6,12,13,29,57,762
0.21620,2.80000,-4.58500,0.00000,-0.00732,0.01757,-0.99052,2023,6,12,13,29,57,773
0.21630,2.78250,-4.44500,0.00000,-0.00769,0.01659,-0.98710,2023,6,12,13,29,57,784
0.21640,2.95750,-4.60250,0.00000,-0.00708,0.01781,-0.98857,2023,6,12,13,29,57,796
0.21650,2.83500,-4.55000,0.00000,-0.00756,0.01525,-0.98918,2023,6,12,13,29,57,807
0.21660,2.97500,-4.63750,0.00000,-0.00732,0.01891,-0.99052,2023,6,12,13,29,57,818
0.21670,2.97500,-4.65500,0.00000,-0.00854,0.01366,-0.99113,2023,6,12,13,29,57,829
0.21680,2.90500,-4.67250,0.00000,-0.01025,0.01647,-0.98857,2023,6,12,13,29,57,840
0.21690,2.95750,-4.51500,0.00000,-0.00964,0.01818,-0.98808,2023,6,12,13,29,57,851
0.21700,2.87000,-4.60250,0.00000,-0.00708,0.01891,-0.98869,2023,6,12,13,29,57,862
0.21710,2.80000,-4.56750,0.00000,-0.00781,0.01793,-0.99113,2023,6,12,13,29,57,873
0.21720,3.04500,-4.70750,0.00000,-0.00793,0.01720,-0.99101,2023,6,12,13,29,57,884
0.21730,2.85250,-4.44500,0.00000,-0.00769,0.01696,-0.98905,2023,6,12,13,29,57,896
0.21740,2.97500,-4.63750,0.00000,-0.00988,0.01989,-0.98735,2023,6,12,13,29,57,907
0.21750,2.95750,-4.62000,0.00000,-0.00671,0.01745,-0.98942,2023,6,12,13,29,57,918
0.21760,2.97500,-4.58500,0.00000,-0.00756,0.01574,-0.98735,2023,6,12,13,29,57,929
0.21770,2.90500,-4.77750,0.00000,-0.00988,0.01525,-0.98942,2023,6,12,13,29,57,940
0.21780,2.71250,-4.41000,0.00000,-0.00866,0.01757,-0.98991,2023,6,12,13,29,57,951
0.21790,2.90500,-4.70750,0.00000,-0.00842,0.01818,-0.98759,2023,6,12,13,29,57,962
0.21800,2.95750,-4.81250,0.00000,-0.00903,0.01635,-0.98942,2023,6,12,13,29,57,973
0.21810,3.04500,-4.74250,0.00000,-0.00878,0.01842,-0.98637,2023,6,12,13,29,58,4
0.21820,2.99250,-4.55000,0.00000,-0.00878,0.01720,-0.99003,2023,6,12,13,29,58,16
0.21830,3.04500,-4.62000,0.00000,-0.00671,0.01989,-0.98783,2023,6,12,13,29,58,27
0.21840,3.16750,-4.62000,0.00000,-0.00842,0.01732,-0.98905,2023,6,12,13,29,58,38
0.21850,2.97500,-4.51500,0.00000,-0.00964,0.01671,-0.98869,2023,6,12,13,29,58,49
0.21860,3.01000,-4.76000,0.00000,-0.00744,0.01549,-0.98881,2023,6,12,13,29,58,60
0.21870,2.94000,-4.77750,0.00000,-0.00805,0.01598,-0.98808,2023,6,12,13,29,58,71
0.21880,2.95750,-4.42750,0.00000,-0.00903,0.01732,-0.98966,2023,6,12,13,29,58,82
0.21890,2.94000,-4.53250,0.00000,-0.00854,0.01867,-0.98722,2023,6,12,13,29,58,93
0.21900,2.99250,-4.72500,0.00000,-0.00866,0.01647,-0.98735,2023,6,12,13,29,58,104
0.21910,3.02750,-4.49750,0.00000,-0.00878,0.01903,-0.98966,2023,6,12,13,29,58,116
0.21920,2.83500,-4.58500,0.00000,-0.00952,0.01720,-0.99247,2023,6,12,13,29,58,127
0.21930,2.78250,-4.98750,0.00000,-0.00952,0.01623,-0.98918,2023,6,12,13,29,58,138
0.21940,3.15000,-4.55000,0.00000,-0.00732,0.01720,-0.98783,2023,6,12,13,29,58,149
0.21950,2.92250,-4.65500,0.00000,-0.00769,0.01671,-0.98722,2023,6,12,13,29,58,160
0.21960,2.87000,-4.51500,0.00000,-0.00903,0.01574,-0.98893,2023,6,12,13,29,58,171
0.21970,2.83500,-4.76000,0.00000,-0.00952,0.01867,-0.98625,2023,6,12,13,29,58,182
0.21980,3.08000,-4.62000,0.00000,-0.00805,0.01745,-0.98771,2023,6,12,13,29,58,193
0.21990,2.90500,-4.60250,0.00000,-0.00732,0.01586,-0.98966,2023,6,12,13,29,58,204
0.22000,3.06250,-4.56750,0.00000,-0.01086,0.01708,-0.98722,2023,6,12,13,29,58,216
0.22010,2.97500,-4.76000,0.00000,-0.00964,0.01671,-0.98759,2023,6,12,13,29,58,227
0.22020,2.94000,-4.60250,0.00000,-0.00939,0.01647,-0.98893,2023,6,12,13,29,58,238
0.22030,2.99250,-4.65500,0.00000,-0.00756,0.01671,-0.98857,2023,6,12,13,29,58,249
0.22040,3.22000,-4.53250,0.00000,-0.00769,0.01720,-0.99027,2023,6,12,13,29,58,260
0.22050,3.02750,-4.35750,0.00000,-0.00964,0.01952,-0.98759,2023,6,12,13,29,58,271
0.22060,3.01000,-4.48000,0.00000,-0.00927,0.01952,-0.98783,2023,6,12,13,29,58,282
0.22070,2.87000,-4.70750,0.00000,-0.00781,0.01708,-0.98710,2023,6,12,13,29,58,293
0.22080,2.87000,-4.63750,0.00000,-0.00830,0.01623,-0.98771,2023,6,12,13,29,58,304
0.22090,2.88750,-4.53250,0.00000,-0.00817,0.01781,-0.99052,2023,6,12,13,29,58,316
0.22100,2.85250,-4.62000,0.00000,-0.00817,0.01574,-0.98954,2023,6,12,13,29,58,327
0.22110,3.02750,-4.41000,0.00000,-0.00561,0.01732,-0.98637,2023,6,12,13,29,58,338
0.22120,2.99250,-4.65500,0.00000,-0.00744,0.01635,-0.98710,2023,6,12,13,29,58,349
0.22130,2.85250,-4.60250,0.00000,-0.00781,0.01757,-0.98674,2023,6,12,13,29,58,360
0.22140,3.06250,-4.70750,0.00000,-0.00756,0.01476,-0.98820,2023,6,12,13,29,58,371
0.22150,2.99250,-4.63750,0.00000,-0.00854,0.01684,-0.98966,2023,6,12,13,29,58,382
0.22160,2.81750,-4.41000,0.00000,-0.00854,0.01671,-0.98881,2023,6,12,13,29,58,393
0.22170,3.02750,-4.58500,0.00000,-0.00744,0.01745,-0.98869,2023,6,12,13,29,58,404
0.22180,2.90500,-4.60250,0.00000,-0.00891,0.01635,-0.98942,2023,6,12,13,29,58,416
0.22190,3.06250,-4.58500,0.00000,-0.00903,0.01708,-0.99125,2023,6,12,13,29,58,427
0.22200,2.87000,-4.48000,0.00000,-0.00915,0.01781,-0.99174,2023,6,12,13,29,58,438
0.22210,2.90500,-4.62000,0.00000,-0.00866,0.01586,-0.99015,2023,6,12,13,29,58,449
0.22220,2.97500,-4.37500,0.00000,-0.00915,0.01647,-0.98966,2023,6,12,13,29,58,460
0.22230,2.80000,-4.44500,0.00000,-0.00695,0.01879,-0.99015,2023,6,12,13,29,58,471
0.22240,2.83500,-4.69000,0.00000,-0.00952,0.01598,-0.98893,2023,6,12,13,29,58,482
0.22250,3.04500,-4.77750,0.00000,-0.00891,0.01574,-0.98930,2023,6,12,13,29,58,493
0.22260,2.87000,-4.60250,0.00000,-0.00915,0.01647,-0.99015,2023,6,12,13,29,58,504
0.22270,2.85250,-4.48000,0.00000,-0.00830,0.01684,-0.98832,2023,6,12,13,29,58,516
0.22280,2.92250,-4.67250,0.00000,-0.00549,0.01708,-0.99125,2023,6,12,13,29,58,527
0.22290,2.87000,-4.34000,0.00000,-0.00817,0.01696,-0.99088,2023,6,12,13,29,58,538
0.22300,2.88750,-4.44500,0.00000,-0.00744,0.01635,-0.99027,2023,6,12,13,29,58,549
0.22310,3.22000,-4.83000,0.00000,-0.00854,0.01781,-0.98918,2023,6,12,13,29,58,560
0.22320,2.85250,-4.65500,0.00000,-0.00683,0.01757,-0.98857,2023,6,12,13,29,58,571
0.22330,3.22000,-4.63750,0.00000,-0.01037,0.01574,-0.98808,2023,6,12,13,29,58,582
0.22340,2.88750,-4.51500,0.00000,-0.00720,0.01915,-0.98942,2023,6,12,13,29,58,593
0.22350,3.01000,-4.56750,0.00000,-0.00512,0.01793,-0.98698,2023,6,12,13,29,58,604
0.22360,3.06250,-4.55000,0.00000,-0.00952,0.01854,-0.98808,2023,6,12,13,29,58,616
0.22370,2.97500,-4.51500,0.00000,-0.00866,0.01769,-0.98796,2023,6,12,13,29,58,627
0.22380,2.76500,-4.44500,0.00000,-0.00805,0.01684,-0.98905,2023,6,12,13,29,58,638
0.22390,2.74750,-4.44500,0.00000,-0.00988,0.01781,-0.98491,2023,6,12,13,29,58,649
0.22400,3.06250,-4.88250,0.00000,-0.00903,0.01696,-0.98747,2023,6,12,13,29,58,660
0.22410,2.95750,-4.72500,0.00000,-0.00732,0.01769,-0.98637,2023,6,12,13,29,58,671
0.22420,3.02750,-4.76000,0.00000,-0.00891,0.01806,-0.98771,2023,6,12,13,29,58,682
0.22430,2.92250,-4.55000,0.00000,-0.00915,0.01586,-0.98661,2023,6,12,13,29,58,693
0.22440,2.92250,-4.65500,0.00000,-0.00854,0.01635,-0.98710,2023,6,12,13,29,58,704
0.22450,3.06250,-4.70750,0.00000,-0.00915,0.01659,-0.98674,2023,6,12,13,29,58,716
0.22460,2.88750,-4.30500,0.00000,-0.00903,0.01732,-0.98698,2023,6,12,13,29,58,727
0.22470,3.11500,-4.56750,0.00000,-0.00842,0.01806,-0.98796,2023,6,12,13,29,58,738
0.22480,2.99250,-4.56750,0.00000,-0.00854,0.01671,-0.98649,2023,6,12,13,29,58,749
0.22490,3.01000,-4.55000,0.00000,-0.00805,0.01635,-0.98710,2023,6,12,13,29,58,760
0.22500,2.78250,-4.60250,0.00000,-0.01074,0.01659,-0.98844,2023,6,12,13,29,58,771
0.22510,2.97500,-4.44500,0.00000,-0.00756,0.01610,-0.98735,2023,6,12,13,29,58,782
0.22520,2.94000,-4.63750,0.00000,-0.00756,0.01879,-0.98820,2023,6,12,13,29,58,793
0.22530,3.09750,-4.72500,0.00000,-0.00732,0.01537,-0.98966,2023,6,12,13,29,58,804
0.22540,2.85250,-4.56750,0.00000,-0.00732,0.01757,-0.98796,2023,6,12,13,29,58,816
0.22550,3.22000,-4.83000,0.00000,-0.00854,0.01757,-0.98869,2023,6,12,13,29,58,827
0.22560,2.99250,-4.46250,0.00000,-0.00610,0.01598,-0.98613,2023,6,12,13,29,58,838
0.22570,2.80000,-4.46250,0.00000,-0.00927,0.01867,-0.98905,2023,6,12,13,29,58,849
0.22580,2.81750,-4.55000,0.00000,-0.00842,0.01769,-0.98735,2023,6,12,13,29,58,860
0.22590,2.88750,-4.39250,0.00000,-0.00939,0.01830,-0.98527,2023,6,12,13,29,58,871
0.22600,3.16750,-4.58500,0.00000,-0.00915,0.01708,-0.98918,2023,6,12,13,29,58,882
0.22610,2.94000,-4.67250,0.00000,-0.00964,0.01684,-0.99052,2023,6,12,13,29,58,893
0.22620,2.85250,-4.63750,0.00000,-0.00854,0.01635,-0.98722,2023,6,12,13,29,58,904
0.22630,3.02750,-4.49750,0.00000,-0.00830,0.01818,-0.98820,2023,6,12,13,29,58,916
0.22640,2.59000,-4.60250,0.00000,-0.00695,0.01696,-0.98857,2023,6,12,13,29,58,927
0.22650,2.97500,-4.48000,0.00000,-0.00952,0.01818,-0.98966,2023,6,12,13,29,58,938
0.22660,2.99250,-4.63750,0.00000,-0.00866,0.01781,-0.98637,2023,6,12,13,29,58,949
0.22670,3.04500,-4.56750,0.00000,-0.01025,0.01976,-0.98832,2023,6,12,13,29,58,960
0.22680,2.94000,-4.60250,0.00000,-0.01000,0.01769,-0.98613,2023,6,12,13,29,58,971
0.22690,2.85250,-4.56750,0.00000,-0.00939,0.01842,-0.98820,2023,6,12,13,29,59,2
0.22700,2.87000,-4.34000,0.00000,-0.00793,0.01647,-0.98930,2023,6,12,13,29,59,13
0.22710,2.92250,-4.44500,0.00000,-0.00793,0.01732,-0.98698,2023,6,12,13,29,59,24
0.22720,3.04500,-4.44500,0.00000,-0.00756,0.01720,-0.98857,2023,6,12,13,29,59,36
0.22730,2.88750,-4.65500,0.00000,-0.00817,0.01732,-0.98783,2023,6,12,13,29,59,47
0.22740,2.92250,-4.41000,0.00000,-0.00842,0.01696,-0.98857,2023,6,12,13,29,59,58
0.22750,3.02750,-4.48000,0.00000,-0.00927,0.01732,-0.98686,2023,6,12,13,29,59,69
0.22760,2.78250,-4.62000,0.00000,-0.00817,0.01854,-0.98759,2023,6,12,13,29,59,80
0.22770,2.97500,-4.60250,0.00000,-0.01013,0.01964,-0.98979,2023,6,12,13,29,59,91
0.22780,2.74750,-4.48000,0.00000,-0.00781,0.01952,-0.98979,2023,6,12,13,29,59,102
0.22790,3.20250,-4.65500,0.00000,-0.00708,0.01879,-0.98796,2023,6,12,13,29,59,113
0.22800,2.73000,-4.23500,0.00000,-0.00878,0.01915,-0.98637,2023,6,12,13,29,59,124
0.22810,3.13250,-4.81250,0.00000,-0.00793,0.01598,-0.99003,2023,6,12,13,29,59,136
0.22820,3.01000,-4.60250,0.00000,-0.00903,0.01793,-0.98747,2023,6,12,13,29,59,147
0.22830,2.97500,-4.76000,0.00000,-0.00756,0.01818,-0.99015,2023,6,12,13,29,59,158
0.22840,3.04500,-4.65500,0.00000,-0.00805,0.01757,-0.98796,2023,6,12,13,29,59,169
0.22850,3.08000,-4.69000,0.00000,-0.00878,0.01793,-0.98808,2023,6,12,13,29,59,180
0.22860,2.73000,-4.56750,0.00000,-0.00622,0.01818,-0.98417,2023,6,12,13,29,59,191
0.22870,2.87000,-4.60250,0.00000,-0.00793,0.01671,-0.98698,2023,6,12,13,29,59,202
0.22880,3.09750,-4.51500,0.00000,-0.00573,0.01915,-0.98405,2023,6,12,13,29,59,213
0.22890,2.97500,-4.60250,0.00000,-0.01037,0.01769,-0.98966,2023,6,12,13,29,59,224
0.22900,2.99250,-4.60250,0.00000,-0.00744,0.01635,-0.98527,2023,6,12,13,29,59,236
0.22910,3.01000,-4.53250,0.00000,-0.00732,0.01427,-0.98954,2023,6,12,13,29,59,247
0.22920,2.80000,-4.32250,0.00000,-0.00854,0.01598,-0.98735,2023,6,12,13,29,59,258
0.22930,3.04500,-4.79500,0.00000,-0.00744,0.01257,-0.98539,2023,6,12,13,29,59,269
0.22940,2.95750,-4.69000,0.00000,-0.00573,0.02074,-0.98735,2023,6,12,13,29,59,280
0.22950,2.90500,-4.74250,0.00000,-0.00732,0.01562,-0.98857,2023,6,12,13,29,59,291
0.22960,2.99250,-4.53250,0.00000,-0.00927,0.01915,-0.98613,2023,6,12,13,29,59,302
0.22970,3.22000,-4.83000,0.00000,-0.00878,0.01891,-0.98710,2023,6,12,13,29,59,313
0.22980,2.92250,-4.67250,0.00000,-0.00817,0.01903,-0.98564,2023,6,12,13,29,59,324
0.22990,2.87000,-4.84750,0.00000,-0.00964,0.01562,-0.98674,2023,6,12,13,29,59,336
0.23000,2.85250,-4.51500,0.00000,-0.00903,0.01708,-0.98698,2023,6,12,13,29,59,347
0.23010,2.90500,-4.76000,0.00000,-0.00891,0.01501,-0.98625,2023,6,12,13,29,59,358
0.23020,3.20250,-4.60250,0.00000,-0.00842,0.01708,-0.98674,2023,6,12,13,29,59,369
0.23030,2.90500,-4.62000,0.00000,-0.00634,0.01525,-0.98637,2023,6,12,13,29,59,380
0.23040,3.09750,-4.84750,0.00000,-0.00866,0.01732,-0.98918,2023,6,12,13,29,59,391
0.23050,3.01000,-4.41000,0.00000,-0.00866,0.01513,-0.99003,2023,6,12,13,29,59,402
0.23060,2.76500,-4.44500,0.00000,-0.00671,0.01976,-0.98588,2023,6,12,13,29,59,413
0.23070,3.08000,-4.74250,0.00000,-0.00720,0.01708,-0.98564,2023,6,12,13,29,59,424
0.23080,2.64250,-4.48000,0.00000,-0.00903,0.02257,-0.99101,2023,6,12,13,29,59,436
0.23090,3.23750,-4.65500,0.00000,-0.00964,0.01574,-0.99015,2023,6,12,13,29,59,447
0.23100,2.87000,-4.60250,0.00000,-0.00866,0.01684,-0.98613,2023,6,12,13,29,59,458
0.23110,2.80000,-4.55000,0.00000,-0.00732,0.01610,-0.98503,2023,6,12,13,29,59,469
0.23120,3.55250,-4.95250,0.00000,-0.01110,0.01915,-0.99198,2023,6,12,13,29,59,480
0.23130,2.64250,-4.67250,0.00000,-0.00476,0.02074,-0.98893,2023,6,12,13,29,59,491
0.23140,3.09750,-4.63750,0.00000,-0.01086,0.01464,-0.98674,2023,6,12,13,29,59,502
0.23150,2.50250,-4.35750,0.00000,-0.00756,0.01989,-0.98869,2023,6,12,13,29,59,513
0.23160,2.90500,-4.69000,0.00000,-0.00805,0.02050,-0.98625,2023,6,12,13,29,59,524
0.23170,2.90500,-4.56750,0.00000,-0.00622,0.01623,-0.98759,2023,6,12,13,29,59,536
0.23180,2.88750,-4.56750,0.00000,-0.00769,0.01586,-0.98698,2023,6,12,13,29,59,547
0.23190,2.88750,-4.51500,0.00000,-0.00988,0.01513,-0.98649,2023,6,12,13,29,59,558
0.23200,3.08000,-4.58500,0.00000,-0.00586,0.01440,-0.99040,2023,6,12,13,29,59,569
0.23210,2.64250,-4.39250,0.00000,-0.00695,0.02269,-0.98674,2023,6,12,13,29,59,580
0.23220,2.90500,-4.65500,0.00000,-0.00842,0.01647,-0.98637,2023,6,12,13,29,59,591
0.23230,2.95750,-4.51500,0.00000,-0.00939,0.01793,-0.98613,2023,6,12,13,29,59,602
0.23240,2.99250,-4.53250,0.00000,-0.00830,0.01671,-0.98735,2023,6,12,13,29,59,613
0.23250,2.99250,-4.48000,0.00000,-0.00866,0.01867,-0.98649,2023,6,12,13,29,59,624
0.23260,3.06250,-4.67250,0.00000,-0.00708,0.01806,-0.98698,2023,6,12,13,29,59,636
0.23270,2.95750,-4.60250,0.00000,-0.01061,0.01732,-0.98759,2023,6,12,13,29,59,647
0.23280,3.01000,-4.63750,0.00000,-0.00573,0.01635,-0.98430,2023,6,12,13,29,59,658
0.23290,3.06250,-4.65500,0.00000,-0.00634,0.01781,-0.98881,2023,6,12,13,29,59,669
0.23300,3.08000,-4.58500,0.00000,-0.00878,0.01635,-0.98442,2023,6,12,13,29,59,680
0.23310,2.87000,-4.30500,0.00000,-0.00647,0.01732,-0.98722,2023,6,12,13,29,59,691
0.23320,3.20250,-4.86500,0.00000,-0.00891,0.01427,-0.98857,2023,6,12,13,29,59,702
0.23330,2.76500,-4.72500,0.00000,-0.00732,0.01708,-0.98918,2023,6,12,13,29,59,713
0.23340,2.90500,-4.39250,0.00000,-0.00976,0.01684,-0.98722,2023,6,12,13,29,59,724
0.23350,2.80000,-4.48000,0.00000,-0.00805,0.01793,-0.98954,2023,6,12,13,29,59,736
0.23360,3.18500,-4.74250,0.00000,-0.00720,0.02001,-0.98576,2023,6,12,13,29,59,747
0.23370,2.73000,-4.58500,0.00000,-0.00939,0.01879,-0.98625,2023,6,12,13,29,59,758
0.23380,2.81750,-4.58500,0.00000,-0.00976,0.01684,-0.98930,2023,6,12,13,29,59,769
0.23390,2.80000,-4.62000,0.00000,-0.00769,0.01586,-0.98783,2023,6,12,13,29,59,780
0.23400,2.95750,-4.60250,0.00000,-0.00525,0.01720,-0.98686,2023,6,12,13,29,59,791
0.23410,2.78250,-4.44500,0.00000,-0.00720,0.01635,-0.98588,2023,6,12,13,29,59,802
0.23420,3.06250,-4.63750,0.00000,-0.00964,0.01696,-0.98454,2023,6,12,13,29,59,813
0.23430,2.74750,-4.41000,0.00000,-0.00866,0.01757,-0.99003,2023,6,12,13,29,59,824
0.23440,3.11500,-4.39250,0.00000,-0.00842,0.01879,-0.99052,2023,6,12,13,29,59,836
0.23450,2.66000,-4.63750,0.00000,-0.00830,0.02025,-0.98478,2023,6,12,13,29,59,847
0.23460,3.27250,-4.60250,0.00000,-0.00927,0.01464,-0.98905,2023,6,12,13,29,59,858
0.23470,2.52000,-4.48000,0.00000,-0.00549,0.01708,-0.98576,2023,6,12,13,29,59,869
0.23480,3.22000,-4.49750,0.00000,-0.00781,0.01610,-0.98698,2023,6,12,13,29,59,880
0.23490,2.78250,-4.56750,0.00000,-0.00927,0.01598,-0.98637,2023,6,12,13,29,59,891
0.23500,2.97500,-4.62000,0.00000,-0.00671,0.01720,-0.98564,2023,6,12,13,29,59,902
0.23510,2.90500,-4.81250,0.00000,-0.00756,0.01806,-0.98625,2023,6,12,13,29,59,913
0.23520,2.88750,-4.69000,0.00000,-0.00903,0.01818,-0.98783,2023,6,12,13,29,59,924
#2023/06/12 13:30:00
