#2023/06/12 13:46:36
time,wx,wy,wz,ax,ay,az,yy,MM,dd,hh,mm,ss,ms
0.00000,2.76500,-4.42750,0.00000,-0.00854,0.01281,-0.98954,2023,6,12,13,46,36,61
0.00010,3.06250,-4.63750,0.00000,-0.00988,0.01122,-0.99064,2023,6,12,13,46,36,72
0.00020,3.09750,-4.67250,0.00000,-0.01025,0.01183,-0.98844,2023,6,12,13,46,36,83
0.00030,3.04500,-4.46250,0.00000,-0.00976,0.01196,-0.99040,2023,6,12,13,46,36,94
0.00040,3.04500,-4.41000,0.00000,-0.01061,0.01110,-0.99015,2023,6,12,13,46,36,105
0.00050,3.04500,-4.48000,0.00000,-0.00988,0.01061,-0.98844,2023,6,12,13,46,36,116
0.00060,2.99250,-4.44500,0.00000,-0.00964,0.01086,-0.98844,2023,6,12,13,46,36,127
0.00070,2.97500,-4.55000,0.00000,-0.01074,0.01196,-0.98710,2023,6,12,13,46,36,138
0.00080,3.09750,-4.55000,0.00000,-0.00976,0.01159,-0.98979,2023,6,12,13,46,36,149
0.00090,3.08000,-4.44500,0.00000,-0.00903,0.00964,-0.98722,2023,6,12,13,46,36,161
0.00100,3.01000,-4.79500,0.00000,-0.00817,0.01147,-0.98783,2023,6,12,13,46,36,172
0.00110,3.23750,-4.70750,0.00000,-0.00817,0.01086,-0.98991,2023,6,12,13,46,36,183
0.00120,3.02750,-4.49750,0.00000,-0.01269,0.01159,-0.98869,2023,6,12,13,46,36,194
0.00130,2.90500,-4.72500,0.00000,-0.01049,0.01257,-0.98869,2023,6,12,13,46,36,205
0.00140,2.88750,-4.77750,0.00000,-0.00976,0.01025,-0.98979,2023,6,12,13,46,36,216
0.00150,3.23750,-4.69000,0.00000,-0.00781,0.00976,-0.98918,2023,6,12,13,46,36,227
0.00160,2.95750,-4.63750,0.00000,-0.01000,0.01061,-0.98893,2023,6,12,13,46,36,238
0.00170,2.90500,-4.51500,0.00000,-0.01074,0.01025,-0.98710,2023,6,12,13,46,36,249
0.00180,3.04500,-4.49750,0.00000,-0.00964,0.01086,-0.98881,2023,6,12,13,46,36,261
0.00190,2.95750,-4.74250,0.00000,-0.00976,0.01098,-0.98954,2023,6,12,13,46,36,272
0.00200,3.02750,-4.51500,0.00000,-0.01037,0.01037,-0.99210,2023,6,12,13,46,36,283
0.00210,3.08000,-4.67250,0.00000,-0.01013,0.01122,-0.98771,2023,6,12,13,46,36,294
0.00220,3.11500,-4.67250,0.00000,-0.01049,0.01025,-0.98905,2023,6,12,13,46,36,305
0.00230,3.04500,-4.46250,0.00000,-0.00866,0.01135,-0.98918,2023,6,12,13,46,36,316
0.00240,3.06250,-4.48000,0.00000,-0.01074,0.01122,-0.99015,2023,6,12,13,46,36,327
0.00250,3.23750,-4.58500,0.00000,-0.01013,0.01208,-0.98796,2023,6,12,13,46,36,338
0.00260,3.23750,-4.55000,0.00000,-0.00939,0.01061,-0.98759,2023,6,12,13,46,36,349
0.00270,3.11500,-4.69000,0.00000,-0.00866,0.01037,-0.98942,2023,6,12,13,46,36,360
0.00280,3.18500,-4.70750,0.00000,-0.01110,0.00976,-0.98954,2023,6,12,13,46,36,372
0.00290,3.11500,-4.70750,0.00000,-0.00964,0.00964,-0.98857,2023,6,12,13,46,36,383
0.00300,3.11500,-4.91750,0.00000,-0.01013,0.01025,-0.98747,2023,6,12,13,46,36,394
0.00310,2.88750,-4.46250,0.00000,-0.01000,0.01000,-0.98844,2023,6,12,13,46,36,405
0.00320,3.13250,-4.48000,0.00000,-0.01025,0.01110,-0.98759,2023,6,12,13,46,36,416
0.00330,3.01000,-4.46250,0.00000,-0.00854,0.01110,-0.98503,2023,6,12,13,46,36,427
0.00340,3.02750,-4.69000,0.00000,-0.00927,0.01183,-0.98564,2023,6,12,13,46,36,438
0.00350,3.11500,-4.65500,0.00000,-0.00817,0.01110,-0.98783,2023,6,12,13,46,36,449
0.00360,3.06250,-4.53250,0.00000,-0.00988,0.01147,-0.98796,2023,6,12,13,46,36,460
0.00370,3.16750,-4.46250,0.00000,-0.00952,0.01122,-0.98759,2023,6,12,13,46,36,472
0.00380,3.18500,-4.55000,0.00000,-0.01037,0.01061,-0.99186,2023,6,12,13,46,36,483
0.00390,2.99250,-4.39250,0.00000,-0.00830,0.01086,-0.98954,2023,6,12,13,46,36,494
0.00400,2.95750,-4.46250,0.00000,-0.01074,0.01110,-0.98674,2023,6,12,13,46,36,505
0.00410,3.01000,-4.41000,0.00000,-0.01159,0.01049,-0.98747,2023,6,12,13,46,36,516
0.00420,2.95750,-4.44500,0.00000,-0.01244,0.00976,-0.98820,2023,6,12,13,46,36,527
0.00430,3.01000,-4.51500,0.00000,-0.00988,0.01220,-0.98771,2023,6,12,13,46,36,538
0.00440,3.11500,-4.53250,0.00000,-0.01220,0.01049,-0.98698,2023,6,12,13,46,36,549
0.00450,3.16750,-4.58500,0.00000,-0.01074,0.01135,-0.98881,2023,6,12,13,46,36,560
0.00460,3.01000,-4.34000,0.00000,-0.01110,0.00939,-0.98930,2023,6,12,13,46,36,572
0.00470,3.02750,-4.42750,0.00000,-0.01196,0.01196,-0.99076,2023,6,12,13,46,36,583
0.00480,2.99250,-4.53250,0.00000,-0.00793,0.01281,-0.99137,2023,6,12,13,46,36,594
0.00490,3.01000,-4.72500,0.00000,-0.00976,0.01049,-0.98820,2023,6,12,13,46,36,605
0.00500,3.13250,-4.72500,0.00000,-0.01159,0.00976,-0.98747,2023,6,12,13,46,36,616
0.00510,3.15000,-4.49750,0.00000,-0.01305,0.01147,-0.98905,2023,6,12,13,46,36,627
0.00520,2.90500,-4.42750,0.00000,-0.01000,0.01257,-0.99064,2023,6,12,13,46,36,638
0.00530,3.06250,-4.46250,0.00000,-0.00842,0.01159,-0.98857,2023,6,12,13,46,36,649
0.00540,3.13250,-4.76000,0.00000,-0.00976,0.01061,-0.98796,2023,6,12,13,46,36,660
0.00550,3.09750,-4.42750,0.00000,-0.01013,0.01098,-0.99052,2023,6,12,13,46,36,672
0.00560,3.23750,-4.49750,0.00000,-0.01074,0.01281,-0.98686,2023,6,12,13,46,36,683
0.00570,3.15000,-4.56750,0.00000,-0.01025,0.01171,-0.98796,2023,6,12,13,46,36,694
0.00580,3.08000,-4.72500,0.00000,-0.01013,0.01147,-0.99320,2023,6,12,13,46,36,705
0.00590,3.01000,-4.53250,0.00000,-0.00903,0.01086,-0.98698,2023,6,12,13,46,36,716
0.00600,3.25500,-4.62000,0.00000,-0.00903,0.01049,-0.98930,2023,6,12,13,46,36,727
0.00610,3.09750,-4.67250,0.00000,-0.00854,0.01159,-0.98783,2023,6,12,13,46,36,738
0.00620,2.99250,-4.42750,0.00000,-0.01061,0.01086,-0.98637,2023,6,12,13,46,36,749
0.00630,3.23750,-4.60250,0.00000,-0.00964,0.01147,-0.99076,2023,6,12,13,46,36,760
0.00640,3.09750,-4.46250,0.00000,-0.01183,0.01098,-0.98759,2023,6,12,13,46,36,772
0.00650,3.09750,-4.69000,0.00000,-0.00915,0.00927,-0.98771,2023,6,12,13,46,36,783
0.00660,3.01000,-4.77750,0.00000,-0.00952,0.01037,-0.99088,2023,6,12,13,46,36,794
0.00670,3.18500,-4.55000,0.00000,-0.01013,0.01183,-0.98905,2023,6,12,13,46,36,805
0.00680,3.20250,-4.58500,0.00000,-0.01025,0.01147,-0.98832,2023,6,12,13,46,36,816
0.00690,2.92250,-4.62000,0.00000,-0.00939,0.00952,-0.98710,2023,6,12,13,46,36,827
0.00700,3.08000,-4.49750,0.00000,-0.01122,0.01196,-0.98661,2023,6,12,13,46,36,838
0.00710,3.01000,-4.62000,0.00000,-0.00952,0.01061,-0.98613,2023,6,12,13,46,36,849
0.00720,3.06250,-4.53250,0.00000,-0.00988,0.01135,-0.98625,2023,6,12,13,46,36,860
0.00730,3.15000,-4.67250,0.00000,-0.01037,0.00976,-0.98637,2023,6,12,13,46,36,872
0.00740,3.01000,-4.49750,0.00000,-0.00878,0.00964,-0.98857,2023,6,12,13,46,36,883
0.00750,3.11500,-4.51500,0.00000,-0.01183,0.01232,-0.98966,2023,6,12,13,46,36,894
0.00760,3.09750,-4.60250,0.00000,-0.00976,0.01147,-0.98613,2023,6,12,13,46,36,905
0.00770,2.94000,-4.48000,0.00000,-0.01366,0.01220,-0.98576,2023,6,12,13,46,36,916
0.00780,3.04500,-4.58500,0.00000,-0.00988,0.01159,-0.99015,2023,6,12,13,46,36,927
0.00790,3.04500,-4.58500,0.00000,-0.01025,0.01061,-0.98893,2023,6,12,13,46,36,938
0.00800,3.04500,-4.42750,0.00000,-0.01135,0.01159,-0.98686,2023,6,12,13,46,36,949
0.00810,2.88750,-4.42750,0.00000,-0.01232,0.01037,-0.98869,2023,6,12,13,46,36,960
0.00820,3.20250,-4.58500,0.00000,-0.01013,0.01061,-0.99027,2023,6,12,13,46,36,972
0.00830,3.13250,-4.48000,0.00000,-0.00903,0.01086,-0.98771,2023,6,12,13,46,36,983
0.00840,3.06250,-4.58500,0.00000,-0.00964,0.00927,-0.98808,2023,6,12,13,46,36,994
0.00850,3.08000,-4.72500,0.00000,-0.00915,0.01183,-0.98710,2023,6,12,13,46,36,5
0.00860,3.13250,-4.51500,0.00000,-0.01000,0.01013,-0.98942,2023,6,12,13,46,36,16
0.00870,3.20250,-4.77750,0.00000,-0.00927,0.01196,-0.98857,2023,6,12,13,46,36,27
0.00880,3.11500,-4.76000,0.00000,-0.01013,0.01147,-0.98905,2023,6,12,13,46,36,38
0.00890,3.11500,-4.67250,0.00000,-0.01086,0.01135,-0.98808,2023,6,12,13,46,36,49
0.00900,2.99250,-4.65500,0.00000,-0.00939,0.00903,-0.99040,2023,6,12,13,46,36,60
0.00910,3.34250,-4.69000,0.00000,-0.00988,0.00939,-0.98771,2023,6,12,13,46,36,72
0.00920,3.13250,-4.60250,0.00000,-0.00952,0.01183,-0.99174,2023,6,12,13,46,36,83
0.00930,3.11500,-4.51500,0.00000,-0.01098,0.01183,-0.98930,2023,6,12,13,46,36,94
0.00940,2.92250,-4.55000,0.00000,-0.01037,0.01196,-0.98991,2023,6,12,13,46,36,105
0.00950,3.20250,-4.79500,0.00000,-0.00952,0.01147,-0.98966,2023,6,12,13,46,36,116
0.00960,3.02750,-4.41000,0.00000,-0.00988,0.01110,-0.98625,2023,6,12,13,46,36,127
0.00970,2.88750,-4.55000,0.00000,-0.00988,0.01330,-0.99162,2023,6,12,13,46,36,138
0.00980,3.01000,-4.53250,0.00000,-0.00939,0.00976,-0.98698,2023,6,12,13,46,36,149
0.00990,3.04500,-4.44500,0.00000,-0.01013,0.01025,-0.98832,2023,6,12,13,46,36,160
0.01000,3.13250,-4.67250,0.00000,-0.01098,0.01025,-0.98735,2023,6,12,13,46,36,172
0.01010,3.02750,-4.67250,0.00000,-0.01220,0.01232,-0.98771,2023,6,12,13,46,36,183
0.01020,3.11500,-4.60250,0.00000,-0.01049,0.01122,-0.98722,2023,6,12,13,46,36,194
0.01030,3.02750,-4.49750,0.00000,-0.01110,0.00988,-0.99015,2023,6,12,13,46,36,205
0.01040,2.90500,-4.69000,0.00000,-0.01074,0.01049,-0.98820,2023,6,12,13,46,36,216
0.01050,3.20250,-4.34000,0.00000,-0.00952,0.01110,-0.98747,2023,6,12,13,46,36,227
0.01060,3.09750,-4.51500,0.00000,-0.01049,0.01122,-0.98820,2023,6,12,13,46,36,238
0.01070,3.08000,-4.58500,0.00000,-0.01025,0.01000,-0.98613,2023,6,12,13,46,36,249
0.01080,2.94000,-4.39250,0.00000,-0.00939,0.01183,-0.98674,2023,6,12,13,46,36,260
0.01090,3.02750,-4.63750,0.00000,-0.01135,0.01220,-0.98686,2023,6,12,13,46,36,272
0.01100,3.01000,-4.35750,0.00000,-0.00988,0.01208,-0.98893,2023,6,12,13,46,36,283
0.01110,3.02750,-4.41000,0.00000,-0.01098,0.01281,-0.98796,2023,6,12,13,46,36,294
0.01120,2.97500,-4.58500,0.00000,-0.00903,0.01000,-0.98808,2023,6,12,13,46,37,5
0.01130,3.09750,-4.60250,0.00000,-0.01122,0.01000,-0.98844,2023,6,12,13,46,37,16
0.01140,3.15000,-4.67250,0.00000,-0.00939,0.01171,-0.99015,2023,6,12,13,46,37,27
0.01150,3.04500,-4.39250,0.00000,-0.00915,0.01098,-0.98954,2023,6,12,13,46,37,38
0.01160,2.99250,-4.44500,0.00000,-0.01098,0.00952,-0.98735,2023,6,12,13,46,37,49
0.01170,2.95750,-4.62000,0.00000,-0.01074,0.01037,-0.98600,2023,6,12,13,46,37,60
0.01180,3.11500,-4.67250,0.00000,-0.00915,0.01244,-0.98759,2023,6,12,13,46,37,72
0.01190,3.20250,-4.76000,0.00000,-0.01025,0.00903,-0.98759,2023,6,12,13,46,37,83
0.01200,3.09750,-4.46250,0.00000,-0.01159,0.01135,-0.98710,2023,6,12,13,46,37,94
0.01210,3.16750,-4.70750,0.00000,-0.01171,0.01013,-0.98832,2023,6,12,13,46,37,105
0.01220,2.97500,-4.58500,0.00000,-0.01135,0.00903,-0.98832,2023,6,12,13,46,37,116
0.01230,3.11500,-4.55000,0.00000,-0.01098,0.00988,-0.99027,2023,6,12,13,46,37,127
0.01240,3.06250,-4.55000,0.00000,-0.00952,0.01061,-0.99015,2023,6,12,13,46,37,138
0.01250,3.13250,-4.62000,0.00000,-0.01025,0.01147,-0.98722,2023,6,12,13,46,37,149
0.01260,2.87000,-4.51500,0.00000,-0.00952,0.01074,-0.98808,2023,6,12,13,46,37,160
0.01270,2.97500,-4.55000,0.00000,-0.00952,0.01196,-0.98393,2023,6,12,13,46,37,172
0.01280,2.99250,-4.65500,0.00000,-0.01110,0.01037,-0.98661,2023,6,12,13,46,37,183
0.01290,3.06250,-4.76000,0.00000,-0.01074,0.00842,-0.98747,2023,6,12,13,46,37,194
0.01300,3.01000,-4.48000,0.00000,-0.00866,0.00988,-0.98747,2023,6,12,13,46,37,205
0.01310,2.97500,-4.81250,0.00000,-0.01061,0.01086,-0.98759,2023,6,12,13,46,37,216
0.01320,3.06250,-4.21750,0.00000,-0.01074,0.01147,-0.98649,2023,6,12,13,46,37,227
0.01330,2.85250,-4.37500,0.00000,-0.00878,0.01293,-0.98857,2023,6,12,13,46,37,238
0.01340,3.29000,-4.79500,0.00000,-0.01086,0.01159,-0.99027,2023,6,12,13,46,37,249
0.01350,3.09750,-4.62000,0.00000,-0.00988,0.01147,-0.98991,2023,6,12,13,46,37,260
0.01360,3.06250,-4.51500,0.00000,-0.01244,0.01379,-0.98771,2023,6,12,13,46,37,272
0.01370,2.90500,-4.49750,0.00000,-0.01086,0.01074,-0.99027,2023,6,12,13,46,37,283
0.01380,3.13250,-4.48000,0.00000,-0.00988,0.01086,-0.98625,2023,6,12,13,46,37,294
0.01390,3.09750,-4.62000,0.00000,-0.01037,0.01196,-0.98771,2023,6,12,13,46,37,305
0.01400,2.90500,-4.46250,0.00000,-0.01025,0.01037,-0.98637,2023,6,12,13,46,37,316
0.01410,2.99250,-4.74250,0.00000,-0.01159,0.00976,-0.98637,2023,6,12,13,46,37,327
0.01420,3.16750,-4.51500,0.00000,-0.01135,0.01061,-0.98722,2023,6,12,13,46,37,338
0.01430,3.01000,-4.58500,0.00000,-0.01013,0.01159,-0.99076,2023,6,12,13,46,37,349
0.01440,2.99250,-4.77750,0.00000,-0.00952,0.01183,-0.98869,2023,6,12,13,46,37,360
0.01450,3.08000,-4.56750,0.00000,-0.01122,0.01147,-0.98698,2023,6,12,13,46,37,372
0.01460,3.06250,-4.74250,0.00000,-0.00976,0.01232,-0.98918,2023,6,12,13,46,37,383
0.01470,3.18500,-4.67250,0.00000,-0.01061,0.01110,-0.99076,2023,6,12,13,46,37,394
0.01480,3.01000,-4.56750,0.00000,-0.01220,0.01049,-0.98857,2023,6,12,13,46,37,405
0.01490,3.02750,-4.53250,0.00000,-0.01061,0.01013,-0.98771,2023,6,12,13,46,37,416
0.01500,3.04500,-4.67250,0.00000,-0.00939,0.01086,-0.98930,2023,6,12,13,46,37,427
0.01510,3.04500,-4.58500,0.00000,-0.01025,0.01244,-0.98820,2023,6,12,13,46,37,438
0.01520,3.11500,-4.65500,0.00000,-0.01037,0.01208,-0.98698,2023,6,12,13,46,37,449
0.01530,2.81750,-4.48000,0.00000,-0.01074,0.01171,-0.98674,2023,6,12,13,46,37,460
0.01540,3.18500,-4.67250,0.00000,-0.01000,0.00964,-0.98808,2023,6,12,13,46,37,472
0.01550,2.85250,-4.51500,0.00000,-0.01196,0.01037,-0.98722,2023,6,12,13,46,37,483
0.01560,3.29000,-4.56750,0.00000,-0.01049,0.01037,-0.98698,2023,6,12,13,46,37,494
0.01570,3.11500,-4.62000,0.00000,-0.00927,0.00988,-0.98674,2023,6,12,13,46,37,505
0.01580,3.23750,-4.63750,0.00000,-0.01171,0.01098,-0.98954,2023,6,12,13,46,37,516
0.01590,3.30750,-4.62000,0.00000,-0.00927,0.01232,-0.99052,2023,6,12,13,46,37,527
0.01600,3.01000,-4.53250,0.00000,-0.01074,0.01159,-0.98942,2023,6,12,13,46,37,538
0.01610,2.90500,-4.67250,0.00000,-0.00964,0.01086,-0.98820,2023,6,12,13,46,37,549
0.01620,3.13250,-4.63750,0.00000,-0.00976,0.01171,-0.98796,2023,6,12,13,46,37,560
0.01630,3.20250,-4.65500,0.00000,-0.01049,0.00964,-0.98588,2023,6,12,13,46,37,572
0.01640,3.04500,-4.46250,0.00000,-0.00939,0.00903,-0.99003,2023,6,12,13,46,37,583
0.01650,3.01000,-4.58500,0.00000,-0.00915,0.01159,-0.98539,2023,6,12,13,46,37,594
0.01660,3.06250,-4.56750,0.00000,-0.01110,0.00976,-0.98735,2023,6,12,13,46,37,605
0.01670,3.06250,-4.72500,0.00000,-0.01049,0.01269,-0.98857,2023,6,12,13,46,37,616
0.01680,3.13250,-4.62000,0.00000,-0.01171,0.01159,-0.99284,2023,6,12,13,46,37,627
0.01690,3.20250,-4.42750,0.00000,-0.01232,0.01147,-0.98820,2023,6,12,13,46,37,638
0.01700,3.11500,-4.49750,0.00000,-0.01110,0.01293,-0.98564,2023,6,12,13,46,37,649
0.01710,3.22000,-4.81250,0.00000,-0.00976,0.00781,-0.99101,2023,6,12,13,46,37,660
0.01720,3.09750,-4.55000,0.00000,-0.01074,0.01122,-0.98808,2023,6,12,13,46,37,672
0.01730,3.06250,-4.69000,0.00000,-0.01049,0.01220,-0.98698,2023,6,12,13,46,37,683
0.01740,3.18500,-4.55000,0.00000,-0.00878,0.01086,-0.98649,2023,6,12,13,46,37,694
0.01750,3.22000,-4.81250,0.00000,-0.01049,0.01061,-0.98539,2023,6,12,13,46,37,705
0.01760,3.06250,-4.58500,0.00000,-0.00891,0.00964,-0.98430,2023,6,12,13,46,37,716
0.01770,3.06250,-4.49750,0.00000,-0.01000,0.01135,-0.99003,2023,6,12,13,46,37,727
0.01780,3.04500,-4.55000,0.00000,-0.00939,0.01061,-0.98539,2023,6,12,13,46,37,738
0.01790,2.97500,-4.46250,0.00000,-0.01110,0.01232,-0.98442,2023,6,12,13,46,37,749
0.01800,3.06250,-4.55000,0.00000,-0.00939,0.00964,-0.98796,2023,6,12,13,46,37,760
0.01810,2.99250,-4.37500,0.00000,-0.00988,0.01110,-0.98844,2023,6,12,13,46,37,772
0.01820,3.02750,-4.48000,0.00000,-0.01025,0.01122,-0.98942,2023,6,12,13,46,37,783
0.01830,3.08000,-4.63750,0.00000,-0.01013,0.01061,-0.98661,2023,6,12,13,46,37,794
0.01840,3.18500,-4.67250,0.00000,-0.01232,0.01074,-0.98808,2023,6,12,13,46,37,805
0.01850,3.08000,-4.44500,0.00000,-0.00952,0.01037,-0.98710,2023,6,12,13,46,37,816
0.01860,3.08000,-4.34000,0.00000,-0.01074,0.01183,-0.98844,2023,6,12,13,46,37,827
0.01870,3.13250,-4.86500,0.00000,-0.01061,0.01013,-0.98771,2023,6,12,13,46,37,838
0.01880,3.15000,-4.46250,0.00000,-0.01086,0.01013,-0.98796,2023,6,12,13,46,37,849
0.01890,2.90500,-4.65500,0.00000,-0.01318,0.00988,-0.98881,2023,6,12,13,46,37,860
0.01900,3.02750,-4.63750,0.00000,-0.01061,0.01196,-0.98637,2023,6,12,13,46,37,872
0.01910,3.01000,-4.74250,0.00000,-0.00915,0.01098,-0.98698,2023,6,12,13,46,37,883
0.01920,3.18500,-4.69000,0.00000,-0.01000,0.01135,-0.98930,2023,6,12,13,46,37,894
0.01930,3.01000,-4.46250,0.00000,-0.00927,0.01037,-0.98588,2023,6,12,13,46,37,905
0.01940,2.88750,-4.62000,0.00000,-0.00988,0.01049,-0.98735,2023,6,12,13,46,37,916
0.01950,3.08000,-4.56750,0.00000,-0.01025,0.00939,-0.99076,2023,6,12,13,46,37,927
0.01960,2.99250,-4.53250,0.00000,-0.01037,0.01049,-0.98796,2023,6,12,13,46,37,938
0.01970,2.99250,-4.49750,0.00000,-0.01074,0.01086,-0.98796,2023,6,12,13,46,37,949
0.01980,3.08000,-4.67250,0.00000,-0.00976,0.01098,-0.98674,2023,6,12,13,46,37,960
0.01990,3.09750,-4.70750,0.00000,-0.00915,0.01074,-0.98820,2023,6,12,13,46,37,972
0.02000,3.02750,-4.62000,0.00000,-0.00891,0.01135,-0.98747,2023,6,12,13,46,38,3
0.02010,3.18500,-4.83000,0.00000,-0.01037,0.01159,-0.98552,2023,6,12,13,46,38,14
0.02020,3.16750,-4.62000,0.00000,-0.01025,0.00964,-0.98735,2023,6,12,13,46,38,25
0.02030,3.09750,-4.60250,0.00000,-0.01025,0.00988,-0.98710,2023,6,12,13,46,38,36
0.02040,3.04500,-4.48000,0.00000,-0.01159,0.00976,-0.98869,2023,6,12,13,46,38,47
0.02050,3.08000,-4.56750,0.00000,-0.01000,0.01086,-0.98539,2023,6,12,13,46,38,58
0.02060,3.11500,-4.37500,0.00000,-0.01000,0.01183,-0.98674,2023,6,12,13,46,38,69
0.02070,2.99250,-4.76000,0.00000,-0.01171,0.01110,-0.98869,2023,6,12,13,46,38,80
0.02080,2.99250,-4.70750,0.00000,-0.01110,0.00866,-0.98698,2023,6,12,13,46,38,92
0.02090,3.08000,-4.65500,0.00000,-0.01159,0.01147,-0.98954,2023,6,12,13,46,38,103
0.02100,3.01000,-4.63750,0.00000,-0.00964,0.01135,-0.99027,2023,6,12,13,46,38,114
0.02110,3.11500,-4.60250,0.00000,-0.01049,0.01013,-0.98515,2023,6,12,13,46,38,125
0.02120,3.08000,-4.55000,0.00000,-0.00927,0.01171,-0.98759,2023,6,12,13,46,38,136
0.02130,3.25500,-4.69000,0.00000,-0.00952,0.01159,-0.98905,2023,6,12,13,46,38,147
0.02140,3.18500,-4.56750,0.00000,-0.01013,0.01049,-0.98503,2023,6,12,13,46,38,158
0.02150,3.06250,-4.58500,0.00000,-0.01086,0.01061,-0.98686,2023,6,12,13,46,38,169
0.02160,3.08000,-4.46250,0.00000,-0.01171,0.00927,-0.98698,2023,6,12,13,46,38,180
0.02170,3.01000,-4.42750,0.00000,-0.00854,0.00927,-0.98576,2023,6,12,13,46,38,192
0.02180,3.16750,-4.55000,0.00000,-0.01159,0.00988,-0.98686,2023,6,12,13,46,38,203
0.02190,3.06250,-4.55000,0.00000,-0.00927,0.01098,-0.98796,2023,6,12,13,46,38,214
0.02200,3.09750,-4.39250,0.00000,-0.01135,0.01000,-0.98759,2023,6,12,13,46,38,225
0.02210,3.02750,-4.53250,0.00000,-0.00952,0.00964,-0.98674,2023,6,12,13,46,38,236
0.02220,3.04500,-4.53250,0.00000,-0.01000,0.01061,-0.98808,2023,6,12,13,46,38,247
0.02230,2.94000,-4.60250,0.00000,-0.00952,0.01086,-0.98783,2023,6,12,13,46,38,258
0.02240,2.94000,-4.30500,0.00000,-0.00976,0.01098,-0.98527,2023,6,12,13,46,38,269
0.02250,2.83500,-4.55000,0.00000,-0.00915,0.01086,-0.98649,2023,6,12,13,46,38,280
0.02260,3.13250,-4.65500,0.00000,-0.01196,0.01196,-0.98625,2023,6,12,13,46,38,292
0.02270,3.11500,-4.49750,0.00000,-0.00793,0.00976,-0.99040,2023,6,12,13,46,38,303
0.02280,3.01000,-4.70750,0.00000,-0.01122,0.01135,-0.98796,2023,6,12,13,46,38,314
0.02290,2.97500,-4.51500,0.00000,-0.01122,0.01098,-0.98613,2023,6,12,13,46,38,325
0.02300,3.02750,-4.56750,0.00000,-0.01074,0.01074,-0.98710,2023,6,12,13,46,38,336
0.02310,2.97500,-4.56750,0.00000,-0.00866,0.01244,-0.98991,2023,6,12,13,46,38,347
0.02320,3.08000,-4.65500,0.00000,-0.00976,0.01037,-0.98698,2023,6,12,13,46,38,358
0.02330,2.99250,-4.42750,0.00000,-0.01000,0.00939,-0.98954,2023,6,12,13,46,38,369
0.02340,3.15000,-4.60250,0.00000,-0.01000,0.01086,-0.98576,2023,6,12,13,46,38,380
0.02350,3.02750,-4.62000,0.00000,-0.00964,0.01110,-0.98698,2023,6,12,13,46,38,392
0.02360,2.88750,-4.56750,0.00000,-0.01122,0.01110,-0.98722,2023,6,12,13,46,38,403
0.02370,3.15000,-4.62000,0.00000,-0.00927,0.01110,-0.98478,2023,6,12,13,46,38,414
0.02380,2.97500,-4.58500,0.00000,-0.01049,0.01061,-0.98661,2023,6,12,13,46,38,425
0.02390,2.99250,-4.51500,0.00000,-0.00842,0.01208,-0.99113,2023,6,12,13,46,38,436
0.02400,3.13250,-4.48000,0.00000,-0.00964,0.01220,-0.98735,2023,6,12,13,46,38,447
0.02410,3.13250,-4.51500,0.00000,-0.00915,0.01000,-0.98576,2023,6,12,13,46,38,458
0.02420,2.99250,-4.44500,0.00000,-0.00927,0.01171,-0.98808,2023,6,12,13,46,38,469
0.02430,2.97500,-4.62000,0.00000,-0.01147,0.00830,-0.98905,2023,6,12,13,46,38,480
0.02440,3.11500,-4.67250,0.00000,-0.00964,0.01147,-0.99113,2023,6,12,13,46,38,492
0.02450,3.02750,-4.56750,0.00000,-0.01013,0.01122,-0.98832,2023,6,12,13,46,38,503
0.02460,2.92250,-4.49750,0.00000,-0.00817,0.01098,-0.98735,2023,6,12,13,46,38,514
0.02470,3.11500,-4.65500,0.00000,-0.01135,0.00964,-0.98966,2023,6,12,13,46,38,525
0.02480,3.09750,-4.49750,0.00000,-0.00866,0.00915,-0.98747,2023,6,12,13,46,38,536
0.02490,3.04500,-4.51500,0.00000,-0.01025,0.01122,-0.98735,2023,6,12,13,46,38,547
0.02500,3.13250,-4.60250,0.00000,-0.00952,0.00915,-0.98832,2023,6,12,13,46,38,558
0.02510,3.16750,-4.58500,0.00000,-0.00805,0.00915,-0.98942,2023,6,12,13,46,38,569
0.02520,3.13250,-4.62000,0.00000,-0.00842,0.00952,-0.98905,2023,6,12,13,46,38,580
0.02530,3.11500,-4.55000,0.00000,-0.00952,0.01281,-0.98930,2023,6,12,13,46,38,592
0.02540,2.92250,-4.42750,0.00000,-0.01098,0.01269,-0.98771,2023,6,12,13,46,38,603
0.02550,3.22000,-4.79500,0.00000,-0.01000,0.01098,-0.99101,2023,6,12,13,46,38,614
0.02560,3.13250,-4.51500,0.00000,-0.01244,0.01183,-0.98918,2023,6,12,13,46,38,625
0.02570,3.09750,-4.65500,0.00000,-0.00878,0.01037,-0.98905,2023,6,12,13,46,38,636
0.02580,3.01000,-4.72500,0.00000,-0.00964,0.01183,-0.98759,2023,6,12,13,46,38,647
0.02590,3.13250,-4.55000,0.00000,-0.01025,0.01244,-0.98954,2023,6,12,13,46,38,658
0.02600,3.01000,-4.56750,0.00000,-0.01122,0.01049,-0.98600,2023,6,12,13,46,38,669
0.02610,2.95750,-4.51500,0.00000,-0.01025,0.01147,-0.98759,2023,6,12,13,46,38,680
0.02620,3.16750,-4.77750,0.00000,-0.01159,0.01122,-0.99088,2023,6,12,13,46,38,692
0.02630,3.08000,-4.76000,0.00000,-0.00915,0.01122,-0.98820,2023,6,12,13,46,38,703
0.02640,3.23750,-4.70750,0.00000,-0.01342,0.01183,-0.98930,2023,6,12,13,46,38,714
0.02650,3.01000,-4.58500,0.00000,-0.01013,0.01049,-0.98686,2023,6,12,13,46,38,725
0.02660,3.20250,-4.74250,0.00000,-0.01159,0.01318,-0.99320,2023,6,12,13,46,38,736
0.02670,2.95750,-4.55000,0.00000,-0.00939,0.01110,-0.99247,2023,6,12,13,46,38,747
0.02680,3.18500,-4.65500,0.00000,-0.01122,0.01061,-0.99113,2023,6,12,13,46,38,758
0.02690,3.02750,-4.48000,0.00000,-0.01013,0.01110,-0.98735,2023,6,12,13,46,38,769
0.02700,3.15000,-4.42750,0.00000,-0.01049,0.01122,-0.98625,2023,6,12,13,46,38,780
0.02710,3.06250,-4.49750,0.00000,-0.01220,0.01135,-0.98735,2023,6,12,13,46,38,792
0.02720,3.15000,-4.51500,0.00000,-0.01000,0.01074,-0.98942,2023,6,12,13,46,38,803
0.02730,3.06250,-4.48000,0.00000,-0.01098,0.01110,-0.98588,2023,6,12,13,46,38,814
0.02740,3.09750,-4.56750,0.00000,-0.01208,0.01025,-0.98735,2023,6,12,13,46,38,825
0.02750,3.04500,-4.74250,0.00000,-0.01025,0.01183,-0.98698,2023,6,12,13,46,38,836
0.02760,3.09750,-4.44500,0.00000,-0.00952,0.01293,-0.98759,2023,6,12,13,46,38,847
0.02770,3.01000,-4.62000,0.00000,-0.01074,0.01037,-0.98796,2023,6,12,13,46,38,858
0.02780,2.94000,-4.62000,0.00000,-0.01061,0.00976,-0.98857,2023,6,12,13,46,38,869
0.02790,2.90500,-4.53250,0.00000,-0.01110,0.00952,-0.98918,2023,6,12,13,46,38,880
0.02800,3.29000,-4.56750,0.00000,-0.01061,0.01037,-0.98954,2023,6,12,13,46,38,892
0.02810,3.04500,-4.53250,0.00000,-0.01318,0.01183,-0.98979,2023,6,12,13,46,38,903
0.02820,3.20250,-4.53250,0.00000,-0.00964,0.01171,-0.98783,2023,6,12,13,46,38,914
0.02830,3.16750,-4.65500,0.00000,-0.00964,0.01293,-0.99003,2023,6,12,13,46,38,925
0.02840,2.92250,-4.42750,0.00000,-0.01147,0.01098,-0.98759,2023,6,12,13,46,38,936
0.02850,3.09750,-4.65500,0.00000,-0.01000,0.01171,-0.98796,2023,6,12,13,46,38,947
0.02860,2.85250,-4.41000,0.00000,-0.01074,0.01074,-0.98796,2023,6,12,13,46,38,958
0.02870,3.18500,-4.74250,0.00000,-0.01061,0.01171,-0.99040,2023,6,12,13,46,38,969
0.02880,3.02750,-4.48000,0.00000,-0.01110,0.01183,-0.98698,2023,6,12,13,46,38,980
0.02890,3.11500,-4.48000,0.00000,-0.01037,0.01037,-0.99149,2023,6,12,13,46,39,2
0.02900,3.09750,-4.41000,0.00000,-0.01025,0.01159,-0.98869,2023,6,12,13,46,39,13
0.02910,3.18500,-4.86500,0.00000,-0.01049,0.01257,-0.98857,2023,6,12,13,46,39,24
0.02920,2.92250,-4.53250,0.00000,-0.01183,0.01159,-0.98686,2023,6,12,13,46,39,35
0.02930,3.15000,-4.79500,0.00000,-0.01257,0.01000,-0.98808,2023,6,12,13,46,39,46
0.02940,2.90500,-4.39250,0.00000,-0.01037,0.01244,-0.99076,2023,6,12,13,46,39,57
0.02950,2.99250,-4.60250,0.00000,-0.01000,0.01171,-0.98966,2023,6,12,13,46,39,68
0.02960,2.97500,-4.60250,0.00000,-0.01086,0.01122,-0.99125,2023,6,12,13,46,39,79
0.02970,3.04500,-4.48000,0.00000,-0.00964,0.00964,-0.99137,2023,6,12,13,46,39,90
0.02980,3.08000,-4.55000,0.00000,-0.00952,0.01220,-0.98783,2023,6,12,13,46,39,102
0.02990,2.78250,-4.51500,0.00000,-0.00817,0.01122,-0.98893,2023,6,12,13,46,39,113
0.03000,2.99250,-4.55000,0.00000,-0.01025,0.01110,-0.98613,2023,6,12,13,46,39,124
0.03010,3.08000,-4.63750,0.00000,-0.01049,0.01098,-0.99040,2023,6,12,13,46,39,135
0.03020,3.18500,-4.42750,0.00000,-0.01086,0.00891,-0.98966,2023,6,12,13,46,39,146
0.03030,2.99250,-4.48000,0.00000,-0.01159,0.01171,-0.99027,2023,6,12,13,46,39,157
0.03040,3.18500,-4.63750,0.00000,-0.00842,0.01196,-0.98930,2023,6,12,13,46,39,168
0.03050,3.08000,-4.62000,0.00000,-0.00939,0.01074,-0.98820,2023,6,12,13,46,39,179
0.03060,3.02750,-4.76000,0.00000,-0.01122,0.01183,-0.99076,2023,6,12,13,46,39,190
0.03070,3.01000,-4.35750,0.00000,-0.01061,0.01098,-0.99284,2023,6,12,13,46,39,202
0.03080,3.04500,-4.63750,0.00000,-0.00891,0.01135,-0.99101,2023,6,12,13,46,39,213
0.03090,3.20250,-4.55000,0.00000,-0.01049,0.01135,-0.98759,2023,6,12,13,46,39,224
0.03100,3.01000,-4.74250,0.00000,-0.01049,0.01135,-0.98722,2023,6,12,13,46,39,235
0.03110,3.02750,-4.60250,0.00000,-0.01098,0.01232,-0.99052,2023,6,12,13,46,39,246
0.03120,2.97500,-4.60250,0.00000,-0.00915,0.01220,-0.99247,2023,6,12,13,46,39,257
0.03130,3.08000,-4.79500,0.00000,-0.00878,0.01098,-0.98832,2023,6,12,13,46,39,268
0.03140,3.01000,-4.55000,0.00000,-0.00988,0.01122,-0.99015,2023,6,12,13,46,39,279
0.03150,3.01000,-4.51500,0.00000,-0.01257,0.00976,-0.98844,2023,6,12,13,46,39,290
0.03160,3.11500,-4.53250,0.00000,-0.00769,0.01122,-0.98783,2023,6,12,13,46,39,302
0.03170,3.22000,-4.62000,0.00000,-0.00891,0.01257,-0.98710,2023,6,12,13,46,39,313
0.03180,2.95750,-4.63750,0.00000,-0.00952,0.01196,-0.99125,2023,6,12,13,46,39,324
0.03190,3.09750,-4.58500,0.00000,-0.01110,0.01098,-0.99064,2023,6,12,13,46,39,335
0.03200,2.80000,-4.37500,0.00000,-0.00878,0.00915,-0.98771,2023,6,12,13,46,39,346
0.03210,3.04500,-4.70750,0.00000,-0.01244,0.00964,-0.98979,2023,6,12,13,46,39,357
0.03220,2.92250,-4.56750,0.00000,-0.01086,0.01330,-0.99125,2023,6,12,13,46,39,368
0.03230,3.18500,-4.56750,0.00000,-0.00708,0.00952,-0.98930,2023,6,12,13,46,39,379
0.03240,2.99250,-4.46250,0.00000,-0.00915,0.01220,-0.98625,2023,6,12,13,46,39,390
0.03250,3.08000,-4.58500,0.00000,-0.00952,0.01013,-0.99186,2023,6,12,13,46,39,402
0.03260,3.06250,-4.65500,0.00000,-0.00891,0.01159,-0.98783,2023,6,12,13,46,39,413
0.03270,2.87000,-4.51500,0.00000,-0.00988,0.01208,-0.98832,2023,6,12,13,46,39,424
0.03280,3.13250,-4.46250,0.00000,-0.00988,0.01000,-0.98771,2023,6,12,13,46,39,435
0.03290,3.27250,-4.56750,0.00000,-0.00927,0.00817,-0.98735,2023,6,12,13,46,39,446
0.03300,3.01000,-4.62000,0.00000,-0.01061,0.01244,-0.98966,2023,6,12,13,46,39,457
0.03310,3.06250,-4.63750,0.00000,-0.00805,0.01000,-0.98930,2023,6,12,13,46,39,468
0.03320,2.99250,-4.55000,0.00000,-0.00903,0.01098,-0.98600,2023,6,12,13,46,39,479
0.03330,3.15000,-4.55000,0.00000,-0.00878,0.01208,-0.99052,2023,6,12,13,46,39,490
0.03340,2.99250,-4.42750,0.00000,-0.01049,0.01147,-0.98759,2023,6,12,13,46,39,502
0.03350,3.06250,-4.48000,0.00000,-0.01061,0.01135,-0.99052,2023,6,12,13,46,39,513
0.03360,2.92250,-4.44500,0.00000,-0.01074,0.01122,-0.98515,2023,6,12,13,46,39,524
0.03370,2.95750,-4.48000,0.00000,-0.01232,0.01232,-0.98979,2023,6,12,13,46,39,535
0.03380,3.06250,-4.58500,0.00000,-0.01061,0.01110,-0.99137,2023,6,12,13,46,39,546
0.03390,3.01000,-4.65500,0.00000,-0.01293,0.01183,-0.98966,2023,6,12,13,46,39,557
0.03400,3.11500,-4.70750,0.00000,-0.01171,0.01281,-0.98759,2023,6,12,13,46,39,568
0.03410,3.02750,-4.44500,0.00000,-0.01196,0.01305,-0.99052,2023,6,12,13,46,39,579
0.03420,2.94000,-4.44500,0.00000,-0.01159,0.01171,-0.98954,2023,6,12,13,46,39,590
0.03430,3.01000,-4.56750,0.00000,-0.01098,0.01159,-0.98979,2023,6,12,13,46,39,602
0.03440,3.09750,-4.62000,0.00000,-0.01366,0.00952,-0.98942,2023,6,12,13,46,39,613
0.03450,3.13250,-4.60250,0.00000,-0.01281,0.01208,-0.99088,2023,6,12,13,46,39,624
0.03460,3.09750,-4.62000,0.00000,-0.01159,0.01037,-0.98930,2023,6,12,13,46,39,635
0.03470,3.02750,-4.60250,0.00000,-0.01208,0.01269,-0.98930,2023,6,12,13,46,39,646
0.03480,3.02750,-4.58500,0.00000,-0.01000,0.01171,-0.98905,2023,6,12,13,46,39,657
0.03490,3.09750,-4.65500,0.00000,-0.01257,0.00952,-0.98820,2023,6,12,13,46,39,668
0.03500,3.13250,-4.65500,0.00000,-0.00988,0.01196,-0.99064,2023,6,12,13,46,39,679
0.03510,3.06250,-4.65500,0.00000,-0.01135,0.01244,-0.98930,2023,6,12,13,46,39,690
0.03520,2.83500,-4.42750,0.00000,-0.01171,0.01171,-0.98686,2023,6,12,13,46,39,702
0.03530,2.95750,-4.42750,0.00000,-0.01037,0.01110,-0.98796,2023,6,12,13,46,39,713
0.03540,3.04500,-4.42750,0.00000,-0.01086,0.01159,-0.98930,2023,6,12,13,46,39,724
0.03550,2.95750,-4.39250,0.00000,-0.01196,0.01135,-0.98674,2023,6,12,13,46,39,735
0.03560,3.11500,-4.72500,0.00000,-0.01086,0.01135,-0.98820,2023,6,12,13,46,39,746
0.03570,3.01000,-4.62000,0.00000,-0.01110,0.01013,-0.98808,2023,6,12,13,46,39,757
0.03580,3.15000,-4.56750,0.00000,-0.01110,0.00903,-0.99088,2023,6,12,13,46,39,768
0.03590,3.06250,-4.44500,0.00000,-0.01061,0.00891,-0.98661,2023,6,12,13,46,39,779
0.03600,3.02750,-4.72500,0.00000,-0.01244,0.01135,-0.98686,2023,6,12,13,46,39,790
0.03610,3.06250,-4.67250,0.00000,-0.01257,0.01171,-0.98674,2023,6,12,13,46,39,802
0.03620,3.01000,-4.53250,0.00000,-0.01135,0.01110,-0.98869,2023,6,12,13,46,39,813
0.03630,3.11500,-4.77750,0.00000,-0.01049,0.01025,-0.98930,2023,6,12,13,46,39,824
0.03640,2.97500,-4.56750,0.00000,-0.01135,0.01171,-0.99027,2023,6,12,13,46,39,835
0.03650,3.27250,-4.58500,0.00000,-0.01098,0.01159,-0.98942,2023,6,12,13,46,39,846
0.03660,3.02750,-4.58500,0.00000,-0.01110,0.01000,-0.99186,2023,6,12,13,46,39,857
0.03670,3.01000,-4.60250,0.00000,-0.01183,0.01220,-0.99186,2023,6,12,13,46,39,868
0.03680,3.08000,-4.60250,0.00000,-0.00988,0.01086,-0.98930,2023,6,12,13,46,39,879
0.03690,3.13250,-4.81250,0.00000,-0.01049,0.01135,-0.98930,2023,6,12,13,46,39,890
0.03700,3.04500,-4.63750,0.00000,-0.01110,0.00939,-0.98674,2023,6,12,13,46,39,902
0.03710,2.95750,-4.23500,0.00000,-0.01183,0.01098,-0.98747,2023,6,12,13,46,39,913
0.03720,3.15000,-4.69000,0.00000,-0.00866,0.01086,-0.98857,2023,6,12,13,46,39,924
0.03730,3.11500,-4.65500,0.00000,-0.01135,0.01037,-0.98857,2023,6,12,13,46,39,935
0.03740,3.06250,-4.63750,0.00000,-0.01183,0.01196,-0.98844,2023,6,12,13,46,39,946
0.03750,3.02750,-4.55000,0.00000,-0.01086,0.01013,-0.98698,2023,6,12,13,46,39,957
0.03760,2.97500,-4.65500,0.00000,-0.01318,0.01269,-0.98771,2023,6,12,13,46,39,968
0.03770,2.97500,-4.58500,0.00000,-0.01025,0.01013,-0.99027,2023,6,12,13,46,40,9
0.03780,3.13250,-4.48000,0.00000,-0.01159,0.01171,-0.99064,2023,6,12,13,46,40,20
0.03790,3.22000,-4.79500,0.00000,-0.01208,0.01135,-0.98881,2023,6,12,13,46,40,32
0.03800,2.95750,-4.55000,0.00000,-0.01220,0.01403,-0.98881,2023,6,12,13,46,40,43
0.03810,3.04500,-4.49750,0.00000,-0.01135,0.01110,-0.99040,2023,6,12,13,46,40,54
0.03820,2.90500,-4.56750,0.00000,-0.01220,0.01135,-0.98857,2023,6,12,13,46,40,65
0.03830,2.99250,-4.63750,0.00000,-0.01159,0.01135,-0.98857,2023,6,12,13,46,40,76
0.03840,3.25500,-4.95250,0.00000,-0.01257,0.01171,-0.98942,2023,6,12,13,46,40,87
0.03850,3.11500,-4.77750,0.00000,-0.01110,0.01025,-0.99308,2023,6,12,13,46,40,98
0.03860,3.08000,-4.56750,0.00000,-0.01208,0.01000,-0.98930,2023,6,12,13,46,40,109
0.03870,3.04500,-4.65500,0.00000,-0.01171,0.00952,-0.99113,2023,6,12,13,46,40,120
0.03880,3.08000,-4.65500,0.00000,-0.01013,0.01000,-0.98918,2023,6,12,13,46,40,132
0.03890,3.18500,-4.70750,0.00000,-0.01098,0.01013,-0.99040,2023,6,12,13,46,40,143
0.03900,3.04500,-4.60250,0.00000,-0.01318,0.01098,-0.99149,2023,6,12,13,46,40,154
0.03910,3.08000,-4.44500,0.00000,-0.01208,0.01086,-0.98869,2023,6,12,13,46,40,165
0.03920,3.11500,-4.63750,0.00000,-0.01086,0.01074,-0.98991,2023,6,12,13,46,40,176
0.03930,3.13250,-4.58500,0.00000,-0.01281,0.01000,-0.98735,2023,6,12,13,46,40,187
0.03940,2.97500,-4.55000,0.00000,-0.01293,0.01049,-0.98796,2023,6,12,13,46,40,198
0.03950,2.90500,-4.63750,0.00000,-0.01257,0.00903,-0.98759,2023,6,12,13,46,40,209
0.03960,3.15000,-4.46250,0.00000,-0.01171,0.01086,-0.98905,2023,6,12,13,46,40,220
0.03970,3.04500,-4.63750,0.00000,-0.01171,0.01061,-0.98600,2023,6,12,13,46,40,232
0.03980,2.92250,-4.41000,0.00000,-0.01257,0.01049,-0.98576,2023,6,12,13,46,40,243
0.03990,3.08000,-4.56750,0.00000,-0.01061,0.01025,-0.98613,2023,6,12,13,46,40,254
0.04000,2.99250,-4.55000,0.00000,-0.01147,0.01464,-0.98783,2023,6,12,13,46,40,265
0.04010,3.15000,-4.58500,0.00000,-0.01183,0.01049,-0.99027,2023,6,12,13,46,40,276
0.04020,3.13250,-4.70750,0.00000,-0.01135,0.00830,-0.98820,2023,6,12,13,46,40,287
0.04030,3.15000,-4.56750,0.00000,-0.01208,0.00891,-0.98844,2023,6,12,13,46,40,298
0.04040,3.02750,-4.72500,0.00000,-0.01342,0.01318,-0.99064,2023,6,12,13,46,40,309
0.04050,3.06250,-4.60250,0.00000,-0.01061,0.01147,-0.99064,2023,6,12,13,46,40,320
0.04060,3.06250,-4.44500,0.00000,-0.01049,0.00793,-0.98893,2023,6,12,13,46,40,332
0.04070,3.09750,-4.56750,0.00000,-0.00817,0.01098,-0.98588,2023,6,12,13,46,40,343
0.04080,3.09750,-4.76000,0.00000,-0.01293,0.01061,-0.99174,2023,6,12,13,46,40,354
0.04090,3.08000,-4.49750,0.00000,-0.01293,0.00964,-0.98686,2023,6,12,13,46,40,365
0.04100,3.09750,-4.56750,0.00000,-0.01086,0.01147,-0.98954,2023,6,12,13,46,40,376
0.04110,3.01000,-4.48000,0.00000,-0.01293,0.01098,-0.98613,2023,6,12,13,46,40,387
0.04120,3.09750,-4.37500,0.00000,-0.00939,0.01061,-0.98783,2023,6,12,13,46,40,398
0.04130,3.13250,-4.49750,0.00000,-0.01000,0.01257,-0.98759,2023,6,12,13,46,40,409
0.04140,2.99250,-4.51500,0.00000,-0.01513,0.00976,-0.98905,2023,6,12,13,46,40,420
0.04150,2.85250,-4.74250,0.00000,-0.01025,0.00976,-0.99015,2023,6,12,13,46,40,432
0.04160,3.09750,-4.70750,0.00000,-0.00939,0.01013,-0.98649,2023,6,12,13,46,40,443
0.04170,2.97500,-4.56750,0.00000,-0.01183,0.01135,-0.98966,2023,6,12,13,46,40,454
0.04180,2.94000,-4.60250,0.00000,-0.01269,0.01061,-0.99040,2023,6,12,13,46,40,465
0.04190,3.16750,-4.77750,0.00000,-0.01061,0.01061,-0.99064,2023,6,12,13,46,40,476
0.04200,3.04500,-4.74250,0.00000,-0.01110,0.01061,-0.98808,2023,6,12,13,46,40,487
0.04210,3.15000,-4.55000,0.00000,-0.01232,0.00952,-0.98918,2023,6,12,13,46,40,498
0.04220,2.99250,-4.28750,0.00000,-0.01220,0.01025,-0.98893,2023,6,12,13,46,40,509
0.04230,3.13250,-4.69000,0.00000,-0.01183,0.01025,-0.98942,2023,6,12,13,46,40,520
0.04240,2.97500,-4.65500,0.00000,-0.01269,0.00781,-0.98796,2023,6,12,13,46,40,532
0.04250,3.09750,-4.51500,0.00000,-0.01244,0.01171,-0.98905,2023,6,12,13,46,40,543
0.04260,2.94000,-4.77750,0.00000,-0.00976,0.00915,-0.98637,2023,6,12,13,46,40,554
0.04270,3.06250,-4.49750,0.00000,-0.01183,0.01110,-0.98552,2023,6,12,13,46,40,565
0.04280,3.11500,-4.79500,0.00000,-0.01232,0.01135,-0.98552,2023,6,12,13,46,40,576
0.04290,2.99250,-4.35750,0.00000,-0.00988,0.01305,-0.98783,2023,6,12,13,46,40,587
0.04300,3.16750,-4.39250,0.00000,-0.01171,0.01025,-0.98454,2023,6,12,13,46,40,598
0.04310,3.22000,-4.42750,0.00000,-0.01232,0.00842,-0.98735,2023,6,12,13,46,40,609
0.04320,3.06250,-4.56750,0.00000,-0.01098,0.00903,-0.98930,2023,6,12,13,46,40,620
0.04330,3.06250,-4.65500,0.00000,-0.01110,0.01061,-0.98722,2023,6,12,13,46,40,632
0.04340,3.22000,-4.67250,0.00000,-0.01257,0.01208,-0.98759,2023,6,12,13,46,40,643
0.04350,3.13250,-4.53250,0.00000,-0.01354,0.01305,-0.99076,2023,6,12,13,46,40,654
0.04360,3.02750,-4.65500,0.00000,-0.01257,0.01013,-0.99015,2023,6,12,13,46,40,665
0.04370,3.06250,-4.69000,0.00000,-0.01208,0.00976,-0.98796,2023,6,12,13,46,40,676
0.04380,3.01000,-4.55000,0.00000,-0.01171,0.01293,-0.99284,2023,6,12,13,46,40,687
0.04390,3.22000,-4.62000,0.00000,-0.01318,0.01379,-0.98954,2023,6,12,13,46,40,698
0.04400,3.08000,-4.53250,0.00000,-0.01196,0.01049,-0.98832,2023,6,12,13,46,40,709
0.04410,3.01000,-4.60250,0.00000,-0.01427,0.01098,-0.98857,2023,6,12,13,46,40,720
0.04420,2.95750,-4.55000,0.00000,-0.01171,0.01025,-0.98954,2023,6,12,13,46,40,732
0.04430,3.06250,-4.44500,0.00000,-0.01183,0.00939,-0.98637,2023,6,12,13,46,40,743
0.04440,3.09750,-4.60250,0.00000,-0.01159,0.01208,-0.98698,2023,6,12,13,46,40,754
0.04450,2.99250,-4.53250,0.00000,-0.01220,0.00830,-0.98869,2023,6,12,13,46,40,765
0.04460,3.11500,-4.55000,0.00000,-0.01196,0.01122,-0.99003,2023,6,12,13,46,40,776
0.04470,2.88750,-4.62000,0.00000,-0.01171,0.01122,-0.98893,2023,6,12,13,46,40,787
0.04480,3.09750,-4.55000,0.00000,-0.01391,0.01122,-0.98747,2023,6,12,13,46,40,798
0.04490,3.29000,-4.55000,0.00000,-0.01061,0.00891,-0.99137,2023,6,12,13,46,40,809
0.04500,3.13250,-4.56750,0.00000,-0.01025,0.01049,-0.98942,2023,6,12,13,46,40,820
0.04510,2.83500,-4.58500,0.00000,-0.01122,0.00976,-0.98820,2023,6,12,13,46,40,832
0.04520,2.92250,-4.62000,0.00000,-0.01135,0.01086,-0.98515,2023,6,12,13,46,40,843
0.04530,3.01000,-4.65500,0.00000,-0.01232,0.01159,-0.98954,2023,6,12,13,46,40,854
0.04540,3.23750,-4.69000,0.00000,-0.01220,0.00952,-0.98942,2023,6,12,13,46,40,865
0.04550,3.08000,-4.70750,0.00000,-0.01354,0.01159,-0.98844,2023,6,12,13,46,40,876
0.04560,2.94000,-4.60250,0.00000,-0.01208,0.01135,-0.98979,2023,6,12,13,46,40,887
0.04570,2.99250,-4.53250,0.00000,-0.00952,0.01135,-0.98796,2023,6,12,13,46,40,898
0.04580,2.94000,-4.58500,0.00000,-0.01220,0.01159,-0.99040,2023,6,12,13,46,40,909
0.04590,2.95750,-4.56750,0.00000,-0.01086,0.00976,-0.98759,2023,6,12,13,46,40,920
0.04600,3.22000,-4.46250,0.00000,-0.01354,0.00927,-0.98991,2023,6,12,13,46,40,932
0.04610,2.81750,-4.62000,0.00000,-0.01427,0.01379,-0.98674,2023,6,12,13,46,40,943
0.04620,3.08000,-4.49750,0.00000,-0.00988,0.00939,-0.98698,2023,6,12,13,46,40,954
0.04630,3.08000,-4.55000,0.00000,-0.01135,0.01000,-0.98991,2023,6,12,13,46,40,965
0.04640,3.02750,-4.51500,0.00000,-0.01281,0.00964,-0.99198,2023,6,12,13,46,40,976
0.04650,3.01000,-4.42750,0.00000,-0.00903,0.01208,-0.98600,2023,6,12,13,46,40,987
0.04660,3.18500,-4.34000,0.00000,-0.01037,0.00939,-0.98686,2023,6,12,13,46,41,8
0.04670,3.02750,-4.67250,0.00000,-0.01220,0.01074,-0.98918,2023,6,12,13,46,41,19
0.04680,3.11500,-4.63750,0.00000,-0.01196,0.00988,-0.98820,2023,6,12,13,46,41,30
0.04690,3.01000,-4.72500,0.00000,-0.01061,0.01098,-0.98844,2023,6,12,13,46,41,42
0.04700,2.99250,-4.86500,0.00000,-0.01086,0.00952,-0.98979,2023,6,12,13,46,41,53
0.04710,2.73000,-4.28750,0.00000,-0.01110,0.00952,-0.98759,2023,6,12,13,46,41,64
0.04720,3.13250,-4.39250,0.00000,-0.00952,0.01220,-0.98783,2023,6,12,13,46,41,75
0.04730,3.11500,-4.67250,0.00000,-0.01366,0.01110,-0.99149,2023,6,12,13,46,41,86
0.04740,3.15000,-4.81250,0.00000,-0.01013,0.01244,-0.99003,2023,6,12,13,46,41,97
0.04750,3.13250,-4.58500,0.00000,-0.01293,0.01293,-0.98698,2023,6,12,13,46,41,108
0.04760,3.09750,-4.62000,0.00000,-0.01196,0.01061,-0.98844,2023,6,12,13,46,41,119
0.04770,2.99250,-4.49750,0.00000,-0.01074,0.01110,-0.98759,2023,6,12,13,46,41,130
0.04780,3.27250,-4.74250,0.00000,-0.01086,0.01159,-0.98832,2023,6,12,13,46,41,142
0.04790,3.01000,-4.48000,0.00000,-0.01025,0.01257,-0.98783,2023,6,12,13,46,41,153
0.04800,3.16750,-4.53250,0.00000,-0.01110,0.00939,-0.98844,2023,6,12,13,46,41,164
0.04810,3.04500,-4.51500,0.00000,-0.01159,0.01098,-0.99137,2023,6,12,13,46,41,175
0.04820,3.02750,-4.58500,0.00000,-0.01135,0.01122,-0.98857,2023,6,12,13,46,41,186
0.04830,2.97500,-4.44500,0.00000,-0.01220,0.01086,-0.98698,2023,6,12,13,46,41,197
0.04840,3.22000,-4.49750,0.00000,-0.01098,0.01135,-0.98625,2023,6,12,13,46,41,208
0.04850,3.01000,-4.49750,0.00000,-0.00915,0.00976,-0.98930,2023,6,12,13,46,41,219
0.04860,3.15000,-4.44500,0.00000,-0.01061,0.01135,-0.98759,2023,6,12,13,46,41,230
0.04870,2.99250,-4.56750,0.00000,-0.01232,0.01147,-0.99003,2023,6,12,13,46,41,242
0.04880,3.11500,-4.55000,0.00000,-0.01122,0.01110,-0.98966,2023,6,12,13,46,41,253
0.04890,3.13250,-4.39250,0.00000,-0.01208,0.01098,-0.98649,2023,6,12,13,46,41,264
0.04900,3.25500,-4.44500,0.00000,-0.01171,0.01122,-0.98869,2023,6,12,13,46,41,275
0.04910,3.20250,-4.63750,0.00000,-0.01269,0.00830,-0.99052,2023,6,12,13,46,41,286
0.04920,3.11500,-4.53250,0.00000,-0.01318,0.01098,-0.98637,2023,6,12,13,46,41,297
0.04930,3.06250,-4.44500,0.00000,-0.01110,0.01135,-0.98979,2023,6,12,13,46,41,308
0.04940,3.09750,-4.58500,0.00000,-0.01147,0.01086,-0.98515,2023,6,12,13,46,41,319
0.04950,2.97500,-4.79500,0.00000,-0.00988,0.01147,-0.98710,2023,6,12,13,46,41,330
0.04960,3.08000,-4.51500,0.00000,-0.01305,0.01061,-0.98869,2023,6,12,13,46,41,342
0.04970,2.94000,-4.48000,0.00000,-0.01098,0.01244,-0.98979,2023,6,12,13,46,41,353
0.04980,2.99250,-4.42750,0.00000,-0.01244,0.01147,-0.98783,2023,6,12,13,46,41,364
0.04990,2.92250,-4.60250,0.00000,-0.01232,0.01061,-0.99137,2023,6,12,13,46,41,375
0.05000,2.95750,-4.76000,0.00000,-0.01122,0.01037,-0.98783,2023,6,12,13,46,41,386
0.05010,2.90500,-4.67250,0.00000,-0.01135,0.01147,-0.98930,2023,6,12,13,46,41,397
0.05020,3.06250,-4.34000,0.00000,-0.00988,0.01110,-0.98942,2023,6,12,13,46,41,408
0.05030,3.06250,-4.46250,0.00000,-0.01074,0.01013,-0.98686,2023,6,12,13,46,41,419
0.05040,3.06250,-4.70750,0.00000,-0.01122,0.01049,-0.99162,2023,6,12,13,46,41,430
0.05050,2.90500,-4.65500,0.00000,-0.01122,0.01098,-0.98783,2023,6,12,13,46,41,442
0.05060,3.08000,-4.48000,0.00000,-0.01354,0.01110,-0.99052,2023,6,12,13,46,41,453
0.05070,3.09750,-4.67250,0.00000,-0.01086,0.01171,-0.98844,2023,6,12,13,46,41,464
0.05080,3.43000,-4.60250,0.00000,-0.01147,0.01135,-0.98808,2023,6,12,13,46,41,475
0.05090,2.94000,-4.25250,0.00000,-0.01061,0.01098,-0.98966,2023,6,12,13,46,41,486
0.05100,2.83500,-4.56750,0.00000,-0.01122,0.01098,-0.99027,2023,6,12,13,46,41,497
0.05110,3.11500,-4.51500,0.00000,-0.01171,0.01183,-0.98893,2023,6,12,13,46,41,508
0.05120,2.90500,-4.62000,0.00000,-0.01159,0.00988,-0.98820,2023,6,12,13,46,41,519
0.05130,2.87000,-4.39250,0.00000,-0.01061,0.01318,-0.98930,2023,6,12,13,46,41,530
0.05140,3.16750,-4.62000,0.00000,-0.01074,0.01049,-0.98979,2023,6,12,13,46,41,542
0.05150,2.88750,-4.42750,0.00000,-0.01135,0.01208,-0.98771,2023,6,12,13,46,41,553
0.05160,3.04500,-4.62000,0.00000,-0.01000,0.00976,-0.99052,2023,6,12,13,46,41,564
0.05170,3.08000,-4.69000,0.00000,-0.01159,0.01122,-0.98918,2023,6,12,13,46,41,575
0.05180,3.15000,-4.74250,0.00000,-0.01208,0.01110,-0.99052,2023,6,12,13,46,41,586
0.05190,2.97500,-4.55000,0.00000,-0.01208,0.01000,-0.98893,2023,6,12,13,46,41,597
0.05200,3.08000,-4.53250,0.00000,-0.01379,0.00854,-0.99076,2023,6,12,13,46,41,608
0.05210,2.97500,-4.72500,0.00000,-0.01244,0.01098,-0.98747,2023,6,12,13,46,41,619
0.05220,3.13250,-4.65500,0.00000,-0.01208,0.01049,-0.99064,2023,6,12,13,46,41,630
0.05230,2.95750,-4.62000,0.00000,-0.01049,0.01183,-0.99052,2023,6,12,13,46,41,642
0.05240,3.15000,-4.62000,0.00000,-0.01159,0.01025,-0.98844,2023,6,12,13,46,41,653
0.05250,3.20250,-4.48000,0.00000,-0.01061,0.01159,-0.98808,2023,6,12,13,46,41,664
0.05260,3.16750,-4.70750,0.00000,-0.01305,0.00988,-0.98820,2023,6,12,13,46,41,675
0.05270,3.08000,-4.76000,0.00000,-0.01183,0.01074,-0.98832,2023,6,12,13,46,41,686
0.05280,3.01000,-4.72500,0.00000,-0.01281,0.00964,-0.98820,2023,6,12,13,46,41,697
0.05290,3.11500,-4.63750,0.00000,-0.01086,0.01171,-0.98759,2023,6,12,13,46,41,708
0.05300,3.01000,-4.51500,0.00000,-0.01281,0.01037,-0.98747,2023,6,12,13,46,41,719
0.05310,2.90500,-4.58500,0.00000,-0.01049,0.01025,-0.98893,2023,6,12,13,46,41,730
0.05320,2.97500,-4.28750,0.00000,-0.01196,0.01025,-0.98991,2023,6,12,13,46,41,742
0.05330,3.02750,-4.74250,0.00000,-0.01147,0.01147,-0.99052,2023,6,12,13,46,41,753
0.05340,3.16750,-4.76000,0.00000,-0.01122,0.01257,-0.98869,2023,6,12,13,46,41,764
0.05350,2.95750,-4.67250,0.00000,-0.01220,0.01037,-0.99027,2023,6,12,13,46,41,775
0.05360,2.99250,-4.69000,0.00000,-0.01427,0.00939,-0.98637,2023,6,12,13,46,41,786
0.05370,2.76500,-4.65500,0.00000,-0.01171,0.01000,-0.98710,2023,6,12,13,46,41,797
0.05380,2.90500,-4.53250,0.00000,-0.01086,0.01037,-0.98918,2023,6,12,13,46,41,808
0.05390,3.09750,-4.62000,0.00000,-0.01171,0.00805,-0.98698,2023,6,12,13,46,41,819
0.05400,3.13250,-4.70750,0.00000,-0.01147,0.00927,-0.98564,2023,6,12,13,46,41,830
0.05410,3.09750,-4.46250,0.00000,-0.01110,0.00976,-0.99223,2023,6,12,13,46,41,842
0.05420,3.02750,-4.48000,0.00000,-0.01159,0.01098,-0.98796,2023,6,12,13,46,41,853
0.05430,3.02750,-4.55000,0.00000,-0.01208,0.01037,-0.99027,2023,6,12,13,46,41,864
0.05440,3.01000,-4.48000,0.00000,-0.01293,0.01196,-0.98759,2023,6,12,13,46,41,875
0.05450,2.95750,-4.37500,0.00000,-0.01208,0.01098,-0.98783,2023,6,12,13,46,41,886
0.05460,2.99250,-4.70750,0.00000,-0.01086,0.01147,-0.98759,2023,6,12,13,46,41,897
0.05470,3.06250,-4.34000,0.00000,-0.01342,0.01037,-0.98796,2023,6,12,13,46,41,908
0.05480,3.08000,-4.55000,0.00000,-0.01110,0.01086,-0.98771,2023,6,12,13,46,41,919
0.05490,3.13250,-4.51500,0.00000,-0.01269,0.01196,-0.98905,2023,6,12,13,46,41,930
0.05500,2.94000,-4.55000,0.00000,-0.01147,0.01000,-0.98698,2023,6,12,13,46,41,942
0.05510,2.95750,-4.65500,0.00000,-0.01122,0.01171,-0.98783,2023,6,12,13,46,41,953
0.05520,3.01000,-4.69000,0.00000,-0.01074,0.01000,-0.98844,2023,6,12,13,46,41,964
0.05530,3.01000,-4.51500,0.00000,-0.01269,0.01098,-0.98649,2023,6,12,13,46,42,5
0.05540,3.08000,-4.56750,0.00000,-0.01013,0.01122,-0.99052,2023,6,12,13,46,42,16
0.05550,3.06250,-4.65500,0.00000,-0.01305,0.01049,-0.98991,2023,6,12,13,46,42,27
0.05560,3.16750,-4.65500,0.00000,-0.01159,0.01135,-0.98637,2023,6,12,13,46,42,38
0.05570,2.99250,-4.74250,0.00000,-0.01037,0.01013,-0.99015,2023,6,12,13,46,42,49
0.05580,2.85250,-4.56750,0.00000,-0.01159,0.01049,-0.98893,2023,6,12,13,46,42,60
0.05590,2.95750,-4.67250,0.00000,-0.01244,0.01159,-0.98905,2023,6,12,13,46,42,72
0.05600,2.87000,-4.37500,0.00000,-0.01122,0.00988,-0.98686,2023,6,12,13,46,42,83
0.05610,3.29000,-4.53250,0.00000,-0.01366,0.00976,-0.98661,2023,6,12,13,46,42,94
0.05620,2.97500,-4.56750,0.00000,-0.01208,0.01098,-0.98832,2023,6,12,13,46,42,105
0.05630,2.90500,-4.55000,0.00000,-0.01122,0.01061,-0.98759,2023,6,12,13,46,42,116
0.05640,3.13250,-4.67250,0.00000,-0.01061,0.01110,-0.98796,2023,6,12,13,46,42,127
0.05650,2.94000,-4.55000,0.00000,-0.01196,0.01086,-0.98857,2023,6,12,13,46,42,138
0.05660,3.13250,-4.49750,0.00000,-0.01147,0.01000,-0.98722,2023,6,12,13,46,42,149
0.05670,3.02750,-4.60250,0.00000,-0.01318,0.01196,-0.98820,2023,6,12,13,46,42,160
0.05680,3.16750,-4.48000,0.00000,-0.01110,0.01122,-0.99076,2023,6,12,13,46,42,172
0.05690,3.08000,-4.70750,0.00000,-0.01257,0.01025,-0.98637,2023,6,12,13,46,42,183
0.05700,3.06250,-4.51500,0.00000,-0.01257,0.01135,-0.98893,2023,6,12,13,46,42,194
0.05710,2.97500,-4.48000,0.00000,-0.01049,0.01000,-0.99003,2023,6,12,13,46,42,205
0.05720,3.08000,-4.95250,0.00000,-0.00952,0.01000,-0.98808,2023,6,12,13,46,42,216
0.05730,3.06250,-4.70750,0.00000,-0.01354,0.01171,-0.98771,2023,6,12,13,46,42,227
0.05740,3.02750,-4.23500,0.00000,-0.01208,0.01037,-0.99088,2023,6,12,13,46,42,238
0.05750,3.01000,-4.56750,0.00000,-0.01330,0.01025,-0.98564,2023,6,12,13,46,42,249
0.05760,3.11500,-4.55000,0.00000,-0.01354,0.01086,-0.98735,2023,6,12,13,46,42,260
0.05770,3.08000,-4.63750,0.00000,-0.00903,0.00915,-0.98588,2023,6,12,13,46,42,272
0.05780,3.18500,-4.67250,0.00000,-0.01232,0.01318,-0.98942,2023,6,12,13,46,42,283
0.05790,3.08000,-4.55000,0.00000,-0.00854,0.01025,-0.98564,2023,6,12,13,46,42,294
#2023/06/12 13:46:42
