#2023/06/12 13:54:27
time,wx,wy,wz,ax,ay,az,yy,MM,dd,hh,mm,ss,ms
0.07430,2.99250,-4.76000,0.00000,-0.01293,0.01061,-0.98930,2023,6,12,13,54,27,923
0.07440,3.22000,-4.81250,0.00000,-0.01220,0.01013,-0.98966,2023,6,12,13,54,27,934
0.07450,3.01000,-4.53250,0.00000,-0.00927,0.01208,-0.98820,2023,6,12,13,54,27,945
0.07460,2.73000,-4.60250,0.00000,-0.00952,0.00915,-0.98710,2023,6,12,13,54,27,956
0.07470,2.95750,-4.58500,0.00000,-0.01000,0.01196,-0.98783,2023,6,12,13,54,27,967
0.07480,2.80000,-4.39250,0.00000,-0.01147,0.01244,-0.98796,2023,6,12,13,54,27,978
0.07490,2.94000,-4.56750,0.00000,-0.01147,0.01269,-0.98893,2023,6,12,13,54,27,989
0.07500,2.95750,-4.62000,0.00000,-0.01037,0.01135,-0.98771,2023,6,12,13,54,27,0
0.07510,3.04500,-4.81250,0.00000,-0.01013,0.01232,-0.98674,2023,6,12,13,54,27,11
0.07520,2.92250,-4.69000,0.00000,-0.01171,0.01061,-0.98942,2023,6,12,13,54,27,22
0.07530,2.99250,-4.30500,0.00000,-0.01061,0.01086,-0.98600,2023,6,12,13,54,27,34
0.07540,2.92250,-4.32250,0.00000,-0.01196,0.01049,-0.98783,2023,6,12,13,54,27,45
0.07550,2.99250,-4.74250,0.00000,-0.01135,0.01171,-0.98515,2023,6,12,13,54,27,56
0.07560,2.88750,-4.62000,0.00000,-0.01122,0.01037,-0.98710,2023,6,12,13,54,27,67
0.07570,2.87000,-4.62000,0.00000,-0.01086,0.01366,-0.98979,2023,6,12,13,54,27,78
0.07580,2.95750,-4.51500,0.00000,-0.01098,0.01061,-0.99149,2023,6,12,13,54,27,89
0.07590,2.80000,-4.60250,0.00000,-0.01232,0.01013,-0.98844,2023,6,12,13,54,27,100
0.07600,2.94000,-4.58500,0.00000,-0.00988,0.01074,-0.98881,2023,6,12,13,54,27,111
0.07610,3.01000,-4.67250,0.00000,-0.01122,0.01037,-0.98844,2023,6,12,13,54,27,122
0.07620,3.09750,-4.53250,0.00000,-0.01110,0.01122,-0.98661,2023,6,12,13,54,27,134
0.07630,2.95750,-4.49750,0.00000,-0.01159,0.01183,-0.98930,2023,6,12,13,54,27,145
0.07640,2.88750,-4.30500,0.00000,-0.01037,0.01135,-0.98735,2023,6,12,13,54,27,156
0.07650,2.94000,-4.44500,0.00000,-0.01110,0.01208,-0.98832,2023,6,12,13,54,27,167
0.07660,2.80000,-4.67250,0.00000,-0.01025,0.01183,-0.98881,2023,6,12,13,54,27,178
0.07670,2.94000,-4.46250,0.00000,-0.00878,0.01098,-0.98698,2023,6,12,13,54,27,189
0.07680,2.88750,-4.55000,0.00000,-0.01086,0.01000,-0.98466,2023,6,12,13,54,27,200
0.07690,2.99250,-4.65500,0.00000,-0.01013,0.01220,-0.98613,2023,6,12,13,54,27,211
0.07700,2.94000,-4.58500,0.00000,-0.00891,0.01281,-0.99040,2023,6,12,13,54,27,222
0.07710,2.90500,-4.58500,0.00000,-0.01232,0.01074,-0.98747,2023,6,12,13,54,27,234
0.07720,2.88750,-4.60250,0.00000,-0.01318,0.01147,-0.98564,2023,6,12,13,54,27,245
0.07730,2.95750,-4.46250,0.00000,-0.01000,0.01122,-0.98625,2023,6,12,13,54,27,256
0.07740,2.95750,-4.62000,0.00000,-0.00939,0.01232,-0.98674,2023,6,12,13,54,27,267
0.07750,2.90500,-4.63750,0.00000,-0.01122,0.01305,-0.99198,2023,6,12,13,54,27,278
0.07760,2.92250,-4.53250,0.00000,-0.01135,0.01098,-0.98710,2023,6,12,13,54,27,289
0.07770,2.73000,-4.41000,0.00000,-0.01098,0.01110,-0.98783,2023,6,12,13,54,27,300
0.07780,2.88750,-4.51500,0.00000,-0.01098,0.01086,-0.98637,2023,6,12,13,54,28,1
0.07790,2.80000,-4.39250,0.00000,-0.01244,0.01403,-0.99064,2023,6,12,13,54,28,12
0.07800,2.99250,-4.81250,0.00000,-0.01061,0.01086,-0.98783,2023,6,12,13,54,28,24
0.07810,3.06250,-4.48000,0.00000,-0.01098,0.01171,-0.98832,2023,6,12,13,54,28,35
0.07820,3.01000,-4.76000,0.00000,-0.01086,0.01171,-0.99125,2023,6,12,13,54,28,46
0.07830,2.80000,-4.48000,0.00000,-0.01220,0.01269,-0.98844,2023,6,12,13,54,28,57
0.07840,2.80000,-4.48000,0.00000,-0.01098,0.01281,-0.99003,2023,6,12,13,54,28,68
0.07850,2.95750,-4.56750,0.00000,-0.01269,0.01013,-0.98735,2023,6,12,13,54,28,79
0.07860,2.95750,-4.41000,0.00000,-0.00927,0.01220,-0.98710,2023,6,12,13,54,28,90
0.07870,3.15000,-4.60250,0.00000,-0.01220,0.01086,-0.98210,2023,6,12,13,54,28,101
0.07880,2.88750,-4.53250,0.00000,-0.01183,0.01110,-0.98808,2023,6,12,13,54,28,112
0.07890,2.87000,-4.35750,0.00000,-0.01110,0.01208,-0.98759,2023,6,12,13,54,28,124
0.07900,2.81750,-4.51500,0.00000,-0.01171,0.01122,-0.98564,2023,6,12,13,54,28,135
0.07910,3.11500,-4.55000,0.00000,-0.01061,0.01013,-0.98808,2023,6,12,13,54,28,146
0.07920,2.67750,-4.48000,0.00000,-0.01135,0.01086,-0.98893,2023,6,12,13,54,28,157
0.07930,2.90500,-4.44500,0.00000,-0.01196,0.01122,-0.98649,2023,6,12,13,54,28,168
0.07940,3.01000,-4.60250,0.00000,-0.01122,0.01061,-0.98783,2023,6,12,13,54,28,179
0.07950,2.85250,-4.76000,0.00000,-0.01147,0.01013,-0.98783,2023,6,12,13,54,28,190
0.07960,3.08000,-4.62000,0.00000,-0.01049,0.01391,-0.98735,2023,6,12,13,54,28,201
0.07970,2.95750,-4.51500,0.00000,-0.00976,0.01159,-0.98686,2023,6,12,13,54,28,212
0.07980,2.85250,-4.63750,0.00000,-0.00976,0.01183,-0.98905,2023,6,12,13,54,28,224
0.07990,3.11500,-4.67250,0.00000,-0.01086,0.01086,-0.98417,2023,6,12,13,54,28,235
0.08000,2.97500,-4.65500,0.00000,-0.01061,0.01318,-0.98686,2023,6,12,13,54,28,246
0.08010,2.95750,-4.65500,0.00000,-0.00988,0.01488,-0.98747,2023,6,12,13,54,28,257
0.08020,2.80000,-4.32250,0.00000,-0.01098,0.01098,-0.98637,2023,6,12,13,54,28,268
0.08030,2.88750,-4.67250,0.00000,-0.01074,0.01196,-0.98710,2023,6,12,13,54,28,279
0.08040,2.97500,-4.65500,0.00000,-0.01086,0.01354,-0.98869,2023,6,12,13,54,28,290
0.08050,2.99250,-4.60250,0.00000,-0.00976,0.00988,-0.98942,2023,6,12,13,54,28,301
0.08060,2.95750,-4.60250,0.00000,-0.01208,0.01122,-0.98893,2023,6,12,13,54,28,312
0.08070,2.97500,-4.65500,0.00000,-0.01147,0.01171,-0.98722,2023,6,12,13,54,28,324
0.08080,3.02750,-4.63750,0.00000,-0.01220,0.01037,-0.99027,2023,6,12,13,54,28,335
0.08090,2.83500,-4.53250,0.00000,-0.01318,0.01122,-0.98710,2023,6,12,13,54,28,346
0.08100,3.04500,-4.65500,0.00000,-0.01196,0.01049,-0.98686,2023,6,12,13,54,28,357
0.08110,2.80000,-4.56750,0.00000,-0.00988,0.01183,-0.98844,2023,6,12,13,54,28,368
0.08120,3.09750,-4.60250,0.00000,-0.01074,0.01061,-0.98881,2023,6,12,13,54,28,379
0.08130,2.81750,-4.60250,0.00000,-0.01110,0.00915,-0.98649,2023,6,12,13,54,28,390
0.08140,2.81750,-4.65500,0.00000,-0.01159,0.01196,-0.98747,2023,6,12,13,54,28,401
0.08150,3.09750,-4.90000,0.00000,-0.01037,0.01208,-0.99052,2023,6,12,13,54,28,412
0.08160,3.09750,-4.76000,0.00000,-0.01013,0.01049,-0.98686,2023,6,12,13,54,28,424
0.08170,2.94000,-4.65500,0.00000,-0.00891,0.01074,-0.98637,2023,6,12,13,54,28,435
0.08180,3.13250,-4.63750,0.00000,-0.01061,0.01061,-0.98710,2023,6,12,13,54,28,446
0.08190,2.92250,-4.63750,0.00000,-0.01037,0.01366,-0.98686,2023,6,12,13,54,28,457
0.08200,2.99250,-4.58500,0.00000,-0.01159,0.01244,-0.98869,2023,6,12,13,54,28,468
0.08210,2.92250,-4.58500,0.00000,-0.00976,0.01391,-0.98637,2023,6,12,13,54,28,479
0.08220,3.01000,-4.51500,0.00000,-0.01110,0.01122,-0.98527,2023,6,12,13,54,28,490
0.08230,2.94000,-4.63750,0.00000,-0.01037,0.01196,-0.98649,2023,6,12,13,54,28,501
0.08240,3.01000,-4.63750,0.00000,-0.01000,0.01000,-0.98637,2023,6,12,13,54,28,512
0.08250,3.04500,-4.67250,0.00000,-0.00988,0.01037,-0.98649,2023,6,12,13,54,28,524
0.08260,2.81750,-4.62000,0.00000,-0.01037,0.01159,-0.98710,2023,6,12,13,54,28,535
0.08270,2.97500,-4.39250,0.00000,-0.01135,0.01074,-0.98722,2023,6,12,13,54,28,546
0.08280,2.94000,-4.51500,0.00000,-0.01183,0.00903,-0.98808,2023,6,12,13,54,28,557
0.08290,3.01000,-4.79500,0.00000,-0.01025,0.01171,-0.98820,2023,6,12,13,54,28,568
0.08300,2.88750,-4.56750,0.00000,-0.01196,0.01171,-0.99113,2023,6,12,13,54,28,579
0.08310,2.92250,-4.63750,0.00000,-0.01074,0.01257,-0.98661,2023,6,12,13,54,28,590
0.08320,3.02750,-4.62000,0.00000,-0.00964,0.01269,-0.98832,2023,6,12,13,54,28,601
0.08330,2.99250,-4.63750,0.00000,-0.01196,0.00903,-0.98649,2023,6,12,13,54,28,612
0.08340,2.85250,-4.72500,0.00000,-0.01147,0.01220,-0.98735,2023,6,12,13,54,28,624
0.08350,2.71250,-4.42750,0.00000,-0.01049,0.01244,-0.98869,2023,6,12,13,54,28,635
0.08360,2.92250,-4.62000,0.00000,-0.00964,0.00866,-0.98942,2023,6,12,13,54,28,646
0.08370,3.20250,-4.51500,0.00000,-0.01098,0.01208,-0.98844,2023,6,12,13,54,28,657
0.08380,3.08000,-4.56750,0.00000,-0.01061,0.00964,-0.98747,2023,6,12,13,54,28,668
0.08390,2.88750,-4.62000,0.00000,-0.01086,0.01391,-0.98954,2023,6,12,13,54,28,679
0.08400,2.99250,-4.74250,0.00000,-0.01135,0.01269,-0.98881,2023,6,12,13,54,28,690
0.08410,2.80000,-4.81250,0.00000,-0.01086,0.01196,-0.98820,2023,6,12,13,54,28,701
0.08420,2.95750,-4.51500,0.00000,-0.01147,0.01318,-0.98796,2023,6,12,13,54,28,712
0.08430,2.97500,-4.72500,0.00000,-0.01135,0.00988,-0.98735,2023,6,12,13,54,28,724
0.08440,2.78250,-4.37500,0.00000,-0.00891,0.01086,-0.98576,2023,6,12,13,54,28,735
0.08450,2.87000,-4.53250,0.00000,-0.01159,0.01110,-0.98710,2023,6,12,13,54,28,746
0.08460,3.08000,-4.70750,0.00000,-0.00915,0.00939,-0.98735,2023,6,12,13,54,28,757
0.08470,2.99250,-4.62000,0.00000,-0.00939,0.01110,-0.98527,2023,6,12,13,54,28,768
0.08480,3.01000,-4.70750,0.00000,-0.01025,0.01122,-0.98796,2023,6,12,13,54,28,779
0.08490,2.97500,-4.79500,0.00000,-0.01000,0.01000,-0.98771,2023,6,12,13,54,28,790
0.08500,3.01000,-4.58500,0.00000,-0.01110,0.01122,-0.98869,2023,6,12,13,54,28,801
0.08510,3.01000,-4.51500,0.00000,-0.01281,0.01208,-0.98747,2023,6,12,13,54,28,812
0.08520,2.95750,-4.76000,0.00000,-0.01244,0.01025,-0.98796,2023,6,12,13,54,28,824
0.08530,2.81750,-4.58500,0.00000,-0.01037,0.00915,-0.98698,2023,6,12,13,54,28,835
0.08540,3.02750,-4.69000,0.00000,-0.01196,0.01086,-0.98649,2023,6,12,13,54,28,846
0.08550,3.02750,-4.46250,0.00000,-0.00964,0.01135,-0.98796,2023,6,12,13,54,28,857
0.08560,2.90500,-4.60250,0.00000,-0.01159,0.01183,-0.98808,2023,6,12,13,54,28,868
0.08570,3.09750,-4.70750,0.00000,-0.01025,0.01122,-0.98808,2023,6,12,13,54,28,879
0.08580,3.02750,-4.62000,0.00000,-0.01098,0.01171,-0.98881,2023,6,12,13,54,28,890
0.08590,3.15000,-4.65500,0.00000,-0.01159,0.01110,-0.98649,2023,6,12,13,54,28,901
0.08600,2.88750,-4.55000,0.00000,-0.01037,0.01159,-0.98759,2023,6,12,13,54,28,912
0.08610,3.01000,-4.51500,0.00000,-0.00988,0.01086,-0.98600,2023,6,12,13,54,28,924
0.08620,2.97500,-4.70750,0.00000,-0.01183,0.00976,-0.98661,2023,6,12,13,54,28,935
0.08630,2.94000,-4.39250,0.00000,-0.00903,0.01147,-0.98722,2023,6,12,13,54,28,946
0.08640,2.85250,-4.63750,0.00000,-0.01220,0.01183,-0.98918,2023,6,12,13,54,28,957
0.08650,2.97500,-4.65500,0.00000,-0.00805,0.01354,-0.98820,2023,6,12,13,54,28,968
0.08660,3.01000,-4.63750,0.00000,-0.00939,0.01379,-0.98844,2023,6,12,13,54,29,9
0.08670,3.06250,-4.51500,0.00000,-0.01061,0.01025,-0.98759,2023,6,12,13,54,29,20
0.08680,3.06250,-4.72500,0.00000,-0.01037,0.01232,-0.99162,2023,6,12,13,54,29,31
0.08690,3.15000,-4.72500,0.00000,-0.01061,0.00976,-0.98625,2023,6,12,13,54,29,42
0.08700,2.97500,-4.60250,0.00000,-0.01122,0.01183,-0.98674,2023,6,12,13,54,29,54
0.08710,2.95750,-4.60250,0.00000,-0.01232,0.01293,-0.98564,2023,6,12,13,54,29,65
0.08720,2.97500,-4.65500,0.00000,-0.01403,0.01147,-0.98893,2023,6,12,13,54,29,76
0.08730,2.99250,-4.70750,0.00000,-0.01110,0.01257,-0.98844,2023,6,12,13,54,29,87
0.08740,3.15000,-4.62000,0.00000,-0.01159,0.01147,-0.98698,2023,6,12,13,54,29,98
0.08750,2.97500,-4.62000,0.00000,-0.01061,0.01330,-0.98930,2023,6,12,13,54,29,109
0.08760,2.83500,-4.58500,0.00000,-0.01013,0.01232,-0.98783,2023,6,12,13,54,29,120
0.08770,2.88750,-4.77750,0.00000,-0.01183,0.00927,-0.98759,2023,6,12,13,54,29,131
0.08780,3.11500,-4.32250,0.00000,-0.01086,0.01122,-0.98625,2023,6,12,13,54,29,142
0.08790,3.18500,-4.65500,0.00000,-0.01086,0.01061,-0.99088,2023,6,12,13,54,29,154
0.08800,3.04500,-4.44500,0.00000,-0.01122,0.01025,-0.98759,2023,6,12,13,54,29,165
0.08810,3.01000,-4.62000,0.00000,-0.01110,0.01147,-0.98930,2023,6,12,13,54,29,176
0.08820,2.95750,-4.49750,0.00000,-0.01037,0.01049,-0.98771,2023,6,12,13,54,29,187
0.08830,3.06250,-4.35750,0.00000,-0.01061,0.01525,-0.98820,2023,6,12,13,54,29,198
0.08840,3.29000,-4.60250,0.00000,-0.01257,0.01086,-0.98613,2023,6,12,13,54,29,209
0.08850,2.92250,-4.79500,0.00000,-0.01049,0.00939,-0.98637,2023,6,12,13,54,29,220
0.08860,2.90500,-4.53250,0.00000,-0.01098,0.01086,-0.99015,2023,6,12,13,54,29,231
0.08870,3.23750,-4.58500,0.00000,-0.01037,0.01269,-0.98771,2023,6,12,13,54,29,242
0.08880,2.95750,-4.69000,0.00000,-0.01183,0.01135,-0.99113,2023,6,12,13,54,29,254
0.08890,2.90500,-4.63750,0.00000,-0.01049,0.01366,-0.98722,2023,6,12,13,54,29,265
0.08900,2.92250,-4.65500,0.00000,-0.01208,0.01220,-0.98869,2023,6,12,13,54,29,276
0.08910,2.78250,-4.55000,0.00000,-0.01147,0.01196,-0.98942,2023,6,12,13,54,29,287
0.08920,3.15000,-4.62000,0.00000,-0.01013,0.01196,-0.98649,2023,6,12,13,54,29,298
0.08930,3.06250,-4.67250,0.00000,-0.01110,0.00964,-0.98759,2023,6,12,13,54,29,309
0.08940,2.88750,-4.51500,0.00000,-0.01037,0.00891,-0.98881,2023,6,12,13,54,29,320
0.08950,2.90500,-4.77750,0.00000,-0.00988,0.00866,-0.98637,2023,6,12,13,54,29,331
0.08960,2.90500,-4.58500,0.00000,-0.01110,0.00964,-0.98661,2023,6,12,13,54,29,342
0.08970,3.18500,-4.77750,0.00000,-0.01061,0.01330,-0.98893,2023,6,12,13,54,29,354
0.08980,3.02750,-4.53250,0.00000,-0.01025,0.01061,-0.98710,2023,6,12,13,54,29,365
0.08990,2.95750,-4.28750,0.00000,-0.01074,0.01220,-0.98820,2023,6,12,13,54,29,376
0.09000,2.74750,-4.37500,0.00000,-0.00903,0.01159,-0.98857,2023,6,12,13,54,29,387
0.09010,2.95750,-4.48000,0.00000,-0.01147,0.01110,-0.98930,2023,6,12,13,54,29,398
0.09020,3.01000,-4.70750,0.00000,-0.01037,0.01232,-0.98442,2023,6,12,13,54,29,409
0.09030,2.95750,-4.62000,0.00000,-0.01061,0.01037,-0.98796,2023,6,12,13,54,29,420
0.09040,3.08000,-4.48000,0.00000,-0.01208,0.01257,-0.98600,2023,6,12,13,54,29,431
0.09050,3.04500,-4.55000,0.00000,-0.01061,0.01354,-0.98881,2023,6,12,13,54,29,442
0.09060,2.95750,-4.65500,0.00000,-0.01159,0.01196,-0.98576,2023,6,12,13,54,29,454
0.09070,2.97500,-4.42750,0.00000,-0.00891,0.01147,-0.98991,2023,6,12,13,54,29,465
0.09080,3.09750,-4.49750,0.00000,-0.01074,0.01098,-0.98771,2023,6,12,13,54,29,476
0.09090,2.95750,-4.62000,0.00000,-0.01049,0.01232,-0.98649,2023,6,12,13,54,29,487
0.09100,2.92250,-4.58500,0.00000,-0.01086,0.01110,-0.98735,2023,6,12,13,54,29,498
0.09110,3.08000,-4.62000,0.00000,-0.01098,0.01061,-0.98820,2023,6,12,13,54,29,509
0.09120,3.06250,-4.49750,0.00000,-0.01183,0.01208,-0.98966,2023,6,12,13,54,29,520
0.09130,3.04500,-4.44500,0.00000,-0.01171,0.01159,-0.98796,2023,6,12,13,54,29,531
0.09140,3.01000,-4.83000,0.00000,-0.01110,0.01013,-0.98869,2023,6,12,13,54,29,542
0.09150,2.92250,-4.84750,0.00000,-0.01086,0.01171,-0.98869,2023,6,12,13,54,29,554
0.09160,3.02750,-4.48000,0.00000,-0.01244,0.01220,-0.98954,2023,6,12,13,54,29,565
0.09170,2.90500,-4.53250,0.00000,-0.01208,0.01086,-0.98905,2023,6,12,13,54,29,576
0.09180,2.80000,-4.51500,0.00000,-0.01000,0.01159,-0.98625,2023,6,12,13,54,29,587
0.09190,2.92250,-4.46250,0.00000,-0.01013,0.01354,-0.98954,2023,6,12,13,54,29,598
0.09200,2.85250,-4.37500,0.00000,-0.01135,0.01049,-0.98881,2023,6,12,13,54,29,609
0.09210,3.06250,-4.55000,0.00000,-0.00988,0.01135,-0.98869,2023,6,12,13,54,29,620
0.09220,2.73000,-4.42750,0.00000,-0.01037,0.01196,-0.98735,2023,6,12,13,54,29,631
0.09230,2.87000,-4.46250,0.00000,-0.01000,0.01293,-0.98576,2023,6,12,13,54,29,642
0.09240,2.87000,-4.51500,0.00000,-0.01074,0.01000,-0.98905,2023,6,12,13,54,29,654
0.09250,2.88750,-4.69000,0.00000,-0.01257,0.00939,-0.98759,2023,6,12,13,54,29,665
0.09260,2.80000,-4.69000,0.00000,-0.01305,0.01110,-0.98674,2023,6,12,13,54,29,676
0.09270,3.02750,-4.53250,0.00000,-0.00988,0.01232,-0.98930,2023,6,12,13,54,29,687
0.09280,3.08000,-4.79500,0.00000,-0.01122,0.01171,-0.98820,2023,6,12,13,54,29,698
0.09290,2.90500,-4.58500,0.00000,-0.01232,0.01074,-0.98649,2023,6,12,13,54,29,709
0.09300,3.04500,-4.69000,0.00000,-0.01086,0.01232,-0.98942,2023,6,12,13,54,29,720
0.09310,3.04500,-4.65500,0.00000,-0.00952,0.00952,-0.98637,2023,6,12,13,54,29,731
0.09320,3.01000,-4.70750,0.00000,-0.01013,0.01232,-0.98783,2023,6,12,13,54,29,742
0.09330,2.90500,-4.42750,0.00000,-0.00915,0.01135,-0.98783,2023,6,12,13,54,29,754
0.09340,3.02750,-4.41000,0.00000,-0.01000,0.01427,-0.98600,2023,6,12,13,54,29,765
0.09350,2.87000,-4.63750,0.00000,-0.01147,0.01086,-0.98857,2023,6,12,13,54,29,776
0.09360,3.01000,-4.48000,0.00000,-0.01013,0.01135,-0.98710,2023,6,12,13,54,29,787
0.09370,3.02750,-4.63750,0.00000,-0.01122,0.01025,-0.98576,2023,6,12,13,54,29,798
0.09380,3.01000,-4.62000,0.00000,-0.01110,0.01305,-0.98954,2023,6,12,13,54,29,809
0.09390,2.97500,-4.70750,0.00000,-0.01098,0.01074,-0.98747,2023,6,12,13,54,29,820
0.09400,2.88750,-4.69000,0.00000,-0.01013,0.01269,-0.98820,2023,6,12,13,54,29,831
0.09410,3.02750,-4.72500,0.00000,-0.01147,0.01098,-0.98759,2023,6,12,13,54,29,842
0.09420,3.06250,-4.48000,0.00000,-0.01135,0.01098,-0.98966,2023,6,12,13,54,29,854
0.09430,2.87000,-4.42750,0.00000,-0.01013,0.01281,-0.98966,2023,6,12,13,54,29,865
0.09440,2.94000,-4.84750,0.00000,-0.01122,0.01049,-0.98759,2023,6,12,13,54,29,876
0.09450,3.09750,-4.83000,0.00000,-0.01000,0.01269,-0.98735,2023,6,12,13,54,29,887
0.09460,2.97500,-4.70750,0.00000,-0.01013,0.01269,-0.99027,2023,6,12,13,54,29,898
0.09470,3.15000,-4.74250,0.00000,-0.01061,0.01269,-0.98844,2023,6,12,13,54,29,909
0.09480,2.87000,-4.44500,0.00000,-0.01074,0.01098,-0.99015,2023,6,12,13,54,29,920
0.09490,2.90500,-4.58500,0.00000,-0.01257,0.01415,-0.98759,2023,6,12,13,54,29,931
0.09500,3.09750,-4.81250,0.00000,-0.01061,0.01220,-0.98722,2023,6,12,13,54,29,942
0.09510,2.83500,-4.53250,0.00000,-0.01183,0.01086,-0.98527,2023,6,12,13,54,29,954
0.09520,2.88750,-4.60250,0.00000,-0.01135,0.01281,-0.98857,2023,6,12,13,54,29,965
0.09530,3.11500,-4.58500,0.00000,-0.01293,0.01196,-0.98893,2023,6,12,13,54,29,976
0.09540,2.81750,-4.51500,0.00000,-0.01257,0.01196,-0.98710,2023,6,12,13,54,30,7
0.09550,2.97500,-4.55000,0.00000,-0.01135,0.01049,-0.98905,2023,6,12,13,54,30,18
0.09560,3.13250,-4.67250,0.00000,-0.01110,0.01269,-0.98710,2023,6,12,13,54,30,29
0.09570,3.02750,-4.55000,0.00000,-0.00976,0.01354,-0.98796,2023,6,12,13,54,30,40
0.09580,2.97500,-4.67250,0.00000,-0.00891,0.01171,-0.98735,2023,6,12,13,54,30,51
0.09590,2.94000,-4.65500,0.00000,-0.01049,0.01159,-0.98686,2023,6,12,13,54,30,62
0.09600,2.83500,-4.55000,0.00000,-0.01196,0.01257,-0.98710,2023,6,12,13,54,30,74
0.09610,3.02750,-4.72500,0.00000,-0.01122,0.01232,-0.98759,2023,6,12,13,54,30,85
0.09620,3.01000,-4.70750,0.00000,-0.01171,0.01208,-0.99162,2023,6,12,13,54,30,96
0.09630,3.08000,-4.63750,0.00000,-0.01171,0.01110,-0.98698,2023,6,12,13,54,30,107
0.09640,2.95750,-4.48000,0.00000,-0.01013,0.01147,-0.98808,2023,6,12,13,54,30,118
0.09650,3.11500,-4.56750,0.00000,-0.01232,0.01269,-0.98918,2023,6,12,13,54,30,129
0.09660,2.94000,-4.55000,0.00000,-0.01061,0.01147,-0.98759,2023,6,12,13,54,30,140
0.09670,3.15000,-4.70750,0.00000,-0.00927,0.01135,-0.98893,2023,6,12,13,54,30,151
0.09680,3.13250,-4.65500,0.00000,-0.01098,0.01342,-0.98808,2023,6,12,13,54,30,162
0.09690,2.90500,-4.55000,0.00000,-0.01330,0.01110,-0.98857,2023,6,12,13,54,30,174
0.09700,3.01000,-4.49750,0.00000,-0.01208,0.01122,-0.98796,2023,6,12,13,54,30,185
0.09710,2.99250,-4.41000,0.00000,-0.01269,0.01208,-0.98869,2023,6,12,13,54,30,196
0.09720,2.95750,-4.83000,0.00000,-0.00964,0.01196,-0.98832,2023,6,12,13,54,30,207
0.09730,2.85250,-4.67250,0.00000,-0.01098,0.01122,-0.98637,2023,6,12,13,54,30,218
0.09740,2.94000,-4.49750,0.00000,-0.01232,0.01220,-0.98722,2023,6,12,13,54,30,229
0.09750,2.90500,-4.69000,0.00000,-0.01025,0.01122,-0.98600,2023,6,12,13,54,30,240
0.09760,2.88750,-4.60250,0.00000,-0.01220,0.01159,-0.98686,2023,6,12,13,54,30,251
0.09770,2.94000,-4.20000,0.00000,-0.01147,0.01171,-0.98954,2023,6,12,13,54,30,262
0.09780,3.01000,-4.81250,0.00000,-0.01000,0.01244,-0.98808,2023,6,12,13,54,30,274
0.09790,2.76500,-4.55000,0.00000,-0.01025,0.01244,-0.98637,2023,6,12,13,54,30,285
0.09800,2.81750,-4.58500,0.00000,-0.01342,0.01354,-0.98820,2023,6,12,13,54,30,296
0.09810,2.90500,-4.53250,0.00000,-0.01281,0.01086,-0.98735,2023,6,12,13,54,30,307
0.09820,3.02750,-4.97000,0.00000,-0.01025,0.01244,-0.98783,2023,6,12,13,54,30,318
0.09830,2.99250,-4.62000,0.00000,-0.01025,0.01074,-0.98661,2023,6,12,13,54,30,329
0.09840,2.99250,-4.51500,0.00000,-0.01147,0.01147,-0.98808,2023,6,12,13,54,30,340
0.09850,2.95750,-4.76000,0.00000,-0.01013,0.01183,-0.98552,2023,6,12,13,54,30,351
0.09860,3.08000,-4.60250,0.00000,-0.01061,0.01061,-0.98747,2023,6,12,13,54,30,362
0.09870,2.95750,-4.81250,0.00000,-0.01110,0.00817,-0.98844,2023,6,12,13,54,30,374
0.09880,3.01000,-4.51500,0.00000,-0.01183,0.01122,-0.98539,2023,6,12,13,54,30,385
0.09890,2.88750,-4.65500,0.00000,-0.01220,0.01232,-0.98759,2023,6,12,13,54,30,396
0.09900,2.88750,-4.76000,0.00000,-0.01269,0.01037,-0.98564,2023,6,12,13,54,30,407
0.09910,3.01000,-4.48000,0.00000,-0.00976,0.00964,-0.98771,2023,6,12,13,54,30,418
0.09920,3.22000,-4.56750,0.00000,-0.00964,0.01135,-0.98820,2023,6,12,13,54,30,429
0.09930,2.88750,-4.49750,0.00000,-0.00903,0.01379,-0.98893,2023,6,12,13,54,30,440
0.09940,3.06250,-4.51500,0.00000,-0.01098,0.01403,-0.98698,2023,6,12,13,54,30,451
0.09950,3.20250,-4.76000,0.00000,-0.01159,0.01122,-0.98857,2023,6,12,13,54,30,462
0.09960,3.02750,-4.74250,0.00000,-0.01232,0.01037,-0.98686,2023,6,12,13,54,30,474
0.09970,2.83500,-4.53250,0.00000,-0.00976,0.01196,-0.98759,2023,6,12,13,54,30,485
0.09980,2.85250,-4.41000,0.00000,-0.01037,0.01122,-0.98893,2023,6,12,13,54,30,496
0.09990,2.95750,-4.79500,0.00000,-0.00952,0.01257,-0.99003,2023,6,12,13,54,30,507
0.10000,2.97500,-4.62000,0.00000,-0.01171,0.01208,-0.99101,2023,6,12,13,54,30,518
0.10010,2.81750,-4.53250,0.00000,-0.01171,0.01415,-0.98759,2023,6,12,13,54,30,529
0.10020,2.88750,-4.65500,0.00000,-0.01074,0.01147,-0.98710,2023,6,12,13,54,30,540
0.10030,2.99250,-4.48000,0.00000,-0.01025,0.01135,-0.99101,2023,6,12,13,54,30,551
0.10040,2.88750,-4.51500,0.00000,-0.01000,0.01013,-0.98600,2023,6,12,13,54,30,562
0.10050,3.06250,-4.21750,0.00000,-0.00939,0.01293,-0.98844,2023,6,12,13,54,30,574
0.10060,2.81750,-4.53250,0.00000,-0.01122,0.01379,-0.98930,2023,6,12,13,54,30,585
0.10070,3.11500,-4.67250,0.00000,-0.00952,0.01379,-0.98930,2023,6,12,13,54,30,596
0.10080,2.95750,-4.60250,0.00000,-0.01208,0.01183,-0.98881,2023,6,12,13,54,30,607
0.10090,3.02750,-4.70750,0.00000,-0.01122,0.01049,-0.98649,2023,6,12,13,54,30,618
0.10100,3.02750,-4.77750,0.00000,-0.01098,0.01342,-0.98759,2023,6,12,13,54,30,629
0.10110,2.81750,-4.62000,0.00000,-0.01061,0.01183,-0.98759,2023,6,12,13,54,30,640
0.10120,2.85250,-4.53250,0.00000,-0.01171,0.00927,-0.99015,2023,6,12,13,54,30,651
0.10130,2.90500,-4.34000,0.00000,-0.01098,0.01098,-0.98564,2023,6,12,13,54,30,662
0.10140,2.92250,-4.55000,0.00000,-0.01049,0.01147,-0.98966,2023,6,12,13,54,30,674
0.10150,2.90500,-4.65500,0.00000,-0.00952,0.00976,-0.98966,2023,6,12,13,54,30,685
0.10160,3.16750,-4.77750,0.00000,-0.01183,0.01049,-0.98722,2023,6,12,13,54,30,696
0.10170,3.06250,-4.67250,0.00000,-0.01171,0.01391,-0.99052,2023,6,12,13,54,30,707
0.10180,2.92250,-4.58500,0.00000,-0.01074,0.01171,-0.98686,2023,6,12,13,54,30,718
0.10190,2.99250,-4.60250,0.00000,-0.01281,0.01403,-0.98991,2023,6,12,13,54,30,729
0.10200,2.85250,-4.69000,0.00000,-0.00891,0.01074,-0.98808,2023,6,12,13,54,30,740
0.10210,2.97500,-4.44500,0.00000,-0.01135,0.01122,-0.98808,2023,6,12,13,54,30,751
0.10220,3.06250,-4.55000,0.00000,-0.01208,0.00976,-0.98637,2023,6,12,13,54,30,762
0.10230,2.99250,-4.62000,0.00000,-0.01147,0.01513,-0.98625,2023,6,12,13,54,30,774
0.10240,2.99250,-4.81250,0.00000,-0.01147,0.01061,-0.98991,2023,6,12,13,54,30,785
0.10250,3.06250,-4.69000,0.00000,-0.01110,0.01086,-0.98686,2023,6,12,13,54,30,796
0.10260,2.87000,-4.44500,0.00000,-0.01208,0.01183,-0.98771,2023,6,12,13,54,30,807
0.10270,3.02750,-4.63750,0.00000,-0.00952,0.01232,-0.98954,2023,6,12,13,54,30,818
0.10280,3.06250,-4.51500,0.00000,-0.00988,0.01208,-0.98735,2023,6,12,13,54,30,829
0.10290,3.09750,-4.56750,0.00000,-0.01098,0.01183,-0.98515,2023,6,12,13,54,30,840
0.10300,2.90500,-4.42750,0.00000,-0.01013,0.01147,-0.98808,2023,6,12,13,54,30,851
0.10310,3.08000,-4.74250,0.00000,-0.01244,0.01330,-0.98808,2023,6,12,13,54,30,862
0.10320,3.06250,-4.69000,0.00000,-0.01171,0.01122,-0.98722,2023,6,12,13,54,30,874
0.10330,2.92250,-4.44500,0.00000,-0.01025,0.01025,-0.98832,2023,6,12,13,54,30,885
0.10340,3.08000,-4.70750,0.00000,-0.01208,0.01049,-0.98637,2023,6,12,13,54,30,896
0.10350,2.80000,-4.42750,0.00000,-0.01061,0.01122,-0.98808,2023,6,12,13,54,30,907
0.10360,2.90500,-4.62000,0.00000,-0.01049,0.01257,-0.98881,2023,6,12,13,54,30,918
0.10370,2.87000,-4.67250,0.00000,-0.01086,0.01098,-0.98820,2023,6,12,13,54,30,929
0.10380,2.95750,-4.58500,0.00000,-0.01342,0.01330,-0.98991,2023,6,12,13,54,30,940
0.10390,3.01000,-4.65500,0.00000,-0.01037,0.01013,-0.98930,2023,6,12,13,54,30,951
0.10400,2.92250,-4.69000,0.00000,-0.01183,0.01257,-0.98844,2023,6,12,13,54,30,962
0.10410,3.02750,-4.65500,0.00000,-0.01013,0.01147,-0.98686,2023,6,12,13,54,30,974
0.10420,3.16750,-4.60250,0.00000,-0.01196,0.00964,-0.98820,2023,6,12,13,54,31,5
0.10430,3.22000,-4.62000,0.00000,-0.01049,0.01074,-0.98625,2023,6,12,13,54,31,16
0.10440,2.83500,-4.42750,0.00000,-0.01049,0.01171,-0.98942,2023,6,12,13,54,31,27
0.10450,2.88750,-4.60250,0.00000,-0.01061,0.01257,-0.99003,2023,6,12,13,54,31,38
0.10460,2.88750,-4.62000,0.00000,-0.01098,0.01366,-0.99003,2023,6,12,13,54,31,49
0.10470,2.99250,-4.49750,0.00000,-0.01183,0.00939,-0.99015,2023,6,12,13,54,31,60
0.10480,2.88750,-4.55000,0.00000,-0.01135,0.01098,-0.98905,2023,6,12,13,54,31,71
0.10490,2.85250,-4.56750,0.00000,-0.00976,0.01135,-0.98966,2023,6,12,13,54,31,82
0.10500,3.04500,-4.62000,0.00000,-0.01013,0.01196,-0.99040,2023,6,12,13,54,31,94
0.10510,2.95750,-4.44500,0.00000,-0.01074,0.01049,-0.98832,2023,6,12,13,54,31,105
0.10520,2.99250,-4.56750,0.00000,-0.00927,0.01232,-0.99186,2023,6,12,13,54,31,116
0.10530,2.90500,-4.60250,0.00000,-0.01000,0.01074,-0.98966,2023,6,12,13,54,31,127
0.10540,2.87000,-4.53250,0.00000,-0.00927,0.01086,-0.98954,2023,6,12,13,54,31,138
0.10550,3.02750,-4.32250,0.00000,-0.01061,0.01049,-0.99003,2023,6,12,13,54,31,149
0.10560,3.01000,-4.86500,0.00000,-0.01074,0.00964,-0.98881,2023,6,12,13,54,31,160
0.10570,3.01000,-4.74250,0.00000,-0.01183,0.01257,-0.99186,2023,6,12,13,54,31,171
0.10580,3.04500,-4.41000,0.00000,-0.01354,0.01025,-0.98771,2023,6,12,13,54,31,182
0.10590,2.90500,-4.60250,0.00000,-0.00891,0.01171,-0.99149,2023,6,12,13,54,31,194
0.10600,2.94000,-4.55000,0.00000,-0.00964,0.01318,-0.98661,2023,6,12,13,54,31,205
0.10610,3.02750,-4.51500,0.00000,-0.01232,0.01220,-0.98905,2023,6,12,13,54,31,216
0.10620,2.92250,-4.67250,0.00000,-0.01061,0.01208,-0.98759,2023,6,12,13,54,31,227
0.10630,3.11500,-4.88250,0.00000,-0.01171,0.01196,-0.98881,2023,6,12,13,54,31,238
0.10640,2.90500,-4.58500,0.00000,-0.01159,0.01049,-0.99052,2023,6,12,13,54,31,249
0.10650,2.80000,-4.62000,0.00000,-0.01074,0.01086,-0.98844,2023,6,12,13,54,31,260
0.10660,2.99250,-4.62000,0.00000,-0.01000,0.01098,-0.98527,2023,6,12,13,54,31,271
0.10670,2.85250,-4.53250,0.00000,-0.00927,0.01183,-0.98918,2023,6,12,13,54,31,282
0.10680,3.04500,-4.63750,0.00000,-0.00964,0.01171,-0.98930,2023,6,12,13,54,31,294
0.10690,2.90500,-4.62000,0.00000,-0.01257,0.01183,-0.98905,2023,6,12,13,54,31,305
0.10700,2.88750,-4.51500,0.00000,-0.01025,0.01281,-0.98686,2023,6,12,13,54,31,316
0.10710,2.97500,-4.28750,0.00000,-0.01061,0.01074,-0.99015,2023,6,12,13,54,31,327
0.10720,3.08000,-4.51500,0.00000,-0.01269,0.01074,-0.99003,2023,6,12,13,54,31,338
0.10730,2.99250,-4.69000,0.00000,-0.01049,0.01159,-0.98930,2023,6,12,13,54,31,349
0.10740,2.97500,-4.67250,0.00000,-0.00903,0.01025,-0.98771,2023,6,12,13,54,31,360
0.10750,3.01000,-5.02250,0.00000,-0.01110,0.01098,-0.98783,2023,6,12,13,54,31,371
0.10760,2.90500,-4.46250,0.00000,-0.00927,0.01110,-0.98820,2023,6,12,13,54,31,382
0.10770,2.87000,-4.34000,0.00000,-0.00915,0.01196,-0.98503,2023,6,12,13,54,31,394
0.10780,3.06250,-4.48000,0.00000,-0.01013,0.01122,-0.99015,2023,6,12,13,54,31,405
0.10790,2.83500,-4.63750,0.00000,-0.01391,0.01098,-0.98783,2023,6,12,13,54,31,416
0.10800,2.87000,-4.48000,0.00000,-0.01013,0.01159,-0.98417,2023,6,12,13,54,31,427
0.10810,2.94000,-4.46250,0.00000,-0.01159,0.01122,-0.98893,2023,6,12,13,54,31,438
0.10820,3.01000,-4.77750,0.00000,-0.01196,0.01196,-0.98844,2023,6,12,13,54,31,449
0.10830,3.22000,-4.77750,0.00000,-0.00976,0.01330,-0.98381,2023,6,12,13,54,31,460
0.10840,3.04500,-4.70750,0.00000,-0.01183,0.01220,-0.98881,2023,6,12,13,54,31,471
0.10850,2.90500,-4.37500,0.00000,-0.01049,0.01183,-0.98552,2023,6,12,13,54,31,482
0.10860,2.99250,-4.67250,0.00000,-0.01135,0.01183,-0.99149,2023,6,12,13,54,31,494
0.10870,3.83250,-5.25000,0.00000,-0.01061,0.01610,-0.98454,2023,6,12,13,54,31,505
0.10880,3.62250,-4.97000,0.00000,-0.00537,0.05356,-1.00028,2023,6,12,13,54,31,516
0.10890,2.24000,-4.86500,0.00000,-0.01781,0.06417,-0.94233,2023,6,12,13,54,31,527
0.10900,2.74750,-3.95500,0.00000,-0.00866,-0.00403,-0.93672,2023,6,12,13,54,31,538
0.10910,9.39750,-5.93250,0.00000,-0.01854,-0.10004,-1.04981,2023,6,12,13,54,31,549
0.10920,-3.85000,-3.43000,0.00000,-0.01879,-0.00244,-1.01675,2023,6,12,13,54,31,560
0.10930,12.51250,-5.88000,0.00000,-0.01915,-0.01647,-1.04103,2023,6,12,13,54,31,571
0.10940,6.00250,-4.88250,0.00000,-0.03221,-0.00671,-0.99052,2023,6,12,13,54,31,582
0.10950,2.73000,-4.63750,0.00000,-0.01806,-0.07003,-0.99101,2023,6,12,13,54,31,594
0.10960,2.39750,-4.39250,0.00000,-0.01598,0.00183,-0.98905,2023,6,12,13,54,31,605
0.10970,2.46750,-4.28750,0.00000,-0.02757,0.01354,-0.97710,2023,6,12,13,54,31,616
0.10980,3.51750,-4.48000,0.00000,0.02550,0.02843,-0.98039,2023,6,12,13,54,31,627
0.10990,2.66000,-4.30500,0.00000,-0.00695,0.01940,-0.98100,2023,6,12,13,54,31,638
0.11000,2.95750,-4.72500,0.00000,-0.01061,0.01342,-0.98491,2023,6,12,13,54,31,649
0.11010,3.01000,-4.55000,0.00000,-0.01159,0.00708,-0.99027,2023,6,12,13,54,31,660
0.11020,3.04500,-4.56750,0.00000,-0.00988,0.01196,-0.98722,2023,6,12,13,54,31,671
0.11030,2.99250,-4.86500,0.00000,-0.01013,0.01049,-0.98600,2023,6,12,13,54,31,682
0.11040,3.20250,-4.49750,0.00000,-0.01000,0.01086,-0.98527,2023,6,12,13,54,31,694
0.11050,2.90500,-4.35750,0.00000,-0.01159,0.01086,-0.98905,2023,6,12,13,54,31,705
0.11060,3.01000,-4.51500,0.00000,-0.01305,0.01049,-0.98674,2023,6,12,13,54,31,716
0.11070,2.85250,-4.49750,0.00000,-0.01135,0.01098,-0.98844,2023,6,12,13,54,31,727
0.11080,2.92250,-4.65500,0.00000,-0.01159,0.01013,-0.98759,2023,6,12,13,54,31,738
0.11090,2.90500,-4.58500,0.00000,-0.01086,0.01122,-0.98722,2023,6,12,13,54,31,749
0.11100,2.92250,-4.25250,0.00000,-0.01037,0.01086,-0.98759,2023,6,12,13,54,31,760
0.11110,3.18500,-4.42750,0.00000,-0.01037,0.01074,-0.98661,2023,6,12,13,54,31,771
0.11120,2.95750,-4.65500,0.00000,-0.01208,0.01244,-0.99064,2023,6,12,13,54,31,782
0.11130,2.88750,-4.60250,0.00000,-0.01244,0.00927,-0.98747,2023,6,12,13,54,31,794
0.11140,3.02750,-4.49750,0.00000,-0.00964,0.01159,-0.99076,2023,6,12,13,54,31,805
0.11150,2.57250,-4.32250,0.00000,-0.01000,0.01098,-0.98661,2023,6,12,13,54,31,816
0.11160,2.95750,-4.44500,0.00000,-0.00793,0.01305,-0.98491,2023,6,12,13,54,31,827
0.11170,2.74750,-4.60250,0.00000,-0.01183,0.01281,-0.98491,2023,6,12,13,54,31,838
0.11180,3.06250,-4.70750,0.00000,-0.01013,0.01122,-0.98796,2023,6,12,13,54,31,849
0.11190,2.90500,-4.63750,0.00000,-0.01147,0.01269,-0.98808,2023,6,12,13,54,31,860
0.11200,2.97500,-4.41000,0.00000,-0.01086,0.00769,-0.98600,2023,6,12,13,54,31,871
0.11210,3.09750,-4.65500,0.00000,-0.01037,0.01110,-0.98539,2023,6,12,13,54,31,882
0.11220,3.06250,-4.67250,0.00000,-0.01232,0.01098,-0.98735,2023,6,12,13,54,31,894
0.11230,3.20250,-4.49750,0.00000,-0.00964,0.01122,-0.98710,2023,6,12,13,54,31,905
0.11240,3.02750,-4.51500,0.00000,-0.01086,0.00659,-0.98735,2023,6,12,13,54,31,916
0.11250,2.90500,-4.63750,0.00000,-0.00988,0.00952,-0.98820,2023,6,12,13,54,31,927
0.11260,2.38000,-4.60250,0.00000,-0.00634,0.01110,-0.98515,2023,6,12,13,54,31,938
0.11270,-3.16750,-1.69750,0.00000,-0.00659,0.02416,-0.96099,2023,6,12,13,54,31,949
0.11280,-2.81750,-1.78500,0.00000,-0.02672,-0.01549,-1.03480,2023,6,12,13,54,31,960
0.11290,-1.50500,-2.43250,0.00000,-0.01135,0.01818,-0.97356,2023,6,12,13,54,31,971
0.11300,4.72500,-5.07500,0.00000,0.01964,0.03404,-0.95233,2023,6,12,13,54,32,2
0.11310,17.69250,-11.34000,0.00000,-0.02220,0.00171,-1.00979,2023,6,12,13,54,32,14
0.11320,0.84000,-3.29000,0.00000,-0.00744,0.03160,-0.98003,2023,6,12,13,54,32,25
0.11330,2.92250,-4.49750,0.00000,-0.00988,0.01391,-0.98430,2023,6,12,13,54,32,36
0.11340,2.78250,-4.53250,0.00000,-0.00988,0.01379,-0.98686,2023,6,12,13,54,32,47
0.11350,3.25500,-4.77750,0.00000,-0.00903,0.01549,-0.98466,2023,6,12,13,54,32,58
0.11360,3.01000,-4.48000,0.00000,-0.00903,0.01098,-0.98710,2023,6,12,13,54,32,69
0.11370,3.06250,-4.58500,0.00000,-0.01183,0.00878,-0.99198,2023,6,12,13,54,32,80
0.11380,2.99250,-4.97000,0.00000,-0.01171,0.01183,-0.98796,2023,6,12,13,54,32,91
0.11390,3.04500,-4.60250,0.00000,-0.01049,0.01122,-0.98466,2023,6,12,13,54,32,102
0.11400,3.01000,-4.44500,0.00000,-0.01171,0.01098,-0.98771,2023,6,12,13,54,32,114
0.11410,2.88750,-4.48000,0.00000,-0.01061,0.01086,-0.98613,2023,6,12,13,54,32,125
0.11420,2.99250,-4.41000,0.00000,-0.00964,0.01110,-0.98710,2023,6,12,13,54,32,136
0.11430,2.81750,-4.60250,0.00000,-0.01025,0.01086,-0.98710,2023,6,12,13,54,32,147
0.11440,2.97500,-4.72500,0.00000,-0.01342,0.01159,-0.98918,2023,6,12,13,54,32,158
0.11450,2.92250,-4.55000,0.00000,-0.00927,0.01061,-0.98686,2023,6,12,13,54,32,169
0.11460,2.74750,-4.48000,0.00000,-0.01232,0.01000,-0.98918,2023,6,12,13,54,32,180
0.11470,2.92250,-4.53250,0.00000,-0.00988,0.01098,-0.98527,2023,6,12,13,54,32,191
0.11480,3.02750,-4.58500,0.00000,-0.01000,0.01098,-0.98515,2023,6,12,13,54,32,202
0.11490,2.94000,-4.72500,0.00000,-0.00878,0.00939,-0.98832,2023,6,12,13,54,32,214
0.11500,2.94000,-4.63750,0.00000,-0.00952,0.01196,-0.98783,2023,6,12,13,54,32,225
0.11510,2.87000,-4.62000,0.00000,-0.00805,0.01171,-0.98759,2023,6,12,13,54,32,236
0.11520,3.08000,-4.62000,0.00000,-0.00878,0.01147,-0.98735,2023,6,12,13,54,32,247
0.11530,2.83500,-4.42750,0.00000,-0.00939,0.01220,-0.98344,2023,6,12,13,54,32,258
0.11540,3.01000,-4.67250,0.00000,-0.01171,0.01220,-0.98722,2023,6,12,13,54,32,269
0.11550,2.95750,-4.42750,0.00000,-0.01049,0.01000,-0.99369,2023,6,12,13,54,32,280
0.11560,2.92250,-4.56750,0.00000,-0.00964,0.01061,-0.98491,2023,6,12,13,54,32,291
0.11570,3.01000,-4.56750,0.00000,-0.01074,0.01013,-0.98539,2023,6,12,13,54,32,302
0.11580,2.95750,-4.83000,0.00000,-0.00952,0.01086,-0.98783,2023,6,12,13,54,32,314
0.11590,2.87000,-4.65500,0.00000,-0.01305,0.01074,-0.98832,2023,6,12,13,54,32,325
0.11600,3.18500,-4.58500,0.00000,-0.01061,0.01061,-0.98808,2023,6,12,13,54,32,336
0.11610,3.09750,-4.70750,0.00000,-0.00915,0.01135,-0.98527,2023,6,12,13,54,32,347
0.11620,2.85250,-4.67250,0.00000,-0.01086,0.01074,-0.99027,2023,6,12,13,54,32,358
0.11630,2.94000,-4.72500,0.00000,-0.01049,0.01074,-0.98832,2023,6,12,13,54,32,369
0.11640,3.13250,-4.79500,0.00000,-0.01098,0.01135,-0.98844,2023,6,12,13,54,32,380
0.11650,3.04500,-4.55000,0.00000,-0.01061,0.00988,-0.99027,2023,6,12,13,54,32,391
0.11660,2.92250,-4.65500,0.00000,-0.01122,0.00964,-0.98759,2023,6,12,13,54,32,402
0.11670,2.92250,-4.62000,0.00000,-0.00878,0.01232,-0.98796,2023,6,12,13,54,32,414
0.11680,2.78250,-4.41000,0.00000,-0.01086,0.01220,-0.98979,2023,6,12,13,54,32,425
0.11690,2.92250,-4.74250,0.00000,-0.01086,0.01147,-0.98783,2023,6,12,13,54,32,436
0.11700,2.88750,-4.74250,0.00000,-0.00952,0.01159,-0.99088,2023,6,12,13,54,32,447
0.11710,3.08000,-4.55000,0.00000,-0.01000,0.01183,-0.98905,2023,6,12,13,54,32,458
0.11720,2.90500,-4.58500,0.00000,-0.01196,0.00964,-0.99064,2023,6,12,13,54,32,469
0.11730,3.01000,-4.67250,0.00000,-0.00952,0.00866,-0.98808,2023,6,12,13,54,32,480
0.11740,2.95750,-4.37500,0.00000,-0.01037,0.01196,-0.98991,2023,6,12,13,54,32,491
0.11750,2.95750,-4.30500,0.00000,-0.01208,0.01000,-0.98857,2023,6,12,13,54,32,502
0.11760,3.04500,-4.72500,0.00000,-0.00952,0.01037,-0.98722,2023,6,12,13,54,32,514
0.11770,2.74750,-4.65500,0.00000,-0.00988,0.01037,-0.99027,2023,6,12,13,54,32,525
0.11780,2.97500,-4.76000,0.00000,-0.00988,0.00830,-0.98503,2023,6,12,13,54,32,536
0.11790,2.92250,-4.67250,0.00000,-0.01208,0.01232,-0.98613,2023,6,12,13,54,32,547
0.11800,2.95750,-4.60250,0.00000,-0.01122,0.01000,-0.99027,2023,6,12,13,54,32,558
0.11810,3.04500,-4.51500,0.00000,-0.01171,0.01171,-0.98979,2023,6,12,13,54,32,569
0.11820,2.83500,-4.46250,0.00000,-0.01110,0.01147,-0.98808,2023,6,12,13,54,32,580
0.11830,3.06250,-4.58500,0.00000,-0.01000,0.01098,-0.98698,2023,6,12,13,54,32,591
0.11840,2.78250,-4.58500,0.00000,-0.01098,0.01098,-0.98832,2023,6,12,13,54,32,602
0.11850,3.08000,-4.77750,0.00000,-0.01147,0.01074,-0.98808,2023,6,12,13,54,32,614
0.11860,3.02750,-4.67250,0.00000,-0.01037,0.01049,-0.99137,2023,6,12,13,54,32,625
0.11870,2.99250,-4.44500,0.00000,-0.01122,0.00976,-0.98722,2023,6,12,13,54,32,636
0.11880,2.97500,-4.58500,0.00000,-0.01183,0.01183,-0.99332,2023,6,12,13,54,32,647
0.11890,2.88750,-4.72500,0.00000,-0.00939,0.01159,-0.98686,2023,6,12,13,54,32,658
0.11900,2.97500,-4.39250,0.00000,-0.00952,0.00866,-0.98674,2023,6,12,13,54,32,669
0.11910,2.94000,-4.69000,0.00000,-0.01000,0.00939,-0.98539,2023,6,12,13,54,32,680
0.11920,2.99250,-4.74250,0.00000,-0.01074,0.01183,-0.99040,2023,6,12,13,54,32,691
0.11930,2.87000,-4.46250,0.00000,-0.01110,0.01086,-0.98710,2023,6,12,13,54,32,702
0.11940,3.01000,-4.77750,0.00000,-0.01354,0.01147,-0.98796,2023,6,12,13,54,32,714
0.11950,2.87000,-4.56750,0.00000,-0.01110,0.01025,-0.98808,2023,6,12,13,54,32,725
0.11960,2.90500,-4.46250,0.00000,-0.01074,0.01196,-0.98808,2023,6,12,13,54,32,736
0.11970,3.06250,-4.56750,0.00000,-0.01037,0.01232,-0.99137,2023,6,12,13,54,32,747
0.11980,2.92250,-4.49750,0.00000,-0.01013,0.01232,-0.98674,2023,6,12,13,54,32,758
0.11990,2.95750,-4.81250,0.00000,-0.01196,0.01000,-0.98808,2023,6,12,13,54,32,769
0.12000,3.11500,-4.86500,0.00000,-0.01086,0.01037,-0.98637,2023,6,12,13,54,32,780
0.12010,2.99250,-4.62000,0.00000,-0.01147,0.00964,-0.98552,2023,6,12,13,54,32,791
0.12020,3.09750,-4.51500,0.00000,-0.01366,0.01122,-0.98222,2023,6,12,13,54,32,802
0.12030,2.78250,-4.63750,0.00000,-0.00695,0.01452,-0.99076,2023,6,12,13,54,32,814
0.12040,3.02750,-4.44500,0.00000,-0.01147,0.01171,-0.98661,2023,6,12,13,54,32,825
0.12050,2.95750,-4.49750,0.00000,-0.01293,0.00866,-0.98564,2023,6,12,13,54,32,836
0.12060,2.87000,-4.67250,0.00000,-0.01061,0.00964,-0.98320,2023,6,12,13,54,32,847
0.12070,3.11500,-4.51500,0.00000,-0.01049,0.01147,-0.99125,2023,6,12,13,54,32,858
0.12080,3.02750,-4.70750,0.00000,-0.01147,0.01330,-0.98771,2023,6,12,13,54,32,869
0.12090,2.95750,-4.70750,0.00000,-0.01049,0.01025,-0.98442,2023,6,12,13,54,32,880
0.12100,2.78250,-4.46250,0.00000,-0.00976,0.01135,-0.98613,2023,6,12,13,54,32,891
0.12110,3.08000,-4.88250,0.00000,-0.01122,0.00830,-0.98759,2023,6,12,13,54,32,902
0.12120,2.85250,-4.62000,0.00000,-0.01366,0.01122,-0.98844,2023,6,12,13,54,32,914
0.12130,2.92250,-4.55000,0.00000,-0.00976,0.01074,-0.98686,2023,6,12,13,54,32,925
0.12140,2.78250,-4.72500,0.00000,-0.01086,0.01074,-0.98735,2023,6,12,13,54,32,936
0.12150,3.15000,-4.49750,0.00000,-0.01086,0.01000,-0.98539,2023,6,12,13,54,32,947
0.12160,2.80000,-4.42750,0.00000,-0.00976,0.01183,-0.98674,2023,6,12,13,54,32,958
0.12170,3.04500,-4.65500,0.00000,-0.01159,0.01269,-0.98649,2023,6,12,13,54,32,969
0.12180,3.04500,-4.56750,0.00000,-0.00805,0.01147,-0.98686,2023,6,12,13,54,33,0
0.12190,3.04500,-4.77750,0.00000,-0.01074,0.00854,-0.98771,2023,6,12,13,54,33,11
0.12200,2.94000,-4.76000,0.00000,-0.01037,0.01025,-0.98686,2023,6,12,13,54,33,22
0.12210,2.76500,-4.34000,0.00000,-0.01086,0.01086,-0.98478,2023,6,12,13,54,33,34
0.12220,2.90500,-4.77750,0.00000,-0.01025,0.01257,-0.98783,2023,6,12,13,54,33,45
0.12230,-11.46250,1.69750,0.00000,0.09882,-0.04380,-1.05274,2023,6,12,13,54,33,56
0.12240,-9.62500,-1.50500,0.00000,-0.05087,-0.04063,-0.73188,2023,6,12,13,54,33,67
0.12250,8.94250,-7.38500,0.00000,0.02135,-0.00415,-1.01687,2023,6,12,13,54,33,78
0.12260,-0.82250,-3.62250,0.00000,-0.07235,-0.00012,-0.95111,2023,6,12,13,54,33,89
0.12270,7.96250,-7.01750,0.00000,-0.03758,0.03331,-0.97990,2023,6,12,13,54,33,100
0.12280,4.41000,-5.14500,0.00000,-0.00439,0.00268,-1.00784,2023,6,12,13,54,33,111
0.12290,2.74750,-4.67250,0.00000,-0.01000,0.02428,-0.98564,2023,6,12,13,54,33,122
0.12300,2.74750,-4.63750,0.00000,-0.01159,0.01354,-0.98674,2023,6,12,13,54,33,134
0.12310,2.81750,-4.51500,0.00000,-0.01208,0.01061,-0.99052,2023,6,12,13,54,33,145
0.12320,2.90500,-4.48000,0.00000,-0.00952,0.01293,-0.98844,2023,6,12,13,54,33,156
0.12330,3.01000,-4.55000,0.00000,-0.01074,0.01440,-0.98686,2023,6,12,13,54,33,167
0.12340,3.01000,-4.60250,0.00000,-0.01110,0.01049,-0.99076,2023,6,12,13,54,33,178
0.12350,2.99250,-4.51500,0.00000,-0.00915,0.01110,-0.98966,2023,6,12,13,54,33,189
0.12360,3.01000,-4.63750,0.00000,-0.01086,0.00952,-0.98869,2023,6,12,13,54,33,200
0.12370,2.88750,-4.55000,0.00000,-0.01135,0.01049,-0.98674,2023,6,12,13,54,33,211
0.12380,2.97500,-4.30500,0.00000,-0.01171,0.01074,-0.98796,2023,6,12,13,54,33,222
0.12390,3.02750,-4.65500,0.00000,-0.00964,0.01366,-0.98686,2023,6,12,13,54,33,234
0.12400,2.81750,-4.62000,0.00000,-0.01244,0.00988,-0.98478,2023,6,12,13,54,33,245
0.12410,3.04500,-4.67250,0.00000,-0.01159,0.01366,-0.98893,2023,6,12,13,54,33,256
0.12420,2.85250,-4.65500,0.00000,-0.01135,0.01159,-0.98735,2023,6,12,13,54,33,267
0.12430,3.18500,-4.53250,0.00000,-0.01000,0.01159,-0.98686,2023,6,12,13,54,33,278
0.12440,3.01000,-4.76000,0.00000,-0.00915,0.01220,-0.98844,2023,6,12,13,54,33,289
0.12450,3.06250,-4.70750,0.00000,-0.01220,0.01122,-0.98600,2023,6,12,13,54,33,300
0.12460,2.99250,-4.60250,0.00000,-0.01025,0.01354,-0.98759,2023,6,12,13,54,33,311
0.12470,2.95750,-4.44500,0.00000,-0.00842,0.01196,-0.98857,2023,6,12,13,54,33,322
0.12480,2.81750,-4.51500,0.00000,-0.00878,0.01049,-0.98661,2023,6,12,13,54,33,334
0.12490,2.90500,-4.28750,0.00000,-0.00927,0.01122,-0.98661,2023,6,12,13,54,33,345
0.12500,3.06250,-4.65500,0.00000,-0.01208,0.01110,-0.98722,2023,6,12,13,54,33,356
0.12510,2.92250,-4.67250,0.00000,-0.01354,0.01025,-0.98771,2023,6,12,13,54,33,367
0.12520,3.09750,-4.69000,0.00000,-0.00927,0.01135,-0.98881,2023,6,12,13,54,33,378
0.12530,2.99250,-4.77750,0.00000,-0.00964,0.01183,-0.98869,2023,6,12,13,54,33,389
0.12540,2.94000,-4.62000,0.00000,-0.01049,0.01171,-0.98796,2023,6,12,13,54,33,400
0.12550,3.04500,-4.58500,0.00000,-0.01159,0.01257,-0.98991,2023,6,12,13,54,33,411
0.12560,3.01000,-4.51500,0.00000,-0.01037,0.01135,-0.98686,2023,6,12,13,54,33,422
0.12570,3.11500,-4.48000,0.00000,-0.01135,0.01196,-0.98576,2023,6,12,13,54,33,434
0.12580,2.92250,-4.60250,0.00000,-0.00988,0.00952,-0.98832,2023,6,12,13,54,33,445
0.12590,2.97500,-4.49750,0.00000,-0.00988,0.01122,-0.98979,2023,6,12,13,54,33,456
0.12600,2.94000,-4.48000,0.00000,-0.01244,0.01147,-0.98686,2023,6,12,13,54,33,467
0.12610,2.90500,-4.53250,0.00000,-0.01110,0.01049,-0.98686,2023,6,12,13,54,33,478
0.12620,2.99250,-4.62000,0.00000,-0.01086,0.01086,-0.98771,2023,6,12,13,54,33,489
0.12630,3.01000,-4.74250,0.00000,-0.01110,0.00891,-0.98857,2023,6,12,13,54,33,500
0.12640,3.01000,-4.46250,0.00000,-0.00878,0.01049,-0.98954,2023,6,12,13,54,33,511
0.12650,3.18500,-4.60250,0.00000,-0.01208,0.01232,-0.98930,2023,6,12,13,54,33,522
0.12660,3.02750,-4.58500,0.00000,-0.01208,0.01232,-0.99027,2023,6,12,13,54,33,534
0.12670,2.94000,-4.70750,0.00000,-0.01049,0.01257,-0.98832,2023,6,12,13,54,33,545
0.12680,2.94000,-4.58500,0.00000,-0.01049,0.01013,-0.98600,2023,6,12,13,54,33,556
0.12690,3.02750,-4.60250,0.00000,-0.01208,0.01122,-0.98637,2023,6,12,13,54,33,567
0.12700,2.99250,-4.63750,0.00000,-0.01135,0.01354,-0.98857,2023,6,12,13,54,33,578
0.12710,2.88750,-4.70750,0.00000,-0.01061,0.01257,-0.99406,2023,6,12,13,54,33,589
0.12720,2.94000,-4.67250,0.00000,-0.01049,0.01196,-0.98783,2023,6,12,13,54,33,600
0.12730,2.92250,-4.77750,0.00000,-0.01061,0.01171,-0.99027,2023,6,12,13,54,33,611
0.12740,2.92250,-4.63750,0.00000,-0.01122,0.01232,-0.98954,2023,6,12,13,54,33,622
0.12750,2.92250,-4.63750,0.00000,-0.01208,0.01220,-0.98747,2023,6,12,13,54,33,634
0.12760,2.88750,-4.44500,0.00000,-0.01074,0.01074,-0.98893,2023,6,12,13,54,33,645
0.12770,2.81750,-4.48000,0.00000,-0.01013,0.01208,-0.98735,2023,6,12,13,54,33,656
0.12780,2.94000,-4.67250,0.00000,-0.01037,0.01061,-0.98649,2023,6,12,13,54,33,667
0.12790,3.06250,-4.79500,0.00000,-0.00854,0.01305,-0.98905,2023,6,12,13,54,33,678
0.12800,3.01000,-4.67250,0.00000,-0.01122,0.01122,-0.98747,2023,6,12,13,54,33,689
0.12810,2.90500,-4.56750,0.00000,-0.01293,0.01257,-0.98881,2023,6,12,13,54,33,700
0.12820,2.85250,-4.46250,0.00000,-0.01220,0.01122,-0.98649,2023,6,12,13,54,33,711
0.12830,2.97500,-4.49750,0.00000,-0.01208,0.01293,-0.98661,2023,6,12,13,54,33,722
0.12840,2.92250,-4.41000,0.00000,-0.01000,0.01110,-0.98844,2023,6,12,13,54,33,734
0.12850,2.88750,-4.60250,0.00000,-0.01135,0.01159,-0.98893,2023,6,12,13,54,33,745
0.12860,3.01000,-4.55000,0.00000,-0.01025,0.01562,-0.98905,2023,6,12,13,54,33,756
0.12870,2.97500,-4.53250,0.00000,-0.01171,0.01281,-0.98832,2023,6,12,13,54,33,767
0.12880,2.92250,-4.46250,0.00000,-0.01147,0.01122,-0.98661,2023,6,12,13,54,33,778
0.12890,3.15000,-4.77750,0.00000,-0.01232,0.01171,-0.98600,2023,6,12,13,54,33,789
0.12900,2.81750,-4.60250,0.00000,-0.01122,0.01244,-0.98491,2023,6,12,13,54,33,800
0.12910,2.90500,-4.67250,0.00000,-0.01183,0.01196,-0.98771,2023,6,12,13,54,33,811
0.12920,3.06250,-4.70750,0.00000,-0.01171,0.01086,-0.99125,2023,6,12,13,54,33,822
0.12930,3.04500,-4.67250,0.00000,-0.01244,0.01196,-0.98771,2023,6,12,13,54,33,834
0.12940,2.67750,-4.55000,0.00000,-0.01049,0.01208,-0.98771,2023,6,12,13,54,33,845
0.12950,2.92250,-4.44500,0.00000,-0.01159,0.01183,-0.98942,2023,6,12,13,54,33,856
0.12960,3.02750,-4.58500,0.00000,-0.00842,0.00903,-0.98954,2023,6,12,13,54,33,867
0.12970,3.11500,-4.48000,0.00000,-0.01135,0.01000,-0.98698,2023,6,12,13,54,33,878
0.12980,3.02750,-4.67250,0.00000,-0.01110,0.01220,-0.99003,2023,6,12,13,54,33,889
0.12990,2.88750,-4.76000,0.00000,-0.00939,0.01232,-0.98905,2023,6,12,13,54,33,900
0.13000,2.92250,-4.60250,0.00000,-0.01110,0.01342,-0.98991,2023,6,12,13,54,33,911
0.13010,2.94000,-4.56750,0.00000,-0.01049,0.01196,-0.98844,2023,6,12,13,54,33,922
0.13020,2.88750,-4.58500,0.00000,-0.01074,0.01183,-0.98735,2023,6,12,13,54,33,934
0.13030,2.90500,-4.67250,0.00000,-0.01098,0.01037,-0.98832,2023,6,12,13,54,33,945
0.13040,3.09750,-4.88250,0.00000,-0.01037,0.01110,-0.98674,2023,6,12,13,54,33,956
0.13050,2.99250,-4.49750,0.00000,-0.01013,0.00964,-0.98674,2023,6,12,13,54,33,967
0.13060,2.90500,-4.74250,0.00000,-0.01208,0.01086,-0.98759,2023,6,12,13,54,33,978
0.13070,3.04500,-4.58500,0.00000,-0.01098,0.01269,-0.99003,2023,6,12,13,54,34,9
0.13080,2.95750,-4.42750,0.00000,-0.01061,0.01098,-0.98954,2023,6,12,13,54,34,20
0.13090,3.04500,-4.46250,0.00000,-0.01098,0.01244,-0.98966,2023,6,12,13,54,34,31
0.13100,3.01000,-4.76000,0.00000,-0.00927,0.01147,-0.99003,2023,6,12,13,54,34,42
0.13110,3.08000,-4.56750,0.00000,-0.01098,0.01110,-0.99027,2023,6,12,13,54,34,54
0.13120,3.11500,-4.55000,0.00000,-0.01086,0.01037,-0.98747,2023,6,12,13,54,34,65
0.13130,3.02750,-4.53250,0.00000,-0.00842,0.01061,-0.98820,2023,6,12,13,54,34,76
0.13140,2.97500,-4.69000,0.00000,-0.01110,0.01147,-0.99101,2023,6,12,13,54,34,87
0.13150,3.06250,-4.69000,0.00000,-0.01074,0.01183,-0.98735,2023,6,12,13,54,34,98
0.13160,3.06250,-4.63750,0.00000,-0.01208,0.00964,-0.98759,2023,6,12,13,54,34,109
0.13170,3.06250,-4.67250,0.00000,-0.00988,0.01171,-0.98857,2023,6,12,13,54,34,120
0.13180,3.01000,-4.48000,0.00000,-0.01037,0.01281,-0.98771,2023,6,12,13,54,34,131
0.13190,3.11500,-4.69000,0.00000,-0.00927,0.01013,-0.98820,2023,6,12,13,54,34,142
0.13200,2.90500,-4.58500,0.00000,-0.01122,0.01147,-0.98918,2023,6,12,13,54,34,154
0.13210,2.50250,-4.42750,0.00000,-0.01183,0.01208,-0.98820,2023,6,12,13,54,34,165
0.13220,2.85250,-4.35750,0.00000,-0.00866,0.01354,-0.99015,2023,6,12,13,54,34,176
0.13230,2.74750,-4.41000,0.00000,-0.01037,0.01342,-0.98674,2023,6,12,13,54,34,187
0.13240,3.20250,-4.70750,0.00000,-0.01147,0.01257,-0.99003,2023,6,12,13,54,34,198
0.13250,3.01000,-4.63750,0.00000,-0.01183,0.01293,-0.98942,2023,6,12,13,54,34,209
0.13260,2.94000,-4.42750,0.00000,-0.01171,0.01269,-0.98722,2023,6,12,13,54,34,220
0.13270,3.11500,-4.49750,0.00000,-0.00964,0.01171,-0.99162,2023,6,12,13,54,34,231
0.13280,2.85250,-4.41000,0.00000,-0.01159,0.01147,-0.98905,2023,6,12,13,54,34,242
0.13290,3.13250,-4.67250,0.00000,-0.01000,0.01232,-0.98686,2023,6,12,13,54,34,254
0.13300,2.94000,-4.95250,0.00000,-0.01061,0.01403,-0.99040,2023,6,12,13,54,34,265
0.13310,2.97500,-4.46250,0.00000,-0.01196,0.01220,-0.98771,2023,6,12,13,54,34,276
0.13320,2.73000,-4.63750,0.00000,-0.00952,0.01171,-0.98698,2023,6,12,13,54,34,287
0.13330,2.83500,-4.70750,0.00000,-0.01049,0.01427,-0.98710,2023,6,12,13,54,34,298
0.13340,2.78250,-4.65500,0.00000,-0.01049,0.01049,-0.99015,2023,6,12,13,54,34,309
0.13350,2.94000,-4.74250,0.00000,-0.01037,0.01135,-0.98832,2023,6,12,13,54,34,320
0.13360,2.94000,-4.53250,0.00000,-0.01281,0.01086,-0.98979,2023,6,12,13,54,34,331
0.13370,2.81750,-4.51500,0.00000,-0.01049,0.01220,-0.98759,2023,6,12,13,54,34,342
0.13380,3.11500,-4.63750,0.00000,-0.01098,0.01147,-0.98735,2023,6,12,13,54,34,354
0.13390,2.92250,-4.56750,0.00000,-0.01025,0.01074,-0.98735,2023,6,12,13,54,34,365
0.13400,2.99250,-4.56750,0.00000,-0.01318,0.01147,-0.98783,2023,6,12,13,54,34,376
0.13410,3.08000,-4.42750,0.00000,-0.00927,0.00952,-0.99162,2023,6,12,13,54,34,387
0.13420,2.85250,-4.60250,0.00000,-0.01098,0.01244,-0.99015,2023,6,12,13,54,34,398
0.13430,2.80000,-4.58500,0.00000,-0.01281,0.01049,-0.98832,2023,6,12,13,54,34,409
0.13440,2.74750,-4.65500,0.00000,-0.01196,0.01269,-0.98686,2023,6,12,13,54,34,420
0.13450,3.04500,-4.77750,0.00000,-0.01037,0.01244,-0.98942,2023,6,12,13,54,34,431
0.13460,3.02750,-4.74250,0.00000,-0.00939,0.01452,-0.98771,2023,6,12,13,54,34,442
0.13470,2.80000,-4.55000,0.00000,-0.01000,0.01244,-0.99003,2023,6,12,13,54,34,454
0.13480,3.04500,-4.53250,0.00000,-0.01159,0.01354,-0.98625,2023,6,12,13,54,34,465
0.13490,2.94000,-4.48000,0.00000,-0.01147,0.01171,-0.99040,2023,6,12,13,54,34,476
0.13500,2.95750,-4.69000,0.00000,-0.01013,0.01281,-0.98918,2023,6,12,13,54,34,487
0.13510,2.95750,-4.58500,0.00000,-0.01232,0.01110,-0.98942,2023,6,12,13,54,34,498
0.13520,2.94000,-4.49750,0.00000,-0.01025,0.01232,-0.98747,2023,6,12,13,54,34,509
0.13530,2.90500,-4.49750,0.00000,-0.00939,0.01135,-0.98954,2023,6,12,13,54,34,520
0.13540,3.06250,-4.53250,0.00000,-0.01037,0.01208,-0.99003,2023,6,12,13,54,34,531
0.13550,2.92250,-4.48000,0.00000,-0.01086,0.00964,-0.98771,2023,6,12,13,54,34,542
0.13560,3.16750,-4.67250,0.00000,-0.01183,0.01183,-0.99052,2023,6,12,13,54,34,554
0.13570,2.94000,-4.53250,0.00000,-0.01147,0.01086,-0.98979,2023,6,12,13,54,34,565
0.13580,3.11500,-4.51500,0.00000,-0.01135,0.01232,-0.98808,2023,6,12,13,54,34,576
0.13590,3.06250,-4.53250,0.00000,-0.01147,0.01171,-0.98954,2023,6,12,13,54,34,587
0.13600,2.90500,-4.74250,0.00000,-0.01122,0.01293,-0.98893,2023,6,12,13,54,34,598
0.13610,2.94000,-4.58500,0.00000,-0.01037,0.01305,-0.98722,2023,6,12,13,54,34,609
0.13620,2.90500,-4.56750,0.00000,-0.01098,0.01013,-0.98966,2023,6,12,13,54,34,620
0.13630,2.97500,-4.69000,0.00000,-0.00854,0.01330,-0.98820,2023,6,12,13,54,34,631
0.13640,2.95750,-4.53250,0.00000,-0.00952,0.01269,-0.98600,2023,6,12,13,54,34,642
0.13650,2.94000,-4.51500,0.00000,-0.01074,0.01147,-0.98796,2023,6,12,13,54,34,654
0.13660,2.80000,-4.60250,0.00000,-0.01183,0.01257,-0.98893,2023,6,12,13,54,34,665
0.13670,2.95750,-4.62000,0.00000,-0.01208,0.01244,-0.98905,2023,6,12,13,54,34,676
0.13680,2.92250,-4.67250,0.00000,-0.00927,0.01122,-0.98710,2023,6,12,13,54,34,687
0.13690,3.18500,-4.62000,0.00000,-0.01074,0.01159,-0.98857,2023,6,12,13,54,34,698
0.13700,3.04500,-4.72500,0.00000,-0.01135,0.01196,-0.98832,2023,6,12,13,54,34,709
0.13710,3.13250,-4.51500,0.00000,-0.01061,0.01061,-0.98710,2023,6,12,13,54,34,720
0.13720,2.99250,-4.56750,0.00000,-0.00988,0.01171,-0.99076,2023,6,12,13,54,34,731
0.13730,3.04500,-4.65500,0.00000,-0.00964,0.01171,-0.99015,2023,6,12,13,54,34,742
0.13740,2.92250,-4.41000,0.00000,-0.00927,0.01244,-0.98722,2023,6,12,13,54,34,754
0.13750,2.97500,-4.48000,0.00000,-0.01074,0.01000,-0.98649,2023,6,12,13,54,34,765
0.13760,2.81750,-4.49750,0.00000,-0.01196,0.01244,-0.98893,2023,6,12,13,54,34,776
0.13770,2.97500,-4.60250,0.00000,-0.01025,0.01159,-0.98759,2023,6,12,13,54,34,787
0.13780,3.01000,-4.42750,0.00000,-0.01208,0.01257,-0.98905,2023,6,12,13,54,34,798
0.13790,3.08000,-4.55000,0.00000,-0.01025,0.01293,-0.98954,2023,6,12,13,54,34,809
0.13800,3.01000,-4.53250,0.00000,-0.01037,0.01159,-0.98905,2023,6,12,13,54,34,820
0.13810,2.83500,-4.44500,0.00000,-0.01171,0.01147,-0.99040,2023,6,12,13,54,34,831
0.13820,2.97500,-4.55000,0.00000,-0.01147,0.01098,-0.98747,2023,6,12,13,54,34,842
0.13830,2.90500,-4.48000,0.00000,-0.01122,0.01244,-0.98735,2023,6,12,13,54,34,854
0.13840,3.01000,-4.44500,0.00000,-0.01415,0.01049,-0.99149,2023,6,12,13,54,34,865
0.13850,2.97500,-4.53250,0.00000,-0.00952,0.01171,-0.98674,2023,6,12,13,54,34,876
0.13860,3.15000,-4.60250,0.00000,-0.01049,0.01122,-0.98844,2023,6,12,13,54,34,887
0.13870,2.69500,-4.46250,0.00000,-0.01159,0.01232,-0.98918,2023,6,12,13,54,34,898
0.13880,2.94000,-4.62000,0.00000,-0.01000,0.01281,-0.98869,2023,6,12,13,54,34,909
0.13890,2.94000,-4.62000,0.00000,-0.01110,0.01196,-0.98710,2023,6,12,13,54,34,920
0.13900,3.08000,-4.48000,0.00000,-0.01086,0.01135,-0.98869,2023,6,12,13,54,34,931
0.13910,2.92250,-4.32250,0.00000,-0.01208,0.01208,-0.98942,2023,6,12,13,54,34,942
0.13920,3.02750,-4.69000,0.00000,-0.01086,0.01183,-0.98857,2023,6,12,13,54,34,954
0.13930,2.99250,-4.74250,0.00000,-0.01086,0.01135,-0.98747,2023,6,12,13,54,34,965
0.13940,2.94000,-4.79500,0.00000,-0.01171,0.01061,-0.99113,2023,6,12,13,54,34,976
0.13950,3.08000,-4.44500,0.00000,-0.01122,0.01196,-0.98942,2023,6,12,13,54,35,7
0.13960,3.04500,-4.70750,0.00000,-0.01122,0.01281,-0.99174,2023,6,12,13,54,35,18
0.13970,2.92250,-4.39250,0.00000,-0.01159,0.01061,-0.98930,2023,6,12,13,54,35,29
0.13980,3.04500,-4.84750,0.00000,-0.01342,0.00927,-0.98808,2023,6,12,13,54,35,40
0.13990,2.97500,-4.49750,0.00000,-0.01098,0.01171,-0.99284,2023,6,12,13,54,35,51
0.14000,2.95750,-4.51500,0.00000,-0.01159,0.01110,-0.99076,2023,6,12,13,54,35,62
0.14010,2.90500,-4.65500,0.00000,-0.01061,0.01086,-0.98771,2023,6,12,13,54,35,74
0.14020,3.15000,-4.60250,0.00000,-0.00976,0.01061,-0.98783,2023,6,12,13,54,35,85
0.14030,3.06250,-4.46250,0.00000,-0.01098,0.01110,-0.99064,2023,6,12,13,54,35,96
0.14040,2.73000,-4.53250,0.00000,-0.01098,0.01171,-0.98808,2023,6,12,13,54,35,107
0.14050,2.95750,-4.58500,0.00000,-0.01159,0.01086,-0.98759,2023,6,12,13,54,35,118
0.14060,2.74750,-4.51500,0.00000,-0.01013,0.01293,-0.99125,2023,6,12,13,54,35,129
0.14070,2.88750,-4.70750,0.00000,-0.01049,0.01061,-0.98857,2023,6,12,13,54,35,140
0.14080,2.97500,-4.63750,0.00000,-0.01159,0.01171,-0.98905,2023,6,12,13,54,35,151
0.14090,3.01000,-4.49750,0.00000,-0.01293,0.01330,-0.99064,2023,6,12,13,54,35,162
0.14100,2.99250,-4.49750,0.00000,-0.01013,0.01074,-0.99015,2023,6,12,13,54,35,174
0.14110,2.85250,-4.56750,0.00000,-0.01208,0.01074,-0.98844,2023,6,12,13,54,35,185
0.14120,2.69500,-4.60250,0.00000,-0.01135,0.01037,-0.98735,2023,6,12,13,54,35,196
0.14130,2.85250,-4.42750,0.00000,-0.00891,0.01135,-0.98661,2023,6,12,13,54,35,207
0.14140,2.97500,-4.56750,0.00000,-0.01135,0.01037,-0.98918,2023,6,12,13,54,35,218
0.14150,2.92250,-4.70750,0.00000,-0.01098,0.01281,-0.99186,2023,6,12,13,54,35,229
0.14160,2.76500,-4.55000,0.00000,-0.01098,0.00988,-0.99125,2023,6,12,13,54,35,240
0.14170,3.11500,-4.53250,0.00000,-0.01037,0.01147,-0.98783,2023,6,12,13,54,35,251
0.14180,3.02750,-4.37500,0.00000,-0.01171,0.01171,-0.98747,2023,6,12,13,54,35,262
0.14190,3.04500,-4.60250,0.00000,-0.01110,0.00830,-0.98613,2023,6,12,13,54,35,274
0.14200,2.95750,-4.55000,0.00000,-0.01293,0.01074,-0.98539,2023,6,12,13,54,35,285
0.14210,3.02750,-4.56750,0.00000,-0.00988,0.01281,-0.99040,2023,6,12,13,54,35,296
0.14220,2.97500,-4.70750,0.00000,-0.01061,0.01110,-0.98698,2023,6,12,13,54,35,307
0.14230,3.04500,-4.69000,0.00000,-0.01025,0.01244,-0.98747,2023,6,12,13,54,35,318
0.14240,2.97500,-4.67250,0.00000,-0.00866,0.01354,-0.98918,2023,6,12,13,54,35,329
0.14250,2.88750,-4.69000,0.00000,-0.01025,0.01147,-0.98686,2023,6,12,13,54,35,340
0.14260,2.88750,-4.53250,0.00000,-0.01232,0.01244,-0.98954,2023,6,12,13,54,35,351
0.14270,3.11500,-4.76000,0.00000,-0.01098,0.01147,-0.98930,2023,6,12,13,54,35,362
0.14280,2.97500,-4.48000,0.00000,-0.00976,0.01366,-0.98918,2023,6,12,13,54,35,374
0.14290,3.06250,-4.76000,0.00000,-0.01122,0.01135,-0.98735,2023,6,12,13,54,35,385
0.14300,2.90500,-4.44500,0.00000,-0.01086,0.01049,-0.99271,2023,6,12,13,54,35,396
0.14310,3.01000,-4.62000,0.00000,-0.01415,0.01122,-0.98832,2023,6,12,13,54,35,407
0.14320,3.04500,-4.51500,0.00000,-0.01293,0.01135,-0.99320,2023,6,12,13,54,35,418
0.14330,2.81750,-4.76000,0.00000,-0.01232,0.01257,-0.99113,2023,6,12,13,54,35,429
0.14340,3.08000,-4.51500,0.00000,-0.00903,0.01232,-0.98576,2023,6,12,13,54,35,440
0.14350,2.94000,-4.51500,0.00000,-0.01135,0.01427,-0.98893,2023,6,12,13,54,35,451
0.14360,3.11500,-4.67250,0.00000,-0.01135,0.01037,-0.99284,2023,6,12,13,54,35,462
0.14370,2.83500,-4.51500,0.00000,-0.00988,0.01183,-0.98966,2023,6,12,13,54,35,474
0.14380,2.95750,-4.51500,0.00000,-0.01061,0.00976,-0.98783,2023,6,12,13,54,35,485
0.14390,2.88750,-4.56750,0.00000,-0.01220,0.01269,-0.98796,2023,6,12,13,54,35,496
0.14400,2.95750,-4.53250,0.00000,-0.01171,0.01196,-0.98918,2023,6,12,13,54,35,507
0.14410,3.01000,-4.55000,0.00000,-0.01086,0.01232,-0.98625,2023,6,12,13,54,35,518
0.14420,2.85250,-4.56750,0.00000,-0.01086,0.01196,-0.98857,2023,6,12,13,54,35,529
0.14430,2.88750,-4.74250,0.00000,-0.00927,0.01281,-0.99027,2023,6,12,13,54,35,540
0.14440,2.87000,-4.53250,0.00000,-0.01037,0.01025,-0.98783,2023,6,12,13,54,35,551
0.14450,3.04500,-4.65500,0.00000,-0.01037,0.01269,-0.98661,2023,6,12,13,54,35,562
0.14460,2.83500,-4.63750,0.00000,-0.01281,0.00964,-0.98710,2023,6,12,13,54,35,574
0.14470,3.01000,-4.55000,0.00000,-0.01074,0.01281,-0.99064,2023,6,12,13,54,35,585
0.14480,2.85250,-4.49750,0.00000,-0.01110,0.01208,-0.98710,2023,6,12,13,54,35,596
0.14490,3.01000,-4.56750,0.00000,-0.01061,0.00939,-0.98857,2023,6,12,13,54,35,607
0.14500,2.97500,-4.51500,0.00000,-0.01049,0.01110,-0.99052,2023,6,12,13,54,35,618
0.14510,2.99250,-4.77750,0.00000,-0.01074,0.01232,-0.98991,2023,6,12,13,54,35,629
0.14520,3.06250,-4.65500,0.00000,-0.01110,0.01037,-0.98942,2023,6,12,13,54,35,640
0.14530,2.87000,-4.65500,0.00000,-0.01183,0.01244,-0.98564,2023,6,12,13,54,35,651
0.14540,2.97500,-4.65500,0.00000,-0.00939,0.01269,-0.98808,2023,6,12,13,54,35,662
0.14550,3.06250,-4.58500,0.00000,-0.01122,0.00976,-0.98954,2023,6,12,13,54,35,674
0.14560,3.06250,-4.62000,0.00000,-0.00952,0.01208,-0.98820,2023,6,12,13,54,35,685
0.14570,3.13250,-4.65500,0.00000,-0.01135,0.01232,-0.98942,2023,6,12,13,54,35,696
0.14580,3.09750,-4.62000,0.00000,-0.01049,0.01269,-0.98991,2023,6,12,13,54,35,707
0.14590,3.06250,-4.86500,0.00000,-0.01037,0.01171,-0.98600,2023,6,12,13,54,35,718
0.14600,2.78250,-4.58500,0.00000,-0.00586,0.01391,-0.98857,2023,6,12,13,54,35,729
0.14610,2.97500,-4.58500,0.00000,-0.01427,0.01269,-0.99088,2023,6,12,13,54,35,740
0.14620,3.06250,-4.49750,0.00000,-0.01135,0.01122,-0.98381,2023,6,12,13,54,35,751
0.14630,2.99250,-4.51500,0.00000,-0.01342,0.01159,-0.98832,2023,6,12,13,54,35,762
0.14640,2.92250,-4.58500,0.00000,-0.00976,0.01232,-0.99198,2023,6,12,13,54,35,774
0.14650,3.02750,-4.70750,0.00000,-0.01098,0.01196,-0.98613,2023,6,12,13,54,35,785
0.14660,2.87000,-4.44500,0.00000,-0.01196,0.01049,-0.98783,2023,6,12,13,54,35,796
0.14670,2.97500,-4.48000,0.00000,-0.01147,0.01147,-0.98600,2023,6,12,13,54,35,807
0.14680,3.06250,-4.56750,0.00000,-0.01159,0.00927,-0.98783,2023,6,12,13,54,35,818
0.14690,3.08000,-4.44500,0.00000,-0.00952,0.01135,-0.99040,2023,6,12,13,54,35,829
0.14700,2.90500,-4.58500,0.00000,-0.01013,0.01318,-0.98503,2023,6,12,13,54,35,840
0.14710,2.87000,-4.39250,0.00000,-0.01122,0.01110,-0.98930,2023,6,12,13,54,35,851
0.14720,2.80000,-4.46250,0.00000,-0.01086,0.01415,-0.98869,2023,6,12,13,54,35,862
0.14730,2.95750,-4.77750,0.00000,-0.01159,0.01257,-0.98844,2023,6,12,13,54,35,874
0.14740,2.81750,-4.48000,0.00000,-0.01110,0.01244,-0.98966,2023,6,12,13,54,35,885
0.14750,2.92250,-4.46250,0.00000,-0.00720,0.00854,-0.97954,2023,6,12,13,54,35,896
0.14760,2.76500,-4.56750,0.00000,-0.00805,0.01061,-0.98613,2023,6,12,13,54,35,907
0.14770,3.01000,-4.60250,0.00000,-0.01244,0.00976,-0.98356,2023,6,12,13,54,35,918
0.14780,2.88750,-4.72500,0.00000,-0.00830,0.01257,-0.98954,2023,6,12,13,54,35,929
0.14790,2.97500,-4.49750,0.00000,-0.01427,0.00988,-0.99650,2023,6,12,13,54,35,940
0.14800,2.92250,-4.51500,0.00000,-0.01086,0.01220,-0.99162,2023,6,12,13,54,35,951
0.14810,3.06250,-4.76000,0.00000,-0.00927,0.01049,-0.98649,2023,6,12,13,54,35,962
0.14820,3.01000,-4.58500,0.00000,-0.01318,0.01025,-0.98332,2023,6,12,13,54,35,974
0.14830,3.06250,-4.72500,0.00000,-0.01074,0.01147,-0.99369,2023,6,12,13,54,36,5
0.14840,3.04500,-4.63750,0.00000,-0.01025,0.01147,-0.98759,2023,6,12,13,54,36,16
0.14850,3.08000,-4.62000,0.00000,-0.01232,0.01074,-0.98649,2023,6,12,13,54,36,27
0.14860,2.88750,-4.42750,0.00000,-0.01061,0.01135,-0.99210,2023,6,12,13,54,36,38
0.14870,3.02750,-4.58500,0.00000,-0.00878,0.01147,-0.98783,2023,6,12,13,54,36,49
0.14880,3.04500,-4.65500,0.00000,-0.01220,0.01452,-0.98893,2023,6,12,13,54,36,60
0.14890,2.88750,-4.72500,0.00000,-0.01037,0.01281,-0.98930,2023,6,12,13,54,36,71
0.14900,3.02750,-4.65500,0.00000,-0.00830,0.01196,-0.98881,2023,6,12,13,54,36,82
0.14910,2.99250,-4.60250,0.00000,-0.01220,0.01305,-0.99162,2023,6,12,13,54,36,94
0.14920,3.01000,-4.55000,0.00000,-0.01037,0.01232,-0.99064,2023,6,12,13,54,36,105
0.14930,3.08000,-4.55000,0.00000,-0.01061,0.01049,-0.98905,2023,6,12,13,54,36,116
0.14940,3.01000,-4.46250,0.00000,-0.01159,0.01354,-0.98857,2023,6,12,13,54,36,127
0.14950,2.94000,-4.55000,0.00000,-0.01159,0.01379,-0.98637,2023,6,12,13,54,36,138
0.14960,2.99250,-4.65500,0.00000,-0.01086,0.01135,-0.99015,2023,6,12,13,54,36,149
0.14970,2.69500,-4.41000,0.00000,-0.01086,0.01037,-0.98893,2023,6,12,13,54,36,160
0.14980,2.94000,-4.70750,0.00000,-0.01013,0.01025,-0.98991,2023,6,12,13,54,36,171
0.14990,2.90500,-4.69000,0.00000,-0.01220,0.01159,-0.98905,2023,6,12,13,54,36,182
0.15000,3.02750,-4.51500,0.00000,-0.01232,0.01196,-0.98881,2023,6,12,13,54,36,194
0.15010,2.95750,-4.63750,0.00000,-0.01086,0.00976,-0.98783,2023,6,12,13,54,36,205
0.15020,2.83500,-4.67250,0.00000,-0.01074,0.01257,-0.98515,2023,6,12,13,54,36,216
0.15030,3.06250,-4.48000,0.00000,-0.01208,0.01171,-0.98966,2023,6,12,13,54,36,227
0.15040,3.08000,-4.56750,0.00000,-0.01135,0.01281,-0.98832,2023,6,12,13,54,36,238
0.15050,2.94000,-4.67250,0.00000,-0.01135,0.01074,-0.98820,2023,6,12,13,54,36,249
0.15060,3.13250,-4.74250,0.00000,-0.01013,0.01208,-0.98564,2023,6,12,13,54,36,260
0.15070,2.97500,-4.81250,0.00000,-0.01330,0.01013,-0.99125,2023,6,12,13,54,36,271
0.15080,3.18500,-4.83000,0.00000,-0.01122,0.01379,-0.99149,2023,6,12,13,54,36,282
0.15090,2.92250,-4.42750,0.00000,-0.01122,0.01135,-0.98722,2023,6,12,13,54,36,294
0.15100,3.15000,-4.42750,0.00000,-0.01183,0.01122,-0.98759,2023,6,12,13,54,36,305
0.15110,2.88750,-4.58500,0.00000,-0.01049,0.01305,-0.98832,2023,6,12,13,54,36,316
0.15120,2.92250,-4.56750,0.00000,-0.01220,0.01013,-0.98942,2023,6,12,13,54,36,327
0.15130,3.01000,-4.72500,0.00000,-0.01135,0.01244,-0.98661,2023,6,12,13,54,36,338
0.15140,2.99250,-4.93500,0.00000,-0.01183,0.01147,-0.98954,2023,6,12,13,54,36,349
0.15150,2.95750,-4.58500,0.00000,-0.01110,0.01244,-0.98918,2023,6,12,13,54,36,360
0.15160,2.78250,-4.41000,0.00000,-0.01025,0.01183,-0.98905,2023,6,12,13,54,36,371
0.15170,3.01000,-4.51500,0.00000,-0.01110,0.01281,-0.99174,2023,6,12,13,54,36,382
0.15180,2.81750,-4.48000,0.00000,-0.00952,0.01269,-0.98966,2023,6,12,13,54,36,394
0.15190,2.92250,-4.51500,0.00000,-0.01183,0.01037,-0.98808,2023,6,12,13,54,36,405
0.15200,2.94000,-4.53250,0.00000,-0.01049,0.01281,-0.98893,2023,6,12,13,54,36,416
0.15210,2.92250,-4.62000,0.00000,-0.00988,0.01183,-0.98710,2023,6,12,13,54,36,427
0.15220,2.87000,-4.58500,0.00000,-0.01025,0.01354,-0.99076,2023,6,12,13,54,36,438
0.15230,3.08000,-4.51500,0.00000,-0.01171,0.01220,-0.98783,2023,6,12,13,54,36,449
0.15240,2.85250,-4.49750,0.00000,-0.01305,0.00952,-0.99186,2023,6,12,13,54,36,460
0.15250,3.09750,-4.90000,0.00000,-0.01427,0.01293,-0.98747,2023,6,12,13,54,36,471
0.15260,2.95750,-4.56750,0.00000,-0.01452,0.03282,-1.05835,2023,6,12,13,54,36,482
0.15270,2.88750,-4.42750,0.00000,-0.01086,0.01488,-0.96783,2023,6,12,13,54,36,494
0.15280,3.02750,-4.63750,0.00000,-0.00183,0.00891,-0.95965,2023,6,12,13,54,36,505
0.15290,3.06250,-4.70750,0.00000,-0.01671,0.01354,-0.99479,2023,6,12,13,54,36,516
0.15300,3.13250,-4.55000,0.00000,-0.01122,0.01183,-0.99723,2023,6,12,13,54,36,527
0.15310,3.02750,-4.55000,0.00000,-0.00903,0.01379,-0.98320,2023,6,12,13,54,36,538
0.15320,2.92250,-4.70750,0.00000,-0.01220,0.01220,-0.99296,2023,6,12,13,54,36,549
0.15330,3.02750,-4.60250,0.00000,-0.01147,0.01171,-0.98674,2023,6,12,13,54,36,560
0.15340,3.06250,-4.76000,0.00000,-0.01049,0.01232,-0.98674,2023,6,12,13,54,36,571
0.15350,3.16750,-4.62000,0.00000,-0.01379,0.01318,-0.98759,2023,6,12,13,54,36,582
0.15360,3.02750,-4.60250,0.00000,-0.01171,0.01098,-0.98857,2023,6,12,13,54,36,594
0.15370,2.97500,-4.58500,0.00000,-0.00866,0.01110,-0.98747,2023,6,12,13,54,36,605
0.15380,2.81750,-4.60250,0.00000,-0.01196,0.01025,-0.98564,2023,6,12,13,54,36,616
0.15390,2.83500,-4.34000,0.00000,-0.01086,0.01122,-0.98661,2023,6,12,13,54,36,627
0.15400,2.90500,-4.41000,0.00000,-0.01269,0.01293,-0.98881,2023,6,12,13,54,36,638
0.15410,2.85250,-4.63750,0.00000,-0.00927,0.01159,-0.98515,2023,6,12,13,54,36,649
0.15420,2.83500,-4.51500,0.00000,-0.01000,0.01232,-0.98613,2023,6,12,13,54,36,660
0.15430,2.97500,-4.53250,0.00000,-0.01037,0.01196,-0.99332,2023,6,12,13,54,36,671
0.15440,3.09750,-4.56750,0.00000,-0.01196,0.01074,-0.99198,2023,6,12,13,54,36,682
0.15450,2.95750,-4.74250,0.00000,-0.01183,0.00891,-0.98478,2023,6,12,13,54,36,694
0.15460,2.85250,-4.48000,0.00000,-0.01244,0.01061,-0.98454,2023,6,12,13,54,36,705
0.15470,2.92250,-4.51500,0.00000,-0.00988,0.01305,-0.99064,2023,6,12,13,54,36,716
0.15480,2.88750,-4.55000,0.00000,-0.01403,0.01122,-0.98759,2023,6,12,13,54,36,727
0.15490,3.11500,-4.49750,0.00000,-0.01220,0.01049,-0.98954,2023,6,12,13,54,36,738
0.15500,3.11500,-4.41000,0.00000,-0.01037,0.01208,-0.99088,2023,6,12,13,54,36,749
0.15510,3.16750,-4.56750,0.00000,-0.01049,0.01293,-0.98881,2023,6,12,13,54,36,760
0.15520,2.97500,-4.55000,0.00000,-0.01110,0.01013,-0.98844,2023,6,12,13,54,36,771
0.15530,2.99250,-4.51500,0.00000,-0.00952,0.01110,-0.98832,2023,6,12,13,54,36,782
0.15540,2.85250,-4.44500,0.00000,-0.00878,0.01135,-0.98930,2023,6,12,13,54,36,794
0.15550,2.94000,-4.55000,0.00000,-0.01415,0.01074,-0.98759,2023,6,12,13,54,36,805
0.15560,3.04500,-4.65500,0.00000,-0.01171,0.01159,-0.98674,2023,6,12,13,54,36,816
0.15570,2.94000,-4.53250,0.00000,-0.01074,0.01086,-0.98918,2023,6,12,13,54,36,827
0.15580,3.01000,-4.51500,0.00000,-0.01049,0.01318,-0.98905,2023,6,12,13,54,36,838
0.15590,2.92250,-4.56750,0.00000,-0.01257,0.01196,-0.98686,2023,6,12,13,54,36,849
0.15600,2.83500,-4.56750,0.00000,-0.01183,0.01342,-0.98954,2023,6,12,13,54,36,860
0.15610,2.85250,-4.51500,0.00000,-0.01098,0.01183,-0.98930,2023,6,12,13,54,36,871
0.15620,2.90500,-4.55000,0.00000,-0.01098,0.01171,-0.98759,2023,6,12,13,54,36,882
0.15630,3.01000,-4.42750,0.00000,-0.00830,0.01074,-0.98771,2023,6,12,13,54,36,894
0.15640,2.83500,-4.44500,0.00000,-0.00988,0.01208,-0.98747,2023,6,12,13,54,36,905
0.15650,3.11500,-4.63750,0.00000,-0.01147,0.01074,-0.99052,2023,6,12,13,54,36,916
0.15660,3.18500,-4.51500,0.00000,-0.01000,0.01403,-0.98893,2023,6,12,13,54,36,927
0.15670,3.04500,-4.65500,0.00000,-0.00964,0.01147,-0.98893,2023,6,12,13,54,36,938
0.15680,2.94000,-4.37500,0.00000,-0.01074,0.01232,-0.98783,2023,6,12,13,54,36,949
0.15690,3.15000,-4.60250,0.00000,-0.01171,0.01171,-0.99040,2023,6,12,13,54,36,960
0.15700,2.90500,-4.58500,0.00000,-0.01025,0.01403,-0.98735,2023,6,12,13,54,36,971
0.15710,2.81750,-4.70750,0.00000,-0.01147,0.00952,-0.98722,2023,6,12,13,54,37,2
0.15720,2.99250,-4.62000,0.00000,-0.00964,0.01244,-0.98735,2023,6,12,13,54,37,14
0.15730,3.01000,-4.51500,0.00000,-0.01061,0.01171,-0.98991,2023,6,12,13,54,37,25
0.15740,3.04500,-4.46250,0.00000,-0.01159,0.01159,-0.98759,2023,6,12,13,54,37,36
0.15750,2.90500,-4.63750,0.00000,-0.01135,0.01135,-0.98710,2023,6,12,13,54,37,47
0.15760,2.88750,-4.46250,0.00000,-0.01049,0.01281,-0.98783,2023,6,12,13,54,37,58
0.15770,2.94000,-4.42750,0.00000,-0.01122,0.01061,-0.99113,2023,6,12,13,54,37,69
0.15780,3.04500,-4.74250,0.00000,-0.00952,0.00915,-0.98966,2023,6,12,13,54,37,80
0.15790,2.94000,-4.62000,0.00000,-0.01318,0.01049,-0.98954,2023,6,12,13,54,37,91
0.15800,2.95750,-4.51500,0.00000,-0.01171,0.01232,-0.98832,2023,6,12,13,54,37,102
0.15810,2.92250,-4.48000,0.00000,-0.00939,0.01110,-0.98698,2023,6,12,13,54,37,114
0.15820,3.13250,-4.70750,0.00000,-0.00976,0.01037,-0.98893,2023,6,12,13,54,37,125
0.15830,2.85250,-4.58500,0.00000,-0.01232,0.01354,-0.98759,2023,6,12,13,54,37,136
0.15840,2.87000,-4.62000,0.00000,-0.00964,0.01183,-0.98918,2023,6,12,13,54,37,147
0.15850,3.08000,-4.58500,0.00000,-0.01037,0.01208,-0.98356,2023,6,12,13,54,37,158
0.15860,3.06250,-4.51500,0.00000,-0.01330,0.01147,-0.98796,2023,6,12,13,54,37,169
0.15870,3.02750,-4.67250,0.00000,-0.00976,0.01220,-0.98820,2023,6,12,13,54,37,180
0.15880,2.95750,-4.60250,0.00000,-0.00952,0.01244,-0.98844,2023,6,12,13,54,37,191
0.15890,2.99250,-4.70750,0.00000,-0.01122,0.01269,-0.98820,2023,6,12,13,54,37,202
0.15900,2.90500,-4.49750,0.00000,-0.01232,0.01220,-0.98832,2023,6,12,13,54,37,214
0.15910,2.81750,-4.42750,0.00000,-0.01086,0.01061,-0.98722,2023,6,12,13,54,37,225
0.15920,3.06250,-4.77750,0.00000,-0.01074,0.00915,-0.98771,2023,6,12,13,54,37,236
0.15930,2.87000,-4.60250,0.00000,-0.01086,0.01183,-0.98832,2023,6,12,13,54,37,247
0.15940,3.20250,-4.63750,0.00000,-0.01171,0.01330,-0.98625,2023,6,12,13,54,37,258
0.15950,3.04500,-4.84750,0.00000,-0.01086,0.01110,-0.98796,2023,6,12,13,54,37,269
0.15960,2.97500,-4.70750,0.00000,-0.01049,0.01269,-0.98515,2023,6,12,13,54,37,280
0.15970,2.94000,-4.49750,0.00000,-0.00952,0.00988,-0.98649,2023,6,12,13,54,37,291
0.15980,2.85250,-4.95250,0.00000,-0.01037,0.01183,-0.98722,2023,6,12,13,54,37,302
0.15990,2.94000,-4.58500,0.00000,-0.01013,0.01342,-0.99003,2023,6,12,13,54,37,314
0.16000,2.99250,-4.67250,0.00000,-0.01049,0.01135,-0.98588,2023,6,12,13,54,37,325
0.16010,3.01000,-4.56750,0.00000,-0.01257,0.01000,-0.98735,2023,6,12,13,54,37,336
0.16020,2.94000,-4.32250,0.00000,-0.01208,0.01293,-0.98808,2023,6,12,13,54,37,347
0.16030,2.90500,-4.46250,0.00000,-0.01037,0.00805,-0.98649,2023,6,12,13,54,37,358
0.16040,2.92250,-4.72500,0.00000,-0.01135,0.01293,-0.98796,2023,6,12,13,54,37,369
0.16050,2.81750,-4.63750,0.00000,-0.01293,0.01171,-0.98515,2023,6,12,13,54,37,380
0.16060,3.02750,-4.63750,0.00000,-0.01098,0.01135,-0.98918,2023,6,12,13,54,37,391
0.16070,3.11500,-4.77750,0.00000,-0.01135,0.01244,-0.98905,2023,6,12,13,54,37,402
0.16080,2.92250,-4.56750,0.00000,-0.00854,0.01147,-0.98857,2023,6,12,13,54,37,414
0.16090,2.87000,-4.65500,0.00000,-0.01135,0.01183,-0.99027,2023,6,12,13,54,37,425
0.16100,3.09750,-4.72500,0.00000,-0.01257,0.01147,-0.98783,2023,6,12,13,54,37,436
0.16110,2.90500,-4.63750,0.00000,-0.01110,0.00976,-0.98722,2023,6,12,13,54,37,447
0.16120,3.01000,-4.83000,0.00000,-0.01330,0.01147,-0.98796,2023,6,12,13,54,37,458
0.16130,2.92250,-4.81250,0.00000,-0.00952,0.01110,-0.98966,2023,6,12,13,54,37,469
0.16140,2.94000,-4.60250,0.00000,-0.01013,0.01208,-0.99064,2023,6,12,13,54,37,480
0.16150,3.06250,-4.56750,0.00000,-0.01147,0.01159,-0.98857,2023,6,12,13,54,37,491
0.16160,2.92250,-4.62000,0.00000,-0.01196,0.01293,-0.98844,2023,6,12,13,54,37,502
0.16170,2.92250,-4.37500,0.00000,-0.00952,0.01391,-0.98966,2023,6,12,13,54,37,514
0.16180,2.73000,-4.39250,0.00000,-0.01037,0.01196,-0.98649,2023,6,12,13,54,37,525
0.16190,3.13250,-4.69000,0.00000,-0.01086,0.01025,-0.98710,2023,6,12,13,54,37,536
0.16200,3.08000,-4.46250,0.00000,-0.01293,0.00976,-0.98759,2023,6,12,13,54,37,547
0.16210,2.90500,-4.55000,0.00000,-0.01061,0.01269,-0.98820,2023,6,12,13,54,37,558
0.16220,2.74750,-4.53250,0.00000,-0.00964,0.01135,-0.98820,2023,6,12,13,54,37,569
0.16230,2.97500,-4.51500,0.00000,-0.01122,0.01305,-0.98722,2023,6,12,13,54,37,580
0.16240,3.02750,-4.63750,0.00000,-0.01110,0.01269,-0.98857,2023,6,12,13,54,37,591
0.16250,3.08000,-4.56750,0.00000,-0.01037,0.01293,-0.98844,2023,6,12,13,54,37,602
0.16260,3.01000,-4.53250,0.00000,-0.01061,0.01171,-0.98881,2023,6,12,13,54,37,614
0.16270,2.76500,-4.46250,0.00000,-0.01110,0.01074,-0.98905,2023,6,12,13,54,37,625
0.16280,3.11500,-4.53250,0.00000,-0.01196,0.01110,-0.98942,2023,6,12,13,54,37,636
0.16290,2.97500,-4.39250,0.00000,-0.01074,0.01171,-0.99052,2023,6,12,13,54,37,647
0.16300,2.97500,-4.76000,0.00000,-0.01061,0.01196,-0.98869,2023,6,12,13,54,37,658
0.16310,2.85250,-4.60250,0.00000,-0.01122,0.01257,-0.98747,2023,6,12,13,54,37,669
0.16320,2.85250,-4.51500,0.00000,-0.00903,0.01159,-0.98649,2023,6,12,13,54,37,680
0.16330,2.90500,-4.51500,0.00000,-0.00952,0.01183,-0.98747,2023,6,12,13,54,37,691
0.16340,2.88750,-4.42750,0.00000,-0.01305,0.01391,-0.98722,2023,6,12,13,54,37,702
0.16350,3.04500,-4.74250,0.00000,-0.01025,0.01220,-0.99027,2023,6,12,13,54,37,714
0.16360,2.90500,-4.67250,0.00000,-0.01061,0.01281,-0.98857,2023,6,12,13,54,37,725
0.16370,2.95750,-4.51500,0.00000,-0.01196,0.01171,-0.98661,2023,6,12,13,54,37,736
0.16380,3.08000,-4.60250,0.00000,-0.01013,0.00891,-0.98552,2023,6,12,13,54,37,747
0.16390,2.85250,-4.58500,0.00000,-0.00964,0.01232,-0.98710,2023,6,12,13,54,37,758
0.16400,2.94000,-4.69000,0.00000,-0.01196,0.01122,-0.98625,2023,6,12,13,54,37,769
0.16410,3.01000,-4.42750,0.00000,-0.01025,0.01391,-0.98771,2023,6,12,13,54,37,780
0.16420,2.83500,-4.39250,0.00000,-0.01220,0.01171,-0.98735,2023,6,12,13,54,37,791
0.16430,2.95750,-4.41000,0.00000,-0.01257,0.00988,-0.98881,2023,6,12,13,54,37,802
0.16440,3.08000,-4.76000,0.00000,-0.01171,0.01098,-0.99040,2023,6,12,13,54,37,814
0.16450,2.81750,-4.48000,0.00000,-0.01183,0.01232,-0.98991,2023,6,12,13,54,37,825
0.16460,2.95750,-4.49750,0.00000,-0.01379,0.01000,-0.98857,2023,6,12,13,54,37,836
0.16470,2.90500,-4.62000,0.00000,-0.01135,0.01257,-0.98783,2023,6,12,13,54,37,847
0.16480,2.90500,-4.67250,0.00000,-0.00988,0.01318,-0.99015,2023,6,12,13,54,37,858
0.16490,3.18500,-4.62000,0.00000,-0.01135,0.01159,-0.99137,2023,6,12,13,54,37,869
0.16500,2.97500,-4.62000,0.00000,-0.01074,0.01098,-0.98747,2023,6,12,13,54,37,880
0.16510,3.04500,-4.60250,0.00000,-0.01366,0.01366,-0.98808,2023,6,12,13,54,37,891
0.16520,2.99250,-4.67250,0.00000,-0.01147,0.01110,-0.98808,2023,6,12,13,54,37,902
0.16530,3.04500,-4.53250,0.00000,-0.01074,0.01110,-0.98674,2023,6,12,13,54,37,914
0.16540,2.94000,-4.56750,0.00000,-0.00817,0.01330,-0.98869,2023,6,12,13,54,37,925
0.16550,3.02750,-4.90000,0.00000,-0.01025,0.01257,-0.98710,2023,6,12,13,54,37,936
0.16560,2.92250,-4.72500,0.00000,-0.00793,0.01000,-0.99003,2023,6,12,13,54,37,947
0.16570,2.95750,-4.63750,0.00000,-0.01037,0.01171,-0.98747,2023,6,12,13,54,37,958
0.16580,3.15000,-4.84750,0.00000,-0.01037,0.01122,-0.98820,2023,6,12,13,54,37,969
0.16590,3.01000,-4.67250,0.00000,-0.01122,0.01122,-0.98454,2023,6,12,13,54,37,980
0.16600,2.97500,-4.56750,0.00000,-0.01000,0.01305,-0.98820,2023,6,12,13,54,38,1
0.16610,2.97500,-4.48000,0.00000,-0.01196,0.00866,-0.98600,2023,6,12,13,54,38,12
0.16620,3.02750,-4.55000,0.00000,-0.01037,0.01171,-0.98783,2023,6,12,13,54,38,24
0.16630,2.92250,-4.25250,0.00000,-0.01025,0.01232,-0.98881,2023,6,12,13,54,38,35
0.16640,2.99250,-4.48000,0.00000,-0.01098,0.01159,-0.98356,2023,6,12,13,54,38,46
0.16650,3.04500,-4.63750,0.00000,-0.01159,0.01196,-0.99223,2023,6,12,13,54,38,57
0.16660,2.81750,-4.44500,0.00000,-0.01501,0.01232,-0.99430,2023,6,12,13,54,38,68
0.16670,3.34250,-4.74250,0.00000,-0.01220,0.03270,-0.97319,2023,6,12,13,54,38,79
0.16680,-4.46250,-1.20750,0.00000,-0.00781,0.02489,-0.97319,2023,6,12,13,54,38,90
0.16690,3.44750,-4.56750,0.00000,-0.00647,0.01122,-0.97161,2023,6,12,13,54,38,101
0.16700,1.57500,-4.14750,0.00000,0.00781,0.02208,-0.98966,2023,6,12,13,54,38,112
0.16710,10.22000,-7.85750,0.00000,-0.03270,0.03148,-0.95294,2023,6,12,13,54,38,124
0.16720,5.23250,-6.02000,0.00000,0.00830,0.00390,-0.96453,2023,6,12,13,54,38,135
0.16730,2.90500,-5.12750,0.00000,0.00012,0.00549,-0.98698,2023,6,12,13,54,38,146
0.16740,4.00750,-5.37250,0.00000,-0.02050,-0.00293,-1.00406,2023,6,12,13,54,38,157
0.16750,1.62750,-5.00500,0.00000,-0.00183,0.03562,-0.95904,2023,6,12,13,54,38,168
0.16760,1.68000,-4.04250,0.00000,0.00000,0.03587,-0.95782,2023,6,12,13,54,38,179
0.16770,2.80000,-4.63750,0.00000,-0.00891,0.01818,-0.97844,2023,6,12,13,54,38,190
0.16780,1.99500,-4.30500,0.00000,-0.00927,0.03477,-0.97588,2023,6,12,13,54,38,201
0.16790,2.81750,-4.77750,0.00000,-0.00964,0.00695,-0.99149,2023,6,12,13,54,38,212
0.16800,2.38000,-4.46250,0.00000,-0.00549,0.02550,-0.97649,2023,6,12,13,54,38,224
0.16810,2.78250,-4.44500,0.00000,-0.00878,0.01647,-0.98039,2023,6,12,13,54,38,235
0.16820,3.25500,-4.55000,0.00000,-0.01061,0.01232,-0.98625,2023,6,12,13,54,38,246
0.16830,3.53500,-4.76000,0.00000,-0.01647,-0.00220,-1.00247,2023,6,12,13,54,38,257
0.16840,2.53750,-4.53250,0.00000,-0.01049,0.02013,-0.97771,2023,6,12,13,54,38,268
0.16850,2.71250,-4.46250,0.00000,-0.01379,0.01281,-0.98661,2023,6,12,13,54,38,279
0.16860,3.01000,-4.62000,0.00000,-0.00915,0.01122,-0.98686,2023,6,12,13,54,38,290
0.16870,3.02750,-4.53250,0.00000,-0.01110,0.01183,-0.98515,2023,6,12,13,54,38,301
0.16880,3.01000,-4.39250,0.00000,-0.00915,0.01025,-0.98747,2023,6,12,13,54,38,312
0.16890,2.90500,-4.51500,0.00000,-0.01135,0.01171,-0.98893,2023,6,12,13,54,38,324
0.16900,3.02750,-4.55000,0.00000,-0.01196,0.01354,-0.98783,2023,6,12,13,54,38,335
0.16910,2.76500,-4.56750,0.00000,-0.00964,0.01183,-0.98771,2023,6,12,13,54,38,346
0.16920,3.20250,-4.53250,0.00000,-0.01000,0.01342,-0.98820,2023,6,12,13,54,38,357
0.16930,3.18500,-4.74250,0.00000,-0.01147,0.01330,-0.98796,2023,6,12,13,54,38,368
0.16940,2.99250,-4.63750,0.00000,-0.00866,0.01122,-0.98796,2023,6,12,13,54,38,379
0.16950,3.08000,-4.74250,0.00000,-0.01403,0.00988,-0.98735,2023,6,12,13,54,38,390
0.16960,3.04500,-4.62000,0.00000,-0.01318,0.00927,-0.98832,2023,6,12,13,54,38,401
0.16970,2.92250,-4.49750,0.00000,-0.01049,0.01269,-0.98454,2023,6,12,13,54,38,412
0.16980,2.73000,-4.62000,0.00000,-0.01061,0.01110,-0.98637,2023,6,12,13,54,38,424
0.16990,2.95750,-4.69000,0.00000,-0.01159,0.01305,-0.98600,2023,6,12,13,54,38,435
0.17000,3.09750,-4.51500,0.00000,-0.00939,0.01305,-0.98735,2023,6,12,13,54,38,446
0.17010,2.99250,-4.53250,0.00000,-0.00939,0.01183,-0.98417,2023,6,12,13,54,38,457
0.17020,2.92250,-4.58500,0.00000,-0.01049,0.00903,-0.99064,2023,6,12,13,54,38,468
0.17030,2.90500,-4.70750,0.00000,-0.01354,0.01171,-0.98539,2023,6,12,13,54,38,479
0.17040,2.78250,-4.46250,0.00000,-0.00842,0.01720,-0.98234,2023,6,12,13,54,38,490
0.17050,3.13250,-4.88250,0.00000,-0.00915,0.01074,-0.98588,2023,6,12,13,54,38,501
0.17060,2.95750,-4.56750,0.00000,-0.01159,0.01647,-0.99015,2023,6,12,13,54,38,512
0.17070,2.46750,-4.65500,0.00000,-0.00988,0.00781,-0.98588,2023,6,12,13,54,38,524
0.17080,3.09750,-4.79500,0.00000,-0.00817,0.01281,-0.98210,2023,6,12,13,54,38,535
0.17090,2.74750,-4.32250,0.00000,-0.00695,0.01952,-0.97942,2023,6,12,13,54,38,546
0.17100,2.85250,-4.63750,0.00000,-0.00805,0.01818,-0.97881,2023,6,12,13,54,38,557
0.17110,3.01000,-4.63750,0.00000,-0.00708,0.01501,-0.98356,2023,6,12,13,54,38,568
0.17120,3.02750,-4.58500,0.00000,-0.00976,0.01476,-0.98393,2023,6,12,13,54,38,579
0.17130,2.52000,-4.18250,0.00000,-0.00939,0.01745,-0.97917,2023,6,12,13,54,38,590
0.17140,2.78250,-4.60250,0.00000,-0.01025,0.01537,-0.98161,2023,6,12,13,54,38,601
0.17150,2.94000,-4.56750,0.00000,-0.00964,0.01342,-0.98649,2023,6,12,13,54,38,612
0.17160,2.83500,-4.41000,0.00000,-0.01013,0.01403,-0.98393,2023,6,12,13,54,38,624
0.17170,3.04500,-4.69000,0.00000,-0.01013,0.01159,-0.98905,2023,6,12,13,54,38,635
0.17180,3.04500,-4.67250,0.00000,-0.01220,0.00964,-0.98588,2023,6,12,13,54,38,646
0.17190,3.01000,-4.69000,0.00000,-0.01159,0.01208,-0.98722,2023,6,12,13,54,38,657
0.17200,3.09750,-4.60250,0.00000,-0.01171,0.00964,-0.98905,2023,6,12,13,54,38,668
0.17210,2.80000,-4.60250,0.00000,-0.00988,0.01183,-0.98698,2023,6,12,13,54,38,679
0.17220,3.09750,-4.62000,0.00000,-0.01098,0.01257,-0.98686,2023,6,12,13,54,38,690
0.17230,2.94000,-4.67250,0.00000,-0.01074,0.01318,-0.98905,2023,6,12,13,54,38,701
0.17240,3.06250,-4.53250,0.00000,-0.01183,0.01159,-0.98698,2023,6,12,13,54,38,712
0.17250,3.04500,-4.60250,0.00000,-0.01061,0.01232,-0.98735,2023,6,12,13,54,38,724
0.17260,2.99250,-4.39250,0.00000,-0.01061,0.01257,-0.98857,2023,6,12,13,54,38,735
0.17270,3.06250,-4.51500,0.00000,-0.01098,0.01147,-0.98710,2023,6,12,13,54,38,746
0.17280,3.02750,-4.62000,0.00000,-0.01074,0.01098,-0.98381,2023,6,12,13,54,38,757
0.17290,2.90500,-4.69000,0.00000,-0.01159,0.01135,-0.98576,2023,6,12,13,54,38,768
0.17300,2.81750,-4.21750,0.00000,-0.01220,0.01427,-0.98564,2023,6,12,13,54,38,779
0.17310,3.02750,-4.63750,0.00000,-0.01171,0.01183,-0.98771,2023,6,12,13,54,38,790
0.17320,2.99250,-4.56750,0.00000,-0.01061,0.00976,-0.98698,2023,6,12,13,54,38,801
0.17330,3.04500,-4.67250,0.00000,-0.01147,0.01074,-0.98918,2023,6,12,13,54,38,812
0.17340,2.99250,-4.53250,0.00000,-0.00927,0.01354,-0.98503,2023,6,12,13,54,38,824
0.17350,2.94000,-4.48000,0.00000,-0.01232,0.01074,-0.98674,2023,6,12,13,54,38,835
0.17360,2.85250,-4.46250,0.00000,-0.01147,0.01196,-0.98503,2023,6,12,13,54,38,846
0.17370,3.09750,-4.65500,0.00000,-0.01135,0.01086,-0.98759,2023,6,12,13,54,38,857
0.17380,3.04500,-4.63750,0.00000,-0.01000,0.01244,-0.98564,2023,6,12,13,54,38,868
0.17390,3.02750,-4.69000,0.00000,-0.01208,0.00915,-0.98710,2023,6,12,13,54,38,879
0.17400,3.11500,-4.49750,0.00000,-0.01049,0.01061,-0.98783,2023,6,12,13,54,38,890
0.17410,3.04500,-4.58500,0.00000,-0.01037,0.01232,-0.98747,2023,6,12,13,54,38,901
0.17420,2.83500,-4.55000,0.00000,-0.01098,0.01147,-0.98503,2023,6,12,13,54,38,912
0.17430,2.80000,-4.42750,0.00000,-0.00976,0.01171,-0.98698,2023,6,12,13,54,38,924
0.17440,3.13250,-4.70750,0.00000,-0.01061,0.01147,-0.98674,2023,6,12,13,54,38,935
0.17450,3.01000,-4.77750,0.00000,-0.01074,0.01257,-0.98893,2023,6,12,13,54,38,946
0.17460,2.85250,-4.56750,0.00000,-0.01135,0.01110,-0.98442,2023,6,12,13,54,38,957
0.17470,2.90500,-4.69000,0.00000,-0.01000,0.01013,-0.98503,2023,6,12,13,54,39,8
0.17480,2.92250,-4.65500,0.00000,-0.01025,0.01171,-0.98661,2023,6,12,13,54,39,19
0.17490,3.09750,-4.49750,0.00000,-0.01098,0.01269,-0.98478,2023,6,12,13,54,39,30
0.17500,2.74750,-4.63750,0.00000,-0.01159,0.01196,-0.98698,2023,6,12,13,54,39,41
0.17510,2.97500,-4.51500,0.00000,-0.01135,0.01379,-0.99027,2023,6,12,13,54,39,52
0.17520,2.99250,-4.76000,0.00000,-0.01220,0.01183,-0.98783,2023,6,12,13,54,39,64
0.17530,3.01000,-4.56750,0.00000,-0.01098,0.00878,-0.98613,2023,6,12,13,54,39,75
0.17540,2.92250,-4.44500,0.00000,-0.01025,0.01183,-0.98771,2023,6,12,13,54,39,86
0.17550,2.90500,-4.48000,0.00000,-0.01013,0.01086,-0.98759,2023,6,12,13,54,39,97
0.17560,2.90500,-4.69000,0.00000,-0.01013,0.01196,-0.98527,2023,6,12,13,54,39,108
0.17570,2.85250,-4.55000,0.00000,-0.01110,0.01171,-0.98710,2023,6,12,13,54,39,119
0.17580,2.90500,-4.44500,0.00000,-0.01110,0.01183,-0.98747,2023,6,12,13,54,39,130
0.17590,2.99250,-4.55000,0.00000,-0.00939,0.01086,-0.98527,2023,6,12,13,54,39,141
0.17600,2.94000,-4.79500,0.00000,-0.01098,0.01330,-0.98747,2023,6,12,13,54,39,152
0.17610,2.83500,-4.60250,0.00000,-0.01244,0.01366,-0.98918,2023,6,12,13,54,39,164
0.17620,2.81750,-4.56750,0.00000,-0.01086,0.01232,-0.98674,2023,6,12,13,54,39,175
0.17630,3.04500,-4.49750,0.00000,-0.00927,0.01061,-0.98881,2023,6,12,13,54,39,186
0.17640,3.08000,-4.58500,0.00000,-0.01196,0.01171,-0.98710,2023,6,12,13,54,39,197
0.17650,3.15000,-4.48000,0.00000,-0.01208,0.01183,-0.98661,2023,6,12,13,54,39,208
0.17660,3.08000,-4.60250,0.00000,-0.01183,0.01159,-0.98844,2023,6,12,13,54,39,219
0.17670,2.85250,-4.70750,0.00000,-0.00878,0.01257,-0.98417,2023,6,12,13,54,39,230
0.17680,3.06250,-4.62000,0.00000,-0.00915,0.01025,-0.98613,2023,6,12,13,54,39,241
0.17690,2.74750,-4.41000,0.00000,-0.01013,0.01098,-0.98381,2023,6,12,13,54,39,252
0.17700,2.97500,-4.56750,0.00000,-0.01061,0.01257,-0.99040,2023,6,12,13,54,39,264
0.17710,2.99250,-4.60250,0.00000,-0.01086,0.00927,-0.98637,2023,6,12,13,54,39,275
0.17720,3.06250,-4.83000,0.00000,-0.01086,0.01135,-0.98674,2023,6,12,13,54,39,286
0.17730,2.99250,-4.70750,0.00000,-0.01183,0.01122,-0.98710,2023,6,12,13,54,39,297
0.17740,3.13250,-4.53250,0.00000,-0.00927,0.01196,-0.98674,2023,6,12,13,54,39,308
0.17750,2.78250,-4.67250,0.00000,-0.01232,0.01440,-0.98735,2023,6,12,13,54,39,319
0.17760,3.02750,-4.48000,0.00000,-0.00903,0.01013,-0.98491,2023,6,12,13,54,39,330
0.17770,3.06250,-4.46250,0.00000,-0.01159,0.01000,-0.98332,2023,6,12,13,54,39,341
0.17780,2.87000,-4.55000,0.00000,-0.01379,0.01171,-0.98759,2023,6,12,13,54,39,352
0.17790,2.83500,-4.83000,0.00000,-0.01122,0.01025,-0.98637,2023,6,12,13,54,39,364
0.17800,2.87000,-4.49750,0.00000,-0.00903,0.01000,-0.98576,2023,6,12,13,54,39,375
0.17810,2.85250,-4.53250,0.00000,-0.00976,0.01037,-0.98417,2023,6,12,13,54,39,386
0.17820,3.11500,-4.49750,0.00000,-0.01281,0.01110,-0.98588,2023,6,12,13,54,39,397
0.17830,2.95750,-4.53250,0.00000,-0.01110,0.01183,-0.98783,2023,6,12,13,54,39,408
0.17840,2.85250,-4.32250,0.00000,-0.01074,0.01122,-0.98771,2023,6,12,13,54,39,419
0.17850,2.95750,-4.53250,0.00000,-0.01074,0.00866,-0.98649,2023,6,12,13,54,39,430
0.17860,3.13250,-4.74250,0.00000,-0.01037,0.01110,-0.98576,2023,6,12,13,54,39,441
0.17870,2.95750,-4.62000,0.00000,-0.01269,0.01196,-0.98722,2023,6,12,13,54,39,452
0.17880,2.90500,-4.58500,0.00000,-0.01147,0.01281,-0.98759,2023,6,12,13,54,39,464
0.17890,3.08000,-4.56750,0.00000,-0.01061,0.01366,-0.98881,2023,6,12,13,54,39,475
0.17900,3.16750,-4.77750,0.00000,-0.01183,0.01281,-0.98783,2023,6,12,13,54,39,486
0.17910,2.74750,-4.37500,0.00000,-0.00964,0.01464,-0.98954,2023,6,12,13,54,39,497
0.17920,3.06250,-4.63750,0.00000,-0.01086,0.00952,-0.98991,2023,6,12,13,54,39,508
0.17930,2.92250,-4.79500,0.00000,-0.01257,0.01196,-0.99015,2023,6,12,13,54,39,519
0.17940,2.99250,-4.53250,0.00000,-0.01110,0.01427,-0.98735,2023,6,12,13,54,39,530
0.17950,3.04500,-4.49750,0.00000,-0.01269,0.01232,-0.98930,2023,6,12,13,54,39,541
0.17960,2.99250,-4.55000,0.00000,-0.01013,0.01074,-0.98442,2023,6,12,13,54,39,552
0.17970,3.04500,-4.62000,0.00000,-0.01135,0.00976,-0.98698,2023,6,12,13,54,39,564
0.17980,2.88750,-4.44500,0.00000,-0.00952,0.01183,-0.98820,2023,6,12,13,54,39,575
0.17990,2.88750,-4.60250,0.00000,-0.01049,0.01110,-0.98649,2023,6,12,13,54,39,586
0.18000,3.08000,-4.53250,0.00000,-0.01025,0.01293,-0.98735,2023,6,12,13,54,39,597
0.18010,2.94000,-4.41000,0.00000,-0.01159,0.00939,-0.98332,2023,6,12,13,54,39,608
0.18020,2.88750,-4.55000,0.00000,-0.01244,0.01037,-0.98552,2023,6,12,13,54,39,619
#2023/06/12 13:54:39
