#2023/06/12 11:34:46
time,wx,wy,wz,ax,ay,az,yy,MM,dd,hh,mm,ss,ms
0.00000,3.11500,-4.65500,0.00000,0.00159,0.04148,-0.98881,2023,6,12,11,34,46,137
0.00010,3.15000,-4.56750,0.00000,0.00268,0.04538,-0.98796,2023,6,12,11,34,46,148
0.00020,2.99250,-4.48000,0.00000,0.00293,0.04172,-0.98747,2023,6,12,11,34,46,159
0.00030,3.25500,-4.49750,0.00000,0.00244,0.04209,-0.98759,2023,6,12,11,34,46,170
0.00040,2.99250,-4.58500,0.00000,0.00256,0.04270,-0.98771,2023,6,12,11,34,46,181
0.00050,3.22000,-4.53250,0.00000,0.00366,0.04197,-0.99064,2023,6,12,11,34,46,192
0.00060,3.20250,-4.49750,0.00000,0.00293,0.04307,-0.98613,2023,6,12,11,34,46,203
0.00070,3.16750,-4.60250,0.00000,0.00159,0.04282,-0.98552,2023,6,12,11,34,46,214
0.00080,3.16750,-4.65500,0.00000,0.00171,0.04124,-0.98649,2023,6,12,11,34,46,225
0.00090,3.15000,-4.56750,0.00000,0.00476,0.04343,-0.98820,2023,6,12,11,34,46,237
0.00100,2.99250,-4.55000,0.00000,0.00342,0.04319,-0.98820,2023,6,12,11,34,46,248
0.00110,3.13250,-4.44500,0.00000,0.00207,0.03989,-0.98600,2023,6,12,11,34,46,259
0.00120,3.06250,-4.53250,0.00000,0.00281,0.04392,-0.98637,2023,6,12,11,34,46,270
0.00130,3.30750,-4.60250,0.00000,0.00403,0.04380,-0.98930,2023,6,12,11,34,46,281
0.00140,3.22000,-4.60250,0.00000,0.00305,0.04490,-0.98979,2023,6,12,11,34,46,292
0.00150,2.90500,-4.56750,0.00000,0.00207,0.04246,-0.98576,2023,6,12,11,34,46,303
0.00160,3.29000,-4.70750,0.00000,0.00232,0.04209,-0.98783,2023,6,12,11,34,46,314
0.00170,3.09750,-4.58500,0.00000,0.00012,0.04209,-0.98722,2023,6,12,11,34,46,325
0.00180,3.15000,-4.32250,0.00000,0.00329,0.04331,-0.98710,2023,6,12,11,34,46,336
0.00190,3.29000,-4.62000,0.00000,0.00354,0.04221,-0.98747,2023,6,12,11,34,46,348
0.00200,3.09750,-4.58500,0.00000,0.00232,0.04416,-0.98783,2023,6,12,11,34,46,359
0.00210,3.01000,-4.56750,0.00000,0.00268,0.04453,-0.98796,2023,6,12,11,34,46,370
0.00220,3.34250,-4.60250,0.00000,0.00220,0.04307,-0.98857,2023,6,12,11,34,46,381
0.00230,3.20250,-4.51500,0.00000,0.00378,0.04368,-0.98759,2023,6,12,11,34,46,392
0.00240,3.22000,-4.56750,0.00000,0.00293,0.04136,-0.98893,2023,6,12,11,34,46,403
0.00250,3.11500,-4.51500,0.00000,0.00342,0.04319,-0.98796,2023,6,12,11,34,46,414
0.00260,3.20250,-4.55000,0.00000,0.00134,0.04172,-0.98710,2023,6,12,11,34,46,425
0.00270,3.08000,-4.69000,0.00000,0.00439,0.04282,-0.99040,2023,6,12,11,34,46,436
0.00280,2.97500,-4.42750,0.00000,0.00354,0.04355,-0.98674,2023,6,12,11,34,46,448
0.00290,3.22000,-4.42750,0.00000,0.00427,0.04404,-0.98832,2023,6,12,11,34,46,459
0.00300,3.23750,-4.84750,0.00000,0.00415,0.04307,-0.98905,2023,6,12,11,34,46,470
0.00310,3.11500,-4.53250,0.00000,0.00378,0.04294,-0.98515,2023,6,12,11,34,46,481
0.00320,3.30750,-4.48000,0.00000,0.00390,0.04160,-0.98625,2023,6,12,11,34,46,492
0.00330,3.16750,-4.56750,0.00000,0.00329,0.04355,-0.98491,2023,6,12,11,34,46,503
0.00340,3.04500,-4.48000,0.00000,0.00232,0.04185,-0.98844,2023,6,12,11,34,46,514
0.00350,3.13250,-4.53250,0.00000,0.00439,0.04380,-0.98552,2023,6,12,11,34,46,525
0.00360,2.92250,-4.60250,0.00000,0.00317,0.04429,-0.98747,2023,6,12,11,34,46,536
0.00370,3.04500,-4.51500,0.00000,0.00512,0.04282,-0.98698,2023,6,12,11,34,46,548
0.00380,3.08000,-4.65500,0.00000,0.00256,0.04416,-0.98783,2023,6,12,11,34,46,559
0.00390,3.25500,-4.44500,0.00000,0.00403,0.04404,-0.98771,2023,6,12,11,34,46,570
0.00400,3.09750,-4.70750,0.00000,0.00476,0.04294,-0.98661,2023,6,12,11,34,46,581
0.00410,3.15000,-4.69000,0.00000,0.00415,0.04148,-0.98527,2023,6,12,11,34,46,592
0.00420,3.27250,-4.65500,0.00000,0.00171,0.04099,-0.98783,2023,6,12,11,34,46,603
0.00430,3.23750,-4.46250,0.00000,0.00146,0.04319,-0.99076,2023,6,12,11,34,46,614
0.00440,3.16750,-4.46250,0.00000,0.00403,0.04282,-0.98625,2023,6,12,11,34,46,625
0.00450,3.16750,-4.58500,0.00000,0.00268,0.04270,-0.98613,2023,6,12,11,34,46,636
0.00460,3.20250,-4.63750,0.00000,0.00329,0.04368,-0.98954,2023,6,12,11,34,46,648
0.00470,3.16750,-4.62000,0.00000,0.00293,0.04197,-0.98576,2023,6,12,11,34,46,659
0.00480,3.18500,-4.60250,0.00000,0.00061,0.04185,-0.98576,2023,6,12,11,34,46,670
0.00490,3.02750,-4.56750,0.00000,0.00232,0.04185,-0.98771,2023,6,12,11,34,46,681
0.00500,2.85250,-4.41000,0.00000,0.00146,0.04148,-0.98881,2023,6,12,11,34,46,692
0.00510,3.11500,-4.56750,0.00000,0.00207,0.04209,-0.98491,2023,6,12,11,34,46,703
0.00520,3.29000,-4.55000,0.00000,0.00171,0.04246,-0.98869,2023,6,12,11,34,46,714
0.00530,3.04500,-4.67250,0.00000,0.00512,0.04111,-0.98454,2023,6,12,11,34,46,725
0.00540,3.09750,-4.51500,0.00000,0.00451,0.04368,-0.98857,2023,6,12,11,34,46,736
0.00550,3.13250,-4.58500,0.00000,0.00232,0.04294,-0.98722,2023,6,12,11,34,46,748
0.00560,3.06250,-4.44500,0.00000,0.00134,0.04185,-0.99015,2023,6,12,11,34,46,759
0.00570,3.02750,-4.70750,0.00000,0.00244,0.04233,-0.98783,2023,6,12,11,34,46,770
0.00580,3.23750,-4.63750,0.00000,0.00098,0.04307,-0.98686,2023,6,12,11,34,46,781
0.00590,3.09750,-4.51500,0.00000,0.00305,0.04307,-0.98649,2023,6,12,11,34,46,792
0.00600,3.15000,-4.84750,0.00000,0.00244,0.04258,-0.98796,2023,6,12,11,34,46,803
0.00610,3.23750,-4.67250,0.00000,0.00439,0.04197,-0.98637,2023,6,12,11,34,46,814
0.00620,3.22000,-4.56750,0.00000,0.00317,0.04490,-0.98869,2023,6,12,11,34,46,825
0.00630,3.29000,-4.62000,0.00000,0.00305,0.04063,-0.98771,2023,6,12,11,34,46,836
0.00640,3.32500,-4.69000,0.00000,0.00451,0.04270,-0.98686,2023,6,12,11,34,46,848
0.00650,3.15000,-4.49750,0.00000,0.00305,0.04331,-0.98832,2023,6,12,11,34,46,859
0.00660,3.18500,-4.42750,0.00000,0.00268,0.04197,-0.98710,2023,6,12,11,34,46,870
0.00670,3.09750,-4.58500,0.00000,0.00427,0.04185,-0.98539,2023,6,12,11,34,46,881
0.00680,3.25500,-4.55000,0.00000,0.00390,0.04416,-0.98869,2023,6,12,11,34,46,892
0.00690,3.27250,-4.76000,0.00000,0.00427,0.04221,-0.98649,2023,6,12,11,34,46,903
0.00700,3.36000,-4.69000,0.00000,0.00220,0.04172,-0.98759,2023,6,12,11,34,46,914
0.00710,3.23750,-4.63750,0.00000,0.00073,0.04355,-0.98869,2023,6,12,11,34,46,925
0.00720,3.23750,-4.69000,0.00000,0.00268,0.04282,-0.98881,2023,6,12,11,34,46,936
0.00730,3.09750,-4.41000,0.00000,0.00281,0.04246,-0.98783,2023,6,12,11,34,46,948
0.00740,3.13250,-4.55000,0.00000,0.00366,0.04343,-0.98576,2023,6,12,11,34,46,959
0.00750,3.08000,-4.49750,0.00000,0.00305,0.04270,-0.98893,2023,6,12,11,34,46,970
0.00760,2.99250,-4.65500,0.00000,0.00390,0.04282,-0.98649,2023,6,12,11,34,46,981
0.00770,2.85250,-4.56750,0.00000,0.00305,0.04197,-0.99040,2023,6,12,11,34,46,992
0.00780,2.99250,-4.56750,0.00000,0.00354,0.04270,-0.98905,2023,6,12,11,34,46,3
0.00790,3.16750,-4.76000,0.00000,0.00281,0.04392,-0.98661,2023,6,12,11,34,46,14
0.00800,3.09750,-4.74250,0.00000,0.00268,0.04148,-0.99064,2023,6,12,11,34,46,25
0.00810,2.88750,-4.53250,0.00000,0.00317,0.04270,-0.98686,2023,6,12,11,34,46,36
0.00820,3.13250,-4.53250,0.00000,0.00305,0.04294,-0.98637,2023,6,12,11,34,46,48
0.00830,3.15000,-4.65500,0.00000,0.00561,0.04343,-0.98881,2023,6,12,11,34,46,59
0.00840,3.08000,-4.69000,0.00000,0.00281,0.04136,-0.98771,2023,6,12,11,34,46,70
0.00850,2.99250,-4.55000,0.00000,0.00561,0.04246,-0.98893,2023,6,12,11,34,46,81
0.00860,3.06250,-4.58500,0.00000,0.00451,0.04392,-0.98686,2023,6,12,11,34,46,92
0.00870,3.15000,-4.83000,0.00000,0.00232,0.04526,-0.98735,2023,6,12,11,34,46,103
0.00880,3.08000,-4.55000,0.00000,0.00561,0.04209,-0.98783,2023,6,12,11,34,46,114
0.00890,3.22000,-4.76000,0.00000,0.00256,0.04526,-0.98588,2023,6,12,11,34,46,125
0.00900,3.04500,-4.72500,0.00000,0.00220,0.04392,-0.98576,2023,6,12,11,34,46,136
0.00910,3.29000,-4.58500,0.00000,0.00244,0.04307,-0.98954,2023,6,12,11,34,46,148
0.00920,3.22000,-4.56750,0.00000,0.00244,0.04270,-0.99040,2023,6,12,11,34,46,159
0.00930,3.16750,-4.62000,0.00000,0.00439,0.04319,-0.98747,2023,6,12,11,34,46,170
0.00940,3.15000,-4.42750,0.00000,0.00146,0.04380,-0.98735,2023,6,12,11,34,46,181
0.00950,3.16750,-4.55000,0.00000,0.00293,0.04319,-0.98735,2023,6,12,11,34,46,192
0.00960,3.15000,-4.65500,0.00000,0.00244,0.04258,-0.99052,2023,6,12,11,34,46,203
0.00970,3.20250,-4.62000,0.00000,0.00342,0.03916,-0.98820,2023,6,12,11,34,46,214
0.00980,2.94000,-4.72500,0.00000,0.00244,0.04270,-0.99027,2023,6,12,11,34,46,225
0.00990,3.22000,-4.53250,0.00000,0.00354,0.04063,-0.98625,2023,6,12,11,34,46,236
0.01000,2.97500,-4.58500,0.00000,0.00207,0.04233,-0.98979,2023,6,12,11,34,46,248
0.01010,3.20250,-4.55000,0.00000,0.00256,0.04087,-0.98735,2023,6,12,11,34,46,259
0.01020,2.94000,-4.55000,0.00000,0.00403,0.04075,-0.98588,2023,6,12,11,34,46,270
0.01030,3.16750,-4.67250,0.00000,0.00342,0.03989,-0.98954,2023,6,12,11,34,46,281
0.01040,3.16750,-4.44500,0.00000,0.00244,0.04294,-0.98613,2023,6,12,11,34,46,292
0.01050,3.20250,-4.55000,0.00000,0.00476,0.04465,-0.98710,2023,6,12,11,34,47,3
0.01060,2.97500,-4.60250,0.00000,0.00573,0.04038,-0.98478,2023,6,12,11,34,47,14
0.01070,3.25500,-4.70750,0.00000,0.00073,0.04111,-0.98698,2023,6,12,11,34,47,25
0.01080,3.02750,-4.55000,0.00000,0.00305,0.04453,-0.98722,2023,6,12,11,34,47,36
0.01090,3.22000,-4.67250,0.00000,0.00159,0.04160,-0.98637,2023,6,12,11,34,47,48
0.01100,3.08000,-4.63750,0.00000,0.00537,0.04197,-0.98539,2023,6,12,11,34,47,59
0.01110,3.09750,-4.51500,0.00000,0.00390,0.04160,-0.98759,2023,6,12,11,34,47,70
0.01120,3.04500,-4.56750,0.00000,0.00268,0.04294,-0.98649,2023,6,12,11,34,47,81
0.01130,3.18500,-4.70750,0.00000,0.00439,0.04075,-0.98600,2023,6,12,11,34,47,92
0.01140,3.22000,-4.56750,0.00000,0.00354,0.04343,-0.98747,2023,6,12,11,34,47,103
0.01150,3.15000,-4.58500,0.00000,-0.00061,0.04429,-0.98808,2023,6,12,11,34,47,114
0.01160,3.13250,-4.76000,0.00000,0.00134,0.04294,-0.99015,2023,6,12,11,34,47,125
0.01170,3.09750,-4.53250,0.00000,0.00439,0.04172,-0.98600,2023,6,12,11,34,47,136
0.01180,3.11500,-4.32250,0.00000,0.00195,0.04209,-0.98747,2023,6,12,11,34,47,148
0.01190,3.11500,-4.69000,0.00000,0.00329,0.04246,-0.98844,2023,6,12,11,34,47,159
0.01200,3.13250,-4.46250,0.00000,0.00342,0.04294,-0.98808,2023,6,12,11,34,47,170
0.01210,3.13250,-4.67250,0.00000,0.00354,0.04319,-0.98625,2023,6,12,11,34,47,181
0.01220,3.01000,-4.67250,0.00000,-0.00073,0.04307,-0.98649,2023,6,12,11,34,47,192
0.01230,3.04500,-4.53250,0.00000,0.00317,0.04380,-0.98820,2023,6,12,11,34,47,203
0.01240,3.11500,-4.70750,0.00000,0.00500,0.04209,-0.98857,2023,6,12,11,34,47,214
0.01250,3.13250,-4.63750,0.00000,0.00390,0.04209,-0.98857,2023,6,12,11,34,47,225
0.01260,3.09750,-4.56750,0.00000,0.00171,0.04307,-0.98918,2023,6,12,11,34,47,236
0.01270,3.32500,-4.67250,0.00000,0.00256,0.04307,-0.98844,2023,6,12,11,34,47,248
0.01280,3.06250,-4.88250,0.00000,0.00293,0.04233,-0.98747,2023,6,12,11,34,47,259
0.01290,3.36000,-4.67250,0.00000,0.00110,0.04172,-0.98698,2023,6,12,11,34,47,270
0.01300,3.23750,-4.70750,0.00000,0.00220,0.04233,-0.98857,2023,6,12,11,34,47,281
0.01310,2.94000,-4.60250,0.00000,0.00110,0.04258,-0.98637,2023,6,12,11,34,47,292
0.01320,3.08000,-4.44500,0.00000,0.00317,0.04307,-0.98661,2023,6,12,11,34,47,303
0.01330,3.29000,-4.65500,0.00000,0.00464,0.04465,-0.98430,2023,6,12,11,34,47,314
0.01340,3.11500,-4.49750,0.00000,0.00317,0.04307,-0.98832,2023,6,12,11,34,47,325
0.01350,3.11500,-4.55000,0.00000,0.00390,0.04172,-0.98832,2023,6,12,11,34,47,336
0.01360,3.08000,-4.70750,0.00000,0.00390,0.04343,-0.98625,2023,6,12,11,34,47,348
0.01370,3.30750,-4.76000,0.00000,0.00476,0.04075,-0.98930,2023,6,12,11,34,47,359
0.01380,3.11500,-4.76000,0.00000,0.00305,0.04380,-0.98527,2023,6,12,11,34,47,370
0.01390,3.11500,-4.70750,0.00000,0.00207,0.04172,-0.98881,2023,6,12,11,34,47,381
0.01400,3.11500,-4.37500,0.00000,0.00134,0.04331,-0.98674,2023,6,12,11,34,47,392
0.01410,2.97500,-4.72500,0.00000,0.00207,0.04209,-0.98674,2023,6,12,11,34,47,403
0.01420,3.16750,-4.42750,0.00000,0.00232,0.04404,-0.98966,2023,6,12,11,34,47,414
0.01430,3.09750,-4.49750,0.00000,0.00476,0.04355,-0.98637,2023,6,12,11,34,47,425
0.01440,3.09750,-4.53250,0.00000,0.00695,0.04270,-0.98515,2023,6,12,11,34,47,436
0.01450,3.16750,-4.62000,0.00000,0.00244,0.04392,-0.98905,2023,6,12,11,34,47,448
0.01460,3.27250,-4.53250,0.00000,0.00415,0.04124,-0.98588,2023,6,12,11,34,47,459
0.01470,3.18500,-4.79500,0.00000,0.00390,0.04270,-0.98747,2023,6,12,11,34,47,470
0.01480,3.20250,-4.62000,0.00000,0.00207,0.04343,-0.98979,2023,6,12,11,34,47,481
0.01490,3.15000,-4.63750,0.00000,0.00256,0.04185,-0.98820,2023,6,12,11,34,47,492
0.01500,3.16750,-4.53250,0.00000,0.00561,0.04514,-0.98844,2023,6,12,11,34,47,503
0.01510,3.08000,-4.46250,0.00000,0.00085,0.04502,-0.98832,2023,6,12,11,34,47,514
0.01520,3.20250,-4.70750,0.00000,0.00244,0.04270,-0.98686,2023,6,12,11,34,47,525
0.01530,3.11500,-4.49750,0.00000,0.00281,0.04355,-0.98747,2023,6,12,11,34,47,536
0.01540,2.90500,-4.35750,0.00000,0.00183,0.04185,-0.98722,2023,6,12,11,34,47,548
0.01550,3.20250,-4.44500,0.00000,0.00159,0.04172,-0.98625,2023,6,12,11,34,47,559
0.01560,3.11500,-4.65500,0.00000,0.00268,0.04148,-0.98600,2023,6,12,11,34,47,570
0.01570,3.20250,-4.65500,0.00000,-0.00049,0.04477,-0.98637,2023,6,12,11,34,47,581
0.01580,3.27250,-4.69000,0.00000,0.00195,0.04355,-0.98588,2023,6,12,11,34,47,592
0.01590,3.18500,-4.60250,0.00000,0.00354,0.04246,-0.98661,2023,6,12,11,34,47,603
0.01600,3.20250,-4.72500,0.00000,0.00085,0.04282,-0.98942,2023,6,12,11,34,47,614
0.01610,3.16750,-4.48000,0.00000,0.00329,0.04136,-0.98735,2023,6,12,11,34,47,625
0.01620,3.04500,-4.62000,0.00000,0.00146,0.04087,-0.98991,2023,6,12,11,34,47,636
0.01630,2.88750,-4.49750,0.00000,0.00366,0.04453,-0.98832,2023,6,12,11,34,47,648
0.01640,3.15000,-4.60250,0.00000,0.00195,0.04221,-0.98735,2023,6,12,11,34,47,659
0.01650,3.09750,-4.72500,0.00000,0.00366,0.04221,-0.98698,2023,6,12,11,34,47,670
0.01660,3.02750,-4.65500,0.00000,0.00329,0.04587,-0.98710,2023,6,12,11,34,47,681
0.01670,3.23750,-4.39250,0.00000,0.00220,0.04270,-0.98710,2023,6,12,11,34,47,692
0.01680,3.13250,-4.58500,0.00000,0.00329,0.04197,-0.98503,2023,6,12,11,34,47,703
0.01690,3.08000,-4.58500,0.00000,0.00439,0.04063,-0.98649,2023,6,12,11,34,47,714
0.01700,3.18500,-4.63750,0.00000,0.00354,0.04343,-0.98857,2023,6,12,11,34,47,725
0.01710,3.25500,-4.62000,0.00000,0.00476,0.04111,-0.98771,2023,6,12,11,34,47,736
0.01720,3.02750,-4.49750,0.00000,0.00183,0.04124,-0.98893,2023,6,12,11,34,47,748
0.01730,3.15000,-4.49750,0.00000,0.00293,0.04221,-0.98637,2023,6,12,11,34,47,759
0.01740,3.22000,-4.41000,0.00000,0.00207,0.04014,-0.99113,2023,6,12,11,34,47,770
0.01750,3.02750,-4.49750,0.00000,0.00464,0.04319,-0.98661,2023,6,12,11,34,47,781
0.01760,3.04500,-4.55000,0.00000,0.00281,0.04282,-0.98783,2023,6,12,11,34,47,792
0.01770,3.20250,-4.60250,0.00000,0.00476,0.04331,-0.98454,2023,6,12,11,34,47,803
0.01780,3.20250,-4.67250,0.00000,0.00464,0.04124,-0.98735,2023,6,12,11,34,47,814
0.01790,3.11500,-4.56750,0.00000,0.00439,0.04258,-0.98930,2023,6,12,11,34,47,825
0.01800,3.16750,-4.51500,0.00000,0.00415,0.04246,-0.99015,2023,6,12,11,34,47,836
0.01810,2.99250,-4.51500,0.00000,0.00256,0.04221,-0.98905,2023,6,12,11,34,47,848
0.01820,3.18500,-4.65500,0.00000,0.00220,0.04282,-0.98527,2023,6,12,11,34,47,859
0.01830,2.97500,-4.69000,0.00000,0.00415,0.04124,-0.98771,2023,6,12,11,34,47,870
0.01840,3.18500,-4.67250,0.00000,0.00207,0.04136,-0.99003,2023,6,12,11,34,47,881
0.01850,3.29000,-4.55000,0.00000,0.00220,0.04294,-0.98503,2023,6,12,11,34,47,892
0.01860,3.09750,-4.81250,0.00000,0.00342,0.04002,-0.98710,2023,6,12,11,34,47,903
0.01870,3.09750,-4.83000,0.00000,0.00439,0.04429,-0.98686,2023,6,12,11,34,47,914
0.01880,3.08000,-4.51500,0.00000,0.00354,0.04233,-0.98930,2023,6,12,11,34,47,925
0.01890,3.15000,-4.41000,0.00000,0.00354,0.04453,-0.99076,2023,6,12,11,34,47,936
0.01900,3.16750,-4.58500,0.00000,0.00366,0.04002,-0.98722,2023,6,12,11,34,47,948
0.01910,3.09750,-4.83000,0.00000,0.00329,0.04392,-0.99064,2023,6,12,11,34,47,959
0.01920,3.13250,-4.55000,0.00000,0.00134,0.04282,-0.99137,2023,6,12,11,34,47,970
0.01930,3.20250,-4.77750,0.00000,0.00244,0.04319,-0.98698,2023,6,12,11,34,47,981
0.01940,3.16750,-4.69000,0.00000,0.00403,0.04221,-0.98637,2023,6,12,11,34,48,2
0.01950,3.16750,-4.58500,0.00000,0.00207,0.04075,-0.99040,2023,6,12,11,34,48,13
0.01960,3.23750,-4.70750,0.00000,0.00610,0.04429,-0.98759,2023,6,12,11,34,48,24
0.01970,3.27250,-4.79500,0.00000,0.00305,0.04258,-0.98625,2023,6,12,11,34,48,35
0.01980,3.30750,-4.70750,0.00000,0.00415,0.04148,-0.98686,2023,6,12,11,34,48,46
0.01990,3.32500,-4.70750,0.00000,0.00256,0.04148,-0.99027,2023,6,12,11,34,48,58
0.02000,3.15000,-4.56750,0.00000,0.00378,0.04307,-0.98735,2023,6,12,11,34,48,69
0.02010,3.02750,-4.35750,0.00000,0.00256,0.04404,-0.98832,2023,6,12,11,34,48,80
0.02020,3.30750,-4.56750,0.00000,0.00451,0.04477,-0.99088,2023,6,12,11,34,48,91
0.02030,3.06250,-4.65500,0.00000,0.00122,0.04233,-0.98881,2023,6,12,11,34,48,102
0.02040,3.06250,-4.51500,0.00000,0.00268,0.04136,-0.98771,2023,6,12,11,34,48,113
0.02050,3.09750,-4.63750,0.00000,0.00439,0.04270,-0.98613,2023,6,12,11,34,48,124
0.02060,2.95750,-4.60250,0.00000,0.00207,0.04258,-0.98783,2023,6,12,11,34,48,135
0.02070,3.06250,-4.70750,0.00000,0.00305,0.04209,-0.98759,2023,6,12,11,34,48,146
0.02080,3.18500,-4.56750,0.00000,0.00220,0.04233,-0.98942,2023,6,12,11,34,48,158
0.02090,3.30750,-4.60250,0.00000,0.00403,0.04124,-0.98466,2023,6,12,11,34,48,169
0.02100,3.13250,-4.44500,0.00000,0.00366,0.04319,-0.98710,2023,6,12,11,34,48,180
0.02110,3.36000,-4.53250,0.00000,0.00146,0.04368,-0.98918,2023,6,12,11,34,48,191
0.02120,3.08000,-4.60250,0.00000,0.00207,0.04172,-0.98698,2023,6,12,11,34,48,202
0.02130,3.25500,-4.76000,0.00000,0.00317,0.04319,-0.98832,2023,6,12,11,34,48,213
0.02140,3.16750,-4.39250,0.00000,0.00220,0.04282,-0.98539,2023,6,12,11,34,48,224
0.02150,3.16750,-4.60250,0.00000,0.00268,0.04221,-0.98796,2023,6,12,11,34,48,235
0.02160,3.09750,-4.93500,0.00000,0.00305,0.04221,-0.98722,2023,6,12,11,34,48,246
0.02170,3.13250,-4.44500,0.00000,0.00220,0.04307,-0.98735,2023,6,12,11,34,48,258
0.02180,3.11500,-4.65500,0.00000,0.00000,0.04477,-0.98722,2023,6,12,11,34,48,269
0.02190,3.06250,-4.30500,0.00000,0.00268,0.04124,-0.98588,2023,6,12,11,34,48,280
0.02200,3.13250,-4.58500,0.00000,0.00378,0.04209,-0.98369,2023,6,12,11,34,48,291
0.02210,3.16750,-4.53250,0.00000,0.00366,0.04209,-0.98661,2023,6,12,11,34,48,302
0.02220,3.16750,-4.83000,0.00000,0.00281,0.04282,-0.98625,2023,6,12,11,34,48,313
0.02230,3.11500,-4.58500,0.00000,0.00354,0.04343,-0.98613,2023,6,12,11,34,48,324
0.02240,3.16750,-4.72500,0.00000,0.00122,0.04050,-0.98710,2023,6,12,11,34,48,335
0.02250,2.92250,-4.72500,0.00000,0.00403,0.04050,-0.98686,2023,6,12,11,34,48,346
0.02260,2.99250,-4.37500,0.00000,0.00268,0.04026,-0.98905,2023,6,12,11,34,48,358
0.02270,3.20250,-4.37500,0.00000,0.00171,0.04038,-0.98808,2023,6,12,11,34,48,369
0.02280,3.36000,-4.56750,0.00000,0.00329,0.04270,-0.98576,2023,6,12,11,34,48,380
0.02290,2.92250,-4.63750,0.00000,0.00378,0.04441,-0.98747,2023,6,12,11,34,48,391
0.02300,3.15000,-4.55000,0.00000,0.00256,0.04294,-0.98710,2023,6,12,11,34,48,402
0.02310,3.01000,-4.53250,0.00000,0.00171,0.04185,-0.98808,2023,6,12,11,34,48,413
0.02320,3.29000,-4.60250,0.00000,0.00134,0.04172,-0.98783,2023,6,12,11,34,48,424
0.02330,3.02750,-4.49750,0.00000,0.00329,0.04270,-0.98515,2023,6,12,11,34,48,435
0.02340,3.09750,-4.42750,0.00000,0.00403,0.04160,-0.98698,2023,6,12,11,34,48,446
0.02350,2.95750,-4.48000,0.00000,0.00146,0.04331,-0.98735,2023,6,12,11,34,48,458
0.02360,3.08000,-4.69000,0.00000,0.00378,0.04258,-0.98735,2023,6,12,11,34,48,469
0.02370,3.09750,-4.62000,0.00000,0.00403,0.04099,-0.98735,2023,6,12,11,34,48,480
0.02380,3.18500,-4.56750,0.00000,0.00573,0.04185,-0.98112,2023,6,12,11,34,48,491
0.02390,3.16750,-4.49750,0.00000,0.00293,0.04282,-0.99125,2023,6,12,11,34,48,502
0.02400,3.23750,-4.74250,0.00000,0.00134,0.04282,-0.98735,2023,6,12,11,34,48,513
0.02410,3.23750,-4.62000,0.00000,0.00207,0.04136,-0.98600,2023,6,12,11,34,48,524
0.02420,3.32500,-4.55000,0.00000,0.00256,0.04185,-0.98552,2023,6,12,11,34,48,535
0.02430,3.08000,-4.55000,0.00000,0.00244,0.04172,-0.98674,2023,6,12,11,34,48,546
0.02440,3.04500,-4.56750,0.00000,0.00329,0.04404,-0.98857,2023,6,12,11,34,48,558
0.02450,3.16750,-4.63750,0.00000,0.00256,0.04404,-0.98881,2023,6,12,11,34,48,569
0.02460,3.08000,-4.67250,0.00000,0.00366,0.04233,-0.98722,2023,6,12,11,34,48,580
0.02470,3.15000,-4.62000,0.00000,0.00293,0.04172,-0.98539,2023,6,12,11,34,48,591
0.02480,3.13250,-4.62000,0.00000,0.00256,0.04136,-0.98539,2023,6,12,11,34,48,602
0.02490,3.06250,-4.63750,0.00000,0.00354,0.04502,-0.98796,2023,6,12,11,34,48,613
0.02500,3.22000,-4.60250,0.00000,0.00329,0.04368,-0.98722,2023,6,12,11,34,48,624
0.02510,3.11500,-4.42750,0.00000,0.00305,0.04124,-0.98527,2023,6,12,11,34,48,635
0.02520,2.97500,-4.72500,0.00000,0.00171,0.04148,-0.98625,2023,6,12,11,34,48,646
0.02530,2.95750,-4.62000,0.00000,0.00281,0.04099,-0.98783,2023,6,12,11,34,48,658
0.02540,3.36000,-4.67250,0.00000,0.00354,0.04197,-0.98552,2023,6,12,11,34,48,669
0.02550,3.08000,-4.67250,0.00000,0.00281,0.04221,-0.98905,2023,6,12,11,34,48,680
0.02560,3.06250,-4.70750,0.00000,0.00439,0.04209,-0.98576,2023,6,12,11,34,48,691
0.02570,3.16750,-4.63750,0.00000,0.00525,0.04160,-0.98588,2023,6,12,11,34,48,702
0.02580,2.99250,-4.53250,0.00000,0.00232,0.04233,-0.98674,2023,6,12,11,34,48,713
0.02590,2.99250,-4.60250,0.00000,0.00464,0.04233,-0.98600,2023,6,12,11,34,48,724
0.02600,3.18500,-4.58500,0.00000,0.00207,0.04197,-0.98783,2023,6,12,11,34,48,735
0.02610,3.18500,-4.67250,0.00000,0.00146,0.04221,-0.98930,2023,6,12,11,34,48,746
0.02620,3.04500,-4.55000,0.00000,0.00390,0.04209,-0.98796,2023,6,12,11,34,48,758
0.02630,3.09750,-4.63750,0.00000,0.00403,0.04380,-0.99027,2023,6,12,11,34,48,769
0.02640,3.02750,-4.35750,0.00000,0.00232,0.04465,-0.98869,2023,6,12,11,34,48,780
0.02650,2.94000,-4.49750,0.00000,0.00378,0.04587,-0.98783,2023,6,12,11,34,48,791
0.02660,3.27250,-4.39250,0.00000,0.00134,0.04246,-0.98637,2023,6,12,11,34,48,802
0.02670,3.09750,-4.53250,0.00000,0.00305,0.04380,-0.98539,2023,6,12,11,34,48,813
0.02680,3.04500,-4.56750,0.00000,0.00464,0.04441,-0.98710,2023,6,12,11,34,48,824
0.02690,3.08000,-4.53250,0.00000,0.00476,0.04294,-0.98686,2023,6,12,11,34,48,835
0.02700,3.25500,-4.86500,0.00000,0.00268,0.04282,-0.98954,2023,6,12,11,34,48,846
0.02710,3.08000,-4.55000,0.00000,0.00439,0.04392,-0.98661,2023,6,12,11,34,48,858
0.02720,3.22000,-4.58500,0.00000,0.00268,0.03989,-0.98844,2023,6,12,11,34,48,869
0.02730,3.15000,-4.67250,0.00000,0.00329,0.04270,-0.98796,2023,6,12,11,34,48,880
0.02740,3.23750,-4.76000,0.00000,0.00122,0.04221,-0.98930,2023,6,12,11,34,48,891
0.02750,3.06250,-4.49750,0.00000,0.00171,0.04294,-0.99040,2023,6,12,11,34,48,902
0.02760,3.08000,-4.48000,0.00000,0.00317,0.04453,-0.98796,2023,6,12,11,34,48,913
0.02770,3.18500,-4.63750,0.00000,0.00415,0.04331,-0.98552,2023,6,12,11,34,48,924
0.02780,3.08000,-4.84750,0.00000,0.00390,0.04221,-0.98844,2023,6,12,11,34,48,935
0.02790,3.08000,-4.88250,0.00000,0.00427,0.04148,-0.98564,2023,6,12,11,34,48,946
0.02800,2.99250,-4.30500,0.00000,0.00085,0.04319,-0.98783,2023,6,12,11,34,49,8
0.02810,3.23750,-4.42750,0.00000,0.00220,0.04270,-0.98832,2023,6,12,11,34,49,19
0.02820,2.95750,-4.69000,0.00000,0.00378,0.04148,-0.98832,2023,6,12,11,34,49,30
0.02830,3.04500,-4.65500,0.00000,0.00195,0.04307,-0.98930,2023,6,12,11,34,49,41
0.02840,2.99250,-4.51500,0.00000,0.00207,0.04050,-0.98613,2023,6,12,11,34,49,52
0.02850,2.97500,-4.53250,0.00000,0.00183,0.04307,-0.98759,2023,6,12,11,34,49,63
0.02860,3.13250,-4.56750,0.00000,0.00305,0.04185,-0.98661,2023,6,12,11,34,49,74
0.02870,3.11500,-4.74250,0.00000,0.00293,0.04343,-0.98649,2023,6,12,11,34,49,85
0.02880,3.25500,-4.49750,0.00000,0.00232,0.04319,-0.98564,2023,6,12,11,34,49,96
0.02890,3.27250,-4.55000,0.00000,0.00183,0.04282,-0.98869,2023,6,12,11,34,49,108
0.02900,3.04500,-4.55000,0.00000,0.00427,0.04294,-0.98600,2023,6,12,11,34,49,119
0.02910,3.06250,-4.86500,0.00000,0.00342,0.04050,-0.98686,2023,6,12,11,34,49,130
0.02920,3.15000,-4.55000,0.00000,0.00354,0.04368,-0.98771,2023,6,12,11,34,49,141
0.02930,3.13250,-4.58500,0.00000,0.00378,0.04563,-0.98820,2023,6,12,11,34,49,152
0.02940,3.06250,-4.72500,0.00000,0.00281,0.04160,-0.98796,2023,6,12,11,34,49,163
0.02950,3.13250,-4.70750,0.00000,0.00390,0.04380,-0.98759,2023,6,12,11,34,49,174
0.02960,3.25500,-4.56750,0.00000,0.00378,0.04368,-0.98869,2023,6,12,11,34,49,185
0.02970,3.18500,-4.42750,0.00000,0.00134,0.04221,-0.98674,2023,6,12,11,34,49,196
0.02980,3.08000,-4.77750,0.00000,0.00329,0.04404,-0.98759,2023,6,12,11,34,49,208
0.02990,3.32500,-4.55000,0.00000,0.00244,0.04380,-0.99101,2023,6,12,11,34,49,219
0.03000,3.22000,-4.69000,0.00000,0.00098,0.04368,-0.98783,2023,6,12,11,34,49,230
0.03010,3.13250,-4.55000,0.00000,0.00195,0.04294,-0.98796,2023,6,12,11,34,49,241
0.03020,3.13250,-4.53250,0.00000,0.00256,0.04331,-0.98661,2023,6,12,11,34,49,252
0.03030,3.18500,-4.46250,0.00000,0.00354,0.04380,-0.98649,2023,6,12,11,34,49,263
0.03040,3.13250,-4.56750,0.00000,0.00256,0.04319,-0.98674,2023,6,12,11,34,49,274
0.03050,3.16750,-4.62000,0.00000,0.00049,0.04502,-0.98637,2023,6,12,11,34,49,285
0.03060,3.01000,-4.70750,0.00000,0.00244,0.04136,-0.98576,2023,6,12,11,34,49,296
0.03070,3.04500,-4.72500,0.00000,0.00403,0.04368,-0.98710,2023,6,12,11,34,49,308
0.03080,3.25500,-4.56750,0.00000,0.00268,0.04319,-0.98722,2023,6,12,11,34,49,319
0.03090,3.08000,-4.39250,0.00000,0.00390,0.04331,-0.98783,2023,6,12,11,34,49,330
0.03100,3.06250,-4.74250,0.00000,0.00464,0.04502,-0.98796,2023,6,12,11,34,49,341
0.03110,3.08000,-4.63750,0.00000,0.00317,0.04368,-0.98857,2023,6,12,11,34,49,352
0.03120,3.22000,-4.69000,0.00000,0.00305,0.04294,-0.98796,2023,6,12,11,34,49,363
0.03130,3.18500,-4.62000,0.00000,0.00268,0.04490,-0.98515,2023,6,12,11,34,49,374
0.03140,3.25500,-4.67250,0.00000,0.00415,0.04319,-0.98905,2023,6,12,11,34,49,385
0.03150,2.92250,-4.58500,0.00000,0.00476,0.04233,-0.98918,2023,6,12,11,34,49,396
0.03160,3.18500,-4.41000,0.00000,0.00232,0.04221,-0.98979,2023,6,12,11,34,49,408
0.03170,3.11500,-4.60250,0.00000,0.00317,0.04319,-0.98527,2023,6,12,11,34,49,419
0.03180,3.02750,-4.41000,0.00000,0.00610,0.04185,-0.98527,2023,6,12,11,34,49,430
0.03190,3.11500,-4.63750,0.00000,0.00451,0.04209,-0.98991,2023,6,12,11,34,49,441
0.03200,3.18500,-4.74250,0.00000,0.00610,0.04185,-0.98674,2023,6,12,11,34,49,452
0.03210,3.16750,-4.63750,0.00000,0.00207,0.04429,-0.98600,2023,6,12,11,34,49,463
0.03220,3.36000,-4.76000,0.00000,0.00403,0.04526,-0.99003,2023,6,12,11,34,49,474
0.03230,3.01000,-4.62000,0.00000,0.00378,0.04258,-0.98735,2023,6,12,11,34,49,485
0.03240,3.32500,-4.77750,0.00000,0.00268,0.04136,-0.98857,2023,6,12,11,34,49,496
0.03250,2.90500,-4.58500,0.00000,0.00354,0.04197,-0.98661,2023,6,12,11,34,49,508
0.03260,3.08000,-4.58500,0.00000,0.00354,0.04429,-0.98722,2023,6,12,11,34,49,519
0.03270,3.08000,-4.65500,0.00000,0.00207,0.04148,-0.99040,2023,6,12,11,34,49,530
0.03280,3.06250,-4.62000,0.00000,0.00220,0.04587,-0.99015,2023,6,12,11,34,49,541
0.03290,3.18500,-4.55000,0.00000,0.00427,0.04307,-0.98539,2023,6,12,11,34,49,552
0.03300,3.11500,-4.70750,0.00000,0.00390,0.04221,-0.98771,2023,6,12,11,34,49,563
0.03310,3.18500,-4.56750,0.00000,0.00159,0.04294,-0.98918,2023,6,12,11,34,49,574
0.03320,3.20250,-4.60250,0.00000,0.00464,0.04160,-0.98759,2023,6,12,11,34,49,585
0.03330,3.11500,-4.49750,0.00000,0.00268,0.04343,-0.99027,2023,6,12,11,34,49,596
0.03340,3.02750,-4.53250,0.00000,0.00171,0.04258,-0.98869,2023,6,12,11,34,49,608
0.03350,3.25500,-4.49750,0.00000,0.00220,0.04124,-0.98661,2023,6,12,11,34,49,619
0.03360,3.15000,-4.79500,0.00000,0.00037,0.04233,-0.98783,2023,6,12,11,34,49,630
0.03370,3.22000,-4.58500,0.00000,0.00403,0.04270,-0.98552,2023,6,12,11,34,49,641
0.03380,3.20250,-4.62000,0.00000,0.00573,0.04307,-0.98417,2023,6,12,11,34,49,652
0.03390,3.02750,-4.67250,0.00000,0.00281,0.04185,-0.98686,2023,6,12,11,34,49,663
0.03400,3.09750,-4.48000,0.00000,0.00110,0.04294,-0.98966,2023,6,12,11,34,49,674
0.03410,3.15000,-4.60250,0.00000,0.00220,0.04136,-0.98759,2023,6,12,11,34,49,685
0.03420,3.09750,-4.58500,0.00000,0.00110,0.04221,-0.98674,2023,6,12,11,34,49,696
0.03430,3.13250,-4.60250,0.00000,0.00403,0.04221,-0.98747,2023,6,12,11,34,49,708
0.03440,3.16750,-4.62000,0.00000,0.00378,0.04185,-0.99027,2023,6,12,11,34,49,719
0.03450,3.27250,-4.62000,0.00000,0.00439,0.04429,-0.98613,2023,6,12,11,34,49,730
0.03460,3.18500,-4.65500,0.00000,0.00281,0.04185,-0.98466,2023,6,12,11,34,49,741
0.03470,3.08000,-4.48000,0.00000,0.00342,0.04172,-0.98478,2023,6,12,11,34,49,752
0.03480,3.22000,-4.60250,0.00000,0.00354,0.04233,-0.98783,2023,6,12,11,34,49,763
0.03490,3.09750,-4.39250,0.00000,0.00122,0.04087,-0.98796,2023,6,12,11,34,49,774
0.03500,3.13250,-4.62000,0.00000,0.00329,0.04441,-0.99015,2023,6,12,11,34,49,785
0.03510,3.36000,-4.51500,0.00000,0.00342,0.04477,-0.98661,2023,6,12,11,34,49,796
0.03520,2.85250,-4.44500,0.00000,0.00305,0.04209,-0.99125,2023,6,12,11,34,49,808
0.03530,3.08000,-4.74250,0.00000,0.00305,0.04136,-0.98539,2023,6,12,11,34,49,819
0.03540,3.18500,-4.70750,0.00000,0.00268,0.04380,-0.98552,2023,6,12,11,34,49,830
0.03550,2.95750,-4.46250,0.00000,0.00403,0.04172,-0.98808,2023,6,12,11,34,49,841
0.03560,3.15000,-4.41000,0.00000,0.00464,0.03843,-0.99088,2023,6,12,11,34,49,852
0.03570,3.06250,-4.81250,0.00000,0.00232,0.03977,-0.98600,2023,6,12,11,34,49,863
0.03580,3.11500,-4.60250,0.00000,0.00354,0.04258,-0.98661,2023,6,12,11,34,49,874
0.03590,3.25500,-4.58500,0.00000,0.00561,0.04209,-0.98430,2023,6,12,11,34,49,885
0.03600,3.18500,-4.83000,0.00000,0.00317,0.04233,-0.98637,2023,6,12,11,34,49,896
0.03610,3.16750,-4.48000,0.00000,0.00146,0.04148,-0.99003,2023,6,12,11,34,49,908
0.03620,3.27250,-4.60250,0.00000,0.00281,0.04014,-0.98771,2023,6,12,11,34,49,919
0.03630,3.18500,-4.72500,0.00000,0.00342,0.04294,-0.98674,2023,6,12,11,34,49,930
0.03640,3.16750,-4.65500,0.00000,0.00232,0.04270,-0.98747,2023,6,12,11,34,49,941
0.03650,3.09750,-4.53250,0.00000,0.00342,0.04258,-0.98796,2023,6,12,11,34,49,952
0.03660,3.08000,-4.60250,0.00000,0.00317,0.04233,-0.99015,2023,6,12,11,34,49,963
0.03670,3.11500,-4.58500,0.00000,0.00390,0.04319,-0.98893,2023,6,12,11,34,49,974
0.03680,3.13250,-4.48000,0.00000,0.00293,0.04502,-0.98832,2023,6,12,11,34,50,5
0.03690,3.22000,-4.63750,0.00000,0.00232,0.04368,-0.98722,2023,6,12,11,34,50,16
0.03700,3.11500,-4.41000,0.00000,0.00439,0.04197,-0.98369,2023,6,12,11,34,50,28
0.03710,3.16750,-4.74250,0.00000,0.00049,0.04270,-0.98832,2023,6,12,11,34,50,39
0.03720,2.99250,-4.70750,0.00000,0.00378,0.04368,-0.98942,2023,6,12,11,34,50,50
0.03730,3.02750,-4.67250,0.00000,0.00342,0.04453,-0.98783,2023,6,12,11,34,50,61
0.03740,3.04500,-4.58500,0.00000,0.00220,0.04246,-0.98710,2023,6,12,11,34,50,72
0.03750,3.36000,-4.65500,0.00000,0.00390,0.04343,-0.98869,2023,6,12,11,34,50,83
0.03760,3.01000,-4.56750,0.00000,0.00464,0.04209,-0.98686,2023,6,12,11,34,50,94
0.03770,3.18500,-4.72500,0.00000,0.00244,0.04490,-0.98686,2023,6,12,11,34,50,105
0.03780,3.04500,-4.51500,0.00000,0.00354,0.04441,-0.98881,2023,6,12,11,34,50,116
0.03790,2.94000,-4.72500,0.00000,-0.00037,0.04307,-0.98686,2023,6,12,11,34,50,128
0.03800,3.02750,-4.65500,0.00000,0.00415,0.04307,-0.98466,2023,6,12,11,34,50,139
0.03810,3.13250,-4.48000,0.00000,0.00366,0.04246,-0.98857,2023,6,12,11,34,50,150
0.03820,3.06250,-4.46250,0.00000,0.00268,0.04380,-0.98661,2023,6,12,11,34,50,161
0.03830,3.08000,-4.76000,0.00000,0.00439,0.04319,-0.98893,2023,6,12,11,34,50,172
0.03840,3.02750,-4.65500,0.00000,0.00403,0.04380,-0.98893,2023,6,12,11,34,50,183
0.03850,3.16750,-4.60250,0.00000,0.00317,0.04160,-0.98832,2023,6,12,11,34,50,194
0.03860,3.13250,-4.63750,0.00000,0.00329,0.04221,-0.99101,2023,6,12,11,34,50,205
0.03870,3.15000,-4.67250,0.00000,0.00293,0.04246,-0.98857,2023,6,12,11,34,50,216
0.03880,2.97500,-4.55000,0.00000,0.00329,0.04490,-0.99040,2023,6,12,11,34,50,228
0.03890,3.08000,-4.44500,0.00000,0.00232,0.04404,-0.98686,2023,6,12,11,34,50,239
0.03900,3.13250,-4.53250,0.00000,0.00195,0.04404,-0.98796,2023,6,12,11,34,50,250
0.03910,3.15000,-4.55000,0.00000,0.00415,0.04319,-0.98918,2023,6,12,11,34,50,261
0.03920,3.11500,-4.42750,0.00000,0.00378,0.04270,-0.98783,2023,6,12,11,34,50,272
0.03930,3.20250,-4.49750,0.00000,0.00537,0.04185,-0.98796,2023,6,12,11,34,50,283
0.03940,3.13250,-4.67250,0.00000,0.00537,0.04404,-0.98442,2023,6,12,11,34,50,294
0.03950,3.30750,-4.67250,0.00000,0.00195,0.04343,-0.98747,2023,6,12,11,34,50,305
0.03960,3.04500,-4.35750,0.00000,0.00110,0.04221,-0.98832,2023,6,12,11,34,50,316
0.03970,3.04500,-4.39250,0.00000,0.00317,0.04221,-0.98564,2023,6,12,11,34,50,328
0.03980,3.20250,-4.72500,0.00000,0.00366,0.04258,-0.98661,2023,6,12,11,34,50,339
0.03990,2.95750,-4.62000,0.00000,0.00268,0.04258,-0.98674,2023,6,12,11,34,50,350
0.04000,3.02750,-4.58500,0.00000,0.00232,0.04148,-0.98954,2023,6,12,11,34,50,361
0.04010,3.04500,-4.56750,0.00000,0.00293,0.04258,-0.99113,2023,6,12,11,34,50,372
0.04020,2.97500,-4.56750,0.00000,0.00171,0.04416,-0.98808,2023,6,12,11,34,50,383
0.04030,3.27250,-4.81250,0.00000,0.00293,0.04441,-0.98979,2023,6,12,11,34,50,394
0.04040,3.08000,-4.53250,0.00000,0.00281,0.04136,-0.98759,2023,6,12,11,34,50,405
0.04050,3.02750,-4.58500,0.00000,0.00378,0.04233,-0.98796,2023,6,12,11,34,50,416
0.04060,3.13250,-4.32250,0.00000,0.00427,0.04197,-0.98747,2023,6,12,11,34,50,428
0.04070,3.20250,-4.74250,0.00000,0.00403,0.04282,-0.98783,2023,6,12,11,34,50,439
0.04080,3.01000,-4.46250,0.00000,0.00329,0.04526,-0.98735,2023,6,12,11,34,50,450
0.04090,3.02750,-4.69000,0.00000,0.00464,0.04124,-0.98942,2023,6,12,11,34,50,461
0.04100,3.25500,-4.42750,0.00000,0.00305,0.04343,-0.99113,2023,6,12,11,34,50,472
0.04110,3.08000,-4.49750,0.00000,0.00403,0.04246,-0.98857,2023,6,12,11,34,50,483
0.04120,3.32500,-4.67250,0.00000,0.00573,0.04197,-0.99064,2023,6,12,11,34,50,494
0.04130,2.97500,-4.55000,0.00000,0.00171,0.04246,-0.98832,2023,6,12,11,34,50,505
0.04140,2.95750,-4.65500,0.00000,0.00159,0.04307,-0.98710,2023,6,12,11,34,50,516
0.04150,3.04500,-4.48000,0.00000,0.00598,0.04233,-0.98735,2023,6,12,11,34,50,528
0.04160,3.01000,-4.49750,0.00000,0.00146,0.04209,-0.98893,2023,6,12,11,34,50,539
0.04170,3.23750,-4.51500,0.00000,0.00390,0.04221,-0.98966,2023,6,12,11,34,50,550
0.04180,3.15000,-4.58500,0.00000,0.00195,0.04099,-0.98820,2023,6,12,11,34,50,561
0.04190,3.22000,-4.67250,0.00000,0.00427,0.04380,-0.99162,2023,6,12,11,34,50,572
0.04200,3.20250,-4.67250,0.00000,0.00146,0.04307,-0.98893,2023,6,12,11,34,50,583
0.04210,2.90500,-4.49750,0.00000,0.00305,0.04282,-0.98735,2023,6,12,11,34,50,594
0.04220,3.22000,-4.51500,0.00000,0.00451,0.04111,-0.99076,2023,6,12,11,34,50,605
0.04230,2.99250,-4.44500,0.00000,0.00207,0.04172,-0.99003,2023,6,12,11,34,50,616
0.04240,3.01000,-4.55000,0.00000,0.00281,0.04294,-0.98942,2023,6,12,11,34,50,628
0.04250,3.06250,-4.49750,0.00000,0.00305,0.04465,-0.98771,2023,6,12,11,34,50,639
0.04260,3.23750,-4.76000,0.00000,0.00232,0.04368,-0.99027,2023,6,12,11,34,50,650
0.04270,3.11500,-4.62000,0.00000,0.00390,0.04307,-0.98710,2023,6,12,11,34,50,661
0.04280,3.25500,-4.67250,0.00000,0.00390,0.04368,-0.99003,2023,6,12,11,34,50,672
0.04290,3.13250,-4.74250,0.00000,0.00159,0.04307,-0.98747,2023,6,12,11,34,50,683
0.04300,3.15000,-4.56750,0.00000,0.00268,0.04465,-0.98698,2023,6,12,11,34,50,694
0.04310,2.94000,-4.49750,0.00000,0.00256,0.04490,-0.98747,2023,6,12,11,34,50,705
0.04320,3.01000,-4.67250,0.00000,0.00378,0.04209,-0.98991,2023,6,12,11,34,50,716
0.04330,3.27250,-4.65500,0.00000,0.00268,0.04148,-0.98722,2023,6,12,11,34,50,728
0.04340,3.11500,-4.63750,0.00000,0.00378,0.04331,-0.98759,2023,6,12,11,34,50,739
0.04350,3.20250,-4.49750,0.00000,0.00244,0.04209,-0.98783,2023,6,12,11,34,50,750
0.04360,2.99250,-4.63750,0.00000,0.00207,0.04258,-0.99113,2023,6,12,11,34,50,761
0.04370,3.15000,-4.76000,0.00000,0.00342,0.04331,-0.98808,2023,6,12,11,34,50,772
0.04380,3.11500,-4.48000,0.00000,0.00195,0.04172,-0.98796,2023,6,12,11,34,50,783
0.04390,3.02750,-4.41000,0.00000,0.00329,0.04124,-0.98710,2023,6,12,11,34,50,794
0.04400,3.25500,-4.63750,0.00000,0.00488,0.04197,-0.98564,2023,6,12,11,34,50,805
0.04410,3.15000,-4.55000,0.00000,0.00525,0.04392,-0.98954,2023,6,12,11,34,50,816
0.04420,2.97500,-4.58500,0.00000,0.00268,0.04307,-0.98783,2023,6,12,11,34,50,828
0.04430,3.13250,-4.60250,0.00000,0.00305,0.04368,-0.98918,2023,6,12,11,34,50,839
0.04440,2.90500,-4.60250,0.00000,0.00378,0.04282,-0.98661,2023,6,12,11,34,50,850
0.04450,3.20250,-4.76000,0.00000,0.00329,0.04416,-0.98893,2023,6,12,11,34,50,861
0.04460,2.99250,-4.46250,0.00000,0.00342,0.04490,-0.98905,2023,6,12,11,34,50,872
0.04470,3.23750,-4.60250,0.00000,0.00329,0.04233,-0.99113,2023,6,12,11,34,50,883
0.04480,3.18500,-4.48000,0.00000,0.00378,0.04185,-0.98759,2023,6,12,11,34,50,894
0.04490,3.20250,-4.65500,0.00000,0.00281,0.04441,-0.98930,2023,6,12,11,34,50,905
0.04500,3.04500,-4.63750,0.00000,0.00403,0.04270,-0.98930,2023,6,12,11,34,50,916
0.04510,3.20250,-4.34000,0.00000,0.00171,0.04355,-0.98905,2023,6,12,11,34,50,928
0.04520,3.23750,-4.63750,0.00000,0.00305,0.04319,-0.98722,2023,6,12,11,34,50,939
0.04530,3.11500,-4.46250,0.00000,0.00232,0.04209,-0.98771,2023,6,12,11,34,50,950
0.04540,3.15000,-4.70750,0.00000,0.00110,0.04307,-0.98661,2023,6,12,11,34,50,961
0.04550,3.27250,-4.76000,0.00000,0.00171,0.04502,-0.98796,2023,6,12,11,34,51,2
0.04560,3.02750,-4.53250,0.00000,0.00207,0.04331,-0.98600,2023,6,12,11,34,51,13
0.04570,3.30750,-4.72500,0.00000,0.00390,0.04270,-0.98966,2023,6,12,11,34,51,24
0.04580,3.08000,-4.69000,0.00000,0.00329,0.04355,-0.98759,2023,6,12,11,34,51,35
0.04590,3.06250,-4.55000,0.00000,0.00171,0.04282,-0.98747,2023,6,12,11,34,51,46
0.04600,3.02750,-4.58500,0.00000,0.00220,0.04063,-0.98637,2023,6,12,11,34,51,58
0.04610,3.15000,-4.51500,0.00000,0.00256,0.04197,-0.98637,2023,6,12,11,34,51,69
0.04620,3.08000,-4.63750,0.00000,0.00256,0.04416,-0.98783,2023,6,12,11,34,51,80
0.04630,3.06250,-4.32250,0.00000,0.00329,0.04331,-0.98930,2023,6,12,11,34,51,91
0.04640,3.15000,-4.53250,0.00000,0.00390,0.04246,-0.99027,2023,6,12,11,34,51,102
0.04650,3.13250,-4.49750,0.00000,0.00354,0.04307,-0.98832,2023,6,12,11,34,51,113
0.04660,3.01000,-4.63750,0.00000,0.00403,0.04026,-0.98686,2023,6,12,11,34,51,124
0.04670,3.29000,-4.69000,0.00000,0.00415,0.04331,-0.98783,2023,6,12,11,34,51,135
0.04680,2.90500,-4.62000,0.00000,0.00500,0.04136,-0.98576,2023,6,12,11,34,51,146
0.04690,3.08000,-4.48000,0.00000,0.00476,0.04380,-0.98588,2023,6,12,11,34,51,158
0.04700,3.23750,-4.62000,0.00000,0.00281,0.04319,-0.98771,2023,6,12,11,34,51,169
0.04710,3.09750,-4.63750,0.00000,0.00171,0.03941,-0.98698,2023,6,12,11,34,51,180
0.04720,3.20250,-4.65500,0.00000,0.00439,0.04307,-0.98588,2023,6,12,11,34,51,191
0.04730,3.04500,-4.69000,0.00000,0.00317,0.04319,-0.98832,2023,6,12,11,34,51,202
0.04740,3.02750,-4.63750,0.00000,0.00439,0.04258,-0.98869,2023,6,12,11,34,51,213
0.04750,3.11500,-4.88250,0.00000,0.00207,0.04246,-0.98698,2023,6,12,11,34,51,224
0.04760,3.11500,-4.49750,0.00000,0.00329,0.04270,-0.98661,2023,6,12,11,34,51,235
0.04770,3.13250,-4.67250,0.00000,0.00171,0.04258,-0.98893,2023,6,12,11,34,51,246
0.04780,3.01000,-4.63750,0.00000,0.00146,0.04026,-0.98844,2023,6,12,11,34,51,258
0.04790,3.02750,-4.58500,0.00000,0.00195,0.04221,-0.98625,2023,6,12,11,34,51,269
0.04800,3.16750,-4.74250,0.00000,0.00281,0.04319,-0.98637,2023,6,12,11,34,51,280
0.04810,3.16750,-4.90000,0.00000,0.00329,0.04221,-0.98735,2023,6,12,11,34,51,291
0.04820,3.16750,-4.58500,0.00000,0.00232,0.04124,-0.98613,2023,6,12,11,34,51,302
0.04830,3.20250,-4.55000,0.00000,0.00256,0.04099,-0.98820,2023,6,12,11,34,51,313
0.04840,3.23750,-4.84750,0.00000,0.00268,0.04258,-0.98783,2023,6,12,11,34,51,324
0.04850,3.02750,-4.67250,0.00000,0.00305,0.04270,-0.98796,2023,6,12,11,34,51,335
0.04860,2.95750,-4.42750,0.00000,0.00342,0.04453,-0.98747,2023,6,12,11,34,51,346
0.04870,3.04500,-4.62000,0.00000,0.00098,0.04209,-0.98661,2023,6,12,11,34,51,358
0.04880,3.15000,-4.51500,0.00000,0.00451,0.04490,-0.98783,2023,6,12,11,34,51,369
0.04890,3.13250,-4.53250,0.00000,0.00427,0.04368,-0.98832,2023,6,12,11,34,51,380
0.04900,3.02750,-4.60250,0.00000,0.00415,0.04355,-0.98515,2023,6,12,11,34,51,391
0.04910,3.16750,-4.51500,0.00000,0.00512,0.04258,-0.98686,2023,6,12,11,34,51,402
0.04920,3.01000,-4.44500,0.00000,0.00476,0.04221,-0.98857,2023,6,12,11,34,51,413
0.04930,2.90500,-4.62000,0.00000,0.00329,0.04258,-0.98771,2023,6,12,11,34,51,424
0.04940,3.09750,-4.56750,0.00000,-0.00012,0.04416,-0.98893,2023,6,12,11,34,51,435
0.04950,3.09750,-4.65500,0.00000,0.00098,0.04063,-0.98588,2023,6,12,11,34,51,446
0.04960,3.16750,-4.84750,0.00000,0.00305,0.04282,-0.98808,2023,6,12,11,34,51,458
0.04970,3.11500,-4.49750,0.00000,0.00244,0.04209,-0.98637,2023,6,12,11,34,51,469
0.04980,3.06250,-4.55000,0.00000,0.00305,0.04270,-0.98954,2023,6,12,11,34,51,480
0.04990,3.20250,-4.51500,0.00000,0.00268,0.04490,-0.98661,2023,6,12,11,34,51,491
0.05000,3.13250,-4.65500,0.00000,0.00366,0.04185,-0.98649,2023,6,12,11,34,51,502
0.05010,3.11500,-4.37500,0.00000,0.00378,0.04160,-0.98527,2023,6,12,11,34,51,513
0.05020,3.25500,-4.74250,0.00000,0.00122,0.04050,-0.98625,2023,6,12,11,34,51,524
0.05030,3.09750,-4.49750,0.00000,0.00427,0.04343,-0.98710,2023,6,12,11,34,51,535
0.05040,3.15000,-4.56750,0.00000,0.00342,0.04160,-0.98796,2023,6,12,11,34,51,546
0.05050,3.22000,-4.49750,0.00000,0.00024,0.04246,-0.99088,2023,6,12,11,34,51,558
0.05060,3.23750,-4.51500,0.00000,0.00464,0.04307,-0.98442,2023,6,12,11,34,51,569
0.05070,3.09750,-4.76000,0.00000,0.00451,0.04477,-0.98576,2023,6,12,11,34,51,580
0.05080,3.08000,-4.53250,0.00000,0.00293,0.04282,-0.99113,2023,6,12,11,34,51,591
0.05090,3.16750,-4.42750,0.00000,0.00378,0.04282,-0.98783,2023,6,12,11,34,51,602
0.05100,3.11500,-4.65500,0.00000,0.00293,0.04172,-0.98759,2023,6,12,11,34,51,613
0.05110,3.16750,-4.90000,0.00000,0.00146,0.04331,-0.98844,2023,6,12,11,34,51,624
0.05120,3.11500,-4.46250,0.00000,0.00305,0.04465,-0.98857,2023,6,12,11,34,51,635
0.05130,3.02750,-4.60250,0.00000,0.00293,0.04416,-0.98808,2023,6,12,11,34,51,646
0.05140,2.95750,-4.77750,0.00000,0.00403,0.04099,-0.98661,2023,6,12,11,34,51,658
0.05150,3.18500,-4.65500,0.00000,0.00354,0.04294,-0.98747,2023,6,12,11,34,51,669
0.05160,3.15000,-4.67250,0.00000,0.00415,0.04416,-0.99003,2023,6,12,11,34,51,680
0.05170,3.06250,-4.56750,0.00000,0.00317,0.04392,-0.99003,2023,6,12,11,34,51,691
0.05180,3.20250,-4.67250,0.00000,0.00183,0.04258,-0.98759,2023,6,12,11,34,51,702
0.05190,3.18500,-4.76000,0.00000,0.00220,0.04343,-0.98930,2023,6,12,11,34,51,713
0.05200,3.02750,-4.41000,0.00000,0.00293,0.04099,-0.99149,2023,6,12,11,34,51,724
0.05210,3.13250,-4.65500,0.00000,0.00403,0.04392,-0.98869,2023,6,12,11,34,51,735
0.05220,3.27250,-4.69000,0.00000,0.00342,0.04294,-0.98649,2023,6,12,11,34,51,746
0.05230,3.25500,-4.74250,0.00000,0.00464,0.04233,-0.98625,2023,6,12,11,34,51,758
0.05240,3.32500,-4.41000,0.00000,0.00207,0.04270,-0.98600,2023,6,12,11,34,51,769
0.05250,3.20250,-4.65500,0.00000,0.00171,0.04368,-0.98552,2023,6,12,11,34,51,780
0.05260,3.23750,-4.88250,0.00000,0.00195,0.04160,-0.98893,2023,6,12,11,34,51,791
0.05270,3.06250,-4.46250,0.00000,0.00488,0.04282,-0.98783,2023,6,12,11,34,51,802
0.05280,2.95750,-4.49750,0.00000,0.00305,0.04270,-0.98637,2023,6,12,11,34,51,813
0.05290,3.02750,-4.44500,0.00000,0.00244,0.04185,-0.98869,2023,6,12,11,34,51,824
0.05300,3.29000,-4.72500,0.00000,0.00183,0.04453,-0.98674,2023,6,12,11,34,51,835
0.05310,3.08000,-4.51500,0.00000,0.00207,0.04124,-0.99015,2023,6,12,11,34,51,846
0.05320,2.95750,-4.69000,0.00000,0.00183,0.04233,-0.98735,2023,6,12,11,34,51,858
0.05330,3.25500,-4.83000,0.00000,0.00183,0.04416,-0.98722,2023,6,12,11,34,51,869
0.05340,3.15000,-4.79500,0.00000,0.00268,0.04319,-0.98930,2023,6,12,11,34,51,880
0.05350,3.13250,-4.63750,0.00000,0.00146,0.04221,-0.98820,2023,6,12,11,34,51,891
0.05360,3.15000,-4.74250,0.00000,0.00366,0.04233,-0.98832,2023,6,12,11,34,51,902
0.05370,3.06250,-4.55000,0.00000,0.00256,0.04416,-0.99174,2023,6,12,11,34,51,913
0.05380,3.09750,-4.53250,0.00000,0.00305,0.04221,-0.99113,2023,6,12,11,34,51,924
0.05390,3.22000,-4.72500,0.00000,0.00256,0.04331,-0.98808,2023,6,12,11,34,51,935
0.05400,3.08000,-4.65500,0.00000,0.00342,0.04368,-0.98735,2023,6,12,11,34,51,946
0.05410,3.11500,-4.69000,0.00000,0.00354,0.04307,-0.98954,2023,6,12,11,34,51,958
0.05420,3.16750,-4.67250,0.00000,0.00159,0.04294,-0.98881,2023,6,12,11,34,51,969
0.05430,3.06250,-4.65500,0.00000,0.00329,0.04160,-0.98747,2023,6,12,11,34,51,980
0.05440,3.09750,-4.84750,0.00000,0.00451,0.04258,-0.98698,2023,6,12,11,34,52,1
0.05450,3.15000,-4.55000,0.00000,0.00256,0.04429,-0.98918,2023,6,12,11,34,52,12
0.05460,2.85250,-4.44500,0.00000,0.00390,0.04172,-0.98783,2023,6,12,11,34,52,23
0.05470,3.08000,-4.67250,0.00000,0.00366,0.04343,-0.99088,2023,6,12,11,34,52,34
0.05480,3.15000,-4.65500,0.00000,0.00354,0.04343,-0.98869,2023,6,12,11,34,52,45
0.05490,3.36000,-4.77750,0.00000,0.00293,0.04355,-0.98857,2023,6,12,11,34,52,56
0.05500,3.11500,-4.69000,0.00000,0.00293,0.04392,-0.98844,2023,6,12,11,34,52,68
0.05510,3.20250,-4.70750,0.00000,0.00366,0.04380,-0.98466,2023,6,12,11,34,52,79
0.05520,3.06250,-4.76000,0.00000,0.00354,0.04270,-0.99003,2023,6,12,11,34,52,90
0.05530,3.20250,-4.65500,0.00000,0.00281,0.04404,-0.98796,2023,6,12,11,34,52,101
0.05540,2.99250,-4.53250,0.00000,0.00183,0.03977,-0.98844,2023,6,12,11,34,52,112
0.05550,2.99250,-4.70750,0.00000,0.00366,0.04307,-0.98869,2023,6,12,11,34,52,123
0.05560,3.22000,-4.55000,0.00000,0.00549,0.04380,-0.98844,2023,6,12,11,34,52,134
0.05570,3.36000,-4.67250,0.00000,0.00317,0.04502,-0.98930,2023,6,12,11,34,52,145
0.05580,3.13250,-4.39250,0.00000,0.00195,0.04453,-0.98857,2023,6,12,11,34,52,156
0.05590,3.15000,-4.60250,0.00000,0.00281,0.04124,-0.98918,2023,6,12,11,34,52,168
0.05600,3.02750,-4.58500,0.00000,0.00366,0.03892,-0.98783,2023,6,12,11,34,52,179
0.05610,2.97500,-4.53250,0.00000,0.00488,0.04429,-0.99003,2023,6,12,11,34,52,190
0.05620,3.02750,-4.49750,0.00000,0.00305,0.04355,-0.98783,2023,6,12,11,34,52,201
0.05630,3.13250,-4.65500,0.00000,0.00366,0.04294,-0.98832,2023,6,12,11,34,52,212
0.05640,3.27250,-4.81250,0.00000,0.00183,0.04233,-0.99052,2023,6,12,11,34,52,223
0.05650,3.13250,-4.42750,0.00000,0.00256,0.04307,-0.98527,2023,6,12,11,34,52,234
0.05660,3.13250,-4.51500,0.00000,0.00305,0.04380,-0.99015,2023,6,12,11,34,52,245
0.05670,3.04500,-4.55000,0.00000,0.00305,0.04185,-0.99113,2023,6,12,11,34,52,256
0.05680,3.01000,-4.49750,0.00000,0.00293,0.04319,-0.98893,2023,6,12,11,34,52,268
0.05690,3.06250,-4.69000,0.00000,0.00415,0.04172,-0.98869,2023,6,12,11,34,52,279
0.05700,3.13250,-4.69000,0.00000,0.00439,0.04404,-0.98747,2023,6,12,11,34,52,290
0.05710,3.08000,-4.60250,0.00000,0.00403,0.04270,-0.98625,2023,6,12,11,34,52,301
0.05720,3.11500,-4.63750,0.00000,0.00256,0.04209,-0.98942,2023,6,12,11,34,52,312
0.05730,2.99250,-4.65500,0.00000,0.00220,0.04148,-0.98796,2023,6,12,11,34,52,323
0.05740,3.22000,-4.58500,0.00000,0.00427,0.04514,-0.98796,2023,6,12,11,34,52,334
0.05750,3.11500,-4.56750,0.00000,0.00354,0.04319,-0.98564,2023,6,12,11,34,52,345
0.05760,3.08000,-4.63750,0.00000,0.00232,0.04258,-0.98893,2023,6,12,11,34,52,356
0.05770,3.06250,-4.63750,0.00000,0.00146,0.04343,-0.98600,2023,6,12,11,34,52,368
0.05780,3.13250,-4.55000,0.00000,0.00171,0.04368,-0.98966,2023,6,12,11,34,52,379
0.05790,3.09750,-4.58500,0.00000,0.00183,0.04355,-0.98979,2023,6,12,11,34,52,390
0.05800,3.02750,-4.84750,0.00000,0.00451,0.04429,-0.98674,2023,6,12,11,34,52,401
0.05810,3.13250,-4.63750,0.00000,0.00146,0.04172,-0.98857,2023,6,12,11,34,52,412
0.05820,3.08000,-4.58500,0.00000,0.00256,0.04233,-0.98674,2023,6,12,11,34,52,423
0.05830,3.13250,-4.67250,0.00000,0.00403,0.04429,-0.98930,2023,6,12,11,34,52,434
0.05840,3.04500,-4.46250,0.00000,0.00268,0.04404,-0.98698,2023,6,12,11,34,52,445
0.05850,3.13250,-4.53250,0.00000,0.00122,0.04331,-0.98869,2023,6,12,11,34,52,456
0.05860,3.25500,-4.67250,0.00000,0.00354,0.04331,-0.98820,2023,6,12,11,34,52,468
0.05870,3.18500,-4.58500,0.00000,0.00366,0.04221,-0.98796,2023,6,12,11,34,52,479
0.05880,3.15000,-4.84750,0.00000,0.00244,0.04526,-0.99113,2023,6,12,11,34,52,490
0.05890,3.15000,-4.42750,0.00000,0.00244,0.04160,-0.98991,2023,6,12,11,34,52,501
0.05900,3.11500,-4.63750,0.00000,0.00476,0.04404,-0.98857,2023,6,12,11,34,52,512
0.05910,3.25500,-4.69000,0.00000,0.00171,0.04343,-0.98613,2023,6,12,11,34,52,523
0.05920,3.11500,-4.74250,0.00000,0.00439,0.04294,-0.99137,2023,6,12,11,34,52,534
0.05930,3.08000,-4.60250,0.00000,0.00378,0.04172,-0.98930,2023,6,12,11,34,52,545
0.05940,3.18500,-4.70750,0.00000,0.00305,0.04343,-0.98832,2023,6,12,11,34,52,556
0.05950,3.32500,-4.63750,0.00000,0.00244,0.04050,-0.98832,2023,6,12,11,34,52,568
0.05960,3.13250,-4.46250,0.00000,0.00451,0.04221,-0.99198,2023,6,12,11,34,52,579
0.05970,3.22000,-4.58500,0.00000,0.00342,0.04148,-0.98527,2023,6,12,11,34,52,590
0.05980,3.02750,-4.56750,0.00000,0.00342,0.04307,-0.98869,2023,6,12,11,34,52,601
0.05990,3.34250,-4.60250,0.00000,0.00305,0.04063,-0.98759,2023,6,12,11,34,52,612
0.06000,3.09750,-4.41000,0.00000,0.00293,0.04124,-0.98905,2023,6,12,11,34,52,623
0.06010,3.34250,-4.63750,0.00000,0.00256,0.04050,-0.98942,2023,6,12,11,34,52,634
0.06020,3.11500,-4.44500,0.00000,0.00561,0.04209,-0.98796,2023,6,12,11,34,52,645
0.06030,3.08000,-4.55000,0.00000,0.00281,0.04355,-0.98979,2023,6,12,11,34,52,656
0.06040,2.88750,-4.51500,0.00000,0.00122,0.04416,-0.99113,2023,6,12,11,34,52,668
0.06050,3.04500,-4.55000,0.00000,0.00354,0.04233,-0.98759,2023,6,12,11,34,52,679
0.06060,2.94000,-4.51500,0.00000,0.00281,0.04294,-0.98832,2023,6,12,11,34,52,690
0.06070,3.13250,-4.63750,0.00000,0.00427,0.04172,-0.98942,2023,6,12,11,34,52,701
0.06080,3.23750,-4.60250,0.00000,0.00220,0.04392,-0.98661,2023,6,12,11,34,52,712
0.06090,3.04500,-4.55000,0.00000,0.00342,0.04258,-0.98918,2023,6,12,11,34,52,723
0.06100,3.08000,-4.41000,0.00000,0.00281,0.04246,-0.98796,2023,6,12,11,34,52,734
0.06110,3.04500,-4.58500,0.00000,0.00256,0.04282,-0.98893,2023,6,12,11,34,52,745
0.06120,3.09750,-4.74250,0.00000,0.00256,0.04209,-0.98747,2023,6,12,11,34,52,756
0.06130,3.09750,-4.46250,0.00000,0.00439,0.04343,-0.98722,2023,6,12,11,34,52,768
0.06140,3.04500,-4.55000,0.00000,0.00439,0.04368,-0.98747,2023,6,12,11,34,52,779
0.06150,3.13250,-4.51500,0.00000,0.00354,0.04441,-0.98905,2023,6,12,11,34,52,790
0.06160,3.13250,-4.44500,0.00000,0.00512,0.04307,-0.98918,2023,6,12,11,34,52,801
0.06170,3.04500,-4.60250,0.00000,0.00378,0.04209,-0.98991,2023,6,12,11,34,52,812
0.06180,2.99250,-4.56750,0.00000,0.00232,0.04233,-0.98735,2023,6,12,11,34,52,823
0.06190,3.15000,-4.56750,0.00000,0.00110,0.04404,-0.98698,2023,6,12,11,34,52,834
0.06200,3.13250,-4.56750,0.00000,0.00171,0.04294,-0.98442,2023,6,12,11,34,52,845
0.06210,3.01000,-4.60250,0.00000,0.00244,0.04136,-0.98747,2023,6,12,11,34,52,856
0.06220,3.01000,-4.48000,0.00000,0.00281,0.04282,-0.98820,2023,6,12,11,34,52,868
0.06230,3.18500,-4.83000,0.00000,0.00427,0.04307,-0.98722,2023,6,12,11,34,52,879
0.06240,3.11500,-4.63750,0.00000,0.00439,0.04172,-0.98613,2023,6,12,11,34,52,890
0.06250,3.20250,-4.63750,0.00000,0.00354,0.04282,-0.98905,2023,6,12,11,34,52,901
0.06260,3.11500,-4.48000,0.00000,0.00159,0.04209,-0.98857,2023,6,12,11,34,52,912
0.06270,3.15000,-4.70750,0.00000,0.00207,0.04233,-0.98954,2023,6,12,11,34,52,923
0.06280,2.95750,-4.48000,0.00000,0.00354,0.04490,-0.98698,2023,6,12,11,34,52,934
0.06290,3.06250,-4.53250,0.00000,0.00232,0.04392,-0.98686,2023,6,12,11,34,52,945
0.06300,2.95750,-4.63750,0.00000,0.00134,0.04136,-0.98905,2023,6,12,11,34,53,6
0.06310,3.16750,-4.67250,0.00000,0.00427,0.04380,-0.98893,2023,6,12,11,34,53,18
0.06320,3.16750,-4.56750,0.00000,0.00549,0.04185,-0.98808,2023,6,12,11,34,53,29
0.06330,3.13250,-4.69000,0.00000,0.00232,0.04246,-0.98759,2023,6,12,11,34,53,40
0.06340,3.11500,-4.60250,0.00000,0.00366,0.04099,-0.98942,2023,6,12,11,34,53,51
0.06350,3.11500,-4.60250,0.00000,0.00281,0.04050,-0.98796,2023,6,12,11,34,53,62
0.06360,3.01000,-4.39250,0.00000,0.00451,0.04441,-0.98869,2023,6,12,11,34,53,73
0.06370,3.08000,-4.69000,0.00000,0.00378,0.04209,-0.99064,2023,6,12,11,34,53,84
0.06380,2.94000,-4.56750,0.00000,0.00061,0.04429,-0.98796,2023,6,12,11,34,53,95
0.06390,3.04500,-4.42750,0.00000,0.00293,0.04453,-0.99027,2023,6,12,11,34,53,106
0.06400,3.09750,-4.60250,0.00000,0.00366,0.04331,-0.98661,2023,6,12,11,34,53,118
0.06410,3.18500,-4.44500,0.00000,0.00159,0.04319,-0.98966,2023,6,12,11,34,53,129
0.06420,3.22000,-4.63750,0.00000,0.00354,0.04355,-0.99015,2023,6,12,11,34,53,140
0.06430,3.06250,-4.56750,0.00000,0.00195,0.04270,-0.98539,2023,6,12,11,34,53,151
0.06440,3.20250,-4.86500,0.00000,0.00403,0.04331,-0.98905,2023,6,12,11,34,53,162
0.06450,3.08000,-4.39250,0.00000,0.00305,0.04368,-0.98796,2023,6,12,11,34,53,173
0.06460,2.99250,-4.49750,0.00000,0.00342,0.04258,-0.98869,2023,6,12,11,34,53,184
0.06470,3.15000,-4.56750,0.00000,0.00464,0.04221,-0.98674,2023,6,12,11,34,53,195
0.06480,3.15000,-4.67250,0.00000,0.00195,0.04209,-0.98503,2023,6,12,11,34,53,206
0.06490,3.22000,-4.70750,0.00000,0.00415,0.04538,-0.98747,2023,6,12,11,34,53,218
0.06500,3.15000,-4.79500,0.00000,0.00366,0.04563,-0.98698,2023,6,12,11,34,53,229
0.06510,3.18500,-4.55000,0.00000,0.00354,0.04429,-0.98844,2023,6,12,11,34,53,240
0.06520,3.23750,-4.79500,0.00000,0.00305,0.04246,-0.98747,2023,6,12,11,34,53,251
0.06530,3.02750,-4.60250,0.00000,0.00159,0.04160,-0.98588,2023,6,12,11,34,53,262
0.06540,3.13250,-4.77750,0.00000,0.00415,0.04319,-0.98942,2023,6,12,11,34,53,273
0.06550,3.16750,-4.58500,0.00000,0.00366,0.04185,-0.98783,2023,6,12,11,34,53,284
0.06560,3.08000,-4.74250,0.00000,0.00561,0.04368,-0.98844,2023,6,12,11,34,53,295
0.06570,3.22000,-4.62000,0.00000,0.00268,0.04355,-0.98747,2023,6,12,11,34,53,306
0.06580,3.08000,-4.48000,0.00000,0.00098,0.04124,-0.98722,2023,6,12,11,34,53,318
0.06590,3.23750,-4.65500,0.00000,0.00439,0.04099,-0.98539,2023,6,12,11,34,53,329
0.06600,3.20250,-4.60250,0.00000,0.00378,0.04124,-0.98918,2023,6,12,11,34,53,340
0.06610,2.92250,-4.51500,0.00000,0.00207,0.04465,-0.99076,2023,6,12,11,34,53,351
0.06620,3.11500,-4.70750,0.00000,0.00366,0.04197,-0.99027,2023,6,12,11,34,53,362
0.06630,3.02750,-4.81250,0.00000,0.00439,0.04331,-0.98942,2023,6,12,11,34,53,373
0.06640,3.01000,-4.62000,0.00000,0.00220,0.04331,-0.98722,2023,6,12,11,34,53,384
0.06650,3.20250,-4.69000,0.00000,0.00451,0.04380,-0.98881,2023,6,12,11,34,53,395
0.06660,3.27250,-4.63750,0.00000,0.00146,0.04404,-0.98661,2023,6,12,11,34,53,406
0.06670,2.99250,-4.55000,0.00000,0.00268,0.04514,-0.98918,2023,6,12,11,34,53,418
0.06680,2.99250,-4.67250,0.00000,-0.00061,0.04392,-0.98637,2023,6,12,11,34,53,429
0.06690,3.27250,-4.56750,0.00000,0.00171,0.04233,-0.98881,2023,6,12,11,34,53,440
0.06700,2.99250,-4.67250,0.00000,0.00146,0.04246,-0.98722,2023,6,12,11,34,53,451
0.06710,2.97500,-4.51500,0.00000,0.00378,0.04490,-0.98954,2023,6,12,11,34,53,462
0.06720,3.30750,-4.72500,0.00000,0.00183,0.04160,-0.98869,2023,6,12,11,34,53,473
0.06730,3.01000,-4.69000,0.00000,0.00415,0.04270,-0.98942,2023,6,12,11,34,53,484
0.06740,3.06250,-4.51500,0.00000,0.00244,0.04270,-0.98893,2023,6,12,11,34,53,495
0.06750,3.15000,-4.55000,0.00000,0.00427,0.04221,-0.98771,2023,6,12,11,34,53,506
0.06760,3.25500,-4.83000,0.00000,0.00354,0.04343,-0.98735,2023,6,12,11,34,53,518
0.06770,3.04500,-4.58500,0.00000,0.00256,0.04075,-0.98991,2023,6,12,11,34,53,529
0.06780,3.36000,-4.67250,0.00000,0.00403,0.04282,-0.98747,2023,6,12,11,34,53,540
0.06790,2.87000,-4.60250,0.00000,0.00537,0.04404,-0.98649,2023,6,12,11,34,53,551
0.06800,3.08000,-4.79500,0.00000,0.00415,0.04282,-0.98808,2023,6,12,11,34,53,562
0.06810,3.01000,-4.41000,0.00000,0.00451,0.03904,-0.98844,2023,6,12,11,34,53,573
0.06820,3.04500,-4.44500,0.00000,0.00390,0.04246,-0.98771,2023,6,12,11,34,53,584
0.06830,3.13250,-4.48000,0.00000,0.00476,0.04392,-0.98576,2023,6,12,11,34,53,595
0.06840,3.15000,-4.90000,0.00000,0.00256,0.04355,-0.98710,2023,6,12,11,34,53,606
0.06850,3.01000,-4.77750,0.00000,0.00378,0.04429,-0.98942,2023,6,12,11,34,53,618
0.06860,3.15000,-4.77750,0.00000,0.00293,0.04294,-0.98966,2023,6,12,11,34,53,629
0.06870,2.99250,-4.42750,0.00000,0.00378,0.04392,-0.98722,2023,6,12,11,34,53,640
0.06880,3.02750,-4.60250,0.00000,0.00354,0.04002,-0.98417,2023,6,12,11,34,53,651
0.06890,3.18500,-4.76000,0.00000,0.00512,0.04294,-0.98808,2023,6,12,11,34,53,662
0.06900,3.11500,-4.60250,0.00000,0.00427,0.04392,-0.98735,2023,6,12,11,34,53,673
0.06910,2.95750,-4.37500,0.00000,0.00415,0.04392,-0.98808,2023,6,12,11,34,53,684
0.06920,3.11500,-4.69000,0.00000,0.00268,0.04197,-0.99137,2023,6,12,11,34,53,695
0.06930,2.99250,-4.53250,0.00000,0.00378,0.04270,-0.98783,2023,6,12,11,34,53,706
0.06940,2.99250,-4.60250,0.00000,0.00134,0.04172,-0.98796,2023,6,12,11,34,53,718
0.06950,3.27250,-4.76000,0.00000,0.00403,0.04111,-0.98771,2023,6,12,11,34,53,729
0.06960,3.04500,-4.49750,0.00000,0.00220,0.04404,-0.98588,2023,6,12,11,34,53,740
0.06970,3.08000,-4.53250,0.00000,0.00464,0.04429,-0.98698,2023,6,12,11,34,53,751
0.06980,3.23750,-4.91750,0.00000,0.00354,0.04258,-0.98930,2023,6,12,11,34,53,762
0.06990,3.13250,-4.70750,0.00000,0.00573,0.04197,-0.98491,2023,6,12,11,34,53,773
0.07000,3.11500,-4.42750,0.00000,0.00451,0.04429,-0.98918,2023,6,12,11,34,53,784
0.07010,3.02750,-4.77750,0.00000,0.00159,0.04368,-0.98832,2023,6,12,11,34,53,795
0.07020,3.08000,-4.67250,0.00000,0.00134,0.04294,-0.98735,2023,6,12,11,34,53,806
0.07030,3.09750,-4.74250,0.00000,0.00232,0.04343,-0.98893,2023,6,12,11,34,53,818
0.07040,3.09750,-4.55000,0.00000,0.00354,0.04416,-0.98735,2023,6,12,11,34,53,829
0.07050,2.94000,-4.42750,0.00000,0.00207,0.04002,-0.98759,2023,6,12,11,34,53,840
0.07060,3.06250,-4.55000,0.00000,0.00232,0.04307,-0.98857,2023,6,12,11,34,53,851
0.07070,3.11500,-4.58500,0.00000,0.00317,0.04294,-0.98710,2023,6,12,11,34,53,862
0.07080,3.13250,-4.60250,0.00000,0.00512,0.04185,-0.98637,2023,6,12,11,34,53,873
0.07090,3.09750,-4.46250,0.00000,0.00037,0.04209,-0.98844,2023,6,12,11,34,53,884
0.07100,3.22000,-4.67250,0.00000,0.00476,0.04355,-0.98857,2023,6,12,11,34,53,895
0.07110,3.06250,-4.49750,0.00000,0.00146,0.04197,-0.98649,2023,6,12,11,34,53,906
0.07120,3.15000,-4.46250,0.00000,0.00207,0.04343,-0.98893,2023,6,12,11,34,53,918
0.07130,3.02750,-4.56750,0.00000,0.00232,0.04307,-0.98869,2023,6,12,11,34,53,929
0.07140,3.16750,-4.63750,0.00000,0.00220,0.04343,-0.99125,2023,6,12,11,34,53,940
0.07150,3.04500,-4.65500,0.00000,0.00427,0.04441,-0.99052,2023,6,12,11,34,53,951
0.07160,2.90500,-4.42750,0.00000,0.00244,0.04490,-0.98832,2023,6,12,11,34,53,962
0.07170,3.08000,-4.58500,0.00000,0.00171,0.04294,-0.98966,2023,6,12,11,34,53,973
0.07180,2.99250,-4.56750,0.00000,0.00305,0.04185,-0.98796,2023,6,12,11,34,54,4
0.07190,2.99250,-4.48000,0.00000,0.00305,0.04294,-0.98808,2023,6,12,11,34,54,15
0.07200,3.23750,-4.70750,0.00000,0.00195,0.04343,-0.98564,2023,6,12,11,34,54,26
0.07210,3.32500,-4.77750,0.00000,0.00403,0.04307,-0.99052,2023,6,12,11,34,54,38
0.07220,3.11500,-4.49750,0.00000,0.00329,0.04307,-0.98722,2023,6,12,11,34,54,49
0.07230,3.08000,-4.69000,0.00000,0.00293,0.04355,-0.98710,2023,6,12,11,34,54,60
0.07240,3.09750,-4.65500,0.00000,0.00146,0.04270,-0.98759,2023,6,12,11,34,54,71
0.07250,3.09750,-4.55000,0.00000,0.00329,0.04429,-0.98527,2023,6,12,11,34,54,82
0.07260,3.16750,-4.53250,0.00000,0.00329,0.04246,-0.98942,2023,6,12,11,34,54,93
0.07270,2.97500,-4.53250,0.00000,0.00439,0.04258,-0.99186,2023,6,12,11,34,54,104
0.07280,3.06250,-4.62000,0.00000,0.00390,0.04477,-0.98905,2023,6,12,11,34,54,115
0.07290,3.11500,-4.74250,0.00000,0.00183,0.04380,-0.98722,2023,6,12,11,34,54,126
0.07300,3.06250,-4.67250,0.00000,0.00464,0.04258,-0.98844,2023,6,12,11,34,54,138
0.07310,2.99250,-4.63750,0.00000,0.00415,0.04343,-0.98844,2023,6,12,11,34,54,149
0.07320,3.13250,-4.55000,0.00000,0.00378,0.04233,-0.98539,2023,6,12,11,34,54,160
0.07330,3.08000,-4.58500,0.00000,0.00439,0.04368,-0.98674,2023,6,12,11,34,54,171
0.07340,3.23750,-4.67250,0.00000,0.00549,0.04258,-0.98881,2023,6,12,11,34,54,182
0.07350,3.34250,-4.56750,0.00000,0.00403,0.04233,-0.98600,2023,6,12,11,34,54,193
0.07360,3.11500,-4.56750,0.00000,0.00378,0.04343,-0.98918,2023,6,12,11,34,54,204
0.07370,3.04500,-4.51500,0.00000,0.00317,0.04331,-0.98686,2023,6,12,11,34,54,215
0.07380,3.23750,-4.46250,0.00000,0.00232,0.04197,-0.98832,2023,6,12,11,34,54,226
0.07390,3.06250,-4.51500,0.00000,0.00098,0.04368,-0.98881,2023,6,12,11,34,54,238
0.07400,3.18500,-4.49750,0.00000,0.00122,0.04368,-0.99162,2023,6,12,11,34,54,249
0.07410,3.11500,-4.49750,0.00000,0.00378,0.04453,-0.98857,2023,6,12,11,34,54,260
0.07420,3.01000,-4.72500,0.00000,0.00220,0.04575,-0.98869,2023,6,12,11,34,54,271
0.07430,2.97500,-4.67250,0.00000,0.00354,0.04111,-0.98991,2023,6,12,11,34,54,282
0.07440,3.13250,-4.56750,0.00000,0.00500,0.04197,-0.98869,2023,6,12,11,34,54,293
0.07450,3.09750,-4.44500,0.00000,0.00329,0.04172,-0.98783,2023,6,12,11,34,54,304
0.07460,3.16750,-4.58500,0.00000,0.00390,0.04233,-0.98600,2023,6,12,11,34,54,315
0.07470,3.09750,-4.49750,0.00000,0.00134,0.04099,-0.98698,2023,6,12,11,34,54,326
0.07480,3.09750,-4.86500,0.00000,0.00207,0.04270,-0.98637,2023,6,12,11,34,54,338
0.07490,3.01000,-4.56750,0.00000,0.00159,0.04343,-0.98759,2023,6,12,11,34,54,349
0.07500,3.32500,-4.67250,0.00000,0.00244,0.04209,-0.98857,2023,6,12,11,34,54,360
0.07510,3.09750,-4.55000,0.00000,0.00525,0.04294,-0.98747,2023,6,12,11,34,54,371
0.07520,3.15000,-4.69000,0.00000,0.00317,0.04441,-0.98881,2023,6,12,11,34,54,382
0.07530,3.20250,-4.48000,0.00000,0.00146,0.04343,-0.98869,2023,6,12,11,34,54,393
0.07540,3.22000,-4.65500,0.00000,0.00281,0.04221,-0.98796,2023,6,12,11,34,54,404
0.07550,2.92250,-4.37500,0.00000,0.00122,0.04258,-0.98552,2023,6,12,11,34,54,415
0.07560,3.13250,-4.55000,0.00000,0.00159,0.04294,-0.98759,2023,6,12,11,34,54,426
0.07570,3.22000,-4.53250,0.00000,0.00342,0.04233,-0.99027,2023,6,12,11,34,54,438
0.07580,3.20250,-4.63750,0.00000,0.00488,0.04416,-0.98808,2023,6,12,11,34,54,449
0.07590,3.27250,-4.53250,0.00000,0.00378,0.04246,-0.98735,2023,6,12,11,34,54,460
0.07600,3.13250,-4.67250,0.00000,0.00195,0.04209,-0.98564,2023,6,12,11,34,54,471
0.07610,3.01000,-4.60250,0.00000,0.00427,0.04246,-0.98552,2023,6,12,11,34,54,482
0.07620,2.95750,-4.60250,0.00000,0.00281,0.04282,-0.98991,2023,6,12,11,34,54,493
0.07630,3.01000,-4.51500,0.00000,0.00415,0.04160,-0.98783,2023,6,12,11,34,54,504
0.07640,3.11500,-4.76000,0.00000,0.00305,0.04185,-0.98625,2023,6,12,11,34,54,515
0.07650,3.08000,-4.62000,0.00000,0.00464,0.04441,-0.98954,2023,6,12,11,34,54,526
0.07660,3.09750,-4.90000,0.00000,0.00464,0.04490,-0.98783,2023,6,12,11,34,54,538
0.07670,3.37750,-4.63750,0.00000,0.00403,0.04502,-0.98905,2023,6,12,11,34,54,549
0.07680,3.16750,-4.55000,0.00000,0.00610,0.04453,-0.98503,2023,6,12,11,34,54,560
0.07690,3.13250,-4.62000,0.00000,0.00427,0.04209,-0.98686,2023,6,12,11,34,54,571
0.07700,3.09750,-4.48000,0.00000,0.00329,0.04294,-0.98735,2023,6,12,11,34,54,582
0.07710,3.15000,-4.58500,0.00000,0.00378,0.04099,-0.98832,2023,6,12,11,34,54,593
0.07720,3.06250,-4.69000,0.00000,0.00366,0.04282,-0.98710,2023,6,12,11,34,54,604
0.07730,3.09750,-4.56750,0.00000,0.00134,0.04099,-0.98722,2023,6,12,11,34,54,615
0.07740,3.22000,-4.79500,0.00000,0.00525,0.04294,-0.98954,2023,6,12,11,34,54,626
0.07750,3.02750,-4.79500,0.00000,0.00573,0.04380,-0.98783,2023,6,12,11,34,54,638
0.07760,3.20250,-4.53250,0.00000,0.00354,0.04416,-0.98759,2023,6,12,11,34,54,649
0.07770,2.94000,-4.48000,0.00000,0.00049,0.04209,-0.98552,2023,6,12,11,34,54,660
0.07780,3.02750,-4.60250,0.00000,0.00329,0.04380,-0.98820,2023,6,12,11,34,54,671
0.07790,3.22000,-4.70750,0.00000,0.00171,0.04148,-0.98796,2023,6,12,11,34,54,682
0.07800,3.18500,-4.48000,0.00000,0.00171,0.04331,-0.98942,2023,6,12,11,34,54,693
0.07810,2.99250,-4.69000,0.00000,0.00342,0.04221,-0.98674,2023,6,12,11,34,54,704
0.07820,3.06250,-4.77750,0.00000,0.00512,0.04453,-0.99003,2023,6,12,11,34,54,715
0.07830,3.13250,-4.77750,0.00000,0.00281,0.04343,-0.98966,2023,6,12,11,34,54,726
0.07840,3.25500,-4.65500,0.00000,0.00512,0.04221,-0.98576,2023,6,12,11,34,54,738
0.07850,3.01000,-4.65500,0.00000,0.00268,0.04258,-0.98661,2023,6,12,11,34,54,749
0.07860,2.99250,-4.60250,0.00000,0.00207,0.04246,-0.98735,2023,6,12,11,34,54,760
0.07870,3.02750,-4.51500,0.00000,0.00195,0.04380,-0.98710,2023,6,12,11,34,54,771
0.07880,3.09750,-4.34000,0.00000,0.00146,0.04331,-0.98637,2023,6,12,11,34,54,782
0.07890,3.13250,-4.72500,0.00000,0.00305,0.04368,-0.98796,2023,6,12,11,34,54,793
0.07900,3.11500,-4.70750,0.00000,0.00427,0.04429,-0.98686,2023,6,12,11,34,54,804
0.07910,3.29000,-4.63750,0.00000,0.00439,0.04404,-0.98576,2023,6,12,11,34,54,815
0.07920,2.78250,-4.49750,0.00000,0.00403,0.04429,-0.98356,2023,6,12,11,34,54,826
0.07930,3.32500,-4.67250,0.00000,0.00342,0.04368,-0.98844,2023,6,12,11,34,54,838
0.07940,2.85250,-4.72500,0.00000,0.00073,0.04307,-0.98893,2023,6,12,11,34,54,849
0.07950,2.99250,-4.48000,0.00000,-0.00012,0.04477,-0.98857,2023,6,12,11,34,54,860
0.07960,2.99250,-4.53250,0.00000,0.00146,0.04124,-0.99027,2023,6,12,11,34,54,871
0.07970,3.16750,-4.67250,0.00000,0.00268,0.04392,-0.98491,2023,6,12,11,34,54,882
0.07980,2.81750,-4.35750,0.00000,0.00378,0.04380,-0.99064,2023,6,12,11,34,54,893
0.07990,3.06250,-4.53250,0.00000,0.00476,0.04282,-0.98722,2023,6,12,11,34,54,904
0.08000,3.04500,-4.48000,0.00000,0.00415,0.04416,-0.98698,2023,6,12,11,34,54,915
0.08010,3.27250,-4.62000,0.00000,0.00378,0.04282,-0.98966,2023,6,12,11,34,54,926
0.08020,3.16750,-4.58500,0.00000,0.00305,0.04282,-0.98991,2023,6,12,11,34,54,938
0.08030,3.01000,-4.55000,0.00000,0.00146,0.04368,-0.98832,2023,6,12,11,34,54,949
0.08040,3.32500,-4.79500,0.00000,0.00195,0.04258,-0.98820,2023,6,12,11,34,54,960
0.08050,3.09750,-4.69000,0.00000,0.00281,0.04246,-0.98527,2023,6,12,11,34,55,1
0.08060,3.22000,-4.72500,0.00000,0.00354,0.04453,-0.98808,2023,6,12,11,34,55,12
0.08070,3.06250,-4.77750,0.00000,0.00439,0.04392,-0.98637,2023,6,12,11,34,55,23
0.08080,3.06250,-4.46250,0.00000,0.00354,0.04111,-0.99040,2023,6,12,11,34,55,34
0.08090,3.11500,-4.55000,0.00000,0.00085,0.04087,-0.98661,2023,6,12,11,34,55,45
0.08100,3.18500,-4.55000,0.00000,0.00451,0.04294,-0.99101,2023,6,12,11,34,55,56
0.08110,3.22000,-4.60250,0.00000,0.00268,0.04270,-0.98649,2023,6,12,11,34,55,68
0.08120,2.97500,-4.55000,0.00000,0.00220,0.04319,-0.98515,2023,6,12,11,34,55,79
0.08130,3.13250,-4.70750,0.00000,0.00268,0.04392,-0.99064,2023,6,12,11,34,55,90
0.08140,3.11500,-4.56750,0.00000,0.00256,0.04111,-0.98820,2023,6,12,11,34,55,101
0.08150,3.29000,-4.53250,0.00000,0.00329,0.04185,-0.98735,2023,6,12,11,34,55,112
0.08160,3.22000,-4.84750,0.00000,0.00500,0.04185,-0.98674,2023,6,12,11,34,55,123
0.08170,3.04500,-4.72500,0.00000,0.00268,0.04380,-0.98698,2023,6,12,11,34,55,134
0.08180,2.99250,-4.79500,0.00000,0.00281,0.04343,-0.98539,2023,6,12,11,34,55,145
0.08190,3.18500,-4.58500,0.00000,0.00220,0.04404,-0.98722,2023,6,12,11,34,55,156
0.08200,3.15000,-4.77750,0.00000,0.00305,0.04441,-0.98503,2023,6,12,11,34,55,168
0.08210,3.04500,-4.44500,0.00000,0.00451,0.04343,-0.98698,2023,6,12,11,34,55,179
0.08220,3.22000,-4.55000,0.00000,0.00439,0.04099,-0.98832,2023,6,12,11,34,55,190
0.08230,3.22000,-4.69000,0.00000,0.00317,0.04368,-0.98674,2023,6,12,11,34,55,201
0.08240,2.88750,-4.42750,0.00000,0.00293,0.04380,-0.98649,2023,6,12,11,34,55,212
0.08250,3.22000,-4.76000,0.00000,0.00146,0.04209,-0.98649,2023,6,12,11,34,55,223
0.08260,3.11500,-4.77750,0.00000,0.00464,0.04209,-0.98722,2023,6,12,11,34,55,234
0.08270,2.94000,-4.53250,0.00000,0.00427,0.04355,-0.98796,2023,6,12,11,34,55,245
0.08280,3.25500,-4.69000,0.00000,0.00342,0.04209,-0.98796,2023,6,12,11,34,55,256
0.08290,2.97500,-4.60250,0.00000,0.00220,0.04148,-0.98991,2023,6,12,11,34,55,268
0.08300,3.02750,-4.58500,0.00000,0.00415,0.04331,-0.98527,2023,6,12,11,34,55,279
0.08310,2.95750,-4.56750,0.00000,0.00293,0.04270,-0.98625,2023,6,12,11,34,55,290
0.08320,3.13250,-4.51500,0.00000,0.00195,0.04258,-0.98942,2023,6,12,11,34,55,301
0.08330,3.06250,-4.88250,0.00000,0.00122,0.04221,-0.98942,2023,6,12,11,34,55,312
0.08340,3.08000,-4.70750,0.00000,0.00146,0.04160,-0.98893,2023,6,12,11,34,55,323
0.08350,3.02750,-4.79500,0.00000,0.00427,0.04331,-0.98771,2023,6,12,11,34,55,334
0.08360,3.09750,-4.51500,0.00000,0.00390,0.04294,-0.99015,2023,6,12,11,34,55,345
0.08370,2.92250,-4.63750,0.00000,0.00354,0.04343,-0.98783,2023,6,12,11,34,55,356
0.08380,3.06250,-4.83000,0.00000,0.00317,0.04172,-0.98674,2023,6,12,11,34,55,368
0.08390,3.04500,-4.62000,0.00000,0.00183,0.04172,-0.98698,2023,6,12,11,34,55,379
0.08400,3.11500,-4.55000,0.00000,0.00329,0.04221,-0.98759,2023,6,12,11,34,55,390
0.08410,3.27250,-4.55000,0.00000,0.00244,0.04246,-0.98893,2023,6,12,11,34,55,401
0.08420,3.08000,-4.56750,0.00000,0.00403,0.04197,-0.98661,2023,6,12,11,34,55,412
0.08430,3.04500,-4.58500,0.00000,0.00366,0.04429,-0.98320,2023,6,12,11,34,55,423
0.08440,3.01000,-4.60250,0.00000,0.00171,0.04258,-0.98832,2023,6,12,11,34,55,434
0.08450,3.09750,-4.44500,0.00000,0.00451,0.04136,-0.98527,2023,6,12,11,34,55,445
0.08460,3.01000,-4.42750,0.00000,0.00671,0.04209,-0.98649,2023,6,12,11,34,55,456
0.08470,3.04500,-4.67250,0.00000,0.00561,0.04343,-0.98625,2023,6,12,11,34,55,468
0.08480,3.02750,-4.41000,0.00000,0.00342,0.04380,-0.98649,2023,6,12,11,34,55,479
0.08490,3.22000,-4.48000,0.00000,0.00232,0.04380,-0.98649,2023,6,12,11,34,55,490
0.08500,2.94000,-4.58500,0.00000,0.00403,0.04392,-0.98588,2023,6,12,11,34,55,501
0.08510,2.99250,-4.62000,0.00000,0.00305,0.04319,-0.98796,2023,6,12,11,34,55,512
0.08520,3.29000,-4.65500,0.00000,0.00415,0.04331,-0.98722,2023,6,12,11,34,55,523
0.08530,3.20250,-4.65500,0.00000,0.00232,0.03989,-0.98625,2023,6,12,11,34,55,534
0.08540,3.22000,-4.76000,0.00000,0.00500,0.04282,-0.98539,2023,6,12,11,34,55,545
0.08550,3.20250,-4.58500,0.00000,0.00232,0.04209,-0.98661,2023,6,12,11,34,55,556
0.08560,3.15000,-4.67250,0.00000,0.00207,0.04221,-0.98564,2023,6,12,11,34,55,568
0.08570,3.30750,-4.77750,0.00000,0.00464,0.04294,-0.98771,2023,6,12,11,34,55,579
0.08580,3.15000,-4.49750,0.00000,0.00061,0.04221,-0.98649,2023,6,12,11,34,55,590
0.08590,3.15000,-4.60250,0.00000,0.00268,0.04014,-0.98905,2023,6,12,11,34,55,601
0.08600,3.27250,-4.69000,0.00000,0.00537,0.04270,-0.98600,2023,6,12,11,34,55,612
0.08610,3.16750,-4.56750,0.00000,0.00464,0.04416,-0.98613,2023,6,12,11,34,55,623
0.08620,3.15000,-4.53250,0.00000,0.00354,0.04380,-0.98905,2023,6,12,11,34,55,634
0.08630,3.11500,-4.58500,0.00000,0.00354,0.04124,-0.98783,2023,6,12,11,34,55,645
0.08640,3.13250,-4.74250,0.00000,0.00232,0.04246,-0.98564,2023,6,12,11,34,55,656
0.08650,3.08000,-4.44500,0.00000,0.00390,0.04368,-0.98552,2023,6,12,11,34,55,668
0.08660,3.11500,-4.67250,0.00000,0.00390,0.04319,-0.99003,2023,6,12,11,34,55,679
0.08670,3.25500,-4.67250,0.00000,0.00329,0.04441,-0.98661,2023,6,12,11,34,55,690
0.08680,2.99250,-4.49750,0.00000,0.00305,0.04429,-0.98613,2023,6,12,11,34,55,701
0.08690,2.87000,-4.53250,0.00000,0.00439,0.04075,-0.98588,2023,6,12,11,34,55,712
0.08700,3.34250,-4.76000,0.00000,0.00293,0.04294,-0.98515,2023,6,12,11,34,55,723
0.08710,3.04500,-4.60250,0.00000,0.00293,0.04099,-0.98576,2023,6,12,11,34,55,734
0.08720,3.15000,-4.72500,0.00000,0.00244,0.04380,-0.98832,2023,6,12,11,34,55,745
0.08730,3.27250,-4.48000,0.00000,0.00378,0.04453,-0.98783,2023,6,12,11,34,55,756
0.08740,3.06250,-4.63750,0.00000,0.00207,0.04270,-0.98686,2023,6,12,11,34,55,768
0.08750,3.15000,-4.60250,0.00000,0.00366,0.04197,-0.98796,2023,6,12,11,34,55,779
0.08760,3.32500,-4.67250,0.00000,0.00085,0.04282,-0.98674,2023,6,12,11,34,55,790
0.08770,3.02750,-4.62000,0.00000,0.00073,0.04294,-0.98942,2023,6,12,11,34,55,801
0.08780,3.30750,-4.77750,0.00000,0.00220,0.04087,-0.98869,2023,6,12,11,34,55,812
0.08790,3.20250,-4.55000,0.00000,0.00268,0.04270,-0.98588,2023,6,12,11,34,55,823
0.08800,3.06250,-4.74250,0.00000,0.00268,0.04404,-0.98661,2023,6,12,11,34,55,834
0.08810,3.01000,-4.70750,0.00000,0.00439,0.04197,-0.98735,2023,6,12,11,34,55,845
0.08820,3.23750,-4.77750,0.00000,0.00232,0.04172,-0.98735,2023,6,12,11,34,55,856
0.08830,2.97500,-4.58500,0.00000,0.00500,0.04282,-0.99003,2023,6,12,11,34,55,868
0.08840,3.22000,-4.69000,0.00000,0.00415,0.04319,-0.98722,2023,6,12,11,34,55,879
0.08850,3.11500,-4.60250,0.00000,0.00354,0.04307,-0.98991,2023,6,12,11,34,55,890
0.08860,3.23750,-4.84750,0.00000,0.00476,0.04441,-0.98539,2023,6,12,11,34,55,901
0.08870,3.08000,-4.76000,0.00000,0.00195,0.04087,-0.98844,2023,6,12,11,34,55,912
0.08880,3.04500,-4.58500,0.00000,0.00390,0.04355,-0.98759,2023,6,12,11,34,55,923
0.08890,3.09750,-4.62000,0.00000,0.00293,0.04221,-0.98857,2023,6,12,11,34,55,934
0.08900,3.16750,-4.83000,0.00000,0.00281,0.04331,-0.98759,2023,6,12,11,34,55,945
0.08910,3.06250,-4.74250,0.00000,0.00378,0.04233,-0.98857,2023,6,12,11,34,55,956
0.08920,3.25500,-4.70750,0.00000,0.00415,0.04002,-0.98295,2023,6,12,11,34,55,968
0.08930,3.01000,-4.58500,0.00000,0.00427,0.04160,-0.98930,2023,6,12,11,34,56,9
0.08940,3.11500,-4.60250,0.00000,0.00244,0.04197,-0.98552,2023,6,12,11,34,56,20
0.08950,3.01000,-4.62000,0.00000,0.00317,0.04233,-0.98649,2023,6,12,11,34,56,31
0.08960,3.22000,-4.44500,0.00000,0.00403,0.04465,-0.98942,2023,6,12,11,34,56,42
0.08970,2.90500,-4.65500,0.00000,0.00354,0.04148,-0.98832,2023,6,12,11,34,56,53
0.08980,3.01000,-4.58500,0.00000,0.00403,0.04355,-0.99076,2023,6,12,11,34,56,64
0.08990,3.08000,-4.49750,0.00000,0.00500,0.04392,-0.98771,2023,6,12,11,34,56,75
0.09000,3.37750,-4.86500,0.00000,0.00061,0.04331,-0.98661,2023,6,12,11,34,56,86
0.09010,3.18500,-4.55000,0.00000,0.00244,0.04258,-0.98588,2023,6,12,11,34,56,98
0.09020,3.06250,-4.60250,0.00000,0.00561,0.04368,-0.98808,2023,6,12,11,34,56,109
0.09030,2.97500,-4.48000,0.00000,0.00183,0.04160,-0.98881,2023,6,12,11,34,56,120
0.09040,3.16750,-4.69000,0.00000,0.00305,0.04221,-0.98442,2023,6,12,11,34,56,131
0.09050,2.87000,-4.65500,0.00000,0.00342,0.04209,-0.98820,2023,6,12,11,34,56,142
0.09060,3.11500,-4.56750,0.00000,0.00293,0.04416,-0.98893,2023,6,12,11,34,56,153
0.09070,3.15000,-4.58500,0.00000,0.00451,0.04294,-0.99003,2023,6,12,11,34,56,164
0.09080,3.08000,-4.63750,0.00000,0.00244,0.04441,-0.98796,2023,6,12,11,34,56,175
0.09090,2.94000,-4.48000,0.00000,0.00342,0.04197,-0.98527,2023,6,12,11,34,56,186
0.09100,3.22000,-4.67250,0.00000,0.00232,0.04038,-0.98649,2023,6,12,11,34,56,198
0.09110,2.85250,-4.42750,0.00000,0.00415,0.04416,-0.98661,2023,6,12,11,34,56,209
0.09120,2.94000,-4.60250,0.00000,0.00012,0.04221,-0.98979,2023,6,12,11,34,56,220
0.09130,3.34250,-4.53250,0.00000,0.00403,0.04477,-0.98674,2023,6,12,11,34,56,231
0.09140,3.04500,-4.69000,0.00000,0.00403,0.04343,-0.98710,2023,6,12,11,34,56,242
0.09150,3.27250,-4.56750,0.00000,0.00256,0.04221,-0.98539,2023,6,12,11,34,56,253
0.09160,3.16750,-4.67250,0.00000,0.00415,0.04416,-0.98710,2023,6,12,11,34,56,264
0.09170,3.04500,-4.62000,0.00000,0.00305,0.04343,-0.98759,2023,6,12,11,34,56,275
0.09180,3.09750,-4.63750,0.00000,0.00451,0.04502,-0.98600,2023,6,12,11,34,56,286
0.09190,3.34250,-4.77750,0.00000,0.00464,0.04221,-0.98491,2023,6,12,11,34,56,298
0.09200,2.92250,-4.70750,0.00000,0.00342,0.04246,-0.98759,2023,6,12,11,34,56,309
0.09210,3.06250,-4.69000,0.00000,0.00403,0.04380,-0.99027,2023,6,12,11,34,56,320
0.09220,3.18500,-4.53250,0.00000,0.00378,0.04416,-0.98527,2023,6,12,11,34,56,331
0.09230,3.04500,-4.53250,0.00000,0.00171,0.04331,-0.98649,2023,6,12,11,34,56,342
0.09240,3.29000,-4.70750,0.00000,0.00488,0.04258,-0.99088,2023,6,12,11,34,56,353
0.09250,3.18500,-4.69000,0.00000,0.00415,0.04380,-0.98820,2023,6,12,11,34,56,364
0.09260,3.11500,-4.39250,0.00000,0.00329,0.04136,-0.98356,2023,6,12,11,34,56,375
0.09270,3.11500,-4.76000,0.00000,0.00195,0.04307,-0.98710,2023,6,12,11,34,56,386
0.09280,3.09750,-4.74250,0.00000,0.00354,0.04221,-0.98661,2023,6,12,11,34,56,398
0.09290,3.13250,-4.56750,0.00000,0.00378,0.04282,-0.98832,2023,6,12,11,34,56,409
0.09300,3.16750,-4.63750,0.00000,0.00427,0.04392,-0.99003,2023,6,12,11,34,56,420
0.09310,3.06250,-4.55000,0.00000,0.00378,0.04148,-0.98832,2023,6,12,11,34,56,431
0.09320,3.32500,-4.95250,0.00000,0.00390,0.04258,-0.98771,2023,6,12,11,34,56,442
0.09330,3.08000,-4.65500,0.00000,0.00427,0.04368,-0.98918,2023,6,12,11,34,56,453
0.09340,3.04500,-4.72500,0.00000,0.00573,0.04233,-0.98600,2023,6,12,11,34,56,464
0.09350,3.27250,-4.86500,0.00000,0.00281,0.04392,-0.98796,2023,6,12,11,34,56,475
0.09360,3.02750,-4.65500,0.00000,0.00439,0.04294,-0.98783,2023,6,12,11,34,56,486
0.09370,3.22000,-4.60250,0.00000,0.00439,0.04465,-0.98796,2023,6,12,11,34,56,498
0.09380,3.23750,-4.69000,0.00000,0.00305,0.04392,-0.98820,2023,6,12,11,34,56,509
0.09390,3.16750,-4.72500,0.00000,0.00305,0.04648,-0.99027,2023,6,12,11,34,56,520
0.09400,3.15000,-4.72500,0.00000,0.00171,0.04294,-0.98796,2023,6,12,11,34,56,531
0.09410,3.22000,-4.48000,0.00000,0.00293,0.04246,-0.98698,2023,6,12,11,34,56,542
0.09420,3.09750,-4.58500,0.00000,0.00293,0.04453,-0.98771,2023,6,12,11,34,56,553
0.09430,3.02750,-4.67250,0.00000,0.00476,0.04221,-0.98625,2023,6,12,11,34,56,564
0.09440,3.09750,-4.79500,0.00000,0.00354,0.04416,-0.98918,2023,6,12,11,34,56,575
0.09450,3.04500,-4.76000,0.00000,0.00378,0.04258,-0.98698,2023,6,12,11,34,56,586
0.09460,2.95750,-4.72500,0.00000,0.00220,0.04148,-0.98417,2023,6,12,11,34,56,598
0.09470,3.18500,-4.53250,0.00000,0.00159,0.04026,-0.98686,2023,6,12,11,34,56,609
0.09480,3.08000,-4.60250,0.00000,0.00451,0.04111,-0.98320,2023,6,12,11,34,56,620
0.09490,2.88750,-4.67250,0.00000,0.00427,0.04197,-0.98710,2023,6,12,11,34,56,631
0.09500,3.08000,-4.56750,0.00000,0.00415,0.04014,-0.98234,2023,6,12,11,34,56,642
0.09510,3.01000,-4.44500,0.00000,0.00354,0.04087,-0.98417,2023,6,12,11,34,56,653
0.09520,3.09750,-4.60250,0.00000,0.00317,0.04087,-0.98295,2023,6,12,11,34,56,664
0.09530,3.08000,-4.53250,0.00000,0.00305,0.03880,-0.98393,2023,6,12,11,34,56,675
0.09540,3.06250,-4.60250,0.00000,0.00317,0.04233,-0.98466,2023,6,12,11,34,56,686
0.09550,3.08000,-4.41000,0.00000,0.00512,0.04087,-0.98466,2023,6,12,11,34,56,698
0.09560,3.01000,-4.32250,0.00000,0.00146,0.04258,-0.98515,2023,6,12,11,34,56,709
0.09570,3.01000,-4.77750,0.00000,0.00146,0.04087,-0.98722,2023,6,12,11,34,56,720
0.09580,2.94000,-4.49750,0.00000,0.00415,0.04087,-0.98613,2023,6,12,11,34,56,731
0.09590,2.99250,-4.49750,0.00000,0.00403,0.04099,-0.98625,2023,6,12,11,34,56,742
0.09600,3.15000,-4.42750,0.00000,0.00525,0.04233,-0.98393,2023,6,12,11,34,56,753
0.09610,3.16750,-4.63750,0.00000,0.00305,0.04124,-0.98271,2023,6,12,11,34,56,764
0.09620,3.20250,-4.49750,0.00000,0.00329,0.04063,-0.98417,2023,6,12,11,34,56,775
0.09630,2.99250,-4.53250,0.00000,0.00342,0.04087,-0.98442,2023,6,12,11,34,56,786
0.09640,3.06250,-4.46250,0.00000,0.00329,0.04258,-0.98576,2023,6,12,11,34,56,798
0.09650,2.99250,-4.76000,0.00000,0.00622,0.04124,-0.98527,2023,6,12,11,34,56,809
0.09660,3.04500,-4.42750,0.00000,0.00207,0.04099,-0.98637,2023,6,12,11,34,56,820
0.09670,3.06250,-4.56750,0.00000,0.00451,0.04221,-0.98503,2023,6,12,11,34,56,831
0.09680,3.23750,-4.65500,0.00000,0.00342,0.03965,-0.98881,2023,6,12,11,34,56,842
0.09690,2.99250,-4.44500,0.00000,0.00354,0.04038,-0.98564,2023,6,12,11,34,56,853
0.09700,3.02750,-4.65500,0.00000,0.00268,0.04197,-0.98613,2023,6,12,11,34,56,864
0.09710,2.94000,-4.49750,0.00000,0.00390,0.03989,-0.98674,2023,6,12,11,34,56,875
0.09720,2.99250,-4.67250,0.00000,0.00293,0.04148,-0.98308,2023,6,12,11,34,56,886
0.09730,3.18500,-4.62000,0.00000,0.00293,0.04331,-0.98369,2023,6,12,11,34,56,898
0.09740,3.18500,-4.65500,0.00000,0.00268,0.04294,-0.98466,2023,6,12,11,34,56,909
0.09750,3.01000,-4.34000,0.00000,0.00220,0.04172,-0.98430,2023,6,12,11,34,56,920
0.09760,3.27250,-4.74250,0.00000,0.00354,0.04050,-0.98356,2023,6,12,11,34,56,931
0.09770,3.01000,-4.53250,0.00000,0.00342,0.04124,-0.98698,2023,6,12,11,34,56,942
0.09780,3.32500,-4.65500,0.00000,0.00183,0.04307,-0.98430,2023,6,12,11,34,56,953
0.09790,2.90500,-4.28750,0.00000,0.00415,0.03892,-0.98295,2023,6,12,11,34,56,964
0.09800,3.16750,-4.56750,0.00000,0.00342,0.04148,-0.98454,2023,6,12,11,34,56,975
0.09810,3.02750,-4.48000,0.00000,0.00427,0.04050,-0.98454,2023,6,12,11,34,56,986
0.09820,3.09750,-4.70750,0.00000,0.00134,0.04038,-0.98454,2023,6,12,11,34,56,998
0.09830,2.94000,-4.55000,0.00000,0.00390,0.04209,-0.98320,2023,6,12,11,34,57,9
0.09840,3.04500,-4.76000,0.00000,0.00403,0.04075,-0.98686,2023,6,12,11,34,57,20
0.09850,3.08000,-4.53250,0.00000,0.00561,0.04014,-0.98478,2023,6,12,11,34,57,31
0.09860,2.85250,-4.62000,0.00000,0.00281,0.04099,-0.98637,2023,6,12,11,34,57,42
0.09870,3.25500,-4.55000,0.00000,0.00220,0.04099,-0.98539,2023,6,12,11,34,57,53
0.09880,2.76500,-4.44500,0.00000,0.00329,0.04050,-0.98576,2023,6,12,11,34,57,64
0.09890,3.23750,-4.76000,0.00000,0.00378,0.04002,-0.98369,2023,6,12,11,34,57,75
0.09900,2.92250,-4.46250,0.00000,0.00073,0.04014,-0.98405,2023,6,12,11,34,57,86
0.09910,3.27250,-4.69000,0.00000,0.00329,0.04111,-0.98710,2023,6,12,11,34,57,98
0.09920,2.92250,-4.41000,0.00000,0.00342,0.04002,-0.98369,2023,6,12,11,34,57,109
0.09930,3.01000,-4.55000,0.00000,0.00195,0.04294,-0.98649,2023,6,12,11,34,57,120
0.09940,3.16750,-4.46250,0.00000,0.00329,0.04075,-0.98686,2023,6,12,11,34,57,131
0.09950,2.87000,-4.46250,0.00000,0.00207,0.04136,-0.98576,2023,6,12,11,34,57,142
0.09960,2.80000,-4.46250,0.00000,0.00256,0.04221,-0.98515,2023,6,12,11,34,57,153
0.09970,3.08000,-4.74250,0.00000,0.00500,0.04038,-0.98564,2023,6,12,11,34,57,164
0.09980,2.87000,-4.49750,0.00000,0.00354,0.04075,-0.98625,2023,6,12,11,34,57,175
0.09990,3.15000,-4.55000,0.00000,0.00403,0.03867,-0.98515,2023,6,12,11,34,57,186
0.10000,2.67750,-4.23500,0.00000,0.00268,0.03977,-0.98515,2023,6,12,11,34,57,198
0.10010,3.09750,-4.62000,0.00000,0.00305,0.03953,-0.98747,2023,6,12,11,34,57,209
0.10020,3.30750,-4.76000,0.00000,0.00305,0.04050,-0.98881,2023,6,12,11,34,57,220
0.10030,2.04750,-4.02500,0.00000,0.00146,0.04404,-0.98491,2023,6,12,11,34,57,231
0.10040,3.50000,-4.90000,0.00000,0.00683,0.04124,-0.98576,2023,6,12,11,34,57,242
0.10050,2.92250,-4.62000,0.00000,0.00537,0.04136,-0.98393,2023,6,12,11,34,57,253
0.10060,3.50000,-4.79500,0.00000,0.00232,0.03721,-0.99320,2023,6,12,11,34,57,264
0.10070,4.02500,-4.90000,0.00000,0.00403,0.04453,-0.97978,2023,6,12,11,34,57,275
0.10080,3.22000,-4.72500,0.00000,0.00525,0.03953,-0.98430,2023,6,12,11,34,57,286
0.10090,8.69750,-6.89500,0.00000,-0.00061,0.05100,-0.97844,2023,6,12,11,34,57,298
0.10100,11.49750,-8.82000,0.00000,-0.00488,0.05600,-0.96636,2023,6,12,11,34,57,309
0.10110,25.13000,-14.84000,0.00000,-0.00939,0.06063,-0.96624,2023,6,12,11,34,57,320
0.10120,39.70750,-21.49000,0.00000,-0.02977,0.01989,-0.95087,2023,6,12,11,34,57,331
0.10130,52.67500,-26.93250,0.00000,-0.00476,0.01696,-0.97783,2023,6,12,11,34,57,342
0.10140,53.62000,-26.91500,0.00000,0.07552,0.01135,-1.10569,2023,6,12,11,34,57,353
0.10150,71.62750,-11.32250,0.00000,-0.01379,-0.00134,-0.98491,2023,6,12,11,34,57,364
0.10160,70.50750,-7.43750,0.00000,-0.01696,0.00354,-1.00772,2023,6,12,11,34,57,375
0.10170,57.20750,-5.32000,0.00000,0.01122,0.06893,-0.97783,2023,6,12,11,34,57,386
0.10180,-143.81500,16.15250,0.00000,0.00195,0.10346,-0.92012,2023,6,12,11,34,57,398
0.10190,-21.10500,34.47500,0.00000,-0.12334,-0.04392,0.11700,2023,6,12,11,34,57,409
0.10200,32.23500,-18.60250,0.00000,-0.05136,-0.14774,-1.01992,2023,6,12,11,34,57,420
0.10210,-22.36500,7.50750,0.00000,0.01135,0.00756,-1.00406,2023,6,12,11,34,57,431
0.10220,10.16750,-7.96250,0.00000,-0.00268,0.05758,-0.96770,2023,6,12,11,34,57,442
0.10230,-2.92250,-1.82000,0.00000,-0.00561,0.02416,-0.99320,2023,6,12,11,34,57,453
0.10240,7.26250,-6.49250,0.00000,0.00000,0.03233,-0.97942,2023,6,12,11,34,57,464
0.10250,1.31250,-3.62250,0.00000,-0.00549,0.02416,-0.99479,2023,6,12,11,34,57,475
0.10260,3.69250,-4.79500,0.00000,0.00134,0.03440,-0.98125,2023,6,12,11,34,57,486
0.10270,2.11750,-4.09500,0.00000,-0.00305,0.02830,-0.98942,2023,6,12,11,34,57,498
0.10280,3.57000,-4.84750,0.00000,-0.00146,0.02879,-0.98637,2023,6,12,11,34,57,509
0.10290,2.92250,-4.62000,0.00000,-0.00183,0.02794,-0.98552,2023,6,12,11,34,57,520
0.10300,2.90500,-4.37500,0.00000,-0.00220,0.03135,-0.98491,2023,6,12,11,34,57,531
0.10310,3.08000,-4.77750,0.00000,-0.00293,0.03160,-0.98576,2023,6,12,11,34,57,542
0.10320,2.87000,-4.49750,0.00000,-0.00378,0.03148,-0.98625,2023,6,12,11,34,57,553
0.10330,3.04500,-4.55000,0.00000,-0.00403,0.03123,-0.98625,2023,6,12,11,34,57,564
0.10340,2.92250,-4.76000,0.00000,-0.00390,0.02733,-0.98722,2023,6,12,11,34,57,575
0.10350,3.04500,-4.72500,0.00000,-0.00366,0.03123,-0.98491,2023,6,12,11,34,57,586
0.10360,2.74750,-4.39250,0.00000,-0.00366,0.03099,-0.98710,2023,6,12,11,34,57,598
0.10370,2.92250,-4.60250,0.00000,-0.00024,0.02965,-0.98247,2023,6,12,11,34,57,609
0.10380,2.95750,-4.56750,0.00000,-0.00183,0.02904,-0.98491,2023,6,12,11,34,57,620
0.10390,3.13250,-4.69000,0.00000,-0.00354,0.03038,-0.98600,2023,6,12,11,34,57,631
0.10400,2.90500,-4.51500,0.00000,-0.00232,0.03184,-0.98649,2023,6,12,11,34,57,642
0.10410,3.06250,-4.62000,0.00000,-0.00159,0.02928,-0.98356,2023,6,12,11,34,57,653
0.10420,2.76500,-4.44500,0.00000,-0.00305,0.03233,-0.98698,2023,6,12,11,34,57,664
0.10430,3.22000,-4.76000,0.00000,-0.00244,0.02891,-0.98710,2023,6,12,11,34,57,675
0.10440,2.99250,-4.35750,0.00000,-0.00061,0.02989,-0.98552,2023,6,12,11,34,57,686
0.10450,3.16750,-4.60250,0.00000,-0.00110,0.02757,-0.98430,2023,6,12,11,34,57,698
0.10460,2.94000,-4.65500,0.00000,-0.00098,0.03099,-0.98735,2023,6,12,11,34,57,709
0.10470,2.80000,-4.49750,0.00000,-0.00244,0.03123,-0.98320,2023,6,12,11,34,57,720
0.10480,-0.05250,-3.36000,0.00000,-0.00439,0.02806,-0.99454,2023,6,12,11,34,57,731
0.10490,-1.89000,-2.27500,0.00000,0.00024,0.03562,-0.97600,2023,6,12,11,34,57,742
0.10500,-1.05000,-2.85250,0.00000,0.00073,0.02172,-0.99845,2023,6,12,11,34,57,753
0.10510,1.73250,-3.06250,0.00000,-0.01952,-0.04819,-0.99345,2023,6,12,11,34,57,764
0.10520,-2.08250,-2.87000,0.00000,-0.02233,0.12725,-1.10349,2023,6,12,11,34,57,775
0.10530,6.14250,-6.16000,0.00000,0.00659,-0.00561,-0.96929,2023,6,12,11,34,57,786
0.10540,3.09750,-4.74250,0.00000,-0.00049,0.04770,-0.96978,2023,6,12,11,34,57,798
0.10550,3.16750,-4.63750,0.00000,0.00061,0.03416,-0.98552,2023,6,12,11,34,57,809
0.10560,9.92250,-7.80500,0.00000,-0.00256,0.03343,-0.99040,2023,6,12,11,34,57,820
0.10570,4.60250,-5.26750,0.00000,0.00000,0.02952,-0.98905,2023,6,12,11,34,57,831
0.10580,2.01250,-4.30500,0.00000,-0.00293,0.03270,-0.98637,2023,6,12,11,34,57,842
0.10590,3.86750,-5.04000,0.00000,-0.00220,0.03306,-0.98405,2023,6,12,11,34,57,853
#2023/06/12 11:34:57
