#2023/06/12 12:11:11
time,wx,wy,wz,ax,ay,az,yy,MM,dd,hh,mm,ss,ms
0.00000,3.04500,-4.60250,0.00000,-0.00451,0.02721,-0.98674,2023,6,12,12,11,11,620
0.00010,2.90500,-4.46250,0.00000,-0.00610,0.02708,-0.98710,2023,6,12,12,11,11,631
0.00020,2.99250,-4.62000,0.00000,-0.00500,0.02806,-0.98625,2023,6,12,12,11,11,642
0.00030,3.02750,-4.62000,0.00000,-0.00476,0.02843,-0.98661,2023,6,12,12,11,11,653
0.00040,3.02750,-4.79500,0.00000,-0.00512,0.02769,-0.98674,2023,6,12,12,11,11,664
0.00050,2.90500,-4.79500,0.00000,-0.00586,0.02623,-0.98759,2023,6,12,12,11,11,675
0.00060,3.04500,-4.86500,0.00000,-0.00342,0.02611,-0.98771,2023,6,12,12,11,11,686
0.00070,2.90500,-4.69000,0.00000,-0.00622,0.02562,-0.98710,2023,6,12,12,11,11,697
0.00080,3.02750,-4.84750,0.00000,-0.00476,0.02660,-0.98527,2023,6,12,12,11,11,708
0.00090,2.88750,-4.51500,0.00000,-0.00403,0.02696,-0.98735,2023,6,12,12,11,11,719
0.00100,2.78250,-4.46250,0.00000,-0.00476,0.02745,-0.98613,2023,6,12,12,11,11,731
0.00110,3.01000,-4.83000,0.00000,-0.00378,0.02611,-0.98686,2023,6,12,12,11,11,742
0.00120,2.78250,-4.62000,0.00000,-0.00671,0.02538,-0.98966,2023,6,12,12,11,11,753
0.00130,2.88750,-4.46250,0.00000,-0.00549,0.02574,-0.98649,2023,6,12,12,11,11,764
0.00140,2.85250,-4.46250,0.00000,-0.00537,0.02660,-0.98698,2023,6,12,12,11,11,775
0.00150,2.88750,-4.53250,0.00000,-0.00586,0.02428,-0.98674,2023,6,12,12,11,11,786
0.00160,3.06250,-4.62000,0.00000,-0.00610,0.02257,-0.98942,2023,6,12,12,11,11,797
0.00170,3.04500,-4.44500,0.00000,-0.00586,0.02538,-0.98686,2023,6,12,12,11,11,808
0.00180,2.95750,-4.63750,0.00000,-0.00500,0.02550,-0.98649,2023,6,12,12,11,11,819
0.00190,2.90500,-4.74250,0.00000,-0.00500,0.02525,-0.98674,2023,6,12,12,11,11,831
0.00200,3.04500,-4.77750,0.00000,-0.00439,0.02672,-0.98283,2023,6,12,12,11,11,842
0.00210,2.74750,-4.39250,0.00000,-0.00561,0.02525,-0.98722,2023,6,12,12,11,11,853
0.00220,2.78250,-4.65500,0.00000,-0.00537,0.02525,-0.98930,2023,6,12,12,11,11,864
0.00230,2.94000,-4.79500,0.00000,-0.00573,0.02672,-0.98600,2023,6,12,12,11,11,875
0.00240,3.06250,-4.55000,0.00000,-0.00561,0.02379,-0.98930,2023,6,12,12,11,11,886
0.00250,3.11500,-4.93500,0.00000,-0.00537,0.02562,-0.98722,2023,6,12,12,11,11,897
0.00260,2.85250,-4.60250,0.00000,-0.00525,0.02574,-0.98722,2023,6,12,12,11,11,908
0.00270,2.92250,-4.76000,0.00000,-0.00525,0.02647,-0.98820,2023,6,12,12,11,11,919
0.00280,2.99250,-4.74250,0.00000,-0.00476,0.02916,-0.98905,2023,6,12,12,11,11,931
0.00290,3.04500,-4.79500,0.00000,-0.00561,0.02599,-0.98735,2023,6,12,12,11,11,942
0.00300,2.95750,-4.62000,0.00000,-0.00500,0.02635,-0.98759,2023,6,12,12,11,11,953
0.00310,2.92250,-4.76000,0.00000,-0.00366,0.02757,-0.98369,2023,6,12,12,11,11,964
0.00320,2.99250,-4.65500,0.00000,-0.00512,0.02403,-0.98722,2023,6,12,12,11,11,975
0.00330,3.13250,-4.63750,0.00000,-0.00500,0.02733,-0.98893,2023,6,12,12,11,11,986
0.00340,2.71250,-4.63750,0.00000,-0.00451,0.02623,-0.98478,2023,6,12,12,11,11,997
0.00350,2.90500,-4.86500,0.00000,-0.00561,0.02647,-0.98600,2023,6,12,12,11,11,8
0.00360,3.02750,-4.76000,0.00000,-0.00390,0.02586,-0.98539,2023,6,12,12,11,11,19
0.00370,2.94000,-4.55000,0.00000,-0.00415,0.02757,-0.98661,2023,6,12,12,11,11,31
0.00380,2.81750,-4.67250,0.00000,-0.00464,0.02623,-0.98564,2023,6,12,12,11,11,42
0.00390,2.81750,-4.67250,0.00000,-0.00525,0.02782,-0.98295,2023,6,12,12,11,11,53
0.00400,2.94000,-4.62000,0.00000,-0.00451,0.02696,-0.98637,2023,6,12,12,11,11,64
0.00410,2.87000,-4.63750,0.00000,-0.00439,0.02696,-0.98552,2023,6,12,12,11,11,75
0.00420,3.18500,-4.69000,0.00000,-0.00403,0.02623,-0.98576,2023,6,12,12,11,11,86
0.00430,2.80000,-4.34000,0.00000,-0.00610,0.02635,-0.98698,2023,6,12,12,11,11,97
0.00440,2.99250,-4.86500,0.00000,-0.00622,0.02513,-0.98893,2023,6,12,12,11,11,108
0.00450,2.90500,-4.39250,0.00000,-0.00512,0.02684,-0.98637,2023,6,12,12,11,11,119
0.00460,2.74750,-4.56750,0.00000,-0.00537,0.02708,-0.98491,2023,6,12,12,11,11,131
0.00470,3.02750,-4.49750,0.00000,-0.00220,0.02647,-0.98686,2023,6,12,12,11,11,142
0.00480,3.13250,-4.76000,0.00000,-0.00476,0.02574,-0.98613,2023,6,12,12,11,11,153
0.00490,2.90500,-4.56750,0.00000,-0.00573,0.02660,-0.98369,2023,6,12,12,11,11,164
0.00500,3.02750,-4.81250,0.00000,-0.00525,0.02538,-0.98722,2023,6,12,12,11,11,175
0.00510,3.13250,-4.63750,0.00000,-0.00390,0.02611,-0.98710,2023,6,12,12,11,11,186
0.00520,3.09750,-4.58500,0.00000,-0.00659,0.02733,-0.98576,2023,6,12,12,11,11,197
0.00530,3.13250,-4.81250,0.00000,-0.00427,0.02794,-0.98661,2023,6,12,12,11,11,208
0.00540,2.87000,-4.70750,0.00000,-0.00500,0.02733,-0.98613,2023,6,12,12,11,11,219
0.00550,2.88750,-4.58500,0.00000,-0.00525,0.02550,-0.98747,2023,6,12,12,11,11,231
0.00560,3.06250,-4.65500,0.00000,-0.00451,0.02525,-0.98613,2023,6,12,12,11,11,242
0.00570,2.95750,-4.63750,0.00000,-0.00537,0.02745,-0.98674,2023,6,12,12,11,11,253
0.00580,3.04500,-4.91750,0.00000,-0.00512,0.02769,-0.98808,2023,6,12,12,11,11,264
0.00590,2.76500,-4.74250,0.00000,-0.00366,0.02879,-0.98722,2023,6,12,12,11,11,275
0.00600,2.85250,-4.56750,0.00000,-0.00512,0.02696,-0.98491,2023,6,12,12,11,11,286
0.00610,3.02750,-4.70750,0.00000,-0.00390,0.02745,-0.98710,2023,6,12,12,11,11,297
0.00620,3.18500,-4.63750,0.00000,-0.00500,0.02769,-0.98478,2023,6,12,12,11,11,308
0.00630,3.09750,-4.77750,0.00000,-0.00573,0.02599,-0.98808,2023,6,12,12,11,12,9
0.00640,2.95750,-4.53250,0.00000,-0.00451,0.02696,-0.98527,2023,6,12,12,11,12,21
0.00650,2.94000,-4.41000,0.00000,-0.00549,0.02635,-0.98966,2023,6,12,12,11,12,32
0.00660,2.83500,-4.70750,0.00000,-0.00427,0.02721,-0.98613,2023,6,12,12,11,12,43
0.00670,3.04500,-4.53250,0.00000,-0.00586,0.02635,-0.98661,2023,6,12,12,11,12,54
0.00680,3.09750,-4.72500,0.00000,-0.00378,0.02586,-0.98344,2023,6,12,12,11,12,65
0.00690,2.80000,-4.76000,0.00000,-0.00293,0.02696,-0.98527,2023,6,12,12,11,12,76
0.00700,2.90500,-4.60250,0.00000,-0.00537,0.02611,-0.98783,2023,6,12,12,11,12,87
0.00710,2.99250,-4.58500,0.00000,-0.00549,0.02733,-0.98832,2023,6,12,12,11,12,98
0.00720,3.01000,-4.65500,0.00000,-0.00525,0.02477,-0.98625,2023,6,12,12,11,12,109
0.00730,3.02750,-4.65500,0.00000,-0.00573,0.02635,-0.98527,2023,6,12,12,11,12,121
0.00740,2.88750,-4.46250,0.00000,-0.00549,0.02513,-0.98893,2023,6,12,12,11,12,132
0.00750,2.97500,-4.51500,0.00000,-0.00415,0.02562,-0.98747,2023,6,12,12,11,12,143
0.00760,2.99250,-4.56750,0.00000,-0.00451,0.02611,-0.98722,2023,6,12,12,11,12,154
0.00770,2.90500,-4.48000,0.00000,-0.00354,0.02562,-0.98430,2023,6,12,12,11,12,165
0.00780,2.81750,-4.65500,0.00000,-0.00537,0.02769,-0.98613,2023,6,12,12,11,12,176
0.00790,2.92250,-4.83000,0.00000,-0.00403,0.02660,-0.98735,2023,6,12,12,11,12,187
0.00800,3.13250,-4.74250,0.00000,-0.00476,0.02611,-0.98966,2023,6,12,12,11,12,198
0.00810,2.90500,-4.76000,0.00000,-0.00476,0.02733,-0.98478,2023,6,12,12,11,12,209
0.00820,2.95750,-4.55000,0.00000,-0.00366,0.02660,-0.98832,2023,6,12,12,11,12,221
0.00830,2.97500,-4.62000,0.00000,-0.00549,0.02550,-0.98832,2023,6,12,12,11,12,232
0.00840,2.94000,-4.60250,0.00000,-0.00561,0.02550,-0.98661,2023,6,12,12,11,12,243
0.00850,2.95750,-4.48000,0.00000,-0.00451,0.02599,-0.99003,2023,6,12,12,11,12,254
0.00860,2.94000,-4.56750,0.00000,-0.00451,0.02733,-0.98698,2023,6,12,12,11,12,265
0.00870,3.06250,-4.81250,0.00000,-0.00451,0.02721,-0.98820,2023,6,12,12,11,12,276
0.00880,2.88750,-4.55000,0.00000,-0.00439,0.02769,-0.98674,2023,6,12,12,11,12,287
0.00890,2.71250,-4.55000,0.00000,-0.00500,0.02696,-0.98539,2023,6,12,12,11,12,298
0.00900,2.94000,-4.56750,0.00000,-0.00415,0.02696,-0.98588,2023,6,12,12,11,12,309
0.00910,2.85250,-4.70750,0.00000,-0.00195,0.02757,-0.98417,2023,6,12,12,11,12,321
0.00920,3.08000,-4.62000,0.00000,-0.00439,0.02489,-0.98674,2023,6,12,12,11,12,332
0.00930,2.90500,-4.58500,0.00000,-0.00488,0.02586,-0.98710,2023,6,12,12,11,12,343
0.00940,2.88750,-4.62000,0.00000,-0.00427,0.02757,-0.98661,2023,6,12,12,11,12,354
0.00950,3.04500,-4.77750,0.00000,-0.00476,0.02562,-0.98832,2023,6,12,12,11,12,365
0.00960,3.08000,-4.84750,0.00000,-0.00488,0.02721,-0.98722,2023,6,12,12,11,12,376
0.00970,2.95750,-4.53250,0.00000,-0.00488,0.02916,-0.98710,2023,6,12,12,11,12,387
0.00980,3.01000,-4.55000,0.00000,-0.00451,0.02721,-0.98600,2023,6,12,12,11,12,398
0.00990,3.01000,-4.91750,0.00000,-0.00354,0.02782,-0.98881,2023,6,12,12,11,12,409
0.01000,3.15000,-4.67250,0.00000,-0.00439,0.02696,-0.98442,2023,6,12,12,11,12,421
0.01010,2.81750,-4.55000,0.00000,-0.00512,0.02647,-0.98600,2023,6,12,12,11,12,432
0.01020,3.01000,-4.62000,0.00000,-0.00415,0.02733,-0.98527,2023,6,12,12,11,12,443
0.01030,2.94000,-4.58500,0.00000,-0.00525,0.02733,-0.98613,2023,6,12,12,11,12,454
0.01040,2.92250,-4.70750,0.00000,-0.00561,0.02538,-0.98637,2023,6,12,12,11,12,465
0.01050,2.97500,-4.55000,0.00000,-0.00403,0.02623,-0.98588,2023,6,12,12,11,12,476
0.01060,2.90500,-4.46250,0.00000,-0.00512,0.02782,-0.98771,2023,6,12,12,11,12,487
0.01070,3.06250,-4.56750,0.00000,-0.00476,0.02818,-0.98698,2023,6,12,12,11,12,498
0.01080,2.94000,-4.62000,0.00000,-0.00561,0.02623,-0.98539,2023,6,12,12,11,12,509
0.01090,2.95750,-4.69000,0.00000,-0.00537,0.02574,-0.98588,2023,6,12,12,11,12,521
0.01100,2.81750,-4.70750,0.00000,-0.00512,0.02586,-0.98674,2023,6,12,12,11,12,532
0.01110,2.81750,-4.72500,0.00000,-0.00464,0.02647,-0.99125,2023,6,12,12,11,12,543
0.01120,2.99250,-4.56750,0.00000,-0.00488,0.02416,-0.98698,2023,6,12,12,11,12,554
0.01130,3.02750,-4.56750,0.00000,-0.00439,0.02757,-0.98735,2023,6,12,12,11,12,565
0.01140,2.81750,-4.70750,0.00000,-0.00342,0.02782,-0.98820,2023,6,12,12,11,12,576
0.01150,2.97500,-4.65500,0.00000,-0.00500,0.02660,-0.98503,2023,6,12,12,11,12,587
0.01160,2.74750,-4.56750,0.00000,-0.00537,0.02660,-0.98637,2023,6,12,12,11,12,598
0.01170,2.85250,-4.44500,0.00000,-0.00549,0.02721,-0.98637,2023,6,12,12,11,12,609
0.01180,2.94000,-4.60250,0.00000,-0.00622,0.02721,-0.98686,2023,6,12,12,11,12,621
0.01190,2.78250,-4.44500,0.00000,-0.00354,0.02757,-0.98844,2023,6,12,12,11,12,632
0.01200,2.74750,-4.56750,0.00000,-0.00403,0.02538,-0.98649,2023,6,12,12,11,12,643
0.01210,3.01000,-4.56750,0.00000,-0.00415,0.02635,-0.98783,2023,6,12,12,11,12,654
0.01220,2.81750,-4.48000,0.00000,-0.00488,0.02708,-0.99003,2023,6,12,12,11,12,665
0.01230,2.92250,-4.77750,0.00000,-0.00488,0.02574,-0.98552,2023,6,12,12,11,12,676
0.01240,2.99250,-4.67250,0.00000,-0.00537,0.02550,-0.98515,2023,6,12,12,11,12,687
0.01250,2.88750,-4.58500,0.00000,-0.00500,0.02672,-0.98722,2023,6,12,12,11,12,698
0.01260,2.99250,-4.53250,0.00000,-0.00451,0.02757,-0.98905,2023,6,12,12,11,12,709
0.01270,3.15000,-4.60250,0.00000,-0.00512,0.02550,-0.98478,2023,6,12,12,11,12,721
0.01280,3.01000,-4.74250,0.00000,-0.00500,0.02721,-0.98552,2023,6,12,12,11,12,732
0.01290,2.90500,-4.62000,0.00000,-0.00549,0.02635,-0.98759,2023,6,12,12,11,12,743
0.01300,2.81750,-4.56750,0.00000,-0.00451,0.02757,-0.98905,2023,6,12,12,11,12,754
0.01310,2.90500,-4.72500,0.00000,-0.00598,0.02574,-0.98674,2023,6,12,12,11,12,765
0.01320,2.83500,-4.49750,0.00000,-0.00683,0.02660,-0.98552,2023,6,12,12,11,12,776
0.01330,2.95750,-4.69000,0.00000,-0.00671,0.02562,-0.98539,2023,6,12,12,11,12,787
0.01340,3.04500,-4.81250,0.00000,-0.00488,0.02611,-0.98661,2023,6,12,12,11,12,798
0.01350,2.92250,-4.53250,0.00000,-0.00512,0.02745,-0.98478,2023,6,12,12,11,12,809
0.01360,2.80000,-4.44500,0.00000,-0.00281,0.02635,-0.98710,2023,6,12,12,11,12,821
0.01370,2.85250,-4.60250,0.00000,-0.00244,0.02806,-0.98869,2023,6,12,12,11,12,832
0.01380,3.01000,-4.84750,0.00000,-0.00207,0.02562,-0.98405,2023,6,12,12,11,12,843
0.01390,2.73000,-4.60250,0.00000,-0.00207,0.02635,-0.98759,2023,6,12,12,11,12,854
0.01400,3.02750,-4.69000,0.00000,-0.00512,0.02513,-0.98735,2023,6,12,12,11,12,865
0.01410,2.81750,-4.58500,0.00000,-0.00549,0.02696,-0.98698,2023,6,12,12,11,12,876
0.01420,3.01000,-4.49750,0.00000,-0.00549,0.02562,-0.98710,2023,6,12,12,11,12,887
0.01430,2.87000,-4.67250,0.00000,-0.00659,0.02440,-0.98918,2023,6,12,12,11,12,898
0.01440,2.99250,-4.55000,0.00000,-0.00439,0.02782,-0.98539,2023,6,12,12,11,12,909
0.01450,2.95750,-4.76000,0.00000,-0.00512,0.02525,-0.98930,2023,6,12,12,11,12,921
0.01460,2.92250,-4.46250,0.00000,-0.00378,0.02647,-0.98710,2023,6,12,12,11,12,932
0.01470,2.94000,-4.41000,0.00000,-0.00525,0.02525,-0.99076,2023,6,12,12,11,12,943
0.01480,3.15000,-4.72500,0.00000,-0.00500,0.02769,-0.98649,2023,6,12,12,11,12,954
0.01490,2.73000,-4.74250,0.00000,-0.00549,0.02477,-0.98698,2023,6,12,12,11,12,965
0.01500,2.83500,-4.62000,0.00000,-0.00549,0.02818,-0.98796,2023,6,12,12,11,13,6
0.01510,3.08000,-4.53250,0.00000,-0.00464,0.02721,-0.98918,2023,6,12,12,11,13,17
0.01520,3.06250,-4.86500,0.00000,-0.00488,0.02733,-0.98796,2023,6,12,12,11,13,28
0.01530,2.97500,-4.67250,0.00000,-0.00427,0.02733,-0.98515,2023,6,12,12,11,13,39
0.01540,2.95750,-4.58500,0.00000,-0.00354,0.02647,-0.98637,2023,6,12,12,11,13,51
0.01550,2.97500,-4.58500,0.00000,-0.00427,0.02794,-0.98747,2023,6,12,12,11,13,62
0.01560,2.90500,-4.48000,0.00000,-0.00525,0.02440,-0.99052,2023,6,12,12,11,13,73
0.01570,2.92250,-4.60250,0.00000,-0.00439,0.02818,-0.98576,2023,6,12,12,11,13,84
0.01580,3.02750,-4.49750,0.00000,-0.00537,0.02757,-0.98430,2023,6,12,12,11,13,95
0.01590,2.80000,-4.62000,0.00000,-0.00634,0.02428,-0.98686,2023,6,12,12,11,13,106
0.01600,3.01000,-4.46250,0.00000,-0.00549,0.02696,-0.98564,2023,6,12,12,11,13,117
0.01610,3.09750,-4.69000,0.00000,-0.00598,0.02525,-0.98783,2023,6,12,12,11,13,128
0.01620,2.81750,-4.39250,0.00000,-0.00671,0.02452,-0.98722,2023,6,12,12,11,13,139
0.01630,2.78250,-4.49750,0.00000,-0.00268,0.02586,-0.98649,2023,6,12,12,11,13,151
0.01640,3.22000,-4.76000,0.00000,-0.00488,0.02379,-0.98918,2023,6,12,12,11,13,162
0.01650,2.36250,-4.23500,0.00000,-0.00610,0.02818,-0.98588,2023,6,12,12,11,13,173
0.01660,3.32500,-4.77750,0.00000,-0.00561,0.02721,-0.98674,2023,6,12,12,11,13,184
0.01670,2.83500,-4.48000,0.00000,-0.00268,0.02745,-0.98552,2023,6,12,12,11,13,195
0.01680,3.43000,-4.79500,0.00000,-0.00305,0.02623,-0.98600,2023,6,12,12,11,13,206
0.01690,2.90500,-4.62000,0.00000,-0.00354,0.02696,-0.98442,2023,6,12,12,11,13,217
0.01700,2.90500,-4.74250,0.00000,-0.00561,0.02806,-0.98710,2023,6,12,12,11,13,228
0.01710,2.94000,-4.51500,0.00000,-0.00366,0.02623,-0.98661,2023,6,12,12,11,13,239
0.01720,3.04500,-4.58500,0.00000,-0.00403,0.02672,-0.98649,2023,6,12,12,11,13,251
0.01730,2.71250,-4.72500,0.00000,-0.00573,0.02635,-0.98710,2023,6,12,12,11,13,262
0.01740,3.01000,-4.44500,0.00000,-0.00439,0.02782,-0.98808,2023,6,12,12,11,13,273
0.01750,2.78250,-4.58500,0.00000,-0.00451,0.02562,-0.98771,2023,6,12,12,11,13,284
0.01760,2.99250,-4.67250,0.00000,-0.00488,0.02708,-0.98783,2023,6,12,12,11,13,295
0.01770,3.11500,-4.58500,0.00000,-0.00464,0.02830,-0.98637,2023,6,12,12,11,13,306
0.01780,3.13250,-4.90000,0.00000,-0.00378,0.02562,-0.98747,2023,6,12,12,11,13,317
0.01790,2.85250,-4.41000,0.00000,-0.00488,0.02489,-0.98527,2023,6,12,12,11,13,328
0.01800,2.81750,-4.67250,0.00000,-0.00464,0.02599,-0.98747,2023,6,12,12,11,13,339
0.01810,2.90500,-4.67250,0.00000,-0.00586,0.02867,-0.98893,2023,6,12,12,11,13,351
0.01820,3.04500,-4.81250,0.00000,-0.00537,0.02696,-0.98820,2023,6,12,12,11,13,362
0.01830,2.73000,-4.46250,0.00000,-0.00451,0.02647,-0.98661,2023,6,12,12,11,13,373
0.01840,2.99250,-4.70750,0.00000,-0.00537,0.02550,-0.98808,2023,6,12,12,11,13,384
0.01850,2.81750,-4.69000,0.00000,-0.00403,0.02660,-0.98869,2023,6,12,12,11,13,395
0.01860,2.97500,-4.60250,0.00000,-0.00549,0.02721,-0.98674,2023,6,12,12,11,13,406
0.01870,2.80000,-4.55000,0.00000,-0.00500,0.02562,-0.98771,2023,6,12,12,11,13,417
0.01880,2.97500,-4.63750,0.00000,-0.00708,0.02708,-0.98979,2023,6,12,12,11,13,428
0.01890,2.85250,-4.58500,0.00000,-0.00329,0.02611,-0.98796,2023,6,12,12,11,13,439
0.01900,2.95750,-4.70750,0.00000,-0.00439,0.02696,-0.98759,2023,6,12,12,11,13,451
0.01910,2.85250,-4.44500,0.00000,-0.00415,0.02782,-0.98905,2023,6,12,12,11,13,462
0.01920,3.11500,-4.77750,0.00000,-0.00378,0.02635,-0.98979,2023,6,12,12,11,13,473
0.01930,2.74750,-4.60250,0.00000,-0.00610,0.02794,-0.98698,2023,6,12,12,11,13,484
0.01940,2.83500,-4.49750,0.00000,-0.00329,0.02611,-0.98796,2023,6,12,12,11,13,495
0.01950,3.06250,-4.72500,0.00000,-0.00573,0.02342,-0.99296,2023,6,12,12,11,13,506
0.01960,2.83500,-4.48000,0.00000,-0.00634,0.02721,-0.98722,2023,6,12,12,11,13,517
0.01970,2.88750,-4.55000,0.00000,-0.00549,0.02830,-0.98869,2023,6,12,12,11,13,528
0.01980,2.99250,-4.49750,0.00000,-0.00573,0.02635,-0.98600,2023,6,12,12,11,13,539
0.01990,2.90500,-4.65500,0.00000,-0.00610,0.02489,-0.98783,2023,6,12,12,11,13,551
0.02000,2.78250,-4.63750,0.00000,-0.00378,0.02538,-0.98735,2023,6,12,12,11,13,562
0.02010,2.94000,-4.53250,0.00000,-0.00488,0.02611,-0.98783,2023,6,12,12,11,13,573
0.02020,2.95750,-4.56750,0.00000,-0.00427,0.02489,-0.98808,2023,6,12,12,11,13,584
0.02030,2.99250,-4.63750,0.00000,-0.00647,0.02562,-0.98710,2023,6,12,12,11,13,595
0.02040,2.88750,-4.86500,0.00000,-0.00390,0.02769,-0.98552,2023,6,12,12,11,13,606
0.02050,2.87000,-4.63750,0.00000,-0.00439,0.02611,-0.98588,2023,6,12,12,11,13,617
0.02060,2.88750,-4.39250,0.00000,-0.00500,0.02562,-0.98698,2023,6,12,12,11,13,628
0.02070,2.88750,-4.51500,0.00000,-0.00525,0.02489,-0.98881,2023,6,12,12,11,13,639
0.02080,2.94000,-4.67250,0.00000,-0.00451,0.02818,-0.98869,2023,6,12,12,11,13,651
0.02090,2.81750,-4.70750,0.00000,-0.00403,0.02721,-0.98552,2023,6,12,12,11,13,662
0.02100,2.94000,-4.62000,0.00000,-0.00464,0.02660,-0.98832,2023,6,12,12,11,13,673
0.02110,2.95750,-4.63750,0.00000,-0.00464,0.02733,-0.98674,2023,6,12,12,11,13,684
0.02120,3.08000,-4.77750,0.00000,-0.00354,0.02672,-0.98417,2023,6,12,12,11,13,695
0.02130,2.87000,-4.65500,0.00000,-0.00647,0.02904,-0.98747,2023,6,12,12,11,13,706
0.02140,2.90500,-4.70750,0.00000,-0.00586,0.02721,-0.98857,2023,6,12,12,11,13,717
0.02150,2.81750,-4.55000,0.00000,-0.00561,0.02611,-0.98722,2023,6,12,12,11,13,728
0.02160,2.73000,-4.53250,0.00000,-0.00537,0.02342,-0.98735,2023,6,12,12,11,13,739
0.02170,2.88750,-4.53250,0.00000,-0.00537,0.02769,-0.98503,2023,6,12,12,11,13,751
0.02180,2.99250,-4.77750,0.00000,-0.00598,0.02513,-0.98820,2023,6,12,12,11,13,762
0.02190,2.97500,-4.48000,0.00000,-0.00720,0.02513,-0.98478,2023,6,12,12,11,13,773
0.02200,2.88750,-4.60250,0.00000,-0.00659,0.02550,-0.98832,2023,6,12,12,11,13,784
0.02210,3.13250,-4.49750,0.00000,-0.00488,0.02757,-0.98637,2023,6,12,12,11,13,795
0.02220,2.95750,-4.49750,0.00000,-0.00525,0.02416,-0.98771,2023,6,12,12,11,13,806
0.02230,3.01000,-4.83000,0.00000,-0.00488,0.02696,-0.98539,2023,6,12,12,11,13,817
0.02240,2.88750,-4.83000,0.00000,-0.00512,0.02879,-0.98881,2023,6,12,12,11,13,828
0.02250,2.88750,-4.65500,0.00000,-0.00512,0.02489,-0.98881,2023,6,12,12,11,13,839
0.02260,2.99250,-4.44500,0.00000,-0.00512,0.02599,-0.98747,2023,6,12,12,11,13,851
0.02270,2.97500,-4.49750,0.00000,-0.00586,0.02745,-0.98844,2023,6,12,12,11,13,862
0.02280,2.83500,-4.86500,0.00000,-0.00317,0.02550,-0.98649,2023,6,12,12,11,13,873
0.02290,2.87000,-4.63750,0.00000,-0.00525,0.02574,-0.98832,2023,6,12,12,11,13,884
0.02300,2.87000,-4.69000,0.00000,-0.00512,0.02599,-0.98796,2023,6,12,12,11,13,895
0.02310,2.83500,-4.55000,0.00000,-0.00439,0.02733,-0.98527,2023,6,12,12,11,13,906
0.02320,2.94000,-4.48000,0.00000,-0.00537,0.02477,-0.98930,2023,6,12,12,11,13,917
0.02330,2.85250,-4.58500,0.00000,-0.00317,0.02586,-0.98857,2023,6,12,12,11,13,928
0.02340,2.69500,-4.42750,0.00000,-0.00512,0.02538,-0.98966,2023,6,12,12,11,13,939
0.02350,2.94000,-4.70750,0.00000,-0.00451,0.02904,-0.98747,2023,6,12,12,11,13,951
0.02360,2.66000,-4.41000,0.00000,-0.00488,0.02782,-0.98661,2023,6,12,12,11,13,962
0.02370,2.97500,-4.63750,0.00000,-0.00390,0.02818,-0.98686,2023,6,12,12,11,14,3
0.02380,3.01000,-4.83000,0.00000,-0.00476,0.02696,-0.98759,2023,6,12,12,11,14,14
0.02390,2.88750,-4.88250,0.00000,-0.00427,0.02830,-0.98661,2023,6,12,12,11,14,25
0.02400,2.90500,-4.58500,0.00000,-0.00403,0.02733,-0.98747,2023,6,12,12,11,14,36
0.02410,3.01000,-4.44500,0.00000,-0.00439,0.02672,-0.98539,2023,6,12,12,11,14,47
0.02420,2.97500,-4.60250,0.00000,-0.00476,0.02513,-0.98918,2023,6,12,12,11,14,58
0.02430,2.95750,-4.81250,0.00000,-0.00390,0.02660,-0.98918,2023,6,12,12,11,14,69
0.02440,2.66000,-4.48000,0.00000,-0.00549,0.02623,-0.98625,2023,6,12,12,11,14,81
0.02450,2.90500,-4.51500,0.00000,-0.00317,0.02538,-0.98869,2023,6,12,12,11,14,92
0.02460,2.87000,-4.62000,0.00000,-0.00537,0.02586,-0.98454,2023,6,12,12,11,14,103
0.02470,2.81750,-4.56750,0.00000,-0.00525,0.02769,-0.98747,2023,6,12,12,11,14,114
0.02480,2.83500,-4.76000,0.00000,-0.00427,0.02733,-0.98979,2023,6,12,12,11,14,125
0.02490,3.09750,-4.60250,0.00000,-0.00549,0.02745,-0.98661,2023,6,12,12,11,14,136
0.02500,2.94000,-4.56750,0.00000,-0.00476,0.02635,-0.98625,2023,6,12,12,11,14,147
0.02510,2.71250,-4.58500,0.00000,-0.00476,0.02525,-0.98954,2023,6,12,12,11,14,158
0.02520,2.81750,-4.53250,0.00000,-0.00610,0.02733,-0.98576,2023,6,12,12,11,14,169
0.02530,2.90500,-4.55000,0.00000,-0.00403,0.02733,-0.98820,2023,6,12,12,11,14,181
0.02540,2.97500,-4.58500,0.00000,-0.00451,0.02745,-0.98576,2023,6,12,12,11,14,192
0.02550,2.85250,-4.69000,0.00000,-0.00622,0.02745,-0.98722,2023,6,12,12,11,14,203
0.02560,3.11500,-4.58500,0.00000,-0.00415,0.02660,-0.98649,2023,6,12,12,11,14,214
0.02570,3.08000,-4.62000,0.00000,-0.00622,0.02464,-0.99076,2023,6,12,12,11,14,225
0.02580,2.94000,-4.58500,0.00000,-0.00439,0.02574,-0.98808,2023,6,12,12,11,14,236
0.02590,2.85250,-4.44500,0.00000,-0.00403,0.02708,-0.98478,2023,6,12,12,11,14,247
0.02600,2.97500,-4.51500,0.00000,-0.00488,0.02464,-0.98515,2023,6,12,12,11,14,258
0.02610,2.97500,-4.62000,0.00000,-0.00415,0.02757,-0.98722,2023,6,12,12,11,14,269
0.02620,3.08000,-4.42750,0.00000,-0.00256,0.02428,-0.98637,2023,6,12,12,11,14,281
0.02630,3.02750,-4.79500,0.00000,-0.00512,0.02525,-0.98930,2023,6,12,12,11,14,292
0.02640,2.99250,-4.37500,0.00000,-0.00500,0.02782,-0.98564,2023,6,12,12,11,14,303
0.02650,2.87000,-4.74250,0.00000,-0.00329,0.02477,-0.98710,2023,6,12,12,11,14,314
0.02660,3.09750,-4.70750,0.00000,-0.00512,0.02696,-0.98918,2023,6,12,12,11,14,325
0.02670,3.04500,-4.62000,0.00000,-0.00427,0.02647,-0.98356,2023,6,12,12,11,14,336
0.02680,2.88750,-4.49750,0.00000,-0.00488,0.02696,-0.98637,2023,6,12,12,11,14,347
0.02690,2.95750,-4.65500,0.00000,-0.00390,0.02696,-0.98588,2023,6,12,12,11,14,358
0.02700,2.74750,-4.63750,0.00000,-0.00512,0.02574,-0.98600,2023,6,12,12,11,14,369
0.02710,3.16750,-4.70750,0.00000,-0.00476,0.02501,-0.98539,2023,6,12,12,11,14,381
0.02720,2.90500,-4.58500,0.00000,-0.00476,0.02708,-0.98600,2023,6,12,12,11,14,392
0.02730,2.90500,-4.67250,0.00000,-0.00415,0.02672,-0.98820,2023,6,12,12,11,14,403
0.02740,2.90500,-4.16500,0.00000,-0.00573,0.02708,-0.98613,2023,6,12,12,11,14,414
0.02750,2.85250,-4.58500,0.00000,-0.00573,0.02391,-0.98747,2023,6,12,12,11,14,425
0.02760,2.78250,-4.67250,0.00000,-0.00549,0.02647,-0.98637,2023,6,12,12,11,14,436
0.02770,2.90500,-4.58500,0.00000,-0.00549,0.02757,-0.98234,2023,6,12,12,11,14,447
0.02780,2.92250,-4.51500,0.00000,-0.00488,0.02635,-0.98966,2023,6,12,12,11,14,458
0.02790,2.95750,-4.46250,0.00000,-0.00439,0.02489,-0.98808,2023,6,12,12,11,14,469
0.02800,2.74750,-4.60250,0.00000,-0.00525,0.02440,-0.98844,2023,6,12,12,11,14,481
0.02810,3.06250,-4.48000,0.00000,-0.00586,0.02452,-0.98808,2023,6,12,12,11,14,492
0.02820,2.88750,-4.48000,0.00000,-0.00561,0.02306,-0.98783,2023,6,12,12,11,14,503
0.02830,2.76500,-4.56750,0.00000,-0.00451,0.02940,-0.98613,2023,6,12,12,11,14,514
0.02840,2.90500,-4.60250,0.00000,-0.00537,0.02440,-0.98783,2023,6,12,12,11,14,525
0.02850,3.11500,-4.67250,0.00000,-0.00415,0.02843,-0.98893,2023,6,12,12,11,14,536
0.02860,2.95750,-4.65500,0.00000,-0.00537,0.02586,-0.99101,2023,6,12,12,11,14,547
0.02870,3.02750,-4.84750,0.00000,-0.00634,0.02647,-0.99015,2023,6,12,12,11,14,558
0.02880,2.95750,-4.83000,0.00000,-0.00390,0.02672,-0.98600,2023,6,12,12,11,14,569
0.02890,3.08000,-4.69000,0.00000,-0.00537,0.02660,-0.98783,2023,6,12,12,11,14,581
0.02900,2.73000,-4.67250,0.00000,-0.00500,0.02599,-0.98747,2023,6,12,12,11,14,592
0.02910,2.97500,-4.74250,0.00000,-0.00488,0.02757,-0.98686,2023,6,12,12,11,14,603
0.02920,2.80000,-4.41000,0.00000,-0.00403,0.02843,-0.98515,2023,6,12,12,11,14,614
0.02930,2.85250,-4.41000,0.00000,-0.00488,0.02660,-0.98674,2023,6,12,12,11,14,625
0.02940,2.81750,-4.70750,0.00000,-0.00525,0.02525,-0.98637,2023,6,12,12,11,14,636
0.02950,2.92250,-4.58500,0.00000,-0.00464,0.02525,-0.98832,2023,6,12,12,11,14,647
0.02960,2.99250,-4.63750,0.00000,-0.00610,0.02599,-0.98930,2023,6,12,12,11,14,658
0.02970,3.08000,-4.60250,0.00000,-0.00549,0.02696,-0.98857,2023,6,12,12,11,14,669
0.02980,2.97500,-4.56750,0.00000,-0.00610,0.02489,-0.99027,2023,6,12,12,11,14,681
0.02990,2.83500,-4.55000,0.00000,-0.00537,0.02696,-0.98674,2023,6,12,12,11,14,692
0.03000,2.83500,-4.77750,0.00000,-0.00378,0.02867,-0.98686,2023,6,12,12,11,14,703
0.03010,2.92250,-4.55000,0.00000,-0.00439,0.02550,-0.98832,2023,6,12,12,11,14,714
0.03020,2.90500,-4.65500,0.00000,-0.00403,0.02586,-0.98686,2023,6,12,12,11,14,725
0.03030,2.94000,-4.63750,0.00000,-0.00488,0.02696,-0.98625,2023,6,12,12,11,14,736
0.03040,2.97500,-4.74250,0.00000,-0.00451,0.02782,-0.98698,2023,6,12,12,11,14,747
0.03050,2.92250,-4.55000,0.00000,-0.00647,0.02562,-0.98637,2023,6,12,12,11,14,758
0.03060,3.02750,-4.76000,0.00000,-0.00512,0.02599,-0.99040,2023,6,12,12,11,14,769
0.03070,2.90500,-4.48000,0.00000,-0.00488,0.02452,-0.98735,2023,6,12,12,11,14,781
0.03080,2.99250,-4.60250,0.00000,-0.00329,0.02733,-0.98722,2023,6,12,12,11,14,792
0.03090,2.97500,-4.65500,0.00000,-0.00512,0.02721,-0.98783,2023,6,12,12,11,14,803
0.03100,2.87000,-4.30500,0.00000,-0.00586,0.02660,-0.98710,2023,6,12,12,11,14,814
0.03110,2.90500,-4.55000,0.00000,-0.00488,0.02599,-0.98515,2023,6,12,12,11,14,825
0.03120,2.90500,-4.51500,0.00000,-0.00500,0.02647,-0.98698,2023,6,12,12,11,14,836
0.03130,3.06250,-4.62000,0.00000,-0.00317,0.02623,-0.98832,2023,6,12,12,11,14,847
0.03140,3.06250,-4.56750,0.00000,-0.00354,0.02611,-0.98930,2023,6,12,12,11,14,858
0.03150,2.78250,-4.63750,0.00000,-0.00476,0.02696,-0.98808,2023,6,12,12,11,14,869
0.03160,2.76500,-4.65500,0.00000,-0.00525,0.02428,-0.98735,2023,6,12,12,11,14,881
0.03170,2.73000,-4.62000,0.00000,-0.00561,0.02525,-0.98881,2023,6,12,12,11,14,892
0.03180,2.78250,-4.30500,0.00000,-0.00500,0.02672,-0.98820,2023,6,12,12,11,14,903
0.03190,2.80000,-4.34000,0.00000,-0.00378,0.02647,-0.98722,2023,6,12,12,11,14,914
0.03200,3.16750,-4.56750,0.00000,-0.00427,0.02684,-0.98625,2023,6,12,12,11,14,925
0.03210,2.95750,-4.55000,0.00000,-0.00561,0.02660,-0.98625,2023,6,12,12,11,14,936
0.03220,2.94000,-4.62000,0.00000,-0.00439,0.02574,-0.98686,2023,6,12,12,11,14,947
0.03230,2.92250,-4.41000,0.00000,-0.00317,0.02635,-0.98625,2023,6,12,12,11,14,958
0.03240,2.83500,-4.46250,0.00000,-0.00439,0.02294,-0.98954,2023,6,12,12,11,14,969
0.03250,2.69500,-4.48000,0.00000,-0.00403,0.02806,-0.98747,2023,6,12,12,11,15,1
0.03260,2.81750,-4.58500,0.00000,-0.00476,0.02611,-0.98759,2023,6,12,12,11,15,12
0.03270,2.92250,-4.62000,0.00000,-0.00549,0.02586,-0.98722,2023,6,12,12,11,15,23
0.03280,2.95750,-4.44500,0.00000,-0.00305,0.02721,-0.98527,2023,6,12,12,11,15,34
0.03290,2.92250,-4.69000,0.00000,-0.00525,0.02660,-0.98503,2023,6,12,12,11,15,45
0.03300,3.02750,-4.58500,0.00000,-0.00537,0.02464,-0.98674,2023,6,12,12,11,15,56
0.03310,3.06250,-4.74250,0.00000,-0.00390,0.02611,-0.98576,2023,6,12,12,11,15,67
0.03320,3.06250,-4.63750,0.00000,-0.00549,0.02440,-0.98539,2023,6,12,12,11,15,78
0.03330,2.99250,-4.55000,0.00000,-0.00537,0.02599,-0.98844,2023,6,12,12,11,15,89
0.03340,3.04500,-4.51500,0.00000,-0.00464,0.02599,-0.98930,2023,6,12,12,11,15,101
0.03350,2.97500,-4.39250,0.00000,-0.00390,0.02538,-0.98783,2023,6,12,12,11,15,112
0.03360,2.88750,-4.49750,0.00000,-0.00573,0.02538,-0.98747,2023,6,12,12,11,15,123
0.03370,3.15000,-4.84750,0.00000,-0.00512,0.02599,-0.98759,2023,6,12,12,11,15,134
0.03380,2.83500,-4.65500,0.00000,-0.00366,0.02513,-0.98442,2023,6,12,12,11,15,145
0.03390,3.06250,-4.74250,0.00000,-0.00378,0.02574,-0.98857,2023,6,12,12,11,15,156
0.03400,2.97500,-4.69000,0.00000,-0.00439,0.02708,-0.98722,2023,6,12,12,11,15,167
0.03410,2.92250,-4.51500,0.00000,-0.00488,0.02769,-0.98735,2023,6,12,12,11,15,178
0.03420,2.90500,-4.53250,0.00000,-0.00586,0.02550,-0.98820,2023,6,12,12,11,15,189
0.03430,2.99250,-4.77750,0.00000,-0.00476,0.02647,-0.98893,2023,6,12,12,11,15,201
0.03440,2.90500,-4.70750,0.00000,-0.00427,0.02501,-0.98661,2023,6,12,12,11,15,212
0.03450,2.69500,-4.49750,0.00000,-0.00366,0.02672,-0.98979,2023,6,12,12,11,15,223
0.03460,2.90500,-4.48000,0.00000,-0.00415,0.02806,-0.98869,2023,6,12,12,11,15,234
0.03470,2.95750,-4.58500,0.00000,-0.00647,0.02867,-0.98905,2023,6,12,12,11,15,245
0.03480,2.80000,-4.37500,0.00000,-0.00378,0.02757,-0.98649,2023,6,12,12,11,15,256
0.03490,3.01000,-4.53250,0.00000,-0.00586,0.02525,-0.99125,2023,6,12,12,11,15,267
0.03500,2.88750,-4.53250,0.00000,-0.00476,0.02635,-0.98503,2023,6,12,12,11,15,278
0.03510,2.80000,-4.58500,0.00000,-0.00512,0.02684,-0.98735,2023,6,12,12,11,15,289
0.03520,2.99250,-4.53250,0.00000,-0.00561,0.02635,-0.98991,2023,6,12,12,11,15,301
0.03530,2.80000,-4.65500,0.00000,-0.00439,0.02635,-0.99296,2023,6,12,12,11,15,312
0.03540,2.76500,-4.39250,0.00000,-0.00488,0.02501,-0.98979,2023,6,12,12,11,15,323
0.03550,3.02750,-4.63750,0.00000,-0.00305,0.02586,-0.98674,2023,6,12,12,11,15,334
0.03560,3.08000,-4.62000,0.00000,-0.00537,0.02550,-0.98771,2023,6,12,12,11,15,345
0.03570,2.92250,-4.69000,0.00000,-0.00427,0.02599,-0.98552,2023,6,12,12,11,15,356
0.03580,2.94000,-4.42750,0.00000,-0.00427,0.02733,-0.98905,2023,6,12,12,11,15,367
0.03590,2.78250,-4.49750,0.00000,-0.00525,0.02452,-0.98722,2023,6,12,12,11,15,378
0.03600,2.80000,-4.60250,0.00000,-0.00427,0.02623,-0.98808,2023,6,12,12,11,15,389
0.03610,2.78250,-4.60250,0.00000,-0.00525,0.02647,-0.98869,2023,6,12,12,11,15,401
0.03620,3.13250,-4.77750,0.00000,-0.00476,0.02757,-0.98942,2023,6,12,12,11,15,412
0.03630,2.88750,-4.63750,0.00000,-0.00464,0.02721,-0.98576,2023,6,12,12,11,15,423
0.03640,2.92250,-4.67250,0.00000,-0.00476,0.02733,-0.98625,2023,6,12,12,11,15,434
0.03650,2.81750,-4.65500,0.00000,-0.00342,0.02818,-0.98503,2023,6,12,12,11,15,445
0.03660,2.99250,-4.72500,0.00000,-0.00415,0.02672,-0.98942,2023,6,12,12,11,15,456
0.03670,3.06250,-4.72500,0.00000,-0.00488,0.02647,-0.98722,2023,6,12,12,11,15,467
0.03680,3.01000,-4.62000,0.00000,-0.00390,0.02757,-0.98832,2023,6,12,12,11,15,478
0.03690,2.71250,-4.49750,0.00000,-0.00451,0.02794,-0.98613,2023,6,12,12,11,15,489
0.03700,2.94000,-4.79500,0.00000,-0.00464,0.02586,-0.98796,2023,6,12,12,11,15,501
0.03710,2.95750,-4.48000,0.00000,-0.00427,0.02599,-0.98893,2023,6,12,12,11,15,512
0.03720,2.97500,-4.55000,0.00000,-0.00525,0.02660,-0.98942,2023,6,12,12,11,15,523
0.03730,3.04500,-4.49750,0.00000,-0.00488,0.02513,-0.98808,2023,6,12,12,11,15,534
0.03740,2.81750,-4.51500,0.00000,-0.00598,0.02489,-0.98905,2023,6,12,12,11,15,545
0.03750,3.06250,-4.56750,0.00000,-0.00464,0.02733,-0.98796,2023,6,12,12,11,15,556
0.03760,2.81750,-4.41000,0.00000,-0.00488,0.02721,-0.98918,2023,6,12,12,11,15,567
0.03770,2.90500,-4.62000,0.00000,-0.00634,0.02489,-0.98613,2023,6,12,12,11,15,578
0.03780,2.97500,-4.55000,0.00000,-0.00525,0.02635,-0.98759,2023,6,12,12,11,15,589
0.03790,2.85250,-4.69000,0.00000,-0.00500,0.02916,-0.98783,2023,6,12,12,11,15,601
0.03800,2.85250,-4.48000,0.00000,-0.00464,0.02513,-0.98722,2023,6,12,12,11,15,612
0.03810,2.90500,-4.32250,0.00000,-0.00549,0.02599,-0.98759,2023,6,12,12,11,15,623
0.03820,2.97500,-4.76000,0.00000,-0.00378,0.02635,-0.98747,2023,6,12,12,11,15,634
0.03830,2.97500,-4.81250,0.00000,-0.00500,0.02599,-0.98979,2023,6,12,12,11,15,645
0.03840,2.73000,-4.65500,0.00000,-0.00549,0.02647,-0.98783,2023,6,12,12,11,15,656
0.03850,2.81750,-4.63750,0.00000,-0.00476,0.02538,-0.98552,2023,6,12,12,11,15,667
0.03860,2.85250,-4.41000,0.00000,-0.00439,0.02843,-0.98478,2023,6,12,12,11,15,678
0.03870,2.99250,-4.56750,0.00000,-0.00500,0.02696,-0.98930,2023,6,12,12,11,15,689
0.03880,2.90500,-4.49750,0.00000,-0.00732,0.02586,-0.99174,2023,6,12,12,11,15,701
0.03890,2.90500,-4.67250,0.00000,-0.00500,0.02623,-0.98881,2023,6,12,12,11,15,712
0.03900,3.06250,-4.56750,0.00000,-0.00305,0.02696,-0.98674,2023,6,12,12,11,15,723
0.03910,2.88750,-4.39250,0.00000,-0.00549,0.02635,-0.98783,2023,6,12,12,11,15,734
0.03920,3.04500,-4.39250,0.00000,-0.00500,0.02794,-0.98637,2023,6,12,12,11,15,745
0.03930,2.90500,-4.62000,0.00000,-0.00488,0.02806,-0.98576,2023,6,12,12,11,15,756
0.03940,2.78250,-4.69000,0.00000,-0.00512,0.02733,-0.98637,2023,6,12,12,11,15,767
0.03950,3.04500,-4.69000,0.00000,-0.00439,0.02611,-0.98710,2023,6,12,12,11,15,778
0.03960,2.85250,-4.76000,0.00000,-0.00415,0.02489,-0.98820,2023,6,12,12,11,15,789
0.03970,3.06250,-4.56750,0.00000,-0.00500,0.02745,-0.98820,2023,6,12,12,11,15,801
0.03980,2.94000,-4.67250,0.00000,-0.00610,0.02574,-0.98942,2023,6,12,12,11,15,812
0.03990,2.95750,-4.58500,0.00000,-0.00549,0.02660,-0.98600,2023,6,12,12,11,15,823
0.04000,2.81750,-4.48000,0.00000,-0.00354,0.02647,-0.98796,2023,6,12,12,11,15,834
0.04010,2.90500,-4.55000,0.00000,-0.00537,0.02757,-0.98942,2023,6,12,12,11,15,845
0.04020,2.99250,-4.44500,0.00000,-0.00366,0.02403,-0.98881,2023,6,12,12,11,15,856
0.04030,2.97500,-4.81250,0.00000,-0.00464,0.02757,-0.98796,2023,6,12,12,11,15,867
0.04040,2.87000,-4.65500,0.00000,-0.00500,0.02660,-0.98869,2023,6,12,12,11,15,878
0.04050,2.90500,-4.69000,0.00000,-0.00573,0.02391,-0.98905,2023,6,12,12,11,15,889
0.04060,2.85250,-4.62000,0.00000,-0.00500,0.02684,-0.98613,2023,6,12,12,11,15,901
0.04070,2.78250,-4.74250,0.00000,-0.00634,0.02647,-0.98515,2023,6,12,12,11,15,912
0.04080,2.88750,-4.62000,0.00000,-0.00512,0.02574,-0.98771,2023,6,12,12,11,15,923
0.04090,2.76500,-4.48000,0.00000,-0.00451,0.02757,-0.99003,2023,6,12,12,11,15,934
0.04100,2.97500,-4.58500,0.00000,-0.00354,0.02538,-0.98686,2023,6,12,12,11,15,945
0.04110,2.95750,-4.60250,0.00000,-0.00549,0.02562,-0.98796,2023,6,12,12,11,15,956
0.04120,2.97500,-4.56750,0.00000,-0.00525,0.02684,-0.99040,2023,6,12,12,11,16,7
0.04130,2.99250,-4.58500,0.00000,-0.00512,0.02599,-0.98893,2023,6,12,12,11,16,18
0.04140,2.92250,-4.69000,0.00000,-0.00525,0.02721,-0.98796,2023,6,12,12,11,16,29
0.04150,2.95750,-4.51500,0.00000,-0.00476,0.02538,-0.98698,2023,6,12,12,11,16,41
0.04160,2.90500,-4.70750,0.00000,-0.00476,0.02635,-0.98747,2023,6,12,12,11,16,52
0.04170,2.90500,-4.77750,0.00000,-0.00366,0.02696,-0.98832,2023,6,12,12,11,16,63
0.04180,2.92250,-4.58500,0.00000,-0.00598,0.02599,-0.98637,2023,6,12,12,11,16,74
0.04190,3.02750,-4.53250,0.00000,-0.00464,0.02721,-0.98649,2023,6,12,12,11,16,85
0.04200,3.04500,-4.65500,0.00000,-0.00451,0.02660,-0.98930,2023,6,12,12,11,16,96
0.04210,2.85250,-4.70750,0.00000,-0.00451,0.02623,-0.98771,2023,6,12,12,11,16,107
0.04220,2.88750,-4.67250,0.00000,-0.00500,0.02586,-0.98735,2023,6,12,12,11,16,118
0.04230,2.87000,-4.48000,0.00000,-0.00427,0.02721,-0.98686,2023,6,12,12,11,16,129
0.04240,2.81750,-4.62000,0.00000,-0.00476,0.02830,-0.98820,2023,6,12,12,11,16,141
0.04250,3.02750,-4.39250,0.00000,-0.00549,0.02611,-0.98710,2023,6,12,12,11,16,152
0.04260,2.81750,-4.70750,0.00000,-0.00476,0.02745,-0.98735,2023,6,12,12,11,16,163
0.04270,2.66000,-4.42750,0.00000,-0.00329,0.02477,-0.98625,2023,6,12,12,11,16,174
0.04280,2.90500,-4.70750,0.00000,-0.00488,0.02586,-0.98698,2023,6,12,12,11,16,185
0.04290,3.06250,-4.67250,0.00000,-0.00500,0.02684,-0.98698,2023,6,12,12,11,16,196
0.04300,2.87000,-4.55000,0.00000,-0.00427,0.02647,-0.98674,2023,6,12,12,11,16,207
0.04310,2.94000,-4.67250,0.00000,-0.00573,0.02525,-0.98759,2023,6,12,12,11,16,218
0.04320,2.92250,-4.46250,0.00000,-0.00512,0.02635,-0.98759,2023,6,12,12,11,16,229
0.04330,2.99250,-4.67250,0.00000,-0.00476,0.02745,-0.99015,2023,6,12,12,11,16,241
0.04340,2.97500,-4.58500,0.00000,-0.00476,0.02757,-0.99064,2023,6,12,12,11,16,252
0.04350,3.04500,-4.60250,0.00000,-0.00415,0.02513,-0.98796,2023,6,12,12,11,16,263
0.04360,2.85250,-4.58500,0.00000,-0.00525,0.02525,-0.98722,2023,6,12,12,11,16,274
0.04370,2.78250,-4.34000,0.00000,-0.00427,0.02672,-0.98783,2023,6,12,12,11,16,285
0.04380,2.94000,-4.44500,0.00000,-0.00537,0.02647,-0.98820,2023,6,12,12,11,16,296
0.04390,2.92250,-4.63750,0.00000,-0.00305,0.02599,-0.98637,2023,6,12,12,11,16,307
0.04400,2.81750,-4.83000,0.00000,-0.00634,0.02489,-0.99015,2023,6,12,12,11,16,318
0.04410,2.76500,-4.62000,0.00000,-0.00769,0.02721,-0.98649,2023,6,12,12,11,16,329
0.04420,2.85250,-4.62000,0.00000,-0.00488,0.02562,-0.98747,2023,6,12,12,11,16,341
0.04430,2.74750,-4.55000,0.00000,-0.00561,0.02721,-0.98857,2023,6,12,12,11,16,352
0.04440,2.99250,-4.77750,0.00000,-0.00476,0.02574,-0.98442,2023,6,12,12,11,16,363
0.04450,3.06250,-4.56750,0.00000,-0.00488,0.02867,-0.98869,2023,6,12,12,11,16,374
0.04460,2.83500,-4.63750,0.00000,-0.00476,0.02757,-0.98844,2023,6,12,12,11,16,385
0.04470,2.99250,-4.48000,0.00000,-0.00573,0.02440,-0.98930,2023,6,12,12,11,16,396
0.04480,2.87000,-4.69000,0.00000,-0.00622,0.02440,-0.98808,2023,6,12,12,11,16,407
0.04490,2.99250,-4.44500,0.00000,-0.00573,0.02562,-0.98564,2023,6,12,12,11,16,418
0.04500,2.94000,-4.55000,0.00000,-0.00512,0.02562,-0.98796,2023,6,12,12,11,16,429
0.04510,3.01000,-4.63750,0.00000,-0.00537,0.02635,-0.98600,2023,6,12,12,11,16,441
0.04520,2.97500,-4.65500,0.00000,-0.00549,0.02416,-0.98966,2023,6,12,12,11,16,452
0.04530,2.87000,-4.70750,0.00000,-0.00512,0.02574,-0.99015,2023,6,12,12,11,16,463
0.04540,3.04500,-4.53250,0.00000,-0.00817,0.02586,-0.98796,2023,6,12,12,11,16,474
0.04550,2.80000,-4.55000,0.00000,-0.00573,0.02538,-0.98930,2023,6,12,12,11,16,485
0.04560,2.50250,-4.37500,0.00000,-0.00525,0.02708,-0.99040,2023,6,12,12,11,16,496
0.04570,2.92250,-4.51500,0.00000,-0.00525,0.02599,-0.98783,2023,6,12,12,11,16,507
0.04580,2.95750,-4.51500,0.00000,-0.00512,0.02647,-0.98747,2023,6,12,12,11,16,518
0.04590,2.99250,-4.48000,0.00000,-0.00220,0.02745,-0.98820,2023,6,12,12,11,16,529
0.04600,2.88750,-4.56750,0.00000,-0.00537,0.02745,-0.99076,2023,6,12,12,11,16,541
0.04610,2.92250,-4.49750,0.00000,-0.00427,0.02757,-0.99003,2023,6,12,12,11,16,552
0.04620,2.83500,-4.39250,0.00000,-0.00525,0.02611,-0.98698,2023,6,12,12,11,16,563
0.04630,2.88750,-4.65500,0.00000,-0.00451,0.02696,-0.98588,2023,6,12,12,11,16,574
0.04640,2.92250,-4.81250,0.00000,-0.00561,0.02477,-0.98881,2023,6,12,12,11,16,585
0.04650,3.04500,-4.56750,0.00000,-0.00427,0.02635,-0.98979,2023,6,12,12,11,16,596
0.04660,2.99250,-4.86500,0.00000,-0.00390,0.02574,-0.98588,2023,6,12,12,11,16,607
0.04670,3.13250,-4.77750,0.00000,-0.00342,0.02794,-0.98783,2023,6,12,12,11,16,618
0.04680,3.15000,-4.65500,0.00000,-0.00561,0.02391,-0.98674,2023,6,12,12,11,16,629
0.04690,2.97500,-4.63750,0.00000,-0.00659,0.02574,-0.98796,2023,6,12,12,11,16,641
0.04700,3.08000,-4.58500,0.00000,-0.00512,0.02599,-0.99101,2023,6,12,12,11,16,652
0.04710,3.02750,-4.72500,0.00000,-0.00525,0.02525,-0.98796,2023,6,12,12,11,16,663
0.04720,2.94000,-4.51500,0.00000,-0.00525,0.02623,-0.98576,2023,6,12,12,11,16,674
0.04730,3.02750,-4.72500,0.00000,-0.00427,0.02647,-0.98796,2023,6,12,12,11,16,685
0.04740,2.81750,-4.60250,0.00000,-0.00537,0.02635,-0.98954,2023,6,12,12,11,16,696
0.04750,2.88750,-4.72500,0.00000,-0.00500,0.02794,-0.98735,2023,6,12,12,11,16,707
0.04760,2.85250,-4.48000,0.00000,-0.00561,0.02562,-0.98735,2023,6,12,12,11,16,718
0.04770,2.99250,-4.56750,0.00000,-0.00427,0.02635,-0.98771,2023,6,12,12,11,16,729
0.04780,2.85250,-4.41000,0.00000,-0.00403,0.02660,-0.98759,2023,6,12,12,11,16,741
0.04790,2.92250,-4.62000,0.00000,-0.00354,0.02623,-0.98844,2023,6,12,12,11,16,752
0.04800,2.85250,-4.49750,0.00000,-0.00586,0.02599,-0.98881,2023,6,12,12,11,16,763
0.04810,3.04500,-4.60250,0.00000,-0.00525,0.02501,-0.98539,2023,6,12,12,11,16,774
0.04820,2.88750,-4.49750,0.00000,-0.00464,0.02635,-0.98564,2023,6,12,12,11,16,785
0.04830,2.87000,-4.51500,0.00000,-0.00500,0.02708,-0.98735,2023,6,12,12,11,16,796
0.04840,2.88750,-4.63750,0.00000,-0.00500,0.02635,-0.98661,2023,6,12,12,11,16,807
0.04850,2.87000,-4.76000,0.00000,-0.00488,0.02794,-0.98905,2023,6,12,12,11,16,818
0.04860,2.88750,-4.74250,0.00000,-0.00439,0.02525,-0.98722,2023,6,12,12,11,16,829
0.04870,3.20250,-4.65500,0.00000,-0.00171,0.02599,-0.98454,2023,6,12,12,11,16,841
0.04880,2.74750,-4.53250,0.00000,-0.00512,0.02745,-0.98539,2023,6,12,12,11,16,852
0.04890,2.87000,-4.58500,0.00000,-0.00488,0.02818,-0.98857,2023,6,12,12,11,16,863
0.04900,2.73000,-4.51500,0.00000,-0.00451,0.02721,-0.99271,2023,6,12,12,11,16,874
0.04910,2.90500,-4.67250,0.00000,-0.00439,0.02696,-0.98710,2023,6,12,12,11,16,885
0.04920,3.01000,-4.63750,0.00000,-0.00488,0.02586,-0.98613,2023,6,12,12,11,16,896
0.04930,3.11500,-4.65500,0.00000,-0.00500,0.02403,-0.98918,2023,6,12,12,11,16,907
0.04940,2.85250,-4.53250,0.00000,-0.00537,0.02501,-0.98905,2023,6,12,12,11,16,918
0.04950,2.92250,-4.60250,0.00000,-0.00390,0.02562,-0.99113,2023,6,12,12,11,16,929
0.04960,2.83500,-4.67250,0.00000,-0.00634,0.02513,-0.98979,2023,6,12,12,11,16,941
0.04970,2.74750,-4.25250,0.00000,-0.00549,0.02794,-0.98771,2023,6,12,12,11,16,952
0.04980,2.76500,-4.48000,0.00000,-0.00476,0.02733,-0.98503,2023,6,12,12,11,16,963
0.04990,2.90500,-4.63750,0.00000,-0.00610,0.02696,-0.98747,2023,6,12,12,11,16,974
0.05000,2.80000,-4.63750,0.00000,-0.00476,0.02660,-0.98918,2023,6,12,12,11,17,5
0.05010,2.80000,-4.79500,0.00000,-0.00464,0.02708,-0.98637,2023,6,12,12,11,17,16
0.05020,2.97500,-4.63750,0.00000,-0.00549,0.02489,-0.98710,2023,6,12,12,11,17,27
0.05030,2.95750,-4.76000,0.00000,-0.00317,0.02611,-0.98625,2023,6,12,12,11,17,38
0.05040,2.76500,-4.60250,0.00000,-0.00390,0.02733,-0.98600,2023,6,12,12,11,17,49
0.05050,2.88750,-4.62000,0.00000,-0.00586,0.02538,-0.98735,2023,6,12,12,11,17,61
0.05060,2.85250,-4.65500,0.00000,-0.00561,0.02635,-0.98722,2023,6,12,12,11,17,72
0.05070,2.94000,-4.44500,0.00000,-0.00512,0.02574,-0.98832,2023,6,12,12,11,17,83
0.05080,2.99250,-4.48000,0.00000,-0.00561,0.02660,-0.98674,2023,6,12,12,11,17,94
0.05090,2.97500,-4.48000,0.00000,-0.00427,0.02684,-0.98881,2023,6,12,12,11,17,105
0.05100,2.71250,-4.60250,0.00000,-0.00683,0.02647,-0.98747,2023,6,12,12,11,17,116
0.05110,2.92250,-4.63750,0.00000,-0.00549,0.02733,-0.98771,2023,6,12,12,11,17,127
0.05120,3.06250,-4.35750,0.00000,-0.00634,0.02391,-0.98649,2023,6,12,12,11,17,138
0.05130,2.88750,-4.53250,0.00000,-0.00586,0.02477,-0.98881,2023,6,12,12,11,17,149
0.05140,2.92250,-4.53250,0.00000,-0.00415,0.02635,-0.98783,2023,6,12,12,11,17,161
0.05150,3.06250,-4.62000,0.00000,-0.00500,0.02672,-0.98747,2023,6,12,12,11,17,172
0.05160,2.85250,-4.81250,0.00000,-0.00525,0.02428,-0.98979,2023,6,12,12,11,17,183
0.05170,2.88750,-4.56750,0.00000,-0.00512,0.02586,-0.98637,2023,6,12,12,11,17,194
0.05180,2.94000,-4.42750,0.00000,-0.00476,0.02501,-0.98588,2023,6,12,12,11,17,205
0.05190,3.04500,-4.69000,0.00000,-0.00634,0.02501,-0.98613,2023,6,12,12,11,17,216
0.05200,2.97500,-4.60250,0.00000,-0.00427,0.02782,-0.98637,2023,6,12,12,11,17,227
0.05210,3.15000,-4.63750,0.00000,-0.00415,0.02721,-0.98832,2023,6,12,12,11,17,238
0.05220,2.85250,-4.62000,0.00000,-0.00183,0.02550,-0.98747,2023,6,12,12,11,17,249
0.05230,2.87000,-4.65500,0.00000,-0.00354,0.02794,-0.98686,2023,6,12,12,11,17,261
0.05240,2.78250,-4.56750,0.00000,-0.00561,0.02660,-0.98478,2023,6,12,12,11,17,272
0.05250,3.13250,-4.49750,0.00000,-0.00573,0.02684,-0.98722,2023,6,12,12,11,17,283
0.05260,2.92250,-4.67250,0.00000,-0.00586,0.02586,-0.98844,2023,6,12,12,11,17,294
0.05270,2.78250,-4.51500,0.00000,-0.00488,0.02696,-0.98600,2023,6,12,12,11,17,305
0.05280,3.08000,-4.65500,0.00000,-0.00708,0.02342,-0.98649,2023,6,12,12,11,17,316
0.05290,2.81750,-4.70750,0.00000,-0.00512,0.02721,-0.98771,2023,6,12,12,11,17,327
0.05300,2.78250,-4.67250,0.00000,-0.00476,0.02586,-0.98686,2023,6,12,12,11,17,338
0.05310,2.85250,-4.42750,0.00000,-0.00512,0.02696,-0.98857,2023,6,12,12,11,17,349
0.05320,2.95750,-4.76000,0.00000,-0.00464,0.02635,-0.98600,2023,6,12,12,11,17,361
0.05330,2.88750,-4.83000,0.00000,-0.00378,0.02733,-0.98857,2023,6,12,12,11,17,372
0.05340,2.97500,-4.67250,0.00000,-0.00378,0.02660,-0.99027,2023,6,12,12,11,17,383
0.05350,2.85250,-4.65500,0.00000,-0.00744,0.02403,-0.98844,2023,6,12,12,11,17,394
0.05360,2.94000,-4.58500,0.00000,-0.00488,0.02721,-0.98600,2023,6,12,12,11,17,405
0.05370,2.97500,-4.67250,0.00000,-0.00390,0.02684,-0.98881,2023,6,12,12,11,17,416
0.05380,2.92250,-4.62000,0.00000,-0.00476,0.02721,-0.98698,2023,6,12,12,11,17,427
0.05390,2.87000,-4.70750,0.00000,-0.00464,0.02818,-0.99088,2023,6,12,12,11,17,438
0.05400,2.90500,-4.67250,0.00000,-0.00561,0.02599,-0.98515,2023,6,12,12,11,17,449
0.05410,2.94000,-4.70750,0.00000,-0.00610,0.02623,-0.98613,2023,6,12,12,11,17,461
0.05420,2.99250,-4.60250,0.00000,-0.00525,0.02745,-0.98600,2023,6,12,12,11,17,472
0.05430,2.97500,-4.60250,0.00000,-0.00476,0.02611,-0.98710,2023,6,12,12,11,17,483
0.05440,2.87000,-4.67250,0.00000,-0.00537,0.02562,-0.98637,2023,6,12,12,11,17,494
0.05450,3.02750,-4.74250,0.00000,-0.00464,0.02574,-0.98954,2023,6,12,12,11,17,505
0.05460,2.85250,-4.46250,0.00000,-0.00598,0.02745,-0.98869,2023,6,12,12,11,17,516
0.05470,2.90500,-4.39250,0.00000,-0.00634,0.02562,-0.98747,2023,6,12,12,11,17,527
0.05480,2.80000,-4.51500,0.00000,-0.00390,0.02745,-0.98783,2023,6,12,12,11,17,538
0.05490,2.83500,-4.56750,0.00000,-0.00500,0.02721,-0.98735,2023,6,12,12,11,17,549
0.05500,2.67750,-4.60250,0.00000,-0.00512,0.02599,-0.98552,2023,6,12,12,11,17,561
0.05510,2.97500,-4.48000,0.00000,-0.00549,0.02355,-0.98417,2023,6,12,12,11,17,572
0.05520,2.94000,-4.62000,0.00000,-0.00488,0.02830,-0.98661,2023,6,12,12,11,17,583
0.05530,2.92250,-4.62000,0.00000,-0.00512,0.02708,-0.98674,2023,6,12,12,11,17,594
0.05540,2.87000,-4.63750,0.00000,-0.00378,0.02830,-0.98747,2023,6,12,12,11,17,605
0.05550,2.99250,-4.63750,0.00000,-0.00488,0.02574,-0.99101,2023,6,12,12,11,17,616
0.05560,2.88750,-4.60250,0.00000,-0.00537,0.02440,-0.98613,2023,6,12,12,11,17,627
0.05570,2.95750,-4.41000,0.00000,-0.00549,0.02611,-0.98576,2023,6,12,12,11,17,638
0.05580,3.01000,-4.62000,0.00000,-0.00476,0.02672,-0.98539,2023,6,12,12,11,17,649
0.05590,2.92250,-4.55000,0.00000,-0.00525,0.02672,-0.98832,2023,6,12,12,11,17,661
0.05600,2.88750,-4.65500,0.00000,-0.00549,0.02525,-0.98869,2023,6,12,12,11,17,672
0.05610,2.80000,-4.70750,0.00000,-0.00488,0.02574,-0.98771,2023,6,12,12,11,17,683
0.05620,2.78250,-4.44500,0.00000,-0.00549,0.02562,-0.98820,2023,6,12,12,11,17,694
0.05630,3.11500,-4.56750,0.00000,-0.00537,0.02623,-0.98649,2023,6,12,12,11,17,705
0.05640,2.90500,-4.53250,0.00000,-0.00476,0.02599,-0.98783,2023,6,12,12,11,17,716
0.05650,2.94000,-4.62000,0.00000,-0.00464,0.02562,-0.99040,2023,6,12,12,11,17,727
0.05660,2.78250,-4.77750,0.00000,-0.00464,0.02830,-0.98857,2023,6,12,12,11,17,738
0.05670,2.97500,-4.67250,0.00000,-0.00305,0.02660,-0.98735,2023,6,12,12,11,17,749
0.05680,2.92250,-4.67250,0.00000,-0.00549,0.02794,-0.98710,2023,6,12,12,11,17,761
0.05690,2.81750,-4.51500,0.00000,-0.00342,0.02623,-0.98637,2023,6,12,12,11,17,772
0.05700,3.01000,-4.62000,0.00000,-0.00451,0.02611,-0.98722,2023,6,12,12,11,17,783
0.05710,2.92250,-4.69000,0.00000,-0.00500,0.02647,-0.98832,2023,6,12,12,11,17,794
0.05720,2.81750,-4.34000,0.00000,-0.00305,0.02574,-0.98930,2023,6,12,12,11,17,805
0.05730,3.08000,-4.72500,0.00000,-0.00281,0.02623,-0.98600,2023,6,12,12,11,17,816
0.05740,2.88750,-4.67250,0.00000,-0.00549,0.02684,-0.98759,2023,6,12,12,11,17,827
0.05750,2.97500,-4.67250,0.00000,-0.00390,0.02684,-0.98796,2023,6,12,12,11,17,838
0.05760,3.08000,-4.60250,0.00000,-0.00525,0.02794,-0.98649,2023,6,12,12,11,17,849
0.05770,2.80000,-4.46250,0.00000,-0.00525,0.02611,-0.98491,2023,6,12,12,11,17,861
0.05780,2.95750,-4.70750,0.00000,-0.00586,0.02562,-0.98881,2023,6,12,12,11,17,872
0.05790,2.95750,-4.86500,0.00000,-0.00390,0.02696,-0.98600,2023,6,12,12,11,17,883
0.05800,2.92250,-4.62000,0.00000,-0.00403,0.02794,-0.98808,2023,6,12,12,11,17,894
0.05810,2.80000,-4.76000,0.00000,-0.00512,0.02623,-0.98918,2023,6,12,12,11,17,905
0.05820,2.94000,-4.53250,0.00000,-0.00439,0.02574,-0.98649,2023,6,12,12,11,17,916
0.05830,2.83500,-4.81250,0.00000,-0.00427,0.02684,-0.98759,2023,6,12,12,11,17,927
0.05840,3.01000,-4.67250,0.00000,-0.00500,0.02599,-0.99113,2023,6,12,12,11,17,938
0.05850,2.80000,-4.51500,0.00000,-0.00378,0.02696,-0.98747,2023,6,12,12,11,17,949
0.05860,2.90500,-4.51500,0.00000,-0.00537,0.02623,-0.98796,2023,6,12,12,11,17,961
0.05870,2.83500,-4.55000,0.00000,-0.00439,0.02501,-0.98869,2023,6,12,12,11,17,972
0.05880,3.01000,-4.69000,0.00000,-0.00366,0.02721,-0.98759,2023,6,12,12,11,18,3
0.05890,2.95750,-4.48000,0.00000,-0.00525,0.02525,-0.98661,2023,6,12,12,11,18,14
0.05900,2.73000,-4.46250,0.00000,-0.00549,0.02684,-0.98539,2023,6,12,12,11,18,25
0.05910,3.04500,-4.63750,0.00000,-0.00573,0.02599,-0.98796,2023,6,12,12,11,18,36
0.05920,2.87000,-4.60250,0.00000,-0.00378,0.02684,-0.98600,2023,6,12,12,11,18,47
0.05930,2.97500,-4.62000,0.00000,-0.00537,0.02647,-0.98600,2023,6,12,12,11,18,58
0.05940,2.92250,-4.67250,0.00000,-0.00512,0.02684,-0.98820,2023,6,12,12,11,18,69
0.05950,3.09750,-4.81250,0.00000,-0.00598,0.02452,-0.99052,2023,6,12,12,11,18,81
0.05960,2.90500,-4.67250,0.00000,-0.00500,0.02525,-0.98796,2023,6,12,12,11,18,92
0.05970,2.99250,-4.58500,0.00000,-0.00549,0.02721,-0.98588,2023,6,12,12,11,18,103
0.05980,2.71250,-4.67250,0.00000,-0.00525,0.02721,-0.98552,2023,6,12,12,11,18,114
0.05990,2.87000,-4.39250,0.00000,-0.00586,0.02611,-0.98991,2023,6,12,12,11,18,125
0.06000,3.04500,-4.48000,0.00000,-0.00390,0.02708,-0.98869,2023,6,12,12,11,18,136
0.06010,2.97500,-4.41000,0.00000,-0.00537,0.02696,-0.98747,2023,6,12,12,11,18,147
0.06020,2.87000,-4.55000,0.00000,-0.00476,0.02733,-0.98576,2023,6,12,12,11,18,158
0.06030,2.94000,-4.65500,0.00000,-0.00586,0.02550,-0.98661,2023,6,12,12,11,18,169
0.06040,2.76500,-4.62000,0.00000,-0.00561,0.02611,-0.98759,2023,6,12,12,11,18,181
0.06050,2.88750,-4.67250,0.00000,-0.00232,0.02367,-0.98893,2023,6,12,12,11,18,192
0.06060,2.73000,-4.51500,0.00000,-0.00488,0.02696,-0.98564,2023,6,12,12,11,18,203
0.06070,3.02750,-4.42750,0.00000,-0.00500,0.02501,-0.99015,2023,6,12,12,11,18,214
0.06080,2.90500,-4.55000,0.00000,-0.00451,0.02672,-0.98747,2023,6,12,12,11,18,225
0.06090,2.85250,-4.55000,0.00000,-0.00561,0.02769,-0.98820,2023,6,12,12,11,18,236
0.06100,2.97500,-4.67250,0.00000,-0.00439,0.02733,-0.98820,2023,6,12,12,11,18,247
0.06110,2.90500,-4.86500,0.00000,-0.00549,0.02794,-0.98832,2023,6,12,12,11,18,258
0.06120,2.80000,-4.44500,0.00000,-0.00683,0.02550,-0.98722,2023,6,12,12,11,18,269
0.06130,2.99250,-4.46250,0.00000,-0.00525,0.02647,-0.98966,2023,6,12,12,11,18,281
0.06140,2.85250,-4.70750,0.00000,-0.00427,0.02550,-0.98735,2023,6,12,12,11,18,292
0.06150,2.76500,-4.48000,0.00000,-0.00439,0.02696,-0.98869,2023,6,12,12,11,18,303
0.06160,2.90500,-4.60250,0.00000,-0.00500,0.02635,-0.98905,2023,6,12,12,11,18,314
0.06170,2.92250,-4.63750,0.00000,-0.00439,0.02635,-0.98564,2023,6,12,12,11,18,325
0.06180,2.85250,-4.60250,0.00000,-0.00561,0.02525,-0.98564,2023,6,12,12,11,18,336
0.06190,2.87000,-4.51500,0.00000,-0.00622,0.02696,-0.98820,2023,6,12,12,11,18,347
0.06200,2.97500,-4.65500,0.00000,-0.00476,0.02745,-0.98759,2023,6,12,12,11,18,358
0.06210,2.85250,-4.69000,0.00000,-0.00537,0.02489,-0.98539,2023,6,12,12,11,18,369
0.06220,2.92250,-4.67250,0.00000,-0.00598,0.02611,-0.98881,2023,6,12,12,11,18,381
0.06230,3.09750,-4.79500,0.00000,-0.00561,0.02501,-0.99064,2023,6,12,12,11,18,392
0.06240,2.97500,-4.56750,0.00000,-0.00622,0.02623,-0.98747,2023,6,12,12,11,18,403
0.06250,2.90500,-4.35750,0.00000,-0.00354,0.02818,-0.98759,2023,6,12,12,11,18,414
0.06260,2.92250,-4.76000,0.00000,-0.00561,0.02452,-0.98783,2023,6,12,12,11,18,425
0.06270,2.99250,-4.76000,0.00000,-0.00427,0.02696,-0.99052,2023,6,12,12,11,18,436
0.06280,3.06250,-4.77750,0.00000,-0.00573,0.02538,-0.99003,2023,6,12,12,11,18,447
0.06290,2.92250,-4.62000,0.00000,-0.00451,0.02489,-0.98954,2023,6,12,12,11,18,458
0.06300,2.83500,-4.41000,0.00000,-0.00525,0.02757,-0.98905,2023,6,12,12,11,18,469
0.06310,2.85250,-4.39250,0.00000,-0.00525,0.02867,-0.98783,2023,6,12,12,11,18,481
0.06320,2.97500,-4.76000,0.00000,-0.00378,0.02843,-0.98649,2023,6,12,12,11,18,492
0.06330,2.99250,-4.56750,0.00000,-0.00464,0.02684,-0.98881,2023,6,12,12,11,18,503
0.06340,3.09750,-4.53250,0.00000,-0.00525,0.02562,-0.98942,2023,6,12,12,11,18,514
0.06350,3.04500,-4.70750,0.00000,-0.00464,0.02538,-0.98759,2023,6,12,12,11,18,525
0.06360,2.81750,-4.63750,0.00000,-0.00378,0.02647,-0.98930,2023,6,12,12,11,18,536
0.06370,3.13250,-4.65500,0.00000,-0.00683,0.02708,-0.98637,2023,6,12,12,11,18,547
0.06380,2.81750,-4.56750,0.00000,-0.00268,0.02635,-0.98735,2023,6,12,12,11,18,558
0.06390,3.08000,-4.72500,0.00000,-0.00525,0.02684,-0.99052,2023,6,12,12,11,18,569
0.06400,2.90500,-4.49750,0.00000,-0.00476,0.02672,-0.98478,2023,6,12,12,11,18,581
0.06410,3.15000,-4.84750,0.00000,-0.00488,0.02574,-0.98869,2023,6,12,12,11,18,592
0.06420,2.95750,-4.58500,0.00000,-0.00573,0.02733,-0.98796,2023,6,12,12,11,18,603
0.06430,2.99250,-4.60250,0.00000,-0.00488,0.02562,-0.98796,2023,6,12,12,11,18,614
0.06440,2.87000,-4.55000,0.00000,-0.00525,0.02769,-0.98820,2023,6,12,12,11,18,625
0.06450,2.85250,-4.72500,0.00000,-0.00488,0.02696,-0.98661,2023,6,12,12,11,18,636
0.06460,2.90500,-4.56750,0.00000,-0.00329,0.02806,-0.99064,2023,6,12,12,11,18,647
0.06470,3.02750,-4.72500,0.00000,-0.00586,0.02660,-0.98942,2023,6,12,12,11,18,658
0.06480,3.02750,-4.42750,0.00000,-0.00427,0.02855,-0.98808,2023,6,12,12,11,18,669
0.06490,3.09750,-4.76000,0.00000,-0.00537,0.02647,-0.98820,2023,6,12,12,11,18,681
0.06500,2.87000,-4.65500,0.00000,-0.00549,0.02403,-0.98979,2023,6,12,12,11,18,692
0.06510,3.08000,-4.62000,0.00000,-0.00488,0.02696,-0.98930,2023,6,12,12,11,18,703
0.06520,2.90500,-4.65500,0.00000,-0.00390,0.02513,-0.98820,2023,6,12,12,11,18,714
0.06530,2.81750,-4.63750,0.00000,-0.00390,0.02489,-0.98918,2023,6,12,12,11,18,725
0.06540,3.11500,-4.51500,0.00000,-0.00464,0.02721,-0.98820,2023,6,12,12,11,18,736
0.06550,3.13250,-4.67250,0.00000,-0.00464,0.02782,-0.98844,2023,6,12,12,11,18,747
0.06560,2.87000,-4.51500,0.00000,-0.00451,0.02843,-0.98857,2023,6,12,12,11,18,758
0.06570,2.64250,-4.60250,0.00000,-0.00500,0.02586,-0.99015,2023,6,12,12,11,18,769
0.06580,3.08000,-4.63750,0.00000,-0.00500,0.02684,-0.98893,2023,6,12,12,11,18,781
0.06590,3.02750,-4.70750,0.00000,-0.00512,0.02696,-0.98918,2023,6,12,12,11,18,792
0.06600,2.97500,-4.69000,0.00000,-0.00549,0.02538,-0.98600,2023,6,12,12,11,18,803
0.06610,3.06250,-4.56750,0.00000,-0.00256,0.02757,-0.98588,2023,6,12,12,11,18,814
0.06620,2.95750,-4.69000,0.00000,-0.00695,0.02355,-0.98930,2023,6,12,12,11,18,825
0.06630,2.95750,-4.48000,0.00000,-0.00342,0.02586,-0.98515,2023,6,12,12,11,18,836
0.06640,2.92250,-4.63750,0.00000,-0.00598,0.02660,-0.98796,2023,6,12,12,11,18,847
0.06650,2.94000,-4.83000,0.00000,-0.00512,0.02440,-0.98832,2023,6,12,12,11,18,858
0.06660,2.87000,-4.58500,0.00000,-0.00573,0.02721,-0.98832,2023,6,12,12,11,18,869
0.06670,2.97500,-4.63750,0.00000,-0.00464,0.02806,-0.98796,2023,6,12,12,11,18,881
0.06680,2.95750,-4.63750,0.00000,-0.00512,0.02647,-0.99027,2023,6,12,12,11,18,892
0.06690,2.83500,-4.60250,0.00000,-0.00464,0.02733,-0.98552,2023,6,12,12,11,18,903
0.06700,3.04500,-4.53250,0.00000,-0.00403,0.02501,-0.99064,2023,6,12,12,11,18,914
0.06710,2.83500,-4.51500,0.00000,-0.00354,0.02635,-0.99162,2023,6,12,12,11,18,925
0.06720,2.90500,-4.69000,0.00000,-0.00451,0.02806,-0.98979,2023,6,12,12,11,18,936
0.06730,2.90500,-4.55000,0.00000,-0.00342,0.02818,-0.98820,2023,6,12,12,11,18,947
0.06740,2.94000,-4.77750,0.00000,-0.00403,0.02550,-0.98686,2023,6,12,12,11,18,958
0.06750,2.92250,-4.62000,0.00000,-0.00512,0.02660,-0.98466,2023,6,12,12,11,19,9
0.06760,3.18500,-4.62000,0.00000,-0.00439,0.02525,-0.98832,2023,6,12,12,11,19,21
0.06770,2.97500,-4.58500,0.00000,-0.00610,0.02635,-0.98747,2023,6,12,12,11,19,32
0.06780,3.11500,-4.86500,0.00000,-0.00439,0.02513,-0.98832,2023,6,12,12,11,19,43
0.06790,2.95750,-4.63750,0.00000,-0.00415,0.02745,-0.98783,2023,6,12,12,11,19,54
0.06800,3.32500,-4.69000,0.00000,-0.00476,0.02757,-0.98710,2023,6,12,12,11,19,65
0.06810,3.01000,-4.72500,0.00000,-0.00244,0.02574,-0.98808,2023,6,12,12,11,19,76
0.06820,3.11500,-4.69000,0.00000,-0.00525,0.02672,-0.98698,2023,6,12,12,11,19,87
0.06830,3.16750,-4.56750,0.00000,-0.00525,0.02672,-0.98759,2023,6,12,12,11,19,98
0.06840,2.85250,-4.32250,0.00000,-0.00537,0.02574,-0.98808,2023,6,12,12,11,19,109
0.06850,3.06250,-4.58500,0.00000,-0.00525,0.02477,-0.98820,2023,6,12,12,11,19,121
0.06860,2.88750,-4.55000,0.00000,-0.00451,0.02672,-0.98625,2023,6,12,12,11,19,132
0.06870,2.88750,-4.58500,0.00000,-0.00464,0.02562,-0.98600,2023,6,12,12,11,19,143
0.06880,2.87000,-4.49750,0.00000,-0.00476,0.02843,-0.98808,2023,6,12,12,11,19,154
0.06890,2.80000,-4.77750,0.00000,-0.00403,0.02623,-0.98954,2023,6,12,12,11,19,165
0.06900,2.95750,-4.51500,0.00000,-0.00183,0.02611,-0.98466,2023,6,12,12,11,19,176
0.06910,2.94000,-4.60250,0.00000,-0.00354,0.02586,-0.98918,2023,6,12,12,11,19,187
0.06920,2.80000,-4.70750,0.00000,-0.00415,0.02379,-0.98905,2023,6,12,12,11,19,198
0.06930,3.02750,-4.72500,0.00000,-0.00500,0.02867,-0.98735,2023,6,12,12,11,19,209
0.06940,2.88750,-4.44500,0.00000,-0.00610,0.02562,-0.98844,2023,6,12,12,11,19,221
0.06950,2.81750,-4.76000,0.00000,-0.00464,0.02733,-0.98686,2023,6,12,12,11,19,232
0.06960,2.95750,-4.67250,0.00000,-0.00439,0.02599,-0.98686,2023,6,12,12,11,19,243
0.06970,2.92250,-4.58500,0.00000,-0.00488,0.02611,-0.98966,2023,6,12,12,11,19,254
0.06980,2.94000,-4.72500,0.00000,-0.00549,0.02623,-0.98832,2023,6,12,12,11,19,265
0.06990,2.92250,-4.56750,0.00000,-0.00512,0.02599,-0.98771,2023,6,12,12,11,19,276
0.07000,2.87000,-4.42750,0.00000,-0.00464,0.02562,-0.98698,2023,6,12,12,11,19,287
0.07010,2.92250,-4.70750,0.00000,-0.00464,0.02660,-0.98808,2023,6,12,12,11,19,298
0.07020,2.78250,-4.48000,0.00000,-0.00476,0.02562,-0.98674,2023,6,12,12,11,19,309
0.07030,2.74750,-4.58500,0.00000,-0.00488,0.02672,-0.98613,2023,6,12,12,11,19,321
0.07040,2.88750,-4.69000,0.00000,-0.00390,0.02647,-0.98661,2023,6,12,12,11,19,332
0.07050,2.97500,-4.79500,0.00000,-0.00439,0.02611,-0.99076,2023,6,12,12,11,19,343
0.07060,3.04500,-4.53250,0.00000,-0.00537,0.02428,-0.98759,2023,6,12,12,11,19,354
0.07070,2.94000,-4.60250,0.00000,-0.00549,0.02745,-0.98771,2023,6,12,12,11,19,365
0.07080,2.95750,-4.63750,0.00000,-0.00525,0.02562,-0.98905,2023,6,12,12,11,19,376
0.07090,2.74750,-4.55000,0.00000,-0.00500,0.02623,-0.98722,2023,6,12,12,11,19,387
0.07100,2.97500,-4.35750,0.00000,-0.00659,0.02416,-0.98771,2023,6,12,12,11,19,398
0.07110,2.78250,-4.65500,0.00000,-0.00512,0.02684,-0.98454,2023,6,12,12,11,19,409
0.07120,2.74750,-4.62000,0.00000,-0.00549,0.02647,-0.98588,2023,6,12,12,11,19,421
0.07130,3.06250,-4.69000,0.00000,-0.00525,0.02513,-0.98893,2023,6,12,12,11,19,432
0.07140,2.94000,-4.39250,0.00000,-0.00451,0.02635,-0.98735,2023,6,12,12,11,19,443
0.07150,2.90500,-4.77750,0.00000,-0.00476,0.02696,-0.98613,2023,6,12,12,11,19,454
0.07160,2.88750,-4.48000,0.00000,-0.00537,0.02318,-0.98771,2023,6,12,12,11,19,465
0.07170,2.81750,-4.58500,0.00000,-0.00451,0.02562,-0.98735,2023,6,12,12,11,19,476
0.07180,2.83500,-4.56750,0.00000,-0.00573,0.02562,-0.98747,2023,6,12,12,11,19,487
0.07190,3.02750,-4.51500,0.00000,-0.00622,0.02550,-0.98844,2023,6,12,12,11,19,498
0.07200,3.06250,-4.60250,0.00000,-0.00634,0.02440,-0.99003,2023,6,12,12,11,19,509
0.07210,2.85250,-4.58500,0.00000,-0.00366,0.02672,-0.98466,2023,6,12,12,11,19,521
0.07220,2.99250,-4.70750,0.00000,-0.00525,0.02550,-0.98771,2023,6,12,12,11,19,532
0.07230,2.73000,-4.58500,0.00000,-0.00366,0.02708,-0.98722,2023,6,12,12,11,19,543
0.07240,2.92250,-4.74250,0.00000,-0.00439,0.02647,-0.98771,2023,6,12,12,11,19,554
0.07250,3.08000,-4.74250,0.00000,-0.00561,0.02721,-0.98649,2023,6,12,12,11,19,565
0.07260,3.13250,-4.76000,0.00000,-0.00525,0.02660,-0.98747,2023,6,12,12,11,19,576
0.07270,2.94000,-4.69000,0.00000,-0.00464,0.02611,-0.98600,2023,6,12,12,11,19,587
0.07280,2.78250,-4.62000,0.00000,-0.00586,0.02379,-0.98686,2023,6,12,12,11,19,598
0.07290,2.88750,-4.53250,0.00000,-0.00476,0.02477,-0.98808,2023,6,12,12,11,19,609
0.07300,2.92250,-4.37500,0.00000,-0.00525,0.02464,-0.99101,2023,6,12,12,11,19,621
0.07310,2.81750,-4.72500,0.00000,-0.00439,0.02562,-0.98771,2023,6,12,12,11,19,632
0.07320,2.92250,-4.55000,0.00000,-0.00476,0.02599,-0.98637,2023,6,12,12,11,19,643
0.07330,2.85250,-4.63750,0.00000,-0.00756,0.02440,-0.99027,2023,6,12,12,11,19,654
0.07340,3.06250,-4.62000,0.00000,-0.00415,0.02757,-0.98637,2023,6,12,12,11,19,665
0.07350,2.76500,-4.67250,0.00000,-0.00476,0.02623,-0.98930,2023,6,12,12,11,19,676
0.07360,2.85250,-4.67250,0.00000,-0.00598,0.02416,-0.98918,2023,6,12,12,11,19,687
0.07370,2.73000,-4.44500,0.00000,-0.00390,0.02891,-0.98698,2023,6,12,12,11,19,698
0.07380,2.80000,-4.67250,0.00000,-0.00500,0.02745,-0.98661,2023,6,12,12,11,19,709
0.07390,3.32500,-4.63750,0.00000,-0.00464,0.02623,-0.98808,2023,6,12,12,11,19,721
0.07400,2.71250,-4.49750,0.00000,-0.00451,0.02611,-0.98710,2023,6,12,12,11,19,732
0.07410,3.13250,-4.77750,0.00000,-0.00427,0.02623,-0.98710,2023,6,12,12,11,19,743
0.07420,3.01000,-4.65500,0.00000,-0.00268,0.02867,-0.98600,2023,6,12,12,11,19,754
0.07430,2.87000,-4.51500,0.00000,-0.00598,0.02623,-0.98747,2023,6,12,12,11,19,765
0.07440,2.88750,-4.74250,0.00000,-0.00512,0.02464,-0.99003,2023,6,12,12,11,19,776
0.07450,3.04500,-4.70750,0.00000,-0.00427,0.02721,-0.98869,2023,6,12,12,11,19,787
0.07460,2.99250,-4.67250,0.00000,-0.00610,0.02538,-0.98735,2023,6,12,12,11,19,798
0.07470,2.73000,-4.28750,0.00000,-0.00488,0.02574,-0.98881,2023,6,12,12,11,19,809
0.07480,3.09750,-4.72500,0.00000,-0.00512,0.02660,-0.98735,2023,6,12,12,11,19,821
0.07490,2.74750,-4.30500,0.00000,-0.00464,0.02623,-0.98869,2023,6,12,12,11,19,832
0.07500,2.76500,-4.41000,0.00000,-0.00476,0.02574,-0.98832,2023,6,12,12,11,19,843
0.07510,2.74750,-4.62000,0.00000,-0.00634,0.02464,-0.98308,2023,6,12,12,11,19,854
0.07520,3.25500,-4.55000,0.00000,-0.00671,0.02416,-0.98942,2023,6,12,12,11,19,865
0.07530,2.92250,-4.77750,0.00000,-0.00525,0.02745,-0.98783,2023,6,12,12,11,19,876
0.07540,2.88750,-4.86500,0.00000,-0.00537,0.02513,-0.98674,2023,6,12,12,11,19,887
0.07550,2.87000,-4.55000,0.00000,-0.00500,0.02647,-0.98796,2023,6,12,12,11,19,898
0.07560,3.11500,-4.67250,0.00000,-0.00464,0.02513,-0.98527,2023,6,12,12,11,19,909
0.07570,2.99250,-4.56750,0.00000,-0.00561,0.02599,-0.98710,2023,6,12,12,11,19,921
0.07580,2.87000,-4.42750,0.00000,-0.00488,0.02721,-0.98857,2023,6,12,12,11,19,932
0.07590,2.90500,-4.55000,0.00000,-0.00732,0.02501,-0.98808,2023,6,12,12,11,19,943
0.07600,2.73000,-4.60250,0.00000,-0.00354,0.02477,-0.98747,2023,6,12,12,11,19,954
0.07610,3.01000,-4.58500,0.00000,-0.00451,0.02635,-0.98722,2023,6,12,12,11,19,965
0.07620,3.11500,-4.56750,0.00000,-0.00500,0.02489,-0.98686,2023,6,12,12,11,20,6
0.07630,2.99250,-4.51500,0.00000,-0.00378,0.02416,-0.98698,2023,6,12,12,11,20,17
0.07640,2.87000,-4.55000,0.00000,-0.00464,0.02464,-0.99003,2023,6,12,12,11,20,28
0.07650,3.02750,-4.74250,0.00000,-0.00464,0.02464,-0.98869,2023,6,12,12,11,20,39
0.07660,2.97500,-4.56750,0.00000,-0.00512,0.02782,-0.98844,2023,6,12,12,11,20,51
0.07670,3.09750,-4.63750,0.00000,-0.00525,0.02452,-0.98869,2023,6,12,12,11,20,62
0.07680,2.85250,-4.60250,0.00000,-0.00500,0.02574,-0.98844,2023,6,12,12,11,20,73
0.07690,2.87000,-4.48000,0.00000,-0.00586,0.02635,-0.98857,2023,6,12,12,11,20,84
0.07700,2.88750,-4.58500,0.00000,-0.00476,0.02477,-0.98844,2023,6,12,12,11,20,95
0.07710,2.92250,-4.48000,0.00000,-0.00537,0.02757,-0.98686,2023,6,12,12,11,20,106
0.07720,2.87000,-4.58500,0.00000,-0.00561,0.02611,-0.98832,2023,6,12,12,11,20,117
0.07730,2.73000,-4.55000,0.00000,-0.00317,0.02843,-0.98930,2023,6,12,12,11,20,128
0.07740,3.06250,-4.69000,0.00000,-0.00561,0.02525,-0.98710,2023,6,12,12,11,20,139
0.07750,2.71250,-4.60250,0.00000,-0.00317,0.02623,-0.98674,2023,6,12,12,11,20,151
0.07760,3.01000,-4.48000,0.00000,-0.00573,0.02513,-0.98869,2023,6,12,12,11,20,162
0.07770,3.06250,-4.58500,0.00000,-0.00525,0.02696,-0.98710,2023,6,12,12,11,20,173
0.07780,3.02750,-4.79500,0.00000,-0.00220,0.02574,-0.98442,2023,6,12,12,11,20,184
0.07790,2.67750,-4.55000,0.00000,-0.00683,0.02550,-0.98698,2023,6,12,12,11,20,195
0.07800,3.23750,-4.69000,0.00000,-0.00586,0.02611,-0.98966,2023,6,12,12,11,20,206
0.07810,2.57250,-4.28750,0.00000,-0.00329,0.02843,-0.99088,2023,6,12,12,11,20,217
0.07820,3.06250,-4.90000,0.00000,-0.00622,0.02257,-0.98686,2023,6,12,12,11,20,228
0.07830,2.45000,-4.51500,0.00000,-0.00671,0.02635,-0.98796,2023,6,12,12,11,20,239
0.07840,2.97500,-4.70750,0.00000,-0.00366,0.02586,-0.98881,2023,6,12,12,11,20,251
0.07850,2.87000,-4.63750,0.00000,-0.00512,0.02538,-0.98857,2023,6,12,12,11,20,262
0.07860,2.66000,-4.83000,0.00000,-0.00756,0.02428,-0.98735,2023,6,12,12,11,20,273
0.07870,3.04500,-4.74250,0.00000,-0.00488,0.02403,-0.98869,2023,6,12,12,11,20,284
0.07880,2.95750,-4.53250,0.00000,-0.00390,0.02721,-0.98857,2023,6,12,12,11,20,295
0.07890,2.80000,-4.74250,0.00000,-0.00549,0.02477,-0.98881,2023,6,12,12,11,20,306
0.07900,2.76500,-4.67250,0.00000,-0.00549,0.02745,-0.98674,2023,6,12,12,11,20,317
0.07910,3.06250,-4.72500,0.00000,-0.00415,0.02794,-0.98771,2023,6,12,12,11,20,328
0.07920,2.73000,-4.53250,0.00000,-0.00525,0.02477,-0.98832,2023,6,12,12,11,20,339
0.07930,3.18500,-4.70750,0.00000,-0.00439,0.02513,-0.98710,2023,6,12,12,11,20,351
0.07940,2.87000,-4.67250,0.00000,-0.00647,0.02599,-0.98966,2023,6,12,12,11,20,362
0.07950,2.74750,-4.55000,0.00000,-0.00451,0.02708,-0.98832,2023,6,12,12,11,20,373
0.07960,3.04500,-4.69000,0.00000,-0.00512,0.02843,-0.98686,2023,6,12,12,11,20,384
0.07970,2.97500,-4.42750,0.00000,-0.00537,0.02538,-0.98735,2023,6,12,12,11,20,395
0.07980,3.08000,-4.72500,0.00000,-0.00598,0.02550,-0.98869,2023,6,12,12,11,20,406
0.07990,2.66000,-4.48000,0.00000,-0.00537,0.02599,-0.98832,2023,6,12,12,11,20,417
0.08000,2.95750,-4.60250,0.00000,-0.00488,0.02623,-0.98552,2023,6,12,12,11,20,428
0.08010,2.85250,-4.55000,0.00000,-0.00525,0.02611,-0.98588,2023,6,12,12,11,20,439
0.08020,2.80000,-4.67250,0.00000,-0.00537,0.02367,-0.99015,2023,6,12,12,11,20,451
0.08030,2.92250,-4.62000,0.00000,-0.00573,0.02611,-0.98722,2023,6,12,12,11,20,462
0.08040,2.95750,-4.56750,0.00000,-0.00403,0.02550,-0.98710,2023,6,12,12,11,20,473
0.08050,2.97500,-4.63750,0.00000,-0.00525,0.02684,-0.98478,2023,6,12,12,11,20,484
0.08060,2.66000,-4.56750,0.00000,-0.00354,0.02635,-0.98869,2023,6,12,12,11,20,495
0.08070,2.95750,-4.60250,0.00000,-0.00537,0.02757,-0.98905,2023,6,12,12,11,20,506
0.08080,2.69500,-4.37500,0.00000,-0.00586,0.02513,-0.98893,2023,6,12,12,11,20,517
0.08090,3.11500,-4.63750,0.00000,-0.00549,0.02574,-0.99003,2023,6,12,12,11,20,528
0.08100,3.44750,-4.83000,0.00000,-0.00817,0.02538,-0.98600,2023,6,12,12,11,20,539
0.08110,2.73000,-4.56750,0.00000,-0.00415,0.02757,-0.98954,2023,6,12,12,11,20,551
0.08120,2.87000,-4.55000,0.00000,-0.00647,0.02550,-0.98698,2023,6,12,12,11,20,562
0.08130,2.64250,-4.34000,0.00000,-0.00622,0.02562,-0.98613,2023,6,12,12,11,20,573
0.08140,3.18500,-4.76000,0.00000,-0.00488,0.02623,-0.98759,2023,6,12,12,11,20,584
0.08150,2.76500,-4.60250,0.00000,-0.00695,0.02562,-0.98661,2023,6,12,12,11,20,595
0.08160,3.11500,-4.62000,0.00000,-0.00488,0.02501,-0.98808,2023,6,12,12,11,20,606
0.08170,2.78250,-4.56750,0.00000,-0.00500,0.02721,-0.98979,2023,6,12,12,11,20,617
0.08180,3.11500,-4.74250,0.00000,-0.00537,0.02599,-0.98600,2023,6,12,12,11,20,628
0.08190,2.78250,-4.70750,0.00000,-0.00610,0.02574,-0.98722,2023,6,12,12,11,20,639
0.08200,2.94000,-4.62000,0.00000,-0.00427,0.02696,-0.98844,2023,6,12,12,11,20,651
0.08210,2.99250,-4.60250,0.00000,-0.00488,0.02623,-0.98893,2023,6,12,12,11,20,662
0.08220,2.92250,-4.77750,0.00000,-0.00488,0.02611,-0.99113,2023,6,12,12,11,20,673
0.08230,3.15000,-4.95250,0.00000,-0.00561,0.02489,-0.98747,2023,6,12,12,11,20,684
0.08240,2.87000,-4.76000,0.00000,-0.00464,0.02806,-0.98747,2023,6,12,12,11,20,695
0.08250,2.97500,-4.69000,0.00000,-0.00464,0.02696,-0.98869,2023,6,12,12,11,20,706
0.08260,2.87000,-4.58500,0.00000,-0.00464,0.02721,-0.98735,2023,6,12,12,11,20,717
0.08270,2.83500,-4.62000,0.00000,-0.00573,0.02452,-0.98491,2023,6,12,12,11,20,728
0.08280,2.95750,-4.67250,0.00000,-0.00342,0.02611,-0.98613,2023,6,12,12,11,20,739
0.08290,2.81750,-4.49750,0.00000,-0.00451,0.02599,-0.99174,2023,6,12,12,11,20,751
0.08300,2.94000,-4.37500,0.00000,-0.00671,0.02635,-0.98893,2023,6,12,12,11,20,762
0.08310,2.85250,-4.67250,0.00000,-0.00464,0.02586,-0.98759,2023,6,12,12,11,20,773
0.08320,2.99250,-4.62000,0.00000,-0.00537,0.02489,-0.98637,2023,6,12,12,11,20,784
0.08330,2.87000,-4.69000,0.00000,-0.00610,0.02245,-0.98576,2023,6,12,12,11,20,795
0.08340,2.85250,-4.65500,0.00000,-0.00573,0.02647,-0.98710,2023,6,12,12,11,20,806
0.08350,3.04500,-4.60250,0.00000,-0.00366,0.02647,-0.98588,2023,6,12,12,11,20,817
0.08360,2.85250,-4.65500,0.00000,-0.00610,0.02489,-0.98625,2023,6,12,12,11,20,828
0.08370,3.20250,-4.74250,0.00000,-0.00256,0.02513,-0.98930,2023,6,12,12,11,20,839
0.08380,2.78250,-4.70750,0.00000,-0.00586,0.02757,-0.98637,2023,6,12,12,11,20,851
0.08390,3.20250,-4.81250,0.00000,-0.00598,0.02489,-0.98710,2023,6,12,12,11,20,862
0.08400,3.15000,-4.83000,0.00000,-0.00281,0.02757,-0.98332,2023,6,12,12,11,20,873
0.08410,3.16750,-4.70750,0.00000,-0.00415,0.02196,-0.99052,2023,6,12,12,11,20,884
0.08420,3.25500,-4.77750,0.00000,-0.00134,0.02672,-0.98539,2023,6,12,12,11,20,895
0.08430,3.08000,-4.63750,0.00000,-0.00476,0.02733,-0.98881,2023,6,12,12,11,20,906
0.08440,2.67750,-4.37500,0.00000,-0.00720,0.02806,-0.98722,2023,6,12,12,11,20,917
0.08450,2.53750,-4.35750,0.00000,-0.00573,0.02342,-0.98991,2023,6,12,12,11,20,928
0.08460,3.34250,-4.95250,0.00000,-0.00610,0.02318,-0.98515,2023,6,12,12,11,20,939
0.08470,2.59000,-4.65500,0.00000,-0.00427,0.02538,-0.98869,2023,6,12,12,11,20,951
0.08480,3.95500,-4.97000,0.00000,-0.00537,0.02074,-0.99186,2023,6,12,12,11,20,962
0.08490,0.77000,-3.67500,0.00000,-0.00378,0.02586,-0.98881,2023,6,12,12,11,20,973
0.08500,3.20250,-4.72500,0.00000,-0.00549,0.02647,-0.98930,2023,6,12,12,11,21,4
0.08510,0.89250,-3.46500,0.00000,-0.00512,0.02452,-0.98808,2023,6,12,12,11,21,15
0.08520,3.51750,-4.84750,0.00000,-0.00451,0.03099,-0.98393,2023,6,12,12,11,21,26
0.08530,-0.10500,-3.22000,0.00000,-0.00342,0.02745,-0.98442,2023,6,12,12,11,21,37
0.08540,7.19250,-6.58000,0.00000,-0.00671,0.01915,-0.99650,2023,6,12,12,11,21,48
0.08550,1.64500,-4.28750,0.00000,-0.00512,0.02538,-0.98759,2023,6,12,12,11,21,59
0.08560,4.30500,-5.28500,0.00000,-0.00427,0.02745,-0.99149,2023,6,12,12,11,21,71
0.08570,2.60750,-4.41000,0.00000,0.00098,0.02330,-0.99052,2023,6,12,12,11,21,82
0.08580,4.06000,-5.30250,0.00000,-0.00891,0.02233,-0.99540,2023,6,12,12,11,21,93
0.08590,2.43250,-4.35750,0.00000,-0.00476,0.02916,-0.98588,2023,6,12,12,11,21,104
0.08600,3.46500,-4.90000,0.00000,-0.00537,0.02391,-0.99198,2023,6,12,12,11,21,115
0.08610,2.92250,-4.56750,0.00000,-0.00403,0.02794,-0.98735,2023,6,12,12,11,21,126
0.08620,3.25500,-4.67250,0.00000,-0.00512,0.02391,-0.99076,2023,6,12,12,11,21,137
0.08630,2.94000,-4.58500,0.00000,-0.00464,0.02611,-0.98478,2023,6,12,12,11,21,148
0.08640,2.94000,-4.69000,0.00000,-0.00427,0.02635,-0.98918,2023,6,12,12,11,21,159
0.08650,2.69500,-4.39250,0.00000,-0.00610,0.02879,-0.98771,2023,6,12,12,11,21,171
0.08660,2.87000,-4.58500,0.00000,-0.00281,0.02769,-0.98820,2023,6,12,12,11,21,182
0.08670,2.81750,-4.39250,0.00000,-0.00403,0.02708,-0.98844,2023,6,12,12,11,21,193
0.08680,2.94000,-4.72500,0.00000,-0.00647,0.02501,-0.98966,2023,6,12,12,11,21,204
0.08690,2.92250,-4.35750,0.00000,-0.00622,0.02440,-0.98747,2023,6,12,12,11,21,215
0.08700,2.88750,-4.62000,0.00000,-0.00586,0.02647,-0.98637,2023,6,12,12,11,21,226
0.08710,2.99250,-4.69000,0.00000,-0.00586,0.02477,-0.98796,2023,6,12,12,11,21,237
0.08720,2.90500,-4.48000,0.00000,-0.00537,0.02757,-0.98649,2023,6,12,12,11,21,248
0.08730,2.90500,-4.76000,0.00000,-0.00500,0.02635,-0.98918,2023,6,12,12,11,21,259
0.08740,2.73000,-4.48000,0.00000,-0.00525,0.02513,-0.98661,2023,6,12,12,11,21,271
0.08750,3.02750,-4.69000,0.00000,-0.00549,0.02818,-0.98381,2023,6,12,12,11,21,282
0.08760,2.95750,-4.70750,0.00000,-0.00561,0.02538,-0.98710,2023,6,12,12,11,21,293
0.08770,2.92250,-4.69000,0.00000,-0.00464,0.02660,-0.98893,2023,6,12,12,11,21,304
0.08780,3.16750,-4.56750,0.00000,-0.00281,0.02586,-0.98674,2023,6,12,12,11,21,315
0.08790,2.76500,-4.48000,0.00000,-0.00573,0.02574,-0.99040,2023,6,12,12,11,21,326
#2023/06/12 12:11:21
