#2023/06/12 13:38:46
time,wx,wy,wz,ax,ay,az,yy,MM,dd,hh,mm,ss,ms
0.00000,3.23750,-4.69000,0.00000,-0.00988,0.01135,-0.98796,2023,6,12,13,38,46,659
0.00010,3.20250,-4.58500,0.00000,-0.01025,0.00927,-0.98844,2023,6,12,13,38,46,670
0.00020,3.13250,-4.65500,0.00000,-0.01025,0.01061,-0.98808,2023,6,12,13,38,46,681
0.00030,2.99250,-4.72500,0.00000,-0.01074,0.00878,-0.98808,2023,6,12,13,38,46,692
0.00040,3.04500,-4.53250,0.00000,-0.01208,0.00854,-0.98857,2023,6,12,13,38,46,703
0.00050,3.01000,-4.65500,0.00000,-0.01257,0.01037,-0.98722,2023,6,12,13,38,46,714
0.00060,3.15000,-4.67250,0.00000,-0.01220,0.01049,-0.98759,2023,6,12,13,38,46,725
0.00070,2.97500,-4.32250,0.00000,-0.01049,0.01049,-0.98918,2023,6,12,13,38,46,736
0.00080,3.11500,-4.69000,0.00000,-0.01171,0.01098,-0.98527,2023,6,12,13,38,46,747
0.00090,3.01000,-4.44500,0.00000,-0.01305,0.00939,-0.98881,2023,6,12,13,38,46,758
0.00100,3.22000,-4.76000,0.00000,-0.01147,0.01147,-0.98844,2023,6,12,13,38,46,770
0.00110,3.11500,-4.55000,0.00000,-0.00964,0.01208,-0.99186,2023,6,12,13,38,46,781
0.00120,3.06250,-4.30500,0.00000,-0.01122,0.01220,-0.98918,2023,6,12,13,38,46,792
0.00130,2.94000,-4.56750,0.00000,-0.01025,0.01220,-0.98686,2023,6,12,13,38,46,803
0.00140,3.20250,-4.72500,0.00000,-0.01147,0.01025,-0.98783,2023,6,12,13,38,46,814
0.00150,3.06250,-4.49750,0.00000,-0.01293,0.01159,-0.99052,2023,6,12,13,38,46,825
0.00160,2.97500,-4.35750,0.00000,-0.00976,0.00830,-0.98820,2023,6,12,13,38,46,836
0.00170,3.25500,-4.62000,0.00000,-0.01171,0.00988,-0.98869,2023,6,12,13,38,46,847
0.00180,3.04500,-4.51500,0.00000,-0.01000,0.01086,-0.98844,2023,6,12,13,38,46,858
0.00190,3.09750,-4.63750,0.00000,-0.01293,0.01232,-0.98893,2023,6,12,13,38,46,870
0.00200,3.08000,-4.46250,0.00000,-0.01049,0.01098,-0.98832,2023,6,12,13,38,46,881
0.00210,3.32500,-4.69000,0.00000,-0.00915,0.00915,-0.98869,2023,6,12,13,38,46,892
0.00220,3.16750,-4.41000,0.00000,-0.01159,0.01171,-0.99003,2023,6,12,13,38,46,903
0.00230,3.09750,-4.62000,0.00000,-0.01171,0.01086,-0.98747,2023,6,12,13,38,46,914
0.00240,3.20250,-4.63750,0.00000,-0.01244,0.01220,-0.98942,2023,6,12,13,38,46,925
0.00250,3.13250,-4.70750,0.00000,-0.01147,0.01330,-0.99040,2023,6,12,13,38,46,936
0.00260,3.04500,-4.51500,0.00000,-0.01061,0.01330,-0.98966,2023,6,12,13,38,46,947
0.00270,3.13250,-4.70750,0.00000,-0.01220,0.00976,-0.98796,2023,6,12,13,38,46,958
0.00280,3.01000,-4.53250,0.00000,-0.01110,0.01098,-0.98747,2023,6,12,13,38,46,970
0.00290,3.02750,-4.49750,0.00000,-0.01049,0.00988,-0.98942,2023,6,12,13,38,46,981
0.00300,2.99250,-4.69000,0.00000,-0.01244,0.01196,-0.99198,2023,6,12,13,38,46,992
0.00310,2.95750,-4.62000,0.00000,-0.01183,0.01183,-0.99076,2023,6,12,13,38,46,3
0.00320,3.22000,-4.67250,0.00000,-0.01013,0.00866,-0.98820,2023,6,12,13,38,46,14
0.00330,3.06250,-4.65500,0.00000,-0.01293,0.01000,-0.98625,2023,6,12,13,38,46,25
0.00340,3.22000,-4.60250,0.00000,-0.01110,0.01025,-0.98905,2023,6,12,13,38,46,36
0.00350,3.06250,-4.69000,0.00000,-0.00927,0.01086,-0.98722,2023,6,12,13,38,46,47
0.00360,2.97500,-4.53250,0.00000,-0.01208,0.01171,-0.98881,2023,6,12,13,38,46,58
0.00370,3.13250,-4.65500,0.00000,-0.01159,0.00939,-0.99198,2023,6,12,13,38,46,70
0.00380,3.08000,-4.65500,0.00000,-0.01232,0.01122,-0.98649,2023,6,12,13,38,46,81
0.00390,3.06250,-4.41000,0.00000,-0.01257,0.00927,-0.99308,2023,6,12,13,38,46,92
0.00400,3.08000,-4.56750,0.00000,-0.01244,0.01086,-0.98661,2023,6,12,13,38,46,103
0.00410,3.13250,-4.60250,0.00000,-0.01147,0.01000,-0.98747,2023,6,12,13,38,46,114
0.00420,3.25500,-4.55000,0.00000,-0.00964,0.01025,-0.98698,2023,6,12,13,38,46,125
0.00430,2.94000,-4.49750,0.00000,-0.01110,0.00793,-0.99027,2023,6,12,13,38,46,136
0.00440,2.95750,-4.65500,0.00000,-0.01098,0.01074,-0.98710,2023,6,12,13,38,46,147
0.00450,3.13250,-4.56750,0.00000,-0.01269,0.01049,-0.98905,2023,6,12,13,38,46,158
0.00460,2.99250,-4.48000,0.00000,-0.01000,0.00952,-0.98979,2023,6,12,13,38,46,170
0.00470,3.02750,-4.46250,0.00000,-0.00964,0.01183,-0.98893,2023,6,12,13,38,46,181
0.00480,3.01000,-4.63750,0.00000,-0.01086,0.01147,-0.98649,2023,6,12,13,38,46,192
0.00490,2.92250,-4.46250,0.00000,-0.01330,0.01208,-0.99125,2023,6,12,13,38,46,203
0.00500,3.16750,-4.53250,0.00000,-0.01098,0.00939,-0.98796,2023,6,12,13,38,46,214
0.00510,3.06250,-4.60250,0.00000,-0.01159,0.01232,-0.99052,2023,6,12,13,38,46,225
0.00520,3.22000,-4.83000,0.00000,-0.01244,0.00915,-0.98966,2023,6,12,13,38,46,236
0.00530,3.04500,-4.60250,0.00000,-0.01183,0.01025,-0.99027,2023,6,12,13,38,46,247
0.00540,3.32500,-4.67250,0.00000,-0.01257,0.00939,-0.98857,2023,6,12,13,38,46,258
0.00550,3.04500,-4.42750,0.00000,-0.01074,0.01074,-0.98893,2023,6,12,13,38,46,270
0.00560,2.97500,-4.46250,0.00000,-0.01037,0.00952,-0.99137,2023,6,12,13,38,46,281
0.00570,3.06250,-4.69000,0.00000,-0.01025,0.01135,-0.98808,2023,6,12,13,38,46,292
0.00580,3.04500,-4.51500,0.00000,-0.00952,0.01086,-0.98808,2023,6,12,13,38,46,303
0.00590,3.09750,-4.72500,0.00000,-0.01025,0.00988,-0.98942,2023,6,12,13,38,46,314
0.00600,3.30750,-4.70750,0.00000,-0.01086,0.01281,-0.98893,2023,6,12,13,38,47,5
0.00610,3.11500,-4.70750,0.00000,-0.01000,0.01049,-0.99113,2023,6,12,13,38,47,16
0.00620,3.09750,-4.48000,0.00000,-0.01135,0.00817,-0.98954,2023,6,12,13,38,47,27
0.00630,2.99250,-4.70750,0.00000,-0.01171,0.01013,-0.98674,2023,6,12,13,38,47,38
0.00640,3.15000,-4.55000,0.00000,-0.01330,0.01098,-0.98625,2023,6,12,13,38,47,50
0.00650,3.09750,-4.74250,0.00000,-0.00976,0.00891,-0.98808,2023,6,12,13,38,47,61
0.00660,2.97500,-4.42750,0.00000,-0.01135,0.00952,-0.98869,2023,6,12,13,38,47,72
0.00670,3.06250,-4.62000,0.00000,-0.00878,0.01061,-0.98600,2023,6,12,13,38,47,83
0.00680,3.09750,-4.53250,0.00000,-0.00927,0.01037,-0.98857,2023,6,12,13,38,47,94
0.00690,2.99250,-4.41000,0.00000,-0.00952,0.01159,-0.98905,2023,6,12,13,38,47,105
0.00700,2.90500,-4.55000,0.00000,-0.01122,0.01318,-0.98991,2023,6,12,13,38,47,116
0.00710,2.95750,-4.69000,0.00000,-0.00903,0.01098,-0.98710,2023,6,12,13,38,47,127
0.00720,3.25500,-4.70750,0.00000,-0.01122,0.01061,-0.98844,2023,6,12,13,38,47,138
0.00730,3.18500,-4.70750,0.00000,-0.01159,0.00927,-0.99003,2023,6,12,13,38,47,150
0.00740,3.08000,-4.58500,0.00000,-0.01025,0.00988,-0.98783,2023,6,12,13,38,47,161
0.00750,3.06250,-4.46250,0.00000,-0.00952,0.01122,-0.98771,2023,6,12,13,38,47,172
0.00760,3.02750,-4.77750,0.00000,-0.00939,0.00878,-0.98905,2023,6,12,13,38,47,183
0.00770,3.09750,-4.74250,0.00000,-0.01147,0.01074,-0.99015,2023,6,12,13,38,47,194
0.00780,3.08000,-4.60250,0.00000,-0.00866,0.00891,-0.99113,2023,6,12,13,38,47,205
0.00790,2.97500,-4.53250,0.00000,-0.01061,0.01098,-0.98735,2023,6,12,13,38,47,216
0.00800,3.09750,-4.60250,0.00000,-0.01257,0.01098,-0.98442,2023,6,12,13,38,47,227
0.00810,3.04500,-4.49750,0.00000,-0.01110,0.01183,-0.98918,2023,6,12,13,38,47,238
0.00820,3.06250,-4.56750,0.00000,-0.01098,0.00939,-0.99088,2023,6,12,13,38,47,250
0.00830,3.20250,-4.72500,0.00000,-0.01049,0.01000,-0.98881,2023,6,12,13,38,47,261
0.00840,3.01000,-4.62000,0.00000,-0.01220,0.01135,-0.98918,2023,6,12,13,38,47,272
0.00850,3.11500,-4.49750,0.00000,-0.01257,0.01061,-0.98918,2023,6,12,13,38,47,283
0.00860,2.95750,-4.46250,0.00000,-0.00964,0.01074,-0.98808,2023,6,12,13,38,47,294
0.00870,3.04500,-4.53250,0.00000,-0.01098,0.01122,-0.98771,2023,6,12,13,38,47,305
0.00880,3.08000,-4.56750,0.00000,-0.00927,0.00952,-0.98942,2023,6,12,13,38,47,316
0.00890,2.90500,-4.58500,0.00000,-0.01061,0.00952,-0.98893,2023,6,12,13,38,47,327
0.00900,3.13250,-4.67250,0.00000,-0.01074,0.01098,-0.98698,2023,6,12,13,38,47,338
0.00910,3.16750,-4.51500,0.00000,-0.01196,0.00939,-0.98893,2023,6,12,13,38,47,350
0.00920,3.01000,-4.41000,0.00000,-0.01147,0.00988,-0.99064,2023,6,12,13,38,47,361
0.00930,3.06250,-4.76000,0.00000,-0.01098,0.01074,-0.99076,2023,6,12,13,38,47,372
0.00940,3.08000,-4.49750,0.00000,-0.01025,0.01159,-0.98979,2023,6,12,13,38,47,383
0.00950,3.13250,-4.81250,0.00000,-0.01208,0.01074,-0.98966,2023,6,12,13,38,47,394
0.00960,3.06250,-4.62000,0.00000,-0.01220,0.01098,-0.98905,2023,6,12,13,38,47,405
0.00970,3.02750,-4.70750,0.00000,-0.01086,0.00915,-0.98808,2023,6,12,13,38,47,416
0.00980,3.09750,-4.48000,0.00000,-0.01135,0.00988,-0.99296,2023,6,12,13,38,47,427
0.00990,2.92250,-4.46250,0.00000,-0.01135,0.00988,-0.98613,2023,6,12,13,38,47,438
0.01000,3.11500,-4.49750,0.00000,-0.01110,0.00976,-0.98771,2023,6,12,13,38,47,450
0.01010,3.01000,-4.51500,0.00000,-0.01244,0.01147,-0.98857,2023,6,12,13,38,47,461
0.01020,3.30750,-4.44500,0.00000,-0.01098,0.00915,-0.98735,2023,6,12,13,38,47,472
0.01030,3.08000,-4.74250,0.00000,-0.01183,0.01305,-0.98991,2023,6,12,13,38,47,483
0.01040,2.94000,-4.42750,0.00000,-0.01061,0.00939,-0.99259,2023,6,12,13,38,47,494
0.01050,3.13250,-4.76000,0.00000,-0.01110,0.00988,-0.98771,2023,6,12,13,38,47,505
0.01060,3.20250,-4.60250,0.00000,-0.01098,0.01025,-0.98857,2023,6,12,13,38,47,516
0.01070,3.01000,-4.63750,0.00000,-0.00964,0.01159,-0.99149,2023,6,12,13,38,47,527
0.01080,3.18500,-4.72500,0.00000,-0.01171,0.01244,-0.99015,2023,6,12,13,38,47,538
0.01090,3.23750,-4.39250,0.00000,-0.01000,0.00964,-0.98722,2023,6,12,13,38,47,550
0.01100,2.88750,-4.44500,0.00000,-0.01269,0.00939,-0.99101,2023,6,12,13,38,47,561
0.01110,3.15000,-4.53250,0.00000,-0.01183,0.00878,-0.98820,2023,6,12,13,38,47,572
0.01120,3.06250,-4.67250,0.00000,-0.01074,0.00964,-0.98820,2023,6,12,13,38,47,583
0.01130,3.13250,-4.69000,0.00000,-0.01171,0.01037,-0.98966,2023,6,12,13,38,47,594
0.01140,2.99250,-4.60250,0.00000,-0.01049,0.00939,-0.98771,2023,6,12,13,38,47,605
0.01150,2.99250,-4.30500,0.00000,-0.01013,0.00952,-0.99113,2023,6,12,13,38,47,616
0.01160,3.04500,-4.67250,0.00000,-0.01147,0.01110,-0.98893,2023,6,12,13,38,47,627
0.01170,3.13250,-4.46250,0.00000,-0.01049,0.00939,-0.98869,2023,6,12,13,38,47,638
0.01180,3.11500,-4.58500,0.00000,-0.01196,0.00939,-0.98954,2023,6,12,13,38,47,650
0.01190,3.02750,-4.37500,0.00000,-0.01086,0.01086,-0.98600,2023,6,12,13,38,47,661
0.01200,3.20250,-4.65500,0.00000,-0.01196,0.01196,-0.98747,2023,6,12,13,38,47,672
0.01210,3.15000,-4.46250,0.00000,-0.01196,0.01110,-0.98747,2023,6,12,13,38,47,683
0.01220,2.97500,-4.63750,0.00000,-0.01147,0.00939,-0.98759,2023,6,12,13,38,47,694
0.01230,2.97500,-4.53250,0.00000,-0.01025,0.01061,-0.98808,2023,6,12,13,38,47,705
0.01240,2.97500,-4.55000,0.00000,-0.01269,0.01208,-0.98869,2023,6,12,13,38,47,716
0.01250,3.04500,-4.51500,0.00000,-0.01122,0.00939,-0.98979,2023,6,12,13,38,47,727
0.01260,3.02750,-4.51500,0.00000,-0.01232,0.01061,-0.98649,2023,6,12,13,38,47,738
0.01270,3.06250,-4.51500,0.00000,-0.01379,0.00952,-0.98844,2023,6,12,13,38,47,750
0.01280,3.15000,-4.63750,0.00000,-0.01013,0.00842,-0.99052,2023,6,12,13,38,47,761
0.01290,2.95750,-4.42750,0.00000,-0.01147,0.00805,-0.98747,2023,6,12,13,38,47,772
0.01300,2.97500,-4.60250,0.00000,-0.01061,0.00756,-0.98759,2023,6,12,13,38,47,783
0.01310,3.15000,-4.79500,0.00000,-0.01171,0.00842,-0.98625,2023,6,12,13,38,47,794
0.01320,3.09750,-4.65500,0.00000,-0.01086,0.00732,-0.98527,2023,6,12,13,38,47,805
0.01330,3.20250,-4.70750,0.00000,-0.01147,0.00976,-0.98637,2023,6,12,13,38,47,816
0.01340,2.97500,-4.55000,0.00000,-0.01049,0.00854,-0.98722,2023,6,12,13,38,47,827
0.01350,3.09750,-4.56750,0.00000,-0.01013,0.00854,-0.98613,2023,6,12,13,38,47,838
0.01360,3.06250,-4.55000,0.00000,-0.01110,0.00952,-0.98783,2023,6,12,13,38,47,850
0.01370,3.04500,-4.44500,0.00000,-0.01098,0.00854,-0.98564,2023,6,12,13,38,47,861
0.01380,2.85250,-4.37500,0.00000,-0.01147,0.00891,-0.98491,2023,6,12,13,38,47,872
0.01390,3.13250,-4.72500,0.00000,-0.00976,0.01025,-0.98869,2023,6,12,13,38,47,883
0.01400,2.88750,-4.34000,0.00000,-0.00976,0.01061,-0.98771,2023,6,12,13,38,47,894
0.01410,3.13250,-4.34000,0.00000,-0.01122,0.00976,-0.98722,2023,6,12,13,38,47,905
0.01420,3.16750,-4.65500,0.00000,-0.01037,0.00976,-0.98832,2023,6,12,13,38,47,916
0.01430,3.06250,-4.76000,0.00000,-0.01122,0.00878,-0.98771,2023,6,12,13,38,47,927
0.01440,2.87000,-4.42750,0.00000,-0.01269,0.00830,-0.98954,2023,6,12,13,38,47,938
0.01450,3.27250,-4.72500,0.00000,-0.01183,0.00866,-0.98674,2023,6,12,13,38,47,950
0.01460,2.99250,-4.55000,0.00000,-0.01135,0.00805,-0.98466,2023,6,12,13,38,47,961
0.01470,3.18500,-4.76000,0.00000,-0.01318,0.00756,-0.98661,2023,6,12,13,38,48,2
0.01480,3.11500,-4.56750,0.00000,-0.01147,0.00781,-0.98564,2023,6,12,13,38,48,13
0.01490,2.99250,-4.42750,0.00000,-0.01110,0.00866,-0.98259,2023,6,12,13,38,48,24
0.01500,3.18500,-4.49750,0.00000,-0.01147,0.01086,-0.98613,2023,6,12,13,38,48,35
0.01510,3.04500,-4.72500,0.00000,-0.01354,0.00878,-0.98649,2023,6,12,13,38,48,46
0.01520,3.13250,-4.70750,0.00000,-0.01159,0.01110,-0.98600,2023,6,12,13,38,48,57
0.01530,3.06250,-4.49750,0.00000,-0.01232,0.00976,-0.98613,2023,6,12,13,38,48,68
0.01540,3.09750,-4.72500,0.00000,-0.00939,0.00927,-0.98674,2023,6,12,13,38,48,80
0.01550,3.15000,-4.58500,0.00000,-0.01208,0.01171,-0.98686,2023,6,12,13,38,48,91
0.01560,3.16750,-4.39250,0.00000,-0.01269,0.00793,-0.98832,2023,6,12,13,38,48,102
0.01570,2.99250,-4.56750,0.00000,-0.01049,0.00647,-0.98966,2023,6,12,13,38,48,113
0.01580,3.06250,-4.27000,0.00000,-0.01000,0.00952,-0.98576,2023,6,12,13,38,48,124
0.01590,3.04500,-4.56750,0.00000,-0.01013,0.00830,-0.98637,2023,6,12,13,38,48,135
0.01600,3.23750,-4.58500,0.00000,-0.01086,0.00866,-0.98661,2023,6,12,13,38,48,146
0.01610,3.18500,-4.62000,0.00000,-0.01257,0.00927,-0.98710,2023,6,12,13,38,48,157
0.01620,3.20250,-4.49750,0.00000,-0.01135,0.00903,-0.98844,2023,6,12,13,38,48,168
0.01630,3.06250,-4.63750,0.00000,-0.01013,0.00842,-0.98710,2023,6,12,13,38,48,180
0.01640,3.11500,-4.51500,0.00000,-0.00915,0.00976,-0.98600,2023,6,12,13,38,48,191
0.01650,3.01000,-4.48000,0.00000,-0.01122,0.00781,-0.98979,2023,6,12,13,38,48,202
0.01660,3.04500,-4.84750,0.00000,-0.01000,0.01074,-0.98491,2023,6,12,13,38,48,213
0.01670,3.20250,-4.70750,0.00000,-0.01159,0.00854,-0.98637,2023,6,12,13,38,48,224
0.01680,3.02750,-4.51500,0.00000,-0.00915,0.01049,-0.98515,2023,6,12,13,38,48,235
0.01690,3.08000,-4.69000,0.00000,-0.01330,0.00793,-0.98576,2023,6,12,13,38,48,246
0.01700,3.04500,-4.56750,0.00000,-0.01086,0.00842,-0.99101,2023,6,12,13,38,48,257
0.01710,2.94000,-4.44500,0.00000,-0.01281,0.00952,-0.98759,2023,6,12,13,38,48,268
0.01720,3.11500,-4.44500,0.00000,-0.01208,0.00988,-0.98722,2023,6,12,13,38,48,280
0.01730,3.08000,-4.63750,0.00000,-0.01293,0.00793,-0.98869,2023,6,12,13,38,48,291
0.01740,3.02750,-4.63750,0.00000,-0.01135,0.00817,-0.98661,2023,6,12,13,38,48,302
0.01750,3.06250,-4.58500,0.00000,-0.01061,0.00854,-0.98539,2023,6,12,13,38,48,313
0.01760,3.04500,-4.44500,0.00000,-0.01074,0.00878,-0.98661,2023,6,12,13,38,48,324
0.01770,2.92250,-4.41000,0.00000,-0.01061,0.01013,-0.98698,2023,6,12,13,38,48,335
0.01780,3.22000,-4.56750,0.00000,-0.01257,0.00842,-0.98832,2023,6,12,13,38,48,346
0.01790,3.02750,-4.63750,0.00000,-0.01098,0.01074,-0.98857,2023,6,12,13,38,48,357
0.01800,3.20250,-4.48000,0.00000,-0.01074,0.00854,-0.98783,2023,6,12,13,38,48,368
0.01810,3.02750,-4.62000,0.00000,-0.01330,0.00854,-0.98832,2023,6,12,13,38,48,380
0.01820,3.11500,-4.56750,0.00000,-0.01110,0.00866,-0.98979,2023,6,12,13,38,48,391
0.01830,3.27250,-4.65500,0.00000,-0.01171,0.00805,-0.98661,2023,6,12,13,38,48,402
0.01840,3.02750,-4.49750,0.00000,-0.01281,0.00988,-0.98600,2023,6,12,13,38,48,413
0.01850,3.18500,-4.51500,0.00000,-0.01147,0.01061,-0.98442,2023,6,12,13,38,48,424
0.01860,3.22000,-4.81250,0.00000,-0.00927,0.00854,-0.98674,2023,6,12,13,38,48,435
0.01870,3.11500,-4.46250,0.00000,-0.01208,0.00866,-0.98527,2023,6,12,13,38,48,446
0.01880,3.08000,-4.76000,0.00000,-0.01074,0.01013,-0.98344,2023,6,12,13,38,48,457
0.01890,3.11500,-4.55000,0.00000,-0.01342,0.01196,-0.98588,2023,6,12,13,38,48,468
0.01900,3.11500,-4.67250,0.00000,-0.01269,0.00915,-0.98613,2023,6,12,13,38,48,480
0.01910,2.95750,-4.56750,0.00000,-0.01147,0.00903,-0.98820,2023,6,12,13,38,48,491
0.01920,3.06250,-4.55000,0.00000,-0.01086,0.01037,-0.98844,2023,6,12,13,38,48,502
0.01930,2.94000,-4.58500,0.00000,-0.00939,0.00805,-0.98576,2023,6,12,13,38,48,513
0.01940,2.99250,-4.56750,0.00000,-0.01086,0.00671,-0.98661,2023,6,12,13,38,48,524
0.01950,3.04500,-4.51500,0.00000,-0.01183,0.01000,-0.98796,2023,6,12,13,38,48,535
0.01960,2.95750,-4.48000,0.00000,-0.01208,0.01013,-0.98698,2023,6,12,13,38,48,546
0.01970,3.18500,-4.63750,0.00000,-0.01000,0.00964,-0.98771,2023,6,12,13,38,48,557
0.01980,3.09750,-4.42750,0.00000,-0.00915,0.00915,-0.98576,2023,6,12,13,38,48,568
0.01990,3.18500,-4.74250,0.00000,-0.01244,0.00903,-0.98881,2023,6,12,13,38,48,580
0.02000,2.97500,-4.55000,0.00000,-0.01232,0.00866,-0.98869,2023,6,12,13,38,48,591
0.02010,3.25500,-4.41000,0.00000,-0.01074,0.00878,-0.98417,2023,6,12,13,38,48,602
0.02020,3.25500,-4.74250,0.00000,-0.01147,0.00939,-0.98808,2023,6,12,13,38,48,613
0.02030,2.97500,-4.58500,0.00000,-0.01232,0.01061,-0.98661,2023,6,12,13,38,48,624
0.02040,3.15000,-4.62000,0.00000,-0.01074,0.01147,-0.98332,2023,6,12,13,38,48,635
0.02050,3.01000,-4.65500,0.00000,-0.01135,0.01098,-0.98759,2023,6,12,13,38,48,646
0.02060,3.04500,-4.60250,0.00000,-0.01013,0.01098,-0.98771,2023,6,12,13,38,48,657
0.02070,3.08000,-4.60250,0.00000,-0.01232,0.01049,-0.98661,2023,6,12,13,38,48,668
0.02080,3.23750,-4.69000,0.00000,-0.01171,0.00964,-0.98722,2023,6,12,13,38,48,680
0.02090,3.09750,-4.77750,0.00000,-0.01342,0.00720,-0.98844,2023,6,12,13,38,48,691
0.02100,3.04500,-4.35750,0.00000,-0.01220,0.00915,-0.98735,2023,6,12,13,38,48,702
0.02110,3.22000,-4.44500,0.00000,-0.01208,0.00805,-0.98966,2023,6,12,13,38,48,713
0.02120,3.06250,-4.65500,0.00000,-0.01098,0.00891,-0.98625,2023,6,12,13,38,48,724
0.02130,3.23750,-4.67250,0.00000,-0.01208,0.01098,-0.98966,2023,6,12,13,38,48,735
0.02140,2.90500,-4.42750,0.00000,-0.01159,0.01061,-0.98649,2023,6,12,13,38,48,746
0.02150,2.94000,-4.41000,0.00000,-0.01086,0.00939,-0.98710,2023,6,12,13,38,48,757
0.02160,3.02750,-4.49750,0.00000,-0.01232,0.01013,-0.98576,2023,6,12,13,38,48,768
0.02170,2.97500,-4.55000,0.00000,-0.01244,0.00976,-0.98722,2023,6,12,13,38,48,780
0.02180,3.30750,-4.51500,0.00000,-0.01232,0.00915,-0.98649,2023,6,12,13,38,48,791
0.02190,3.18500,-4.53250,0.00000,-0.01171,0.00964,-0.98588,2023,6,12,13,38,48,802
0.02200,3.02750,-4.27000,0.00000,-0.01220,0.00830,-0.99015,2023,6,12,13,38,48,813
0.02210,2.83500,-4.72500,0.00000,-0.01220,0.00805,-0.98320,2023,6,12,13,38,48,824
0.02220,3.20250,-4.56750,0.00000,-0.01196,0.00927,-0.98491,2023,6,12,13,38,48,835
0.02230,2.99250,-4.35750,0.00000,-0.01257,0.00939,-0.98857,2023,6,12,13,38,48,846
0.02240,3.18500,-4.65500,0.00000,-0.01086,0.00903,-0.98722,2023,6,12,13,38,48,857
0.02250,3.08000,-4.48000,0.00000,-0.00878,0.00842,-0.98539,2023,6,12,13,38,48,868
0.02260,3.04500,-4.39250,0.00000,-0.01318,0.01074,-0.98722,2023,6,12,13,38,48,880
0.02270,2.83500,-4.67250,0.00000,-0.01037,0.00891,-0.98808,2023,6,12,13,38,48,891
0.02280,2.94000,-4.58500,0.00000,-0.01183,0.01013,-0.98454,2023,6,12,13,38,48,902
0.02290,2.94000,-4.48000,0.00000,-0.01183,0.00927,-0.98710,2023,6,12,13,38,48,913
0.02300,3.01000,-4.48000,0.00000,-0.01232,0.00817,-0.98796,2023,6,12,13,38,48,924
0.02310,3.11500,-4.56750,0.00000,-0.01135,0.00793,-0.98735,2023,6,12,13,38,48,935
0.02320,3.09750,-4.69000,0.00000,-0.01183,0.01049,-0.98625,2023,6,12,13,38,48,946
0.02330,3.02750,-4.41000,0.00000,-0.00976,0.01098,-0.98600,2023,6,12,13,38,48,957
0.02340,3.15000,-4.72500,0.00000,-0.01074,0.01037,-0.98674,2023,6,12,13,38,48,968
0.02350,3.09750,-4.81250,0.00000,-0.01159,0.00817,-0.98747,2023,6,12,13,38,49,0
0.02360,2.92250,-4.44500,0.00000,-0.01147,0.00817,-0.98783,2023,6,12,13,38,49,11
0.02370,3.15000,-4.48000,0.00000,-0.01208,0.01000,-0.98905,2023,6,12,13,38,49,22
0.02380,3.18500,-4.48000,0.00000,-0.01098,0.00830,-0.98771,2023,6,12,13,38,49,33
0.02390,3.18500,-4.69000,0.00000,-0.01269,0.01049,-0.98661,2023,6,12,13,38,49,44
0.02400,2.97500,-4.60250,0.00000,-0.01037,0.00927,-0.98857,2023,6,12,13,38,49,55
0.02410,3.08000,-4.60250,0.00000,-0.01208,0.00830,-0.98600,2023,6,12,13,38,49,66
0.02420,3.16750,-4.49750,0.00000,-0.01110,0.01013,-0.98527,2023,6,12,13,38,49,77
0.02430,2.85250,-4.60250,0.00000,-0.01269,0.00866,-0.98796,2023,6,12,13,38,49,88
0.02440,3.11500,-4.55000,0.00000,-0.01074,0.00988,-0.98869,2023,6,12,13,38,49,100
0.02450,3.09750,-4.51500,0.00000,-0.01086,0.01098,-0.98686,2023,6,12,13,38,49,111
0.02460,3.08000,-4.44500,0.00000,-0.00988,0.00915,-0.98454,2023,6,12,13,38,49,122
0.02470,3.06250,-4.58500,0.00000,-0.01135,0.00854,-0.99003,2023,6,12,13,38,49,133
0.02480,3.23750,-4.63750,0.00000,-0.00939,0.00915,-0.98649,2023,6,12,13,38,49,144
0.02490,2.99250,-4.58500,0.00000,-0.01269,0.00744,-0.98722,2023,6,12,13,38,49,155
0.02500,3.08000,-4.55000,0.00000,-0.01110,0.00964,-0.98722,2023,6,12,13,38,49,166
0.02510,2.97500,-4.48000,0.00000,-0.01110,0.00866,-0.98625,2023,6,12,13,38,49,177
0.02520,2.97500,-4.58500,0.00000,-0.01025,0.00952,-0.98979,2023,6,12,13,38,49,188
0.02530,3.16750,-4.49750,0.00000,-0.01086,0.01013,-0.98759,2023,6,12,13,38,49,200
0.02540,3.15000,-4.70750,0.00000,-0.01025,0.00842,-0.98491,2023,6,12,13,38,49,211
0.02550,3.08000,-4.65500,0.00000,-0.01147,0.01000,-0.98637,2023,6,12,13,38,49,222
0.02560,3.09750,-4.70750,0.00000,-0.01086,0.00817,-0.98564,2023,6,12,13,38,49,233
0.02570,3.13250,-4.35750,0.00000,-0.01220,0.00878,-0.98808,2023,6,12,13,38,49,244
0.02580,3.15000,-4.67250,0.00000,-0.01061,0.01037,-0.98918,2023,6,12,13,38,49,255
0.02590,3.13250,-4.56750,0.00000,-0.00976,0.00952,-0.98674,2023,6,12,13,38,49,266
0.02600,3.18500,-4.60250,0.00000,-0.01208,0.00720,-0.98661,2023,6,12,13,38,49,277
0.02610,3.15000,-4.60250,0.00000,-0.01257,0.00805,-0.98405,2023,6,12,13,38,49,288
0.02620,3.11500,-4.39250,0.00000,-0.01147,0.00939,-0.98710,2023,6,12,13,38,49,300
0.02630,3.08000,-4.74250,0.00000,-0.01269,0.00842,-0.98844,2023,6,12,13,38,49,311
0.02640,3.04500,-4.55000,0.00000,-0.01196,0.00952,-0.98735,2023,6,12,13,38,49,322
0.02650,3.18500,-4.56750,0.00000,-0.01147,0.00756,-0.98674,2023,6,12,13,38,49,333
0.02660,3.06250,-4.77750,0.00000,-0.01086,0.00903,-0.98576,2023,6,12,13,38,49,344
0.02670,2.99250,-4.62000,0.00000,-0.01061,0.00793,-0.98893,2023,6,12,13,38,49,355
0.02680,2.94000,-4.53250,0.00000,-0.01025,0.00891,-0.98966,2023,6,12,13,38,49,366
0.02690,3.02750,-4.56750,0.00000,-0.01135,0.00830,-0.98869,2023,6,12,13,38,49,377
0.02700,3.29000,-4.53250,0.00000,-0.01135,0.01037,-0.98564,2023,6,12,13,38,49,388
0.02710,3.11500,-4.69000,0.00000,-0.01037,0.00915,-0.98783,2023,6,12,13,38,49,400
0.02720,3.02750,-4.67250,0.00000,-0.01147,0.01074,-0.98503,2023,6,12,13,38,49,411
0.02730,3.15000,-4.55000,0.00000,-0.01305,0.00952,-0.98527,2023,6,12,13,38,49,422
0.02740,2.90500,-4.58500,0.00000,-0.01000,0.00903,-0.98625,2023,6,12,13,38,49,433
0.02750,3.06250,-4.49750,0.00000,-0.01013,0.00927,-0.99113,2023,6,12,13,38,49,444
0.02760,3.08000,-4.28750,0.00000,-0.01037,0.00915,-0.98503,2023,6,12,13,38,49,455
0.02770,3.22000,-4.65500,0.00000,-0.01110,0.00866,-0.98759,2023,6,12,13,38,49,466
0.02780,3.13250,-4.49750,0.00000,-0.01171,0.00903,-0.98539,2023,6,12,13,38,49,477
0.02790,3.16750,-4.65500,0.00000,-0.01122,0.01232,-0.98771,2023,6,12,13,38,49,488
0.02800,3.01000,-4.55000,0.00000,-0.01098,0.00817,-0.98564,2023,6,12,13,38,49,500
0.02810,3.02750,-4.42750,0.00000,-0.00915,0.00927,-0.98552,2023,6,12,13,38,49,511
0.02820,3.02750,-4.30500,0.00000,-0.01208,0.00927,-0.98771,2023,6,12,13,38,49,522
0.02830,3.15000,-4.49750,0.00000,-0.01074,0.00976,-0.98771,2023,6,12,13,38,49,533
0.02840,3.02750,-4.55000,0.00000,-0.01025,0.00878,-0.98613,2023,6,12,13,38,49,544
0.02850,3.18500,-4.62000,0.00000,-0.01135,0.01013,-0.98893,2023,6,12,13,38,49,555
0.02860,3.09750,-4.55000,0.00000,-0.01074,0.01159,-0.98625,2023,6,12,13,38,49,566
0.02870,3.09750,-4.53250,0.00000,-0.01074,0.00915,-0.98661,2023,6,12,13,38,49,577
0.02880,3.16750,-4.77750,0.00000,-0.01074,0.00927,-0.98491,2023,6,12,13,38,49,588
0.02890,3.13250,-4.42750,0.00000,-0.01025,0.00878,-0.98369,2023,6,12,13,38,49,600
0.02900,2.99250,-4.21750,0.00000,-0.01159,0.00817,-0.98759,2023,6,12,13,38,49,611
0.02910,3.06250,-4.60250,0.00000,-0.01208,0.00939,-0.98637,2023,6,12,13,38,49,622
0.02920,3.18500,-4.65500,0.00000,-0.01159,0.00756,-0.98564,2023,6,12,13,38,49,633
0.02930,2.97500,-4.74250,0.00000,-0.01269,0.00903,-0.98576,2023,6,12,13,38,49,644
0.02940,3.11500,-4.60250,0.00000,-0.01183,0.00854,-0.98698,2023,6,12,13,38,49,655
0.02950,3.01000,-4.76000,0.00000,-0.00891,0.00793,-0.98735,2023,6,12,13,38,49,666
0.02960,3.09750,-4.67250,0.00000,-0.01208,0.00939,-0.98844,2023,6,12,13,38,49,677
0.02970,3.04500,-4.60250,0.00000,-0.01135,0.00903,-0.98844,2023,6,12,13,38,49,688
0.02980,3.01000,-4.56750,0.00000,-0.01122,0.01037,-0.98759,2023,6,12,13,38,49,700
0.02990,2.94000,-4.62000,0.00000,-0.01232,0.00732,-0.98857,2023,6,12,13,38,49,711
0.03000,3.08000,-4.41000,0.00000,-0.01147,0.00817,-0.98966,2023,6,12,13,38,49,722
0.03010,3.04500,-4.62000,0.00000,-0.01122,0.00878,-0.98625,2023,6,12,13,38,49,733
0.03020,3.02750,-4.48000,0.00000,-0.00952,0.00952,-0.98674,2023,6,12,13,38,49,744
0.03030,3.04500,-4.55000,0.00000,-0.01135,0.00805,-0.98735,2023,6,12,13,38,49,755
0.03040,3.11500,-4.56750,0.00000,-0.01061,0.01037,-0.98369,2023,6,12,13,38,49,766
0.03050,3.09750,-4.48000,0.00000,-0.01098,0.01013,-0.98783,2023,6,12,13,38,49,777
0.03060,3.02750,-4.67250,0.00000,-0.00988,0.00769,-0.98710,2023,6,12,13,38,49,788
0.03070,3.29000,-4.46250,0.00000,-0.01232,0.01196,-0.98698,2023,6,12,13,38,49,800
0.03080,3.15000,-4.42750,0.00000,-0.01135,0.00988,-0.98625,2023,6,12,13,38,49,811
0.03090,3.13250,-4.46250,0.00000,-0.01147,0.01049,-0.98576,2023,6,12,13,38,49,822
0.03100,3.11500,-4.44500,0.00000,-0.01147,0.01086,-0.98698,2023,6,12,13,38,49,833
0.03110,3.01000,-4.62000,0.00000,-0.01244,0.00927,-0.98686,2023,6,12,13,38,49,844
0.03120,2.90500,-4.74250,0.00000,-0.01122,0.00903,-0.98698,2023,6,12,13,38,49,855
0.03130,2.92250,-4.51500,0.00000,-0.01232,0.00842,-0.98759,2023,6,12,13,38,49,866
0.03140,3.32500,-4.55000,0.00000,-0.01086,0.00830,-0.98759,2023,6,12,13,38,49,877
0.03150,2.95750,-4.53250,0.00000,-0.01074,0.01171,-0.98698,2023,6,12,13,38,49,888
0.03160,3.04500,-4.60250,0.00000,-0.01147,0.00903,-0.98600,2023,6,12,13,38,49,900
0.03170,3.16750,-4.79500,0.00000,-0.01196,0.01025,-0.98783,2023,6,12,13,38,49,911
0.03180,3.01000,-4.44500,0.00000,-0.01232,0.00952,-0.98783,2023,6,12,13,38,49,922
0.03190,3.09750,-4.41000,0.00000,-0.00988,0.00781,-0.98820,2023,6,12,13,38,49,933
0.03200,3.01000,-4.56750,0.00000,-0.01049,0.01000,-0.98869,2023,6,12,13,38,49,944
0.03210,3.09750,-4.60250,0.00000,-0.00976,0.00976,-0.98625,2023,6,12,13,38,49,955
0.03220,3.06250,-4.58500,0.00000,-0.01122,0.00781,-0.98686,2023,6,12,13,38,50,6
0.03230,3.09750,-4.55000,0.00000,-0.01061,0.00695,-0.98674,2023,6,12,13,38,50,17
0.03240,2.92250,-4.41000,0.00000,-0.01110,0.00866,-0.98698,2023,6,12,13,38,50,28
0.03250,2.92250,-4.49750,0.00000,-0.01232,0.01037,-0.98930,2023,6,12,13,38,50,40
0.03260,3.15000,-4.63750,0.00000,-0.01196,0.00915,-0.98625,2023,6,12,13,38,50,51
0.03270,2.99250,-4.53250,0.00000,-0.01122,0.01000,-0.98393,2023,6,12,13,38,50,62
0.03280,2.97500,-4.25250,0.00000,-0.01025,0.00854,-0.98576,2023,6,12,13,38,50,73
0.03290,3.01000,-4.76000,0.00000,-0.01183,0.01122,-0.98552,2023,6,12,13,38,50,84
0.03300,3.20250,-4.51500,0.00000,-0.01013,0.00915,-0.98539,2023,6,12,13,38,50,95
0.03310,3.09750,-4.48000,0.00000,-0.01049,0.00866,-0.98417,2023,6,12,13,38,50,106
0.03320,3.06250,-4.56750,0.00000,-0.01220,0.00976,-0.98661,2023,6,12,13,38,50,117
0.03330,3.15000,-4.56750,0.00000,-0.01061,0.00817,-0.98527,2023,6,12,13,38,50,128
0.03340,2.95750,-4.42750,0.00000,-0.01122,0.00964,-0.98686,2023,6,12,13,38,50,140
0.03350,3.11500,-4.60250,0.00000,-0.01281,0.01037,-0.98674,2023,6,12,13,38,50,151
0.03360,3.09750,-4.46250,0.00000,-0.01000,0.00781,-0.98600,2023,6,12,13,38,50,162
0.03370,3.01000,-4.49750,0.00000,-0.00988,0.00988,-0.98637,2023,6,12,13,38,50,173
0.03380,2.88750,-4.51500,0.00000,-0.01061,0.00793,-0.98576,2023,6,12,13,38,50,184
0.03390,3.15000,-4.58500,0.00000,-0.01196,0.00891,-0.98808,2023,6,12,13,38,50,195
0.03400,2.88750,-4.41000,0.00000,-0.01061,0.00988,-0.98600,2023,6,12,13,38,50,206
0.03410,3.11500,-4.44500,0.00000,-0.01000,0.00732,-0.98698,2023,6,12,13,38,50,217
0.03420,2.88750,-4.53250,0.00000,-0.01244,0.00952,-0.99064,2023,6,12,13,38,50,228
0.03430,2.95750,-4.44500,0.00000,-0.01403,0.00915,-0.98564,2023,6,12,13,38,50,240
0.03440,2.88750,-4.51500,0.00000,-0.01220,0.00927,-0.98613,2023,6,12,13,38,50,251
0.03450,2.88750,-4.35750,0.00000,-0.01208,0.00915,-0.98527,2023,6,12,13,38,50,262
0.03460,2.95750,-4.41000,0.00000,-0.00891,0.00866,-0.98698,2023,6,12,13,38,50,273
0.03470,2.97500,-4.63750,0.00000,-0.01086,0.00842,-0.98722,2023,6,12,13,38,50,284
0.03480,3.15000,-4.60250,0.00000,-0.01257,0.00830,-0.98564,2023,6,12,13,38,50,295
0.03490,2.69500,-4.51500,0.00000,-0.01061,0.00805,-0.98796,2023,6,12,13,38,50,306
0.03500,3.25500,-4.70750,0.00000,-0.01000,0.01000,-0.98686,2023,6,12,13,38,50,317
0.03510,3.08000,-4.48000,0.00000,-0.01135,0.00878,-0.98625,2023,6,12,13,38,50,328
0.03520,3.04500,-4.65500,0.00000,-0.01135,0.00915,-0.98417,2023,6,12,13,38,50,340
0.03530,3.01000,-4.69000,0.00000,-0.01208,0.00976,-0.98576,2023,6,12,13,38,50,351
0.03540,3.11500,-4.62000,0.00000,-0.01171,0.00756,-0.98564,2023,6,12,13,38,50,362
0.03550,3.09750,-4.51500,0.00000,-0.01061,0.01135,-0.98637,2023,6,12,13,38,50,373
0.03560,3.08000,-4.46250,0.00000,-0.01244,0.00964,-0.99076,2023,6,12,13,38,50,384
0.03570,3.09750,-4.88250,0.00000,-0.01171,0.00756,-0.98430,2023,6,12,13,38,50,395
0.03580,3.09750,-4.70750,0.00000,-0.00976,0.00842,-0.98698,2023,6,12,13,38,50,406
0.03590,3.08000,-4.53250,0.00000,-0.01244,0.00781,-0.98771,2023,6,12,13,38,50,417
0.03600,3.20250,-4.60250,0.00000,-0.01122,0.00927,-0.98771,2023,6,12,13,38,50,428
0.03610,3.15000,-4.77750,0.00000,-0.01013,0.00903,-0.98552,2023,6,12,13,38,50,440
0.03620,3.06250,-4.53250,0.00000,-0.01220,0.01074,-0.98698,2023,6,12,13,38,50,451
0.03630,3.08000,-4.67250,0.00000,-0.01135,0.00866,-0.98783,2023,6,12,13,38,50,462
0.03640,3.06250,-4.56750,0.00000,-0.01183,0.00927,-0.98710,2023,6,12,13,38,50,473
0.03650,3.04500,-4.49750,0.00000,-0.01110,0.00952,-0.99052,2023,6,12,13,38,50,484
0.03660,3.23750,-4.62000,0.00000,-0.01159,0.01159,-0.98771,2023,6,12,13,38,50,495
0.03670,2.87000,-4.49750,0.00000,-0.01135,0.01037,-0.98771,2023,6,12,13,38,50,506
0.03680,2.90500,-4.41000,0.00000,-0.01000,0.00927,-0.98503,2023,6,12,13,38,50,517
0.03690,3.06250,-4.79500,0.00000,-0.00988,0.00964,-0.98771,2023,6,12,13,38,50,528
0.03700,3.08000,-4.63750,0.00000,-0.01208,0.00891,-0.98686,2023,6,12,13,38,50,540
0.03710,2.97500,-4.60250,0.00000,-0.01098,0.00732,-0.98832,2023,6,12,13,38,50,551
0.03720,3.29000,-4.60250,0.00000,-0.00939,0.00854,-0.98747,2023,6,12,13,38,50,562
0.03730,2.81750,-4.56750,0.00000,-0.01257,0.00842,-0.98954,2023,6,12,13,38,50,573
0.03740,3.08000,-4.42750,0.00000,-0.01147,0.00793,-0.98832,2023,6,12,13,38,50,584
0.03750,2.97500,-4.74250,0.00000,-0.01013,0.00939,-0.98991,2023,6,12,13,38,50,595
0.03760,3.13250,-4.65500,0.00000,-0.01074,0.01086,-0.98564,2023,6,12,13,38,50,606
0.03770,3.08000,-4.58500,0.00000,-0.01232,0.00939,-0.98820,2023,6,12,13,38,50,617
0.03780,3.04500,-4.60250,0.00000,-0.01122,0.01171,-0.98796,2023,6,12,13,38,50,628
0.03790,3.02750,-4.49750,0.00000,-0.00964,0.00903,-0.98722,2023,6,12,13,38,50,640
0.03800,3.13250,-4.65500,0.00000,-0.01147,0.00915,-0.98600,2023,6,12,13,38,50,651
0.03810,2.92250,-4.42750,0.00000,-0.00842,0.01037,-0.98564,2023,6,12,13,38,50,662
0.03820,3.01000,-4.55000,0.00000,-0.01305,0.00891,-0.98491,2023,6,12,13,38,50,673
0.03830,2.99250,-4.70750,0.00000,-0.01135,0.00927,-0.98735,2023,6,12,13,38,50,684
0.03840,2.87000,-4.60250,0.00000,-0.01183,0.00915,-0.98747,2023,6,12,13,38,50,695
0.03850,3.04500,-4.42750,0.00000,-0.01037,0.00866,-0.98991,2023,6,12,13,38,50,706
0.03860,2.94000,-4.55000,0.00000,-0.01098,0.00744,-0.98954,2023,6,12,13,38,50,717
0.03870,3.06250,-4.70750,0.00000,-0.01086,0.00830,-0.98979,2023,6,12,13,38,50,728
0.03880,3.02750,-4.35750,0.00000,-0.01122,0.01061,-0.98478,2023,6,12,13,38,50,740
0.03890,3.11500,-4.39250,0.00000,-0.01183,0.00988,-0.98954,2023,6,12,13,38,50,751
0.03900,3.02750,-4.69000,0.00000,-0.01074,0.01025,-0.98503,2023,6,12,13,38,50,762
0.03910,3.15000,-4.77750,0.00000,-0.01488,0.00866,-0.98722,2023,6,12,13,38,50,773
0.03920,2.95750,-4.58500,0.00000,-0.00976,0.01000,-0.98722,2023,6,12,13,38,50,784
0.03930,3.08000,-4.35750,0.00000,-0.00830,0.00891,-0.98759,2023,6,12,13,38,50,795
0.03940,3.06250,-4.48000,0.00000,-0.01000,0.00927,-0.98686,2023,6,12,13,38,50,806
0.03950,3.02750,-4.60250,0.00000,-0.01074,0.00988,-0.98918,2023,6,12,13,38,50,817
0.03960,3.13250,-4.48000,0.00000,-0.01000,0.00976,-0.98930,2023,6,12,13,38,50,828
0.03970,3.29000,-4.69000,0.00000,-0.01196,0.01025,-0.98491,2023,6,12,13,38,50,840
0.03980,2.99250,-4.48000,0.00000,-0.01013,0.01013,-0.98808,2023,6,12,13,38,50,851
0.03990,2.90500,-4.35750,0.00000,-0.01147,0.01135,-0.98649,2023,6,12,13,38,50,862
0.04000,2.99250,-4.69000,0.00000,-0.01037,0.00976,-0.98722,2023,6,12,13,38,50,873
0.04010,3.04500,-4.46250,0.00000,-0.01061,0.00830,-0.98625,2023,6,12,13,38,50,884
0.04020,3.20250,-4.65500,0.00000,-0.00976,0.00915,-0.98674,2023,6,12,13,38,50,895
0.04030,3.08000,-4.44500,0.00000,-0.01025,0.00891,-0.98783,2023,6,12,13,38,50,906
0.04040,2.81750,-4.51500,0.00000,-0.01000,0.00854,-0.98710,2023,6,12,13,38,50,917
0.04050,3.18500,-4.37500,0.00000,-0.00903,0.01025,-0.98417,2023,6,12,13,38,50,928
0.04060,3.06250,-4.48000,0.00000,-0.01208,0.00854,-0.98393,2023,6,12,13,38,50,940
0.04070,3.09750,-4.48000,0.00000,-0.01037,0.00793,-0.98735,2023,6,12,13,38,50,951
0.04080,3.25500,-4.46250,0.00000,-0.01135,0.00939,-0.98478,2023,6,12,13,38,50,962
0.04090,3.08000,-4.53250,0.00000,-0.01220,0.00866,-0.98539,2023,6,12,13,38,50,973
0.04100,2.92250,-4.65500,0.00000,-0.01196,0.00854,-0.98820,2023,6,12,13,38,51,4
0.04110,3.02750,-4.65500,0.00000,-0.01110,0.01025,-0.98661,2023,6,12,13,38,51,15
0.04120,3.11500,-4.62000,0.00000,-0.01220,0.00720,-0.98832,2023,6,12,13,38,51,26
0.04130,3.09750,-4.49750,0.00000,-0.01049,0.00915,-0.98564,2023,6,12,13,38,51,37
0.04140,3.18500,-4.48000,0.00000,-0.01208,0.00915,-0.98613,2023,6,12,13,38,51,48
0.04150,3.04500,-4.35750,0.00000,-0.01037,0.00976,-0.98820,2023,6,12,13,38,51,60
0.04160,3.15000,-4.62000,0.00000,-0.01122,0.00915,-0.98881,2023,6,12,13,38,51,71
0.04170,3.08000,-4.55000,0.00000,-0.01074,0.01074,-0.98527,2023,6,12,13,38,51,82
0.04180,3.08000,-4.53250,0.00000,-0.01122,0.01074,-0.98613,2023,6,12,13,38,51,93
0.04190,2.99250,-4.62000,0.00000,-0.01122,0.00756,-0.98564,2023,6,12,13,38,51,104
0.04200,3.02750,-4.62000,0.00000,-0.01159,0.01025,-0.98735,2023,6,12,13,38,51,115
0.04210,3.02750,-4.49750,0.00000,-0.01074,0.00744,-0.98686,2023,6,12,13,38,51,126
0.04220,3.06250,-4.55000,0.00000,-0.01037,0.00854,-0.98698,2023,6,12,13,38,51,137
0.04230,3.02750,-4.70750,0.00000,-0.01061,0.00915,-0.98722,2023,6,12,13,38,51,148
0.04240,3.18500,-4.55000,0.00000,-0.01354,0.00659,-0.98710,2023,6,12,13,38,51,160
0.04250,3.16750,-4.72500,0.00000,-0.01074,0.00878,-0.98881,2023,6,12,13,38,51,171
0.04260,3.13250,-4.34000,0.00000,-0.01159,0.00781,-0.98442,2023,6,12,13,38,51,182
0.04270,3.09750,-4.58500,0.00000,-0.00878,0.00891,-0.98576,2023,6,12,13,38,51,193
0.04280,3.22000,-4.76000,0.00000,-0.01196,0.01098,-0.98539,2023,6,12,13,38,51,204
0.04290,2.97500,-4.42750,0.00000,-0.01074,0.00805,-0.98576,2023,6,12,13,38,51,215
0.04300,2.83500,-4.60250,0.00000,-0.01269,0.01110,-0.98649,2023,6,12,13,38,51,226
0.04310,3.11500,-4.70750,0.00000,-0.00964,0.00878,-0.98796,2023,6,12,13,38,51,237
0.04320,2.97500,-4.60250,0.00000,-0.01171,0.00866,-0.98808,2023,6,12,13,38,51,248
0.04330,3.29000,-4.58500,0.00000,-0.01159,0.00891,-0.98735,2023,6,12,13,38,51,260
0.04340,2.90500,-4.72500,0.00000,-0.01159,0.00744,-0.98869,2023,6,12,13,38,51,271
0.04350,3.11500,-4.56750,0.00000,-0.00964,0.00964,-0.98991,2023,6,12,13,38,51,282
0.04360,3.01000,-4.60250,0.00000,-0.01086,0.00866,-0.98430,2023,6,12,13,38,51,293
0.04370,3.08000,-4.42750,0.00000,-0.01257,0.00817,-0.98564,2023,6,12,13,38,51,304
0.04380,3.04500,-4.37500,0.00000,-0.01171,0.00915,-0.98613,2023,6,12,13,38,51,315
0.04390,2.97500,-4.44500,0.00000,-0.01110,0.00927,-0.98613,2023,6,12,13,38,51,326
0.04400,3.16750,-4.55000,0.00000,-0.01318,0.00781,-0.98600,2023,6,12,13,38,51,337
0.04410,3.01000,-4.44500,0.00000,-0.01025,0.00964,-0.98649,2023,6,12,13,38,51,348
0.04420,2.97500,-4.48000,0.00000,-0.01232,0.00891,-0.98503,2023,6,12,13,38,51,360
0.04430,3.04500,-4.62000,0.00000,-0.01232,0.00903,-0.98527,2023,6,12,13,38,51,371
0.04440,3.20250,-4.77750,0.00000,-0.01159,0.00842,-0.98771,2023,6,12,13,38,51,382
0.04450,3.16750,-4.60250,0.00000,-0.01135,0.01074,-0.98661,2023,6,12,13,38,51,393
0.04460,3.06250,-4.56750,0.00000,-0.01110,0.00964,-0.98893,2023,6,12,13,38,51,404
0.04470,3.02750,-4.56750,0.00000,-0.01025,0.01049,-0.98771,2023,6,12,13,38,51,415
0.04480,3.18500,-4.77750,0.00000,-0.01183,0.01025,-0.98747,2023,6,12,13,38,51,426
0.04490,3.01000,-4.53250,0.00000,-0.01037,0.01074,-0.98393,2023,6,12,13,38,51,437
0.04500,3.02750,-4.56750,0.00000,-0.01013,0.00708,-0.98735,2023,6,12,13,38,51,448
0.04510,3.18500,-4.76000,0.00000,-0.01098,0.00866,-0.98405,2023,6,12,13,38,51,460
0.04520,3.01000,-4.74250,0.00000,-0.01257,0.00866,-0.98674,2023,6,12,13,38,51,471
0.04530,3.09750,-4.69000,0.00000,-0.01122,0.00793,-0.98552,2023,6,12,13,38,51,482
0.04540,3.29000,-4.56750,0.00000,-0.01049,0.00964,-0.98588,2023,6,12,13,38,51,493
0.04550,3.20250,-4.46250,0.00000,-0.01061,0.00915,-0.98722,2023,6,12,13,38,51,504
0.04560,2.88750,-4.28750,0.00000,-0.00964,0.00866,-0.98820,2023,6,12,13,38,51,515
0.04570,2.78250,-4.42750,0.00000,-0.01159,0.00842,-0.98686,2023,6,12,13,38,51,526
0.04580,3.02750,-4.58500,0.00000,-0.01049,0.00939,-0.98515,2023,6,12,13,38,51,537
0.04590,3.15000,-4.42750,0.00000,-0.01147,0.00927,-0.98698,2023,6,12,13,38,51,548
0.04600,2.99250,-4.44500,0.00000,-0.01403,0.00854,-0.98564,2023,6,12,13,38,51,560
0.04610,3.09750,-4.70750,0.00000,-0.01159,0.00866,-0.98844,2023,6,12,13,38,51,571
0.04620,2.95750,-4.51500,0.00000,-0.01122,0.00842,-0.98625,2023,6,12,13,38,51,582
0.04630,3.06250,-4.55000,0.00000,-0.01354,0.01013,-0.99015,2023,6,12,13,38,51,593
0.04640,3.06250,-4.58500,0.00000,-0.00891,0.00976,-0.98686,2023,6,12,13,38,51,604
0.04650,3.04500,-4.32250,0.00000,-0.01171,0.00793,-0.98613,2023,6,12,13,38,51,615
0.04660,3.16750,-4.74250,0.00000,-0.01013,0.00817,-0.98869,2023,6,12,13,38,51,626
0.04670,3.13250,-4.58500,0.00000,-0.01342,0.00878,-0.98649,2023,6,12,13,38,51,637
0.04680,3.02750,-4.56750,0.00000,-0.01122,0.00964,-0.98686,2023,6,12,13,38,51,648
0.04690,3.09750,-4.56750,0.00000,-0.01086,0.00927,-0.98661,2023,6,12,13,38,51,660
0.04700,2.90500,-4.46250,0.00000,-0.01135,0.00903,-0.98869,2023,6,12,13,38,51,671
0.04710,3.01000,-4.44500,0.00000,-0.01122,0.00842,-0.98942,2023,6,12,13,38,51,682
0.04720,3.23750,-4.58500,0.00000,-0.01135,0.00817,-0.98430,2023,6,12,13,38,51,693
0.04730,3.02750,-4.51500,0.00000,-0.01025,0.00817,-0.98674,2023,6,12,13,38,51,704
0.04740,3.02750,-4.44500,0.00000,-0.01232,0.00915,-0.98686,2023,6,12,13,38,51,715
0.04750,2.92250,-4.63750,0.00000,-0.00842,0.00878,-0.98857,2023,6,12,13,38,51,726
0.04760,2.88750,-4.53250,0.00000,-0.00964,0.00817,-0.98613,2023,6,12,13,38,51,737
0.04770,2.87000,-4.42750,0.00000,-0.01244,0.00891,-0.98783,2023,6,12,13,38,51,748
0.04780,3.01000,-4.30500,0.00000,-0.00976,0.00854,-0.98759,2023,6,12,13,38,51,760
0.04790,2.99250,-4.63750,0.00000,-0.01049,0.00793,-0.98515,2023,6,12,13,38,51,771
0.04800,3.01000,-4.69000,0.00000,-0.01196,0.01025,-0.98649,2023,6,12,13,38,51,782
0.04810,2.90500,-4.37500,0.00000,-0.01110,0.00549,-0.98552,2023,6,12,13,38,51,793
0.04820,2.85250,-4.53250,0.00000,-0.01147,0.01000,-0.98722,2023,6,12,13,38,51,804
0.04830,2.99250,-4.48000,0.00000,-0.01183,0.00976,-0.99003,2023,6,12,13,38,51,815
0.04840,3.20250,-4.60250,0.00000,-0.01013,0.01086,-0.98747,2023,6,12,13,38,51,826
0.04850,3.09750,-4.74250,0.00000,-0.01196,0.00903,-0.98674,2023,6,12,13,38,51,837
0.04860,2.97500,-4.30500,0.00000,-0.00976,0.01049,-0.98588,2023,6,12,13,38,51,848
0.04870,3.06250,-4.58500,0.00000,-0.01037,0.00891,-0.98637,2023,6,12,13,38,51,860
0.04880,2.94000,-4.42750,0.00000,-0.01025,0.01000,-0.98625,2023,6,12,13,38,51,871
0.04890,3.06250,-4.72500,0.00000,-0.00927,0.01049,-0.98820,2023,6,12,13,38,51,882
0.04900,3.09750,-4.60250,0.00000,-0.01171,0.00915,-0.98613,2023,6,12,13,38,51,893
0.04910,2.94000,-4.62000,0.00000,-0.01025,0.00939,-0.98674,2023,6,12,13,38,51,904
0.04920,3.02750,-4.70750,0.00000,-0.01025,0.00988,-0.98674,2023,6,12,13,38,51,915
0.04930,2.94000,-4.74250,0.00000,-0.00927,0.01025,-0.98686,2023,6,12,13,38,51,926
0.04940,3.09750,-4.67250,0.00000,-0.01171,0.00964,-0.98698,2023,6,12,13,38,51,937
0.04950,3.01000,-4.42750,0.00000,-0.01098,0.00756,-0.98942,2023,6,12,13,38,51,948
0.04960,3.04500,-4.58500,0.00000,-0.01293,0.01000,-0.98661,2023,6,12,13,38,51,960
0.04970,3.13250,-4.51500,0.00000,-0.01159,0.00817,-0.98820,2023,6,12,13,38,51,971
0.04980,3.15000,-4.65500,0.00000,-0.01427,0.01000,-0.98637,2023,6,12,13,38,52,2
0.04990,3.11500,-4.70750,0.00000,-0.01098,0.00830,-0.98698,2023,6,12,13,38,52,13
0.05000,3.09750,-4.65500,0.00000,-0.01098,0.01098,-0.98698,2023,6,12,13,38,52,24
0.05010,3.08000,-4.44500,0.00000,-0.01232,0.00830,-0.98552,2023,6,12,13,38,52,35
0.05020,3.13250,-4.53250,0.00000,-0.00939,0.00793,-0.98576,2023,6,12,13,38,52,46
0.05030,3.22000,-4.76000,0.00000,-0.00952,0.00976,-0.98491,2023,6,12,13,38,52,57
0.05040,3.04500,-4.48000,0.00000,-0.00878,0.00939,-0.98783,2023,6,12,13,38,52,68
0.05050,3.22000,-4.79500,0.00000,-0.01196,0.00988,-0.98588,2023,6,12,13,38,52,80
0.05060,3.06250,-4.60250,0.00000,-0.01354,0.01049,-0.98637,2023,6,12,13,38,52,91
0.05070,3.20250,-4.53250,0.00000,-0.01257,0.01037,-0.98515,2023,6,12,13,38,52,102
0.05080,3.16750,-4.70750,0.00000,-0.01464,0.00769,-0.98649,2023,6,12,13,38,52,113
0.05090,2.97500,-4.49750,0.00000,-0.01135,0.00903,-0.98832,2023,6,12,13,38,52,124
0.05100,3.02750,-4.42750,0.00000,-0.01171,0.01074,-0.98661,2023,6,12,13,38,52,135
0.05110,3.15000,-4.41000,0.00000,-0.01220,0.00866,-0.98674,2023,6,12,13,38,52,146
0.05120,3.09750,-4.65500,0.00000,-0.01025,0.01086,-0.98564,2023,6,12,13,38,52,157
0.05130,3.08000,-4.65500,0.00000,-0.01110,0.00939,-0.98783,2023,6,12,13,38,52,168
0.05140,3.30750,-4.55000,0.00000,-0.01122,0.01000,-0.98625,2023,6,12,13,38,52,180
0.05150,3.16750,-4.48000,0.00000,-0.01269,0.00964,-0.98600,2023,6,12,13,38,52,191
0.05160,3.01000,-4.32250,0.00000,-0.01403,0.00769,-0.98918,2023,6,12,13,38,52,202
0.05170,3.08000,-4.63750,0.00000,-0.01269,0.01025,-0.98576,2023,6,12,13,38,52,213
0.05180,3.20250,-4.53250,0.00000,-0.01171,0.01049,-0.98674,2023,6,12,13,38,52,224
0.05190,3.01000,-4.42750,0.00000,-0.01159,0.01000,-0.98808,2023,6,12,13,38,52,235
0.05200,3.13250,-4.63750,0.00000,-0.01098,0.01061,-0.98820,2023,6,12,13,38,52,246
0.05210,3.13250,-4.74250,0.00000,-0.01232,0.00878,-0.98747,2023,6,12,13,38,52,257
0.05220,2.90500,-4.65500,0.00000,-0.01086,0.01000,-0.98857,2023,6,12,13,38,52,268
0.05230,2.95750,-4.42750,0.00000,-0.01086,0.00952,-0.98478,2023,6,12,13,38,52,280
0.05240,3.22000,-4.67250,0.00000,-0.01013,0.00805,-0.98722,2023,6,12,13,38,52,291
0.05250,3.04500,-4.51500,0.00000,-0.01220,0.00891,-0.98759,2023,6,12,13,38,52,302
0.05260,3.09750,-4.60250,0.00000,-0.01049,0.00830,-0.98356,2023,6,12,13,38,52,313
0.05270,3.04500,-4.55000,0.00000,-0.01147,0.00854,-0.98661,2023,6,12,13,38,52,324
0.05280,2.95750,-4.21750,0.00000,-0.01366,0.00830,-0.98783,2023,6,12,13,38,52,335
0.05290,2.90500,-4.49750,0.00000,-0.00903,0.01098,-0.98613,2023,6,12,13,38,52,346
0.05300,3.04500,-4.51500,0.00000,-0.01013,0.00781,-0.98515,2023,6,12,13,38,52,357
0.05310,2.97500,-4.56750,0.00000,-0.01061,0.00903,-0.98564,2023,6,12,13,38,52,368
0.05320,3.09750,-4.44500,0.00000,-0.01110,0.00866,-0.98588,2023,6,12,13,38,52,380
0.05330,2.92250,-4.39250,0.00000,-0.01086,0.00866,-0.98625,2023,6,12,13,38,52,391
0.05340,2.90500,-4.49750,0.00000,-0.01122,0.00805,-0.98710,2023,6,12,13,38,52,402
0.05350,3.15000,-4.55000,0.00000,-0.01061,0.00866,-0.98661,2023,6,12,13,38,52,413
0.05360,2.83500,-4.62000,0.00000,-0.01025,0.00756,-0.98491,2023,6,12,13,38,52,424
0.05370,2.99250,-4.51500,0.00000,-0.01183,0.01013,-0.98661,2023,6,12,13,38,52,435
0.05380,3.09750,-4.69000,0.00000,-0.01232,0.00866,-0.98552,2023,6,12,13,38,52,446
0.05390,3.09750,-4.58500,0.00000,-0.01098,0.00793,-0.98698,2023,6,12,13,38,52,457
0.05400,2.94000,-4.13000,0.00000,-0.00988,0.00927,-0.98735,2023,6,12,13,38,52,468
0.05410,3.30750,-4.41000,0.00000,-0.01171,0.00964,-0.98527,2023,6,12,13,38,52,480
0.05420,2.94000,-4.28750,0.00000,-0.01183,0.00976,-0.98686,2023,6,12,13,38,52,491
0.05430,2.90500,-4.69000,0.00000,-0.00976,0.00842,-0.98661,2023,6,12,13,38,52,502
0.05440,3.16750,-4.63750,0.00000,-0.01208,0.00976,-0.98649,2023,6,12,13,38,52,513
0.05450,3.02750,-4.42750,0.00000,-0.01086,0.00903,-0.98442,2023,6,12,13,38,52,524
0.05460,2.97500,-4.55000,0.00000,-0.00988,0.00744,-0.98454,2023,6,12,13,38,52,535
0.05470,3.04500,-4.63750,0.00000,-0.01074,0.00903,-0.98796,2023,6,12,13,38,52,546
0.05480,2.76500,-4.62000,0.00000,-0.01183,0.00915,-0.98588,2023,6,12,13,38,52,557
0.05490,3.22000,-4.48000,0.00000,-0.01025,0.00939,-0.98539,2023,6,12,13,38,52,568
0.05500,2.90500,-4.58500,0.00000,-0.01061,0.00927,-0.98747,2023,6,12,13,38,52,580
0.05510,3.13250,-4.53250,0.00000,-0.01208,0.00720,-0.98356,2023,6,12,13,38,52,591
0.05520,2.92250,-4.65500,0.00000,-0.01196,0.00964,-0.98759,2023,6,12,13,38,52,602
0.05530,2.92250,-4.69000,0.00000,-0.01122,0.01074,-0.98308,2023,6,12,13,38,52,613
0.05540,3.08000,-4.42750,0.00000,-0.01183,0.00708,-0.98686,2023,6,12,13,38,52,624
0.05550,3.18500,-4.53250,0.00000,-0.01025,0.00708,-0.98478,2023,6,12,13,38,52,635
0.05560,3.11500,-4.28750,0.00000,-0.01110,0.01159,-0.98881,2023,6,12,13,38,52,646
0.05570,3.20250,-4.55000,0.00000,-0.00939,0.00891,-0.98759,2023,6,12,13,38,52,657
0.05580,2.95750,-4.44500,0.00000,-0.00878,0.00952,-0.98466,2023,6,12,13,38,52,668
0.05590,3.22000,-4.39250,0.00000,-0.01147,0.00793,-0.98905,2023,6,12,13,38,52,680
0.05600,3.09750,-4.63750,0.00000,-0.01037,0.00891,-0.98796,2023,6,12,13,38,52,691
0.05610,2.94000,-4.55000,0.00000,-0.01122,0.00805,-0.98771,2023,6,12,13,38,52,702
0.05620,3.02750,-4.56750,0.00000,-0.00891,0.01025,-0.98735,2023,6,12,13,38,52,713
0.05630,3.09750,-4.39250,0.00000,-0.01305,0.00915,-0.98771,2023,6,12,13,38,52,724
0.05640,3.04500,-4.55000,0.00000,-0.01159,0.00952,-0.98454,2023,6,12,13,38,52,735
0.05650,3.18500,-4.44500,0.00000,-0.01171,0.00805,-0.98710,2023,6,12,13,38,52,746
0.05660,3.30750,-4.58500,0.00000,-0.01171,0.00842,-0.98832,2023,6,12,13,38,52,757
0.05670,2.90500,-4.76000,0.00000,-0.01244,0.00927,-0.98625,2023,6,12,13,38,52,768
0.05680,3.04500,-4.48000,0.00000,-0.01122,0.00854,-0.98832,2023,6,12,13,38,52,780
0.05690,2.95750,-4.56750,0.00000,-0.01061,0.01049,-0.98576,2023,6,12,13,38,52,791
0.05700,2.94000,-4.70750,0.00000,-0.01025,0.00756,-0.98857,2023,6,12,13,38,52,802
0.05710,3.11500,-4.69000,0.00000,-0.01074,0.00903,-0.98649,2023,6,12,13,38,52,813
0.05720,3.01000,-4.72500,0.00000,-0.00891,0.00927,-0.98552,2023,6,12,13,38,52,824
0.05730,3.16750,-4.49750,0.00000,-0.01257,0.00744,-0.98893,2023,6,12,13,38,52,835
0.05740,3.04500,-4.65500,0.00000,-0.01086,0.00891,-0.98747,2023,6,12,13,38,52,846
0.05750,3.06250,-4.55000,0.00000,-0.00952,0.00927,-0.98600,2023,6,12,13,38,52,857
0.05760,2.92250,-4.37500,0.00000,-0.01086,0.00683,-0.98649,2023,6,12,13,38,52,868
0.05770,3.13250,-4.62000,0.00000,-0.01196,0.01025,-0.98661,2023,6,12,13,38,52,880
0.05780,2.90500,-4.49750,0.00000,-0.01135,0.00878,-0.98686,2023,6,12,13,38,52,891
0.05790,3.16750,-4.49750,0.00000,-0.01159,0.00854,-0.98686,2023,6,12,13,38,52,902
0.05800,3.04500,-4.39250,0.00000,-0.01000,0.00939,-0.98649,2023,6,12,13,38,52,913
0.05810,2.99250,-4.79500,0.00000,-0.00830,0.01159,-0.98661,2023,6,12,13,38,52,924
0.05820,2.90500,-4.72500,0.00000,-0.01354,0.00830,-0.98503,2023,6,12,13,38,52,935
0.05830,3.01000,-4.60250,0.00000,-0.01000,0.00744,-0.98600,2023,6,12,13,38,52,946
0.05840,3.04500,-4.53250,0.00000,-0.01318,0.00634,-0.98942,2023,6,12,13,38,52,957
0.05850,3.16750,-4.63750,0.00000,-0.01025,0.00988,-0.98735,2023,6,12,13,38,53,8
0.05860,3.08000,-4.34000,0.00000,-0.01159,0.00964,-0.98576,2023,6,12,13,38,53,20
0.05870,2.95750,-4.72500,0.00000,-0.00976,0.00830,-0.98600,2023,6,12,13,38,53,31
0.05880,2.94000,-4.49750,0.00000,-0.01391,0.00891,-0.98515,2023,6,12,13,38,53,42
0.05890,3.06250,-4.60250,0.00000,-0.01196,0.00695,-0.98881,2023,6,12,13,38,53,53
0.05900,3.02750,-4.56750,0.00000,-0.01196,0.00927,-0.98893,2023,6,12,13,38,53,64
0.05910,3.04500,-4.56750,0.00000,-0.01122,0.00866,-0.98539,2023,6,12,13,38,53,75
0.05920,3.11500,-4.74250,0.00000,-0.00988,0.00805,-0.98674,2023,6,12,13,38,53,86
0.05930,3.02750,-4.65500,0.00000,-0.00964,0.00878,-0.98649,2023,6,12,13,38,53,97
0.05940,3.04500,-4.56750,0.00000,-0.01293,0.00817,-0.98881,2023,6,12,13,38,53,108
0.05950,2.99250,-4.74250,0.00000,-0.00878,0.00793,-0.98576,2023,6,12,13,38,53,120
0.05960,3.04500,-4.62000,0.00000,-0.01061,0.00817,-0.98600,2023,6,12,13,38,53,131
0.05970,2.90500,-4.53250,0.00000,-0.01025,0.01061,-0.98747,2023,6,12,13,38,53,142
0.05980,2.83500,-4.39250,0.00000,-0.01342,0.00854,-0.98625,2023,6,12,13,38,53,153
0.05990,3.08000,-4.74250,0.00000,-0.01061,0.00781,-0.98820,2023,6,12,13,38,53,164
0.06000,3.08000,-4.58500,0.00000,-0.01061,0.01025,-0.98661,2023,6,12,13,38,53,175
0.06010,2.92250,-4.56750,0.00000,-0.01037,0.00854,-0.98893,2023,6,12,13,38,53,186
0.06020,2.81750,-4.55000,0.00000,-0.01086,0.01037,-0.98576,2023,6,12,13,38,53,197
0.06030,2.90500,-4.69000,0.00000,-0.01244,0.00756,-0.98759,2023,6,12,13,38,53,208
0.06040,3.04500,-4.69000,0.00000,-0.01049,0.01110,-0.98735,2023,6,12,13,38,53,220
0.06050,2.97500,-4.58500,0.00000,-0.00927,0.00793,-0.98881,2023,6,12,13,38,53,231
0.06060,2.97500,-4.60250,0.00000,-0.01208,0.00842,-0.98710,2023,6,12,13,38,53,242
0.06070,3.02750,-4.67250,0.00000,-0.01049,0.00866,-0.98576,2023,6,12,13,38,53,253
0.06080,3.13250,-4.77750,0.00000,-0.01061,0.00866,-0.98747,2023,6,12,13,38,53,264
0.06090,3.04500,-4.55000,0.00000,-0.01208,0.00647,-0.98674,2023,6,12,13,38,53,275
0.06100,2.95750,-4.41000,0.00000,-0.01135,0.00939,-0.98674,2023,6,12,13,38,53,286
0.06110,2.87000,-4.49750,0.00000,-0.01196,0.00903,-0.98881,2023,6,12,13,38,53,297
0.06120,2.97500,-4.53250,0.00000,-0.01025,0.00781,-0.98844,2023,6,12,13,38,53,308
0.06130,3.08000,-4.63750,0.00000,-0.01061,0.01013,-0.98808,2023,6,12,13,38,53,320
0.06140,2.92250,-4.69000,0.00000,-0.01110,0.00769,-0.98564,2023,6,12,13,38,53,331
0.06150,3.15000,-4.77750,0.00000,-0.00988,0.00854,-0.98844,2023,6,12,13,38,53,342
0.06160,3.20250,-4.62000,0.00000,-0.00927,0.01061,-0.98881,2023,6,12,13,38,53,353
0.06170,3.06250,-4.69000,0.00000,-0.00964,0.00976,-0.98735,2023,6,12,13,38,53,364
0.06180,3.13250,-4.63750,0.00000,-0.01122,0.00988,-0.98905,2023,6,12,13,38,53,375
0.06190,2.92250,-4.34000,0.00000,-0.01135,0.00903,-0.98613,2023,6,12,13,38,53,386
0.06200,3.15000,-4.42750,0.00000,-0.01049,0.00769,-0.98918,2023,6,12,13,38,53,397
0.06210,2.92250,-4.62000,0.00000,-0.01110,0.00964,-0.98747,2023,6,12,13,38,53,408
0.06220,3.06250,-4.56750,0.00000,-0.01074,0.00732,-0.98686,2023,6,12,13,38,53,420
0.06230,3.18500,-4.41000,0.00000,-0.01159,0.00964,-0.98783,2023,6,12,13,38,53,431
0.06240,3.08000,-4.49750,0.00000,-0.01159,0.00854,-0.98905,2023,6,12,13,38,53,442
0.06250,2.99250,-4.55000,0.00000,-0.01220,0.00866,-0.98979,2023,6,12,13,38,53,453
0.06260,3.08000,-4.42750,0.00000,-0.01122,0.01000,-0.99052,2023,6,12,13,38,53,464
0.06270,3.02750,-4.48000,0.00000,-0.01061,0.00952,-0.98503,2023,6,12,13,38,53,475
0.06280,3.13250,-4.62000,0.00000,-0.01061,0.01098,-0.99003,2023,6,12,13,38,53,486
0.06290,3.25500,-4.74250,0.00000,-0.01110,0.00842,-0.98661,2023,6,12,13,38,53,497
0.06300,3.15000,-4.63750,0.00000,-0.01122,0.00939,-0.98954,2023,6,12,13,38,53,508
0.06310,3.13250,-4.56750,0.00000,-0.01220,0.00927,-0.98539,2023,6,12,13,38,53,520
0.06320,3.23750,-4.55000,0.00000,-0.01257,0.00830,-0.98588,2023,6,12,13,38,53,531
0.06330,3.13250,-4.63750,0.00000,-0.00988,0.00817,-0.98905,2023,6,12,13,38,53,542
0.06340,3.16750,-4.62000,0.00000,-0.01183,0.00866,-0.98710,2023,6,12,13,38,53,553
0.06350,2.99250,-4.41000,0.00000,-0.01013,0.00805,-0.98942,2023,6,12,13,38,53,564
0.06360,3.09750,-4.58500,0.00000,-0.01171,0.01000,-0.98735,2023,6,12,13,38,53,575
0.06370,3.01000,-4.44500,0.00000,-0.01086,0.00939,-0.98857,2023,6,12,13,38,53,586
0.06380,3.22000,-4.65500,0.00000,-0.00939,0.01135,-0.98466,2023,6,12,13,38,53,597
0.06390,2.92250,-4.30500,0.00000,-0.01037,0.00903,-0.98796,2023,6,12,13,38,53,608
0.06400,3.02750,-4.35750,0.00000,-0.01171,0.00988,-0.98600,2023,6,12,13,38,53,620
0.06410,2.99250,-4.56750,0.00000,-0.01159,0.00939,-0.98832,2023,6,12,13,38,53,631
0.06420,3.04500,-4.65500,0.00000,-0.01086,0.01000,-0.98844,2023,6,12,13,38,53,642
0.06430,2.95750,-4.60250,0.00000,-0.01171,0.01013,-0.98625,2023,6,12,13,38,53,653
0.06440,3.23750,-4.65500,0.00000,-0.01074,0.01098,-0.98893,2023,6,12,13,38,53,664
0.06450,2.81750,-4.37500,0.00000,-0.01159,0.00915,-0.99064,2023,6,12,13,38,53,675
0.06460,2.94000,-4.51500,0.00000,-0.00964,0.00854,-0.98869,2023,6,12,13,38,53,686
0.06470,3.16750,-4.58500,0.00000,-0.01086,0.01147,-0.98796,2023,6,12,13,38,53,697
0.06480,2.99250,-4.51500,0.00000,-0.01196,0.00891,-0.98613,2023,6,12,13,38,53,708
0.06490,3.15000,-4.55000,0.00000,-0.01037,0.00805,-0.98637,2023,6,12,13,38,53,720
0.06500,3.11500,-4.83000,0.00000,-0.01000,0.00793,-0.98637,2023,6,12,13,38,53,731
0.06510,3.02750,-4.34000,0.00000,-0.01196,0.00781,-0.98759,2023,6,12,13,38,53,742
0.06520,3.23750,-4.62000,0.00000,-0.01049,0.00854,-0.98991,2023,6,12,13,38,53,753
0.06530,3.16750,-4.63750,0.00000,-0.01074,0.00781,-0.98710,2023,6,12,13,38,53,764
0.06540,3.09750,-4.62000,0.00000,-0.01110,0.01013,-0.98893,2023,6,12,13,38,53,775
0.06550,3.13250,-4.62000,0.00000,-0.01061,0.01000,-0.98539,2023,6,12,13,38,53,786
0.06560,2.92250,-4.55000,0.00000,-0.01366,0.00830,-0.98918,2023,6,12,13,38,53,797
0.06570,3.01000,-4.44500,0.00000,-0.01037,0.00964,-0.98796,2023,6,12,13,38,53,808
0.06580,3.11500,-4.72500,0.00000,-0.01232,0.00878,-0.98857,2023,6,12,13,38,53,820
0.06590,3.13250,-4.39250,0.00000,-0.01013,0.00817,-0.98588,2023,6,12,13,38,53,831
0.06600,3.08000,-4.51500,0.00000,-0.00988,0.01074,-0.98515,2023,6,12,13,38,53,842
0.06610,2.97500,-4.69000,0.00000,-0.01049,0.00769,-0.98979,2023,6,12,13,38,53,853
0.06620,3.13250,-4.46250,0.00000,-0.01025,0.00854,-0.98820,2023,6,12,13,38,53,864
0.06630,2.92250,-4.39250,0.00000,-0.00964,0.00830,-0.98674,2023,6,12,13,38,53,875
0.06640,3.11500,-4.76000,0.00000,-0.01000,0.01000,-0.98674,2023,6,12,13,38,53,886
0.06650,2.71250,-4.42750,0.00000,-0.01244,0.00964,-0.98857,2023,6,12,13,38,53,897
0.06660,2.88750,-4.55000,0.00000,-0.01305,0.00854,-0.98857,2023,6,12,13,38,53,908
0.06670,2.97500,-4.49750,0.00000,-0.01110,0.00805,-0.98832,2023,6,12,13,38,53,920
0.06680,3.04500,-4.35750,0.00000,-0.01098,0.00817,-0.98735,2023,6,12,13,38,53,931
0.06690,3.15000,-4.72500,0.00000,-0.01293,0.00866,-0.98893,2023,6,12,13,38,53,942
0.06700,2.95750,-4.48000,0.00000,-0.01305,0.00793,-0.98722,2023,6,12,13,38,53,953
0.06710,2.87000,-4.55000,0.00000,-0.01013,0.01037,-0.98381,2023,6,12,13,38,53,964
0.06720,3.09750,-4.62000,0.00000,-0.00817,0.00891,-0.98698,2023,6,12,13,38,53,975
0.06730,3.13250,-4.55000,0.00000,-0.00976,0.00805,-0.98661,2023,6,12,13,38,54,6
0.06740,3.08000,-4.49750,0.00000,-0.01147,0.01061,-0.98722,2023,6,12,13,38,54,17
0.06750,3.15000,-4.65500,0.00000,-0.00817,0.00878,-0.98649,2023,6,12,13,38,54,28
0.06760,3.09750,-4.48000,0.00000,-0.01037,0.01025,-0.98905,2023,6,12,13,38,54,40
0.06770,2.99250,-4.65500,0.00000,-0.01049,0.00927,-0.98625,2023,6,12,13,38,54,51
0.06780,3.11500,-4.67250,0.00000,-0.01342,0.00854,-0.98674,2023,6,12,13,38,54,62
0.06790,2.94000,-4.76000,0.00000,-0.01171,0.00878,-0.98527,2023,6,12,13,38,54,73
0.06800,3.08000,-4.58500,0.00000,-0.01049,0.00842,-0.98649,2023,6,12,13,38,54,84
0.06810,3.13250,-4.53250,0.00000,-0.01098,0.00769,-0.98857,2023,6,12,13,38,54,95
0.06820,2.97500,-4.72500,0.00000,-0.01257,0.00830,-0.98649,2023,6,12,13,38,54,106
0.06830,3.18500,-4.65500,0.00000,-0.01171,0.00817,-0.99162,2023,6,12,13,38,54,117
0.06840,3.01000,-4.63750,0.00000,-0.01086,0.00830,-0.98771,2023,6,12,13,38,54,128
0.06850,3.13250,-4.55000,0.00000,-0.01049,0.00805,-0.98722,2023,6,12,13,38,54,140
0.06860,2.97500,-4.42750,0.00000,-0.01122,0.00854,-0.98539,2023,6,12,13,38,54,151
0.06870,3.02750,-4.60250,0.00000,-0.01013,0.00903,-0.98564,2023,6,12,13,38,54,162
0.06880,3.16750,-4.86500,0.00000,-0.01061,0.00622,-0.98539,2023,6,12,13,38,54,173
0.06890,2.88750,-4.30500,0.00000,-0.01061,0.00903,-0.98491,2023,6,12,13,38,54,184
0.06900,3.08000,-4.53250,0.00000,-0.01110,0.00830,-0.98625,2023,6,12,13,38,54,195
0.06910,2.99250,-4.55000,0.00000,-0.01220,0.01025,-0.98783,2023,6,12,13,38,54,206
0.06920,3.09750,-4.74250,0.00000,-0.01074,0.01000,-0.98796,2023,6,12,13,38,54,217
0.06930,3.06250,-4.53250,0.00000,-0.01037,0.00903,-0.98747,2023,6,12,13,38,54,228
0.06940,2.99250,-4.53250,0.00000,-0.01135,0.00952,-0.98625,2023,6,12,13,38,54,240
0.06950,2.99250,-4.32250,0.00000,-0.01049,0.01049,-0.98503,2023,6,12,13,38,54,251
0.06960,3.13250,-4.58500,0.00000,-0.00976,0.01037,-0.98600,2023,6,12,13,38,54,262
0.06970,3.13250,-4.39250,0.00000,-0.01281,0.01000,-0.98820,2023,6,12,13,38,54,273
0.06980,2.90500,-4.51500,0.00000,-0.01147,0.00781,-0.99003,2023,6,12,13,38,54,284
0.06990,2.95750,-4.58500,0.00000,-0.01159,0.00793,-0.98857,2023,6,12,13,38,54,295
0.07000,3.13250,-4.60250,0.00000,-0.01037,0.00854,-0.98857,2023,6,12,13,38,54,306
0.07010,3.13250,-4.55000,0.00000,-0.01183,0.00939,-0.98564,2023,6,12,13,38,54,317
0.07020,2.95750,-4.58500,0.00000,-0.01037,0.00964,-0.98576,2023,6,12,13,38,54,328
0.07030,3.09750,-4.56750,0.00000,-0.01013,0.01147,-0.98783,2023,6,12,13,38,54,340
0.07040,3.11500,-4.53250,0.00000,-0.01049,0.00769,-0.98747,2023,6,12,13,38,54,351
0.07050,2.99250,-4.74250,0.00000,-0.01269,0.00744,-0.98820,2023,6,12,13,38,54,362
0.07060,2.87000,-4.63750,0.00000,-0.00988,0.00683,-0.98844,2023,6,12,13,38,54,373
0.07070,3.06250,-4.67250,0.00000,-0.01391,0.00964,-0.98698,2023,6,12,13,38,54,384
0.07080,3.04500,-4.56750,0.00000,-0.01074,0.00805,-0.99003,2023,6,12,13,38,54,395
0.07090,3.06250,-4.70750,0.00000,-0.01086,0.01171,-0.98613,2023,6,12,13,38,54,406
0.07100,2.92250,-4.34000,0.00000,-0.01061,0.01061,-0.98735,2023,6,12,13,38,54,417
0.07110,3.16750,-4.48000,0.00000,-0.01196,0.01086,-0.98613,2023,6,12,13,38,54,428
0.07120,2.97500,-4.62000,0.00000,-0.01147,0.00891,-0.98686,2023,6,12,13,38,54,440
0.07130,3.23750,-4.60250,0.00000,-0.01305,0.00866,-0.98869,2023,6,12,13,38,54,451
0.07140,2.92250,-4.70750,0.00000,-0.01159,0.00817,-0.98661,2023,6,12,13,38,54,462
0.07150,2.94000,-4.49750,0.00000,-0.01183,0.00659,-0.98710,2023,6,12,13,38,54,473
0.07160,3.02750,-4.39250,0.00000,-0.01196,0.00952,-0.98649,2023,6,12,13,38,54,484
0.07170,2.97500,-4.53250,0.00000,-0.01025,0.01147,-0.98954,2023,6,12,13,38,54,495
0.07180,3.01000,-4.63750,0.00000,-0.01049,0.00939,-0.98783,2023,6,12,13,38,54,506
0.07190,3.04500,-4.69000,0.00000,-0.00878,0.01049,-0.98820,2023,6,12,13,38,54,517
0.07200,3.02750,-4.69000,0.00000,-0.01086,0.00683,-0.98808,2023,6,12,13,38,54,528
0.07210,2.88750,-4.55000,0.00000,-0.01013,0.00805,-0.98918,2023,6,12,13,38,54,540
0.07220,3.16750,-4.72500,0.00000,-0.01135,0.00952,-0.98674,2023,6,12,13,38,54,551
0.07230,3.02750,-4.58500,0.00000,-0.01122,0.00842,-0.98576,2023,6,12,13,38,54,562
0.07240,3.06250,-4.30500,0.00000,-0.01135,0.00866,-0.98588,2023,6,12,13,38,54,573
0.07250,2.99250,-4.35750,0.00000,-0.01098,0.00891,-0.98869,2023,6,12,13,38,54,584
0.07260,3.01000,-4.62000,0.00000,-0.01122,0.01025,-0.98979,2023,6,12,13,38,54,595
0.07270,2.94000,-4.70750,0.00000,-0.01061,0.00842,-0.98625,2023,6,12,13,38,54,606
0.07280,2.85250,-4.65500,0.00000,-0.00878,0.00817,-0.98600,2023,6,12,13,38,54,617
0.07290,3.15000,-4.62000,0.00000,-0.01074,0.00781,-0.98844,2023,6,12,13,38,54,628
0.07300,3.11500,-4.48000,0.00000,-0.01232,0.00952,-0.98674,2023,6,12,13,38,54,640
0.07310,2.83500,-4.44500,0.00000,-0.01000,0.00915,-0.98722,2023,6,12,13,38,54,651
0.07320,3.04500,-4.60250,0.00000,-0.01208,0.00964,-0.98710,2023,6,12,13,38,54,662
0.07330,3.01000,-4.55000,0.00000,-0.01171,0.00952,-0.98942,2023,6,12,13,38,54,673
0.07340,3.13250,-4.63750,0.00000,-0.01135,0.01086,-0.98991,2023,6,12,13,38,54,684
0.07350,2.97500,-4.58500,0.00000,-0.01354,0.00878,-0.98905,2023,6,12,13,38,54,695
0.07360,3.02750,-4.49750,0.00000,-0.01183,0.01025,-0.98857,2023,6,12,13,38,54,706
0.07370,3.16750,-4.63750,0.00000,-0.01098,0.00964,-0.98771,2023,6,12,13,38,54,717
0.07380,3.11500,-4.44500,0.00000,-0.01135,0.00781,-0.98686,2023,6,12,13,38,54,728
0.07390,3.04500,-4.42750,0.00000,-0.00976,0.00817,-0.98783,2023,6,12,13,38,54,740
0.07400,2.97500,-4.35750,0.00000,-0.01037,0.00964,-0.98759,2023,6,12,13,38,54,751
0.07410,3.16750,-4.63750,0.00000,-0.00976,0.00842,-0.98881,2023,6,12,13,38,54,762
0.07420,2.95750,-4.58500,0.00000,-0.01244,0.00842,-0.98661,2023,6,12,13,38,54,773
0.07430,3.09750,-4.48000,0.00000,-0.00915,0.00769,-0.98588,2023,6,12,13,38,54,784
0.07440,3.11500,-4.81250,0.00000,-0.00988,0.00976,-0.98747,2023,6,12,13,38,54,795
0.07450,3.01000,-4.56750,0.00000,-0.01037,0.01000,-0.98637,2023,6,12,13,38,54,806
0.07460,3.16750,-4.56750,0.00000,-0.01122,0.00976,-0.98942,2023,6,12,13,38,54,817
0.07470,2.88750,-4.44500,0.00000,-0.01147,0.00830,-0.99088,2023,6,12,13,38,54,828
0.07480,2.97500,-4.51500,0.00000,-0.01025,0.00903,-0.98613,2023,6,12,13,38,54,840
0.07490,3.01000,-4.63750,0.00000,-0.01366,0.00988,-0.98661,2023,6,12,13,38,54,851
0.07500,3.13250,-4.70750,0.00000,-0.01147,0.00891,-0.98552,2023,6,12,13,38,54,862
0.07510,3.23750,-4.56750,0.00000,-0.01159,0.00683,-0.98649,2023,6,12,13,38,54,873
0.07520,2.83500,-4.41000,0.00000,-0.01244,0.01025,-0.98588,2023,6,12,13,38,54,884
0.07530,3.02750,-4.48000,0.00000,-0.01061,0.00878,-0.98698,2023,6,12,13,38,54,895
0.07540,3.01000,-4.70750,0.00000,-0.01159,0.00976,-0.98905,2023,6,12,13,38,54,906
0.07550,2.88750,-4.44500,0.00000,-0.00988,0.01147,-0.98759,2023,6,12,13,38,54,917
0.07560,2.95750,-4.51500,0.00000,-0.01086,0.00964,-0.98857,2023,6,12,13,38,54,928
0.07570,3.16750,-4.62000,0.00000,-0.00878,0.00817,-0.98735,2023,6,12,13,38,54,940
0.07580,3.01000,-4.58500,0.00000,-0.01061,0.00866,-0.98820,2023,6,12,13,38,54,951
0.07590,3.06250,-4.42750,0.00000,-0.01159,0.00854,-0.98661,2023,6,12,13,38,55,2
0.07600,3.02750,-4.56750,0.00000,-0.01086,0.00781,-0.98613,2023,6,12,13,38,55,13
0.07610,3.01000,-4.46250,0.00000,-0.00988,0.00817,-0.98491,2023,6,12,13,38,55,24
0.07620,3.04500,-4.65500,0.00000,-0.01122,0.01037,-0.99088,2023,6,12,13,38,55,35
0.07630,2.95750,-4.58500,0.00000,-0.00988,0.00939,-0.98613,2023,6,12,13,38,55,46
0.07640,3.08000,-4.63750,0.00000,-0.00891,0.00915,-0.98893,2023,6,12,13,38,55,57
0.07650,3.11500,-4.58500,0.00000,-0.01013,0.00756,-0.98539,2023,6,12,13,38,55,68
0.07660,3.16750,-4.72500,0.00000,-0.01208,0.00891,-0.98552,2023,6,12,13,38,55,80
0.07670,2.92250,-4.44500,0.00000,-0.01257,0.00842,-0.98832,2023,6,12,13,38,55,91
0.07680,2.99250,-4.46250,0.00000,-0.00976,0.00927,-0.98735,2023,6,12,13,38,55,102
0.07690,3.01000,-4.53250,0.00000,-0.01025,0.00952,-0.98783,2023,6,12,13,38,55,113
0.07700,2.99250,-4.63750,0.00000,-0.01342,0.00647,-0.98735,2023,6,12,13,38,55,124
0.07710,3.04500,-4.63750,0.00000,-0.00964,0.00915,-0.98991,2023,6,12,13,38,55,135
0.07720,3.02750,-4.44500,0.00000,-0.01147,0.00830,-0.99101,2023,6,12,13,38,55,146
0.07730,3.08000,-4.42750,0.00000,-0.01135,0.01000,-0.98600,2023,6,12,13,38,55,157
0.07740,3.01000,-4.39250,0.00000,-0.01135,0.01025,-0.98881,2023,6,12,13,38,55,168
0.07750,3.06250,-4.44500,0.00000,-0.01269,0.00842,-0.98722,2023,6,12,13,38,55,180
0.07760,2.81750,-4.65500,0.00000,-0.01183,0.00988,-0.98820,2023,6,12,13,38,55,191
0.07770,3.04500,-4.53250,0.00000,-0.01074,0.00964,-0.98735,2023,6,12,13,38,55,202
0.07780,3.01000,-4.25250,0.00000,-0.01098,0.00939,-0.98600,2023,6,12,13,38,55,213
0.07790,3.08000,-4.51500,0.00000,-0.01086,0.00891,-0.98503,2023,6,12,13,38,55,224
0.07800,2.95750,-4.51500,0.00000,-0.01074,0.00842,-0.98588,2023,6,12,13,38,55,235
0.07810,3.02750,-4.74250,0.00000,-0.01000,0.00903,-0.98564,2023,6,12,13,38,55,246
0.07820,3.15000,-4.67250,0.00000,-0.01196,0.00952,-0.98552,2023,6,12,13,38,55,257
0.07830,3.01000,-4.51500,0.00000,-0.01135,0.01037,-0.98698,2023,6,12,13,38,55,268
0.07840,2.90500,-4.48000,0.00000,-0.01232,0.00915,-0.98869,2023,6,12,13,38,55,280
0.07850,2.95750,-4.76000,0.00000,-0.01025,0.00976,-0.98722,2023,6,12,13,38,55,291
0.07860,3.11500,-4.44500,0.00000,-0.01049,0.01135,-0.98552,2023,6,12,13,38,55,302
0.07870,2.87000,-4.41000,0.00000,-0.01098,0.00817,-0.98552,2023,6,12,13,38,55,313
0.07880,3.08000,-4.60250,0.00000,-0.01305,0.00891,-0.98552,2023,6,12,13,38,55,324
0.07890,3.02750,-4.65500,0.00000,-0.00952,0.01147,-0.98783,2023,6,12,13,38,55,335
0.07900,2.85250,-4.55000,0.00000,-0.01232,0.01025,-0.98954,2023,6,12,13,38,55,346
0.07910,3.06250,-4.49750,0.00000,-0.01342,0.00756,-0.98661,2023,6,12,13,38,55,357
0.07920,3.18500,-4.69000,0.00000,-0.01061,0.01013,-0.98991,2023,6,12,13,38,55,368
0.07930,3.09750,-4.44500,0.00000,-0.01354,0.00939,-0.98808,2023,6,12,13,38,55,380
0.07940,2.94000,-4.60250,0.00000,-0.01232,0.01098,-0.98442,2023,6,12,13,38,55,391
0.07950,2.95750,-4.72500,0.00000,-0.01049,0.00964,-0.98869,2023,6,12,13,38,55,402
0.07960,3.25500,-4.60250,0.00000,-0.00891,0.01098,-0.98649,2023,6,12,13,38,55,413
0.07970,3.06250,-4.70750,0.00000,-0.01013,0.00842,-0.98649,2023,6,12,13,38,55,424
0.07980,3.02750,-4.48000,0.00000,-0.01147,0.00915,-0.98905,2023,6,12,13,38,55,435
0.07990,2.97500,-4.42750,0.00000,-0.01061,0.00903,-0.98820,2023,6,12,13,38,55,446
0.08000,3.08000,-4.67250,0.00000,-0.01098,0.01037,-0.98637,2023,6,12,13,38,55,457
0.08010,3.04500,-4.67250,0.00000,-0.00976,0.00878,-0.98783,2023,6,12,13,38,55,468
0.08020,3.01000,-4.51500,0.00000,-0.01135,0.01025,-0.98783,2023,6,12,13,38,55,480
0.08030,2.87000,-4.28750,0.00000,-0.01183,0.00927,-0.99003,2023,6,12,13,38,55,491
0.08040,2.97500,-4.60250,0.00000,-0.01135,0.00891,-0.99003,2023,6,12,13,38,55,502
0.08050,2.97500,-4.46250,0.00000,-0.01281,0.01061,-0.98722,2023,6,12,13,38,55,513
0.08060,2.88750,-4.44500,0.00000,-0.01171,0.00915,-0.98625,2023,6,12,13,38,55,524
0.08070,3.08000,-4.46250,0.00000,-0.01061,0.00952,-0.98881,2023,6,12,13,38,55,535
0.08080,3.06250,-4.63750,0.00000,-0.01183,0.01000,-0.98771,2023,6,12,13,38,55,546
0.08090,3.02750,-4.53250,0.00000,-0.01013,0.01037,-0.99027,2023,6,12,13,38,55,557
0.08100,2.95750,-4.49750,0.00000,-0.01061,0.01171,-0.98527,2023,6,12,13,38,55,568
0.08110,3.02750,-4.63750,0.00000,-0.01232,0.00793,-0.98808,2023,6,12,13,38,55,580
0.08120,3.13250,-4.70750,0.00000,-0.00976,0.01037,-0.98796,2023,6,12,13,38,55,591
0.08130,3.02750,-4.62000,0.00000,-0.01208,0.00842,-0.98613,2023,6,12,13,38,55,602
0.08140,3.23750,-4.53250,0.00000,-0.01305,0.00866,-0.98796,2023,6,12,13,38,55,613
0.08150,2.94000,-4.37500,0.00000,-0.01110,0.01147,-0.98478,2023,6,12,13,38,55,624
0.08160,3.09750,-4.69000,0.00000,-0.01049,0.00854,-0.98649,2023,6,12,13,38,55,635
0.08170,2.95750,-4.49750,0.00000,-0.01232,0.00988,-0.98979,2023,6,12,13,38,55,646
0.08180,2.94000,-4.48000,0.00000,-0.01086,0.00891,-0.98527,2023,6,12,13,38,55,657
0.08190,2.95750,-4.51500,0.00000,-0.01171,0.00976,-0.98686,2023,6,12,13,38,55,668
0.08200,3.13250,-4.67250,0.00000,-0.01257,0.00732,-0.98710,2023,6,12,13,38,55,680
0.08210,3.15000,-4.48000,0.00000,-0.01135,0.00903,-0.98576,2023,6,12,13,38,55,691
0.08220,2.92250,-4.48000,0.00000,-0.01147,0.01000,-0.98722,2023,6,12,13,38,55,702
0.08230,3.13250,-4.51500,0.00000,-0.01061,0.00830,-0.98979,2023,6,12,13,38,55,713
0.08240,3.08000,-4.46250,0.00000,-0.01244,0.00903,-0.98747,2023,6,12,13,38,55,724
0.08250,3.25500,-4.60250,0.00000,-0.01025,0.00903,-0.98539,2023,6,12,13,38,55,735
0.08260,2.97500,-4.48000,0.00000,-0.01061,0.00939,-0.98674,2023,6,12,13,38,55,746
0.08270,3.01000,-4.32250,0.00000,-0.01074,0.00805,-0.98588,2023,6,12,13,38,55,757
0.08280,3.06250,-4.46250,0.00000,-0.00964,0.00842,-0.98991,2023,6,12,13,38,55,768
0.08290,3.16750,-4.65500,0.00000,-0.01232,0.01098,-0.98637,2023,6,12,13,38,55,780
0.08300,3.09750,-4.39250,0.00000,-0.01074,0.00793,-0.98588,2023,6,12,13,38,55,791
0.08310,3.23750,-4.62000,0.00000,-0.01220,0.00805,-0.98759,2023,6,12,13,38,55,802
0.08320,3.11500,-4.58500,0.00000,-0.00988,0.00830,-0.98503,2023,6,12,13,38,55,813
0.08330,3.02750,-4.67250,0.00000,-0.01305,0.00952,-0.98588,2023,6,12,13,38,55,824
0.08340,3.08000,-4.41000,0.00000,-0.01037,0.01098,-0.98722,2023,6,12,13,38,55,835
0.08350,3.04500,-4.60250,0.00000,-0.01061,0.00793,-0.98759,2023,6,12,13,38,55,846
0.08360,2.94000,-4.53250,0.00000,-0.01330,0.00695,-0.98661,2023,6,12,13,38,55,857
0.08370,3.23750,-4.69000,0.00000,-0.01293,0.00866,-0.98637,2023,6,12,13,38,55,868
0.08380,3.11500,-4.51500,0.00000,-0.00939,0.00915,-0.98954,2023,6,12,13,38,55,880
0.08390,3.01000,-4.55000,0.00000,-0.01330,0.00720,-0.98747,2023,6,12,13,38,55,891
0.08400,2.90500,-4.23500,0.00000,-0.00915,0.01000,-0.98552,2023,6,12,13,38,55,902
0.08410,3.08000,-4.56750,0.00000,-0.01061,0.00878,-0.98783,2023,6,12,13,38,55,913
0.08420,2.87000,-4.28750,0.00000,-0.01000,0.00891,-0.98369,2023,6,12,13,38,55,924
0.08430,3.01000,-4.39250,0.00000,-0.01061,0.00988,-0.98966,2023,6,12,13,38,55,935
0.08440,2.97500,-4.48000,0.00000,-0.01122,0.00732,-0.98942,2023,6,12,13,38,55,946
0.08450,3.02750,-4.60250,0.00000,-0.01110,0.00854,-0.98747,2023,6,12,13,38,55,957
0.08460,3.01000,-4.51500,0.00000,-0.01183,0.00769,-0.98661,2023,6,12,13,38,56,8
0.08470,3.25500,-4.53250,0.00000,-0.01122,0.00915,-0.98808,2023,6,12,13,38,56,20
0.08480,3.06250,-4.53250,0.00000,-0.01049,0.00976,-0.98332,2023,6,12,13,38,56,31
0.08490,3.06250,-4.60250,0.00000,-0.01183,0.00878,-0.98735,2023,6,12,13,38,56,42
0.08500,3.02750,-4.46250,0.00000,-0.01318,0.00842,-0.98735,2023,6,12,13,38,56,53
0.08510,3.04500,-4.55000,0.00000,-0.01000,0.00793,-0.98796,2023,6,12,13,38,56,64
0.08520,3.09750,-4.69000,0.00000,-0.01000,0.00952,-0.98515,2023,6,12,13,38,56,75
0.08530,3.04500,-4.56750,0.00000,-0.00976,0.00830,-0.98857,2023,6,12,13,38,56,86
0.08540,3.01000,-4.60250,0.00000,-0.01086,0.00671,-0.98759,2023,6,12,13,38,56,97
0.08550,2.99250,-4.48000,0.00000,-0.00939,0.00854,-0.98783,2023,6,12,13,38,56,108
0.08560,3.11500,-4.62000,0.00000,-0.01269,0.01049,-0.98796,2023,6,12,13,38,56,120
0.08570,3.04500,-4.65500,0.00000,-0.01232,0.00903,-0.98771,2023,6,12,13,38,56,131
0.08580,3.02750,-4.63750,0.00000,-0.01354,0.00903,-0.98576,2023,6,12,13,38,56,142
0.08590,2.99250,-4.62000,0.00000,-0.01208,0.01049,-0.98637,2023,6,12,13,38,56,153
0.08600,3.13250,-4.55000,0.00000,-0.01049,0.00781,-0.98442,2023,6,12,13,38,56,164
0.08610,2.92250,-4.49750,0.00000,-0.01074,0.00903,-0.98442,2023,6,12,13,38,56,175
0.08620,3.16750,-4.35750,0.00000,-0.01110,0.00805,-0.98893,2023,6,12,13,38,56,186
0.08630,3.20250,-4.69000,0.00000,-0.01037,0.00732,-0.98930,2023,6,12,13,38,56,197
0.08640,2.90500,-4.76000,0.00000,-0.01000,0.00939,-0.98710,2023,6,12,13,38,56,208
0.08650,3.02750,-4.58500,0.00000,-0.01037,0.00878,-0.98710,2023,6,12,13,38,56,220
0.08660,3.02750,-4.55000,0.00000,-0.00817,0.00976,-0.98430,2023,6,12,13,38,56,231
0.08670,3.09750,-4.49750,0.00000,-0.01208,0.00939,-0.98698,2023,6,12,13,38,56,242
0.08680,2.97500,-4.56750,0.00000,-0.01208,0.00878,-0.98832,2023,6,12,13,38,56,253
0.08690,2.99250,-4.55000,0.00000,-0.01183,0.00720,-0.98710,2023,6,12,13,38,56,264
0.08700,3.08000,-4.55000,0.00000,-0.00976,0.00695,-0.98539,2023,6,12,13,38,56,275
0.08710,2.88750,-4.41000,0.00000,-0.01244,0.01025,-0.98674,2023,6,12,13,38,56,286
0.08720,2.81750,-4.51500,0.00000,-0.00952,0.00964,-0.98869,2023,6,12,13,38,56,297
0.08730,3.20250,-4.51500,0.00000,-0.01098,0.00830,-0.98515,2023,6,12,13,38,56,308
0.08740,3.11500,-4.46250,0.00000,-0.01244,0.00854,-0.98698,2023,6,12,13,38,56,320
0.08750,2.94000,-4.70750,0.00000,-0.01110,0.00720,-0.99003,2023,6,12,13,38,56,331
0.08760,2.92250,-4.46250,0.00000,-0.01135,0.00878,-0.98979,2023,6,12,13,38,56,342
0.08770,3.02750,-4.65500,0.00000,-0.01037,0.00915,-0.98808,2023,6,12,13,38,56,353
0.08780,3.04500,-4.58500,0.00000,-0.01049,0.01037,-0.98979,2023,6,12,13,38,56,364
0.08790,3.06250,-4.34000,0.00000,-0.01110,0.00903,-0.98881,2023,6,12,13,38,56,375
0.08800,3.11500,-4.55000,0.00000,-0.01342,0.00903,-0.98722,2023,6,12,13,38,56,386
0.08810,3.06250,-4.63750,0.00000,-0.01013,0.00988,-0.98478,2023,6,12,13,38,56,397
0.08820,2.97500,-4.65500,0.00000,-0.01281,0.00976,-0.98710,2023,6,12,13,38,56,408
0.08830,3.18500,-4.42750,0.00000,-0.01074,0.00927,-0.98783,2023,6,12,13,38,56,420
0.08840,3.02750,-4.51500,0.00000,-0.01074,0.00939,-0.98613,2023,6,12,13,38,56,431
0.08850,2.95750,-4.58500,0.00000,-0.01147,0.01122,-0.98576,2023,6,12,13,38,56,442
0.08860,3.04500,-4.56750,0.00000,-0.01220,0.01013,-0.98478,2023,6,12,13,38,56,453
0.08870,3.08000,-4.69000,0.00000,-0.01025,0.00988,-0.98808,2023,6,12,13,38,56,464
0.08880,3.04500,-4.37500,0.00000,-0.01281,0.00878,-0.98759,2023,6,12,13,38,56,475
0.08890,3.18500,-4.69000,0.00000,-0.01122,0.00695,-0.98661,2023,6,12,13,38,56,486
0.08900,3.01000,-4.51500,0.00000,-0.01147,0.01049,-0.98844,2023,6,12,13,38,56,497
0.08910,3.06250,-4.49750,0.00000,-0.01000,0.00939,-0.98491,2023,6,12,13,38,56,508
0.08920,2.99250,-4.53250,0.00000,-0.01074,0.01037,-0.98844,2023,6,12,13,38,56,520
0.08930,2.92250,-4.46250,0.00000,-0.01074,0.01025,-0.98759,2023,6,12,13,38,56,531
0.08940,2.76500,-4.34000,0.00000,-0.01086,0.00891,-0.98442,2023,6,12,13,38,56,542
0.08950,3.08000,-4.48000,0.00000,-0.01049,0.01110,-0.98686,2023,6,12,13,38,56,553
0.08960,3.15000,-4.67250,0.00000,-0.01135,0.00903,-0.98405,2023,6,12,13,38,56,564
0.08970,3.06250,-4.70750,0.00000,-0.01061,0.00915,-0.98613,2023,6,12,13,38,56,575
0.08980,2.95750,-4.55000,0.00000,-0.01183,0.00988,-0.98625,2023,6,12,13,38,56,586
0.08990,2.90500,-4.58500,0.00000,-0.00927,0.00915,-0.98747,2023,6,12,13,38,56,597
0.09000,2.95750,-4.58500,0.00000,-0.01110,0.01013,-0.98576,2023,6,12,13,38,56,608
0.09010,3.13250,-4.70750,0.00000,-0.01086,0.00891,-0.98430,2023,6,12,13,38,56,620
0.09020,3.16750,-4.53250,0.00000,-0.01159,0.00866,-0.98735,2023,6,12,13,38,56,631
0.09030,2.97500,-4.51500,0.00000,-0.00988,0.00927,-0.98381,2023,6,12,13,38,56,642
0.09040,2.99250,-4.49750,0.00000,-0.00976,0.00744,-0.98759,2023,6,12,13,38,56,653
0.09050,2.99250,-4.46250,0.00000,-0.01049,0.00976,-0.98710,2023,6,12,13,38,56,664
0.09060,3.02750,-4.63750,0.00000,-0.01000,0.01086,-0.98808,2023,6,12,13,38,56,675
0.09070,3.18500,-4.55000,0.00000,-0.01000,0.01379,-0.98600,2023,6,12,13,38,56,686
0.09080,3.23750,-4.67250,0.00000,-0.01122,0.01122,-0.98405,2023,6,12,13,38,56,697
0.09090,2.94000,-4.56750,0.00000,-0.00964,0.01037,-0.99052,2023,6,12,13,38,56,708
0.09100,3.11500,-4.83000,0.00000,-0.01049,0.00915,-0.98576,2023,6,12,13,38,56,720
0.09110,3.02750,-4.62000,0.00000,-0.01086,0.00903,-0.98332,2023,6,12,13,38,56,731
0.09120,2.97500,-4.60250,0.00000,-0.01122,0.00891,-0.98613,2023,6,12,13,38,56,742
0.09130,3.04500,-4.65500,0.00000,-0.01013,0.00903,-0.98710,2023,6,12,13,38,56,753
0.09140,3.04500,-4.60250,0.00000,-0.01147,0.00647,-0.98796,2023,6,12,13,38,56,764
0.09150,3.02750,-4.58500,0.00000,-0.01183,0.00952,-0.98869,2023,6,12,13,38,56,775
0.09160,3.15000,-4.44500,0.00000,-0.01122,0.01037,-0.98661,2023,6,12,13,38,56,786
0.09170,3.08000,-4.70750,0.00000,-0.00988,0.01013,-0.98552,2023,6,12,13,38,56,797
0.09180,2.92250,-4.42750,0.00000,-0.00964,0.01013,-0.98625,2023,6,12,13,38,56,808
0.09190,3.02750,-4.63750,0.00000,-0.01000,0.01025,-0.98674,2023,6,12,13,38,56,820
0.09200,2.90500,-4.37500,0.00000,-0.00952,0.00695,-0.98344,2023,6,12,13,38,56,831
0.09210,3.09750,-4.62000,0.00000,-0.01135,0.01013,-0.98796,2023,6,12,13,38,56,842
0.09220,3.09750,-4.58500,0.00000,-0.01183,0.00878,-0.98686,2023,6,12,13,38,56,853
0.09230,3.09750,-4.58500,0.00000,-0.01086,0.01025,-0.98491,2023,6,12,13,38,56,864
0.09240,2.94000,-4.55000,0.00000,-0.01049,0.00805,-0.98796,2023,6,12,13,38,56,875
0.09250,2.95750,-4.42750,0.00000,-0.01244,0.00854,-0.98796,2023,6,12,13,38,56,886
0.09260,2.97500,-4.58500,0.00000,-0.01037,0.01122,-0.98747,2023,6,12,13,38,56,897
0.09270,2.88750,-4.65500,0.00000,-0.01183,0.00927,-0.98783,2023,6,12,13,38,56,908
0.09280,3.20250,-4.60250,0.00000,-0.01232,0.00842,-0.98600,2023,6,12,13,38,56,920
0.09290,3.18500,-4.34000,0.00000,-0.00939,0.00952,-0.98674,2023,6,12,13,38,56,931
0.09300,3.13250,-4.65500,0.00000,-0.01074,0.01086,-0.98466,2023,6,12,13,38,56,942
0.09310,2.94000,-4.74250,0.00000,-0.01281,0.01061,-0.98820,2023,6,12,13,38,56,953
0.09320,3.15000,-4.69000,0.00000,-0.01086,0.00915,-0.98710,2023,6,12,13,38,56,964
0.09330,3.15000,-4.56750,0.00000,-0.01074,0.00781,-0.98613,2023,6,12,13,38,56,975
0.09340,3.04500,-4.65500,0.00000,-0.00988,0.00939,-0.98881,2023,6,12,13,38,57,6
0.09350,3.13250,-4.62000,0.00000,-0.01000,0.00927,-0.98930,2023,6,12,13,38,57,17
0.09360,2.99250,-4.58500,0.00000,-0.01037,0.00903,-0.98759,2023,6,12,13,38,57,28
0.09370,3.13250,-4.62000,0.00000,-0.00915,0.00756,-0.98747,2023,6,12,13,38,57,40
0.09380,2.99250,-4.62000,0.00000,-0.01257,0.00842,-0.98759,2023,6,12,13,38,57,51
0.09390,3.22000,-4.55000,0.00000,-0.01196,0.00988,-0.98686,2023,6,12,13,38,57,62
0.09400,2.95750,-4.65500,0.00000,-0.01257,0.00903,-0.98759,2023,6,12,13,38,57,73
0.09410,3.20250,-4.62000,0.00000,-0.01196,0.00964,-0.98515,2023,6,12,13,38,57,84
0.09420,3.18500,-4.49750,0.00000,-0.01098,0.01086,-0.98735,2023,6,12,13,38,57,95
0.09430,3.01000,-4.56750,0.00000,-0.01122,0.00903,-0.98735,2023,6,12,13,38,57,106
0.09440,3.04500,-4.46250,0.00000,-0.01110,0.00756,-0.98771,2023,6,12,13,38,57,117
0.09450,3.13250,-4.37500,0.00000,-0.01061,0.00976,-0.98515,2023,6,12,13,38,57,128
0.09460,3.16750,-4.86500,0.00000,-0.00952,0.00842,-0.98747,2023,6,12,13,38,57,140
0.09470,3.02750,-4.39250,0.00000,-0.01000,0.00988,-0.98796,2023,6,12,13,38,57,151
0.09480,3.13250,-4.69000,0.00000,-0.01135,0.00976,-0.98735,2023,6,12,13,38,57,162
0.09490,3.01000,-4.58500,0.00000,-0.01196,0.00830,-0.98881,2023,6,12,13,38,57,173
0.09500,3.02750,-4.44500,0.00000,-0.01049,0.00732,-0.98661,2023,6,12,13,38,57,184
0.09510,2.99250,-4.70750,0.00000,-0.01049,0.01098,-0.98893,2023,6,12,13,38,57,195
0.09520,3.13250,-4.60250,0.00000,-0.01196,0.00830,-0.98674,2023,6,12,13,38,57,206
0.09530,2.99250,-4.42750,0.00000,-0.01061,0.01061,-0.98564,2023,6,12,13,38,57,217
0.09540,3.15000,-4.81250,0.00000,-0.01110,0.00891,-0.98759,2023,6,12,13,38,57,228
0.09550,2.95750,-4.37500,0.00000,-0.01147,0.00866,-0.98783,2023,6,12,13,38,57,240
0.09560,3.18500,-4.49750,0.00000,-0.01257,0.00964,-0.98747,2023,6,12,13,38,57,251
0.09570,3.01000,-4.56750,0.00000,-0.01122,0.00952,-0.98527,2023,6,12,13,38,57,262
0.09580,2.90500,-4.32250,0.00000,-0.01135,0.00744,-0.98661,2023,6,12,13,38,57,273
0.09590,3.20250,-4.49750,0.00000,-0.01074,0.00878,-0.98820,2023,6,12,13,38,57,284
0.09600,2.99250,-4.25250,0.00000,-0.00988,0.00964,-0.98600,2023,6,12,13,38,57,295
0.09610,3.09750,-4.56750,0.00000,-0.01196,0.01049,-0.98515,2023,6,12,13,38,57,306
0.09620,2.90500,-4.69000,0.00000,-0.01037,0.00976,-0.98405,2023,6,12,13,38,57,317
0.09630,3.13250,-4.42750,0.00000,-0.01074,0.01013,-0.98576,2023,6,12,13,38,57,328
0.09640,3.18500,-4.56750,0.00000,-0.01000,0.00805,-0.98710,2023,6,12,13,38,57,340
0.09650,3.11500,-4.48000,0.00000,-0.01159,0.01013,-0.98796,2023,6,12,13,38,57,351
0.09660,3.15000,-4.46250,0.00000,-0.01074,0.01061,-0.98515,2023,6,12,13,38,57,362
0.09670,3.09750,-4.35750,0.00000,-0.00793,0.01037,-0.98832,2023,6,12,13,38,57,373
0.09680,3.04500,-4.55000,0.00000,-0.01110,0.01086,-0.98735,2023,6,12,13,38,57,384
0.09690,3.22000,-4.56750,0.00000,-0.01013,0.00976,-0.98674,2023,6,12,13,38,57,395
0.09700,3.04500,-4.53250,0.00000,-0.01257,0.01061,-0.98796,2023,6,12,13,38,57,406
0.09710,2.95750,-4.58500,0.00000,-0.01122,0.00854,-0.98808,2023,6,12,13,38,57,417
0.09720,3.22000,-4.74250,0.00000,-0.01049,0.01049,-0.98979,2023,6,12,13,38,57,428
0.09730,3.08000,-4.60250,0.00000,-0.01025,0.01013,-0.98991,2023,6,12,13,38,57,440
0.09740,2.92250,-4.35750,0.00000,-0.01281,0.00891,-0.98918,2023,6,12,13,38,57,451
0.09750,3.15000,-4.55000,0.00000,-0.01171,0.01086,-0.98515,2023,6,12,13,38,57,462
0.09760,3.16750,-4.51500,0.00000,-0.01074,0.00878,-0.98613,2023,6,12,13,38,57,473
0.09770,3.18500,-4.69000,0.00000,-0.01098,0.00952,-0.98832,2023,6,12,13,38,57,484
0.09780,3.11500,-4.67250,0.00000,-0.01110,0.00866,-0.98503,2023,6,12,13,38,57,495
0.09790,3.11500,-4.65500,0.00000,-0.01025,0.01000,-0.98783,2023,6,12,13,38,57,506
0.09800,3.01000,-4.44500,0.00000,-0.01147,0.00854,-0.98771,2023,6,12,13,38,57,517
0.09810,3.06250,-4.56750,0.00000,-0.01110,0.01037,-0.98600,2023,6,12,13,38,57,528
0.09820,2.94000,-4.53250,0.00000,-0.01171,0.01013,-0.98588,2023,6,12,13,38,57,540
0.09830,2.97500,-4.70750,0.00000,-0.01013,0.01000,-0.98649,2023,6,12,13,38,57,551
0.09840,3.06250,-4.72500,0.00000,-0.01025,0.00842,-0.98820,2023,6,12,13,38,57,562
0.09850,2.90500,-4.37500,0.00000,-0.01025,0.00769,-0.98783,2023,6,12,13,38,57,573
0.09860,3.04500,-4.48000,0.00000,-0.01183,0.00964,-0.98783,2023,6,12,13,38,57,584
0.09870,2.85250,-4.41000,0.00000,-0.01086,0.00817,-0.98832,2023,6,12,13,38,57,595
0.09880,2.99250,-4.72500,0.00000,-0.01086,0.00830,-0.98735,2023,6,12,13,38,57,606
0.09890,2.81750,-4.81250,0.00000,-0.01293,0.00988,-0.98466,2023,6,12,13,38,57,617
0.09900,3.08000,-4.48000,0.00000,-0.01257,0.01049,-0.98588,2023,6,12,13,38,57,628
0.09910,2.99250,-4.53250,0.00000,-0.01037,0.00952,-0.98503,2023,6,12,13,38,57,640
0.09920,3.04500,-4.42750,0.00000,-0.01220,0.00988,-0.98674,2023,6,12,13,38,57,651
0.09930,2.97500,-4.63750,0.00000,-0.00793,0.00854,-0.98625,2023,6,12,13,38,57,662
0.09940,3.08000,-4.41000,0.00000,-0.01171,0.00708,-0.98735,2023,6,12,13,38,57,673
0.09950,3.13250,-4.55000,0.00000,-0.01208,0.00927,-0.98820,2023,6,12,13,38,57,684
0.09960,2.97500,-4.62000,0.00000,-0.01061,0.00988,-0.98588,2023,6,12,13,38,57,695
0.09970,3.04500,-4.53250,0.00000,-0.00976,0.00866,-0.98710,2023,6,12,13,38,57,706
0.09980,3.06250,-4.58500,0.00000,-0.01098,0.00927,-0.98686,2023,6,12,13,38,57,717
0.09990,3.02750,-4.74250,0.00000,-0.01135,0.00976,-0.98954,2023,6,12,13,38,57,728
0.10000,2.94000,-4.63750,0.00000,-0.01208,0.00915,-0.98832,2023,6,12,13,38,57,740
0.10010,3.22000,-4.46250,0.00000,-0.01171,0.00878,-0.98613,2023,6,12,13,38,57,751
0.10020,3.06250,-4.49750,0.00000,-0.01122,0.00939,-0.98930,2023,6,12,13,38,57,762
0.10030,3.06250,-4.39250,0.00000,-0.01196,0.01049,-0.98905,2023,6,12,13,38,57,773
0.10040,3.01000,-4.60250,0.00000,-0.01135,0.00854,-0.98661,2023,6,12,13,38,57,784
0.10050,2.99250,-4.28750,0.00000,-0.01196,0.00976,-0.98539,2023,6,12,13,38,57,795
0.10060,3.01000,-4.70750,0.00000,-0.01013,0.00756,-0.98869,2023,6,12,13,38,57,806
0.10070,3.01000,-4.51500,0.00000,-0.01000,0.00866,-0.98808,2023,6,12,13,38,57,817
0.10080,2.92250,-4.62000,0.00000,-0.01037,0.01000,-0.98905,2023,6,12,13,38,57,828
0.10090,3.06250,-4.72500,0.00000,-0.01135,0.01000,-0.98686,2023,6,12,13,38,57,840
0.10100,3.09750,-4.58500,0.00000,-0.00842,0.01122,-0.98564,2023,6,12,13,38,57,851
0.10110,2.74750,-4.46250,0.00000,-0.01086,0.00671,-0.98918,2023,6,12,13,38,57,862
0.10120,3.08000,-4.56750,0.00000,-0.01025,0.00842,-0.98686,2023,6,12,13,38,57,873
0.10130,2.99250,-4.67250,0.00000,-0.01196,0.01013,-0.98576,2023,6,12,13,38,57,884
0.10140,3.18500,-4.69000,0.00000,-0.01122,0.00903,-0.99003,2023,6,12,13,38,57,895
0.10150,3.01000,-4.55000,0.00000,-0.01257,0.00952,-0.98942,2023,6,12,13,38,57,906
0.10160,2.94000,-4.39250,0.00000,-0.00939,0.00988,-0.98674,2023,6,12,13,38,57,917
0.10170,2.94000,-4.60250,0.00000,-0.01122,0.00878,-0.98613,2023,6,12,13,38,57,928
0.10180,2.85250,-4.46250,0.00000,-0.01074,0.01159,-0.98857,2023,6,12,13,38,57,940
0.10190,3.06250,-4.60250,0.00000,-0.01049,0.00903,-0.98735,2023,6,12,13,38,57,951
0.10200,3.06250,-4.67250,0.00000,-0.01110,0.01037,-0.98637,2023,6,12,13,38,57,962
0.10210,2.97500,-4.65500,0.00000,-0.01110,0.00903,-0.98613,2023,6,12,13,38,57,973
0.10220,3.15000,-4.42750,0.00000,-0.01061,0.00976,-0.98686,2023,6,12,13,38,58,4
0.10230,3.06250,-4.72500,0.00000,-0.01074,0.00964,-0.98735,2023,6,12,13,38,58,15
0.10240,2.95750,-4.55000,0.00000,-0.01013,0.00854,-0.98832,2023,6,12,13,38,58,26
0.10250,3.13250,-4.55000,0.00000,-0.01074,0.00769,-0.98783,2023,6,12,13,38,58,37
0.10260,3.18500,-4.41000,0.00000,-0.01318,0.00805,-0.99040,2023,6,12,13,38,58,48
0.10270,3.22000,-4.53250,0.00000,-0.01074,0.01159,-0.98869,2023,6,12,13,38,58,60
0.10280,3.02750,-4.44500,0.00000,-0.01330,0.00988,-0.98783,2023,6,12,13,38,58,71
0.10290,2.97500,-4.39250,0.00000,-0.00854,0.00647,-0.98674,2023,6,12,13,38,58,82
0.10300,3.04500,-4.48000,0.00000,-0.01037,0.00952,-0.98478,2023,6,12,13,38,58,93
0.10310,3.02750,-4.44500,0.00000,-0.00976,0.00903,-0.98625,2023,6,12,13,38,58,104
0.10320,3.11500,-4.58500,0.00000,-0.01232,0.00903,-0.98747,2023,6,12,13,38,58,115
0.10330,3.20250,-4.67250,0.00000,-0.00842,0.00683,-0.98844,2023,6,12,13,38,58,126
0.10340,3.04500,-4.63750,0.00000,-0.01220,0.01122,-0.98539,2023,6,12,13,38,58,137
0.10350,2.92250,-4.42750,0.00000,-0.01244,0.00915,-0.98698,2023,6,12,13,38,58,148
0.10360,2.90500,-4.62000,0.00000,-0.01281,0.00793,-0.98747,2023,6,12,13,38,58,160
0.10370,3.01000,-4.48000,0.00000,-0.00988,0.01025,-0.98979,2023,6,12,13,38,58,171
0.10380,2.99250,-4.69000,0.00000,-0.00878,0.01135,-0.98820,2023,6,12,13,38,58,182
0.10390,3.04500,-4.63750,0.00000,-0.01135,0.00976,-0.98405,2023,6,12,13,38,58,193
0.10400,2.99250,-4.48000,0.00000,-0.01183,0.00854,-0.98710,2023,6,12,13,38,58,204
0.10410,3.23750,-4.53250,0.00000,-0.01147,0.00842,-0.98759,2023,6,12,13,38,58,215
0.10420,3.16750,-4.56750,0.00000,-0.01220,0.00842,-0.98783,2023,6,12,13,38,58,226
0.10430,3.15000,-4.63750,0.00000,-0.01171,0.01037,-0.98503,2023,6,12,13,38,58,237
0.10440,3.11500,-4.55000,0.00000,-0.01122,0.00903,-0.98588,2023,6,12,13,38,58,248
0.10450,3.13250,-4.62000,0.00000,-0.00952,0.01037,-0.98796,2023,6,12,13,38,58,260
0.10460,3.02750,-4.44500,0.00000,-0.01074,0.00854,-0.98820,2023,6,12,13,38,58,271
0.10470,2.97500,-4.72500,0.00000,-0.01171,0.01013,-0.98491,2023,6,12,13,38,58,282
0.10480,3.02750,-4.46250,0.00000,-0.01110,0.00793,-0.98393,2023,6,12,13,38,58,293
0.10490,3.09750,-4.49750,0.00000,-0.01061,0.01061,-0.98735,2023,6,12,13,38,58,304
0.10500,3.11500,-4.69000,0.00000,-0.01244,0.00854,-0.98369,2023,6,12,13,38,58,315
0.10510,2.85250,-4.65500,0.00000,-0.01122,0.00854,-0.98783,2023,6,12,13,38,58,326
0.10520,3.01000,-4.56750,0.00000,-0.01232,0.00878,-0.98832,2023,6,12,13,38,58,337
0.10530,2.88750,-4.39250,0.00000,-0.01220,0.00830,-0.98820,2023,6,12,13,38,58,348
0.10540,3.04500,-4.55000,0.00000,-0.01061,0.00769,-0.98857,2023,6,12,13,38,58,360
0.10550,2.97500,-4.18250,0.00000,-0.01159,0.00964,-0.98722,2023,6,12,13,38,58,371
0.10560,2.92250,-4.51500,0.00000,-0.01232,0.00915,-0.98796,2023,6,12,13,38,58,382
0.10570,3.01000,-4.60250,0.00000,-0.01257,0.00988,-0.98747,2023,6,12,13,38,58,393
0.10580,2.95750,-4.49750,0.00000,-0.01244,0.01049,-0.98674,2023,6,12,13,38,58,404
0.10590,3.04500,-4.55000,0.00000,-0.01013,0.00756,-0.98808,2023,6,12,13,38,58,415
0.10600,3.22000,-4.60250,0.00000,-0.01037,0.01122,-0.98527,2023,6,12,13,38,58,426
0.10610,3.11500,-4.55000,0.00000,-0.01244,0.00927,-0.98820,2023,6,12,13,38,58,437
0.10620,2.88750,-4.46250,0.00000,-0.01135,0.00964,-0.98661,2023,6,12,13,38,58,448
0.10630,3.01000,-4.53250,0.00000,-0.01135,0.00939,-0.98918,2023,6,12,13,38,58,460
0.10640,3.04500,-4.58500,0.00000,-0.01086,0.00695,-0.98857,2023,6,12,13,38,58,471
0.10650,2.99250,-4.49750,0.00000,-0.01122,0.00915,-0.98796,2023,6,12,13,38,58,482
0.10660,2.85250,-4.41000,0.00000,-0.01171,0.01098,-0.98637,2023,6,12,13,38,58,493
0.10670,2.99250,-4.49750,0.00000,-0.01147,0.00988,-0.98747,2023,6,12,13,38,58,504
0.10680,3.08000,-4.46250,0.00000,-0.01183,0.00891,-0.98759,2023,6,12,13,38,58,515
0.10690,3.18500,-4.62000,0.00000,-0.01074,0.01013,-0.98478,2023,6,12,13,38,58,526
0.10700,3.04500,-4.63750,0.00000,-0.01049,0.00988,-0.98625,2023,6,12,13,38,58,537
0.10710,3.08000,-5.00500,0.00000,-0.01232,0.01110,-0.98393,2023,6,12,13,38,58,548
0.10720,3.15000,-4.51500,0.00000,-0.01244,0.00976,-0.98698,2023,6,12,13,38,58,560
0.10730,3.15000,-4.67250,0.00000,-0.01159,0.01159,-0.98417,2023,6,12,13,38,58,571
0.10740,2.94000,-4.72500,0.00000,-0.01098,0.00903,-0.98600,2023,6,12,13,38,58,582
0.10750,3.13250,-4.55000,0.00000,-0.01220,0.00915,-0.99052,2023,6,12,13,38,58,593
0.10760,2.94000,-4.42750,0.00000,-0.01257,0.00903,-0.98771,2023,6,12,13,38,58,604
0.10770,2.92250,-4.62000,0.00000,-0.01110,0.00915,-0.98881,2023,6,12,13,38,58,615
0.10780,3.15000,-4.58500,0.00000,-0.01098,0.00854,-0.98686,2023,6,12,13,38,58,626
0.10790,3.04500,-4.77750,0.00000,-0.01135,0.00976,-0.98796,2023,6,12,13,38,58,637
0.10800,2.97500,-4.65500,0.00000,-0.01159,0.00744,-0.98783,2023,6,12,13,38,58,648
0.10810,3.27250,-4.69000,0.00000,-0.00891,0.00854,-0.98503,2023,6,12,13,38,58,660
0.10820,3.16750,-4.39250,0.00000,-0.01110,0.00939,-0.98564,2023,6,12,13,38,58,671
0.10830,3.08000,-4.32250,0.00000,-0.00952,0.00939,-0.98637,2023,6,12,13,38,58,682
0.10840,3.15000,-4.60250,0.00000,-0.01183,0.00915,-0.98710,2023,6,12,13,38,58,693
0.10850,2.95750,-4.76000,0.00000,-0.01196,0.00964,-0.98625,2023,6,12,13,38,58,704
0.10860,3.11500,-4.56750,0.00000,-0.00891,0.00854,-0.98674,2023,6,12,13,38,58,715
0.10870,2.99250,-4.72500,0.00000,-0.01147,0.01013,-0.98783,2023,6,12,13,38,58,726
0.10880,2.99250,-4.48000,0.00000,-0.01013,0.00854,-0.98588,2023,6,12,13,38,58,737
0.10890,3.08000,-4.62000,0.00000,-0.01171,0.00952,-0.98893,2023,6,12,13,38,58,748
0.10900,2.97500,-4.53250,0.00000,-0.01061,0.00915,-0.98991,2023,6,12,13,38,58,760
0.10910,2.95750,-4.65500,0.00000,-0.01000,0.01025,-0.98759,2023,6,12,13,38,58,771
0.10920,3.08000,-4.58500,0.00000,-0.01318,0.00732,-0.98893,2023,6,12,13,38,58,782
0.10930,3.16750,-4.53250,0.00000,-0.01135,0.01110,-0.98722,2023,6,12,13,38,58,793
0.10940,2.99250,-4.53250,0.00000,-0.01013,0.00781,-0.98735,2023,6,12,13,38,58,804
0.10950,3.01000,-4.55000,0.00000,-0.00976,0.00891,-0.98783,2023,6,12,13,38,58,815
0.10960,2.97500,-4.48000,0.00000,-0.01147,0.00903,-0.98722,2023,6,12,13,38,58,826
0.10970,2.95750,-4.20000,0.00000,-0.01025,0.01013,-0.98844,2023,6,12,13,38,58,837
0.10980,3.11500,-4.56750,0.00000,-0.01098,0.00854,-0.98649,2023,6,12,13,38,58,848
0.10990,3.16750,-4.42750,0.00000,-0.01330,0.00952,-0.98637,2023,6,12,13,38,58,860
0.11000,3.20250,-4.53250,0.00000,-0.00964,0.00817,-0.98393,2023,6,12,13,38,58,871
0.11010,2.92250,-4.51500,0.00000,-0.01196,0.00939,-0.98527,2023,6,12,13,38,58,882
0.11020,3.01000,-4.51500,0.00000,-0.01244,0.01049,-0.98527,2023,6,12,13,38,58,893
0.11030,2.97500,-4.55000,0.00000,-0.01025,0.00830,-0.98735,2023,6,12,13,38,58,904
0.11040,3.15000,-4.63750,0.00000,-0.01061,0.00793,-0.98991,2023,6,12,13,38,58,915
0.11050,3.18500,-4.83000,0.00000,-0.01196,0.01000,-0.98796,2023,6,12,13,38,58,926
0.11060,2.95750,-4.39250,0.00000,-0.00964,0.00891,-0.99064,2023,6,12,13,38,58,937
0.11070,2.80000,-4.44500,0.00000,-0.01049,0.00976,-0.98710,2023,6,12,13,38,58,948
0.11080,3.23750,-4.60250,0.00000,-0.01244,0.00830,-0.98808,2023,6,12,13,38,58,960
0.11090,3.02750,-4.67250,0.00000,-0.01074,0.00756,-0.98600,2023,6,12,13,38,59,1
0.11100,2.97500,-4.41000,0.00000,-0.01025,0.01025,-0.99003,2023,6,12,13,38,59,12
0.11110,3.02750,-4.32250,0.00000,-0.01196,0.00927,-0.98649,2023,6,12,13,38,59,23
0.11120,3.09750,-4.74250,0.00000,-0.01318,0.00695,-0.98735,2023,6,12,13,38,59,34
0.11130,3.15000,-4.58500,0.00000,-0.01037,0.00805,-0.98710,2023,6,12,13,38,59,45
0.11140,2.92250,-4.48000,0.00000,-0.01147,0.01049,-0.98747,2023,6,12,13,38,59,56
0.11150,3.04500,-4.62000,0.00000,-0.01049,0.00854,-0.98661,2023,6,12,13,38,59,67
0.11160,3.08000,-4.55000,0.00000,-0.01110,0.01098,-0.98649,2023,6,12,13,38,59,78
0.11170,3.29000,-4.83000,0.00000,-0.01013,0.00976,-0.98564,2023,6,12,13,38,59,90
0.11180,3.02750,-4.65500,0.00000,-0.01257,0.00988,-0.98527,2023,6,12,13,38,59,101
0.11190,3.09750,-4.51500,0.00000,-0.01074,0.00952,-0.98832,2023,6,12,13,38,59,112
0.11200,3.15000,-4.70750,0.00000,-0.01122,0.00976,-0.98637,2023,6,12,13,38,59,123
0.11210,3.02750,-4.46250,0.00000,-0.01293,0.01086,-0.98661,2023,6,12,13,38,59,134
0.11220,3.20250,-4.58500,0.00000,-0.01122,0.01061,-0.98698,2023,6,12,13,38,59,145
0.11230,2.97500,-4.58500,0.00000,-0.01281,0.00878,-0.98735,2023,6,12,13,38,59,156
0.11240,2.85250,-4.58500,0.00000,-0.01305,0.00952,-0.98710,2023,6,12,13,38,59,167
0.11250,3.16750,-4.39250,0.00000,-0.01208,0.01025,-0.98747,2023,6,12,13,38,59,178
0.11260,3.04500,-4.53250,0.00000,-0.01000,0.00976,-0.98698,2023,6,12,13,38,59,190
0.11270,3.02750,-4.51500,0.00000,-0.01257,0.00939,-0.98576,2023,6,12,13,38,59,201
0.11280,2.97500,-4.58500,0.00000,-0.00988,0.00866,-0.99076,2023,6,12,13,38,59,212
0.11290,2.99250,-4.37500,0.00000,-0.01122,0.01000,-0.98832,2023,6,12,13,38,59,223
0.11300,3.02750,-4.44500,0.00000,-0.01318,0.00683,-0.98820,2023,6,12,13,38,59,234
0.11310,3.08000,-4.65500,0.00000,-0.01171,0.00915,-0.98783,2023,6,12,13,38,59,245
0.11320,2.97500,-4.55000,0.00000,-0.01171,0.00952,-0.98649,2023,6,12,13,38,59,256
0.11330,3.01000,-4.39250,0.00000,-0.01013,0.00903,-0.98564,2023,6,12,13,38,59,267
0.11340,3.06250,-4.60250,0.00000,-0.01074,0.00842,-0.98783,2023,6,12,13,38,59,278
0.11350,3.08000,-4.56750,0.00000,-0.01208,0.00915,-0.98710,2023,6,12,13,38,59,290
0.11360,3.22000,-4.60250,0.00000,-0.01098,0.00952,-0.98759,2023,6,12,13,38,59,301
0.11370,3.02750,-4.63750,0.00000,-0.00708,0.00671,-0.98381,2023,6,12,13,38,59,312
0.11380,3.01000,-4.72500,0.00000,-0.01086,0.00976,-0.98637,2023,6,12,13,38,59,323
0.11390,2.94000,-4.56750,0.00000,-0.01037,0.00866,-0.98661,2023,6,12,13,38,59,334
0.11400,3.13250,-4.58500,0.00000,-0.01086,0.00988,-0.98637,2023,6,12,13,38,59,345
0.11410,3.16750,-4.72500,0.00000,-0.01330,0.00842,-0.98661,2023,6,12,13,38,59,356
0.11420,2.97500,-4.72500,0.00000,-0.01366,0.00830,-0.98905,2023,6,12,13,38,59,367
0.11430,2.99250,-4.42750,0.00000,-0.01171,0.00988,-0.98674,2023,6,12,13,38,59,378
0.11440,3.20250,-4.62000,0.00000,-0.01061,0.00927,-0.98649,2023,6,12,13,38,59,390
0.11450,2.90500,-4.72500,0.00000,-0.00830,0.00988,-0.98759,2023,6,12,13,38,59,401
0.11460,2.99250,-4.62000,0.00000,-0.01037,0.00683,-0.98881,2023,6,12,13,38,59,412
0.11470,3.13250,-4.35750,0.00000,-0.01281,0.01086,-0.98759,2023,6,12,13,38,59,423
0.11480,3.08000,-4.51500,0.00000,-0.01281,0.00793,-0.98747,2023,6,12,13,38,59,434
0.11490,3.02750,-4.62000,0.00000,-0.01330,0.01037,-0.98722,2023,6,12,13,38,59,445
0.11500,2.92250,-4.32250,0.00000,-0.00915,0.00769,-0.98515,2023,6,12,13,38,59,456
0.11510,3.09750,-4.60250,0.00000,-0.00891,0.00927,-0.98430,2023,6,12,13,38,59,467
0.11520,3.06250,-4.56750,0.00000,-0.01122,0.00952,-0.98661,2023,6,12,13,38,59,478
0.11530,2.90500,-4.51500,0.00000,-0.01013,0.00964,-0.98637,2023,6,12,13,38,59,490
0.11540,2.87000,-4.46250,0.00000,-0.00952,0.00939,-0.98674,2023,6,12,13,38,59,501
0.11550,3.04500,-4.46250,0.00000,-0.01049,0.00976,-0.98747,2023,6,12,13,38,59,512
0.11560,3.08000,-4.55000,0.00000,-0.01086,0.00842,-0.98869,2023,6,12,13,38,59,523
0.11570,2.97500,-4.49750,0.00000,-0.01122,0.00878,-0.98869,2023,6,12,13,38,59,534
0.11580,3.13250,-4.58500,0.00000,-0.01049,0.00964,-0.98759,2023,6,12,13,38,59,545
0.11590,2.97500,-4.42750,0.00000,-0.01098,0.01122,-0.98491,2023,6,12,13,38,59,556
0.11600,3.09750,-4.72500,0.00000,-0.01342,0.00952,-0.98808,2023,6,12,13,38,59,567
0.11610,3.13250,-4.48000,0.00000,-0.01220,0.01183,-0.98515,2023,6,12,13,38,59,578
0.11620,3.20250,-4.69000,0.00000,-0.00988,0.00732,-0.98527,2023,6,12,13,38,59,590
0.11630,3.22000,-4.77750,0.00000,-0.01000,0.01000,-0.98820,2023,6,12,13,38,59,601
0.11640,3.13250,-4.25250,0.00000,-0.01159,0.01098,-0.98942,2023,6,12,13,38,59,612
0.11650,3.04500,-4.72500,0.00000,-0.01281,0.00939,-0.98857,2023,6,12,13,38,59,623
0.11660,3.04500,-4.55000,0.00000,-0.01098,0.00964,-0.98808,2023,6,12,13,38,59,634
0.11670,3.20250,-4.56750,0.00000,-0.01171,0.00720,-0.98722,2023,6,12,13,38,59,645
0.11680,2.85250,-4.49750,0.00000,-0.00915,0.00903,-0.98454,2023,6,12,13,38,59,656
0.11690,2.97500,-4.69000,0.00000,-0.01037,0.00781,-0.98722,2023,6,12,13,38,59,667
0.11700,2.88750,-4.46250,0.00000,-0.01074,0.01049,-0.98735,2023,6,12,13,38,59,678
0.11710,2.97500,-4.63750,0.00000,-0.01086,0.01098,-0.98954,2023,6,12,13,38,59,690
0.11720,3.25500,-4.69000,0.00000,-0.00988,0.01013,-0.98759,2023,6,12,13,38,59,701
0.11730,3.20250,-4.60250,0.00000,-0.01232,0.00732,-0.98893,2023,6,12,13,38,59,712
0.11740,3.15000,-4.44500,0.00000,-0.01305,0.00781,-0.98820,2023,6,12,13,38,59,723
0.11750,3.16750,-4.51500,0.00000,-0.01025,0.00927,-0.98771,2023,6,12,13,38,59,734
0.11760,2.87000,-4.62000,0.00000,-0.01122,0.00976,-0.98893,2023,6,12,13,38,59,745
0.11770,3.22000,-4.49750,0.00000,-0.01086,0.00927,-0.98747,2023,6,12,13,38,59,756
0.11780,3.02750,-4.49750,0.00000,-0.01000,0.00903,-0.98661,2023,6,12,13,38,59,767
0.11790,2.92250,-4.55000,0.00000,-0.01135,0.00939,-0.98649,2023,6,12,13,38,59,778
#2023/06/12 13:38:59
