#2023/06/12 10:19:59
time,wx,wy,wz,ax,ay,az,yy,MM,dd,hh,mm,ss,ms
0.00000,3.16750,-4.55000,0.00000,0.01708,0.97051,-0.20703,2023,6,12,10,19,59,828
0.00010,3.06250,-4.48000,0.00000,0.01586,0.97197,-0.20911,2023,6,12,10,19,59,839
0.00020,2.92250,-4.48000,0.00000,0.01635,0.96892,-0.21008,2023,6,12,10,19,59,850
0.00030,3.08000,-4.51500,0.00000,0.01501,0.97356,-0.20777,2023,6,12,10,19,59,861
0.00040,2.94000,-4.74250,0.00000,0.01586,0.97039,-0.20899,2023,6,12,10,19,59,872
0.00050,3.16750,-4.48000,0.00000,0.01513,0.97149,-0.21106,2023,6,12,10,19,59,883
0.00060,3.13250,-4.55000,0.00000,0.01476,0.97075,-0.20862,2023,6,12,10,19,59,894
0.00070,3.04500,-4.46250,0.00000,0.01659,0.97088,-0.20947,2023,6,12,10,19,59,905
0.00080,3.23750,-4.39250,0.00000,0.01757,0.97039,-0.21106,2023,6,12,10,19,59,916
0.00090,3.06250,-4.55000,0.00000,0.01635,0.97173,-0.20874,2023,6,12,10,19,59,927
0.00100,3.11500,-4.44500,0.00000,0.01440,0.97149,-0.20850,2023,6,12,10,19,59,939
0.00110,3.08000,-4.44500,0.00000,0.01549,0.97051,-0.20960,2023,6,12,10,19,59,950
0.00120,3.15000,-4.37500,0.00000,0.01684,0.96990,-0.20764,2023,6,12,10,19,59,961
0.00130,3.02750,-4.58500,0.00000,0.01781,0.97149,-0.21021,2023,6,12,10,19,59,972
0.00140,3.06250,-4.28750,0.00000,0.01732,0.97258,-0.20825,2023,6,12,10,19,59,983
0.00150,3.20250,-4.76000,0.00000,0.01659,0.96953,-0.20911,2023,6,12,10,19,59,994
0.00160,3.04500,-4.60250,0.00000,0.01501,0.97112,-0.20960,2023,6,12,10,19,59,5
0.00170,3.08000,-4.76000,0.00000,0.01549,0.97100,-0.20984,2023,6,12,10,19,59,16
0.00180,3.02750,-4.28750,0.00000,0.01501,0.97149,-0.21216,2023,6,12,10,19,59,27
0.00190,3.08000,-4.56750,0.00000,0.01513,0.97185,-0.20874,2023,6,12,10,19,59,39
0.00200,2.92250,-4.56750,0.00000,0.01488,0.97051,-0.21191,2023,6,12,10,19,59,50
0.00210,3.08000,-4.39250,0.00000,0.01720,0.97002,-0.20923,2023,6,12,10,19,59,61
0.00220,3.13250,-4.70750,0.00000,0.01696,0.97173,-0.20935,2023,6,12,10,19,59,72
0.00230,3.13250,-4.65500,0.00000,0.01635,0.97258,-0.20850,2023,6,12,10,19,59,83
0.00240,3.06250,-4.27000,0.00000,0.01598,0.97319,-0.21094,2023,6,12,10,19,59,94
0.00250,2.85250,-4.35750,0.00000,0.01598,0.97283,-0.20935,2023,6,12,10,19,59,105
0.00260,3.15000,-4.44500,0.00000,0.01623,0.97222,-0.20508,2023,6,12,10,19,59,116
0.00270,3.20250,-4.77750,0.00000,0.01537,0.97197,-0.21106,2023,6,12,10,19,59,127
0.00280,3.06250,-4.32250,0.00000,0.01708,0.97027,-0.21045,2023,6,12,10,19,59,139
0.00290,3.11500,-4.60250,0.00000,0.01720,0.97100,-0.20899,2023,6,12,10,19,59,150
0.00300,3.06250,-4.42750,0.00000,0.01537,0.97136,-0.21021,2023,6,12,10,19,59,161
0.00310,3.01000,-4.56750,0.00000,0.01610,0.97210,-0.21057,2023,6,12,10,19,59,172
0.00320,3.08000,-4.53250,0.00000,0.01452,0.97063,-0.20972,2023,6,12,10,19,59,183
0.00330,3.15000,-4.63750,0.00000,0.01293,0.97112,-0.20679,2023,6,12,10,19,59,194
0.00340,3.13250,-4.55000,0.00000,0.01488,0.97173,-0.20740,2023,6,12,10,19,59,205
0.00350,3.01000,-4.62000,0.00000,0.01623,0.97210,-0.20874,2023,6,12,10,19,59,216
0.00360,2.95750,-4.39250,0.00000,0.01854,0.97210,-0.20825,2023,6,12,10,19,59,227
0.00370,3.18500,-4.63750,0.00000,0.01635,0.96868,-0.20984,2023,6,12,10,19,59,239
0.00380,3.18500,-4.46250,0.00000,0.01708,0.97173,-0.20984,2023,6,12,10,19,59,250
0.00390,2.97500,-4.49750,0.00000,0.01501,0.97161,-0.20923,2023,6,12,10,19,59,261
0.00400,3.18500,-4.56750,0.00000,0.01598,0.97124,-0.21057,2023,6,12,10,19,59,272
0.00410,3.02750,-4.49750,0.00000,0.01586,0.96892,-0.21033,2023,6,12,10,19,59,283
0.00420,3.16750,-4.62000,0.00000,0.01537,0.97136,-0.20899,2023,6,12,10,19,59,294
0.00430,2.97500,-4.32250,0.00000,0.01476,0.97014,-0.20899,2023,6,12,10,19,59,305
0.00440,3.20250,-4.55000,0.00000,0.01684,0.97124,-0.20813,2023,6,12,10,20,0,6
0.00450,2.95750,-4.56750,0.00000,0.01574,0.97088,-0.20850,2023,6,12,10,20,0,17
0.00460,2.92250,-4.65500,0.00000,0.01769,0.96868,-0.20813,2023,6,12,10,20,0,29
0.00470,3.04500,-4.58500,0.00000,0.01720,0.96966,-0.20923,2023,6,12,10,20,0,40
0.00480,3.04500,-4.39250,0.00000,0.01403,0.97161,-0.20947,2023,6,12,10,20,0,51
0.00490,3.06250,-4.53250,0.00000,0.01623,0.97088,-0.20972,2023,6,12,10,20,0,62
0.00500,3.15000,-4.51500,0.00000,0.01708,0.97063,-0.20850,2023,6,12,10,20,0,73
0.00510,3.02750,-4.62000,0.00000,0.01415,0.97027,-0.20703,2023,6,12,10,20,0,84
0.00520,2.95750,-4.44500,0.00000,0.01623,0.97088,-0.21021,2023,6,12,10,20,0,95
0.00530,3.09750,-4.53250,0.00000,0.01562,0.97100,-0.20996,2023,6,12,10,20,0,106
0.00540,3.04500,-4.42750,0.00000,0.01452,0.97039,-0.20911,2023,6,12,10,20,0,117
0.00550,3.34250,-4.56750,0.00000,0.01696,0.97051,-0.20862,2023,6,12,10,20,0,129
0.00560,3.04500,-4.53250,0.00000,0.01732,0.96892,-0.20703,2023,6,12,10,20,0,140
0.00570,3.08000,-4.56750,0.00000,0.01610,0.96783,-0.21179,2023,6,12,10,20,0,151
0.00580,3.08000,-4.41000,0.00000,0.01549,0.96966,-0.20862,2023,6,12,10,20,0,162
0.00590,3.06250,-4.46250,0.00000,0.01671,0.97222,-0.20777,2023,6,12,10,20,0,173
0.00600,3.18500,-4.53250,0.00000,0.01647,0.97051,-0.20923,2023,6,12,10,20,0,184
0.00610,3.16750,-4.48000,0.00000,0.01537,0.96746,-0.21167,2023,6,12,10,20,0,195
0.00620,3.04500,-4.76000,0.00000,0.01720,0.97088,-0.20947,2023,6,12,10,20,0,206
0.00630,2.90500,-4.28750,0.00000,0.01598,0.97027,-0.20886,2023,6,12,10,20,0,217
0.00640,2.99250,-4.56750,0.00000,0.01525,0.97234,-0.21252,2023,6,12,10,20,0,229
0.00650,3.16750,-4.56750,0.00000,0.01488,0.97051,-0.21008,2023,6,12,10,20,0,240
0.00660,2.97500,-4.55000,0.00000,0.01818,0.97014,-0.21069,2023,6,12,10,20,0,251
0.00670,3.18500,-4.42750,0.00000,0.01537,0.97319,-0.21033,2023,6,12,10,20,0,262
0.00680,2.97500,-4.39250,0.00000,0.01549,0.97234,-0.21069,2023,6,12,10,20,0,273
0.00690,3.04500,-4.48000,0.00000,0.01684,0.97039,-0.20923,2023,6,12,10,20,0,284
0.00700,2.88750,-4.63750,0.00000,0.01440,0.97051,-0.20874,2023,6,12,10,20,0,295
0.00710,3.04500,-4.63750,0.00000,0.01818,0.97063,-0.20874,2023,6,12,10,20,0,306
0.00720,2.88750,-4.44500,0.00000,0.01537,0.97002,-0.20801,2023,6,12,10,20,0,317
0.00730,3.01000,-4.56750,0.00000,0.01537,0.97185,-0.20972,2023,6,12,10,20,0,329
0.00740,3.08000,-4.42750,0.00000,0.01574,0.97173,-0.20874,2023,6,12,10,20,0,340
0.00750,3.08000,-4.44500,0.00000,0.01537,0.97258,-0.20899,2023,6,12,10,20,0,351
0.00760,3.11500,-4.44500,0.00000,0.01379,0.97014,-0.20899,2023,6,12,10,20,0,362
0.00770,2.99250,-4.56750,0.00000,0.01513,0.96978,-0.20703,2023,6,12,10,20,0,373
0.00780,2.81750,-4.35750,0.00000,0.01732,0.97075,-0.20935,2023,6,12,10,20,0,384
0.00790,3.01000,-4.48000,0.00000,0.01586,0.97002,-0.20801,2023,6,12,10,20,0,395
0.00800,3.01000,-4.60250,0.00000,0.01757,0.97149,-0.21106,2023,6,12,10,20,0,406
0.00810,2.95750,-4.49750,0.00000,0.01488,0.97197,-0.20911,2023,6,12,10,20,0,417
0.00820,3.16750,-4.42750,0.00000,0.01537,0.97185,-0.20825,2023,6,12,10,20,0,429
0.00830,2.87000,-4.41000,0.00000,0.01427,0.97234,-0.20777,2023,6,12,10,20,0,440
0.00840,2.83500,-4.62000,0.00000,0.01684,0.96990,-0.21167,2023,6,12,10,20,0,451
0.00850,3.15000,-4.41000,0.00000,0.01598,0.97197,-0.20630,2023,6,12,10,20,0,462
0.00860,2.92250,-4.39250,0.00000,0.01623,0.97295,-0.21045,2023,6,12,10,20,0,473
0.00870,3.08000,-4.62000,0.00000,0.01684,0.96978,-0.20960,2023,6,12,10,20,0,484
0.00880,3.01000,-4.41000,0.00000,0.01635,0.97149,-0.21033,2023,6,12,10,20,0,495
0.00890,3.15000,-4.63750,0.00000,0.01671,0.97051,-0.20899,2023,6,12,10,20,0,506
0.00900,3.09750,-4.55000,0.00000,0.01598,0.97051,-0.20801,2023,6,12,10,20,0,517
0.00910,2.99250,-4.37500,0.00000,0.01745,0.96941,-0.21008,2023,6,12,10,20,0,529
0.00920,3.08000,-4.53250,0.00000,0.01513,0.97014,-0.20923,2023,6,12,10,20,0,540
0.00930,3.09750,-4.42750,0.00000,0.01488,0.96990,-0.20996,2023,6,12,10,20,0,551
0.00940,3.04500,-4.65500,0.00000,0.01513,0.96966,-0.20996,2023,6,12,10,20,0,562
0.00950,3.13250,-4.63750,0.00000,0.01818,0.96844,-0.20801,2023,6,12,10,20,0,573
0.00960,3.29000,-4.56750,0.00000,0.01574,0.97124,-0.20984,2023,6,12,10,20,0,584
0.00970,3.16750,-4.58500,0.00000,0.01647,0.97075,-0.20923,2023,6,12,10,20,0,595
0.00980,3.08000,-4.67250,0.00000,0.01623,0.96953,-0.20886,2023,6,12,10,20,0,606
0.00990,3.02750,-4.44500,0.00000,0.01574,0.97161,-0.20947,2023,6,12,10,20,0,617
0.01000,2.87000,-4.41000,0.00000,0.01598,0.97063,-0.20923,2023,6,12,10,20,0,629
0.01010,2.99250,-4.65500,0.00000,0.01525,0.96990,-0.20728,2023,6,12,10,20,0,640
0.01020,3.16750,-4.49750,0.00000,0.01806,0.96966,-0.20996,2023,6,12,10,20,0,651
0.01030,3.04500,-4.58500,0.00000,0.01427,0.97173,-0.21118,2023,6,12,10,20,0,662
0.01040,3.20250,-4.48000,0.00000,0.01610,0.97161,-0.21057,2023,6,12,10,20,0,673
0.01050,3.04500,-4.41000,0.00000,0.01415,0.97124,-0.20874,2023,6,12,10,20,0,684
0.01060,3.08000,-4.37500,0.00000,0.01452,0.97063,-0.20899,2023,6,12,10,20,0,695
0.01070,2.97500,-4.55000,0.00000,0.01720,0.97027,-0.20935,2023,6,12,10,20,0,706
0.01080,3.09750,-4.41000,0.00000,0.01501,0.97185,-0.20972,2023,6,12,10,20,0,717
0.01090,3.16750,-4.70750,0.00000,0.01549,0.97027,-0.21021,2023,6,12,10,20,0,729
0.01100,3.16750,-4.48000,0.00000,0.01574,0.97210,-0.20801,2023,6,12,10,20,0,740
0.01110,3.16750,-4.51500,0.00000,0.01659,0.97124,-0.21008,2023,6,12,10,20,0,751
0.01120,3.22000,-4.56750,0.00000,0.01610,0.96905,-0.20850,2023,6,12,10,20,0,762
0.01130,3.15000,-4.55000,0.00000,0.01781,0.97197,-0.20899,2023,6,12,10,20,0,773
0.01140,2.95750,-4.49750,0.00000,0.01647,0.97100,-0.21008,2023,6,12,10,20,0,784
0.01150,3.01000,-4.41000,0.00000,0.01586,0.97051,-0.20825,2023,6,12,10,20,0,795
0.01160,3.09750,-4.72500,0.00000,0.01671,0.97234,-0.20825,2023,6,12,10,20,0,806
0.01170,3.22000,-4.55000,0.00000,0.01720,0.96953,-0.21082,2023,6,12,10,20,0,817
0.01180,2.97500,-4.56750,0.00000,0.01452,0.97197,-0.20996,2023,6,12,10,20,0,829
0.01190,2.97500,-4.41000,0.00000,0.01501,0.97039,-0.20850,2023,6,12,10,20,0,840
0.01200,3.22000,-4.53250,0.00000,0.01610,0.97112,-0.21008,2023,6,12,10,20,0,851
0.01210,3.15000,-4.55000,0.00000,0.01623,0.97161,-0.20691,2023,6,12,10,20,0,862
0.01220,2.95750,-4.65500,0.00000,0.01537,0.97149,-0.20960,2023,6,12,10,20,0,873
0.01230,3.11500,-4.41000,0.00000,0.01610,0.96844,-0.20740,2023,6,12,10,20,0,884
0.01240,2.99250,-4.48000,0.00000,0.01525,0.97039,-0.20801,2023,6,12,10,20,0,895
0.01250,3.11500,-4.41000,0.00000,0.01598,0.97234,-0.20801,2023,6,12,10,20,0,906
0.01260,3.15000,-4.53250,0.00000,0.01537,0.97088,-0.21179,2023,6,12,10,20,0,917
0.01270,3.04500,-4.67250,0.00000,0.01684,0.97124,-0.20886,2023,6,12,10,20,0,929
0.01280,3.16750,-4.37500,0.00000,0.01562,0.97112,-0.20996,2023,6,12,10,20,0,940
0.01290,3.23750,-4.60250,0.00000,0.01513,0.97112,-0.20923,2023,6,12,10,20,0,951
0.01300,3.09750,-4.41000,0.00000,0.01574,0.96831,-0.20716,2023,6,12,10,20,0,962
0.01310,3.08000,-4.63750,0.00000,0.01891,0.97246,-0.21082,2023,6,12,10,20,0,973
0.01320,3.18500,-4.41000,0.00000,0.01696,0.96917,-0.20825,2023,6,12,10,20,0,984
0.01330,3.11500,-4.55000,0.00000,0.01525,0.97149,-0.20984,2023,6,12,10,20,0,995
0.01340,3.20250,-4.63750,0.00000,0.01732,0.97027,-0.20886,2023,6,12,10,20,1,6
0.01350,3.13250,-4.63750,0.00000,0.01793,0.97027,-0.20752,2023,6,12,10,20,1,17
0.01360,3.34250,-4.55000,0.00000,0.01427,0.97100,-0.20838,2023,6,12,10,20,1,29
0.01370,3.23750,-4.55000,0.00000,0.01537,0.97283,-0.20923,2023,6,12,10,20,1,40
0.01380,3.16750,-4.42750,0.00000,0.01757,0.97051,-0.20728,2023,6,12,10,20,1,51
0.01390,2.94000,-4.63750,0.00000,0.01671,0.97124,-0.20972,2023,6,12,10,20,1,62
0.01400,3.01000,-4.56750,0.00000,0.01598,0.97100,-0.20984,2023,6,12,10,20,1,73
0.01410,2.95750,-4.70750,0.00000,0.01574,0.96941,-0.21118,2023,6,12,10,20,1,84
0.01420,3.02750,-4.48000,0.00000,0.01610,0.97088,-0.20838,2023,6,12,10,20,1,95
0.01430,2.99250,-4.53250,0.00000,0.01671,0.96953,-0.20862,2023,6,12,10,20,1,106
0.01440,2.88750,-4.35750,0.00000,0.01818,0.97295,-0.20789,2023,6,12,10,20,1,117
0.01450,3.08000,-4.51500,0.00000,0.01793,0.97027,-0.21094,2023,6,12,10,20,1,129
0.01460,2.99250,-4.48000,0.00000,0.01415,0.97075,-0.20728,2023,6,12,10,20,1,140
0.01470,2.85250,-4.34000,0.00000,0.01305,0.97210,-0.20935,2023,6,12,10,20,1,151
0.01480,3.09750,-4.53250,0.00000,0.01647,0.97185,-0.21021,2023,6,12,10,20,1,162
0.01490,2.97500,-4.48000,0.00000,0.01647,0.97112,-0.20801,2023,6,12,10,20,1,173
0.01500,3.08000,-4.56750,0.00000,0.01537,0.97283,-0.20911,2023,6,12,10,20,1,184
0.01510,3.08000,-4.42750,0.00000,0.01696,0.96795,-0.20972,2023,6,12,10,20,1,195
0.01520,3.09750,-4.34000,0.00000,0.01403,0.96807,-0.21008,2023,6,12,10,20,1,206
0.01530,3.18500,-4.49750,0.00000,0.01305,0.97356,-0.21106,2023,6,12,10,20,1,217
0.01540,3.02750,-4.55000,0.00000,0.01586,0.96990,-0.21008,2023,6,12,10,20,1,229
0.01550,3.13250,-4.63750,0.00000,0.01647,0.97063,-0.21008,2023,6,12,10,20,1,240
0.01560,2.97500,-4.48000,0.00000,0.01501,0.96905,-0.20899,2023,6,12,10,20,1,251
0.01570,2.99250,-4.46250,0.00000,0.01562,0.97112,-0.20899,2023,6,12,10,20,1,262
0.01580,2.94000,-4.51500,0.00000,0.01562,0.97210,-0.20862,2023,6,12,10,20,1,273
0.01590,3.02750,-4.27000,0.00000,0.01684,0.97027,-0.20764,2023,6,12,10,20,1,284
0.01600,3.09750,-4.28750,0.00000,0.01659,0.97088,-0.20899,2023,6,12,10,20,1,295
0.01610,3.09750,-4.56750,0.00000,0.01476,0.97088,-0.21106,2023,6,12,10,20,1,306
0.01620,3.01000,-4.46250,0.00000,0.01598,0.96990,-0.20996,2023,6,12,10,20,1,317
0.01630,2.97500,-4.39250,0.00000,0.01586,0.97368,-0.20996,2023,6,12,10,20,1,329
0.01640,2.97500,-4.41000,0.00000,0.01537,0.97271,-0.20789,2023,6,12,10,20,1,340
0.01650,3.02750,-4.62000,0.00000,0.01415,0.96966,-0.20899,2023,6,12,10,20,1,351
0.01660,3.04500,-4.69000,0.00000,0.01574,0.97258,-0.21045,2023,6,12,10,20,1,362
0.01670,3.02750,-4.51500,0.00000,0.01586,0.97246,-0.21069,2023,6,12,10,20,1,373
0.01680,3.04500,-4.48000,0.00000,0.01415,0.97002,-0.21118,2023,6,12,10,20,1,384
0.01690,3.11500,-4.48000,0.00000,0.01671,0.97173,-0.20777,2023,6,12,10,20,1,395
0.01700,3.15000,-4.37500,0.00000,0.01610,0.97075,-0.21069,2023,6,12,10,20,1,406
0.01710,3.16750,-4.37500,0.00000,0.01732,0.97258,-0.20777,2023,6,12,10,20,1,417
0.01720,3.11500,-4.65500,0.00000,0.01598,0.97185,-0.20911,2023,6,12,10,20,1,429
0.01730,3.13250,-4.56750,0.00000,0.01635,0.97027,-0.20716,2023,6,12,10,20,1,440
0.01740,3.20250,-4.62000,0.00000,0.01574,0.97112,-0.21069,2023,6,12,10,20,1,451
0.01750,2.90500,-4.42750,0.00000,0.01623,0.97185,-0.20838,2023,6,12,10,20,1,462
0.01760,3.37750,-4.49750,0.00000,0.01549,0.97002,-0.20752,2023,6,12,10,20,1,473
0.01770,3.04500,-4.51500,0.00000,0.01549,0.97173,-0.20984,2023,6,12,10,20,1,484
0.01780,3.02750,-4.44500,0.00000,0.01940,0.96929,-0.21228,2023,6,12,10,20,1,495
0.01790,2.99250,-4.46250,0.00000,0.01464,0.97173,-0.21057,2023,6,12,10,20,1,506
0.01800,3.01000,-4.60250,0.00000,0.01635,0.97161,-0.21045,2023,6,12,10,20,1,517
0.01810,3.04500,-4.53250,0.00000,0.01549,0.97149,-0.20777,2023,6,12,10,20,1,529
0.01820,3.11500,-4.23500,0.00000,0.01598,0.97136,-0.21069,2023,6,12,10,20,1,540
0.01830,3.02750,-4.49750,0.00000,0.01513,0.97100,-0.20825,2023,6,12,10,20,1,551
0.01840,3.15000,-4.35750,0.00000,0.01623,0.97014,-0.20899,2023,6,12,10,20,1,562
0.01850,3.15000,-4.42750,0.00000,0.01647,0.96746,-0.20825,2023,6,12,10,20,1,573
0.01860,3.02750,-4.48000,0.00000,0.01598,0.96941,-0.20777,2023,6,12,10,20,1,584
0.01870,3.01000,-4.65500,0.00000,0.01537,0.97210,-0.20801,2023,6,12,10,20,1,595
0.01880,2.97500,-4.25250,0.00000,0.01452,0.97258,-0.21033,2023,6,12,10,20,1,606
0.01890,3.01000,-4.48000,0.00000,0.01574,0.96844,-0.20911,2023,6,12,10,20,1,617
0.01900,2.94000,-4.46250,0.00000,0.01598,0.97088,-0.20813,2023,6,12,10,20,1,629
0.01910,3.18500,-4.39250,0.00000,0.01464,0.97088,-0.20838,2023,6,12,10,20,1,640
0.01920,2.99250,-4.60250,0.00000,0.01525,0.96990,-0.20825,2023,6,12,10,20,1,651
0.01930,3.34250,-4.56750,0.00000,0.01525,0.97014,-0.20996,2023,6,12,10,20,1,662
0.01940,3.13250,-4.56750,0.00000,0.01610,0.97051,-0.20960,2023,6,12,10,20,1,673
0.01950,3.01000,-4.39250,0.00000,0.01549,0.97112,-0.20813,2023,6,12,10,20,1,684
0.01960,3.16750,-4.49750,0.00000,0.01623,0.97258,-0.20984,2023,6,12,10,20,1,695
0.01970,3.20250,-4.51500,0.00000,0.01708,0.97136,-0.20801,2023,6,12,10,20,1,706
0.01980,3.09750,-4.58500,0.00000,0.01635,0.97332,-0.20728,2023,6,12,10,20,1,717
0.01990,3.22000,-4.55000,0.00000,0.01671,0.97051,-0.20850,2023,6,12,10,20,1,729
0.02000,2.90500,-4.55000,0.00000,0.01574,0.96990,-0.20947,2023,6,12,10,20,1,740
0.02010,3.08000,-4.44500,0.00000,0.01476,0.96917,-0.20862,2023,6,12,10,20,1,751
0.02020,2.97500,-4.48000,0.00000,0.01623,0.97246,-0.20911,2023,6,12,10,20,1,762
0.02030,3.15000,-4.77750,0.00000,0.01257,0.97100,-0.21033,2023,6,12,10,20,1,773
0.02040,3.08000,-4.44500,0.00000,0.01391,0.96978,-0.20691,2023,6,12,10,20,1,784
0.02050,3.04500,-4.65500,0.00000,0.01537,0.96892,-0.20874,2023,6,12,10,20,1,795
0.02060,2.87000,-4.34000,0.00000,0.01525,0.97271,-0.20801,2023,6,12,10,20,1,806
0.02070,3.18500,-4.48000,0.00000,0.01647,0.97063,-0.20606,2023,6,12,10,20,1,817
0.02080,3.04500,-4.49750,0.00000,0.01598,0.97307,-0.20972,2023,6,12,10,20,1,829
0.02090,2.95750,-4.34000,0.00000,0.01452,0.97002,-0.20911,2023,6,12,10,20,1,840
0.02100,3.09750,-4.56750,0.00000,0.01549,0.97039,-0.21082,2023,6,12,10,20,1,851
0.02110,3.01000,-4.51500,0.00000,0.01720,0.96844,-0.21155,2023,6,12,10,20,1,862
0.02120,2.92250,-4.55000,0.00000,0.01244,0.97454,-0.20691,2023,6,12,10,20,1,873
0.02130,3.04500,-4.32250,0.00000,0.01598,0.96844,-0.20996,2023,6,12,10,20,1,884
0.02140,3.20250,-4.63750,0.00000,0.01452,0.97014,-0.20899,2023,6,12,10,20,1,895
0.02150,3.11500,-4.63750,0.00000,0.01464,0.97075,-0.21069,2023,6,12,10,20,1,906
0.02160,3.01000,-4.41000,0.00000,0.01598,0.97210,-0.20899,2023,6,12,10,20,1,917
0.02170,3.13250,-4.69000,0.00000,0.01452,0.97051,-0.20923,2023,6,12,10,20,1,929
0.02180,2.88750,-4.56750,0.00000,0.01732,0.96807,-0.20789,2023,6,12,10,20,1,940
0.02190,3.01000,-4.32250,0.00000,0.01647,0.97185,-0.20850,2023,6,12,10,20,1,951
0.02200,3.01000,-4.49750,0.00000,0.01488,0.97063,-0.20630,2023,6,12,10,20,1,962
0.02210,3.09750,-4.60250,0.00000,0.01537,0.97027,-0.20764,2023,6,12,10,20,2,3
0.02220,2.92250,-4.56750,0.00000,0.01525,0.97039,-0.20947,2023,6,12,10,20,2,14
0.02230,3.08000,-4.34000,0.00000,0.01781,0.97307,-0.20923,2023,6,12,10,20,2,25
0.02240,2.95750,-4.53250,0.00000,0.01488,0.97039,-0.20850,2023,6,12,10,20,2,36
0.02250,2.90500,-4.21750,0.00000,0.01525,0.97380,-0.20996,2023,6,12,10,20,2,47
0.02260,3.01000,-4.77750,0.00000,0.01903,0.96746,-0.20935,2023,6,12,10,20,2,59
0.02270,3.11500,-4.48000,0.00000,0.01745,0.97173,-0.21021,2023,6,12,10,20,2,70
0.02280,3.25500,-4.34000,0.00000,0.01806,0.96709,-0.20960,2023,6,12,10,20,2,81
0.02290,3.01000,-4.58500,0.00000,0.01623,0.97149,-0.21179,2023,6,12,10,20,2,92
0.02300,3.11500,-4.53250,0.00000,0.01269,0.96795,-0.20423,2023,6,12,10,20,2,103
0.02310,3.06250,-4.46250,0.00000,0.01757,0.97295,-0.21643,2023,6,12,10,20,2,114
0.02320,3.02750,-4.44500,0.00000,0.00891,0.97356,-0.20398,2023,6,12,10,20,2,125
0.02330,2.97500,-4.46250,0.00000,0.01671,0.97161,-0.20911,2023,6,12,10,20,2,136
0.02340,3.25500,-4.51500,0.00000,0.01562,0.97100,-0.20947,2023,6,12,10,20,2,147
0.02350,3.27250,-4.65500,0.00000,0.01732,0.96978,-0.21045,2023,6,12,10,20,2,159
0.02360,3.06250,-4.55000,0.00000,0.01586,0.97088,-0.20886,2023,6,12,10,20,2,170
0.02370,2.90500,-4.58500,0.00000,0.01610,0.97014,-0.20764,2023,6,12,10,20,2,181
0.02380,3.08000,-4.53250,0.00000,0.01549,0.97075,-0.20862,2023,6,12,10,20,2,192
0.02390,2.90500,-4.60250,0.00000,0.01684,0.97112,-0.20789,2023,6,12,10,20,2,203
0.02400,3.11500,-4.76000,0.00000,0.01440,0.97161,-0.20838,2023,6,12,10,20,2,214
0.02410,3.08000,-4.49750,0.00000,0.01720,0.97051,-0.20972,2023,6,12,10,20,2,225
0.02420,3.02750,-4.51500,0.00000,0.01671,0.97002,-0.20801,2023,6,12,10,20,2,236
0.02430,3.13250,-4.46250,0.00000,0.01464,0.97100,-0.20716,2023,6,12,10,20,2,247
0.02440,3.15000,-4.62000,0.00000,0.01464,0.97124,-0.20935,2023,6,12,10,20,2,259
0.02450,3.13250,-4.58500,0.00000,0.01464,0.97197,-0.20752,2023,6,12,10,20,2,270
0.02460,3.09750,-4.60250,0.00000,0.01342,0.97124,-0.21179,2023,6,12,10,20,2,281
0.02470,3.01000,-4.58500,0.00000,0.01549,0.97149,-0.20813,2023,6,12,10,20,2,292
0.02480,3.01000,-4.46250,0.00000,0.01647,0.97051,-0.20972,2023,6,12,10,20,2,303
0.02490,3.04500,-4.46250,0.00000,0.01525,0.97283,-0.20850,2023,6,12,10,20,2,314
0.02500,2.95750,-4.44500,0.00000,0.01488,0.97100,-0.21021,2023,6,12,10,20,2,325
0.02510,3.06250,-4.53250,0.00000,0.01366,0.96978,-0.21057,2023,6,12,10,20,2,336
0.02520,3.02750,-4.42750,0.00000,0.01696,0.97124,-0.21179,2023,6,12,10,20,2,347
0.02530,3.02750,-4.81250,0.00000,0.01745,0.97222,-0.21033,2023,6,12,10,20,2,359
0.02540,3.13250,-4.48000,0.00000,0.01745,0.97063,-0.20984,2023,6,12,10,20,2,370
0.02550,2.92250,-4.69000,0.00000,0.01671,0.97295,-0.21021,2023,6,12,10,20,2,381
0.02560,3.04500,-4.56750,0.00000,0.01708,0.97197,-0.21082,2023,6,12,10,20,2,392
0.02570,3.11500,-4.32250,0.00000,0.01549,0.96929,-0.21326,2023,6,12,10,20,2,403
0.02580,2.99250,-4.60250,0.00000,0.01793,0.97088,-0.20960,2023,6,12,10,20,2,414
0.02590,3.08000,-4.65500,0.00000,0.01623,0.97185,-0.21008,2023,6,12,10,20,2,425
0.02600,2.83500,-4.70750,0.00000,0.01403,0.96966,-0.21094,2023,6,12,10,20,2,436
0.02610,3.01000,-4.53250,0.00000,0.01745,0.97136,-0.20960,2023,6,12,10,20,2,447
0.02620,3.04500,-4.62000,0.00000,0.01501,0.97002,-0.21179,2023,6,12,10,20,2,459
0.02630,2.99250,-4.56750,0.00000,0.01488,0.97027,-0.21057,2023,6,12,10,20,2,470
0.02640,3.15000,-4.49750,0.00000,0.01696,0.97161,-0.21008,2023,6,12,10,20,2,481
0.02650,3.11500,-4.76000,0.00000,0.01464,0.97088,-0.21021,2023,6,12,10,20,2,492
0.02660,3.02750,-4.72500,0.00000,0.01501,0.97283,-0.20972,2023,6,12,10,20,2,503
0.02670,3.16750,-4.49750,0.00000,0.01513,0.96734,-0.21033,2023,6,12,10,20,2,514
0.02680,3.08000,-4.44500,0.00000,0.01708,0.96978,-0.20801,2023,6,12,10,20,2,525
0.02690,3.18500,-4.51500,0.00000,0.01671,0.96892,-0.20886,2023,6,12,10,20,2,536
0.02700,3.20250,-4.72500,0.00000,0.01793,0.96953,-0.20984,2023,6,12,10,20,2,547
0.02710,2.90500,-4.62000,0.00000,0.01549,0.97039,-0.20752,2023,6,12,10,20,2,559
0.02720,3.08000,-4.35750,0.00000,0.01818,0.97027,-0.21008,2023,6,12,10,20,2,570
0.02730,3.06250,-4.70750,0.00000,0.01659,0.97063,-0.20996,2023,6,12,10,20,2,581
0.02740,3.13250,-4.56750,0.00000,0.01464,0.97210,-0.20911,2023,6,12,10,20,2,592
0.02750,3.08000,-4.37500,0.00000,0.01623,0.96905,-0.20801,2023,6,12,10,20,2,603
0.02760,3.11500,-4.69000,0.00000,0.01440,0.97088,-0.20923,2023,6,12,10,20,2,614
0.02770,2.99250,-4.37500,0.00000,0.01513,0.96953,-0.20923,2023,6,12,10,20,2,625
0.02780,3.08000,-4.55000,0.00000,0.01525,0.97197,-0.21069,2023,6,12,10,20,2,636
0.02790,2.95750,-4.37500,0.00000,0.01732,0.97002,-0.20789,2023,6,12,10,20,2,647
0.02800,3.18500,-4.63750,0.00000,0.01574,0.97027,-0.20947,2023,6,12,10,20,2,659
0.02810,2.94000,-4.39250,0.00000,0.01525,0.97283,-0.20923,2023,6,12,10,20,2,670
0.02820,3.04500,-4.32250,0.00000,0.01684,0.97063,-0.20935,2023,6,12,10,20,2,681
0.02830,3.20250,-4.41000,0.00000,0.01732,0.97088,-0.20886,2023,6,12,10,20,2,692
0.02840,3.06250,-4.48000,0.00000,0.01562,0.97307,-0.20972,2023,6,12,10,20,2,703
0.02850,2.80000,-4.60250,0.00000,0.01537,0.97100,-0.20960,2023,6,12,10,20,2,714
0.02860,2.95750,-4.60250,0.00000,0.01403,0.97222,-0.20850,2023,6,12,10,20,2,725
0.02870,3.09750,-4.44500,0.00000,0.01684,0.97100,-0.20899,2023,6,12,10,20,2,736
0.02880,2.95750,-4.63750,0.00000,0.01757,0.97063,-0.21008,2023,6,12,10,20,2,747
0.02890,3.06250,-4.37500,0.00000,0.01488,0.97136,-0.21008,2023,6,12,10,20,2,759
0.02900,3.29000,-4.55000,0.00000,0.01574,0.97332,-0.20862,2023,6,12,10,20,2,770
0.02910,3.08000,-4.51500,0.00000,0.01623,0.97210,-0.20777,2023,6,12,10,20,2,781
0.02920,3.13250,-4.51500,0.00000,0.01818,0.97124,-0.20825,2023,6,12,10,20,2,792
0.02930,2.97500,-4.48000,0.00000,0.01708,0.97161,-0.20874,2023,6,12,10,20,2,803
0.02940,3.02750,-4.51500,0.00000,0.01696,0.97344,-0.20947,2023,6,12,10,20,2,814
0.02950,3.18500,-4.81250,0.00000,0.01464,0.97222,-0.20679,2023,6,12,10,20,2,825
0.02960,3.30750,-4.53250,0.00000,0.01635,0.97197,-0.20838,2023,6,12,10,20,2,836
0.02970,3.06250,-4.65500,0.00000,0.01769,0.97185,-0.21021,2023,6,12,10,20,2,847
0.02980,2.94000,-4.42750,0.00000,0.01647,0.96953,-0.20850,2023,6,12,10,20,2,859
0.02990,3.06250,-4.74250,0.00000,0.01684,0.97051,-0.20972,2023,6,12,10,20,2,870
0.03000,3.06250,-4.74250,0.00000,0.01647,0.96941,-0.21008,2023,6,12,10,20,2,881
0.03010,3.20250,-4.37500,0.00000,0.01549,0.97149,-0.20862,2023,6,12,10,20,2,892
0.03020,3.09750,-4.55000,0.00000,0.01684,0.97075,-0.20923,2023,6,12,10,20,2,903
0.03030,2.94000,-4.51500,0.00000,0.01598,0.97161,-0.20813,2023,6,12,10,20,2,914
0.03040,3.09750,-4.35750,0.00000,0.01488,0.97124,-0.20862,2023,6,12,10,20,2,925
0.03050,3.09750,-4.49750,0.00000,0.01659,0.97185,-0.20850,2023,6,12,10,20,2,936
0.03060,3.09750,-4.51500,0.00000,0.01562,0.97039,-0.20935,2023,6,12,10,20,2,947
0.03070,3.18500,-4.69000,0.00000,0.01769,0.97039,-0.20850,2023,6,12,10,20,2,959
0.03080,3.06250,-4.28750,0.00000,0.01647,0.97161,-0.20825,2023,6,12,10,20,3,0
0.03090,3.11500,-4.42750,0.00000,0.01427,0.97002,-0.20838,2023,6,12,10,20,3,11
0.03100,3.15000,-4.39250,0.00000,0.01671,0.97149,-0.20777,2023,6,12,10,20,3,22
0.03110,3.15000,-4.67250,0.00000,0.01525,0.97173,-0.20899,2023,6,12,10,20,3,33
0.03120,3.08000,-4.48000,0.00000,0.01562,0.97283,-0.20960,2023,6,12,10,20,3,44
0.03130,2.99250,-4.46250,0.00000,0.01830,0.97173,-0.20899,2023,6,12,10,20,3,55
0.03140,2.95750,-4.49750,0.00000,0.01793,0.97027,-0.20899,2023,6,12,10,20,3,66
0.03150,3.25500,-4.48000,0.00000,0.01732,0.97100,-0.20996,2023,6,12,10,20,3,77
0.03160,3.15000,-4.74250,0.00000,0.01501,0.97088,-0.21008,2023,6,12,10,20,3,89
0.03170,3.32500,-4.49750,0.00000,0.01574,0.97039,-0.21094,2023,6,12,10,20,3,100
0.03180,2.80000,-4.67250,0.00000,0.01610,0.97271,-0.21008,2023,6,12,10,20,3,111
0.03190,3.15000,-4.32250,0.00000,0.01659,0.97112,-0.20850,2023,6,12,10,20,3,122
0.03200,3.01000,-4.39250,0.00000,0.01757,0.96978,-0.20838,2023,6,12,10,20,3,133
0.03210,2.85250,-4.32250,0.00000,0.01598,0.97161,-0.20850,2023,6,12,10,20,3,144
0.03220,3.01000,-4.28750,0.00000,0.01586,0.96990,-0.20923,2023,6,12,10,20,3,155
0.03230,3.02750,-4.63750,0.00000,0.01818,0.97197,-0.20984,2023,6,12,10,20,3,166
0.03240,2.87000,-4.53250,0.00000,0.01513,0.97051,-0.20972,2023,6,12,10,20,3,177
0.03250,3.13250,-4.67250,0.00000,0.01501,0.97063,-0.20972,2023,6,12,10,20,3,189
0.03260,3.01000,-4.51500,0.00000,0.01684,0.97185,-0.21179,2023,6,12,10,20,3,200
0.03270,3.13250,-4.63750,0.00000,0.01586,0.97161,-0.21033,2023,6,12,10,20,3,211
0.03280,3.23750,-4.67250,0.00000,0.01513,0.97100,-0.20764,2023,6,12,10,20,3,222
0.03290,3.09750,-4.48000,0.00000,0.01440,0.97307,-0.20838,2023,6,12,10,20,3,233
0.03300,2.95750,-4.48000,0.00000,0.01732,0.97380,-0.20886,2023,6,12,10,20,3,244
0.03310,2.90500,-4.44500,0.00000,0.01610,0.97161,-0.20947,2023,6,12,10,20,3,255
0.03320,3.01000,-4.55000,0.00000,0.01793,0.96917,-0.20874,2023,6,12,10,20,3,266
0.03330,2.88750,-4.39250,0.00000,0.01757,0.97039,-0.20874,2023,6,12,10,20,3,277
0.03340,3.13250,-4.55000,0.00000,0.01562,0.96941,-0.20667,2023,6,12,10,20,3,289
0.03350,2.99250,-4.55000,0.00000,0.01635,0.96868,-0.20947,2023,6,12,10,20,3,300
0.03360,2.92250,-4.53250,0.00000,0.01745,0.96941,-0.20886,2023,6,12,10,20,3,311
0.03370,3.11500,-4.56750,0.00000,0.01659,0.97014,-0.20935,2023,6,12,10,20,3,322
0.03380,3.01000,-4.49750,0.00000,0.01635,0.97100,-0.20838,2023,6,12,10,20,3,333
0.03390,3.08000,-4.69000,0.00000,0.01440,0.97051,-0.20984,2023,6,12,10,20,3,344
0.03400,3.06250,-4.41000,0.00000,0.01476,0.96905,-0.21118,2023,6,12,10,20,3,355
0.03410,2.94000,-4.42750,0.00000,0.01696,0.97014,-0.20801,2023,6,12,10,20,3,366
0.03420,2.99250,-4.63750,0.00000,0.01659,0.97014,-0.20984,2023,6,12,10,20,3,377
0.03430,3.09750,-4.70750,0.00000,0.01562,0.97185,-0.20862,2023,6,12,10,20,3,389
0.03440,2.92250,-4.42750,0.00000,0.01281,0.97271,-0.20899,2023,6,12,10,20,3,400
0.03450,3.08000,-4.60250,0.00000,0.01501,0.97197,-0.20764,2023,6,12,10,20,3,411
0.03460,3.02750,-4.44500,0.00000,0.01720,0.97075,-0.21094,2023,6,12,10,20,3,422
0.03470,3.06250,-4.48000,0.00000,0.01488,0.97136,-0.20996,2023,6,12,10,20,3,433
0.03480,3.22000,-4.56750,0.00000,0.01440,0.97112,-0.20850,2023,6,12,10,20,3,444
0.03490,3.09750,-4.60250,0.00000,0.01549,0.97100,-0.20703,2023,6,12,10,20,3,455
0.03500,3.04500,-4.39250,0.00000,0.01623,0.97161,-0.20935,2023,6,12,10,20,3,466
0.03510,3.04500,-4.51500,0.00000,0.01537,0.97149,-0.21069,2023,6,12,10,20,3,477
0.03520,3.13250,-4.46250,0.00000,0.01452,0.97039,-0.21045,2023,6,12,10,20,3,489
0.03530,3.20250,-4.48000,0.00000,0.01769,0.96978,-0.20874,2023,6,12,10,20,3,500
0.03540,3.01000,-4.32250,0.00000,0.01806,0.97161,-0.20691,2023,6,12,10,20,3,511
0.03550,3.16750,-4.53250,0.00000,0.01720,0.97100,-0.20777,2023,6,12,10,20,3,522
0.03560,2.85250,-4.56750,0.00000,0.01513,0.97197,-0.20825,2023,6,12,10,20,3,533
0.03570,3.11500,-4.41000,0.00000,0.01610,0.97063,-0.20874,2023,6,12,10,20,3,544
0.03580,3.15000,-4.70750,0.00000,0.01623,0.97088,-0.20838,2023,6,12,10,20,3,555
0.03590,2.95750,-4.32250,0.00000,0.01549,0.97063,-0.20972,2023,6,12,10,20,3,566
0.03600,2.99250,-4.42750,0.00000,0.01452,0.97027,-0.20911,2023,6,12,10,20,3,577
0.03610,3.09750,-4.39250,0.00000,0.01647,0.97051,-0.20801,2023,6,12,10,20,3,589
0.03620,3.27250,-4.60250,0.00000,0.01488,0.97100,-0.20899,2023,6,12,10,20,3,600
0.03630,3.08000,-4.48000,0.00000,0.01684,0.96978,-0.20935,2023,6,12,10,20,3,611
0.03640,3.11500,-4.55000,0.00000,0.01537,0.97210,-0.20874,2023,6,12,10,20,3,622
0.03650,3.20250,-4.62000,0.00000,0.01598,0.97283,-0.20825,2023,6,12,10,20,3,633
0.03660,3.13250,-4.49750,0.00000,0.01623,0.97014,-0.20764,2023,6,12,10,20,3,644
0.03670,2.92250,-4.49750,0.00000,0.01647,0.97002,-0.20911,2023,6,12,10,20,3,655
0.03680,3.11500,-4.41000,0.00000,0.01525,0.96917,-0.21069,2023,6,12,10,20,3,666
0.03690,3.22000,-4.56750,0.00000,0.01635,0.97075,-0.20874,2023,6,12,10,20,3,677
0.03700,2.99250,-4.37500,0.00000,0.01440,0.97075,-0.20789,2023,6,12,10,20,3,689
0.03710,2.97500,-4.53250,0.00000,0.01647,0.97039,-0.20923,2023,6,12,10,20,3,700
0.03720,3.02750,-4.48000,0.00000,0.01830,0.96978,-0.21045,2023,6,12,10,20,3,711
0.03730,3.15000,-4.69000,0.00000,0.01598,0.97002,-0.20862,2023,6,12,10,20,3,722
0.03740,3.13250,-4.49750,0.00000,0.01720,0.97051,-0.20813,2023,6,12,10,20,3,733
0.03750,2.88750,-4.34000,0.00000,0.01647,0.97051,-0.21106,2023,6,12,10,20,3,744
0.03760,3.09750,-4.53250,0.00000,0.01562,0.97271,-0.20984,2023,6,12,10,20,3,755
0.03770,3.13250,-4.41000,0.00000,0.01537,0.97149,-0.20960,2023,6,12,10,20,3,766
0.03780,3.01000,-4.46250,0.00000,0.01464,0.97002,-0.20911,2023,6,12,10,20,3,777
0.03790,2.99250,-4.60250,0.00000,0.01549,0.97136,-0.20874,2023,6,12,10,20,3,789
0.03800,3.11500,-4.76000,0.00000,0.01659,0.96941,-0.20947,2023,6,12,10,20,3,800
0.03810,3.09750,-4.42750,0.00000,0.01647,0.97100,-0.21069,2023,6,12,10,20,3,811
0.03820,3.08000,-4.39250,0.00000,0.01720,0.97197,-0.20813,2023,6,12,10,20,3,822
0.03830,3.01000,-4.49750,0.00000,0.01647,0.97051,-0.20825,2023,6,12,10,20,3,833
0.03840,3.02750,-4.25250,0.00000,0.01732,0.97002,-0.20886,2023,6,12,10,20,3,844
0.03850,3.04500,-4.37500,0.00000,0.01537,0.97075,-0.20996,2023,6,12,10,20,3,855
0.03860,3.30750,-4.53250,0.00000,0.01671,0.97075,-0.20813,2023,6,12,10,20,3,866
0.03870,3.02750,-4.58500,0.00000,0.01562,0.97063,-0.20874,2023,6,12,10,20,3,877
0.03880,3.11500,-4.46250,0.00000,0.01757,0.96929,-0.20984,2023,6,12,10,20,3,889
0.03890,3.09750,-4.39250,0.00000,0.01488,0.97100,-0.20655,2023,6,12,10,20,3,900
0.03900,2.97500,-4.53250,0.00000,0.01464,0.97271,-0.20789,2023,6,12,10,20,3,911
0.03910,3.04500,-4.39250,0.00000,0.01842,0.97027,-0.20838,2023,6,12,10,20,3,922
0.03920,3.13250,-4.41000,0.00000,0.01537,0.97124,-0.20972,2023,6,12,10,20,3,933
0.03930,3.06250,-4.42750,0.00000,0.01488,0.97014,-0.20850,2023,6,12,10,20,3,944
0.03940,3.08000,-4.28750,0.00000,0.01525,0.97210,-0.20911,2023,6,12,10,20,3,955
0.03950,2.99250,-4.34000,0.00000,0.01647,0.97136,-0.21118,2023,6,12,10,20,3,966
0.03960,3.02750,-4.49750,0.00000,0.01427,0.97112,-0.21021,2023,6,12,10,20,4,7
0.03970,3.06250,-4.46250,0.00000,0.01549,0.96905,-0.20862,2023,6,12,10,20,4,19
0.03980,3.13250,-4.69000,0.00000,0.01537,0.97063,-0.20996,2023,6,12,10,20,4,30
0.03990,3.04500,-4.35750,0.00000,0.01549,0.96953,-0.20716,2023,6,12,10,20,4,41
0.04000,3.02750,-4.60250,0.00000,0.01745,0.97271,-0.20825,2023,6,12,10,20,4,52
0.04010,2.88750,-4.41000,0.00000,0.01586,0.97063,-0.20789,2023,6,12,10,20,4,63
0.04020,3.01000,-4.62000,0.00000,0.01732,0.97380,-0.20911,2023,6,12,10,20,4,74
0.04030,3.23750,-4.51500,0.00000,0.01781,0.96953,-0.20972,2023,6,12,10,20,4,85
0.04040,3.13250,-4.39250,0.00000,0.01513,0.97173,-0.20972,2023,6,12,10,20,4,96
0.04050,3.04500,-4.53250,0.00000,0.01684,0.97051,-0.21021,2023,6,12,10,20,4,107
0.04060,3.09750,-4.65500,0.00000,0.01586,0.97295,-0.21008,2023,6,12,10,20,4,119
0.04070,3.15000,-4.60250,0.00000,0.01513,0.96953,-0.21069,2023,6,12,10,20,4,130
0.04080,2.92250,-4.44500,0.00000,0.01708,0.97002,-0.20655,2023,6,12,10,20,4,141
0.04090,3.02750,-4.41000,0.00000,0.01732,0.97051,-0.20838,2023,6,12,10,20,4,152
0.04100,3.02750,-4.37500,0.00000,0.01379,0.97039,-0.20923,2023,6,12,10,20,4,163
0.04110,3.02750,-4.53250,0.00000,0.01476,0.97210,-0.20911,2023,6,12,10,20,4,174
0.04120,3.11500,-4.79500,0.00000,0.01513,0.97210,-0.20972,2023,6,12,10,20,4,185
0.04130,3.04500,-4.25250,0.00000,0.01452,0.97100,-0.20911,2023,6,12,10,20,4,196
0.04140,2.92250,-4.34000,0.00000,0.01464,0.97088,-0.20752,2023,6,12,10,20,4,207
0.04150,3.11500,-4.69000,0.00000,0.01647,0.97173,-0.20740,2023,6,12,10,20,4,219
0.04160,3.11500,-4.60250,0.00000,0.01440,0.97149,-0.20862,2023,6,12,10,20,4,230
0.04170,3.20250,-4.65500,0.00000,0.01793,0.97039,-0.20935,2023,6,12,10,20,4,241
0.04180,3.02750,-4.53250,0.00000,0.01501,0.97063,-0.20618,2023,6,12,10,20,4,252
0.04190,3.16750,-4.32250,0.00000,0.01464,0.97283,-0.20740,2023,6,12,10,20,4,263
0.04200,2.95750,-4.49750,0.00000,0.01696,0.97173,-0.20630,2023,6,12,10,20,4,274
0.04210,3.01000,-4.44500,0.00000,0.01671,0.97112,-0.20838,2023,6,12,10,20,4,285
0.04220,3.04500,-4.65500,0.00000,0.01732,0.97185,-0.20679,2023,6,12,10,20,4,296
0.04230,3.11500,-4.56750,0.00000,0.01659,0.96953,-0.20789,2023,6,12,10,20,4,307
0.04240,3.22000,-4.81250,0.00000,0.01525,0.97002,-0.21033,2023,6,12,10,20,4,319
0.04250,3.13250,-4.39250,0.00000,0.01318,0.97124,-0.20777,2023,6,12,10,20,4,330
0.04260,3.15000,-4.55000,0.00000,0.01818,0.97112,-0.20899,2023,6,12,10,20,4,341
0.04270,2.85250,-4.39250,0.00000,0.01562,0.97063,-0.20740,2023,6,12,10,20,4,352
0.04280,2.95750,-4.56750,0.00000,0.01647,0.97039,-0.20960,2023,6,12,10,20,4,363
0.04290,2.92250,-4.55000,0.00000,0.01647,0.97222,-0.21069,2023,6,12,10,20,4,374
0.04300,2.80000,-4.56750,0.00000,0.01549,0.97136,-0.20899,2023,6,12,10,20,4,385
0.04310,3.02750,-4.55000,0.00000,0.01562,0.97063,-0.20911,2023,6,12,10,20,4,396
0.04320,3.04500,-4.39250,0.00000,0.01647,0.97063,-0.21045,2023,6,12,10,20,4,407
0.04330,2.87000,-4.56750,0.00000,0.01574,0.97063,-0.20862,2023,6,12,10,20,4,419
0.04340,3.13250,-4.44500,0.00000,0.01598,0.97271,-0.20972,2023,6,12,10,20,4,430
0.04350,3.02750,-4.67250,0.00000,0.01671,0.96978,-0.20947,2023,6,12,10,20,4,441
0.04360,2.90500,-4.53250,0.00000,0.01488,0.96905,-0.21021,2023,6,12,10,20,4,452
0.04370,2.92250,-4.48000,0.00000,0.01696,0.97112,-0.21008,2023,6,12,10,20,4,463
0.04380,2.99250,-4.65500,0.00000,0.01598,0.97283,-0.20838,2023,6,12,10,20,4,474
0.04390,2.99250,-4.63750,0.00000,0.01525,0.97112,-0.21021,2023,6,12,10,20,4,485
0.04400,3.18500,-4.55000,0.00000,0.01708,0.97051,-0.20899,2023,6,12,10,20,4,496
0.04410,3.08000,-4.49750,0.00000,0.01537,0.97222,-0.20642,2023,6,12,10,20,4,507
0.04420,3.13250,-4.44500,0.00000,0.01440,0.97173,-0.21179,2023,6,12,10,20,4,519
0.04430,3.06250,-4.56750,0.00000,0.01757,0.97088,-0.20923,2023,6,12,10,20,4,530
0.04440,3.09750,-4.51500,0.00000,0.01525,0.97014,-0.21106,2023,6,12,10,20,4,541
0.04450,3.04500,-4.34000,0.00000,0.01635,0.97075,-0.21155,2023,6,12,10,20,4,552
0.04460,2.99250,-4.51500,0.00000,0.01415,0.97271,-0.21130,2023,6,12,10,20,4,563
0.04470,3.06250,-4.51500,0.00000,0.01415,0.97075,-0.20630,2023,6,12,10,20,4,574
0.04480,3.04500,-4.55000,0.00000,0.01586,0.97295,-0.21008,2023,6,12,10,20,4,585
0.04490,3.27250,-4.51500,0.00000,0.01647,0.96795,-0.20813,2023,6,12,10,20,4,596
0.04500,3.01000,-4.34000,0.00000,0.01635,0.97161,-0.20874,2023,6,12,10,20,4,607
0.04510,3.23750,-4.69000,0.00000,0.01476,0.97332,-0.21082,2023,6,12,10,20,4,619
0.04520,3.04500,-4.63750,0.00000,0.01806,0.97173,-0.20886,2023,6,12,10,20,4,630
0.04530,2.87000,-4.56750,0.00000,0.01745,0.97075,-0.20850,2023,6,12,10,20,4,641
0.04540,3.08000,-4.48000,0.00000,0.01769,0.96892,-0.20886,2023,6,12,10,20,4,652
0.04550,3.25500,-4.60250,0.00000,0.01610,0.97027,-0.20862,2023,6,12,10,20,4,663
0.04560,3.16750,-4.53250,0.00000,0.01586,0.97002,-0.21057,2023,6,12,10,20,4,674
0.04570,2.97500,-4.53250,0.00000,0.01562,0.97075,-0.20947,2023,6,12,10,20,4,685
0.04580,3.04500,-4.48000,0.00000,0.01440,0.97075,-0.20899,2023,6,12,10,20,4,696
0.04590,3.06250,-4.49750,0.00000,0.01659,0.97161,-0.20923,2023,6,12,10,20,4,707
0.04600,2.88750,-4.74250,0.00000,0.01720,0.97222,-0.20777,2023,6,12,10,20,4,719
0.04610,2.99250,-4.48000,0.00000,0.01464,0.97063,-0.20996,2023,6,12,10,20,4,730
0.04620,3.04500,-4.48000,0.00000,0.01793,0.96990,-0.21033,2023,6,12,10,20,4,741
0.04630,2.97500,-4.34000,0.00000,0.01623,0.97124,-0.20923,2023,6,12,10,20,4,752
0.04640,3.08000,-4.65500,0.00000,0.01464,0.96941,-0.20911,2023,6,12,10,20,4,763
0.04650,2.99250,-4.67250,0.00000,0.01793,0.97124,-0.21069,2023,6,12,10,20,4,774
0.04660,2.94000,-4.53250,0.00000,0.01501,0.97149,-0.20838,2023,6,12,10,20,4,785
0.04670,3.13250,-4.74250,0.00000,0.01745,0.97149,-0.21265,2023,6,12,10,20,4,796
0.04680,3.09750,-4.48000,0.00000,0.01549,0.97136,-0.21021,2023,6,12,10,20,4,807
0.04690,3.09750,-4.60250,0.00000,0.01452,0.97063,-0.21118,2023,6,12,10,20,4,819
0.04700,3.15000,-4.56750,0.00000,0.01647,0.97063,-0.20972,2023,6,12,10,20,4,830
0.04710,3.09750,-4.55000,0.00000,0.01659,0.96941,-0.21167,2023,6,12,10,20,4,841
0.04720,3.04500,-4.49750,0.00000,0.01586,0.96966,-0.20996,2023,6,12,10,20,4,852
0.04730,2.92250,-4.56750,0.00000,0.01513,0.97100,-0.20716,2023,6,12,10,20,4,863
0.04740,3.15000,-4.49750,0.00000,0.01647,0.97161,-0.21167,2023,6,12,10,20,4,874
0.04750,3.09750,-4.49750,0.00000,0.01830,0.97173,-0.20899,2023,6,12,10,20,4,885
0.04760,3.06250,-4.74250,0.00000,0.01610,0.97002,-0.20838,2023,6,12,10,20,4,896
0.04770,2.92250,-4.44500,0.00000,0.01513,0.97258,-0.20801,2023,6,12,10,20,4,907
0.04780,3.04500,-4.39250,0.00000,0.01549,0.96770,-0.20752,2023,6,12,10,20,4,919
0.04790,3.01000,-4.60250,0.00000,0.01562,0.97222,-0.21106,2023,6,12,10,20,4,930
0.04800,3.15000,-4.56750,0.00000,0.01562,0.97210,-0.20984,2023,6,12,10,20,4,941
0.04810,3.09750,-4.67250,0.00000,0.01806,0.96880,-0.20984,2023,6,12,10,20,4,952
0.04820,3.25500,-4.51500,0.00000,0.01562,0.97063,-0.21313,2023,6,12,10,20,4,963
0.04830,3.04500,-4.34000,0.00000,0.01513,0.97271,-0.21143,2023,6,12,10,20,4,974
0.04840,2.97500,-4.42750,0.00000,0.01671,0.97063,-0.21204,2023,6,12,10,20,5,5
0.04850,2.97500,-4.53250,0.00000,0.01427,0.97039,-0.20923,2023,6,12,10,20,5,16
0.04860,3.08000,-4.58500,0.00000,0.01671,0.97088,-0.21228,2023,6,12,10,20,5,27
0.04870,2.99250,-4.58500,0.00000,0.01598,0.97027,-0.20838,2023,6,12,10,20,5,39
0.04880,3.13250,-4.60250,0.00000,0.01586,0.96905,-0.21021,2023,6,12,10,20,5,50
0.04890,2.99250,-4.41000,0.00000,0.01781,0.97136,-0.20911,2023,6,12,10,20,5,61
0.04900,3.02750,-4.69000,0.00000,0.01574,0.97246,-0.21045,2023,6,12,10,20,5,72
0.04910,3.18500,-4.55000,0.00000,0.01586,0.97112,-0.21057,2023,6,12,10,20,5,83
0.04920,2.99250,-4.42750,0.00000,0.01623,0.97002,-0.20874,2023,6,12,10,20,5,94
0.04930,3.15000,-4.39250,0.00000,0.01391,0.97246,-0.20899,2023,6,12,10,20,5,105
0.04940,2.95750,-4.58500,0.00000,0.01610,0.97136,-0.20874,2023,6,12,10,20,5,116
0.04950,3.08000,-4.63750,0.00000,0.01793,0.96953,-0.21240,2023,6,12,10,20,5,127
0.04960,3.02750,-4.83000,0.00000,0.01610,0.97234,-0.21069,2023,6,12,10,20,5,139
0.04970,2.87000,-4.39250,0.00000,0.01610,0.97124,-0.20972,2023,6,12,10,20,5,150
0.04980,3.02750,-4.63750,0.00000,0.01598,0.97039,-0.21094,2023,6,12,10,20,5,161
0.04990,3.08000,-4.60250,0.00000,0.01610,0.96990,-0.21045,2023,6,12,10,20,5,172
0.05000,2.94000,-4.72500,0.00000,0.01659,0.97210,-0.20874,2023,6,12,10,20,5,183
0.05010,2.95750,-4.51500,0.00000,0.01732,0.97136,-0.20862,2023,6,12,10,20,5,194
0.05020,3.08000,-4.55000,0.00000,0.01549,0.97136,-0.21008,2023,6,12,10,20,5,205
0.05030,3.09750,-4.41000,0.00000,0.01647,0.97197,-0.21033,2023,6,12,10,20,5,216
0.05040,3.11500,-4.51500,0.00000,0.01623,0.97124,-0.21082,2023,6,12,10,20,5,227
0.05050,2.88750,-4.65500,0.00000,0.01586,0.97185,-0.20862,2023,6,12,10,20,5,239
0.05060,2.97500,-4.32250,0.00000,0.01586,0.97039,-0.20923,2023,6,12,10,20,5,250
0.05070,3.16750,-4.51500,0.00000,0.01525,0.97222,-0.21094,2023,6,12,10,20,5,261
0.05080,3.15000,-4.55000,0.00000,0.01476,0.97136,-0.20838,2023,6,12,10,20,5,272
0.05090,3.13250,-4.56750,0.00000,0.01537,0.97246,-0.20996,2023,6,12,10,20,5,283
0.05100,3.09750,-4.62000,0.00000,0.01708,0.97210,-0.21106,2023,6,12,10,20,5,294
0.05110,2.97500,-4.58500,0.00000,0.01684,0.97161,-0.20557,2023,6,12,10,20,5,305
0.05120,3.06250,-4.51500,0.00000,0.01464,0.97027,-0.21069,2023,6,12,10,20,5,316
0.05130,3.15000,-4.51500,0.00000,0.01464,0.97222,-0.21057,2023,6,12,10,20,5,327
0.05140,2.97500,-4.49750,0.00000,0.01586,0.97027,-0.20972,2023,6,12,10,20,5,339
0.05150,2.80000,-4.30500,0.00000,0.01732,0.97405,-0.20667,2023,6,12,10,20,5,350
0.05160,3.13250,-4.53250,0.00000,0.01549,0.97307,-0.21033,2023,6,12,10,20,5,361
0.05170,2.95750,-4.58500,0.00000,0.01720,0.97014,-0.20886,2023,6,12,10,20,5,372
0.05180,2.99250,-4.46250,0.00000,0.01635,0.97112,-0.20911,2023,6,12,10,20,5,383
0.05190,2.81750,-4.25250,0.00000,0.01537,0.97039,-0.21045,2023,6,12,10,20,5,394
0.05200,3.09750,-4.51500,0.00000,0.01720,0.97185,-0.21033,2023,6,12,10,20,5,405
0.05210,3.06250,-4.49750,0.00000,0.01562,0.97014,-0.20960,2023,6,12,10,20,5,416
0.05220,3.04500,-4.46250,0.00000,0.01537,0.97088,-0.20752,2023,6,12,10,20,5,427
0.05230,3.15000,-4.35750,0.00000,0.01720,0.97210,-0.21191,2023,6,12,10,20,5,439
0.05240,2.95750,-4.32250,0.00000,0.01549,0.97088,-0.21106,2023,6,12,10,20,5,450
0.05250,2.99250,-4.48000,0.00000,0.01684,0.96978,-0.20886,2023,6,12,10,20,5,461
0.05260,2.90500,-4.48000,0.00000,0.01537,0.96892,-0.21179,2023,6,12,10,20,5,472
0.05270,2.99250,-4.63750,0.00000,0.01513,0.97161,-0.21228,2023,6,12,10,20,5,483
0.05280,2.92250,-4.49750,0.00000,0.01525,0.97014,-0.21106,2023,6,12,10,20,5,494
0.05290,2.90500,-4.63750,0.00000,0.01525,0.97234,-0.20984,2023,6,12,10,20,5,505
0.05300,3.02750,-4.74250,0.00000,0.01769,0.97161,-0.20984,2023,6,12,10,20,5,516
0.05310,3.02750,-4.62000,0.00000,0.01647,0.97088,-0.20984,2023,6,12,10,20,5,527
0.05320,3.18500,-4.51500,0.00000,0.01659,0.97161,-0.21045,2023,6,12,10,20,5,539
0.05330,2.88750,-4.46250,0.00000,0.01598,0.97222,-0.21082,2023,6,12,10,20,5,550
0.05340,3.27250,-4.55000,0.00000,0.01562,0.96953,-0.21277,2023,6,12,10,20,5,561
0.05350,3.02750,-4.42750,0.00000,0.01379,0.97124,-0.21069,2023,6,12,10,20,5,572
0.05360,3.04500,-4.48000,0.00000,0.01769,0.97197,-0.21118,2023,6,12,10,20,5,583
0.05370,3.02750,-4.56750,0.00000,0.01659,0.97136,-0.21057,2023,6,12,10,20,5,594
0.05380,3.09750,-4.46250,0.00000,0.01586,0.97002,-0.20972,2023,6,12,10,20,5,605
0.05390,3.25500,-4.72500,0.00000,0.01610,0.97075,-0.20911,2023,6,12,10,20,5,616
0.05400,3.01000,-4.46250,0.00000,0.01586,0.96807,-0.21118,2023,6,12,10,20,5,627
0.05410,3.22000,-4.53250,0.00000,0.01745,0.97124,-0.20850,2023,6,12,10,20,5,639
0.05420,3.02750,-4.63750,0.00000,0.01610,0.97319,-0.20923,2023,6,12,10,20,5,650
0.05430,3.08000,-4.53250,0.00000,0.01757,0.97051,-0.21057,2023,6,12,10,20,5,661
0.05440,3.13250,-4.39250,0.00000,0.01745,0.97124,-0.21143,2023,6,12,10,20,5,672
0.05450,2.92250,-4.35750,0.00000,0.01769,0.97063,-0.20813,2023,6,12,10,20,5,683
0.05460,3.04500,-4.51500,0.00000,0.01391,0.97124,-0.20801,2023,6,12,10,20,5,694
0.05470,3.09750,-4.77750,0.00000,0.01708,0.97088,-0.20960,2023,6,12,10,20,5,705
0.05480,2.99250,-4.39250,0.00000,0.01635,0.97112,-0.20862,2023,6,12,10,20,5,716
0.05490,2.85250,-4.58500,0.00000,0.01684,0.97124,-0.20825,2023,6,12,10,20,5,727
0.05500,3.08000,-4.55000,0.00000,0.01464,0.97124,-0.21021,2023,6,12,10,20,5,739
0.05510,2.99250,-4.23500,0.00000,0.01757,0.97075,-0.21008,2023,6,12,10,20,5,750
0.05520,3.13250,-4.67250,0.00000,0.01684,0.97258,-0.21033,2023,6,12,10,20,5,761
0.05530,2.81750,-4.44500,0.00000,0.01574,0.97014,-0.21082,2023,6,12,10,20,5,772
0.05540,3.01000,-4.41000,0.00000,0.01635,0.97368,-0.20960,2023,6,12,10,20,5,783
0.05550,3.04500,-4.56750,0.00000,0.01549,0.96917,-0.21057,2023,6,12,10,20,5,794
0.05560,2.94000,-4.46250,0.00000,0.01574,0.97149,-0.20728,2023,6,12,10,20,5,805
0.05570,3.06250,-4.49750,0.00000,0.01647,0.97136,-0.20691,2023,6,12,10,20,5,816
0.05580,3.02750,-4.62000,0.00000,0.01696,0.97136,-0.21228,2023,6,12,10,20,5,827
0.05590,3.09750,-4.30500,0.00000,0.01574,0.96917,-0.21106,2023,6,12,10,20,5,839
0.05600,2.95750,-4.37500,0.00000,0.01671,0.96892,-0.20655,2023,6,12,10,20,5,850
0.05610,3.09750,-4.63750,0.00000,0.01488,0.96929,-0.20801,2023,6,12,10,20,5,861
0.05620,3.01000,-4.51500,0.00000,0.01720,0.96978,-0.20874,2023,6,12,10,20,5,872
0.05630,3.02750,-4.41000,0.00000,0.01623,0.97100,-0.20899,2023,6,12,10,20,5,883
0.05640,3.09750,-4.65500,0.00000,0.01501,0.97027,-0.20862,2023,6,12,10,20,5,894
0.05650,3.16750,-4.39250,0.00000,0.01403,0.97039,-0.21057,2023,6,12,10,20,5,905
0.05660,3.32500,-4.81250,0.00000,0.01501,0.97356,-0.21057,2023,6,12,10,20,5,916
0.05670,3.13250,-4.46250,0.00000,0.01415,0.97149,-0.20716,2023,6,12,10,20,5,927
0.05680,2.81750,-4.42750,0.00000,0.01586,0.97100,-0.20825,2023,6,12,10,20,5,939
0.05690,3.16750,-4.67250,0.00000,0.01647,0.97100,-0.21033,2023,6,12,10,20,5,950
0.05700,2.90500,-4.49750,0.00000,0.01574,0.97210,-0.20813,2023,6,12,10,20,5,961
0.05710,3.09750,-4.53250,0.00000,0.01757,0.96929,-0.20789,2023,6,12,10,20,6,2
0.05720,2.97500,-4.51500,0.00000,0.01549,0.97234,-0.20801,2023,6,12,10,20,6,13
0.05730,3.04500,-4.49750,0.00000,0.01537,0.97124,-0.20911,2023,6,12,10,20,6,24
0.05740,3.06250,-4.60250,0.00000,0.01464,0.97149,-0.21069,2023,6,12,10,20,6,35
0.05750,3.20250,-4.39250,0.00000,0.01647,0.96929,-0.20984,2023,6,12,10,20,6,46
0.05760,3.06250,-4.63750,0.00000,0.01525,0.96941,-0.20923,2023,6,12,10,20,6,57
0.05770,3.18500,-4.49750,0.00000,0.01574,0.97173,-0.20899,2023,6,12,10,20,6,69
0.05780,3.13250,-4.67250,0.00000,0.01452,0.97075,-0.21008,2023,6,12,10,20,6,80
0.05790,2.87000,-4.56750,0.00000,0.01720,0.97100,-0.20996,2023,6,12,10,20,6,91
0.05800,3.09750,-4.60250,0.00000,0.01562,0.97100,-0.21143,2023,6,12,10,20,6,102
0.05810,2.99250,-4.41000,0.00000,0.01732,0.97136,-0.20923,2023,6,12,10,20,6,113
0.05820,3.06250,-4.39250,0.00000,0.01513,0.97368,-0.21252,2023,6,12,10,20,6,124
0.05830,3.23750,-4.60250,0.00000,0.01915,0.97197,-0.20972,2023,6,12,10,20,6,135
0.05840,2.88750,-4.32250,0.00000,0.01684,0.97222,-0.20935,2023,6,12,10,20,6,146
0.05850,2.94000,-4.41000,0.00000,0.01647,0.97051,-0.20947,2023,6,12,10,20,6,157
0.05860,3.06250,-4.53250,0.00000,0.01696,0.97185,-0.20764,2023,6,12,10,20,6,169
0.05870,2.90500,-4.35750,0.00000,0.01598,0.97014,-0.21191,2023,6,12,10,20,6,180
0.05880,3.23750,-4.58500,0.00000,0.01525,0.97088,-0.21179,2023,6,12,10,20,6,191
0.05890,2.87000,-4.63750,0.00000,0.01574,0.97246,-0.20740,2023,6,12,10,20,6,202
0.05900,2.95750,-4.60250,0.00000,0.01745,0.97100,-0.21021,2023,6,12,10,20,6,213
0.05910,3.09750,-4.35750,0.00000,0.01427,0.97234,-0.21008,2023,6,12,10,20,6,224
0.05920,3.27250,-4.72500,0.00000,0.01598,0.97197,-0.20996,2023,6,12,10,20,6,235
0.05930,2.95750,-4.53250,0.00000,0.01708,0.97197,-0.20825,2023,6,12,10,20,6,246
0.05940,3.06250,-4.55000,0.00000,0.01671,0.96941,-0.20899,2023,6,12,10,20,6,257
0.05950,2.92250,-4.56750,0.00000,0.01488,0.97368,-0.20984,2023,6,12,10,20,6,269
0.05960,2.92250,-4.44500,0.00000,0.01476,0.97039,-0.20850,2023,6,12,10,20,6,280
0.05970,2.97500,-4.70750,0.00000,0.01610,0.97112,-0.20899,2023,6,12,10,20,6,291
0.05980,2.99250,-4.63750,0.00000,0.01586,0.96819,-0.20862,2023,6,12,10,20,6,302
0.05990,3.16750,-4.55000,0.00000,0.01574,0.97088,-0.20777,2023,6,12,10,20,6,313
0.06000,3.06250,-4.74250,0.00000,0.01647,0.97075,-0.21021,2023,6,12,10,20,6,324
0.06010,3.13250,-4.49750,0.00000,0.01708,0.97161,-0.21045,2023,6,12,10,20,6,335
0.06020,3.15000,-4.58500,0.00000,0.01452,0.97161,-0.20947,2023,6,12,10,20,6,346
0.06030,3.02750,-4.60250,0.00000,0.01415,0.97088,-0.20777,2023,6,12,10,20,6,357
0.06040,3.11500,-4.58500,0.00000,0.01659,0.96966,-0.20874,2023,6,12,10,20,6,369
0.06050,3.18500,-4.65500,0.00000,0.01342,0.97014,-0.21008,2023,6,12,10,20,6,380
0.06060,3.25500,-4.42750,0.00000,0.01903,0.97161,-0.20935,2023,6,12,10,20,6,391
0.06070,3.08000,-4.60250,0.00000,0.01537,0.97149,-0.20801,2023,6,12,10,20,6,402
0.06080,2.99250,-4.42750,0.00000,0.01391,0.97002,-0.20655,2023,6,12,10,20,6,413
0.06090,3.11500,-4.51500,0.00000,0.01464,0.97112,-0.20862,2023,6,12,10,20,6,424
0.06100,3.04500,-4.42750,0.00000,0.01415,0.97112,-0.21265,2023,6,12,10,20,6,435
0.06110,3.13250,-4.35750,0.00000,0.01598,0.97075,-0.20947,2023,6,12,10,20,6,446
0.06120,3.02750,-4.49750,0.00000,0.01647,0.96966,-0.20947,2023,6,12,10,20,6,457
0.06130,3.15000,-4.65500,0.00000,0.01562,0.97112,-0.20947,2023,6,12,10,20,6,469
0.06140,3.09750,-4.44500,0.00000,0.01635,0.97319,-0.20740,2023,6,12,10,20,6,480
0.06150,2.83500,-4.44500,0.00000,0.01488,0.96941,-0.20850,2023,6,12,10,20,6,491
0.06160,3.08000,-4.60250,0.00000,0.01806,0.97490,-0.20813,2023,6,12,10,20,6,502
0.06170,3.13250,-4.67250,0.00000,0.01635,0.97210,-0.21143,2023,6,12,10,20,6,513
0.06180,3.06250,-4.30500,0.00000,0.01598,0.97124,-0.21021,2023,6,12,10,20,6,524
0.06190,3.04500,-4.51500,0.00000,0.01537,0.97246,-0.20972,2023,6,12,10,20,6,535
0.06200,2.95750,-4.51500,0.00000,0.01586,0.96880,-0.20691,2023,6,12,10,20,6,546
0.06210,3.04500,-4.27000,0.00000,0.01525,0.97258,-0.20801,2023,6,12,10,20,6,557
0.06220,3.01000,-4.48000,0.00000,0.01501,0.97002,-0.20850,2023,6,12,10,20,6,569
0.06230,2.95750,-4.48000,0.00000,0.01623,0.96978,-0.20874,2023,6,12,10,20,6,580
0.06240,2.92250,-4.39250,0.00000,0.01513,0.97161,-0.21082,2023,6,12,10,20,6,591
0.06250,2.95750,-4.69000,0.00000,0.01708,0.96929,-0.20947,2023,6,12,10,20,6,602
0.06260,2.99250,-4.46250,0.00000,0.01781,0.97197,-0.20850,2023,6,12,10,20,6,613
0.06270,3.08000,-4.35750,0.00000,0.01708,0.97136,-0.20947,2023,6,12,10,20,6,624
0.06280,3.06250,-4.53250,0.00000,0.01806,0.97002,-0.20972,2023,6,12,10,20,6,635
0.06290,2.97500,-4.69000,0.00000,0.01488,0.97173,-0.21130,2023,6,12,10,20,6,646
0.06300,3.16750,-4.32250,0.00000,0.01562,0.97014,-0.20679,2023,6,12,10,20,6,657
0.06310,3.06250,-4.44500,0.00000,0.01623,0.97002,-0.20911,2023,6,12,10,20,6,669
0.06320,3.06250,-4.27000,0.00000,0.01525,0.97197,-0.20996,2023,6,12,10,20,6,680
0.06330,2.83500,-4.53250,0.00000,0.01586,0.97197,-0.20935,2023,6,12,10,20,6,691
0.06340,3.15000,-4.60250,0.00000,0.01513,0.97222,-0.21301,2023,6,12,10,20,6,702
0.06350,2.92250,-4.44500,0.00000,0.01525,0.96966,-0.21057,2023,6,12,10,20,6,713
0.06360,2.87000,-4.76000,0.00000,0.01610,0.97319,-0.21008,2023,6,12,10,20,6,724
0.06370,2.97500,-4.49750,0.00000,0.01671,0.97075,-0.20764,2023,6,12,10,20,6,735
0.06380,3.08000,-4.49750,0.00000,0.01647,0.96990,-0.20874,2023,6,12,10,20,6,746
0.06390,3.18500,-4.46250,0.00000,0.01732,0.97039,-0.20960,2023,6,12,10,20,6,757
0.06400,3.09750,-4.46250,0.00000,0.01696,0.97075,-0.21021,2023,6,12,10,20,6,769
0.06410,3.16750,-4.41000,0.00000,0.01659,0.97283,-0.20984,2023,6,12,10,20,6,780
0.06420,2.97500,-4.46250,0.00000,0.01415,0.97100,-0.20874,2023,6,12,10,20,6,791
0.06430,3.08000,-4.58500,0.00000,0.01598,0.97112,-0.20777,2023,6,12,10,20,6,802
0.06440,3.06250,-4.55000,0.00000,0.01793,0.97429,-0.20972,2023,6,12,10,20,6,813
0.06450,3.08000,-4.34000,0.00000,0.01537,0.97112,-0.20862,2023,6,12,10,20,6,824
0.06460,2.90500,-4.51500,0.00000,0.01464,0.97063,-0.20850,2023,6,12,10,20,6,835
0.06470,2.94000,-4.48000,0.00000,0.01586,0.97014,-0.20789,2023,6,12,10,20,6,846
0.06480,3.04500,-4.62000,0.00000,0.01562,0.96966,-0.20947,2023,6,12,10,20,6,857
0.06490,3.02750,-4.49750,0.00000,0.01574,0.97258,-0.20777,2023,6,12,10,20,6,869
0.06500,3.08000,-4.49750,0.00000,0.01720,0.96990,-0.20923,2023,6,12,10,20,6,880
0.06510,3.23750,-4.65500,0.00000,0.01708,0.97124,-0.20935,2023,6,12,10,20,6,891
0.06520,3.27250,-4.58500,0.00000,0.01720,0.97197,-0.20996,2023,6,12,10,20,6,902
0.06530,2.99250,-4.63750,0.00000,0.01549,0.97246,-0.20923,2023,6,12,10,20,6,913
0.06540,2.97500,-4.56750,0.00000,0.01745,0.97246,-0.20813,2023,6,12,10,20,6,924
0.06550,3.29000,-4.69000,0.00000,0.01903,0.97283,-0.21143,2023,6,12,10,20,6,935
0.06560,3.01000,-4.32250,0.00000,0.01598,0.97051,-0.21204,2023,6,12,10,20,6,946
0.06570,3.01000,-4.72500,0.00000,0.01708,0.97088,-0.20960,2023,6,12,10,20,6,957
0.06580,3.04500,-4.46250,0.00000,0.01501,0.96929,-0.20947,2023,6,12,10,20,6,969
0.06590,3.22000,-4.56750,0.00000,0.01818,0.97161,-0.20984,2023,6,12,10,20,7,0
0.06600,2.92250,-4.53250,0.00000,0.01598,0.97234,-0.21277,2023,6,12,10,20,7,11
0.06610,3.15000,-4.56750,0.00000,0.01720,0.97002,-0.20874,2023,6,12,10,20,7,22
0.06620,3.08000,-4.65500,0.00000,0.01696,0.97063,-0.20838,2023,6,12,10,20,7,33
0.06630,3.06250,-4.63750,0.00000,0.01476,0.97063,-0.20801,2023,6,12,10,20,7,44
0.06640,3.09750,-4.67250,0.00000,0.01696,0.96892,-0.20984,2023,6,12,10,20,7,55
0.06650,3.02750,-4.34000,0.00000,0.01537,0.96953,-0.21045,2023,6,12,10,20,7,66
0.06660,3.06250,-4.25250,0.00000,0.01732,0.96966,-0.21045,2023,6,12,10,20,7,77
0.06670,2.85250,-4.30500,0.00000,0.01806,0.97063,-0.21057,2023,6,12,10,20,7,89
0.06680,3.11500,-4.67250,0.00000,0.01513,0.97222,-0.20594,2023,6,12,10,20,7,100
0.06690,3.06250,-4.46250,0.00000,0.01732,0.97112,-0.20777,2023,6,12,10,20,7,111
0.06700,2.90500,-4.44500,0.00000,0.01537,0.97173,-0.21008,2023,6,12,10,20,7,122
0.06710,2.92250,-4.44500,0.00000,0.01574,0.97124,-0.20825,2023,6,12,10,20,7,133
0.06720,3.11500,-4.35750,0.00000,0.01513,0.96990,-0.21118,2023,6,12,10,20,7,144
0.06730,3.15000,-4.55000,0.00000,0.01854,0.96978,-0.21082,2023,6,12,10,20,7,155
0.06740,2.88750,-4.32250,0.00000,0.01488,0.97088,-0.20764,2023,6,12,10,20,7,166
0.06750,2.99250,-4.62000,0.00000,0.01549,0.97161,-0.20838,2023,6,12,10,20,7,177
0.06760,2.97500,-4.53250,0.00000,0.01598,0.97319,-0.20911,2023,6,12,10,20,7,189
0.06770,3.13250,-4.55000,0.00000,0.01574,0.97088,-0.21057,2023,6,12,10,20,7,200
0.06780,3.16750,-4.63750,0.00000,0.01549,0.97258,-0.21240,2023,6,12,10,20,7,211
0.06790,3.11500,-4.32250,0.00000,0.01452,0.97002,-0.21216,2023,6,12,10,20,7,222
0.06800,3.01000,-4.58500,0.00000,0.01720,0.96978,-0.21021,2023,6,12,10,20,7,233
0.06810,3.02750,-4.56750,0.00000,0.01684,0.96795,-0.21008,2023,6,12,10,20,7,244
0.06820,3.15000,-4.41000,0.00000,0.01623,0.96990,-0.21082,2023,6,12,10,20,7,255
0.06830,3.15000,-4.58500,0.00000,0.01513,0.97173,-0.21008,2023,6,12,10,20,7,266
0.06840,3.16750,-4.51500,0.00000,0.01610,0.97027,-0.20886,2023,6,12,10,20,7,277
0.06850,3.06250,-4.51500,0.00000,0.01659,0.97075,-0.21228,2023,6,12,10,20,7,289
0.06860,3.16750,-4.53250,0.00000,0.01623,0.97075,-0.20874,2023,6,12,10,20,7,300
0.06870,3.01000,-4.39250,0.00000,0.01586,0.97100,-0.20899,2023,6,12,10,20,7,311
0.06880,3.02750,-4.51500,0.00000,0.01549,0.97185,-0.20838,2023,6,12,10,20,7,322
0.06890,3.11500,-4.76000,0.00000,0.01745,0.97185,-0.20850,2023,6,12,10,20,7,333
0.06900,2.95750,-4.35750,0.00000,0.01610,0.97222,-0.20825,2023,6,12,10,20,7,344
0.06910,3.22000,-4.41000,0.00000,0.01732,0.97051,-0.20862,2023,6,12,10,20,7,355
0.06920,2.95750,-4.41000,0.00000,0.01659,0.97136,-0.20972,2023,6,12,10,20,7,366
0.06930,3.02750,-4.35750,0.00000,0.01342,0.97075,-0.20911,2023,6,12,10,20,7,377
0.06940,2.87000,-4.39250,0.00000,0.01623,0.97088,-0.20850,2023,6,12,10,20,7,389
0.06950,3.15000,-4.60250,0.00000,0.01732,0.97124,-0.20813,2023,6,12,10,20,7,400
0.06960,3.02750,-4.62000,0.00000,0.01501,0.97014,-0.20984,2023,6,12,10,20,7,411
0.06970,2.94000,-4.49750,0.00000,0.01732,0.96905,-0.20838,2023,6,12,10,20,7,422
0.06980,3.06250,-4.56750,0.00000,0.01647,0.97088,-0.20838,2023,6,12,10,20,7,433
0.06990,3.08000,-4.69000,0.00000,0.01525,0.97039,-0.20947,2023,6,12,10,20,7,444
0.07000,2.85250,-4.60250,0.00000,0.01623,0.97051,-0.21106,2023,6,12,10,20,7,455
0.07010,2.85250,-4.37500,0.00000,0.01842,0.97088,-0.20984,2023,6,12,10,20,7,466
0.07020,3.15000,-4.65500,0.00000,0.01623,0.97027,-0.21045,2023,6,12,10,20,7,477
0.07030,3.15000,-4.76000,0.00000,0.01513,0.97173,-0.21033,2023,6,12,10,20,7,489
0.07040,2.81750,-4.48000,0.00000,0.01720,0.96966,-0.20789,2023,6,12,10,20,7,500
0.07050,3.11500,-4.53250,0.00000,0.01745,0.97173,-0.20874,2023,6,12,10,20,7,511
0.07060,3.06250,-4.41000,0.00000,0.01586,0.97075,-0.21216,2023,6,12,10,20,7,522
0.07070,3.06250,-4.56750,0.00000,0.01476,0.97124,-0.21008,2023,6,12,10,20,7,533
0.07080,2.99250,-4.44500,0.00000,0.01610,0.97100,-0.21094,2023,6,12,10,20,7,544
0.07090,2.94000,-4.46250,0.00000,0.01659,0.97149,-0.20899,2023,6,12,10,20,7,555
0.07100,3.08000,-4.56750,0.00000,0.01537,0.97161,-0.21069,2023,6,12,10,20,7,566
0.07110,2.99250,-4.49750,0.00000,0.01562,0.97222,-0.20947,2023,6,12,10,20,7,577
0.07120,3.08000,-4.72500,0.00000,0.01537,0.97088,-0.21021,2023,6,12,10,20,7,589
0.07130,3.04500,-4.58500,0.00000,0.01623,0.97014,-0.21057,2023,6,12,10,20,7,600
0.07140,3.02750,-4.42750,0.00000,0.01330,0.97149,-0.20886,2023,6,12,10,20,7,611
0.07150,3.01000,-4.58500,0.00000,0.01769,0.97222,-0.20838,2023,6,12,10,20,7,622
0.07160,3.02750,-4.37500,0.00000,0.01671,0.96941,-0.20581,2023,6,12,10,20,7,633
0.07170,3.22000,-4.44500,0.00000,0.01574,0.97075,-0.21021,2023,6,12,10,20,7,644
0.07180,2.99250,-4.60250,0.00000,0.01781,0.97271,-0.21008,2023,6,12,10,20,7,655
0.07190,2.97500,-4.44500,0.00000,0.01549,0.96868,-0.20984,2023,6,12,10,20,7,666
0.07200,3.04500,-4.53250,0.00000,0.01501,0.97075,-0.21008,2023,6,12,10,20,7,677
0.07210,3.11500,-4.72500,0.00000,0.01488,0.96953,-0.20984,2023,6,12,10,20,7,689
0.07220,2.94000,-4.41000,0.00000,0.01684,0.97149,-0.20728,2023,6,12,10,20,7,700
0.07230,3.13250,-4.34000,0.00000,0.01549,0.97027,-0.21106,2023,6,12,10,20,7,711
0.07240,2.83500,-4.49750,0.00000,0.01391,0.97344,-0.20984,2023,6,12,10,20,7,722
0.07250,3.13250,-4.42750,0.00000,0.01574,0.97271,-0.21118,2023,6,12,10,20,7,733
0.07260,3.06250,-4.20000,0.00000,0.01781,0.96966,-0.21021,2023,6,12,10,20,7,744
0.07270,2.99250,-4.49750,0.00000,0.01684,0.96722,-0.20996,2023,6,12,10,20,7,755
0.07280,2.90500,-4.44500,0.00000,0.01452,0.97258,-0.20923,2023,6,12,10,20,7,766
0.07290,3.06250,-4.46250,0.00000,0.01720,0.96966,-0.21021,2023,6,12,10,20,7,777
0.07300,3.01000,-4.53250,0.00000,0.01610,0.97210,-0.21021,2023,6,12,10,20,7,789
0.07310,3.01000,-4.41000,0.00000,0.01440,0.97124,-0.21057,2023,6,12,10,20,7,800
0.07320,3.09750,-4.44500,0.00000,0.01647,0.97258,-0.21008,2023,6,12,10,20,7,811
0.07330,3.13250,-4.48000,0.00000,0.01757,0.96880,-0.21118,2023,6,12,10,20,7,822
0.07340,3.02750,-4.41000,0.00000,0.01696,0.97405,-0.20813,2023,6,12,10,20,7,833
0.07350,2.99250,-4.58500,0.00000,0.01525,0.96990,-0.20874,2023,6,12,10,20,7,844
0.07360,3.18500,-4.83000,0.00000,0.01623,0.97124,-0.21021,2023,6,12,10,20,7,855
0.07370,3.02750,-4.41000,0.00000,0.01598,0.97246,-0.20850,2023,6,12,10,20,7,866
0.07380,2.99250,-4.46250,0.00000,0.01562,0.97088,-0.20874,2023,6,12,10,20,7,877
0.07390,3.02750,-4.62000,0.00000,0.01574,0.97063,-0.20789,2023,6,12,10,20,7,889
0.07400,2.83500,-4.58500,0.00000,0.01732,0.97283,-0.20838,2023,6,12,10,20,7,900
0.07410,3.08000,-4.39250,0.00000,0.01781,0.97051,-0.21008,2023,6,12,10,20,7,911
0.07420,3.23750,-4.70750,0.00000,0.01720,0.97112,-0.20777,2023,6,12,10,20,7,922
0.07430,2.92250,-4.37500,0.00000,0.01598,0.97136,-0.20825,2023,6,12,10,20,7,933
0.07440,3.06250,-4.53250,0.00000,0.01623,0.97051,-0.20862,2023,6,12,10,20,7,944
0.07450,3.20250,-4.49750,0.00000,0.01696,0.97075,-0.21057,2023,6,12,10,20,7,955
0.07460,3.02750,-4.62000,0.00000,0.01671,0.97307,-0.20838,2023,6,12,10,20,8,6
0.07470,3.15000,-4.79500,0.00000,0.01720,0.97075,-0.21021,2023,6,12,10,20,8,17
0.07480,2.97500,-4.44500,0.00000,0.01525,0.97173,-0.21008,2023,6,12,10,20,8,29
0.07490,3.09750,-4.55000,0.00000,0.01745,0.96831,-0.20899,2023,6,12,10,20,8,40
0.07500,3.09750,-4.76000,0.00000,0.01818,0.97258,-0.20923,2023,6,12,10,20,8,51
0.07510,3.13250,-4.28750,0.00000,0.01696,0.97112,-0.21008,2023,6,12,10,20,8,62
0.07520,3.20250,-4.49750,0.00000,0.01623,0.97149,-0.20850,2023,6,12,10,20,8,73
0.07530,3.11500,-4.51500,0.00000,0.01562,0.97136,-0.20923,2023,6,12,10,20,8,84
0.07540,2.92250,-4.20000,0.00000,0.01501,0.97149,-0.21008,2023,6,12,10,20,8,95
0.07550,3.09750,-4.56750,0.00000,0.01525,0.97197,-0.20838,2023,6,12,10,20,8,106
0.07560,2.99250,-4.48000,0.00000,0.01708,0.97027,-0.20716,2023,6,12,10,20,8,117
0.07570,2.95750,-4.46250,0.00000,0.01671,0.97100,-0.20947,2023,6,12,10,20,8,129
0.07580,3.23750,-4.56750,0.00000,0.01586,0.97332,-0.20801,2023,6,12,10,20,8,140
0.07590,2.99250,-4.55000,0.00000,0.01549,0.97039,-0.20764,2023,6,12,10,20,8,151
0.07600,3.20250,-4.69000,0.00000,0.01769,0.97124,-0.20838,2023,6,12,10,20,8,162
0.07610,3.04500,-4.55000,0.00000,0.01623,0.97161,-0.20899,2023,6,12,10,20,8,173
0.07620,2.88750,-4.51500,0.00000,0.01562,0.97063,-0.21057,2023,6,12,10,20,8,184
0.07630,2.97500,-4.56750,0.00000,0.01537,0.97356,-0.20703,2023,6,12,10,20,8,195
0.07640,3.02750,-4.49750,0.00000,0.01696,0.97210,-0.20984,2023,6,12,10,20,8,206
0.07650,3.15000,-4.49750,0.00000,0.01647,0.97124,-0.20886,2023,6,12,10,20,8,217
0.07660,3.11500,-4.62000,0.00000,0.01708,0.97234,-0.21106,2023,6,12,10,20,8,229
0.07670,3.15000,-4.70750,0.00000,0.01598,0.97161,-0.20984,2023,6,12,10,20,8,240
0.07680,2.90500,-4.39250,0.00000,0.01720,0.97356,-0.20691,2023,6,12,10,20,8,251
0.07690,3.04500,-4.63750,0.00000,0.01598,0.97173,-0.20618,2023,6,12,10,20,8,262
0.07700,3.08000,-4.46250,0.00000,0.01732,0.96856,-0.20996,2023,6,12,10,20,8,273
0.07710,3.01000,-4.23500,0.00000,0.01806,0.97283,-0.20984,2023,6,12,10,20,8,284
0.07720,2.87000,-4.39250,0.00000,0.01488,0.97149,-0.21057,2023,6,12,10,20,8,295
0.07730,2.92250,-4.51500,0.00000,0.01696,0.96990,-0.21130,2023,6,12,10,20,8,306
0.07740,3.04500,-4.58500,0.00000,0.01305,0.96990,-0.21057,2023,6,12,10,20,8,317
0.07750,3.16750,-4.32250,0.00000,0.01696,0.97149,-0.21082,2023,6,12,10,20,8,329
0.07760,3.16750,-4.56750,0.00000,0.01598,0.97307,-0.20899,2023,6,12,10,20,8,340
0.07770,3.04500,-4.65500,0.00000,0.01635,0.97173,-0.20911,2023,6,12,10,20,8,351
0.07780,3.09750,-4.63750,0.00000,0.01452,0.96990,-0.20825,2023,6,12,10,20,8,362
0.07790,3.11500,-4.42750,0.00000,0.01525,0.97149,-0.20935,2023,6,12,10,20,8,373
0.07800,2.94000,-4.60250,0.00000,0.01586,0.97027,-0.20752,2023,6,12,10,20,8,384
0.07810,3.02750,-4.55000,0.00000,0.01635,0.97063,-0.20789,2023,6,12,10,20,8,395
0.07820,2.95750,-4.42750,0.00000,0.01598,0.97185,-0.21130,2023,6,12,10,20,8,406
0.07830,3.20250,-4.56750,0.00000,0.01696,0.97051,-0.21069,2023,6,12,10,20,8,417
0.07840,3.04500,-4.44500,0.00000,0.01549,0.97344,-0.21008,2023,6,12,10,20,8,429
0.07850,2.99250,-4.51500,0.00000,0.01720,0.96966,-0.20984,2023,6,12,10,20,8,440
0.07860,3.09750,-4.53250,0.00000,0.01671,0.97210,-0.21057,2023,6,12,10,20,8,451
0.07870,2.99250,-4.56750,0.00000,0.01549,0.97039,-0.20850,2023,6,12,10,20,8,462
0.07880,2.99250,-4.60250,0.00000,0.01354,0.97429,-0.21069,2023,6,12,10,20,8,473
0.07890,2.90500,-4.44500,0.00000,0.01366,0.97112,-0.20874,2023,6,12,10,20,8,484
0.07900,2.87000,-4.55000,0.00000,0.01647,0.97136,-0.20752,2023,6,12,10,20,8,495
0.07910,3.08000,-4.37500,0.00000,0.01647,0.97014,-0.20996,2023,6,12,10,20,8,506
0.07920,3.08000,-4.55000,0.00000,0.01391,0.97149,-0.21204,2023,6,12,10,20,8,517
0.07930,3.04500,-4.46250,0.00000,0.01586,0.97136,-0.20972,2023,6,12,10,20,8,529
0.07940,3.08000,-4.53250,0.00000,0.01598,0.97136,-0.20899,2023,6,12,10,20,8,540
0.07950,2.99250,-4.35750,0.00000,0.02001,0.97222,-0.20935,2023,6,12,10,20,8,551
0.07960,3.02750,-4.79500,0.00000,0.01830,0.97075,-0.20984,2023,6,12,10,20,8,562
0.07970,3.08000,-4.56750,0.00000,0.01696,0.97149,-0.21021,2023,6,12,10,20,8,573
0.07980,3.02750,-4.55000,0.00000,0.01549,0.97222,-0.20935,2023,6,12,10,20,8,584
0.07990,3.01000,-4.49750,0.00000,0.01440,0.97234,-0.20923,2023,6,12,10,20,8,595
0.08000,3.06250,-4.58500,0.00000,0.01671,0.96953,-0.20716,2023,6,12,10,20,8,606
0.08010,2.97500,-4.55000,0.00000,0.01525,0.97185,-0.20911,2023,6,12,10,20,8,617
0.08020,3.08000,-4.65500,0.00000,0.01720,0.97112,-0.20813,2023,6,12,10,20,8,629
0.08030,3.08000,-4.48000,0.00000,0.01562,0.97222,-0.20960,2023,6,12,10,20,8,640
0.08040,3.20250,-4.35750,0.00000,0.01574,0.97234,-0.20960,2023,6,12,10,20,8,651
0.08050,2.99250,-4.63750,0.00000,0.01623,0.97185,-0.20874,2023,6,12,10,20,8,662
0.08060,3.09750,-4.49750,0.00000,0.01684,0.97027,-0.20825,2023,6,12,10,20,8,673
0.08070,2.81750,-4.41000,0.00000,0.01525,0.97075,-0.20960,2023,6,12,10,20,8,684
0.08080,2.90500,-4.51500,0.00000,0.01720,0.96844,-0.21362,2023,6,12,10,20,8,695
0.08090,3.01000,-4.58500,0.00000,0.01549,0.97173,-0.21033,2023,6,12,10,20,8,706
0.08100,2.97500,-4.34000,0.00000,0.01818,0.97271,-0.20972,2023,6,12,10,20,8,717
0.08110,3.08000,-4.53250,0.00000,0.01610,0.97185,-0.21350,2023,6,12,10,20,8,729
0.08120,2.95750,-4.56750,0.00000,0.01671,0.96880,-0.21057,2023,6,12,10,20,8,740
0.08130,2.78250,-4.42750,0.00000,0.01574,0.97283,-0.21008,2023,6,12,10,20,8,751
0.08140,2.97500,-4.56750,0.00000,0.01476,0.97075,-0.21082,2023,6,12,10,20,8,762
0.08150,2.97500,-4.44500,0.00000,0.01745,0.97283,-0.21021,2023,6,12,10,20,8,773
0.08160,3.11500,-4.60250,0.00000,0.01464,0.97014,-0.21118,2023,6,12,10,20,8,784
0.08170,3.01000,-4.48000,0.00000,0.01623,0.96990,-0.21069,2023,6,12,10,20,8,795
0.08180,3.15000,-4.58500,0.00000,0.01598,0.97197,-0.21130,2023,6,12,10,20,8,806
0.08190,3.18500,-4.58500,0.00000,0.01647,0.97185,-0.21106,2023,6,12,10,20,8,817
0.08200,2.99250,-4.44500,0.00000,0.01610,0.96966,-0.20996,2023,6,12,10,20,8,829
0.08210,3.13250,-4.65500,0.00000,0.01720,0.97100,-0.20984,2023,6,12,10,20,8,840
0.08220,2.92250,-4.65500,0.00000,0.01464,0.97173,-0.21252,2023,6,12,10,20,8,851
0.08230,2.99250,-4.42750,0.00000,0.01549,0.97136,-0.20960,2023,6,12,10,20,8,862
0.08240,3.06250,-4.49750,0.00000,0.01610,0.97258,-0.20935,2023,6,12,10,20,8,873
0.08250,3.04500,-4.53250,0.00000,0.01501,0.97063,-0.21069,2023,6,12,10,20,8,884
0.08260,3.13250,-4.51500,0.00000,0.01732,0.97234,-0.20886,2023,6,12,10,20,8,895
0.08270,3.04500,-4.51500,0.00000,0.01562,0.96819,-0.20899,2023,6,12,10,20,8,906
0.08280,3.08000,-4.49750,0.00000,0.01745,0.97112,-0.20947,2023,6,12,10,20,8,917
0.08290,3.11500,-4.65500,0.00000,0.01659,0.96929,-0.21033,2023,6,12,10,20,8,929
0.08300,2.95750,-4.51500,0.00000,0.01403,0.96978,-0.20996,2023,6,12,10,20,8,940
0.08310,2.97500,-4.28750,0.00000,0.01598,0.97197,-0.20984,2023,6,12,10,20,8,951
0.08320,2.94000,-4.30500,0.00000,0.01562,0.96929,-0.21008,2023,6,12,10,20,8,962
0.08330,3.08000,-4.48000,0.00000,0.01720,0.97027,-0.20886,2023,6,12,10,20,9,3
0.08340,2.83500,-4.41000,0.00000,0.01623,0.96734,-0.20899,2023,6,12,10,20,9,14
0.08350,3.09750,-4.44500,0.00000,0.01732,0.97100,-0.20935,2023,6,12,10,20,9,25
0.08360,3.01000,-4.44500,0.00000,0.01769,0.97027,-0.21033,2023,6,12,10,20,9,36
0.08370,3.18500,-4.58500,0.00000,0.01732,0.97356,-0.20838,2023,6,12,10,20,9,47
0.08380,3.02750,-4.62000,0.00000,0.01586,0.97088,-0.20801,2023,6,12,10,20,9,59
0.08390,2.97500,-4.49750,0.00000,0.01586,0.97332,-0.20862,2023,6,12,10,20,9,70
0.08400,3.06250,-4.41000,0.00000,0.01769,0.97136,-0.20862,2023,6,12,10,20,9,81
0.08410,2.88750,-4.56750,0.00000,0.01769,0.97173,-0.20813,2023,6,12,10,20,9,92
0.08420,3.01000,-4.49750,0.00000,0.01635,0.97197,-0.20923,2023,6,12,10,20,9,103
0.08430,3.01000,-4.49750,0.00000,0.01720,0.97088,-0.21155,2023,6,12,10,20,9,114
0.08440,2.92250,-4.39250,0.00000,0.01635,0.97222,-0.20813,2023,6,12,10,20,9,125
0.08450,3.02750,-4.51500,0.00000,0.01501,0.97014,-0.20533,2023,6,12,10,20,9,136
0.08460,3.15000,-4.30500,0.00000,0.01623,0.97124,-0.20923,2023,6,12,10,20,9,147
0.08470,3.09750,-4.48000,0.00000,0.01488,0.97063,-0.20947,2023,6,12,10,20,9,159
0.08480,3.02750,-4.55000,0.00000,0.01879,0.97319,-0.20813,2023,6,12,10,20,9,170
0.08490,2.99250,-4.39250,0.00000,0.01647,0.97197,-0.20850,2023,6,12,10,20,9,181
0.08500,3.01000,-4.48000,0.00000,0.01623,0.97271,-0.20764,2023,6,12,10,20,9,192
0.08510,3.08000,-4.51500,0.00000,0.01793,0.97088,-0.21118,2023,6,12,10,20,9,203
0.08520,3.01000,-4.60250,0.00000,0.01647,0.97100,-0.20777,2023,6,12,10,20,9,214
0.08530,3.02750,-4.69000,0.00000,0.01708,0.96917,-0.20862,2023,6,12,10,20,9,225
0.08540,2.94000,-4.48000,0.00000,0.01806,0.97027,-0.21082,2023,6,12,10,20,9,236
0.08550,2.90500,-4.41000,0.00000,0.01647,0.97075,-0.20886,2023,6,12,10,20,9,247
0.08560,3.23750,-4.56750,0.00000,0.01574,0.97112,-0.20838,2023,6,12,10,20,9,259
0.08570,3.06250,-4.46250,0.00000,0.01732,0.96917,-0.20886,2023,6,12,10,20,9,270
0.08580,3.09750,-4.69000,0.00000,0.01549,0.97112,-0.21106,2023,6,12,10,20,9,281
0.08590,3.13250,-4.56750,0.00000,0.01549,0.97088,-0.21106,2023,6,12,10,20,9,292
0.08600,3.15000,-4.32250,0.00000,0.01537,0.97222,-0.20825,2023,6,12,10,20,9,303
0.08610,3.06250,-4.51500,0.00000,0.01415,0.97063,-0.20825,2023,6,12,10,20,9,314
0.08620,3.06250,-4.49750,0.00000,0.01562,0.97210,-0.21143,2023,6,12,10,20,9,325
0.08630,2.88750,-4.30500,0.00000,0.01623,0.97149,-0.21057,2023,6,12,10,20,9,336
0.08640,2.83500,-4.37500,0.00000,0.01684,0.96990,-0.20960,2023,6,12,10,20,9,347
0.08650,2.76500,-4.37500,0.00000,0.01720,0.97051,-0.20972,2023,6,12,10,20,9,359
0.08660,3.06250,-4.44500,0.00000,0.01745,0.97112,-0.20862,2023,6,12,10,20,9,370
0.08670,2.92250,-4.53250,0.00000,0.01488,0.97185,-0.21118,2023,6,12,10,20,9,381
0.08680,2.92250,-4.49750,0.00000,0.01879,0.97173,-0.20874,2023,6,12,10,20,9,392
0.08690,2.90500,-4.18250,0.00000,0.01635,0.97063,-0.21033,2023,6,12,10,20,9,403
0.08700,3.04500,-4.34000,0.00000,0.01684,0.97014,-0.20947,2023,6,12,10,20,9,414
0.08710,3.06250,-4.58500,0.00000,0.01549,0.96941,-0.20947,2023,6,12,10,20,9,425
0.08720,3.04500,-4.49750,0.00000,0.01574,0.96844,-0.20752,2023,6,12,10,20,9,436
0.08730,3.02750,-4.56750,0.00000,0.01549,0.97124,-0.21057,2023,6,12,10,20,9,447
0.08740,3.02750,-4.55000,0.00000,0.01684,0.97210,-0.21033,2023,6,12,10,20,9,459
0.08750,3.09750,-4.58500,0.00000,0.01781,0.97100,-0.20862,2023,6,12,10,20,9,470
0.08760,3.13250,-4.58500,0.00000,0.01549,0.97173,-0.21167,2023,6,12,10,20,9,481
0.08770,3.22000,-4.62000,0.00000,0.01708,0.97027,-0.20874,2023,6,12,10,20,9,492
0.08780,3.09750,-4.41000,0.00000,0.01635,0.97149,-0.20886,2023,6,12,10,20,9,503
0.08790,2.85250,-4.56750,0.00000,0.01537,0.97173,-0.21033,2023,6,12,10,20,9,514
0.08800,3.20250,-4.60250,0.00000,0.01854,0.97124,-0.21057,2023,6,12,10,20,9,525
0.08810,3.11500,-4.56750,0.00000,0.01684,0.96880,-0.20984,2023,6,12,10,20,9,536
0.08820,3.09750,-4.63750,0.00000,0.01549,0.97027,-0.20642,2023,6,12,10,20,9,547
0.08830,2.92250,-4.46250,0.00000,0.01647,0.97319,-0.20667,2023,6,12,10,20,9,559
0.08840,3.13250,-4.53250,0.00000,0.01745,0.97124,-0.20972,2023,6,12,10,20,9,570
0.08850,3.11500,-4.46250,0.00000,0.01623,0.97246,-0.20947,2023,6,12,10,20,9,581
0.08860,2.99250,-4.58500,0.00000,0.01879,0.97124,-0.20886,2023,6,12,10,20,9,592
0.08870,3.02750,-4.56750,0.00000,0.01586,0.97185,-0.20972,2023,6,12,10,20,9,603
0.08880,3.13250,-4.41000,0.00000,0.01781,0.97124,-0.21057,2023,6,12,10,20,9,614
0.08890,3.13250,-4.62000,0.00000,0.01830,0.96953,-0.20984,2023,6,12,10,20,9,625
0.08900,3.11500,-4.63750,0.00000,0.01415,0.97222,-0.21130,2023,6,12,10,20,9,636
0.08910,3.01000,-4.46250,0.00000,0.01403,0.97271,-0.21033,2023,6,12,10,20,9,647
0.08920,3.11500,-4.58500,0.00000,0.01659,0.97210,-0.21008,2023,6,12,10,20,9,659
0.08930,3.15000,-4.51500,0.00000,0.01818,0.97295,-0.21033,2023,6,12,10,20,9,670
0.08940,2.97500,-4.49750,0.00000,0.01989,0.97075,-0.21008,2023,6,12,10,20,9,681
0.08950,2.88750,-4.51500,0.00000,0.01464,0.97075,-0.20947,2023,6,12,10,20,9,692
0.08960,3.18500,-4.62000,0.00000,0.01671,0.97136,-0.20862,2023,6,12,10,20,9,703
0.08970,2.97500,-4.62000,0.00000,0.01476,0.97283,-0.21118,2023,6,12,10,20,9,714
0.08980,3.02750,-4.60250,0.00000,0.01513,0.97185,-0.20740,2023,6,12,10,20,9,725
0.08990,3.15000,-4.58500,0.00000,0.01427,0.97197,-0.20691,2023,6,12,10,20,9,736
0.09000,2.99250,-4.32250,0.00000,0.01830,0.97307,-0.21118,2023,6,12,10,20,9,747
0.09010,3.06250,-4.65500,0.00000,0.01586,0.97258,-0.20984,2023,6,12,10,20,9,759
0.09020,2.95750,-4.65500,0.00000,0.01427,0.97063,-0.20667,2023,6,12,10,20,9,770
0.09030,3.01000,-4.56750,0.00000,0.01635,0.97112,-0.21143,2023,6,12,10,20,9,781
0.09040,3.13250,-4.49750,0.00000,0.01501,0.96990,-0.20825,2023,6,12,10,20,9,792
0.09050,3.01000,-4.42750,0.00000,0.01769,0.97051,-0.20618,2023,6,12,10,20,9,803
0.09060,2.76500,-4.42750,0.00000,0.01769,0.97197,-0.20825,2023,6,12,10,20,9,814
0.09070,3.13250,-4.42750,0.00000,0.01757,0.97100,-0.20874,2023,6,12,10,20,9,825
0.09080,2.90500,-4.65500,0.00000,0.01671,0.97075,-0.20752,2023,6,12,10,20,9,836
0.09090,3.02750,-4.49750,0.00000,0.01659,0.97222,-0.20825,2023,6,12,10,20,9,847
0.09100,3.11500,-4.76000,0.00000,0.01488,0.96990,-0.20838,2023,6,12,10,20,9,859
0.09110,2.95750,-4.49750,0.00000,0.01842,0.97161,-0.20801,2023,6,12,10,20,9,870
0.09120,3.06250,-4.58500,0.00000,0.01525,0.97307,-0.20825,2023,6,12,10,20,9,881
0.09130,3.04500,-4.72500,0.00000,0.01525,0.97063,-0.20667,2023,6,12,10,20,9,892
0.09140,2.99250,-4.72500,0.00000,0.01549,0.97295,-0.20691,2023,6,12,10,20,9,903
0.09150,3.11500,-4.65500,0.00000,0.01549,0.97271,-0.20923,2023,6,12,10,20,9,914
0.09160,3.04500,-4.69000,0.00000,0.01659,0.97063,-0.20691,2023,6,12,10,20,9,925
0.09170,3.13250,-4.55000,0.00000,0.01598,0.96966,-0.21130,2023,6,12,10,20,9,936
0.09180,2.99250,-4.79500,0.00000,0.01745,0.97063,-0.21045,2023,6,12,10,20,9,947
0.09190,2.94000,-4.46250,0.00000,0.01720,0.97075,-0.20789,2023,6,12,10,20,9,959
0.09200,3.18500,-4.60250,0.00000,0.01623,0.97161,-0.21082,2023,6,12,10,20,10,0
0.09210,3.08000,-4.60250,0.00000,0.01684,0.97014,-0.20935,2023,6,12,10,20,10,11
0.09220,3.06250,-4.42750,0.00000,0.01647,0.96856,-0.20667,2023,6,12,10,20,10,22
0.09230,3.13250,-4.37500,0.00000,0.01818,0.97136,-0.21118,2023,6,12,10,20,10,33
0.09240,3.01000,-4.62000,0.00000,0.01671,0.97161,-0.20838,2023,6,12,10,20,10,44
0.09250,2.95750,-4.70750,0.00000,0.01745,0.97088,-0.20838,2023,6,12,10,20,10,55
0.09260,2.95750,-4.44500,0.00000,0.01476,0.96929,-0.20813,2023,6,12,10,20,10,66
0.09270,2.97500,-4.56750,0.00000,0.01818,0.97319,-0.20960,2023,6,12,10,20,10,77
0.09280,2.94000,-4.35750,0.00000,0.01562,0.97136,-0.20935,2023,6,12,10,20,10,89
0.09290,3.04500,-4.69000,0.00000,0.01574,0.97063,-0.20752,2023,6,12,10,20,10,100
0.09300,2.92250,-4.30500,0.00000,0.01696,0.97173,-0.20874,2023,6,12,10,20,10,111
0.09310,3.11500,-4.53250,0.00000,0.01562,0.97319,-0.20789,2023,6,12,10,20,10,122
0.09320,2.97500,-4.65500,0.00000,0.01537,0.97100,-0.20813,2023,6,12,10,20,10,133
0.09330,2.95750,-4.46250,0.00000,0.01574,0.96978,-0.20935,2023,6,12,10,20,10,144
0.09340,2.97500,-4.20000,0.00000,0.01757,0.97356,-0.20789,2023,6,12,10,20,10,155
0.09350,2.88750,-4.51500,0.00000,0.01732,0.96880,-0.20862,2023,6,12,10,20,10,166
0.09360,2.87000,-4.48000,0.00000,0.01513,0.97051,-0.20886,2023,6,12,10,20,10,177
0.09370,3.13250,-4.67250,0.00000,0.01549,0.97063,-0.20996,2023,6,12,10,20,10,189
0.09380,3.01000,-4.51500,0.00000,0.01586,0.97124,-0.20874,2023,6,12,10,20,10,200
0.09390,2.88750,-4.34000,0.00000,0.01366,0.97088,-0.20642,2023,6,12,10,20,10,211
0.09400,2.92250,-4.56750,0.00000,0.01854,0.97161,-0.20728,2023,6,12,10,20,10,222
0.09410,3.01000,-4.63750,0.00000,0.01757,0.97210,-0.21118,2023,6,12,10,20,10,233
0.09420,2.88750,-4.42750,0.00000,0.01513,0.96990,-0.20777,2023,6,12,10,20,10,244
0.09430,3.08000,-4.49750,0.00000,0.01598,0.97088,-0.20728,2023,6,12,10,20,10,255
0.09440,2.95750,-4.76000,0.00000,0.01769,0.97356,-0.20935,2023,6,12,10,20,10,266
0.09450,3.15000,-4.53250,0.00000,0.01806,0.97002,-0.20764,2023,6,12,10,20,10,277
0.09460,3.01000,-4.44500,0.00000,0.01732,0.97027,-0.20740,2023,6,12,10,20,10,289
0.09470,2.83500,-4.49750,0.00000,0.01415,0.97002,-0.20764,2023,6,12,10,20,10,300
0.09480,2.99250,-4.49750,0.00000,0.01769,0.97234,-0.20911,2023,6,12,10,20,10,311
0.09490,3.25500,-4.32250,0.00000,0.01537,0.96929,-0.20960,2023,6,12,10,20,10,322
0.09500,3.04500,-4.84750,0.00000,0.01781,0.97149,-0.20764,2023,6,12,10,20,10,333
0.09510,2.99250,-4.32250,0.00000,0.01671,0.97014,-0.20923,2023,6,12,10,20,10,344
0.09520,3.06250,-4.37500,0.00000,0.01720,0.97075,-0.20935,2023,6,12,10,20,10,355
0.09530,3.06250,-4.41000,0.00000,0.01574,0.97161,-0.20960,2023,6,12,10,20,10,366
0.09540,2.87000,-4.46250,0.00000,0.01598,0.97136,-0.20777,2023,6,12,10,20,10,377
0.09550,3.18500,-4.58500,0.00000,0.01671,0.97173,-0.20691,2023,6,12,10,20,10,389
0.09560,3.06250,-4.56750,0.00000,0.01647,0.96953,-0.20533,2023,6,12,10,20,10,400
0.09570,3.16750,-4.69000,0.00000,0.01806,0.97075,-0.21008,2023,6,12,10,20,10,411
0.09580,3.08000,-4.41000,0.00000,0.01562,0.97161,-0.20960,2023,6,12,10,20,10,422
0.09590,2.95750,-4.58500,0.00000,0.01891,0.96917,-0.20850,2023,6,12,10,20,10,433
0.09600,3.09750,-4.60250,0.00000,0.01574,0.97136,-0.20752,2023,6,12,10,20,10,444
0.09610,3.11500,-4.48000,0.00000,0.01757,0.97124,-0.21118,2023,6,12,10,20,10,455
0.09620,3.18500,-4.58500,0.00000,0.01623,0.97283,-0.20923,2023,6,12,10,20,10,466
0.09630,2.80000,-4.44500,0.00000,0.01696,0.97161,-0.20728,2023,6,12,10,20,10,477
0.09640,3.01000,-4.58500,0.00000,0.01720,0.97112,-0.20655,2023,6,12,10,20,10,489
0.09650,2.83500,-4.60250,0.00000,0.01549,0.97173,-0.20984,2023,6,12,10,20,10,500
0.09660,3.09750,-4.51500,0.00000,0.01647,0.97173,-0.20838,2023,6,12,10,20,10,511
0.09670,3.08000,-4.63750,0.00000,0.01574,0.96953,-0.20862,2023,6,12,10,20,10,522
0.09680,2.99250,-4.07750,0.00000,0.01403,0.97088,-0.21106,2023,6,12,10,20,10,533
0.09690,3.08000,-4.65500,0.00000,0.01635,0.97002,-0.20679,2023,6,12,10,20,10,544
0.09700,3.13250,-4.58500,0.00000,0.01574,0.97307,-0.21130,2023,6,12,10,20,10,555
0.09710,2.92250,-4.39250,0.00000,0.01452,0.97210,-0.20703,2023,6,12,10,20,10,566
0.09720,3.02750,-4.60250,0.00000,0.01549,0.97063,-0.21094,2023,6,12,10,20,10,577
0.09730,3.04500,-4.56750,0.00000,0.01525,0.97210,-0.21082,2023,6,12,10,20,10,589
0.09740,2.97500,-4.46250,0.00000,0.01708,0.97271,-0.20850,2023,6,12,10,20,10,600
0.09750,3.06250,-4.51500,0.00000,0.01757,0.97222,-0.21143,2023,6,12,10,20,10,611
0.09760,3.01000,-4.62000,0.00000,0.01562,0.97075,-0.20813,2023,6,12,10,20,10,622
0.09770,3.09750,-4.76000,0.00000,0.01720,0.97185,-0.20789,2023,6,12,10,20,10,633
0.09780,3.08000,-4.56750,0.00000,0.01427,0.96783,-0.20764,2023,6,12,10,20,10,644
0.09790,2.97500,-4.51500,0.00000,0.01610,0.97185,-0.20911,2023,6,12,10,20,10,655
0.09800,3.22000,-4.41000,0.00000,0.01488,0.97234,-0.21033,2023,6,12,10,20,10,666
0.09810,2.99250,-4.53250,0.00000,0.01708,0.96990,-0.20801,2023,6,12,10,20,10,677
0.09820,2.94000,-4.58500,0.00000,0.01757,0.97222,-0.20789,2023,6,12,10,20,10,689
0.09830,3.09750,-4.48000,0.00000,0.01635,0.97210,-0.21204,2023,6,12,10,20,10,700
0.09840,3.25500,-4.65500,0.00000,0.01549,0.97002,-0.21045,2023,6,12,10,20,10,711
0.09850,3.11500,-4.49750,0.00000,0.01574,0.97295,-0.21033,2023,6,12,10,20,10,722
0.09860,3.18500,-4.77750,0.00000,0.01659,0.97210,-0.21057,2023,6,12,10,20,10,733
0.09870,3.11500,-4.51500,0.00000,0.01525,0.97283,-0.21216,2023,6,12,10,20,10,744
0.09880,2.92250,-4.62000,0.00000,0.01671,0.97063,-0.20923,2023,6,12,10,20,10,755
0.09890,3.15000,-4.55000,0.00000,0.01867,0.97088,-0.20935,2023,6,12,10,20,10,766
0.09900,2.94000,-4.60250,0.00000,0.01610,0.97210,-0.20960,2023,6,12,10,20,10,777
0.09910,3.08000,-4.39250,0.00000,0.01732,0.97136,-0.20886,2023,6,12,10,20,10,789
0.09920,3.01000,-4.41000,0.00000,0.01757,0.97014,-0.20996,2023,6,12,10,20,10,800
0.09930,3.01000,-4.30500,0.00000,0.01671,0.97332,-0.20825,2023,6,12,10,20,10,811
0.09940,3.06250,-4.69000,0.00000,0.01513,0.97075,-0.20923,2023,6,12,10,20,10,822
0.09950,3.11500,-4.37500,0.00000,0.01537,0.97161,-0.20850,2023,6,12,10,20,10,833
0.09960,3.04500,-4.67250,0.00000,0.01708,0.97295,-0.21008,2023,6,12,10,20,10,844
0.09970,3.16750,-4.51500,0.00000,0.01708,0.97063,-0.21252,2023,6,12,10,20,10,855
0.09980,3.18500,-4.53250,0.00000,0.01537,0.97197,-0.21008,2023,6,12,10,20,10,866
0.09990,3.06250,-4.32250,0.00000,0.01623,0.97173,-0.20947,2023,6,12,10,20,10,877
0.10000,3.08000,-4.46250,0.00000,0.01732,0.97051,-0.20801,2023,6,12,10,20,10,889
0.10010,2.76500,-4.56750,0.00000,0.01598,0.97002,-0.20667,2023,6,12,10,20,10,900
0.10020,2.88750,-4.37500,0.00000,0.01635,0.97075,-0.20801,2023,6,12,10,20,10,911
0.10030,3.15000,-4.49750,0.00000,0.01501,0.96929,-0.21033,2023,6,12,10,20,10,922
0.10040,2.94000,-4.41000,0.00000,0.01757,0.97222,-0.20752,2023,6,12,10,20,10,933
0.10050,2.97500,-4.48000,0.00000,0.01537,0.97088,-0.20862,2023,6,12,10,20,10,944
0.10060,2.94000,-4.49750,0.00000,0.01806,0.97222,-0.20850,2023,6,12,10,20,10,955
0.10070,2.99250,-4.67250,0.00000,0.01842,0.97112,-0.20935,2023,6,12,10,20,10,966
0.10080,3.04500,-4.74250,0.00000,0.01598,0.97161,-0.20886,2023,6,12,10,20,11,7
0.10090,3.06250,-4.49750,0.00000,0.01513,0.97210,-0.20789,2023,6,12,10,20,11,19
0.10100,3.02750,-4.48000,0.00000,0.01513,0.97222,-0.21045,2023,6,12,10,20,11,30
0.10110,3.09750,-4.58500,0.00000,0.01671,0.97088,-0.20886,2023,6,12,10,20,11,41
0.10120,2.97500,-4.62000,0.00000,0.01610,0.97088,-0.21033,2023,6,12,10,20,11,52
0.10130,3.13250,-4.58500,0.00000,0.01684,0.97319,-0.20667,2023,6,12,10,20,11,63
0.10140,3.20250,-4.44500,0.00000,0.01513,0.97136,-0.20825,2023,6,12,10,20,11,74
0.10150,3.01000,-4.53250,0.00000,0.01684,0.96929,-0.21045,2023,6,12,10,20,11,85
0.10160,3.04500,-4.46250,0.00000,0.01830,0.97051,-0.21045,2023,6,12,10,20,11,96
0.10170,2.97500,-4.30500,0.00000,0.01501,0.97039,-0.20886,2023,6,12,10,20,11,107
0.10180,2.94000,-4.39250,0.00000,0.01684,0.96990,-0.20935,2023,6,12,10,20,11,119
0.10190,3.25500,-4.55000,0.00000,0.01708,0.97197,-0.20789,2023,6,12,10,20,11,130
0.10200,3.16750,-4.42750,0.00000,0.01574,0.97283,-0.21057,2023,6,12,10,20,11,141
0.10210,3.04500,-4.58500,0.00000,0.01696,0.97319,-0.20777,2023,6,12,10,20,11,152
0.10220,2.94000,-4.18250,0.00000,0.01696,0.97063,-0.20996,2023,6,12,10,20,11,163
0.10230,2.95750,-4.58500,0.00000,0.01696,0.97100,-0.21021,2023,6,12,10,20,11,174
0.10240,2.95750,-4.48000,0.00000,0.01806,0.97185,-0.20972,2023,6,12,10,20,11,185
0.10250,2.94000,-4.55000,0.00000,0.01610,0.96929,-0.21045,2023,6,12,10,20,11,196
0.10260,3.06250,-4.32250,0.00000,0.01635,0.97124,-0.20960,2023,6,12,10,20,11,207
0.10270,3.15000,-4.51500,0.00000,0.01574,0.97258,-0.20984,2023,6,12,10,20,11,219
0.10280,3.25500,-4.72500,0.00000,0.01610,0.97210,-0.20886,2023,6,12,10,20,11,230
0.10290,2.92250,-4.49750,0.00000,0.01586,0.97063,-0.21167,2023,6,12,10,20,11,241
0.10300,2.88750,-4.46250,0.00000,0.01476,0.97088,-0.21106,2023,6,12,10,20,11,252
0.10310,2.99250,-4.49750,0.00000,0.01476,0.97149,-0.20996,2023,6,12,10,20,11,263
0.10320,3.04500,-4.53250,0.00000,0.01488,0.97149,-0.21057,2023,6,12,10,20,11,274
0.10330,2.85250,-4.46250,0.00000,0.01940,0.97234,-0.20862,2023,6,12,10,20,11,285
0.10340,3.01000,-4.46250,0.00000,0.01586,0.97234,-0.21021,2023,6,12,10,20,11,296
0.10350,3.01000,-4.48000,0.00000,0.01586,0.97136,-0.20728,2023,6,12,10,20,11,307
0.10360,2.97500,-4.53250,0.00000,0.01745,0.97100,-0.21057,2023,6,12,10,20,11,319
0.10370,3.08000,-4.90000,0.00000,0.01720,0.97185,-0.20960,2023,6,12,10,20,11,330
0.10380,2.94000,-4.60250,0.00000,0.01513,0.97417,-0.20740,2023,6,12,10,20,11,341
0.10390,2.95750,-4.35750,0.00000,0.01403,0.97258,-0.20789,2023,6,12,10,20,11,352
0.10400,2.81750,-4.28750,0.00000,0.01818,0.97075,-0.20777,2023,6,12,10,20,11,363
0.10410,3.02750,-4.34000,0.00000,0.01647,0.97014,-0.20923,2023,6,12,10,20,11,374
0.10420,3.11500,-4.53250,0.00000,0.01598,0.96941,-0.20825,2023,6,12,10,20,11,385
0.10430,2.97500,-4.46250,0.00000,0.01769,0.97161,-0.20752,2023,6,12,10,20,11,396
0.10440,2.99250,-4.46250,0.00000,0.01586,0.97112,-0.20838,2023,6,12,10,20,11,407
0.10450,3.13250,-4.35750,0.00000,0.01562,0.97185,-0.20947,2023,6,12,10,20,11,419
0.10460,3.04500,-4.56750,0.00000,0.01684,0.97173,-0.20935,2023,6,12,10,20,11,430
0.10470,3.08000,-4.63750,0.00000,0.01671,0.97075,-0.20728,2023,6,12,10,20,11,441
0.10480,3.06250,-4.65500,0.00000,0.01659,0.97051,-0.20886,2023,6,12,10,20,11,452
0.10490,3.11500,-4.55000,0.00000,0.01598,0.97027,-0.21045,2023,6,12,10,20,11,463
0.10500,3.09750,-4.37500,0.00000,0.01879,0.97088,-0.21021,2023,6,12,10,20,11,474
0.10510,2.87000,-4.39250,0.00000,0.01635,0.97063,-0.20899,2023,6,12,10,20,11,485
0.10520,3.11500,-4.60250,0.00000,0.01684,0.97173,-0.21130,2023,6,12,10,20,11,496
0.10530,3.20250,-4.55000,0.00000,0.01586,0.97185,-0.20923,2023,6,12,10,20,11,507
0.10540,2.97500,-4.46250,0.00000,0.01671,0.96929,-0.21008,2023,6,12,10,20,11,519
0.10550,2.94000,-4.30500,0.00000,0.01488,0.97124,-0.21289,2023,6,12,10,20,11,530
0.10560,3.13250,-4.56750,0.00000,0.01745,0.97283,-0.21252,2023,6,12,10,20,11,541
0.10570,3.11500,-4.48000,0.00000,0.01513,0.97197,-0.20947,2023,6,12,10,20,11,552
0.10580,2.74750,-4.34000,0.00000,0.01867,0.96941,-0.20899,2023,6,12,10,20,11,563
0.10590,3.09750,-4.48000,0.00000,0.01769,0.97063,-0.21130,2023,6,12,10,20,11,574
0.10600,3.09750,-4.37500,0.00000,0.01598,0.97075,-0.21106,2023,6,12,10,20,11,585
0.10610,2.99250,-4.70750,0.00000,0.01647,0.96856,-0.21228,2023,6,12,10,20,11,596
0.10620,2.76500,-4.53250,0.00000,0.01732,0.97283,-0.21094,2023,6,12,10,20,11,607
0.10630,3.09750,-4.67250,0.00000,0.01525,0.97100,-0.21118,2023,6,12,10,20,11,619
0.10640,3.02750,-4.44500,0.00000,0.01610,0.97100,-0.21179,2023,6,12,10,20,11,630
0.10650,2.90500,-4.51500,0.00000,0.01671,0.97014,-0.20752,2023,6,12,10,20,11,641
0.10660,3.15000,-4.44500,0.00000,0.01671,0.97039,-0.20825,2023,6,12,10,20,11,652
0.10670,2.90500,-4.60250,0.00000,0.01793,0.97136,-0.20935,2023,6,12,10,20,11,663
0.10680,3.16750,-4.46250,0.00000,0.01513,0.97234,-0.21179,2023,6,12,10,20,11,674
0.10690,3.02750,-4.65500,0.00000,0.01696,0.97075,-0.21228,2023,6,12,10,20,11,685
0.10700,3.01000,-4.28750,0.00000,0.01610,0.97161,-0.20996,2023,6,12,10,20,11,696
0.10710,3.09750,-4.53250,0.00000,0.01720,0.97246,-0.21033,2023,6,12,10,20,11,707
0.10720,3.08000,-4.65500,0.00000,0.01635,0.97295,-0.20911,2023,6,12,10,20,11,719
0.10730,3.09750,-4.46250,0.00000,0.01684,0.97039,-0.20911,2023,6,12,10,20,11,730
0.10740,3.02750,-4.34000,0.00000,0.01732,0.97063,-0.21057,2023,6,12,10,20,11,741
0.10750,3.04500,-4.32250,0.00000,0.01671,0.97039,-0.20996,2023,6,12,10,20,11,752
0.10760,3.20250,-4.42750,0.00000,0.01476,0.97014,-0.20716,2023,6,12,10,20,11,763
0.10770,3.04500,-4.51500,0.00000,0.01586,0.97173,-0.20984,2023,6,12,10,20,11,774
0.10780,2.88750,-4.41000,0.00000,0.01659,0.97185,-0.21021,2023,6,12,10,20,11,785
0.10790,2.94000,-4.67250,0.00000,0.01452,0.97100,-0.20850,2023,6,12,10,20,11,796
0.10800,2.97500,-4.49750,0.00000,0.01598,0.97149,-0.20813,2023,6,12,10,20,11,807
0.10810,2.85250,-4.67250,0.00000,0.01391,0.97149,-0.20618,2023,6,12,10,20,11,819
0.10820,3.09750,-4.53250,0.00000,0.01842,0.97088,-0.21094,2023,6,12,10,20,11,830
0.10830,3.08000,-4.58500,0.00000,0.01879,0.97161,-0.20996,2023,6,12,10,20,11,841
0.10840,2.90500,-4.65500,0.00000,0.01574,0.97161,-0.20764,2023,6,12,10,20,11,852
0.10850,3.15000,-4.46250,0.00000,0.01598,0.96844,-0.20862,2023,6,12,10,20,11,863
0.10860,3.20250,-4.55000,0.00000,0.01525,0.97210,-0.20703,2023,6,12,10,20,11,874
0.10870,3.13250,-4.62000,0.00000,0.01659,0.97185,-0.20838,2023,6,12,10,20,11,885
0.10880,2.97500,-4.60250,0.00000,0.01647,0.96807,-0.20679,2023,6,12,10,20,11,896
0.10890,2.99250,-4.53250,0.00000,0.01732,0.97112,-0.20911,2023,6,12,10,20,11,907
0.10900,2.97500,-4.60250,0.00000,0.01403,0.97173,-0.20947,2023,6,12,10,20,11,919
0.10910,3.06250,-4.65500,0.00000,0.01610,0.97100,-0.21033,2023,6,12,10,20,11,930
0.10920,3.06250,-4.35750,0.00000,0.01427,0.97136,-0.21106,2023,6,12,10,20,11,941
0.10930,2.99250,-4.41000,0.00000,0.01635,0.97002,-0.21045,2023,6,12,10,20,11,952
0.10940,3.15000,-4.58500,0.00000,0.01623,0.97210,-0.21277,2023,6,12,10,20,11,963
0.10950,2.97500,-4.25250,0.00000,0.01684,0.97210,-0.20862,2023,6,12,10,20,11,974
0.10960,3.16750,-4.67250,0.00000,0.01745,0.97112,-0.20960,2023,6,12,10,20,12,5
0.10970,2.99250,-4.41000,0.00000,0.01671,0.97075,-0.20703,2023,6,12,10,20,12,16
0.10980,2.97500,-4.39250,0.00000,0.01635,0.97136,-0.21094,2023,6,12,10,20,12,27
0.10990,3.08000,-4.76000,0.00000,0.01647,0.96819,-0.20874,2023,6,12,10,20,12,39
0.11000,2.94000,-4.53250,0.00000,0.01452,0.97185,-0.20984,2023,6,12,10,20,12,50
0.11010,3.08000,-4.55000,0.00000,0.01732,0.97319,-0.20984,2023,6,12,10,20,12,61
0.11020,3.04500,-4.46250,0.00000,0.01623,0.97088,-0.21021,2023,6,12,10,20,12,72
0.11030,2.99250,-4.41000,0.00000,0.01879,0.96868,-0.20813,2023,6,12,10,20,12,83
0.11040,3.29000,-4.81250,0.00000,0.01720,0.97332,-0.20972,2023,6,12,10,20,12,94
0.11050,2.88750,-4.63750,0.00000,0.01549,0.97185,-0.20947,2023,6,12,10,20,12,105
0.11060,2.95750,-4.55000,0.00000,0.01708,0.97075,-0.20703,2023,6,12,10,20,12,116
0.11070,2.99250,-4.48000,0.00000,0.01696,0.97161,-0.20801,2023,6,12,10,20,12,127
0.11080,3.09750,-4.25250,0.00000,0.01720,0.97063,-0.21008,2023,6,12,10,20,12,139
0.11090,3.11500,-4.46250,0.00000,0.01415,0.97234,-0.21155,2023,6,12,10,20,12,150
0.11100,3.08000,-4.55000,0.00000,0.01464,0.97197,-0.20813,2023,6,12,10,20,12,161
0.11110,2.87000,-4.46250,0.00000,0.01659,0.97246,-0.20874,2023,6,12,10,20,12,172
0.11120,3.08000,-4.58500,0.00000,0.01732,0.97088,-0.21069,2023,6,12,10,20,12,183
0.11130,3.06250,-4.48000,0.00000,0.01720,0.97344,-0.20862,2023,6,12,10,20,12,194
0.11140,2.99250,-4.62000,0.00000,0.01574,0.97088,-0.20728,2023,6,12,10,20,12,205
0.11150,3.18500,-4.67250,0.00000,0.01793,0.97088,-0.20813,2023,6,12,10,20,12,216
0.11160,3.13250,-4.72500,0.00000,0.01391,0.97051,-0.21021,2023,6,12,10,20,12,227
0.11170,3.02750,-4.39250,0.00000,0.01598,0.97210,-0.20886,2023,6,12,10,20,12,239
0.11180,3.01000,-4.63750,0.00000,0.01769,0.97063,-0.20886,2023,6,12,10,20,12,250
0.11190,2.90500,-4.49750,0.00000,0.01696,0.97210,-0.21021,2023,6,12,10,20,12,261
0.11200,2.92250,-4.21750,0.00000,0.01696,0.97173,-0.21191,2023,6,12,10,20,12,272
0.11210,3.02750,-4.48000,0.00000,0.01684,0.97027,-0.20947,2023,6,12,10,20,12,283
0.11220,3.04500,-4.51500,0.00000,0.01854,0.97100,-0.20777,2023,6,12,10,20,12,294
0.11230,2.97500,-4.60250,0.00000,0.01781,0.97088,-0.20777,2023,6,12,10,20,12,305
0.11240,2.87000,-4.39250,0.00000,0.01537,0.97149,-0.20935,2023,6,12,10,20,12,316
0.11250,2.85250,-4.46250,0.00000,0.01623,0.97039,-0.20838,2023,6,12,10,20,12,327
0.11260,2.88750,-4.30500,0.00000,0.01635,0.97063,-0.20947,2023,6,12,10,20,12,339
0.11270,2.97500,-4.41000,0.00000,0.01623,0.97002,-0.20960,2023,6,12,10,20,12,350
0.11280,3.23750,-4.35750,0.00000,0.01732,0.97246,-0.20862,2023,6,12,10,20,12,361
0.11290,3.06250,-4.44500,0.00000,0.01793,0.96978,-0.21130,2023,6,12,10,20,12,372
0.11300,3.11500,-4.44500,0.00000,0.01586,0.97027,-0.20996,2023,6,12,10,20,12,383
0.11310,3.06250,-4.62000,0.00000,0.01549,0.96941,-0.20960,2023,6,12,10,20,12,394
0.11320,3.11500,-4.58500,0.00000,0.01562,0.97332,-0.20960,2023,6,12,10,20,12,405
0.11330,2.92250,-4.53250,0.00000,0.01647,0.97234,-0.20911,2023,6,12,10,20,12,416
0.11340,3.08000,-4.62000,0.00000,0.01781,0.96905,-0.20935,2023,6,12,10,20,12,427
0.11350,2.97500,-4.20000,0.00000,0.01940,0.97039,-0.21216,2023,6,12,10,20,12,439
0.11360,2.97500,-4.25250,0.00000,0.01574,0.96917,-0.21094,2023,6,12,10,20,12,450
0.11370,2.94000,-4.21750,0.00000,0.01720,0.97039,-0.20716,2023,6,12,10,20,12,461
0.11380,2.94000,-4.41000,0.00000,0.01562,0.97088,-0.20789,2023,6,12,10,20,12,472
0.11390,2.97500,-4.58500,0.00000,0.01574,0.96819,-0.20935,2023,6,12,10,20,12,483
0.11400,2.94000,-4.53250,0.00000,0.01745,0.97136,-0.20862,2023,6,12,10,20,12,494
0.11410,3.01000,-4.62000,0.00000,0.01342,0.97295,-0.20703,2023,6,12,10,20,12,505
0.11420,2.99250,-4.44500,0.00000,0.01476,0.96990,-0.20703,2023,6,12,10,20,12,516
0.11430,3.02750,-4.42750,0.00000,0.01769,0.97136,-0.21277,2023,6,12,10,20,12,527
0.11440,2.90500,-4.35750,0.00000,0.01696,0.97307,-0.21021,2023,6,12,10,20,12,539
0.11450,2.90500,-4.63750,0.00000,0.01513,0.96978,-0.20752,2023,6,12,10,20,12,550
0.11460,3.22000,-4.37500,0.00000,0.01720,0.96941,-0.21094,2023,6,12,10,20,12,561
0.11470,3.08000,-4.62000,0.00000,0.01818,0.97002,-0.20886,2023,6,12,10,20,12,572
0.11480,2.99250,-4.51500,0.00000,0.01586,0.97136,-0.21008,2023,6,12,10,20,12,583
0.11490,2.99250,-4.72500,0.00000,0.01501,0.96990,-0.20996,2023,6,12,10,20,12,594
0.11500,3.04500,-4.46250,0.00000,0.01647,0.97197,-0.20752,2023,6,12,10,20,12,605
0.11510,2.97500,-4.49750,0.00000,0.01867,0.97136,-0.20838,2023,6,12,10,20,12,616
0.11520,3.04500,-4.63750,0.00000,0.01513,0.97197,-0.20801,2023,6,12,10,20,12,627
0.11530,2.88750,-4.53250,0.00000,0.01464,0.96978,-0.20972,2023,6,12,10,20,12,639
0.11540,2.90500,-4.20000,0.00000,0.01720,0.97112,-0.20801,2023,6,12,10,20,12,650
0.11550,3.04500,-4.49750,0.00000,0.01708,0.97014,-0.20984,2023,6,12,10,20,12,661
0.11560,2.87000,-4.39250,0.00000,0.01598,0.97088,-0.21069,2023,6,12,10,20,12,672
0.11570,2.87000,-4.65500,0.00000,0.01440,0.97197,-0.20667,2023,6,12,10,20,12,683
0.11580,2.95750,-4.62000,0.00000,0.01659,0.97063,-0.20899,2023,6,12,10,20,12,694
0.11590,3.01000,-4.14750,0.00000,0.01708,0.97136,-0.21045,2023,6,12,10,20,12,705
0.11600,2.92250,-4.28750,0.00000,0.01562,0.97234,-0.20960,2023,6,12,10,20,12,716
0.11610,2.87000,-4.60250,0.00000,0.01793,0.97246,-0.20801,2023,6,12,10,20,12,727
0.11620,3.15000,-4.49750,0.00000,0.01769,0.97075,-0.20935,2023,6,12,10,20,12,739
0.11630,3.02750,-4.55000,0.00000,0.01745,0.97234,-0.20850,2023,6,12,10,20,12,750
0.11640,2.97500,-4.39250,0.00000,0.01671,0.97222,-0.20764,2023,6,12,10,20,12,761
0.11650,3.08000,-4.46250,0.00000,0.01708,0.96929,-0.20886,2023,6,12,10,20,12,772
0.11660,2.88750,-4.60250,0.00000,0.01720,0.97185,-0.20838,2023,6,12,10,20,12,783
0.11670,2.99250,-4.55000,0.00000,0.01513,0.97100,-0.20801,2023,6,12,10,20,12,794
0.11680,3.08000,-4.49750,0.00000,0.01342,0.97112,-0.20569,2023,6,12,10,20,12,805
0.11690,2.95750,-4.37500,0.00000,0.01586,0.97161,-0.20777,2023,6,12,10,20,12,816
0.11700,3.09750,-4.51500,0.00000,0.01623,0.97063,-0.21118,2023,6,12,10,20,12,827
0.11710,3.08000,-4.37500,0.00000,0.01757,0.97112,-0.21118,2023,6,12,10,20,12,839
0.11720,2.87000,-4.63750,0.00000,0.01476,0.96929,-0.20813,2023,6,12,10,20,12,850
0.11730,3.06250,-4.56750,0.00000,0.01488,0.97210,-0.20850,2023,6,12,10,20,12,861
0.11740,2.95750,-4.35750,0.00000,0.01696,0.97307,-0.20972,2023,6,12,10,20,12,872
0.11750,2.94000,-4.58500,0.00000,0.01635,0.97136,-0.20801,2023,6,12,10,20,12,883
0.11760,2.80000,-4.51500,0.00000,0.01464,0.97173,-0.20716,2023,6,12,10,20,12,894
0.11770,3.13250,-4.44500,0.00000,0.01574,0.96990,-0.21008,2023,6,12,10,20,12,905
0.11780,3.13250,-4.63750,0.00000,0.01720,0.97197,-0.20984,2023,6,12,10,20,12,916
0.11790,2.87000,-4.32250,0.00000,0.01720,0.97344,-0.20911,2023,6,12,10,20,12,927
0.11800,3.13250,-4.42750,0.00000,0.01488,0.97149,-0.20960,2023,6,12,10,20,12,939
0.11810,3.11500,-4.95250,0.00000,0.01623,0.97112,-0.20911,2023,6,12,10,20,12,950
0.11820,2.95750,-4.48000,0.00000,0.01562,0.97088,-0.20862,2023,6,12,10,20,12,961
0.11830,3.20250,-4.56750,0.00000,0.01684,0.97332,-0.20691,2023,6,12,10,20,12,972
0.11840,2.80000,-4.46250,0.00000,0.01745,0.97295,-0.20716,2023,6,12,10,20,13,3
0.11850,2.90500,-4.58500,0.00000,0.01659,0.97124,-0.20960,2023,6,12,10,20,13,14
0.11860,3.08000,-4.46250,0.00000,0.01562,0.97197,-0.21008,2023,6,12,10,20,13,25
0.11870,2.99250,-4.48000,0.00000,0.01379,0.97027,-0.20777,2023,6,12,10,20,13,36
0.11880,2.97500,-4.63750,0.00000,0.01732,0.97014,-0.20947,2023,6,12,10,20,13,47
0.11890,2.69500,-4.48000,0.00000,0.01708,0.97112,-0.20874,2023,6,12,10,20,13,59
0.11900,3.01000,-4.39250,0.00000,0.01708,0.97088,-0.20716,2023,6,12,10,20,13,70
0.11910,2.99250,-4.56750,0.00000,0.01708,0.97088,-0.21021,2023,6,12,10,20,13,81
0.11920,2.95750,-4.41000,0.00000,0.01513,0.97075,-0.20789,2023,6,12,10,20,13,92
0.11930,3.01000,-4.58500,0.00000,0.01537,0.96905,-0.20960,2023,6,12,10,20,13,103
0.11940,2.83500,-4.32250,0.00000,0.01989,0.97088,-0.20899,2023,6,12,10,20,13,114
0.11950,3.22000,-4.69000,0.00000,0.01647,0.97063,-0.21008,2023,6,12,10,20,13,125
0.11960,2.99250,-4.48000,0.00000,0.01720,0.97283,-0.21033,2023,6,12,10,20,13,136
0.11970,2.99250,-4.44500,0.00000,0.01623,0.97368,-0.20752,2023,6,12,10,20,13,147
0.11980,3.20250,-4.60250,0.00000,0.01647,0.97258,-0.20801,2023,6,12,10,20,13,159
0.11990,2.92250,-4.37500,0.00000,0.01574,0.97112,-0.20960,2023,6,12,10,20,13,170
0.12000,3.06250,-4.48000,0.00000,0.01562,0.97149,-0.20984,2023,6,12,10,20,13,181
0.12010,2.95750,-4.62000,0.00000,0.01708,0.97356,-0.21069,2023,6,12,10,20,13,192
0.12020,2.87000,-4.58500,0.00000,0.01659,0.97185,-0.20972,2023,6,12,10,20,13,203
0.12030,3.04500,-4.56750,0.00000,0.01549,0.97051,-0.21045,2023,6,12,10,20,13,214
0.12040,3.15000,-4.55000,0.00000,0.01586,0.97088,-0.21130,2023,6,12,10,20,13,225
0.12050,2.90500,-4.46250,0.00000,0.01684,0.97149,-0.20923,2023,6,12,10,20,13,236
0.12060,2.88750,-4.69000,0.00000,0.01562,0.97210,-0.20923,2023,6,12,10,20,13,247
0.12070,2.92250,-4.42750,0.00000,0.01635,0.97112,-0.21033,2023,6,12,10,20,13,259
0.12080,3.20250,-4.60250,0.00000,0.01708,0.97002,-0.21045,2023,6,12,10,20,13,270
0.12090,2.95750,-4.51500,0.00000,0.01598,0.97039,-0.20947,2023,6,12,10,20,13,281
0.12100,2.87000,-4.41000,0.00000,0.01488,0.96953,-0.20850,2023,6,12,10,20,13,292
0.12110,3.25500,-4.72500,0.00000,0.01415,0.97136,-0.20777,2023,6,12,10,20,13,303
0.12120,2.92250,-4.60250,0.00000,0.01513,0.97197,-0.21045,2023,6,12,10,20,13,314
0.12130,3.16750,-4.42750,0.00000,0.01574,0.97039,-0.20899,2023,6,12,10,20,13,325
0.12140,2.92250,-4.23500,0.00000,0.01696,0.97051,-0.21021,2023,6,12,10,20,13,336
0.12150,2.90500,-4.37500,0.00000,0.01501,0.97051,-0.21094,2023,6,12,10,20,13,347
0.12160,3.01000,-4.49750,0.00000,0.01464,0.97014,-0.20642,2023,6,12,10,20,13,359
0.12170,2.95750,-4.42750,0.00000,0.01696,0.97161,-0.20886,2023,6,12,10,20,13,370
0.12180,3.16750,-4.62000,0.00000,0.01720,0.97063,-0.20825,2023,6,12,10,20,13,381
0.12190,3.08000,-4.58500,0.00000,0.01708,0.97124,-0.20911,2023,6,12,10,20,13,392
0.12200,2.78250,-4.42750,0.00000,0.01562,0.97185,-0.21082,2023,6,12,10,20,13,403
0.12210,3.04500,-4.46250,0.00000,0.01623,0.96892,-0.20899,2023,6,12,10,20,13,414
0.12220,3.04500,-4.56750,0.00000,0.01525,0.97307,-0.21021,2023,6,12,10,20,13,425
0.12230,2.94000,-4.58500,0.00000,0.01598,0.97136,-0.20703,2023,6,12,10,20,13,436
0.12240,3.16750,-4.63750,0.00000,0.01464,0.96966,-0.21008,2023,6,12,10,20,13,447
0.12250,3.04500,-4.56750,0.00000,0.01598,0.97246,-0.20813,2023,6,12,10,20,13,459
0.12260,2.95750,-4.39250,0.00000,0.01671,0.97173,-0.20740,2023,6,12,10,20,13,470
0.12270,3.01000,-4.51500,0.00000,0.01842,0.97002,-0.20813,2023,6,12,10,20,13,481
0.12280,2.99250,-4.63750,0.00000,0.01586,0.97100,-0.21301,2023,6,12,10,20,13,492
0.12290,3.16750,-4.51500,0.00000,0.01769,0.97039,-0.20581,2023,6,12,10,20,13,503
0.12300,3.04500,-4.32250,0.00000,0.01549,0.96966,-0.20972,2023,6,12,10,20,13,514
0.12310,2.94000,-4.49750,0.00000,0.01452,0.97234,-0.20911,2023,6,12,10,20,13,525
0.12320,3.04500,-4.37500,0.00000,0.01659,0.96978,-0.20899,2023,6,12,10,20,13,536
0.12330,2.87000,-4.42750,0.00000,0.01879,0.96941,-0.21094,2023,6,12,10,20,13,547
0.12340,2.88750,-4.42750,0.00000,0.01635,0.97149,-0.20935,2023,6,12,10,20,13,559
0.12350,3.11500,-4.58500,0.00000,0.01671,0.96868,-0.20923,2023,6,12,10,20,13,570
0.12360,2.94000,-4.30500,0.00000,0.01659,0.97185,-0.20923,2023,6,12,10,20,13,581
0.12370,2.85250,-4.44500,0.00000,0.01867,0.97051,-0.20935,2023,6,12,10,20,13,592
0.12380,2.92250,-4.60250,0.00000,0.01501,0.97088,-0.20801,2023,6,12,10,20,13,603
0.12390,3.04500,-4.49750,0.00000,0.01732,0.97075,-0.20972,2023,6,12,10,20,13,614
0.12400,2.87000,-4.44500,0.00000,0.01732,0.97063,-0.21069,2023,6,12,10,20,13,625
0.12410,2.90500,-4.41000,0.00000,0.01891,0.97185,-0.21008,2023,6,12,10,20,13,636
0.12420,3.08000,-4.63750,0.00000,0.01440,0.96990,-0.20960,2023,6,12,10,20,13,647
0.12430,3.01000,-4.60250,0.00000,0.01610,0.97063,-0.20984,2023,6,12,10,20,13,659
0.12440,2.99250,-4.48000,0.00000,0.01488,0.97149,-0.21130,2023,6,12,10,20,13,670
0.12450,2.94000,-4.60250,0.00000,0.01525,0.97258,-0.21045,2023,6,12,10,20,13,681
0.12460,3.04500,-4.46250,0.00000,0.01513,0.97039,-0.20984,2023,6,12,10,20,13,692
0.12470,3.04500,-4.41000,0.00000,0.01513,0.97319,-0.21179,2023,6,12,10,20,13,703
0.12480,3.04500,-4.37500,0.00000,0.01513,0.97258,-0.20862,2023,6,12,10,20,13,714
0.12490,3.06250,-4.58500,0.00000,0.01623,0.97100,-0.20899,2023,6,12,10,20,13,725
0.12500,3.04500,-4.62000,0.00000,0.01635,0.97136,-0.20984,2023,6,12,10,20,13,736
0.12510,3.09750,-4.44500,0.00000,0.01647,0.97063,-0.21045,2023,6,12,10,20,13,747
0.12520,3.04500,-4.62000,0.00000,0.01720,0.97222,-0.20972,2023,6,12,10,20,13,759
0.12530,3.11500,-4.56750,0.00000,0.01525,0.97100,-0.21057,2023,6,12,10,20,13,770
0.12540,3.18500,-4.56750,0.00000,0.01415,0.97088,-0.20886,2023,6,12,10,20,13,781
0.12550,3.13250,-4.60250,0.00000,0.01671,0.97063,-0.20984,2023,6,12,10,20,13,792
0.12560,3.02750,-4.48000,0.00000,0.01647,0.96831,-0.20886,2023,6,12,10,20,13,803
0.12570,3.06250,-4.51500,0.00000,0.01659,0.97112,-0.20972,2023,6,12,10,20,13,814
0.12580,2.78250,-4.51500,0.00000,0.01427,0.97075,-0.21033,2023,6,12,10,20,13,825
0.12590,2.99250,-4.51500,0.00000,0.01440,0.97258,-0.20850,2023,6,12,10,20,13,836
0.12600,3.09750,-4.69000,0.00000,0.01671,0.97075,-0.20838,2023,6,12,10,20,13,847
0.12610,3.02750,-4.58500,0.00000,0.01598,0.97075,-0.20947,2023,6,12,10,20,13,859
0.12620,3.08000,-4.42750,0.00000,0.01769,0.97210,-0.20764,2023,6,12,10,20,13,870
0.12630,2.99250,-4.53250,0.00000,0.01574,0.97088,-0.20862,2023,6,12,10,20,13,881
0.12640,3.13250,-4.55000,0.00000,0.01891,0.96966,-0.20923,2023,6,12,10,20,13,892
0.12650,3.11500,-4.53250,0.00000,0.01586,0.97124,-0.20923,2023,6,12,10,20,13,903
0.12660,3.11500,-4.56750,0.00000,0.01598,0.97173,-0.20923,2023,6,12,10,20,13,914
0.12670,2.94000,-4.48000,0.00000,0.01635,0.97136,-0.20874,2023,6,12,10,20,13,925
0.12680,2.90500,-4.34000,0.00000,0.01720,0.97319,-0.20960,2023,6,12,10,20,13,936
0.12690,2.99250,-4.56750,0.00000,0.01525,0.97319,-0.20764,2023,6,12,10,20,13,947
0.12700,3.06250,-4.58500,0.00000,0.01769,0.97161,-0.20886,2023,6,12,10,20,14,9
0.12710,3.09750,-4.60250,0.00000,0.01562,0.97100,-0.20899,2023,6,12,10,20,14,20
0.12720,2.90500,-4.53250,0.00000,0.01732,0.96978,-0.21008,2023,6,12,10,20,14,31
0.12730,2.94000,-4.70750,0.00000,0.01440,0.97161,-0.20716,2023,6,12,10,20,14,42
0.12740,3.11500,-4.42750,0.00000,0.01598,0.97124,-0.21191,2023,6,12,10,20,14,53
0.12750,3.11500,-4.49750,0.00000,0.01708,0.97088,-0.20911,2023,6,12,10,20,14,64
0.12760,2.99250,-4.35750,0.00000,0.01671,0.97100,-0.20642,2023,6,12,10,20,14,75
0.12770,3.06250,-4.53250,0.00000,0.01842,0.97185,-0.20850,2023,6,12,10,20,14,86
0.12780,3.08000,-4.48000,0.00000,0.01745,0.97100,-0.20789,2023,6,12,10,20,14,97
0.12790,3.08000,-4.63750,0.00000,0.01818,0.97271,-0.20874,2023,6,12,10,20,14,109
0.12800,2.88750,-4.37500,0.00000,0.01781,0.96953,-0.20874,2023,6,12,10,20,14,120
0.12810,3.06250,-4.62000,0.00000,0.01659,0.97124,-0.20862,2023,6,12,10,20,14,131
0.12820,2.74750,-4.32250,0.00000,0.01623,0.97234,-0.21094,2023,6,12,10,20,14,142
0.12830,3.01000,-4.53250,0.00000,0.01635,0.97161,-0.20667,2023,6,12,10,20,14,153
0.12840,2.90500,-4.55000,0.00000,0.01610,0.97002,-0.20838,2023,6,12,10,20,14,164
0.12850,3.15000,-4.53250,0.00000,0.01671,0.97100,-0.20850,2023,6,12,10,20,14,175
0.12860,3.06250,-4.65500,0.00000,0.01720,0.97295,-0.20716,2023,6,12,10,20,14,186
0.12870,2.85250,-4.60250,0.00000,0.01769,0.97039,-0.20886,2023,6,12,10,20,14,197
0.12880,2.94000,-4.46250,0.00000,0.01647,0.97100,-0.20850,2023,6,12,10,20,14,209
0.12890,3.16750,-4.44500,0.00000,0.01720,0.97088,-0.20935,2023,6,12,10,20,14,220
0.12900,2.92250,-4.39250,0.00000,0.01574,0.97234,-0.21008,2023,6,12,10,20,14,231
0.12910,3.02750,-4.53250,0.00000,0.01610,0.97149,-0.20972,2023,6,12,10,20,14,242
0.12920,3.01000,-4.41000,0.00000,0.01671,0.97027,-0.20813,2023,6,12,10,20,14,253
0.12930,3.09750,-4.46250,0.00000,0.01598,0.97307,-0.21021,2023,6,12,10,20,14,264
0.12940,3.09750,-4.60250,0.00000,0.01818,0.97051,-0.20764,2023,6,12,10,20,14,275
0.12950,3.11500,-4.55000,0.00000,0.01513,0.97197,-0.20569,2023,6,12,10,20,14,286
0.12960,2.87000,-4.48000,0.00000,0.01574,0.97124,-0.20886,2023,6,12,10,20,14,297
0.12970,3.18500,-4.58500,0.00000,0.01684,0.97075,-0.20899,2023,6,12,10,20,14,309
0.12980,3.09750,-4.44500,0.00000,0.01696,0.97027,-0.20996,2023,6,12,10,20,14,320
0.12990,2.92250,-4.55000,0.00000,0.01562,0.97173,-0.20740,2023,6,12,10,20,14,331
0.13000,3.06250,-4.62000,0.00000,0.01769,0.97051,-0.21118,2023,6,12,10,20,14,342
0.13010,3.04500,-4.56750,0.00000,0.01769,0.97173,-0.20923,2023,6,12,10,20,14,353
0.13020,3.08000,-4.55000,0.00000,0.01684,0.97112,-0.20569,2023,6,12,10,20,14,364
0.13030,3.04500,-4.53250,0.00000,0.01659,0.97222,-0.20716,2023,6,12,10,20,14,375
0.13040,3.02750,-4.34000,0.00000,0.01659,0.97051,-0.20923,2023,6,12,10,20,14,386
0.13050,2.80000,-4.53250,0.00000,0.01537,0.97075,-0.20801,2023,6,12,10,20,14,397
0.13060,3.01000,-4.49750,0.00000,0.01659,0.97039,-0.20630,2023,6,12,10,20,14,409
0.13070,3.06250,-4.67250,0.00000,0.01647,0.97234,-0.20850,2023,6,12,10,20,14,420
0.13080,2.83500,-4.37500,0.00000,0.01818,0.97002,-0.20618,2023,6,12,10,20,14,431
0.13090,3.02750,-4.63750,0.00000,0.01684,0.97283,-0.20838,2023,6,12,10,20,14,442
0.13100,2.99250,-4.63750,0.00000,0.01562,0.97051,-0.20850,2023,6,12,10,20,14,453
0.13110,3.13250,-4.55000,0.00000,0.01562,0.97100,-0.20899,2023,6,12,10,20,14,464
0.13120,3.08000,-4.56750,0.00000,0.01732,0.97271,-0.21118,2023,6,12,10,20,14,475
0.13130,3.02750,-4.42750,0.00000,0.01659,0.97185,-0.20984,2023,6,12,10,20,14,486
0.13140,3.11500,-4.60250,0.00000,0.01732,0.97234,-0.20874,2023,6,12,10,20,14,497
0.13150,3.04500,-4.39250,0.00000,0.01732,0.96978,-0.20728,2023,6,12,10,20,14,509
0.13160,3.18500,-4.63750,0.00000,0.01696,0.97088,-0.21008,2023,6,12,10,20,14,520
0.13170,3.08000,-4.51500,0.00000,0.01574,0.97271,-0.21045,2023,6,12,10,20,14,531
0.13180,2.90500,-4.53250,0.00000,0.01647,0.97173,-0.20642,2023,6,12,10,20,14,542
0.13190,3.06250,-4.58500,0.00000,0.01867,0.97075,-0.21106,2023,6,12,10,20,14,553
0.13200,2.95750,-4.42750,0.00000,0.01781,0.97063,-0.20874,2023,6,12,10,20,14,564
0.13210,2.88750,-4.30500,0.00000,0.01684,0.97271,-0.20947,2023,6,12,10,20,14,575
0.13220,3.01000,-4.53250,0.00000,0.01769,0.97149,-0.20862,2023,6,12,10,20,14,586
0.13230,3.06250,-4.44500,0.00000,0.01391,0.97307,-0.20728,2023,6,12,10,20,14,597
0.13240,2.81750,-4.37500,0.00000,0.01623,0.97197,-0.20764,2023,6,12,10,20,14,609
0.13250,3.11500,-4.51500,0.00000,0.01671,0.97136,-0.21069,2023,6,12,10,20,14,620
0.13260,2.99250,-4.55000,0.00000,0.01574,0.97124,-0.21094,2023,6,12,10,20,14,631
0.13270,2.97500,-4.25250,0.00000,0.01598,0.97051,-0.21167,2023,6,12,10,20,14,642
0.13280,2.99250,-4.56750,0.00000,0.01757,0.96978,-0.20789,2023,6,12,10,20,14,653
0.13290,3.01000,-4.77750,0.00000,0.01537,0.97149,-0.20984,2023,6,12,10,20,14,664
0.13300,2.83500,-4.30500,0.00000,0.01635,0.97075,-0.20642,2023,6,12,10,20,14,675
0.13310,2.99250,-4.49750,0.00000,0.01708,0.96795,-0.20850,2023,6,12,10,20,14,686
0.13320,2.99250,-4.58500,0.00000,0.01598,0.97100,-0.20728,2023,6,12,10,20,14,697
0.13330,3.06250,-4.58500,0.00000,0.01476,0.97063,-0.21021,2023,6,12,10,20,14,709
0.13340,2.99250,-4.63750,0.00000,0.01525,0.97210,-0.20862,2023,6,12,10,20,14,720
0.13350,2.99250,-4.42750,0.00000,0.01598,0.97271,-0.20764,2023,6,12,10,20,14,731
0.13360,3.09750,-4.46250,0.00000,0.01696,0.97234,-0.21143,2023,6,12,10,20,14,742
0.13370,2.92250,-4.72500,0.00000,0.01562,0.97088,-0.20655,2023,6,12,10,20,14,753
0.13380,3.01000,-4.41000,0.00000,0.01708,0.96880,-0.20886,2023,6,12,10,20,14,764
0.13390,2.94000,-4.28750,0.00000,0.01562,0.97100,-0.21045,2023,6,12,10,20,14,775
0.13400,2.88750,-4.44500,0.00000,0.01562,0.97051,-0.20850,2023,6,12,10,20,14,786
0.13410,3.02750,-4.56750,0.00000,0.01610,0.97210,-0.20996,2023,6,12,10,20,14,797
0.13420,3.04500,-4.63750,0.00000,0.01452,0.97234,-0.20960,2023,6,12,10,20,14,809
0.13430,3.11500,-4.56750,0.00000,0.01586,0.96990,-0.21191,2023,6,12,10,20,14,820
0.13440,3.11500,-4.74250,0.00000,0.01659,0.97039,-0.21033,2023,6,12,10,20,14,831
0.13450,3.11500,-4.62000,0.00000,0.01684,0.97100,-0.20703,2023,6,12,10,20,14,842
0.13460,2.95750,-4.55000,0.00000,0.01610,0.97027,-0.21033,2023,6,12,10,20,14,853
0.13470,2.81750,-4.32250,0.00000,0.01623,0.96966,-0.21167,2023,6,12,10,20,14,864
0.13480,2.95750,-4.42750,0.00000,0.01647,0.97222,-0.21021,2023,6,12,10,20,14,875
0.13490,3.09750,-4.56750,0.00000,0.01598,0.97088,-0.20947,2023,6,12,10,20,14,886
0.13500,3.04500,-4.34000,0.00000,0.01671,0.97173,-0.20850,2023,6,12,10,20,14,897
0.13510,3.02750,-4.81250,0.00000,0.01623,0.97161,-0.20984,2023,6,12,10,20,14,909
0.13520,3.11500,-4.42750,0.00000,0.01574,0.97234,-0.20813,2023,6,12,10,20,14,920
0.13530,3.13250,-4.49750,0.00000,0.01818,0.97002,-0.20984,2023,6,12,10,20,14,931
0.13540,2.99250,-4.44500,0.00000,0.01610,0.97246,-0.20972,2023,6,12,10,20,14,942
0.13550,3.15000,-4.51500,0.00000,0.01659,0.97161,-0.20838,2023,6,12,10,20,14,953
0.13560,3.01000,-4.55000,0.00000,0.01549,0.97173,-0.20777,2023,6,12,10,20,14,964
0.13570,2.97500,-4.41000,0.00000,0.01952,0.97295,-0.20679,2023,6,12,10,20,14,975
0.13580,2.92250,-4.44500,0.00000,0.01659,0.97246,-0.20996,2023,6,12,10,20,15,6
0.13590,3.01000,-4.41000,0.00000,0.01598,0.97136,-0.20862,2023,6,12,10,20,15,17
0.13600,2.87000,-4.41000,0.00000,0.01671,0.97149,-0.21045,2023,6,12,10,20,15,29
0.13610,2.90500,-4.41000,0.00000,0.01671,0.97002,-0.20825,2023,6,12,10,20,15,40
0.13620,3.06250,-4.55000,0.00000,0.01598,0.97210,-0.20813,2023,6,12,10,20,15,51
0.13630,2.92250,-4.53250,0.00000,0.01806,0.97075,-0.20667,2023,6,12,10,20,15,62
0.13640,3.02750,-4.34000,0.00000,0.01549,0.97063,-0.20996,2023,6,12,10,20,15,73
0.13650,3.13250,-4.51500,0.00000,0.01647,0.96868,-0.21021,2023,6,12,10,20,15,84
0.13660,2.97500,-4.44500,0.00000,0.01586,0.97441,-0.21069,2023,6,12,10,20,15,95
0.13670,3.06250,-4.39250,0.00000,0.01488,0.97014,-0.20691,2023,6,12,10,20,15,106
0.13680,2.99250,-4.41000,0.00000,0.01659,0.97161,-0.20850,2023,6,12,10,20,15,117
0.13690,2.88750,-4.60250,0.00000,0.01769,0.97197,-0.20764,2023,6,12,10,20,15,129
0.13700,2.94000,-4.51500,0.00000,0.01745,0.96978,-0.20899,2023,6,12,10,20,15,140
0.13710,2.95750,-4.46250,0.00000,0.01623,0.97185,-0.20691,2023,6,12,10,20,15,151
0.13720,2.94000,-4.67250,0.00000,0.01537,0.97149,-0.21155,2023,6,12,10,20,15,162
0.13730,3.11500,-4.44500,0.00000,0.01586,0.96953,-0.20850,2023,6,12,10,20,15,173
0.13740,3.01000,-4.58500,0.00000,0.01452,0.97185,-0.20960,2023,6,12,10,20,15,184
0.13750,3.11500,-4.56750,0.00000,0.01488,0.97161,-0.20923,2023,6,12,10,20,15,195
0.13760,3.04500,-4.65500,0.00000,0.01684,0.97112,-0.20886,2023,6,12,10,20,15,206
0.13770,3.06250,-4.74250,0.00000,0.01623,0.97002,-0.20972,2023,6,12,10,20,15,217
0.13780,2.97500,-4.53250,0.00000,0.02013,0.96978,-0.20911,2023,6,12,10,20,15,229
0.13790,3.11500,-4.39250,0.00000,0.01513,0.97100,-0.20911,2023,6,12,10,20,15,240
0.13800,3.04500,-4.56750,0.00000,0.01452,0.96990,-0.20740,2023,6,12,10,20,15,251
0.13810,2.97500,-4.49750,0.00000,0.01574,0.97161,-0.21057,2023,6,12,10,20,15,262
0.13820,3.02750,-4.62000,0.00000,0.01684,0.97002,-0.20972,2023,6,12,10,20,15,273
0.13830,2.78250,-4.51500,0.00000,0.01562,0.97185,-0.20850,2023,6,12,10,20,15,284
0.13840,2.90500,-4.37500,0.00000,0.01732,0.97295,-0.20838,2023,6,12,10,20,15,295
0.13850,3.15000,-4.39250,0.00000,0.01732,0.97161,-0.20764,2023,6,12,10,20,15,306
0.13860,2.97500,-4.48000,0.00000,0.01598,0.97075,-0.20752,2023,6,12,10,20,15,317
0.13870,3.01000,-4.67250,0.00000,0.01440,0.97063,-0.21094,2023,6,12,10,20,15,329
0.13880,2.87000,-4.69000,0.00000,0.01647,0.97185,-0.20777,2023,6,12,10,20,15,340
0.13890,2.99250,-4.55000,0.00000,0.01732,0.96831,-0.20947,2023,6,12,10,20,15,351
0.13900,2.83500,-4.39250,0.00000,0.01647,0.97100,-0.20899,2023,6,12,10,20,15,362
0.13910,2.87000,-4.49750,0.00000,0.01647,0.97307,-0.20728,2023,6,12,10,20,15,373
0.13920,2.99250,-4.53250,0.00000,0.01647,0.96978,-0.20642,2023,6,12,10,20,15,384
0.13930,3.08000,-4.74250,0.00000,0.01562,0.97210,-0.21106,2023,6,12,10,20,15,395
0.13940,3.01000,-4.48000,0.00000,0.01671,0.97356,-0.20935,2023,6,12,10,20,15,406
0.13950,2.87000,-4.62000,0.00000,0.01745,0.96856,-0.20764,2023,6,12,10,20,15,417
0.13960,3.08000,-4.35750,0.00000,0.01684,0.97173,-0.20935,2023,6,12,10,20,15,429
0.13970,2.87000,-4.20000,0.00000,0.01549,0.97039,-0.21033,2023,6,12,10,20,15,440
0.13980,2.94000,-4.56750,0.00000,0.01757,0.97234,-0.20899,2023,6,12,10,20,15,451
0.13990,3.09750,-4.44500,0.00000,0.01598,0.97429,-0.20789,2023,6,12,10,20,15,462
0.14000,2.97500,-4.48000,0.00000,0.01501,0.97088,-0.20947,2023,6,12,10,20,15,473
0.14010,2.94000,-4.49750,0.00000,0.01623,0.97039,-0.20935,2023,6,12,10,20,15,484
0.14020,3.18500,-4.51500,0.00000,0.01696,0.96966,-0.21094,2023,6,12,10,20,15,495
0.14030,3.09750,-4.48000,0.00000,0.01562,0.97124,-0.20777,2023,6,12,10,20,15,506
0.14040,3.25500,-4.69000,0.00000,0.01781,0.97063,-0.20886,2023,6,12,10,20,15,517
0.14050,2.97500,-4.49750,0.00000,0.01708,0.97051,-0.20911,2023,6,12,10,20,15,529
0.14060,3.01000,-4.69000,0.00000,0.01354,0.97210,-0.20813,2023,6,12,10,20,15,540
0.14070,3.08000,-4.69000,0.00000,0.01488,0.97039,-0.20838,2023,6,12,10,20,15,551
0.14080,3.01000,-4.56750,0.00000,0.01549,0.97027,-0.21143,2023,6,12,10,20,15,562
0.14090,2.76500,-4.30500,0.00000,0.01769,0.97185,-0.20752,2023,6,12,10,20,15,573
0.14100,3.01000,-4.49750,0.00000,0.01562,0.96978,-0.20911,2023,6,12,10,20,15,584
0.14110,3.04500,-4.76000,0.00000,0.01659,0.97149,-0.20899,2023,6,12,10,20,15,595
0.14120,3.01000,-4.34000,0.00000,0.01793,0.97002,-0.20911,2023,6,12,10,20,15,606
0.14130,2.95750,-4.55000,0.00000,0.01586,0.97014,-0.20972,2023,6,12,10,20,15,617
0.14140,3.09750,-4.44500,0.00000,0.01623,0.97161,-0.21069,2023,6,12,10,20,15,629
0.14150,2.99250,-4.58500,0.00000,0.01708,0.96990,-0.20972,2023,6,12,10,20,15,640
0.14160,2.97500,-4.55000,0.00000,0.01610,0.96880,-0.21179,2023,6,12,10,20,15,651
0.14170,3.02750,-4.53250,0.00000,0.01562,0.96880,-0.20850,2023,6,12,10,20,15,662
0.14180,3.06250,-4.51500,0.00000,0.01720,0.96892,-0.20947,2023,6,12,10,20,15,673
0.14190,3.13250,-4.70750,0.00000,0.01671,0.97063,-0.21204,2023,6,12,10,20,15,684
0.14200,2.99250,-4.53250,0.00000,0.01757,0.97002,-0.21069,2023,6,12,10,20,15,695
0.14210,2.97500,-4.25250,0.00000,0.01708,0.97063,-0.21106,2023,6,12,10,20,15,706
0.14220,2.95750,-4.41000,0.00000,0.01806,0.97136,-0.21094,2023,6,12,10,20,15,717
0.14230,2.95750,-4.56750,0.00000,0.01684,0.97100,-0.21057,2023,6,12,10,20,15,729
0.14240,2.92250,-4.46250,0.00000,0.01598,0.97014,-0.20740,2023,6,12,10,20,15,740
0.14250,2.99250,-4.53250,0.00000,0.01647,0.97002,-0.20825,2023,6,12,10,20,15,751
0.14260,3.04500,-4.49750,0.00000,0.01574,0.97051,-0.21118,2023,6,12,10,20,15,762
0.14270,2.95750,-4.55000,0.00000,0.01732,0.97185,-0.21216,2023,6,12,10,20,15,773
0.14280,3.09750,-4.60250,0.00000,0.01659,0.97161,-0.20984,2023,6,12,10,20,15,784
0.14290,3.02750,-4.62000,0.00000,0.01598,0.97283,-0.21021,2023,6,12,10,20,15,795
0.14300,3.15000,-4.39250,0.00000,0.01379,0.96990,-0.21118,2023,6,12,10,20,15,806
0.14310,3.02750,-4.44500,0.00000,0.01610,0.97075,-0.21057,2023,6,12,10,20,15,817
0.14320,3.16750,-4.67250,0.00000,0.01671,0.97185,-0.20911,2023,6,12,10,20,15,829
0.14330,3.09750,-4.70750,0.00000,0.01781,0.96990,-0.20777,2023,6,12,10,20,15,840
0.14340,2.99250,-4.58500,0.00000,0.01757,0.97014,-0.20996,2023,6,12,10,20,15,851
0.14350,3.20250,-4.39250,0.00000,0.01537,0.97075,-0.21033,2023,6,12,10,20,15,862
0.14360,3.06250,-4.42750,0.00000,0.01647,0.97051,-0.20606,2023,6,12,10,20,15,873
0.14370,3.15000,-4.63750,0.00000,0.01574,0.97112,-0.20960,2023,6,12,10,20,15,884
0.14380,2.99250,-4.49750,0.00000,0.01671,0.97258,-0.20923,2023,6,12,10,20,15,895
0.14390,3.04500,-4.62000,0.00000,0.01854,0.97136,-0.20972,2023,6,12,10,20,15,906
0.14400,2.90500,-4.53250,0.00000,0.01671,0.97124,-0.20886,2023,6,12,10,20,15,917
0.14410,3.06250,-4.65500,0.00000,0.01574,0.97063,-0.20764,2023,6,12,10,20,15,929
0.14420,3.04500,-4.53250,0.00000,0.01525,0.97271,-0.21130,2023,6,12,10,20,15,940
0.14430,3.11500,-4.65500,0.00000,0.01525,0.97051,-0.20972,2023,6,12,10,20,15,951
0.14440,3.13250,-4.53250,0.00000,0.01525,0.97234,-0.20862,2023,6,12,10,20,15,962
0.14450,2.88750,-4.51500,0.00000,0.01379,0.96966,-0.20911,2023,6,12,10,20,16,3
0.14460,2.90500,-4.41000,0.00000,0.01635,0.97014,-0.21082,2023,6,12,10,20,16,14
0.14470,2.99250,-4.32250,0.00000,0.01854,0.97112,-0.20813,2023,6,12,10,20,16,25
0.14480,3.13250,-4.48000,0.00000,0.01623,0.96844,-0.21289,2023,6,12,10,20,16,36
0.14490,3.06250,-4.48000,0.00000,0.01440,0.97051,-0.20923,2023,6,12,10,20,16,47
0.14500,2.78250,-4.74250,0.00000,0.01793,0.96941,-0.20923,2023,6,12,10,20,16,59
0.14510,2.95750,-4.55000,0.00000,0.01379,0.97063,-0.21118,2023,6,12,10,20,16,70
0.14520,3.13250,-4.63750,0.00000,0.01525,0.97161,-0.21118,2023,6,12,10,20,16,81
0.14530,3.08000,-4.55000,0.00000,0.01501,0.97234,-0.20984,2023,6,12,10,20,16,92
0.14540,3.02750,-4.51500,0.00000,0.01562,0.97112,-0.21008,2023,6,12,10,20,16,103
0.14550,2.92250,-4.48000,0.00000,0.01745,0.96905,-0.21008,2023,6,12,10,20,16,114
0.14560,3.01000,-4.42750,0.00000,0.01586,0.97039,-0.20886,2023,6,12,10,20,16,125
0.14570,3.04500,-4.48000,0.00000,0.01696,0.96941,-0.20703,2023,6,12,10,20,16,136
0.14580,2.95750,-4.55000,0.00000,0.01635,0.96990,-0.21021,2023,6,12,10,20,16,147
0.14590,3.04500,-4.51500,0.00000,0.01488,0.97295,-0.20996,2023,6,12,10,20,16,159
0.14600,2.95750,-4.53250,0.00000,0.01635,0.96978,-0.20935,2023,6,12,10,20,16,170
0.14610,2.97500,-4.27000,0.00000,0.01671,0.97136,-0.21033,2023,6,12,10,20,16,181
0.14620,3.15000,-4.79500,0.00000,0.01684,0.97246,-0.21094,2023,6,12,10,20,16,192
0.14630,3.20250,-4.51500,0.00000,0.01708,0.96831,-0.21179,2023,6,12,10,20,16,203
0.14640,2.97500,-4.60250,0.00000,0.01745,0.97405,-0.20777,2023,6,12,10,20,16,214
0.14650,3.02750,-4.46250,0.00000,0.01610,0.97197,-0.20764,2023,6,12,10,20,16,225
0.14660,3.08000,-4.56750,0.00000,0.01501,0.96905,-0.21118,2023,6,12,10,20,16,236
0.14670,2.99250,-4.39250,0.00000,0.01745,0.96917,-0.20947,2023,6,12,10,20,16,247
0.14680,2.88750,-4.56750,0.00000,0.01623,0.97124,-0.20716,2023,6,12,10,20,16,259
0.14690,2.74750,-4.53250,0.00000,0.01452,0.97014,-0.20972,2023,6,12,10,20,16,270
0.14700,2.95750,-4.60250,0.00000,0.01647,0.97039,-0.20911,2023,6,12,10,20,16,281
0.14710,3.09750,-4.58500,0.00000,0.01562,0.97014,-0.21252,2023,6,12,10,20,16,292
0.14720,3.02750,-4.35750,0.00000,0.01574,0.97100,-0.20899,2023,6,12,10,20,16,303
0.14730,3.06250,-4.51500,0.00000,0.01549,0.97210,-0.20886,2023,6,12,10,20,16,314
0.14740,2.92250,-4.53250,0.00000,0.01403,0.97112,-0.20923,2023,6,12,10,20,16,325
0.14750,3.02750,-4.34000,0.00000,0.01769,0.97088,-0.20984,2023,6,12,10,20,16,336
0.14760,2.97500,-4.53250,0.00000,0.01793,0.97088,-0.21021,2023,6,12,10,20,16,347
0.14770,2.99250,-4.70750,0.00000,0.01745,0.97173,-0.20923,2023,6,12,10,20,16,359
0.14780,3.02750,-4.58500,0.00000,0.01745,0.97161,-0.20984,2023,6,12,10,20,16,370
0.14790,3.01000,-4.35750,0.00000,0.01427,0.97149,-0.20862,2023,6,12,10,20,16,381
0.14800,2.94000,-4.77750,0.00000,0.01745,0.97014,-0.21094,2023,6,12,10,20,16,392
0.14810,2.97500,-4.70750,0.00000,0.01842,0.97161,-0.21008,2023,6,12,10,20,16,403
0.14820,3.02750,-4.34000,0.00000,0.01647,0.97039,-0.21033,2023,6,12,10,20,16,414
0.14830,3.08000,-4.81250,0.00000,0.01525,0.97210,-0.20667,2023,6,12,10,20,16,425
0.14840,3.29000,-4.44500,0.00000,0.01781,0.97295,-0.20789,2023,6,12,10,20,16,436
0.14850,2.85250,-4.35750,0.00000,0.01696,0.97063,-0.21082,2023,6,12,10,20,16,447
0.14860,3.09750,-4.53250,0.00000,0.01610,0.97088,-0.20886,2023,6,12,10,20,16,459
0.14870,3.13250,-4.63750,0.00000,0.01757,0.97136,-0.20838,2023,6,12,10,20,16,470
0.14880,3.06250,-4.55000,0.00000,0.01464,0.97136,-0.21069,2023,6,12,10,20,16,481
0.14890,2.90500,-4.53250,0.00000,0.01452,0.97307,-0.20813,2023,6,12,10,20,16,492
0.14900,3.08000,-4.41000,0.00000,0.01415,0.97075,-0.20813,2023,6,12,10,20,16,503
0.14910,2.78250,-4.65500,0.00000,0.01586,0.97271,-0.20886,2023,6,12,10,20,16,514
0.14920,2.92250,-4.46250,0.00000,0.01525,0.97002,-0.21252,2023,6,12,10,20,16,525
