#2023/06/12 13:37:11
time,wx,wy,wz,ax,ay,az,yy,MM,dd,hh,mm,ss,ms
0.00000,2.87000,-4.84750,0.00000,-0.01025,0.01598,-0.99113,2023,6,12,13,37,11,812
0.00010,3.06250,-4.48000,0.00000,-0.00891,0.01196,-0.98918,2023,6,12,13,37,11,823
0.00020,2.81750,-4.42750,0.00000,-0.00915,0.01720,-0.98930,2023,6,12,13,37,11,834
0.00030,2.99250,-4.56750,0.00000,-0.00903,0.01586,-0.98783,2023,6,12,13,37,11,845
0.00040,2.80000,-4.28750,0.00000,-0.01098,0.01513,-0.98954,2023,6,12,13,37,11,856
0.00050,3.01000,-4.55000,0.00000,-0.01135,0.01427,-0.98930,2023,6,12,13,37,11,867
0.00060,2.85250,-4.67250,0.00000,-0.00891,0.01440,-0.98796,2023,6,12,13,37,11,878
0.00070,2.85250,-4.53250,0.00000,-0.01098,0.01464,-0.98576,2023,6,12,13,37,11,889
0.00080,3.01000,-4.74250,0.00000,-0.00988,0.01379,-0.99015,2023,6,12,13,37,11,900
0.00090,2.71250,-4.32250,0.00000,-0.00915,0.01427,-0.98674,2023,6,12,13,37,11,911
0.00100,2.76500,-4.35750,0.00000,-0.01037,0.01403,-0.98796,2023,6,12,13,37,11,923
0.00110,2.87000,-4.44500,0.00000,-0.01074,0.01403,-0.98698,2023,6,12,13,37,11,934
0.00120,2.97500,-4.67250,0.00000,-0.00866,0.01452,-0.98735,2023,6,12,13,37,11,945
0.00130,2.94000,-4.62000,0.00000,-0.00976,0.01647,-0.98576,2023,6,12,13,37,11,956
0.00140,2.87000,-4.51500,0.00000,-0.00817,0.01525,-0.99064,2023,6,12,13,37,11,967
0.00150,2.81750,-4.53250,0.00000,-0.00866,0.01440,-0.98905,2023,6,12,13,37,11,978
0.00160,2.74750,-4.44500,0.00000,-0.00952,0.01549,-0.98954,2023,6,12,13,37,11,989
0.00170,2.60750,-4.69000,0.00000,-0.00988,0.01342,-0.99052,2023,6,12,13,37,11,0
0.00180,3.04500,-4.60250,0.00000,-0.00817,0.01513,-0.98552,2023,6,12,13,37,11,11
0.00190,2.85250,-4.44500,0.00000,-0.00891,0.01586,-0.98783,2023,6,12,13,37,11,23
0.00200,2.87000,-4.51500,0.00000,-0.00976,0.01464,-0.98747,2023,6,12,13,37,11,34
0.00210,3.04500,-4.70750,0.00000,-0.00988,0.01464,-0.98832,2023,6,12,13,37,11,45
0.00220,2.94000,-4.62000,0.00000,-0.00976,0.01305,-0.98942,2023,6,12,13,37,11,56
0.00230,2.83500,-4.48000,0.00000,-0.00939,0.01354,-0.98966,2023,6,12,13,37,11,67
0.00240,2.83500,-4.55000,0.00000,-0.00866,0.01586,-0.99113,2023,6,12,13,37,11,78
0.00250,2.80000,-4.55000,0.00000,-0.00830,0.01427,-0.98808,2023,6,12,13,37,11,89
0.00260,2.94000,-4.62000,0.00000,-0.00903,0.01196,-0.99088,2023,6,12,13,37,11,100
0.00270,2.95750,-4.56750,0.00000,-0.00769,0.01610,-0.99210,2023,6,12,13,37,11,111
0.00280,2.90500,-4.58500,0.00000,-0.00903,0.01513,-0.99040,2023,6,12,13,37,11,123
0.00290,2.85250,-4.51500,0.00000,-0.01013,0.01330,-0.99003,2023,6,12,13,37,11,134
0.00300,3.06250,-4.48000,0.00000,-0.00854,0.01305,-0.98893,2023,6,12,13,37,11,145
0.00310,2.81750,-4.46250,0.00000,-0.00720,0.01610,-0.99064,2023,6,12,13,37,11,156
0.00320,2.95750,-4.62000,0.00000,-0.00793,0.01610,-0.98893,2023,6,12,13,37,11,167
0.00330,3.09750,-4.51500,0.00000,-0.01000,0.01452,-0.98905,2023,6,12,13,37,11,178
0.00340,2.85250,-4.63750,0.00000,-0.01049,0.01452,-0.98844,2023,6,12,13,37,11,189
0.00350,2.88750,-4.53250,0.00000,-0.00927,0.01354,-0.98905,2023,6,12,13,37,11,200
0.00360,3.13250,-4.58500,0.00000,-0.01110,0.01391,-0.98710,2023,6,12,13,37,11,211
0.00370,2.90500,-4.74250,0.00000,-0.01061,0.01464,-0.99186,2023,6,12,13,37,11,223
0.00380,2.95750,-4.46250,0.00000,-0.01000,0.01513,-0.98710,2023,6,12,13,37,11,234
0.00390,2.99250,-4.55000,0.00000,-0.00927,0.01415,-0.98808,2023,6,12,13,37,11,245
0.00400,2.97500,-4.56750,0.00000,-0.01037,0.01513,-0.98881,2023,6,12,13,37,11,256
0.00410,2.99250,-4.65500,0.00000,-0.01110,0.01318,-0.98759,2023,6,12,13,37,11,267
0.00420,2.97500,-4.69000,0.00000,-0.00891,0.01269,-0.99027,2023,6,12,13,37,11,278
0.00430,2.90500,-4.44500,0.00000,-0.00793,0.01379,-0.98783,2023,6,12,13,37,11,289
0.00440,3.04500,-4.63750,0.00000,-0.01159,0.01537,-0.98808,2023,6,12,13,37,11,300
0.00450,2.88750,-4.56750,0.00000,-0.00903,0.01330,-0.98759,2023,6,12,13,37,12,1
0.00460,3.04500,-4.62000,0.00000,-0.00769,0.01525,-0.98698,2023,6,12,13,37,12,13
0.00470,2.80000,-4.51500,0.00000,-0.00830,0.01183,-0.98942,2023,6,12,13,37,12,24
0.00480,2.87000,-4.70750,0.00000,-0.01183,0.01415,-0.98820,2023,6,12,13,37,12,35
0.00490,2.69500,-4.62000,0.00000,-0.01013,0.01501,-0.98893,2023,6,12,13,37,12,46
0.00500,2.83500,-4.53250,0.00000,-0.01122,0.01366,-0.98686,2023,6,12,13,37,12,57
0.00510,2.78250,-4.37500,0.00000,-0.00976,0.01281,-0.98930,2023,6,12,13,37,12,68
0.00520,3.11500,-4.74250,0.00000,-0.01013,0.01366,-0.98796,2023,6,12,13,37,12,79
0.00530,2.88750,-4.48000,0.00000,-0.01013,0.01427,-0.98869,2023,6,12,13,37,12,90
0.00540,2.80000,-4.44500,0.00000,-0.00988,0.01501,-0.98808,2023,6,12,13,37,12,101
0.00550,2.95750,-4.76000,0.00000,-0.00878,0.01562,-0.98869,2023,6,12,13,37,12,113
0.00560,2.99250,-4.77750,0.00000,-0.00891,0.01525,-0.98808,2023,6,12,13,37,12,124
0.00570,2.95750,-4.60250,0.00000,-0.00854,0.01366,-0.98869,2023,6,12,13,37,12,135
0.00580,2.94000,-4.53250,0.00000,-0.00854,0.01354,-0.98674,2023,6,12,13,37,12,146
0.00590,2.76500,-4.56750,0.00000,-0.00964,0.01415,-0.98820,2023,6,12,13,37,12,157
0.00600,2.74750,-4.51500,0.00000,-0.00842,0.01293,-0.98893,2023,6,12,13,37,12,168
0.00610,2.95750,-4.48000,0.00000,-0.01037,0.01464,-0.98588,2023,6,12,13,37,12,179
0.00620,2.85250,-4.44500,0.00000,-0.00903,0.01366,-0.98759,2023,6,12,13,37,12,190
0.00630,2.74750,-4.32250,0.00000,-0.01025,0.01525,-0.98808,2023,6,12,13,37,12,201
0.00640,2.85250,-4.42750,0.00000,-0.00964,0.01440,-0.98796,2023,6,12,13,37,12,213
0.00650,2.88750,-4.53250,0.00000,-0.00964,0.01610,-0.98966,2023,6,12,13,37,12,224
0.00660,2.81750,-4.49750,0.00000,-0.00952,0.01415,-0.98979,2023,6,12,13,37,12,235
0.00670,3.09750,-4.46250,0.00000,-0.01110,0.01391,-0.99174,2023,6,12,13,37,12,246
0.00680,2.85250,-4.48000,0.00000,-0.00903,0.01562,-0.98881,2023,6,12,13,37,12,257
0.00690,2.74750,-4.35750,0.00000,-0.00866,0.01549,-0.98832,2023,6,12,13,37,12,268
0.00700,2.99250,-4.77750,0.00000,-0.00939,0.01244,-0.99076,2023,6,12,13,37,12,279
0.00710,2.88750,-4.55000,0.00000,-0.00903,0.01305,-0.98930,2023,6,12,13,37,12,290
0.00720,2.83500,-4.48000,0.00000,-0.01074,0.01415,-0.98930,2023,6,12,13,37,12,301
0.00730,2.80000,-4.56750,0.00000,-0.00976,0.01440,-0.98832,2023,6,12,13,37,12,313
0.00740,2.80000,-4.56750,0.00000,-0.01257,0.01452,-0.98686,2023,6,12,13,37,12,324
0.00750,2.88750,-4.35750,0.00000,-0.01049,0.01220,-0.98869,2023,6,12,13,37,12,335
0.00760,2.80000,-4.56750,0.00000,-0.00903,0.01391,-0.98576,2023,6,12,13,37,12,346
0.00770,2.83500,-4.53250,0.00000,-0.00793,0.01464,-0.98808,2023,6,12,13,37,12,357
0.00780,2.95750,-4.39250,0.00000,-0.00964,0.01476,-0.98747,2023,6,12,13,37,12,368
0.00790,2.95750,-4.37500,0.00000,-0.01013,0.01562,-0.98905,2023,6,12,13,37,12,379
0.00800,2.85250,-4.44500,0.00000,-0.00915,0.01403,-0.98783,2023,6,12,13,37,12,390
0.00810,2.90500,-4.60250,0.00000,-0.00939,0.01525,-0.99076,2023,6,12,13,37,12,401
0.00820,3.08000,-4.63750,0.00000,-0.01013,0.01562,-0.98991,2023,6,12,13,37,12,413
0.00830,2.83500,-4.56750,0.00000,-0.00976,0.01391,-0.98979,2023,6,12,13,37,12,424
0.00840,2.87000,-4.88250,0.00000,-0.01025,0.01257,-0.99064,2023,6,12,13,37,12,435
0.00850,2.90500,-4.49750,0.00000,-0.00927,0.01281,-0.99003,2023,6,12,13,37,12,446
0.00860,2.94000,-4.62000,0.00000,-0.00744,0.01366,-0.98613,2023,6,12,13,37,12,457
0.00870,2.97500,-4.49750,0.00000,-0.00976,0.01330,-0.99040,2023,6,12,13,37,12,468
0.00880,2.97500,-4.53250,0.00000,-0.00988,0.01415,-0.98905,2023,6,12,13,37,12,479
0.00890,3.06250,-4.58500,0.00000,-0.00781,0.01403,-0.98808,2023,6,12,13,37,12,490
0.00900,2.87000,-4.60250,0.00000,-0.01013,0.01452,-0.98918,2023,6,12,13,37,12,501
0.00910,2.99250,-4.53250,0.00000,-0.01086,0.01403,-0.98747,2023,6,12,13,37,12,513
0.00920,2.85250,-4.25250,0.00000,-0.01196,0.01366,-0.98796,2023,6,12,13,37,12,524
0.00930,2.81750,-4.46250,0.00000,-0.01110,0.01574,-0.98710,2023,6,12,13,37,12,535
0.00940,2.83500,-4.58500,0.00000,-0.00805,0.01549,-0.98747,2023,6,12,13,37,12,546
0.00950,2.88750,-4.60250,0.00000,-0.00988,0.01330,-0.99040,2023,6,12,13,37,12,557
0.00960,2.99250,-4.55000,0.00000,-0.01061,0.01318,-0.98698,2023,6,12,13,37,12,568
0.00970,2.87000,-4.60250,0.00000,-0.00830,0.01305,-0.98722,2023,6,12,13,37,12,579
0.00980,2.92250,-4.51500,0.00000,-0.01013,0.01635,-0.98857,2023,6,12,13,37,12,590
0.00990,3.04500,-4.49750,0.00000,-0.00988,0.01476,-0.98661,2023,6,12,13,37,12,601
0.01000,3.06250,-4.53250,0.00000,-0.00988,0.01366,-0.99015,2023,6,12,13,37,12,613
0.01010,2.99250,-4.74250,0.00000,-0.01074,0.01501,-0.98576,2023,6,12,13,37,12,624
0.01020,2.90500,-4.51500,0.00000,-0.01025,0.01452,-0.99320,2023,6,12,13,37,12,635
0.01030,2.73000,-4.48000,0.00000,-0.00793,0.01525,-0.99015,2023,6,12,13,37,12,646
0.01040,2.95750,-4.53250,0.00000,-0.00976,0.01379,-0.99015,2023,6,12,13,37,12,657
0.01050,2.90500,-4.65500,0.00000,-0.01049,0.01342,-0.98735,2023,6,12,13,37,12,668
0.01060,2.74750,-4.49750,0.00000,-0.00683,0.01354,-0.98857,2023,6,12,13,37,12,679
0.01070,2.80000,-4.44500,0.00000,-0.00988,0.01391,-0.99247,2023,6,12,13,37,12,690
0.01080,2.87000,-4.44500,0.00000,-0.01074,0.01391,-0.98722,2023,6,12,13,37,12,701
0.01090,2.94000,-4.65500,0.00000,-0.01013,0.01513,-0.98991,2023,6,12,13,37,12,713
0.01100,2.87000,-4.35750,0.00000,-0.00830,0.01501,-0.98661,2023,6,12,13,37,12,724
0.01110,2.97500,-4.58500,0.00000,-0.01159,0.01427,-0.99186,2023,6,12,13,37,12,735
0.01120,2.88750,-4.67250,0.00000,-0.00964,0.01183,-0.99076,2023,6,12,13,37,12,746
0.01130,2.78250,-4.53250,0.00000,-0.00915,0.01452,-0.98942,2023,6,12,13,37,12,757
0.01140,2.94000,-4.70750,0.00000,-0.00939,0.01549,-0.98930,2023,6,12,13,37,12,768
0.01150,2.83500,-4.77750,0.00000,-0.00756,0.01354,-0.99040,2023,6,12,13,37,12,779
0.01160,2.83500,-4.63750,0.00000,-0.01037,0.01379,-0.98930,2023,6,12,13,37,12,790
0.01170,2.83500,-4.49750,0.00000,-0.00964,0.01464,-0.98857,2023,6,12,13,37,12,801
0.01180,2.76500,-4.44500,0.00000,-0.00708,0.01305,-0.98710,2023,6,12,13,37,12,813
0.01190,2.78250,-4.51500,0.00000,-0.00988,0.01562,-0.99137,2023,6,12,13,37,12,824
0.01200,2.76500,-4.53250,0.00000,-0.01049,0.01305,-0.99137,2023,6,12,13,37,12,835
0.01210,2.88750,-4.42750,0.00000,-0.00903,0.01403,-0.98918,2023,6,12,13,37,12,846
0.01220,2.81750,-4.67250,0.00000,-0.01244,0.01427,-0.98832,2023,6,12,13,37,12,857
0.01230,2.81750,-4.55000,0.00000,-0.00988,0.01659,-0.98735,2023,6,12,13,37,12,868
0.01240,2.76500,-4.35750,0.00000,-0.00976,0.01513,-0.98796,2023,6,12,13,37,12,879
0.01250,2.95750,-4.63750,0.00000,-0.01013,0.01635,-0.98954,2023,6,12,13,37,12,890
0.01260,2.95750,-4.34000,0.00000,-0.01098,0.01525,-0.98796,2023,6,12,13,37,12,901
0.01270,2.85250,-4.41000,0.00000,-0.00939,0.01330,-0.98930,2023,6,12,13,37,12,913
0.01280,2.83500,-4.62000,0.00000,-0.00891,0.01293,-0.98735,2023,6,12,13,37,12,924
0.01290,3.01000,-4.60250,0.00000,-0.00647,0.01391,-0.98979,2023,6,12,13,37,12,935
0.01300,2.95750,-4.56750,0.00000,-0.01086,0.01586,-0.98600,2023,6,12,13,37,12,946
0.01310,2.87000,-4.48000,0.00000,-0.01025,0.01293,-0.98991,2023,6,12,13,37,12,957
0.01320,2.90500,-4.65500,0.00000,-0.00903,0.01366,-0.98613,2023,6,12,13,37,12,968
0.01330,2.85250,-4.48000,0.00000,-0.00939,0.01354,-0.98893,2023,6,12,13,37,13,9
0.01340,2.92250,-4.72500,0.00000,-0.00878,0.01391,-0.98613,2023,6,12,13,37,13,20
0.01350,2.97500,-4.60250,0.00000,-0.00903,0.01293,-0.98783,2023,6,12,13,37,13,31
0.01360,2.99250,-4.76000,0.00000,-0.00915,0.01659,-0.98698,2023,6,12,13,37,13,43
0.01370,2.92250,-4.62000,0.00000,-0.00915,0.01366,-0.98649,2023,6,12,13,37,13,54
0.01380,2.80000,-4.42750,0.00000,-0.00964,0.01501,-0.98735,2023,6,12,13,37,13,65
0.01390,2.97500,-4.67250,0.00000,-0.00964,0.01720,-0.98991,2023,6,12,13,37,13,76
0.01400,2.80000,-4.37500,0.00000,-0.01074,0.01403,-0.98771,2023,6,12,13,37,13,87
0.01410,2.67750,-4.51500,0.00000,-0.00915,0.01440,-0.98747,2023,6,12,13,37,13,98
0.01420,2.88750,-4.32250,0.00000,-0.00793,0.01476,-0.98735,2023,6,12,13,37,13,109
0.01430,2.97500,-4.74250,0.00000,-0.00781,0.01171,-0.98942,2023,6,12,13,37,13,120
0.01440,2.94000,-4.70750,0.00000,-0.01049,0.01281,-0.98808,2023,6,12,13,37,13,131
0.01450,3.08000,-4.63750,0.00000,-0.00878,0.01513,-0.99015,2023,6,12,13,37,13,143
0.01460,2.73000,-4.63750,0.00000,-0.00891,0.01403,-0.99259,2023,6,12,13,37,13,154
0.01470,3.04500,-4.48000,0.00000,-0.00866,0.01427,-0.98710,2023,6,12,13,37,13,165
0.01480,2.90500,-4.65500,0.00000,-0.01135,0.01427,-0.99027,2023,6,12,13,37,13,176
0.01490,2.66000,-4.69000,0.00000,-0.00781,0.01391,-0.99149,2023,6,12,13,37,13,187
0.01500,2.74750,-4.44500,0.00000,-0.00952,0.01537,-0.98722,2023,6,12,13,37,13,198
0.01510,2.87000,-4.49750,0.00000,-0.00854,0.01403,-0.99101,2023,6,12,13,37,13,209
0.01520,2.76500,-4.35750,0.00000,-0.00903,0.01488,-0.99015,2023,6,12,13,37,13,220
0.01530,3.04500,-4.48000,0.00000,-0.01171,0.01379,-0.98808,2023,6,12,13,37,13,231
0.01540,2.83500,-4.74250,0.00000,-0.00952,0.01293,-0.98844,2023,6,12,13,37,13,243
0.01550,2.95750,-4.63750,0.00000,-0.01025,0.01427,-0.98686,2023,6,12,13,37,13,254
0.01560,3.01000,-4.44500,0.00000,-0.00939,0.01659,-0.98881,2023,6,12,13,37,13,265
0.01570,2.74750,-4.49750,0.00000,-0.00927,0.01171,-0.98918,2023,6,12,13,37,13,276
0.01580,2.80000,-4.41000,0.00000,-0.00805,0.01391,-0.98625,2023,6,12,13,37,13,287
0.01590,2.71250,-4.74250,0.00000,-0.01037,0.01427,-0.98771,2023,6,12,13,37,13,298
0.01600,2.80000,-4.65500,0.00000,-0.00952,0.01110,-0.98918,2023,6,12,13,37,13,309
0.01610,2.92250,-4.55000,0.00000,-0.00988,0.01305,-0.98576,2023,6,12,13,37,13,320
0.01620,2.97500,-4.63750,0.00000,-0.00708,0.01415,-0.98869,2023,6,12,13,37,13,331
0.01630,2.73000,-4.46250,0.00000,-0.00891,0.01415,-0.98966,2023,6,12,13,37,13,343
0.01640,2.81750,-4.44500,0.00000,-0.01049,0.01257,-0.98771,2023,6,12,13,37,13,354
0.01650,2.83500,-4.21750,0.00000,-0.00915,0.01269,-0.98857,2023,6,12,13,37,13,365
0.01660,2.80000,-4.44500,0.00000,-0.00854,0.01440,-0.98771,2023,6,12,13,37,13,376
0.01670,2.74750,-4.44500,0.00000,-0.00988,0.01366,-0.98747,2023,6,12,13,37,13,387
0.01680,3.08000,-4.55000,0.00000,-0.00866,0.01318,-0.98759,2023,6,12,13,37,13,398
0.01690,2.78250,-4.44500,0.00000,-0.01037,0.01366,-0.98600,2023,6,12,13,37,13,409
0.01700,2.88750,-4.62000,0.00000,-0.00805,0.01549,-0.98466,2023,6,12,13,37,13,420
0.01710,2.94000,-4.44500,0.00000,-0.00927,0.01635,-0.98979,2023,6,12,13,37,13,431
0.01720,2.74750,-4.44500,0.00000,-0.00891,0.01488,-0.99162,2023,6,12,13,37,13,443
0.01730,2.80000,-4.58500,0.00000,-0.00915,0.01379,-0.99052,2023,6,12,13,37,13,454
0.01740,3.02750,-4.55000,0.00000,-0.00939,0.01379,-0.98820,2023,6,12,13,37,13,465
0.01750,3.02750,-4.49750,0.00000,-0.00939,0.01452,-0.98698,2023,6,12,13,37,13,476
0.01760,2.90500,-4.76000,0.00000,-0.00830,0.01330,-0.98588,2023,6,12,13,37,13,487
0.01770,3.09750,-4.56750,0.00000,-0.01061,0.01549,-0.98783,2023,6,12,13,37,13,498
0.01780,2.81750,-4.42750,0.00000,-0.01074,0.01305,-0.99064,2023,6,12,13,37,13,509
0.01790,2.83500,-4.42750,0.00000,-0.01013,0.01403,-0.98808,2023,6,12,13,37,13,520
0.01800,2.88750,-4.74250,0.00000,-0.00878,0.01537,-0.98820,2023,6,12,13,37,13,531
0.01810,3.01000,-4.48000,0.00000,-0.01074,0.01379,-0.98857,2023,6,12,13,37,13,543
0.01820,2.81750,-4.51500,0.00000,-0.00952,0.01525,-0.99015,2023,6,12,13,37,13,554
0.01830,2.80000,-4.55000,0.00000,-0.01013,0.01415,-0.98930,2023,6,12,13,37,13,565
0.01840,2.99250,-4.44500,0.00000,-0.00793,0.01452,-0.98979,2023,6,12,13,37,13,576
0.01850,2.92250,-4.58500,0.00000,-0.01013,0.01318,-0.98783,2023,6,12,13,37,13,587
0.01860,2.78250,-4.49750,0.00000,-0.00976,0.01208,-0.98869,2023,6,12,13,37,13,598
0.01870,2.97500,-4.60250,0.00000,-0.00793,0.01366,-0.98893,2023,6,12,13,37,13,609
0.01880,2.92250,-4.58500,0.00000,-0.00915,0.01562,-0.99125,2023,6,12,13,37,13,620
0.01890,3.04500,-4.53250,0.00000,-0.00720,0.01586,-0.99137,2023,6,12,13,37,13,631
0.01900,3.08000,-4.46250,0.00000,-0.01098,0.01488,-0.98796,2023,6,12,13,37,13,643
0.01910,2.92250,-4.53250,0.00000,-0.00952,0.01330,-0.98710,2023,6,12,13,37,13,654
0.01920,2.95750,-4.51500,0.00000,-0.00830,0.01415,-0.98844,2023,6,12,13,37,13,665
0.01930,2.87000,-4.48000,0.00000,-0.00756,0.01342,-0.98893,2023,6,12,13,37,13,676
0.01940,2.76500,-4.49750,0.00000,-0.00952,0.01501,-0.98783,2023,6,12,13,37,13,687
0.01950,2.87000,-4.56750,0.00000,-0.00976,0.01379,-0.99101,2023,6,12,13,37,13,698
0.01960,3.13250,-4.62000,0.00000,-0.00903,0.01562,-0.98661,2023,6,12,13,37,13,709
0.01970,3.04500,-4.62000,0.00000,-0.00927,0.01562,-0.98905,2023,6,12,13,37,13,720
0.01980,2.87000,-4.53250,0.00000,-0.00927,0.01415,-0.98869,2023,6,12,13,37,13,731
0.01990,2.74750,-4.49750,0.00000,-0.01000,0.01513,-0.98893,2023,6,12,13,37,13,743
0.02000,3.02750,-4.62000,0.00000,-0.00939,0.01427,-0.98881,2023,6,12,13,37,13,754
0.02010,2.74750,-4.67250,0.00000,-0.00830,0.01391,-0.98747,2023,6,12,13,37,13,765
0.02020,2.85250,-4.41000,0.00000,-0.01025,0.01330,-0.98722,2023,6,12,13,37,13,776
0.02030,3.04500,-4.77750,0.00000,-0.01074,0.01488,-0.98808,2023,6,12,13,37,13,787
0.02040,2.94000,-4.58500,0.00000,-0.00988,0.01391,-0.98966,2023,6,12,13,37,13,798
0.02050,3.01000,-4.63750,0.00000,-0.01098,0.01366,-0.98869,2023,6,12,13,37,13,809
0.02060,2.97500,-4.63750,0.00000,-0.01037,0.01635,-0.98918,2023,6,12,13,37,13,820
0.02070,2.95750,-4.32250,0.00000,-0.00756,0.01549,-0.98979,2023,6,12,13,37,13,831
0.02080,2.76500,-4.32250,0.00000,-0.00939,0.01476,-0.98942,2023,6,12,13,37,13,843
0.02090,3.01000,-4.65500,0.00000,-0.01025,0.01427,-0.98881,2023,6,12,13,37,13,854
0.02100,2.95750,-4.48000,0.00000,-0.01037,0.01537,-0.98979,2023,6,12,13,37,13,865
0.02110,2.81750,-4.69000,0.00000,-0.00927,0.01488,-0.99015,2023,6,12,13,37,13,876
0.02120,2.90500,-4.39250,0.00000,-0.00988,0.01513,-0.98869,2023,6,12,13,37,13,887
0.02130,2.78250,-4.49750,0.00000,-0.00817,0.01476,-0.98820,2023,6,12,13,37,13,898
0.02140,2.78250,-4.46250,0.00000,-0.00878,0.01598,-0.98893,2023,6,12,13,37,13,909
0.02150,2.90500,-4.56750,0.00000,-0.00878,0.01598,-0.99235,2023,6,12,13,37,13,920
0.02160,2.81750,-4.28750,0.00000,-0.00964,0.01501,-0.99271,2023,6,12,13,37,13,931
0.02170,2.94000,-4.63750,0.00000,-0.00964,0.01244,-0.99076,2023,6,12,13,37,13,943
0.02180,2.88750,-4.23500,0.00000,-0.01147,0.01574,-0.98954,2023,6,12,13,37,13,954
0.02190,2.83500,-4.41000,0.00000,-0.00939,0.01452,-0.98905,2023,6,12,13,37,13,965
0.02200,2.90500,-4.44500,0.00000,-0.00805,0.01330,-0.99235,2023,6,12,13,37,14,6
0.02210,3.01000,-4.60250,0.00000,-0.00976,0.01366,-0.98674,2023,6,12,13,37,14,17
0.02220,2.88750,-4.44500,0.00000,-0.00854,0.01525,-0.98698,2023,6,12,13,37,14,28
0.02230,3.04500,-4.51500,0.00000,-0.00903,0.01379,-0.98966,2023,6,12,13,37,14,39
0.02240,2.87000,-4.46250,0.00000,-0.00964,0.01305,-0.98869,2023,6,12,13,37,14,50
0.02250,2.94000,-4.39250,0.00000,-0.01000,0.01464,-0.99125,2023,6,12,13,37,14,61
0.02260,2.74750,-4.48000,0.00000,-0.01013,0.01318,-0.98905,2023,6,12,13,37,14,73
0.02270,2.87000,-4.49750,0.00000,-0.01122,0.01537,-0.98759,2023,6,12,13,37,14,84
0.02280,3.08000,-4.60250,0.00000,-0.01000,0.01549,-0.98979,2023,6,12,13,37,14,95
0.02290,2.83500,-4.51500,0.00000,-0.00756,0.01452,-0.98674,2023,6,12,13,37,14,106
0.02300,2.95750,-4.74250,0.00000,-0.01000,0.01183,-0.98844,2023,6,12,13,37,14,117
0.02310,2.87000,-4.46250,0.00000,-0.00805,0.01354,-0.98869,2023,6,12,13,37,14,128
0.02320,3.02750,-4.51500,0.00000,-0.00866,0.01379,-0.99076,2023,6,12,13,37,14,139
0.02330,3.08000,-4.62000,0.00000,-0.00866,0.01330,-0.98918,2023,6,12,13,37,14,150
0.02340,2.87000,-4.37500,0.00000,-0.00976,0.01330,-0.98918,2023,6,12,13,37,14,161
0.02350,3.08000,-4.76000,0.00000,-0.00976,0.01244,-0.99113,2023,6,12,13,37,14,173
0.02360,2.94000,-4.48000,0.00000,-0.00842,0.01501,-0.99149,2023,6,12,13,37,14,184
0.02370,2.95750,-4.46250,0.00000,-0.01086,0.01379,-0.98905,2023,6,12,13,37,14,195
0.02380,2.94000,-4.74250,0.00000,-0.00952,0.01379,-0.99040,2023,6,12,13,37,14,206
0.02390,2.71250,-4.69000,0.00000,-0.01098,0.01366,-0.98698,2023,6,12,13,37,14,217
0.02400,2.74750,-4.62000,0.00000,-0.01049,0.01574,-0.99101,2023,6,12,13,37,14,228
0.02410,2.95750,-4.32250,0.00000,-0.00939,0.01366,-0.99125,2023,6,12,13,37,14,239
0.02420,3.02750,-4.46250,0.00000,-0.01000,0.01403,-0.99149,2023,6,12,13,37,14,250
0.02430,2.92250,-4.56750,0.00000,-0.00830,0.01476,-0.99088,2023,6,12,13,37,14,261
0.02440,2.87000,-4.55000,0.00000,-0.00805,0.01354,-0.99003,2023,6,12,13,37,14,273
0.02450,2.87000,-4.55000,0.00000,-0.00744,0.01232,-0.99162,2023,6,12,13,37,14,284
0.02460,2.90500,-4.37500,0.00000,-0.00891,0.01476,-0.98857,2023,6,12,13,37,14,295
0.02470,2.97500,-4.62000,0.00000,-0.01098,0.01366,-0.99101,2023,6,12,13,37,14,306
0.02480,2.80000,-4.55000,0.00000,-0.01098,0.01671,-0.98905,2023,6,12,13,37,14,317
0.02490,2.62500,-4.72500,0.00000,-0.00915,0.01501,-0.99210,2023,6,12,13,37,14,328
0.02500,2.67750,-4.41000,0.00000,-0.00915,0.01452,-0.99064,2023,6,12,13,37,14,339
0.02510,2.90500,-4.56750,0.00000,-0.01061,0.01366,-0.99210,2023,6,12,13,37,14,350
0.02520,2.95750,-4.39250,0.00000,-0.00817,0.01452,-0.99027,2023,6,12,13,37,14,361
0.02530,2.78250,-4.53250,0.00000,-0.01122,0.01354,-0.98966,2023,6,12,13,37,14,373
0.02540,2.85250,-4.42750,0.00000,-0.01098,0.01598,-0.98918,2023,6,12,13,37,14,384
0.02550,2.87000,-4.44500,0.00000,-0.00964,0.01342,-0.99125,2023,6,12,13,37,14,395
0.02560,2.95750,-4.51500,0.00000,-0.00915,0.01513,-0.99015,2023,6,12,13,37,14,406
0.02570,2.88750,-4.49750,0.00000,-0.01061,0.01342,-0.99052,2023,6,12,13,37,14,417
0.02580,2.67750,-4.42750,0.00000,-0.01074,0.01464,-0.98979,2023,6,12,13,37,14,428
0.02590,2.80000,-4.48000,0.00000,-0.01220,0.01379,-0.98991,2023,6,12,13,37,14,439
0.02600,2.80000,-4.53250,0.00000,-0.01061,0.01257,-0.98930,2023,6,12,13,37,14,450
0.02610,2.90500,-4.56750,0.00000,-0.00830,0.01476,-0.99064,2023,6,12,13,37,14,461
0.02620,3.08000,-4.65500,0.00000,-0.00830,0.01305,-0.99064,2023,6,12,13,37,14,473
0.02630,2.78250,-4.37500,0.00000,-0.00817,0.01330,-0.98979,2023,6,12,13,37,14,484
0.02640,2.78250,-4.46250,0.00000,-0.00976,0.01305,-0.98564,2023,6,12,13,37,14,495
0.02650,2.87000,-4.48000,0.00000,-0.00976,0.01610,-0.99223,2023,6,12,13,37,14,506
0.02660,2.85250,-4.49750,0.00000,-0.00891,0.01464,-0.99064,2023,6,12,13,37,14,517
0.02670,2.94000,-4.44500,0.00000,-0.01061,0.01562,-0.98783,2023,6,12,13,37,14,528
0.02680,3.04500,-4.65500,0.00000,-0.00915,0.01403,-0.98808,2023,6,12,13,37,14,539
0.02690,3.08000,-4.58500,0.00000,-0.01098,0.01501,-0.98674,2023,6,12,13,37,14,550
0.02700,2.97500,-4.72500,0.00000,-0.01135,0.01464,-0.99296,2023,6,12,13,37,14,561
0.02710,2.92250,-4.46250,0.00000,-0.01037,0.01427,-0.99125,2023,6,12,13,37,14,573
0.02720,2.87000,-4.65500,0.00000,-0.00964,0.01586,-0.98857,2023,6,12,13,37,14,584
0.02730,2.88750,-4.74250,0.00000,-0.01037,0.01586,-0.98942,2023,6,12,13,37,14,595
0.02740,2.97500,-4.53250,0.00000,-0.00988,0.01196,-0.98747,2023,6,12,13,37,14,606
0.02750,2.94000,-4.39250,0.00000,-0.00866,0.01476,-0.99064,2023,6,12,13,37,14,617
0.02760,2.66000,-4.37500,0.00000,-0.01074,0.01318,-0.99027,2023,6,12,13,37,14,628
0.02770,2.74750,-4.48000,0.00000,-0.00988,0.01244,-0.98930,2023,6,12,13,37,14,639
0.02780,2.95750,-4.63750,0.00000,-0.01208,0.01354,-0.99137,2023,6,12,13,37,14,650
0.02790,2.80000,-4.55000,0.00000,-0.01098,0.01391,-0.99101,2023,6,12,13,37,14,661
0.02800,2.92250,-4.55000,0.00000,-0.00976,0.01501,-0.98991,2023,6,12,13,37,14,673
0.02810,2.99250,-4.56750,0.00000,-0.00952,0.01464,-0.99040,2023,6,12,13,37,14,684
0.02820,2.97500,-4.48000,0.00000,-0.01013,0.01379,-0.99040,2023,6,12,13,37,14,695
0.02830,2.85250,-4.62000,0.00000,-0.00891,0.01269,-0.98893,2023,6,12,13,37,14,706
0.02840,2.73000,-4.51500,0.00000,-0.00915,0.01379,-0.99101,2023,6,12,13,37,14,717
0.02850,2.99250,-4.55000,0.00000,-0.01122,0.01501,-0.98881,2023,6,12,13,37,14,728
0.02860,2.80000,-4.34000,0.00000,-0.01000,0.01501,-0.99259,2023,6,12,13,37,14,739
0.02870,3.01000,-4.48000,0.00000,-0.01110,0.01427,-0.99174,2023,6,12,13,37,14,750
0.02880,3.06250,-4.56750,0.00000,-0.01037,0.01452,-0.98930,2023,6,12,13,37,14,761
0.02890,2.92250,-4.69000,0.00000,-0.01000,0.01501,-0.98918,2023,6,12,13,37,14,773
0.02900,2.85250,-4.41000,0.00000,-0.00964,0.01293,-0.99052,2023,6,12,13,37,14,784
0.02910,2.83500,-4.55000,0.00000,-0.00988,0.01537,-0.99174,2023,6,12,13,37,14,795
0.02920,2.95750,-4.48000,0.00000,-0.00842,0.01183,-0.98930,2023,6,12,13,37,14,806
0.02930,3.04500,-4.49750,0.00000,-0.00976,0.01391,-0.98844,2023,6,12,13,37,14,817
0.02940,2.97500,-4.63750,0.00000,-0.01049,0.01342,-0.99284,2023,6,12,13,37,14,828
0.02950,2.78250,-4.77750,0.00000,-0.00964,0.01562,-0.99027,2023,6,12,13,37,14,839
0.02960,2.97500,-4.51500,0.00000,-0.00976,0.01537,-0.98918,2023,6,12,13,37,14,850
0.02970,2.88750,-4.49750,0.00000,-0.00952,0.01415,-0.99101,2023,6,12,13,37,14,861
0.02980,2.85250,-4.53250,0.00000,-0.01086,0.01391,-0.98869,2023,6,12,13,37,14,873
0.02990,2.92250,-4.49750,0.00000,-0.01013,0.01281,-0.99040,2023,6,12,13,37,14,884
0.03000,2.83500,-4.65500,0.00000,-0.00878,0.01476,-0.98735,2023,6,12,13,37,14,895
0.03010,2.94000,-4.39250,0.00000,-0.01037,0.01403,-0.98918,2023,6,12,13,37,14,906
0.03020,3.18500,-4.49750,0.00000,-0.01061,0.01403,-0.99271,2023,6,12,13,37,14,917
0.03030,2.87000,-4.44500,0.00000,-0.01086,0.01391,-0.98844,2023,6,12,13,37,14,928
0.03040,3.01000,-4.58500,0.00000,-0.00915,0.01354,-0.98942,2023,6,12,13,37,14,939
0.03050,2.92250,-4.67250,0.00000,-0.00952,0.01562,-0.99015,2023,6,12,13,37,14,950
0.03060,2.74750,-4.56750,0.00000,-0.00976,0.01366,-0.98979,2023,6,12,13,37,14,961
0.03070,2.83500,-4.51500,0.00000,-0.00842,0.01330,-0.99015,2023,6,12,13,37,14,973
0.03080,2.94000,-4.53250,0.00000,-0.00927,0.01513,-0.98759,2023,6,12,13,37,14,984
0.03090,2.90500,-4.56750,0.00000,-0.00988,0.01427,-0.98954,2023,6,12,13,37,15,5
0.03100,2.78250,-4.41000,0.00000,-0.01171,0.01513,-0.98747,2023,6,12,13,37,15,16
0.03110,2.94000,-4.70750,0.00000,-0.01000,0.01610,-0.98808,2023,6,12,13,37,15,27
0.03120,2.99250,-4.69000,0.00000,-0.01049,0.01342,-0.99027,2023,6,12,13,37,15,38
0.03130,3.06250,-4.58500,0.00000,-0.00952,0.01318,-0.98820,2023,6,12,13,37,15,49
0.03140,2.74750,-4.65500,0.00000,-0.01159,0.01598,-0.98869,2023,6,12,13,37,15,60
0.03150,2.87000,-4.55000,0.00000,-0.00927,0.01403,-0.99101,2023,6,12,13,37,15,71
0.03160,2.74750,-4.39250,0.00000,-0.00988,0.01427,-0.98991,2023,6,12,13,37,15,83
0.03170,2.88750,-4.44500,0.00000,-0.00903,0.01647,-0.98954,2023,6,12,13,37,15,94
0.03180,2.88750,-4.49750,0.00000,-0.00976,0.01330,-0.99040,2023,6,12,13,37,15,105
0.03190,2.76500,-4.70750,0.00000,-0.00976,0.01220,-0.98942,2023,6,12,13,37,15,116
0.03200,2.92250,-4.58500,0.00000,-0.00964,0.01513,-0.98832,2023,6,12,13,37,15,127
0.03210,2.87000,-4.35750,0.00000,-0.01110,0.01452,-0.99015,2023,6,12,13,37,15,138
0.03220,2.99250,-4.53250,0.00000,-0.01196,0.01574,-0.98942,2023,6,12,13,37,15,149
0.03230,2.87000,-4.44500,0.00000,-0.00866,0.01586,-0.99064,2023,6,12,13,37,15,160
0.03240,2.90500,-4.44500,0.00000,-0.01013,0.01293,-0.99137,2023,6,12,13,37,15,171
0.03250,2.94000,-4.48000,0.00000,-0.00817,0.01452,-0.98796,2023,6,12,13,37,15,183
0.03260,3.01000,-4.51500,0.00000,-0.00988,0.01354,-0.99149,2023,6,12,13,37,15,194
0.03270,3.18500,-4.42750,0.00000,-0.00988,0.01476,-0.99015,2023,6,12,13,37,15,205
0.03280,2.81750,-4.62000,0.00000,-0.00988,0.01415,-0.99113,2023,6,12,13,37,15,216
0.03290,2.81750,-4.44500,0.00000,-0.00842,0.01745,-0.99162,2023,6,12,13,37,15,227
0.03300,2.88750,-4.67250,0.00000,-0.00915,0.01293,-0.99015,2023,6,12,13,37,15,238
0.03310,2.85250,-4.76000,0.00000,-0.01049,0.01647,-0.98722,2023,6,12,13,37,15,249
0.03320,2.88750,-4.41000,0.00000,-0.00976,0.01525,-0.98613,2023,6,12,13,37,15,260
0.03330,2.76500,-4.51500,0.00000,-0.01061,0.01586,-0.99210,2023,6,12,13,37,15,271
0.03340,2.92250,-4.63750,0.00000,-0.00976,0.01366,-0.99027,2023,6,12,13,37,15,283
0.03350,2.90500,-4.48000,0.00000,-0.00854,0.01342,-0.98991,2023,6,12,13,37,15,294
0.03360,2.97500,-4.84750,0.00000,-0.00866,0.01440,-0.98649,2023,6,12,13,37,15,305
0.03370,2.94000,-4.46250,0.00000,-0.00988,0.01379,-0.99186,2023,6,12,13,37,15,316
0.03380,2.83500,-4.65500,0.00000,-0.01000,0.01671,-0.98930,2023,6,12,13,37,15,327
0.03390,2.88750,-4.39250,0.00000,-0.00817,0.01208,-0.99088,2023,6,12,13,37,15,338
0.03400,2.76500,-4.46250,0.00000,-0.01000,0.01574,-0.99076,2023,6,12,13,37,15,349
0.03410,2.94000,-4.48000,0.00000,-0.01049,0.01562,-0.98881,2023,6,12,13,37,15,360
0.03420,2.85250,-4.58500,0.00000,-0.00842,0.01440,-0.99125,2023,6,12,13,37,15,371
0.03430,2.85250,-4.62000,0.00000,-0.00939,0.01403,-0.98808,2023,6,12,13,37,15,383
0.03440,2.95750,-4.58500,0.00000,-0.00927,0.01257,-0.98857,2023,6,12,13,37,15,394
0.03450,2.88750,-4.34000,0.00000,-0.00952,0.01525,-0.98905,2023,6,12,13,37,15,405
0.03460,2.94000,-4.58500,0.00000,-0.01013,0.01244,-0.98881,2023,6,12,13,37,15,416
0.03470,3.04500,-4.51500,0.00000,-0.00976,0.01586,-0.98844,2023,6,12,13,37,15,427
0.03480,2.95750,-4.51500,0.00000,-0.00964,0.01440,-0.99003,2023,6,12,13,37,15,438
0.03490,2.99250,-4.42750,0.00000,-0.00903,0.01671,-0.98820,2023,6,12,13,37,15,449
0.03500,2.69500,-4.42750,0.00000,-0.01049,0.01305,-0.99027,2023,6,12,13,37,15,460
0.03510,2.83500,-4.48000,0.00000,-0.00927,0.01440,-0.99076,2023,6,12,13,37,15,471
0.03520,2.88750,-4.32250,0.00000,-0.01147,0.01562,-0.99381,2023,6,12,13,37,15,483
0.03530,2.92250,-4.60250,0.00000,-0.00854,0.01440,-0.98893,2023,6,12,13,37,15,494
0.03540,2.99250,-4.55000,0.00000,-0.01049,0.01391,-0.99076,2023,6,12,13,37,15,505
0.03550,2.69500,-4.56750,0.00000,-0.00903,0.01330,-0.99149,2023,6,12,13,37,15,516
0.03560,2.94000,-4.58500,0.00000,-0.00830,0.01488,-0.98942,2023,6,12,13,37,15,527
0.03570,3.02750,-4.41000,0.00000,-0.00964,0.01135,-0.99088,2023,6,12,13,37,15,538
0.03580,2.90500,-4.62000,0.00000,-0.00964,0.01342,-0.99259,2023,6,12,13,37,15,549
0.03590,2.94000,-4.62000,0.00000,-0.00732,0.01366,-0.98759,2023,6,12,13,37,15,560
0.03600,2.71250,-4.60250,0.00000,-0.00939,0.01318,-0.99027,2023,6,12,13,37,15,571
0.03610,3.08000,-4.46250,0.00000,-0.01013,0.01549,-0.98600,2023,6,12,13,37,15,583
0.03620,2.92250,-4.49750,0.00000,-0.00976,0.01354,-0.99076,2023,6,12,13,37,15,594
0.03630,2.99250,-4.70750,0.00000,-0.01074,0.01330,-0.98966,2023,6,12,13,37,15,605
0.03640,2.88750,-4.48000,0.00000,-0.01171,0.01427,-0.99406,2023,6,12,13,37,15,616
0.03650,2.97500,-4.58500,0.00000,-0.01037,0.01464,-0.98979,2023,6,12,13,37,15,627
0.03660,2.88750,-4.74250,0.00000,-0.00952,0.01220,-0.99064,2023,6,12,13,37,15,638
0.03670,2.95750,-4.58500,0.00000,-0.01000,0.01403,-0.98857,2023,6,12,13,37,15,649
0.03680,3.02750,-4.53250,0.00000,-0.00939,0.01476,-0.98759,2023,6,12,13,37,15,660
0.03690,2.87000,-4.48000,0.00000,-0.00817,0.01354,-0.98869,2023,6,12,13,37,15,671
0.03700,3.06250,-4.65500,0.00000,-0.01061,0.01366,-0.98942,2023,6,12,13,37,15,683
0.03710,3.02750,-4.63750,0.00000,-0.00866,0.01659,-0.98954,2023,6,12,13,37,15,694
0.03720,2.95750,-4.48000,0.00000,-0.01037,0.01549,-0.98857,2023,6,12,13,37,15,705
0.03730,2.88750,-4.42750,0.00000,-0.00878,0.01330,-0.98893,2023,6,12,13,37,15,716
0.03740,2.71250,-4.37500,0.00000,-0.01025,0.01525,-0.99040,2023,6,12,13,37,15,727
0.03750,2.81750,-4.49750,0.00000,-0.00976,0.01342,-0.98625,2023,6,12,13,37,15,738
0.03760,2.87000,-4.62000,0.00000,-0.00915,0.01476,-0.98661,2023,6,12,13,37,15,749
0.03770,3.06250,-4.63750,0.00000,-0.01074,0.01208,-0.98942,2023,6,12,13,37,15,760
0.03780,2.87000,-4.51500,0.00000,-0.00903,0.01391,-0.98918,2023,6,12,13,37,15,771
0.03790,2.74750,-4.49750,0.00000,-0.00976,0.01391,-0.98930,2023,6,12,13,37,15,783
0.03800,2.95750,-4.58500,0.00000,-0.00793,0.01293,-0.98832,2023,6,12,13,37,15,794
0.03810,2.87000,-4.39250,0.00000,-0.00915,0.01562,-0.98710,2023,6,12,13,37,15,805
0.03820,2.90500,-4.58500,0.00000,-0.01074,0.01330,-0.98881,2023,6,12,13,37,15,816
0.03830,2.73000,-4.42750,0.00000,-0.00866,0.01452,-0.98979,2023,6,12,13,37,15,827
0.03840,2.66000,-4.48000,0.00000,-0.00854,0.01476,-0.98710,2023,6,12,13,37,15,838
0.03850,2.94000,-4.69000,0.00000,-0.00842,0.01342,-0.99088,2023,6,12,13,37,15,849
0.03860,2.88750,-4.65500,0.00000,-0.00830,0.01281,-0.98869,2023,6,12,13,37,15,860
0.03870,2.88750,-4.55000,0.00000,-0.00915,0.01513,-0.98576,2023,6,12,13,37,15,871
0.03880,2.95750,-4.70750,0.00000,-0.00939,0.01501,-0.99125,2023,6,12,13,37,15,883
0.03890,3.06250,-4.65500,0.00000,-0.00915,0.01525,-0.98991,2023,6,12,13,37,15,894
0.03900,2.87000,-4.49750,0.00000,-0.00964,0.01562,-0.98771,2023,6,12,13,37,15,905
0.03910,2.83500,-4.46250,0.00000,-0.00878,0.01330,-0.98747,2023,6,12,13,37,15,916
0.03920,2.87000,-4.56750,0.00000,-0.01013,0.01403,-0.99040,2023,6,12,13,37,15,927
0.03930,2.83500,-4.58500,0.00000,-0.00915,0.01513,-0.98979,2023,6,12,13,37,15,938
0.03940,2.88750,-4.60250,0.00000,-0.01013,0.01513,-0.99040,2023,6,12,13,37,15,949
0.03950,2.87000,-4.70750,0.00000,-0.01000,0.01562,-0.98844,2023,6,12,13,37,15,960
0.03960,2.85250,-4.53250,0.00000,-0.00952,0.01354,-0.98735,2023,6,12,13,37,16,1
0.03970,2.92250,-4.37500,0.00000,-0.01013,0.01525,-0.98820,2023,6,12,13,37,16,13
0.03980,2.87000,-4.76000,0.00000,-0.01061,0.01586,-0.99149,2023,6,12,13,37,16,24
0.03990,2.95750,-4.65500,0.00000,-0.00891,0.01464,-0.98771,2023,6,12,13,37,16,35
0.04000,2.88750,-4.41000,0.00000,-0.00915,0.01635,-0.98991,2023,6,12,13,37,16,46
0.04010,2.87000,-4.70750,0.00000,-0.01330,0.01305,-0.98735,2023,6,12,13,37,16,57
0.04020,2.92250,-4.39250,0.00000,-0.01110,0.01342,-0.98905,2023,6,12,13,37,16,68
0.04030,2.92250,-4.46250,0.00000,-0.00964,0.01464,-0.98857,2023,6,12,13,37,16,79
0.04040,2.85250,-4.55000,0.00000,-0.00939,0.01415,-0.98918,2023,6,12,13,37,16,90
0.04050,2.80000,-4.53250,0.00000,-0.01037,0.01415,-0.98905,2023,6,12,13,37,16,101
0.04060,2.97500,-4.58500,0.00000,-0.00952,0.01574,-0.98759,2023,6,12,13,37,16,113
0.04070,3.09750,-4.72500,0.00000,-0.00732,0.01244,-0.99235,2023,6,12,13,37,16,124
0.04080,2.88750,-4.46250,0.00000,-0.00988,0.01476,-0.98430,2023,6,12,13,37,16,135
0.04090,3.08000,-4.56750,0.00000,-0.01074,0.01415,-0.99088,2023,6,12,13,37,16,146
0.04100,2.90500,-4.63750,0.00000,-0.00793,0.01623,-0.98710,2023,6,12,13,37,16,157
0.04110,3.01000,-4.58500,0.00000,-0.01147,0.01379,-0.98796,2023,6,12,13,37,16,168
0.04120,3.06250,-4.55000,0.00000,-0.01098,0.01366,-0.99040,2023,6,12,13,37,16,179
0.04130,2.85250,-4.35750,0.00000,-0.01086,0.01305,-0.98735,2023,6,12,13,37,16,190
0.04140,3.18500,-4.60250,0.00000,-0.01013,0.01330,-0.98771,2023,6,12,13,37,16,201
0.04150,3.02750,-4.76000,0.00000,-0.01208,0.01415,-0.98820,2023,6,12,13,37,16,213
0.04160,2.90500,-4.42750,0.00000,-0.00793,0.01269,-0.98515,2023,6,12,13,37,16,224
0.04170,2.90500,-4.39250,0.00000,-0.00964,0.01501,-0.98832,2023,6,12,13,37,16,235
0.04180,2.90500,-4.51500,0.00000,-0.00891,0.01476,-0.98966,2023,6,12,13,37,16,246
0.04190,2.71250,-4.41000,0.00000,-0.00939,0.01537,-0.98954,2023,6,12,13,37,16,257
0.04200,2.87000,-4.65500,0.00000,-0.01159,0.01366,-0.98881,2023,6,12,13,37,16,268
0.04210,2.95750,-4.63750,0.00000,-0.01086,0.01427,-0.98881,2023,6,12,13,37,16,279
0.04220,2.80000,-4.25250,0.00000,-0.00793,0.01574,-0.98686,2023,6,12,13,37,16,290
0.04230,2.85250,-4.60250,0.00000,-0.01147,0.01391,-0.98966,2023,6,12,13,37,16,301
0.04240,3.06250,-4.63750,0.00000,-0.00891,0.01513,-0.98613,2023,6,12,13,37,16,313
0.04250,2.81750,-4.41000,0.00000,-0.01208,0.01366,-0.98783,2023,6,12,13,37,16,324
0.04260,2.92250,-4.41000,0.00000,-0.01159,0.01488,-0.98820,2023,6,12,13,37,16,335
0.04270,2.80000,-4.53250,0.00000,-0.00927,0.01379,-0.98918,2023,6,12,13,37,16,346
0.04280,2.92250,-4.41000,0.00000,-0.01037,0.01623,-0.98881,2023,6,12,13,37,16,357
0.04290,3.02750,-4.51500,0.00000,-0.00988,0.01501,-0.98832,2023,6,12,13,37,16,368
0.04300,2.90500,-4.63750,0.00000,-0.01013,0.01354,-0.98710,2023,6,12,13,37,16,379
0.04310,2.80000,-4.74250,0.00000,-0.01049,0.01427,-0.98771,2023,6,12,13,37,16,390
0.04320,3.06250,-4.60250,0.00000,-0.01147,0.01464,-0.98747,2023,6,12,13,37,16,401
0.04330,2.62500,-4.62000,0.00000,-0.01013,0.01391,-0.98783,2023,6,12,13,37,16,413
0.04340,3.01000,-4.32250,0.00000,-0.01074,0.01488,-0.98625,2023,6,12,13,37,16,424
0.04350,2.90500,-4.63750,0.00000,-0.00866,0.01391,-0.99125,2023,6,12,13,37,16,435
0.04360,2.74750,-4.48000,0.00000,-0.01049,0.01476,-0.98881,2023,6,12,13,37,16,446
0.04370,2.81750,-4.67250,0.00000,-0.00964,0.01562,-0.99088,2023,6,12,13,37,16,457
0.04380,2.94000,-4.51500,0.00000,-0.01013,0.01391,-0.99162,2023,6,12,13,37,16,468
0.04390,2.87000,-4.51500,0.00000,-0.00939,0.01525,-0.99235,2023,6,12,13,37,16,479
0.04400,2.74750,-4.60250,0.00000,-0.00964,0.01513,-0.98796,2023,6,12,13,37,16,490
0.04410,2.90500,-4.58500,0.00000,-0.01049,0.01513,-0.99101,2023,6,12,13,37,16,501
0.04420,2.87000,-4.72500,0.00000,-0.00891,0.01549,-0.98954,2023,6,12,13,37,16,513
0.04430,2.92250,-4.48000,0.00000,-0.00976,0.01427,-0.98918,2023,6,12,13,37,16,524
0.04440,2.76500,-4.60250,0.00000,-0.01013,0.01244,-0.98857,2023,6,12,13,37,16,535
0.04450,2.97500,-4.63750,0.00000,-0.00891,0.01244,-0.98735,2023,6,12,13,37,16,546
0.04460,2.80000,-4.46250,0.00000,-0.01013,0.01305,-0.98844,2023,6,12,13,37,16,557
0.04470,2.81750,-4.65500,0.00000,-0.01220,0.01415,-0.98832,2023,6,12,13,37,16,568
0.04480,2.95750,-4.55000,0.00000,-0.00927,0.01366,-0.98783,2023,6,12,13,37,16,579
0.04490,2.67750,-4.60250,0.00000,-0.00988,0.01513,-0.98722,2023,6,12,13,37,16,590
0.04500,2.97500,-4.46250,0.00000,-0.01025,0.01366,-0.98832,2023,6,12,13,37,16,601
0.04510,2.73000,-4.35750,0.00000,-0.01000,0.01476,-0.98954,2023,6,12,13,37,16,613
0.04520,2.92250,-4.55000,0.00000,-0.01025,0.01318,-0.99003,2023,6,12,13,37,16,624
0.04530,2.95750,-4.53250,0.00000,-0.00817,0.01403,-0.98771,2023,6,12,13,37,16,635
0.04540,2.90500,-4.56750,0.00000,-0.00878,0.01342,-0.98759,2023,6,12,13,37,16,646
0.04550,2.94000,-4.58500,0.00000,-0.01122,0.01488,-0.99076,2023,6,12,13,37,16,657
0.04560,2.81750,-4.49750,0.00000,-0.00927,0.01610,-0.99003,2023,6,12,13,37,16,668
0.04570,2.76500,-4.55000,0.00000,-0.00854,0.01610,-0.98820,2023,6,12,13,37,16,679
0.04580,2.92250,-4.60250,0.00000,-0.00781,0.01440,-0.98966,2023,6,12,13,37,16,690
0.04590,3.02750,-4.84750,0.00000,-0.00708,0.01513,-0.98905,2023,6,12,13,37,16,701
0.04600,2.97500,-4.35750,0.00000,-0.01049,0.01391,-0.99076,2023,6,12,13,37,16,713
0.04610,2.92250,-4.65500,0.00000,-0.00891,0.01415,-0.98771,2023,6,12,13,37,16,724
0.04620,2.88750,-4.35750,0.00000,-0.00854,0.01488,-0.99003,2023,6,12,13,37,16,735
0.04630,2.73000,-4.48000,0.00000,-0.00854,0.01415,-0.98722,2023,6,12,13,37,16,746
0.04640,2.71250,-4.25250,0.00000,-0.00854,0.01488,-0.99003,2023,6,12,13,37,16,757
0.04650,2.94000,-4.63750,0.00000,-0.00976,0.01501,-0.98857,2023,6,12,13,37,16,768
0.04660,2.80000,-4.44500,0.00000,-0.00866,0.01354,-0.98637,2023,6,12,13,37,16,779
0.04670,2.99250,-4.41000,0.00000,-0.00915,0.01403,-0.98857,2023,6,12,13,37,16,790
0.04680,2.87000,-4.60250,0.00000,-0.00915,0.01562,-0.98649,2023,6,12,13,37,16,801
0.04690,2.81750,-4.49750,0.00000,-0.00756,0.01257,-0.98722,2023,6,12,13,37,16,813
0.04700,2.90500,-4.44500,0.00000,-0.01159,0.01476,-0.99198,2023,6,12,13,37,16,824
0.04710,3.04500,-4.48000,0.00000,-0.00756,0.01415,-0.98954,2023,6,12,13,37,16,835
0.04720,2.76500,-4.53250,0.00000,-0.01049,0.01342,-0.98893,2023,6,12,13,37,16,846
0.04730,2.85250,-4.44500,0.00000,-0.00769,0.01208,-0.98991,2023,6,12,13,37,16,857
0.04740,2.83500,-4.53250,0.00000,-0.00842,0.01525,-0.98747,2023,6,12,13,37,16,868
0.04750,2.69500,-4.32250,0.00000,-0.00976,0.01318,-0.99003,2023,6,12,13,37,16,879
0.04760,2.85250,-4.60250,0.00000,-0.00830,0.01427,-0.98783,2023,6,12,13,37,16,890
0.04770,2.90500,-4.70750,0.00000,-0.01086,0.01391,-0.98979,2023,6,12,13,37,16,901
0.04780,2.87000,-4.69000,0.00000,-0.01025,0.01464,-0.99040,2023,6,12,13,37,16,913
0.04790,2.76500,-4.44500,0.00000,-0.00927,0.01574,-0.99113,2023,6,12,13,37,16,924
0.04800,2.71250,-4.51500,0.00000,-0.01013,0.01220,-0.98966,2023,6,12,13,37,16,935
0.04810,2.78250,-4.76000,0.00000,-0.00854,0.01476,-0.98820,2023,6,12,13,37,16,946
0.04820,2.99250,-4.44500,0.00000,-0.00915,0.01598,-0.98808,2023,6,12,13,37,16,957
0.04830,3.13250,-4.63750,0.00000,-0.00939,0.01427,-0.98735,2023,6,12,13,37,17,8
0.04840,2.92250,-4.60250,0.00000,-0.00744,0.01476,-0.99125,2023,6,12,13,37,17,19
0.04850,2.90500,-4.65500,0.00000,-0.01135,0.01305,-0.98844,2023,6,12,13,37,17,30
0.04860,2.95750,-4.49750,0.00000,-0.00952,0.01379,-0.98930,2023,6,12,13,37,17,41
0.04870,3.01000,-4.62000,0.00000,-0.01098,0.01379,-0.99271,2023,6,12,13,37,17,53
0.04880,2.90500,-4.53250,0.00000,-0.01086,0.01440,-0.98832,2023,6,12,13,37,17,64
0.04890,2.94000,-4.72500,0.00000,-0.00939,0.01732,-0.99076,2023,6,12,13,37,17,75
0.04900,2.94000,-4.74250,0.00000,-0.01000,0.01354,-0.99235,2023,6,12,13,37,17,86
0.04910,2.90500,-4.62000,0.00000,-0.01147,0.01513,-0.98954,2023,6,12,13,37,17,97
0.04920,3.02750,-4.44500,0.00000,-0.00805,0.01452,-0.99247,2023,6,12,13,37,17,108
0.04930,2.88750,-4.63750,0.00000,-0.00854,0.01440,-0.98783,2023,6,12,13,37,17,119
0.04940,2.85250,-4.69000,0.00000,-0.00854,0.01537,-0.98905,2023,6,12,13,37,17,130
0.04950,2.73000,-4.37500,0.00000,-0.01147,0.01488,-0.99247,2023,6,12,13,37,17,141
0.04960,2.87000,-4.56750,0.00000,-0.01074,0.01464,-0.99064,2023,6,12,13,37,17,153
0.04970,2.90500,-4.69000,0.00000,-0.00891,0.01452,-0.98881,2023,6,12,13,37,17,164
0.04980,2.80000,-4.56750,0.00000,-0.00952,0.01232,-0.99076,2023,6,12,13,37,17,175
0.04990,2.80000,-4.42750,0.00000,-0.00939,0.01537,-0.99088,2023,6,12,13,37,17,186
0.05000,2.88750,-4.56750,0.00000,-0.00976,0.01598,-0.99174,2023,6,12,13,37,17,197
0.05010,2.88750,-4.35750,0.00000,-0.01025,0.01488,-0.99076,2023,6,12,13,37,17,208
0.05020,3.13250,-4.62000,0.00000,-0.00854,0.01501,-0.98857,2023,6,12,13,37,17,219
0.05030,3.01000,-4.70750,0.00000,-0.00915,0.01318,-0.99088,2023,6,12,13,37,17,230
0.05040,2.80000,-4.58500,0.00000,-0.01013,0.01366,-0.98722,2023,6,12,13,37,17,241
0.05050,2.95750,-4.63750,0.00000,-0.00988,0.01440,-0.98649,2023,6,12,13,37,17,253
0.05060,2.90500,-4.69000,0.00000,-0.01049,0.01318,-0.99064,2023,6,12,13,37,17,264
0.05070,2.87000,-4.51500,0.00000,-0.00830,0.01379,-0.99027,2023,6,12,13,37,17,275
0.05080,2.73000,-4.46250,0.00000,-0.00976,0.01305,-0.98905,2023,6,12,13,37,17,286
0.05090,2.83500,-4.35750,0.00000,-0.00817,0.01537,-0.98942,2023,6,12,13,37,17,297
0.05100,2.81750,-4.39250,0.00000,-0.00988,0.01208,-0.99223,2023,6,12,13,37,17,308
0.05110,2.74750,-4.49750,0.00000,-0.00817,0.01525,-0.98747,2023,6,12,13,37,17,319
0.05120,3.02750,-4.46250,0.00000,-0.00842,0.01391,-0.99076,2023,6,12,13,37,17,330
0.05130,2.76500,-4.39250,0.00000,-0.00610,0.01574,-0.98942,2023,6,12,13,37,17,341
0.05140,2.97500,-4.69000,0.00000,-0.00915,0.01635,-0.99076,2023,6,12,13,37,17,353
0.05150,2.92250,-4.63750,0.00000,-0.00817,0.01366,-0.98759,2023,6,12,13,37,17,364
0.05160,2.85250,-4.55000,0.00000,-0.01122,0.01464,-0.98844,2023,6,12,13,37,17,375
0.05170,2.74750,-4.35750,0.00000,-0.00915,0.01623,-0.98857,2023,6,12,13,37,17,386
0.05180,2.90500,-4.48000,0.00000,-0.01147,0.01220,-0.98869,2023,6,12,13,37,17,397
0.05190,2.88750,-4.60250,0.00000,-0.01049,0.01415,-0.98991,2023,6,12,13,37,17,408
0.05200,3.01000,-4.35750,0.00000,-0.00842,0.01391,-0.98930,2023,6,12,13,37,17,419
0.05210,2.94000,-4.49750,0.00000,-0.00952,0.01537,-0.99235,2023,6,12,13,37,17,430
0.05220,2.90500,-4.62000,0.00000,-0.00903,0.01549,-0.99076,2023,6,12,13,37,17,441
0.05230,2.85250,-4.56750,0.00000,-0.01037,0.01281,-0.98954,2023,6,12,13,37,17,453
0.05240,2.78250,-4.41000,0.00000,-0.00952,0.01342,-0.98869,2023,6,12,13,37,17,464
0.05250,2.99250,-4.76000,0.00000,-0.00842,0.01574,-0.98905,2023,6,12,13,37,17,475
0.05260,2.78250,-4.44500,0.00000,-0.01208,0.01452,-0.98808,2023,6,12,13,37,17,486
0.05270,2.85250,-4.44500,0.00000,-0.00842,0.01208,-0.99027,2023,6,12,13,37,17,497
0.05280,2.81750,-4.49750,0.00000,-0.01037,0.01427,-0.98954,2023,6,12,13,37,17,508
0.05290,2.81750,-4.30500,0.00000,-0.00830,0.01330,-0.99101,2023,6,12,13,37,17,519
0.05300,2.90500,-4.39250,0.00000,-0.01025,0.01696,-0.99125,2023,6,12,13,37,17,530
0.05310,2.94000,-4.69000,0.00000,-0.00964,0.01196,-0.98783,2023,6,12,13,37,17,541
0.05320,2.87000,-4.76000,0.00000,-0.00817,0.01232,-0.99198,2023,6,12,13,37,17,553
0.05330,3.08000,-4.51500,0.00000,-0.01061,0.01464,-0.98991,2023,6,12,13,37,17,564
0.05340,2.97500,-4.53250,0.00000,-0.00988,0.01415,-0.98942,2023,6,12,13,37,17,575
0.05350,2.83500,-4.55000,0.00000,-0.00964,0.01305,-0.98930,2023,6,12,13,37,17,586
0.05360,2.90500,-4.56750,0.00000,-0.01000,0.01427,-0.98844,2023,6,12,13,37,17,597
0.05370,2.62500,-4.42750,0.00000,-0.00842,0.01366,-0.98979,2023,6,12,13,37,17,608
0.05380,3.02750,-4.60250,0.00000,-0.00952,0.01464,-0.99149,2023,6,12,13,37,17,619
0.05390,2.85250,-4.60250,0.00000,-0.01122,0.01525,-0.98783,2023,6,12,13,37,17,630
0.05400,2.88750,-4.32250,0.00000,-0.00927,0.01366,-0.99027,2023,6,12,13,37,17,641
0.05410,2.92250,-4.51500,0.00000,-0.01025,0.01403,-0.99210,2023,6,12,13,37,17,653
0.05420,2.83500,-4.65500,0.00000,-0.00964,0.01403,-0.99162,2023,6,12,13,37,17,664
0.05430,2.85250,-4.62000,0.00000,-0.00952,0.01464,-0.98881,2023,6,12,13,37,17,675
0.05440,2.81750,-4.55000,0.00000,-0.00988,0.01403,-0.99101,2023,6,12,13,37,17,686
0.05450,2.94000,-4.42750,0.00000,-0.01000,0.01488,-0.98491,2023,6,12,13,37,17,697
0.05460,2.94000,-4.48000,0.00000,-0.01013,0.01476,-0.98893,2023,6,12,13,37,17,708
0.05470,3.20250,-4.60250,0.00000,-0.00891,0.01525,-0.98820,2023,6,12,13,37,17,719
0.05480,2.90500,-4.42750,0.00000,-0.00830,0.01244,-0.99040,2023,6,12,13,37,17,730
0.05490,2.71250,-4.48000,0.00000,-0.00817,0.01464,-0.98954,2023,6,12,13,37,17,741
0.05500,2.74750,-4.58500,0.00000,-0.01000,0.01208,-0.99406,2023,6,12,13,37,17,753
0.05510,2.87000,-4.42750,0.00000,-0.00903,0.01440,-0.98735,2023,6,12,13,37,17,764
0.05520,3.15000,-4.74250,0.00000,-0.00964,0.01501,-0.98844,2023,6,12,13,37,17,775
0.05530,2.88750,-4.76000,0.00000,-0.00964,0.01440,-0.99088,2023,6,12,13,37,17,786
0.05540,2.85250,-4.60250,0.00000,-0.00915,0.01452,-0.98857,2023,6,12,13,37,17,797
0.05550,2.83500,-4.49750,0.00000,-0.00988,0.01513,-0.98966,2023,6,12,13,37,17,808
0.05560,3.08000,-4.67250,0.00000,-0.00976,0.01415,-0.98735,2023,6,12,13,37,17,819
0.05570,2.74750,-4.51500,0.00000,-0.01000,0.01403,-0.98881,2023,6,12,13,37,17,830
0.05580,2.66000,-4.55000,0.00000,-0.01074,0.01635,-0.99015,2023,6,12,13,37,17,841
0.05590,2.95750,-4.55000,0.00000,-0.00988,0.01366,-0.98857,2023,6,12,13,37,17,853
0.05600,2.92250,-4.51500,0.00000,-0.01061,0.01281,-0.99003,2023,6,12,13,37,17,864
0.05610,2.97500,-4.55000,0.00000,-0.01049,0.01501,-0.98722,2023,6,12,13,37,17,875
0.05620,2.78250,-4.49750,0.00000,-0.01000,0.01525,-0.99174,2023,6,12,13,37,17,886
0.05630,2.88750,-4.69000,0.00000,-0.00927,0.01537,-0.99162,2023,6,12,13,37,17,897
0.05640,2.99250,-4.44500,0.00000,-0.00842,0.01391,-0.98991,2023,6,12,13,37,17,908
0.05650,2.83500,-4.60250,0.00000,-0.01013,0.01379,-0.99040,2023,6,12,13,37,17,919
0.05660,2.99250,-4.63750,0.00000,-0.00769,0.01501,-0.99320,2023,6,12,13,37,17,930
0.05670,3.02750,-4.65500,0.00000,-0.00769,0.01171,-0.99027,2023,6,12,13,37,17,941
0.05680,3.04500,-4.69000,0.00000,-0.00903,0.01488,-0.99125,2023,6,12,13,37,17,953
0.05690,2.78250,-4.44500,0.00000,-0.00927,0.01635,-0.99015,2023,6,12,13,37,17,964
0.05700,2.90500,-4.46250,0.00000,-0.00878,0.01525,-0.98991,2023,6,12,13,37,18,5
0.05710,2.87000,-4.67250,0.00000,-0.00964,0.01427,-0.99052,2023,6,12,13,37,18,16
0.05720,2.83500,-4.44500,0.00000,-0.00817,0.01501,-0.98918,2023,6,12,13,37,18,27
0.05730,2.71250,-4.32250,0.00000,-0.01110,0.01513,-0.99430,2023,6,12,13,37,18,38
0.05740,2.97500,-4.42750,0.00000,-0.01037,0.01415,-0.98820,2023,6,12,13,37,18,49
0.05750,2.88750,-4.53250,0.00000,-0.00817,0.01549,-0.98759,2023,6,12,13,37,18,60
0.05760,2.74750,-4.51500,0.00000,-0.00939,0.01318,-0.99308,2023,6,12,13,37,18,71
0.05770,3.01000,-4.70750,0.00000,-0.01049,0.01513,-0.99088,2023,6,12,13,37,18,83
0.05780,2.97500,-4.65500,0.00000,-0.00927,0.01342,-0.99052,2023,6,12,13,37,18,94
0.05790,2.88750,-4.56750,0.00000,-0.01037,0.01391,-0.98905,2023,6,12,13,37,18,105
0.05800,2.97500,-4.63750,0.00000,-0.00878,0.01452,-0.98674,2023,6,12,13,37,18,116
0.05810,2.69500,-4.51500,0.00000,-0.00866,0.01488,-0.99210,2023,6,12,13,37,18,127
0.05820,2.90500,-4.53250,0.00000,-0.00915,0.01366,-0.99235,2023,6,12,13,37,18,138
0.05830,3.01000,-4.55000,0.00000,-0.00842,0.01586,-0.99113,2023,6,12,13,37,18,149
0.05840,2.92250,-4.56750,0.00000,-0.00988,0.01440,-0.98869,2023,6,12,13,37,18,160
0.05850,3.02750,-4.60250,0.00000,-0.01000,0.01391,-0.98942,2023,6,12,13,37,18,171
0.05860,2.81750,-4.46250,0.00000,-0.00842,0.01159,-0.99125,2023,6,12,13,37,18,183
0.05870,2.81750,-4.51500,0.00000,-0.01025,0.01403,-0.99149,2023,6,12,13,37,18,194
0.05880,2.87000,-4.49750,0.00000,-0.00878,0.01305,-0.99040,2023,6,12,13,37,18,205
0.05890,2.95750,-4.74250,0.00000,-0.01000,0.01574,-0.99003,2023,6,12,13,37,18,216
0.05900,2.92250,-4.56750,0.00000,-0.00781,0.01452,-0.99052,2023,6,12,13,37,18,227
0.05910,2.76500,-4.35750,0.00000,-0.00805,0.01513,-0.99052,2023,6,12,13,37,18,238
0.05920,2.97500,-4.53250,0.00000,-0.00805,0.01574,-0.98930,2023,6,12,13,37,18,249
0.05930,2.85250,-4.37500,0.00000,-0.01000,0.01366,-0.98747,2023,6,12,13,37,18,260
0.05940,2.90500,-4.48000,0.00000,-0.01013,0.01342,-0.99137,2023,6,12,13,37,18,271
0.05950,2.97500,-4.53250,0.00000,-0.00939,0.01318,-0.98881,2023,6,12,13,37,18,283
0.05960,3.08000,-4.46250,0.00000,-0.00939,0.01464,-0.98649,2023,6,12,13,37,18,294
0.05970,2.81750,-4.32250,0.00000,-0.00817,0.01513,-0.98979,2023,6,12,13,37,18,305
0.05980,2.76500,-4.55000,0.00000,-0.00988,0.01501,-0.99284,2023,6,12,13,37,18,316
0.05990,2.80000,-4.42750,0.00000,-0.00915,0.01549,-0.98759,2023,6,12,13,37,18,327
0.06000,2.85250,-4.44500,0.00000,-0.00878,0.01379,-0.98881,2023,6,12,13,37,18,338
0.06010,2.92250,-4.67250,0.00000,-0.00927,0.01379,-0.98796,2023,6,12,13,37,18,349
0.06020,2.83500,-4.58500,0.00000,-0.00817,0.01293,-0.98698,2023,6,12,13,37,18,360
0.06030,2.87000,-4.69000,0.00000,-0.01318,0.01452,-0.98808,2023,6,12,13,37,18,371
0.06040,2.99250,-4.44500,0.00000,-0.00952,0.01562,-0.98857,2023,6,12,13,37,18,383
0.06050,2.95750,-4.44500,0.00000,-0.00915,0.01427,-0.99015,2023,6,12,13,37,18,394
0.06060,2.74750,-4.58500,0.00000,-0.00781,0.01635,-0.99076,2023,6,12,13,37,18,405
0.06070,2.97500,-4.67250,0.00000,-0.00586,0.01330,-0.98661,2023,6,12,13,37,18,416
0.06080,3.09750,-4.65500,0.00000,-0.01000,0.01391,-0.98881,2023,6,12,13,37,18,427
0.06090,2.80000,-4.58500,0.00000,-0.00939,0.01671,-0.99162,2023,6,12,13,37,18,438
0.06100,3.16750,-4.37500,0.00000,-0.01000,0.01525,-0.98674,2023,6,12,13,37,18,449
0.06110,2.92250,-4.51500,0.00000,-0.01000,0.01525,-0.98820,2023,6,12,13,37,18,460
0.06120,2.85250,-4.42750,0.00000,-0.01257,0.01293,-0.98796,2023,6,12,13,37,18,471
0.06130,2.60750,-4.62000,0.00000,-0.01110,0.01342,-0.99210,2023,6,12,13,37,18,483
0.06140,2.83500,-4.65500,0.00000,-0.01098,0.01403,-0.98893,2023,6,12,13,37,18,494
0.06150,2.76500,-4.44500,0.00000,-0.00878,0.01671,-0.99027,2023,6,12,13,37,18,505
0.06160,2.94000,-4.56750,0.00000,-0.00842,0.01525,-0.98832,2023,6,12,13,37,18,516
0.06170,2.88750,-4.49750,0.00000,-0.01025,0.01452,-0.98759,2023,6,12,13,37,18,527
0.06180,2.71250,-4.56750,0.00000,-0.01013,0.01354,-0.98869,2023,6,12,13,37,18,538
0.06190,2.99250,-4.49750,0.00000,-0.00952,0.01586,-0.98613,2023,6,12,13,37,18,549
0.06200,2.99250,-4.49750,0.00000,-0.01086,0.01537,-0.99223,2023,6,12,13,37,18,560
0.06210,2.99250,-4.53250,0.00000,-0.00817,0.01244,-0.98893,2023,6,12,13,37,18,571
0.06220,2.88750,-4.41000,0.00000,-0.00939,0.01415,-0.99247,2023,6,12,13,37,18,583
0.06230,2.87000,-4.65500,0.00000,-0.00976,0.01537,-0.98808,2023,6,12,13,37,18,594
0.06240,2.80000,-4.53250,0.00000,-0.01049,0.01476,-0.99162,2023,6,12,13,37,18,605
0.06250,2.87000,-4.56750,0.00000,-0.00891,0.01305,-0.98979,2023,6,12,13,37,18,616
0.06260,2.71250,-4.35750,0.00000,-0.00988,0.01330,-0.98930,2023,6,12,13,37,18,627
0.06270,2.76500,-4.41000,0.00000,-0.00952,0.01354,-0.98979,2023,6,12,13,37,18,638
0.06280,2.95750,-4.49750,0.00000,-0.00939,0.01476,-0.99210,2023,6,12,13,37,18,649
0.06290,2.74750,-4.25250,0.00000,-0.00988,0.01354,-0.98832,2023,6,12,13,37,18,660
0.06300,2.95750,-4.53250,0.00000,-0.01135,0.01391,-0.99223,2023,6,12,13,37,18,671
0.06310,2.80000,-4.42750,0.00000,-0.00939,0.01574,-0.99137,2023,6,12,13,37,18,683
0.06320,2.83500,-4.35750,0.00000,-0.00891,0.01354,-0.99040,2023,6,12,13,37,18,694
0.06330,3.02750,-4.83000,0.00000,-0.00854,0.01391,-0.98954,2023,6,12,13,37,18,705
0.06340,3.01000,-4.60250,0.00000,-0.01061,0.01525,-0.99088,2023,6,12,13,37,18,716
0.06350,2.81750,-4.41000,0.00000,-0.01049,0.01366,-0.98844,2023,6,12,13,37,18,727
0.06360,2.81750,-4.46250,0.00000,-0.00769,0.01330,-0.99076,2023,6,12,13,37,18,738
0.06370,2.78250,-4.55000,0.00000,-0.01061,0.01513,-0.98783,2023,6,12,13,37,18,749
0.06380,2.90500,-4.51500,0.00000,-0.01098,0.01159,-0.98893,2023,6,12,13,37,18,760
0.06390,2.87000,-4.53250,0.00000,-0.00793,0.01305,-0.98942,2023,6,12,13,37,18,771
0.06400,3.04500,-4.51500,0.00000,-0.01025,0.01342,-0.98600,2023,6,12,13,37,18,783
0.06410,2.90500,-4.76000,0.00000,-0.01000,0.01574,-0.98954,2023,6,12,13,37,18,794
0.06420,2.80000,-4.65500,0.00000,-0.00817,0.01366,-0.98881,2023,6,12,13,37,18,805
0.06430,2.92250,-4.41000,0.00000,-0.01025,0.01183,-0.99149,2023,6,12,13,37,18,816
0.06440,2.81750,-4.60250,0.00000,-0.01122,0.01403,-0.99101,2023,6,12,13,37,18,827
0.06450,2.81750,-4.51500,0.00000,-0.00939,0.01427,-0.98991,2023,6,12,13,37,18,838
0.06460,2.88750,-4.49750,0.00000,-0.00952,0.01452,-0.99015,2023,6,12,13,37,18,849
0.06470,2.83500,-4.56750,0.00000,-0.00891,0.01488,-0.99027,2023,6,12,13,37,18,860
0.06480,3.06250,-4.53250,0.00000,-0.00939,0.01257,-0.99125,2023,6,12,13,37,18,871
0.06490,2.87000,-4.49750,0.00000,-0.01171,0.01379,-0.99076,2023,6,12,13,37,18,883
0.06500,2.78250,-4.67250,0.00000,-0.01086,0.01513,-0.98869,2023,6,12,13,37,18,894
0.06510,2.78250,-4.41000,0.00000,-0.00854,0.01598,-0.98722,2023,6,12,13,37,18,905
0.06520,3.08000,-4.56750,0.00000,-0.00988,0.01610,-0.98613,2023,6,12,13,37,18,916
0.06530,2.69500,-4.34000,0.00000,-0.00927,0.01586,-0.98954,2023,6,12,13,37,18,927
0.06540,2.94000,-4.62000,0.00000,-0.00976,0.01305,-0.98796,2023,6,12,13,37,18,938
0.06550,3.08000,-4.48000,0.00000,-0.00988,0.01415,-0.98930,2023,6,12,13,37,18,949
0.06560,2.74750,-4.39250,0.00000,-0.00952,0.01476,-0.98771,2023,6,12,13,37,18,960
0.06570,2.88750,-4.55000,0.00000,-0.01000,0.01452,-0.99088,2023,6,12,13,37,18,971
0.06580,2.80000,-4.46250,0.00000,-0.00891,0.01537,-0.98979,2023,6,12,13,37,19,3
0.06590,2.92250,-4.69000,0.00000,-0.00952,0.01281,-0.98783,2023,6,12,13,37,19,14
0.06600,2.95750,-4.72500,0.00000,-0.01098,0.01562,-0.98881,2023,6,12,13,37,19,25
0.06610,2.78250,-4.55000,0.00000,-0.01074,0.01635,-0.98759,2023,6,12,13,37,19,36
0.06620,2.94000,-4.58500,0.00000,-0.01013,0.01598,-0.98918,2023,6,12,13,37,19,47
0.06630,2.85250,-4.30500,0.00000,-0.01037,0.01488,-0.99125,2023,6,12,13,37,19,58
0.06640,3.04500,-4.42750,0.00000,-0.00976,0.01549,-0.98722,2023,6,12,13,37,19,69
0.06650,2.90500,-4.65500,0.00000,-0.00891,0.01537,-0.98979,2023,6,12,13,37,19,80
0.06660,2.90500,-4.48000,0.00000,-0.01049,0.01403,-0.98979,2023,6,12,13,37,19,91
0.06670,2.94000,-4.70750,0.00000,-0.00878,0.01549,-0.99088,2023,6,12,13,37,19,103
0.06680,2.92250,-4.39250,0.00000,-0.01037,0.01598,-0.98417,2023,6,12,13,37,19,114
0.06690,2.83500,-4.48000,0.00000,-0.01000,0.01501,-0.98588,2023,6,12,13,37,19,125
0.06700,3.01000,-4.58500,0.00000,-0.00866,0.01354,-0.98674,2023,6,12,13,37,19,136
0.06710,2.92250,-4.41000,0.00000,-0.00732,0.01427,-0.98966,2023,6,12,13,37,19,147
0.06720,2.80000,-4.41000,0.00000,-0.00842,0.01330,-0.98771,2023,6,12,13,37,19,158
0.06730,2.81750,-4.44500,0.00000,-0.00976,0.01440,-0.98820,2023,6,12,13,37,19,169
0.06740,2.74750,-4.42750,0.00000,-0.01061,0.01208,-0.99015,2023,6,12,13,37,19,180
0.06750,2.76500,-4.55000,0.00000,-0.00866,0.01537,-0.98710,2023,6,12,13,37,19,191
0.06760,2.99250,-4.83000,0.00000,-0.00793,0.01415,-0.98625,2023,6,12,13,37,19,203
0.06770,2.97500,-4.55000,0.00000,-0.00878,0.01293,-0.98844,2023,6,12,13,37,19,214
0.06780,2.94000,-4.60250,0.00000,-0.00878,0.01537,-0.98808,2023,6,12,13,37,19,225
0.06790,2.95750,-4.48000,0.00000,-0.01061,0.01318,-0.98796,2023,6,12,13,37,19,236
0.06800,2.81750,-4.58500,0.00000,-0.00964,0.01452,-0.98613,2023,6,12,13,37,19,247
0.06810,3.02750,-4.49750,0.00000,-0.00903,0.01598,-0.98844,2023,6,12,13,37,19,258
0.06820,2.85250,-4.48000,0.00000,-0.00671,0.01488,-0.99125,2023,6,12,13,37,19,269
0.06830,2.78250,-4.34000,0.00000,-0.00903,0.01281,-0.98722,2023,6,12,13,37,19,280
0.06840,2.92250,-4.62000,0.00000,-0.00915,0.01391,-0.99101,2023,6,12,13,37,19,291
0.06850,2.94000,-4.77750,0.00000,-0.00976,0.01427,-0.98832,2023,6,12,13,37,19,303
0.06860,2.88750,-4.60250,0.00000,-0.01147,0.01391,-0.99027,2023,6,12,13,37,19,314
0.06870,2.81750,-4.63750,0.00000,-0.00866,0.01598,-0.99076,2023,6,12,13,37,19,325
0.06880,2.92250,-4.55000,0.00000,-0.00891,0.01476,-0.99088,2023,6,12,13,37,19,336
0.06890,3.01000,-4.60250,0.00000,-0.01293,0.01391,-0.99296,2023,6,12,13,37,19,347
0.06900,2.81750,-4.72500,0.00000,-0.00927,0.01537,-0.99040,2023,6,12,13,37,19,358
0.06910,2.81750,-4.70750,0.00000,-0.00976,0.01464,-0.98881,2023,6,12,13,37,19,369
0.06920,2.78250,-4.30500,0.00000,-0.01037,0.01244,-0.98783,2023,6,12,13,37,19,380
0.06930,2.94000,-4.51500,0.00000,-0.00854,0.01598,-0.99015,2023,6,12,13,37,19,391
0.06940,2.83500,-4.48000,0.00000,-0.01000,0.01513,-0.98918,2023,6,12,13,37,19,403
0.06950,2.83500,-4.49750,0.00000,-0.00939,0.01537,-0.98820,2023,6,12,13,37,19,414
0.06960,2.74750,-4.48000,0.00000,-0.01049,0.01452,-0.98808,2023,6,12,13,37,19,425
0.06970,2.69500,-4.42750,0.00000,-0.00927,0.01525,-0.98796,2023,6,12,13,37,19,436
0.06980,2.81750,-4.69000,0.00000,-0.00915,0.01464,-0.98918,2023,6,12,13,37,19,447
0.06990,2.78250,-4.39250,0.00000,-0.00939,0.01415,-0.98832,2023,6,12,13,37,19,458
0.07000,2.95750,-4.60250,0.00000,-0.00878,0.01562,-0.98966,2023,6,12,13,37,19,469
0.07010,3.13250,-4.58500,0.00000,-0.00939,0.01330,-0.98783,2023,6,12,13,37,19,480
0.07020,2.87000,-4.62000,0.00000,-0.01232,0.01391,-0.98979,2023,6,12,13,37,19,491
0.07030,2.83500,-4.41000,0.00000,-0.01159,0.01464,-0.99015,2023,6,12,13,37,19,503
0.07040,2.97500,-4.58500,0.00000,-0.01061,0.01537,-0.98857,2023,6,12,13,37,19,514
0.07050,2.95750,-4.72500,0.00000,-0.01098,0.01452,-0.98747,2023,6,12,13,37,19,525
0.07060,2.95750,-4.51500,0.00000,-0.01074,0.01525,-0.99040,2023,6,12,13,37,19,536
0.07070,2.85250,-4.63750,0.00000,-0.00866,0.01366,-0.99223,2023,6,12,13,37,19,547
0.07080,2.99250,-4.34000,0.00000,-0.01013,0.01415,-0.98832,2023,6,12,13,37,19,558
0.07090,2.87000,-4.67250,0.00000,-0.00927,0.01562,-0.99003,2023,6,12,13,37,19,569
0.07100,3.06250,-4.39250,0.00000,-0.01037,0.01440,-0.99137,2023,6,12,13,37,19,580
0.07110,2.90500,-4.34000,0.00000,-0.01049,0.01562,-0.99027,2023,6,12,13,37,19,591
0.07120,2.85250,-4.49750,0.00000,-0.00891,0.01452,-0.98905,2023,6,12,13,37,19,603
0.07130,2.90500,-4.41000,0.00000,-0.01000,0.01562,-0.99052,2023,6,12,13,37,19,614
0.07140,2.95750,-4.44500,0.00000,-0.00976,0.01354,-0.99174,2023,6,12,13,37,19,625
0.07150,2.85250,-4.39250,0.00000,-0.00854,0.01464,-0.99162,2023,6,12,13,37,19,636
0.07160,2.73000,-4.41000,0.00000,-0.00781,0.01488,-0.99088,2023,6,12,13,37,19,647
0.07170,2.92250,-4.49750,0.00000,-0.00878,0.01623,-0.99149,2023,6,12,13,37,19,658
0.07180,3.04500,-4.42750,0.00000,-0.00769,0.01513,-0.98881,2023,6,12,13,37,19,669
0.07190,2.95750,-4.51500,0.00000,-0.01013,0.01391,-0.98869,2023,6,12,13,37,19,680
0.07200,2.95750,-4.51500,0.00000,-0.01086,0.01610,-0.99003,2023,6,12,13,37,19,691
0.07210,2.88750,-4.53250,0.00000,-0.00805,0.01403,-0.98979,2023,6,12,13,37,19,703
0.07220,2.95750,-4.77750,0.00000,-0.01086,0.01342,-0.99284,2023,6,12,13,37,19,714
0.07230,2.87000,-4.48000,0.00000,-0.01171,0.01440,-0.98942,2023,6,12,13,37,19,725
0.07240,3.06250,-4.65500,0.00000,-0.00915,0.01427,-0.99076,2023,6,12,13,37,19,736
0.07250,2.87000,-4.46250,0.00000,-0.01049,0.01354,-0.99027,2023,6,12,13,37,19,747
0.07260,3.06250,-4.69000,0.00000,-0.00988,0.01305,-0.99162,2023,6,12,13,37,19,758
0.07270,2.94000,-4.42750,0.00000,-0.01159,0.01513,-0.99174,2023,6,12,13,37,19,769
0.07280,2.94000,-4.42750,0.00000,-0.00817,0.01366,-0.99149,2023,6,12,13,37,19,780
0.07290,3.01000,-4.62000,0.00000,-0.00964,0.01513,-0.99088,2023,6,12,13,37,19,791
0.07300,2.90500,-4.51500,0.00000,-0.00830,0.01293,-0.98857,2023,6,12,13,37,19,803
0.07310,3.01000,-4.63750,0.00000,-0.00891,0.01464,-0.98930,2023,6,12,13,37,19,814
0.07320,2.88750,-4.55000,0.00000,-0.00793,0.01354,-0.99052,2023,6,12,13,37,19,825
0.07330,2.94000,-4.46250,0.00000,-0.00927,0.01793,-0.99125,2023,6,12,13,37,19,836
0.07340,2.69500,-4.51500,0.00000,-0.01049,0.01427,-0.99186,2023,6,12,13,37,19,847
0.07350,2.88750,-4.37500,0.00000,-0.00952,0.01525,-0.99064,2023,6,12,13,37,19,858
0.07360,2.90500,-4.56750,0.00000,-0.01049,0.01623,-0.98893,2023,6,12,13,37,19,869
0.07370,2.80000,-4.42750,0.00000,-0.01025,0.01476,-0.98893,2023,6,12,13,37,19,880
0.07380,2.99250,-4.48000,0.00000,-0.00915,0.01342,-0.98832,2023,6,12,13,37,19,891
0.07390,2.81750,-4.51500,0.00000,-0.00915,0.01220,-0.99052,2023,6,12,13,37,19,903
0.07400,3.08000,-4.44500,0.00000,-0.00671,0.01208,-0.98747,2023,6,12,13,37,19,914
0.07410,2.73000,-4.49750,0.00000,-0.00976,0.01269,-0.98979,2023,6,12,13,37,19,925
0.07420,2.94000,-4.60250,0.00000,-0.00830,0.01293,-0.98747,2023,6,12,13,37,19,936
0.07430,2.97500,-4.62000,0.00000,-0.00952,0.01513,-0.99076,2023,6,12,13,37,19,947
0.07440,2.99250,-4.76000,0.00000,-0.01013,0.01318,-0.99052,2023,6,12,13,37,19,958
0.07450,2.90500,-4.62000,0.00000,-0.01000,0.01342,-0.99198,2023,6,12,13,37,20,9
0.07460,2.83500,-4.51500,0.00000,-0.01000,0.01610,-0.99076,2023,6,12,13,37,20,20
0.07470,2.94000,-4.65500,0.00000,-0.00927,0.01549,-0.98527,2023,6,12,13,37,20,31
0.07480,3.02750,-4.60250,0.00000,-0.01159,0.01330,-0.98893,2023,6,12,13,37,20,43
0.07490,2.88750,-4.56750,0.00000,-0.00903,0.01635,-0.99027,2023,6,12,13,37,20,54
0.07500,2.85250,-4.42750,0.00000,-0.00854,0.01403,-0.98930,2023,6,12,13,37,20,65
0.07510,2.97500,-4.65500,0.00000,-0.01013,0.01513,-0.99088,2023,6,12,13,37,20,76
0.07520,3.09750,-4.65500,0.00000,-0.00878,0.01452,-0.98881,2023,6,12,13,37,20,87
0.07530,2.90500,-4.77750,0.00000,-0.00939,0.01513,-0.99015,2023,6,12,13,37,20,98
0.07540,2.99250,-4.53250,0.00000,-0.01122,0.01305,-0.98808,2023,6,12,13,37,20,109
0.07550,2.74750,-4.46250,0.00000,-0.01049,0.01415,-0.99393,2023,6,12,13,37,20,120
0.07560,2.76500,-4.56750,0.00000,-0.01025,0.01330,-0.99198,2023,6,12,13,37,20,131
0.07570,2.88750,-4.46250,0.00000,-0.00830,0.01476,-0.99101,2023,6,12,13,37,20,143
0.07580,2.95750,-4.46250,0.00000,-0.00927,0.01244,-0.99088,2023,6,12,13,37,20,154
0.07590,2.95750,-4.62000,0.00000,-0.00988,0.01586,-0.98661,2023,6,12,13,37,20,165
0.07600,2.85250,-4.55000,0.00000,-0.00976,0.01305,-0.98686,2023,6,12,13,37,20,176
0.07610,2.90500,-4.60250,0.00000,-0.00903,0.01342,-0.98783,2023,6,12,13,37,20,187
0.07620,2.90500,-4.51500,0.00000,-0.01025,0.01427,-0.98783,2023,6,12,13,37,20,198
0.07630,2.90500,-4.44500,0.00000,-0.01013,0.01549,-0.98881,2023,6,12,13,37,20,209
0.07640,2.83500,-4.48000,0.00000,-0.01086,0.01342,-0.98808,2023,6,12,13,37,20,220
0.07650,3.01000,-4.70750,0.00000,-0.00793,0.01391,-0.98613,2023,6,12,13,37,20,231
0.07660,3.01000,-4.56750,0.00000,-0.00817,0.01525,-0.98844,2023,6,12,13,37,20,243
0.07670,2.76500,-4.46250,0.00000,-0.01000,0.01452,-0.98991,2023,6,12,13,37,20,254
0.07680,2.81750,-4.41000,0.00000,-0.01098,0.01293,-0.98613,2023,6,12,13,37,20,265
0.07690,2.83500,-4.34000,0.00000,-0.00805,0.01464,-0.98771,2023,6,12,13,37,20,276
0.07700,2.80000,-4.72500,0.00000,-0.01196,0.01525,-0.98759,2023,6,12,13,37,20,287
0.07710,2.92250,-4.46250,0.00000,-0.00915,0.01549,-0.98796,2023,6,12,13,37,20,298
0.07720,2.74750,-4.39250,0.00000,-0.00842,0.01562,-0.98857,2023,6,12,13,37,20,309
0.07730,2.92250,-4.63750,0.00000,-0.01061,0.01562,-0.98832,2023,6,12,13,37,20,320
0.07740,3.09750,-4.58500,0.00000,-0.00964,0.01440,-0.99027,2023,6,12,13,37,20,331
0.07750,2.83500,-4.49750,0.00000,-0.00610,0.01574,-0.98844,2023,6,12,13,37,20,343
0.07760,3.01000,-4.58500,0.00000,-0.01049,0.01379,-0.99052,2023,6,12,13,37,20,354
0.07770,3.16750,-4.49750,0.00000,-0.00903,0.01403,-0.98552,2023,6,12,13,37,20,365
0.07780,2.76500,-4.37500,0.00000,-0.00891,0.01403,-0.98832,2023,6,12,13,37,20,376
0.07790,3.01000,-4.25250,0.00000,-0.00793,0.01330,-0.98930,2023,6,12,13,37,20,387
0.07800,2.87000,-4.60250,0.00000,-0.00964,0.01757,-0.98918,2023,6,12,13,37,20,398
0.07810,2.85250,-4.56750,0.00000,-0.00915,0.01635,-0.98747,2023,6,12,13,37,20,409
0.07820,3.08000,-4.63750,0.00000,-0.00830,0.01318,-0.98722,2023,6,12,13,37,20,420
0.07830,3.01000,-4.58500,0.00000,-0.01013,0.01269,-0.98844,2023,6,12,13,37,20,431
0.07840,3.04500,-4.65500,0.00000,-0.01013,0.01549,-0.99162,2023,6,12,13,37,20,443
0.07850,2.80000,-4.48000,0.00000,-0.00964,0.01342,-0.98735,2023,6,12,13,37,20,454
0.07860,2.80000,-4.51500,0.00000,-0.00866,0.01354,-0.99052,2023,6,12,13,37,20,465
0.07870,2.88750,-4.53250,0.00000,-0.00952,0.01391,-0.98527,2023,6,12,13,37,20,476
0.07880,2.95750,-4.51500,0.00000,-0.01037,0.01476,-0.98918,2023,6,12,13,37,20,487
0.07890,2.83500,-4.42750,0.00000,-0.00830,0.01415,-0.99027,2023,6,12,13,37,20,498
0.07900,2.92250,-4.51500,0.00000,-0.00769,0.01379,-0.99088,2023,6,12,13,37,20,509
0.07910,2.85250,-4.28750,0.00000,-0.00878,0.01525,-0.99015,2023,6,12,13,37,20,520
0.07920,3.01000,-4.74250,0.00000,-0.00793,0.01452,-0.98661,2023,6,12,13,37,20,531
0.07930,2.78250,-4.63750,0.00000,-0.00939,0.01440,-0.98979,2023,6,12,13,37,20,543
0.07940,3.02750,-4.63750,0.00000,-0.01049,0.01244,-0.98625,2023,6,12,13,37,20,554
0.07950,2.85250,-4.62000,0.00000,-0.00866,0.01415,-0.99015,2023,6,12,13,37,20,565
0.07960,2.94000,-4.51500,0.00000,-0.00939,0.01452,-0.98674,2023,6,12,13,37,20,576
0.07970,3.08000,-4.58500,0.00000,-0.00854,0.01708,-0.98966,2023,6,12,13,37,20,587
0.07980,2.87000,-4.58500,0.00000,-0.00866,0.01488,-0.98783,2023,6,12,13,37,20,598
0.07990,2.87000,-4.51500,0.00000,-0.01049,0.01525,-0.98649,2023,6,12,13,37,20,609
0.08000,3.01000,-4.63750,0.00000,-0.00878,0.01623,-0.98942,2023,6,12,13,37,20,620
0.08010,2.81750,-4.58500,0.00000,-0.00903,0.01476,-0.98698,2023,6,12,13,37,20,631
0.08020,2.95750,-4.69000,0.00000,-0.01074,0.01537,-0.98820,2023,6,12,13,37,20,643
0.08030,2.94000,-4.53250,0.00000,-0.01000,0.01379,-0.98735,2023,6,12,13,37,20,654
0.08040,2.85250,-4.35750,0.00000,-0.01049,0.01501,-0.98820,2023,6,12,13,37,20,665
0.08050,2.97500,-4.70750,0.00000,-0.01013,0.01366,-0.98735,2023,6,12,13,37,20,676
0.08060,2.85250,-4.44500,0.00000,-0.00769,0.01574,-0.99088,2023,6,12,13,37,20,687
0.08070,3.02750,-4.35750,0.00000,-0.00964,0.01452,-0.98783,2023,6,12,13,37,20,698
0.08080,2.92250,-4.55000,0.00000,-0.01037,0.01330,-0.99076,2023,6,12,13,37,20,709
0.08090,3.16750,-4.62000,0.00000,-0.01000,0.01427,-0.99113,2023,6,12,13,37,20,720
0.08100,2.92250,-4.63750,0.00000,-0.01171,0.01562,-0.98796,2023,6,12,13,37,20,731
0.08110,2.97500,-4.56750,0.00000,-0.00866,0.01342,-0.98857,2023,6,12,13,37,20,743
0.08120,2.97500,-4.74250,0.00000,-0.00988,0.01366,-0.99040,2023,6,12,13,37,20,754
0.08130,2.67750,-4.44500,0.00000,-0.00927,0.01342,-0.98808,2023,6,12,13,37,20,765
0.08140,2.92250,-4.51500,0.00000,-0.00866,0.01586,-0.98832,2023,6,12,13,37,20,776
0.08150,2.88750,-4.41000,0.00000,-0.00769,0.01281,-0.98979,2023,6,12,13,37,20,787
0.08160,2.81750,-4.70750,0.00000,-0.00976,0.01440,-0.98808,2023,6,12,13,37,20,798
0.08170,3.06250,-4.60250,0.00000,-0.01086,0.01525,-0.98710,2023,6,12,13,37,20,809
0.08180,2.88750,-4.62000,0.00000,-0.00878,0.01513,-0.98747,2023,6,12,13,37,20,820
0.08190,2.90500,-4.46250,0.00000,-0.01074,0.01513,-0.98808,2023,6,12,13,37,20,831
0.08200,2.62500,-4.27000,0.00000,-0.01122,0.01525,-0.98759,2023,6,12,13,37,20,843
0.08210,3.08000,-4.56750,0.00000,-0.00866,0.01135,-0.98881,2023,6,12,13,37,20,854
0.08220,2.90500,-4.58500,0.00000,-0.00842,0.01391,-0.99015,2023,6,12,13,37,20,865
0.08230,2.87000,-4.58500,0.00000,-0.01037,0.01513,-0.98930,2023,6,12,13,37,20,876
0.08240,2.95750,-4.53250,0.00000,-0.01037,0.01427,-0.98942,2023,6,12,13,37,20,887
0.08250,2.97500,-4.56750,0.00000,-0.00964,0.01415,-0.98747,2023,6,12,13,37,20,898
0.08260,2.99250,-4.67250,0.00000,-0.00854,0.01488,-0.98918,2023,6,12,13,37,20,909
0.08270,2.92250,-4.51500,0.00000,-0.00878,0.01537,-0.98625,2023,6,12,13,37,20,920
0.08280,2.90500,-4.48000,0.00000,-0.00878,0.01391,-0.98698,2023,6,12,13,37,20,931
0.08290,2.99250,-4.55000,0.00000,-0.00805,0.01488,-0.98576,2023,6,12,13,37,20,943
0.08300,2.78250,-4.42750,0.00000,-0.00927,0.01403,-0.98857,2023,6,12,13,37,20,954
0.08310,3.04500,-4.56750,0.00000,-0.00866,0.01183,-0.98686,2023,6,12,13,37,20,965
0.08320,2.95750,-4.48000,0.00000,-0.00952,0.01452,-0.98503,2023,6,12,13,37,20,976
0.08330,2.87000,-4.72500,0.00000,-0.00915,0.01440,-0.98735,2023,6,12,13,37,20,987
0.08340,2.87000,-4.51500,0.00000,-0.00915,0.01537,-0.98722,2023,6,12,13,37,21,8
0.08350,2.81750,-4.32250,0.00000,-0.01086,0.01623,-0.98710,2023,6,12,13,37,21,19
0.08360,2.81750,-4.49750,0.00000,-0.00927,0.01366,-0.98698,2023,6,12,13,37,21,30
0.08370,2.73000,-4.42750,0.00000,-0.00976,0.01537,-0.98661,2023,6,12,13,37,21,41
0.08380,2.87000,-4.69000,0.00000,-0.00830,0.01525,-0.98735,2023,6,12,13,37,21,53
0.08390,2.94000,-4.65500,0.00000,-0.00878,0.01452,-0.98735,2023,6,12,13,37,21,64
0.08400,2.71250,-4.60250,0.00000,-0.00939,0.01281,-0.98844,2023,6,12,13,37,21,75
0.08410,2.95750,-4.56750,0.00000,-0.01000,0.01440,-0.98869,2023,6,12,13,37,21,86
0.08420,2.87000,-4.42750,0.00000,-0.00891,0.01574,-0.98735,2023,6,12,13,37,21,97
0.08430,2.94000,-4.51500,0.00000,-0.00854,0.01476,-0.98979,2023,6,12,13,37,21,108
0.08440,3.04500,-4.77750,0.00000,-0.01086,0.01452,-0.98710,2023,6,12,13,37,21,119
0.08450,2.81750,-4.63750,0.00000,-0.00903,0.01464,-0.98881,2023,6,12,13,37,21,130
0.08460,2.99250,-4.41000,0.00000,-0.00756,0.01440,-0.98759,2023,6,12,13,37,21,141
0.08470,3.06250,-4.51500,0.00000,-0.01037,0.01403,-0.98942,2023,6,12,13,37,21,153
0.08480,2.97500,-4.58500,0.00000,-0.00891,0.01598,-0.98625,2023,6,12,13,37,21,164
0.08490,2.85250,-4.63750,0.00000,-0.00878,0.01318,-0.98710,2023,6,12,13,37,21,175
0.08500,2.78250,-4.46250,0.00000,-0.00915,0.01403,-0.98722,2023,6,12,13,37,21,186
0.08510,2.90500,-4.51500,0.00000,-0.01037,0.01208,-0.98820,2023,6,12,13,37,21,197
0.08520,2.85250,-4.49750,0.00000,-0.00854,0.01537,-0.98686,2023,6,12,13,37,21,208
0.08530,2.83500,-4.58500,0.00000,-0.00927,0.01403,-0.98808,2023,6,12,13,37,21,219
0.08540,3.06250,-4.56750,0.00000,-0.00830,0.01305,-0.98881,2023,6,12,13,37,21,230
0.08550,2.88750,-4.65500,0.00000,-0.00793,0.01537,-0.99003,2023,6,12,13,37,21,241
0.08560,2.97500,-4.37500,0.00000,-0.00781,0.01696,-0.99015,2023,6,12,13,37,21,253
0.08570,2.78250,-4.44500,0.00000,-0.00878,0.01257,-0.98588,2023,6,12,13,37,21,264
0.08580,2.80000,-4.69000,0.00000,-0.01110,0.01318,-0.98954,2023,6,12,13,37,21,275
0.08590,2.88750,-4.49750,0.00000,-0.00866,0.01366,-0.99003,2023,6,12,13,37,21,286
0.08600,2.94000,-4.62000,0.00000,-0.01000,0.01366,-0.99015,2023,6,12,13,37,21,297
0.08610,2.71250,-4.56750,0.00000,-0.00976,0.01757,-0.98869,2023,6,12,13,37,21,308
0.08620,2.88750,-4.28750,0.00000,-0.00769,0.01488,-0.98796,2023,6,12,13,37,21,319
0.08630,2.99250,-4.72500,0.00000,-0.00805,0.01452,-0.98771,2023,6,12,13,37,21,330
0.08640,2.76500,-4.42750,0.00000,-0.01049,0.01415,-0.99247,2023,6,12,13,37,21,341
0.08650,2.73000,-4.53250,0.00000,-0.00817,0.01464,-0.98869,2023,6,12,13,37,21,353
0.08660,2.90500,-4.42750,0.00000,-0.00842,0.01244,-0.98844,2023,6,12,13,37,21,364
0.08670,2.94000,-4.48000,0.00000,-0.00891,0.01403,-0.99027,2023,6,12,13,37,21,375
0.08680,2.83500,-4.51500,0.00000,-0.00964,0.01659,-0.98820,2023,6,12,13,37,21,386
0.08690,2.88750,-4.44500,0.00000,-0.00915,0.01403,-0.98747,2023,6,12,13,37,21,397
0.08700,2.83500,-4.28750,0.00000,-0.01000,0.01354,-0.98783,2023,6,12,13,37,21,408
0.08710,2.83500,-4.63750,0.00000,-0.01025,0.01391,-0.98771,2023,6,12,13,37,21,419
0.08720,2.78250,-4.51500,0.00000,-0.00952,0.01220,-0.98808,2023,6,12,13,37,21,430
0.08730,3.01000,-4.63750,0.00000,-0.00817,0.01379,-0.98552,2023,6,12,13,37,21,441
0.08740,2.88750,-4.34000,0.00000,-0.00878,0.01403,-0.99296,2023,6,12,13,37,21,453
0.08750,2.85250,-4.53250,0.00000,-0.00915,0.01488,-0.99076,2023,6,12,13,37,21,464
0.08760,3.02750,-4.67250,0.00000,-0.00927,0.01415,-0.98783,2023,6,12,13,37,21,475
0.08770,2.83500,-4.72500,0.00000,-0.00915,0.01415,-0.99088,2023,6,12,13,37,21,486
0.08780,2.88750,-4.60250,0.00000,-0.01074,0.01464,-0.98905,2023,6,12,13,37,21,497
0.08790,2.87000,-4.56750,0.00000,-0.00952,0.01525,-0.98454,2023,6,12,13,37,21,508
0.08800,2.71250,-4.34000,0.00000,-0.01159,0.01342,-0.98698,2023,6,12,13,37,21,519
0.08810,2.80000,-4.60250,0.00000,-0.01061,0.01330,-0.98832,2023,6,12,13,37,21,530
0.08820,2.83500,-4.41000,0.00000,-0.00903,0.01318,-0.99064,2023,6,12,13,37,21,541
0.08830,2.87000,-4.44500,0.00000,-0.01049,0.01415,-0.98905,2023,6,12,13,37,21,553
0.08840,2.95750,-4.62000,0.00000,-0.01074,0.01366,-0.98881,2023,6,12,13,37,21,564
0.08850,2.87000,-4.51500,0.00000,-0.01049,0.01354,-0.98918,2023,6,12,13,37,21,575
0.08860,2.90500,-4.55000,0.00000,-0.00878,0.01452,-0.98832,2023,6,12,13,37,21,586
0.08870,2.81750,-4.46250,0.00000,-0.00903,0.01330,-0.98869,2023,6,12,13,37,21,597
0.08880,3.06250,-4.46250,0.00000,-0.01061,0.01464,-0.98613,2023,6,12,13,37,21,608
0.08890,2.83500,-4.65500,0.00000,-0.00988,0.01440,-0.98686,2023,6,12,13,37,21,619
0.08900,3.01000,-4.53250,0.00000,-0.01232,0.01488,-0.98747,2023,6,12,13,37,21,630
0.08910,3.02750,-4.32250,0.00000,-0.00915,0.01513,-0.98954,2023,6,12,13,37,21,641
0.08920,3.06250,-4.70750,0.00000,-0.00952,0.01549,-0.98820,2023,6,12,13,37,21,653
0.08930,2.95750,-4.53250,0.00000,-0.00805,0.01318,-0.98857,2023,6,12,13,37,21,664
0.08940,2.85250,-4.37500,0.00000,-0.00756,0.01427,-0.99137,2023,6,12,13,37,21,675
0.08950,2.88750,-4.56750,0.00000,-0.01013,0.01537,-0.99149,2023,6,12,13,37,21,686
0.08960,2.95750,-4.48000,0.00000,-0.00903,0.01488,-0.99198,2023,6,12,13,37,21,697
0.08970,2.97500,-4.48000,0.00000,-0.01110,0.01403,-0.98857,2023,6,12,13,37,21,708
0.08980,2.83500,-4.42750,0.00000,-0.01000,0.01379,-0.99052,2023,6,12,13,37,21,719
0.08990,2.99250,-4.56750,0.00000,-0.00793,0.01366,-0.98918,2023,6,12,13,37,21,730
0.09000,2.94000,-4.62000,0.00000,-0.00756,0.01415,-0.98942,2023,6,12,13,37,21,741
0.09010,2.92250,-4.56750,0.00000,-0.00793,0.01293,-0.98918,2023,6,12,13,37,21,753
0.09020,2.81750,-4.69000,0.00000,-0.00964,0.01696,-0.98893,2023,6,12,13,37,21,764
0.09030,2.95750,-4.48000,0.00000,-0.01122,0.01513,-0.98820,2023,6,12,13,37,21,775
0.09040,2.73000,-4.53250,0.00000,-0.01049,0.01342,-0.98869,2023,6,12,13,37,21,786
0.09050,2.88750,-4.41000,0.00000,-0.00903,0.01635,-0.99113,2023,6,12,13,37,21,797
0.09060,2.71250,-4.60250,0.00000,-0.00927,0.01403,-0.99027,2023,6,12,13,37,21,808
0.09070,2.85250,-4.48000,0.00000,-0.01037,0.01427,-0.99076,2023,6,12,13,37,21,819
0.09080,2.97500,-4.77750,0.00000,-0.00976,0.01525,-0.98808,2023,6,12,13,37,21,830
0.09090,2.85250,-4.44500,0.00000,-0.00830,0.01513,-0.99137,2023,6,12,13,37,21,841
0.09100,3.01000,-4.62000,0.00000,-0.01061,0.01501,-0.98747,2023,6,12,13,37,21,853
0.09110,2.62500,-4.62000,0.00000,-0.01037,0.01476,-0.98820,2023,6,12,13,37,21,864
0.09120,3.01000,-4.44500,0.00000,-0.01037,0.01440,-0.98857,2023,6,12,13,37,21,875
0.09130,2.73000,-4.51500,0.00000,-0.01049,0.01427,-0.98722,2023,6,12,13,37,21,886
0.09140,2.87000,-4.55000,0.00000,-0.01013,0.01476,-0.99101,2023,6,12,13,37,21,897
0.09150,2.92250,-4.51500,0.00000,-0.01086,0.01342,-0.98808,2023,6,12,13,37,21,908
0.09160,2.85250,-4.53250,0.00000,-0.00854,0.01098,-0.98674,2023,6,12,13,37,21,919
0.09170,3.02750,-4.48000,0.00000,-0.00842,0.01476,-0.99125,2023,6,12,13,37,21,930
0.09180,2.92250,-4.63750,0.00000,-0.00891,0.01452,-0.98625,2023,6,12,13,37,21,941
0.09190,2.74750,-4.53250,0.00000,-0.01049,0.01391,-0.98844,2023,6,12,13,37,21,953
0.09200,2.92250,-4.37500,0.00000,-0.00976,0.01354,-0.98722,2023,6,12,13,37,22,4
0.09210,2.78250,-4.46250,0.00000,-0.01037,0.01244,-0.98478,2023,6,12,13,37,22,15
0.09220,2.94000,-4.51500,0.00000,-0.01147,0.01318,-0.98881,2023,6,12,13,37,22,26
0.09230,2.97500,-4.58500,0.00000,-0.01025,0.01366,-0.99088,2023,6,12,13,37,22,37
0.09240,2.94000,-4.51500,0.00000,-0.00817,0.01318,-0.98820,2023,6,12,13,37,22,48
0.09250,2.95750,-4.65500,0.00000,-0.00830,0.01623,-0.98735,2023,6,12,13,37,22,59
0.09260,2.92250,-4.74250,0.00000,-0.00891,0.01549,-0.98552,2023,6,12,13,37,22,70
0.09270,3.06250,-4.72500,0.00000,-0.00903,0.01464,-0.98722,2023,6,12,13,37,22,81
0.09280,2.87000,-4.48000,0.00000,-0.01013,0.01427,-0.98954,2023,6,12,13,37,22,93
0.09290,2.83500,-4.58500,0.00000,-0.01000,0.01452,-0.98844,2023,6,12,13,37,22,104
0.09300,2.90500,-4.53250,0.00000,-0.00878,0.01452,-0.99052,2023,6,12,13,37,22,115
0.09310,2.90500,-4.53250,0.00000,-0.00830,0.01562,-0.98881,2023,6,12,13,37,22,126
0.09320,2.94000,-4.63750,0.00000,-0.00769,0.01440,-0.98661,2023,6,12,13,37,22,137
0.09330,2.64250,-4.34000,0.00000,-0.00964,0.01525,-0.98991,2023,6,12,13,37,22,148
0.09340,3.01000,-4.53250,0.00000,-0.01025,0.01452,-0.98564,2023,6,12,13,37,22,159
0.09350,2.99250,-4.65500,0.00000,-0.01025,0.01208,-0.98881,2023,6,12,13,37,22,170
0.09360,2.69500,-4.46250,0.00000,-0.00805,0.01440,-0.98564,2023,6,12,13,37,22,181
0.09370,2.99250,-4.65500,0.00000,-0.00915,0.01293,-0.99101,2023,6,12,13,37,22,193
0.09380,2.87000,-4.39250,0.00000,-0.00817,0.01476,-0.98503,2023,6,12,13,37,22,204
0.09390,3.11500,-4.67250,0.00000,-0.01098,0.01488,-0.98735,2023,6,12,13,37,22,215
0.09400,2.76500,-4.44500,0.00000,-0.00842,0.01269,-0.99015,2023,6,12,13,37,22,226
0.09410,2.95750,-4.49750,0.00000,-0.00756,0.01488,-0.98857,2023,6,12,13,37,22,237
0.09420,2.83500,-4.55000,0.00000,-0.01098,0.01330,-0.98588,2023,6,12,13,37,22,248
0.09430,2.95750,-4.81250,0.00000,-0.01000,0.01269,-0.98881,2023,6,12,13,37,22,259
0.09440,2.95750,-4.65500,0.00000,-0.00817,0.01537,-0.98698,2023,6,12,13,37,22,270
0.09450,2.92250,-4.49750,0.00000,-0.00939,0.01208,-0.98747,2023,6,12,13,37,22,281
0.09460,2.83500,-4.49750,0.00000,-0.00988,0.01635,-0.98881,2023,6,12,13,37,22,293
0.09470,3.04500,-4.76000,0.00000,-0.01074,0.01562,-0.98783,2023,6,12,13,37,22,304
0.09480,2.97500,-4.37500,0.00000,-0.01098,0.01293,-0.99076,2023,6,12,13,37,22,315
0.09490,2.76500,-4.48000,0.00000,-0.00744,0.01305,-0.98869,2023,6,12,13,37,22,326
0.09500,2.95750,-4.37500,0.00000,-0.00976,0.01476,-0.98735,2023,6,12,13,37,22,337
0.09510,2.76500,-4.81250,0.00000,-0.00939,0.01476,-0.99064,2023,6,12,13,37,22,348
0.09520,2.81750,-4.56750,0.00000,-0.00952,0.01415,-0.99003,2023,6,12,13,37,22,359
0.09530,2.95750,-4.49750,0.00000,-0.00964,0.01476,-0.98771,2023,6,12,13,37,22,370
0.09540,2.74750,-4.51500,0.00000,-0.00708,0.01403,-0.98820,2023,6,12,13,37,22,381
0.09550,2.90500,-4.60250,0.00000,-0.00830,0.01391,-0.98942,2023,6,12,13,37,22,393
0.09560,2.97500,-4.49750,0.00000,-0.00695,0.01366,-0.98710,2023,6,12,13,37,22,404
0.09570,3.01000,-4.60250,0.00000,-0.00805,0.01452,-0.98869,2023,6,12,13,37,22,415
0.09580,2.73000,-4.58500,0.00000,-0.00793,0.01257,-0.98808,2023,6,12,13,37,22,426
0.09590,2.78250,-4.41000,0.00000,-0.00915,0.01525,-0.98954,2023,6,12,13,37,22,437
0.09600,3.02750,-4.65500,0.00000,-0.00976,0.01757,-0.98722,2023,6,12,13,37,22,448
0.09610,2.92250,-4.35750,0.00000,-0.00891,0.01476,-0.98869,2023,6,12,13,37,22,459
0.09620,2.81750,-4.41000,0.00000,-0.01074,0.01488,-0.98783,2023,6,12,13,37,22,470
0.09630,2.90500,-4.35750,0.00000,-0.00854,0.01403,-0.98881,2023,6,12,13,37,22,481
0.09640,2.92250,-4.53250,0.00000,-0.00976,0.01488,-0.98918,2023,6,12,13,37,22,493
0.09650,2.74750,-4.25250,0.00000,-0.01171,0.01488,-0.98930,2023,6,12,13,37,22,504
0.09660,2.88750,-4.55000,0.00000,-0.01098,0.01354,-0.98796,2023,6,12,13,37,22,515
0.09670,2.88750,-4.62000,0.00000,-0.00830,0.01452,-0.98966,2023,6,12,13,37,22,526
0.09680,2.94000,-4.58500,0.00000,-0.00939,0.01330,-0.98808,2023,6,12,13,37,22,537
0.09690,2.83500,-4.55000,0.00000,-0.00878,0.01452,-0.98649,2023,6,12,13,37,22,548
0.09700,3.04500,-4.58500,0.00000,-0.01086,0.01464,-0.99125,2023,6,12,13,37,22,559
0.09710,2.71250,-4.55000,0.00000,-0.01074,0.01513,-0.99003,2023,6,12,13,37,22,570
0.09720,2.87000,-4.56750,0.00000,-0.01037,0.01366,-0.98783,2023,6,12,13,37,22,581
0.09730,3.08000,-4.60250,0.00000,-0.00903,0.01623,-0.98881,2023,6,12,13,37,22,593
0.09740,2.94000,-4.53250,0.00000,-0.00927,0.01501,-0.98661,2023,6,12,13,37,22,604
0.09750,2.85250,-4.46250,0.00000,-0.01000,0.01452,-0.99040,2023,6,12,13,37,22,615
0.09760,3.11500,-4.74250,0.00000,-0.00805,0.01525,-0.98771,2023,6,12,13,37,22,626
0.09770,2.97500,-4.69000,0.00000,-0.00830,0.01488,-0.98759,2023,6,12,13,37,22,637
0.09780,2.99250,-4.58500,0.00000,-0.01000,0.01537,-0.99088,2023,6,12,13,37,22,648
0.09790,2.92250,-4.65500,0.00000,-0.00952,0.01549,-0.98674,2023,6,12,13,37,22,659
0.09800,3.06250,-4.79500,0.00000,-0.00769,0.01342,-0.98966,2023,6,12,13,37,22,670
0.09810,3.02750,-4.74250,0.00000,-0.00952,0.01513,-0.99040,2023,6,12,13,37,22,681
0.09820,2.99250,-4.48000,0.00000,-0.00939,0.01549,-0.98991,2023,6,12,13,37,22,693
0.09830,3.01000,-4.49750,0.00000,-0.00781,0.01391,-0.98735,2023,6,12,13,37,22,704
0.09840,2.88750,-4.56750,0.00000,-0.01013,0.01647,-0.98844,2023,6,12,13,37,22,715
0.09850,2.94000,-4.37500,0.00000,-0.00939,0.01354,-0.98735,2023,6,12,13,37,22,726
0.09860,2.90500,-4.53250,0.00000,-0.00939,0.01293,-0.98930,2023,6,12,13,37,22,737
0.09870,3.02750,-4.56750,0.00000,-0.01037,0.01452,-0.98783,2023,6,12,13,37,22,748
0.09880,3.01000,-4.35750,0.00000,-0.00976,0.01379,-0.98905,2023,6,12,13,37,22,759
0.09890,3.06250,-4.51500,0.00000,-0.00964,0.01415,-0.98674,2023,6,12,13,37,22,770
0.09900,2.95750,-4.62000,0.00000,-0.00927,0.01513,-0.98796,2023,6,12,13,37,22,781
0.09910,3.13250,-4.51500,0.00000,-0.00976,0.01513,-0.98918,2023,6,12,13,37,22,793
0.09920,2.80000,-4.37500,0.00000,-0.00939,0.01391,-0.98783,2023,6,12,13,37,22,804
0.09930,2.85250,-4.69000,0.00000,-0.01037,0.01427,-0.98808,2023,6,12,13,37,22,815
0.09940,2.80000,-4.69000,0.00000,-0.00891,0.01464,-0.98771,2023,6,12,13,37,22,826
0.09950,3.06250,-4.48000,0.00000,-0.00878,0.01513,-0.99003,2023,6,12,13,37,22,837
0.09960,2.92250,-4.56750,0.00000,-0.00903,0.01464,-0.98649,2023,6,12,13,37,22,848
0.09970,2.73000,-4.55000,0.00000,-0.01000,0.01305,-0.98783,2023,6,12,13,37,22,859
0.09980,2.99250,-4.63750,0.00000,-0.01000,0.01293,-0.98808,2023,6,12,13,37,22,870
0.09990,2.78250,-4.55000,0.00000,-0.01037,0.01427,-0.98442,2023,6,12,13,37,22,881
0.10000,3.15000,-4.72500,0.00000,-0.00878,0.01427,-0.98979,2023,6,12,13,37,22,893
0.10010,2.99250,-4.69000,0.00000,-0.01147,0.01476,-0.98832,2023,6,12,13,37,22,904
0.10020,2.99250,-4.74250,0.00000,-0.00976,0.01379,-0.98796,2023,6,12,13,37,22,915
0.10030,2.85250,-4.56750,0.00000,-0.00915,0.01318,-0.98686,2023,6,12,13,37,22,926
0.10040,2.95750,-4.55000,0.00000,-0.00976,0.01171,-0.98613,2023,6,12,13,37,22,937
0.10050,2.83500,-4.53250,0.00000,-0.01037,0.01342,-0.98771,2023,6,12,13,37,22,948
0.10060,2.67750,-4.53250,0.00000,-0.01037,0.01623,-0.98747,2023,6,12,13,37,22,959
0.10070,2.99250,-4.42750,0.00000,-0.01049,0.01196,-0.98869,2023,6,12,13,37,23,0
0.10080,2.92250,-4.49750,0.00000,-0.00915,0.01427,-0.98600,2023,6,12,13,37,23,11
0.10090,2.97500,-4.46250,0.00000,-0.00866,0.01415,-0.98674,2023,6,12,13,37,23,23
0.10100,2.97500,-4.70750,0.00000,-0.01049,0.01379,-0.98539,2023,6,12,13,37,23,34
0.10110,2.95750,-4.60250,0.00000,-0.00952,0.01440,-0.98918,2023,6,12,13,37,23,45
0.10120,2.76500,-4.60250,0.00000,-0.01037,0.01427,-0.99015,2023,6,12,13,37,23,56
0.10130,2.87000,-4.69000,0.00000,-0.01061,0.01525,-0.98808,2023,6,12,13,37,23,67
0.10140,2.74750,-4.42750,0.00000,-0.00805,0.01586,-0.98625,2023,6,12,13,37,23,78
0.10150,2.76500,-4.58500,0.00000,-0.00793,0.01513,-0.99003,2023,6,12,13,37,23,89
0.10160,2.95750,-4.69000,0.00000,-0.00927,0.01452,-0.98625,2023,6,12,13,37,23,100
0.10170,2.97500,-4.70750,0.00000,-0.01147,0.01525,-0.99003,2023,6,12,13,37,23,111
0.10180,2.90500,-4.60250,0.00000,-0.00952,0.01366,-0.98649,2023,6,12,13,37,23,123
0.10190,2.90500,-4.67250,0.00000,-0.00952,0.01537,-0.99040,2023,6,12,13,37,23,134
0.10200,2.69500,-4.42750,0.00000,-0.00903,0.01366,-0.98722,2023,6,12,13,37,23,145
0.10210,2.97500,-4.69000,0.00000,-0.01013,0.01549,-0.98966,2023,6,12,13,37,23,156
0.10220,2.83500,-4.72500,0.00000,-0.01000,0.01318,-0.98783,2023,6,12,13,37,23,167
0.10230,2.87000,-4.25250,0.00000,-0.00891,0.01366,-0.98588,2023,6,12,13,37,23,178
0.10240,2.88750,-4.51500,0.00000,-0.00927,0.01427,-0.98991,2023,6,12,13,37,23,189
0.10250,2.83500,-4.56750,0.00000,-0.00927,0.01354,-0.98954,2023,6,12,13,37,23,200
0.10260,2.78250,-4.53250,0.00000,-0.01086,0.01330,-0.98857,2023,6,12,13,37,23,211
0.10270,2.88750,-4.37500,0.00000,-0.00878,0.01598,-0.98637,2023,6,12,13,37,23,223
0.10280,2.88750,-4.53250,0.00000,-0.00891,0.01647,-0.99113,2023,6,12,13,37,23,234
0.10290,2.80000,-4.42750,0.00000,-0.01025,0.01403,-0.99003,2023,6,12,13,37,23,245
0.10300,2.83500,-4.55000,0.00000,-0.01159,0.01586,-0.98942,2023,6,12,13,37,23,256
0.10310,2.90500,-4.55000,0.00000,-0.01171,0.01476,-0.98588,2023,6,12,13,37,23,267
0.10320,2.83500,-4.41000,0.00000,-0.00915,0.01635,-0.98820,2023,6,12,13,37,23,278
0.10330,2.80000,-4.30500,0.00000,-0.01025,0.01305,-0.98869,2023,6,12,13,37,23,289
0.10340,2.92250,-4.51500,0.00000,-0.00988,0.01049,-0.98735,2023,6,12,13,37,23,300
0.10350,2.88750,-4.56750,0.00000,-0.00952,0.01415,-0.98930,2023,6,12,13,37,23,311
0.10360,2.88750,-4.28750,0.00000,-0.00769,0.01488,-0.99064,2023,6,12,13,37,23,323
0.10370,2.88750,-4.37500,0.00000,-0.01074,0.01342,-0.98979,2023,6,12,13,37,23,334
0.10380,2.95750,-4.60250,0.00000,-0.00878,0.01330,-0.98796,2023,6,12,13,37,23,345
0.10390,2.71250,-4.51500,0.00000,-0.01000,0.01562,-0.98905,2023,6,12,13,37,23,356
0.10400,2.85250,-4.42750,0.00000,-0.00976,0.01574,-0.98857,2023,6,12,13,37,23,367
0.10410,2.80000,-4.21750,0.00000,-0.00915,0.01586,-0.98808,2023,6,12,13,37,23,378
0.10420,2.99250,-4.51500,0.00000,-0.00903,0.01318,-0.98515,2023,6,12,13,37,23,389
0.10430,3.09750,-4.46250,0.00000,-0.00964,0.01440,-0.99003,2023,6,12,13,37,23,400
0.10440,2.87000,-4.58500,0.00000,-0.00927,0.01440,-0.98661,2023,6,12,13,37,23,411
0.10450,2.88750,-4.53250,0.00000,-0.00988,0.01501,-0.98844,2023,6,12,13,37,23,423
0.10460,2.92250,-4.63750,0.00000,-0.00964,0.01427,-0.98954,2023,6,12,13,37,23,434
0.10470,2.90500,-4.72500,0.00000,-0.00927,0.01488,-0.98564,2023,6,12,13,37,23,445
0.10480,2.92250,-4.46250,0.00000,-0.01025,0.01342,-0.98844,2023,6,12,13,37,23,456
0.10490,2.73000,-4.48000,0.00000,-0.00830,0.01354,-0.98796,2023,6,12,13,37,23,467
0.10500,2.92250,-4.39250,0.00000,-0.00854,0.01354,-0.98918,2023,6,12,13,37,23,478
0.10510,2.92250,-4.63750,0.00000,-0.00988,0.01549,-0.98710,2023,6,12,13,37,23,489
0.10520,2.85250,-4.58500,0.00000,-0.00891,0.01379,-0.98869,2023,6,12,13,37,23,500
0.10530,2.85250,-4.51500,0.00000,-0.01074,0.01574,-0.98820,2023,6,12,13,37,23,511
0.10540,3.06250,-4.88250,0.00000,-0.00854,0.01476,-0.98710,2023,6,12,13,37,23,523
0.10550,2.81750,-4.35750,0.00000,-0.01147,0.01330,-0.98564,2023,6,12,13,37,23,534
0.10560,2.94000,-4.49750,0.00000,-0.00756,0.01525,-0.98893,2023,6,12,13,37,23,545
0.10570,2.87000,-4.51500,0.00000,-0.00952,0.01269,-0.98905,2023,6,12,13,37,23,556
0.10580,2.99250,-4.44500,0.00000,-0.00805,0.01464,-0.98747,2023,6,12,13,37,23,567
0.10590,3.01000,-4.77750,0.00000,-0.00927,0.01708,-0.98637,2023,6,12,13,37,23,578
0.10600,2.64250,-4.20000,0.00000,-0.00952,0.01379,-0.98564,2023,6,12,13,37,23,589
0.10610,2.92250,-4.48000,0.00000,-0.00939,0.01452,-0.98698,2023,6,12,13,37,23,600
0.10620,2.83500,-4.51500,0.00000,-0.00988,0.01342,-0.98649,2023,6,12,13,37,23,611
0.10630,2.88750,-4.60250,0.00000,-0.01013,0.01330,-0.98674,2023,6,12,13,37,23,623
0.10640,2.87000,-4.53250,0.00000,-0.00866,0.01513,-0.99198,2023,6,12,13,37,23,634
0.10650,2.92250,-4.62000,0.00000,-0.01049,0.01513,-0.98881,2023,6,12,13,37,23,645
0.10660,2.88750,-4.49750,0.00000,-0.01171,0.01501,-0.99137,2023,6,12,13,37,23,656
0.10670,3.04500,-4.62000,0.00000,-0.00915,0.01379,-0.98613,2023,6,12,13,37,23,667
0.10680,2.94000,-4.63750,0.00000,-0.01061,0.01610,-0.98783,2023,6,12,13,37,23,678
0.10690,2.69500,-4.48000,0.00000,-0.00939,0.01330,-0.98698,2023,6,12,13,37,23,689
0.10700,2.78250,-4.53250,0.00000,-0.01037,0.01403,-0.98759,2023,6,12,13,37,23,700
0.10710,2.81750,-4.56750,0.00000,-0.01049,0.01598,-0.98783,2023,6,12,13,37,23,711
0.10720,2.80000,-4.46250,0.00000,-0.00915,0.01501,-0.98954,2023,6,12,13,37,23,723
0.10730,2.90500,-4.60250,0.00000,-0.00976,0.01549,-0.98979,2023,6,12,13,37,23,734
0.10740,2.94000,-4.65500,0.00000,-0.00976,0.01525,-0.98796,2023,6,12,13,37,23,745
0.10750,2.80000,-4.44500,0.00000,-0.00988,0.01610,-0.99003,2023,6,12,13,37,23,756
0.10760,2.83500,-4.70750,0.00000,-0.01098,0.01452,-0.98844,2023,6,12,13,37,23,767
0.10770,2.71250,-4.56750,0.00000,-0.00878,0.01415,-0.98759,2023,6,12,13,37,23,778
0.10780,2.67750,-4.49750,0.00000,-0.01074,0.01623,-0.98918,2023,6,12,13,37,23,789
0.10790,2.76500,-4.39250,0.00000,-0.01000,0.01659,-0.99052,2023,6,12,13,37,23,800
0.10800,2.94000,-4.48000,0.00000,-0.00891,0.01403,-0.98771,2023,6,12,13,37,23,811
0.10810,2.92250,-4.58500,0.00000,-0.01037,0.01391,-0.98832,2023,6,12,13,37,23,823
0.10820,2.66000,-4.41000,0.00000,-0.00939,0.01379,-0.99137,2023,6,12,13,37,23,834
0.10830,2.90500,-4.53250,0.00000,-0.01049,0.01342,-0.98698,2023,6,12,13,37,23,845
0.10840,2.80000,-4.48000,0.00000,-0.00805,0.01647,-0.99186,2023,6,12,13,37,23,856
0.10850,2.88750,-4.56750,0.00000,-0.01098,0.01379,-0.98832,2023,6,12,13,37,23,867
0.10860,2.78250,-4.42750,0.00000,-0.00878,0.01427,-0.98442,2023,6,12,13,37,23,878
0.10870,2.69500,-4.48000,0.00000,-0.00976,0.01342,-0.98832,2023,6,12,13,37,23,889
0.10880,2.81750,-4.48000,0.00000,-0.00927,0.01586,-0.98796,2023,6,12,13,37,23,900
0.10890,2.81750,-4.42750,0.00000,-0.00720,0.01305,-0.98881,2023,6,12,13,37,23,911
0.10900,2.90500,-4.41000,0.00000,-0.00915,0.01342,-0.98808,2023,6,12,13,37,23,923
0.10910,2.78250,-4.41000,0.00000,-0.00988,0.01513,-0.98979,2023,6,12,13,37,23,934
0.10920,2.69500,-4.35750,0.00000,-0.01025,0.01452,-0.98979,2023,6,12,13,37,23,945
0.10930,2.99250,-4.56750,0.00000,-0.00695,0.01403,-0.99003,2023,6,12,13,37,23,956
0.10940,2.85250,-4.51500,0.00000,-0.01037,0.01562,-0.98686,2023,6,12,13,37,24,7
0.10950,2.90500,-4.60250,0.00000,-0.00964,0.01562,-0.98710,2023,6,12,13,37,24,18
0.10960,2.76500,-4.39250,0.00000,-0.00939,0.01257,-0.99015,2023,6,12,13,37,24,29
0.10970,2.87000,-4.65500,0.00000,-0.00854,0.01440,-0.98881,2023,6,12,13,37,24,40
0.10980,2.83500,-4.27000,0.00000,-0.01147,0.01427,-0.98796,2023,6,12,13,37,24,51
0.10990,2.87000,-4.58500,0.00000,-0.00866,0.01257,-0.98808,2023,6,12,13,37,24,63
0.11000,2.87000,-4.58500,0.00000,-0.00939,0.01562,-0.98954,2023,6,12,13,37,24,74
0.11010,2.97500,-4.65500,0.00000,-0.00964,0.01415,-0.98735,2023,6,12,13,37,24,85
0.11020,2.83500,-4.41000,0.00000,-0.00854,0.01537,-0.98966,2023,6,12,13,37,24,96
0.11030,2.76500,-4.62000,0.00000,-0.00915,0.01318,-0.98710,2023,6,12,13,37,24,107
0.11040,2.94000,-4.51500,0.00000,-0.01086,0.01513,-0.98649,2023,6,12,13,37,24,118
0.11050,2.92250,-4.69000,0.00000,-0.00964,0.01464,-0.98771,2023,6,12,13,37,24,129
0.11060,2.83500,-4.44500,0.00000,-0.00976,0.01403,-0.98954,2023,6,12,13,37,24,140
0.11070,2.76500,-4.58500,0.00000,-0.00927,0.01464,-0.98722,2023,6,12,13,37,24,151
0.11080,2.85250,-4.46250,0.00000,-0.00903,0.01452,-0.98832,2023,6,12,13,37,24,163
0.11090,3.09750,-4.58500,0.00000,-0.01013,0.01440,-0.98905,2023,6,12,13,37,24,174
0.11100,2.99250,-4.49750,0.00000,-0.00878,0.01391,-0.98820,2023,6,12,13,37,24,185
0.11110,2.71250,-4.51500,0.00000,-0.01037,0.01379,-0.98881,2023,6,12,13,37,24,196
0.11120,2.85250,-4.42750,0.00000,-0.00744,0.01293,-0.99040,2023,6,12,13,37,24,207
0.11130,2.85250,-4.55000,0.00000,-0.00891,0.01391,-0.98881,2023,6,12,13,37,24,218
0.11140,2.94000,-4.44500,0.00000,-0.00830,0.01586,-0.98759,2023,6,12,13,37,24,229
0.11150,2.71250,-4.41000,0.00000,-0.00976,0.01574,-0.98857,2023,6,12,13,37,24,240
0.11160,2.78250,-4.34000,0.00000,-0.01037,0.01598,-0.98564,2023,6,12,13,37,24,251
0.11170,3.09750,-4.65500,0.00000,-0.01074,0.01574,-0.98869,2023,6,12,13,37,24,263
0.11180,2.94000,-4.58500,0.00000,-0.01013,0.01501,-0.98698,2023,6,12,13,37,24,274
0.11190,3.13250,-4.79500,0.00000,-0.01183,0.01440,-0.98747,2023,6,12,13,37,24,285
0.11200,2.83500,-4.56750,0.00000,-0.00866,0.01525,-0.98552,2023,6,12,13,37,24,296
0.11210,2.83500,-4.55000,0.00000,-0.00927,0.01537,-0.98686,2023,6,12,13,37,24,307
0.11220,3.08000,-4.41000,0.00000,-0.00988,0.01513,-0.98991,2023,6,12,13,37,24,318
0.11230,3.01000,-4.58500,0.00000,-0.00952,0.01427,-0.98625,2023,6,12,13,37,24,329
0.11240,2.90500,-4.58500,0.00000,-0.00952,0.01415,-0.99015,2023,6,12,13,37,24,340
0.11250,2.88750,-4.70750,0.00000,-0.01025,0.01366,-0.99003,2023,6,12,13,37,24,351
0.11260,2.87000,-4.41000,0.00000,-0.00952,0.01586,-0.98710,2023,6,12,13,37,24,363
0.11270,2.80000,-4.53250,0.00000,-0.00805,0.01562,-0.98966,2023,6,12,13,37,24,374
0.11280,2.95750,-4.55000,0.00000,-0.01220,0.01440,-0.98844,2023,6,12,13,37,24,385
0.11290,2.87000,-4.65500,0.00000,-0.01135,0.01208,-0.99210,2023,6,12,13,37,24,396
0.11300,3.02750,-4.25250,0.00000,-0.01061,0.01440,-0.98820,2023,6,12,13,37,24,407
0.11310,3.02750,-4.39250,0.00000,-0.01037,0.01488,-0.98686,2023,6,12,13,37,24,418
0.11320,2.90500,-4.58500,0.00000,-0.01074,0.01452,-0.99027,2023,6,12,13,37,24,429
0.11330,2.99250,-4.51500,0.00000,-0.01025,0.01452,-0.98735,2023,6,12,13,37,24,440
0.11340,2.90500,-4.51500,0.00000,-0.00952,0.01525,-0.98613,2023,6,12,13,37,24,451
0.11350,2.90500,-4.63750,0.00000,-0.01049,0.01549,-0.98417,2023,6,12,13,37,24,463
0.11360,2.90500,-4.60250,0.00000,-0.01098,0.01196,-0.98759,2023,6,12,13,37,24,474
0.11370,2.87000,-4.37500,0.00000,-0.01025,0.01366,-0.98820,2023,6,12,13,37,24,485
0.11380,3.01000,-4.60250,0.00000,-0.00866,0.01757,-0.98881,2023,6,12,13,37,24,496
0.11390,3.01000,-4.56750,0.00000,-0.00854,0.01488,-0.99064,2023,6,12,13,37,24,507
0.11400,2.90500,-4.27000,0.00000,-0.00817,0.01415,-0.98783,2023,6,12,13,37,24,518
0.11410,2.85250,-4.74250,0.00000,-0.00903,0.01610,-0.99052,2023,6,12,13,37,24,529
0.11420,2.81750,-4.74250,0.00000,-0.01037,0.01562,-0.98832,2023,6,12,13,37,24,540
0.11430,2.73000,-4.27000,0.00000,-0.00952,0.01537,-0.98966,2023,6,12,13,37,24,551
0.11440,3.02750,-4.53250,0.00000,-0.01000,0.01366,-0.98857,2023,6,12,13,37,24,563
0.11450,2.92250,-4.70750,0.00000,-0.00988,0.01476,-0.99198,2023,6,12,13,37,24,574
0.11460,2.83500,-4.60250,0.00000,-0.00830,0.01269,-0.98979,2023,6,12,13,37,24,585
0.11470,2.83500,-4.65500,0.00000,-0.00878,0.01488,-0.98832,2023,6,12,13,37,24,596
0.11480,2.74750,-4.58500,0.00000,-0.00927,0.01342,-0.98869,2023,6,12,13,37,24,607
0.11490,3.02750,-4.58500,0.00000,-0.00915,0.01562,-0.98588,2023,6,12,13,37,24,618
0.11500,2.88750,-4.53250,0.00000,-0.01122,0.01379,-0.98808,2023,6,12,13,37,24,629
0.11510,2.85250,-4.70750,0.00000,-0.00988,0.01562,-0.98771,2023,6,12,13,37,24,640
0.11520,2.97500,-4.55000,0.00000,-0.00793,0.01610,-0.98564,2023,6,12,13,37,24,651
0.11530,2.83500,-4.81250,0.00000,-0.01086,0.01354,-0.98966,2023,6,12,13,37,24,663
0.11540,2.88750,-4.74250,0.00000,-0.00939,0.01403,-0.98905,2023,6,12,13,37,24,674
0.11550,2.94000,-4.62000,0.00000,-0.01147,0.01342,-0.98942,2023,6,12,13,37,24,685
0.11560,2.88750,-4.48000,0.00000,-0.00744,0.01440,-0.98808,2023,6,12,13,37,24,696
0.11570,2.78250,-4.62000,0.00000,-0.00891,0.01379,-0.99003,2023,6,12,13,37,24,707
0.11580,2.95750,-4.63750,0.00000,-0.00976,0.01342,-0.98747,2023,6,12,13,37,24,718
0.11590,2.87000,-4.42750,0.00000,-0.00964,0.01440,-0.98905,2023,6,12,13,37,24,729
0.11600,3.08000,-4.63750,0.00000,-0.00939,0.01427,-0.99027,2023,6,12,13,37,24,740
0.11610,2.83500,-4.53250,0.00000,-0.00988,0.01379,-0.98930,2023,6,12,13,37,24,751
0.11620,2.73000,-4.60250,0.00000,-0.01000,0.01342,-0.98710,2023,6,12,13,37,24,763
0.11630,2.80000,-4.51500,0.00000,-0.00976,0.01342,-0.98686,2023,6,12,13,37,24,774
0.11640,3.01000,-4.67250,0.00000,-0.00842,0.01452,-0.98918,2023,6,12,13,37,24,785
0.11650,2.71250,-4.69000,0.00000,-0.00866,0.01610,-0.98942,2023,6,12,13,37,24,796
0.11660,2.88750,-4.51500,0.00000,-0.00964,0.01488,-0.98747,2023,6,12,13,37,24,807
0.11670,2.92250,-4.46250,0.00000,-0.01086,0.01415,-0.98991,2023,6,12,13,37,24,818
0.11680,3.01000,-4.72500,0.00000,-0.00878,0.01366,-0.98893,2023,6,12,13,37,24,829
0.11690,3.01000,-4.65500,0.00000,-0.00854,0.01415,-0.98783,2023,6,12,13,37,24,840
0.11700,2.74750,-4.69000,0.00000,-0.00805,0.01366,-0.98869,2023,6,12,13,37,24,851
0.11710,2.87000,-4.44500,0.00000,-0.01000,0.01586,-0.99064,2023,6,12,13,37,24,863
0.11720,2.87000,-4.55000,0.00000,-0.00939,0.01452,-0.99052,2023,6,12,13,37,24,874
0.11730,2.76500,-4.56750,0.00000,-0.00952,0.01379,-0.98735,2023,6,12,13,37,24,885
0.11740,2.94000,-4.34000,0.00000,-0.01049,0.01354,-0.99137,2023,6,12,13,37,24,896
0.11750,3.06250,-4.72500,0.00000,-0.01049,0.01318,-0.98747,2023,6,12,13,37,24,907
0.11760,2.90500,-4.53250,0.00000,-0.00842,0.01391,-0.99125,2023,6,12,13,37,24,918
0.11770,2.85250,-4.51500,0.00000,-0.01086,0.01354,-0.99040,2023,6,12,13,37,24,929
0.11780,2.74750,-4.35750,0.00000,-0.01025,0.01281,-0.98966,2023,6,12,13,37,24,940
0.11790,2.92250,-4.67250,0.00000,-0.01037,0.01440,-0.99076,2023,6,12,13,37,24,951
0.11800,3.04500,-4.51500,0.00000,-0.01037,0.01354,-0.98930,2023,6,12,13,37,24,963
0.11810,2.80000,-4.48000,0.00000,-0.00952,0.01403,-0.99125,2023,6,12,13,37,24,974
0.11820,2.87000,-4.44500,0.00000,-0.01086,0.01305,-0.99052,2023,6,12,13,37,25,5
0.11830,3.01000,-4.67250,0.00000,-0.00903,0.01366,-0.99137,2023,6,12,13,37,25,16
0.11840,2.64250,-4.53250,0.00000,-0.01110,0.01415,-0.98979,2023,6,12,13,37,25,27
0.11850,2.97500,-4.72500,0.00000,-0.00927,0.01391,-0.99003,2023,6,12,13,37,25,38
0.11860,2.90500,-4.46250,0.00000,-0.00915,0.01269,-0.99235,2023,6,12,13,37,25,49
0.11870,2.78250,-4.53250,0.00000,-0.00939,0.01281,-0.98991,2023,6,12,13,37,25,60
0.11880,2.95750,-4.42750,0.00000,-0.00964,0.01452,-0.98771,2023,6,12,13,37,25,71
0.11890,3.04500,-4.58500,0.00000,-0.00842,0.01305,-0.98722,2023,6,12,13,37,25,83
0.11900,2.90500,-4.88250,0.00000,-0.00793,0.01415,-0.98991,2023,6,12,13,37,25,94
0.11910,2.80000,-4.51500,0.00000,-0.01037,0.01610,-0.99284,2023,6,12,13,37,25,105
0.11920,3.06250,-4.69000,0.00000,-0.00927,0.01440,-0.99357,2023,6,12,13,37,25,116
0.11930,3.11500,-4.53250,0.00000,-0.00866,0.01391,-0.99125,2023,6,12,13,37,25,127
0.11940,2.90500,-4.34000,0.00000,-0.01049,0.01135,-0.99027,2023,6,12,13,37,25,138
0.11950,2.90500,-4.49750,0.00000,-0.01000,0.01525,-0.98759,2023,6,12,13,37,25,149
0.11960,2.92250,-4.69000,0.00000,-0.00915,0.01610,-0.99076,2023,6,12,13,37,25,160
0.11970,2.81750,-4.44500,0.00000,-0.00817,0.01244,-0.98832,2023,6,12,13,37,25,171
0.11980,3.11500,-4.65500,0.00000,-0.01061,0.01562,-0.98771,2023,6,12,13,37,25,183
0.11990,2.78250,-4.53250,0.00000,-0.01049,0.01305,-0.99027,2023,6,12,13,37,25,194
0.12000,3.04500,-4.53250,0.00000,-0.01025,0.01379,-0.98930,2023,6,12,13,37,25,205
0.12010,2.92250,-4.70750,0.00000,-0.01013,0.01208,-0.98881,2023,6,12,13,37,25,216
0.12020,2.90500,-4.58500,0.00000,-0.00927,0.01257,-0.98979,2023,6,12,13,37,25,227
0.12030,2.97500,-4.62000,0.00000,-0.00866,0.01415,-0.98942,2023,6,12,13,37,25,238
0.12040,2.85250,-4.51500,0.00000,-0.00842,0.01366,-0.98844,2023,6,12,13,37,25,249
0.12050,2.90500,-4.39250,0.00000,-0.01147,0.01415,-0.98796,2023,6,12,13,37,25,260
0.12060,2.85250,-4.30500,0.00000,-0.01013,0.01623,-0.98844,2023,6,12,13,37,25,271
0.12070,3.01000,-4.67250,0.00000,-0.01000,0.01452,-0.99186,2023,6,12,13,37,25,283
0.12080,2.92250,-4.58500,0.00000,-0.01232,0.01452,-0.99271,2023,6,12,13,37,25,294
0.12090,2.88750,-4.65500,0.00000,-0.00952,0.01318,-0.99113,2023,6,12,13,37,25,305
0.12100,2.80000,-4.46250,0.00000,-0.00805,0.01415,-0.99174,2023,6,12,13,37,25,316
0.12110,2.97500,-4.44500,0.00000,-0.00891,0.01269,-0.98893,2023,6,12,13,37,25,327
0.12120,2.76500,-4.46250,0.00000,-0.00842,0.01501,-0.98844,2023,6,12,13,37,25,338
0.12130,2.97500,-4.37500,0.00000,-0.01183,0.01440,-0.99040,2023,6,12,13,37,25,349
0.12140,2.95750,-4.44500,0.00000,-0.00781,0.01379,-0.98942,2023,6,12,13,37,25,360
0.12150,2.71250,-4.49750,0.00000,-0.01037,0.01208,-0.98771,2023,6,12,13,37,25,371
0.12160,2.87000,-4.60250,0.00000,-0.00927,0.01562,-0.98771,2023,6,12,13,37,25,383
0.12170,2.80000,-4.48000,0.00000,-0.00805,0.01427,-0.98747,2023,6,12,13,37,25,394
0.12180,2.83500,-4.49750,0.00000,-0.01013,0.01415,-0.98722,2023,6,12,13,37,25,405
0.12190,2.95750,-4.62000,0.00000,-0.00769,0.01598,-0.98869,2023,6,12,13,37,25,416
0.12200,3.09750,-4.72500,0.00000,-0.00952,0.01440,-0.98686,2023,6,12,13,37,25,427
0.12210,2.78250,-4.44500,0.00000,-0.00927,0.01623,-0.98710,2023,6,12,13,37,25,438
0.12220,3.01000,-4.56750,0.00000,-0.00793,0.01562,-0.98771,2023,6,12,13,37,25,449
0.12230,3.04500,-4.62000,0.00000,-0.00964,0.01513,-0.99040,2023,6,12,13,37,25,460
0.12240,2.85250,-4.49750,0.00000,-0.01110,0.01464,-0.98747,2023,6,12,13,37,25,471
0.12250,2.90500,-4.67250,0.00000,-0.01196,0.01537,-0.98905,2023,6,12,13,37,25,483
0.12260,2.81750,-4.65500,0.00000,-0.00952,0.01342,-0.98893,2023,6,12,13,37,25,494
0.12270,2.85250,-4.60250,0.00000,-0.01061,0.01452,-0.99174,2023,6,12,13,37,25,505
0.12280,2.74750,-4.56750,0.00000,-0.01013,0.01708,-0.98918,2023,6,12,13,37,25,516
0.12290,2.71250,-4.44500,0.00000,-0.00976,0.01293,-0.99101,2023,6,12,13,37,25,527
0.12300,2.76500,-4.60250,0.00000,-0.00976,0.01196,-0.98808,2023,6,12,13,37,25,538
0.12310,2.90500,-4.37500,0.00000,-0.00891,0.01427,-0.98881,2023,6,12,13,37,25,549
0.12320,2.94000,-4.39250,0.00000,-0.00866,0.01574,-0.98966,2023,6,12,13,37,25,560
0.12330,2.92250,-4.25250,0.00000,-0.00769,0.01464,-0.99040,2023,6,12,13,37,25,571
0.12340,2.76500,-4.53250,0.00000,-0.00866,0.01452,-0.99064,2023,6,12,13,37,25,583
0.12350,2.83500,-4.74250,0.00000,-0.00891,0.01464,-0.98808,2023,6,12,13,37,25,594
0.12360,2.83500,-4.67250,0.00000,-0.00891,0.01476,-0.99088,2023,6,12,13,37,25,605
0.12370,2.73000,-4.60250,0.00000,-0.00952,0.01354,-0.98686,2023,6,12,13,37,25,616
0.12380,3.08000,-4.74250,0.00000,-0.01000,0.01488,-0.99174,2023,6,12,13,37,25,627
0.12390,2.87000,-4.60250,0.00000,-0.01013,0.01366,-0.98759,2023,6,12,13,37,25,638
0.12400,2.85250,-4.49750,0.00000,-0.01135,0.01366,-0.99149,2023,6,12,13,37,25,649
0.12410,2.78250,-4.25250,0.00000,-0.01037,0.01476,-0.99393,2023,6,12,13,37,25,660
0.12420,2.76500,-4.51500,0.00000,-0.00842,0.01415,-0.99064,2023,6,12,13,37,25,671
0.12430,2.90500,-4.63750,0.00000,-0.01122,0.01513,-0.99393,2023,6,12,13,37,25,683
0.12440,2.92250,-4.53250,0.00000,-0.01049,0.01525,-0.99247,2023,6,12,13,37,25,694
0.12450,2.81750,-4.48000,0.00000,-0.01086,0.01354,-0.98869,2023,6,12,13,37,25,705
0.12460,2.55500,-4.44500,0.00000,-0.01110,0.01318,-0.98820,2023,6,12,13,37,25,716
0.12470,2.74750,-4.42750,0.00000,-0.00939,0.01586,-0.99088,2023,6,12,13,37,25,727
0.12480,2.74750,-4.53250,0.00000,-0.00732,0.01574,-0.99015,2023,6,12,13,37,25,738
0.12490,2.78250,-4.48000,0.00000,-0.01013,0.01537,-0.98905,2023,6,12,13,37,25,749
0.12500,2.92250,-4.49750,0.00000,-0.00903,0.01501,-0.99125,2023,6,12,13,37,25,760
0.12510,3.04500,-4.53250,0.00000,-0.00976,0.01244,-0.99259,2023,6,12,13,37,25,771
0.12520,2.76500,-4.62000,0.00000,-0.01025,0.01269,-0.99162,2023,6,12,13,37,25,783
0.12530,2.94000,-4.39250,0.00000,-0.00952,0.01513,-0.98857,2023,6,12,13,37,25,794
0.12540,2.78250,-4.60250,0.00000,-0.00988,0.01366,-0.98979,2023,6,12,13,37,25,805
0.12550,2.76500,-4.44500,0.00000,-0.01098,0.01427,-0.98893,2023,6,12,13,37,25,816
0.12560,2.64250,-4.51500,0.00000,-0.00976,0.01293,-0.99149,2023,6,12,13,37,25,827
0.12570,2.81750,-4.51500,0.00000,-0.00817,0.01391,-0.98979,2023,6,12,13,37,25,838
0.12580,2.88750,-4.58500,0.00000,-0.00854,0.01366,-0.98783,2023,6,12,13,37,25,849
0.12590,3.01000,-4.69000,0.00000,-0.01110,0.01244,-0.99003,2023,6,12,13,37,25,860
0.12600,2.74750,-4.67250,0.00000,-0.01147,0.01476,-0.99064,2023,6,12,13,37,25,871
0.12610,2.76500,-4.44500,0.00000,-0.00781,0.01330,-0.99259,2023,6,12,13,37,25,883
0.12620,2.87000,-4.41000,0.00000,-0.00964,0.01391,-0.98905,2023,6,12,13,37,25,894
0.12630,2.90500,-4.42750,0.00000,-0.00769,0.01586,-0.99088,2023,6,12,13,37,25,905
0.12640,2.92250,-4.34000,0.00000,-0.00927,0.01562,-0.98979,2023,6,12,13,37,25,916
0.12650,2.95750,-4.32250,0.00000,-0.01110,0.01257,-0.98808,2023,6,12,13,37,25,927
0.12660,2.74750,-4.32250,0.00000,-0.00988,0.01476,-0.98881,2023,6,12,13,37,25,938
0.12670,2.87000,-4.41000,0.00000,-0.01013,0.01464,-0.98881,2023,6,12,13,37,25,949
0.12680,2.95750,-4.62000,0.00000,-0.00842,0.01598,-0.98991,2023,6,12,13,37,25,960
0.12690,3.01000,-4.69000,0.00000,-0.00915,0.01415,-0.98832,2023,6,12,13,37,26,1
0.12700,2.83500,-4.42750,0.00000,-0.01025,0.01598,-0.98857,2023,6,12,13,37,26,13
0.12710,2.76500,-4.55000,0.00000,-0.00915,0.01647,-0.99210,2023,6,12,13,37,26,24
0.12720,2.78250,-4.42750,0.00000,-0.00952,0.01830,-0.99064,2023,6,12,13,37,26,35
0.12730,2.94000,-4.49750,0.00000,-0.00976,0.01403,-0.98869,2023,6,12,13,37,26,46
0.12740,3.04500,-4.58500,0.00000,-0.00927,0.01135,-0.98942,2023,6,12,13,37,26,57
0.12750,3.08000,-4.51500,0.00000,-0.00964,0.01501,-0.99113,2023,6,12,13,37,26,68
0.12760,2.78250,-4.35750,0.00000,-0.01049,0.01610,-0.99296,2023,6,12,13,37,26,79
0.12770,2.85250,-4.51500,0.00000,-0.00915,0.01427,-0.98674,2023,6,12,13,37,26,90
0.12780,2.94000,-4.53250,0.00000,-0.00769,0.01379,-0.99064,2023,6,12,13,37,26,101
0.12790,2.83500,-4.30500,0.00000,-0.00744,0.01464,-0.98759,2023,6,12,13,37,26,113
0.12800,2.85250,-4.62000,0.00000,-0.00976,0.01452,-0.98893,2023,6,12,13,37,26,124
0.12810,2.76500,-4.65500,0.00000,-0.01208,0.01318,-0.99162,2023,6,12,13,37,26,135
0.12820,2.85250,-4.67250,0.00000,-0.00952,0.01427,-0.98759,2023,6,12,13,37,26,146
0.12830,2.83500,-4.46250,0.00000,-0.00842,0.01293,-0.98881,2023,6,12,13,37,26,157
0.12840,2.78250,-4.58500,0.00000,-0.00695,0.01366,-0.98942,2023,6,12,13,37,26,168
0.12850,2.88750,-4.41000,0.00000,-0.00817,0.01415,-0.98771,2023,6,12,13,37,26,179
0.12860,2.74750,-4.18250,0.00000,-0.00878,0.01366,-0.99174,2023,6,12,13,37,26,190
0.12870,2.88750,-4.46250,0.00000,-0.01013,0.01464,-0.99320,2023,6,12,13,37,26,201
0.12880,3.09750,-4.37500,0.00000,-0.01098,0.01440,-0.99162,2023,6,12,13,37,26,213
0.12890,2.92250,-4.39250,0.00000,-0.00732,0.01293,-0.98893,2023,6,12,13,37,26,224
0.12900,2.78250,-4.60250,0.00000,-0.00964,0.01379,-0.99101,2023,6,12,13,37,26,235
0.12910,3.11500,-4.51500,0.00000,-0.01147,0.01488,-0.98979,2023,6,12,13,37,26,246
0.12920,2.85250,-4.48000,0.00000,-0.00976,0.01342,-0.98857,2023,6,12,13,37,26,257
0.12930,2.94000,-4.63750,0.00000,-0.00927,0.01440,-0.98979,2023,6,12,13,37,26,268
0.12940,2.87000,-4.55000,0.00000,-0.01025,0.01549,-0.99308,2023,6,12,13,37,26,279
0.12950,2.92250,-4.74250,0.00000,-0.01025,0.01403,-0.99149,2023,6,12,13,37,26,290
0.12960,2.95750,-4.51500,0.00000,-0.01037,0.01513,-0.99101,2023,6,12,13,37,26,301
0.12970,2.87000,-4.62000,0.00000,-0.01000,0.01501,-0.99125,2023,6,12,13,37,26,313
0.12980,2.88750,-4.65500,0.00000,-0.00878,0.01379,-0.98881,2023,6,12,13,37,26,324
0.12990,2.87000,-4.42750,0.00000,-0.01013,0.01427,-0.98857,2023,6,12,13,37,26,335
0.13000,3.06250,-4.49750,0.00000,-0.01196,0.01281,-0.99015,2023,6,12,13,37,26,346
0.13010,2.81750,-4.30500,0.00000,-0.00939,0.01452,-0.98918,2023,6,12,13,37,26,357
0.13020,3.06250,-4.49750,0.00000,-0.00732,0.01476,-0.98991,2023,6,12,13,37,26,368
0.13030,3.01000,-4.55000,0.00000,-0.00903,0.01098,-0.99137,2023,6,12,13,37,26,379
0.13040,2.81750,-4.46250,0.00000,-0.01037,0.01452,-0.98905,2023,6,12,13,37,26,390
0.13050,2.87000,-4.76000,0.00000,-0.01000,0.01635,-0.98942,2023,6,12,13,37,26,401
0.13060,2.95750,-4.41000,0.00000,-0.01110,0.01305,-0.98832,2023,6,12,13,37,26,413
0.13070,2.92250,-4.55000,0.00000,-0.00964,0.01452,-0.98966,2023,6,12,13,37,26,424
0.13080,2.87000,-4.67250,0.00000,-0.00952,0.01659,-0.98979,2023,6,12,13,37,26,435
0.13090,2.90500,-4.44500,0.00000,-0.01122,0.01525,-0.98930,2023,6,12,13,37,26,446
0.13100,2.83500,-4.56750,0.00000,-0.01171,0.01366,-0.98820,2023,6,12,13,37,26,457
0.13110,2.64250,-4.35750,0.00000,-0.00927,0.01659,-0.98698,2023,6,12,13,37,26,468
0.13120,2.88750,-4.58500,0.00000,-0.00854,0.01415,-0.98698,2023,6,12,13,37,26,479
0.13130,2.87000,-4.55000,0.00000,-0.01110,0.01220,-0.98869,2023,6,12,13,37,26,490
0.13140,3.06250,-4.48000,0.00000,-0.01000,0.01305,-0.98625,2023,6,12,13,37,26,501
0.13150,2.76500,-4.55000,0.00000,-0.01074,0.01464,-0.98954,2023,6,12,13,37,26,513
0.13160,2.95750,-4.49750,0.00000,-0.00964,0.01379,-0.98796,2023,6,12,13,37,26,524
0.13170,2.66000,-4.32250,0.00000,-0.00927,0.01635,-0.98881,2023,6,12,13,37,26,535
0.13180,2.74750,-4.62000,0.00000,-0.00976,0.01379,-0.98625,2023,6,12,13,37,26,546
0.13190,2.67750,-4.60250,0.00000,-0.01000,0.01342,-0.99052,2023,6,12,13,37,26,557
0.13200,2.92250,-4.76000,0.00000,-0.00854,0.01269,-0.99174,2023,6,12,13,37,26,568
0.13210,2.76500,-4.53250,0.00000,-0.01013,0.01537,-0.98686,2023,6,12,13,37,26,579
0.13220,2.94000,-4.44500,0.00000,-0.00891,0.01525,-0.98710,2023,6,12,13,37,26,590
0.13230,2.78250,-4.55000,0.00000,-0.01061,0.01354,-0.98881,2023,6,12,13,37,26,601
0.13240,2.90500,-4.35750,0.00000,-0.00744,0.01586,-0.99125,2023,6,12,13,37,26,613
0.13250,2.95750,-4.58500,0.00000,-0.00793,0.01330,-0.99064,2023,6,12,13,37,26,624
0.13260,2.92250,-4.62000,0.00000,-0.01037,0.01379,-0.98674,2023,6,12,13,37,26,635
0.13270,2.80000,-4.25250,0.00000,-0.00952,0.01464,-0.98954,2023,6,12,13,37,26,646
0.13280,2.90500,-4.65500,0.00000,-0.01061,0.01281,-0.98844,2023,6,12,13,37,26,657
0.13290,2.74750,-4.62000,0.00000,-0.00830,0.01403,-0.98674,2023,6,12,13,37,26,668
0.13300,2.94000,-4.63750,0.00000,-0.01110,0.01379,-0.98857,2023,6,12,13,37,26,679
0.13310,2.80000,-4.70750,0.00000,-0.00939,0.01537,-0.98942,2023,6,12,13,37,26,690
0.13320,3.04500,-4.56750,0.00000,-0.00866,0.01513,-0.98735,2023,6,12,13,37,26,701
0.13330,2.88750,-4.44500,0.00000,-0.01037,0.01366,-0.98698,2023,6,12,13,37,26,713
0.13340,2.95750,-4.72500,0.00000,-0.00891,0.01562,-0.98759,2023,6,12,13,37,26,724
0.13350,2.99250,-4.46250,0.00000,-0.00830,0.01452,-0.98820,2023,6,12,13,37,26,735
0.13360,2.99250,-4.46250,0.00000,-0.01025,0.01269,-0.98918,2023,6,12,13,37,26,746
0.13370,2.92250,-4.62000,0.00000,-0.01000,0.01220,-0.98954,2023,6,12,13,37,26,757
0.13380,2.81750,-4.51500,0.00000,-0.00988,0.01415,-0.98857,2023,6,12,13,37,26,768
0.13390,3.15000,-4.65500,0.00000,-0.00927,0.01464,-0.99015,2023,6,12,13,37,26,779
0.13400,2.97500,-4.28750,0.00000,-0.00891,0.01501,-0.98918,2023,6,12,13,37,26,790
0.13410,2.95750,-4.76000,0.00000,-0.00939,0.01281,-0.98808,2023,6,12,13,37,26,801
0.13420,2.80000,-4.74250,0.00000,-0.01098,0.01427,-0.98918,2023,6,12,13,37,26,813
0.13430,2.83500,-4.79500,0.00000,-0.01013,0.01403,-0.99113,2023,6,12,13,37,26,824
0.13440,3.01000,-4.56750,0.00000,-0.00720,0.01232,-0.99027,2023,6,12,13,37,26,835
0.13450,3.01000,-4.51500,0.00000,-0.00781,0.01403,-0.99027,2023,6,12,13,37,26,846
0.13460,3.09750,-4.48000,0.00000,-0.01110,0.01610,-0.98783,2023,6,12,13,37,26,857
0.13470,2.81750,-4.46250,0.00000,-0.00744,0.01586,-0.98722,2023,6,12,13,37,26,868
0.13480,2.88750,-4.53250,0.00000,-0.00805,0.01403,-0.98771,2023,6,12,13,37,26,879
0.13490,2.87000,-4.44500,0.00000,-0.00891,0.01647,-0.99015,2023,6,12,13,37,26,890
0.13500,2.92250,-4.44500,0.00000,-0.00805,0.01183,-0.98625,2023,6,12,13,37,26,901
0.13510,2.92250,-4.55000,0.00000,-0.00903,0.01476,-0.98698,2023,6,12,13,37,26,913
0.13520,3.04500,-4.74250,0.00000,-0.00695,0.01305,-0.99125,2023,6,12,13,37,26,924
0.13530,3.01000,-4.55000,0.00000,-0.00976,0.01574,-0.99101,2023,6,12,13,37,26,935
0.13540,2.76500,-4.56750,0.00000,-0.00988,0.01427,-0.98674,2023,6,12,13,37,26,946
0.13550,2.90500,-4.63750,0.00000,-0.00964,0.01403,-0.98918,2023,6,12,13,37,26,957
0.13560,2.90500,-4.51500,0.00000,-0.00915,0.01391,-0.99101,2023,6,12,13,37,26,968
0.13570,2.83500,-4.62000,0.00000,-0.00952,0.01379,-0.98881,2023,6,12,13,37,27,9
0.13580,3.01000,-4.51500,0.00000,-0.00915,0.01415,-0.98881,2023,6,12,13,37,27,20
0.13590,2.83500,-4.44500,0.00000,-0.00891,0.01659,-0.99149,2023,6,12,13,37,27,31
0.13600,2.90500,-4.44500,0.00000,-0.00878,0.01427,-0.98881,2023,6,12,13,37,27,43
0.13610,3.01000,-4.67250,0.00000,-0.01110,0.01391,-0.98893,2023,6,12,13,37,27,54
0.13620,2.85250,-4.56750,0.00000,-0.00988,0.01720,-0.98796,2023,6,12,13,37,27,65
0.13630,2.97500,-4.49750,0.00000,-0.00769,0.01513,-0.98820,2023,6,12,13,37,27,76
0.13640,2.97500,-4.51500,0.00000,-0.01074,0.01464,-0.99137,2023,6,12,13,37,27,87
0.13650,2.81750,-4.44500,0.00000,-0.00891,0.01366,-0.98832,2023,6,12,13,37,27,98
0.13660,2.87000,-4.63750,0.00000,-0.00878,0.01342,-0.98954,2023,6,12,13,37,27,109
0.13670,2.81750,-4.55000,0.00000,-0.00781,0.01501,-0.99125,2023,6,12,13,37,27,120
0.13680,2.81750,-4.39250,0.00000,-0.00988,0.01342,-0.98857,2023,6,12,13,37,27,131
0.13690,2.94000,-4.48000,0.00000,-0.00988,0.01232,-0.98930,2023,6,12,13,37,27,143
0.13700,2.85250,-4.44500,0.00000,-0.00854,0.01562,-0.98674,2023,6,12,13,37,27,154
0.13710,2.97500,-4.51500,0.00000,-0.00891,0.01598,-0.98759,2023,6,12,13,37,27,165
0.13720,2.88750,-4.53250,0.00000,-0.00903,0.01281,-0.99027,2023,6,12,13,37,27,176
0.13730,2.99250,-4.56750,0.00000,-0.00830,0.01537,-0.98820,2023,6,12,13,37,27,187
0.13740,2.81750,-4.56750,0.00000,-0.01000,0.01452,-0.99015,2023,6,12,13,37,27,198
0.13750,2.88750,-4.44500,0.00000,-0.01025,0.01452,-0.98808,2023,6,12,13,37,27,209
0.13760,2.90500,-4.60250,0.00000,-0.00878,0.01232,-0.99027,2023,6,12,13,37,27,220
0.13770,2.83500,-4.70750,0.00000,-0.01074,0.01220,-0.98698,2023,6,12,13,37,27,231
0.13780,3.06250,-4.48000,0.00000,-0.01135,0.01244,-0.99076,2023,6,12,13,37,27,243
0.13790,2.78250,-4.60250,0.00000,-0.00976,0.01318,-0.99076,2023,6,12,13,37,27,254
0.13800,2.94000,-4.58500,0.00000,-0.00842,0.01366,-0.99101,2023,6,12,13,37,27,265
0.13810,2.85250,-4.51500,0.00000,-0.00915,0.01440,-0.98905,2023,6,12,13,37,27,276
0.13820,2.97500,-4.55000,0.00000,-0.00878,0.01220,-0.98881,2023,6,12,13,37,27,287
0.13830,2.94000,-4.53250,0.00000,-0.00830,0.01537,-0.98735,2023,6,12,13,37,27,298
0.13840,2.88750,-4.39250,0.00000,-0.00866,0.01379,-0.98796,2023,6,12,13,37,27,309
0.13850,2.94000,-4.44500,0.00000,-0.00964,0.01379,-0.98808,2023,6,12,13,37,27,320
0.13860,2.97500,-4.53250,0.00000,-0.01074,0.01220,-0.99015,2023,6,12,13,37,27,331
0.13870,2.97500,-4.76000,0.00000,-0.00830,0.01513,-0.98759,2023,6,12,13,37,27,343
0.13880,2.99250,-4.53250,0.00000,-0.00830,0.01330,-0.98930,2023,6,12,13,37,27,354
0.13890,2.87000,-4.55000,0.00000,-0.00830,0.01537,-0.99015,2023,6,12,13,37,27,365
0.13900,3.01000,-4.53250,0.00000,-0.01013,0.01269,-0.99003,2023,6,12,13,37,27,376
0.13910,2.73000,-4.65500,0.00000,-0.01025,0.01501,-0.98832,2023,6,12,13,37,27,387
0.13920,2.90500,-4.37500,0.00000,-0.00976,0.01452,-0.98930,2023,6,12,13,37,27,398
0.13930,2.83500,-4.37500,0.00000,-0.00952,0.01476,-0.98966,2023,6,12,13,37,27,409
0.13940,2.81750,-4.41000,0.00000,-0.00915,0.01488,-0.99015,2023,6,12,13,37,27,420
0.13950,2.85250,-4.55000,0.00000,-0.00805,0.01379,-0.99040,2023,6,12,13,37,27,431
0.13960,2.92250,-4.81250,0.00000,-0.01122,0.01427,-0.98637,2023,6,12,13,37,27,443
0.13970,2.74750,-4.65500,0.00000,-0.00817,0.01366,-0.98771,2023,6,12,13,37,27,454
0.13980,2.76500,-4.58500,0.00000,-0.00817,0.01501,-0.99052,2023,6,12,13,37,27,465
0.13990,3.06250,-4.62000,0.00000,-0.00964,0.01537,-0.98808,2023,6,12,13,37,27,476
0.14000,2.94000,-4.69000,0.00000,-0.00939,0.01366,-0.98930,2023,6,12,13,37,27,487
0.14010,2.76500,-4.35750,0.00000,-0.01037,0.01196,-0.99137,2023,6,12,13,37,27,498
0.14020,3.01000,-4.55000,0.00000,-0.01000,0.01488,-0.98930,2023,6,12,13,37,27,509
0.14030,2.76500,-4.55000,0.00000,-0.00976,0.01464,-0.98625,2023,6,12,13,37,27,520
0.14040,2.92250,-4.49750,0.00000,-0.00964,0.01342,-0.98979,2023,6,12,13,37,27,531
0.14050,2.83500,-4.55000,0.00000,-0.01037,0.01293,-0.98991,2023,6,12,13,37,27,543
0.14060,2.87000,-4.60250,0.00000,-0.00927,0.01427,-0.98905,2023,6,12,13,37,27,554
0.14070,3.01000,-4.70750,0.00000,-0.01122,0.01464,-0.98747,2023,6,12,13,37,27,565
0.14080,2.88750,-4.39250,0.00000,-0.00976,0.01891,-0.99064,2023,6,12,13,37,27,576
0.14090,2.71250,-4.69000,0.00000,-0.00830,0.01440,-0.99015,2023,6,12,13,37,27,587
0.14100,3.01000,-4.74250,0.00000,-0.00952,0.01598,-0.99137,2023,6,12,13,37,27,598
0.14110,2.92250,-4.58500,0.00000,-0.01000,0.01318,-0.98796,2023,6,12,13,37,27,609
0.14120,2.60750,-4.49750,0.00000,-0.00939,0.01427,-0.98698,2023,6,12,13,37,27,620
0.14130,2.94000,-4.55000,0.00000,-0.00952,0.01452,-0.99052,2023,6,12,13,37,27,631
0.14140,2.99250,-4.55000,0.00000,-0.00939,0.01501,-0.98905,2023,6,12,13,37,27,643
0.14150,2.90500,-4.60250,0.00000,-0.00903,0.01427,-0.98771,2023,6,12,13,37,27,654
0.14160,2.88750,-4.74250,0.00000,-0.01025,0.01391,-0.99040,2023,6,12,13,37,27,665
0.14170,2.67750,-4.51500,0.00000,-0.00817,0.01318,-0.99125,2023,6,12,13,37,27,676
0.14180,2.94000,-4.49750,0.00000,-0.00976,0.01476,-0.98918,2023,6,12,13,37,27,687
0.14190,3.13250,-4.51500,0.00000,-0.01159,0.01501,-0.98991,2023,6,12,13,37,27,698
0.14200,3.06250,-4.65500,0.00000,-0.01025,0.01598,-0.99198,2023,6,12,13,37,27,709
0.14210,2.92250,-4.51500,0.00000,-0.00927,0.01476,-0.98991,2023,6,12,13,37,27,720
0.14220,2.92250,-4.56750,0.00000,-0.01098,0.01379,-0.99027,2023,6,12,13,37,27,731
0.14230,2.97500,-4.58500,0.00000,-0.01037,0.01464,-0.98979,2023,6,12,13,37,27,743
0.14240,2.92250,-4.48000,0.00000,-0.00952,0.01488,-0.99015,2023,6,12,13,37,27,754
0.14250,2.83500,-4.72500,0.00000,-0.00915,0.01452,-0.98905,2023,6,12,13,37,27,765
0.14260,2.88750,-4.67250,0.00000,-0.01037,0.01525,-0.98905,2023,6,12,13,37,27,776
0.14270,3.11500,-4.69000,0.00000,-0.01074,0.01488,-0.98808,2023,6,12,13,37,27,787
0.14280,2.94000,-4.55000,0.00000,-0.00964,0.01659,-0.99186,2023,6,12,13,37,27,798
0.14290,2.81750,-4.60250,0.00000,-0.01049,0.01464,-0.98735,2023,6,12,13,37,27,809
0.14300,3.08000,-4.77750,0.00000,-0.00756,0.01452,-0.98869,2023,6,12,13,37,27,820
0.14310,2.85250,-4.55000,0.00000,-0.01061,0.01440,-0.99296,2023,6,12,13,37,27,831
0.14320,2.95750,-4.72500,0.00000,-0.00866,0.01391,-0.98674,2023,6,12,13,37,27,843
0.14330,2.55500,-4.41000,0.00000,-0.00854,0.01318,-0.99003,2023,6,12,13,37,27,854
0.14340,2.92250,-4.51500,0.00000,-0.00769,0.01354,-0.99076,2023,6,12,13,37,27,865
0.14350,3.01000,-4.42750,0.00000,-0.01037,0.01610,-0.98832,2023,6,12,13,37,27,876
0.14360,3.01000,-4.49750,0.00000,-0.00915,0.01305,-0.98796,2023,6,12,13,37,27,887
0.14370,2.95750,-4.72500,0.00000,-0.00891,0.01476,-0.99101,2023,6,12,13,37,27,898
0.14380,2.90500,-4.44500,0.00000,-0.00964,0.01440,-0.99235,2023,6,12,13,37,27,909
0.14390,2.78250,-4.62000,0.00000,-0.00927,0.01427,-0.98698,2023,6,12,13,37,27,920
0.14400,2.78250,-4.58500,0.00000,-0.00988,0.01464,-0.98722,2023,6,12,13,37,27,931
0.14410,2.81750,-4.67250,0.00000,-0.01061,0.01488,-0.98735,2023,6,12,13,37,27,943
0.14420,2.90500,-4.51500,0.00000,-0.01037,0.01476,-0.98881,2023,6,12,13,37,27,954
0.14430,2.87000,-4.58500,0.00000,-0.01244,0.01403,-0.98942,2023,6,12,13,37,27,965
0.14440,2.92250,-4.56750,0.00000,-0.01000,0.01366,-0.98930,2023,6,12,13,37,28,6
0.14450,2.78250,-4.49750,0.00000,-0.00964,0.01366,-0.98991,2023,6,12,13,37,28,17
0.14460,2.88750,-4.58500,0.00000,-0.00878,0.01513,-0.99442,2023,6,12,13,37,28,28
0.14470,2.88750,-4.56750,0.00000,-0.01049,0.01501,-0.99149,2023,6,12,13,37,28,39
0.14480,2.95750,-4.42750,0.00000,-0.01000,0.01330,-0.98893,2023,6,12,13,37,28,50
0.14490,2.87000,-4.55000,0.00000,-0.01000,0.01415,-0.99064,2023,6,12,13,37,28,61
0.14500,2.99250,-4.46250,0.00000,-0.00988,0.01379,-0.98869,2023,6,12,13,37,28,73
0.14510,2.85250,-4.56750,0.00000,-0.00939,0.01366,-0.98710,2023,6,12,13,37,28,84
0.14520,2.88750,-4.62000,0.00000,-0.01037,0.01293,-0.99149,2023,6,12,13,37,28,95
0.14530,2.90500,-4.72500,0.00000,-0.00988,0.01452,-0.98869,2023,6,12,13,37,28,106
0.14540,2.87000,-4.49750,0.00000,-0.01025,0.01135,-0.98991,2023,6,12,13,37,28,117
0.14550,2.87000,-4.48000,0.00000,-0.01025,0.01330,-0.98808,2023,6,12,13,37,28,128
0.14560,2.92250,-4.39250,0.00000,-0.01037,0.01330,-0.98979,2023,6,12,13,37,28,139
0.14570,2.88750,-4.48000,0.00000,-0.00842,0.01452,-0.98857,2023,6,12,13,37,28,150
0.14580,2.83500,-4.58500,0.00000,-0.01037,0.01501,-0.98832,2023,6,12,13,37,28,161
0.14590,2.81750,-4.55000,0.00000,-0.01318,0.01513,-0.98613,2023,6,12,13,37,28,173
0.14600,2.95750,-4.60250,0.00000,-0.00976,0.01513,-0.98710,2023,6,12,13,37,28,184
0.14610,2.88750,-4.49750,0.00000,-0.00903,0.01452,-0.98759,2023,6,12,13,37,28,195
0.14620,2.90500,-4.46250,0.00000,-0.01037,0.01342,-0.98881,2023,6,12,13,37,28,206
0.14630,2.73000,-4.44500,0.00000,-0.01025,0.01488,-0.99040,2023,6,12,13,37,28,217
