#2023/06/12 10:35:55
time,wx,wy,wz,ax,ay,az,yy,MM,dd,hh,mm,ss,ms
0.00000,3.16750,-4.69000,0.00000,0.03038,0.08943,-0.98503,2023,6,12,10,35,55,198
0.00010,3.16750,-4.70750,0.00000,0.02916,0.09016,-0.98637,2023,6,12,10,35,55,209
0.00020,3.04500,-4.44500,0.00000,0.03038,0.08869,-0.98417,2023,6,12,10,35,55,220
0.00030,3.09750,-4.58500,0.00000,0.02843,0.09113,-0.98503,2023,6,12,10,35,55,231
0.00040,2.94000,-4.35750,0.00000,0.02952,0.08930,-0.98356,2023,6,12,10,35,55,242
0.00050,2.97500,-4.46250,0.00000,0.02989,0.08869,-0.98564,2023,6,12,10,35,55,253
0.00060,3.01000,-4.72500,0.00000,0.02794,0.08760,-0.98332,2023,6,12,10,35,55,264
0.00070,2.99250,-4.53250,0.00000,0.03026,0.09101,-0.98527,2023,6,12,10,35,55,275
0.00080,3.22000,-4.67250,0.00000,0.02916,0.08979,-0.98356,2023,6,12,10,35,55,286
0.00090,3.04500,-4.44500,0.00000,0.03001,0.08943,-0.98478,2023,6,12,10,35,55,297
0.00100,3.01000,-4.49750,0.00000,0.03013,0.09052,-0.98503,2023,6,12,10,35,55,309
0.00110,3.15000,-4.67250,0.00000,0.02843,0.09052,-0.98503,2023,6,12,10,35,55,320
0.00120,3.06250,-4.53250,0.00000,0.02977,0.09211,-0.98820,2023,6,12,10,35,55,331
0.00130,3.01000,-4.60250,0.00000,0.02891,0.09028,-0.98430,2023,6,12,10,35,55,342
0.00140,2.94000,-4.49750,0.00000,0.02904,0.08918,-0.98393,2023,6,12,10,35,55,353
0.00150,3.15000,-4.90000,0.00000,0.02782,0.09113,-0.98478,2023,6,12,10,35,55,364
0.00160,3.01000,-4.35750,0.00000,0.02818,0.08882,-0.98564,2023,6,12,10,35,55,375
0.00170,3.06250,-4.55000,0.00000,0.02977,0.09065,-0.98393,2023,6,12,10,35,55,386
0.00180,3.15000,-4.55000,0.00000,0.02867,0.08723,-0.98356,2023,6,12,10,35,55,397
0.00190,3.06250,-4.56750,0.00000,0.02684,0.09004,-0.98320,2023,6,12,10,35,55,409
0.00200,3.13250,-4.55000,0.00000,0.03111,0.08894,-0.98515,2023,6,12,10,35,55,420
0.00210,3.02750,-4.70750,0.00000,0.02965,0.09028,-0.98491,2023,6,12,10,35,55,431
0.00220,3.23750,-4.53250,0.00000,0.03062,0.08991,-0.98332,2023,6,12,10,35,55,442
0.00230,3.02750,-4.62000,0.00000,0.02952,0.08943,-0.98552,2023,6,12,10,35,55,453
0.00240,3.09750,-4.83000,0.00000,0.03038,0.08821,-0.98247,2023,6,12,10,35,55,464
0.00250,3.18500,-4.55000,0.00000,0.02977,0.08918,-0.98247,2023,6,12,10,35,55,475
0.00260,3.30750,-4.77750,0.00000,0.02989,0.08991,-0.98149,2023,6,12,10,35,55,486
0.00270,3.30750,-4.55000,0.00000,0.03148,0.09187,-0.98356,2023,6,12,10,35,55,497
0.00280,3.02750,-4.55000,0.00000,0.03026,0.09065,-0.98222,2023,6,12,10,35,55,509
0.00290,2.97500,-4.55000,0.00000,0.02672,0.08808,-0.98295,2023,6,12,10,35,55,520
0.00300,3.04500,-4.62000,0.00000,0.02916,0.09040,-0.98356,2023,6,12,10,35,55,531
0.00310,2.99250,-4.58500,0.00000,0.02977,0.08894,-0.98478,2023,6,12,10,35,55,542
0.00320,3.22000,-4.67250,0.00000,0.02867,0.08711,-0.98356,2023,6,12,10,35,55,553
0.00330,3.23750,-4.69000,0.00000,0.02806,0.08747,-0.98552,2023,6,12,10,35,55,564
0.00340,3.11500,-4.74250,0.00000,0.03050,0.08894,-0.98466,2023,6,12,10,35,55,575
0.00350,3.22000,-4.77750,0.00000,0.03026,0.09028,-0.98405,2023,6,12,10,35,55,586
0.00360,2.83500,-4.49750,0.00000,0.03123,0.08808,-0.98332,2023,6,12,10,35,55,597
0.00370,3.04500,-4.72500,0.00000,0.02879,0.08674,-0.98576,2023,6,12,10,35,55,609
0.00380,3.27250,-4.49750,0.00000,0.02623,0.08650,-0.98381,2023,6,12,10,35,55,620
0.00390,3.11500,-4.67250,0.00000,0.02916,0.08735,-0.98259,2023,6,12,10,35,55,631
0.00400,2.92250,-4.39250,0.00000,0.02855,0.08918,-0.98881,2023,6,12,10,35,55,642
0.00410,3.08000,-4.48000,0.00000,0.02928,0.09174,-0.98503,2023,6,12,10,35,55,653
0.00420,3.11500,-4.62000,0.00000,0.02928,0.09089,-0.98613,2023,6,12,10,35,55,664
0.00430,2.97500,-4.44500,0.00000,0.02855,0.09004,-0.98234,2023,6,12,10,35,55,675
0.00440,3.18500,-4.56750,0.00000,0.02794,0.09113,-0.98454,2023,6,12,10,35,55,686
0.00450,3.04500,-4.53250,0.00000,0.02916,0.08930,-0.98491,2023,6,12,10,35,55,697
0.00460,3.09750,-4.65500,0.00000,0.03050,0.08906,-0.98161,2023,6,12,10,35,55,709
0.00470,3.02750,-4.44500,0.00000,0.02891,0.08955,-0.98613,2023,6,12,10,35,55,720
0.00480,3.25500,-4.51500,0.00000,0.02757,0.09016,-0.98381,2023,6,12,10,35,55,731
0.00490,3.09750,-4.63750,0.00000,0.03087,0.08882,-0.98564,2023,6,12,10,35,55,742
0.00500,3.08000,-4.51500,0.00000,0.02904,0.08821,-0.98515,2023,6,12,10,35,55,753
0.00510,3.02750,-4.70750,0.00000,0.02830,0.08979,-0.98527,2023,6,12,10,35,55,764
0.00520,3.22000,-4.62000,0.00000,0.03074,0.08894,-0.98308,2023,6,12,10,35,55,775
0.00530,2.92250,-4.37500,0.00000,0.02916,0.09138,-0.98491,2023,6,12,10,35,55,786
0.00540,3.22000,-4.83000,0.00000,0.02977,0.09052,-0.98417,2023,6,12,10,35,55,797
0.00550,2.99250,-4.55000,0.00000,0.02965,0.09235,-0.98564,2023,6,12,10,35,55,809
0.00560,3.09750,-4.70750,0.00000,0.02647,0.08821,-0.98466,2023,6,12,10,35,55,820
0.00570,3.11500,-4.48000,0.00000,0.02977,0.09052,-0.98503,2023,6,12,10,35,55,831
0.00580,3.09750,-4.72500,0.00000,0.03209,0.08979,-0.98088,2023,6,12,10,35,55,842
0.00590,3.25500,-4.53250,0.00000,0.03062,0.08845,-0.98393,2023,6,12,10,35,55,853
0.00600,3.09750,-4.44500,0.00000,0.02745,0.08882,-0.98466,2023,6,12,10,35,55,864
0.00610,3.20250,-4.69000,0.00000,0.02806,0.08833,-0.98491,2023,6,12,10,35,55,875
0.00620,3.02750,-4.60250,0.00000,0.03148,0.09016,-0.98466,2023,6,12,10,35,55,886
0.00630,3.30750,-4.79500,0.00000,0.02855,0.08979,-0.98332,2023,6,12,10,35,55,897
0.00640,2.94000,-4.44500,0.00000,0.02696,0.09077,-0.98564,2023,6,12,10,35,55,909
0.00650,3.09750,-4.62000,0.00000,0.02745,0.08906,-0.98283,2023,6,12,10,35,55,920
0.00660,3.09750,-4.72500,0.00000,0.02684,0.09004,-0.98442,2023,6,12,10,35,55,931
0.00670,3.09750,-4.48000,0.00000,0.02928,0.08955,-0.98454,2023,6,12,10,35,55,942
0.00680,3.06250,-4.63750,0.00000,0.02806,0.09065,-0.98808,2023,6,12,10,35,55,953
0.00690,3.16750,-4.44500,0.00000,0.03099,0.08845,-0.98454,2023,6,12,10,35,55,964
0.00700,3.25500,-4.77750,0.00000,0.02830,0.09028,-0.98747,2023,6,12,10,35,55,975
0.00710,2.99250,-4.42750,0.00000,0.02904,0.08979,-0.98588,2023,6,12,10,35,55,986
0.00720,3.30750,-4.67250,0.00000,0.02843,0.08979,-0.98637,2023,6,12,10,35,55,997
0.00730,3.23750,-4.62000,0.00000,0.02855,0.08967,-0.98637,2023,6,12,10,35,55,9
0.00740,3.01000,-4.60250,0.00000,0.02843,0.08979,-0.98247,2023,6,12,10,35,55,20
0.00750,2.90500,-4.48000,0.00000,0.02891,0.08784,-0.98320,2023,6,12,10,35,55,31
0.00760,3.04500,-4.58500,0.00000,0.03111,0.09296,-0.98308,2023,6,12,10,35,55,42
0.00770,3.01000,-4.70750,0.00000,0.02952,0.08882,-0.98527,2023,6,12,10,35,55,53
0.00780,3.18500,-4.72500,0.00000,0.03001,0.08906,-0.98576,2023,6,12,10,35,55,64
0.00790,2.97500,-4.60250,0.00000,0.02867,0.09065,-0.98320,2023,6,12,10,35,55,75
0.00800,3.06250,-4.76000,0.00000,0.02818,0.08930,-0.98039,2023,6,12,10,35,55,86
0.00810,2.97500,-4.46250,0.00000,0.02977,0.08772,-0.98320,2023,6,12,10,35,55,97
0.00820,3.16750,-4.74250,0.00000,0.02891,0.09138,-0.98369,2023,6,12,10,35,55,109
0.00830,2.90500,-4.46250,0.00000,0.02757,0.09028,-0.98722,2023,6,12,10,35,55,120
0.00840,3.18500,-4.51500,0.00000,0.02855,0.08943,-0.98393,2023,6,12,10,35,55,131
0.00850,3.02750,-4.48000,0.00000,0.03099,0.08869,-0.98515,2023,6,12,10,35,55,142
0.00860,2.99250,-4.53250,0.00000,0.02830,0.08601,-0.98637,2023,6,12,10,35,55,153
0.00870,3.13250,-4.74250,0.00000,0.02867,0.08930,-0.98344,2023,6,12,10,35,55,164
0.00880,2.99250,-4.72500,0.00000,0.03087,0.08857,-0.98283,2023,6,12,10,35,55,175
0.00890,2.99250,-4.42750,0.00000,0.02940,0.09113,-0.98393,2023,6,12,10,35,55,186
0.00900,3.09750,-4.70750,0.00000,0.02952,0.09065,-0.98332,2023,6,12,10,35,55,197
0.00910,3.16750,-4.77750,0.00000,0.02952,0.09174,-0.98527,2023,6,12,10,35,55,209
0.00920,3.04500,-4.55000,0.00000,0.03050,0.08955,-0.98576,2023,6,12,10,35,55,220
0.00930,3.09750,-4.70750,0.00000,0.02855,0.08808,-0.98417,2023,6,12,10,35,55,231
0.00940,3.06250,-4.60250,0.00000,0.02769,0.08833,-0.98271,2023,6,12,10,35,55,242
0.00950,3.23750,-4.77750,0.00000,0.02879,0.08930,-0.98491,2023,6,12,10,35,55,253
0.00960,3.02750,-4.35750,0.00000,0.02733,0.08784,-0.98539,2023,6,12,10,35,55,264
0.00970,3.27250,-4.51500,0.00000,0.03001,0.08784,-0.98320,2023,6,12,10,35,55,275
0.00980,3.02750,-4.46250,0.00000,0.03111,0.08943,-0.98356,2023,6,12,10,35,55,286
0.00990,3.02750,-4.76000,0.00000,0.02830,0.08796,-0.98576,2023,6,12,10,35,55,297
0.01000,2.99250,-4.63750,0.00000,0.02952,0.08967,-0.98527,2023,6,12,10,35,56,9
0.01010,3.29000,-4.76000,0.00000,0.03001,0.09040,-0.98539,2023,6,12,10,35,56,20
0.01020,3.08000,-4.56750,0.00000,0.02891,0.08833,-0.98442,2023,6,12,10,35,56,31
0.01030,2.94000,-4.51500,0.00000,0.03135,0.08955,-0.98405,2023,6,12,10,35,56,42
0.01040,2.99250,-4.55000,0.00000,0.02745,0.09174,-0.98613,2023,6,12,10,35,56,53
0.01050,3.02750,-4.63750,0.00000,0.02818,0.09089,-0.98539,2023,6,12,10,35,56,64
0.01060,3.08000,-4.56750,0.00000,0.02782,0.08955,-0.98539,2023,6,12,10,35,56,75
0.01070,3.09750,-4.51500,0.00000,0.02855,0.09089,-0.98588,2023,6,12,10,35,56,86
0.01080,3.01000,-4.55000,0.00000,0.02965,0.08967,-0.98344,2023,6,12,10,35,56,97
0.01090,3.06250,-4.70750,0.00000,0.02794,0.08991,-0.98369,2023,6,12,10,35,56,109
0.01100,3.23750,-4.63750,0.00000,0.03001,0.08796,-0.98430,2023,6,12,10,35,56,120
0.01110,3.22000,-4.48000,0.00000,0.02867,0.08857,-0.98356,2023,6,12,10,35,56,131
0.01120,2.97500,-4.48000,0.00000,0.02830,0.09150,-0.98405,2023,6,12,10,35,56,142
0.01130,3.11500,-4.51500,0.00000,0.02830,0.08930,-0.98588,2023,6,12,10,35,56,153
0.01140,3.02750,-4.51500,0.00000,0.02708,0.08991,-0.98234,2023,6,12,10,35,56,164
0.01150,3.15000,-4.65500,0.00000,0.02916,0.08833,-0.98600,2023,6,12,10,35,56,175
0.01160,3.04500,-4.84750,0.00000,0.03038,0.08930,-0.98210,2023,6,12,10,35,56,186
0.01170,2.90500,-4.62000,0.00000,0.02830,0.09162,-0.98442,2023,6,12,10,35,56,197
0.01180,2.90500,-4.49750,0.00000,0.02806,0.08869,-0.98527,2023,6,12,10,35,56,209
0.01190,3.06250,-4.69000,0.00000,0.03087,0.08857,-0.98454,2023,6,12,10,35,56,220
0.01200,2.90500,-4.56750,0.00000,0.02818,0.09113,-0.98515,2023,6,12,10,35,56,231
0.01210,2.90500,-4.65500,0.00000,0.02745,0.08918,-0.98478,2023,6,12,10,35,56,242
0.01220,3.15000,-4.60250,0.00000,0.02916,0.09113,-0.98417,2023,6,12,10,35,56,253
0.01230,3.13250,-4.53250,0.00000,0.03001,0.08979,-0.98527,2023,6,12,10,35,56,264
0.01240,3.08000,-4.32250,0.00000,0.03074,0.08918,-0.98137,2023,6,12,10,35,56,275
0.01250,3.15000,-4.53250,0.00000,0.03099,0.09016,-0.98393,2023,6,12,10,35,56,286
0.01260,3.02750,-4.56750,0.00000,0.03196,0.09016,-0.98320,2023,6,12,10,35,56,297
0.01270,3.02750,-4.56750,0.00000,0.02928,0.09150,-0.98625,2023,6,12,10,35,56,309
0.01280,3.09750,-4.67250,0.00000,0.03026,0.08747,-0.98234,2023,6,12,10,35,56,320
0.01290,3.06250,-4.56750,0.00000,0.02928,0.08930,-0.98417,2023,6,12,10,35,56,331
0.01300,2.90500,-4.51500,0.00000,0.03111,0.08918,-0.98356,2023,6,12,10,35,56,342
0.01310,3.02750,-4.44500,0.00000,0.02879,0.08979,-0.98527,2023,6,12,10,35,56,353
0.01320,2.87000,-4.44500,0.00000,0.02806,0.08845,-0.98405,2023,6,12,10,35,56,364
0.01330,3.08000,-4.58500,0.00000,0.03074,0.09016,-0.98698,2023,6,12,10,35,56,375
0.01340,3.09750,-4.51500,0.00000,0.03026,0.09223,-0.98442,2023,6,12,10,35,56,386
0.01350,3.08000,-4.49750,0.00000,0.03111,0.08967,-0.98552,2023,6,12,10,35,56,397
0.01360,3.09750,-4.39250,0.00000,0.02928,0.08979,-0.98271,2023,6,12,10,35,56,409
0.01370,3.01000,-4.62000,0.00000,0.02806,0.08857,-0.98710,2023,6,12,10,35,56,420
0.01380,3.23750,-4.55000,0.00000,0.02696,0.08821,-0.98088,2023,6,12,10,35,56,431
0.01390,3.13250,-4.76000,0.00000,0.02830,0.08979,-0.98527,2023,6,12,10,35,56,442
0.01400,2.88750,-4.49750,0.00000,0.02940,0.08918,-0.98564,2023,6,12,10,35,56,453
0.01410,3.13250,-4.74250,0.00000,0.02977,0.09004,-0.98417,2023,6,12,10,35,56,464
0.01420,2.99250,-4.49750,0.00000,0.02879,0.08930,-0.98173,2023,6,12,10,35,56,475
0.01430,2.99250,-4.60250,0.00000,0.02904,0.08943,-0.98320,2023,6,12,10,35,56,486
0.01440,3.22000,-4.49750,0.00000,0.02940,0.08991,-0.98271,2023,6,12,10,35,56,497
0.01450,3.20250,-4.48000,0.00000,0.02818,0.09065,-0.98381,2023,6,12,10,35,56,509
0.01460,3.08000,-4.48000,0.00000,0.02952,0.09077,-0.98527,2023,6,12,10,35,56,520
0.01470,2.97500,-4.83000,0.00000,0.03038,0.08943,-0.98271,2023,6,12,10,35,56,531
0.01480,3.30750,-4.88250,0.00000,0.02952,0.09089,-0.98466,2023,6,12,10,35,56,542
0.01490,3.13250,-4.55000,0.00000,0.02721,0.08869,-0.98503,2023,6,12,10,35,56,553
0.01500,2.92250,-4.63750,0.00000,0.03038,0.08833,-0.98332,2023,6,12,10,35,56,564
0.01510,3.06250,-4.63750,0.00000,0.03026,0.08943,-0.98442,2023,6,12,10,35,56,575
0.01520,3.16750,-4.69000,0.00000,0.02782,0.08735,-0.98539,2023,6,12,10,35,56,586
0.01530,2.90500,-4.55000,0.00000,0.03026,0.08821,-0.98430,2023,6,12,10,35,56,597
0.01540,3.11500,-4.69000,0.00000,0.02696,0.08760,-0.98222,2023,6,12,10,35,56,609
0.01550,3.11500,-4.37500,0.00000,0.02879,0.09065,-0.98796,2023,6,12,10,35,56,620
0.01560,3.04500,-4.30500,0.00000,0.02952,0.08967,-0.98405,2023,6,12,10,35,56,631
0.01570,3.23750,-4.56750,0.00000,0.02818,0.08906,-0.98393,2023,6,12,10,35,56,642
0.01580,3.08000,-4.69000,0.00000,0.02855,0.09065,-0.98247,2023,6,12,10,35,56,653
0.01590,3.13250,-4.76000,0.00000,0.02867,0.08894,-0.98454,2023,6,12,10,35,56,664
0.01600,3.13250,-4.77750,0.00000,0.02928,0.08979,-0.98491,2023,6,12,10,35,56,675
0.01610,3.11500,-4.69000,0.00000,0.02904,0.09028,-0.98393,2023,6,12,10,35,56,686
0.01620,3.25500,-4.58500,0.00000,0.03038,0.09126,-0.98430,2023,6,12,10,35,56,697
0.01630,2.92250,-4.53250,0.00000,0.03026,0.09040,-0.98332,2023,6,12,10,35,56,709
0.01640,3.11500,-4.48000,0.00000,0.03050,0.08955,-0.98356,2023,6,12,10,35,56,720
0.01650,3.02750,-4.62000,0.00000,0.02977,0.08638,-0.98259,2023,6,12,10,35,56,731
0.01660,3.04500,-4.67250,0.00000,0.02696,0.08967,-0.98466,2023,6,12,10,35,56,742
0.01670,3.02750,-4.62000,0.00000,0.02940,0.08967,-0.98283,2023,6,12,10,35,56,753
0.01680,2.99250,-4.70750,0.00000,0.03074,0.09040,-0.98515,2023,6,12,10,35,56,764
0.01690,3.09750,-4.70750,0.00000,0.02769,0.08906,-0.98491,2023,6,12,10,35,56,775
0.01700,3.18500,-4.56750,0.00000,0.02806,0.08869,-0.98503,2023,6,12,10,35,56,786
0.01710,3.13250,-4.79500,0.00000,0.02818,0.08991,-0.98442,2023,6,12,10,35,56,797
0.01720,3.18500,-4.55000,0.00000,0.02806,0.09174,-0.98527,2023,6,12,10,35,56,809
0.01730,3.01000,-4.35750,0.00000,0.03135,0.09187,-0.98320,2023,6,12,10,35,56,820
0.01740,3.36000,-4.77750,0.00000,0.02769,0.08833,-0.98356,2023,6,12,10,35,56,831
0.01750,3.15000,-4.69000,0.00000,0.03074,0.08955,-0.98369,2023,6,12,10,35,56,842
0.01760,3.08000,-4.53250,0.00000,0.02940,0.08930,-0.98308,2023,6,12,10,35,56,853
0.01770,3.22000,-4.81250,0.00000,0.02586,0.08918,-0.98442,2023,6,12,10,35,56,864
0.01780,2.81750,-4.37500,0.00000,0.02769,0.08784,-0.98430,2023,6,12,10,35,56,875
0.01790,2.92250,-4.39250,0.00000,0.02940,0.08967,-0.98442,2023,6,12,10,35,56,886
0.01800,3.02750,-4.46250,0.00000,0.02940,0.09150,-0.98539,2023,6,12,10,35,56,897
0.01810,3.20250,-4.48000,0.00000,0.02843,0.08772,-0.98442,2023,6,12,10,35,56,909
0.01820,3.15000,-4.60250,0.00000,0.02916,0.08808,-0.98369,2023,6,12,10,35,56,920
0.01830,3.18500,-4.79500,0.00000,0.02782,0.08833,-0.98625,2023,6,12,10,35,56,931
0.01840,3.15000,-4.72500,0.00000,0.02855,0.08967,-0.98320,2023,6,12,10,35,56,942
0.01850,3.18500,-4.69000,0.00000,0.02745,0.08918,-0.98186,2023,6,12,10,35,56,953
0.01860,2.97500,-4.56750,0.00000,0.03001,0.08930,-0.98442,2023,6,12,10,35,56,964
0.01870,3.08000,-4.65500,0.00000,0.02782,0.08918,-0.98454,2023,6,12,10,35,56,975
0.01880,3.08000,-4.63750,0.00000,0.02928,0.08979,-0.98283,2023,6,12,10,35,56,986
0.01890,3.27250,-4.65500,0.00000,0.02794,0.08882,-0.98710,2023,6,12,10,35,57,7
0.01900,3.02750,-4.58500,0.00000,0.02952,0.09126,-0.98808,2023,6,12,10,35,57,19
0.01910,3.20250,-4.55000,0.00000,0.02940,0.08882,-0.98796,2023,6,12,10,35,57,30
0.01920,3.08000,-4.60250,0.00000,0.02891,0.08967,-0.98356,2023,6,12,10,35,57,41
0.01930,2.94000,-4.51500,0.00000,0.02928,0.09004,-0.98600,2023,6,12,10,35,57,52
0.01940,2.99250,-4.67250,0.00000,0.03038,0.09052,-0.98539,2023,6,12,10,35,57,63
0.01950,3.13250,-4.58500,0.00000,0.03050,0.09004,-0.98552,2023,6,12,10,35,57,74
0.01960,3.06250,-4.39250,0.00000,0.02794,0.08699,-0.98405,2023,6,12,10,35,57,85
0.01970,3.06250,-4.56750,0.00000,0.02989,0.08955,-0.98503,2023,6,12,10,35,57,96
0.01980,3.09750,-4.58500,0.00000,0.02733,0.08833,-0.98539,2023,6,12,10,35,57,107
0.01990,3.11500,-4.72500,0.00000,0.02965,0.08869,-0.98600,2023,6,12,10,35,57,119
0.02000,2.92250,-4.30500,0.00000,0.03111,0.09004,-0.98356,2023,6,12,10,35,57,130
0.02010,3.20250,-4.63750,0.00000,0.02916,0.08772,-0.98320,2023,6,12,10,35,57,141
0.02020,3.02750,-4.62000,0.00000,0.02965,0.09077,-0.98649,2023,6,12,10,35,57,152
0.02030,3.02750,-4.55000,0.00000,0.02989,0.09016,-0.98442,2023,6,12,10,35,57,163
0.02040,2.94000,-4.53250,0.00000,0.03050,0.08967,-0.98210,2023,6,12,10,35,57,174
0.02050,3.06250,-4.60250,0.00000,0.03013,0.08821,-0.98442,2023,6,12,10,35,57,185
0.02060,2.99250,-4.58500,0.00000,0.03038,0.08821,-0.98332,2023,6,12,10,35,57,196
0.02070,3.06250,-4.56750,0.00000,0.03001,0.09040,-0.98320,2023,6,12,10,35,57,207
0.02080,3.08000,-4.55000,0.00000,0.03050,0.08869,-0.98430,2023,6,12,10,35,57,219
0.02090,3.13250,-4.39250,0.00000,0.02977,0.08955,-0.98320,2023,6,12,10,35,57,230
0.02100,2.95750,-4.46250,0.00000,0.03062,0.08955,-0.98283,2023,6,12,10,35,57,241
0.02110,3.22000,-4.51500,0.00000,0.02879,0.09052,-0.98210,2023,6,12,10,35,57,252
0.02120,3.20250,-4.42750,0.00000,0.02952,0.08857,-0.98661,2023,6,12,10,35,57,263
0.02130,3.04500,-4.62000,0.00000,0.02806,0.09028,-0.98405,2023,6,12,10,35,57,274
0.02140,3.18500,-4.49750,0.00000,0.02916,0.09040,-0.98442,2023,6,12,10,35,57,285
0.02150,2.94000,-4.58500,0.00000,0.02647,0.08955,-0.98588,2023,6,12,10,35,57,296
0.02160,3.23750,-4.51500,0.00000,0.02647,0.08833,-0.98503,2023,6,12,10,35,57,307
0.02170,3.13250,-4.55000,0.00000,0.02867,0.09113,-0.98393,2023,6,12,10,35,57,319
0.02180,3.23750,-4.34000,0.00000,0.03074,0.08723,-0.98320,2023,6,12,10,35,57,330
0.02190,3.11500,-4.55000,0.00000,0.02928,0.08930,-0.98308,2023,6,12,10,35,57,341
0.02200,3.18500,-4.56750,0.00000,0.02843,0.08991,-0.98454,2023,6,12,10,35,57,352
0.02210,3.11500,-4.67250,0.00000,0.02867,0.08955,-0.98283,2023,6,12,10,35,57,363
0.02220,3.22000,-4.53250,0.00000,0.02818,0.09162,-0.98503,2023,6,12,10,35,57,374
0.02230,2.99250,-4.35750,0.00000,0.02916,0.08906,-0.98661,2023,6,12,10,35,57,385
0.02240,3.09750,-4.55000,0.00000,0.03038,0.09065,-0.98393,2023,6,12,10,35,57,396
0.02250,2.92250,-4.44500,0.00000,0.03001,0.08930,-0.98625,2023,6,12,10,35,57,407
0.02260,3.02750,-4.67250,0.00000,0.02928,0.08943,-0.98454,2023,6,12,10,35,57,419
0.02270,3.09750,-4.70750,0.00000,0.02879,0.09004,-0.98259,2023,6,12,10,35,57,430
0.02280,3.02750,-4.53250,0.00000,0.03135,0.08784,-0.98588,2023,6,12,10,35,57,441
0.02290,3.18500,-4.56750,0.00000,0.02794,0.08796,-0.98454,2023,6,12,10,35,57,452
0.02300,3.08000,-4.55000,0.00000,0.02977,0.09040,-0.98686,2023,6,12,10,35,57,463
0.02310,3.02750,-4.88250,0.00000,0.02928,0.08906,-0.98356,2023,6,12,10,35,57,474
0.02320,2.97500,-4.44500,0.00000,0.02952,0.08894,-0.98283,2023,6,12,10,35,57,485
0.02330,2.99250,-4.56750,0.00000,0.03062,0.08967,-0.98369,2023,6,12,10,35,57,496
0.02340,2.95750,-4.42750,0.00000,0.03135,0.09028,-0.98503,2023,6,12,10,35,57,507
0.02350,3.15000,-4.41000,0.00000,0.02928,0.09065,-0.98478,2023,6,12,10,35,57,519
0.02360,3.22000,-4.49750,0.00000,0.02855,0.08906,-0.98454,2023,6,12,10,35,57,530
0.02370,3.11500,-4.51500,0.00000,0.03013,0.08857,-0.98381,2023,6,12,10,35,57,541
0.02380,2.87000,-4.56750,0.00000,0.02916,0.08845,-0.98600,2023,6,12,10,35,57,552
0.02390,3.02750,-4.58500,0.00000,0.02818,0.08845,-0.98210,2023,6,12,10,35,57,563
0.02400,3.22000,-4.42750,0.00000,0.02952,0.08894,-0.98369,2023,6,12,10,35,57,574
0.02410,3.16750,-4.44500,0.00000,0.03123,0.09004,-0.98125,2023,6,12,10,35,57,585
0.02420,3.02750,-4.25250,0.00000,0.03026,0.08882,-0.98393,2023,6,12,10,35,57,596
0.02430,3.15000,-4.49750,0.00000,0.02879,0.08967,-0.98539,2023,6,12,10,35,57,607
0.02440,3.15000,-4.56750,0.00000,0.02782,0.08662,-0.98503,2023,6,12,10,35,57,619
0.02450,3.06250,-4.56750,0.00000,0.02708,0.08686,-0.98393,2023,6,12,10,35,57,630
0.02460,3.08000,-4.18250,0.00000,0.02806,0.08772,-0.98112,2023,6,12,10,35,57,641
0.02470,3.09750,-4.67250,0.00000,0.02879,0.09138,-0.98344,2023,6,12,10,35,57,652
0.02480,3.13250,-4.63750,0.00000,0.03038,0.09089,-0.98308,2023,6,12,10,35,57,663
0.02490,3.15000,-4.56750,0.00000,0.02794,0.09138,-0.98613,2023,6,12,10,35,57,674
0.02500,3.04500,-4.30500,0.00000,0.02965,0.08906,-0.98381,2023,6,12,10,35,57,685
0.02510,3.15000,-4.44500,0.00000,0.03026,0.08845,-0.98161,2023,6,12,10,35,57,696
0.02520,3.01000,-4.63750,0.00000,0.02928,0.08894,-0.98344,2023,6,12,10,35,57,707
0.02530,3.18500,-4.93500,0.00000,0.02794,0.08955,-0.98576,2023,6,12,10,35,57,719
0.02540,3.08000,-4.39250,0.00000,0.02769,0.08906,-0.98454,2023,6,12,10,35,57,730
0.02550,3.06250,-4.60250,0.00000,0.03087,0.08772,-0.98613,2023,6,12,10,35,57,741
0.02560,2.94000,-4.63750,0.00000,0.02965,0.08991,-0.98332,2023,6,12,10,35,57,752
0.02570,3.11500,-4.70750,0.00000,0.03038,0.08796,-0.98344,2023,6,12,10,35,57,763
0.02580,3.08000,-4.76000,0.00000,0.02599,0.08760,-0.98515,2023,6,12,10,35,57,774
0.02590,3.13250,-4.62000,0.00000,0.02782,0.09089,-0.98552,2023,6,12,10,35,57,785
0.02600,3.08000,-4.51500,0.00000,0.02794,0.08625,-0.98466,2023,6,12,10,35,57,796
0.02610,3.22000,-4.76000,0.00000,0.03062,0.09101,-0.98466,2023,6,12,10,35,57,807
0.02620,2.95750,-4.70750,0.00000,0.02904,0.09040,-0.98405,2023,6,12,10,35,57,819
0.02630,3.22000,-4.53250,0.00000,0.03026,0.09016,-0.98503,2023,6,12,10,35,57,830
0.02640,3.11500,-4.69000,0.00000,0.03062,0.09040,-0.98478,2023,6,12,10,35,57,841
0.02650,3.09750,-4.62000,0.00000,0.02855,0.09016,-0.98369,2023,6,12,10,35,57,852
0.02660,3.08000,-4.56750,0.00000,0.02879,0.09028,-0.98564,2023,6,12,10,35,57,863
0.02670,3.11500,-4.56750,0.00000,0.02806,0.08686,-0.98478,2023,6,12,10,35,57,874
0.02680,2.92250,-4.51500,0.00000,0.02977,0.08930,-0.98381,2023,6,12,10,35,57,885
0.02690,3.08000,-4.69000,0.00000,0.02928,0.09150,-0.98539,2023,6,12,10,35,57,896
0.02700,3.04500,-4.69000,0.00000,0.02867,0.09101,-0.98369,2023,6,12,10,35,57,907
0.02710,2.99250,-4.44500,0.00000,0.02928,0.09016,-0.98503,2023,6,12,10,35,57,919
0.02720,3.15000,-4.76000,0.00000,0.03013,0.08747,-0.98417,2023,6,12,10,35,57,930
0.02730,3.18500,-4.53250,0.00000,0.02952,0.08833,-0.98417,2023,6,12,10,35,57,941
0.02740,3.09750,-4.53250,0.00000,0.03074,0.08857,-0.98125,2023,6,12,10,35,57,952
0.02750,2.90500,-4.55000,0.00000,0.02904,0.08967,-0.98088,2023,6,12,10,35,57,963
0.02760,3.15000,-4.56750,0.00000,0.02940,0.08894,-0.98320,2023,6,12,10,35,58,4
0.02770,3.11500,-4.53250,0.00000,0.03123,0.09077,-0.98649,2023,6,12,10,35,58,15
0.02780,3.04500,-4.42750,0.00000,0.02916,0.09040,-0.98369,2023,6,12,10,35,58,26
0.02790,3.01000,-4.63750,0.00000,0.02867,0.08857,-0.98344,2023,6,12,10,35,58,37
0.02800,3.04500,-4.28750,0.00000,0.02855,0.09077,-0.98478,2023,6,12,10,35,58,49
0.02810,3.02750,-4.56750,0.00000,0.02830,0.08772,-0.98625,2023,6,12,10,35,58,60
0.02820,3.32500,-4.81250,0.00000,0.02635,0.08857,-0.98125,2023,6,12,10,35,58,71
0.02830,3.06250,-4.56750,0.00000,0.02806,0.08796,-0.98332,2023,6,12,10,35,58,82
0.02840,3.16750,-4.83000,0.00000,0.02940,0.08955,-0.98405,2023,6,12,10,35,58,93
0.02850,2.97500,-4.51500,0.00000,0.02879,0.08747,-0.98613,2023,6,12,10,35,58,104
0.02860,3.02750,-4.62000,0.00000,0.02830,0.08747,-0.98381,2023,6,12,10,35,58,115
0.02870,3.13250,-4.48000,0.00000,0.02891,0.09150,-0.98173,2023,6,12,10,35,58,126
0.02880,3.09750,-4.65500,0.00000,0.02733,0.09016,-0.98308,2023,6,12,10,35,58,137
0.02890,3.04500,-4.67250,0.00000,0.02977,0.09016,-0.98613,2023,6,12,10,35,58,149
0.02900,3.13250,-4.60250,0.00000,0.02867,0.09016,-0.98454,2023,6,12,10,35,58,160
0.02910,3.20250,-4.65500,0.00000,0.02867,0.08882,-0.98222,2023,6,12,10,35,58,171
0.02920,3.22000,-4.86500,0.00000,0.02940,0.08747,-0.98308,2023,6,12,10,35,58,182
0.02930,3.20250,-4.51500,0.00000,0.02855,0.08918,-0.98295,2023,6,12,10,35,58,193
0.02940,3.09750,-4.72500,0.00000,0.02818,0.09028,-0.98405,2023,6,12,10,35,58,204
0.02950,3.23750,-4.70750,0.00000,0.02904,0.08955,-0.98405,2023,6,12,10,35,58,215
0.02960,3.02750,-4.56750,0.00000,0.02940,0.08772,-0.98234,2023,6,12,10,35,58,226
0.02970,3.15000,-4.65500,0.00000,0.03062,0.08796,-0.98393,2023,6,12,10,35,58,237
0.02980,3.36000,-4.74250,0.00000,0.02733,0.08882,-0.98478,2023,6,12,10,35,58,249
0.02990,3.15000,-4.53250,0.00000,0.02965,0.09187,-0.98271,2023,6,12,10,35,58,260
0.03000,3.09750,-4.65500,0.00000,0.02660,0.08991,-0.98259,2023,6,12,10,35,58,271
0.03010,3.11500,-4.79500,0.00000,0.02879,0.08979,-0.98332,2023,6,12,10,35,58,282
0.03020,3.30750,-4.53250,0.00000,0.02952,0.09004,-0.98369,2023,6,12,10,35,58,293
0.03030,2.97500,-4.41000,0.00000,0.02867,0.08955,-0.98491,2023,6,12,10,35,58,304
0.03040,3.02750,-4.58500,0.00000,0.02940,0.08845,-0.98149,2023,6,12,10,35,58,315
0.03050,2.95750,-4.62000,0.00000,0.02867,0.09004,-0.98527,2023,6,12,10,35,58,326
0.03060,3.20250,-4.74250,0.00000,0.02684,0.08991,-0.98259,2023,6,12,10,35,58,337
0.03070,3.09750,-4.67250,0.00000,0.02843,0.08930,-0.98283,2023,6,12,10,35,58,349
0.03080,3.18500,-4.58500,0.00000,0.02843,0.08845,-0.98503,2023,6,12,10,35,58,360
0.03090,3.09750,-4.65500,0.00000,0.02708,0.08845,-0.98137,2023,6,12,10,35,58,371
0.03100,2.95750,-4.60250,0.00000,0.02940,0.08906,-0.98430,2023,6,12,10,35,58,382
0.03110,3.18500,-4.74250,0.00000,0.03038,0.08930,-0.98527,2023,6,12,10,35,58,393
0.03120,3.11500,-4.46250,0.00000,0.02904,0.08723,-0.98796,2023,6,12,10,35,58,404
0.03130,3.16750,-4.74250,0.00000,0.02733,0.08894,-0.98295,2023,6,12,10,35,58,415
0.03140,3.13250,-4.62000,0.00000,0.03013,0.08857,-0.98369,2023,6,12,10,35,58,426
0.03150,2.97500,-4.62000,0.00000,0.02891,0.08821,-0.98149,2023,6,12,10,35,58,437
0.03160,3.02750,-4.70750,0.00000,0.02891,0.08918,-0.98405,2023,6,12,10,35,58,449
0.03170,3.04500,-4.53250,0.00000,0.02891,0.08747,-0.98674,2023,6,12,10,35,58,460
0.03180,3.01000,-4.48000,0.00000,0.02989,0.08918,-0.98356,2023,6,12,10,35,58,471
0.03190,3.11500,-4.32250,0.00000,0.02818,0.08979,-0.98198,2023,6,12,10,35,58,482
0.03200,3.09750,-4.74250,0.00000,0.02940,0.09052,-0.98271,2023,6,12,10,35,58,493
0.03210,3.01000,-4.58500,0.00000,0.02635,0.09028,-0.98527,2023,6,12,10,35,58,504
0.03220,2.87000,-4.62000,0.00000,0.03050,0.08869,-0.98332,2023,6,12,10,35,58,515
0.03230,3.29000,-4.60250,0.00000,0.02818,0.08821,-0.98259,2023,6,12,10,35,58,526
0.03240,3.18500,-4.42750,0.00000,0.02745,0.08882,-0.98466,2023,6,12,10,35,58,537
0.03250,3.13250,-4.70750,0.00000,0.03001,0.08686,-0.98466,2023,6,12,10,35,58,549
0.03260,3.25500,-4.56750,0.00000,0.03343,0.08894,-0.98344,2023,6,12,10,35,58,560
0.03270,2.94000,-4.53250,0.00000,0.02794,0.08918,-0.98295,2023,6,12,10,35,58,571
0.03280,3.11500,-4.39250,0.00000,0.03001,0.08808,-0.98661,2023,6,12,10,35,58,582
0.03290,3.22000,-4.72500,0.00000,0.02904,0.08894,-0.98515,2023,6,12,10,35,58,593
0.03300,2.99250,-4.62000,0.00000,0.03062,0.08796,-0.98503,2023,6,12,10,35,58,604
0.03310,2.85250,-4.48000,0.00000,0.02660,0.09101,-0.98405,2023,6,12,10,35,58,615
0.03320,3.04500,-4.74250,0.00000,0.02977,0.09089,-0.98564,2023,6,12,10,35,58,626
0.03330,3.16750,-4.86500,0.00000,0.03001,0.09052,-0.98552,2023,6,12,10,35,58,637
0.03340,3.16750,-4.44500,0.00000,0.02733,0.09138,-0.98637,2023,6,12,10,35,58,649
0.03350,3.34250,-4.44500,0.00000,0.02989,0.09004,-0.98393,2023,6,12,10,35,58,660
0.03360,2.95750,-4.41000,0.00000,0.02965,0.09004,-0.98320,2023,6,12,10,35,58,671
0.03370,3.01000,-4.28750,0.00000,0.02928,0.08991,-0.98173,2023,6,12,10,35,58,682
0.03380,3.11500,-4.63750,0.00000,0.02965,0.08711,-0.98332,2023,6,12,10,35,58,693
0.03390,2.94000,-4.56750,0.00000,0.03013,0.08991,-0.98381,2023,6,12,10,35,58,704
0.03400,3.23750,-4.51500,0.00000,0.02965,0.09162,-0.98527,2023,6,12,10,35,58,715
0.03410,3.02750,-4.74250,0.00000,0.03013,0.08991,-0.98259,2023,6,12,10,35,58,726
0.03420,3.06250,-4.70750,0.00000,0.02855,0.08955,-0.98564,2023,6,12,10,35,58,737
0.03430,2.90500,-4.55000,0.00000,0.02977,0.09101,-0.98283,2023,6,12,10,35,58,749
0.03440,2.92250,-4.53250,0.00000,0.02879,0.09004,-0.98369,2023,6,12,10,35,58,760
0.03450,3.06250,-4.83000,0.00000,0.02818,0.08906,-0.98527,2023,6,12,10,35,58,771
0.03460,2.92250,-4.76000,0.00000,0.02891,0.09028,-0.98552,2023,6,12,10,35,58,782
0.03470,3.11500,-4.55000,0.00000,0.02879,0.08894,-0.98649,2023,6,12,10,35,58,793
0.03480,3.11500,-4.53250,0.00000,0.03160,0.08930,-0.98344,2023,6,12,10,35,58,804
0.03490,3.01000,-4.58500,0.00000,0.02867,0.08967,-0.98564,2023,6,12,10,35,58,815
0.03500,3.06250,-4.60250,0.00000,0.02977,0.08882,-0.98173,2023,6,12,10,35,58,826
0.03510,3.02750,-4.55000,0.00000,0.02562,0.08711,-0.98564,2023,6,12,10,35,58,837
0.03520,3.20250,-4.74250,0.00000,0.02830,0.08943,-0.98271,2023,6,12,10,35,58,849
0.03530,2.99250,-4.81250,0.00000,0.02928,0.08918,-0.98454,2023,6,12,10,35,58,860
0.03540,3.11500,-4.65500,0.00000,0.02806,0.09065,-0.98564,2023,6,12,10,35,58,871
0.03550,3.16750,-4.56750,0.00000,0.02855,0.08906,-0.98210,2023,6,12,10,35,58,882
0.03560,2.99250,-4.62000,0.00000,0.02891,0.08943,-0.98552,2023,6,12,10,35,58,893
0.03570,3.06250,-4.63750,0.00000,0.02977,0.08991,-0.98661,2023,6,12,10,35,58,904
0.03580,3.06250,-4.42750,0.00000,0.03111,0.08674,-0.98308,2023,6,12,10,35,58,915
0.03590,3.27250,-4.67250,0.00000,0.02867,0.09052,-0.98600,2023,6,12,10,35,58,926
0.03600,3.13250,-4.60250,0.00000,0.02782,0.09113,-0.98637,2023,6,12,10,35,58,937
0.03610,3.09750,-4.69000,0.00000,0.03123,0.09028,-0.98613,2023,6,12,10,35,58,949
0.03620,3.15000,-4.46250,0.00000,0.02830,0.09040,-0.98356,2023,6,12,10,35,58,960
0.03630,2.97500,-4.48000,0.00000,0.02806,0.08906,-0.98515,2023,6,12,10,35,58,971
0.03640,3.09750,-4.28750,0.00000,0.02965,0.08918,-0.98417,2023,6,12,10,35,59,2
0.03650,3.08000,-4.88250,0.00000,0.02818,0.08821,-0.98198,2023,6,12,10,35,59,13
0.03660,3.09750,-4.48000,0.00000,0.02757,0.09052,-0.98515,2023,6,12,10,35,59,24
0.03670,3.16750,-4.81250,0.00000,0.02843,0.08857,-0.98515,2023,6,12,10,35,59,35
0.03680,3.06250,-4.69000,0.00000,0.02867,0.08979,-0.98454,2023,6,12,10,35,59,46
0.03690,3.09750,-4.69000,0.00000,0.02733,0.08845,-0.98710,2023,6,12,10,35,59,57
0.03700,3.02750,-4.51500,0.00000,0.02843,0.08784,-0.98820,2023,6,12,10,35,59,69
0.03710,3.01000,-4.65500,0.00000,0.02989,0.08808,-0.98320,2023,6,12,10,35,59,80
0.03720,3.09750,-4.58500,0.00000,0.02769,0.09040,-0.98344,2023,6,12,10,35,59,91
0.03730,3.25500,-4.74250,0.00000,0.02916,0.08784,-0.98247,2023,6,12,10,35,59,102
0.03740,3.08000,-4.56750,0.00000,0.02879,0.08857,-0.98295,2023,6,12,10,35,59,113
0.03750,3.18500,-4.62000,0.00000,0.02916,0.08906,-0.98539,2023,6,12,10,35,59,124
0.03760,2.95750,-4.65500,0.00000,0.02879,0.09004,-0.98442,2023,6,12,10,35,59,135
0.03770,3.04500,-4.70750,0.00000,0.02952,0.08808,-0.98393,2023,6,12,10,35,59,146
0.03780,3.06250,-4.74250,0.00000,0.03013,0.08796,-0.98283,2023,6,12,10,35,59,157
0.03790,3.09750,-4.34000,0.00000,0.02977,0.08760,-0.98454,2023,6,12,10,35,59,169
0.03800,3.08000,-4.56750,0.00000,0.02891,0.08918,-0.98356,2023,6,12,10,35,59,180
0.03810,3.18500,-4.63750,0.00000,0.02940,0.08784,-0.98381,2023,6,12,10,35,59,191
0.03820,2.95750,-4.55000,0.00000,0.02940,0.08991,-0.98527,2023,6,12,10,35,59,202
0.03830,3.09750,-4.79500,0.00000,0.02867,0.08930,-0.98308,2023,6,12,10,35,59,213
0.03840,3.02750,-4.65500,0.00000,0.02904,0.08906,-0.98442,2023,6,12,10,35,59,224
0.03850,3.15000,-4.51500,0.00000,0.02745,0.08796,-0.98527,2023,6,12,10,35,59,235
0.03860,2.80000,-4.41000,0.00000,0.02769,0.09004,-0.98552,2023,6,12,10,35,59,246
0.03870,3.29000,-4.79500,0.00000,0.02867,0.08918,-0.98210,2023,6,12,10,35,59,257
0.03880,3.13250,-4.65500,0.00000,0.02891,0.09028,-0.98381,2023,6,12,10,35,59,269
0.03890,3.01000,-4.53250,0.00000,0.02684,0.08930,-0.98552,2023,6,12,10,35,59,280
0.03900,3.15000,-4.55000,0.00000,0.02769,0.08772,-0.98613,2023,6,12,10,35,59,291
0.03910,2.87000,-4.53250,0.00000,0.02879,0.08845,-0.98527,2023,6,12,10,35,59,302
0.03920,3.04500,-4.56750,0.00000,0.03123,0.09028,-0.98478,2023,6,12,10,35,59,313
0.03930,3.09750,-4.49750,0.00000,0.02965,0.08772,-0.98393,2023,6,12,10,35,59,324
0.03940,3.11500,-4.62000,0.00000,0.02806,0.08967,-0.98295,2023,6,12,10,35,59,335
0.03950,3.11500,-4.48000,0.00000,0.02916,0.08674,-0.98491,2023,6,12,10,35,59,346
0.03960,3.11500,-4.67250,0.00000,0.03062,0.08967,-0.98369,2023,6,12,10,35,59,357
0.03970,3.02750,-4.49750,0.00000,0.02891,0.08894,-0.98491,2023,6,12,10,35,59,369
0.03980,2.88750,-4.42750,0.00000,0.03001,0.08784,-0.98417,2023,6,12,10,35,59,380
0.03990,3.15000,-4.74250,0.00000,0.02867,0.08857,-0.98332,2023,6,12,10,35,59,391
0.04000,2.99250,-4.63750,0.00000,0.03013,0.08979,-0.98491,2023,6,12,10,35,59,402
0.04010,2.99250,-4.44500,0.00000,0.02977,0.08894,-0.98430,2023,6,12,10,35,59,413
0.04020,2.83500,-4.48000,0.00000,0.02904,0.08711,-0.98369,2023,6,12,10,35,59,424
0.04030,3.02750,-4.25250,0.00000,0.02891,0.09150,-0.98356,2023,6,12,10,35,59,435
0.04040,3.08000,-4.53250,0.00000,0.02879,0.08918,-0.98564,2023,6,12,10,35,59,446
0.04050,3.08000,-4.62000,0.00000,0.02830,0.09052,-0.98222,2023,6,12,10,35,59,457
0.04060,3.08000,-4.63750,0.00000,0.02879,0.08943,-0.98393,2023,6,12,10,35,59,469
0.04070,3.02750,-4.63750,0.00000,0.02855,0.09065,-0.98478,2023,6,12,10,35,59,480
0.04080,3.06250,-4.62000,0.00000,0.02916,0.08930,-0.98442,2023,6,12,10,35,59,491
0.04090,2.95750,-4.81250,0.00000,0.02794,0.08845,-0.98356,2023,6,12,10,35,59,502
0.04100,3.15000,-4.55000,0.00000,0.02891,0.08906,-0.98393,2023,6,12,10,35,59,513
0.04110,3.13250,-4.49750,0.00000,0.02855,0.08906,-0.98332,2023,6,12,10,35,59,524
0.04120,3.09750,-4.55000,0.00000,0.02940,0.09052,-0.98503,2023,6,12,10,35,59,535
0.04130,2.83500,-4.42750,0.00000,0.03038,0.08857,-0.98564,2023,6,12,10,35,59,546
0.04140,3.02750,-4.41000,0.00000,0.02830,0.08869,-0.98405,2023,6,12,10,35,59,557
0.04150,3.09750,-4.48000,0.00000,0.02782,0.08918,-0.98466,2023,6,12,10,35,59,569
0.04160,3.08000,-4.48000,0.00000,0.03038,0.08747,-0.98405,2023,6,12,10,35,59,580
0.04170,3.18500,-4.67250,0.00000,0.02916,0.08943,-0.98478,2023,6,12,10,35,59,591
0.04180,3.11500,-4.39250,0.00000,0.02952,0.08930,-0.98356,2023,6,12,10,35,59,602
0.04190,2.95750,-4.55000,0.00000,0.02818,0.08711,-0.98381,2023,6,12,10,35,59,613
0.04200,2.97500,-4.51500,0.00000,0.02867,0.08833,-0.98478,2023,6,12,10,35,59,624
0.04210,3.06250,-4.72500,0.00000,0.02977,0.08735,-0.98466,2023,6,12,10,35,59,635
0.04220,3.13250,-4.51500,0.00000,0.02977,0.08991,-0.98405,2023,6,12,10,35,59,646
0.04230,3.13250,-4.69000,0.00000,0.02867,0.08906,-0.98442,2023,6,12,10,35,59,657
0.04240,3.01000,-4.65500,0.00000,0.03050,0.08943,-0.98478,2023,6,12,10,35,59,669
0.04250,3.18500,-4.86500,0.00000,0.02952,0.09016,-0.98539,2023,6,12,10,35,59,680
0.04260,3.09750,-4.44500,0.00000,0.02684,0.08833,-0.98405,2023,6,12,10,35,59,691
0.04270,2.99250,-4.46250,0.00000,0.02952,0.09016,-0.98393,2023,6,12,10,35,59,702
0.04280,3.02750,-4.65500,0.00000,0.03013,0.08821,-0.98466,2023,6,12,10,35,59,713
0.04290,3.02750,-4.48000,0.00000,0.03001,0.09004,-0.98649,2023,6,12,10,35,59,724
0.04300,3.08000,-4.49750,0.00000,0.02879,0.09150,-0.98613,2023,6,12,10,35,59,735
0.04310,2.88750,-4.56750,0.00000,0.02855,0.08918,-0.98283,2023,6,12,10,35,59,746
0.04320,3.32500,-4.65500,0.00000,0.02782,0.08723,-0.98149,2023,6,12,10,35,59,757
0.04330,2.95750,-4.63750,0.00000,0.02891,0.08845,-0.98527,2023,6,12,10,35,59,769
0.04340,3.20250,-4.63750,0.00000,0.03026,0.08894,-0.98552,2023,6,12,10,35,59,780
0.04350,3.25500,-4.44500,0.00000,0.02745,0.09052,-0.98478,2023,6,12,10,35,59,791
0.04360,3.04500,-4.56750,0.00000,0.02879,0.08955,-0.98308,2023,6,12,10,35,59,802
0.04370,3.13250,-4.74250,0.00000,0.02928,0.08882,-0.98576,2023,6,12,10,35,59,813
0.04380,3.08000,-4.60250,0.00000,0.02745,0.08943,-0.98552,2023,6,12,10,35,59,824
0.04390,3.04500,-4.69000,0.00000,0.02782,0.08784,-0.98283,2023,6,12,10,35,59,835
0.04400,3.06250,-4.62000,0.00000,0.02977,0.08796,-0.98466,2023,6,12,10,35,59,846
0.04410,3.16750,-4.63750,0.00000,0.02916,0.08833,-0.98332,2023,6,12,10,35,59,857
0.04420,2.94000,-4.65500,0.00000,0.02855,0.08967,-0.98417,2023,6,12,10,35,59,869
0.04430,2.81750,-4.53250,0.00000,0.03050,0.08882,-0.98283,2023,6,12,10,35,59,880
0.04440,2.99250,-4.51500,0.00000,0.02904,0.08796,-0.98320,2023,6,12,10,35,59,891
0.04450,2.97500,-4.69000,0.00000,0.03026,0.08735,-0.98417,2023,6,12,10,35,59,902
0.04460,3.01000,-4.51500,0.00000,0.02891,0.09113,-0.98271,2023,6,12,10,35,59,913
0.04470,2.99250,-4.55000,0.00000,0.02965,0.08662,-0.98491,2023,6,12,10,35,59,924
0.04480,3.18500,-4.49750,0.00000,0.02843,0.08882,-0.98381,2023,6,12,10,35,59,935
0.04490,3.11500,-4.62000,0.00000,0.02855,0.08735,-0.98417,2023,6,12,10,35,59,946
0.04500,3.16750,-4.70750,0.00000,0.02806,0.08699,-0.98649,2023,6,12,10,35,59,957
0.04510,2.95750,-4.60250,0.00000,0.02965,0.09065,-0.98393,2023,6,12,10,36,0,9
0.04520,3.08000,-4.41000,0.00000,0.02891,0.08906,-0.98210,2023,6,12,10,36,0,20
0.04530,3.06250,-4.44500,0.00000,0.02965,0.08760,-0.98564,2023,6,12,10,36,0,31
0.04540,3.11500,-4.62000,0.00000,0.03087,0.08894,-0.98515,2023,6,12,10,36,0,42
0.04550,3.13250,-4.62000,0.00000,0.02989,0.09052,-0.98515,2023,6,12,10,36,0,53
0.04560,3.06250,-4.55000,0.00000,0.02977,0.08747,-0.98381,2023,6,12,10,36,0,64
0.04570,3.27250,-4.58500,0.00000,0.02977,0.08845,-0.98478,2023,6,12,10,36,0,75
0.04580,2.94000,-4.60250,0.00000,0.02879,0.08894,-0.98381,2023,6,12,10,36,0,86
0.04590,3.23750,-4.67250,0.00000,0.02611,0.08796,-0.98625,2023,6,12,10,36,0,97
0.04600,3.16750,-4.53250,0.00000,0.02904,0.08967,-0.98417,2023,6,12,10,36,0,109
0.04610,3.36000,-4.93500,0.00000,0.02782,0.08613,-0.98539,2023,6,12,10,36,0,120
0.04620,2.99250,-4.55000,0.00000,0.02891,0.09162,-0.98393,2023,6,12,10,36,0,131
0.04630,3.16750,-4.76000,0.00000,0.02867,0.08991,-0.98600,2023,6,12,10,36,0,142
0.04640,3.22000,-4.63750,0.00000,0.02708,0.09016,-0.98247,2023,6,12,10,36,0,153
0.04650,3.01000,-4.51500,0.00000,0.03001,0.09126,-0.98552,2023,6,12,10,36,0,164
0.04660,3.13250,-4.63750,0.00000,0.02696,0.08735,-0.98466,2023,6,12,10,36,0,175
0.04670,2.97500,-4.44500,0.00000,0.02721,0.08857,-0.98442,2023,6,12,10,36,0,186
0.04680,3.32500,-4.63750,0.00000,0.02952,0.08955,-0.98405,2023,6,12,10,36,0,197
0.04690,3.11500,-4.58500,0.00000,0.02806,0.08857,-0.98698,2023,6,12,10,36,0,209
0.04700,3.08000,-4.42750,0.00000,0.03001,0.08845,-0.98503,2023,6,12,10,36,0,220
0.04710,3.11500,-4.58500,0.00000,0.03172,0.08967,-0.98344,2023,6,12,10,36,0,231
0.04720,3.04500,-4.32250,0.00000,0.02940,0.08906,-0.98381,2023,6,12,10,36,0,242
0.04730,2.95750,-4.51500,0.00000,0.02928,0.09065,-0.98722,2023,6,12,10,36,0,253
0.04740,3.22000,-4.55000,0.00000,0.02977,0.08796,-0.98478,2023,6,12,10,36,0,264
0.04750,2.99250,-4.65500,0.00000,0.02928,0.08857,-0.98442,2023,6,12,10,36,0,275
0.04760,2.88750,-4.44500,0.00000,0.03001,0.08808,-0.98552,2023,6,12,10,36,0,286
0.04770,3.09750,-4.69000,0.00000,0.02989,0.09028,-0.98454,2023,6,12,10,36,0,297
0.04780,3.08000,-4.60250,0.00000,0.02867,0.08918,-0.98674,2023,6,12,10,36,0,309
0.04790,2.99250,-4.51500,0.00000,0.02989,0.08784,-0.98344,2023,6,12,10,36,0,320
0.04800,3.11500,-4.58500,0.00000,0.03135,0.08882,-0.98344,2023,6,12,10,36,0,331
0.04810,2.92250,-4.44500,0.00000,0.02989,0.09004,-0.98613,2023,6,12,10,36,0,342
0.04820,2.94000,-4.49750,0.00000,0.02757,0.08821,-0.98515,2023,6,12,10,36,0,353
0.04830,2.94000,-4.28750,0.00000,0.02928,0.08955,-0.98527,2023,6,12,10,36,0,364
0.04840,2.81750,-4.60250,0.00000,0.02806,0.09016,-0.98503,2023,6,12,10,36,0,375
0.04850,3.04500,-4.51500,0.00000,0.02757,0.08943,-0.98442,2023,6,12,10,36,0,386
0.04860,2.92250,-4.41000,0.00000,0.02794,0.09040,-0.98478,2023,6,12,10,36,0,397
0.04870,3.23750,-4.69000,0.00000,0.03038,0.08894,-0.98771,2023,6,12,10,36,0,409
0.04880,3.04500,-4.56750,0.00000,0.02916,0.08808,-0.98442,2023,6,12,10,36,0,420
0.04890,3.18500,-4.56750,0.00000,0.02830,0.08857,-0.98442,2023,6,12,10,36,0,431
0.04900,3.08000,-4.49750,0.00000,0.02879,0.08991,-0.98417,2023,6,12,10,36,0,442
0.04910,3.13250,-4.37500,0.00000,0.02879,0.08857,-0.98454,2023,6,12,10,36,0,453
0.04920,3.20250,-4.62000,0.00000,0.02916,0.08943,-0.98308,2023,6,12,10,36,0,464
0.04930,3.08000,-4.81250,0.00000,0.02904,0.08833,-0.98369,2023,6,12,10,36,0,475
0.04940,2.94000,-4.53250,0.00000,0.02916,0.08845,-0.98161,2023,6,12,10,36,0,486
0.04950,3.20250,-4.58500,0.00000,0.03148,0.08821,-0.98527,2023,6,12,10,36,0,497
0.04960,3.11500,-4.67250,0.00000,0.02855,0.08796,-0.98454,2023,6,12,10,36,0,509
0.04970,3.18500,-4.62000,0.00000,0.02916,0.09126,-0.98478,2023,6,12,10,36,0,520
0.04980,3.09750,-4.60250,0.00000,0.02855,0.08845,-0.98491,2023,6,12,10,36,0,531
0.04990,3.18500,-4.67250,0.00000,0.02818,0.08857,-0.98442,2023,6,12,10,36,0,542
0.05000,3.06250,-4.41000,0.00000,0.02928,0.08894,-0.98369,2023,6,12,10,36,0,553
0.05010,3.13250,-4.74250,0.00000,0.02977,0.08747,-0.98588,2023,6,12,10,36,0,564
0.05020,3.30750,-4.58500,0.00000,0.03001,0.08967,-0.98283,2023,6,12,10,36,0,575
0.05030,3.06250,-4.65500,0.00000,0.02830,0.08711,-0.98308,2023,6,12,10,36,0,586
0.05040,3.09750,-4.53250,0.00000,0.03013,0.08833,-0.98332,2023,6,12,10,36,0,597
0.05050,3.08000,-4.41000,0.00000,0.03001,0.09077,-0.98552,2023,6,12,10,36,0,609
0.05060,3.06250,-4.46250,0.00000,0.03111,0.08918,-0.98381,2023,6,12,10,36,0,620
0.05070,3.13250,-4.44500,0.00000,0.02745,0.08625,-0.98478,2023,6,12,10,36,0,631
0.05080,3.13250,-4.69000,0.00000,0.02916,0.08967,-0.98417,2023,6,12,10,36,0,642
0.05090,3.11500,-4.65500,0.00000,0.03123,0.08894,-0.98600,2023,6,12,10,36,0,653
0.05100,2.97500,-4.56750,0.00000,0.02855,0.08918,-0.98173,2023,6,12,10,36,0,664
0.05110,3.15000,-4.58500,0.00000,0.02855,0.09016,-0.98442,2023,6,12,10,36,0,675
0.05120,3.22000,-4.69000,0.00000,0.02745,0.08699,-0.98478,2023,6,12,10,36,0,686
0.05130,3.06250,-4.69000,0.00000,0.02879,0.09004,-0.98600,2023,6,12,10,36,0,697
0.05140,3.16750,-4.39250,0.00000,0.02830,0.09138,-0.98649,2023,6,12,10,36,0,709
0.05150,3.16750,-4.79500,0.00000,0.03172,0.09052,-0.98295,2023,6,12,10,36,0,720
0.05160,3.13250,-4.76000,0.00000,0.02782,0.08918,-0.98381,2023,6,12,10,36,0,731
0.05170,3.13250,-4.69000,0.00000,0.02745,0.08796,-0.98552,2023,6,12,10,36,0,742
0.05180,3.16750,-4.74250,0.00000,0.02977,0.08772,-0.98417,2023,6,12,10,36,0,753
0.05190,3.11500,-4.49750,0.00000,0.03001,0.09101,-0.98234,2023,6,12,10,36,0,764
0.05200,3.01000,-4.48000,0.00000,0.03026,0.08930,-0.98637,2023,6,12,10,36,0,775
0.05210,3.06250,-4.53250,0.00000,0.02806,0.08979,-0.98527,2023,6,12,10,36,0,786
0.05220,3.13250,-4.70750,0.00000,0.02916,0.08930,-0.98356,2023,6,12,10,36,0,797
0.05230,2.92250,-4.83000,0.00000,0.03026,0.08699,-0.98320,2023,6,12,10,36,0,809
0.05240,3.06250,-4.65500,0.00000,0.02806,0.09065,-0.98674,2023,6,12,10,36,0,820
0.05250,3.04500,-4.62000,0.00000,0.02989,0.08650,-0.98466,2023,6,12,10,36,0,831
0.05260,3.08000,-4.51500,0.00000,0.02867,0.08808,-0.98527,2023,6,12,10,36,0,842
0.05270,2.99250,-4.55000,0.00000,0.02672,0.09089,-0.98491,2023,6,12,10,36,0,853
0.05280,3.09750,-4.62000,0.00000,0.02904,0.08894,-0.98393,2023,6,12,10,36,0,864
0.05290,3.18500,-4.72500,0.00000,0.03099,0.08906,-0.98491,2023,6,12,10,36,0,875
0.05300,2.83500,-4.42750,0.00000,0.02952,0.08894,-0.98515,2023,6,12,10,36,0,886
0.05310,3.11500,-4.60250,0.00000,0.02806,0.08943,-0.98478,2023,6,12,10,36,0,897
0.05320,2.94000,-4.58500,0.00000,0.02806,0.09089,-0.98283,2023,6,12,10,36,0,909
0.05330,3.02750,-4.55000,0.00000,0.02965,0.08943,-0.98625,2023,6,12,10,36,0,920
0.05340,2.92250,-4.46250,0.00000,0.02977,0.08833,-0.98320,2023,6,12,10,36,0,931
0.05350,3.11500,-4.60250,0.00000,0.03013,0.08808,-0.98405,2023,6,12,10,36,0,942
0.05360,2.95750,-4.55000,0.00000,0.02989,0.08943,-0.98332,2023,6,12,10,36,0,953
0.05370,3.18500,-4.77750,0.00000,0.03026,0.08857,-0.98381,2023,6,12,10,36,0,964
0.05380,3.06250,-4.55000,0.00000,0.02855,0.08674,-0.98588,2023,6,12,10,36,0,975
0.05390,3.13250,-4.69000,0.00000,0.02916,0.08943,-0.98552,2023,6,12,10,36,1,6
0.05400,3.32500,-4.63750,0.00000,0.02879,0.08991,-0.98478,2023,6,12,10,36,1,17
0.05410,3.16750,-4.69000,0.00000,0.03013,0.09040,-0.98320,2023,6,12,10,36,1,29
0.05420,3.20250,-4.70750,0.00000,0.02818,0.09040,-0.98539,2023,6,12,10,36,1,40
0.05430,3.06250,-4.60250,0.00000,0.03099,0.08869,-0.98649,2023,6,12,10,36,1,51
0.05440,3.04500,-4.72500,0.00000,0.02989,0.09052,-0.98466,2023,6,12,10,36,1,62
0.05450,2.97500,-4.37500,0.00000,0.02965,0.08967,-0.98539,2023,6,12,10,36,1,73
0.05460,2.88750,-4.48000,0.00000,0.02940,0.08894,-0.98478,2023,6,12,10,36,1,84
0.05470,3.13250,-4.81250,0.00000,0.02867,0.08711,-0.98064,2023,6,12,10,36,1,95
0.05480,2.99250,-4.56750,0.00000,0.03074,0.08894,-0.98320,2023,6,12,10,36,1,106
0.05490,3.02750,-4.56750,0.00000,0.02977,0.08760,-0.98356,2023,6,12,10,36,1,117
0.05500,3.04500,-4.35750,0.00000,0.02989,0.08918,-0.98393,2023,6,12,10,36,1,129
0.05510,3.04500,-4.62000,0.00000,0.02806,0.08955,-0.98369,2023,6,12,10,36,1,140
0.05520,3.15000,-4.56750,0.00000,0.02928,0.08930,-0.98393,2023,6,12,10,36,1,151
0.05530,3.06250,-4.48000,0.00000,0.02696,0.08906,-0.98539,2023,6,12,10,36,1,162
0.05540,3.02750,-4.76000,0.00000,0.02745,0.08686,-0.98600,2023,6,12,10,36,1,173
0.05550,3.01000,-4.62000,0.00000,0.03001,0.09101,-0.98491,2023,6,12,10,36,1,184
0.05560,3.22000,-4.62000,0.00000,0.03013,0.09028,-0.98576,2023,6,12,10,36,1,195
0.05570,2.97500,-4.35750,0.00000,0.03245,0.09162,-0.98369,2023,6,12,10,36,1,206
0.05580,3.08000,-4.69000,0.00000,0.02843,0.08821,-0.98356,2023,6,12,10,36,1,217
0.05590,3.06250,-4.65500,0.00000,0.02940,0.08845,-0.98466,2023,6,12,10,36,1,229
0.05600,3.04500,-4.56750,0.00000,0.02891,0.08906,-0.98356,2023,6,12,10,36,1,240
0.05610,3.13250,-4.88250,0.00000,0.02891,0.08906,-0.98466,2023,6,12,10,36,1,251
0.05620,3.08000,-4.37500,0.00000,0.03074,0.09016,-0.98405,2023,6,12,10,36,1,262
0.05630,3.15000,-4.44500,0.00000,0.02928,0.09089,-0.98271,2023,6,12,10,36,1,273
0.05640,3.16750,-4.70750,0.00000,0.02721,0.08979,-0.98613,2023,6,12,10,36,1,284
0.05650,3.11500,-4.70750,0.00000,0.02757,0.08894,-0.98417,2023,6,12,10,36,1,295
0.05660,3.11500,-4.42750,0.00000,0.02965,0.08735,-0.98295,2023,6,12,10,36,1,306
0.05670,3.22000,-4.48000,0.00000,0.02891,0.08772,-0.98478,2023,6,12,10,36,1,317
0.05680,3.15000,-4.63750,0.00000,0.02904,0.08991,-0.98112,2023,6,12,10,36,1,329
0.05690,3.04500,-4.60250,0.00000,0.02891,0.08882,-0.98442,2023,6,12,10,36,1,340
0.05700,3.20250,-4.62000,0.00000,0.02977,0.08845,-0.98259,2023,6,12,10,36,1,351
0.05710,3.15000,-4.53250,0.00000,0.02965,0.08772,-0.98088,2023,6,12,10,36,1,362
0.05720,2.92250,-4.48000,0.00000,0.03038,0.08808,-0.98381,2023,6,12,10,36,1,373
0.05730,3.01000,-4.44500,0.00000,0.02989,0.08857,-0.98405,2023,6,12,10,36,1,384
0.05740,3.13250,-4.62000,0.00000,0.02855,0.08894,-0.98210,2023,6,12,10,36,1,395
0.05750,3.02750,-4.34000,0.00000,0.02965,0.09077,-0.98259,2023,6,12,10,36,1,406
0.05760,3.16750,-4.65500,0.00000,0.02965,0.09016,-0.98405,2023,6,12,10,36,1,417
0.05770,3.13250,-4.86500,0.00000,0.02782,0.08699,-0.98576,2023,6,12,10,36,1,429
0.05780,3.08000,-4.46250,0.00000,0.02928,0.08955,-0.98222,2023,6,12,10,36,1,440
0.05790,3.09750,-4.62000,0.00000,0.02879,0.09040,-0.98454,2023,6,12,10,36,1,451
0.05800,3.13250,-4.70750,0.00000,0.02782,0.08857,-0.98491,2023,6,12,10,36,1,462
0.05810,3.06250,-4.65500,0.00000,0.03026,0.08796,-0.98356,2023,6,12,10,36,1,473
0.05820,3.06250,-4.44500,0.00000,0.02818,0.09089,-0.98369,2023,6,12,10,36,1,484
0.05830,3.01000,-4.51500,0.00000,0.03087,0.08991,-0.98674,2023,6,12,10,36,1,495
0.05840,2.99250,-4.60250,0.00000,0.03099,0.09004,-0.98222,2023,6,12,10,36,1,506
0.05850,2.95750,-4.60250,0.00000,0.02928,0.08991,-0.98405,2023,6,12,10,36,1,517
0.05860,2.97500,-4.60250,0.00000,0.02757,0.08894,-0.98393,2023,6,12,10,36,1,529
0.05870,2.95750,-4.41000,0.00000,0.03172,0.08699,-0.98503,2023,6,12,10,36,1,540
0.05880,3.11500,-5.07500,0.00000,0.02928,0.08906,-0.98344,2023,6,12,10,36,1,551
0.05890,3.01000,-4.48000,0.00000,0.02843,0.08906,-0.98613,2023,6,12,10,36,1,562
0.05900,3.01000,-4.32250,0.00000,0.03111,0.09138,-0.98259,2023,6,12,10,36,1,573
0.05910,3.08000,-4.58500,0.00000,0.02855,0.08808,-0.98356,2023,6,12,10,36,1,584
0.05920,3.16750,-4.44500,0.00000,0.02965,0.08991,-0.98381,2023,6,12,10,36,1,595
0.05930,2.92250,-4.56750,0.00000,0.02891,0.08991,-0.98442,2023,6,12,10,36,1,606
0.05940,3.02750,-4.42750,0.00000,0.02794,0.09223,-0.98588,2023,6,12,10,36,1,617
0.05950,2.99250,-4.58500,0.00000,0.03074,0.09065,-0.98186,2023,6,12,10,36,1,629
0.05960,3.13250,-4.62000,0.00000,0.02818,0.09150,-0.98320,2023,6,12,10,36,1,640
0.05970,3.11500,-4.46250,0.00000,0.02977,0.09016,-0.98149,2023,6,12,10,36,1,651
0.05980,3.06250,-4.60250,0.00000,0.03013,0.09028,-0.98186,2023,6,12,10,36,1,662
0.05990,3.04500,-4.56750,0.00000,0.02916,0.09052,-0.98393,2023,6,12,10,36,1,673
0.06000,3.15000,-4.56750,0.00000,0.03026,0.08894,-0.98430,2023,6,12,10,36,1,684
0.06010,3.04500,-4.70750,0.00000,0.02782,0.08638,-0.98491,2023,6,12,10,36,1,695
0.06020,3.04500,-4.62000,0.00000,0.03062,0.08760,-0.98308,2023,6,12,10,36,1,706
0.06030,3.13250,-4.62000,0.00000,0.02952,0.08894,-0.98247,2023,6,12,10,36,1,717
0.06040,3.08000,-4.56750,0.00000,0.02965,0.08906,-0.98393,2023,6,12,10,36,1,729
0.06050,3.16750,-4.62000,0.00000,0.03013,0.08808,-0.98283,2023,6,12,10,36,1,740
0.06060,3.11500,-4.56750,0.00000,0.02965,0.08845,-0.98552,2023,6,12,10,36,1,751
0.06070,3.02750,-4.77750,0.00000,0.02940,0.08857,-0.98466,2023,6,12,10,36,1,762
0.06080,3.06250,-4.74250,0.00000,0.02928,0.08930,-0.98454,2023,6,12,10,36,1,773
0.06090,2.90500,-4.39250,0.00000,0.02721,0.08918,-0.98308,2023,6,12,10,36,1,784
0.06100,3.20250,-4.72500,0.00000,0.02867,0.08979,-0.98515,2023,6,12,10,36,1,795
0.06110,3.25500,-4.56750,0.00000,0.02965,0.08845,-0.98417,2023,6,12,10,36,1,806
0.06120,3.08000,-4.41000,0.00000,0.03123,0.08772,-0.98393,2023,6,12,10,36,1,817
0.06130,2.83500,-4.49750,0.00000,0.02916,0.08894,-0.98234,2023,6,12,10,36,1,829
0.06140,3.06250,-4.60250,0.00000,0.02940,0.08918,-0.98369,2023,6,12,10,36,1,840
0.06150,3.15000,-4.67250,0.00000,0.03172,0.08869,-0.98039,2023,6,12,10,36,1,851
0.06160,3.11500,-4.62000,0.00000,0.03026,0.08882,-0.98588,2023,6,12,10,36,1,862
0.06170,3.09750,-4.48000,0.00000,0.02916,0.08869,-0.98515,2023,6,12,10,36,1,873
0.06180,3.15000,-4.83000,0.00000,0.02989,0.09077,-0.98369,2023,6,12,10,36,1,884
0.06190,3.13250,-4.76000,0.00000,0.02818,0.09004,-0.98491,2023,6,12,10,36,1,895
0.06200,3.02750,-4.41000,0.00000,0.02928,0.08760,-0.98552,2023,6,12,10,36,1,906
0.06210,3.02750,-4.72500,0.00000,0.02904,0.08760,-0.98417,2023,6,12,10,36,1,917
0.06220,2.92250,-4.56750,0.00000,0.02916,0.08930,-0.98649,2023,6,12,10,36,1,929
0.06230,2.95750,-4.42750,0.00000,0.02965,0.08979,-0.98576,2023,6,12,10,36,1,940
0.06240,3.16750,-4.48000,0.00000,0.02928,0.08747,-0.98369,2023,6,12,10,36,1,951
0.06250,3.15000,-4.74250,0.00000,0.02977,0.09089,-0.98222,2023,6,12,10,36,1,962
0.06260,3.06250,-4.74250,0.00000,0.03026,0.08906,-0.98637,2023,6,12,10,36,2,3
0.06270,3.08000,-4.51500,0.00000,0.02867,0.08760,-0.98210,2023,6,12,10,36,2,14
0.06280,3.08000,-4.41000,0.00000,0.03087,0.09004,-0.98356,2023,6,12,10,36,2,25
0.06290,3.09750,-4.46250,0.00000,0.02782,0.09004,-0.98369,2023,6,12,10,36,2,36
0.06300,3.04500,-4.74250,0.00000,0.03001,0.08918,-0.98564,2023,6,12,10,36,2,47
0.06310,2.99250,-4.34000,0.00000,0.02745,0.08747,-0.98332,2023,6,12,10,36,2,59
0.06320,3.06250,-4.46250,0.00000,0.02965,0.08869,-0.98344,2023,6,12,10,36,2,70
0.06330,3.29000,-4.65500,0.00000,0.02830,0.08882,-0.98588,2023,6,12,10,36,2,81
0.06340,3.25500,-4.51500,0.00000,0.02940,0.09004,-0.98405,2023,6,12,10,36,2,92
0.06350,2.94000,-4.70750,0.00000,0.02940,0.08906,-0.98344,2023,6,12,10,36,2,103
0.06360,3.04500,-4.48000,0.00000,0.03123,0.08857,-0.98186,2023,6,12,10,36,2,114
0.06370,3.13250,-4.74250,0.00000,0.03001,0.08869,-0.98186,2023,6,12,10,36,2,125
0.06380,2.95750,-4.93500,0.00000,0.02952,0.08723,-0.98527,2023,6,12,10,36,2,136
0.06390,3.01000,-4.55000,0.00000,0.03001,0.08747,-0.98308,2023,6,12,10,36,2,147
0.06400,2.99250,-4.63750,0.00000,0.03074,0.08869,-0.98466,2023,6,12,10,36,2,159
0.06410,3.02750,-4.65500,0.00000,0.02708,0.08906,-0.98064,2023,6,12,10,36,2,170
0.06420,3.18500,-4.56750,0.00000,0.02843,0.08906,-0.98271,2023,6,12,10,36,2,181
0.06430,3.04500,-4.62000,0.00000,0.03062,0.08967,-0.98320,2023,6,12,10,36,2,192
0.06440,3.15000,-4.44500,0.00000,0.02977,0.08930,-0.98332,2023,6,12,10,36,2,203
0.06450,3.09750,-4.48000,0.00000,0.02806,0.08808,-0.98466,2023,6,12,10,36,2,214
0.06460,3.04500,-4.49750,0.00000,0.02708,0.08991,-0.98637,2023,6,12,10,36,2,225
0.06470,3.18500,-4.67250,0.00000,0.03111,0.08869,-0.98625,2023,6,12,10,36,2,236
0.06480,2.90500,-4.65500,0.00000,0.02940,0.08772,-0.98393,2023,6,12,10,36,2,247
0.06490,3.02750,-4.70750,0.00000,0.02855,0.08979,-0.98466,2023,6,12,10,36,2,259
0.06500,2.90500,-4.56750,0.00000,0.02940,0.08857,-0.98247,2023,6,12,10,36,2,270
0.06510,3.16750,-4.53250,0.00000,0.02769,0.08894,-0.98247,2023,6,12,10,36,2,281
0.06520,3.01000,-4.58500,0.00000,0.02806,0.08723,-0.98356,2023,6,12,10,36,2,292
0.06530,3.13250,-4.67250,0.00000,0.02782,0.09028,-0.98625,2023,6,12,10,36,2,303
0.06540,2.94000,-4.41000,0.00000,0.03062,0.08845,-0.98491,2023,6,12,10,36,2,314
0.06550,3.04500,-4.37500,0.00000,0.02879,0.08955,-0.98332,2023,6,12,10,36,2,325
0.06560,3.08000,-4.69000,0.00000,0.02867,0.09052,-0.98234,2023,6,12,10,36,2,336
0.06570,3.13250,-4.62000,0.00000,0.02916,0.08943,-0.98308,2023,6,12,10,36,2,347
0.06580,2.99250,-4.37500,0.00000,0.02794,0.08833,-0.98600,2023,6,12,10,36,2,359
0.06590,3.06250,-4.60250,0.00000,0.02867,0.09138,-0.98405,2023,6,12,10,36,2,370
0.06600,3.22000,-4.53250,0.00000,0.03013,0.08796,-0.98600,2023,6,12,10,36,2,381
0.06610,3.18500,-4.65500,0.00000,0.02769,0.08991,-0.98466,2023,6,12,10,36,2,392
0.06620,3.06250,-4.55000,0.00000,0.03099,0.08833,-0.98625,2023,6,12,10,36,2,403
0.06630,2.92250,-4.63750,0.00000,0.02977,0.08894,-0.98527,2023,6,12,10,36,2,414
0.06640,3.02750,-4.62000,0.00000,0.02965,0.09101,-0.98613,2023,6,12,10,36,2,425
0.06650,3.09750,-4.69000,0.00000,0.02989,0.08821,-0.98466,2023,6,12,10,36,2,436
0.06660,2.99250,-4.77750,0.00000,0.02940,0.08955,-0.98344,2023,6,12,10,36,2,447
0.06670,3.02750,-4.70750,0.00000,0.02757,0.08845,-0.98369,2023,6,12,10,36,2,459
0.06680,3.16750,-4.63750,0.00000,0.02830,0.08882,-0.98710,2023,6,12,10,36,2,470
0.06690,3.15000,-4.53250,0.00000,0.02855,0.08894,-0.98698,2023,6,12,10,36,2,481
0.06700,3.02750,-4.65500,0.00000,0.02879,0.08857,-0.98430,2023,6,12,10,36,2,492
0.06710,3.16750,-4.60250,0.00000,0.02928,0.08808,-0.98466,2023,6,12,10,36,2,503
0.06720,2.95750,-4.46250,0.00000,0.02855,0.08857,-0.98320,2023,6,12,10,36,2,514
0.06730,3.23750,-4.70750,0.00000,0.02733,0.08869,-0.98234,2023,6,12,10,36,2,525
0.06740,3.01000,-4.56750,0.00000,0.02879,0.08979,-0.98588,2023,6,12,10,36,2,536
0.06750,3.11500,-4.70750,0.00000,0.02721,0.08747,-0.98735,2023,6,12,10,36,2,547
0.06760,3.01000,-4.56750,0.00000,0.02843,0.08869,-0.98356,2023,6,12,10,36,2,559
0.06770,3.11500,-4.39250,0.00000,0.03026,0.08845,-0.98613,2023,6,12,10,36,2,570
0.06780,3.13250,-4.53250,0.00000,0.02952,0.09065,-0.98503,2023,6,12,10,36,2,581
0.06790,3.13250,-4.60250,0.00000,0.02794,0.08894,-0.98308,2023,6,12,10,36,2,592
0.06800,3.02750,-4.49750,0.00000,0.02952,0.08821,-0.98527,2023,6,12,10,36,2,603
0.06810,3.08000,-4.70750,0.00000,0.02977,0.08821,-0.98564,2023,6,12,10,36,2,614
0.06820,3.18500,-4.65500,0.00000,0.02867,0.08833,-0.98259,2023,6,12,10,36,2,625
0.06830,3.09750,-4.62000,0.00000,0.02562,0.08686,-0.98454,2023,6,12,10,36,2,636
0.06840,3.23750,-4.60250,0.00000,0.03026,0.08686,-0.98625,2023,6,12,10,36,2,647
0.06850,2.99250,-4.60250,0.00000,0.03087,0.08882,-0.98430,2023,6,12,10,36,2,659
0.06860,3.04500,-4.58500,0.00000,0.02867,0.08723,-0.98478,2023,6,12,10,36,2,670
0.06870,2.95750,-4.49750,0.00000,0.02708,0.08979,-0.98552,2023,6,12,10,36,2,681
0.06880,3.18500,-4.63750,0.00000,0.02818,0.08930,-0.98356,2023,6,12,10,36,2,692
0.06890,3.16750,-4.67250,0.00000,0.02794,0.08845,-0.98332,2023,6,12,10,36,2,703
0.06900,3.01000,-4.49750,0.00000,0.02977,0.08894,-0.98552,2023,6,12,10,36,2,714
0.06910,2.87000,-4.53250,0.00000,0.02977,0.09016,-0.98637,2023,6,12,10,36,2,725
0.06920,3.06250,-4.48000,0.00000,0.02891,0.08857,-0.98564,2023,6,12,10,36,2,736
0.06930,3.11500,-4.62000,0.00000,0.02830,0.09089,-0.98735,2023,6,12,10,36,2,747
0.06940,3.04500,-4.65500,0.00000,0.02952,0.08930,-0.98344,2023,6,12,10,36,2,759
0.06950,3.09750,-4.65500,0.00000,0.02843,0.09004,-0.98539,2023,6,12,10,36,2,770
0.06960,3.04500,-4.56750,0.00000,0.02782,0.08967,-0.98588,2023,6,12,10,36,2,781
0.06970,2.92250,-4.63750,0.00000,0.03026,0.08833,-0.98417,2023,6,12,10,36,2,792
0.06980,3.04500,-4.65500,0.00000,0.02782,0.08796,-0.98552,2023,6,12,10,36,2,803
0.06990,3.22000,-4.62000,0.00000,0.02757,0.08991,-0.98430,2023,6,12,10,36,2,814
0.07000,2.94000,-4.32250,0.00000,0.02928,0.08833,-0.98539,2023,6,12,10,36,2,825
0.07010,3.04500,-4.49750,0.00000,0.02904,0.08760,-0.98613,2023,6,12,10,36,2,836
0.07020,2.97500,-4.62000,0.00000,0.02708,0.08979,-0.98600,2023,6,12,10,36,2,847
0.07030,3.18500,-4.37500,0.00000,0.02818,0.08869,-0.98527,2023,6,12,10,36,2,859
0.07040,3.01000,-4.53250,0.00000,0.02867,0.08894,-0.98661,2023,6,12,10,36,2,870
0.07050,3.18500,-4.58500,0.00000,0.03111,0.08808,-0.98466,2023,6,12,10,36,2,881
0.07060,2.80000,-4.41000,0.00000,0.03001,0.08796,-0.98430,2023,6,12,10,36,2,892
0.07070,3.08000,-4.86500,0.00000,0.02879,0.08796,-0.98466,2023,6,12,10,36,2,903
0.07080,3.22000,-4.86500,0.00000,0.02891,0.08784,-0.98539,2023,6,12,10,36,2,914
0.07090,2.94000,-4.44500,0.00000,0.02757,0.08930,-0.98405,2023,6,12,10,36,2,925
0.07100,3.01000,-4.72500,0.00000,0.02769,0.08821,-0.98320,2023,6,12,10,36,2,936
0.07110,3.08000,-4.76000,0.00000,0.02696,0.08796,-0.98527,2023,6,12,10,36,2,947
0.07120,3.18500,-4.70750,0.00000,0.02965,0.09077,-0.98661,2023,6,12,10,36,2,959
0.07130,3.15000,-4.55000,0.00000,0.02952,0.08821,-0.98503,2023,6,12,10,36,2,970
0.07140,2.99250,-4.56750,0.00000,0.03001,0.09004,-0.98344,2023,6,12,10,36,3,1
0.07150,3.15000,-4.60250,0.00000,0.02769,0.08808,-0.98637,2023,6,12,10,36,3,12
0.07160,3.08000,-4.56750,0.00000,0.02940,0.08882,-0.98478,2023,6,12,10,36,3,23
0.07170,3.13250,-4.81250,0.00000,0.02879,0.08882,-0.98637,2023,6,12,10,36,3,34
0.07180,3.01000,-4.63750,0.00000,0.02965,0.08967,-0.98588,2023,6,12,10,36,3,45
0.07190,3.06250,-4.58500,0.00000,0.02977,0.08833,-0.98491,2023,6,12,10,36,3,56
0.07200,2.90500,-4.58500,0.00000,0.03184,0.08845,-0.98564,2023,6,12,10,36,3,67
0.07210,2.90500,-4.49750,0.00000,0.02965,0.08882,-0.98308,2023,6,12,10,36,3,79
0.07220,3.09750,-4.46250,0.00000,0.02989,0.08918,-0.98527,2023,6,12,10,36,3,90
0.07230,2.88750,-4.70750,0.00000,0.02806,0.08796,-0.98344,2023,6,12,10,36,3,101
0.07240,3.04500,-4.37500,0.00000,0.02977,0.08991,-0.98552,2023,6,12,10,36,3,112
0.07250,2.92250,-4.51500,0.00000,0.02916,0.08784,-0.98491,2023,6,12,10,36,3,123
0.07260,2.99250,-4.32250,0.00000,0.02745,0.08808,-0.98564,2023,6,12,10,36,3,134
0.07270,2.94000,-4.51500,0.00000,0.03160,0.08857,-0.98722,2023,6,12,10,36,3,145
0.07280,3.01000,-4.62000,0.00000,0.02940,0.08894,-0.98503,2023,6,12,10,36,3,156
0.07290,2.97500,-4.74250,0.00000,0.02891,0.09187,-0.98698,2023,6,12,10,36,3,167
0.07300,3.02750,-4.74250,0.00000,0.02745,0.08967,-0.98674,2023,6,12,10,36,3,179
0.07310,3.04500,-4.58500,0.00000,0.02965,0.08808,-0.98552,2023,6,12,10,36,3,190
0.07320,2.88750,-4.41000,0.00000,0.03099,0.08894,-0.98527,2023,6,12,10,36,3,201
0.07330,3.04500,-4.62000,0.00000,0.02928,0.09040,-0.98576,2023,6,12,10,36,3,212
0.07340,3.11500,-4.55000,0.00000,0.02989,0.08906,-0.98783,2023,6,12,10,36,3,223
0.07350,3.18500,-4.72500,0.00000,0.02843,0.09138,-0.98686,2023,6,12,10,36,3,234
0.07360,3.04500,-4.49750,0.00000,0.02855,0.09016,-0.98649,2023,6,12,10,36,3,245
0.07370,3.16750,-4.67250,0.00000,0.02879,0.08821,-0.98442,2023,6,12,10,36,3,256
0.07380,3.01000,-4.51500,0.00000,0.02891,0.08906,-0.98649,2023,6,12,10,36,3,267
0.07390,3.15000,-4.63750,0.00000,0.02879,0.08772,-0.98320,2023,6,12,10,36,3,279
0.07400,3.23750,-4.58500,0.00000,0.02855,0.08772,-0.98625,2023,6,12,10,36,3,290
0.07410,2.87000,-4.53250,0.00000,0.03013,0.08918,-0.98637,2023,6,12,10,36,3,301
0.07420,3.01000,-4.42750,0.00000,0.02928,0.08711,-0.98393,2023,6,12,10,36,3,312
0.07430,3.13250,-4.69000,0.00000,0.02952,0.08882,-0.98576,2023,6,12,10,36,3,323
0.07440,3.13250,-4.62000,0.00000,0.02745,0.08894,-0.98478,2023,6,12,10,36,3,334
0.07450,3.01000,-4.60250,0.00000,0.02891,0.08845,-0.98844,2023,6,12,10,36,3,345
0.07460,3.13250,-4.55000,0.00000,0.02952,0.08967,-0.98661,2023,6,12,10,36,3,356
0.07470,2.92250,-4.62000,0.00000,0.03013,0.08833,-0.98393,2023,6,12,10,36,3,367
0.07480,3.27250,-4.58500,0.00000,0.02745,0.08808,-0.98454,2023,6,12,10,36,3,379
0.07490,3.11500,-4.72500,0.00000,0.03001,0.08711,-0.98588,2023,6,12,10,36,3,390
0.07500,3.16750,-4.60250,0.00000,0.03099,0.08735,-0.98405,2023,6,12,10,36,3,401
0.07510,2.99250,-4.63750,0.00000,0.02928,0.08930,-0.98588,2023,6,12,10,36,3,412
0.07520,3.20250,-4.58500,0.00000,0.02904,0.08845,-0.98295,2023,6,12,10,36,3,423
0.07530,3.11500,-4.53250,0.00000,0.02623,0.09016,-0.98649,2023,6,12,10,36,3,434
0.07540,3.02750,-4.63750,0.00000,0.03135,0.08821,-0.98478,2023,6,12,10,36,3,445
0.07550,2.94000,-4.49750,0.00000,0.02952,0.09065,-0.98491,2023,6,12,10,36,3,456
0.07560,3.08000,-4.53250,0.00000,0.02879,0.08955,-0.98478,2023,6,12,10,36,3,467
0.07570,3.09750,-4.51500,0.00000,0.02843,0.08918,-0.98466,2023,6,12,10,36,3,479
0.07580,3.02750,-4.39250,0.00000,0.02867,0.09089,-0.98722,2023,6,12,10,36,3,490
0.07590,3.15000,-4.56750,0.00000,0.02855,0.08943,-0.98417,2023,6,12,10,36,3,501
0.07600,2.92250,-4.67250,0.00000,0.02904,0.08699,-0.98454,2023,6,12,10,36,3,512
0.07610,2.97500,-4.46250,0.00000,0.02928,0.09113,-0.98564,2023,6,12,10,36,3,523
0.07620,3.13250,-4.74250,0.00000,0.02952,0.08967,-0.98564,2023,6,12,10,36,3,534
0.07630,3.01000,-4.62000,0.00000,0.02782,0.09065,-0.98600,2023,6,12,10,36,3,545
0.07640,3.25500,-4.79500,0.00000,0.02843,0.08979,-0.98747,2023,6,12,10,36,3,556
0.07650,3.06250,-4.46250,0.00000,0.02891,0.08760,-0.98454,2023,6,12,10,36,3,567
0.07660,3.15000,-4.67250,0.00000,0.03001,0.08808,-0.98759,2023,6,12,10,36,3,579
0.07670,3.15000,-4.53250,0.00000,0.02977,0.08894,-0.98576,2023,6,12,10,36,3,590
0.07680,3.11500,-4.63750,0.00000,0.02611,0.08821,-0.98881,2023,6,12,10,36,3,601
0.07690,3.06250,-4.46250,0.00000,0.02940,0.08650,-0.98137,2023,6,12,10,36,3,612
0.07700,3.09750,-4.69000,0.00000,0.02916,0.08955,-0.98625,2023,6,12,10,36,3,623
0.07710,3.09750,-4.46250,0.00000,0.03013,0.08821,-0.98344,2023,6,12,10,36,3,634
0.07720,3.11500,-4.60250,0.00000,0.03172,0.08906,-0.98478,2023,6,12,10,36,3,645
0.07730,3.01000,-4.49750,0.00000,0.03026,0.08894,-0.98222,2023,6,12,10,36,3,656
0.07740,3.09750,-4.69000,0.00000,0.02879,0.08845,-0.98649,2023,6,12,10,36,3,667
0.07750,3.01000,-4.49750,0.00000,0.02464,0.09016,-0.98649,2023,6,12,10,36,3,679
0.07760,3.11500,-4.60250,0.00000,0.02977,0.08894,-0.98491,2023,6,12,10,36,3,690
0.07770,3.02750,-4.44500,0.00000,0.02879,0.08808,-0.98661,2023,6,12,10,36,3,701
0.07780,3.16750,-4.65500,0.00000,0.02891,0.08918,-0.98344,2023,6,12,10,36,3,712
0.07790,2.92250,-4.69000,0.00000,0.02757,0.08991,-0.98430,2023,6,12,10,36,3,723
0.07800,3.08000,-4.60250,0.00000,0.02952,0.08906,-0.98588,2023,6,12,10,36,3,734
0.07810,3.01000,-4.58500,0.00000,0.02977,0.08833,-0.98686,2023,6,12,10,36,3,745
0.07820,3.11500,-4.39250,0.00000,0.02818,0.08760,-0.98539,2023,6,12,10,36,3,756
0.07830,2.81750,-4.49750,0.00000,0.02660,0.08760,-0.98552,2023,6,12,10,36,3,767
0.07840,2.83500,-4.76000,0.00000,0.02940,0.08894,-0.98491,2023,6,12,10,36,3,779
0.07850,2.92250,-4.51500,0.00000,0.03257,0.08882,-0.98295,2023,6,12,10,36,3,790
0.07860,3.13250,-4.53250,0.00000,0.02904,0.08784,-0.98503,2023,6,12,10,36,3,801
0.07870,3.15000,-4.63750,0.00000,0.02940,0.08930,-0.98698,2023,6,12,10,36,3,812
0.07880,3.04500,-4.32250,0.00000,0.02855,0.08991,-0.98613,2023,6,12,10,36,3,823
0.07890,2.99250,-4.56750,0.00000,0.03013,0.08833,-0.98369,2023,6,12,10,36,3,834
0.07900,2.97500,-4.49750,0.00000,0.02867,0.08821,-0.98783,2023,6,12,10,36,3,845
0.07910,2.90500,-4.56750,0.00000,0.02977,0.08747,-0.98466,2023,6,12,10,36,3,856
0.07920,2.97500,-4.65500,0.00000,0.03160,0.09138,-0.98637,2023,6,12,10,36,3,867
0.07930,2.99250,-4.60250,0.00000,0.02830,0.08906,-0.98478,2023,6,12,10,36,3,879
0.07940,3.13250,-4.51500,0.00000,0.03013,0.08955,-0.98417,2023,6,12,10,36,3,890
0.07950,3.09750,-4.72500,0.00000,0.02940,0.08747,-0.98539,2023,6,12,10,36,3,901
0.07960,3.16750,-4.72500,0.00000,0.02940,0.08918,-0.98430,2023,6,12,10,36,3,912
0.07970,3.01000,-4.67250,0.00000,0.02843,0.09113,-0.98686,2023,6,12,10,36,3,923
0.07980,3.22000,-4.88250,0.00000,0.03013,0.08772,-0.98491,2023,6,12,10,36,3,934
0.07990,2.74750,-4.39250,0.00000,0.02928,0.09101,-0.98918,2023,6,12,10,36,3,945
0.08000,2.94000,-4.70750,0.00000,0.02916,0.08882,-0.98381,2023,6,12,10,36,3,956
0.08010,3.02750,-4.63750,0.00000,0.02916,0.08991,-0.98088,2023,6,12,10,36,4,7
0.08020,3.23750,-4.53250,0.00000,0.02940,0.08894,-0.98661,2023,6,12,10,36,4,19
0.08030,2.94000,-4.39250,0.00000,0.03013,0.08808,-0.98539,2023,6,12,10,36,4,30
0.08040,3.13250,-4.65500,0.00000,0.02940,0.08918,-0.98381,2023,6,12,10,36,4,41
0.08050,2.87000,-4.46250,0.00000,0.03087,0.08747,-0.98332,2023,6,12,10,36,4,52
0.08060,3.22000,-4.67250,0.00000,0.02830,0.08808,-0.98344,2023,6,12,10,36,4,63
0.08070,2.92250,-4.42750,0.00000,0.02977,0.08906,-0.98234,2023,6,12,10,36,4,74
0.08080,3.04500,-4.69000,0.00000,0.02879,0.09162,-0.98478,2023,6,12,10,36,4,85
0.08090,2.92250,-4.42750,0.00000,0.02904,0.09199,-0.98381,2023,6,12,10,36,4,96
0.08100,3.04500,-4.70750,0.00000,0.02965,0.08796,-0.98527,2023,6,12,10,36,4,107
0.08110,3.04500,-4.60250,0.00000,0.02928,0.08882,-0.98381,2023,6,12,10,36,4,119
0.08120,3.16750,-4.67250,0.00000,0.02867,0.08589,-0.98625,2023,6,12,10,36,4,130
0.08130,3.22000,-4.65500,0.00000,0.02879,0.08857,-0.98332,2023,6,12,10,36,4,141
0.08140,2.94000,-4.60250,0.00000,0.02867,0.08723,-0.98454,2023,6,12,10,36,4,152
0.08150,3.06250,-4.56750,0.00000,0.03123,0.09052,-0.98454,2023,6,12,10,36,4,163
0.08160,3.08000,-4.60250,0.00000,0.02989,0.08711,-0.98979,2023,6,12,10,36,4,174
0.08170,2.95750,-4.48000,0.00000,0.02745,0.08967,-0.98698,2023,6,12,10,36,4,185
0.08180,3.11500,-4.65500,0.00000,0.02879,0.08979,-0.98393,2023,6,12,10,36,4,196
0.08190,2.97500,-4.62000,0.00000,0.02952,0.08955,-0.98356,2023,6,12,10,36,4,207
0.08200,3.02750,-4.74250,0.00000,0.02989,0.08784,-0.98442,2023,6,12,10,36,4,219
0.08210,3.11500,-4.44500,0.00000,0.02818,0.08967,-0.98417,2023,6,12,10,36,4,230
0.08220,2.90500,-4.46250,0.00000,0.02891,0.08650,-0.98613,2023,6,12,10,36,4,241
0.08230,3.09750,-4.65500,0.00000,0.03013,0.09052,-0.98173,2023,6,12,10,36,4,252
0.08240,3.15000,-4.76000,0.00000,0.02977,0.08784,-0.98564,2023,6,12,10,36,4,263
0.08250,3.01000,-4.69000,0.00000,0.03026,0.08930,-0.98332,2023,6,12,10,36,4,274
0.08260,3.04500,-4.72500,0.00000,0.02745,0.08821,-0.98442,2023,6,12,10,36,4,285
0.08270,3.15000,-4.49750,0.00000,0.02855,0.08686,-0.98625,2023,6,12,10,36,4,296
0.08280,3.11500,-4.69000,0.00000,0.02891,0.08772,-0.98466,2023,6,12,10,36,4,307
0.08290,3.06250,-4.56750,0.00000,0.02818,0.08979,-0.98588,2023,6,12,10,36,4,319
0.08300,3.13250,-4.76000,0.00000,0.02855,0.08796,-0.98442,2023,6,12,10,36,4,330
0.08310,2.88750,-4.37500,0.00000,0.02733,0.08955,-0.98442,2023,6,12,10,36,4,341
0.08320,3.27250,-4.51500,0.00000,0.02696,0.08796,-0.98686,2023,6,12,10,36,4,352
0.08330,3.20250,-4.83000,0.00000,0.03013,0.08845,-0.98491,2023,6,12,10,36,4,363
0.08340,2.99250,-4.51500,0.00000,0.02965,0.08735,-0.98503,2023,6,12,10,36,4,374
0.08350,3.01000,-4.49750,0.00000,0.02965,0.08735,-0.98515,2023,6,12,10,36,4,385
0.08360,3.08000,-4.91750,0.00000,0.03001,0.08930,-0.98613,2023,6,12,10,36,4,396
0.08370,3.04500,-4.77750,0.00000,0.02879,0.08943,-0.98369,2023,6,12,10,36,4,407
0.08380,2.97500,-4.76000,0.00000,0.03221,0.08906,-0.98283,2023,6,12,10,36,4,419
0.08390,3.23750,-4.55000,0.00000,0.02989,0.08747,-0.98808,2023,6,12,10,36,4,430
0.08400,2.94000,-4.53250,0.00000,0.02806,0.09004,-0.98210,2023,6,12,10,36,4,441
0.08410,3.15000,-4.62000,0.00000,0.02830,0.08796,-0.98466,2023,6,12,10,36,4,452
0.08420,2.80000,-4.69000,0.00000,0.02769,0.09040,-0.98112,2023,6,12,10,36,4,463
0.08430,3.06250,-4.67250,0.00000,0.02904,0.08869,-0.98442,2023,6,12,10,36,4,474
0.08440,3.23750,-4.69000,0.00000,0.03013,0.08894,-0.98344,2023,6,12,10,36,4,485
0.08450,3.18500,-4.62000,0.00000,0.03001,0.08821,-0.98539,2023,6,12,10,36,4,496
0.08460,2.92250,-4.67250,0.00000,0.02830,0.09077,-0.98674,2023,6,12,10,36,4,507
0.08470,3.27250,-4.65500,0.00000,0.02830,0.08918,-0.98552,2023,6,12,10,36,4,519
0.08480,2.97500,-4.53250,0.00000,0.02721,0.08650,-0.98686,2023,6,12,10,36,4,530
0.08490,3.11500,-4.49750,0.00000,0.03038,0.08979,-0.98344,2023,6,12,10,36,4,541
0.08500,2.90500,-4.60250,0.00000,0.02891,0.08735,-0.98491,2023,6,12,10,36,4,552
0.08510,3.15000,-4.51500,0.00000,0.02721,0.08833,-0.98308,2023,6,12,10,36,4,563
0.08520,2.95750,-4.67250,0.00000,0.03123,0.08882,-0.98442,2023,6,12,10,36,4,574
0.08530,2.94000,-4.70750,0.00000,0.02855,0.08894,-0.98393,2023,6,12,10,36,4,585
0.08540,3.06250,-4.76000,0.00000,0.03050,0.09004,-0.98503,2023,6,12,10,36,4,596
0.08550,2.92250,-4.62000,0.00000,0.02965,0.08821,-0.98491,2023,6,12,10,36,4,607
0.08560,3.11500,-4.62000,0.00000,0.02818,0.08747,-0.98625,2023,6,12,10,36,4,619
0.08570,3.27250,-4.72500,0.00000,0.03026,0.08784,-0.98600,2023,6,12,10,36,4,630
0.08580,3.18500,-4.62000,0.00000,0.02904,0.08796,-0.98722,2023,6,12,10,36,4,641
0.08590,3.08000,-4.56750,0.00000,0.02989,0.08967,-0.98466,2023,6,12,10,36,4,652
0.08600,3.04500,-4.56750,0.00000,0.02623,0.08711,-0.98503,2023,6,12,10,36,4,663
0.08610,2.97500,-4.48000,0.00000,0.02769,0.08845,-0.98442,2023,6,12,10,36,4,674
0.08620,3.04500,-4.72500,0.00000,0.02794,0.08857,-0.98308,2023,6,12,10,36,4,685
0.08630,3.02750,-4.48000,0.00000,0.02696,0.08979,-0.98161,2023,6,12,10,36,4,696
0.08640,3.09750,-4.44500,0.00000,0.03160,0.08760,-0.98527,2023,6,12,10,36,4,707
0.08650,2.95750,-4.46250,0.00000,0.03026,0.08662,-0.98515,2023,6,12,10,36,4,719
0.08660,3.15000,-4.53250,0.00000,0.02928,0.08650,-0.98661,2023,6,12,10,36,4,730
0.08670,2.85250,-4.55000,0.00000,0.02916,0.08930,-0.98417,2023,6,12,10,36,4,741
0.08680,2.90500,-4.56750,0.00000,0.02696,0.09040,-0.98588,2023,6,12,10,36,4,752
0.08690,3.02750,-4.76000,0.00000,0.02952,0.09065,-0.98698,2023,6,12,10,36,4,763
0.08700,3.13250,-4.58500,0.00000,0.02794,0.08711,-0.98454,2023,6,12,10,36,4,774
0.08710,3.18500,-4.60250,0.00000,0.03026,0.09089,-0.98613,2023,6,12,10,36,4,785
0.08720,3.13250,-4.60250,0.00000,0.02708,0.08882,-0.98539,2023,6,12,10,36,4,796
0.08730,2.97500,-4.46250,0.00000,0.03001,0.08845,-0.98234,2023,6,12,10,36,4,807
0.08740,3.01000,-4.55000,0.00000,0.03099,0.08625,-0.98186,2023,6,12,10,36,4,819
0.08750,3.08000,-4.76000,0.00000,0.02794,0.09004,-0.98198,2023,6,12,10,36,4,830
0.08760,3.20250,-4.69000,0.00000,0.02952,0.08882,-0.98320,2023,6,12,10,36,4,841
0.08770,2.94000,-4.72500,0.00000,0.02904,0.08882,-0.98234,2023,6,12,10,36,4,852
0.08780,3.13250,-4.84750,0.00000,0.02916,0.08662,-0.98478,2023,6,12,10,36,4,863
0.08790,3.09750,-4.49750,0.00000,0.03074,0.08796,-0.98747,2023,6,12,10,36,4,874
0.08800,3.06250,-4.42750,0.00000,0.02721,0.08650,-0.98454,2023,6,12,10,36,4,885
0.08810,2.87000,-4.53250,0.00000,0.02952,0.08760,-0.98600,2023,6,12,10,36,4,896
0.08820,2.94000,-4.46250,0.00000,0.02891,0.08833,-0.98417,2023,6,12,10,36,4,907
0.08830,3.13250,-4.62000,0.00000,0.03099,0.08857,-0.98271,2023,6,12,10,36,4,919
0.08840,3.15000,-4.67250,0.00000,0.02855,0.08943,-0.98552,2023,6,12,10,36,4,930
0.08850,2.87000,-4.62000,0.00000,0.03099,0.08894,-0.98332,2023,6,12,10,36,4,941
0.08860,2.95750,-4.49750,0.00000,0.03111,0.08869,-0.98491,2023,6,12,10,36,4,952
0.08870,2.97500,-4.42750,0.00000,0.02794,0.08747,-0.98637,2023,6,12,10,36,4,963
0.08880,2.99250,-4.42750,0.00000,0.02965,0.08930,-0.98466,2023,6,12,10,36,5,4
0.08890,3.01000,-4.65500,0.00000,0.02952,0.09016,-0.98698,2023,6,12,10,36,5,15
0.08900,2.99250,-4.46250,0.00000,0.02672,0.08808,-0.98283,2023,6,12,10,36,5,26
0.08910,3.02750,-4.60250,0.00000,0.02867,0.08869,-0.98649,2023,6,12,10,36,5,37
0.08920,3.01000,-4.63750,0.00000,0.02757,0.09028,-0.98649,2023,6,12,10,36,5,49
0.08930,2.94000,-4.48000,0.00000,0.02855,0.08930,-0.98649,2023,6,12,10,36,5,60
0.08940,3.09750,-4.51500,0.00000,0.02672,0.08833,-0.98527,2023,6,12,10,36,5,71
0.08950,3.01000,-4.67250,0.00000,0.03026,0.08723,-0.98405,2023,6,12,10,36,5,82
0.08960,3.18500,-4.49750,0.00000,0.03013,0.08894,-0.98552,2023,6,12,10,36,5,93
0.08970,3.08000,-4.49750,0.00000,0.03001,0.08845,-0.98417,2023,6,12,10,36,5,104
0.08980,2.99250,-4.65500,0.00000,0.02989,0.08796,-0.98320,2023,6,12,10,36,5,115
0.08990,2.87000,-4.28750,0.00000,0.02843,0.08943,-0.98417,2023,6,12,10,36,5,126
0.09000,2.95750,-4.62000,0.00000,0.02952,0.08943,-0.98283,2023,6,12,10,36,5,137
0.09010,3.02750,-4.58500,0.00000,0.02965,0.08796,-0.98710,2023,6,12,10,36,5,149
0.09020,3.08000,-4.58500,0.00000,0.02818,0.08857,-0.98344,2023,6,12,10,36,5,160
0.09030,3.01000,-4.83000,0.00000,0.03050,0.08906,-0.98710,2023,6,12,10,36,5,171
0.09040,2.99250,-4.49750,0.00000,0.02977,0.08662,-0.98454,2023,6,12,10,36,5,182
0.09050,2.94000,-4.46250,0.00000,0.02965,0.08894,-0.98552,2023,6,12,10,36,5,193
0.09060,3.01000,-4.70750,0.00000,0.02891,0.08760,-0.98564,2023,6,12,10,36,5,204
0.09070,3.23750,-4.58500,0.00000,0.02879,0.08979,-0.98503,2023,6,12,10,36,5,215
0.09080,3.09750,-4.56750,0.00000,0.02843,0.08784,-0.98674,2023,6,12,10,36,5,226
0.09090,3.23750,-4.83000,0.00000,0.03123,0.08772,-0.98539,2023,6,12,10,36,5,237
0.09100,3.20250,-4.51500,0.00000,0.02745,0.08918,-0.98259,2023,6,12,10,36,5,249
0.09110,3.02750,-4.49750,0.00000,0.02843,0.09028,-0.98588,2023,6,12,10,36,5,260
0.09120,3.13250,-4.63750,0.00000,0.02794,0.08711,-0.98466,2023,6,12,10,36,5,271
0.09130,3.04500,-4.44500,0.00000,0.02745,0.08821,-0.98356,2023,6,12,10,36,5,282
0.09140,3.09750,-4.74250,0.00000,0.02867,0.08760,-0.98552,2023,6,12,10,36,5,293
0.09150,2.90500,-4.63750,0.00000,0.03001,0.08808,-0.98405,2023,6,12,10,36,5,304
0.09160,3.15000,-4.60250,0.00000,0.02928,0.08808,-0.98600,2023,6,12,10,36,5,315
0.09170,2.87000,-4.46250,0.00000,0.02757,0.08882,-0.98417,2023,6,12,10,36,5,326
0.09180,3.01000,-4.55000,0.00000,0.02891,0.08979,-0.98295,2023,6,12,10,36,5,337
0.09190,3.11500,-4.56750,0.00000,0.02879,0.08869,-0.98308,2023,6,12,10,36,5,349
0.09200,3.18500,-4.63750,0.00000,0.02952,0.08686,-0.98295,2023,6,12,10,36,5,360
0.09210,3.16750,-4.65500,0.00000,0.02867,0.08882,-0.98478,2023,6,12,10,36,5,371
0.09220,3.18500,-4.65500,0.00000,0.02782,0.09065,-0.98454,2023,6,12,10,36,5,382
0.09230,2.99250,-4.46250,0.00000,0.02782,0.08796,-0.98710,2023,6,12,10,36,5,393
0.09240,3.16750,-4.72500,0.00000,0.02940,0.08772,-0.98552,2023,6,12,10,36,5,404
0.09250,2.94000,-4.55000,0.00000,0.02952,0.08894,-0.98356,2023,6,12,10,36,5,415
0.09260,2.76500,-4.41000,0.00000,0.03026,0.08772,-0.98625,2023,6,12,10,36,5,426
0.09270,2.94000,-4.46250,0.00000,0.02977,0.08918,-0.98637,2023,6,12,10,36,5,437
0.09280,3.20250,-4.48000,0.00000,0.02891,0.08845,-0.98588,2023,6,12,10,36,5,449
0.09290,3.06250,-4.63750,0.00000,0.02635,0.08857,-0.98454,2023,6,12,10,36,5,460
0.09300,2.78250,-4.51500,0.00000,0.02965,0.08808,-0.98320,2023,6,12,10,36,5,471
0.09310,3.08000,-4.67250,0.00000,0.02574,0.08784,-0.98625,2023,6,12,10,36,5,482
0.09320,3.13250,-4.67250,0.00000,0.02928,0.08796,-0.98552,2023,6,12,10,36,5,493
0.09330,3.04500,-4.65500,0.00000,0.02745,0.08821,-0.98661,2023,6,12,10,36,5,504
0.09340,2.92250,-4.55000,0.00000,0.03087,0.08967,-0.98356,2023,6,12,10,36,5,515
0.09350,3.02750,-4.60250,0.00000,0.03196,0.08784,-0.98430,2023,6,12,10,36,5,526
0.09360,2.97500,-4.51500,0.00000,0.02879,0.09089,-0.98698,2023,6,12,10,36,5,537
0.09370,3.16750,-4.62000,0.00000,0.02904,0.08845,-0.98491,2023,6,12,10,36,5,549
0.09380,3.16750,-4.42750,0.00000,0.02940,0.08882,-0.98552,2023,6,12,10,36,5,560
0.09390,3.13250,-4.67250,0.00000,0.02940,0.08808,-0.98381,2023,6,12,10,36,5,571
0.09400,3.13250,-4.60250,0.00000,0.02904,0.08808,-0.98588,2023,6,12,10,36,5,582
0.09410,3.06250,-4.84750,0.00000,0.02782,0.08747,-0.98466,2023,6,12,10,36,5,593
0.09420,3.02750,-4.81250,0.00000,0.02867,0.08955,-0.98637,2023,6,12,10,36,5,604
0.09430,2.87000,-4.39250,0.00000,0.03074,0.09028,-0.98442,2023,6,12,10,36,5,615
0.09440,2.99250,-4.63750,0.00000,0.02757,0.08735,-0.98649,2023,6,12,10,36,5,626
0.09450,3.13250,-4.49750,0.00000,0.02867,0.08808,-0.98210,2023,6,12,10,36,5,637
0.09460,2.92250,-4.35750,0.00000,0.03026,0.08869,-0.98430,2023,6,12,10,36,5,649
0.09470,3.08000,-4.56750,0.00000,0.03050,0.09113,-0.98491,2023,6,12,10,36,5,660
0.09480,3.11500,-4.58500,0.00000,0.03123,0.08967,-0.98478,2023,6,12,10,36,5,671
0.09490,2.99250,-4.53250,0.00000,0.03087,0.08906,-0.98454,2023,6,12,10,36,5,682
0.09500,3.29000,-4.60250,0.00000,0.02989,0.08821,-0.98478,2023,6,12,10,36,5,693
0.09510,2.90500,-4.48000,0.00000,0.02867,0.08857,-0.98698,2023,6,12,10,36,5,704
0.09520,3.15000,-4.70750,0.00000,0.03062,0.08613,-0.98503,2023,6,12,10,36,5,715
0.09530,3.11500,-4.65500,0.00000,0.03172,0.09065,-0.98259,2023,6,12,10,36,5,726
0.09540,3.08000,-4.62000,0.00000,0.02879,0.08906,-0.98686,2023,6,12,10,36,5,737
0.09550,2.90500,-4.49750,0.00000,0.02904,0.09052,-0.98405,2023,6,12,10,36,5,749
0.09560,3.22000,-4.58500,0.00000,0.02855,0.09113,-0.98539,2023,6,12,10,36,5,760
0.09570,2.87000,-4.51500,0.00000,0.02830,0.09113,-0.98344,2023,6,12,10,36,5,771
0.09580,2.95750,-4.49750,0.00000,0.02855,0.08967,-0.98210,2023,6,12,10,36,5,782
0.09590,3.15000,-4.60250,0.00000,0.02989,0.09028,-0.98344,2023,6,12,10,36,5,793
0.09600,3.08000,-4.58500,0.00000,0.02794,0.08869,-0.98393,2023,6,12,10,36,5,804
0.09610,3.15000,-4.51500,0.00000,0.03062,0.08784,-0.98295,2023,6,12,10,36,5,815
0.09620,3.06250,-4.69000,0.00000,0.03026,0.08979,-0.98308,2023,6,12,10,36,5,826
0.09630,3.09750,-4.60250,0.00000,0.02879,0.08894,-0.98576,2023,6,12,10,36,5,837
0.09640,3.11500,-4.53250,0.00000,0.02794,0.08784,-0.98576,2023,6,12,10,36,5,849
0.09650,2.97500,-4.51500,0.00000,0.02684,0.08808,-0.98625,2023,6,12,10,36,5,860
0.09660,3.11500,-4.65500,0.00000,0.03026,0.09126,-0.98442,2023,6,12,10,36,5,871
0.09670,3.01000,-4.69000,0.00000,0.02928,0.08833,-0.98613,2023,6,12,10,36,5,882
0.09680,3.15000,-4.62000,0.00000,0.02904,0.08857,-0.98515,2023,6,12,10,36,5,893
0.09690,2.90500,-4.51500,0.00000,0.02867,0.08894,-0.98564,2023,6,12,10,36,5,904
0.09700,2.97500,-4.58500,0.00000,0.02843,0.09162,-0.98417,2023,6,12,10,36,5,915
0.09710,2.88750,-4.53250,0.00000,0.02940,0.08638,-0.98527,2023,6,12,10,36,5,926
0.09720,3.06250,-4.60250,0.00000,0.02940,0.08882,-0.98613,2023,6,12,10,36,5,937
0.09730,3.09750,-4.60250,0.00000,0.02952,0.08869,-0.98783,2023,6,12,10,36,5,949
0.09740,3.15000,-4.51500,0.00000,0.02977,0.09089,-0.98600,2023,6,12,10,36,5,960
0.09750,3.13250,-4.58500,0.00000,0.02940,0.08918,-0.98466,2023,6,12,10,36,5,971
0.09760,2.95750,-4.72500,0.00000,0.02696,0.09101,-0.98747,2023,6,12,10,36,6,2
0.09770,3.02750,-4.63750,0.00000,0.02708,0.08857,-0.98625,2023,6,12,10,36,6,13
0.09780,3.09750,-4.74250,0.00000,0.02672,0.08845,-0.98686,2023,6,12,10,36,6,24
0.09790,3.15000,-4.46250,0.00000,0.03013,0.08894,-0.98247,2023,6,12,10,36,6,35
0.09800,2.99250,-4.58500,0.00000,0.02855,0.08662,-0.98637,2023,6,12,10,36,6,46
0.09810,2.92250,-4.58500,0.00000,0.02830,0.08869,-0.98588,2023,6,12,10,36,6,57
0.09820,3.06250,-4.69000,0.00000,0.02879,0.08869,-0.98515,2023,6,12,10,36,6,69
0.09830,2.97500,-4.48000,0.00000,0.02867,0.08808,-0.98710,2023,6,12,10,36,6,80
0.09840,3.01000,-4.77750,0.00000,0.02965,0.08613,-0.98332,2023,6,12,10,36,6,91
0.09850,3.08000,-4.48000,0.00000,0.02855,0.09089,-0.98430,2023,6,12,10,36,6,102
0.09860,2.94000,-4.49750,0.00000,0.02977,0.08869,-0.98564,2023,6,12,10,36,6,113
0.09870,3.01000,-4.55000,0.00000,0.02904,0.08674,-0.98332,2023,6,12,10,36,6,124
0.09880,2.95750,-4.46250,0.00000,0.02867,0.08906,-0.98527,2023,6,12,10,36,6,135
0.09890,3.02750,-4.55000,0.00000,0.02745,0.08808,-0.98600,2023,6,12,10,36,6,146
0.09900,3.08000,-4.74250,0.00000,0.03013,0.08943,-0.98564,2023,6,12,10,36,6,157
0.09910,2.88750,-4.70750,0.00000,0.02891,0.08955,-0.98588,2023,6,12,10,36,6,169
0.09920,3.13250,-4.48000,0.00000,0.02952,0.08796,-0.98564,2023,6,12,10,36,6,180
0.09930,3.08000,-4.48000,0.00000,0.02965,0.08930,-0.98308,2023,6,12,10,36,6,191
0.09940,2.90500,-4.58500,0.00000,0.03050,0.08894,-0.98369,2023,6,12,10,36,6,202
0.09950,3.04500,-4.70750,0.00000,0.02891,0.08711,-0.98405,2023,6,12,10,36,6,213
0.09960,3.01000,-4.62000,0.00000,0.02818,0.08991,-0.98466,2023,6,12,10,36,6,224
0.09970,3.13250,-4.65500,0.00000,0.02879,0.08833,-0.98515,2023,6,12,10,36,6,235
0.09980,2.92250,-4.55000,0.00000,0.02940,0.08808,-0.98539,2023,6,12,10,36,6,246
0.09990,3.08000,-4.41000,0.00000,0.03050,0.08857,-0.98576,2023,6,12,10,36,6,257
0.10000,3.02750,-4.44500,0.00000,0.02806,0.09016,-0.98332,2023,6,12,10,36,6,269
0.10010,3.13250,-4.53250,0.00000,0.02879,0.08943,-0.98186,2023,6,12,10,36,6,280
0.10020,3.04500,-4.49750,0.00000,0.02757,0.08857,-0.98454,2023,6,12,10,36,6,291
0.10030,3.04500,-4.74250,0.00000,0.02928,0.09077,-0.98442,2023,6,12,10,36,6,302
0.10040,3.20250,-4.77750,0.00000,0.02830,0.08967,-0.98430,2023,6,12,10,36,6,313
0.10050,2.85250,-4.62000,0.00000,0.02843,0.08821,-0.98393,2023,6,12,10,36,6,324
0.10060,3.22000,-4.44500,0.00000,0.03050,0.08821,-0.98515,2023,6,12,10,36,6,335
0.10070,2.95750,-4.53250,0.00000,0.02916,0.09040,-0.98686,2023,6,12,10,36,6,346
0.10080,3.04500,-4.55000,0.00000,0.02782,0.08857,-0.98527,2023,6,12,10,36,6,357
0.10090,3.13250,-4.55000,0.00000,0.02940,0.08808,-0.98405,2023,6,12,10,36,6,369
0.10100,2.97500,-4.32250,0.00000,0.02818,0.09089,-0.98515,2023,6,12,10,36,6,380
0.10110,3.09750,-4.41000,0.00000,0.02806,0.08796,-0.98686,2023,6,12,10,36,6,391
0.10120,3.15000,-4.67250,0.00000,0.02721,0.08918,-0.98454,2023,6,12,10,36,6,402
0.10130,3.02750,-4.65500,0.00000,0.02782,0.08821,-0.98283,2023,6,12,10,36,6,413
0.10140,3.08000,-4.44500,0.00000,0.02696,0.08808,-0.98283,2023,6,12,10,36,6,424
0.10150,3.18500,-4.60250,0.00000,0.02769,0.08869,-0.98344,2023,6,12,10,36,6,435
0.10160,3.11500,-4.60250,0.00000,0.02891,0.08979,-0.98417,2023,6,12,10,36,6,446
0.10170,3.15000,-4.63750,0.00000,0.02879,0.08760,-0.98283,2023,6,12,10,36,6,457
0.10180,3.02750,-4.53250,0.00000,0.03038,0.08906,-0.98600,2023,6,12,10,36,6,469
0.10190,3.15000,-4.79500,0.00000,0.02916,0.08808,-0.98466,2023,6,12,10,36,6,480
0.10200,3.09750,-4.65500,0.00000,0.03001,0.08955,-0.98503,2023,6,12,10,36,6,491
0.10210,3.01000,-4.83000,0.00000,0.02952,0.08772,-0.98466,2023,6,12,10,36,6,502
0.10220,2.87000,-4.35750,0.00000,0.02891,0.08882,-0.98210,2023,6,12,10,36,6,513
0.10230,3.18500,-4.84750,0.00000,0.02989,0.08796,-0.98417,2023,6,12,10,36,6,524
0.10240,3.01000,-4.42750,0.00000,0.02928,0.08882,-0.98649,2023,6,12,10,36,6,535
0.10250,3.16750,-4.72500,0.00000,0.02806,0.09016,-0.98527,2023,6,12,10,36,6,546
0.10260,3.09750,-4.51500,0.00000,0.02830,0.09028,-0.98344,2023,6,12,10,36,6,557
0.10270,2.88750,-4.56750,0.00000,0.02916,0.08845,-0.98259,2023,6,12,10,36,6,569
0.10280,2.85250,-4.56750,0.00000,0.03087,0.09028,-0.98308,2023,6,12,10,36,6,580
0.10290,3.11500,-4.77750,0.00000,0.02818,0.09040,-0.98222,2023,6,12,10,36,6,591
0.10300,2.94000,-4.56750,0.00000,0.03026,0.08906,-0.98234,2023,6,12,10,36,6,602
0.10310,3.13250,-4.46250,0.00000,0.02965,0.09089,-0.98820,2023,6,12,10,36,6,613
0.10320,3.01000,-4.65500,0.00000,0.03111,0.08784,-0.98796,2023,6,12,10,36,6,624
0.10330,3.22000,-4.53250,0.00000,0.02965,0.08833,-0.98637,2023,6,12,10,36,6,635
0.10340,2.94000,-4.77750,0.00000,0.02989,0.08808,-0.98283,2023,6,12,10,36,6,646
0.10350,3.04500,-4.42750,0.00000,0.02940,0.09016,-0.98552,2023,6,12,10,36,6,657
0.10360,3.20250,-4.51500,0.00000,0.02806,0.08808,-0.98283,2023,6,12,10,36,6,669
0.10370,2.90500,-4.39250,0.00000,0.02879,0.08845,-0.98515,2023,6,12,10,36,6,680
0.10380,2.97500,-4.56750,0.00000,0.03050,0.08845,-0.98332,2023,6,12,10,36,6,691
0.10390,3.13250,-4.65500,0.00000,0.03209,0.08808,-0.98491,2023,6,12,10,36,6,702
0.10400,3.09750,-4.70750,0.00000,0.02855,0.08772,-0.98527,2023,6,12,10,36,6,713
0.10410,3.13250,-4.48000,0.00000,0.03160,0.08821,-0.98478,2023,6,12,10,36,6,724
0.10420,3.16750,-4.69000,0.00000,0.02782,0.08930,-0.98564,2023,6,12,10,36,6,735
0.10430,3.15000,-4.70750,0.00000,0.02867,0.08894,-0.98442,2023,6,12,10,36,6,746
0.10440,3.02750,-4.44500,0.00000,0.02952,0.08869,-0.98393,2023,6,12,10,36,6,757
0.10450,2.85250,-4.41000,0.00000,0.02904,0.08857,-0.98491,2023,6,12,10,36,6,769
0.10460,3.13250,-4.67250,0.00000,0.02916,0.08955,-0.98503,2023,6,12,10,36,6,780
0.10470,3.06250,-4.62000,0.00000,0.02928,0.08821,-0.98173,2023,6,12,10,36,6,791
0.10480,3.02750,-4.74250,0.00000,0.02867,0.08918,-0.98234,2023,6,12,10,36,6,802
0.10490,3.11500,-4.70750,0.00000,0.02855,0.08979,-0.98222,2023,6,12,10,36,6,813
0.10500,3.41250,-4.67250,0.00000,0.02916,0.08967,-0.98759,2023,6,12,10,36,6,824
0.10510,3.08000,-4.58500,0.00000,0.02745,0.08869,-0.98320,2023,6,12,10,36,6,835
0.10520,3.02750,-4.65500,0.00000,0.02843,0.08735,-0.98442,2023,6,12,10,36,6,846
0.10530,3.06250,-4.58500,0.00000,0.02928,0.08845,-0.98576,2023,6,12,10,36,6,857
0.10540,2.99250,-4.30500,0.00000,0.03001,0.08894,-0.98247,2023,6,12,10,36,6,869
0.10550,3.04500,-4.49750,0.00000,0.02769,0.09028,-0.98369,2023,6,12,10,36,6,880
0.10560,2.87000,-4.55000,0.00000,0.02867,0.08882,-0.98430,2023,6,12,10,36,6,891
0.10570,2.90500,-4.65500,0.00000,0.02928,0.08772,-0.98478,2023,6,12,10,36,6,902
0.10580,3.11500,-5.11000,0.00000,0.02794,0.08869,-0.98491,2023,6,12,10,36,6,913
0.10590,3.13250,-4.49750,0.00000,0.03172,0.08918,-0.98369,2023,6,12,10,36,6,924
0.10600,3.06250,-4.51500,0.00000,0.02818,0.08930,-0.98210,2023,6,12,10,36,6,935
0.10610,3.13250,-4.74250,0.00000,0.03172,0.08857,-0.98515,2023,6,12,10,36,6,946
0.10620,3.11500,-4.55000,0.00000,0.02965,0.08821,-0.98637,2023,6,12,10,36,6,957
0.10630,3.18500,-4.65500,0.00000,0.02782,0.08772,-0.98649,2023,6,12,10,36,6,969
0.10640,3.04500,-4.70750,0.00000,0.03026,0.08894,-0.98515,2023,6,12,10,36,6,980
0.10650,3.16750,-4.60250,0.00000,0.02916,0.08906,-0.98430,2023,6,12,10,36,7,1
0.10660,2.90500,-4.30500,0.00000,0.02855,0.08930,-0.98503,2023,6,12,10,36,7,12
0.10670,3.23750,-4.55000,0.00000,0.02794,0.09028,-0.98564,2023,6,12,10,36,7,23
0.10680,2.78250,-4.55000,0.00000,0.02867,0.08760,-0.98625,2023,6,12,10,36,7,34
0.10690,3.22000,-4.46250,0.00000,0.02989,0.08894,-0.98491,2023,6,12,10,36,7,45
0.10700,3.01000,-4.70750,0.00000,0.03038,0.08991,-0.98491,2023,6,12,10,36,7,56
0.10710,3.18500,-4.49750,0.00000,0.02806,0.08735,-0.98613,2023,6,12,10,36,7,67
0.10720,3.01000,-4.67250,0.00000,0.02647,0.08894,-0.98564,2023,6,12,10,36,7,79
0.10730,2.92250,-4.58500,0.00000,0.02806,0.08821,-0.98503,2023,6,12,10,36,7,90
0.10740,2.95750,-4.67250,0.00000,0.02757,0.08808,-0.98405,2023,6,12,10,36,7,101
0.10750,3.06250,-4.62000,0.00000,0.02708,0.09028,-0.98552,2023,6,12,10,36,7,112
0.10760,3.16750,-4.39250,0.00000,0.02684,0.09040,-0.98539,2023,6,12,10,36,7,123
0.10770,3.09750,-4.55000,0.00000,0.02904,0.08833,-0.98112,2023,6,12,10,36,7,134
0.10780,3.15000,-4.56750,0.00000,0.03026,0.09028,-0.98649,2023,6,12,10,36,7,145
0.10790,2.99250,-4.48000,0.00000,0.02794,0.09101,-0.98515,2023,6,12,10,36,7,156
0.10800,3.13250,-4.58500,0.00000,0.02867,0.08808,-0.98234,2023,6,12,10,36,7,167
0.10810,3.13250,-4.44500,0.00000,0.03172,0.08796,-0.98552,2023,6,12,10,36,7,179
0.10820,3.09750,-4.58500,0.00000,0.02952,0.08906,-0.98369,2023,6,12,10,36,7,190
0.10830,2.81750,-4.56750,0.00000,0.02733,0.08943,-0.98625,2023,6,12,10,36,7,201
0.10840,3.16750,-4.58500,0.00000,0.02782,0.08955,-0.98405,2023,6,12,10,36,7,212
0.10850,3.09750,-4.34000,0.00000,0.02879,0.08869,-0.98442,2023,6,12,10,36,7,223
0.10860,2.99250,-4.53250,0.00000,0.02867,0.08930,-0.98491,2023,6,12,10,36,7,234
0.10870,2.97500,-4.65500,0.00000,0.02782,0.08833,-0.98674,2023,6,12,10,36,7,245
0.10880,3.02750,-4.30500,0.00000,0.03001,0.08821,-0.98430,2023,6,12,10,36,7,256
0.10890,3.01000,-4.37500,0.00000,0.02891,0.08821,-0.98515,2023,6,12,10,36,7,267
0.10900,3.08000,-4.53250,0.00000,0.02769,0.08833,-0.98381,2023,6,12,10,36,7,279
0.10910,3.01000,-4.56750,0.00000,0.02940,0.08845,-0.98173,2023,6,12,10,36,7,290
0.10920,3.02750,-4.55000,0.00000,0.02904,0.08869,-0.98344,2023,6,12,10,36,7,301
0.10930,3.06250,-4.77750,0.00000,0.03062,0.08796,-0.98381,2023,6,12,10,36,7,312
0.10940,3.22000,-4.74250,0.00000,0.03111,0.08613,-0.98137,2023,6,12,10,36,7,323
0.10950,3.04500,-4.67250,0.00000,0.03001,0.08735,-0.98552,2023,6,12,10,36,7,334
0.10960,3.09750,-4.67250,0.00000,0.02952,0.09052,-0.98613,2023,6,12,10,36,7,345
0.10970,3.18500,-4.37500,0.00000,0.02952,0.08967,-0.98491,2023,6,12,10,36,7,356
0.10980,3.16750,-4.79500,0.00000,0.02940,0.08918,-0.98271,2023,6,12,10,36,7,367
0.10990,3.15000,-4.48000,0.00000,0.02916,0.09016,-0.98478,2023,6,12,10,36,7,379
0.11000,3.01000,-4.65500,0.00000,0.02843,0.08772,-0.98552,2023,6,12,10,36,7,390
0.11010,2.97500,-4.44500,0.00000,0.02977,0.08869,-0.98796,2023,6,12,10,36,7,401
0.11020,2.95750,-4.74250,0.00000,0.02806,0.08845,-0.98430,2023,6,12,10,36,7,412
0.11030,2.83500,-4.46250,0.00000,0.02977,0.08857,-0.98259,2023,6,12,10,36,7,423
0.11040,2.99250,-4.41000,0.00000,0.03001,0.08808,-0.98722,2023,6,12,10,36,7,434
0.11050,3.13250,-4.63750,0.00000,0.03074,0.08894,-0.98393,2023,6,12,10,36,7,445
0.11060,3.02750,-4.55000,0.00000,0.02782,0.08674,-0.98454,2023,6,12,10,36,7,456
0.11070,3.22000,-4.70750,0.00000,0.02891,0.08918,-0.98161,2023,6,12,10,36,7,467
0.11080,2.83500,-4.51500,0.00000,0.02989,0.08930,-0.98491,2023,6,12,10,36,7,479
0.11090,2.94000,-4.70750,0.00000,0.03111,0.09028,-0.98613,2023,6,12,10,36,7,490
0.11100,3.11500,-4.56750,0.00000,0.02928,0.08735,-0.98552,2023,6,12,10,36,7,501
0.11110,3.23750,-4.65500,0.00000,0.02952,0.08869,-0.98137,2023,6,12,10,36,7,512
0.11120,2.83500,-4.32250,0.00000,0.02782,0.08747,-0.98369,2023,6,12,10,36,7,523
0.11130,3.06250,-4.76000,0.00000,0.02928,0.08979,-0.98405,2023,6,12,10,36,7,534
0.11140,2.97500,-4.48000,0.00000,0.02782,0.08796,-0.98491,2023,6,12,10,36,7,545
0.11150,3.02750,-4.35750,0.00000,0.02769,0.08906,-0.98478,2023,6,12,10,36,7,556
0.11160,3.20250,-4.67250,0.00000,0.02879,0.08967,-0.98454,2023,6,12,10,36,7,567
0.11170,2.94000,-4.76000,0.00000,0.02928,0.09028,-0.98393,2023,6,12,10,36,7,579
0.11180,3.13250,-4.69000,0.00000,0.03087,0.08930,-0.98491,2023,6,12,10,36,7,590
0.11190,2.97500,-4.72500,0.00000,0.02843,0.08930,-0.98649,2023,6,12,10,36,7,601
0.11200,3.23750,-4.63750,0.00000,0.02952,0.08967,-0.98491,2023,6,12,10,36,7,612
0.11210,3.02750,-4.53250,0.00000,0.02635,0.08918,-0.98259,2023,6,12,10,36,7,623
0.11220,3.13250,-4.58500,0.00000,0.02843,0.08796,-0.98356,2023,6,12,10,36,7,634
0.11230,3.08000,-4.51500,0.00000,0.02769,0.08930,-0.98393,2023,6,12,10,36,7,645
0.11240,3.25500,-4.74250,0.00000,0.02916,0.08857,-0.98588,2023,6,12,10,36,7,656
0.11250,3.09750,-4.63750,0.00000,0.02855,0.08845,-0.98491,2023,6,12,10,36,7,667
0.11260,3.20250,-4.72500,0.00000,0.02794,0.08955,-0.98308,2023,6,12,10,36,7,679
0.11270,3.04500,-4.60250,0.00000,0.02733,0.08516,-0.98417,2023,6,12,10,36,7,690
0.11280,3.15000,-4.83000,0.00000,0.02965,0.08991,-0.98552,2023,6,12,10,36,7,701
0.11290,3.01000,-4.58500,0.00000,0.02757,0.08845,-0.98430,2023,6,12,10,36,7,712
0.11300,2.92250,-4.46250,0.00000,0.02879,0.08747,-0.98613,2023,6,12,10,36,7,723
0.11310,2.99250,-4.46250,0.00000,0.02940,0.08747,-0.98417,2023,6,12,10,36,7,734
0.11320,3.32500,-4.76000,0.00000,0.02843,0.08808,-0.98405,2023,6,12,10,36,7,745
0.11330,3.04500,-4.56750,0.00000,0.02818,0.08955,-0.98173,2023,6,12,10,36,7,756
0.11340,2.83500,-4.46250,0.00000,0.03001,0.08833,-0.98454,2023,6,12,10,36,7,767
0.11350,3.06250,-4.72500,0.00000,0.02940,0.08869,-0.98125,2023,6,12,10,36,7,779
0.11360,3.04500,-4.76000,0.00000,0.02818,0.08906,-0.98283,2023,6,12,10,36,7,790
0.11370,3.11500,-4.81250,0.00000,0.02891,0.08857,-0.98588,2023,6,12,10,36,7,801
0.11380,2.99250,-4.62000,0.00000,0.02830,0.08943,-0.97905,2023,6,12,10,36,7,812
0.11390,2.88750,-4.39250,0.00000,0.03013,0.08589,-0.98686,2023,6,12,10,36,7,823
0.11400,2.99250,-4.63750,0.00000,0.02867,0.08955,-0.98259,2023,6,12,10,36,7,834
0.11410,3.04500,-4.48000,0.00000,0.02965,0.09138,-0.98454,2023,6,12,10,36,7,845
0.11420,3.16750,-4.49750,0.00000,0.03221,0.09016,-0.98600,2023,6,12,10,36,7,856
0.11430,3.09750,-4.67250,0.00000,0.03148,0.08857,-0.98710,2023,6,12,10,36,7,867
0.11440,3.02750,-4.42750,0.00000,0.02855,0.08784,-0.98173,2023,6,12,10,36,7,879
0.11450,2.83500,-4.49750,0.00000,0.02891,0.08869,-0.98661,2023,6,12,10,36,7,890
0.11460,2.90500,-4.60250,0.00000,0.03038,0.09040,-0.98649,2023,6,12,10,36,7,901
0.11470,3.09750,-4.55000,0.00000,0.02940,0.08650,-0.98283,2023,6,12,10,36,7,912
0.11480,3.01000,-4.56750,0.00000,0.02977,0.08869,-0.98698,2023,6,12,10,36,7,923
0.11490,3.02750,-4.32250,0.00000,0.02904,0.09016,-0.98308,2023,6,12,10,36,7,934
0.11500,3.22000,-4.65500,0.00000,0.02843,0.08906,-0.98674,2023,6,12,10,36,7,945
0.11510,3.11500,-4.70750,0.00000,0.02672,0.08686,-0.98491,2023,6,12,10,36,7,956
0.11520,3.11500,-4.55000,0.00000,0.02891,0.08991,-0.98600,2023,6,12,10,36,7,967
0.11530,2.95750,-4.34000,0.00000,0.02818,0.08747,-0.98442,2023,6,12,10,36,7,979
0.11540,3.04500,-4.63750,0.00000,0.02818,0.08943,-0.98491,2023,6,12,10,36,7,990
0.11550,3.13250,-4.77750,0.00000,0.02891,0.08796,-0.98112,2023,6,12,10,36,8,1
0.11560,3.25500,-4.65500,0.00000,0.02879,0.08857,-0.98588,2023,6,12,10,36,8,12
0.11570,2.88750,-4.46250,0.00000,0.02830,0.08943,-0.98198,2023,6,12,10,36,8,23
0.11580,3.23750,-4.77750,0.00000,0.02830,0.08930,-0.98271,2023,6,12,10,36,8,34
0.11590,3.15000,-4.62000,0.00000,0.02843,0.08662,-0.98149,2023,6,12,10,36,8,45
0.11600,3.15000,-4.77750,0.00000,0.02708,0.08784,-0.98247,2023,6,12,10,36,8,56
0.11610,2.88750,-4.42750,0.00000,0.02928,0.08808,-0.98503,2023,6,12,10,36,8,67
0.11620,3.08000,-4.70750,0.00000,0.02989,0.08650,-0.98417,2023,6,12,10,36,8,79
0.11630,3.06250,-4.58500,0.00000,0.02952,0.08796,-0.98430,2023,6,12,10,36,8,90
0.11640,3.09750,-4.62000,0.00000,0.02989,0.08991,-0.98332,2023,6,12,10,36,8,101
0.11650,3.20250,-4.65500,0.00000,0.02916,0.08625,-0.98564,2023,6,12,10,36,8,112
0.11660,3.06250,-4.67250,0.00000,0.02891,0.08882,-0.98417,2023,6,12,10,36,8,123
0.11670,3.20250,-4.60250,0.00000,0.02696,0.09016,-0.98283,2023,6,12,10,36,8,134
0.11680,2.92250,-4.60250,0.00000,0.03013,0.09065,-0.98259,2023,6,12,10,36,8,145
0.11690,2.99250,-4.65500,0.00000,0.03001,0.08857,-0.98308,2023,6,12,10,36,8,156
0.11700,2.90500,-4.41000,0.00000,0.02916,0.09028,-0.98783,2023,6,12,10,36,8,167
0.11710,3.04500,-4.60250,0.00000,0.02855,0.08869,-0.98417,2023,6,12,10,36,8,179
0.11720,2.90500,-4.44500,0.00000,0.02916,0.08882,-0.98491,2023,6,12,10,36,8,190
0.11730,2.88750,-4.69000,0.00000,0.02855,0.09016,-0.98369,2023,6,12,10,36,8,201
0.11740,3.04500,-4.60250,0.00000,0.03038,0.08784,-0.98442,2023,6,12,10,36,8,212
0.11750,3.16750,-4.49750,0.00000,0.02928,0.08821,-0.98649,2023,6,12,10,36,8,223
0.11760,2.90500,-4.60250,0.00000,0.02818,0.08943,-0.98356,2023,6,12,10,36,8,234
0.11770,2.90500,-4.27000,0.00000,0.02782,0.08699,-0.98600,2023,6,12,10,36,8,245
0.11780,3.22000,-4.53250,0.00000,0.02916,0.09028,-0.98661,2023,6,12,10,36,8,256
0.11790,2.88750,-4.42750,0.00000,0.03001,0.08760,-0.98369,2023,6,12,10,36,8,267
0.11800,3.16750,-4.62000,0.00000,0.02574,0.08552,-0.98661,2023,6,12,10,36,8,279
0.11810,3.02750,-4.21750,0.00000,0.02940,0.08784,-0.98637,2023,6,12,10,36,8,290
0.11820,3.06250,-4.65500,0.00000,0.02782,0.09113,-0.98527,2023,6,12,10,36,8,301
0.11830,2.99250,-4.49750,0.00000,0.02977,0.08711,-0.98320,2023,6,12,10,36,8,312
0.11840,3.20250,-4.70750,0.00000,0.03038,0.09089,-0.98344,2023,6,12,10,36,8,323
0.11850,3.15000,-4.53250,0.00000,0.02794,0.08784,-0.98234,2023,6,12,10,36,8,334
0.11860,2.99250,-4.46250,0.00000,0.02769,0.08772,-0.98539,2023,6,12,10,36,8,345
0.11870,2.90500,-4.58500,0.00000,0.02794,0.08869,-0.98552,2023,6,12,10,36,8,356
0.11880,3.15000,-4.56750,0.00000,0.02843,0.08784,-0.98491,2023,6,12,10,36,8,367
0.11890,3.02750,-4.60250,0.00000,0.02879,0.08869,-0.98454,2023,6,12,10,36,8,379
0.11900,3.11500,-4.60250,0.00000,0.02904,0.08747,-0.98454,2023,6,12,10,36,8,390
0.11910,3.08000,-4.56750,0.00000,0.02940,0.08796,-0.98369,2023,6,12,10,36,8,401
0.11920,3.02750,-4.60250,0.00000,0.02867,0.08625,-0.98356,2023,6,12,10,36,8,412
0.11930,3.08000,-4.37500,0.00000,0.02733,0.08930,-0.98515,2023,6,12,10,36,8,423
0.11940,3.16750,-4.60250,0.00000,0.02733,0.08650,-0.98600,2023,6,12,10,36,8,434
0.11950,3.15000,-4.69000,0.00000,0.02843,0.08845,-0.98649,2023,6,12,10,36,8,445
0.11960,3.04500,-4.55000,0.00000,0.02989,0.09065,-0.98503,2023,6,12,10,36,8,456
0.11970,3.08000,-4.63750,0.00000,0.02977,0.08882,-0.98637,2023,6,12,10,36,8,467
0.11980,3.06250,-4.56750,0.00000,0.02733,0.09004,-0.98552,2023,6,12,10,36,8,479
0.11990,3.08000,-4.79500,0.00000,0.02867,0.08943,-0.98405,2023,6,12,10,36,8,490
0.12000,3.30750,-4.51500,0.00000,0.02879,0.08845,-0.98417,2023,6,12,10,36,8,501
0.12010,2.95750,-4.55000,0.00000,0.02794,0.08723,-0.98625,2023,6,12,10,36,8,512
0.12020,3.11500,-4.77750,0.00000,0.02940,0.08747,-0.98161,2023,6,12,10,36,8,523
0.12030,3.13250,-4.58500,0.00000,0.02879,0.08979,-0.98369,2023,6,12,10,36,8,534
0.12040,2.99250,-4.63750,0.00000,0.02916,0.08686,-0.98149,2023,6,12,10,36,8,545
0.12050,3.20250,-4.70750,0.00000,0.02733,0.08808,-0.98527,2023,6,12,10,36,8,556
