#2023/06/12 11:11:09
time,wx,wy,wz,ax,ay,az,yy,MM,dd,hh,mm,ss,ms
1.91640,3.15000,-4.62000,0.00000,0.00756,0.04782,-0.98820,2023,6,12,11,11,9,694
1.91650,2.94000,-4.65500,0.00000,0.00647,0.04721,-0.98722,2023,6,12,11,11,9,705
1.91660,2.92250,-4.63750,0.00000,0.00683,0.04563,-0.99088,2023,6,12,11,11,9,716
1.91670,2.87000,-4.60250,0.00000,0.00708,0.04819,-0.98881,2023,6,12,11,11,9,727
1.91680,2.74750,-4.48000,0.00000,0.00647,0.04831,-0.98735,2023,6,12,11,11,9,738
1.91690,3.06250,-4.65500,0.00000,0.00671,0.04709,-0.98857,2023,6,12,11,11,9,749
1.91700,2.90500,-4.53250,0.00000,0.00720,0.05002,-0.98930,2023,6,12,11,11,9,760
1.91710,2.81750,-4.72500,0.00000,0.00573,0.04868,-0.98771,2023,6,12,11,11,9,771
1.91720,2.95750,-4.67250,0.00000,0.00781,0.04612,-0.99040,2023,6,12,11,11,9,782
1.91730,2.92250,-4.48000,0.00000,0.00671,0.04953,-0.98869,2023,6,12,11,11,9,793
1.91740,2.94000,-4.62000,0.00000,0.00732,0.04685,-0.98747,2023,6,12,11,11,9,805
1.91750,2.97500,-4.70750,0.00000,0.00732,0.04612,-0.98991,2023,6,12,11,11,9,816
1.91760,2.97500,-4.67250,0.00000,0.00781,0.04831,-0.98991,2023,6,12,11,11,9,827
1.91770,3.04500,-4.70750,0.00000,0.00695,0.04795,-0.98771,2023,6,12,11,11,9,838
1.91780,2.81750,-4.46250,0.00000,0.00586,0.04868,-0.99149,2023,6,12,11,11,9,849
1.91790,2.85250,-4.70750,0.00000,0.00573,0.04697,-0.98698,2023,6,12,11,11,9,860
1.91800,2.99250,-4.55000,0.00000,0.00671,0.04685,-0.98832,2023,6,12,11,11,9,871
1.91810,2.85250,-4.39250,0.00000,0.00817,0.04843,-0.98735,2023,6,12,11,11,9,882
1.91820,2.95750,-4.46250,0.00000,0.00622,0.04599,-0.98808,2023,6,12,11,11,9,893
1.91830,2.74750,-4.67250,0.00000,0.00769,0.04819,-0.98552,2023,6,12,11,11,9,905
1.91840,2.92250,-4.48000,0.00000,0.00683,0.04660,-0.98796,2023,6,12,11,11,9,916
1.91850,3.04500,-4.65500,0.00000,0.00732,0.04587,-0.98637,2023,6,12,11,11,9,927
1.91860,2.99250,-4.42750,0.00000,0.00781,0.04526,-0.98905,2023,6,12,11,11,9,938
1.91870,3.02750,-4.60250,0.00000,0.00720,0.04612,-0.98869,2023,6,12,11,11,9,949
1.91880,2.99250,-4.60250,0.00000,0.00500,0.04819,-0.98613,2023,6,12,11,11,9,960
1.91890,2.81750,-4.56750,0.00000,0.00598,0.04819,-0.98393,2023,6,12,11,11,9,971
1.91900,2.81750,-4.58500,0.00000,0.00732,0.04904,-0.98930,2023,6,12,11,11,9,982
1.91910,2.87000,-4.63750,0.00000,0.00695,0.04782,-0.99064,2023,6,12,11,11,9,993
1.91920,2.97500,-4.42750,0.00000,0.00720,0.04770,-0.98686,2023,6,12,11,11,9,5
1.91930,2.73000,-4.44500,0.00000,0.00647,0.04782,-0.99027,2023,6,12,11,11,9,16
1.91940,2.88750,-4.53250,0.00000,0.00610,0.04990,-0.98588,2023,6,12,11,11,9,27
1.91950,2.94000,-4.69000,0.00000,0.00586,0.04868,-0.98698,2023,6,12,11,11,9,38
1.91960,3.04500,-4.55000,0.00000,0.00598,0.04795,-0.98735,2023,6,12,11,11,9,49
1.91970,2.88750,-4.58500,0.00000,0.00695,0.04782,-0.98857,2023,6,12,11,11,9,60
1.91980,2.71250,-4.53250,0.00000,0.00842,0.04612,-0.98857,2023,6,12,11,11,9,71
1.91990,3.09750,-4.67250,0.00000,0.00598,0.04819,-0.98905,2023,6,12,11,11,9,82
1.92000,3.04500,-4.62000,0.00000,0.00683,0.04770,-0.98783,2023,6,12,11,11,9,93
1.92010,2.83500,-4.49750,0.00000,0.00622,0.04807,-0.98771,2023,6,12,11,11,9,105
1.92020,3.02750,-4.63750,0.00000,0.00659,0.04868,-0.98747,2023,6,12,11,11,9,116
1.92030,2.81750,-4.46250,0.00000,0.00781,0.04624,-0.98844,2023,6,12,11,11,9,127
1.92040,2.83500,-4.65500,0.00000,0.00793,0.04709,-0.98844,2023,6,12,11,11,9,138
1.92050,2.95750,-4.53250,0.00000,0.00634,0.04685,-0.98893,2023,6,12,11,11,9,149
1.92060,2.94000,-4.70750,0.00000,0.00659,0.04807,-0.98796,2023,6,12,11,11,9,160
1.92070,2.88750,-4.72500,0.00000,0.00708,0.04917,-0.98844,2023,6,12,11,11,9,171
1.92080,2.80000,-4.51500,0.00000,0.00964,0.04807,-0.98527,2023,6,12,11,11,9,182
1.92090,2.85250,-4.48000,0.00000,0.00817,0.04734,-0.98613,2023,6,12,11,11,9,193
1.92100,2.92250,-4.69000,0.00000,0.00720,0.04612,-0.98820,2023,6,12,11,11,9,205
1.92110,2.88750,-4.48000,0.00000,0.00549,0.04795,-0.98869,2023,6,12,11,11,9,216
1.92120,2.83500,-4.63750,0.00000,0.00732,0.04831,-0.98869,2023,6,12,11,11,9,227
1.92130,3.01000,-4.42750,0.00000,0.00659,0.04856,-0.98844,2023,6,12,11,11,9,238
1.92140,2.80000,-4.44500,0.00000,0.00671,0.04673,-0.98966,2023,6,12,11,11,9,249
1.92150,2.92250,-4.42750,0.00000,0.00720,0.04807,-0.98747,2023,6,12,11,11,9,260
1.92160,2.90500,-4.65500,0.00000,0.00756,0.04587,-0.98759,2023,6,12,11,11,9,271
1.92170,2.83500,-4.67250,0.00000,0.00695,0.04709,-0.98991,2023,6,12,11,11,9,282
1.92180,2.88750,-4.51500,0.00000,0.00671,0.04599,-0.98649,2023,6,12,11,11,9,293
1.92190,3.02750,-4.63750,0.00000,0.00476,0.04709,-0.98710,2023,6,12,11,11,9,305
1.92200,2.76500,-4.65500,0.00000,0.00512,0.04953,-0.99003,2023,6,12,11,11,9,316
1.92210,2.83500,-4.42750,0.00000,0.00451,0.04795,-0.98820,2023,6,12,11,11,9,327
1.92220,2.69500,-4.65500,0.00000,0.00720,0.04856,-0.98722,2023,6,12,11,11,9,338
1.92230,2.90500,-4.62000,0.00000,0.00439,0.04514,-0.99003,2023,6,12,11,11,9,349
1.92240,2.92250,-4.42750,0.00000,0.00744,0.04734,-0.98674,2023,6,12,11,11,9,360
1.92250,3.01000,-4.48000,0.00000,0.00817,0.04758,-0.98869,2023,6,12,11,11,9,371
1.92260,2.81750,-4.60250,0.00000,0.00598,0.04721,-0.98881,2023,6,12,11,11,9,382
1.92270,3.06250,-4.93500,0.00000,0.00842,0.04636,-0.98832,2023,6,12,11,11,9,393
1.92280,2.97500,-4.70750,0.00000,0.00659,0.04782,-0.98710,2023,6,12,11,11,9,405
1.92290,3.01000,-4.51500,0.00000,0.00817,0.04734,-0.98613,2023,6,12,11,11,9,416
1.92300,2.74750,-4.49750,0.00000,0.00842,0.04660,-0.98661,2023,6,12,11,11,9,427
1.92310,2.90500,-4.55000,0.00000,0.00573,0.04721,-0.98686,2023,6,12,11,11,9,438
1.92320,2.88750,-4.56750,0.00000,0.00708,0.04551,-0.98808,2023,6,12,11,11,9,449
1.92330,2.80000,-4.60250,0.00000,0.00769,0.04746,-0.98832,2023,6,12,11,11,9,460
1.92340,3.04500,-4.74250,0.00000,0.00781,0.04892,-0.98832,2023,6,12,11,11,9,471
1.92350,2.85250,-4.84750,0.00000,0.00683,0.04709,-0.98759,2023,6,12,11,11,9,482
1.92360,2.90500,-4.56750,0.00000,0.00793,0.04843,-0.98625,2023,6,12,11,11,9,493
1.92370,3.06250,-4.86500,0.00000,0.00634,0.04782,-0.99210,2023,6,12,11,11,9,505
1.92380,6.58000,-6.52750,0.00000,0.00427,0.05222,-0.97978,2023,6,12,11,11,9,516
1.92390,20.77250,-13.09000,0.00000,0.00683,0.09370,-0.97051,2023,6,12,11,11,9,527
1.92400,33.79250,-8.50500,0.00000,-0.01159,0.13396,-1.05347,2023,6,12,11,11,9,538
1.92410,85.13750,-10.83250,0.00000,0.01061,-0.02147,-0.95075,2023,6,12,11,11,9,549
1.92420,73.85000,-12.25000,0.00000,-0.00573,0.02550,-1.00699,2023,6,12,11,11,9,560
1.92430,65.24000,-11.39250,0.00000,0.00561,-0.02355,-0.97856,2023,6,12,11,11,9,571
1.92440,57.71500,-9.53750,0.00000,0.00037,-0.02806,-1.00443,2023,6,12,11,11,9,582
1.92450,53.27000,-10.25500,0.00000,0.00146,-0.03111,-0.97429,2023,6,12,11,11,9,593
1.92460,55.37000,-11.63750,0.00000,0.00317,-0.02440,-0.99015,2023,6,12,11,11,9,605
1.92470,57.52250,-12.42500,0.00000,-0.00537,-0.03367,-0.98722,2023,6,12,11,11,9,616
1.92480,55.37000,-12.23250,0.00000,-0.00598,-0.06734,-0.99186,2023,6,12,11,11,9,627
1.92490,48.66750,-10.57000,0.00000,-0.01013,-0.06625,-0.99027,2023,6,12,11,11,9,638
1.92500,43.13750,-8.78500,0.00000,-0.00781,-0.07857,-0.99210,2023,6,12,11,11,9,649
1.92510,38.50000,-7.57750,0.00000,-0.01061,-0.07881,-0.98613,2023,6,12,11,11,9,660
1.92520,26.91500,-6.70250,0.00000,-0.00756,-0.01452,-0.99552,2023,6,12,11,11,9,671
1.92530,-25.48000,-1.97750,0.00000,-0.00854,0.05661,-0.93696,2023,6,12,11,11,9,682
1.92540,-53.11250,-5.61750,0.00000,-0.05612,-0.10907,-0.97515,2023,6,12,11,11,9,693
1.92550,-131.93250,14.66500,0.00000,0.04807,0.08503,-0.92415,2023,6,12,11,11,9,705
1.92560,-216.35250,7.43750,0.00000,-0.01135,0.03087,-1.12923,2023,6,12,11,11,9,716
1.92570,-209.07250,19.47750,0.00000,0.00659,0.04953,-0.88474,2023,6,12,11,11,9,727
1.92580,-1.19000,-2.76500,0.00000,0.00183,-0.02330,-0.91744,2023,6,12,11,11,9,738
1.92590,6.70250,-6.73750,0.00000,-0.01989,-0.03087,-0.98539,2023,6,12,11,11,9,749
1.92600,-0.07000,-3.06250,0.00000,0.00098,0.04233,-0.96990,2023,6,12,11,11,9,760
1.92610,0.38500,-3.53500,0.00000,-0.00012,0.03782,-0.99857,2023,6,12,11,11,9,771
1.92620,1.62750,-4.07750,0.00000,0.00390,0.04563,-0.98381,2023,6,12,11,11,9,782
1.92630,2.24000,-4.27000,0.00000,0.00537,0.04319,-0.98539,2023,6,12,11,11,9,793
1.92640,3.44750,-4.88250,0.00000,0.00549,0.04124,-0.99137,2023,6,12,11,11,9,805
1.92650,1.96000,-4.09500,0.00000,0.00464,0.04404,-0.98747,2023,6,12,11,11,9,816
1.92660,2.85250,-4.79500,0.00000,0.00220,0.04124,-0.99015,2023,6,12,11,11,9,827
1.92670,2.95750,-4.58500,0.00000,0.00537,0.04270,-0.98808,2023,6,12,11,11,9,838
1.92680,2.39750,-4.20000,0.00000,0.00342,0.04294,-0.98857,2023,6,12,11,11,9,849
1.92690,2.76500,-4.41000,0.00000,0.00561,0.04087,-0.98710,2023,6,12,11,11,9,860
1.92700,2.69500,-4.60250,0.00000,0.00268,0.04197,-0.98820,2023,6,12,11,11,9,871
1.92710,2.88750,-4.53250,0.00000,0.00329,0.04355,-0.98783,2023,6,12,11,11,9,882
1.92720,2.62500,-4.48000,0.00000,0.00464,0.04307,-0.98832,2023,6,12,11,11,9,893
1.92730,2.97500,-4.76000,0.00000,0.00305,0.04380,-0.98722,2023,6,12,11,11,9,905
1.92740,2.90500,-4.34000,0.00000,0.00427,0.04416,-0.98771,2023,6,12,11,11,9,916
1.92750,2.83500,-4.69000,0.00000,0.00293,0.04087,-0.98796,2023,6,12,11,11,9,927
1.92760,2.95750,-4.72500,0.00000,0.00451,0.04221,-0.98881,2023,6,12,11,11,9,938
1.92770,2.67750,-4.56750,0.00000,0.00512,0.04502,-0.98747,2023,6,12,11,11,9,949
1.92780,2.88750,-4.48000,0.00000,0.00537,0.04307,-0.98796,2023,6,12,11,11,9,960
1.92790,2.94000,-4.72500,0.00000,0.00573,0.04233,-0.98796,2023,6,12,11,11,9,971
1.92800,2.85250,-4.53250,0.00000,0.00427,0.04319,-0.99052,2023,6,12,11,11,9,982
1.92810,2.87000,-4.62000,0.00000,0.00500,0.04477,-0.99235,2023,6,12,11,11,9,993
1.92820,2.60750,-4.49750,0.00000,0.00427,0.04294,-0.98796,2023,6,12,11,11,9,5
1.92830,2.83500,-4.67250,0.00000,0.00549,0.04307,-0.99040,2023,6,12,11,11,9,16
1.92840,2.50250,-4.44500,0.00000,0.00537,0.04111,-0.98613,2023,6,12,11,11,10,7
1.92850,2.97500,-4.51500,0.00000,0.00512,0.04294,-0.98857,2023,6,12,11,11,10,18
1.92860,2.80000,-4.74250,0.00000,0.00354,0.04319,-0.98918,2023,6,12,11,11,10,29
1.92870,2.64250,-4.46250,0.00000,0.00390,0.04368,-0.98674,2023,6,12,11,11,10,40
1.92880,2.48500,-4.34000,0.00000,0.00720,0.04380,-0.99076,2023,6,12,11,11,10,51
1.92890,2.87000,-4.58500,0.00000,0.00354,0.04270,-0.99015,2023,6,12,11,11,10,62
1.92900,1.38250,-4.13000,0.00000,0.00647,0.04514,-0.98637,2023,6,12,11,11,10,73
1.92910,2.08250,-4.30500,0.00000,0.00378,0.04136,-0.99186,2023,6,12,11,11,10,85
1.92920,2.15250,-4.51500,0.00000,0.00769,0.04307,-0.98637,2023,6,12,11,11,10,96
1.92930,2.90500,-4.63750,0.00000,0.00573,0.04343,-0.99101,2023,6,12,11,11,10,107
1.92940,3.32500,-4.97000,0.00000,0.00842,0.04429,-0.98637,2023,6,12,11,11,10,118
1.92950,3.16750,-4.67250,0.00000,0.00500,0.04514,-0.98637,2023,6,12,11,11,10,129
1.92960,4.48000,-5.33750,0.00000,0.00561,0.04319,-0.99198,2023,6,12,11,11,10,140
1.92970,3.02750,-4.67250,0.00000,0.00415,0.04404,-0.99101,2023,6,12,11,11,10,151
1.92980,2.94000,-4.70750,0.00000,0.00476,0.04660,-0.99015,2023,6,12,11,11,10,162
1.92990,2.32750,-4.11250,0.00000,0.00451,0.04282,-0.98649,2023,6,12,11,11,10,173
1.93000,2.15250,-4.09500,0.00000,0.00500,0.04319,-0.98796,2023,6,12,11,11,10,185
1.93010,3.51750,-4.83000,0.00000,0.00329,0.04331,-0.99454,2023,6,12,11,11,10,196
1.93020,2.83500,-4.58500,0.00000,0.00500,0.04294,-0.98613,2023,6,12,11,11,10,207
1.93030,3.22000,-4.62000,0.00000,0.00647,0.04331,-0.98942,2023,6,12,11,11,10,218
1.93040,3.30750,-4.58500,0.00000,0.00451,0.04343,-0.98722,2023,6,12,11,11,10,229
1.93050,3.13250,-4.35750,0.00000,0.00293,0.04282,-0.99223,2023,6,12,11,11,10,240
1.93060,2.90500,-4.65500,0.00000,0.00561,0.04538,-0.98832,2023,6,12,11,11,10,251
1.93070,2.95750,-4.63750,0.00000,0.00439,0.04453,-0.98954,2023,6,12,11,11,10,262
1.93080,3.08000,-4.69000,0.00000,0.00512,0.04465,-0.98857,2023,6,12,11,11,10,273
1.93090,2.95750,-4.62000,0.00000,0.00390,0.04429,-0.98808,2023,6,12,11,11,10,285
1.93100,3.06250,-4.41000,0.00000,0.00281,0.04233,-0.98759,2023,6,12,11,11,10,296
1.93110,2.87000,-4.51500,0.00000,0.00439,0.04282,-0.99003,2023,6,12,11,11,10,307
1.93120,2.87000,-4.63750,0.00000,0.00537,0.04294,-0.98930,2023,6,12,11,11,10,318
1.93130,2.88750,-4.65500,0.00000,0.00366,0.04368,-0.98905,2023,6,12,11,11,10,329
1.93140,2.94000,-4.67250,0.00000,0.00378,0.04172,-0.98759,2023,6,12,11,11,10,340
1.93150,3.02750,-4.67250,0.00000,0.00525,0.04404,-0.98832,2023,6,12,11,11,10,351
1.93160,2.87000,-4.51500,0.00000,0.00342,0.04282,-0.98844,2023,6,12,11,11,10,362
1.93170,2.88750,-4.53250,0.00000,0.00464,0.04307,-0.98930,2023,6,12,11,11,10,373
1.93180,3.06250,-4.79500,0.00000,0.00281,0.04209,-0.98918,2023,6,12,11,11,10,385
1.93190,2.90500,-4.58500,0.00000,0.00366,0.03965,-0.98808,2023,6,12,11,11,10,396
1.93200,2.85250,-4.77750,0.00000,0.00378,0.04233,-0.98979,2023,6,12,11,11,10,407
1.93210,2.99250,-4.55000,0.00000,0.00464,0.04148,-0.98881,2023,6,12,11,11,10,418
1.93220,2.85250,-4.44500,0.00000,0.00683,0.04441,-0.98527,2023,6,12,11,11,10,429
1.93230,2.95750,-4.58500,0.00000,0.00451,0.04355,-0.99064,2023,6,12,11,11,10,440
1.93240,3.15000,-4.63750,0.00000,0.00610,0.04270,-0.98844,2023,6,12,11,11,10,451
1.93250,2.83500,-4.63750,0.00000,0.00354,0.04282,-0.98966,2023,6,12,11,11,10,462
1.93260,2.87000,-4.48000,0.00000,0.00512,0.04209,-0.98722,2023,6,12,11,11,10,473
1.93270,2.95750,-4.56750,0.00000,0.00537,0.04233,-0.98905,2023,6,12,11,11,10,485
1.93280,2.80000,-4.60250,0.00000,0.00476,0.04209,-0.99088,2023,6,12,11,11,10,496
1.93290,2.74750,-4.76000,0.00000,0.00354,0.04392,-0.98844,2023,6,12,11,11,10,507
1.93300,2.71250,-4.37500,0.00000,0.00415,0.04416,-0.98796,2023,6,12,11,11,10,518
1.93310,2.83500,-4.48000,0.00000,0.00451,0.04087,-0.98966,2023,6,12,11,11,10,529
1.93320,2.95750,-4.62000,0.00000,0.00366,0.04355,-0.98905,2023,6,12,11,11,10,540
1.93330,2.99250,-4.56750,0.00000,0.00537,0.04294,-0.98918,2023,6,12,11,11,10,551
1.93340,2.87000,-4.48000,0.00000,0.00439,0.04160,-0.99210,2023,6,12,11,11,10,562
1.93350,2.87000,-4.41000,0.00000,0.00342,0.04258,-0.98881,2023,6,12,11,11,10,573
1.93360,2.83500,-4.55000,0.00000,0.00488,0.04416,-0.99064,2023,6,12,11,11,10,585
1.93370,2.88750,-4.58500,0.00000,0.00439,0.04416,-0.98661,2023,6,12,11,11,10,596
1.93380,2.83500,-4.62000,0.00000,0.00378,0.04246,-0.98844,2023,6,12,11,11,10,607
1.93390,3.08000,-4.58500,0.00000,0.00573,0.04209,-0.98905,2023,6,12,11,11,10,618
1.93400,2.95750,-4.65500,0.00000,0.00464,0.04380,-0.98808,2023,6,12,11,11,10,629
1.93410,3.04500,-4.76000,0.00000,0.00342,0.04319,-0.98893,2023,6,12,11,11,10,640
1.93420,2.99250,-4.51500,0.00000,0.00427,0.04209,-0.98771,2023,6,12,11,11,10,651
1.93430,2.80000,-4.42750,0.00000,0.00415,0.04587,-0.98783,2023,6,12,11,11,10,662
1.93440,3.13250,-4.60250,0.00000,0.00537,0.04111,-0.98869,2023,6,12,11,11,10,673
1.93450,2.83500,-4.37500,0.00000,0.00439,0.04307,-0.98857,2023,6,12,11,11,10,685
1.93460,2.88750,-4.55000,0.00000,0.00403,0.04270,-0.98966,2023,6,12,11,11,10,696
1.93470,3.15000,-4.55000,0.00000,0.00378,0.04294,-0.99040,2023,6,12,11,11,10,707
1.93480,2.90500,-4.58500,0.00000,0.00451,0.04477,-0.98918,2023,6,12,11,11,10,718
1.93490,2.83500,-4.53250,0.00000,0.00390,0.04160,-0.98771,2023,6,12,11,11,10,729
1.93500,2.99250,-4.65500,0.00000,0.00451,0.04343,-0.98832,2023,6,12,11,11,10,740
1.93510,2.87000,-4.63750,0.00000,0.00427,0.04246,-0.98686,2023,6,12,11,11,10,751
1.93520,2.95750,-4.46250,0.00000,0.00366,0.04221,-0.98905,2023,6,12,11,11,10,762
1.93530,2.97500,-4.67250,0.00000,0.00573,0.04416,-0.99064,2023,6,12,11,11,10,773
1.93540,2.90500,-4.63750,0.00000,0.00659,0.04380,-0.98991,2023,6,12,11,11,10,785
1.93550,2.66000,-4.30500,0.00000,0.00403,0.04380,-0.99162,2023,6,12,11,11,10,796
1.93560,2.85250,-4.62000,0.00000,0.00500,0.04270,-0.98844,2023,6,12,11,11,10,807
1.93570,3.04500,-4.70750,0.00000,0.00476,0.04282,-0.98942,2023,6,12,11,11,10,818
1.93580,2.94000,-4.49750,0.00000,0.00244,0.04477,-0.99003,2023,6,12,11,11,10,829
1.93590,2.99250,-4.56750,0.00000,0.00476,0.04331,-0.98796,2023,6,12,11,11,10,840
1.93600,2.76500,-4.49750,0.00000,0.00573,0.04258,-0.99101,2023,6,12,11,11,10,851
1.93610,3.02750,-4.60250,0.00000,0.00573,0.04270,-0.98930,2023,6,12,11,11,10,862
1.93620,3.04500,-4.74250,0.00000,0.00464,0.04185,-0.98808,2023,6,12,11,11,10,873
1.93630,2.94000,-4.62000,0.00000,0.00378,0.04209,-0.98759,2023,6,12,11,11,10,885
1.93640,3.02750,-4.67250,0.00000,0.00512,0.04343,-0.98942,2023,6,12,11,11,10,896
1.93650,3.08000,-4.70750,0.00000,0.00378,0.04233,-0.98796,2023,6,12,11,11,10,907
1.93660,2.87000,-4.32250,0.00000,0.00439,0.04221,-0.99113,2023,6,12,11,11,10,918
1.93670,2.81750,-4.46250,0.00000,0.00537,0.04490,-0.98539,2023,6,12,11,11,10,929
1.93680,2.87000,-4.63750,0.00000,0.00683,0.04294,-0.99064,2023,6,12,11,11,10,940
1.93690,2.85250,-4.74250,0.00000,0.00220,0.04380,-0.99162,2023,6,12,11,11,10,951
1.93700,3.06250,-4.81250,0.00000,0.00415,0.04319,-0.98930,2023,6,12,11,11,10,962
1.93710,2.95750,-4.97000,0.00000,0.00488,0.04075,-0.98783,2023,6,12,11,11,10,973
1.93720,2.62500,-4.44500,0.00000,0.00488,0.04355,-0.98991,2023,6,12,11,11,10,985
1.93730,2.92250,-4.60250,0.00000,0.00659,0.04429,-0.98832,2023,6,12,11,11,10,996
1.93740,2.87000,-4.77750,0.00000,0.00708,0.04404,-0.98930,2023,6,12,11,11,10,7
1.93750,2.88750,-4.56750,0.00000,0.00537,0.04416,-0.98942,2023,6,12,11,11,10,18
1.93760,2.97500,-4.65500,0.00000,0.00342,0.04197,-0.99088,2023,6,12,11,11,10,29
1.93770,3.13250,-4.74250,0.00000,0.00415,0.04380,-0.99040,2023,6,12,11,11,10,40
1.93780,3.08000,-4.83000,0.00000,0.00415,0.04294,-0.98783,2023,6,12,11,11,10,51
1.93790,2.74750,-4.56750,0.00000,0.00427,0.04197,-0.98966,2023,6,12,11,11,10,62
1.93800,2.85250,-4.35750,0.00000,0.00573,0.04526,-0.98808,2023,6,12,11,11,10,73
1.93810,2.95750,-4.62000,0.00000,0.00500,0.04514,-0.98796,2023,6,12,11,11,10,85
1.93820,2.81750,-4.63750,0.00000,0.00342,0.04404,-0.98954,2023,6,12,11,11,10,96
1.93830,2.97500,-4.62000,0.00000,0.00476,0.04477,-0.98930,2023,6,12,11,11,10,107
1.93840,2.90500,-4.58500,0.00000,0.00378,0.04331,-0.98954,2023,6,12,11,11,10,118
1.93850,2.76500,-4.41000,0.00000,0.00403,0.04307,-0.98918,2023,6,12,11,11,10,129
1.93860,2.87000,-4.51500,0.00000,0.00500,0.04465,-0.99052,2023,6,12,11,11,10,140
1.93870,2.92250,-4.58500,0.00000,0.00439,0.04355,-0.99113,2023,6,12,11,11,10,151
1.93880,2.81750,-4.70750,0.00000,0.00561,0.04416,-0.99088,2023,6,12,11,11,10,162
1.93890,2.80000,-4.58500,0.00000,0.00622,0.04282,-0.98844,2023,6,12,11,11,10,173
1.93900,2.71250,-4.69000,0.00000,0.00610,0.04258,-0.98832,2023,6,12,11,11,10,185
1.93910,2.94000,-4.62000,0.00000,0.00488,0.04490,-0.98844,2023,6,12,11,11,10,196
1.93920,2.97500,-4.70750,0.00000,0.00354,0.04270,-0.98783,2023,6,12,11,11,10,207
1.93930,3.11500,-4.69000,0.00000,0.00659,0.04429,-0.99076,2023,6,12,11,11,10,218
1.93940,2.94000,-4.86500,0.00000,0.00451,0.04246,-0.98930,2023,6,12,11,11,10,229
1.93950,2.99250,-4.63750,0.00000,0.00378,0.04294,-0.98881,2023,6,12,11,11,10,240
1.93960,2.94000,-4.55000,0.00000,0.00647,0.04233,-0.98661,2023,6,12,11,11,10,251
1.93970,2.87000,-4.56750,0.00000,0.00549,0.04294,-0.98918,2023,6,12,11,11,10,262
1.93980,2.85250,-4.55000,0.00000,0.00439,0.04331,-0.98698,2023,6,12,11,11,10,273
1.93990,2.99250,-4.63750,0.00000,0.00476,0.04282,-0.99113,2023,6,12,11,11,10,285
1.94000,2.97500,-4.72500,0.00000,0.00427,0.04392,-0.99027,2023,6,12,11,11,10,296
1.94010,3.04500,-4.83000,0.00000,0.00525,0.04490,-0.99015,2023,6,12,11,11,10,307
1.94020,3.13250,-4.69000,0.00000,0.00329,0.04343,-0.98808,2023,6,12,11,11,10,318
1.94030,2.78250,-4.60250,0.00000,0.00232,0.04319,-0.99235,2023,6,12,11,11,10,329
1.94040,3.04500,-4.65500,0.00000,0.00793,0.04136,-0.98979,2023,6,12,11,11,10,340
1.94050,2.97500,-4.58500,0.00000,0.00525,0.04185,-0.99186,2023,6,12,11,11,10,351
1.94060,2.87000,-4.60250,0.00000,0.00488,0.04319,-0.98832,2023,6,12,11,11,10,362
1.94070,2.99250,-4.60250,0.00000,0.00525,0.04258,-0.98893,2023,6,12,11,11,10,373
1.94080,2.97500,-4.95250,0.00000,0.00403,0.04172,-0.98820,2023,6,12,11,11,10,385
1.94090,2.92250,-4.58500,0.00000,0.00659,0.04319,-0.99052,2023,6,12,11,11,10,396
1.94100,2.83500,-4.58500,0.00000,0.00427,0.04416,-0.99101,2023,6,12,11,11,10,407
1.94110,2.88750,-4.49750,0.00000,0.00512,0.04368,-0.98954,2023,6,12,11,11,10,418
1.94120,2.81750,-4.41000,0.00000,0.00561,0.04514,-0.98820,2023,6,12,11,11,10,429
1.94130,2.80000,-4.44500,0.00000,0.00415,0.04429,-0.99027,2023,6,12,11,11,10,440
1.94140,2.90500,-4.48000,0.00000,0.00720,0.04392,-0.99040,2023,6,12,11,11,10,451
1.94150,2.90500,-4.53250,0.00000,0.00256,0.04380,-0.99235,2023,6,12,11,11,10,462
1.94160,2.95750,-4.49750,0.00000,0.00415,0.04355,-0.99027,2023,6,12,11,11,10,473
1.94170,2.78250,-4.60250,0.00000,0.00549,0.04246,-0.98918,2023,6,12,11,11,10,485
1.94180,2.83500,-4.60250,0.00000,0.00671,0.04282,-0.98905,2023,6,12,11,11,10,496
1.94190,3.09750,-4.79500,0.00000,0.00403,0.04282,-0.98942,2023,6,12,11,11,10,507
1.94200,2.76500,-4.51500,0.00000,0.00427,0.04490,-0.99210,2023,6,12,11,11,10,518
1.94210,2.85250,-4.91750,0.00000,0.00329,0.04233,-0.99076,2023,6,12,11,11,10,529
1.94220,3.04500,-4.58500,0.00000,0.00610,0.04331,-0.99162,2023,6,12,11,11,10,540
1.94230,2.94000,-4.37500,0.00000,0.00256,0.04331,-0.98918,2023,6,12,11,11,10,551
1.94240,3.01000,-4.67250,0.00000,0.00464,0.04294,-0.99137,2023,6,12,11,11,10,562
1.94250,2.94000,-4.74250,0.00000,0.00390,0.04380,-0.98954,2023,6,12,11,11,10,573
1.94260,2.95750,-4.42750,0.00000,0.00549,0.03989,-0.99125,2023,6,12,11,11,10,585
1.94270,2.99250,-4.63750,0.00000,0.00451,0.04148,-0.98893,2023,6,12,11,11,10,596
1.94280,3.09750,-4.60250,0.00000,0.00366,0.04380,-0.98991,2023,6,12,11,11,10,607
1.94290,2.87000,-4.51500,0.00000,0.00390,0.04404,-0.99442,2023,6,12,11,11,10,618
1.94300,2.94000,-4.53250,0.00000,0.00525,0.04465,-0.99210,2023,6,12,11,11,10,629
1.94310,3.04500,-4.72500,0.00000,0.00427,0.04148,-0.99381,2023,6,12,11,11,10,640
1.94320,3.08000,-4.44500,0.00000,0.00403,0.04392,-0.99003,2023,6,12,11,11,10,651
1.94330,3.01000,-4.56750,0.00000,0.00451,0.04246,-0.99308,2023,6,12,11,11,10,662
1.94340,2.87000,-4.46250,0.00000,0.00317,0.04319,-0.99186,2023,6,12,11,11,10,673
1.94350,2.69500,-4.56750,0.00000,0.00500,0.04380,-0.99076,2023,6,12,11,11,10,685
1.94360,2.66000,-4.42750,0.00000,0.00586,0.04307,-0.98796,2023,6,12,11,11,10,696
1.94370,2.99250,-4.77750,0.00000,0.00586,0.04233,-0.98820,2023,6,12,11,11,10,707
1.94380,2.78250,-4.44500,0.00000,0.00561,0.04343,-0.99040,2023,6,12,11,11,10,718
1.94390,2.83500,-4.37500,0.00000,0.00378,0.04307,-0.98881,2023,6,12,11,11,10,729
1.94400,3.15000,-4.62000,0.00000,0.00549,0.04343,-0.98796,2023,6,12,11,11,10,740
1.94410,2.81750,-4.72500,0.00000,0.00464,0.04465,-0.99137,2023,6,12,11,11,10,751
1.94420,2.78250,-4.56750,0.00000,0.00634,0.04270,-0.99064,2023,6,12,11,11,10,762
1.94430,2.90500,-4.51500,0.00000,0.00525,0.04526,-0.99320,2023,6,12,11,11,10,773
1.94440,3.15000,-4.60250,0.00000,0.00451,0.04294,-0.98783,2023,6,12,11,11,10,785
1.94450,2.78250,-4.72500,0.00000,0.00415,0.04331,-0.99076,2023,6,12,11,11,10,796
1.94460,2.73000,-4.56750,0.00000,0.00403,0.04197,-0.98686,2023,6,12,11,11,10,807
1.94470,2.99250,-4.48000,0.00000,0.00537,0.04282,-0.99003,2023,6,12,11,11,10,818
1.94480,3.02750,-4.63750,0.00000,0.00525,0.04148,-0.99137,2023,6,12,11,11,10,829
1.94490,2.97500,-4.65500,0.00000,0.00451,0.04368,-0.99064,2023,6,12,11,11,10,840
1.94500,3.11500,-4.69000,0.00000,0.00537,0.04343,-0.98844,2023,6,12,11,11,10,851
1.94510,2.87000,-4.67250,0.00000,0.00488,0.04221,-0.99186,2023,6,12,11,11,10,862
1.94520,2.81750,-4.37500,0.00000,0.00451,0.04197,-0.99113,2023,6,12,11,11,10,873
1.94530,2.74750,-4.44500,0.00000,0.00439,0.04368,-0.98918,2023,6,12,11,11,10,885
1.94540,3.08000,-4.74250,0.00000,0.00476,0.04197,-0.99027,2023,6,12,11,11,10,896
1.94550,3.06250,-4.70750,0.00000,0.00281,0.04380,-0.98576,2023,6,12,11,11,10,907
1.94560,3.08000,-4.67250,0.00000,0.00647,0.04355,-0.98844,2023,6,12,11,11,10,918
1.94570,3.06250,-4.49750,0.00000,0.00586,0.04233,-0.98954,2023,6,12,11,11,10,929
1.94580,2.97500,-4.67250,0.00000,0.00488,0.04392,-0.98954,2023,6,12,11,11,10,940
1.94590,2.92250,-4.74250,0.00000,0.00378,0.04197,-0.98893,2023,6,12,11,11,10,951
1.94600,2.99250,-4.69000,0.00000,0.00598,0.04307,-0.99101,2023,6,12,11,11,10,962
1.94610,2.83500,-4.56750,0.00000,0.00378,0.04221,-0.98808,2023,6,12,11,11,10,973
1.94620,2.81750,-4.67250,0.00000,0.00512,0.04294,-0.98942,2023,6,12,11,11,10,985
1.94630,2.87000,-4.60250,0.00000,0.00207,0.04294,-0.99137,2023,6,12,11,11,10,996
1.94640,2.74750,-4.55000,0.00000,0.00525,0.04502,-0.99113,2023,6,12,11,11,10,7
1.94650,2.94000,-4.60250,0.00000,0.00476,0.04355,-0.98869,2023,6,12,11,11,10,18
1.94660,2.87000,-4.69000,0.00000,0.00464,0.04258,-0.99223,2023,6,12,11,11,10,29
1.94670,2.87000,-4.60250,0.00000,0.00500,0.04538,-0.99088,2023,6,12,11,11,10,40
1.94680,2.97500,-4.53250,0.00000,0.00586,0.04221,-0.99101,2023,6,12,11,11,10,51
1.94690,3.02750,-4.63750,0.00000,0.00403,0.04111,-0.98881,2023,6,12,11,11,10,62
1.94700,2.83500,-4.72500,0.00000,0.00244,0.04258,-0.98979,2023,6,12,11,11,10,73
1.94710,2.85250,-4.39250,0.00000,0.00451,0.04368,-0.99198,2023,6,12,11,11,10,85
1.94720,2.87000,-4.55000,0.00000,0.00293,0.04258,-0.98979,2023,6,12,11,11,10,96
1.94730,2.97500,-4.55000,0.00000,0.00586,0.04233,-0.99271,2023,6,12,11,11,10,107
1.94740,3.06250,-4.62000,0.00000,0.00464,0.04526,-0.98942,2023,6,12,11,11,10,118
1.94750,2.85250,-4.41000,0.00000,0.00427,0.04441,-0.98710,2023,6,12,11,11,10,129
1.94760,2.95750,-4.60250,0.00000,0.00622,0.04404,-0.99101,2023,6,12,11,11,10,140
1.94770,3.02750,-4.42750,0.00000,0.00451,0.04429,-0.98881,2023,6,12,11,11,10,151
1.94780,2.76500,-4.53250,0.00000,0.00561,0.04368,-0.98869,2023,6,12,11,11,10,162
1.94790,2.85250,-4.51500,0.00000,0.00525,0.04185,-0.99076,2023,6,12,11,11,10,173
1.94800,2.94000,-4.44500,0.00000,0.00378,0.04258,-0.98918,2023,6,12,11,11,10,185
1.94810,2.92250,-4.67250,0.00000,0.00390,0.04294,-0.98783,2023,6,12,11,11,10,196
1.94820,2.92250,-4.53250,0.00000,0.00476,0.04343,-0.99210,2023,6,12,11,11,10,207
1.94830,3.22000,-4.46250,0.00000,0.00415,0.04148,-0.99113,2023,6,12,11,11,10,218
1.94840,3.02750,-4.77750,0.00000,0.00586,0.04331,-0.99003,2023,6,12,11,11,10,229
1.94850,3.08000,-4.77750,0.00000,0.00500,0.04221,-0.99259,2023,6,12,11,11,10,240
1.94860,2.88750,-4.56750,0.00000,0.00342,0.04404,-0.98808,2023,6,12,11,11,10,251
1.94870,3.01000,-4.67250,0.00000,0.00464,0.04429,-0.99027,2023,6,12,11,11,10,262
1.94880,2.94000,-4.77750,0.00000,0.00403,0.04416,-0.98857,2023,6,12,11,11,10,273
1.94890,2.88750,-4.46250,0.00000,0.00366,0.04538,-0.99393,2023,6,12,11,11,10,285
1.94900,3.06250,-4.48000,0.00000,0.00427,0.04343,-0.99174,2023,6,12,11,11,10,296
1.94910,2.92250,-4.76000,0.00000,0.00549,0.04477,-0.99162,2023,6,12,11,11,10,307
1.94920,2.90500,-4.60250,0.00000,0.00488,0.04246,-0.98759,2023,6,12,11,11,10,318
1.94930,3.04500,-4.56750,0.00000,0.00512,0.04514,-0.99113,2023,6,12,11,11,10,329
1.94940,2.97500,-4.79500,0.00000,0.00390,0.04319,-0.99064,2023,6,12,11,11,10,340
1.94950,2.66000,-4.55000,0.00000,0.00622,0.04343,-0.99040,2023,6,12,11,11,10,351
1.94960,3.02750,-4.49750,0.00000,0.00537,0.04233,-0.98783,2023,6,12,11,11,10,362
1.94970,2.87000,-4.49750,0.00000,0.00500,0.04368,-0.98808,2023,6,12,11,11,10,373
1.94980,3.06250,-4.65500,0.00000,0.00390,0.04307,-0.98783,2023,6,12,11,11,10,385
1.94990,2.73000,-4.65500,0.00000,0.00512,0.04197,-0.98991,2023,6,12,11,11,10,396
1.95000,3.04500,-4.81250,0.00000,0.00390,0.04294,-0.99271,2023,6,12,11,11,10,407
1.95010,2.88750,-4.70750,0.00000,0.00537,0.04355,-0.98613,2023,6,12,11,11,10,418
1.95020,2.97500,-4.60250,0.00000,0.00525,0.04063,-0.98832,2023,6,12,11,11,10,429
1.95030,2.87000,-4.81250,0.00000,0.00464,0.04294,-0.99149,2023,6,12,11,11,10,440
1.95040,3.06250,-4.76000,0.00000,0.00488,0.04343,-0.98905,2023,6,12,11,11,10,451
1.95050,2.97500,-4.58500,0.00000,0.00622,0.04441,-0.98808,2023,6,12,11,11,10,462
1.95060,2.97500,-4.86500,0.00000,0.00451,0.04429,-0.98881,2023,6,12,11,11,10,473
1.95070,2.78250,-4.55000,0.00000,0.00439,0.04477,-0.98979,2023,6,12,11,11,10,485
1.95080,2.92250,-4.58500,0.00000,0.00390,0.04319,-0.99210,2023,6,12,11,11,10,496
1.95090,2.92250,-4.44500,0.00000,0.00451,0.04209,-0.98893,2023,6,12,11,11,10,507
1.95100,2.90500,-4.56750,0.00000,0.00317,0.04380,-0.98820,2023,6,12,11,11,10,518
1.95110,2.94000,-4.56750,0.00000,0.00317,0.04355,-0.98942,2023,6,12,11,11,10,529
1.95120,2.78250,-4.67250,0.00000,0.00610,0.04197,-0.98844,2023,6,12,11,11,10,540
1.95130,2.78250,-4.77750,0.00000,0.00403,0.04319,-0.98832,2023,6,12,11,11,10,551
1.95140,2.92250,-4.60250,0.00000,0.00281,0.04233,-0.99137,2023,6,12,11,11,10,562
1.95150,2.80000,-4.53250,0.00000,0.00390,0.04221,-0.98881,2023,6,12,11,11,10,573
1.95160,2.88750,-4.62000,0.00000,0.00512,0.04282,-0.99052,2023,6,12,11,11,10,585
1.95170,2.99250,-4.62000,0.00000,0.00403,0.04221,-0.98979,2023,6,12,11,11,10,596
1.95180,3.01000,-4.51500,0.00000,0.00427,0.04380,-0.99308,2023,6,12,11,11,10,607
1.95190,2.90500,-4.56750,0.00000,0.00342,0.04294,-0.99052,2023,6,12,11,11,10,618
1.95200,2.88750,-4.70750,0.00000,0.00305,0.04197,-0.98759,2023,6,12,11,11,10,629
1.95210,2.83500,-4.83000,0.00000,0.00378,0.04221,-0.99003,2023,6,12,11,11,10,640
1.95220,2.92250,-4.65500,0.00000,0.00207,0.04270,-0.98820,2023,6,12,11,11,10,651
1.95230,2.95750,-4.72500,0.00000,0.00464,0.04392,-0.98832,2023,6,12,11,11,10,662
1.95240,2.97500,-4.62000,0.00000,0.00329,0.04319,-0.98966,2023,6,12,11,11,10,673
1.95250,2.94000,-4.67250,0.00000,0.00293,0.04404,-0.99223,2023,6,12,11,11,10,685
1.95260,2.99250,-4.56750,0.00000,0.00403,0.04160,-0.98954,2023,6,12,11,11,10,696
1.95270,2.92250,-4.51500,0.00000,0.00281,0.04404,-0.98832,2023,6,12,11,11,10,707
1.95280,2.92250,-4.67250,0.00000,0.00476,0.04502,-0.99125,2023,6,12,11,11,10,718
1.95290,3.09750,-4.56750,0.00000,0.00598,0.04307,-0.99076,2023,6,12,11,11,10,729
1.95300,2.81750,-4.58500,0.00000,0.00512,0.04270,-0.99076,2023,6,12,11,11,10,740
1.95310,3.02750,-4.48000,0.00000,0.00512,0.04233,-0.98966,2023,6,12,11,11,10,751
1.95320,2.88750,-4.60250,0.00000,0.00427,0.04294,-0.98979,2023,6,12,11,11,10,762
1.95330,3.13250,-4.70750,0.00000,0.00293,0.04416,-0.99052,2023,6,12,11,11,10,773
1.95340,2.85250,-4.48000,0.00000,0.00342,0.04368,-0.99235,2023,6,12,11,11,10,785
1.95350,3.02750,-4.55000,0.00000,0.00464,0.04331,-0.99027,2023,6,12,11,11,10,796
1.95360,3.11500,-4.70750,0.00000,0.00439,0.04416,-0.99040,2023,6,12,11,11,10,807
1.95370,2.94000,-4.74250,0.00000,0.00427,0.04246,-0.99027,2023,6,12,11,11,10,818
1.95380,2.85250,-4.56750,0.00000,0.00500,0.04343,-0.98881,2023,6,12,11,11,10,829
1.95390,3.16750,-4.77750,0.00000,0.00415,0.04294,-0.99040,2023,6,12,11,11,10,840
1.95400,2.88750,-4.51500,0.00000,0.00537,0.04343,-0.98979,2023,6,12,11,11,10,851
1.95410,2.87000,-4.48000,0.00000,0.00390,0.04233,-0.99247,2023,6,12,11,11,10,862
1.95420,2.95750,-4.76000,0.00000,0.00403,0.04502,-0.99259,2023,6,12,11,11,10,873
1.95430,2.92250,-4.53250,0.00000,0.00354,0.04294,-0.99088,2023,6,12,11,11,10,885
1.95440,2.90500,-4.67250,0.00000,0.00500,0.04124,-0.98857,2023,6,12,11,11,10,896
1.95450,2.76500,-4.58500,0.00000,0.00281,0.04636,-0.99162,2023,6,12,11,11,10,907
1.95460,2.80000,-4.49750,0.00000,0.00378,0.04380,-0.99125,2023,6,12,11,11,10,918
1.95470,3.11500,-4.67250,0.00000,0.00500,0.04355,-0.99296,2023,6,12,11,11,10,929
1.95480,2.94000,-4.74250,0.00000,0.00476,0.04185,-0.99149,2023,6,12,11,11,10,940
1.95490,2.97500,-4.41000,0.00000,0.00317,0.04246,-0.99003,2023,6,12,11,11,10,951
1.95500,3.16750,-4.48000,0.00000,0.00342,0.04172,-0.99052,2023,6,12,11,11,10,962
1.95510,3.04500,-4.63750,0.00000,0.00525,0.04087,-0.99137,2023,6,12,11,11,10,973
1.95520,2.88750,-4.79500,0.00000,0.00537,0.04282,-0.99015,2023,6,12,11,11,10,985
1.95530,2.94000,-4.62000,0.00000,0.00305,0.04563,-0.99125,2023,6,12,11,11,10,996
1.95540,2.87000,-4.65500,0.00000,0.00256,0.04465,-0.99149,2023,6,12,11,11,10,7
1.95550,2.78250,-4.60250,0.00000,0.00500,0.04599,-0.98966,2023,6,12,11,11,10,18
1.95560,2.99250,-4.44500,0.00000,0.00537,0.04404,-0.99040,2023,6,12,11,11,10,29
1.95570,2.87000,-4.48000,0.00000,0.00573,0.04526,-0.99406,2023,6,12,11,11,10,40
1.95580,3.04500,-4.77750,0.00000,0.00305,0.04258,-0.98820,2023,6,12,11,11,10,51
1.95590,3.06250,-4.70750,0.00000,0.00366,0.04124,-0.99015,2023,6,12,11,11,10,62
1.95600,2.90500,-4.76000,0.00000,0.00537,0.04294,-0.99174,2023,6,12,11,11,10,73
1.95610,2.83500,-4.60250,0.00000,0.00488,0.04429,-0.98930,2023,6,12,11,11,10,85
1.95620,2.80000,-4.60250,0.00000,0.00683,0.04148,-0.98747,2023,6,12,11,11,10,96
1.95630,2.94000,-4.69000,0.00000,0.00573,0.04502,-0.98918,2023,6,12,11,11,10,107
1.95640,2.92250,-4.67250,0.00000,0.00451,0.04111,-0.98832,2023,6,12,11,11,10,118
1.95650,3.02750,-4.51500,0.00000,0.00525,0.04209,-0.98844,2023,6,12,11,11,10,129
1.95660,2.85250,-4.58500,0.00000,0.00427,0.04429,-0.99088,2023,6,12,11,11,10,140
1.95670,2.90500,-4.69000,0.00000,0.00317,0.04233,-0.98942,2023,6,12,11,11,10,151
1.95680,2.80000,-4.69000,0.00000,0.00537,0.04404,-0.98759,2023,6,12,11,11,10,162
1.95690,3.11500,-4.77750,0.00000,0.00390,0.04368,-0.99235,2023,6,12,11,11,10,173
1.95700,2.99250,-4.46250,0.00000,0.00378,0.04380,-0.99003,2023,6,12,11,11,10,185
1.95710,2.87000,-4.70750,0.00000,0.00476,0.04514,-0.98881,2023,6,12,11,11,10,196
1.95720,2.95750,-4.69000,0.00000,0.00427,0.04319,-0.98808,2023,6,12,11,11,10,207
1.95730,3.02750,-4.60250,0.00000,0.00317,0.04465,-0.98966,2023,6,12,11,11,10,218
1.95740,3.04500,-4.62000,0.00000,0.00561,0.04429,-0.99076,2023,6,12,11,11,10,229
1.95750,3.18500,-4.77750,0.00000,0.00378,0.04355,-0.99223,2023,6,12,11,11,10,240
1.95760,2.73000,-4.51500,0.00000,0.00439,0.04270,-0.98893,2023,6,12,11,11,10,251
1.95770,2.85250,-4.72500,0.00000,0.00561,0.04416,-0.98783,2023,6,12,11,11,10,262
1.95780,2.94000,-4.62000,0.00000,0.00464,0.04246,-0.99088,2023,6,12,11,11,10,273
1.95790,2.76500,-4.34000,0.00000,0.00488,0.04294,-0.99003,2023,6,12,11,11,10,285
1.95800,2.99250,-4.60250,0.00000,0.00537,0.04331,-0.98954,2023,6,12,11,11,10,296
1.95810,2.83500,-4.63750,0.00000,0.00476,0.04246,-0.98661,2023,6,12,11,11,10,307
1.95820,2.81750,-4.58500,0.00000,0.00403,0.04331,-0.98771,2023,6,12,11,11,10,318
1.95830,3.04500,-4.65500,0.00000,0.00464,0.04209,-0.98979,2023,6,12,11,11,10,329
1.95840,2.81750,-4.60250,0.00000,0.00525,0.04136,-0.99125,2023,6,12,11,11,10,340
1.95850,2.97500,-4.56750,0.00000,0.00610,0.04392,-0.98930,2023,6,12,11,11,10,351
1.95860,3.01000,-4.84750,0.00000,0.00403,0.04160,-0.99076,2023,6,12,11,11,10,362
1.95870,2.94000,-4.53250,0.00000,0.00403,0.04441,-0.99223,2023,6,12,11,11,10,373
1.95880,2.87000,-4.44500,0.00000,0.00354,0.04185,-0.98674,2023,6,12,11,11,10,385
1.95890,3.02750,-4.67250,0.00000,0.00293,0.04075,-0.98844,2023,6,12,11,11,10,396
1.95900,2.88750,-4.53250,0.00000,0.00488,0.04490,-0.99076,2023,6,12,11,11,10,407
1.95910,2.78250,-4.63750,0.00000,0.00415,0.04197,-0.98783,2023,6,12,11,11,10,418
1.95920,2.73000,-4.53250,0.00000,0.00476,0.04270,-0.98808,2023,6,12,11,11,10,429
1.95930,2.78250,-4.55000,0.00000,0.00439,0.04587,-0.99454,2023,6,12,11,11,10,440
1.95940,3.08000,-4.60250,0.00000,0.00476,0.04477,-0.99174,2023,6,12,11,11,10,451
1.95950,3.06250,-4.53250,0.00000,0.00451,0.04368,-0.98796,2023,6,12,11,11,10,462
1.95960,2.83500,-4.41000,0.00000,0.00537,0.04258,-0.99064,2023,6,12,11,11,10,473
1.95970,3.02750,-4.58500,0.00000,0.00708,0.04209,-0.98979,2023,6,12,11,11,10,485
1.95980,3.04500,-4.67250,0.00000,0.00525,0.04404,-0.98893,2023,6,12,11,11,11,6
1.95990,2.94000,-4.58500,0.00000,0.00451,0.04429,-0.99052,2023,6,12,11,11,11,17
1.96000,2.92250,-4.62000,0.00000,0.00403,0.04392,-0.98674,2023,6,12,11,11,11,28
1.96010,2.78250,-4.63750,0.00000,0.00573,0.04221,-0.99101,2023,6,12,11,11,11,39
1.96020,2.92250,-4.56750,0.00000,0.00525,0.04233,-0.98710,2023,6,12,11,11,11,50
1.96030,3.02750,-4.55000,0.00000,0.00415,0.04343,-0.98796,2023,6,12,11,11,11,61
1.96040,2.90500,-4.63750,0.00000,0.00610,0.04380,-0.99162,2023,6,12,11,11,11,72
1.96050,2.74750,-4.60250,0.00000,0.00342,0.04416,-0.98954,2023,6,12,11,11,11,83
1.96060,2.85250,-4.48000,0.00000,0.00354,0.04465,-0.99162,2023,6,12,11,11,11,95
1.96070,2.78250,-4.48000,0.00000,0.00659,0.04392,-0.99137,2023,6,12,11,11,11,106
1.96080,2.95750,-4.81250,0.00000,0.00549,0.04307,-0.98942,2023,6,12,11,11,11,117
1.96090,2.87000,-4.51500,0.00000,0.00232,0.04465,-0.98820,2023,6,12,11,11,11,128
1.96100,2.66000,-4.35750,0.00000,0.00451,0.04416,-0.98783,2023,6,12,11,11,11,139
1.96110,3.02750,-4.65500,0.00000,0.00634,0.04331,-0.99027,2023,6,12,11,11,11,150
1.96120,2.83500,-4.48000,0.00000,0.00525,0.04441,-0.99003,2023,6,12,11,11,11,161
1.96130,3.02750,-4.84750,0.00000,0.00488,0.04319,-0.99101,2023,6,12,11,11,11,172
1.96140,2.90500,-4.74250,0.00000,0.00354,0.04307,-0.98759,2023,6,12,11,11,11,183
1.96150,2.80000,-4.42750,0.00000,0.00512,0.04453,-0.99101,2023,6,12,11,11,11,195
1.96160,2.90500,-4.77750,0.00000,0.00525,0.04270,-0.98918,2023,6,12,11,11,11,206
1.96170,2.85250,-4.60250,0.00000,0.00525,0.04343,-0.98808,2023,6,12,11,11,11,217
1.96180,2.74750,-4.53250,0.00000,0.00622,0.04355,-0.98686,2023,6,12,11,11,11,228
1.96190,2.87000,-4.46250,0.00000,0.00342,0.04221,-0.98918,2023,6,12,11,11,11,239
1.96200,2.62500,-4.60250,0.00000,0.00476,0.04282,-0.98881,2023,6,12,11,11,11,250
1.96210,2.80000,-4.53250,0.00000,0.00598,0.04355,-0.98625,2023,6,12,11,11,11,261
1.96220,3.06250,-4.48000,0.00000,0.00305,0.04246,-0.99040,2023,6,12,11,11,11,272
1.96230,3.02750,-4.86500,0.00000,0.00708,0.04282,-0.99040,2023,6,12,11,11,11,283
1.96240,2.85250,-4.55000,0.00000,0.00427,0.04331,-0.99027,2023,6,12,11,11,11,295
1.96250,3.04500,-4.69000,0.00000,0.00537,0.04368,-0.98893,2023,6,12,11,11,11,306
1.96260,2.78250,-4.46250,0.00000,0.00561,0.04429,-0.98808,2023,6,12,11,11,11,317
1.96270,2.90500,-4.60250,0.00000,0.00573,0.04038,-0.98771,2023,6,12,11,11,11,328
1.96280,2.81750,-4.63750,0.00000,0.00634,0.04380,-0.98966,2023,6,12,11,11,11,339
1.96290,2.83500,-4.51500,0.00000,0.00512,0.04221,-0.99015,2023,6,12,11,11,11,350
1.96300,2.99250,-4.51500,0.00000,0.00598,0.04294,-0.98515,2023,6,12,11,11,11,361
1.96310,2.94000,-4.56750,0.00000,0.00403,0.04343,-0.98649,2023,6,12,11,11,11,372
1.96320,2.69500,-4.41000,0.00000,0.00549,0.04355,-0.98857,2023,6,12,11,11,11,383
1.96330,2.90500,-4.35750,0.00000,0.00512,0.04185,-0.98820,2023,6,12,11,11,11,395
1.96340,2.85250,-4.51500,0.00000,0.00512,0.04392,-0.98747,2023,6,12,11,11,11,406
1.96350,3.09750,-4.69000,0.00000,0.00549,0.04063,-0.98954,2023,6,12,11,11,11,417
1.96360,2.88750,-4.88250,0.00000,0.00488,0.04160,-0.98796,2023,6,12,11,11,11,428
1.96370,2.87000,-4.56750,0.00000,0.00525,0.04319,-0.98808,2023,6,12,11,11,11,439
1.96380,2.88750,-4.62000,0.00000,0.00622,0.04136,-0.98857,2023,6,12,11,11,11,450
1.96390,2.87000,-4.56750,0.00000,0.00561,0.04490,-0.98735,2023,6,12,11,11,11,461
1.96400,2.80000,-4.42750,0.00000,0.00439,0.04307,-0.98649,2023,6,12,11,11,11,472
1.96410,3.02750,-4.58500,0.00000,0.00512,0.04331,-0.98747,2023,6,12,11,11,11,483
1.96420,2.85250,-4.46250,0.00000,0.00415,0.04294,-0.99149,2023,6,12,11,11,11,495
1.96430,2.80000,-4.49750,0.00000,0.00403,0.04282,-0.98686,2023,6,12,11,11,11,506
1.96440,2.95750,-4.55000,0.00000,0.00366,0.04160,-0.99040,2023,6,12,11,11,11,517
1.96450,3.09750,-4.74250,0.00000,0.00488,0.04477,-0.98881,2023,6,12,11,11,11,528
1.96460,2.90500,-4.53250,0.00000,0.00476,0.04172,-0.98869,2023,6,12,11,11,11,539
1.96470,2.95750,-4.55000,0.00000,0.00464,0.04453,-0.99137,2023,6,12,11,11,11,550
1.96480,2.85250,-4.62000,0.00000,0.00451,0.04294,-0.99088,2023,6,12,11,11,11,561
1.96490,3.09750,-4.70750,0.00000,0.00476,0.04282,-0.98747,2023,6,12,11,11,11,572
1.96500,3.02750,-4.69000,0.00000,0.00403,0.04453,-0.98893,2023,6,12,11,11,11,583
1.96510,3.08000,-4.83000,0.00000,0.00561,0.04209,-0.98979,2023,6,12,11,11,11,595
1.96520,3.01000,-4.74250,0.00000,0.00427,0.04197,-0.98844,2023,6,12,11,11,11,606
1.96530,2.92250,-4.51500,0.00000,0.00610,0.04551,-0.98600,2023,6,12,11,11,11,617
1.96540,3.13250,-4.88250,0.00000,0.00403,0.04392,-0.99052,2023,6,12,11,11,11,628
1.96550,3.08000,-4.63750,0.00000,0.00293,0.04331,-0.99088,2023,6,12,11,11,11,639
1.96560,3.01000,-4.62000,0.00000,0.00500,0.04380,-0.98979,2023,6,12,11,11,11,650
1.96570,2.74750,-4.41000,0.00000,0.00439,0.04392,-0.98735,2023,6,12,11,11,11,661
1.96580,2.97500,-4.62000,0.00000,0.00415,0.04331,-0.98893,2023,6,12,11,11,11,672
1.96590,2.87000,-4.51500,0.00000,0.00720,0.04246,-0.98966,2023,6,12,11,11,11,683
1.96600,2.99250,-4.56750,0.00000,0.00366,0.04368,-0.98857,2023,6,12,11,11,11,695
1.96610,2.87000,-4.63750,0.00000,0.00378,0.04416,-0.98844,2023,6,12,11,11,11,706
1.96620,2.99250,-4.63750,0.00000,0.00256,0.04185,-0.98783,2023,6,12,11,11,11,717
1.96630,2.88750,-4.81250,0.00000,0.00390,0.04331,-0.98832,2023,6,12,11,11,11,728
1.96640,2.90500,-4.30500,0.00000,0.00403,0.04355,-0.99052,2023,6,12,11,11,11,739
1.96650,2.76500,-4.60250,0.00000,0.00549,0.04270,-0.98930,2023,6,12,11,11,11,750
1.96660,2.69500,-4.65500,0.00000,0.00451,0.04087,-0.98808,2023,6,12,11,11,11,761
1.96670,2.83500,-4.53250,0.00000,0.00451,0.04319,-0.98930,2023,6,12,11,11,11,772
1.96680,3.25500,-4.88250,0.00000,0.00427,0.04172,-0.98771,2023,6,12,11,11,11,783
1.96690,2.78250,-4.48000,0.00000,0.00415,0.04148,-0.98771,2023,6,12,11,11,11,795
1.96700,2.85250,-4.62000,0.00000,0.00427,0.04404,-0.99027,2023,6,12,11,11,11,806
1.96710,2.94000,-4.76000,0.00000,0.00476,0.04502,-0.98918,2023,6,12,11,11,11,817
1.96720,2.85250,-4.41000,0.00000,0.00634,0.04380,-0.99040,2023,6,12,11,11,11,828
1.96730,2.92250,-4.72500,0.00000,0.00390,0.04368,-0.99076,2023,6,12,11,11,11,839
1.96740,2.83500,-4.56750,0.00000,0.00622,0.04209,-0.98710,2023,6,12,11,11,11,850
1.96750,2.81750,-4.65500,0.00000,0.00305,0.04148,-0.98966,2023,6,12,11,11,11,861
1.96760,3.08000,-4.60250,0.00000,0.00451,0.04441,-0.98905,2023,6,12,11,11,11,872
1.96770,2.90500,-4.67250,0.00000,0.00354,0.04294,-0.98735,2023,6,12,11,11,11,883
1.96780,2.92250,-4.56750,0.00000,0.00598,0.04404,-0.98796,2023,6,12,11,11,11,895
1.96790,2.92250,-4.58500,0.00000,0.00451,0.04111,-0.98832,2023,6,12,11,11,11,906
1.96800,2.94000,-4.72500,0.00000,0.00268,0.04624,-0.98710,2023,6,12,11,11,11,917
1.96810,2.97500,-4.53250,0.00000,0.00647,0.04502,-0.98844,2023,6,12,11,11,11,928
1.96820,3.04500,-4.79500,0.00000,0.00500,0.04002,-0.98966,2023,6,12,11,11,11,939
1.96830,2.94000,-4.56750,0.00000,0.00561,0.04380,-0.99003,2023,6,12,11,11,11,950
1.96840,3.15000,-4.49750,0.00000,0.00549,0.04270,-0.98747,2023,6,12,11,11,11,961
1.96850,2.76500,-4.53250,0.00000,0.00403,0.04258,-0.99125,2023,6,12,11,11,11,972
1.96860,2.74750,-4.53250,0.00000,0.00488,0.04270,-0.98820,2023,6,12,11,11,12,3
1.96870,3.04500,-4.58500,0.00000,0.00610,0.04331,-0.98796,2023,6,12,11,11,12,15
1.96880,2.90500,-4.53250,0.00000,0.00525,0.04538,-0.99027,2023,6,12,11,11,12,26
1.96890,2.97500,-4.67250,0.00000,0.00354,0.04124,-0.98796,2023,6,12,11,11,12,37
1.96900,3.11500,-4.69000,0.00000,0.00403,0.04233,-0.98881,2023,6,12,11,11,12,48
1.96910,2.90500,-4.55000,0.00000,0.00354,0.04233,-0.99174,2023,6,12,11,11,12,59
1.96920,2.83500,-4.37500,0.00000,0.00329,0.04172,-0.99040,2023,6,12,11,11,12,70
1.96930,2.97500,-4.70750,0.00000,0.00598,0.04221,-0.98820,2023,6,12,11,11,12,81
1.96940,3.08000,-4.70750,0.00000,0.00329,0.04209,-0.98808,2023,6,12,11,11,12,92
1.96950,2.97500,-4.67250,0.00000,0.00464,0.04209,-0.98796,2023,6,12,11,11,12,103
1.96960,2.85250,-4.58500,0.00000,0.00451,0.04380,-0.98954,2023,6,12,11,11,12,115
1.96970,3.23750,-4.63750,0.00000,0.00488,0.04331,-0.98918,2023,6,12,11,11,12,126
1.96980,2.78250,-4.58500,0.00000,0.00500,0.04343,-0.98857,2023,6,12,11,11,12,137
1.96990,3.20250,-4.67250,0.00000,0.00573,0.04124,-0.98759,2023,6,12,11,11,12,148
1.97000,2.88750,-4.63750,0.00000,0.00598,0.04099,-0.99052,2023,6,12,11,11,12,159
1.97010,2.94000,-4.65500,0.00000,0.00634,0.04404,-0.99052,2023,6,12,11,11,12,170
1.97020,2.74750,-4.35750,0.00000,0.00500,0.04282,-0.98893,2023,6,12,11,11,12,181
1.97030,3.01000,-4.53250,0.00000,0.00427,0.04258,-0.98905,2023,6,12,11,11,12,192
1.97040,2.78250,-4.49750,0.00000,0.00415,0.04246,-0.98783,2023,6,12,11,11,12,203
1.97050,2.81750,-4.69000,0.00000,0.00427,0.04355,-0.98905,2023,6,12,11,11,12,215
1.97060,2.83500,-4.42750,0.00000,0.00610,0.04331,-0.98893,2023,6,12,11,11,12,226
1.97070,2.80000,-4.63750,0.00000,0.00415,0.04307,-0.98991,2023,6,12,11,11,12,237
1.97080,2.87000,-4.58500,0.00000,0.00439,0.04319,-0.98844,2023,6,12,11,11,12,248
1.97090,2.87000,-4.67250,0.00000,0.00488,0.04368,-0.98735,2023,6,12,11,11,12,259
1.97100,2.97500,-4.58500,0.00000,0.00451,0.04111,-0.99003,2023,6,12,11,11,12,270
1.97110,2.95750,-4.42750,0.00000,0.00659,0.04453,-0.98966,2023,6,12,11,11,12,281
1.97120,2.99250,-4.56750,0.00000,0.00512,0.04258,-0.99064,2023,6,12,11,11,12,292
1.97130,2.99250,-4.79500,0.00000,0.00317,0.04355,-0.98722,2023,6,12,11,11,12,303
1.97140,2.92250,-4.58500,0.00000,0.00586,0.04343,-0.99027,2023,6,12,11,11,12,315
1.97150,3.01000,-4.46250,0.00000,0.00390,0.04124,-0.98552,2023,6,12,11,11,12,326
1.97160,2.88750,-4.60250,0.00000,0.00451,0.04209,-0.98820,2023,6,12,11,11,12,337
1.97170,3.01000,-4.37500,0.00000,0.00403,0.04380,-0.98905,2023,6,12,11,11,12,348
1.97180,2.76500,-4.62000,0.00000,0.00537,0.04099,-0.98722,2023,6,12,11,11,12,359
1.97190,2.88750,-4.48000,0.00000,0.00281,0.04282,-0.99003,2023,6,12,11,11,12,370
1.97200,3.13250,-4.83000,0.00000,0.00488,0.04331,-0.98674,2023,6,12,11,11,12,381
1.97210,2.95750,-4.58500,0.00000,0.00293,0.04380,-0.98796,2023,6,12,11,11,12,392
1.97220,3.09750,-4.91750,0.00000,0.00488,0.04465,-0.98930,2023,6,12,11,11,12,403
1.97230,2.95750,-4.58500,0.00000,0.00512,0.04404,-0.98881,2023,6,12,11,11,12,415
1.97240,2.88750,-4.42750,0.00000,0.00427,0.04282,-0.98808,2023,6,12,11,11,12,426
1.97250,2.94000,-4.60250,0.00000,0.00403,0.04331,-0.98661,2023,6,12,11,11,12,437
1.97260,2.85250,-4.69000,0.00000,0.00378,0.04270,-0.98759,2023,6,12,11,11,12,448
1.97270,2.92250,-4.32250,0.00000,0.00512,0.04172,-0.98625,2023,6,12,11,11,12,459
1.97280,2.87000,-4.69000,0.00000,0.00427,0.04160,-0.98857,2023,6,12,11,11,12,470
1.97290,2.81750,-4.67250,0.00000,0.00244,0.04404,-0.98735,2023,6,12,11,11,12,481
1.97300,2.90500,-4.48000,0.00000,0.00488,0.04282,-0.98966,2023,6,12,11,11,12,492
1.97310,3.37750,-4.42750,0.00000,0.00281,0.04307,-0.98844,2023,6,12,11,11,12,503
1.97320,3.08000,-4.70750,0.00000,0.00561,0.04258,-0.98881,2023,6,12,11,11,12,515
1.97330,2.83500,-4.55000,0.00000,0.00366,0.04343,-0.99101,2023,6,12,11,11,12,526
1.97340,2.74750,-4.56750,0.00000,0.00671,0.04270,-0.99088,2023,6,12,11,11,12,537
1.97350,2.95750,-4.44500,0.00000,0.00622,0.04392,-0.99076,2023,6,12,11,11,12,548
1.97360,2.85250,-4.53250,0.00000,0.00500,0.04404,-0.98881,2023,6,12,11,11,12,559
1.97370,2.99250,-4.70750,0.00000,0.00439,0.04209,-0.98918,2023,6,12,11,11,12,570
1.97380,2.90500,-4.84750,0.00000,0.00293,0.04185,-0.98796,2023,6,12,11,11,12,581
1.97390,2.97500,-4.67250,0.00000,0.00525,0.04404,-0.99052,2023,6,12,11,11,12,592
1.97400,2.69500,-4.48000,0.00000,0.00512,0.04246,-0.98783,2023,6,12,11,11,12,603
1.97410,2.88750,-4.49750,0.00000,0.00439,0.04404,-0.98905,2023,6,12,11,11,12,615
1.97420,2.94000,-4.46250,0.00000,0.00354,0.04538,-0.98674,2023,6,12,11,11,12,626
1.97430,3.06250,-4.65500,0.00000,0.00293,0.04270,-0.99235,2023,6,12,11,11,12,637
1.97440,3.06250,-4.48000,0.00000,0.00427,0.04307,-0.98649,2023,6,12,11,11,12,648
1.97450,2.87000,-4.72500,0.00000,0.00415,0.04185,-0.98796,2023,6,12,11,11,12,659
1.97460,2.85250,-4.51500,0.00000,0.00451,0.04270,-0.98783,2023,6,12,11,11,12,670
1.97470,2.87000,-4.44500,0.00000,0.00439,0.04368,-0.98844,2023,6,12,11,11,12,681
1.97480,2.97500,-4.77750,0.00000,0.00500,0.04477,-0.98930,2023,6,12,11,11,12,692
1.97490,2.73000,-4.41000,0.00000,0.00415,0.04355,-0.99162,2023,6,12,11,11,12,703
1.97500,2.94000,-4.72500,0.00000,0.00451,0.04392,-0.98649,2023,6,12,11,11,12,715
1.97510,2.74750,-4.49750,0.00000,0.00464,0.04197,-0.98747,2023,6,12,11,11,12,726
1.97520,3.04500,-4.72500,0.00000,0.00598,0.04331,-0.98527,2023,6,12,11,11,12,737
1.97530,3.06250,-4.51500,0.00000,0.00293,0.04172,-0.98832,2023,6,12,11,11,12,748
1.97540,2.94000,-4.63750,0.00000,0.00305,0.04355,-0.98564,2023,6,12,11,11,12,759
1.97550,2.95750,-4.56750,0.00000,0.00525,0.04197,-0.98625,2023,6,12,11,11,12,770
1.97560,3.04500,-4.79500,0.00000,0.00622,0.04307,-0.98686,2023,6,12,11,11,12,781
1.97570,2.92250,-4.63750,0.00000,0.00329,0.04319,-0.98613,2023,6,12,11,11,12,792
1.97580,2.90500,-4.67250,0.00000,0.00366,0.04575,-0.98515,2023,6,12,11,11,12,803
1.97590,2.83500,-4.44500,0.00000,0.00342,0.04355,-0.98954,2023,6,12,11,11,12,815
1.97600,2.88750,-4.77750,0.00000,0.00537,0.04050,-0.98771,2023,6,12,11,11,12,826
1.97610,2.83500,-4.62000,0.00000,0.00488,0.04111,-0.98771,2023,6,12,11,11,12,837
1.97620,2.95750,-4.65500,0.00000,0.00427,0.04343,-0.98857,2023,6,12,11,11,12,848
1.97630,2.85250,-4.77750,0.00000,0.00488,0.04282,-0.98747,2023,6,12,11,11,12,859
1.97640,2.95750,-4.91750,0.00000,0.00378,0.04514,-0.98759,2023,6,12,11,11,12,870
1.97650,2.88750,-4.79500,0.00000,0.00683,0.04453,-0.98576,2023,6,12,11,11,12,881
1.97660,2.71250,-4.70750,0.00000,0.00451,0.04270,-0.98869,2023,6,12,11,11,12,892
1.97670,2.85250,-4.70750,0.00000,0.00366,0.04307,-0.98381,2023,6,12,11,11,12,903
1.97680,2.88750,-4.42750,0.00000,0.00537,0.04246,-0.98552,2023,6,12,11,11,12,915
1.97690,2.85250,-4.62000,0.00000,0.00488,0.04380,-0.99064,2023,6,12,11,11,12,926
1.97700,2.74750,-4.79500,0.00000,0.00476,0.04258,-0.98979,2023,6,12,11,11,12,937
1.97710,3.04500,-4.60250,0.00000,0.00525,0.04233,-0.98600,2023,6,12,11,11,12,948
1.97720,3.04500,-4.69000,0.00000,0.00537,0.04172,-0.98796,2023,6,12,11,11,12,959
1.97730,2.83500,-4.72500,0.00000,0.00305,0.04429,-0.98771,2023,6,12,11,11,13,0
1.97740,2.85250,-4.60250,0.00000,0.00415,0.04209,-0.98747,2023,6,12,11,11,13,11
1.97750,2.78250,-4.76000,0.00000,0.00708,0.04368,-0.98808,2023,6,12,11,11,13,22
1.97760,2.74750,-4.37500,0.00000,0.00293,0.04294,-0.98771,2023,6,12,11,11,13,33
1.97770,3.08000,-4.70750,0.00000,0.00390,0.04380,-0.98722,2023,6,12,11,11,13,45
1.97780,2.81750,-4.41000,0.00000,0.00390,0.04477,-0.98918,2023,6,12,11,11,13,56
1.97790,2.99250,-4.49750,0.00000,0.00378,0.04270,-0.98576,2023,6,12,11,11,13,67
1.97800,2.94000,-4.74250,0.00000,0.00634,0.04294,-0.98600,2023,6,12,11,11,13,78
1.97810,3.01000,-4.83000,0.00000,0.00488,0.04270,-0.98783,2023,6,12,11,11,13,89
1.97820,2.78250,-4.77750,0.00000,0.00329,0.04270,-0.98796,2023,6,12,11,11,13,100
1.97830,2.87000,-4.58500,0.00000,0.00342,0.04319,-0.98698,2023,6,12,11,11,13,111
1.97840,2.95750,-4.48000,0.00000,0.00537,0.04355,-0.98649,2023,6,12,11,11,13,122
1.97850,2.73000,-4.44500,0.00000,0.00415,0.04258,-0.98613,2023,6,12,11,11,13,133
1.97860,3.04500,-4.76000,0.00000,0.00390,0.04258,-0.98661,2023,6,12,11,11,13,145
1.97870,2.74750,-4.55000,0.00000,0.00549,0.04246,-0.98930,2023,6,12,11,11,13,156
1.97880,2.78250,-4.39250,0.00000,0.00390,0.04465,-0.98905,2023,6,12,11,11,13,167
1.97890,2.94000,-4.72500,0.00000,0.00403,0.04343,-0.98661,2023,6,12,11,11,13,178
1.97900,2.87000,-4.51500,0.00000,0.00464,0.04185,-0.98674,2023,6,12,11,11,13,189
1.97910,2.88750,-4.55000,0.00000,0.00598,0.04209,-0.98905,2023,6,12,11,11,13,200
1.97920,3.04500,-4.49750,0.00000,0.00561,0.04343,-0.98649,2023,6,12,11,11,13,211
1.97930,2.76500,-4.53250,0.00000,0.00439,0.04282,-0.98796,2023,6,12,11,11,13,222
1.97940,2.99250,-4.49750,0.00000,0.00525,0.04221,-0.98478,2023,6,12,11,11,13,233
1.97950,2.87000,-4.67250,0.00000,0.00293,0.04404,-0.98869,2023,6,12,11,11,13,245
1.97960,2.88750,-4.46250,0.00000,0.00366,0.04502,-0.98661,2023,6,12,11,11,13,256
1.97970,2.81750,-4.58500,0.00000,0.00732,0.04380,-0.98674,2023,6,12,11,11,13,267
1.97980,2.80000,-4.67250,0.00000,0.00439,0.04368,-0.98905,2023,6,12,11,11,13,278
1.97990,2.71250,-4.51500,0.00000,0.00451,0.04453,-0.98674,2023,6,12,11,11,13,289
1.98000,2.99250,-4.55000,0.00000,0.00573,0.04343,-0.98832,2023,6,12,11,11,13,300
1.98010,2.67750,-4.77750,0.00000,0.00342,0.04355,-0.98722,2023,6,12,11,11,13,311
1.98020,2.99250,-4.76000,0.00000,0.00525,0.04282,-0.98881,2023,6,12,11,11,13,322
1.98030,2.94000,-4.56750,0.00000,0.00366,0.04221,-0.98491,2023,6,12,11,11,13,333
1.98040,2.88750,-4.39250,0.00000,0.00512,0.04282,-0.98820,2023,6,12,11,11,13,345
1.98050,2.95750,-4.67250,0.00000,0.00500,0.04355,-0.98759,2023,6,12,11,11,13,356
1.98060,3.01000,-4.72500,0.00000,0.00634,0.04294,-0.98808,2023,6,12,11,11,13,367
1.98070,3.01000,-4.65500,0.00000,0.00610,0.04258,-0.98808,2023,6,12,11,11,13,378
1.98080,2.88750,-4.69000,0.00000,0.00366,0.04282,-0.98722,2023,6,12,11,11,13,389
1.98090,2.97500,-4.49750,0.00000,0.00488,0.04294,-0.98588,2023,6,12,11,11,13,400
1.98100,2.88750,-4.48000,0.00000,0.00366,0.04416,-0.98954,2023,6,12,11,11,13,411
1.98110,3.06250,-4.56750,0.00000,0.00610,0.04416,-0.98735,2023,6,12,11,11,13,422
1.98120,2.90500,-4.67250,0.00000,0.00329,0.04441,-0.98796,2023,6,12,11,11,13,433
1.98130,2.92250,-4.70750,0.00000,0.00354,0.04282,-0.98832,2023,6,12,11,11,13,445
1.98140,3.01000,-4.60250,0.00000,0.00512,0.04209,-0.98832,2023,6,12,11,11,13,456
1.98150,3.11500,-4.63750,0.00000,0.00427,0.04294,-0.98369,2023,6,12,11,11,13,467
1.98160,2.94000,-4.79500,0.00000,0.00500,0.04380,-0.98649,2023,6,12,11,11,13,478
1.98170,2.97500,-4.70750,0.00000,0.00561,0.04270,-0.98905,2023,6,12,11,11,13,489
1.98180,2.85250,-4.67250,0.00000,0.00488,0.04490,-0.98588,2023,6,12,11,11,13,500
1.98190,2.97500,-4.77750,0.00000,0.00464,0.04233,-0.98637,2023,6,12,11,11,13,511
1.98200,2.90500,-4.67250,0.00000,0.00403,0.04233,-0.98515,2023,6,12,11,11,13,522
1.98210,2.90500,-4.74250,0.00000,0.00586,0.04343,-0.98759,2023,6,12,11,11,13,533
1.98220,2.85250,-4.81250,0.00000,0.00415,0.04172,-0.98735,2023,6,12,11,11,13,545
1.98230,2.74750,-4.69000,0.00000,0.00476,0.04307,-0.98515,2023,6,12,11,11,13,556
1.98240,3.09750,-4.88250,0.00000,0.00561,0.04319,-0.98564,2023,6,12,11,11,13,567
1.98250,3.08000,-4.58500,0.00000,0.00549,0.04404,-0.98844,2023,6,12,11,11,13,578
1.98260,2.95750,-4.56750,0.00000,0.00403,0.04380,-0.98686,2023,6,12,11,11,13,589
1.98270,2.94000,-4.49750,0.00000,0.00586,0.04172,-0.98686,2023,6,12,11,11,13,600
1.98280,2.90500,-4.56750,0.00000,0.00500,0.04429,-0.98747,2023,6,12,11,11,13,611
1.98290,2.92250,-4.55000,0.00000,0.00378,0.04368,-0.98686,2023,6,12,11,11,13,622
1.98300,2.71250,-4.60250,0.00000,0.00573,0.04233,-0.99052,2023,6,12,11,11,13,633
1.98310,2.87000,-4.63750,0.00000,0.00427,0.04392,-0.98539,2023,6,12,11,11,13,645
1.98320,2.97500,-4.65500,0.00000,0.00525,0.04197,-0.98735,2023,6,12,11,11,13,656
1.98330,2.53750,-4.49750,0.00000,0.00488,0.04185,-0.98600,2023,6,12,11,11,13,667
1.98340,2.99250,-4.69000,0.00000,0.00476,0.04502,-0.98576,2023,6,12,11,11,13,678
1.98350,2.85250,-4.60250,0.00000,0.00537,0.04343,-0.98576,2023,6,12,11,11,13,689
1.98360,2.92250,-4.49750,0.00000,0.00476,0.04355,-0.98613,2023,6,12,11,11,13,700
1.98370,2.80000,-4.69000,0.00000,0.00561,0.04429,-0.98491,2023,6,12,11,11,13,711
1.98380,3.08000,-4.69000,0.00000,0.00561,0.04319,-0.98783,2023,6,12,11,11,13,722
1.98390,3.01000,-4.62000,0.00000,0.00366,0.04355,-0.98820,2023,6,12,11,11,13,733
1.98400,3.01000,-4.65500,0.00000,0.00573,0.04282,-0.98503,2023,6,12,11,11,13,745
1.98410,2.99250,-4.55000,0.00000,0.00244,0.04014,-0.98759,2023,6,12,11,11,13,756
1.98420,2.92250,-4.65500,0.00000,0.00403,0.04429,-0.98857,2023,6,12,11,11,13,767
1.98430,2.81750,-4.58500,0.00000,0.00610,0.04270,-0.98820,2023,6,12,11,11,13,778
1.98440,2.76500,-4.76000,0.00000,0.00573,0.04380,-0.98600,2023,6,12,11,11,13,789
1.98450,3.01000,-4.48000,0.00000,0.00329,0.04063,-0.98661,2023,6,12,11,11,13,800
1.98460,2.94000,-4.48000,0.00000,0.00390,0.04343,-0.98893,2023,6,12,11,11,13,811
1.98470,2.78250,-4.58500,0.00000,0.00573,0.04319,-0.98686,2023,6,12,11,11,13,822
1.98480,2.88750,-4.56750,0.00000,0.00390,0.04270,-0.98796,2023,6,12,11,11,13,833
1.98490,2.92250,-4.62000,0.00000,0.00342,0.04246,-0.98783,2023,6,12,11,11,13,845
1.98500,3.02750,-4.62000,0.00000,0.00378,0.04538,-0.98747,2023,6,12,11,11,13,856
1.98510,2.90500,-4.63750,0.00000,0.00500,0.04404,-0.98747,2023,6,12,11,11,13,867
1.98520,3.01000,-4.46250,0.00000,0.00659,0.04319,-0.98661,2023,6,12,11,11,13,878
1.98530,2.88750,-4.69000,0.00000,0.00708,0.04404,-0.98759,2023,6,12,11,11,13,889
1.98540,3.06250,-4.60250,0.00000,0.00720,0.04282,-0.98466,2023,6,12,11,11,13,900
1.98550,3.16750,-4.67250,0.00000,0.00695,0.04233,-0.98552,2023,6,12,11,11,13,911
1.98560,2.83500,-4.58500,0.00000,0.00610,0.04416,-0.98783,2023,6,12,11,11,13,922
1.98570,2.90500,-4.58500,0.00000,0.00415,0.04050,-0.98905,2023,6,12,11,11,13,933
1.98580,3.04500,-4.53250,0.00000,0.00720,0.04612,-0.98503,2023,6,12,11,11,13,945
1.98590,3.04500,-4.67250,0.00000,0.00561,0.04465,-0.98674,2023,6,12,11,11,13,956
1.98600,2.92250,-4.51500,0.00000,0.00207,0.04526,-0.98759,2023,6,12,11,11,14,7
1.98610,3.01000,-4.74250,0.00000,0.00573,0.04404,-0.98686,2023,6,12,11,11,14,18
1.98620,2.85250,-4.48000,0.00000,0.00488,0.04490,-0.98820,2023,6,12,11,11,14,29
1.98630,3.01000,-4.37500,0.00000,0.00549,0.04331,-0.98735,2023,6,12,11,11,14,40
1.98640,2.92250,-4.53250,0.00000,0.00512,0.04172,-0.98478,2023,6,12,11,11,14,51
1.98650,2.83500,-4.81250,0.00000,0.00366,0.04233,-0.98637,2023,6,12,11,11,14,62
1.98660,3.02750,-4.67250,0.00000,0.00549,0.04124,-0.98649,2023,6,12,11,11,14,73
1.98670,3.01000,-4.48000,0.00000,0.00439,0.04514,-0.98613,2023,6,12,11,11,14,85
1.98680,2.99250,-4.60250,0.00000,0.00537,0.04612,-0.98783,2023,6,12,11,11,14,96
1.98690,3.04500,-4.56750,0.00000,0.00805,0.04258,-0.98918,2023,6,12,11,11,14,107
1.98700,3.09750,-4.74250,0.00000,0.00488,0.04246,-0.98710,2023,6,12,11,11,14,118
1.98710,2.83500,-4.46250,0.00000,0.00342,0.04270,-0.98539,2023,6,12,11,11,14,129
1.98720,2.94000,-4.32250,0.00000,0.00439,0.04404,-0.99040,2023,6,12,11,11,14,140
1.98730,2.94000,-4.70750,0.00000,0.00610,0.04294,-0.98637,2023,6,12,11,11,14,151
1.98740,3.01000,-4.72500,0.00000,0.00610,0.04429,-0.98771,2023,6,12,11,11,14,162
1.98750,2.90500,-4.56750,0.00000,0.00500,0.04368,-0.98735,2023,6,12,11,11,14,173
1.98760,2.90500,-4.25250,0.00000,0.00415,0.04319,-0.98686,2023,6,12,11,11,14,185
1.98770,2.83500,-4.84750,0.00000,0.00390,0.04502,-0.98869,2023,6,12,11,11,14,196
1.98780,2.94000,-4.74250,0.00000,0.00390,0.04124,-0.98527,2023,6,12,11,11,14,207
1.98790,2.94000,-4.51500,0.00000,0.00586,0.04246,-0.98820,2023,6,12,11,11,14,218
1.98800,2.92250,-4.84750,0.00000,0.00512,0.04282,-0.98539,2023,6,12,11,11,14,229
1.98810,2.94000,-4.88250,0.00000,0.00317,0.04307,-0.98539,2023,6,12,11,11,14,240
1.98820,2.97500,-4.62000,0.00000,0.00561,0.04246,-0.98930,2023,6,12,11,11,14,251
1.98830,2.88750,-4.55000,0.00000,0.00647,0.04502,-0.98991,2023,6,12,11,11,14,262
1.98840,2.87000,-4.55000,0.00000,0.00439,0.04319,-0.98930,2023,6,12,11,11,14,273
1.98850,2.94000,-4.67250,0.00000,0.00220,0.04331,-0.98771,2023,6,12,11,11,14,285
1.98860,2.90500,-4.46250,0.00000,0.00439,0.04404,-0.98686,2023,6,12,11,11,14,296
1.98870,2.71250,-4.46250,0.00000,0.00586,0.04514,-0.98430,2023,6,12,11,11,14,307
1.98880,2.88750,-4.60250,0.00000,0.00317,0.04343,-0.98783,2023,6,12,11,11,14,318
1.98890,2.85250,-4.72500,0.00000,0.00439,0.04319,-0.98661,2023,6,12,11,11,14,329
1.98900,2.90500,-4.53250,0.00000,0.00329,0.04368,-0.98796,2023,6,12,11,11,14,340
1.98910,2.81750,-4.65500,0.00000,0.00598,0.04209,-0.98710,2023,6,12,11,11,14,351
1.98920,2.88750,-4.60250,0.00000,0.00159,0.04294,-0.98820,2023,6,12,11,11,14,362
1.98930,2.95750,-4.60250,0.00000,0.00378,0.04246,-0.98539,2023,6,12,11,11,14,373
1.98940,3.08000,-4.63750,0.00000,0.00512,0.04319,-0.98844,2023,6,12,11,11,14,385
1.98950,2.88750,-4.62000,0.00000,0.00464,0.04233,-0.98442,2023,6,12,11,11,14,396
1.98960,2.90500,-4.60250,0.00000,0.00525,0.04514,-0.98649,2023,6,12,11,11,14,407
1.98970,2.94000,-4.53250,0.00000,0.00488,0.04209,-0.98527,2023,6,12,11,11,14,418
1.98980,3.09750,-4.70750,0.00000,0.00415,0.04221,-0.98637,2023,6,12,11,11,14,429
1.98990,2.76500,-4.48000,0.00000,0.00500,0.04429,-0.99003,2023,6,12,11,11,14,440
1.99000,2.80000,-4.41000,0.00000,0.00586,0.04441,-0.98576,2023,6,12,11,11,14,451
1.99010,2.88750,-4.70750,0.00000,0.00549,0.04416,-0.98893,2023,6,12,11,11,14,462
1.99020,2.80000,-4.48000,0.00000,0.00586,0.04404,-0.98710,2023,6,12,11,11,14,473
1.99030,2.76500,-4.23500,0.00000,0.00500,0.04258,-0.98722,2023,6,12,11,11,14,485
1.99040,2.71250,-4.48000,0.00000,0.00329,0.04294,-0.98991,2023,6,12,11,11,14,496
1.99050,2.85250,-4.34000,0.00000,0.00439,0.04136,-0.98820,2023,6,12,11,11,14,507
1.99060,2.83500,-4.72500,0.00000,0.00488,0.04075,-0.98905,2023,6,12,11,11,14,518
1.99070,2.99250,-4.63750,0.00000,0.00451,0.04416,-0.98686,2023,6,12,11,11,14,529
1.99080,2.97500,-4.74250,0.00000,0.00537,0.04233,-0.98844,2023,6,12,11,11,14,540
1.99090,2.97500,-4.60250,0.00000,0.00512,0.04526,-0.98686,2023,6,12,11,11,14,551
1.99100,2.92250,-4.70750,0.00000,0.00573,0.04392,-0.98832,2023,6,12,11,11,14,562
1.99110,2.92250,-4.56750,0.00000,0.00525,0.04319,-0.98308,2023,6,12,11,11,14,573
1.99120,2.90500,-4.62000,0.00000,0.00598,0.04258,-0.98771,2023,6,12,11,11,14,585
1.99130,2.78250,-4.60250,0.00000,0.00488,0.04294,-0.98735,2023,6,12,11,11,14,596
1.99140,2.83500,-4.67250,0.00000,0.00354,0.04307,-0.98661,2023,6,12,11,11,14,607
1.99150,2.74750,-4.53250,0.00000,0.00354,0.04343,-0.98747,2023,6,12,11,11,14,618
1.99160,2.78250,-4.69000,0.00000,0.00464,0.04392,-0.98869,2023,6,12,11,11,14,629
1.99170,3.02750,-4.34000,0.00000,0.00500,0.04294,-0.98771,2023,6,12,11,11,14,640
1.99180,2.94000,-4.63750,0.00000,0.00354,0.04099,-0.98759,2023,6,12,11,11,14,651
1.99190,2.85250,-4.63750,0.00000,0.00464,0.04185,-0.98698,2023,6,12,11,11,14,662
1.99200,2.90500,-4.55000,0.00000,0.00537,0.04429,-0.98832,2023,6,12,11,11,14,673
1.99210,2.83500,-4.48000,0.00000,0.00647,0.04575,-0.98527,2023,6,12,11,11,14,685
1.99220,2.87000,-4.55000,0.00000,0.00329,0.04185,-0.99015,2023,6,12,11,11,14,696
1.99230,2.94000,-4.63750,0.00000,0.00561,0.04368,-0.98600,2023,6,12,11,11,14,707
1.99240,2.92250,-4.72500,0.00000,0.00695,0.04270,-0.98661,2023,6,12,11,11,14,718
1.99250,2.92250,-4.58500,0.00000,0.00561,0.04209,-0.99113,2023,6,12,11,11,14,729
1.99260,2.80000,-4.48000,0.00000,0.00500,0.04368,-0.98820,2023,6,12,11,11,14,740
1.99270,3.02750,-4.69000,0.00000,0.00329,0.04282,-0.98686,2023,6,12,11,11,14,751
1.99280,2.92250,-4.58500,0.00000,0.00317,0.04380,-0.98881,2023,6,12,11,11,14,762
1.99290,2.90500,-4.62000,0.00000,0.00500,0.04124,-0.98674,2023,6,12,11,11,14,773
1.99300,3.18500,-4.69000,0.00000,0.00634,0.04490,-0.98966,2023,6,12,11,11,14,785
1.99310,2.90500,-4.46250,0.00000,0.00415,0.04185,-0.98869,2023,6,12,11,11,14,796
1.99320,2.73000,-4.60250,0.00000,0.00512,0.04246,-0.98649,2023,6,12,11,11,14,807
1.99330,2.94000,-4.88250,0.00000,0.00512,0.04331,-0.98649,2023,6,12,11,11,14,818
1.99340,3.15000,-4.55000,0.00000,0.00500,0.04441,-0.98564,2023,6,12,11,11,14,829
1.99350,2.67750,-4.53250,0.00000,0.00488,0.04233,-0.98674,2023,6,12,11,11,14,840
1.99360,2.87000,-4.69000,0.00000,0.00439,0.04404,-0.98808,2023,6,12,11,11,14,851
1.99370,2.97500,-4.60250,0.00000,0.00525,0.04258,-0.98600,2023,6,12,11,11,14,862
1.99380,3.18500,-4.90000,0.00000,0.00512,0.04197,-0.98844,2023,6,12,11,11,14,873
1.99390,3.04500,-4.70750,0.00000,0.00622,0.04538,-0.98613,2023,6,12,11,11,14,885
1.99400,3.09750,-4.70750,0.00000,0.00451,0.04380,-0.98808,2023,6,12,11,11,14,896
1.99410,2.88750,-4.55000,0.00000,0.00427,0.04307,-0.98759,2023,6,12,11,11,14,907
1.99420,3.06250,-4.72500,0.00000,0.00439,0.04319,-0.98637,2023,6,12,11,11,14,918
1.99430,2.92250,-4.65500,0.00000,0.00451,0.04343,-0.98796,2023,6,12,11,11,14,929
1.99440,2.80000,-4.41000,0.00000,0.00317,0.04392,-0.98552,2023,6,12,11,11,14,940
1.99450,2.74750,-4.74250,0.00000,0.00464,0.04258,-0.98881,2023,6,12,11,11,14,951
1.99460,2.71250,-4.55000,0.00000,0.00451,0.04368,-0.98539,2023,6,12,11,11,14,962
1.99470,3.01000,-4.60250,0.00000,0.00598,0.04282,-0.98954,2023,6,12,11,11,15,3
1.99480,3.06250,-4.55000,0.00000,0.00317,0.04416,-0.99027,2023,6,12,11,11,15,15
1.99490,2.90500,-4.37500,0.00000,0.00317,0.04453,-0.98820,2023,6,12,11,11,15,26
1.99500,3.06250,-4.62000,0.00000,0.00329,0.04221,-0.98735,2023,6,12,11,11,15,37
1.99510,3.01000,-4.53250,0.00000,0.00573,0.04246,-0.98649,2023,6,12,11,11,15,48
1.99520,2.92250,-4.72500,0.00000,0.00732,0.04185,-0.98393,2023,6,12,11,11,15,59
1.99530,3.04500,-4.88250,0.00000,0.00451,0.04258,-0.98820,2023,6,12,11,11,15,70
1.99540,2.83500,-4.48000,0.00000,0.00512,0.04551,-0.98881,2023,6,12,11,11,15,81
1.99550,2.87000,-4.46250,0.00000,0.00403,0.04294,-0.98881,2023,6,12,11,11,15,92
1.99560,2.85250,-4.46250,0.00000,0.00451,0.04453,-0.98600,2023,6,12,11,11,15,103
1.99570,2.80000,-4.41000,0.00000,0.00586,0.04307,-0.98698,2023,6,12,11,11,15,115
1.99580,2.92250,-4.60250,0.00000,0.00354,0.04355,-0.98771,2023,6,12,11,11,15,126
1.99590,2.97500,-4.58500,0.00000,0.00427,0.04136,-0.98722,2023,6,12,11,11,15,137
1.99600,3.01000,-4.51500,0.00000,0.00366,0.04368,-0.99088,2023,6,12,11,11,15,148
1.99610,2.81750,-4.30500,0.00000,0.00415,0.04526,-0.98613,2023,6,12,11,11,15,159
1.99620,2.97500,-4.70750,0.00000,0.00525,0.04148,-0.98783,2023,6,12,11,11,15,170
1.99630,3.06250,-4.62000,0.00000,0.00537,0.04172,-0.98674,2023,6,12,11,11,15,181
1.99640,2.88750,-4.34000,0.00000,0.00366,0.04368,-0.98735,2023,6,12,11,11,15,192
1.99650,2.85250,-4.34000,0.00000,0.00451,0.04111,-0.98710,2023,6,12,11,11,15,203
1.99660,2.90500,-4.69000,0.00000,0.00476,0.04160,-0.98625,2023,6,12,11,11,15,215
1.99670,3.01000,-4.63750,0.00000,0.00476,0.04441,-0.99052,2023,6,12,11,11,15,226
1.99680,2.95750,-4.69000,0.00000,0.00622,0.04502,-0.98637,2023,6,12,11,11,15,237
1.99690,2.81750,-4.35750,0.00000,0.00732,0.04148,-0.98588,2023,6,12,11,11,15,248
1.99700,2.83500,-4.44500,0.00000,0.00598,0.04331,-0.98588,2023,6,12,11,11,15,259
1.99710,3.02750,-4.69000,0.00000,0.00403,0.04221,-0.98905,2023,6,12,11,11,15,270
1.99720,3.13250,-4.65500,0.00000,0.00232,0.04331,-0.98857,2023,6,12,11,11,15,281
1.99730,2.99250,-4.88250,0.00000,0.00634,0.04233,-0.98783,2023,6,12,11,11,15,292
1.99740,2.81750,-4.70750,0.00000,0.00451,0.04246,-0.98759,2023,6,12,11,11,15,303
1.99750,2.94000,-4.62000,0.00000,0.00512,0.04319,-0.98783,2023,6,12,11,11,15,315
1.99760,3.09750,-4.56750,0.00000,0.00525,0.04343,-0.98478,2023,6,12,11,11,15,326
1.99770,3.01000,-4.51500,0.00000,0.00354,0.04490,-0.98832,2023,6,12,11,11,15,337
1.99780,2.99250,-4.58500,0.00000,0.00378,0.04233,-0.98735,2023,6,12,11,11,15,348
1.99790,2.88750,-4.60250,0.00000,0.00488,0.04258,-0.98881,2023,6,12,11,11,15,359
1.99800,2.87000,-4.49750,0.00000,0.00451,0.04343,-0.98308,2023,6,12,11,11,15,370
1.99810,3.02750,-4.76000,0.00000,0.00476,0.04258,-0.98783,2023,6,12,11,11,15,381
1.99820,3.01000,-4.49750,0.00000,0.00476,0.03953,-0.98649,2023,6,12,11,11,15,392
1.99830,2.83500,-4.55000,0.00000,0.00659,0.04197,-0.98527,2023,6,12,11,11,15,403
1.99840,2.97500,-4.69000,0.00000,0.00390,0.04355,-0.98600,2023,6,12,11,11,15,415
1.99850,2.73000,-4.69000,0.00000,0.00244,0.04185,-0.98576,2023,6,12,11,11,15,426
1.99860,2.99250,-4.69000,0.00000,0.00476,0.04246,-0.98686,2023,6,12,11,11,15,437
1.99870,2.88750,-4.67250,0.00000,0.00573,0.04246,-0.98857,2023,6,12,11,11,15,448
1.99880,2.90500,-4.44500,0.00000,0.00464,0.04319,-0.98710,2023,6,12,11,11,15,459
1.99890,2.76500,-4.62000,0.00000,0.00537,0.04343,-0.98613,2023,6,12,11,11,15,470
1.99900,3.11500,-4.70750,0.00000,0.00415,0.04319,-0.98637,2023,6,12,11,11,15,481
1.99910,2.90500,-4.81250,0.00000,0.00659,0.04331,-0.98478,2023,6,12,11,11,15,492
1.99920,2.87000,-4.42750,0.00000,0.00549,0.04368,-0.98576,2023,6,12,11,11,15,503
1.99930,2.88750,-4.39250,0.00000,0.00439,0.04172,-0.98820,2023,6,12,11,11,15,515
1.99940,2.85250,-4.42750,0.00000,0.00183,0.04307,-0.98735,2023,6,12,11,11,15,526
1.99950,3.02750,-4.63750,0.00000,0.00464,0.04294,-0.98844,2023,6,12,11,11,15,537
1.99960,2.76500,-4.34000,0.00000,0.00464,0.04294,-0.98759,2023,6,12,11,11,15,548
1.99970,2.94000,-4.58500,0.00000,0.00476,0.04294,-0.98966,2023,6,12,11,11,15,559
1.99980,2.83500,-4.42750,0.00000,0.00439,0.04441,-0.98844,2023,6,12,11,11,15,570
1.99990,2.90500,-4.48000,0.00000,0.00683,0.04648,-0.99003,2023,6,12,11,11,15,581
2.00000,2.87000,-4.42750,0.00000,0.00744,0.04209,-0.98649,2023,6,12,11,11,15,592
2.00010,2.94000,-4.58500,0.00000,0.00232,0.04343,-0.98832,2023,6,12,11,11,15,603
2.00020,3.02750,-4.42750,0.00000,0.00439,0.04038,-0.98832,2023,6,12,11,11,15,615
2.00030,2.94000,-4.51500,0.00000,0.00403,0.04270,-0.98454,2023,6,12,11,11,15,626
2.00040,2.97500,-4.60250,0.00000,0.00329,0.04270,-0.98539,2023,6,12,11,11,15,637
2.00050,2.92250,-4.55000,0.00000,0.00488,0.04258,-0.98661,2023,6,12,11,11,15,648
2.00060,3.01000,-4.77750,0.00000,0.00464,0.04331,-0.98576,2023,6,12,11,11,15,659
2.00070,2.87000,-4.32250,0.00000,0.00537,0.04197,-0.98832,2023,6,12,11,11,15,670
2.00080,2.92250,-4.69000,0.00000,0.00439,0.04258,-0.98808,2023,6,12,11,11,15,681
2.00090,2.81750,-4.60250,0.00000,0.00378,0.04258,-0.98808,2023,6,12,11,11,15,692
2.00100,2.81750,-4.56750,0.00000,0.00403,0.04404,-0.98796,2023,6,12,11,11,15,703
2.00110,2.76500,-4.58500,0.00000,0.00378,0.04148,-0.98613,2023,6,12,11,11,15,715
2.00120,2.76500,-4.70750,0.00000,0.00464,0.04294,-0.98771,2023,6,12,11,11,15,726
2.00130,2.94000,-4.49750,0.00000,0.00500,0.04380,-0.98539,2023,6,12,11,11,15,737
2.00140,3.16750,-4.86500,0.00000,0.00525,0.04099,-0.98637,2023,6,12,11,11,15,748
2.00150,2.88750,-4.42750,0.00000,0.00329,0.04355,-0.98844,2023,6,12,11,11,15,759
2.00160,2.95750,-4.39250,0.00000,0.00549,0.04246,-0.98686,2023,6,12,11,11,15,770
2.00170,2.94000,-4.63750,0.00000,0.00439,0.04185,-0.98674,2023,6,12,11,11,15,781
2.00180,2.92250,-4.53250,0.00000,0.00354,0.04343,-0.98552,2023,6,12,11,11,15,792
2.00190,2.99250,-4.63750,0.00000,0.00476,0.04355,-0.98588,2023,6,12,11,11,15,803
2.00200,2.81750,-4.65500,0.00000,0.00512,0.04294,-0.98832,2023,6,12,11,11,15,815
2.00210,2.87000,-4.72500,0.00000,0.00586,0.04209,-0.98527,2023,6,12,11,11,15,826
2.00220,2.95750,-4.58500,0.00000,0.00756,0.04124,-0.98625,2023,6,12,11,11,15,837
2.00230,3.09750,-4.70750,0.00000,0.00525,0.04514,-0.98808,2023,6,12,11,11,15,848
2.00240,2.92250,-4.58500,0.00000,0.00586,0.04416,-0.98600,2023,6,12,11,11,15,859
2.00250,3.11500,-4.69000,0.00000,0.00378,0.04209,-0.98771,2023,6,12,11,11,15,870
2.00260,2.97500,-4.58500,0.00000,0.00464,0.04331,-0.98881,2023,6,12,11,11,15,881
2.00270,2.85250,-4.60250,0.00000,0.00488,0.04282,-0.98613,2023,6,12,11,11,15,892
2.00280,2.83500,-4.53250,0.00000,0.00354,0.04258,-0.98930,2023,6,12,11,11,15,903
2.00290,2.95750,-4.44500,0.00000,0.00439,0.04502,-0.99052,2023,6,12,11,11,15,915
2.00300,2.97500,-4.55000,0.00000,0.00439,0.04465,-0.98747,2023,6,12,11,11,15,926
2.00310,2.97500,-4.51500,0.00000,0.00293,0.04441,-0.98686,2023,6,12,11,11,15,937
2.00320,2.88750,-4.65500,0.00000,0.00354,0.04380,-0.98844,2023,6,12,11,11,15,948
2.00330,3.02750,-4.55000,0.00000,0.00390,0.04380,-0.98515,2023,6,12,11,11,15,959
2.00340,2.99250,-4.65500,0.00000,0.00329,0.04233,-0.98625,2023,6,12,11,11,15,970
2.00350,2.88750,-4.63750,0.00000,0.00317,0.04404,-0.98942,2023,6,12,11,11,15,981
2.00360,2.97500,-4.60250,0.00000,0.00573,0.04331,-0.98686,2023,6,12,11,11,15,992
2.00370,2.94000,-4.69000,0.00000,0.00586,0.04246,-0.98600,2023,6,12,11,11,16,3
2.00380,2.83500,-4.32250,0.00000,0.00415,0.04124,-0.98491,2023,6,12,11,11,16,15
2.00390,2.95750,-4.62000,0.00000,0.00451,0.04185,-0.98698,2023,6,12,11,11,16,26
2.00400,2.95750,-4.41000,0.00000,0.00268,0.04233,-0.98588,2023,6,12,11,11,16,37
2.00410,2.85250,-4.41000,0.00000,0.00317,0.04368,-0.98979,2023,6,12,11,11,16,48
2.00420,2.85250,-4.60250,0.00000,0.00439,0.04209,-0.98515,2023,6,12,11,11,16,59
2.00430,2.69500,-4.65500,0.00000,0.00549,0.04429,-0.98600,2023,6,12,11,11,16,70
2.00440,2.76500,-4.55000,0.00000,0.00415,0.04063,-0.98783,2023,6,12,11,11,16,81
2.00450,3.08000,-4.48000,0.00000,0.00549,0.04258,-0.98613,2023,6,12,11,11,16,92
2.00460,2.81750,-4.53250,0.00000,0.00415,0.04270,-0.98649,2023,6,12,11,11,16,103
2.00470,3.01000,-4.39250,0.00000,0.00549,0.04221,-0.98820,2023,6,12,11,11,16,115
2.00480,2.92250,-4.62000,0.00000,0.00525,0.04355,-0.99015,2023,6,12,11,11,16,126
2.00490,2.99250,-4.56750,0.00000,0.00561,0.04404,-0.98698,2023,6,12,11,11,16,137
2.00500,2.94000,-4.49750,0.00000,0.00403,0.04282,-0.98857,2023,6,12,11,11,16,148
2.00510,2.94000,-4.58500,0.00000,0.00537,0.04368,-0.98722,2023,6,12,11,11,16,159
2.00520,2.85250,-4.63750,0.00000,0.00476,0.04380,-0.98881,2023,6,12,11,11,16,170
2.00530,2.95750,-4.67250,0.00000,0.00573,0.04282,-0.98564,2023,6,12,11,11,16,181
2.00540,3.04500,-4.91750,0.00000,0.00488,0.04294,-0.98698,2023,6,12,11,11,16,192
2.00550,3.01000,-4.63750,0.00000,0.00512,0.04380,-0.98771,2023,6,12,11,11,16,203
2.00560,3.09750,-4.84750,0.00000,0.00464,0.04246,-0.98698,2023,6,12,11,11,16,215
2.00570,2.83500,-4.65500,0.00000,0.00720,0.04270,-0.98503,2023,6,12,11,11,16,226
2.00580,3.06250,-4.67250,0.00000,0.00500,0.04282,-0.98747,2023,6,12,11,11,16,237
2.00590,2.97500,-4.53250,0.00000,0.00268,0.04551,-0.98942,2023,6,12,11,11,16,248
2.00600,2.66000,-4.32250,0.00000,0.00561,0.04233,-0.98820,2023,6,12,11,11,16,259
2.00610,2.83500,-4.55000,0.00000,0.00354,0.04246,-0.98600,2023,6,12,11,11,16,270
2.00620,2.85250,-4.63750,0.00000,0.00427,0.04392,-0.98783,2023,6,12,11,11,16,281
2.00630,2.90500,-4.51500,0.00000,0.00634,0.04416,-0.98527,2023,6,12,11,11,16,292
2.00640,2.92250,-4.67250,0.00000,0.00525,0.04355,-0.98613,2023,6,12,11,11,16,303
2.00650,2.85250,-4.67250,0.00000,0.00573,0.04282,-0.98466,2023,6,12,11,11,16,315
2.00660,2.73000,-4.74250,0.00000,0.00464,0.04477,-0.98588,2023,6,12,11,11,16,326
2.00670,3.02750,-4.65500,0.00000,0.00488,0.04282,-0.98857,2023,6,12,11,11,16,337
2.00680,2.92250,-4.58500,0.00000,0.00500,0.04465,-0.98832,2023,6,12,11,11,16,348
2.00690,2.87000,-4.72500,0.00000,0.00537,0.04355,-0.98710,2023,6,12,11,11,16,359
2.00700,2.95750,-4.69000,0.00000,0.00476,0.04172,-0.98661,2023,6,12,11,11,16,370
2.00710,2.95750,-4.48000,0.00000,0.00366,0.04514,-0.98747,2023,6,12,11,11,16,381
2.00720,2.87000,-4.49750,0.00000,0.00488,0.04355,-0.98857,2023,6,12,11,11,16,392
2.00730,2.87000,-4.77750,0.00000,0.00573,0.04441,-0.98674,2023,6,12,11,11,16,403
2.00740,2.92250,-4.41000,0.00000,0.00647,0.04380,-0.98735,2023,6,12,11,11,16,415
2.00750,3.06250,-4.76000,0.00000,0.00634,0.04307,-0.98979,2023,6,12,11,11,16,426
2.00760,3.04500,-4.55000,0.00000,0.00427,0.04368,-0.98735,2023,6,12,11,11,16,437
2.00770,3.06250,-4.70750,0.00000,0.00598,0.04380,-0.98832,2023,6,12,11,11,16,448
2.00780,3.01000,-4.63750,0.00000,0.00549,0.04331,-0.98613,2023,6,12,11,11,16,459
2.00790,3.01000,-4.51500,0.00000,0.00378,0.04368,-0.98942,2023,6,12,11,11,16,470
2.00800,3.01000,-4.74250,0.00000,0.00415,0.04355,-0.98832,2023,6,12,11,11,16,481
2.00810,2.80000,-4.48000,0.00000,0.00415,0.04416,-0.98844,2023,6,12,11,11,16,492
2.00820,3.01000,-4.67250,0.00000,0.00464,0.04441,-0.98698,2023,6,12,11,11,16,503
2.00830,2.97500,-4.79500,0.00000,0.00549,0.04294,-0.98869,2023,6,12,11,11,16,515
2.00840,2.88750,-4.58500,0.00000,0.00537,0.04331,-0.98661,2023,6,12,11,11,16,526
2.00850,2.88750,-4.44500,0.00000,0.00439,0.04294,-0.98881,2023,6,12,11,11,16,537
2.00860,2.83500,-4.37500,0.00000,0.00342,0.04307,-0.98905,2023,6,12,11,11,16,548
2.00870,2.83500,-4.60250,0.00000,0.00500,0.04282,-0.98869,2023,6,12,11,11,16,559
2.00880,2.85250,-4.58500,0.00000,0.00549,0.04441,-0.98759,2023,6,12,11,11,16,570
2.00890,2.87000,-4.42750,0.00000,0.00586,0.04331,-0.98844,2023,6,12,11,11,16,581
2.00900,2.90500,-4.51500,0.00000,0.00634,0.04416,-0.99076,2023,6,12,11,11,16,592
2.00910,2.90500,-4.56750,0.00000,0.00403,0.04538,-0.98808,2023,6,12,11,11,16,603
2.00920,2.81750,-4.62000,0.00000,0.00366,0.04172,-0.98844,2023,6,12,11,11,16,615
2.00930,2.92250,-4.41000,0.00000,0.00378,0.04185,-0.98735,2023,6,12,11,11,16,626
2.00940,2.83500,-4.55000,0.00000,0.00561,0.04453,-0.98503,2023,6,12,11,11,16,637
2.00950,2.80000,-4.76000,0.00000,0.00354,0.04355,-0.98600,2023,6,12,11,11,16,648
2.00960,2.83500,-4.51500,0.00000,0.00415,0.04331,-0.98649,2023,6,12,11,11,16,659
2.00970,2.95750,-4.76000,0.00000,0.00439,0.04465,-0.98808,2023,6,12,11,11,16,670
2.00980,2.97500,-4.53250,0.00000,0.00342,0.04429,-0.98832,2023,6,12,11,11,16,681
2.00990,3.18500,-4.70750,0.00000,0.00537,0.04429,-0.99088,2023,6,12,11,11,16,692
2.01000,2.88750,-4.67250,0.00000,0.00305,0.04221,-0.98698,2023,6,12,11,11,16,703
2.01010,3.09750,-4.70750,0.00000,0.00427,0.04355,-0.98625,2023,6,12,11,11,16,715
2.01020,3.06250,-4.60250,0.00000,0.00586,0.04209,-0.98857,2023,6,12,11,11,16,726
2.01030,2.95750,-4.70750,0.00000,0.00476,0.04429,-0.98588,2023,6,12,11,11,16,737
2.01040,3.02750,-4.53250,0.00000,0.00598,0.04453,-0.98759,2023,6,12,11,11,16,748
2.01050,2.88750,-4.55000,0.00000,0.00427,0.04368,-0.98735,2023,6,12,11,11,16,759
2.01060,2.97500,-4.67250,0.00000,0.00671,0.04294,-0.98869,2023,6,12,11,11,16,770
2.01070,2.76500,-4.51500,0.00000,0.00403,0.04209,-0.98478,2023,6,12,11,11,16,781
2.01080,3.04500,-4.79500,0.00000,0.00549,0.04380,-0.98869,2023,6,12,11,11,16,792
2.01090,2.92250,-4.72500,0.00000,0.00342,0.04416,-0.98796,2023,6,12,11,11,16,803
2.01100,2.76500,-4.58500,0.00000,0.00525,0.04233,-0.98442,2023,6,12,11,11,16,815
2.01110,2.80000,-4.46250,0.00000,0.00415,0.04160,-0.98613,2023,6,12,11,11,16,826
2.01120,2.95750,-4.58500,0.00000,0.00476,0.04331,-0.98503,2023,6,12,11,11,16,837
2.01130,2.92250,-4.55000,0.00000,0.00159,0.04197,-0.98588,2023,6,12,11,11,16,848
2.01140,3.08000,-4.67250,0.00000,0.00439,0.04307,-0.98722,2023,6,12,11,11,16,859
2.01150,3.01000,-4.76000,0.00000,0.00427,0.04319,-0.98832,2023,6,12,11,11,16,870
2.01160,3.13250,-4.56750,0.00000,0.00403,0.04233,-0.98503,2023,6,12,11,11,16,881
2.01170,3.01000,-4.48000,0.00000,0.00586,0.04185,-0.98759,2023,6,12,11,11,16,892
2.01180,2.90500,-4.56750,0.00000,0.00610,0.04282,-0.98344,2023,6,12,11,11,16,903
2.01190,3.02750,-4.37500,0.00000,0.00305,0.04063,-0.98698,2023,6,12,11,11,16,915
2.01200,3.11500,-4.63750,0.00000,0.00561,0.04331,-0.99052,2023,6,12,11,11,16,926
2.01210,2.95750,-4.53250,0.00000,0.00476,0.04380,-0.98576,2023,6,12,11,11,16,937
2.01220,3.01000,-4.62000,0.00000,0.00439,0.04282,-0.98857,2023,6,12,11,11,16,948
2.01230,2.88750,-4.44500,0.00000,0.00354,0.04429,-0.98552,2023,6,12,11,11,16,959
2.01240,2.97500,-4.53250,0.00000,0.00305,0.04514,-0.98796,2023,6,12,11,11,16,970
2.01250,2.80000,-4.67250,0.00000,0.00451,0.04258,-0.98576,2023,6,12,11,11,17,1
2.01260,2.80000,-4.51500,0.00000,0.00342,0.04368,-0.98515,2023,6,12,11,11,17,12
2.01270,2.80000,-4.44500,0.00000,0.00317,0.04307,-0.98881,2023,6,12,11,11,17,23
2.01280,2.69500,-4.55000,0.00000,0.00403,0.04233,-0.98564,2023,6,12,11,11,17,35
2.01290,2.87000,-4.35750,0.00000,0.00537,0.04270,-0.98552,2023,6,12,11,11,17,46
2.01300,2.99250,-4.55000,0.00000,0.00488,0.04197,-0.98478,2023,6,12,11,11,17,57
2.01310,3.04500,-4.58500,0.00000,0.00476,0.04575,-0.98832,2023,6,12,11,11,17,68
2.01320,2.94000,-4.46250,0.00000,0.00305,0.04307,-0.98832,2023,6,12,11,11,17,79
2.01330,3.04500,-4.53250,0.00000,0.00390,0.04136,-0.98796,2023,6,12,11,11,17,90
2.01340,3.02750,-4.51500,0.00000,0.00708,0.04538,-0.98735,2023,6,12,11,11,17,101
2.01350,2.76500,-4.51500,0.00000,0.00647,0.04673,-0.98991,2023,6,12,11,11,17,112
2.01360,3.04500,-4.63750,0.00000,0.00329,0.04307,-0.99137,2023,6,12,11,11,17,123
2.01370,2.88750,-4.56750,0.00000,0.00500,0.04246,-0.98515,2023,6,12,11,11,17,135
2.01380,2.90500,-4.63750,0.00000,0.00317,0.04197,-0.98796,2023,6,12,11,11,17,146
2.01390,3.06250,-4.51500,0.00000,0.00647,0.04429,-0.98442,2023,6,12,11,11,17,157
2.01400,2.94000,-4.67250,0.00000,0.00342,0.04233,-0.98430,2023,6,12,11,11,17,168
2.01410,2.81750,-4.49750,0.00000,0.00378,0.04185,-0.98783,2023,6,12,11,11,17,179
2.01420,2.81750,-4.60250,0.00000,0.00366,0.04294,-0.99064,2023,6,12,11,11,17,190
2.01430,2.88750,-4.37500,0.00000,0.00464,0.04307,-0.98674,2023,6,12,11,11,17,201
2.01440,2.90500,-4.72500,0.00000,0.00525,0.04331,-0.98881,2023,6,12,11,11,17,212
2.01450,2.94000,-4.77750,0.00000,0.00610,0.04246,-0.98881,2023,6,12,11,11,17,223
2.01460,2.99250,-4.56750,0.00000,0.00561,0.04246,-0.99076,2023,6,12,11,11,17,235
2.01470,2.88750,-4.60250,0.00000,0.00561,0.04319,-0.98722,2023,6,12,11,11,17,246
2.01480,2.88750,-4.65500,0.00000,0.00525,0.04343,-0.98808,2023,6,12,11,11,17,257
2.01490,3.15000,-4.67250,0.00000,0.00549,0.04575,-0.98820,2023,6,12,11,11,17,268
2.01500,3.02750,-4.83000,0.00000,0.00451,0.04319,-0.98491,2023,6,12,11,11,17,279
2.01510,2.95750,-4.62000,0.00000,0.00390,0.04380,-0.98649,2023,6,12,11,11,17,290
2.01520,2.88750,-4.81250,0.00000,0.00476,0.04307,-0.98820,2023,6,12,11,11,17,301
2.01530,2.92250,-4.67250,0.00000,0.00488,0.04319,-0.98966,2023,6,12,11,11,17,312
2.01540,3.01000,-4.62000,0.00000,0.00366,0.04087,-0.98625,2023,6,12,11,11,17,323
2.01550,2.92250,-4.49750,0.00000,0.00659,0.04453,-0.98527,2023,6,12,11,11,17,335
2.01560,2.83500,-4.55000,0.00000,0.00573,0.04087,-0.98661,2023,6,12,11,11,17,346
2.01570,2.92250,-4.60250,0.00000,0.00659,0.04136,-0.98747,2023,6,12,11,11,17,357
2.01580,2.92250,-4.53250,0.00000,0.00342,0.04307,-0.98637,2023,6,12,11,11,17,368
2.01590,3.06250,-4.53250,0.00000,0.00622,0.04331,-0.98661,2023,6,12,11,11,17,379
2.01600,2.90500,-4.58500,0.00000,0.00537,0.04514,-0.98869,2023,6,12,11,11,17,390
2.01610,2.92250,-4.56750,0.00000,0.00329,0.04307,-0.98832,2023,6,12,11,11,17,401
2.01620,2.97500,-4.63750,0.00000,0.00390,0.04233,-0.98857,2023,6,12,11,11,17,412
2.01630,2.95750,-4.62000,0.00000,0.00512,0.04160,-0.98722,2023,6,12,11,11,17,423
2.01640,2.94000,-4.81250,0.00000,0.00537,0.04294,-0.98369,2023,6,12,11,11,17,435
2.01650,2.80000,-4.55000,0.00000,0.00439,0.04490,-0.98808,2023,6,12,11,11,17,446
2.01660,2.76500,-4.53250,0.00000,0.00427,0.04258,-0.98576,2023,6,12,11,11,17,457
2.01670,2.92250,-4.58500,0.00000,0.00415,0.04380,-0.98527,2023,6,12,11,11,17,468
2.01680,2.87000,-4.58500,0.00000,0.00451,0.04416,-0.98417,2023,6,12,11,11,17,479
2.01690,2.94000,-4.27000,0.00000,0.00561,0.04441,-0.98661,2023,6,12,11,11,17,490
2.01700,3.01000,-4.69000,0.00000,0.00634,0.04514,-0.98637,2023,6,12,11,11,17,501
2.01710,2.95750,-4.53250,0.00000,0.00525,0.04319,-0.98588,2023,6,12,11,11,17,512
2.01720,2.97500,-4.72500,0.00000,0.00281,0.04233,-0.98637,2023,6,12,11,11,17,523
2.01730,3.06250,-4.60250,0.00000,0.00281,0.04380,-0.98613,2023,6,12,11,11,17,535
2.01740,2.74750,-4.60250,0.00000,0.00427,0.04331,-0.98661,2023,6,12,11,11,17,546
2.01750,2.81750,-4.65500,0.00000,0.00683,0.04343,-0.98954,2023,6,12,11,11,17,557
2.01760,2.92250,-4.58500,0.00000,0.00415,0.04233,-0.98832,2023,6,12,11,11,17,568
2.01770,3.09750,-4.60250,0.00000,0.00366,0.04111,-0.98966,2023,6,12,11,11,17,579
2.01780,2.92250,-4.60250,0.00000,0.00305,0.04172,-0.98808,2023,6,12,11,11,17,590
2.01790,2.85250,-4.63750,0.00000,0.00634,0.04233,-0.98832,2023,6,12,11,11,17,601
2.01800,3.09750,-4.62000,0.00000,0.00378,0.04404,-0.98661,2023,6,12,11,11,17,612
2.01810,3.08000,-4.63750,0.00000,0.00488,0.04026,-0.98771,2023,6,12,11,11,17,623
2.01820,3.06250,-4.42750,0.00000,0.00427,0.04416,-0.98649,2023,6,12,11,11,17,635
2.01830,3.02750,-4.58500,0.00000,0.00500,0.04355,-0.98844,2023,6,12,11,11,17,646
2.01840,2.85250,-4.49750,0.00000,0.00451,0.04197,-0.98710,2023,6,12,11,11,17,657
2.01850,3.11500,-4.65500,0.00000,0.00390,0.04233,-0.98686,2023,6,12,11,11,17,668
2.01860,2.92250,-4.35750,0.00000,0.00366,0.04538,-0.98735,2023,6,12,11,11,17,679
2.01870,2.83500,-4.60250,0.00000,0.00586,0.04380,-0.98466,2023,6,12,11,11,17,690
2.01880,2.85250,-4.58500,0.00000,0.00561,0.04185,-0.98576,2023,6,12,11,11,17,701
2.01890,2.90500,-4.46250,0.00000,0.00573,0.04502,-0.98820,2023,6,12,11,11,17,712
2.01900,2.90500,-4.60250,0.00000,0.00403,0.04136,-0.98832,2023,6,12,11,11,17,723
2.01910,2.94000,-4.79500,0.00000,0.00525,0.04294,-0.98820,2023,6,12,11,11,17,735
2.01920,2.90500,-4.48000,0.00000,0.00183,0.04172,-0.98796,2023,6,12,11,11,17,746
2.01930,3.02750,-4.55000,0.00000,0.00293,0.04209,-0.98600,2023,6,12,11,11,17,757
2.01940,2.78250,-4.51500,0.00000,0.00427,0.04441,-0.98637,2023,6,12,11,11,17,768
2.01950,2.90500,-4.60250,0.00000,0.00354,0.04368,-0.98759,2023,6,12,11,11,17,779
2.01960,2.97500,-4.60250,0.00000,0.00439,0.04307,-0.98759,2023,6,12,11,11,17,790
2.01970,2.97500,-4.60250,0.00000,0.00634,0.04294,-0.98674,2023,6,12,11,11,17,801
2.01980,2.95750,-4.53250,0.00000,0.00744,0.04416,-0.98783,2023,6,12,11,11,17,812
2.01990,3.02750,-4.56750,0.00000,0.00439,0.04331,-0.98466,2023,6,12,11,11,17,823
2.02000,3.04500,-4.48000,0.00000,0.00488,0.04404,-0.98820,2023,6,12,11,11,17,835
2.02010,3.06250,-4.51500,0.00000,0.00512,0.04136,-0.98442,2023,6,12,11,11,17,846
2.02020,2.92250,-4.58500,0.00000,0.00464,0.04087,-0.98552,2023,6,12,11,11,17,857
2.02030,2.92250,-4.76000,0.00000,0.00586,0.04355,-0.99101,2023,6,12,11,11,17,868
2.02040,2.95750,-4.76000,0.00000,0.00622,0.04197,-0.98930,2023,6,12,11,11,17,879
2.02050,2.97500,-4.44500,0.00000,0.00427,0.04282,-0.98661,2023,6,12,11,11,17,890
2.02060,2.92250,-4.79500,0.00000,0.00366,0.04258,-0.98796,2023,6,12,11,11,17,901
2.02070,2.99250,-4.67250,0.00000,0.00329,0.04343,-0.98722,2023,6,12,11,11,17,912
2.02080,3.04500,-4.55000,0.00000,0.00537,0.04368,-0.98576,2023,6,12,11,11,17,923
2.02090,3.01000,-4.56750,0.00000,0.00634,0.04258,-0.98722,2023,6,12,11,11,17,935
2.02100,2.83500,-4.49750,0.00000,0.00634,0.04404,-0.98686,2023,6,12,11,11,17,946
2.02110,2.92250,-4.34000,0.00000,0.00647,0.04331,-0.98674,2023,6,12,11,11,18,7
2.02120,2.87000,-4.60250,0.00000,0.00561,0.04246,-0.98344,2023,6,12,11,11,18,18
2.02130,2.88750,-4.48000,0.00000,0.00378,0.04258,-0.98698,2023,6,12,11,11,18,29
2.02140,2.90500,-4.42750,0.00000,0.00415,0.04331,-0.98832,2023,6,12,11,11,18,40
2.02150,2.81750,-4.55000,0.00000,0.00305,0.04258,-0.98686,2023,6,12,11,11,18,51
2.02160,2.97500,-4.70750,0.00000,0.00403,0.04429,-0.98649,2023,6,12,11,11,18,62
2.02170,3.02750,-4.70750,0.00000,0.00586,0.04282,-0.98783,2023,6,12,11,11,18,73
2.02180,2.85250,-4.55000,0.00000,0.00610,0.04453,-0.98710,2023,6,12,11,11,18,85
2.02190,2.83500,-4.53250,0.00000,0.00561,0.04368,-0.98539,2023,6,12,11,11,18,96
2.02200,2.87000,-4.60250,0.00000,0.00671,0.04124,-0.98491,2023,6,12,11,11,18,107
2.02210,3.01000,-4.53250,0.00000,0.00342,0.04246,-0.98576,2023,6,12,11,11,18,118
2.02220,2.95750,-4.53250,0.00000,0.00451,0.04319,-0.98905,2023,6,12,11,11,18,129
2.02230,3.06250,-4.51500,0.00000,0.00561,0.04465,-0.98674,2023,6,12,11,11,18,140
2.02240,2.92250,-4.56750,0.00000,0.00415,0.04368,-0.98576,2023,6,12,11,11,18,151
2.02250,2.88750,-4.42750,0.00000,0.00586,0.04258,-0.98686,2023,6,12,11,11,18,162
2.02260,3.06250,-4.63750,0.00000,0.00537,0.04319,-0.98430,2023,6,12,11,11,18,173
2.02270,2.90500,-4.70750,0.00000,0.00415,0.04319,-0.98613,2023,6,12,11,11,18,185
2.02280,2.92250,-4.56750,0.00000,0.00281,0.04514,-0.99357,2023,6,12,11,11,18,196
2.02290,3.04500,-4.67250,0.00000,0.00451,0.04368,-0.98857,2023,6,12,11,11,18,207
2.02300,2.88750,-4.51500,0.00000,0.00634,0.04343,-0.98698,2023,6,12,11,11,18,218
2.02310,2.83500,-4.39250,0.00000,0.00256,0.04294,-0.98661,2023,6,12,11,11,18,229
2.02320,2.90500,-4.63750,0.00000,0.00305,0.04148,-0.98588,2023,6,12,11,11,18,240
2.02330,2.92250,-4.56750,0.00000,0.00598,0.04233,-0.98625,2023,6,12,11,11,18,251
2.02340,2.97500,-4.65500,0.00000,0.00415,0.04380,-0.98625,2023,6,12,11,11,18,262
2.02350,2.95750,-4.69000,0.00000,0.00415,0.04514,-0.98881,2023,6,12,11,11,18,273
2.02360,3.04500,-4.62000,0.00000,0.00537,0.04233,-0.98600,2023,6,12,11,11,18,285
2.02370,2.88750,-4.74250,0.00000,0.00647,0.04355,-0.98905,2023,6,12,11,11,18,296
2.02380,2.94000,-4.55000,0.00000,0.00415,0.04307,-0.98527,2023,6,12,11,11,18,307
2.02390,2.95750,-4.44500,0.00000,0.00378,0.04319,-0.98832,2023,6,12,11,11,18,318
2.02400,2.94000,-4.46250,0.00000,0.00378,0.04136,-0.98747,2023,6,12,11,11,18,329
2.02410,2.99250,-4.39250,0.00000,0.00695,0.04429,-0.98600,2023,6,12,11,11,18,340
2.02420,2.92250,-4.49750,0.00000,0.00476,0.04246,-0.98503,2023,6,12,11,11,18,351
2.02430,2.95750,-4.55000,0.00000,0.00464,0.04124,-0.98271,2023,6,12,11,11,18,362
2.02440,2.95750,-4.65500,0.00000,0.00634,0.04307,-0.98820,2023,6,12,11,11,18,373
2.02450,2.90500,-4.65500,0.00000,0.00598,0.04270,-0.98674,2023,6,12,11,11,18,385
2.02460,2.83500,-4.76000,0.00000,0.00342,0.04380,-0.98747,2023,6,12,11,11,18,396
2.02470,2.97500,-4.79500,0.00000,0.00329,0.04307,-0.98905,2023,6,12,11,11,18,407
2.02480,2.95750,-4.67250,0.00000,0.00500,0.04160,-0.98759,2023,6,12,11,11,18,418
2.02490,3.06250,-4.58500,0.00000,0.00390,0.04209,-0.98759,2023,6,12,11,11,18,429
2.02500,2.94000,-4.63750,0.00000,0.00427,0.04343,-0.98832,2023,6,12,11,11,18,440
2.02510,2.97500,-4.49750,0.00000,0.00439,0.04221,-0.98674,2023,6,12,11,11,18,451
2.02520,2.97500,-4.56750,0.00000,0.00537,0.04233,-0.98869,2023,6,12,11,11,18,462
2.02530,2.95750,-4.81250,0.00000,0.00561,0.04429,-0.98869,2023,6,12,11,11,18,473
2.02540,2.92250,-4.70750,0.00000,0.00537,0.04477,-0.98600,2023,6,12,11,11,18,485
2.02550,2.83500,-4.53250,0.00000,0.00317,0.04343,-0.98832,2023,6,12,11,11,18,496
2.02560,2.85250,-4.70750,0.00000,0.00122,0.04331,-0.98869,2023,6,12,11,11,18,507
2.02570,2.92250,-4.62000,0.00000,0.00573,0.04270,-0.98722,2023,6,12,11,11,18,518
2.02580,2.74750,-4.53250,0.00000,0.00634,0.04404,-0.98661,2023,6,12,11,11,18,529
2.02590,2.92250,-4.62000,0.00000,0.00500,0.04343,-0.98991,2023,6,12,11,11,18,540
2.02600,2.87000,-4.49750,0.00000,0.00305,0.04343,-0.99052,2023,6,12,11,11,18,551
2.02610,2.97500,-4.60250,0.00000,0.00451,0.04185,-0.98442,2023,6,12,11,11,18,562
2.02620,2.81750,-4.67250,0.00000,0.00488,0.04160,-0.99259,2023,6,12,11,11,18,573
2.02630,3.02750,-4.77750,0.00000,0.00305,0.04307,-0.98576,2023,6,12,11,11,18,585
2.02640,2.88750,-4.74250,0.00000,0.00500,0.04319,-0.98527,2023,6,12,11,11,18,596
2.02650,2.85250,-4.51500,0.00000,0.00415,0.04453,-0.98649,2023,6,12,11,11,18,607
2.02660,2.85250,-4.30500,0.00000,0.00488,0.04441,-0.98613,2023,6,12,11,11,18,618
2.02670,2.74750,-4.49750,0.00000,0.00525,0.04599,-0.98552,2023,6,12,11,11,18,629
2.02680,2.94000,-4.79500,0.00000,0.00659,0.04282,-0.98796,2023,6,12,11,11,18,640
2.02690,3.04500,-4.53250,0.00000,0.00549,0.04258,-0.98674,2023,6,12,11,11,18,651
2.02700,3.04500,-4.77750,0.00000,0.00354,0.04282,-0.98661,2023,6,12,11,11,18,662
2.02710,2.87000,-4.56750,0.00000,0.00451,0.04270,-0.98869,2023,6,12,11,11,18,673
2.02720,2.88750,-4.53250,0.00000,0.00342,0.04526,-0.98722,2023,6,12,11,11,18,685
2.02730,2.87000,-4.62000,0.00000,0.00390,0.04477,-0.98686,2023,6,12,11,11,18,696
2.02740,2.83500,-4.49750,0.00000,0.00366,0.04197,-0.98832,2023,6,12,11,11,18,707
2.02750,2.87000,-4.55000,0.00000,0.00476,0.04258,-0.98515,2023,6,12,11,11,18,718
2.02760,2.99250,-4.72500,0.00000,0.00610,0.04294,-0.98808,2023,6,12,11,11,18,729
2.02770,2.90500,-4.56750,0.00000,0.00573,0.04209,-0.98759,2023,6,12,11,11,18,740
2.02780,3.02750,-4.56750,0.00000,0.00500,0.04380,-0.98783,2023,6,12,11,11,18,751
2.02790,2.74750,-4.46250,0.00000,0.00439,0.04551,-0.98796,2023,6,12,11,11,18,762
2.02800,2.97500,-4.46250,0.00000,0.00342,0.04294,-0.98832,2023,6,12,11,11,18,773
2.02810,2.92250,-4.60250,0.00000,0.00671,0.04404,-0.98832,2023,6,12,11,11,18,785
2.02820,2.83500,-4.56750,0.00000,0.00439,0.04477,-0.98759,2023,6,12,11,11,18,796
2.02830,2.83500,-4.49750,0.00000,0.00329,0.04416,-0.98759,2023,6,12,11,11,18,807
2.02840,2.95750,-4.62000,0.00000,0.00464,0.04197,-0.98832,2023,6,12,11,11,18,818
2.02850,2.83500,-4.62000,0.00000,0.00390,0.04416,-0.98942,2023,6,12,11,11,18,829
2.02860,3.16750,-4.51500,0.00000,0.00549,0.04160,-0.98747,2023,6,12,11,11,18,840
2.02870,3.18500,-4.79500,0.00000,0.00293,0.04429,-0.98759,2023,6,12,11,11,18,851
2.02880,2.94000,-4.53250,0.00000,0.00317,0.04099,-0.98576,2023,6,12,11,11,18,862
2.02890,2.99250,-4.49750,0.00000,0.00281,0.04380,-0.98600,2023,6,12,11,11,18,873
2.02900,2.88750,-4.63750,0.00000,0.00610,0.04160,-0.98735,2023,6,12,11,11,18,885
2.02910,3.06250,-4.58500,0.00000,0.00561,0.04392,-0.98942,2023,6,12,11,11,18,896
2.02920,3.04500,-4.76000,0.00000,0.00390,0.04185,-0.98722,2023,6,12,11,11,18,907
2.02930,2.88750,-4.65500,0.00000,0.00439,0.04355,-0.98783,2023,6,12,11,11,18,918
2.02940,3.01000,-4.32250,0.00000,0.00146,0.04246,-0.98503,2023,6,12,11,11,18,929
2.02950,2.94000,-4.62000,0.00000,0.00378,0.04197,-0.99003,2023,6,12,11,11,18,940
2.02960,2.95750,-4.53250,0.00000,0.00476,0.04307,-0.98674,2023,6,12,11,11,18,951
2.02970,2.87000,-4.48000,0.00000,0.00671,0.04441,-0.98796,2023,6,12,11,11,18,962
2.02980,3.06250,-4.77750,0.00000,0.00573,0.04246,-0.98747,2023,6,12,11,11,19,3
2.02990,3.04500,-4.63750,0.00000,0.00366,0.04258,-0.98710,2023,6,12,11,11,19,15
2.03000,2.85250,-4.63750,0.00000,0.00378,0.04392,-0.98808,2023,6,12,11,11,19,26
2.03010,3.01000,-4.44500,0.00000,0.00512,0.04331,-0.98698,2023,6,12,11,11,19,37
2.03020,2.99250,-4.67250,0.00000,0.00268,0.04355,-0.98857,2023,6,12,11,11,19,48
2.03030,2.81750,-4.62000,0.00000,0.00500,0.04355,-0.98539,2023,6,12,11,11,19,59
2.03040,2.88750,-4.53250,0.00000,0.00220,0.04514,-0.98783,2023,6,12,11,11,19,70
2.03050,3.01000,-4.72500,0.00000,0.00268,0.04185,-0.98710,2023,6,12,11,11,19,81
2.03060,2.92250,-4.55000,0.00000,0.00329,0.04160,-0.98637,2023,6,12,11,11,19,92
2.03070,2.87000,-4.53250,0.00000,0.00525,0.04380,-0.98637,2023,6,12,11,11,19,103
2.03080,2.95750,-4.72500,0.00000,0.00451,0.04416,-0.98808,2023,6,12,11,11,19,115
2.03090,2.80000,-4.39250,0.00000,0.00488,0.04111,-0.98600,2023,6,12,11,11,19,126
2.03100,3.01000,-4.60250,0.00000,0.00537,0.04331,-0.98649,2023,6,12,11,11,19,137
2.03110,2.83500,-4.53250,0.00000,0.00378,0.04099,-0.98735,2023,6,12,11,11,19,148
2.03120,2.88750,-4.72500,0.00000,0.00415,0.04172,-0.98722,2023,6,12,11,11,19,159
2.03130,2.87000,-4.77750,0.00000,0.00232,0.04270,-0.98649,2023,6,12,11,11,19,170
2.03140,2.85250,-4.48000,0.00000,0.00476,0.04233,-0.98808,2023,6,12,11,11,19,181
2.03150,2.88750,-4.55000,0.00000,0.00427,0.04172,-0.98625,2023,6,12,11,11,19,192
2.03160,2.71250,-4.74250,0.00000,0.00293,0.04087,-0.98857,2023,6,12,11,11,19,203
2.03170,2.81750,-4.48000,0.00000,0.00439,0.04404,-0.98979,2023,6,12,11,11,19,215
2.03180,2.94000,-4.44500,0.00000,0.00488,0.04380,-0.98661,2023,6,12,11,11,19,226
2.03190,2.87000,-4.63750,0.00000,0.00512,0.04355,-0.98600,2023,6,12,11,11,19,237
2.03200,2.99250,-4.67250,0.00000,0.00537,0.04368,-0.98808,2023,6,12,11,11,19,248
2.03210,3.13250,-4.63750,0.00000,0.00476,0.04282,-0.98844,2023,6,12,11,11,19,259
2.03220,2.81750,-4.48000,0.00000,0.00500,0.04331,-0.98405,2023,6,12,11,11,19,270
2.03230,2.88750,-4.70750,0.00000,0.00500,0.04416,-0.98637,2023,6,12,11,11,19,281
2.03240,2.87000,-4.74250,0.00000,0.00329,0.04111,-0.98722,2023,6,12,11,11,19,292
2.03250,2.78250,-4.39250,0.00000,0.00647,0.04185,-0.98515,2023,6,12,11,11,19,303
2.03260,2.78250,-4.69000,0.00000,0.00415,0.04160,-0.98735,2023,6,12,11,11,19,315
2.03270,2.85250,-4.62000,0.00000,0.00293,0.04380,-0.98698,2023,6,12,11,11,19,326
2.03280,2.87000,-4.63750,0.00000,0.00476,0.04416,-0.98722,2023,6,12,11,11,19,337
2.03290,2.80000,-4.53250,0.00000,0.00366,0.04233,-0.98698,2023,6,12,11,11,19,348
2.03300,2.87000,-4.32250,0.00000,0.00415,0.04331,-0.98783,2023,6,12,11,11,19,359
2.03310,2.80000,-4.37500,0.00000,0.00671,0.04087,-0.98674,2023,6,12,11,11,19,370
2.03320,2.94000,-4.65500,0.00000,0.00671,0.04392,-0.98552,2023,6,12,11,11,19,381
2.03330,2.92250,-4.48000,0.00000,0.00488,0.04343,-0.98637,2023,6,12,11,11,19,392
2.03340,2.95750,-4.51500,0.00000,0.00439,0.04404,-0.98637,2023,6,12,11,11,19,403
2.03350,2.87000,-4.58500,0.00000,0.00512,0.04380,-0.98832,2023,6,12,11,11,19,415
2.03360,3.15000,-4.51500,0.00000,0.00647,0.04270,-0.98783,2023,6,12,11,11,19,426
2.03370,2.90500,-4.34000,0.00000,0.00427,0.04380,-0.99088,2023,6,12,11,11,19,437
2.03380,2.94000,-4.65500,0.00000,0.00427,0.04221,-0.98747,2023,6,12,11,11,19,448
2.03390,2.92250,-4.69000,0.00000,0.00549,0.04490,-0.98796,2023,6,12,11,11,19,459
2.03400,3.09750,-4.60250,0.00000,0.00476,0.04185,-0.98613,2023,6,12,11,11,19,470
2.03410,2.97500,-4.60250,0.00000,0.00427,0.04221,-0.98381,2023,6,12,11,11,19,481
2.03420,2.94000,-4.28750,0.00000,0.00549,0.04343,-0.98735,2023,6,12,11,11,19,492
2.03430,2.71250,-4.60250,0.00000,0.00598,0.04099,-0.99003,2023,6,12,11,11,19,503
2.03440,2.99250,-4.76000,0.00000,0.00439,0.04563,-0.98698,2023,6,12,11,11,19,515
2.03450,3.04500,-4.86500,0.00000,0.00427,0.04124,-0.98564,2023,6,12,11,11,19,526
2.03460,3.01000,-4.62000,0.00000,0.00464,0.04233,-0.98844,2023,6,12,11,11,19,537
2.03470,2.85250,-4.48000,0.00000,0.00439,0.04502,-0.98771,2023,6,12,11,11,19,548
2.03480,3.01000,-4.62000,0.00000,0.00354,0.04294,-0.98869,2023,6,12,11,11,19,559
2.03490,2.78250,-4.67250,0.00000,0.00586,0.04282,-0.98466,2023,6,12,11,11,19,570
2.03500,2.85250,-4.39250,0.00000,0.00476,0.03953,-0.98735,2023,6,12,11,11,19,581
2.03510,2.99250,-4.84750,0.00000,0.00586,0.04209,-0.98796,2023,6,12,11,11,19,592
2.03520,2.97500,-4.72500,0.00000,0.00366,0.04197,-0.98576,2023,6,12,11,11,19,603
2.03530,2.85250,-4.58500,0.00000,0.00378,0.04355,-0.98808,2023,6,12,11,11,19,615
2.03540,2.85250,-4.63750,0.00000,0.00781,0.04551,-0.98966,2023,6,12,11,11,19,626
2.03550,3.01000,-4.41000,0.00000,0.00451,0.04331,-0.98588,2023,6,12,11,11,19,637
2.03560,2.97500,-4.55000,0.00000,0.00415,0.04185,-0.98893,2023,6,12,11,11,19,648
2.03570,3.06250,-4.70750,0.00000,0.00403,0.04404,-0.98783,2023,6,12,11,11,19,659
2.03580,2.80000,-4.49750,0.00000,0.00488,0.04429,-0.98771,2023,6,12,11,11,19,670
2.03590,2.87000,-4.53250,0.00000,0.00390,0.04636,-0.98686,2023,6,12,11,11,19,681
2.03600,2.90500,-4.65500,0.00000,0.00537,0.04270,-0.98722,2023,6,12,11,11,19,692
2.03610,2.94000,-4.55000,0.00000,0.00500,0.04416,-0.98393,2023,6,12,11,11,19,703
2.03620,2.73000,-4.65500,0.00000,0.00769,0.04270,-0.98478,2023,6,12,11,11,19,715
2.03630,3.06250,-4.67250,0.00000,0.00573,0.04429,-0.98588,2023,6,12,11,11,19,726
2.03640,2.94000,-4.69000,0.00000,0.00464,0.04233,-0.98832,2023,6,12,11,11,19,737
2.03650,2.87000,-4.46250,0.00000,0.00561,0.04221,-0.98552,2023,6,12,11,11,19,748
2.03660,2.90500,-4.51500,0.00000,0.00256,0.04160,-0.98759,2023,6,12,11,11,19,759
2.03670,2.95750,-4.74250,0.00000,0.00573,0.04343,-0.98783,2023,6,12,11,11,19,770
2.03680,2.95750,-4.60250,0.00000,0.00525,0.04172,-0.98674,2023,6,12,11,11,19,781
2.03690,2.87000,-4.55000,0.00000,0.00427,0.04246,-0.98527,2023,6,12,11,11,19,792
2.03700,2.74750,-4.62000,0.00000,0.00586,0.04307,-0.98491,2023,6,12,11,11,19,803
2.03710,2.97500,-4.49750,0.00000,0.00427,0.04209,-0.98857,2023,6,12,11,11,19,815
2.03720,2.94000,-4.62000,0.00000,0.00378,0.04270,-0.98710,2023,6,12,11,11,19,826
2.03730,2.97500,-4.67250,0.00000,0.00281,0.04307,-0.99052,2023,6,12,11,11,19,837
2.03740,2.92250,-4.56750,0.00000,0.00537,0.04307,-0.98930,2023,6,12,11,11,19,848
2.03750,2.87000,-4.55000,0.00000,0.00415,0.04197,-0.98735,2023,6,12,11,11,19,859
2.03760,2.97500,-4.67250,0.00000,0.00610,0.04343,-0.98832,2023,6,12,11,11,19,870
2.03770,2.95750,-4.72500,0.00000,0.00549,0.04270,-0.98759,2023,6,12,11,11,19,881
2.03780,2.74750,-4.49750,0.00000,0.00329,0.04331,-0.98564,2023,6,12,11,11,19,892
2.03790,3.08000,-4.49750,0.00000,0.00537,0.04148,-0.98515,2023,6,12,11,11,19,903
2.03800,3.01000,-4.60250,0.00000,0.00586,0.04294,-0.98857,2023,6,12,11,11,19,915
2.03810,2.94000,-4.60250,0.00000,0.00476,0.04380,-0.98637,2023,6,12,11,11,19,926
2.03820,2.87000,-4.49750,0.00000,0.00586,0.04282,-0.98649,2023,6,12,11,11,19,937
2.03830,2.95750,-4.67250,0.00000,0.00610,0.04673,-0.98661,2023,6,12,11,11,19,948
2.03840,2.92250,-4.84750,0.00000,0.00683,0.04368,-0.98503,2023,6,12,11,11,19,959
2.03850,3.02750,-4.63750,0.00000,0.00561,0.04331,-0.98698,2023,6,12,11,11,19,970
2.03860,2.87000,-4.72500,0.00000,0.00427,0.04160,-0.98698,2023,6,12,11,11,19,981
2.03870,3.06250,-4.56750,0.00000,0.00573,0.04246,-0.98844,2023,6,12,11,11,20,2
2.03880,2.94000,-4.81250,0.00000,0.00537,0.04307,-0.98881,2023,6,12,11,11,20,13
2.03890,2.80000,-4.51500,0.00000,0.00342,0.04099,-0.98905,2023,6,12,11,11,20,25
2.03900,2.85250,-4.67250,0.00000,0.00464,0.04294,-0.98625,2023,6,12,11,11,20,36
2.03910,2.87000,-4.56750,0.00000,0.00573,0.04185,-0.98735,2023,6,12,11,11,20,47
2.03920,3.02750,-4.42750,0.00000,0.00561,0.04282,-0.98796,2023,6,12,11,11,20,58
2.03930,2.87000,-4.67250,0.00000,0.00488,0.04490,-0.98759,2023,6,12,11,11,20,69
2.03940,2.90500,-4.69000,0.00000,0.00476,0.04392,-0.98369,2023,6,12,11,11,20,80
2.03950,2.85250,-4.48000,0.00000,0.00598,0.04441,-0.99015,2023,6,12,11,11,20,91
2.03960,2.81750,-4.46250,0.00000,0.00366,0.04209,-0.98808,2023,6,12,11,11,20,102
2.03970,2.87000,-4.44500,0.00000,0.00451,0.04233,-0.99015,2023,6,12,11,11,20,113
2.03980,2.81750,-4.58500,0.00000,0.00610,0.04160,-0.98661,2023,6,12,11,11,20,125
2.03990,2.94000,-4.60250,0.00000,0.00439,0.04307,-0.98503,2023,6,12,11,11,20,136
2.04000,2.94000,-4.60250,0.00000,0.00647,0.04246,-0.98649,2023,6,12,11,11,20,147
2.04010,3.01000,-4.53250,0.00000,0.00427,0.04148,-0.98918,2023,6,12,11,11,20,158
2.04020,2.76500,-4.56750,0.00000,0.00354,0.04355,-0.98759,2023,6,12,11,11,20,169
2.04030,2.87000,-4.53250,0.00000,0.00464,0.04331,-0.98722,2023,6,12,11,11,20,180
2.04040,2.97500,-4.67250,0.00000,0.00561,0.04246,-0.98381,2023,6,12,11,11,20,191
2.04050,3.06250,-4.62000,0.00000,0.00610,0.04172,-0.99027,2023,6,12,11,11,20,202
2.04060,3.01000,-4.49750,0.00000,0.00415,0.04172,-0.98637,2023,6,12,11,11,20,213
2.04070,2.83500,-4.62000,0.00000,0.00500,0.04355,-0.98637,2023,6,12,11,11,20,225
2.04080,2.74750,-4.55000,0.00000,0.00183,0.04331,-0.98918,2023,6,12,11,11,20,236
2.04090,2.85250,-4.62000,0.00000,0.00232,0.04172,-0.98527,2023,6,12,11,11,20,247
2.04100,2.97500,-4.74250,0.00000,0.00512,0.04465,-0.98759,2023,6,12,11,11,20,258
2.04110,2.83500,-4.53250,0.00000,0.00573,0.04282,-0.98442,2023,6,12,11,11,20,269
2.04120,2.94000,-4.46250,0.00000,0.00451,0.04404,-0.98600,2023,6,12,11,11,20,280
2.04130,2.74750,-4.51500,0.00000,0.00659,0.04221,-0.98649,2023,6,12,11,11,20,291
2.04140,2.83500,-4.83000,0.00000,0.00464,0.04392,-0.98771,2023,6,12,11,11,20,302
2.04150,2.87000,-4.48000,0.00000,0.00549,0.04453,-0.98552,2023,6,12,11,11,20,313
2.04160,2.95750,-4.74250,0.00000,0.00622,0.04331,-0.98698,2023,6,12,11,11,20,325
2.04170,2.90500,-4.69000,0.00000,0.00464,0.04319,-0.98747,2023,6,12,11,11,20,336
2.04180,2.88750,-4.62000,0.00000,0.00378,0.04111,-0.98686,2023,6,12,11,11,20,347
2.04190,2.88750,-4.60250,0.00000,0.00610,0.04380,-0.99027,2023,6,12,11,11,20,358
2.04200,2.99250,-4.51500,0.00000,0.00476,0.04124,-0.98796,2023,6,12,11,11,20,369
2.04210,2.81750,-4.55000,0.00000,0.00647,0.04307,-0.98686,2023,6,12,11,11,20,380
2.04220,2.95750,-4.56750,0.00000,0.00525,0.04404,-0.98966,2023,6,12,11,11,20,391
2.04230,2.87000,-4.60250,0.00000,0.00427,0.04307,-0.98747,2023,6,12,11,11,20,402
2.04240,2.99250,-4.58500,0.00000,0.00451,0.04136,-0.98454,2023,6,12,11,11,20,413
2.04250,2.78250,-4.55000,0.00000,0.00159,0.04368,-0.98564,2023,6,12,11,11,20,425
2.04260,2.88750,-4.48000,0.00000,0.00281,0.04514,-0.98625,2023,6,12,11,11,20,436
2.04270,2.95750,-4.74250,0.00000,0.00720,0.04380,-0.98832,2023,6,12,11,11,20,447
2.04280,2.90500,-4.58500,0.00000,0.00305,0.04343,-0.98600,2023,6,12,11,11,20,458
2.04290,2.83500,-4.28750,0.00000,0.00195,0.04380,-0.98942,2023,6,12,11,11,20,469
2.04300,2.78250,-4.49750,0.00000,0.00598,0.04075,-0.98661,2023,6,12,11,11,20,480
2.04310,3.13250,-4.53250,0.00000,0.00378,0.04477,-0.98600,2023,6,12,11,11,20,491
2.04320,2.73000,-4.35750,0.00000,0.00451,0.04404,-0.98869,2023,6,12,11,11,20,502
2.04330,2.87000,-4.56750,0.00000,0.00390,0.04319,-0.98649,2023,6,12,11,11,20,513
2.04340,2.92250,-4.81250,0.00000,0.00525,0.04502,-0.98722,2023,6,12,11,11,20,525
2.04350,2.83500,-4.70750,0.00000,0.00378,0.04258,-0.98661,2023,6,12,11,11,20,536
2.04360,3.01000,-4.63750,0.00000,0.00464,0.04526,-0.98613,2023,6,12,11,11,20,547
2.04370,3.08000,-4.76000,0.00000,0.00525,0.04282,-0.98783,2023,6,12,11,11,20,558
2.04380,2.97500,-4.62000,0.00000,0.00293,0.04355,-0.98686,2023,6,12,11,11,20,569
2.04390,3.04500,-4.70750,0.00000,0.00647,0.04465,-0.99015,2023,6,12,11,11,20,580
2.04400,3.08000,-4.58500,0.00000,0.00500,0.04453,-0.98844,2023,6,12,11,11,20,591
2.04410,2.81750,-4.67250,0.00000,0.00464,0.04282,-0.98649,2023,6,12,11,11,20,602
2.04420,2.97500,-4.65500,0.00000,0.00659,0.04197,-0.98857,2023,6,12,11,11,20,613
2.04430,2.88750,-4.65500,0.00000,0.00537,0.04185,-0.98466,2023,6,12,11,11,20,625
2.04440,2.88750,-4.55000,0.00000,0.00220,0.04209,-0.98674,2023,6,12,11,11,20,636
2.04450,2.99250,-4.70750,0.00000,0.00512,0.04355,-0.98417,2023,6,12,11,11,20,647
2.04460,2.97500,-4.69000,0.00000,0.00403,0.04307,-0.98649,2023,6,12,11,11,20,658
2.04470,2.92250,-4.56750,0.00000,0.00427,0.04136,-0.98747,2023,6,12,11,11,20,669
2.04480,3.01000,-4.60250,0.00000,0.00415,0.04209,-0.98747,2023,6,12,11,11,20,680
2.04490,2.81750,-4.49750,0.00000,0.00525,0.04221,-0.98881,2023,6,12,11,11,20,691
2.04500,2.92250,-4.46250,0.00000,0.00561,0.04404,-0.98783,2023,6,12,11,11,20,702
2.04510,2.69500,-4.49750,0.00000,0.00232,0.04258,-0.98661,2023,6,12,11,11,20,713
2.04520,3.06250,-4.58500,0.00000,0.00403,0.04465,-0.98686,2023,6,12,11,11,20,725
2.04530,2.94000,-4.58500,0.00000,0.00756,0.04416,-0.98857,2023,6,12,11,11,20,736
2.04540,2.94000,-4.93500,0.00000,0.00464,0.04270,-0.98698,2023,6,12,11,11,20,747
2.04550,2.92250,-4.65500,0.00000,0.00427,0.04307,-0.98747,2023,6,12,11,11,20,758
2.04560,2.94000,-4.51500,0.00000,0.00464,0.04233,-0.98588,2023,6,12,11,11,20,769
2.04570,2.80000,-4.65500,0.00000,0.00512,0.04233,-0.98515,2023,6,12,11,11,20,780
2.04580,2.90500,-4.60250,0.00000,0.00659,0.04185,-0.98783,2023,6,12,11,11,20,791
2.04590,2.74750,-4.58500,0.00000,0.00415,0.04453,-0.98539,2023,6,12,11,11,20,802
2.04600,2.92250,-4.55000,0.00000,0.00561,0.04587,-0.98698,2023,6,12,11,11,20,813
2.04610,2.97500,-4.42750,0.00000,0.00634,0.04319,-0.99040,2023,6,12,11,11,20,825
2.04620,2.88750,-4.72500,0.00000,0.00159,0.04075,-0.98698,2023,6,12,11,11,20,836
2.04630,2.95750,-4.84750,0.00000,0.00573,0.04307,-0.98637,2023,6,12,11,11,20,847
2.04640,2.97500,-4.63750,0.00000,0.00439,0.04612,-0.98747,2023,6,12,11,11,20,858
2.04650,2.88750,-4.56750,0.00000,0.00378,0.04282,-0.99027,2023,6,12,11,11,20,869
2.04660,2.95750,-4.51500,0.00000,0.00342,0.04343,-0.98686,2023,6,12,11,11,20,880
2.04670,3.06250,-4.77750,0.00000,0.00549,0.04160,-0.98466,2023,6,12,11,11,20,891
2.04680,2.99250,-4.65500,0.00000,0.00451,0.04172,-0.98808,2023,6,12,11,11,20,902
2.04690,2.76500,-4.49750,0.00000,0.00634,0.04087,-0.98454,2023,6,12,11,11,20,913
2.04700,2.94000,-4.41000,0.00000,0.00500,0.04270,-0.98857,2023,6,12,11,11,20,925
2.04710,2.83500,-4.77750,0.00000,0.00500,0.04282,-0.98796,2023,6,12,11,11,20,936
2.04720,2.95750,-4.62000,0.00000,0.00537,0.04368,-0.98881,2023,6,12,11,11,20,947
2.04730,2.87000,-4.69000,0.00000,0.00525,0.04233,-0.98783,2023,6,12,11,11,20,958
2.04740,3.01000,-4.44500,0.00000,0.00488,0.04258,-0.98515,2023,6,12,11,11,21,9
2.04750,2.92250,-4.70750,0.00000,0.00598,0.04697,-0.98869,2023,6,12,11,11,21,20
2.04760,2.81750,-4.48000,0.00000,0.00500,0.04209,-0.98869,2023,6,12,11,11,21,31
2.04770,3.11500,-4.56750,0.00000,0.00415,0.04270,-0.98796,2023,6,12,11,11,21,42
2.04780,2.90500,-4.46250,0.00000,0.00647,0.04355,-0.98649,2023,6,12,11,11,21,53
2.04790,2.87000,-4.55000,0.00000,0.00695,0.04307,-0.98893,2023,6,12,11,11,21,65
2.04800,2.85250,-4.58500,0.00000,0.00561,0.04294,-0.98832,2023,6,12,11,11,21,76
2.04810,2.88750,-4.83000,0.00000,0.00451,0.04197,-0.98820,2023,6,12,11,11,21,87
2.04820,3.01000,-4.46250,0.00000,0.00366,0.04465,-0.98527,2023,6,12,11,11,21,98
2.04830,2.90500,-4.60250,0.00000,0.00390,0.04294,-0.98954,2023,6,12,11,11,21,109
2.04840,2.90500,-4.49750,0.00000,0.00573,0.04453,-0.98771,2023,6,12,11,11,21,120
2.04850,2.87000,-4.46250,0.00000,0.00598,0.04514,-0.98747,2023,6,12,11,11,21,131
2.04860,2.88750,-4.48000,0.00000,0.00415,0.04465,-0.98893,2023,6,12,11,11,21,142
2.04870,2.94000,-4.37500,0.00000,0.00403,0.04270,-0.98637,2023,6,12,11,11,21,153
2.04880,3.08000,-4.46250,0.00000,0.00403,0.04331,-0.98710,2023,6,12,11,11,21,165
2.04890,3.06250,-4.70750,0.00000,0.00451,0.04233,-0.98698,2023,6,12,11,11,21,176
2.04900,2.95750,-4.86500,0.00000,0.00281,0.04197,-0.98759,2023,6,12,11,11,21,187
2.04910,2.78250,-4.46250,0.00000,0.00512,0.04319,-0.98576,2023,6,12,11,11,21,198
2.04920,2.78250,-4.63750,0.00000,0.00268,0.04209,-0.98649,2023,6,12,11,11,21,209
2.04930,2.74750,-4.53250,0.00000,0.00451,0.04172,-0.98698,2023,6,12,11,11,21,220
2.04940,2.83500,-4.76000,0.00000,0.00537,0.04063,-0.98759,2023,6,12,11,11,21,231
2.04950,2.81750,-4.44500,0.00000,0.00610,0.04258,-0.98832,2023,6,12,11,11,21,242
2.04960,3.09750,-4.70750,0.00000,0.00586,0.04160,-0.98515,2023,6,12,11,11,21,253
2.04970,2.90500,-4.62000,0.00000,0.00354,0.04172,-0.98722,2023,6,12,11,11,21,265
2.04980,2.90500,-4.53250,0.00000,0.00403,0.04331,-0.98637,2023,6,12,11,11,21,276
2.04990,3.08000,-4.63750,0.00000,0.00476,0.04355,-0.98710,2023,6,12,11,11,21,287
2.05000,2.83500,-4.63750,0.00000,0.00549,0.04258,-0.98979,2023,6,12,11,11,21,298
2.05010,3.01000,-4.65500,0.00000,0.00390,0.04270,-0.98783,2023,6,12,11,11,21,309
2.05020,2.88750,-4.70750,0.00000,0.00586,0.04185,-0.98539,2023,6,12,11,11,21,320
2.05030,3.13250,-4.65500,0.00000,0.00305,0.04221,-0.98869,2023,6,12,11,11,21,331
2.05040,2.85250,-4.88250,0.00000,0.00476,0.04429,-0.98588,2023,6,12,11,11,21,342
2.05050,2.81750,-4.76000,0.00000,0.00390,0.04355,-0.98515,2023,6,12,11,11,21,353
2.05060,2.83500,-4.90000,0.00000,0.00708,0.04416,-0.98503,2023,6,12,11,11,21,365
2.05070,2.88750,-4.44500,0.00000,0.00317,0.04319,-0.98832,2023,6,12,11,11,21,376
2.05080,2.99250,-4.76000,0.00000,0.00549,0.04282,-0.98430,2023,6,12,11,11,21,387
2.05090,2.97500,-4.67250,0.00000,0.00403,0.04197,-0.98771,2023,6,12,11,11,21,398
2.05100,2.81750,-4.42750,0.00000,0.00366,0.04209,-0.98722,2023,6,12,11,11,21,409
2.05110,2.97500,-4.53250,0.00000,0.00390,0.04392,-0.98832,2023,6,12,11,11,21,420
2.05120,2.81750,-4.32250,0.00000,0.00488,0.04392,-0.99064,2023,6,12,11,11,21,431
2.05130,3.04500,-4.70750,0.00000,0.00769,0.04355,-0.98966,2023,6,12,11,11,21,442
2.05140,2.73000,-4.51500,0.00000,0.00293,0.04197,-0.98820,2023,6,12,11,11,21,453
2.05150,3.11500,-4.55000,0.00000,0.00476,0.04307,-0.98771,2023,6,12,11,11,21,465
2.05160,2.87000,-4.77750,0.00000,0.00476,0.04441,-0.98649,2023,6,12,11,11,21,476
2.05170,2.88750,-4.69000,0.00000,0.00500,0.04233,-0.98844,2023,6,12,11,11,21,487
2.05180,2.87000,-4.56750,0.00000,0.00439,0.04294,-0.98588,2023,6,12,11,11,21,498
2.05190,3.01000,-4.74250,0.00000,0.00451,0.04111,-0.98710,2023,6,12,11,11,21,509
2.05200,2.99250,-4.65500,0.00000,0.00488,0.04465,-0.98661,2023,6,12,11,11,21,520
2.05210,2.73000,-4.46250,0.00000,0.00415,0.04246,-0.98771,2023,6,12,11,11,21,531
2.05220,3.04500,-4.84750,0.00000,0.00317,0.04343,-0.98686,2023,6,12,11,11,21,542
2.05230,3.02750,-4.60250,0.00000,0.00390,0.04270,-0.98942,2023,6,12,11,11,21,553
2.05240,2.94000,-4.55000,0.00000,0.00317,0.04551,-0.98759,2023,6,12,11,11,21,565
2.05250,2.97500,-4.79500,0.00000,0.00573,0.04502,-0.98771,2023,6,12,11,11,21,576
2.05260,2.90500,-4.51500,0.00000,0.00586,0.04319,-0.98844,2023,6,12,11,11,21,587
2.05270,3.04500,-4.65500,0.00000,0.00366,0.04343,-0.98844,2023,6,12,11,11,21,598
2.05280,2.88750,-4.56750,0.00000,0.00439,0.04270,-0.98893,2023,6,12,11,11,21,609
2.05290,2.81750,-4.62000,0.00000,0.00305,0.04380,-0.98661,2023,6,12,11,11,21,620
2.05300,2.92250,-4.67250,0.00000,0.00647,0.04246,-0.98954,2023,6,12,11,11,21,631
2.05310,2.97500,-4.62000,0.00000,0.00586,0.04343,-0.98515,2023,6,12,11,11,21,642
2.05320,2.87000,-4.53250,0.00000,0.00500,0.04380,-0.98710,2023,6,12,11,11,21,653
2.05330,3.01000,-4.60250,0.00000,0.00476,0.04209,-0.98637,2023,6,12,11,11,21,665
2.05340,2.87000,-4.34000,0.00000,0.00671,0.04197,-0.98796,2023,6,12,11,11,21,676
2.05350,2.74750,-4.77750,0.00000,0.00781,0.04319,-0.98515,2023,6,12,11,11,21,687
2.05360,2.90500,-4.42750,0.00000,0.00537,0.04282,-0.98661,2023,6,12,11,11,21,698
2.05370,2.88750,-4.42750,0.00000,0.00329,0.04111,-0.98747,2023,6,12,11,11,21,709
2.05380,2.81750,-4.44500,0.00000,0.00586,0.04392,-0.99003,2023,6,12,11,11,21,720
2.05390,2.95750,-4.77750,0.00000,0.00207,0.04172,-0.98613,2023,6,12,11,11,21,731
2.05400,2.80000,-4.55000,0.00000,0.00390,0.04246,-0.98722,2023,6,12,11,11,21,742
2.05410,2.90500,-4.70750,0.00000,0.00390,0.04441,-0.98747,2023,6,12,11,11,21,753
2.05420,2.90500,-4.60250,0.00000,0.00647,0.04416,-0.98954,2023,6,12,11,11,21,765
2.05430,2.95750,-4.62000,0.00000,0.00647,0.04380,-0.98808,2023,6,12,11,11,21,776
2.05440,2.92250,-4.44500,0.00000,0.00464,0.04429,-0.98820,2023,6,12,11,11,21,787
2.05450,3.04500,-4.65500,0.00000,0.00366,0.04343,-0.98966,2023,6,12,11,11,21,798
2.05460,2.78250,-4.53250,0.00000,0.00561,0.04307,-0.98539,2023,6,12,11,11,21,809
2.05470,2.81750,-4.62000,0.00000,0.00427,0.04441,-0.98820,2023,6,12,11,11,21,820
2.05480,2.73000,-4.58500,0.00000,0.00512,0.04160,-0.98539,2023,6,12,11,11,21,831
2.05490,2.87000,-4.60250,0.00000,0.00561,0.04233,-0.98857,2023,6,12,11,11,21,842
2.05500,2.99250,-4.49750,0.00000,0.00427,0.04380,-0.98686,2023,6,12,11,11,21,853
2.05510,2.85250,-4.55000,0.00000,0.00403,0.04441,-0.99040,2023,6,12,11,11,21,865
2.05520,2.74750,-4.53250,0.00000,0.00439,0.04209,-0.98661,2023,6,12,11,11,21,876
2.05530,2.97500,-4.44500,0.00000,0.00464,0.04490,-0.98954,2023,6,12,11,11,21,887
2.05540,2.83500,-4.58500,0.00000,0.00525,0.04319,-0.98600,2023,6,12,11,11,21,898
2.05550,2.95750,-4.63750,0.00000,0.00610,0.04233,-0.98857,2023,6,12,11,11,21,909
2.05560,2.76500,-4.41000,0.00000,0.00415,0.04319,-0.98796,2023,6,12,11,11,21,920
2.05570,3.06250,-4.53250,0.00000,0.00525,0.04331,-0.98796,2023,6,12,11,11,21,931
2.05580,3.02750,-4.44500,0.00000,0.00317,0.04368,-0.98637,2023,6,12,11,11,21,942
2.05590,3.01000,-4.51500,0.00000,0.00512,0.04148,-0.98649,2023,6,12,11,11,21,953
2.05600,2.85250,-4.62000,0.00000,0.00305,0.04575,-0.98747,2023,6,12,11,11,21,965
2.05610,2.97500,-4.48000,0.00000,0.00342,0.04258,-0.98661,2023,6,12,11,11,22,6
2.05620,2.88750,-4.72500,0.00000,0.00598,0.04282,-0.98600,2023,6,12,11,11,22,17
2.05630,2.83500,-4.56750,0.00000,0.00476,0.04380,-0.98747,2023,6,12,11,11,22,28
2.05640,3.04500,-4.53250,0.00000,0.00390,0.04233,-0.98442,2023,6,12,11,11,22,39
2.05650,2.71250,-4.37500,0.00000,0.00561,0.04282,-0.98759,2023,6,12,11,11,22,50
2.05660,3.02750,-4.62000,0.00000,0.00610,0.04392,-0.98783,2023,6,12,11,11,22,61
2.05670,2.99250,-4.48000,0.00000,0.00232,0.04221,-0.98759,2023,6,12,11,11,22,72
2.05680,2.87000,-4.74250,0.00000,0.00439,0.04282,-0.98405,2023,6,12,11,11,22,83
2.05690,2.81750,-4.58500,0.00000,0.00561,0.04282,-0.98722,2023,6,12,11,11,22,95
2.05700,2.87000,-4.55000,0.00000,0.00427,0.04258,-0.98588,2023,6,12,11,11,22,106
2.05710,3.01000,-4.55000,0.00000,0.00354,0.04160,-0.98747,2023,6,12,11,11,22,117
2.05720,2.83500,-4.58500,0.00000,0.00451,0.04124,-0.98820,2023,6,12,11,11,22,128
2.05730,2.85250,-4.42750,0.00000,0.00634,0.04343,-0.98698,2023,6,12,11,11,22,139
2.05740,2.73000,-4.48000,0.00000,0.00451,0.04294,-0.99003,2023,6,12,11,11,22,150
2.05750,2.87000,-4.67250,0.00000,0.00512,0.04331,-0.98576,2023,6,12,11,11,22,161
2.05760,2.94000,-4.58500,0.00000,0.00354,0.04221,-0.98491,2023,6,12,11,11,22,172
2.05770,2.71250,-4.63750,0.00000,0.00366,0.04160,-0.98576,2023,6,12,11,11,22,183
2.05780,2.83500,-4.44500,0.00000,0.00500,0.04331,-0.98588,2023,6,12,11,11,22,195
2.05790,2.78250,-4.35750,0.00000,0.00488,0.04368,-0.98918,2023,6,12,11,11,22,206
2.05800,2.94000,-4.56750,0.00000,0.00647,0.04136,-0.98808,2023,6,12,11,11,22,217
2.05810,3.01000,-4.42750,0.00000,0.00549,0.04465,-0.98735,2023,6,12,11,11,22,228
2.05820,2.99250,-4.62000,0.00000,0.00476,0.04246,-0.98783,2023,6,12,11,11,22,239
2.05830,2.92250,-4.60250,0.00000,0.00488,0.04355,-0.98710,2023,6,12,11,11,22,250
2.05840,2.95750,-4.51500,0.00000,0.00549,0.04380,-0.98600,2023,6,12,11,11,22,261
2.05850,2.80000,-4.58500,0.00000,0.00720,0.04221,-0.98552,2023,6,12,11,11,22,272
2.05860,3.15000,-4.65500,0.00000,0.00549,0.04392,-0.98796,2023,6,12,11,11,22,283
2.05870,2.87000,-4.44500,0.00000,0.00451,0.04075,-0.98308,2023,6,12,11,11,22,295
2.05880,2.83500,-4.44500,0.00000,0.00525,0.04331,-0.98515,2023,6,12,11,11,22,306
2.05890,2.95750,-4.63750,0.00000,0.00549,0.04368,-0.98552,2023,6,12,11,11,22,317
2.05900,2.94000,-4.46250,0.00000,0.00537,0.04148,-0.98930,2023,6,12,11,11,22,328
2.05910,2.74750,-4.48000,0.00000,0.00464,0.04160,-0.98905,2023,6,12,11,11,22,339
2.05920,2.97500,-4.58500,0.00000,0.00451,0.04160,-0.99003,2023,6,12,11,11,22,350
2.05930,2.99250,-4.63750,0.00000,0.00403,0.04648,-0.98686,2023,6,12,11,11,22,361
2.05940,2.90500,-4.51500,0.00000,0.00610,0.04258,-0.98661,2023,6,12,11,11,22,372
2.05950,2.97500,-4.53250,0.00000,0.00549,0.04368,-0.98771,2023,6,12,11,11,22,383
2.05960,2.99250,-4.70750,0.00000,0.00586,0.04526,-0.98808,2023,6,12,11,11,22,395
2.05970,2.78250,-4.30500,0.00000,0.00464,0.04258,-0.98515,2023,6,12,11,11,22,406
2.05980,2.87000,-4.56750,0.00000,0.00842,0.04258,-0.98539,2023,6,12,11,11,22,417
2.05990,2.85250,-4.58500,0.00000,0.00634,0.04233,-0.98661,2023,6,12,11,11,22,428
2.06000,2.90500,-4.62000,0.00000,0.00525,0.04294,-0.98625,2023,6,12,11,11,22,439
2.06010,2.94000,-4.72500,0.00000,0.00549,0.04160,-0.98637,2023,6,12,11,11,22,450
2.06020,2.97500,-4.70750,0.00000,0.00415,0.04270,-0.98491,2023,6,12,11,11,22,461
2.06030,2.94000,-4.84750,0.00000,0.00622,0.04185,-0.98430,2023,6,12,11,11,22,472
2.06040,2.95750,-4.55000,0.00000,0.00329,0.04307,-0.98478,2023,6,12,11,11,22,483
2.06050,2.90500,-4.77750,0.00000,0.00439,0.04246,-0.98661,2023,6,12,11,11,22,495
2.06060,3.02750,-4.70750,0.00000,0.00476,0.04380,-0.98722,2023,6,12,11,11,22,506
2.06070,2.85250,-4.58500,0.00000,0.00512,0.04282,-0.98771,2023,6,12,11,11,22,517
2.06080,2.87000,-4.44500,0.00000,0.00354,0.04136,-0.98698,2023,6,12,11,11,22,528
2.06090,2.87000,-4.69000,0.00000,0.00427,0.04416,-0.98857,2023,6,12,11,11,22,539
2.06100,2.83500,-4.72500,0.00000,0.00476,0.04355,-0.98710,2023,6,12,11,11,22,550
2.06110,2.85250,-4.67250,0.00000,0.00488,0.04416,-0.98625,2023,6,12,11,11,22,561
2.06120,2.74750,-4.58500,0.00000,0.00671,0.04392,-0.98979,2023,6,12,11,11,22,572
2.06130,2.81750,-4.18250,0.00000,0.00647,0.04233,-0.98979,2023,6,12,11,11,22,583
2.06140,2.94000,-4.53250,0.00000,0.00354,0.04185,-0.98625,2023,6,12,11,11,22,595
2.06150,2.92250,-4.48000,0.00000,0.00537,0.04355,-0.98625,2023,6,12,11,11,22,606
2.06160,2.73000,-4.53250,0.00000,0.00366,0.04429,-0.98881,2023,6,12,11,11,22,617
2.06170,3.01000,-4.81250,0.00000,0.00451,0.04429,-0.98820,2023,6,12,11,11,22,628
2.06180,2.94000,-4.56750,0.00000,0.00464,0.04148,-0.98515,2023,6,12,11,11,22,639
2.06190,2.78250,-4.37500,0.00000,0.00451,0.04368,-0.98649,2023,6,12,11,11,22,650
2.06200,2.88750,-4.51500,0.00000,0.00598,0.04477,-0.99015,2023,6,12,11,11,22,661
2.06210,2.99250,-4.67250,0.00000,0.00610,0.04416,-0.98564,2023,6,12,11,11,22,672
2.06220,2.88750,-4.48000,0.00000,0.00451,0.04185,-0.99137,2023,6,12,11,11,22,683
2.06230,3.04500,-4.55000,0.00000,0.00464,0.04331,-0.98893,2023,6,12,11,11,22,695
2.06240,2.64250,-4.41000,0.00000,0.00439,0.04258,-0.98466,2023,6,12,11,11,22,706
2.06250,3.02750,-4.76000,0.00000,0.00256,0.04319,-0.98869,2023,6,12,11,11,22,717
2.06260,2.97500,-4.70750,0.00000,0.00305,0.04270,-0.98649,2023,6,12,11,11,22,728
2.06270,2.94000,-4.58500,0.00000,0.00403,0.04355,-0.98686,2023,6,12,11,11,22,739
2.06280,2.97500,-4.65500,0.00000,0.00671,0.04319,-0.98625,2023,6,12,11,11,22,750
2.06290,2.95750,-4.60250,0.00000,0.00561,0.04526,-0.99027,2023,6,12,11,11,22,761
2.06300,2.92250,-4.49750,0.00000,0.00061,0.04124,-0.98710,2023,6,12,11,11,22,772
2.06310,2.81750,-4.53250,0.00000,0.00342,0.04282,-0.98759,2023,6,12,11,11,22,783
2.06320,2.87000,-4.60250,0.00000,0.00439,0.04319,-0.98796,2023,6,12,11,11,22,795
2.06330,3.13250,-4.48000,0.00000,0.00427,0.04368,-0.98722,2023,6,12,11,11,22,806
2.06340,2.95750,-4.58500,0.00000,0.00500,0.04270,-0.98796,2023,6,12,11,11,22,817
2.06350,2.94000,-4.58500,0.00000,0.00537,0.04477,-0.98783,2023,6,12,11,11,22,828
2.06360,2.92250,-4.46250,0.00000,0.00573,0.04282,-0.98747,2023,6,12,11,11,22,839
2.06370,2.85250,-4.60250,0.00000,0.00586,0.04441,-0.98759,2023,6,12,11,11,22,850
2.06380,2.99250,-4.72500,0.00000,0.00220,0.04087,-0.98722,2023,6,12,11,11,22,861
2.06390,2.90500,-4.70750,0.00000,0.00488,0.04294,-0.98808,2023,6,12,11,11,22,872
2.06400,2.97500,-4.72500,0.00000,0.00342,0.04355,-0.98674,2023,6,12,11,11,22,883
2.06410,2.92250,-4.63750,0.00000,0.00476,0.04282,-0.98832,2023,6,12,11,11,22,895
2.06420,2.81750,-4.77750,0.00000,0.00415,0.04343,-0.98869,2023,6,12,11,11,22,906
2.06430,2.90500,-4.27000,0.00000,0.00549,0.04453,-0.98637,2023,6,12,11,11,22,917
2.06440,3.02750,-4.53250,0.00000,0.00488,0.04343,-0.98722,2023,6,12,11,11,22,928
2.06450,3.06250,-4.63750,0.00000,0.00500,0.04307,-0.98600,2023,6,12,11,11,22,939
2.06460,2.66000,-4.69000,0.00000,0.00476,0.04368,-0.98918,2023,6,12,11,11,22,950
