#2023/06/12 10:01:52
time,wx,wy,wz,ax,ay,az,yy,MM,dd,hh,mm,ss,ms
0.00000,3.01000,-4.72500,0.00000,0.00549,0.96783,-0.22729,2023,6,12,10,1,52,832
0.00010,3.04500,-4.55000,0.00000,0.00476,0.97063,-0.22838,2023,6,12,10,1,52,843
0.00020,2.78250,-4.51500,0.00000,0.00512,0.96819,-0.22802,2023,6,12,10,1,52,854
0.00030,2.90500,-4.56750,0.00000,0.00744,0.96905,-0.22729,2023,6,12,10,1,52,865
0.00040,2.81750,-4.49750,0.00000,0.00512,0.96709,-0.22533,2023,6,12,10,1,52,876
0.00050,2.76500,-4.56750,0.00000,0.00537,0.96636,-0.22729,2023,6,12,10,1,52,887
0.00060,3.01000,-4.77750,0.00000,0.00256,0.97014,-0.22582,2023,6,12,10,1,52,898
0.00070,2.99250,-4.70750,0.00000,0.00403,0.96636,-0.22668,2023,6,12,10,1,52,909
0.00080,2.62500,-4.56750,0.00000,0.00561,0.96844,-0.22716,2023,6,12,10,1,52,920
0.00090,2.10000,-4.32250,0.00000,0.00451,0.96844,-0.22887,2023,6,12,10,1,52,931
0.00100,2.73000,-4.58500,0.00000,0.00744,0.96831,-0.22607,2023,6,12,10,1,52,943
0.00110,2.41500,-4.46250,0.00000,0.00525,0.96600,-0.22741,2023,6,12,10,1,52,954
0.00120,1.97750,-4.23500,0.00000,0.00561,0.96966,-0.22802,2023,6,12,10,1,52,965
0.00130,2.76500,-4.48000,0.00000,0.00561,0.96685,-0.22350,2023,6,12,10,1,52,976
0.00140,2.59000,-4.60250,0.00000,0.00561,0.96624,-0.22424,2023,6,12,10,1,52,987
0.00150,2.64250,-4.32250,0.00000,0.00512,0.96795,-0.22607,2023,6,12,10,1,52,998
0.00160,3.02750,-4.58500,0.00000,0.00610,0.96819,-0.22497,2023,6,12,10,1,52,9
0.00170,2.81750,-4.39250,0.00000,0.00586,0.96697,-0.22619,2023,6,12,10,1,52,20
0.00180,2.87000,-4.67250,0.00000,0.00610,0.96880,-0.22521,2023,6,12,10,1,52,31
0.00190,2.83500,-4.44500,0.00000,0.00586,0.96795,-0.22326,2023,6,12,10,1,52,43
0.00200,2.88750,-4.44500,0.00000,0.00427,0.96929,-0.22741,2023,6,12,10,1,52,54
0.00210,2.76500,-4.35750,0.00000,0.00610,0.96746,-0.22509,2023,6,12,10,1,52,65
0.00220,2.95750,-4.67250,0.00000,0.00488,0.96661,-0.22680,2023,6,12,10,1,52,76
0.00230,3.06250,-4.46250,0.00000,0.00512,0.96905,-0.22753,2023,6,12,10,1,52,87
0.00240,3.04500,-4.44500,0.00000,0.00622,0.96941,-0.22607,2023,6,12,10,1,52,98
0.00250,2.85250,-4.62000,0.00000,0.00720,0.96917,-0.22655,2023,6,12,10,1,52,109
0.00260,3.04500,-4.56750,0.00000,0.00464,0.96734,-0.22448,2023,6,12,10,1,52,120
0.00270,2.87000,-4.44500,0.00000,0.00439,0.96953,-0.22643,2023,6,12,10,1,52,131
0.00280,2.87000,-4.56750,0.00000,0.00586,0.96758,-0.22509,2023,6,12,10,1,52,143
0.00290,2.78250,-4.37500,0.00000,0.00573,0.96905,-0.22521,2023,6,12,10,1,52,154
0.00300,3.04500,-4.62000,0.00000,0.00610,0.96795,-0.22521,2023,6,12,10,1,52,165
0.00310,3.01000,-4.55000,0.00000,0.00586,0.96929,-0.22448,2023,6,12,10,1,52,176
0.00320,2.94000,-4.46250,0.00000,0.00586,0.96844,-0.22546,2023,6,12,10,1,52,187
0.00330,3.02750,-4.91750,0.00000,0.00659,0.96819,-0.22582,2023,6,12,10,1,52,198
0.00340,2.88750,-4.56750,0.00000,0.00683,0.96880,-0.22607,2023,6,12,10,1,52,209
0.00350,2.87000,-4.60250,0.00000,0.00488,0.96685,-0.22826,2023,6,12,10,1,52,220
0.00360,2.85250,-4.39250,0.00000,0.00500,0.96783,-0.22607,2023,6,12,10,1,52,231
0.00370,2.90500,-4.41000,0.00000,0.00586,0.96844,-0.22607,2023,6,12,10,1,52,243
0.00380,3.02750,-4.35750,0.00000,0.00549,0.96905,-0.22826,2023,6,12,10,1,52,254
0.00390,2.88750,-4.65500,0.00000,0.00329,0.96880,-0.22546,2023,6,12,10,1,52,265
0.00400,3.01000,-4.14750,0.00000,0.00671,0.96587,-0.22753,2023,6,12,10,1,52,276
0.00410,2.97500,-4.51500,0.00000,0.00561,0.97027,-0.22472,2023,6,12,10,1,52,287
0.00420,2.97500,-4.84750,0.00000,0.00512,0.96734,-0.22594,2023,6,12,10,1,52,298
0.00430,2.90500,-4.56750,0.00000,0.00439,0.96905,-0.22668,2023,6,12,10,1,52,309
0.00440,2.99250,-4.63750,0.00000,0.00549,0.96770,-0.22533,2023,6,12,10,1,53,0
0.00450,2.94000,-4.65500,0.00000,0.00634,0.96831,-0.22692,2023,6,12,10,1,53,11
0.00460,3.09750,-4.60250,0.00000,0.00586,0.96978,-0.22655,2023,6,12,10,1,53,23
0.00470,3.08000,-4.67250,0.00000,0.00622,0.96734,-0.22594,2023,6,12,10,1,53,34
0.00480,2.95750,-4.55000,0.00000,0.00598,0.96697,-0.22765,2023,6,12,10,1,53,45
0.00490,3.13250,-4.74250,0.00000,0.00561,0.96722,-0.22802,2023,6,12,10,1,53,56
0.00500,2.39750,-4.35750,0.00000,0.00525,0.96844,-0.23046,2023,6,12,10,1,53,67
0.00510,2.81750,-4.49750,0.00000,0.00634,0.96770,-0.22387,2023,6,12,10,1,53,78
0.00520,3.15000,-4.55000,0.00000,0.00207,0.96868,-0.22680,2023,6,12,10,1,53,89
0.00530,2.92250,-4.51500,0.00000,0.00744,0.96844,-0.22314,2023,6,12,10,1,53,100
0.00540,3.11500,-4.51500,0.00000,0.00622,0.96856,-0.22729,2023,6,12,10,1,53,111
0.00550,2.87000,-4.49750,0.00000,0.00708,0.96807,-0.22546,2023,6,12,10,1,53,123
0.00560,3.06250,-4.56750,0.00000,0.00500,0.96941,-0.22777,2023,6,12,10,1,53,134
0.00570,2.97500,-4.67250,0.00000,0.00500,0.96746,-0.22826,2023,6,12,10,1,53,145
0.00580,2.85250,-4.56750,0.00000,0.00586,0.96758,-0.22631,2023,6,12,10,1,53,156
0.00590,2.99250,-4.53250,0.00000,0.00695,0.96551,-0.22448,2023,6,12,10,1,53,167
0.00600,2.97500,-4.65500,0.00000,0.00769,0.96819,-0.22631,2023,6,12,10,1,53,178
0.00610,2.95750,-4.84750,0.00000,0.00634,0.96917,-0.22436,2023,6,12,10,1,53,189
0.00620,2.99250,-4.60250,0.00000,0.00695,0.96795,-0.22619,2023,6,12,10,1,53,200
0.00630,2.85250,-4.35750,0.00000,0.00403,0.96819,-0.22302,2023,6,12,10,1,53,211
0.00640,2.88750,-4.44500,0.00000,0.00610,0.96844,-0.22631,2023,6,12,10,1,53,223
0.00650,2.83500,-4.34000,0.00000,0.00476,0.96502,-0.22753,2023,6,12,10,1,53,234
0.00660,2.95750,-4.32250,0.00000,0.00549,0.96770,-0.22533,2023,6,12,10,1,53,245
0.00670,2.66000,-4.42750,0.00000,0.00683,0.96880,-0.22533,2023,6,12,10,1,53,256
0.00680,2.90500,-4.72500,0.00000,0.00769,0.96807,-0.22424,2023,6,12,10,1,53,267
0.00690,2.97500,-4.55000,0.00000,0.00512,0.96868,-0.22692,2023,6,12,10,1,53,278
0.00700,2.94000,-4.60250,0.00000,0.00598,0.96856,-0.22375,2023,6,12,10,1,53,289
0.00710,3.09750,-4.46250,0.00000,0.00720,0.97002,-0.22680,2023,6,12,10,1,53,300
0.00720,2.80000,-4.48000,0.00000,0.00683,0.96929,-0.22643,2023,6,12,10,1,53,311
0.00730,2.90500,-4.44500,0.00000,0.00366,0.96746,-0.22472,2023,6,12,10,1,53,323
0.00740,2.76500,-4.63750,0.00000,0.00634,0.96770,-0.22363,2023,6,12,10,1,53,334
0.00750,3.08000,-4.53250,0.00000,0.00561,0.96697,-0.22594,2023,6,12,10,1,53,345
0.00760,2.92250,-4.76000,0.00000,0.00525,0.96856,-0.22655,2023,6,12,10,1,53,356
0.00770,2.95750,-4.67250,0.00000,0.00573,0.96758,-0.22619,2023,6,12,10,1,53,367
0.00780,3.06250,-4.46250,0.00000,0.00610,0.96746,-0.22668,2023,6,12,10,1,53,378
0.00790,2.95750,-4.49750,0.00000,0.00525,0.96783,-0.22485,2023,6,12,10,1,53,389
0.00800,3.08000,-4.83000,0.00000,0.00622,0.96868,-0.22460,2023,6,12,10,1,53,400
0.00810,2.95750,-4.53250,0.00000,0.00744,0.97002,-0.22399,2023,6,12,10,1,53,411
0.00820,3.11500,-4.55000,0.00000,0.00415,0.96783,-0.22460,2023,6,12,10,1,53,423
0.00830,2.83500,-4.55000,0.00000,0.00659,0.97002,-0.22558,2023,6,12,10,1,53,434
0.00840,3.06250,-4.62000,0.00000,0.00598,0.96648,-0.22485,2023,6,12,10,1,53,445
0.00850,2.97500,-4.35750,0.00000,0.00549,0.96795,-0.22570,2023,6,12,10,1,53,456
0.00860,2.83500,-4.58500,0.00000,0.00427,0.96661,-0.22448,2023,6,12,10,1,53,467
0.00870,2.90500,-4.46250,0.00000,0.00634,0.97027,-0.22448,2023,6,12,10,1,53,478
0.00880,3.02750,-4.62000,0.00000,0.00512,0.96953,-0.22338,2023,6,12,10,1,53,489
0.00890,3.08000,-4.69000,0.00000,0.00622,0.96734,-0.22570,2023,6,12,10,1,53,500
0.00900,3.15000,-4.76000,0.00000,0.00415,0.96612,-0.22448,2023,6,12,10,1,53,511
0.00910,3.30750,-4.90000,0.00000,0.00427,0.96990,-0.22399,2023,6,12,10,1,53,523
0.00920,3.27250,-4.58500,0.00000,0.00366,0.96807,-0.22460,2023,6,12,10,1,53,534
0.00930,3.08000,-4.83000,0.00000,0.00720,0.96783,-0.22570,2023,6,12,10,1,53,545
0.00940,3.15000,-4.74250,0.00000,0.00793,0.96648,-0.22399,2023,6,12,10,1,53,556
0.00950,3.01000,-4.74250,0.00000,0.00622,0.96636,-0.22350,2023,6,12,10,1,53,567
0.00960,2.99250,-4.49750,0.00000,0.00647,0.96941,-0.22509,2023,6,12,10,1,53,578
0.00970,2.88750,-4.55000,0.00000,0.00549,0.96783,-0.22302,2023,6,12,10,1,53,589
0.00980,2.90500,-4.32250,0.00000,0.00622,0.96917,-0.22253,2023,6,12,10,1,53,600
0.00990,2.99250,-4.53250,0.00000,0.00561,0.96758,-0.22668,2023,6,12,10,1,53,611
0.01000,2.88750,-4.58500,0.00000,0.00683,0.96612,-0.22411,2023,6,12,10,1,53,623
0.01010,2.81750,-4.53250,0.00000,0.00744,0.96441,-0.22436,2023,6,12,10,1,53,634
0.01020,2.90500,-4.46250,0.00000,0.00781,0.96746,-0.22399,2023,6,12,10,1,53,645
0.01030,2.83500,-4.62000,0.00000,0.00439,0.96722,-0.22314,2023,6,12,10,1,53,656
0.01040,2.95750,-4.55000,0.00000,0.00586,0.96990,-0.22399,2023,6,12,10,1,53,667
0.01050,2.95750,-4.49750,0.00000,0.00525,0.96783,-0.22533,2023,6,12,10,1,53,678
0.01060,3.11500,-4.67250,0.00000,0.00525,0.96856,-0.22253,2023,6,12,10,1,53,689
0.01070,2.80000,-4.49750,0.00000,0.00695,0.96636,-0.22509,2023,6,12,10,1,53,700
0.01080,2.94000,-4.56750,0.00000,0.00598,0.96697,-0.22192,2023,6,12,10,1,53,711
0.01090,3.13250,-4.58500,0.00000,0.00464,0.96661,-0.22460,2023,6,12,10,1,53,723
0.01100,3.06250,-4.70750,0.00000,0.00451,0.96856,-0.22387,2023,6,12,10,1,53,734
0.01110,2.74750,-4.55000,0.00000,0.00366,0.96783,-0.22436,2023,6,12,10,1,53,745
0.01120,2.92250,-4.55000,0.00000,0.00537,0.96709,-0.22228,2023,6,12,10,1,53,756
0.01130,2.73000,-4.53250,0.00000,0.00464,0.96868,-0.22521,2023,6,12,10,1,53,767
0.01140,2.64250,-4.46250,0.00000,0.00537,0.96612,-0.22668,2023,6,12,10,1,53,778
0.01150,2.80000,-4.51500,0.00000,0.00610,0.97014,-0.22570,2023,6,12,10,1,53,789
0.01160,2.97500,-4.30500,0.00000,0.00525,0.96941,-0.22350,2023,6,12,10,1,53,800
0.01170,2.83500,-4.53250,0.00000,0.00671,0.96587,-0.22448,2023,6,12,10,1,53,811
0.01180,2.80000,-4.39250,0.00000,0.00830,0.96746,-0.22582,2023,6,12,10,1,53,823
0.01190,2.83500,-4.23500,0.00000,0.00634,0.96868,-0.22411,2023,6,12,10,1,53,834
0.01200,2.57250,-4.41000,0.00000,0.00647,0.96831,-0.22546,2023,6,12,10,1,53,845
0.01210,2.83500,-4.32250,0.00000,0.00622,0.96880,-0.22350,2023,6,12,10,1,53,856
0.01220,2.76500,-4.41000,0.00000,0.00732,0.96905,-0.22460,2023,6,12,10,1,53,867
0.01230,2.80000,-4.65500,0.00000,0.00464,0.96966,-0.22411,2023,6,12,10,1,53,878
0.01240,2.90500,-4.51500,0.00000,0.00622,0.96636,-0.22509,2023,6,12,10,1,53,889
0.01250,2.85250,-4.39250,0.00000,0.00683,0.96758,-0.22521,2023,6,12,10,1,53,900
0.01260,2.85250,-4.72500,0.00000,0.00695,0.97002,-0.22619,2023,6,12,10,1,53,911
0.01270,2.83500,-4.56750,0.00000,0.00891,0.96831,-0.22314,2023,6,12,10,1,53,923
0.01280,2.92250,-4.56750,0.00000,0.00683,0.97051,-0.22411,2023,6,12,10,1,53,934
0.01290,2.69500,-4.30500,0.00000,0.00525,0.96551,-0.22558,2023,6,12,10,1,53,945
0.01300,2.80000,-4.46250,0.00000,0.00329,0.96783,-0.22289,2023,6,12,10,1,53,956
0.01310,2.81750,-4.58500,0.00000,0.00732,0.96892,-0.22472,2023,6,12,10,1,53,967
0.01320,3.09750,-4.49750,0.00000,0.00598,0.96697,-0.22338,2023,6,12,10,1,54,8
0.01330,3.01000,-4.49750,0.00000,0.00720,0.96941,-0.22314,2023,6,12,10,1,54,19
0.01340,2.92250,-4.62000,0.00000,0.00561,0.96746,-0.22521,2023,6,12,10,1,54,30
0.01350,2.81750,-4.49750,0.00000,0.00427,0.96734,-0.22277,2023,6,12,10,1,54,41
0.01360,2.99250,-4.70750,0.00000,0.00647,0.96746,-0.22228,2023,6,12,10,1,54,53
0.01370,2.81750,-4.56750,0.00000,0.00781,0.96795,-0.22533,2023,6,12,10,1,54,64
0.01380,2.90500,-4.53250,0.00000,0.00622,0.96746,-0.22314,2023,6,12,10,1,54,75
0.01390,2.87000,-4.49750,0.00000,0.00647,0.96880,-0.22216,2023,6,12,10,1,54,86
0.01400,2.90500,-4.37500,0.00000,0.00671,0.96856,-0.22387,2023,6,12,10,1,54,97
0.01410,2.78250,-4.49750,0.00000,0.00537,0.96831,-0.22302,2023,6,12,10,1,54,108
0.01420,2.97500,-4.67250,0.00000,0.00598,0.96709,-0.22253,2023,6,12,10,1,54,119
0.01430,2.83500,-4.53250,0.00000,0.00537,0.96795,-0.22302,2023,6,12,10,1,54,130
0.01440,2.73000,-4.46250,0.00000,0.00586,0.96697,-0.22424,2023,6,12,10,1,54,141
0.01450,2.55500,-4.27000,0.00000,0.00573,0.96831,-0.22460,2023,6,12,10,1,54,153
0.01460,2.60750,-4.48000,0.00000,0.00561,0.96880,-0.22533,2023,6,12,10,1,54,164
0.01470,2.15250,-3.93750,0.00000,0.00488,0.96722,-0.22375,2023,6,12,10,1,54,175
0.01480,1.97750,-4.07750,0.00000,0.00634,0.96892,-0.22363,2023,6,12,10,1,54,186
0.01490,1.99500,-3.99000,0.00000,0.01025,0.96831,-0.22228,2023,6,12,10,1,54,197
0.01500,2.24000,-4.14750,0.00000,0.00756,0.96770,-0.22131,2023,6,12,10,1,54,208
0.01510,2.71250,-4.42750,0.00000,0.00891,0.96929,-0.22192,2023,6,12,10,1,54,219
0.01520,3.01000,-4.56750,0.00000,0.00671,0.96831,-0.22655,2023,6,12,10,1,54,230
0.01530,3.23750,-4.62000,0.00000,0.00647,0.96685,-0.22375,2023,6,12,10,1,54,241
0.01540,2.90500,-4.53250,0.00000,0.00622,0.97124,-0.22338,2023,6,12,10,1,54,253
0.01550,2.87000,-4.62000,0.00000,0.00659,0.96807,-0.22338,2023,6,12,10,1,54,264
0.01560,2.97500,-4.53250,0.00000,0.00769,0.96807,-0.22265,2023,6,12,10,1,54,275
0.01570,2.99250,-4.63750,0.00000,0.00610,0.96966,-0.22375,2023,6,12,10,1,54,286
0.01580,2.90500,-4.65500,0.00000,0.00671,0.96868,-0.22167,2023,6,12,10,1,54,297
0.01590,2.88750,-4.69000,0.00000,0.00769,0.96929,-0.22167,2023,6,12,10,1,54,308
0.01600,2.88750,-4.60250,0.00000,0.00561,0.96758,-0.22155,2023,6,12,10,1,54,319
0.01610,2.99250,-4.51500,0.00000,0.00891,0.97051,-0.22241,2023,6,12,10,1,54,330
0.01620,2.85250,-4.41000,0.00000,0.00683,0.96844,-0.22436,2023,6,12,10,1,54,341
0.01630,2.81750,-4.41000,0.00000,0.00586,0.96795,-0.22533,2023,6,12,10,1,54,353
0.01640,3.20250,-4.67250,0.00000,0.00695,0.96978,-0.22485,2023,6,12,10,1,54,364
0.01650,2.85250,-4.51500,0.00000,0.00732,0.97039,-0.22448,2023,6,12,10,1,54,375
0.01660,2.92250,-4.41000,0.00000,0.00525,0.96990,-0.22338,2023,6,12,10,1,54,386
0.01670,3.13250,-4.55000,0.00000,0.00622,0.96905,-0.22167,2023,6,12,10,1,54,397
0.01680,2.80000,-4.70750,0.00000,0.00573,0.96770,-0.22326,2023,6,12,10,1,54,408
0.01690,2.97500,-4.49750,0.00000,0.00610,0.96795,-0.22143,2023,6,12,10,1,54,419
0.01700,2.88750,-4.46250,0.00000,0.00781,0.96868,-0.22265,2023,6,12,10,1,54,430
0.01710,3.01000,-4.67250,0.00000,0.00708,0.96819,-0.22106,2023,6,12,10,1,54,441
0.01720,3.09750,-4.69000,0.00000,0.00720,0.97002,-0.22058,2023,6,12,10,1,54,453
0.01730,3.04500,-4.62000,0.00000,0.00732,0.96880,-0.22375,2023,6,12,10,1,54,464
0.01740,2.88750,-4.56750,0.00000,0.00622,0.96783,-0.22253,2023,6,12,10,1,54,475
0.01750,3.02750,-4.44500,0.00000,0.00744,0.96892,-0.22192,2023,6,12,10,1,54,486
0.01760,2.90500,-4.58500,0.00000,0.00732,0.97027,-0.22253,2023,6,12,10,1,54,497
0.01770,2.83500,-4.39250,0.00000,0.00866,0.96685,-0.22485,2023,6,12,10,1,54,508
0.01780,3.02750,-4.55000,0.00000,0.00659,0.96892,-0.22314,2023,6,12,10,1,54,519
0.01790,2.88750,-4.62000,0.00000,0.00598,0.96758,-0.22180,2023,6,12,10,1,54,530
0.01800,2.92250,-4.63750,0.00000,0.00476,0.96795,-0.22375,2023,6,12,10,1,54,541
0.01810,2.87000,-4.74250,0.00000,0.00866,0.96966,-0.22387,2023,6,12,10,1,54,553
0.01820,2.83500,-4.55000,0.00000,0.00647,0.96697,-0.22265,2023,6,12,10,1,54,564
0.01830,3.18500,-4.56750,0.00000,0.00598,0.96807,-0.22326,2023,6,12,10,1,54,575
0.01840,3.04500,-4.72500,0.00000,0.00817,0.97014,-0.22363,2023,6,12,10,1,54,586
0.01850,3.09750,-4.62000,0.00000,0.00744,0.96807,-0.22326,2023,6,12,10,1,54,597
0.01860,3.11500,-4.70750,0.00000,0.00756,0.96868,-0.22387,2023,6,12,10,1,54,608
0.01870,3.25500,-4.79500,0.00000,0.00769,0.96966,-0.22314,2023,6,12,10,1,54,619
0.01880,3.15000,-4.88250,0.00000,0.00683,0.97112,-0.22424,2023,6,12,10,1,54,630
0.01890,3.18500,-4.69000,0.00000,0.00756,0.96807,-0.22350,2023,6,12,10,1,54,641
0.01900,2.90500,-4.77750,0.00000,0.00561,0.96831,-0.22411,2023,6,12,10,1,54,653
0.01910,3.16750,-4.65500,0.00000,0.00464,0.96990,-0.22448,2023,6,12,10,1,54,664
0.01920,3.09750,-4.81250,0.00000,0.00695,0.96941,-0.22594,2023,6,12,10,1,54,675
0.01930,2.99250,-4.86500,0.00000,0.00537,0.97063,-0.22216,2023,6,12,10,1,54,686
0.01940,3.25500,-4.76000,0.00000,0.00744,0.96892,-0.22277,2023,6,12,10,1,54,697
0.01950,3.67500,-5.05750,0.00000,0.00866,0.96880,-0.22472,2023,6,12,10,1,54,708
0.01960,3.64000,-5.28500,0.00000,0.00525,0.97063,-0.22558,2023,6,12,10,1,54,719
0.01970,3.62250,-5.16250,0.00000,0.00525,0.96770,-0.22485,2023,6,12,10,1,54,730
0.01980,3.57000,-5.07500,0.00000,0.00525,0.96746,-0.22594,2023,6,12,10,1,54,741
0.01990,3.57000,-4.86500,0.00000,0.00622,0.96892,-0.22363,2023,6,12,10,1,54,753
0.02000,3.22000,-4.56750,0.00000,0.00464,0.96783,-0.22472,2023,6,12,10,1,54,764
0.02010,3.06250,-4.53250,0.00000,0.00500,0.96661,-0.22497,2023,6,12,10,1,54,775
0.02020,2.92250,-4.69000,0.00000,0.00561,0.96807,-0.22594,2023,6,12,10,1,54,786
0.02030,3.09750,-4.53250,0.00000,0.00537,0.96636,-0.22375,2023,6,12,10,1,54,797
0.02040,2.73000,-4.42750,0.00000,0.00842,0.96856,-0.22460,2023,6,12,10,1,54,808
0.02050,2.90500,-4.55000,0.00000,0.00769,0.96844,-0.22375,2023,6,12,10,1,54,819
0.02060,2.74750,-4.28750,0.00000,0.00634,0.96892,-0.22411,2023,6,12,10,1,54,830
0.02070,2.53750,-4.51500,0.00000,0.00793,0.97051,-0.22485,2023,6,12,10,1,54,841
0.02080,2.04750,-4.49750,0.00000,0.00500,0.96746,-0.22485,2023,6,12,10,1,54,853
0.02090,1.92500,-4.39250,0.00000,0.00805,0.96941,-0.22253,2023,6,12,10,1,54,864
0.02100,3.27250,-4.67250,0.00000,0.00720,0.96831,-0.22216,2023,6,12,10,1,54,875
0.02110,3.32500,-4.84750,0.00000,0.00488,0.96868,-0.22485,2023,6,12,10,1,54,886
0.02120,3.32500,-4.48000,0.00000,0.00573,0.96734,-0.22497,2023,6,12,10,1,54,897
0.02130,3.22000,-4.51500,0.00000,0.00525,0.96783,-0.22704,2023,6,12,10,1,54,908
0.02140,3.22000,-4.56750,0.00000,0.00488,0.96953,-0.22350,2023,6,12,10,1,54,919
0.02150,3.08000,-4.58500,0.00000,0.00415,0.96356,-0.22521,2023,6,12,10,1,54,930
0.02160,2.38000,-4.30500,0.00000,0.00439,0.96783,-0.22509,2023,6,12,10,1,54,941
0.02170,0.66500,-5.30250,0.00000,0.00525,0.96709,-0.21826,2023,6,12,10,1,54,953
0.02180,2.97500,-4.28750,0.00000,0.01281,0.97161,-0.22680,2023,6,12,10,1,54,964
0.02190,3.06250,-4.69000,0.00000,0.00305,0.96612,-0.22289,2023,6,12,10,1,54,975
0.02200,3.06250,-4.58500,0.00000,0.00561,0.96636,-0.22350,2023,6,12,10,1,55,6
0.02210,3.15000,-4.97000,0.00000,0.00634,0.96856,-0.22424,2023,6,12,10,1,55,17
0.02220,3.25500,-4.86500,0.00000,0.00769,0.96795,-0.22472,2023,6,12,10,1,55,28
0.02230,3.53500,-5.00500,0.00000,0.00537,0.96807,-0.22228,2023,6,12,10,1,55,39
0.02240,3.65750,-5.02250,0.00000,0.00439,0.96661,-0.22314,2023,6,12,10,1,55,50
0.02250,3.30750,-4.93500,0.00000,0.00634,0.96868,-0.22570,2023,6,12,10,1,55,61
0.02260,3.29000,-4.46250,0.00000,0.00464,0.96892,-0.22167,2023,6,12,10,1,55,73
0.02270,3.27250,-4.70750,0.00000,0.00756,0.96953,-0.22448,2023,6,12,10,1,55,84
0.02280,3.27250,-4.79500,0.00000,0.00610,0.97039,-0.22216,2023,6,12,10,1,55,95
0.02290,3.27250,-4.44500,0.00000,0.00598,0.96941,-0.22570,2023,6,12,10,1,55,106
0.02300,3.25500,-4.58500,0.00000,0.00525,0.96600,-0.22375,2023,6,12,10,1,55,117
0.02310,3.30750,-4.74250,0.00000,0.00622,0.96758,-0.22241,2023,6,12,10,1,55,128
0.02320,3.37750,-4.49750,0.00000,0.00415,0.96905,-0.22253,2023,6,12,10,1,55,139
0.02330,3.06250,-4.51500,0.00000,0.00476,0.96795,-0.22582,2023,6,12,10,1,55,150
0.02340,2.92250,-4.69000,0.00000,0.00488,0.96697,-0.22643,2023,6,12,10,1,55,161
0.02350,2.88750,-4.60250,0.00000,0.00207,0.96831,-0.22424,2023,6,12,10,1,55,173
0.02360,1.36500,-4.53250,0.00000,0.00281,0.96734,-0.23290,2023,6,12,10,1,55,184
0.02370,1.12000,-3.85000,0.00000,0.01696,0.97637,-0.22448,2023,6,12,10,1,55,195
0.02380,3.69250,-4.95250,0.00000,0.00793,0.97100,-0.22790,2023,6,12,10,1,55,206
0.02390,3.06250,-4.41000,0.00000,0.00403,0.96673,-0.22692,2023,6,12,10,1,55,217
0.02400,1.26000,-3.99000,0.00000,0.00354,0.97051,-0.21814,2023,6,12,10,1,55,228
0.02410,2.25750,-3.60500,0.00000,0.00830,0.96868,-0.22094,2023,6,12,10,1,55,239
0.02420,3.20250,-4.90000,0.00000,0.00549,0.96746,-0.22265,2023,6,12,10,1,55,250
0.02430,3.11500,-4.51500,0.00000,0.00720,0.97027,-0.22277,2023,6,12,10,1,55,261
0.02440,2.87000,-4.46250,0.00000,0.00525,0.96746,-0.22265,2023,6,12,10,1,55,273
0.02450,2.87000,-4.55000,0.00000,0.00854,0.96966,-0.22363,2023,6,12,10,1,55,284
0.02460,2.88750,-4.53250,0.00000,0.00817,0.96758,-0.22436,2023,6,12,10,1,55,295
0.02470,3.04500,-4.56750,0.00000,0.00671,0.97063,-0.22619,2023,6,12,10,1,55,306
0.02480,3.23750,-4.91750,0.00000,0.00781,0.96905,-0.22533,2023,6,12,10,1,55,317
0.02490,3.37750,-4.58500,0.00000,0.00561,0.96905,-0.22155,2023,6,12,10,1,55,328
0.02500,3.57000,-4.79500,0.00000,0.00549,0.96892,-0.22350,2023,6,12,10,1,55,339
0.02510,2.78250,-4.46250,0.00000,0.00573,0.96758,-0.22460,2023,6,12,10,1,55,350
0.02520,2.90500,-4.60250,0.00000,0.00878,0.96892,-0.22509,2023,6,12,10,1,55,361
0.02530,2.92250,-4.48000,0.00000,0.00817,0.96575,-0.22314,2023,6,12,10,1,55,373
0.02540,2.83500,-4.27000,0.00000,0.00537,0.96697,-0.22363,2023,6,12,10,1,55,384
0.02550,3.27250,-4.65500,0.00000,0.00830,0.96722,-0.22533,2023,6,12,10,1,55,395
0.02560,3.08000,-4.42750,0.00000,0.00549,0.96758,-0.22363,2023,6,12,10,1,55,406
0.02570,3.18500,-4.49750,0.00000,0.00659,0.96844,-0.22680,2023,6,12,10,1,55,417
0.02580,3.15000,-4.63750,0.00000,0.00622,0.96722,-0.22375,2023,6,12,10,1,55,428
0.02590,2.92250,-4.53250,0.00000,0.00622,0.96746,-0.22631,2023,6,12,10,1,55,439
0.02600,2.67750,-4.56750,0.00000,0.00500,0.96917,-0.22643,2023,6,12,10,1,55,450
0.02610,1.90750,-4.62000,0.00000,0.00476,0.96722,-0.21826,2023,6,12,10,1,55,461
0.02620,1.80250,-4.27000,0.00000,0.00891,0.97063,-0.22277,2023,6,12,10,1,55,473
0.02630,3.22000,-4.67250,0.00000,0.00708,0.96807,-0.22472,2023,6,12,10,1,55,484
0.02640,3.20250,-4.56750,0.00000,0.00708,0.96795,-0.22570,2023,6,12,10,1,55,495
0.02650,3.01000,-4.77750,0.00000,0.00561,0.96758,-0.22546,2023,6,12,10,1,55,506
0.02660,3.16750,-4.69000,0.00000,0.00439,0.96709,-0.22582,2023,6,12,10,1,55,517
0.02670,3.51750,-4.65500,0.00000,0.00720,0.96722,-0.22375,2023,6,12,10,1,55,528
0.02680,3.30750,-4.74250,0.00000,0.00549,0.96600,-0.22668,2023,6,12,10,1,55,539
0.02690,2.38000,-4.51500,0.00000,0.00366,0.96770,-0.22899,2023,6,12,10,1,55,550
0.02700,2.95750,-4.46250,0.00000,0.01171,0.96941,-0.21753,2023,6,12,10,1,55,561
0.02710,3.36000,-4.77750,0.00000,0.00573,0.96892,-0.22692,2023,6,12,10,1,55,573
0.02720,3.13250,-4.88250,0.00000,0.00878,0.96624,-0.22436,2023,6,12,10,1,55,584
0.02730,2.94000,-4.49750,0.00000,0.00451,0.96673,-0.22619,2023,6,12,10,1,55,595
0.02740,3.15000,-4.74250,0.00000,0.00756,0.96722,-0.22472,2023,6,12,10,1,55,606
0.02750,3.18500,-4.63750,0.00000,0.00464,0.96490,-0.22253,2023,6,12,10,1,55,617
0.02760,2.88750,-4.56750,0.00000,0.00610,0.96978,-0.22338,2023,6,12,10,1,55,628
0.02770,2.80000,-4.74250,0.00000,0.00769,0.96661,-0.22485,2023,6,12,10,1,55,639
0.02780,3.15000,-4.76000,0.00000,0.00903,0.96722,-0.22338,2023,6,12,10,1,55,650
0.02790,3.30750,-4.55000,0.00000,0.00598,0.96880,-0.22460,2023,6,12,10,1,55,661
0.02800,3.13250,-4.41000,0.00000,0.00610,0.96746,-0.22607,2023,6,12,10,1,55,673
0.02810,2.81750,-4.56750,0.00000,0.00415,0.96917,-0.22533,2023,6,12,10,1,55,684
0.02820,1.92500,-4.51500,0.00000,0.00647,0.96831,-0.22119,2023,6,12,10,1,55,695
0.02830,2.25750,-4.16500,0.00000,0.00647,0.96746,-0.22253,2023,6,12,10,1,55,706
0.02840,2.81750,-4.63750,0.00000,0.00598,0.97088,-0.22338,2023,6,12,10,1,55,717
0.02850,2.85250,-4.69000,0.00000,0.00598,0.96978,-0.22668,2023,6,12,10,1,55,728
0.02860,2.52000,-4.41000,0.00000,0.00842,0.96807,-0.22350,2023,6,12,10,1,55,739
0.02870,2.85250,-4.49750,0.00000,0.00610,0.96697,-0.22765,2023,6,12,10,1,55,750
0.02880,2.95750,-4.74250,0.00000,0.00598,0.96722,-0.22619,2023,6,12,10,1,55,761
0.02890,3.09750,-4.55000,0.00000,0.00708,0.96624,-0.22521,2023,6,12,10,1,55,773
0.02900,2.88750,-4.63750,0.00000,0.00622,0.96880,-0.22411,2023,6,12,10,1,55,784
0.02910,2.87000,-4.48000,0.00000,0.00500,0.96856,-0.22363,2023,6,12,10,1,55,795
0.02920,2.83500,-4.56750,0.00000,0.00586,0.96844,-0.22533,2023,6,12,10,1,55,806
0.02930,2.97500,-4.58500,0.00000,0.00427,0.96722,-0.22521,2023,6,12,10,1,55,817
0.02940,2.85250,-4.48000,0.00000,0.00464,0.96844,-0.22570,2023,6,12,10,1,55,828
0.02950,2.97500,-4.41000,0.00000,0.00744,0.96856,-0.22558,2023,6,12,10,1,55,839
0.02960,2.99250,-4.76000,0.00000,0.00671,0.96795,-0.22509,2023,6,12,10,1,55,850
0.02970,3.08000,-4.72500,0.00000,0.00793,0.96868,-0.22326,2023,6,12,10,1,55,861
0.02980,3.11500,-4.55000,0.00000,0.00964,0.96966,-0.22509,2023,6,12,10,1,55,873
0.02990,2.71250,-4.49750,0.00000,0.00830,0.96819,-0.22387,2023,6,12,10,1,55,884
0.03000,2.80000,-4.56750,0.00000,0.00781,0.96673,-0.22350,2023,6,12,10,1,55,895
0.03010,3.20250,-4.65500,0.00000,0.00732,0.96709,-0.22277,2023,6,12,10,1,55,906
0.03020,3.02750,-4.55000,0.00000,0.00732,0.96905,-0.22387,2023,6,12,10,1,55,917
0.03030,2.92250,-4.58500,0.00000,0.00756,0.96844,-0.22472,2023,6,12,10,1,55,928
0.03040,3.18500,-4.48000,0.00000,0.00622,0.96856,-0.22485,2023,6,12,10,1,55,939
0.03050,2.97500,-4.48000,0.00000,0.00622,0.96746,-0.22533,2023,6,12,10,1,55,950
0.03060,2.85250,-4.44500,0.00000,0.00732,0.97014,-0.22387,2023,6,12,10,1,55,961
0.03070,2.90500,-4.60250,0.00000,0.00366,0.96990,-0.22180,2023,6,12,10,1,55,973
0.03080,2.85250,-4.51500,0.00000,0.00439,0.96856,-0.22314,2023,6,12,10,1,56,4
0.03090,2.94000,-4.48000,0.00000,0.00708,0.96795,-0.22326,2023,6,12,10,1,56,15
0.03100,3.23750,-4.63750,0.00000,0.00659,0.96929,-0.22265,2023,6,12,10,1,56,26
0.03110,2.95750,-4.53250,0.00000,0.00622,0.96770,-0.22472,2023,6,12,10,1,56,37
0.03120,2.85250,-4.58500,0.00000,0.00756,0.97039,-0.22326,2023,6,12,10,1,56,48
0.03130,3.04500,-4.53250,0.00000,0.00488,0.97027,-0.22314,2023,6,12,10,1,56,59
0.03140,2.88750,-4.39250,0.00000,0.00500,0.96709,-0.22265,2023,6,12,10,1,56,70
0.03150,3.01000,-4.55000,0.00000,0.00549,0.96734,-0.22241,2023,6,12,10,1,56,81
0.03160,3.01000,-4.56750,0.00000,0.00622,0.96722,-0.22460,2023,6,12,10,1,56,93
0.03170,2.85250,-4.56750,0.00000,0.00610,0.96966,-0.22253,2023,6,12,10,1,56,104
0.03180,3.02750,-4.55000,0.00000,0.00683,0.96941,-0.22228,2023,6,12,10,1,56,115
0.03190,3.09750,-4.51500,0.00000,0.00720,0.96807,-0.22375,2023,6,12,10,1,56,126
0.03200,2.90500,-4.65500,0.00000,0.00647,0.96953,-0.22436,2023,6,12,10,1,56,137
0.03210,3.01000,-4.76000,0.00000,0.00769,0.96722,-0.22375,2023,6,12,10,1,56,148
0.03220,2.90500,-4.51500,0.00000,0.00720,0.96905,-0.22314,2023,6,12,10,1,56,159
0.03230,2.99250,-4.51500,0.00000,0.00525,0.96600,-0.22180,2023,6,12,10,1,56,170
0.03240,3.22000,-4.44500,0.00000,0.00708,0.96697,-0.22472,2023,6,12,10,1,56,181
0.03250,3.13250,-4.62000,0.00000,0.00769,0.96758,-0.22204,2023,6,12,10,1,56,193
0.03260,3.08000,-4.48000,0.00000,0.00720,0.96819,-0.22277,2023,6,12,10,1,56,204
0.03270,2.88750,-4.63750,0.00000,0.00537,0.96880,-0.22289,2023,6,12,10,1,56,215
0.03280,2.90500,-4.46250,0.00000,0.00695,0.96661,-0.22192,2023,6,12,10,1,56,226
0.03290,2.80000,-4.35750,0.00000,0.00634,0.96648,-0.22277,2023,6,12,10,1,56,237
0.03300,2.83500,-4.69000,0.00000,0.00500,0.96856,-0.22192,2023,6,12,10,1,56,248
0.03310,2.99250,-4.53250,0.00000,0.00695,0.96819,-0.22241,2023,6,12,10,1,56,259
0.03320,2.94000,-4.62000,0.00000,0.00793,0.96673,-0.22546,2023,6,12,10,1,56,270
0.03330,2.94000,-4.76000,0.00000,0.00439,0.96795,-0.22253,2023,6,12,10,1,56,281
0.03340,3.04500,-4.56750,0.00000,0.00647,0.96844,-0.22277,2023,6,12,10,1,56,293
0.03350,3.01000,-4.51500,0.00000,0.00586,0.96892,-0.22241,2023,6,12,10,1,56,304
0.03360,3.02750,-4.56750,0.00000,0.00647,0.96929,-0.22387,2023,6,12,10,1,56,315
0.03370,3.15000,-4.69000,0.00000,0.00329,0.96844,-0.22192,2023,6,12,10,1,56,326
0.03380,2.92250,-4.72500,0.00000,0.00732,0.96856,-0.22277,2023,6,12,10,1,56,337
0.03390,3.02750,-4.51500,0.00000,0.00769,0.96844,-0.22350,2023,6,12,10,1,56,348
0.03400,3.02750,-4.60250,0.00000,0.00634,0.96661,-0.22143,2023,6,12,10,1,56,359
0.03410,2.73000,-4.42750,0.00000,0.00634,0.96661,-0.22155,2023,6,12,10,1,56,370
0.03420,3.09750,-4.48000,0.00000,0.00598,0.96551,-0.22241,2023,6,12,10,1,56,381
0.03430,2.90500,-4.69000,0.00000,0.00610,0.96831,-0.22253,2023,6,12,10,1,56,393
0.03440,2.95750,-4.65500,0.00000,0.00488,0.96734,-0.22314,2023,6,12,10,1,56,404
0.03450,3.20250,-4.63750,0.00000,0.00549,0.96746,-0.22375,2023,6,12,10,1,56,415
0.03460,2.95750,-4.42750,0.00000,0.00622,0.96709,-0.22106,2023,6,12,10,1,56,426
0.03470,2.25750,-4.28750,0.00000,0.00573,0.96746,-0.22314,2023,6,12,10,1,56,437
0.03480,2.29250,-4.44500,0.00000,0.00793,0.97051,-0.22192,2023,6,12,10,1,56,448
0.03490,3.01000,-4.69000,0.00000,0.00634,0.96941,-0.22167,2023,6,12,10,1,56,459
0.03500,2.87000,-4.49750,0.00000,0.00817,0.97039,-0.22509,2023,6,12,10,1,56,470
0.03510,3.02750,-4.72500,0.00000,0.00634,0.96868,-0.22289,2023,6,12,10,1,56,481
0.03520,3.02750,-4.41000,0.00000,0.00622,0.96697,-0.22131,2023,6,12,10,1,56,493
0.03530,2.69500,-4.55000,0.00000,0.00671,0.96783,-0.22155,2023,6,12,10,1,56,504
0.03540,3.09750,-4.60250,0.00000,0.00671,0.96795,-0.22448,2023,6,12,10,1,56,515
0.03550,2.78250,-4.65500,0.00000,0.00720,0.96880,-0.22338,2023,6,12,10,1,56,526
0.03560,2.78250,-4.58500,0.00000,0.00830,0.96941,-0.22411,2023,6,12,10,1,56,537
0.03570,3.06250,-4.60250,0.00000,0.00647,0.96966,-0.22302,2023,6,12,10,1,56,548
0.03580,3.01000,-4.55000,0.00000,0.00830,0.96734,-0.22399,2023,6,12,10,1,56,559
0.03590,2.99250,-4.77750,0.00000,0.00598,0.96770,-0.22045,2023,6,12,10,1,56,570
0.03600,2.94000,-4.46250,0.00000,0.00817,0.96795,-0.22241,2023,6,12,10,1,56,581
0.03610,3.09750,-4.53250,0.00000,0.00610,0.96966,-0.22143,2023,6,12,10,1,56,593
0.03620,2.92250,-4.53250,0.00000,0.00598,0.96929,-0.22265,2023,6,12,10,1,56,604
0.03630,2.88750,-4.63750,0.00000,0.00744,0.96844,-0.22399,2023,6,12,10,1,56,615
0.03640,2.64250,-4.55000,0.00000,0.00659,0.96783,-0.22387,2023,6,12,10,1,56,626
0.03650,2.64250,-4.39250,0.00000,0.00537,0.96892,-0.22460,2023,6,12,10,1,56,637
0.03660,2.85250,-4.55000,0.00000,0.00781,0.96539,-0.22265,2023,6,12,10,1,56,648
0.03670,2.73000,-4.16500,0.00000,0.00671,0.97100,-0.22082,2023,6,12,10,1,56,659
0.03680,2.74750,-4.48000,0.00000,0.00805,0.96844,-0.22216,2023,6,12,10,1,56,670
0.03690,2.55500,-4.44500,0.00000,0.00634,0.96892,-0.22326,2023,6,12,10,1,56,681
0.03700,2.94000,-4.46250,0.00000,0.00854,0.96953,-0.22338,2023,6,12,10,1,56,693
0.03710,2.95750,-4.55000,0.00000,0.00683,0.96746,-0.22155,2023,6,12,10,1,56,704
0.03720,3.09750,-4.41000,0.00000,0.00793,0.96783,-0.22326,2023,6,12,10,1,56,715
0.03730,2.97500,-4.42750,0.00000,0.00695,0.96673,-0.22167,2023,6,12,10,1,56,726
0.03740,3.01000,-4.81250,0.00000,0.00732,0.96990,-0.22485,2023,6,12,10,1,56,737
0.03750,2.95750,-4.53250,0.00000,0.00573,0.96892,-0.22192,2023,6,12,10,1,56,748
0.03760,2.99250,-4.53250,0.00000,0.00573,0.97051,-0.22106,2023,6,12,10,1,56,759
0.03770,2.83500,-4.46250,0.00000,0.00610,0.96673,-0.22253,2023,6,12,10,1,56,770
0.03780,2.87000,-4.77750,0.00000,0.00891,0.96917,-0.22094,2023,6,12,10,1,56,781
0.03790,3.02750,-4.72500,0.00000,0.00415,0.96880,-0.22338,2023,6,12,10,1,56,793
0.03800,2.95750,-4.41000,0.00000,0.00634,0.96746,-0.22216,2023,6,12,10,1,56,804
0.03810,3.01000,-4.44500,0.00000,0.00720,0.96978,-0.22119,2023,6,12,10,1,56,815
0.03820,2.97500,-4.63750,0.00000,0.00586,0.96795,-0.22180,2023,6,12,10,1,56,826
0.03830,2.95750,-4.74250,0.00000,0.00671,0.96844,-0.22338,2023,6,12,10,1,56,837
0.03840,2.85250,-4.53250,0.00000,0.00586,0.97051,-0.22399,2023,6,12,10,1,56,848
0.03850,2.97500,-4.55000,0.00000,0.00781,0.96807,-0.22265,2023,6,12,10,1,56,859
0.03860,2.97500,-4.56750,0.00000,0.00769,0.96844,-0.22448,2023,6,12,10,1,56,870
0.03870,2.90500,-4.44500,0.00000,0.00732,0.96783,-0.22424,2023,6,12,10,1,56,881
0.03880,2.88750,-4.37500,0.00000,0.00647,0.96978,-0.22131,2023,6,12,10,1,56,893
0.03890,2.94000,-4.58500,0.00000,0.00744,0.96746,-0.22155,2023,6,12,10,1,56,904
0.03900,3.23750,-4.55000,0.00000,0.00647,0.97100,-0.22314,2023,6,12,10,1,56,915
0.03910,3.06250,-4.53250,0.00000,0.00988,0.96746,-0.22228,2023,6,12,10,1,56,926
0.03920,3.02750,-4.42750,0.00000,0.00586,0.96953,-0.22167,2023,6,12,10,1,56,937
0.03930,2.74750,-4.60250,0.00000,0.00695,0.96722,-0.22326,2023,6,12,10,1,56,948
0.03940,2.92250,-4.56750,0.00000,0.00561,0.96539,-0.22533,2023,6,12,10,1,56,959
0.03950,2.97500,-4.49750,0.00000,0.00488,0.97088,-0.22180,2023,6,12,10,1,57,0
0.03960,2.97500,-4.56750,0.00000,0.00671,0.96600,-0.22106,2023,6,12,10,1,57,11
0.03970,2.80000,-4.42750,0.00000,0.00610,0.96673,-0.22363,2023,6,12,10,1,57,23
0.03980,2.78250,-4.42750,0.00000,0.00830,0.96856,-0.22448,2023,6,12,10,1,57,34
0.03990,2.88750,-4.53250,0.00000,0.00720,0.96990,-0.22180,2023,6,12,10,1,57,45
0.04000,2.92250,-4.56750,0.00000,0.00817,0.96929,-0.22399,2023,6,12,10,1,57,56
0.04010,2.85250,-4.41000,0.00000,0.00695,0.96770,-0.22375,2023,6,12,10,1,57,67
0.04020,3.18500,-4.58500,0.00000,0.00573,0.96795,-0.22363,2023,6,12,10,1,57,78
0.04030,3.22000,-4.49750,0.00000,0.00793,0.96856,-0.22289,2023,6,12,10,1,57,89
0.04040,3.23750,-4.63750,0.00000,0.00659,0.96856,-0.22399,2023,6,12,10,1,57,100
0.04050,3.20250,-4.77750,0.00000,0.00659,0.96673,-0.22180,2023,6,12,10,1,57,111
0.04060,3.20250,-4.60250,0.00000,0.00683,0.96734,-0.22546,2023,6,12,10,1,57,123
0.04070,2.97500,-4.60250,0.00000,0.00537,0.96709,-0.22314,2023,6,12,10,1,57,134
0.04080,2.62500,-4.39250,0.00000,0.00683,0.96783,-0.22558,2023,6,12,10,1,57,145
0.04090,2.83500,-4.56750,0.00000,0.00793,0.96856,-0.22253,2023,6,12,10,1,57,156
0.04100,3.01000,-4.60250,0.00000,0.00695,0.96953,-0.22338,2023,6,12,10,1,57,167
0.04110,2.97500,-4.44500,0.00000,0.00659,0.96917,-0.22424,2023,6,12,10,1,57,178
0.04120,2.92250,-4.48000,0.00000,0.00769,0.96953,-0.22326,2023,6,12,10,1,57,189
0.04130,2.92250,-4.70750,0.00000,0.00720,0.96966,-0.22411,2023,6,12,10,1,57,200
0.04140,2.99250,-4.58500,0.00000,0.00842,0.96966,-0.22277,2023,6,12,10,1,57,211
0.04150,3.20250,-4.76000,0.00000,0.00500,0.96844,-0.22228,2023,6,12,10,1,57,223
0.04160,2.99250,-4.58500,0.00000,0.00915,0.96929,-0.22375,2023,6,12,10,1,57,234
0.04170,2.90500,-4.41000,0.00000,0.00732,0.96673,-0.22363,2023,6,12,10,1,57,245
0.04180,3.06250,-4.67250,0.00000,0.00403,0.96917,-0.22302,2023,6,12,10,1,57,256
0.04190,2.78250,-4.53250,0.00000,0.00708,0.96868,-0.22314,2023,6,12,10,1,57,267
0.04200,2.71250,-4.44500,0.00000,0.00708,0.96856,-0.22363,2023,6,12,10,1,57,278
0.04210,2.95750,-4.46250,0.00000,0.00659,0.97027,-0.22533,2023,6,12,10,1,57,289
0.04220,2.90500,-4.35750,0.00000,0.00891,0.96831,-0.22375,2023,6,12,10,1,57,300
0.04230,3.06250,-4.62000,0.00000,0.00878,0.96917,-0.22729,2023,6,12,10,1,57,311
0.04240,3.01000,-4.72500,0.00000,0.00720,0.96697,-0.22265,2023,6,12,10,1,57,323
0.04250,3.06250,-4.56750,0.00000,0.00830,0.96770,-0.22485,2023,6,12,10,1,57,334
0.04260,3.23750,-4.72500,0.00000,0.00512,0.96917,-0.22546,2023,6,12,10,1,57,345
0.04270,3.09750,-4.56750,0.00000,0.00659,0.96856,-0.22216,2023,6,12,10,1,57,356
0.04280,2.94000,-4.58500,0.00000,0.00842,0.96941,-0.22485,2023,6,12,10,1,57,367
0.04290,2.94000,-4.58500,0.00000,0.00720,0.96905,-0.22472,2023,6,12,10,1,57,378
0.04300,2.85250,-4.42750,0.00000,0.00817,0.96990,-0.22607,2023,6,12,10,1,57,389
0.04310,2.85250,-4.53250,0.00000,0.00695,0.97039,-0.22497,2023,6,12,10,1,57,400
0.04320,2.92250,-4.58500,0.00000,0.00927,0.96636,-0.22448,2023,6,12,10,1,57,411
0.04330,2.76500,-4.58500,0.00000,0.00793,0.96844,-0.22765,2023,6,12,10,1,57,423
0.04340,2.73000,-4.48000,0.00000,0.00598,0.96929,-0.22411,2023,6,12,10,1,57,434
0.04350,3.02750,-4.39250,0.00000,0.00622,0.96953,-0.22485,2023,6,12,10,1,57,445
0.04360,2.95750,-4.60250,0.00000,0.00610,0.96941,-0.22497,2023,6,12,10,1,57,456
0.04370,2.94000,-4.46250,0.00000,0.00695,0.96807,-0.22436,2023,6,12,10,1,57,467
0.04380,2.95750,-4.65500,0.00000,0.00720,0.96819,-0.22533,2023,6,12,10,1,57,478
0.04390,3.04500,-4.60250,0.00000,0.00610,0.96856,-0.22521,2023,6,12,10,1,57,489
0.04400,3.01000,-4.63750,0.00000,0.00830,0.96807,-0.22497,2023,6,12,10,1,57,500
0.04410,2.76500,-4.55000,0.00000,0.00671,0.96856,-0.22448,2023,6,12,10,1,57,511
0.04420,2.81750,-4.30500,0.00000,0.00842,0.96819,-0.22521,2023,6,12,10,1,57,523
0.04430,2.85250,-4.67250,0.00000,0.00732,0.96953,-0.22302,2023,6,12,10,1,57,534
0.04440,2.80000,-4.28750,0.00000,0.00610,0.97063,-0.22204,2023,6,12,10,1,57,545
0.04450,2.73000,-4.55000,0.00000,0.00647,0.96966,-0.22680,2023,6,12,10,1,57,556
0.04460,2.74750,-4.60250,0.00000,0.00451,0.97051,-0.22533,2023,6,12,10,1,57,567
0.04470,2.74750,-4.32250,0.00000,0.00732,0.96551,-0.22472,2023,6,12,10,1,57,578
0.04480,2.78250,-4.65500,0.00000,0.00549,0.96892,-0.22692,2023,6,12,10,1,57,589
0.04490,2.99250,-4.62000,0.00000,0.00622,0.96905,-0.22472,2023,6,12,10,1,57,600
0.04500,2.90500,-4.51500,0.00000,0.00415,0.96966,-0.22302,2023,6,12,10,1,57,611
0.04510,2.76500,-4.42750,0.00000,0.00732,0.96978,-0.22289,2023,6,12,10,1,57,623
0.04520,2.92250,-4.55000,0.00000,0.00866,0.96758,-0.22289,2023,6,12,10,1,57,634
0.04530,3.08000,-4.46250,0.00000,0.00781,0.96734,-0.22424,2023,6,12,10,1,57,645
0.04540,2.92250,-4.42750,0.00000,0.00683,0.96697,-0.22387,2023,6,12,10,1,57,656
0.04550,2.88750,-4.53250,0.00000,0.00610,0.96648,-0.22448,2023,6,12,10,1,57,667
0.04560,3.04500,-4.58500,0.00000,0.00488,0.96844,-0.22338,2023,6,12,10,1,57,678
0.04570,2.92250,-4.58500,0.00000,0.00598,0.96758,-0.22485,2023,6,12,10,1,57,689
0.04580,2.66000,-4.28750,0.00000,0.00769,0.96697,-0.22521,2023,6,12,10,1,57,700
0.04590,2.78250,-4.46250,0.00000,0.00659,0.96917,-0.22375,2023,6,12,10,1,57,711
0.04600,2.99250,-4.49750,0.00000,0.00683,0.96831,-0.22472,2023,6,12,10,1,57,723
0.04610,2.88750,-4.56750,0.00000,0.00756,0.96807,-0.22180,2023,6,12,10,1,57,734
0.04620,2.83500,-4.62000,0.00000,0.00769,0.96831,-0.22472,2023,6,12,10,1,57,745
0.04630,2.99250,-4.53250,0.00000,0.00854,0.96880,-0.22399,2023,6,12,10,1,57,756
0.04640,2.76500,-4.44500,0.00000,0.00647,0.96966,-0.22546,2023,6,12,10,1,57,767
0.04650,2.81750,-4.55000,0.00000,0.00769,0.96892,-0.22460,2023,6,12,10,1,57,778
0.04660,2.83500,-4.44500,0.00000,0.00964,0.96917,-0.22326,2023,6,12,10,1,57,789
0.04670,2.83500,-4.58500,0.00000,0.00769,0.96917,-0.22424,2023,6,12,10,1,57,800
0.04680,2.73000,-4.23500,0.00000,0.00878,0.96905,-0.22350,2023,6,12,10,1,57,811
0.04690,2.78250,-4.53250,0.00000,0.00634,0.97112,-0.22460,2023,6,12,10,1,57,823
0.04700,2.80000,-4.44500,0.00000,0.00708,0.96905,-0.22277,2023,6,12,10,1,57,834
0.04710,2.73000,-4.63750,0.00000,0.00805,0.96709,-0.22228,2023,6,12,10,1,57,845
0.04720,2.87000,-4.51500,0.00000,0.00573,0.97063,-0.22558,2023,6,12,10,1,57,856
0.04730,2.78250,-4.53250,0.00000,0.00732,0.96917,-0.22607,2023,6,12,10,1,57,867
0.04740,2.87000,-4.37500,0.00000,0.00842,0.96880,-0.22582,2023,6,12,10,1,57,878
0.04750,2.88750,-4.55000,0.00000,0.00793,0.96905,-0.22363,2023,6,12,10,1,57,889
0.04760,2.90500,-4.46250,0.00000,0.00671,0.96831,-0.22570,2023,6,12,10,1,57,900
0.04770,2.90500,-4.60250,0.00000,0.00805,0.96856,-0.22155,2023,6,12,10,1,57,911
0.04780,2.85250,-4.62000,0.00000,0.00695,0.96819,-0.22033,2023,6,12,10,1,57,923
0.04790,2.92250,-4.72500,0.00000,0.00549,0.96941,-0.22326,2023,6,12,10,1,57,934
0.04800,2.81750,-4.55000,0.00000,0.00769,0.96709,-0.22277,2023,6,12,10,1,57,945
0.04810,2.81750,-4.53250,0.00000,0.00695,0.96600,-0.22277,2023,6,12,10,1,57,956
0.04820,2.90500,-4.51500,0.00000,0.00805,0.96978,-0.22350,2023,6,12,10,1,57,967
0.04830,2.87000,-4.60250,0.00000,0.01098,0.97051,-0.22436,2023,6,12,10,1,57,978
0.04840,2.87000,-4.35750,0.00000,0.01074,0.96941,-0.22448,2023,6,12,10,1,58,9
0.04850,2.92250,-4.60250,0.00000,0.00512,0.96734,-0.22436,2023,6,12,10,1,58,20
0.04860,3.04500,-4.41000,0.00000,0.00805,0.97075,-0.22289,2023,6,12,10,1,58,31
0.04870,2.90500,-4.69000,0.00000,0.00500,0.96856,-0.22619,2023,6,12,10,1,58,43
0.04880,3.01000,-4.70750,0.00000,0.00659,0.96868,-0.22594,2023,6,12,10,1,58,54
0.04890,2.85250,-4.62000,0.00000,0.00525,0.96795,-0.22546,2023,6,12,10,1,58,65
0.04900,2.95750,-4.67250,0.00000,0.00952,0.96966,-0.22411,2023,6,12,10,1,58,76
0.04910,2.88750,-4.42750,0.00000,0.00769,0.96905,-0.22436,2023,6,12,10,1,58,87
0.04920,2.90500,-4.55000,0.00000,0.00866,0.96856,-0.22436,2023,6,12,10,1,58,98
0.04930,2.88750,-4.37500,0.00000,0.00854,0.96636,-0.22448,2023,6,12,10,1,58,109
0.04940,2.90500,-4.60250,0.00000,0.00732,0.96978,-0.22424,2023,6,12,10,1,58,120
0.04950,2.80000,-4.42750,0.00000,0.00695,0.96844,-0.22399,2023,6,12,10,1,58,131
0.04960,2.97500,-4.70750,0.00000,0.00781,0.96941,-0.22363,2023,6,12,10,1,58,143
0.04970,2.80000,-4.67250,0.00000,0.00634,0.97051,-0.22326,2023,6,12,10,1,58,154
0.04980,2.78250,-4.58500,0.00000,0.00830,0.96795,-0.22448,2023,6,12,10,1,58,165
0.04990,2.81750,-4.53250,0.00000,0.00903,0.96868,-0.22094,2023,6,12,10,1,58,176
0.05000,2.78250,-4.53250,0.00000,0.01000,0.96819,-0.22436,2023,6,12,10,1,58,187
0.05010,2.80000,-4.42750,0.00000,0.00634,0.96905,-0.22485,2023,6,12,10,1,58,198
0.05020,2.97500,-4.51500,0.00000,0.00830,0.96868,-0.22314,2023,6,12,10,1,58,209
0.05030,3.02750,-4.76000,0.00000,0.00683,0.97039,-0.22350,2023,6,12,10,1,58,220
0.05040,3.02750,-4.67250,0.00000,0.00781,0.96831,-0.22533,2023,6,12,10,1,58,231
0.05050,2.92250,-4.62000,0.00000,0.00830,0.96941,-0.22436,2023,6,12,10,1,58,243
0.05060,2.83500,-4.51500,0.00000,0.00537,0.96966,-0.22302,2023,6,12,10,1,58,254
0.05070,2.88750,-4.49750,0.00000,0.00683,0.96722,-0.22326,2023,6,12,10,1,58,265
0.05080,3.02750,-4.62000,0.00000,0.00573,0.96746,-0.22411,2023,6,12,10,1,58,276
0.05090,2.92250,-4.56750,0.00000,0.00805,0.96844,-0.22387,2023,6,12,10,1,58,287
0.05100,3.04500,-4.51500,0.00000,0.00610,0.96807,-0.22436,2023,6,12,10,1,58,298
0.05110,2.88750,-4.46250,0.00000,0.00732,0.96661,-0.22265,2023,6,12,10,1,58,309
0.05120,2.88750,-4.44500,0.00000,0.00744,0.97088,-0.22070,2023,6,12,10,1,58,320
0.05130,2.71250,-4.53250,0.00000,0.00720,0.97051,-0.22180,2023,6,12,10,1,58,331
0.05140,2.92250,-4.62000,0.00000,0.00866,0.96880,-0.22216,2023,6,12,10,1,58,343
0.05150,2.92250,-4.55000,0.00000,0.00927,0.96929,-0.22302,2023,6,12,10,1,58,354
0.05160,3.02750,-4.62000,0.00000,0.00781,0.96966,-0.22277,2023,6,12,10,1,58,365
0.05170,2.87000,-4.44500,0.00000,0.00549,0.96868,-0.22289,2023,6,12,10,1,58,376
0.05180,3.01000,-4.77750,0.00000,0.00769,0.97063,-0.22228,2023,6,12,10,1,58,387
0.05190,2.95750,-4.70750,0.00000,0.00671,0.96941,-0.22411,2023,6,12,10,1,58,398
0.05200,2.99250,-4.48000,0.00000,0.00854,0.96941,-0.22241,2023,6,12,10,1,58,409
0.05210,2.90500,-4.51500,0.00000,0.00878,0.96831,-0.22326,2023,6,12,10,1,58,420
0.05220,3.06250,-4.58500,0.00000,0.00549,0.96783,-0.22399,2023,6,12,10,1,58,431
0.05230,2.87000,-4.51500,0.00000,0.00842,0.96978,-0.22399,2023,6,12,10,1,58,443
0.05240,2.81750,-4.55000,0.00000,0.00817,0.96709,-0.22277,2023,6,12,10,1,58,454
0.05250,2.83500,-4.37500,0.00000,0.00732,0.96880,-0.22302,2023,6,12,10,1,58,465
0.05260,2.87000,-4.56750,0.00000,0.00830,0.96978,-0.22253,2023,6,12,10,1,58,476
0.05270,2.73000,-4.63750,0.00000,0.00720,0.96807,-0.22204,2023,6,12,10,1,58,487
0.05280,2.85250,-4.28750,0.00000,0.00854,0.96929,-0.22521,2023,6,12,10,1,58,498
0.05290,2.88750,-4.62000,0.00000,0.00891,0.96746,-0.22399,2023,6,12,10,1,58,509
0.05300,2.78250,-4.39250,0.00000,0.00647,0.97088,-0.22399,2023,6,12,10,1,58,520
0.05310,2.97500,-4.60250,0.00000,0.00952,0.96746,-0.22314,2023,6,12,10,1,58,531
0.05320,2.80000,-4.44500,0.00000,0.00622,0.96978,-0.22228,2023,6,12,10,1,58,543
0.05330,2.71250,-4.51500,0.00000,0.00756,0.97027,-0.22277,2023,6,12,10,1,58,554
0.05340,2.80000,-4.69000,0.00000,0.00622,0.97014,-0.22253,2023,6,12,10,1,58,565
0.05350,2.90500,-4.32250,0.00000,0.00732,0.96953,-0.22094,2023,6,12,10,1,58,576
0.05360,2.88750,-4.63750,0.00000,0.00769,0.96917,-0.22314,2023,6,12,10,1,58,587
0.05370,2.76500,-4.55000,0.00000,0.00647,0.96734,-0.22314,2023,6,12,10,1,58,598
0.05380,2.92250,-4.60250,0.00000,0.00683,0.96746,-0.22558,2023,6,12,10,1,58,609
0.05390,2.81750,-4.55000,0.00000,0.00598,0.96953,-0.22350,2023,6,12,10,1,58,620
0.05400,2.76500,-4.42750,0.00000,0.00671,0.97051,-0.22119,2023,6,12,10,1,58,631
0.05410,2.90500,-4.56750,0.00000,0.00537,0.96856,-0.22241,2023,6,12,10,1,58,643
0.05420,2.90500,-4.77750,0.00000,0.00695,0.96905,-0.22399,2023,6,12,10,1,58,654
0.05430,3.15000,-4.48000,0.00000,0.00793,0.96941,-0.22314,2023,6,12,10,1,58,665
0.05440,2.59000,-4.69000,0.00000,0.00683,0.96929,-0.22192,2023,6,12,10,1,58,676
0.05450,2.85250,-4.53250,0.00000,0.00805,0.96844,-0.22387,2023,6,12,10,1,58,687
0.05460,2.59000,-4.32250,0.00000,0.00952,0.96624,-0.22436,2023,6,12,10,1,58,698
0.05470,2.94000,-4.42750,0.00000,0.00500,0.96746,-0.22314,2023,6,12,10,1,58,709
0.05480,2.90500,-4.37500,0.00000,0.00756,0.96978,-0.22387,2023,6,12,10,1,58,720
0.05490,2.74750,-4.63750,0.00000,0.00671,0.97075,-0.22546,2023,6,12,10,1,58,731
0.05500,2.78250,-4.55000,0.00000,0.00720,0.96783,-0.22119,2023,6,12,10,1,58,743
0.05510,3.02750,-4.83000,0.00000,0.01049,0.96819,-0.21850,2023,6,12,10,1,58,754
0.05520,3.01000,-4.46250,0.00000,0.01025,0.96734,-0.22289,2023,6,12,10,1,58,765
0.05530,2.80000,-4.46250,0.00000,0.00500,0.96709,-0.22131,2023,6,12,10,1,58,776
0.05540,2.81750,-4.51500,0.00000,0.00878,0.96819,-0.22241,2023,6,12,10,1,58,787
0.05550,2.74750,-4.63750,0.00000,0.00647,0.96892,-0.22399,2023,6,12,10,1,58,798
0.05560,2.99250,-4.62000,0.00000,0.00732,0.96673,-0.22228,2023,6,12,10,1,58,809
0.05570,2.87000,-4.55000,0.00000,0.01000,0.96807,-0.22387,2023,6,12,10,1,58,820
0.05580,2.81750,-4.51500,0.00000,0.00793,0.96990,-0.22302,2023,6,12,10,1,58,831
0.05590,2.74750,-4.41000,0.00000,0.00842,0.96734,-0.22277,2023,6,12,10,1,58,843
0.05600,3.01000,-4.60250,0.00000,0.00769,0.96819,-0.22033,2023,6,12,10,1,58,854
0.05610,2.95750,-4.48000,0.00000,0.00842,0.96844,-0.22216,2023,6,12,10,1,58,865
0.05620,2.74750,-4.51500,0.00000,0.00683,0.96868,-0.22131,2023,6,12,10,1,58,876
0.05630,2.76500,-4.60250,0.00000,0.00732,0.97051,-0.22180,2023,6,12,10,1,58,887
0.05640,2.67750,-4.46250,0.00000,0.00732,0.97051,-0.22119,2023,6,12,10,1,58,898
0.05650,2.60750,-4.34000,0.00000,0.00781,0.97075,-0.22228,2023,6,12,10,1,58,909
0.05660,2.66000,-4.02500,0.00000,0.00756,0.96905,-0.22326,2023,6,12,10,1,58,920
0.05670,2.59000,-4.21750,0.00000,0.00744,0.96953,-0.22216,2023,6,12,10,1,58,931
0.05680,2.94000,-4.39250,0.00000,0.00988,0.96892,-0.22326,2023,6,12,10,1,58,943
0.05690,2.83500,-4.69000,0.00000,0.00952,0.96978,-0.21948,2023,6,12,10,1,58,954
0.05700,2.95750,-4.70750,0.00000,0.00878,0.96990,-0.22228,2023,6,12,10,1,59,5
0.05710,3.09750,-4.69000,0.00000,0.00830,0.96941,-0.22033,2023,6,12,10,1,59,16
0.05720,2.83500,-4.56750,0.00000,0.00756,0.96966,-0.22277,2023,6,12,10,1,59,27
0.05730,2.95750,-4.51500,0.00000,0.00842,0.96929,-0.22216,2023,6,12,10,1,59,38
0.05740,2.92250,-4.67250,0.00000,0.00659,0.96831,-0.22387,2023,6,12,10,1,59,49
0.05750,2.74750,-4.35750,0.00000,0.00866,0.96892,-0.22338,2023,6,12,10,1,59,60
0.05760,2.83500,-4.67250,0.00000,0.00744,0.96953,-0.22314,2023,6,12,10,1,59,71
0.05770,2.99250,-4.39250,0.00000,0.00842,0.96734,-0.22180,2023,6,12,10,1,59,83
0.05780,2.74750,-4.55000,0.00000,0.00842,0.96746,-0.22302,2023,6,12,10,1,59,94
0.05790,2.69500,-4.39250,0.00000,0.00805,0.96929,-0.22204,2023,6,12,10,1,59,105
0.05800,2.88750,-4.42750,0.00000,0.00756,0.96892,-0.22436,2023,6,12,10,1,59,116
0.05810,2.78250,-4.48000,0.00000,0.00793,0.96990,-0.22314,2023,6,12,10,1,59,127
0.05820,2.94000,-4.74250,0.00000,0.00769,0.96953,-0.22143,2023,6,12,10,1,59,138
0.05830,2.95750,-4.69000,0.00000,0.00793,0.96941,-0.21960,2023,6,12,10,1,59,149
0.05840,3.04500,-4.51500,0.00000,0.00622,0.96929,-0.22204,2023,6,12,10,1,59,160
0.05850,2.88750,-4.39250,0.00000,0.00708,0.97027,-0.22094,2023,6,12,10,1,59,171
0.05860,3.01000,-4.55000,0.00000,0.00720,0.96746,-0.22192,2023,6,12,10,1,59,183
0.05870,2.92250,-4.84750,0.00000,0.00549,0.96612,-0.22228,2023,6,12,10,1,59,194
0.05880,2.83500,-4.56750,0.00000,0.00732,0.96587,-0.22192,2023,6,12,10,1,59,205
0.05890,3.01000,-4.48000,0.00000,0.00708,0.96892,-0.22119,2023,6,12,10,1,59,216
0.05900,3.01000,-4.63750,0.00000,0.00866,0.96892,-0.22155,2023,6,12,10,1,59,227
0.05910,3.11500,-4.51500,0.00000,0.00842,0.96844,-0.22314,2023,6,12,10,1,59,238
0.05920,2.99250,-4.63750,0.00000,0.00891,0.97014,-0.22082,2023,6,12,10,1,59,249
0.05930,3.16750,-4.60250,0.00000,0.01049,0.96746,-0.22106,2023,6,12,10,1,59,260
0.05940,3.22000,-4.53250,0.00000,0.00659,0.97063,-0.22265,2023,6,12,10,1,59,271
0.05950,3.06250,-4.53250,0.00000,0.00756,0.96783,-0.22082,2023,6,12,10,1,59,283
0.05960,2.85250,-4.60250,0.00000,0.00769,0.96978,-0.22241,2023,6,12,10,1,59,294
0.05970,3.20250,-4.77750,0.00000,0.00927,0.97002,-0.22155,2023,6,12,10,1,59,305
0.05980,3.25500,-4.58500,0.00000,0.01000,0.96661,-0.22314,2023,6,12,10,1,59,316
0.05990,3.15000,-4.58500,0.00000,0.00659,0.97002,-0.22167,2023,6,12,10,1,59,327
0.06000,2.95750,-4.56750,0.00000,0.00708,0.96880,-0.22119,2023,6,12,10,1,59,338
0.06010,2.85250,-4.76000,0.00000,0.01013,0.96770,-0.22265,2023,6,12,10,1,59,349
0.06020,3.16750,-4.63750,0.00000,0.00793,0.96758,-0.22192,2023,6,12,10,1,59,360
0.06030,3.50000,-4.77750,0.00000,0.00720,0.96819,-0.22216,2023,6,12,10,1,59,371
0.06040,3.55250,-4.93500,0.00000,0.00866,0.97027,-0.22314,2023,6,12,10,1,59,383
0.06050,3.85000,-5.21500,0.00000,0.00866,0.96978,-0.22277,2023,6,12,10,1,59,394
0.06060,3.88500,-5.04000,0.00000,0.00756,0.97027,-0.22143,2023,6,12,10,1,59,405
0.06070,3.50000,-4.72500,0.00000,0.00476,0.96844,-0.22533,2023,6,12,10,1,59,416
0.06080,3.39500,-5.04000,0.00000,0.00842,0.96880,-0.22350,2023,6,12,10,1,59,427
0.06090,3.15000,-4.86500,0.00000,0.00720,0.96905,-0.22302,2023,6,12,10,1,59,438
0.06100,3.04500,-4.46250,0.00000,0.00659,0.96697,-0.22167,2023,6,12,10,1,59,449
0.06110,3.11500,-4.70750,0.00000,0.00842,0.97014,-0.22241,2023,6,12,10,1,59,460
0.06120,3.22000,-4.60250,0.00000,0.00671,0.96770,-0.22399,2023,6,12,10,1,59,471
0.06130,3.16750,-4.72500,0.00000,0.00756,0.96831,-0.22387,2023,6,12,10,1,59,483
0.06140,3.27250,-4.44500,0.00000,0.00622,0.96575,-0.22228,2023,6,12,10,1,59,494
0.06150,3.15000,-4.48000,0.00000,0.00659,0.96636,-0.22326,2023,6,12,10,1,59,505
0.06160,3.44750,-4.88250,0.00000,0.00842,0.96758,-0.22350,2023,6,12,10,1,59,516
0.06170,3.04500,-4.44500,0.00000,0.00854,0.96880,-0.22289,2023,6,12,10,1,59,527
0.06180,3.15000,-4.51500,0.00000,0.00756,0.96831,-0.22302,2023,6,12,10,1,59,538
0.06190,3.02750,-4.67250,0.00000,0.00842,0.97063,-0.22350,2023,6,12,10,1,59,549
0.06200,3.44750,-4.60250,0.00000,0.00720,0.96917,-0.22668,2023,6,12,10,1,59,560
0.06210,3.16750,-4.65500,0.00000,0.00451,0.97051,-0.22228,2023,6,12,10,1,59,571
0.06220,2.97500,-4.42750,0.00000,0.00781,0.96648,-0.22277,2023,6,12,10,1,59,583
0.06230,3.04500,-4.72500,0.00000,0.00683,0.97075,-0.22192,2023,6,12,10,1,59,594
0.06240,3.02750,-4.49750,0.00000,0.00781,0.96905,-0.22314,2023,6,12,10,1,59,605
0.06250,3.01000,-4.88250,0.00000,0.00708,0.96819,-0.22375,2023,6,12,10,1,59,616
0.06260,2.80000,-4.44500,0.00000,0.00891,0.96941,-0.22253,2023,6,12,10,1,59,627
0.06270,3.08000,-4.62000,0.00000,0.00842,0.97039,-0.22436,2023,6,12,10,1,59,638
0.06280,2.97500,-4.51500,0.00000,0.00537,0.97002,-0.22472,2023,6,12,10,1,59,649
0.06290,2.80000,-4.60250,0.00000,0.00793,0.96563,-0.22619,2023,6,12,10,1,59,660
0.06300,2.97500,-4.39250,0.00000,0.00842,0.97027,-0.22241,2023,6,12,10,1,59,671
0.06310,3.08000,-4.69000,0.00000,0.00671,0.96880,-0.22302,2023,6,12,10,1,59,683
0.06320,2.85250,-4.44500,0.00000,0.00634,0.96905,-0.22314,2023,6,12,10,1,59,694
0.06330,3.08000,-4.67250,0.00000,0.00988,0.96941,-0.22241,2023,6,12,10,1,59,705
0.06340,2.90500,-4.37500,0.00000,0.00647,0.97075,-0.22375,2023,6,12,10,1,59,716
0.06350,3.06250,-4.51500,0.00000,0.00671,0.96856,-0.22582,2023,6,12,10,1,59,727
0.06360,2.99250,-4.60250,0.00000,0.00647,0.96880,-0.22497,2023,6,12,10,1,59,738
0.06370,2.92250,-4.42750,0.00000,0.00561,0.96661,-0.22436,2023,6,12,10,1,59,749
0.06380,2.88750,-4.69000,0.00000,0.00732,0.96856,-0.22509,2023,6,12,10,1,59,760
0.06390,2.78250,-4.44500,0.00000,0.00732,0.97002,-0.22363,2023,6,12,10,1,59,771
0.06400,3.01000,-4.48000,0.00000,0.00573,0.96978,-0.22472,2023,6,12,10,1,59,783
0.06410,3.15000,-4.49750,0.00000,0.00659,0.96758,-0.22436,2023,6,12,10,1,59,794
0.06420,3.18500,-4.55000,0.00000,0.00415,0.96661,-0.22582,2023,6,12,10,1,59,805
0.06430,0.01750,-4.65500,0.00000,0.01000,0.97295,-0.22753,2023,6,12,10,1,59,816
0.06440,3.22000,-4.55000,0.00000,0.01061,0.96880,-0.22460,2023,6,12,10,1,59,827
0.06450,3.18500,-4.72500,0.00000,0.00451,0.96795,-0.22692,2023,6,12,10,1,59,838
0.06460,3.09750,-4.63750,0.00000,0.00708,0.96685,-0.22436,2023,6,12,10,1,59,849
0.06470,2.95750,-4.62000,0.00000,0.00939,0.96587,-0.22228,2023,6,12,10,1,59,860
0.06480,3.48250,-4.48000,0.00000,0.00683,0.96783,-0.22326,2023,6,12,10,1,59,871
0.06490,2.71250,-4.39250,0.00000,0.00659,0.96722,-0.22448,2023,6,12,10,1,59,883
0.06500,3.46500,-4.49750,0.00000,0.00720,0.96880,-0.22546,2023,6,12,10,1,59,894
0.06510,3.90250,-5.46000,0.00000,0.00671,0.96819,-0.22387,2023,6,12,10,1,59,905
0.06520,3.37750,-4.60250,0.00000,0.00317,0.97027,-0.22460,2023,6,12,10,1,59,916
0.06530,3.36000,-4.65500,0.00000,0.00634,0.96905,-0.22485,2023,6,12,10,1,59,927
0.06540,2.81750,-4.60250,0.00000,0.00610,0.96941,-0.22680,2023,6,12,10,1,59,938
0.06550,2.64250,-4.41000,0.00000,0.00769,0.96844,-0.22302,2023,6,12,10,1,59,949
0.06560,2.95750,-4.69000,0.00000,0.00537,0.96783,-0.22692,2023,6,12,10,1,59,960
0.06570,2.94000,-4.37500,0.00000,0.00903,0.96868,-0.22472,2023,6,12,10,2,0,1
0.06580,3.06250,-4.53250,0.00000,0.00671,0.96880,-0.22265,2023,6,12,10,2,0,13
0.06590,2.73000,-4.58500,0.00000,0.00769,0.96978,-0.22424,2023,6,12,10,2,0,24
0.06600,3.13250,-4.60250,0.00000,0.00683,0.97002,-0.22338,2023,6,12,10,2,0,35
0.06610,3.22000,-4.62000,0.00000,0.00561,0.96709,-0.22204,2023,6,12,10,2,0,46
0.06620,2.88750,-4.39250,0.00000,0.00598,0.96636,-0.22228,2023,6,12,10,2,0,57
0.06630,3.58750,-4.93500,0.00000,0.00793,0.96746,-0.22094,2023,6,12,10,2,0,68
0.06640,3.81500,-4.90000,0.00000,0.00329,0.96795,-0.22716,2023,6,12,10,2,0,79
0.06650,2.53750,-3.60500,0.00000,0.00220,0.96587,-0.22277,2023,6,12,10,2,0,90
0.06660,2.92250,-4.74250,0.00000,0.00695,0.96892,-0.22668,2023,6,12,10,2,0,101
0.06670,2.73000,-4.63750,0.00000,0.00854,0.96770,-0.22338,2023,6,12,10,2,0,113
0.06680,3.04500,-4.60250,0.00000,0.00756,0.96722,-0.22143,2023,6,12,10,2,0,124
0.06690,3.74500,-5.04000,0.00000,0.00549,0.96673,-0.22387,2023,6,12,10,2,0,135
0.06700,3.02750,-4.63750,0.00000,0.00403,0.96697,-0.22436,2023,6,12,10,2,0,146
0.06710,2.88750,-4.44500,0.00000,0.00793,0.96709,-0.22472,2023,6,12,10,2,0,157
0.06720,2.64250,-4.34000,0.00000,0.00634,0.96856,-0.22570,2023,6,12,10,2,0,168
0.06730,2.59000,-4.23500,0.00000,0.00720,0.96856,-0.22485,2023,6,12,10,2,0,179
0.06740,2.71250,-4.32250,0.00000,0.00671,0.96783,-0.22619,2023,6,12,10,2,0,190
0.06750,2.87000,-4.35750,0.00000,0.00610,0.96929,-0.22424,2023,6,12,10,2,0,201
0.06760,3.02750,-4.60250,0.00000,0.00805,0.96917,-0.22265,2023,6,12,10,2,0,213
0.06770,3.09750,-4.72500,0.00000,0.00573,0.96880,-0.22448,2023,6,12,10,2,0,224
0.06780,3.71000,-4.91750,0.00000,0.00647,0.96953,-0.22619,2023,6,12,10,2,0,235
0.06790,2.81750,-4.30500,0.00000,0.00525,0.96929,-0.22558,2023,6,12,10,2,0,246
0.06800,2.22250,-4.27000,0.00000,0.00866,0.96856,-0.22314,2023,6,12,10,2,0,257
0.06810,2.36250,-4.49750,0.00000,0.00878,0.96966,-0.22326,2023,6,12,10,2,0,268
0.06820,2.80000,-4.63750,0.00000,0.00744,0.97014,-0.22216,2023,6,12,10,2,0,279
0.06830,2.74750,-4.60250,0.00000,0.00573,0.96709,-0.22338,2023,6,12,10,2,0,290
0.06840,2.88750,-4.62000,0.00000,0.00732,0.96831,-0.22338,2023,6,12,10,2,0,301
0.06850,2.78250,-4.55000,0.00000,0.00586,0.96905,-0.22338,2023,6,12,10,2,0,313
0.06860,2.53750,-4.56750,0.00000,0.00573,0.96892,-0.22643,2023,6,12,10,2,0,324
0.06870,1.80250,-4.51500,0.00000,0.00024,0.96392,-0.23326,2023,6,12,10,2,0,335
0.06880,0.96250,-3.71000,0.00000,0.01013,0.97100,-0.22436,2023,6,12,10,2,0,346
0.06890,2.38000,-4.27000,0.00000,0.00866,0.96795,-0.22167,2023,6,12,10,2,0,357
0.06900,2.87000,-4.51500,0.00000,0.00891,0.96844,-0.22558,2023,6,12,10,2,0,368
0.06910,2.78250,-4.39250,0.00000,0.00781,0.96892,-0.22399,2023,6,12,10,2,0,379
0.06920,2.78250,-4.34000,0.00000,0.00756,0.96844,-0.22241,2023,6,12,10,2,0,390
0.06930,2.74750,-4.42750,0.00000,0.00830,0.97014,-0.22265,2023,6,12,10,2,0,401
0.06940,2.85250,-4.55000,0.00000,0.00695,0.96819,-0.22228,2023,6,12,10,2,0,413
0.06950,2.85250,-4.27000,0.00000,0.00830,0.96783,-0.22363,2023,6,12,10,2,0,424
0.06960,2.66000,-4.53250,0.00000,0.00915,0.96734,-0.22302,2023,6,12,10,2,0,435
0.06970,2.76500,-4.46250,0.00000,0.00793,0.96905,-0.22228,2023,6,12,10,2,0,446
0.06980,2.71250,-4.46250,0.00000,0.00866,0.96685,-0.22155,2023,6,12,10,2,0,457
0.06990,2.88750,-4.74250,0.00000,0.00720,0.96746,-0.22424,2023,6,12,10,2,0,468
0.07000,2.88750,-4.41000,0.00000,0.00842,0.96892,-0.22302,2023,6,12,10,2,0,479
0.07010,2.76500,-4.55000,0.00000,0.00878,0.96807,-0.22228,2023,6,12,10,2,0,490
0.07020,2.92250,-4.72500,0.00000,0.00769,0.96844,-0.22350,2023,6,12,10,2,0,501
0.07030,3.06250,-4.67250,0.00000,0.00866,0.96905,-0.22094,2023,6,12,10,2,0,513
0.07040,3.02750,-4.53250,0.00000,0.00769,0.97002,-0.22338,2023,6,12,10,2,0,524
0.07050,2.95750,-4.56750,0.00000,0.00903,0.97027,-0.22338,2023,6,12,10,2,0,535
0.07060,2.78250,-4.39250,0.00000,0.00842,0.96709,-0.22204,2023,6,12,10,2,0,546
0.07070,3.04500,-4.53250,0.00000,0.00903,0.96722,-0.22253,2023,6,12,10,2,0,557
0.07080,2.92250,-4.65500,0.00000,0.00720,0.96856,-0.22277,2023,6,12,10,2,0,568
0.07090,3.02750,-4.95250,0.00000,0.00781,0.97039,-0.22277,2023,6,12,10,2,0,579
0.07100,2.97500,-4.34000,0.00000,0.00939,0.96953,-0.22302,2023,6,12,10,2,0,590
0.07110,2.69500,-4.42750,0.00000,0.00891,0.96636,-0.22228,2023,6,12,10,2,0,601
0.07120,2.80000,-4.42750,0.00000,0.00891,0.97027,-0.22216,2023,6,12,10,2,0,613
0.07130,2.92250,-4.49750,0.00000,0.00866,0.96880,-0.22265,2023,6,12,10,2,0,624
0.07140,2.62500,-4.60250,0.00000,0.00842,0.96673,-0.22338,2023,6,12,10,2,0,635
0.07150,2.85250,-4.46250,0.00000,0.00781,0.97051,-0.22180,2023,6,12,10,2,0,646
0.07160,2.88750,-4.63750,0.00000,0.00903,0.96795,-0.22375,2023,6,12,10,2,0,657
0.07170,2.88750,-4.39250,0.00000,0.00915,0.97051,-0.22387,2023,6,12,10,2,0,668
0.07180,2.80000,-4.51500,0.00000,0.00647,0.96953,-0.22228,2023,6,12,10,2,0,679
0.07190,2.87000,-4.62000,0.00000,0.00732,0.96978,-0.22167,2023,6,12,10,2,0,690
0.07200,2.99250,-4.55000,0.00000,0.00695,0.96673,-0.22277,2023,6,12,10,2,0,701
0.07210,2.71250,-4.37500,0.00000,0.00671,0.96990,-0.22338,2023,6,12,10,2,0,713
0.07220,2.78250,-4.49750,0.00000,0.00769,0.96770,-0.22277,2023,6,12,10,2,0,724
0.07230,2.81750,-4.56750,0.00000,0.00866,0.96978,-0.22241,2023,6,12,10,2,0,735
0.07240,2.94000,-4.28750,0.00000,0.00683,0.96795,-0.22204,2023,6,12,10,2,0,746
0.07250,2.97500,-4.58500,0.00000,0.00769,0.96636,-0.22375,2023,6,12,10,2,0,757
0.07260,2.94000,-4.60250,0.00000,0.00720,0.97014,-0.22167,2023,6,12,10,2,0,768
0.07270,2.95750,-4.51500,0.00000,0.00903,0.96905,-0.22241,2023,6,12,10,2,0,779
0.07280,3.02750,-4.56750,0.00000,0.00793,0.96856,-0.22131,2023,6,12,10,2,0,790
0.07290,3.06250,-4.39250,0.00000,0.00805,0.97039,-0.22241,2023,6,12,10,2,0,801
0.07300,3.13250,-4.49750,0.00000,0.00976,0.96819,-0.22253,2023,6,12,10,2,0,813
0.07310,3.06250,-4.51500,0.00000,0.00756,0.96880,-0.22241,2023,6,12,10,2,0,824
0.07320,2.87000,-4.63750,0.00000,0.00756,0.96807,-0.22497,2023,6,12,10,2,0,835
0.07330,2.95750,-4.39250,0.00000,0.00805,0.96868,-0.22143,2023,6,12,10,2,0,846
0.07340,2.92250,-4.77750,0.00000,0.00671,0.97014,-0.22204,2023,6,12,10,2,0,857
0.07350,2.80000,-4.28750,0.00000,0.00878,0.96612,-0.22070,2023,6,12,10,2,0,868
0.07360,3.18500,-4.53250,0.00000,0.00805,0.96783,-0.22131,2023,6,12,10,2,0,879
0.07370,2.83500,-4.51500,0.00000,0.00708,0.96807,-0.22289,2023,6,12,10,2,0,890
0.07380,2.95750,-4.42750,0.00000,0.00744,0.96978,-0.22216,2023,6,12,10,2,0,901
0.07390,2.88750,-4.65500,0.00000,0.00720,0.96856,-0.22363,2023,6,12,10,2,0,913
0.07400,3.18500,-4.56750,0.00000,0.00708,0.96905,-0.22131,2023,6,12,10,2,0,924
0.07410,3.11500,-4.60250,0.00000,0.00927,0.96917,-0.22326,2023,6,12,10,2,0,935
0.07420,3.08000,-4.69000,0.00000,0.00647,0.96819,-0.22533,2023,6,12,10,2,0,946
0.07430,2.97500,-4.53250,0.00000,0.00878,0.96953,-0.22131,2023,6,12,10,2,0,957
0.07440,2.80000,-4.30500,0.00000,0.00708,0.96758,-0.22375,2023,6,12,10,2,0,968
0.07450,2.62500,-4.51500,0.00000,0.00817,0.96929,-0.22314,2023,6,12,10,2,0,979
0.07460,2.73000,-4.63750,0.00000,0.00683,0.96868,-0.22338,2023,6,12,10,2,1,0
0.07470,2.81750,-4.42750,0.00000,0.00878,0.96844,-0.22241,2023,6,12,10,2,1,11
0.07480,2.90500,-4.44500,0.00000,0.00561,0.96929,-0.22253,2023,6,12,10,2,1,23
0.07490,2.99250,-4.60250,0.00000,0.00903,0.96941,-0.22326,2023,6,12,10,2,1,34
0.07500,3.02750,-4.62000,0.00000,0.00817,0.96770,-0.22253,2023,6,12,10,2,1,45
0.07510,2.73000,-4.46250,0.00000,0.00976,0.96892,-0.22143,2023,6,12,10,2,1,56
0.07520,2.85250,-4.70750,0.00000,0.00732,0.96990,-0.22399,2023,6,12,10,2,1,67
0.07530,2.99250,-4.53250,0.00000,0.00708,0.96868,-0.22204,2023,6,12,10,2,1,78
0.07540,2.76500,-4.44500,0.00000,0.00683,0.96892,-0.22192,2023,6,12,10,2,1,89
0.07550,2.87000,-4.49750,0.00000,0.00878,0.96770,-0.22216,2023,6,12,10,2,1,100
0.07560,3.08000,-4.69000,0.00000,0.00964,0.96941,-0.22241,2023,6,12,10,2,1,111
0.07570,2.90500,-4.88250,0.00000,0.00622,0.96905,-0.22289,2023,6,12,10,2,1,123
0.07580,2.73000,-4.60250,0.00000,0.00769,0.96844,-0.22338,2023,6,12,10,2,1,134
0.07590,2.85250,-4.62000,0.00000,0.00891,0.96819,-0.22119,2023,6,12,10,2,1,145
0.07600,2.94000,-4.63750,0.00000,0.00952,0.96905,-0.22094,2023,6,12,10,2,1,156
0.07610,3.02750,-4.74250,0.00000,0.00793,0.96783,-0.22131,2023,6,12,10,2,1,167
0.07620,3.08000,-4.58500,0.00000,0.00756,0.96612,-0.22070,2023,6,12,10,2,1,178
0.07630,3.04500,-4.63750,0.00000,0.00817,0.96917,-0.22216,2023,6,12,10,2,1,189
0.07640,2.85250,-4.79500,0.00000,0.01122,0.96783,-0.22204,2023,6,12,10,2,1,200
0.07650,3.06250,-4.60250,0.00000,0.00854,0.96953,-0.22131,2023,6,12,10,2,1,211
0.07660,3.09750,-4.63750,0.00000,0.00891,0.96746,-0.22241,2023,6,12,10,2,1,223
0.07670,3.04500,-4.44500,0.00000,0.00634,0.96856,-0.22289,2023,6,12,10,2,1,234
0.07680,2.81750,-4.55000,0.00000,0.00964,0.96892,-0.22350,2023,6,12,10,2,1,245
0.07690,2.92250,-4.62000,0.00000,0.00683,0.96917,-0.22436,2023,6,12,10,2,1,256
0.07700,2.78250,-4.55000,0.00000,0.00708,0.96648,-0.22363,2023,6,12,10,2,1,267
0.07710,2.80000,-4.13000,0.00000,0.00793,0.96758,-0.22021,2023,6,12,10,2,1,278
0.07720,3.15000,-4.58500,0.00000,0.00695,0.97051,-0.22350,2023,6,12,10,2,1,289
0.07730,2.95750,-4.35750,0.00000,0.00732,0.96966,-0.22314,2023,6,12,10,2,1,300
0.07740,2.92250,-4.42750,0.00000,0.00732,0.96917,-0.22277,2023,6,12,10,2,1,311
0.07750,2.94000,-4.49750,0.00000,0.00744,0.96917,-0.22326,2023,6,12,10,2,1,323
0.07760,3.01000,-4.55000,0.00000,0.00622,0.96868,-0.22302,2023,6,12,10,2,1,334
0.07770,2.97500,-4.42750,0.00000,0.00695,0.97197,-0.22228,2023,6,12,10,2,1,345
0.07780,3.08000,-4.42750,0.00000,0.00512,0.96856,-0.22460,2023,6,12,10,2,1,356
0.07790,3.16750,-4.81250,0.00000,0.00842,0.96868,-0.22314,2023,6,12,10,2,1,367
0.07800,3.04500,-4.51500,0.00000,0.00708,0.96892,-0.22106,2023,6,12,10,2,1,378
0.07810,2.90500,-4.41000,0.00000,0.00683,0.96880,-0.22253,2023,6,12,10,2,1,389
0.07820,2.97500,-4.46250,0.00000,0.00817,0.96917,-0.22180,2023,6,12,10,2,1,400
0.07830,3.02750,-4.55000,0.00000,0.00744,0.96929,-0.22277,2023,6,12,10,2,1,411
0.07840,2.88750,-4.51500,0.00000,0.00927,0.96941,-0.22228,2023,6,12,10,2,1,423
0.07850,2.73000,-4.62000,0.00000,0.00842,0.96929,-0.22448,2023,6,12,10,2,1,434
0.07860,2.92250,-4.20000,0.00000,0.00830,0.96917,-0.22106,2023,6,12,10,2,1,445
0.07870,3.04500,-4.74250,0.00000,0.00683,0.97014,-0.22314,2023,6,12,10,2,1,456
0.07880,2.97500,-4.65500,0.00000,0.00647,0.96856,-0.22314,2023,6,12,10,2,1,467
0.07890,2.88750,-4.60250,0.00000,0.00781,0.96612,-0.22216,2023,6,12,10,2,1,478
0.07900,2.83500,-4.51500,0.00000,0.00744,0.97039,-0.22155,2023,6,12,10,2,1,489
0.07910,2.81750,-4.70750,0.00000,0.00866,0.97136,-0.22265,2023,6,12,10,2,1,500
0.07920,2.97500,-4.60250,0.00000,0.00854,0.96990,-0.22192,2023,6,12,10,2,1,511
0.07930,2.85250,-4.28750,0.00000,0.00732,0.96770,-0.22350,2023,6,12,10,2,1,523
0.07940,2.90500,-4.60250,0.00000,0.00781,0.96514,-0.22375,2023,6,12,10,2,1,534
0.07950,2.95750,-4.60250,0.00000,0.00695,0.96868,-0.22143,2023,6,12,10,2,1,545
0.07960,2.71250,-4.35750,0.00000,0.00793,0.96978,-0.22485,2023,6,12,10,2,1,556
0.07970,2.81750,-4.55000,0.00000,0.00708,0.96856,-0.22216,2023,6,12,10,2,1,567
0.07980,2.88750,-4.46250,0.00000,0.00756,0.96917,-0.22253,2023,6,12,10,2,1,578
0.07990,2.95750,-4.42750,0.00000,0.00622,0.97027,-0.22155,2023,6,12,10,2,1,589
0.08000,2.97500,-4.53250,0.00000,0.00976,0.96844,-0.22436,2023,6,12,10,2,1,600
0.08010,3.09750,-4.58500,0.00000,0.00842,0.96990,-0.22399,2023,6,12,10,2,1,611
0.08020,2.90500,-4.62000,0.00000,0.00769,0.96978,-0.22363,2023,6,12,10,2,1,623
0.08030,2.83500,-4.48000,0.00000,0.00671,0.97014,-0.22460,2023,6,12,10,2,1,634
0.08040,2.85250,-4.69000,0.00000,0.00634,0.96917,-0.22326,2023,6,12,10,2,1,645
0.08050,2.97500,-4.63750,0.00000,0.00830,0.96807,-0.22436,2023,6,12,10,2,1,656
0.08060,2.99250,-4.55000,0.00000,0.00805,0.96868,-0.22289,2023,6,12,10,2,1,667
0.08070,2.95750,-4.46250,0.00000,0.00781,0.96563,-0.22338,2023,6,12,10,2,1,678
0.08080,3.18500,-4.62000,0.00000,0.01000,0.96868,-0.22326,2023,6,12,10,2,1,689
0.08090,3.15000,-4.62000,0.00000,0.00720,0.96807,-0.22436,2023,6,12,10,2,1,700
0.08100,3.09750,-4.60250,0.00000,0.00756,0.96990,-0.22399,2023,6,12,10,2,1,711
0.08110,2.83500,-4.48000,0.00000,0.00549,0.96795,-0.22424,2023,6,12,10,2,1,723
0.08120,2.99250,-4.55000,0.00000,0.00634,0.97124,-0.22058,2023,6,12,10,2,1,734
0.08130,2.94000,-4.69000,0.00000,0.00878,0.96563,-0.22338,2023,6,12,10,2,1,745
0.08140,3.01000,-4.44500,0.00000,0.00634,0.96856,-0.22302,2023,6,12,10,2,1,756
0.08150,3.01000,-4.42750,0.00000,0.00732,0.96953,-0.22411,2023,6,12,10,2,1,767
0.08160,2.97500,-4.67250,0.00000,0.00793,0.96709,-0.22131,2023,6,12,10,2,1,778
0.08170,3.02750,-4.53250,0.00000,0.00866,0.96636,-0.22497,2023,6,12,10,2,1,789
0.08180,3.11500,-4.55000,0.00000,0.00952,0.96856,-0.22387,2023,6,12,10,2,1,800
0.08190,2.94000,-4.42750,0.00000,0.00622,0.97027,-0.22228,2023,6,12,10,2,1,811
0.08200,2.99250,-4.63750,0.00000,0.00903,0.96648,-0.22253,2023,6,12,10,2,1,823
0.08210,2.97500,-4.72500,0.00000,0.00610,0.96941,-0.22253,2023,6,12,10,2,1,834
0.08220,3.04500,-4.56750,0.00000,0.00683,0.97039,-0.22326,2023,6,12,10,2,1,845
0.08230,3.06250,-4.58500,0.00000,0.00830,0.96990,-0.22167,2023,6,12,10,2,1,856
0.08240,2.97500,-4.39250,0.00000,0.00744,0.97100,-0.22070,2023,6,12,10,2,1,867
0.08250,2.92250,-4.62000,0.00000,0.00671,0.97161,-0.22082,2023,6,12,10,2,1,878
0.08260,2.90500,-4.58500,0.00000,0.00756,0.96892,-0.22485,2023,6,12,10,2,1,889
0.08270,3.01000,-4.79500,0.00000,0.00695,0.96746,-0.22338,2023,6,12,10,2,1,900
0.08280,2.80000,-4.35750,0.00000,0.00671,0.96770,-0.22350,2023,6,12,10,2,1,911
0.08290,2.74750,-4.63750,0.00000,0.00598,0.97014,-0.22363,2023,6,12,10,2,1,923
0.08300,3.01000,-4.49750,0.00000,0.01074,0.96929,-0.22228,2023,6,12,10,2,1,934
0.08310,2.83500,-4.53250,0.00000,0.00586,0.96953,-0.22253,2023,6,12,10,2,1,945
0.08320,3.09750,-4.69000,0.00000,0.00878,0.97002,-0.22399,2023,6,12,10,2,1,956
0.08330,2.73000,-4.28750,0.00000,0.01000,0.97088,-0.22448,2023,6,12,10,2,2,7
0.08340,2.90500,-4.53250,0.00000,0.00939,0.96905,-0.22448,2023,6,12,10,2,2,18
0.08350,2.81750,-4.58500,0.00000,0.00891,0.96758,-0.22265,2023,6,12,10,2,2,29
0.08360,3.16750,-4.67250,0.00000,0.01061,0.96990,-0.22363,2023,6,12,10,2,2,40
0.08370,2.85250,-4.67250,0.00000,0.00756,0.96844,-0.22460,2023,6,12,10,2,2,51
0.08380,2.92250,-4.79500,0.00000,0.00878,0.96819,-0.22204,2023,6,12,10,2,2,63
0.08390,2.81750,-4.48000,0.00000,0.00903,0.97136,-0.22155,2023,6,12,10,2,2,74
0.08400,2.76500,-4.44500,0.00000,0.00671,0.97027,-0.22180,2023,6,12,10,2,2,85
0.08410,2.85250,-4.56750,0.00000,0.00793,0.97039,-0.22448,2023,6,12,10,2,2,96
0.08420,2.73000,-4.67250,0.00000,0.00732,0.96905,-0.22436,2023,6,12,10,2,2,107
0.08430,2.94000,-4.58500,0.00000,0.00720,0.96941,-0.22509,2023,6,12,10,2,2,118
0.08440,2.95750,-4.53250,0.00000,0.00683,0.97197,-0.22594,2023,6,12,10,2,2,129
0.08450,2.76500,-4.49750,0.00000,0.00756,0.97027,-0.22558,2023,6,12,10,2,2,140
0.08460,2.90500,-4.41000,0.00000,0.00927,0.96905,-0.22680,2023,6,12,10,2,2,151
0.08470,2.80000,-4.42750,0.00000,0.00976,0.96734,-0.22241,2023,6,12,10,2,2,163
0.08480,2.76500,-4.34000,0.00000,0.00793,0.96892,-0.22533,2023,6,12,10,2,2,174
0.08490,2.81750,-4.55000,0.00000,0.00903,0.96734,-0.22411,2023,6,12,10,2,2,185
0.08500,2.64250,-4.44500,0.00000,0.00744,0.97088,-0.22558,2023,6,12,10,2,2,196
0.08510,2.57250,-4.27000,0.00000,0.00781,0.96831,-0.22302,2023,6,12,10,2,2,207
0.08520,2.80000,-4.30500,0.00000,0.00927,0.96722,-0.22472,2023,6,12,10,2,2,218
0.08530,2.90500,-4.49750,0.00000,0.00891,0.96685,-0.22570,2023,6,12,10,2,2,229
0.08540,2.90500,-4.46250,0.00000,0.00744,0.96941,-0.22497,2023,6,12,10,2,2,240
0.08550,2.71250,-4.37500,0.00000,0.01025,0.96819,-0.22570,2023,6,12,10,2,2,251
0.08560,2.85250,-4.37500,0.00000,0.00805,0.97002,-0.22521,2023,6,12,10,2,2,263
0.08570,2.78250,-4.44500,0.00000,0.00659,0.97014,-0.22326,2023,6,12,10,2,2,274
0.08580,2.81750,-4.35750,0.00000,0.00903,0.96990,-0.22497,2023,6,12,10,2,2,285
0.08590,2.74750,-4.30500,0.00000,0.00903,0.96929,-0.22375,2023,6,12,10,2,2,296
0.08600,2.67750,-4.56750,0.00000,0.00854,0.97051,-0.22472,2023,6,12,10,2,2,307
0.08610,2.88750,-4.41000,0.00000,0.00866,0.97002,-0.22289,2023,6,12,10,2,2,318
0.08620,2.87000,-4.41000,0.00000,0.00781,0.97063,-0.22509,2023,6,12,10,2,2,329
0.08630,2.90500,-4.51500,0.00000,0.00781,0.96844,-0.22509,2023,6,12,10,2,2,340
0.08640,2.80000,-4.72500,0.00000,0.00964,0.96770,-0.22180,2023,6,12,10,2,2,351
0.08650,2.74750,-4.48000,0.00000,0.00903,0.96709,-0.22363,2023,6,12,10,2,2,363
0.08660,2.92250,-4.49750,0.00000,0.00708,0.97027,-0.22302,2023,6,12,10,2,2,374
0.08670,2.87000,-4.60250,0.00000,0.00769,0.96770,-0.22546,2023,6,12,10,2,2,385
0.08680,2.90500,-4.67250,0.00000,0.00915,0.96795,-0.22521,2023,6,12,10,2,2,396
0.08690,2.85250,-4.53250,0.00000,0.00537,0.96868,-0.22399,2023,6,12,10,2,2,407
0.08700,2.95750,-4.60250,0.00000,0.00817,0.96807,-0.22363,2023,6,12,10,2,2,418
0.08710,2.62500,-4.53250,0.00000,0.00756,0.96978,-0.22277,2023,6,12,10,2,2,429
0.08720,2.59000,-4.49750,0.00000,0.01037,0.97002,-0.22180,2023,6,12,10,2,2,440
0.08730,2.53750,-4.16500,0.00000,0.01000,0.96856,-0.22253,2023,6,12,10,2,2,451
0.08740,2.67750,-4.46250,0.00000,0.00891,0.96880,-0.22241,2023,6,12,10,2,2,463
0.08750,2.60750,-4.44500,0.00000,0.01013,0.97039,-0.22277,2023,6,12,10,2,2,474
0.08760,2.71250,-4.35750,0.00000,0.00866,0.96966,-0.22253,2023,6,12,10,2,2,485
0.08770,2.76500,-4.48000,0.00000,0.01000,0.96868,-0.22655,2023,6,12,10,2,2,496
0.08780,2.59000,-4.35750,0.00000,0.01025,0.96990,-0.22167,2023,6,12,10,2,2,507
0.08790,2.73000,-4.63750,0.00000,0.00671,0.97002,-0.22302,2023,6,12,10,2,2,518
0.08800,2.81750,-4.37500,0.00000,0.00988,0.97039,-0.22302,2023,6,12,10,2,2,529
0.08810,2.60750,-4.53250,0.00000,0.00805,0.97112,-0.22070,2023,6,12,10,2,2,540
0.08820,2.50250,-4.39250,0.00000,0.00793,0.96624,-0.22119,2023,6,12,10,2,2,551
0.08830,2.48500,-4.41000,0.00000,0.00891,0.96868,-0.22216,2023,6,12,10,2,2,563
0.08840,2.83500,-4.62000,0.00000,0.00769,0.96905,-0.22119,2023,6,12,10,2,2,574
0.08850,2.83500,-4.51500,0.00000,0.00878,0.96722,-0.22204,2023,6,12,10,2,2,585
0.08860,3.20250,-4.53250,0.00000,0.00842,0.96966,-0.22326,2023,6,12,10,2,2,596
0.08870,3.04500,-4.56750,0.00000,0.00647,0.96892,-0.22082,2023,6,12,10,2,2,607
0.08880,2.94000,-4.56750,0.00000,0.00988,0.96734,-0.22363,2023,6,12,10,2,2,618
0.08890,2.94000,-4.37500,0.00000,0.00842,0.97014,-0.22155,2023,6,12,10,2,2,629
0.08900,2.90500,-4.44500,0.00000,0.00866,0.96966,-0.22192,2023,6,12,10,2,2,640
0.08910,3.02750,-4.55000,0.00000,0.00952,0.96831,-0.22216,2023,6,12,10,2,2,651
0.08920,2.95750,-4.51500,0.00000,0.00817,0.97185,-0.22399,2023,6,12,10,2,2,663
0.08930,2.85250,-4.53250,0.00000,0.00915,0.97027,-0.22253,2023,6,12,10,2,2,674
0.08940,2.95750,-4.67250,0.00000,0.00781,0.97039,-0.22277,2023,6,12,10,2,2,685
0.08950,2.87000,-4.39250,0.00000,0.00720,0.96868,-0.22167,2023,6,12,10,2,2,696
0.08960,2.85250,-4.49750,0.00000,0.00952,0.96978,-0.22119,2023,6,12,10,2,2,707
0.08970,2.66000,-4.51500,0.00000,0.00866,0.96673,-0.22033,2023,6,12,10,2,2,718
0.08980,2.76500,-4.48000,0.00000,0.00659,0.96941,-0.22204,2023,6,12,10,2,2,729
0.08990,2.85250,-4.35750,0.00000,0.00939,0.97149,-0.22155,2023,6,12,10,2,2,740
0.09000,2.83500,-4.56750,0.00000,0.01025,0.97014,-0.22216,2023,6,12,10,2,2,751
0.09010,2.59000,-4.27000,0.00000,0.00854,0.96734,-0.22241,2023,6,12,10,2,2,763
0.09020,2.48500,-4.42750,0.00000,0.00964,0.96807,-0.22180,2023,6,12,10,2,2,774
0.09030,2.53750,-4.25250,0.00000,0.00939,0.96917,-0.22045,2023,6,12,10,2,2,785
0.09040,2.43250,-4.30500,0.00000,0.01049,0.96819,-0.22314,2023,6,12,10,2,2,796
0.09050,2.67750,-4.32250,0.00000,0.00817,0.96856,-0.22119,2023,6,12,10,2,2,807
0.09060,2.74750,-4.74250,0.00000,0.00842,0.96844,-0.21997,2023,6,12,10,2,2,818
0.09070,2.74750,-4.42750,0.00000,0.00964,0.96978,-0.22143,2023,6,12,10,2,2,829
0.09080,2.83500,-4.42750,0.00000,0.01098,0.97014,-0.22045,2023,6,12,10,2,2,840
0.09090,2.85250,-4.51500,0.00000,0.00891,0.96892,-0.22094,2023,6,12,10,2,2,851
0.09100,3.11500,-4.76000,0.00000,0.00891,0.96819,-0.22241,2023,6,12,10,2,2,863
0.09110,3.02750,-4.58500,0.00000,0.01061,0.97027,-0.22143,2023,6,12,10,2,2,874
0.09120,3.06250,-4.55000,0.00000,0.00854,0.96929,-0.22192,2023,6,12,10,2,2,885
0.09130,2.87000,-4.83000,0.00000,0.00830,0.96978,-0.22192,2023,6,12,10,2,2,896
0.09140,2.90500,-4.62000,0.00000,0.00939,0.96917,-0.22070,2023,6,12,10,2,2,907
0.09150,3.04500,-4.46250,0.00000,0.01061,0.97161,-0.22119,2023,6,12,10,2,2,918
0.09160,2.83500,-4.51500,0.00000,0.00927,0.96722,-0.22167,2023,6,12,10,2,2,929
0.09170,2.78250,-4.49750,0.00000,0.00952,0.97027,-0.22375,2023,6,12,10,2,2,940
0.09180,2.88750,-4.76000,0.00000,0.01232,0.96905,-0.22167,2023,6,12,10,2,2,951
0.09190,2.87000,-4.42750,0.00000,0.00891,0.97002,-0.21936,2023,6,12,10,2,2,963
0.09200,2.85250,-4.69000,0.00000,0.01049,0.96929,-0.22155,2023,6,12,10,2,3,4
0.09210,2.92250,-4.86500,0.00000,0.00769,0.96917,-0.21997,2023,6,12,10,2,3,15
0.09220,2.99250,-4.55000,0.00000,0.00793,0.96807,-0.21923,2023,6,12,10,2,3,26
0.09230,2.97500,-4.70750,0.00000,0.00769,0.96600,-0.22216,2023,6,12,10,2,3,37
0.09240,2.95750,-4.55000,0.00000,0.01208,0.97039,-0.22253,2023,6,12,10,2,3,48
0.09250,2.81750,-4.72500,0.00000,0.01037,0.96929,-0.22094,2023,6,12,10,2,3,59
0.09260,2.74750,-4.39250,0.00000,0.00915,0.97051,-0.22045,2023,6,12,10,2,3,70
0.09270,2.73000,-4.55000,0.00000,0.00927,0.96990,-0.22167,2023,6,12,10,2,3,81
0.09280,2.71250,-4.60250,0.00000,0.01049,0.96880,-0.22302,2023,6,12,10,2,3,93
0.09290,3.01000,-4.56750,0.00000,0.01037,0.97002,-0.21923,2023,6,12,10,2,3,104
0.09300,2.81750,-4.34000,0.00000,0.00866,0.96831,-0.21984,2023,6,12,10,2,3,115
0.09310,2.88750,-4.63750,0.00000,0.00842,0.96868,-0.21960,2023,6,12,10,2,3,126
0.09320,2.88750,-4.60250,0.00000,0.00854,0.96929,-0.22082,2023,6,12,10,2,3,137
0.09330,2.78250,-4.51500,0.00000,0.01110,0.97014,-0.21948,2023,6,12,10,2,3,148
0.09340,2.99250,-4.53250,0.00000,0.01122,0.97112,-0.22033,2023,6,12,10,2,3,159
0.09350,2.81750,-4.42750,0.00000,0.01061,0.96856,-0.22082,2023,6,12,10,2,3,170
0.09360,2.73000,-4.35750,0.00000,0.00866,0.96978,-0.22241,2023,6,12,10,2,3,181
0.09370,2.90500,-4.49750,0.00000,0.00769,0.97014,-0.22058,2023,6,12,10,2,3,193
0.09380,2.94000,-4.49750,0.00000,0.01086,0.97075,-0.22033,2023,6,12,10,2,3,204
0.09390,2.81750,-4.53250,0.00000,0.01061,0.96966,-0.22289,2023,6,12,10,2,3,215
0.09400,2.87000,-4.65500,0.00000,0.00976,0.96978,-0.22265,2023,6,12,10,2,3,226
0.09410,2.88750,-4.65500,0.00000,0.00976,0.96844,-0.21960,2023,6,12,10,2,3,237
0.09420,2.87000,-4.53250,0.00000,0.00988,0.96953,-0.22058,2023,6,12,10,2,3,248
0.09430,2.90500,-4.42750,0.00000,0.01110,0.96929,-0.22143,2023,6,12,10,2,3,259
0.09440,2.62500,-4.62000,0.00000,0.00964,0.96941,-0.22094,2023,6,12,10,2,3,270
0.09450,2.74750,-4.28750,0.00000,0.00915,0.96905,-0.22094,2023,6,12,10,2,3,281
0.09460,2.83500,-4.49750,0.00000,0.00976,0.97063,-0.22180,2023,6,12,10,2,3,293
0.09470,2.87000,-4.56750,0.00000,0.01074,0.96966,-0.22131,2023,6,12,10,2,3,304
0.09480,2.69500,-4.69000,0.00000,0.01110,0.96892,-0.22106,2023,6,12,10,2,3,315
0.09490,2.92250,-4.55000,0.00000,0.01147,0.96880,-0.21984,2023,6,12,10,2,3,326
0.09500,2.81750,-4.32250,0.00000,0.01013,0.96941,-0.21899,2023,6,12,10,2,3,337
0.09510,2.90500,-4.51500,0.00000,0.01013,0.96966,-0.22119,2023,6,12,10,2,3,348
0.09520,2.78250,-4.56750,0.00000,0.00842,0.96697,-0.22094,2023,6,12,10,2,3,359
0.09530,2.45000,-4.35750,0.00000,0.00781,0.97027,-0.22045,2023,6,12,10,2,3,370
0.09540,2.48500,-4.48000,0.00000,0.01122,0.96929,-0.21960,2023,6,12,10,2,3,381
0.09550,2.53750,-4.11250,0.00000,0.01086,0.96758,-0.21838,2023,6,12,10,2,3,393
0.09560,2.85250,-4.35750,0.00000,0.00976,0.96880,-0.21740,2023,6,12,10,2,3,404
0.09570,2.87000,-4.58500,0.00000,0.00939,0.97124,-0.21997,2023,6,12,10,2,3,415
0.09580,2.81750,-4.84750,0.00000,0.01025,0.97063,-0.22253,2023,6,12,10,2,3,426
0.09590,2.74750,-4.55000,0.00000,0.00866,0.97258,-0.21838,2023,6,12,10,2,3,437
0.09600,2.95750,-4.60250,0.00000,0.00964,0.96807,-0.21936,2023,6,12,10,2,3,448
0.09610,2.80000,-4.30500,0.00000,0.01025,0.96868,-0.22167,2023,6,12,10,2,3,459
0.09620,2.73000,-4.63750,0.00000,0.01013,0.97112,-0.22131,2023,6,12,10,2,3,470
0.09630,2.92250,-4.67250,0.00000,0.01000,0.96990,-0.22009,2023,6,12,10,2,3,481
0.09640,3.18500,-4.51500,0.00000,0.01061,0.96880,-0.21997,2023,6,12,10,2,3,493
0.09650,2.95750,-4.55000,0.00000,0.00952,0.96941,-0.22180,2023,6,12,10,2,3,504
0.09660,2.67750,-4.41000,0.00000,0.00939,0.96880,-0.22338,2023,6,12,10,2,3,515
0.09670,2.80000,-4.32250,0.00000,0.00805,0.97088,-0.21826,2023,6,12,10,2,3,526
0.09680,2.71250,-4.44500,0.00000,0.01061,0.97014,-0.21850,2023,6,12,10,2,3,537
0.09690,2.69500,-4.32250,0.00000,0.01208,0.97075,-0.22155,2023,6,12,10,2,3,548
0.09700,2.92250,-4.88250,0.00000,0.01098,0.97039,-0.22131,2023,6,12,10,2,3,559
0.09710,3.04500,-4.39250,0.00000,0.01000,0.97063,-0.22009,2023,6,12,10,2,3,570
0.09720,3.11500,-4.41000,0.00000,0.01086,0.96880,-0.21984,2023,6,12,10,2,3,581
0.09730,2.80000,-4.56750,0.00000,0.01013,0.96905,-0.22045,2023,6,12,10,2,3,593
0.09740,2.81750,-4.44500,0.00000,0.01000,0.96917,-0.21911,2023,6,12,10,2,3,604
0.09750,2.81750,-4.46250,0.00000,0.01037,0.97014,-0.22228,2023,6,12,10,2,3,615
0.09760,2.90500,-4.44500,0.00000,0.01013,0.97063,-0.21936,2023,6,12,10,2,3,626
0.09770,2.94000,-4.56750,0.00000,0.01061,0.96844,-0.21875,2023,6,12,10,2,3,637
0.09780,2.94000,-4.55000,0.00000,0.01110,0.97088,-0.21899,2023,6,12,10,2,3,648
0.09790,2.95750,-4.70750,0.00000,0.01110,0.96990,-0.21984,2023,6,12,10,2,3,659
0.09800,3.04500,-4.44500,0.00000,0.01049,0.96880,-0.22131,2023,6,12,10,2,3,670
0.09810,2.88750,-4.60250,0.00000,0.01061,0.97039,-0.21911,2023,6,12,10,2,3,681
0.09820,3.08000,-4.83000,0.00000,0.01013,0.97014,-0.21923,2023,6,12,10,2,3,693
0.09830,2.78250,-4.69000,0.00000,0.00988,0.96953,-0.21911,2023,6,12,10,2,3,704
0.09840,2.87000,-4.53250,0.00000,0.00854,0.97075,-0.21960,2023,6,12,10,2,3,715
0.09850,2.97500,-4.88250,0.00000,0.01037,0.96990,-0.22058,2023,6,12,10,2,3,726
0.09860,3.09750,-4.62000,0.00000,0.01000,0.96892,-0.22070,2023,6,12,10,2,3,737
0.09870,2.97500,-4.46250,0.00000,0.01000,0.96709,-0.22228,2023,6,12,10,2,3,748
0.09880,2.95750,-4.88250,0.00000,0.01061,0.96905,-0.22033,2023,6,12,10,2,3,759
0.09890,2.92250,-4.63750,0.00000,0.01257,0.96941,-0.22058,2023,6,12,10,2,3,770
0.09900,3.08000,-4.56750,0.00000,0.01037,0.97014,-0.22094,2023,6,12,10,2,3,781
0.09910,2.83500,-4.49750,0.00000,0.00952,0.96929,-0.22277,2023,6,12,10,2,3,793
0.09920,3.08000,-4.81250,0.00000,0.00964,0.96868,-0.22180,2023,6,12,10,2,3,804
0.09930,3.01000,-4.53250,0.00000,0.00878,0.97027,-0.22094,2023,6,12,10,2,3,815
0.09940,3.50000,-4.72500,0.00000,0.00830,0.97100,-0.21948,2023,6,12,10,2,3,826
0.09950,3.53500,-4.90000,0.00000,0.00903,0.96905,-0.21923,2023,6,12,10,2,3,837
0.09960,3.83250,-5.07500,0.00000,0.01061,0.96953,-0.22106,2023,6,12,10,2,3,848
0.09970,3.76250,-5.19750,0.00000,0.00842,0.96880,-0.21923,2023,6,12,10,2,3,859
0.09980,3.65750,-5.16250,0.00000,0.00891,0.97063,-0.22277,2023,6,12,10,2,3,870
0.09990,3.78000,-5.26750,0.00000,0.01098,0.97051,-0.22021,2023,6,12,10,2,3,881
0.10000,3.64000,-5.30250,0.00000,0.00891,0.96831,-0.22033,2023,6,12,10,2,3,893
0.10010,3.86750,-5.02250,0.00000,0.00817,0.96953,-0.22472,2023,6,12,10,2,3,904
0.10020,3.51750,-4.84750,0.00000,0.00830,0.96734,-0.22289,2023,6,12,10,2,3,915
0.10030,3.53500,-4.86500,0.00000,0.00805,0.97014,-0.22228,2023,6,12,10,2,3,926
0.10040,3.25500,-4.84750,0.00000,0.00781,0.96844,-0.22350,2023,6,12,10,2,3,937
0.10050,3.15000,-4.62000,0.00000,0.00683,0.97088,-0.22180,2023,6,12,10,2,3,948
0.10060,3.04500,-4.65500,0.00000,0.01037,0.96990,-0.22411,2023,6,12,10,2,3,959
0.10070,2.36250,-4.28750,0.00000,0.00683,0.96929,-0.22546,2023,6,12,10,2,3,970
0.10080,1.99500,-4.35750,0.00000,0.00903,0.96905,-0.22228,2023,6,12,10,2,3,981
0.10090,2.90500,-4.32250,0.00000,0.01269,0.97002,-0.22192,2023,6,12,10,2,4,3
0.10100,3.11500,-4.55000,0.00000,0.00781,0.97075,-0.22204,2023,6,12,10,2,4,14
0.10110,2.71250,-4.62000,0.00000,0.00683,0.96734,-0.22082,2023,6,12,10,2,4,25
0.10120,2.81750,-4.48000,0.00000,0.00878,0.96685,-0.22216,2023,6,12,10,2,4,36
0.10130,2.78250,-4.42750,0.00000,0.01196,0.96807,-0.22216,2023,6,12,10,2,4,47
0.10140,2.87000,-4.48000,0.00000,0.00708,0.96929,-0.22204,2023,6,12,10,2,4,58
0.10150,2.92250,-4.69000,0.00000,0.01000,0.97039,-0.22009,2023,6,12,10,2,4,69
0.10160,3.04500,-4.55000,0.00000,0.00903,0.96770,-0.22399,2023,6,12,10,2,4,80
0.10170,3.08000,-4.44500,0.00000,0.00781,0.96831,-0.22106,2023,6,12,10,2,4,91
0.10180,2.69500,-4.55000,0.00000,0.00732,0.96941,-0.22338,2023,6,12,10,2,4,103
0.10190,2.71250,-4.20000,0.00000,0.00866,0.96929,-0.22241,2023,6,12,10,2,4,114
0.10200,2.73000,-4.39250,0.00000,0.01037,0.96929,-0.22082,2023,6,12,10,2,4,125
0.10210,3.22000,-4.46250,0.00000,0.01159,0.97100,-0.22082,2023,6,12,10,2,4,136
0.10220,3.08000,-4.56750,0.00000,0.00866,0.96953,-0.22302,2023,6,12,10,2,4,147
0.10230,2.99250,-4.53250,0.00000,0.00732,0.96917,-0.22070,2023,6,12,10,2,4,158
0.10240,3.11500,-4.63750,0.00000,0.00793,0.96709,-0.22094,2023,6,12,10,2,4,169
0.10250,2.99250,-4.56750,0.00000,0.00939,0.96953,-0.22070,2023,6,12,10,2,4,180
0.10260,2.97500,-4.53250,0.00000,0.00891,0.96770,-0.22411,2023,6,12,10,2,4,191
0.10270,3.27250,-4.49750,0.00000,0.00939,0.96953,-0.22204,2023,6,12,10,2,4,203
0.10280,3.55250,-4.56750,0.00000,0.00976,0.96648,-0.22204,2023,6,12,10,2,4,214
0.10290,3.46500,-4.60250,0.00000,0.00842,0.96905,-0.22216,2023,6,12,10,2,4,225
0.10300,3.37750,-4.58500,0.00000,0.00805,0.96966,-0.22180,2023,6,12,10,2,4,236
0.10310,3.23750,-4.41000,0.00000,0.00805,0.96880,-0.22265,2023,6,12,10,2,4,247
0.10320,3.13250,-4.62000,0.00000,0.00744,0.96648,-0.22424,2023,6,12,10,2,4,258
0.10330,2.80000,-4.48000,0.00000,0.00781,0.96966,-0.22350,2023,6,12,10,2,4,269
0.10340,2.62500,-4.56750,0.00000,0.00708,0.97002,-0.22436,2023,6,12,10,2,4,280
0.10350,2.55500,-4.60250,0.00000,0.00891,0.96966,-0.22253,2023,6,12,10,2,4,291
0.10360,2.85250,-4.62000,0.00000,0.00842,0.96856,-0.22167,2023,6,12,10,2,4,303
0.10370,2.95750,-4.49750,0.00000,0.00903,0.96941,-0.22411,2023,6,12,10,2,4,314
0.10380,2.94000,-4.63750,0.00000,0.00842,0.96929,-0.22387,2023,6,12,10,2,4,325
0.10390,2.87000,-4.48000,0.00000,0.00903,0.96844,-0.22241,2023,6,12,10,2,4,336
0.10400,2.87000,-4.58500,0.00000,0.00671,0.96868,-0.22314,2023,6,12,10,2,4,347
0.10410,2.74750,-4.60250,0.00000,0.00854,0.96978,-0.22375,2023,6,12,10,2,4,358
0.10420,2.15250,-4.41000,0.00000,0.00988,0.96966,-0.22302,2023,6,12,10,2,4,369
0.10430,2.59000,-4.49750,0.00000,0.00915,0.96966,-0.22033,2023,6,12,10,2,4,380
0.10440,2.88750,-4.51500,0.00000,0.00878,0.96636,-0.22131,2023,6,12,10,2,4,391
0.10450,2.76500,-4.30500,0.00000,0.00769,0.96722,-0.22216,2023,6,12,10,2,4,403
0.10460,2.90500,-4.53250,0.00000,0.00793,0.96770,-0.22277,2023,6,12,10,2,4,414
0.10470,2.55500,-4.49750,0.00000,0.00659,0.96624,-0.22155,2023,6,12,10,2,4,425
0.10480,2.74750,-4.49750,0.00000,0.00647,0.96917,-0.22143,2023,6,12,10,2,4,436
0.10490,2.95750,-4.69000,0.00000,0.00842,0.96746,-0.22180,2023,6,12,10,2,4,447
0.10500,2.80000,-4.65500,0.00000,0.01135,0.96905,-0.22253,2023,6,12,10,2,4,458
0.10510,2.92250,-4.63750,0.00000,0.00781,0.96953,-0.21997,2023,6,12,10,2,4,469
0.10520,3.20250,-4.69000,0.00000,0.00891,0.96941,-0.22216,2023,6,12,10,2,4,480
0.10530,2.85250,-4.69000,0.00000,0.00781,0.97088,-0.22070,2023,6,12,10,2,4,491
0.10540,3.11500,-4.37500,0.00000,0.00683,0.97039,-0.21972,2023,6,12,10,2,4,503
0.10550,3.04500,-4.83000,0.00000,0.00866,0.97112,-0.22228,2023,6,12,10,2,4,514
0.10560,2.97500,-4.53250,0.00000,0.00976,0.96978,-0.22167,2023,6,12,10,2,4,525
0.10570,3.08000,-4.81250,0.00000,0.00891,0.97075,-0.22009,2023,6,12,10,2,4,536
0.10580,2.94000,-4.42750,0.00000,0.00805,0.96929,-0.22143,2023,6,12,10,2,4,547
0.10590,3.01000,-4.44500,0.00000,0.00927,0.97075,-0.22106,2023,6,12,10,2,4,558
0.10600,2.59000,-4.32250,0.00000,0.00744,0.96819,-0.22460,2023,6,12,10,2,4,569
0.10610,2.66000,-4.39250,0.00000,0.00634,0.96978,-0.22326,2023,6,12,10,2,4,580
0.10620,2.76500,-4.65500,0.00000,0.00891,0.96941,-0.22338,2023,6,12,10,2,4,591
0.10630,2.67750,-4.46250,0.00000,0.01013,0.96905,-0.22472,2023,6,12,10,2,4,603
0.10640,2.85250,-4.44500,0.00000,0.00939,0.96929,-0.22326,2023,6,12,10,2,4,614
0.10650,3.11500,-4.62000,0.00000,0.00695,0.96831,-0.22228,2023,6,12,10,2,4,625
0.10660,2.45000,-4.56750,0.00000,0.01000,0.97027,-0.22167,2023,6,12,10,2,4,636
0.10670,3.22000,-4.81250,0.00000,0.00939,0.96953,-0.22204,2023,6,12,10,2,4,647
0.10680,3.11500,-4.51500,0.00000,0.00586,0.96953,-0.22424,2023,6,12,10,2,4,658
0.10690,2.50250,-4.25250,0.00000,0.00817,0.96868,-0.22314,2023,6,12,10,2,4,669
0.10700,2.50250,-4.25250,0.00000,0.00817,0.96746,-0.22350,2023,6,12,10,2,4,680
0.10710,2.90500,-4.51500,0.00000,0.00610,0.97112,-0.22180,2023,6,12,10,2,4,691
0.10720,2.81750,-4.51500,0.00000,0.00805,0.96856,-0.22277,2023,6,12,10,2,4,703
0.10730,3.04500,-4.67250,0.00000,0.00927,0.96892,-0.22192,2023,6,12,10,2,4,714
0.10740,3.08000,-4.62000,0.00000,0.00927,0.96978,-0.22363,2023,6,12,10,2,4,725
0.10750,2.76500,-4.39250,0.00000,0.00976,0.96819,-0.22216,2023,6,12,10,2,4,736
0.10760,3.01000,-4.46250,0.00000,0.01074,0.96905,-0.22521,2023,6,12,10,2,4,747
0.10770,2.97500,-4.58500,0.00000,0.00964,0.97039,-0.22253,2023,6,12,10,2,4,758
0.10780,3.13250,-4.62000,0.00000,0.00964,0.96856,-0.22472,2023,6,12,10,2,4,769
0.10790,2.92250,-4.51500,0.00000,0.01049,0.97039,-0.22570,2023,6,12,10,2,4,780
0.10800,2.90500,-4.67250,0.00000,0.00927,0.96941,-0.22448,2023,6,12,10,2,4,791
0.10810,3.13250,-4.70750,0.00000,0.00817,0.96648,-0.22070,2023,6,12,10,2,4,803
0.10820,3.09750,-4.79500,0.00000,0.00891,0.96844,-0.22253,2023,6,12,10,2,4,814
0.10830,3.09750,-4.60250,0.00000,0.01074,0.96819,-0.22472,2023,6,12,10,2,4,825
0.10840,3.20250,-4.67250,0.00000,0.00915,0.96953,-0.22350,2023,6,12,10,2,4,836
0.10850,3.30750,-4.77750,0.00000,0.00927,0.96807,-0.22399,2023,6,12,10,2,4,847
0.10860,2.97500,-4.35750,0.00000,0.01037,0.96783,-0.22253,2023,6,12,10,2,4,858
0.10870,2.80000,-4.56750,0.00000,0.00720,0.97039,-0.22253,2023,6,12,10,2,4,869
0.10880,2.87000,-4.42750,0.00000,0.00756,0.96905,-0.22399,2023,6,12,10,2,4,880
0.10890,2.66000,-4.21750,0.00000,0.00842,0.96758,-0.22253,2023,6,12,10,2,4,891
0.10900,2.85250,-4.65500,0.00000,0.01122,0.97014,-0.22363,2023,6,12,10,2,4,903
0.10910,2.64250,-4.42750,0.00000,0.00927,0.97088,-0.22277,2023,6,12,10,2,4,914
0.10920,3.04500,-4.46250,0.00000,0.00939,0.96673,-0.22180,2023,6,12,10,2,4,925
0.10930,2.88750,-4.58500,0.00000,0.00891,0.97088,-0.22167,2023,6,12,10,2,4,936
0.10940,3.09750,-4.70750,0.00000,0.00939,0.96978,-0.22485,2023,6,12,10,2,4,947
0.10950,2.92250,-4.58500,0.00000,0.00708,0.96734,-0.22387,2023,6,12,10,2,4,958
0.10960,2.85250,-4.49750,0.00000,0.00525,0.96783,-0.22399,2023,6,12,10,2,4,969
0.10970,2.85250,-4.56750,0.00000,0.00744,0.96831,-0.22472,2023,6,12,10,2,5,0
0.10980,2.85250,-4.41000,0.00000,0.00952,0.96770,-0.22119,2023,6,12,10,2,5,11
0.10990,2.74750,-4.58500,0.00000,0.00878,0.96734,-0.21948,2023,6,12,10,2,5,23
0.11000,2.99250,-4.60250,0.00000,0.00695,0.96978,-0.22119,2023,6,12,10,2,5,34
0.11010,3.01000,-4.70750,0.00000,0.01025,0.97136,-0.22155,2023,6,12,10,2,5,45
0.11020,3.01000,-4.72500,0.00000,0.01122,0.96697,-0.22350,2023,6,12,10,2,5,56
0.11030,3.20250,-4.86500,0.00000,0.00695,0.96953,-0.22192,2023,6,12,10,2,5,67
0.11040,3.01000,-4.58500,0.00000,0.00708,0.96868,-0.22082,2023,6,12,10,2,5,78
0.11050,3.01000,-4.67250,0.00000,0.00915,0.96953,-0.22326,2023,6,12,10,2,5,89
0.11060,3.01000,-4.74250,0.00000,0.00878,0.96795,-0.22131,2023,6,12,10,2,5,100
0.11070,2.99250,-4.55000,0.00000,0.00842,0.96844,-0.22094,2023,6,12,10,2,5,111
0.11080,2.94000,-4.51500,0.00000,0.00952,0.97014,-0.22289,2023,6,12,10,2,5,123
0.11090,3.11500,-4.65500,0.00000,0.00793,0.97161,-0.22131,2023,6,12,10,2,5,134
0.11100,3.15000,-4.42750,0.00000,0.00817,0.97161,-0.22192,2023,6,12,10,2,5,145
0.11110,2.97500,-4.69000,0.00000,0.00878,0.96856,-0.22045,2023,6,12,10,2,5,156
0.11120,2.92250,-4.60250,0.00000,0.00952,0.96795,-0.22228,2023,6,12,10,2,5,167
0.11130,2.92250,-4.83000,0.00000,0.00695,0.96831,-0.22216,2023,6,12,10,2,5,178
0.11140,2.87000,-4.48000,0.00000,0.00756,0.96783,-0.22338,2023,6,12,10,2,5,189
0.11150,2.81750,-4.60250,0.00000,0.01037,0.96917,-0.22314,2023,6,12,10,2,5,200
0.11160,2.67750,-4.53250,0.00000,0.00903,0.96868,-0.22558,2023,6,12,10,2,5,211
0.11170,2.78250,-4.67250,0.00000,0.00891,0.96856,-0.22375,2023,6,12,10,2,5,223
0.11180,2.76500,-4.51500,0.00000,0.01000,0.97014,-0.22668,2023,6,12,10,2,5,234
0.11190,2.85250,-4.70750,0.00000,0.00927,0.97014,-0.22424,2023,6,12,10,2,5,245
0.11200,3.06250,-4.62000,0.00000,0.00939,0.97124,-0.22741,2023,6,12,10,2,5,256
0.11210,2.90500,-4.60250,0.00000,0.00817,0.96990,-0.22424,2023,6,12,10,2,5,267
0.11220,2.90500,-4.39250,0.00000,0.00952,0.96807,-0.22558,2023,6,12,10,2,5,278
0.11230,2.88750,-4.69000,0.00000,0.00891,0.96905,-0.22363,2023,6,12,10,2,5,289
0.11240,2.88750,-4.55000,0.00000,0.00952,0.96929,-0.22582,2023,6,12,10,2,5,300
0.11250,2.76500,-4.28750,0.00000,0.00952,0.96673,-0.22509,2023,6,12,10,2,5,311
0.11260,2.69500,-4.48000,0.00000,0.00854,0.96819,-0.22375,2023,6,12,10,2,5,323
0.11270,2.87000,-4.25250,0.00000,0.00854,0.96892,-0.22594,2023,6,12,10,2,5,334
0.11280,2.80000,-4.42750,0.00000,0.01037,0.97112,-0.22558,2023,6,12,10,2,5,345
0.11290,2.80000,-4.56750,0.00000,0.00976,0.96795,-0.22387,2023,6,12,10,2,5,356
0.11300,2.85250,-4.62000,0.00000,0.00976,0.96868,-0.22448,2023,6,12,10,2,5,367
0.11310,2.80000,-4.46250,0.00000,0.00830,0.96868,-0.22326,2023,6,12,10,2,5,378
0.11320,2.99250,-4.53250,0.00000,0.00708,0.96978,-0.22411,2023,6,12,10,2,5,389
0.11330,3.02750,-4.46250,0.00000,0.00988,0.96953,-0.22436,2023,6,12,10,2,5,400
0.11340,3.02750,-4.56750,0.00000,0.00891,0.97014,-0.22302,2023,6,12,10,2,5,411
0.11350,3.11500,-4.65500,0.00000,0.01061,0.96941,-0.22497,2023,6,12,10,2,5,423
0.11360,3.06250,-4.51500,0.00000,0.00683,0.96807,-0.22350,2023,6,12,10,2,5,434
0.11370,2.99250,-4.60250,0.00000,0.00732,0.96661,-0.22350,2023,6,12,10,2,5,445
0.11380,3.01000,-4.81250,0.00000,0.00878,0.96953,-0.22289,2023,6,12,10,2,5,456
0.11390,3.04500,-4.63750,0.00000,0.00939,0.96746,-0.22448,2023,6,12,10,2,5,467
0.11400,2.92250,-4.60250,0.00000,0.00854,0.96856,-0.22204,2023,6,12,10,2,5,478
0.11410,3.13250,-4.53250,0.00000,0.00891,0.97088,-0.22375,2023,6,12,10,2,5,489
0.11420,3.23750,-4.58500,0.00000,0.00903,0.96892,-0.22387,2023,6,12,10,2,5,500
0.11430,3.02750,-4.56750,0.00000,0.00976,0.96636,-0.22350,2023,6,12,10,2,5,511
0.11440,3.04500,-4.70750,0.00000,0.00903,0.97027,-0.22350,2023,6,12,10,2,5,523
0.11450,2.92250,-4.83000,0.00000,0.01183,0.97014,-0.22241,2023,6,12,10,2,5,534
0.11460,2.87000,-4.58500,0.00000,0.00695,0.96624,-0.22277,2023,6,12,10,2,5,545
0.11470,2.83500,-4.69000,0.00000,0.00817,0.96953,-0.22131,2023,6,12,10,2,5,556
0.11480,3.09750,-4.63750,0.00000,0.00976,0.96978,-0.22448,2023,6,12,10,2,5,567
0.11490,2.97500,-4.48000,0.00000,0.00891,0.96929,-0.22265,2023,6,12,10,2,5,578
0.11500,2.97500,-4.56750,0.00000,0.01037,0.96880,-0.22424,2023,6,12,10,2,5,589
0.11510,2.90500,-4.44500,0.00000,0.00915,0.96929,-0.22424,2023,6,12,10,2,5,600
0.11520,2.97500,-4.51500,0.00000,0.00903,0.97112,-0.22363,2023,6,12,10,2,5,611
0.11530,2.85250,-4.63750,0.00000,0.00988,0.96856,-0.22241,2023,6,12,10,2,5,623
0.11540,3.04500,-4.49750,0.00000,0.00952,0.96807,-0.22155,2023,6,12,10,2,5,634
0.11550,2.94000,-4.67250,0.00000,0.01025,0.96917,-0.22009,2023,6,12,10,2,5,645
0.11560,3.01000,-4.60250,0.00000,0.00903,0.96819,-0.22180,2023,6,12,10,2,5,656
0.11570,2.92250,-4.74250,0.00000,0.00842,0.96624,-0.22106,2023,6,12,10,2,5,667
0.11580,2.85250,-4.72500,0.00000,0.01000,0.96856,-0.22167,2023,6,12,10,2,5,678
0.11590,3.06250,-4.90000,0.00000,0.01086,0.96905,-0.22228,2023,6,12,10,2,5,689
0.11600,3.15000,-4.70750,0.00000,0.00891,0.96880,-0.22204,2023,6,12,10,2,5,700
0.11610,3.09750,-4.76000,0.00000,0.00878,0.96819,-0.22192,2023,6,12,10,2,5,711
0.11620,2.83500,-4.69000,0.00000,0.00805,0.96929,-0.22216,2023,6,12,10,2,5,723
0.11630,2.83500,-4.63750,0.00000,0.00793,0.96819,-0.22082,2023,6,12,10,2,5,734
0.11640,3.15000,-4.58500,0.00000,0.00842,0.96990,-0.22399,2023,6,12,10,2,5,745
0.11650,3.01000,-4.67250,0.00000,0.01086,0.97039,-0.22448,2023,6,12,10,2,5,756
0.11660,3.08000,-4.58500,0.00000,0.01049,0.96978,-0.22021,2023,6,12,10,2,5,767
0.11670,2.78250,-4.49750,0.00000,0.00903,0.97002,-0.22277,2023,6,12,10,2,5,778
0.11680,2.80000,-4.70750,0.00000,0.00805,0.96709,-0.22253,2023,6,12,10,2,5,789
0.11690,2.94000,-4.55000,0.00000,0.00781,0.96905,-0.22277,2023,6,12,10,2,5,800
0.11700,2.85250,-4.65500,0.00000,0.00976,0.96929,-0.22277,2023,6,12,10,2,5,811
0.11710,2.81750,-4.65500,0.00000,0.01025,0.96941,-0.22143,2023,6,12,10,2,5,823
0.11720,3.16750,-4.63750,0.00000,0.00720,0.97112,-0.22253,2023,6,12,10,2,5,834
0.11730,3.13250,-4.53250,0.00000,0.00952,0.97075,-0.22204,2023,6,12,10,2,5,845
0.11740,2.99250,-4.69000,0.00000,0.00817,0.96978,-0.22277,2023,6,12,10,2,5,856
0.11750,2.81750,-4.44500,0.00000,0.00708,0.96990,-0.22497,2023,6,12,10,2,5,867
0.11760,2.87000,-4.74250,0.00000,0.00769,0.96892,-0.22155,2023,6,12,10,2,5,878
0.11770,3.02750,-4.49750,0.00000,0.00793,0.96905,-0.22167,2023,6,12,10,2,5,889
0.11780,3.13250,-4.62000,0.00000,0.00878,0.96819,-0.22253,2023,6,12,10,2,5,900
0.11790,3.08000,-4.55000,0.00000,0.00927,0.96856,-0.22387,2023,6,12,10,2,5,911
0.11800,2.99250,-4.62000,0.00000,0.00805,0.96892,-0.22350,2023,6,12,10,2,5,923
0.11810,2.83500,-4.48000,0.00000,0.00695,0.96880,-0.22167,2023,6,12,10,2,5,934
0.11820,3.04500,-4.90000,0.00000,0.00927,0.97063,-0.22192,2023,6,12,10,2,5,945
0.11830,2.99250,-4.55000,0.00000,0.00915,0.97002,-0.22326,2023,6,12,10,2,5,956
0.11840,2.85250,-4.63750,0.00000,0.00830,0.96819,-0.22192,2023,6,12,10,2,5,967
0.11850,3.16750,-4.60250,0.00000,0.00976,0.96880,-0.22277,2023,6,12,10,2,6,8
0.11860,2.88750,-4.53250,0.00000,0.00878,0.96941,-0.22058,2023,6,12,10,2,6,19
0.11870,2.71250,-4.32250,0.00000,0.00854,0.97014,-0.22180,2023,6,12,10,2,6,30
0.11880,2.94000,-4.72500,0.00000,0.00927,0.96880,-0.22070,2023,6,12,10,2,6,41
0.11890,2.92250,-4.63750,0.00000,0.00891,0.96953,-0.22289,2023,6,12,10,2,6,53
0.11900,2.83500,-4.55000,0.00000,0.00793,0.96905,-0.22204,2023,6,12,10,2,6,64
0.11910,3.01000,-4.65500,0.00000,0.00854,0.97002,-0.22119,2023,6,12,10,2,6,75
0.11920,2.85250,-4.60250,0.00000,0.00805,0.97014,-0.22155,2023,6,12,10,2,6,86
0.11930,2.85250,-4.63750,0.00000,0.00878,0.96868,-0.22058,2023,6,12,10,2,6,97
0.11940,3.01000,-4.69000,0.00000,0.01220,0.96953,-0.22302,2023,6,12,10,2,6,108
0.11950,2.95750,-4.49750,0.00000,0.00988,0.96880,-0.22216,2023,6,12,10,2,6,119
0.11960,2.90500,-4.53250,0.00000,0.00854,0.96929,-0.22045,2023,6,12,10,2,6,130
0.11970,2.95750,-4.56750,0.00000,0.00878,0.96697,-0.22070,2023,6,12,10,2,6,141
0.11980,3.13250,-4.58500,0.00000,0.00744,0.96990,-0.22387,2023,6,12,10,2,6,153
0.11990,2.97500,-4.51500,0.00000,0.00927,0.96905,-0.21936,2023,6,12,10,2,6,164
0.12000,2.95750,-4.46250,0.00000,0.01098,0.96966,-0.22289,2023,6,12,10,2,6,175
0.12010,2.81750,-4.69000,0.00000,0.00891,0.96856,-0.22021,2023,6,12,10,2,6,186
0.12020,3.04500,-4.63750,0.00000,0.01074,0.97112,-0.22192,2023,6,12,10,2,6,197
0.12030,3.09750,-4.58500,0.00000,0.00805,0.96868,-0.22326,2023,6,12,10,2,6,208
0.12040,2.85250,-4.44500,0.00000,0.00830,0.96856,-0.22180,2023,6,12,10,2,6,219
0.12050,2.97500,-4.58500,0.00000,0.00891,0.96880,-0.22216,2023,6,12,10,2,6,230
0.12060,2.99250,-4.48000,0.00000,0.00988,0.96844,-0.22082,2023,6,12,10,2,6,241
0.12070,2.88750,-4.49750,0.00000,0.00842,0.96795,-0.22131,2023,6,12,10,2,6,253
0.12080,2.88750,-4.62000,0.00000,0.01025,0.97173,-0.22131,2023,6,12,10,2,6,264
0.12090,3.11500,-4.55000,0.00000,0.00830,0.97197,-0.21972,2023,6,12,10,2,6,275
0.12100,3.09750,-4.67250,0.00000,0.00878,0.97063,-0.22228,2023,6,12,10,2,6,286
0.12110,2.88750,-4.55000,0.00000,0.00659,0.97051,-0.22192,2023,6,12,10,2,6,297
0.12120,3.01000,-4.77750,0.00000,0.00878,0.96953,-0.22253,2023,6,12,10,2,6,308
0.12130,2.97500,-4.49750,0.00000,0.00805,0.97063,-0.22253,2023,6,12,10,2,6,319
0.12140,2.97500,-4.49750,0.00000,0.01074,0.97027,-0.22180,2023,6,12,10,2,6,330
0.12150,2.92250,-4.62000,0.00000,0.00756,0.97051,-0.22228,2023,6,12,10,2,6,341
0.12160,2.95750,-4.74250,0.00000,0.01098,0.97039,-0.22155,2023,6,12,10,2,6,353
0.12170,2.83500,-4.42750,0.00000,0.00964,0.96966,-0.22119,2023,6,12,10,2,6,364
0.12180,2.92250,-4.41000,0.00000,0.00964,0.96953,-0.22155,2023,6,12,10,2,6,375
0.12190,3.02750,-4.69000,0.00000,0.00891,0.96783,-0.22155,2023,6,12,10,2,6,386
0.12200,3.04500,-4.51500,0.00000,0.00964,0.96795,-0.22082,2023,6,12,10,2,6,397
0.12210,3.01000,-4.58500,0.00000,0.00793,0.97185,-0.22204,2023,6,12,10,2,6,408
0.12220,2.74750,-4.51500,0.00000,0.00793,0.97063,-0.22143,2023,6,12,10,2,6,419
0.12230,2.95750,-4.51500,0.00000,0.00756,0.96831,-0.22180,2023,6,12,10,2,6,430
0.12240,2.73000,-4.58500,0.00000,0.00988,0.97002,-0.22265,2023,6,12,10,2,6,441
0.12250,2.74750,-4.48000,0.00000,0.01000,0.97197,-0.22192,2023,6,12,10,2,6,453
0.12260,2.95750,-4.65500,0.00000,0.00781,0.96856,-0.22216,2023,6,12,10,2,6,464
0.12270,2.88750,-4.65500,0.00000,0.00939,0.96905,-0.22216,2023,6,12,10,2,6,475
0.12280,2.76500,-4.55000,0.00000,0.00988,0.97014,-0.21972,2023,6,12,10,2,6,486
0.12290,3.25500,-4.74250,0.00000,0.00952,0.96844,-0.22204,2023,6,12,10,2,6,497
0.12300,2.92250,-4.41000,0.00000,0.00720,0.96697,-0.22143,2023,6,12,10,2,6,508
0.12310,3.04500,-4.58500,0.00000,0.01171,0.96612,-0.22241,2023,6,12,10,2,6,519
0.12320,3.09750,-4.55000,0.00000,0.01074,0.96868,-0.21899,2023,6,12,10,2,6,530
0.12330,2.99250,-4.46250,0.00000,0.00854,0.96844,-0.21716,2023,6,12,10,2,6,541
0.12340,2.76500,-4.44500,0.00000,0.00891,0.96624,-0.21984,2023,6,12,10,2,6,553
0.12350,2.78250,-4.41000,0.00000,0.00805,0.96917,-0.22180,2023,6,12,10,2,6,564
0.12360,3.01000,-4.72500,0.00000,0.01074,0.96905,-0.21997,2023,6,12,10,2,6,575
0.12370,2.90500,-4.44500,0.00000,0.01000,0.96783,-0.22180,2023,6,12,10,2,6,586
0.12380,2.99250,-4.41000,0.00000,0.00683,0.96819,-0.22094,2023,6,12,10,2,6,597
0.12390,2.73000,-4.51500,0.00000,0.00915,0.97051,-0.22192,2023,6,12,10,2,6,608
0.12400,2.87000,-4.39250,0.00000,0.00793,0.96966,-0.21911,2023,6,12,10,2,6,619
0.12410,2.80000,-4.72500,0.00000,0.00964,0.96673,-0.22106,2023,6,12,10,2,6,630
0.12420,3.06250,-4.42750,0.00000,0.01061,0.96990,-0.22131,2023,6,12,10,2,6,641
0.12430,2.78250,-4.48000,0.00000,0.00878,0.96917,-0.22167,2023,6,12,10,2,6,653
0.12440,2.85250,-4.60250,0.00000,0.00830,0.96929,-0.22167,2023,6,12,10,2,6,664
0.12450,2.95750,-4.58500,0.00000,0.00854,0.96709,-0.22070,2023,6,12,10,2,6,675
0.12460,2.92250,-4.56750,0.00000,0.00891,0.96795,-0.22058,2023,6,12,10,2,6,686
0.12470,2.97500,-4.56750,0.00000,0.01000,0.97027,-0.22045,2023,6,12,10,2,6,697
0.12480,2.92250,-4.46250,0.00000,0.00805,0.97027,-0.22143,2023,6,12,10,2,6,708
0.12490,2.66000,-4.49750,0.00000,0.00915,0.96844,-0.22106,2023,6,12,10,2,6,719
0.12500,2.45000,-4.27000,0.00000,0.00952,0.96929,-0.22167,2023,6,12,10,2,6,730
0.12510,2.17000,-3.93750,0.00000,0.00939,0.96905,-0.22253,2023,6,12,10,2,6,741
0.12520,2.24000,-4.23500,0.00000,0.00830,0.96917,-0.22082,2023,6,12,10,2,6,753
0.12530,2.25750,-4.06000,0.00000,0.01000,0.96966,-0.22094,2023,6,12,10,2,6,764
0.12540,2.41500,-3.99000,0.00000,0.01037,0.96905,-0.21862,2023,6,12,10,2,6,775
0.12550,2.66000,-4.56750,0.00000,0.01061,0.96905,-0.21740,2023,6,12,10,2,6,786
0.12560,2.67750,-4.42750,0.00000,0.01086,0.97014,-0.21923,2023,6,12,10,2,6,797
0.12570,2.62500,-4.28750,0.00000,0.00976,0.96844,-0.21826,2023,6,12,10,2,6,808
0.12580,2.71250,-4.37500,0.00000,0.01086,0.97161,-0.21801,2023,6,12,10,2,6,819
0.12590,2.57250,-4.35750,0.00000,0.01110,0.96966,-0.22009,2023,6,12,10,2,6,830
0.12600,2.78250,-4.55000,0.00000,0.00781,0.96892,-0.21777,2023,6,12,10,2,6,841
0.12610,2.69500,-4.42750,0.00000,0.01171,0.97002,-0.21838,2023,6,12,10,2,6,853
0.12620,3.13250,-4.77750,0.00000,0.01037,0.96746,-0.21801,2023,6,12,10,2,6,864
0.12630,2.95750,-4.63750,0.00000,0.01037,0.97014,-0.22167,2023,6,12,10,2,6,875
0.12640,2.92250,-4.39250,0.00000,0.00817,0.97185,-0.21911,2023,6,12,10,2,6,886
0.12650,2.87000,-4.58500,0.00000,0.00830,0.96905,-0.21875,2023,6,12,10,2,6,897
0.12660,2.73000,-4.46250,0.00000,0.01037,0.96941,-0.21765,2023,6,12,10,2,6,908
0.12670,2.88750,-4.53250,0.00000,0.00866,0.97051,-0.22180,2023,6,12,10,2,6,919
0.12680,2.81750,-4.51500,0.00000,0.01208,0.97197,-0.21789,2023,6,12,10,2,6,930
0.12690,3.18500,-4.48000,0.00000,0.01098,0.96978,-0.21972,2023,6,12,10,2,6,941
0.12700,2.97500,-4.46250,0.00000,0.00964,0.96990,-0.21887,2023,6,12,10,2,6,953
0.12710,2.73000,-4.32250,0.00000,0.00891,0.96929,-0.21814,2023,6,12,10,2,6,964
0.12720,2.90500,-4.44500,0.00000,0.00939,0.96929,-0.21862,2023,6,12,10,2,7,5
0.12730,2.92250,-4.72500,0.00000,0.01086,0.96795,-0.21862,2023,6,12,10,2,7,16
0.12740,2.83500,-4.41000,0.00000,0.01098,0.97234,-0.21789,2023,6,12,10,2,7,27
0.12750,2.85250,-4.42750,0.00000,0.00891,0.97051,-0.21850,2023,6,12,10,2,7,38
0.12760,2.80000,-4.48000,0.00000,0.01049,0.96770,-0.22045,2023,6,12,10,2,7,49
0.12770,2.81750,-4.58500,0.00000,0.01037,0.97027,-0.21960,2023,6,12,10,2,7,60
0.12780,2.78250,-4.41000,0.00000,0.00817,0.96929,-0.21960,2023,6,12,10,2,7,71
0.12790,2.95750,-4.41000,0.00000,0.00964,0.97063,-0.21801,2023,6,12,10,2,7,83
0.12800,2.94000,-4.53250,0.00000,0.01171,0.97027,-0.22119,2023,6,12,10,2,7,94
0.12810,2.67750,-4.48000,0.00000,0.01074,0.96905,-0.21984,2023,6,12,10,2,7,105
0.12820,2.85250,-4.39250,0.00000,0.00891,0.97027,-0.21862,2023,6,12,10,2,7,116
0.12830,2.74750,-4.76000,0.00000,0.00952,0.97051,-0.21911,2023,6,12,10,2,7,127
0.12840,2.78250,-4.55000,0.00000,0.00903,0.96770,-0.22033,2023,6,12,10,2,7,138
0.12850,2.83500,-4.60250,0.00000,0.01147,0.97112,-0.21911,2023,6,12,10,2,7,149
0.12860,2.92250,-4.72500,0.00000,0.00915,0.97063,-0.21582,2023,6,12,10,2,7,160
0.12870,2.92250,-4.65500,0.00000,0.01110,0.97161,-0.22082,2023,6,12,10,2,7,171
0.12880,3.01000,-4.60250,0.00000,0.00866,0.97124,-0.21862,2023,6,12,10,2,7,183
0.12890,2.71250,-4.30500,0.00000,0.01147,0.96941,-0.21728,2023,6,12,10,2,7,194
0.12900,2.88750,-4.41000,0.00000,0.01000,0.96856,-0.21936,2023,6,12,10,2,7,205
0.12910,3.06250,-4.62000,0.00000,0.01061,0.96978,-0.21777,2023,6,12,10,2,7,216
0.12920,2.90500,-4.49750,0.00000,0.01037,0.97124,-0.21801,2023,6,12,10,2,7,227
0.12930,2.74750,-4.76000,0.00000,0.00952,0.96978,-0.21838,2023,6,12,10,2,7,238
0.12940,2.83500,-4.48000,0.00000,0.01379,0.96917,-0.21801,2023,6,12,10,2,7,249
0.12950,2.92250,-4.56750,0.00000,0.01061,0.96892,-0.21801,2023,6,12,10,2,7,260
0.12960,3.06250,-4.51500,0.00000,0.00988,0.96978,-0.21997,2023,6,12,10,2,7,271
0.12970,3.18500,-4.70750,0.00000,0.00939,0.96941,-0.22009,2023,6,12,10,2,7,283
0.12980,2.94000,-4.46250,0.00000,0.01086,0.97063,-0.21899,2023,6,12,10,2,7,294
0.12990,2.85250,-4.51500,0.00000,0.01159,0.97149,-0.21814,2023,6,12,10,2,7,305
0.13000,3.01000,-4.58500,0.00000,0.00976,0.96917,-0.21948,2023,6,12,10,2,7,316
0.13010,2.81750,-4.44500,0.00000,0.01049,0.97112,-0.22167,2023,6,12,10,2,7,327
0.13020,3.04500,-4.58500,0.00000,0.01049,0.96966,-0.21948,2023,6,12,10,2,7,338
0.13030,2.88750,-4.74250,0.00000,0.00878,0.97051,-0.21728,2023,6,12,10,2,7,349
0.13040,2.83500,-4.41000,0.00000,0.00903,0.96917,-0.21948,2023,6,12,10,2,7,360
0.13050,3.02750,-4.58500,0.00000,0.00805,0.96880,-0.22070,2023,6,12,10,2,7,371
0.13060,2.92250,-4.60250,0.00000,0.00964,0.96917,-0.21936,2023,6,12,10,2,7,383
0.13070,2.97500,-4.56750,0.00000,0.01122,0.97014,-0.22009,2023,6,12,10,2,7,394
0.13080,2.87000,-4.62000,0.00000,0.01098,0.97027,-0.22131,2023,6,12,10,2,7,405
0.13090,2.73000,-4.65500,0.00000,0.01025,0.97124,-0.21899,2023,6,12,10,2,7,416
0.13100,2.94000,-4.72500,0.00000,0.01171,0.96868,-0.21801,2023,6,12,10,2,7,427
0.13110,3.02750,-4.42750,0.00000,0.01025,0.96856,-0.21801,2023,6,12,10,2,7,438
0.13120,2.88750,-4.32250,0.00000,0.01061,0.96783,-0.21862,2023,6,12,10,2,7,449
0.13130,2.95750,-4.58500,0.00000,0.00988,0.96917,-0.21948,2023,6,12,10,2,7,460
0.13140,3.04500,-4.65500,0.00000,0.00781,0.96612,-0.22106,2023,6,12,10,2,7,471
0.13150,3.01000,-4.77750,0.00000,0.01000,0.97063,-0.21838,2023,6,12,10,2,7,483
0.13160,2.97500,-4.76000,0.00000,0.01159,0.96624,-0.21801,2023,6,12,10,2,7,494
0.13170,2.88750,-4.56750,0.00000,0.00976,0.97051,-0.22021,2023,6,12,10,2,7,505
0.13180,2.92250,-4.62000,0.00000,0.00976,0.96966,-0.21875,2023,6,12,10,2,7,516
0.13190,2.81750,-4.28750,0.00000,0.00988,0.96917,-0.21850,2023,6,12,10,2,7,527
0.13200,2.99250,-4.39250,0.00000,0.01049,0.96905,-0.21643,2023,6,12,10,2,7,538
0.13210,2.81750,-4.49750,0.00000,0.00952,0.96966,-0.21826,2023,6,12,10,2,7,549
0.13220,2.95750,-4.65500,0.00000,0.01074,0.96770,-0.22094,2023,6,12,10,2,7,560
0.13230,2.92250,-4.44500,0.00000,0.01135,0.96661,-0.21862,2023,6,12,10,2,7,571
0.13240,2.94000,-4.65500,0.00000,0.00903,0.97039,-0.21826,2023,6,12,10,2,7,583
0.13250,3.01000,-4.62000,0.00000,0.00903,0.96819,-0.21631,2023,6,12,10,2,7,594
0.13260,2.90500,-4.53250,0.00000,0.00903,0.97075,-0.21826,2023,6,12,10,2,7,605
0.13270,3.13250,-4.51500,0.00000,0.01318,0.96758,-0.21631,2023,6,12,10,2,7,616
0.13280,2.97500,-4.69000,0.00000,0.01013,0.97075,-0.21606,2023,6,12,10,2,7,627
0.13290,2.94000,-4.60250,0.00000,0.01000,0.97027,-0.21801,2023,6,12,10,2,7,638
0.13300,2.99250,-4.63750,0.00000,0.00939,0.97014,-0.21948,2023,6,12,10,2,7,649
0.13310,2.83500,-4.48000,0.00000,0.01098,0.96917,-0.21850,2023,6,12,10,2,7,660
0.13320,2.87000,-4.58500,0.00000,0.01000,0.96917,-0.21692,2023,6,12,10,2,7,671
0.13330,2.78250,-4.41000,0.00000,0.00952,0.96941,-0.21643,2023,6,12,10,2,7,683
0.13340,2.71250,-4.56750,0.00000,0.00878,0.96978,-0.21911,2023,6,12,10,2,7,694
0.13350,2.80000,-4.46250,0.00000,0.00903,0.96648,-0.21899,2023,6,12,10,2,7,705
0.13360,2.85250,-4.56750,0.00000,0.00891,0.96807,-0.21997,2023,6,12,10,2,7,716
0.13370,2.76500,-4.49750,0.00000,0.01000,0.97014,-0.21862,2023,6,12,10,2,7,727
0.13380,3.01000,-4.46250,0.00000,0.01037,0.96722,-0.21887,2023,6,12,10,2,7,738
0.13390,3.01000,-4.42750,0.00000,0.01013,0.97136,-0.22192,2023,6,12,10,2,7,749
0.13400,2.87000,-4.56750,0.00000,0.00988,0.97075,-0.21899,2023,6,12,10,2,7,760
0.13410,2.74750,-4.56750,0.00000,0.01122,0.96905,-0.21997,2023,6,12,10,2,7,771
0.13420,2.97500,-4.53250,0.00000,0.00891,0.96966,-0.21899,2023,6,12,10,2,7,783
0.13430,2.80000,-4.53250,0.00000,0.01171,0.96941,-0.21533,2023,6,12,10,2,7,794
0.13440,2.94000,-4.56750,0.00000,0.00939,0.96941,-0.21570,2023,6,12,10,2,7,805
0.13450,2.97500,-4.37500,0.00000,0.01000,0.96917,-0.21875,2023,6,12,10,2,7,816
0.13460,2.90500,-4.65500,0.00000,0.01037,0.97075,-0.22033,2023,6,12,10,2,7,827
0.13470,3.02750,-4.67250,0.00000,0.01098,0.97039,-0.21862,2023,6,12,10,2,7,838
0.13480,2.90500,-4.62000,0.00000,0.01013,0.96722,-0.21753,2023,6,12,10,2,7,849
0.13490,2.76500,-4.42750,0.00000,0.01159,0.96953,-0.21984,2023,6,12,10,2,7,860
0.13500,2.78250,-4.39250,0.00000,0.01098,0.96807,-0.21984,2023,6,12,10,2,7,871
0.13510,2.74750,-4.65500,0.00000,0.01061,0.96831,-0.21875,2023,6,12,10,2,7,883
0.13520,2.87000,-4.53250,0.00000,0.01086,0.97100,-0.22094,2023,6,12,10,2,7,894
0.13530,3.01000,-4.55000,0.00000,0.01232,0.97258,-0.21960,2023,6,12,10,2,7,905
0.13540,2.92250,-4.74250,0.00000,0.01122,0.96941,-0.21716,2023,6,12,10,2,7,916
0.13550,2.69500,-4.56750,0.00000,0.00915,0.96783,-0.21960,2023,6,12,10,2,7,927
0.13560,2.94000,-4.67250,0.00000,0.01086,0.97014,-0.21911,2023,6,12,10,2,7,938
0.13570,2.88750,-4.51500,0.00000,0.01013,0.97197,-0.21948,2023,6,12,10,2,7,949
0.13580,3.02750,-4.62000,0.00000,0.01220,0.97027,-0.21875,2023,6,12,10,2,7,960
0.13590,2.87000,-4.44500,0.00000,0.01013,0.96917,-0.21923,2023,6,12,10,2,8,1
0.13600,2.94000,-4.42750,0.00000,0.00976,0.96917,-0.21911,2023,6,12,10,2,8,13
0.13610,3.04500,-4.42750,0.00000,0.01025,0.97088,-0.21728,2023,6,12,10,2,8,24
0.13620,3.01000,-4.67250,0.00000,0.01074,0.96978,-0.21997,2023,6,12,10,2,8,35
0.13630,2.85250,-4.60250,0.00000,0.01037,0.96953,-0.22082,2023,6,12,10,2,8,46
0.13640,2.78250,-4.42750,0.00000,0.01013,0.97027,-0.21862,2023,6,12,10,2,8,57
0.13650,2.99250,-4.60250,0.00000,0.01037,0.96844,-0.21850,2023,6,12,10,2,8,68
0.13660,2.94000,-4.72500,0.00000,0.01086,0.97075,-0.21899,2023,6,12,10,2,8,79
0.13670,2.67750,-4.28750,0.00000,0.01220,0.96917,-0.21936,2023,6,12,10,2,8,90
0.13680,2.87000,-4.48000,0.00000,0.01025,0.96758,-0.21911,2023,6,12,10,2,8,101
0.13690,3.11500,-4.56750,0.00000,0.01232,0.97149,-0.21667,2023,6,12,10,2,8,113
0.13700,2.95750,-4.55000,0.00000,0.00964,0.96722,-0.21692,2023,6,12,10,2,8,124
0.13710,3.01000,-4.48000,0.00000,0.01025,0.97124,-0.21826,2023,6,12,10,2,8,135
0.13720,2.92250,-4.44500,0.00000,0.01122,0.97002,-0.22143,2023,6,12,10,2,8,146
0.13730,2.97500,-4.42750,0.00000,0.01061,0.97051,-0.21887,2023,6,12,10,2,8,157
0.13740,2.94000,-4.76000,0.00000,0.01110,0.97149,-0.21911,2023,6,12,10,2,8,168
0.13750,2.92250,-4.56750,0.00000,0.01061,0.96978,-0.21997,2023,6,12,10,2,8,179
0.13760,3.13250,-4.72500,0.00000,0.01013,0.96807,-0.21789,2023,6,12,10,2,8,190
0.13770,3.01000,-4.48000,0.00000,0.00976,0.96856,-0.21826,2023,6,12,10,2,8,201
0.13780,3.15000,-4.65500,0.00000,0.01061,0.97051,-0.21728,2023,6,12,10,2,8,213
0.13790,2.81750,-4.53250,0.00000,0.01232,0.97112,-0.21814,2023,6,12,10,2,8,224
0.13800,3.30750,-4.84750,0.00000,0.00927,0.97051,-0.21899,2023,6,12,10,2,8,235
0.13810,3.18500,-4.81250,0.00000,0.01208,0.96953,-0.21850,2023,6,12,10,2,8,246
0.13820,3.60500,-4.95250,0.00000,0.01147,0.96978,-0.22009,2023,6,12,10,2,8,257
0.13830,3.76250,-4.81250,0.00000,0.01074,0.96880,-0.21997,2023,6,12,10,2,8,268
0.13840,3.65750,-4.86500,0.00000,0.00927,0.96856,-0.21911,2023,6,12,10,2,8,279
0.13850,3.74500,-5.12750,0.00000,0.01074,0.97014,-0.21936,2023,6,12,10,2,8,290
0.13860,3.67500,-4.98750,0.00000,0.01049,0.96905,-0.22082,2023,6,12,10,2,8,301
0.13870,3.62250,-4.86500,0.00000,0.00891,0.96990,-0.21826,2023,6,12,10,2,8,313
0.13880,3.78000,-4.95250,0.00000,0.00939,0.96905,-0.22143,2023,6,12,10,2,8,324
0.13890,3.58750,-4.90000,0.00000,0.01049,0.97173,-0.22241,2023,6,12,10,2,8,335
0.13900,3.48250,-5.02250,0.00000,0.00988,0.96831,-0.22033,2023,6,12,10,2,8,346
0.13910,3.62250,-4.88250,0.00000,0.00830,0.96868,-0.22033,2023,6,12,10,2,8,357
0.13920,3.50000,-4.77750,0.00000,0.00830,0.96807,-0.22021,2023,6,12,10,2,8,368
0.13930,2.83500,-4.48000,0.00000,0.00769,0.96990,-0.21936,2023,6,12,10,2,8,379
0.13940,2.88750,-4.67250,0.00000,0.01159,0.96941,-0.22058,2023,6,12,10,2,8,390
0.13950,2.64250,-4.44500,0.00000,0.00866,0.96905,-0.22131,2023,6,12,10,2,8,401
0.13960,2.57250,-4.39250,0.00000,0.00939,0.96892,-0.21948,2023,6,12,10,2,8,413
0.13970,2.83500,-4.69000,0.00000,0.00671,0.97100,-0.21936,2023,6,12,10,2,8,424
0.13980,2.87000,-4.53250,0.00000,0.01110,0.97149,-0.22045,2023,6,12,10,2,8,435
0.13990,2.74750,-4.35750,0.00000,0.00915,0.96941,-0.21997,2023,6,12,10,2,8,446
0.14000,2.81750,-4.58500,0.00000,0.00683,0.97063,-0.21948,2023,6,12,10,2,8,457
0.14010,2.92250,-4.56750,0.00000,0.00964,0.96941,-0.22058,2023,6,12,10,2,8,468
0.14020,2.80000,-4.63750,0.00000,0.00854,0.97014,-0.21875,2023,6,12,10,2,8,479
0.14030,3.09750,-4.58500,0.00000,0.00927,0.96978,-0.22277,2023,6,12,10,2,8,490
0.14040,2.87000,-4.49750,0.00000,0.00952,0.96990,-0.22192,2023,6,12,10,2,8,501
0.14050,3.08000,-4.62000,0.00000,0.00842,0.97002,-0.22143,2023,6,12,10,2,8,513
0.14060,2.97500,-4.56750,0.00000,0.00927,0.96819,-0.22009,2023,6,12,10,2,8,524
0.14070,2.78250,-4.46250,0.00000,0.00793,0.96990,-0.22143,2023,6,12,10,2,8,535
0.14080,2.88750,-4.74250,0.00000,0.00805,0.96636,-0.22045,2023,6,12,10,2,8,546
0.14090,2.83500,-4.48000,0.00000,0.00964,0.96966,-0.21936,2023,6,12,10,2,8,557
0.14100,2.95750,-4.44500,0.00000,0.00805,0.97063,-0.22009,2023,6,12,10,2,8,568
0.14110,3.02750,-4.65500,0.00000,0.00622,0.97027,-0.22253,2023,6,12,10,2,8,579
0.14120,3.25500,-4.63750,0.00000,0.00903,0.96831,-0.22277,2023,6,12,10,2,8,590
0.14130,3.36000,-4.86500,0.00000,0.01025,0.96758,-0.21984,2023,6,12,10,2,8,601
0.14140,3.32500,-4.70750,0.00000,0.00976,0.96868,-0.21875,2023,6,12,10,2,8,613
0.14150,3.51750,-4.46250,0.00000,0.00903,0.96892,-0.22009,2023,6,12,10,2,8,624
0.14160,3.44750,-4.67250,0.00000,0.00976,0.96990,-0.21984,2023,6,12,10,2,8,635
0.14170,3.27250,-4.67250,0.00000,0.00732,0.97039,-0.22119,2023,6,12,10,2,8,646
0.14180,2.99250,-4.74250,0.00000,0.00891,0.96880,-0.22094,2023,6,12,10,2,8,657
0.14190,2.45000,-4.41000,0.00000,0.00525,0.96831,-0.22460,2023,6,12,10,2,8,668
0.14200,0.56000,-3.92000,0.00000,0.00830,0.96844,-0.22155,2023,6,12,10,2,8,679
0.14210,2.43250,-4.23500,0.00000,0.01183,0.97185,-0.21838,2023,6,12,10,2,8,690
0.14220,3.06250,-4.60250,0.00000,0.01037,0.96868,-0.21936,2023,6,12,10,2,8,701
0.14230,2.71250,-4.41000,0.00000,0.00866,0.96722,-0.21923,2023,6,12,10,2,8,713
0.14240,2.80000,-4.56750,0.00000,0.01135,0.96917,-0.21948,2023,6,12,10,2,8,724
0.14250,2.94000,-4.56750,0.00000,0.00878,0.97051,-0.21753,2023,6,12,10,2,8,735
0.14260,3.34250,-4.69000,0.00000,0.01257,0.97014,-0.22033,2023,6,12,10,2,8,746
0.14270,2.85250,-4.65500,0.00000,0.00878,0.96844,-0.21923,2023,6,12,10,2,8,757
0.14280,2.94000,-4.60250,0.00000,0.01013,0.96941,-0.22045,2023,6,12,10,2,8,768
0.14290,3.16750,-4.69000,0.00000,0.01061,0.97027,-0.21740,2023,6,12,10,2,8,779
0.14300,3.13250,-4.67250,0.00000,0.00988,0.96990,-0.22009,2023,6,12,10,2,8,790
0.14310,2.90500,-4.58500,0.00000,0.00854,0.96929,-0.22204,2023,6,12,10,2,8,801
0.14320,2.88750,-4.77750,0.00000,0.00830,0.96966,-0.21948,2023,6,12,10,2,8,813
0.14330,2.83500,-4.60250,0.00000,0.01037,0.96917,-0.22131,2023,6,12,10,2,8,824
0.14340,2.95750,-4.42750,0.00000,0.01025,0.96746,-0.21838,2023,6,12,10,2,8,835
0.14350,2.88750,-4.60250,0.00000,0.00695,0.96819,-0.22021,2023,6,12,10,2,8,846
0.14360,2.92250,-4.42750,0.00000,0.01049,0.96929,-0.22131,2023,6,12,10,2,8,857
0.14370,2.73000,-4.25250,0.00000,0.01000,0.97161,-0.21875,2023,6,12,10,2,8,868
0.14380,2.92250,-4.79500,0.00000,0.00927,0.97051,-0.21765,2023,6,12,10,2,8,879
0.14390,3.22000,-4.77750,0.00000,0.00903,0.96880,-0.22070,2023,6,12,10,2,8,890
0.14400,3.16750,-4.62000,0.00000,0.00500,0.97014,-0.22192,2023,6,12,10,2,8,901
0.14410,2.73000,-4.44500,0.00000,0.00952,0.97051,-0.22302,2023,6,12,10,2,8,913
0.14420,2.57250,-4.46250,0.00000,0.01000,0.96941,-0.22033,2023,6,12,10,2,8,924
0.14430,2.99250,-4.69000,0.00000,0.00891,0.96795,-0.21826,2023,6,12,10,2,8,935
0.14440,3.04500,-4.65500,0.00000,0.00854,0.96892,-0.22021,2023,6,12,10,2,8,946
0.14450,2.92250,-4.58500,0.00000,0.00927,0.96917,-0.22131,2023,6,12,10,2,8,957
0.14460,3.02750,-4.70750,0.00000,0.00878,0.96807,-0.22009,2023,6,12,10,2,9,8
0.14470,3.08000,-4.63750,0.00000,0.00915,0.96844,-0.21911,2023,6,12,10,2,9,19
0.14480,2.94000,-4.34000,0.00000,0.00891,0.97075,-0.21850,2023,6,12,10,2,9,30
0.14490,2.95750,-4.67250,0.00000,0.01086,0.96966,-0.21862,2023,6,12,10,2,9,41
0.14500,2.99250,-4.67250,0.00000,0.00866,0.96892,-0.22119,2023,6,12,10,2,9,53
0.14510,3.22000,-4.58500,0.00000,0.01061,0.96856,-0.22094,2023,6,12,10,2,9,64
0.14520,2.97500,-4.49750,0.00000,0.01061,0.97075,-0.21923,2023,6,12,10,2,9,75
0.14530,3.55250,-5.25000,0.00000,0.01122,0.96941,-0.21728,2023,6,12,10,2,9,86
0.14540,4.30500,-5.49500,0.00000,0.00805,0.96661,-0.22082,2023,6,12,10,2,9,97
0.14550,2.03000,-3.90250,0.00000,0.00866,0.97027,-0.22070,2023,6,12,10,2,9,108
0.14560,2.15250,-3.76250,0.00000,0.00964,0.97002,-0.21387,2023,6,12,10,2,9,119
0.14570,3.78000,-5.12750,0.00000,0.00525,0.96722,-0.22119,2023,6,12,10,2,9,130
0.14580,2.59000,-4.30500,0.00000,0.01110,0.97185,-0.21850,2023,6,12,10,2,9,141
0.14590,3.13250,-4.79500,0.00000,0.00830,0.96953,-0.22045,2023,6,12,10,2,9,153
0.14600,2.74750,-4.48000,0.00000,0.00647,0.96941,-0.22045,2023,6,12,10,2,9,164
0.14610,2.74750,-4.58500,0.00000,0.00976,0.96978,-0.21899,2023,6,12,10,2,9,175
0.14620,2.90500,-4.56750,0.00000,0.00878,0.96905,-0.22131,2023,6,12,10,2,9,186
0.14630,3.06250,-4.55000,0.00000,0.00720,0.97051,-0.21984,2023,6,12,10,2,9,197
0.14640,2.80000,-4.46250,0.00000,0.00817,0.96990,-0.21997,2023,6,12,10,2,9,208
0.14650,2.87000,-4.37500,0.00000,0.01025,0.96929,-0.22021,2023,6,12,10,2,9,219
0.14660,3.08000,-4.62000,0.00000,0.00891,0.96905,-0.22045,2023,6,12,10,2,9,230
0.14670,2.97500,-4.74250,0.00000,0.01013,0.96990,-0.22241,2023,6,12,10,2,9,241
0.14680,2.95750,-4.46250,0.00000,0.00903,0.96734,-0.21936,2023,6,12,10,2,9,253
0.14690,3.06250,-4.63750,0.00000,0.00854,0.96917,-0.22167,2023,6,12,10,2,9,264
0.14700,2.99250,-4.49750,0.00000,0.01049,0.96966,-0.22192,2023,6,12,10,2,9,275
0.14710,3.11500,-4.62000,0.00000,0.01037,0.97039,-0.21984,2023,6,12,10,2,9,286
0.14720,3.08000,-4.51500,0.00000,0.01049,0.96978,-0.21936,2023,6,12,10,2,9,297
0.14730,3.18500,-4.56750,0.00000,0.01000,0.96880,-0.22155,2023,6,12,10,2,9,308
0.14740,2.85250,-4.56750,0.00000,0.00878,0.96905,-0.21936,2023,6,12,10,2,9,319
0.14750,2.78250,-4.35750,0.00000,0.00830,0.96831,-0.22192,2023,6,12,10,2,9,330
0.14760,2.78250,-4.62000,0.00000,0.01049,0.97002,-0.21923,2023,6,12,10,2,9,341
0.14770,3.15000,-4.74250,0.00000,0.00903,0.96966,-0.21814,2023,6,12,10,2,9,353
0.14780,2.97500,-4.67250,0.00000,0.00817,0.96905,-0.22094,2023,6,12,10,2,9,364
0.14790,2.85250,-4.49750,0.00000,0.00744,0.97027,-0.22021,2023,6,12,10,2,9,375
0.14800,2.92250,-4.56750,0.00000,0.01025,0.97234,-0.21911,2023,6,12,10,2,9,386
0.14810,2.95750,-4.41000,0.00000,0.00891,0.97051,-0.21972,2023,6,12,10,2,9,397
0.14820,3.11500,-4.48000,0.00000,0.01013,0.96819,-0.22009,2023,6,12,10,2,9,408
0.14830,2.94000,-4.42750,0.00000,0.00878,0.96941,-0.21997,2023,6,12,10,2,9,419
0.14840,2.73000,-4.49750,0.00000,0.00988,0.96929,-0.22033,2023,6,12,10,2,9,430
0.14850,2.83500,-4.49750,0.00000,0.00976,0.96868,-0.22082,2023,6,12,10,2,9,441
0.14860,2.80000,-4.30500,0.00000,0.00952,0.96917,-0.21887,2023,6,12,10,2,9,453
0.14870,2.71250,-4.79500,0.00000,0.00769,0.96685,-0.22167,2023,6,12,10,2,9,464
0.14880,2.88750,-4.44500,0.00000,0.01025,0.96978,-0.21899,2023,6,12,10,2,9,475
0.14890,2.95750,-4.48000,0.00000,0.01122,0.96953,-0.21850,2023,6,12,10,2,9,486
0.14900,2.99250,-4.56750,0.00000,0.00842,0.97002,-0.22070,2023,6,12,10,2,9,497
0.14910,3.06250,-4.79500,0.00000,0.00988,0.97088,-0.22155,2023,6,12,10,2,9,508
0.14920,3.18500,-4.69000,0.00000,0.00830,0.96905,-0.22070,2023,6,12,10,2,9,519
0.14930,3.25500,-4.93500,0.00000,0.00695,0.96929,-0.21911,2023,6,12,10,2,9,530
0.14940,2.92250,-4.55000,0.00000,0.01000,0.96929,-0.21984,2023,6,12,10,2,9,541
0.14950,2.80000,-4.60250,0.00000,0.01013,0.96856,-0.22228,2023,6,12,10,2,9,553
0.14960,3.02750,-4.70750,0.00000,0.00939,0.96819,-0.21984,2023,6,12,10,2,9,564
0.14970,2.92250,-4.55000,0.00000,0.00842,0.96892,-0.22082,2023,6,12,10,2,9,575
0.14980,2.99250,-4.62000,0.00000,0.00952,0.96990,-0.21814,2023,6,12,10,2,9,586
0.14990,2.88750,-4.48000,0.00000,0.00659,0.96990,-0.22058,2023,6,12,10,2,9,597
0.15000,2.81750,-4.44500,0.00000,0.00817,0.96880,-0.22119,2023,6,12,10,2,9,608
0.15010,2.95750,-4.53250,0.00000,0.00866,0.97112,-0.21948,2023,6,12,10,2,9,619
0.15020,2.83500,-4.48000,0.00000,0.00744,0.96734,-0.22045,2023,6,12,10,2,9,630
0.15030,2.95750,-4.67250,0.00000,0.00756,0.96856,-0.22277,2023,6,12,10,2,9,641
0.15040,2.76500,-4.44500,0.00000,0.00878,0.96709,-0.21899,2023,6,12,10,2,9,653
0.15050,3.01000,-4.46250,0.00000,0.00769,0.96953,-0.22204,2023,6,12,10,2,9,664
0.15060,2.97500,-4.44500,0.00000,0.00891,0.96783,-0.22216,2023,6,12,10,2,9,675
0.15070,2.87000,-4.44500,0.00000,0.00769,0.96856,-0.21997,2023,6,12,10,2,9,686
0.15080,2.90500,-4.58500,0.00000,0.01110,0.96734,-0.21923,2023,6,12,10,2,9,697
0.15090,2.71250,-4.51500,0.00000,0.00952,0.96905,-0.22228,2023,6,12,10,2,9,708
0.15100,2.94000,-4.53250,0.00000,0.00915,0.97027,-0.22265,2023,6,12,10,2,9,719
0.15110,2.74750,-4.37500,0.00000,0.00830,0.96770,-0.22033,2023,6,12,10,2,9,730
