#2023/06/12 16:01:59
time,wx,wy,wz,ax,ay,az,yy,MM,dd,hh,mm,ss,ms
0.00000,2.83500,-4.51500,0.00000,-0.01061,0.01196,-0.98491,2023,6,12,16,1,59,963
0.00010,2.83500,-4.62000,0.00000,-0.01171,0.01305,-0.98759,2023,6,12,16,1,59,974
0.00020,2.80000,-4.63750,0.00000,-0.00952,0.01281,-0.98771,2023,6,12,16,1,59,985
0.00030,2.92250,-4.65500,0.00000,-0.00952,0.01244,-0.98686,2023,6,12,16,1,59,996
0.00040,2.85250,-4.48000,0.00000,-0.01037,0.01171,-0.98515,2023,6,12,16,1,59,7
0.00050,2.94000,-4.49750,0.00000,-0.00988,0.01257,-0.98796,2023,6,12,16,1,59,18
0.00060,2.88750,-4.60250,0.00000,-0.01013,0.00964,-0.98527,2023,6,12,16,1,59,29
0.00070,2.92250,-4.62000,0.00000,-0.00952,0.01220,-0.98661,2023,6,12,16,1,59,40
0.00080,3.09750,-4.51500,0.00000,-0.00708,0.01049,-0.98747,2023,6,12,16,1,59,51
0.00090,2.88750,-4.42750,0.00000,-0.00927,0.01232,-0.98600,2023,6,12,16,1,59,62
0.00100,2.80000,-4.63750,0.00000,-0.01049,0.01305,-0.98747,2023,6,12,16,1,59,74
0.00110,3.04500,-4.72500,0.00000,-0.01000,0.01171,-0.98759,2023,6,12,16,1,59,85
0.00120,2.99250,-4.55000,0.00000,-0.00952,0.01098,-0.98698,2023,6,12,16,1,59,96
0.00130,2.83500,-4.77750,0.00000,-0.01171,0.01122,-0.98771,2023,6,12,16,1,59,107
0.00140,2.94000,-4.70750,0.00000,-0.00964,0.01098,-0.98454,2023,6,12,16,1,59,118
0.00150,2.78250,-4.49750,0.00000,-0.01135,0.00927,-0.98869,2023,6,12,16,1,59,129
0.00160,2.87000,-4.46250,0.00000,-0.00915,0.01135,-0.98710,2023,6,12,16,1,59,140
0.00170,2.99250,-4.60250,0.00000,-0.01025,0.01196,-0.98649,2023,6,12,16,1,59,151
0.00180,2.74750,-4.60250,0.00000,-0.01037,0.01086,-0.98625,2023,6,12,16,1,59,162
0.00190,2.94000,-4.46250,0.00000,-0.01122,0.01110,-0.98893,2023,6,12,16,1,59,174
0.00200,2.80000,-4.44500,0.00000,-0.00939,0.01391,-0.98783,2023,6,12,16,1,59,185
0.00210,3.02750,-4.76000,0.00000,-0.00988,0.01098,-0.98625,2023,6,12,16,1,59,196
0.00220,2.81750,-4.58500,0.00000,-0.00903,0.01440,-0.98661,2023,6,12,16,1,59,207
0.00230,2.80000,-4.53250,0.00000,-0.00878,0.00976,-0.98759,2023,6,12,16,2,0,8
0.00240,3.02750,-4.74250,0.00000,-0.00927,0.01074,-0.98600,2023,6,12,16,2,0,19
0.00250,3.18500,-4.62000,0.00000,-0.01000,0.01196,-0.98686,2023,6,12,16,2,0,30
0.00260,2.87000,-4.72500,0.00000,-0.01196,0.01110,-0.98576,2023,6,12,16,2,0,41
0.00270,3.04500,-4.60250,0.00000,-0.00952,0.01086,-0.98722,2023,6,12,16,2,0,52
0.00280,2.62500,-4.60250,0.00000,-0.01013,0.01196,-0.98649,2023,6,12,16,2,0,64
0.00290,2.76500,-4.55000,0.00000,-0.00903,0.01074,-0.98686,2023,6,12,16,2,0,75
0.00300,2.92250,-4.53250,0.00000,-0.01208,0.01244,-0.98722,2023,6,12,16,2,0,86
0.00310,2.81750,-4.51500,0.00000,-0.00939,0.01281,-0.98991,2023,6,12,16,2,0,97
0.00320,2.92250,-4.55000,0.00000,-0.00915,0.01171,-0.98942,2023,6,12,16,2,0,108
0.00330,2.99250,-4.48000,0.00000,-0.01061,0.01098,-0.98698,2023,6,12,16,2,0,119
0.00340,2.87000,-4.48000,0.00000,-0.01122,0.01098,-0.98759,2023,6,12,16,2,0,130
0.00350,2.94000,-4.46250,0.00000,-0.00976,0.01196,-0.98686,2023,6,12,16,2,0,141
0.00360,3.01000,-4.72500,0.00000,-0.01208,0.01135,-0.98783,2023,6,12,16,2,0,153
0.00370,2.83500,-4.58500,0.00000,-0.00915,0.01110,-0.98637,2023,6,12,16,2,0,164
0.00380,2.83500,-4.41000,0.00000,-0.00805,0.01037,-0.98747,2023,6,12,16,2,0,175
0.00390,2.95750,-4.60250,0.00000,-0.01049,0.01159,-0.98783,2023,6,12,16,2,0,186
0.00400,2.94000,-4.35750,0.00000,-0.00927,0.01208,-0.98600,2023,6,12,16,2,0,197
0.00410,2.85250,-4.60250,0.00000,-0.00964,0.01135,-0.98637,2023,6,12,16,2,0,208
0.00420,2.87000,-4.60250,0.00000,-0.01025,0.01110,-0.98600,2023,6,12,16,2,0,219
0.00430,3.13250,-4.70750,0.00000,-0.01135,0.01049,-0.98820,2023,6,12,16,2,0,230
0.00440,2.87000,-4.56750,0.00000,-0.00842,0.01086,-0.99003,2023,6,12,16,2,0,241
0.00450,3.08000,-4.81250,0.00000,-0.00878,0.01025,-0.99064,2023,6,12,16,2,0,253
0.00460,2.85250,-4.58500,0.00000,-0.01110,0.01257,-0.98832,2023,6,12,16,2,0,264
0.00470,2.97500,-4.72500,0.00000,-0.00952,0.01257,-0.98844,2023,6,12,16,2,0,275
0.00480,2.92250,-4.55000,0.00000,-0.00976,0.01110,-0.98600,2023,6,12,16,2,0,286
0.00490,2.97500,-4.56750,0.00000,-0.01098,0.01098,-0.98661,2023,6,12,16,2,0,297
0.00500,2.87000,-4.53250,0.00000,-0.01098,0.01098,-0.98966,2023,6,12,16,2,0,308
0.00510,2.87000,-4.65500,0.00000,-0.00976,0.01257,-0.98820,2023,6,12,16,2,0,319
0.00520,2.95750,-4.67250,0.00000,-0.00988,0.01147,-0.98869,2023,6,12,16,2,0,330
0.00530,2.95750,-4.58500,0.00000,-0.01110,0.01013,-0.98759,2023,6,12,16,2,0,341
0.00540,2.97500,-4.65500,0.00000,-0.01086,0.01269,-0.98613,2023,6,12,16,2,0,352
0.00550,2.97500,-4.63750,0.00000,-0.01098,0.01220,-0.98735,2023,6,12,16,2,0,364
0.00560,2.78250,-4.53250,0.00000,-0.01061,0.01159,-0.99125,2023,6,12,16,2,0,375
0.00570,2.83500,-4.48000,0.00000,-0.01244,0.01464,-0.98796,2023,6,12,16,2,0,386
0.00580,2.94000,-4.67250,0.00000,-0.01025,0.01281,-0.98722,2023,6,12,16,2,0,397
0.00590,2.95750,-4.44500,0.00000,-0.00878,0.00988,-0.99027,2023,6,12,16,2,0,408
0.00600,2.99250,-4.46250,0.00000,-0.01147,0.01171,-0.98686,2023,6,12,16,2,0,419
0.00610,3.04500,-4.79500,0.00000,-0.00939,0.01244,-0.98661,2023,6,12,16,2,0,430
0.00620,2.95750,-4.60250,0.00000,-0.01159,0.01074,-0.98478,2023,6,12,16,2,0,441
0.00630,2.83500,-4.44500,0.00000,-0.00939,0.01183,-0.98686,2023,6,12,16,2,0,452
0.00640,2.78250,-4.51500,0.00000,-0.00891,0.01305,-0.98869,2023,6,12,16,2,0,464
0.00650,2.81750,-4.51500,0.00000,-0.01025,0.01074,-0.98637,2023,6,12,16,2,0,475
0.00660,2.87000,-4.48000,0.00000,-0.01013,0.01220,-0.98893,2023,6,12,16,2,0,486
0.00670,3.11500,-4.74250,0.00000,-0.00891,0.01244,-0.98930,2023,6,12,16,2,0,497
0.00680,3.13250,-4.74250,0.00000,-0.01049,0.00976,-0.98808,2023,6,12,16,2,0,508
0.00690,2.90500,-4.56750,0.00000,-0.01013,0.01061,-0.98661,2023,6,12,16,2,0,519
0.00700,2.99250,-4.55000,0.00000,-0.00915,0.01049,-0.98686,2023,6,12,16,2,0,530
0.00710,3.09750,-4.81250,0.00000,-0.00976,0.01074,-0.98698,2023,6,12,16,2,0,541
0.00720,3.06250,-4.56750,0.00000,-0.01147,0.01074,-0.98649,2023,6,12,16,2,0,552
0.00730,3.01000,-4.65500,0.00000,-0.01208,0.00976,-0.98832,2023,6,12,16,2,0,564
0.00740,2.83500,-4.35750,0.00000,-0.00891,0.00976,-0.98857,2023,6,12,16,2,0,575
0.00750,2.94000,-4.79500,0.00000,-0.00708,0.01257,-0.98491,2023,6,12,16,2,0,586
0.00760,2.76500,-4.63750,0.00000,-0.01000,0.01122,-0.98808,2023,6,12,16,2,0,597
0.00770,2.90500,-4.63750,0.00000,-0.01061,0.01025,-0.98661,2023,6,12,16,2,0,608
0.00780,2.73000,-4.76000,0.00000,-0.01159,0.01244,-0.98698,2023,6,12,16,2,0,619
0.00790,2.71250,-4.65500,0.00000,-0.01135,0.01318,-0.99027,2023,6,12,16,2,0,630
0.00800,2.90500,-4.69000,0.00000,-0.00976,0.01305,-0.98857,2023,6,12,16,2,0,641
0.00810,3.04500,-4.70750,0.00000,-0.01208,0.01098,-0.98893,2023,6,12,16,2,0,652
0.00820,2.73000,-4.69000,0.00000,-0.00976,0.01061,-0.98844,2023,6,12,16,2,0,664
0.00830,3.04500,-4.27000,0.00000,-0.01086,0.01196,-0.98954,2023,6,12,16,2,0,675
0.00840,2.81750,-4.58500,0.00000,-0.01208,0.01305,-0.98820,2023,6,12,16,2,0,686
0.00850,3.01000,-4.55000,0.00000,-0.01061,0.01098,-0.98857,2023,6,12,16,2,0,697
0.00860,2.88750,-4.81250,0.00000,-0.00781,0.00988,-0.98576,2023,6,12,16,2,0,708
0.00870,3.16750,-4.62000,0.00000,-0.01000,0.01208,-0.99113,2023,6,12,16,2,0,719
0.00880,3.13250,-4.69000,0.00000,-0.00976,0.00988,-0.99125,2023,6,12,16,2,0,730
0.00890,2.90500,-4.76000,0.00000,-0.00976,0.01196,-0.98686,2023,6,12,16,2,0,741
0.00900,2.76500,-4.35750,0.00000,-0.01074,0.01244,-0.98820,2023,6,12,16,2,0,752
0.00910,2.90500,-4.58500,0.00000,-0.00952,0.01098,-0.98674,2023,6,12,16,2,0,764
0.00920,2.74750,-4.44500,0.00000,-0.00903,0.01159,-0.98661,2023,6,12,16,2,0,775
0.00930,2.67750,-4.63750,0.00000,-0.00817,0.00927,-0.98625,2023,6,12,16,2,0,786
0.00940,3.02750,-4.56750,0.00000,-0.01049,0.01025,-0.98564,2023,6,12,16,2,0,797
0.00950,2.90500,-4.28750,0.00000,-0.00939,0.01318,-0.98783,2023,6,12,16,2,0,808
0.00960,2.87000,-4.53250,0.00000,-0.01098,0.00964,-0.98613,2023,6,12,16,2,0,819
0.00970,2.85250,-4.53250,0.00000,-0.00903,0.01305,-0.98661,2023,6,12,16,2,0,830
0.00980,2.80000,-4.53250,0.00000,-0.01183,0.01196,-0.98991,2023,6,12,16,2,0,841
0.00990,2.80000,-4.55000,0.00000,-0.01122,0.01110,-0.98869,2023,6,12,16,2,0,852
0.01000,2.90500,-4.44500,0.00000,-0.00939,0.01342,-0.98649,2023,6,12,16,2,0,864
0.01010,2.88750,-4.65500,0.00000,-0.01452,0.01183,-0.98735,2023,6,12,16,2,0,875
0.01020,2.90500,-4.60250,0.00000,-0.01037,0.01000,-0.98808,2023,6,12,16,2,0,886
0.01030,2.73000,-4.72500,0.00000,-0.01098,0.01074,-0.98735,2023,6,12,16,2,0,897
0.01040,2.99250,-4.53250,0.00000,-0.00988,0.01098,-0.98820,2023,6,12,16,2,0,908
0.01050,2.97500,-4.51500,0.00000,-0.00939,0.01049,-0.98966,2023,6,12,16,2,0,919
0.01060,3.04500,-4.55000,0.00000,-0.00964,0.01232,-0.98796,2023,6,12,16,2,0,930
0.01070,2.94000,-4.77750,0.00000,-0.01074,0.01037,-0.98686,2023,6,12,16,2,0,941
0.01080,2.87000,-4.49750,0.00000,-0.01122,0.01074,-0.98747,2023,6,12,16,2,0,952
0.01090,3.01000,-4.48000,0.00000,-0.00866,0.01049,-0.98649,2023,6,12,16,2,0,964
0.01100,3.02750,-4.46250,0.00000,-0.01061,0.01000,-0.98832,2023,6,12,16,2,0,975
0.01110,2.97500,-4.62000,0.00000,-0.01086,0.01183,-0.98576,2023,6,12,16,2,0,986
0.01120,3.02750,-4.62000,0.00000,-0.01110,0.01110,-0.98661,2023,6,12,16,2,0,997
0.01130,3.09750,-4.74250,0.00000,-0.00903,0.01147,-0.98771,2023,6,12,16,2,0,8
0.01140,2.87000,-4.49750,0.00000,-0.00988,0.01171,-0.98552,2023,6,12,16,2,0,19
0.01150,3.06250,-4.53250,0.00000,-0.01159,0.01098,-0.98893,2023,6,12,16,2,0,30
0.01160,2.83500,-4.74250,0.00000,-0.01013,0.01293,-0.98722,2023,6,12,16,2,0,41
0.01170,3.08000,-4.81250,0.00000,-0.01171,0.01232,-0.98747,2023,6,12,16,2,0,52
0.01180,2.95750,-4.51500,0.00000,-0.01049,0.01269,-0.98661,2023,6,12,16,2,0,64
0.01190,2.92250,-4.37500,0.00000,-0.00878,0.01318,-0.98735,2023,6,12,16,2,0,75
0.01200,3.02750,-4.63750,0.00000,-0.00903,0.01098,-0.98417,2023,6,12,16,2,0,86
0.01210,2.78250,-4.46250,0.00000,-0.01013,0.01061,-0.98698,2023,6,12,16,2,1,7
0.01220,2.90500,-4.60250,0.00000,-0.01098,0.00927,-0.98857,2023,6,12,16,2,1,18
0.01230,2.81750,-4.60250,0.00000,-0.01049,0.01427,-0.98759,2023,6,12,16,2,1,29
0.01240,2.78250,-4.60250,0.00000,-0.01013,0.01244,-0.99113,2023,6,12,16,2,1,40
0.01250,3.06250,-4.60250,0.00000,-0.00781,0.01183,-0.98869,2023,6,12,16,2,1,51
0.01260,2.74750,-4.55000,0.00000,-0.00878,0.01159,-0.98661,2023,6,12,16,2,1,62
0.01270,3.09750,-4.53250,0.00000,-0.01025,0.01281,-0.98661,2023,6,12,16,2,1,74
0.01280,3.02750,-4.62000,0.00000,-0.00927,0.01318,-0.98954,2023,6,12,16,2,1,85
0.01290,2.81750,-4.72500,0.00000,-0.00976,0.00964,-0.98686,2023,6,12,16,2,1,96
0.01300,3.08000,-4.58500,0.00000,-0.00915,0.01257,-0.98857,2023,6,12,16,2,1,107
0.01310,2.76500,-4.51500,0.00000,-0.01049,0.01293,-0.99027,2023,6,12,16,2,1,118
0.01320,2.88750,-4.55000,0.00000,-0.01208,0.01281,-0.98844,2023,6,12,16,2,1,129
0.01330,2.71250,-4.39250,0.00000,-0.01000,0.00988,-0.98649,2023,6,12,16,2,1,140
0.01340,2.92250,-4.60250,0.00000,-0.00854,0.01135,-0.98539,2023,6,12,16,2,1,151
0.01350,3.02750,-4.55000,0.00000,-0.00891,0.01183,-0.98600,2023,6,12,16,2,1,162
0.01360,2.87000,-4.62000,0.00000,-0.01086,0.01293,-0.98722,2023,6,12,16,2,1,174
0.01370,2.94000,-4.53250,0.00000,-0.01098,0.01013,-0.98698,2023,6,12,16,2,1,185
0.01380,2.78250,-4.60250,0.00000,-0.01086,0.01147,-0.98698,2023,6,12,16,2,1,196
0.01390,3.01000,-4.81250,0.00000,-0.01000,0.01305,-0.98649,2023,6,12,16,2,1,207
0.01400,2.80000,-4.51500,0.00000,-0.01037,0.01293,-0.98820,2023,6,12,16,2,1,218
0.01410,2.97500,-4.58500,0.00000,-0.01122,0.01025,-0.99137,2023,6,12,16,2,1,229
0.01420,2.87000,-4.65500,0.00000,-0.01013,0.01183,-0.99064,2023,6,12,16,2,1,240
0.01430,2.83500,-4.63750,0.00000,-0.00903,0.01159,-0.98893,2023,6,12,16,2,1,251
0.01440,2.83500,-4.63750,0.00000,-0.01135,0.01171,-0.98808,2023,6,12,16,2,1,262
0.01450,2.92250,-4.55000,0.00000,-0.00939,0.01147,-0.98735,2023,6,12,16,2,1,274
0.01460,2.99250,-4.53250,0.00000,-0.00952,0.01403,-0.98686,2023,6,12,16,2,1,285
0.01470,3.02750,-4.69000,0.00000,-0.00964,0.01122,-0.98881,2023,6,12,16,2,1,296
0.01480,2.83500,-4.48000,0.00000,-0.01049,0.01159,-0.98881,2023,6,12,16,2,1,307
0.01490,2.80000,-4.70750,0.00000,-0.00939,0.01037,-0.98832,2023,6,12,16,2,1,318
0.01500,2.87000,-4.55000,0.00000,-0.01135,0.01183,-0.98735,2023,6,12,16,2,1,329
0.01510,2.83500,-4.67250,0.00000,-0.00952,0.00964,-0.99052,2023,6,12,16,2,1,340
0.01520,2.94000,-4.56750,0.00000,-0.00939,0.01159,-0.98820,2023,6,12,16,2,1,351
0.01530,2.99250,-4.63750,0.00000,-0.01013,0.00915,-0.98771,2023,6,12,16,2,1,362
0.01540,3.15000,-4.70750,0.00000,-0.00964,0.01318,-0.98759,2023,6,12,16,2,1,374
0.01550,2.95750,-4.51500,0.00000,-0.00939,0.01220,-0.98735,2023,6,12,16,2,1,385
0.01560,2.80000,-4.48000,0.00000,-0.01318,0.00976,-0.98857,2023,6,12,16,2,1,396
0.01570,3.13250,-4.70750,0.00000,-0.01061,0.01025,-0.98808,2023,6,12,16,2,1,407
0.01580,2.85250,-4.70750,0.00000,-0.01013,0.00976,-0.98649,2023,6,12,16,2,1,418
0.01590,2.95750,-4.76000,0.00000,-0.00891,0.01147,-0.98674,2023,6,12,16,2,1,429
0.01600,2.85250,-4.55000,0.00000,-0.00939,0.01269,-0.98796,2023,6,12,16,2,1,440
0.01610,2.92250,-4.49750,0.00000,-0.01049,0.01232,-0.98832,2023,6,12,16,2,1,451
0.01620,2.99250,-4.74250,0.00000,-0.01037,0.01013,-0.98783,2023,6,12,16,2,1,462
0.01630,2.99250,-4.39250,0.00000,-0.01305,0.01220,-0.98844,2023,6,12,16,2,1,474
0.01640,3.15000,-4.55000,0.00000,-0.01037,0.01208,-0.98966,2023,6,12,16,2,1,485
0.01650,3.04500,-4.55000,0.00000,-0.01232,0.01110,-0.98808,2023,6,12,16,2,1,496
0.01660,2.95750,-4.70750,0.00000,-0.00878,0.01257,-0.98625,2023,6,12,16,2,1,507
0.01670,2.90500,-4.70750,0.00000,-0.00854,0.01122,-0.98808,2023,6,12,16,2,1,518
0.01680,2.94000,-4.76000,0.00000,-0.01074,0.01110,-0.98783,2023,6,12,16,2,1,529
0.01690,3.13250,-4.77750,0.00000,-0.00964,0.00964,-0.98796,2023,6,12,16,2,1,540
0.01700,3.15000,-4.79500,0.00000,-0.00952,0.01208,-0.98783,2023,6,12,16,2,1,551
0.01710,2.95750,-4.63750,0.00000,-0.00976,0.01171,-0.98857,2023,6,12,16,2,1,562
0.01720,2.94000,-4.67250,0.00000,-0.01244,0.01244,-0.99015,2023,6,12,16,2,1,574
0.01730,2.71250,-4.42750,0.00000,-0.00866,0.01037,-0.98722,2023,6,12,16,2,1,585
0.01740,2.83500,-4.65500,0.00000,-0.00964,0.01232,-0.98857,2023,6,12,16,2,1,596
0.01750,2.99250,-4.49750,0.00000,-0.01049,0.01159,-0.98796,2023,6,12,16,2,1,607
0.01760,2.97500,-4.74250,0.00000,-0.01086,0.01257,-0.98710,2023,6,12,16,2,1,618
0.01770,2.78250,-4.48000,0.00000,-0.00891,0.01159,-0.99027,2023,6,12,16,2,1,629
0.01780,2.66000,-4.53250,0.00000,-0.01098,0.01196,-0.98759,2023,6,12,16,2,1,640
0.01790,2.95750,-4.69000,0.00000,-0.01049,0.01330,-0.99076,2023,6,12,16,2,1,651
0.01800,2.69500,-4.58500,0.00000,-0.00866,0.01013,-0.98844,2023,6,12,16,2,1,662
0.01810,2.85250,-4.65500,0.00000,-0.00952,0.01318,-0.98796,2023,6,12,16,2,1,674
0.01820,2.90500,-4.81250,0.00000,-0.01025,0.01171,-0.98466,2023,6,12,16,2,1,685
0.01830,2.90500,-4.39250,0.00000,-0.01110,0.01318,-0.98747,2023,6,12,16,2,1,696
0.01840,2.78250,-4.53250,0.00000,-0.01013,0.01183,-0.98918,2023,6,12,16,2,1,707
0.01850,2.90500,-4.60250,0.00000,-0.01074,0.01098,-0.98491,2023,6,12,16,2,1,718
0.01860,3.08000,-4.70750,0.00000,-0.00952,0.01257,-0.98649,2023,6,12,16,2,1,729
0.01870,3.02750,-4.55000,0.00000,-0.01061,0.00903,-0.98796,2023,6,12,16,2,1,740
0.01880,2.99250,-4.63750,0.00000,-0.00891,0.01293,-0.98661,2023,6,12,16,2,1,751
0.01890,3.08000,-4.79500,0.00000,-0.00964,0.01171,-0.98698,2023,6,12,16,2,1,762
0.01900,2.99250,-4.70750,0.00000,-0.01025,0.01135,-0.98710,2023,6,12,16,2,1,774
0.01910,2.97500,-4.74250,0.00000,-0.01037,0.00976,-0.98637,2023,6,12,16,2,1,785
0.01920,3.09750,-4.55000,0.00000,-0.01183,0.01110,-0.98686,2023,6,12,16,2,1,796
0.01930,2.80000,-4.58500,0.00000,-0.00817,0.01037,-0.99027,2023,6,12,16,2,1,807
0.01940,2.92250,-4.55000,0.00000,-0.01147,0.01171,-0.98649,2023,6,12,16,2,1,818
0.01950,2.88750,-4.69000,0.00000,-0.01013,0.01135,-0.98710,2023,6,12,16,2,1,829
0.01960,2.80000,-4.63750,0.00000,-0.00939,0.01013,-0.98783,2023,6,12,16,2,1,840
0.01970,2.97500,-4.62000,0.00000,-0.00622,0.01464,-0.98478,2023,6,12,16,2,1,851
0.01980,2.90500,-4.41000,0.00000,-0.01037,0.01061,-0.98857,2023,6,12,16,2,1,862
0.01990,3.04500,-4.51500,0.00000,-0.01025,0.01220,-0.98966,2023,6,12,16,2,1,874
0.02000,2.97500,-4.77750,0.00000,-0.01013,0.01171,-0.98613,2023,6,12,16,2,1,885
0.02010,2.88750,-4.56750,0.00000,-0.00952,0.01208,-0.98674,2023,6,12,16,2,1,896
0.02020,2.88750,-4.74250,0.00000,-0.00939,0.01476,-0.98369,2023,6,12,16,2,1,907
0.02030,2.90500,-4.62000,0.00000,-0.00988,0.01147,-0.98771,2023,6,12,16,2,1,918
0.02040,2.92250,-4.60250,0.00000,-0.01000,0.01305,-0.98918,2023,6,12,16,2,1,929
0.02050,2.95750,-4.67250,0.00000,-0.01110,0.01257,-0.98893,2023,6,12,16,2,1,940
0.02060,3.01000,-4.53250,0.00000,-0.00854,0.01025,-0.98844,2023,6,12,16,2,1,951
0.02070,2.90500,-4.55000,0.00000,-0.00878,0.01074,-0.98564,2023,6,12,16,2,1,962
0.02080,2.81750,-4.42750,0.00000,-0.00964,0.01159,-0.98844,2023,6,12,16,2,1,974
0.02090,2.83500,-4.48000,0.00000,-0.01049,0.01269,-0.98503,2023,6,12,16,2,1,985
0.02100,2.83500,-4.55000,0.00000,-0.00830,0.01098,-0.98515,2023,6,12,16,2,2,6
0.02110,2.81750,-4.37500,0.00000,-0.01025,0.01244,-0.99076,2023,6,12,16,2,2,17
0.02120,3.06250,-4.88250,0.00000,-0.01000,0.01110,-0.98881,2023,6,12,16,2,2,28
0.02130,2.88750,-4.69000,0.00000,-0.01000,0.01354,-0.98881,2023,6,12,16,2,2,39
0.02140,2.99250,-4.62000,0.00000,-0.01013,0.01135,-0.98796,2023,6,12,16,2,2,50
0.02150,2.80000,-4.55000,0.00000,-0.01110,0.01135,-0.98649,2023,6,12,16,2,2,61
0.02160,2.94000,-4.63750,0.00000,-0.01000,0.01122,-0.98844,2023,6,12,16,2,2,72
0.02170,2.94000,-4.56750,0.00000,-0.00891,0.01269,-0.98832,2023,6,12,16,2,2,84
0.02180,2.83500,-4.67250,0.00000,-0.00915,0.01122,-0.98588,2023,6,12,16,2,2,95
0.02190,2.94000,-4.56750,0.00000,-0.01196,0.01049,-0.98979,2023,6,12,16,2,2,106
0.02200,2.92250,-4.63750,0.00000,-0.00830,0.01098,-0.98613,2023,6,12,16,2,2,117
0.02210,2.73000,-4.56750,0.00000,-0.01037,0.01318,-0.98722,2023,6,12,16,2,2,128
0.02220,2.99250,-4.77750,0.00000,-0.01037,0.01171,-0.98808,2023,6,12,16,2,2,139
0.02230,2.88750,-4.48000,0.00000,-0.01049,0.01171,-0.98735,2023,6,12,16,2,2,150
0.02240,2.99250,-4.74250,0.00000,-0.01074,0.01122,-0.98796,2023,6,12,16,2,2,161
0.02250,3.13250,-4.72500,0.00000,-0.00952,0.01159,-0.99076,2023,6,12,16,2,2,172
0.02260,3.01000,-4.46250,0.00000,-0.00964,0.01257,-0.98722,2023,6,12,16,2,2,184
0.02270,3.04500,-4.76000,0.00000,-0.00939,0.01000,-0.98466,2023,6,12,16,2,2,195
0.02280,2.85250,-4.60250,0.00000,-0.01183,0.01293,-0.98966,2023,6,12,16,2,2,206
0.02290,2.97500,-4.63750,0.00000,-0.01061,0.01196,-0.98722,2023,6,12,16,2,2,217
0.02300,2.99250,-4.76000,0.00000,-0.01061,0.01305,-0.98820,2023,6,12,16,2,2,228
0.02310,2.88750,-4.63750,0.00000,-0.01000,0.01525,-0.98661,2023,6,12,16,2,2,239
0.02320,2.88750,-4.58500,0.00000,-0.00964,0.01220,-0.98783,2023,6,12,16,2,2,250
0.02330,3.09750,-4.65500,0.00000,-0.01269,0.01061,-0.98637,2023,6,12,16,2,2,261
0.02340,2.94000,-4.62000,0.00000,-0.00952,0.01037,-0.98722,2023,6,12,16,2,2,272
0.02350,2.92250,-4.69000,0.00000,-0.01086,0.01183,-0.98722,2023,6,12,16,2,2,284
0.02360,2.90500,-4.44500,0.00000,-0.00842,0.01037,-0.98613,2023,6,12,16,2,2,295
0.02370,2.83500,-4.46250,0.00000,-0.00964,0.01220,-0.98820,2023,6,12,16,2,2,306
0.02380,2.76500,-4.65500,0.00000,-0.01086,0.01281,-0.98844,2023,6,12,16,2,2,317
0.02390,2.88750,-4.63750,0.00000,-0.00732,0.01159,-0.98478,2023,6,12,16,2,2,328
0.02400,2.90500,-4.62000,0.00000,-0.01122,0.01208,-0.98722,2023,6,12,16,2,2,339
0.02410,2.94000,-4.69000,0.00000,-0.00988,0.01220,-0.98661,2023,6,12,16,2,2,350
0.02420,3.16750,-4.70750,0.00000,-0.00927,0.00939,-0.98796,2023,6,12,16,2,2,361
0.02430,3.09750,-4.60250,0.00000,-0.01025,0.01196,-0.98942,2023,6,12,16,2,2,372
0.02440,2.85250,-4.67250,0.00000,-0.00720,0.01220,-0.99027,2023,6,12,16,2,2,384
0.02450,2.80000,-4.55000,0.00000,-0.00964,0.00964,-0.98844,2023,6,12,16,2,2,395
0.02460,3.02750,-4.41000,0.00000,-0.00891,0.01415,-0.98686,2023,6,12,16,2,2,406
0.02470,3.11500,-4.70750,0.00000,-0.00952,0.01281,-0.98564,2023,6,12,16,2,2,417
0.02480,3.13250,-4.55000,0.00000,-0.00903,0.00952,-0.98722,2023,6,12,16,2,2,428
0.02490,2.99250,-4.60250,0.00000,-0.00915,0.01074,-0.98674,2023,6,12,16,2,2,439
0.02500,2.88750,-4.62000,0.00000,-0.00830,0.01318,-0.98783,2023,6,12,16,2,2,450
0.02510,2.80000,-4.56750,0.00000,-0.01037,0.01220,-0.98503,2023,6,12,16,2,2,461
0.02520,2.90500,-4.48000,0.00000,-0.00927,0.01354,-0.98613,2023,6,12,16,2,2,472
0.02530,2.88750,-4.46250,0.00000,-0.01000,0.01122,-0.98918,2023,6,12,16,2,2,484
0.02540,2.78250,-4.69000,0.00000,-0.01000,0.01257,-0.98710,2023,6,12,16,2,2,495
0.02550,2.88750,-4.56750,0.00000,-0.01159,0.01196,-0.98881,2023,6,12,16,2,2,506
0.02560,2.99250,-4.76000,0.00000,-0.01074,0.01232,-0.99076,2023,6,12,16,2,2,517
0.02570,2.97500,-4.55000,0.00000,-0.01025,0.01183,-0.98808,2023,6,12,16,2,2,528
0.02580,3.15000,-4.72500,0.00000,-0.01049,0.01196,-0.98674,2023,6,12,16,2,2,539
0.02590,2.81750,-4.49750,0.00000,-0.01171,0.01183,-0.98613,2023,6,12,16,2,2,550
0.02600,2.99250,-4.62000,0.00000,-0.01135,0.01086,-0.98625,2023,6,12,16,2,2,561
0.02610,2.76500,-4.53250,0.00000,-0.00915,0.01281,-0.98844,2023,6,12,16,2,2,572
0.02620,2.81750,-4.53250,0.00000,-0.00891,0.01000,-0.98942,2023,6,12,16,2,2,584
0.02630,2.71250,-4.44500,0.00000,-0.00952,0.01269,-0.98710,2023,6,12,16,2,2,595
0.02640,2.90500,-4.42750,0.00000,-0.01110,0.01098,-0.99040,2023,6,12,16,2,2,606
0.02650,3.08000,-4.30500,0.00000,-0.01061,0.01171,-0.98844,2023,6,12,16,2,2,617
0.02660,2.88750,-4.58500,0.00000,-0.00830,0.01000,-0.98698,2023,6,12,16,2,2,628
0.02670,2.85250,-4.65500,0.00000,-0.01025,0.01171,-0.98686,2023,6,12,16,2,2,639
0.02680,2.83500,-4.62000,0.00000,-0.00976,0.01159,-0.98869,2023,6,12,16,2,2,650
0.02690,2.83500,-4.35750,0.00000,-0.01098,0.01183,-0.98698,2023,6,12,16,2,2,661
0.02700,2.81750,-4.58500,0.00000,-0.00866,0.01159,-0.98759,2023,6,12,16,2,2,672
0.02710,2.99250,-4.70750,0.00000,-0.00915,0.01159,-0.98698,2023,6,12,16,2,2,684
0.02720,2.97500,-4.76000,0.00000,-0.01098,0.01135,-0.98466,2023,6,12,16,2,2,695
0.02730,2.88750,-4.48000,0.00000,-0.01061,0.01147,-0.98918,2023,6,12,16,2,2,706
0.02740,2.85250,-4.56750,0.00000,-0.01000,0.01208,-0.98515,2023,6,12,16,2,2,717
0.02750,2.87000,-4.39250,0.00000,-0.01061,0.01342,-0.98759,2023,6,12,16,2,2,728
0.02760,2.95750,-4.60250,0.00000,-0.01110,0.00927,-0.98576,2023,6,12,16,2,2,739
0.02770,2.90500,-4.67250,0.00000,-0.00939,0.01135,-0.98698,2023,6,12,16,2,2,750
0.02780,2.85250,-4.69000,0.00000,-0.00830,0.01269,-0.98820,2023,6,12,16,2,2,761
0.02790,2.99250,-4.76000,0.00000,-0.00769,0.01159,-0.98796,2023,6,12,16,2,2,772
0.02800,2.83500,-4.53250,0.00000,-0.01013,0.00927,-0.98710,2023,6,12,16,2,2,784
0.02810,3.08000,-4.55000,0.00000,-0.01049,0.01293,-0.98747,2023,6,12,16,2,2,795
0.02820,2.95750,-4.39250,0.00000,-0.01098,0.01110,-0.98857,2023,6,12,16,2,2,806
0.02830,2.94000,-4.83000,0.00000,-0.00891,0.01135,-0.98491,2023,6,12,16,2,2,817
0.02840,2.95750,-4.69000,0.00000,-0.01086,0.00939,-0.98796,2023,6,12,16,2,2,828
0.02850,2.95750,-4.46250,0.00000,-0.01000,0.00976,-0.98796,2023,6,12,16,2,2,839
0.02860,2.95750,-4.60250,0.00000,-0.01110,0.01061,-0.98808,2023,6,12,16,2,2,850
0.02870,2.80000,-4.51500,0.00000,-0.00891,0.01257,-0.98954,2023,6,12,16,2,2,861
0.02880,2.85250,-4.44500,0.00000,-0.01171,0.01427,-0.98503,2023,6,12,16,2,2,872
0.02890,2.97500,-4.58500,0.00000,-0.01196,0.01061,-0.98674,2023,6,12,16,2,2,884
0.02900,3.04500,-4.51500,0.00000,-0.01196,0.01086,-0.98600,2023,6,12,16,2,2,895
0.02910,2.83500,-4.53250,0.00000,-0.00988,0.01013,-0.98771,2023,6,12,16,2,2,906
0.02920,2.87000,-4.41000,0.00000,-0.01086,0.01147,-0.98991,2023,6,12,16,2,2,917
0.02930,2.95750,-4.58500,0.00000,-0.01013,0.01330,-0.98771,2023,6,12,16,2,2,928
0.02940,2.87000,-4.67250,0.00000,-0.00720,0.01098,-0.99125,2023,6,12,16,2,2,939
0.02950,2.80000,-4.63750,0.00000,-0.00769,0.01305,-0.98698,2023,6,12,16,2,2,950
0.02960,2.80000,-4.65500,0.00000,-0.00927,0.01135,-0.98783,2023,6,12,16,2,3,1
0.02970,2.85250,-4.60250,0.00000,-0.00976,0.01208,-0.99027,2023,6,12,16,2,3,12
0.02980,2.92250,-4.63750,0.00000,-0.00927,0.01208,-0.98783,2023,6,12,16,2,3,24
0.02990,2.97500,-4.69000,0.00000,-0.01086,0.01159,-0.98710,2023,6,12,16,2,3,35
0.03000,2.94000,-4.39250,0.00000,-0.01061,0.01232,-0.98710,2023,6,12,16,2,3,46
0.03010,2.97500,-4.35750,0.00000,-0.01110,0.01232,-0.98991,2023,6,12,16,2,3,57
0.03020,2.78250,-4.46250,0.00000,-0.01147,0.01147,-0.98771,2023,6,12,16,2,3,68
0.03030,2.97500,-4.55000,0.00000,-0.00976,0.01049,-0.98857,2023,6,12,16,2,3,79
0.03040,2.85250,-4.48000,0.00000,-0.01086,0.01208,-0.98491,2023,6,12,16,2,3,90
0.03050,2.97500,-4.63750,0.00000,-0.01159,0.01013,-0.98844,2023,6,12,16,2,3,101
0.03060,2.92250,-4.49750,0.00000,-0.01061,0.01220,-0.98820,2023,6,12,16,2,3,112
0.03070,2.87000,-4.58500,0.00000,-0.01098,0.01061,-0.98918,2023,6,12,16,2,3,124
0.03080,2.94000,-4.48000,0.00000,-0.00988,0.01244,-0.98820,2023,6,12,16,2,3,135
0.03090,2.94000,-4.42750,0.00000,-0.01025,0.01110,-0.98820,2023,6,12,16,2,3,146
0.03100,2.78250,-4.60250,0.00000,-0.00915,0.01330,-0.98759,2023,6,12,16,2,3,157
0.03110,3.06250,-4.76000,0.00000,-0.01025,0.01196,-0.99003,2023,6,12,16,2,3,168
0.03120,3.04500,-4.39250,0.00000,-0.01061,0.01232,-0.98661,2023,6,12,16,2,3,179
0.03130,2.88750,-4.55000,0.00000,-0.00927,0.01135,-0.98442,2023,6,12,16,2,3,190
0.03140,3.25500,-4.55000,0.00000,-0.00952,0.01220,-0.98820,2023,6,12,16,2,3,201
0.03150,2.97500,-4.58500,0.00000,-0.00915,0.01098,-0.98576,2023,6,12,16,2,3,212
0.03160,2.85250,-4.56750,0.00000,-0.01159,0.01000,-0.98905,2023,6,12,16,2,3,224
0.03170,2.85250,-4.35750,0.00000,-0.00915,0.01013,-0.98588,2023,6,12,16,2,3,235
0.03180,2.90500,-4.42750,0.00000,-0.01037,0.01049,-0.98869,2023,6,12,16,2,3,246
0.03190,2.90500,-4.53250,0.00000,-0.00830,0.01305,-0.98722,2023,6,12,16,2,3,257
0.03200,2.90500,-4.69000,0.00000,-0.01122,0.01171,-0.98820,2023,6,12,16,2,3,268
0.03210,2.95750,-4.60250,0.00000,-0.00927,0.01281,-0.98759,2023,6,12,16,2,3,279
0.03220,2.95750,-4.63750,0.00000,-0.01061,0.01086,-0.99052,2023,6,12,16,2,3,290
0.03230,2.95750,-4.65500,0.00000,-0.00988,0.01049,-0.98747,2023,6,12,16,2,3,301
0.03240,2.81750,-4.67250,0.00000,-0.00927,0.01135,-0.98478,2023,6,12,16,2,3,312
0.03250,3.11500,-4.69000,0.00000,-0.01037,0.01074,-0.98698,2023,6,12,16,2,3,324
0.03260,3.06250,-4.76000,0.00000,-0.00866,0.01220,-0.98527,2023,6,12,16,2,3,335
0.03270,3.01000,-4.55000,0.00000,-0.01074,0.01122,-0.98942,2023,6,12,16,2,3,346
0.03280,3.02750,-4.72500,0.00000,-0.00854,0.01110,-0.98478,2023,6,12,16,2,3,357
0.03290,2.94000,-4.51500,0.00000,-0.00842,0.01159,-0.98893,2023,6,12,16,2,3,368
0.03300,2.87000,-4.58500,0.00000,-0.01037,0.01269,-0.98735,2023,6,12,16,2,3,379
0.03310,2.88750,-4.48000,0.00000,-0.01061,0.01110,-0.98759,2023,6,12,16,2,3,390
0.03320,2.88750,-4.60250,0.00000,-0.01135,0.01366,-0.98783,2023,6,12,16,2,3,401
0.03330,3.13250,-4.53250,0.00000,-0.00939,0.00952,-0.99027,2023,6,12,16,2,3,412
0.03340,2.74750,-4.41000,0.00000,-0.00842,0.01293,-0.98722,2023,6,12,16,2,3,424
0.03350,2.85250,-4.58500,0.00000,-0.00952,0.01196,-0.98820,2023,6,12,16,2,3,435
0.03360,2.99250,-4.69000,0.00000,-0.00903,0.01049,-0.98661,2023,6,12,16,2,3,446
0.03370,2.83500,-4.48000,0.00000,-0.00805,0.00952,-0.98893,2023,6,12,16,2,3,457
0.03380,2.74750,-4.44500,0.00000,-0.01061,0.01208,-0.98637,2023,6,12,16,2,3,468
0.03390,2.71250,-4.63750,0.00000,-0.00988,0.01330,-0.98930,2023,6,12,16,2,3,479
0.03400,2.78250,-4.62000,0.00000,-0.00976,0.01074,-0.98722,2023,6,12,16,2,3,490
0.03410,3.15000,-4.81250,0.00000,-0.01049,0.01330,-0.98783,2023,6,12,16,2,3,501
0.03420,2.94000,-4.67250,0.00000,-0.01025,0.01061,-0.98722,2023,6,12,16,2,3,512
0.03430,3.01000,-4.58500,0.00000,-0.00708,0.01244,-0.98844,2023,6,12,16,2,3,524
0.03440,2.83500,-4.77750,0.00000,-0.01086,0.01318,-0.98796,2023,6,12,16,2,3,535
0.03450,3.02750,-4.49750,0.00000,-0.01000,0.01330,-0.98808,2023,6,12,16,2,3,546
0.03460,3.02750,-4.51500,0.00000,-0.00891,0.01379,-0.99003,2023,6,12,16,2,3,557
0.03470,2.59000,-4.41000,0.00000,-0.00976,0.01086,-0.98857,2023,6,12,16,2,3,568
0.03480,2.95750,-4.60250,0.00000,-0.01037,0.01208,-0.98796,2023,6,12,16,2,3,579
0.03490,2.81750,-4.69000,0.00000,-0.01000,0.01269,-0.98503,2023,6,12,16,2,3,590
0.03500,3.22000,-4.77750,0.00000,-0.01037,0.01147,-0.98722,2023,6,12,16,2,3,601
0.03510,2.94000,-4.60250,0.00000,-0.00927,0.01366,-0.98491,2023,6,12,16,2,3,612
0.03520,2.92250,-4.42750,0.00000,-0.00878,0.01049,-0.98832,2023,6,12,16,2,3,624
0.03530,2.85250,-4.49750,0.00000,-0.00952,0.01122,-0.98527,2023,6,12,16,2,3,635
0.03540,2.87000,-4.76000,0.00000,-0.00854,0.01415,-0.98869,2023,6,12,16,2,3,646
0.03550,2.87000,-4.72500,0.00000,-0.01037,0.00988,-0.98735,2023,6,12,16,2,3,657
0.03560,3.16750,-4.95250,0.00000,-0.01025,0.01305,-0.98844,2023,6,12,16,2,3,668
0.03570,2.85250,-4.48000,0.00000,-0.01013,0.01415,-0.98600,2023,6,12,16,2,3,679
0.03580,3.01000,-4.63750,0.00000,-0.01086,0.01037,-0.99088,2023,6,12,16,2,3,690
0.03590,2.92250,-4.51500,0.00000,-0.01025,0.01135,-0.98625,2023,6,12,16,2,3,701
0.03600,3.18500,-4.60250,0.00000,-0.01037,0.00903,-0.98539,2023,6,12,16,2,3,712
0.03610,2.85250,-4.76000,0.00000,-0.01025,0.00952,-0.98649,2023,6,12,16,2,3,724
0.03620,2.97500,-4.58500,0.00000,-0.00891,0.01135,-0.98381,2023,6,12,16,2,3,735
0.03630,2.83500,-4.76000,0.00000,-0.01049,0.00976,-0.98430,2023,6,12,16,2,3,746
0.03640,2.95750,-4.72500,0.00000,-0.00964,0.00927,-0.98478,2023,6,12,16,2,3,757
0.03650,2.76500,-4.60250,0.00000,-0.01135,0.01013,-0.98674,2023,6,12,16,2,3,768
0.03660,2.87000,-4.42750,0.00000,-0.01196,0.01049,-0.98942,2023,6,12,16,2,3,779
0.03670,2.94000,-4.55000,0.00000,-0.01000,0.01257,-0.98918,2023,6,12,16,2,3,790
0.03680,2.94000,-4.72500,0.00000,-0.00866,0.01342,-0.98735,2023,6,12,16,2,3,801
0.03690,3.01000,-4.74250,0.00000,-0.01061,0.01159,-0.98722,2023,6,12,16,2,3,812
0.03700,2.81750,-4.53250,0.00000,-0.01074,0.01159,-0.98527,2023,6,12,16,2,3,824
0.03710,2.92250,-4.44500,0.00000,-0.00964,0.01427,-0.98771,2023,6,12,16,2,3,835
0.03720,3.01000,-4.49750,0.00000,-0.00976,0.01269,-0.98759,2023,6,12,16,2,3,846
0.03730,2.80000,-4.53250,0.00000,-0.00732,0.01135,-0.98905,2023,6,12,16,2,3,857
0.03740,2.76500,-4.44500,0.00000,-0.01171,0.01171,-0.98710,2023,6,12,16,2,3,868
0.03750,2.85250,-4.51500,0.00000,-0.00976,0.01171,-0.98783,2023,6,12,16,2,3,879
0.03760,3.01000,-4.69000,0.00000,-0.01061,0.01122,-0.98966,2023,6,12,16,2,3,890
0.03770,2.83500,-4.37500,0.00000,-0.00952,0.01342,-0.98759,2023,6,12,16,2,3,901
0.03780,2.92250,-4.42750,0.00000,-0.01049,0.01049,-0.98771,2023,6,12,16,2,3,912
0.03790,2.80000,-4.63750,0.00000,-0.01171,0.01098,-0.98686,2023,6,12,16,2,3,924
0.03800,3.02750,-4.67250,0.00000,-0.01061,0.01318,-0.98991,2023,6,12,16,2,3,935
0.03810,2.99250,-4.77750,0.00000,-0.01000,0.01244,-0.98649,2023,6,12,16,2,3,946
0.03820,2.92250,-4.39250,0.00000,-0.00830,0.01171,-0.98369,2023,6,12,16,2,3,957
0.03830,2.90500,-4.53250,0.00000,-0.00878,0.01037,-0.98844,2023,6,12,16,2,3,968
0.03840,2.71250,-4.48000,0.00000,-0.00927,0.01318,-0.98808,2023,6,12,16,2,4,9
0.03850,2.95750,-4.67250,0.00000,-0.01074,0.01366,-0.98918,2023,6,12,16,2,4,20
0.03860,2.87000,-4.62000,0.00000,-0.00805,0.01013,-0.98600,2023,6,12,16,2,4,31
0.03870,2.94000,-4.62000,0.00000,-0.01098,0.00952,-0.98857,2023,6,12,16,2,4,42
0.03880,2.78250,-4.56750,0.00000,-0.01220,0.01244,-0.98698,2023,6,12,16,2,4,54
0.03890,2.73000,-4.53250,0.00000,-0.00781,0.01110,-0.98186,2023,6,12,16,2,4,65
0.03900,2.90500,-4.65500,0.00000,-0.01025,0.01196,-0.98832,2023,6,12,16,2,4,76
0.03910,2.80000,-4.56750,0.00000,-0.00952,0.01220,-0.98832,2023,6,12,16,2,4,87
0.03920,2.97500,-4.55000,0.00000,-0.00964,0.01147,-0.98515,2023,6,12,16,2,4,98
0.03930,2.99250,-4.42750,0.00000,-0.00988,0.01318,-0.98832,2023,6,12,16,2,4,109
0.03940,2.81750,-4.53250,0.00000,-0.01000,0.01135,-0.98637,2023,6,12,16,2,4,120
0.03950,2.97500,-4.58500,0.00000,-0.00939,0.01098,-0.98613,2023,6,12,16,2,4,131
0.03960,3.01000,-4.76000,0.00000,-0.01037,0.01037,-0.98808,2023,6,12,16,2,4,142
0.03970,2.90500,-4.48000,0.00000,-0.01025,0.01269,-0.98649,2023,6,12,16,2,4,154
0.03980,2.67750,-4.49750,0.00000,-0.00988,0.01196,-0.98844,2023,6,12,16,2,4,165
0.03990,2.97500,-4.51500,0.00000,-0.01013,0.01281,-0.98698,2023,6,12,16,2,4,176
0.04000,2.97500,-4.60250,0.00000,-0.00988,0.01074,-0.98686,2023,6,12,16,2,4,187
0.04010,2.80000,-4.49750,0.00000,-0.00927,0.01183,-0.98832,2023,6,12,16,2,4,198
0.04020,2.81750,-4.63750,0.00000,-0.01061,0.01293,-0.98710,2023,6,12,16,2,4,209
0.04030,2.80000,-4.53250,0.00000,-0.01086,0.01208,-0.98783,2023,6,12,16,2,4,220
0.04040,2.88750,-4.58500,0.00000,-0.01086,0.01330,-0.98735,2023,6,12,16,2,4,231
0.04050,2.95750,-4.69000,0.00000,-0.01122,0.01086,-0.98783,2023,6,12,16,2,4,242
0.04060,2.90500,-4.63750,0.00000,-0.01000,0.01000,-0.98710,2023,6,12,16,2,4,254
0.04070,2.78250,-4.65500,0.00000,-0.01061,0.01074,-0.98698,2023,6,12,16,2,4,265
0.04080,2.90500,-4.67250,0.00000,-0.01074,0.00952,-0.98881,2023,6,12,16,2,4,276
0.04090,2.94000,-4.55000,0.00000,-0.00988,0.01281,-0.99210,2023,6,12,16,2,4,287
0.04100,2.94000,-4.67250,0.00000,-0.01049,0.01257,-0.98796,2023,6,12,16,2,4,298
0.04110,2.81750,-4.53250,0.00000,-0.01025,0.01013,-0.98942,2023,6,12,16,2,4,309
0.04120,3.09750,-4.74250,0.00000,-0.01000,0.01208,-0.98747,2023,6,12,16,2,4,320
0.04130,2.74750,-4.58500,0.00000,-0.01037,0.01135,-0.98625,2023,6,12,16,2,4,331
0.04140,2.80000,-4.55000,0.00000,-0.00830,0.01049,-0.98942,2023,6,12,16,2,4,342
0.04150,2.97500,-4.60250,0.00000,-0.01037,0.01049,-0.99040,2023,6,12,16,2,4,354
0.04160,2.94000,-4.65500,0.00000,-0.01086,0.01159,-0.98698,2023,6,12,16,2,4,365
0.04170,2.90500,-4.35750,0.00000,-0.01037,0.01135,-0.99003,2023,6,12,16,2,4,376
0.04180,2.80000,-4.69000,0.00000,-0.01122,0.01086,-0.98808,2023,6,12,16,2,4,387
0.04190,2.83500,-4.53250,0.00000,-0.00915,0.01171,-0.98576,2023,6,12,16,2,4,398
0.04200,2.78250,-4.60250,0.00000,-0.00842,0.01147,-0.98918,2023,6,12,16,2,4,409
0.04210,2.90500,-4.63750,0.00000,-0.01110,0.01391,-0.98722,2023,6,12,16,2,4,420
0.04220,2.97500,-4.53250,0.00000,-0.01086,0.01110,-0.98844,2023,6,12,16,2,4,431
0.04230,3.04500,-4.60250,0.00000,-0.00927,0.00988,-0.98600,2023,6,12,16,2,4,442
0.04240,2.67750,-4.74250,0.00000,-0.01122,0.01232,-0.99076,2023,6,12,16,2,4,454
0.04250,3.02750,-4.37500,0.00000,-0.01037,0.01000,-0.98722,2023,6,12,16,2,4,465
0.04260,2.97500,-4.48000,0.00000,-0.01098,0.01244,-0.98576,2023,6,12,16,2,4,476
0.04270,2.73000,-4.49750,0.00000,-0.01196,0.01232,-0.98844,2023,6,12,16,2,4,487
0.04280,2.80000,-4.62000,0.00000,-0.00866,0.01244,-0.98881,2023,6,12,16,2,4,498
0.04290,2.88750,-4.51500,0.00000,-0.00939,0.01208,-0.98869,2023,6,12,16,2,4,509
0.04300,2.92250,-4.62000,0.00000,-0.00988,0.01183,-0.99064,2023,6,12,16,2,4,520
0.04310,2.87000,-4.69000,0.00000,-0.00988,0.01122,-0.98771,2023,6,12,16,2,4,531
0.04320,3.06250,-4.51500,0.00000,-0.01220,0.01061,-0.99113,2023,6,12,16,2,4,542
0.04330,3.01000,-4.53250,0.00000,-0.00988,0.01122,-0.99137,2023,6,12,16,2,4,554
0.04340,2.97500,-4.86500,0.00000,-0.00927,0.01281,-0.98735,2023,6,12,16,2,4,565
0.04350,2.74750,-4.55000,0.00000,-0.01122,0.01025,-0.98808,2023,6,12,16,2,4,576
0.04360,2.83500,-4.37500,0.00000,-0.01025,0.01086,-0.99064,2023,6,12,16,2,4,587
0.04370,3.11500,-4.76000,0.00000,-0.00927,0.01110,-0.98857,2023,6,12,16,2,4,598
0.04380,2.83500,-4.55000,0.00000,-0.01025,0.01061,-0.98783,2023,6,12,16,2,4,609
0.04390,3.06250,-4.53250,0.00000,-0.01098,0.01122,-0.98930,2023,6,12,16,2,4,620
0.04400,2.95750,-4.62000,0.00000,-0.01074,0.01196,-0.98686,2023,6,12,16,2,4,631
0.04410,3.06250,-4.72500,0.00000,-0.00964,0.01196,-0.98735,2023,6,12,16,2,4,642
0.04420,2.85250,-4.51500,0.00000,-0.01049,0.01183,-0.98905,2023,6,12,16,2,4,654
0.04430,2.80000,-4.55000,0.00000,-0.00842,0.01159,-0.98674,2023,6,12,16,2,4,665
0.04440,3.15000,-4.77750,0.00000,-0.00927,0.01232,-0.98771,2023,6,12,16,2,4,676
0.04450,2.87000,-4.72500,0.00000,-0.00756,0.01037,-0.98466,2023,6,12,16,2,4,687
0.04460,2.88750,-4.70750,0.00000,-0.01000,0.01122,-0.98942,2023,6,12,16,2,4,698
0.04470,2.90500,-4.62000,0.00000,-0.01135,0.01171,-0.98930,2023,6,12,16,2,4,709
0.04480,2.95750,-4.51500,0.00000,-0.00866,0.01379,-0.98600,2023,6,12,16,2,4,720
0.04490,3.11500,-4.51500,0.00000,-0.01061,0.01293,-0.98722,2023,6,12,16,2,4,731
0.04500,2.92250,-4.70750,0.00000,-0.01074,0.01281,-0.99027,2023,6,12,16,2,4,742
0.04510,2.85250,-4.51500,0.00000,-0.00964,0.01135,-0.99015,2023,6,12,16,2,4,754
0.04520,2.90500,-4.46250,0.00000,-0.01110,0.00988,-0.98759,2023,6,12,16,2,4,765
0.04530,2.81750,-4.56750,0.00000,-0.00842,0.01488,-0.98759,2023,6,12,16,2,4,776
0.04540,2.80000,-4.48000,0.00000,-0.00915,0.01183,-0.98796,2023,6,12,16,2,4,787
0.04550,2.83500,-4.53250,0.00000,-0.00927,0.01061,-0.98869,2023,6,12,16,2,4,798
0.04560,3.11500,-4.41000,0.00000,-0.01086,0.01013,-0.98600,2023,6,12,16,2,4,809
0.04570,2.90500,-4.53250,0.00000,-0.01208,0.01196,-0.98979,2023,6,12,16,2,4,820
0.04580,2.81750,-4.62000,0.00000,-0.01049,0.01061,-0.99003,2023,6,12,16,2,4,831
0.04590,2.99250,-4.49750,0.00000,-0.00976,0.01147,-0.98942,2023,6,12,16,2,4,842
0.04600,2.85250,-4.53250,0.00000,-0.00927,0.01037,-0.98832,2023,6,12,16,2,4,854
0.04610,3.02750,-4.56750,0.00000,-0.01013,0.01220,-0.98698,2023,6,12,16,2,4,865
0.04620,2.97500,-4.76000,0.00000,-0.01098,0.01171,-0.98735,2023,6,12,16,2,4,876
0.04630,2.90500,-4.77750,0.00000,-0.01013,0.01366,-0.98722,2023,6,12,16,2,4,887
0.04640,2.78250,-4.53250,0.00000,-0.01013,0.00915,-0.98625,2023,6,12,16,2,4,898
0.04650,2.83500,-4.63750,0.00000,-0.00988,0.01159,-0.98698,2023,6,12,16,2,4,909
0.04660,2.94000,-4.56750,0.00000,-0.00805,0.01159,-0.98820,2023,6,12,16,2,4,920
0.04670,2.87000,-4.76000,0.00000,-0.00976,0.01171,-0.98844,2023,6,12,16,2,4,931
0.04680,2.99250,-4.56750,0.00000,-0.01086,0.01257,-0.98832,2023,6,12,16,2,4,942
0.04690,2.85250,-4.42750,0.00000,-0.01159,0.01025,-0.98747,2023,6,12,16,2,4,954
0.04700,2.97500,-4.60250,0.00000,-0.01110,0.01318,-0.98820,2023,6,12,16,2,4,965
0.04710,2.94000,-4.49750,0.00000,-0.01013,0.01013,-0.99064,2023,6,12,16,2,5,6
0.04720,2.87000,-4.65500,0.00000,-0.01025,0.01220,-0.98979,2023,6,12,16,2,5,17
0.04730,2.83500,-4.63750,0.00000,-0.00964,0.00952,-0.98625,2023,6,12,16,2,5,28
0.04740,2.88750,-4.42750,0.00000,-0.01257,0.01244,-0.98808,2023,6,12,16,2,5,39
0.04750,2.83500,-4.51500,0.00000,-0.01086,0.01244,-0.98771,2023,6,12,16,2,5,50
0.04760,2.80000,-4.48000,0.00000,-0.01049,0.01196,-0.98966,2023,6,12,16,2,5,61
0.04770,2.83500,-4.67250,0.00000,-0.00891,0.01244,-0.98881,2023,6,12,16,2,5,72
0.04780,3.01000,-4.81250,0.00000,-0.01147,0.00866,-0.98576,2023,6,12,16,2,5,84
0.04790,2.78250,-4.48000,0.00000,-0.01049,0.01257,-0.98552,2023,6,12,16,2,5,95
0.04800,3.08000,-4.44500,0.00000,-0.01098,0.01135,-0.98869,2023,6,12,16,2,5,106
0.04810,3.04500,-4.62000,0.00000,-0.00878,0.01293,-0.98796,2023,6,12,16,2,5,117
0.04820,2.87000,-4.56750,0.00000,-0.00939,0.01147,-0.98710,2023,6,12,16,2,5,128
0.04830,3.01000,-4.48000,0.00000,-0.01061,0.01305,-0.98942,2023,6,12,16,2,5,139
0.04840,2.94000,-4.65500,0.00000,-0.01147,0.01086,-0.98710,2023,6,12,16,2,5,150
0.04850,2.95750,-4.65500,0.00000,-0.00878,0.01110,-0.98710,2023,6,12,16,2,5,161
0.04860,2.76500,-4.55000,0.00000,-0.00866,0.01305,-0.98735,2023,6,12,16,2,5,172
0.04870,3.02750,-4.60250,0.00000,-0.01061,0.00988,-0.98649,2023,6,12,16,2,5,184
0.04880,2.97500,-4.48000,0.00000,-0.00952,0.01110,-0.98783,2023,6,12,16,2,5,195
0.04890,3.06250,-4.58500,0.00000,-0.01061,0.01171,-0.98710,2023,6,12,16,2,5,206
0.04900,2.81750,-4.65500,0.00000,-0.00964,0.01025,-0.98796,2023,6,12,16,2,5,217
0.04910,2.80000,-4.42750,0.00000,-0.00891,0.01025,-0.98759,2023,6,12,16,2,5,228
0.04920,2.80000,-4.63750,0.00000,-0.01122,0.01122,-0.98722,2023,6,12,16,2,5,239
0.04930,2.74750,-4.63750,0.00000,-0.01196,0.01086,-0.98844,2023,6,12,16,2,5,250
0.04940,2.80000,-4.60250,0.00000,-0.01000,0.00952,-0.98625,2023,6,12,16,2,5,261
0.04950,2.99250,-4.63750,0.00000,-0.01049,0.01220,-0.98527,2023,6,12,16,2,5,272
0.04960,2.92250,-4.63750,0.00000,-0.01086,0.01025,-0.98796,2023,6,12,16,2,5,284
0.04970,3.06250,-4.58500,0.00000,-0.01061,0.01086,-0.98710,2023,6,12,16,2,5,295
0.04980,2.97500,-4.55000,0.00000,-0.01098,0.01147,-0.98613,2023,6,12,16,2,5,306
0.04990,2.97500,-4.41000,0.00000,-0.01037,0.01135,-0.98710,2023,6,12,16,2,5,317
0.05000,2.87000,-4.55000,0.00000,-0.01000,0.01183,-0.98564,2023,6,12,16,2,5,328
0.05010,3.11500,-4.58500,0.00000,-0.00891,0.00988,-0.98844,2023,6,12,16,2,5,339
0.05020,2.88750,-4.62000,0.00000,-0.01098,0.01220,-0.98735,2023,6,12,16,2,5,350
0.05030,3.04500,-4.72500,0.00000,-0.00805,0.01135,-0.98759,2023,6,12,16,2,5,361
0.05040,2.81750,-4.55000,0.00000,-0.00903,0.01305,-0.98796,2023,6,12,16,2,5,372
0.05050,3.01000,-4.86500,0.00000,-0.01061,0.01159,-0.99003,2023,6,12,16,2,5,384
0.05060,2.83500,-4.60250,0.00000,-0.01025,0.01061,-0.99003,2023,6,12,16,2,5,395
0.05070,2.94000,-4.65500,0.00000,-0.01000,0.01208,-0.99088,2023,6,12,16,2,5,406
0.05080,2.67750,-4.51500,0.00000,-0.01025,0.01305,-0.98759,2023,6,12,16,2,5,417
0.05090,2.85250,-4.58500,0.00000,-0.00952,0.01391,-0.98747,2023,6,12,16,2,5,428
0.05100,3.06250,-4.70750,0.00000,-0.00891,0.01171,-0.98527,2023,6,12,16,2,5,439
0.05110,2.76500,-4.46250,0.00000,-0.00988,0.01037,-0.98844,2023,6,12,16,2,5,450
0.05120,2.90500,-4.72500,0.00000,-0.01025,0.01098,-0.98869,2023,6,12,16,2,5,461
0.05130,2.97500,-4.48000,0.00000,-0.00988,0.01330,-0.98783,2023,6,12,16,2,5,472
0.05140,2.94000,-4.69000,0.00000,-0.00988,0.01135,-0.98808,2023,6,12,16,2,5,484
0.05150,2.83500,-4.62000,0.00000,-0.00927,0.00878,-0.98759,2023,6,12,16,2,5,495
0.05160,3.06250,-4.83000,0.00000,-0.01025,0.01159,-0.98905,2023,6,12,16,2,5,506
0.05170,3.06250,-4.83000,0.00000,-0.00878,0.01171,-0.99149,2023,6,12,16,2,5,517
0.05180,3.15000,-4.56750,0.00000,-0.01061,0.01110,-0.98844,2023,6,12,16,2,5,528
0.05190,2.92250,-4.69000,0.00000,-0.00903,0.01110,-0.98844,2023,6,12,16,2,5,539
0.05200,2.88750,-4.58500,0.00000,-0.01098,0.01025,-0.98832,2023,6,12,16,2,5,550
0.05210,2.97500,-4.49750,0.00000,-0.00891,0.01171,-0.98832,2023,6,12,16,2,5,561
0.05220,3.11500,-4.70750,0.00000,-0.01061,0.01074,-0.98954,2023,6,12,16,2,5,572
0.05230,2.85250,-4.63750,0.00000,-0.01061,0.01013,-0.98991,2023,6,12,16,2,5,584
0.05240,2.81750,-4.60250,0.00000,-0.01135,0.01086,-0.98881,2023,6,12,16,2,5,595
0.05250,2.81750,-4.49750,0.00000,-0.00939,0.00817,-0.98552,2023,6,12,16,2,5,606
0.05260,2.95750,-4.65500,0.00000,-0.01013,0.01171,-0.98930,2023,6,12,16,2,5,617
0.05270,3.04500,-4.70750,0.00000,-0.00952,0.01305,-0.98722,2023,6,12,16,2,5,628
0.05280,3.02750,-4.37500,0.00000,-0.01086,0.00964,-0.98649,2023,6,12,16,2,5,639
0.05290,3.08000,-4.67250,0.00000,-0.00695,0.01086,-0.98661,2023,6,12,16,2,5,650
0.05300,2.97500,-4.56750,0.00000,-0.01025,0.01110,-0.98698,2023,6,12,16,2,5,661
0.05310,3.04500,-4.56750,0.00000,-0.01025,0.00988,-0.98625,2023,6,12,16,2,5,672
0.05320,2.83500,-4.58500,0.00000,-0.00964,0.01049,-0.98454,2023,6,12,16,2,5,684
0.05330,2.67750,-4.60250,0.00000,-0.01220,0.01183,-0.99040,2023,6,12,16,2,5,695
0.05340,2.92250,-4.60250,0.00000,-0.01025,0.01147,-0.98698,2023,6,12,16,2,5,706
0.05350,3.15000,-4.63750,0.00000,-0.01269,0.01232,-0.99015,2023,6,12,16,2,5,717
0.05360,2.94000,-4.56750,0.00000,-0.00964,0.01391,-0.98686,2023,6,12,16,2,5,728
0.05370,2.99250,-4.58500,0.00000,-0.00976,0.01110,-0.98625,2023,6,12,16,2,5,739
0.05380,2.80000,-4.48000,0.00000,-0.01122,0.01110,-0.98771,2023,6,12,16,2,5,750
0.05390,2.90500,-4.65500,0.00000,-0.00964,0.01501,-0.98698,2023,6,12,16,2,5,761
0.05400,3.02750,-4.69000,0.00000,-0.00866,0.01330,-0.98661,2023,6,12,16,2,5,772
0.05410,2.85250,-4.55000,0.00000,-0.01147,0.01208,-0.98527,2023,6,12,16,2,5,784
0.05420,2.78250,-4.67250,0.00000,-0.01074,0.01122,-0.98844,2023,6,12,16,2,5,795
0.05430,2.94000,-4.76000,0.00000,-0.00976,0.01232,-0.99015,2023,6,12,16,2,5,806
0.05440,2.97500,-4.63750,0.00000,-0.00952,0.01061,-0.98759,2023,6,12,16,2,5,817
0.05450,2.87000,-4.53250,0.00000,-0.00842,0.01135,-0.98991,2023,6,12,16,2,5,828
0.05460,2.97500,-4.46250,0.00000,-0.00854,0.01293,-0.98930,2023,6,12,16,2,5,839
0.05470,2.99250,-4.76000,0.00000,-0.01061,0.00964,-0.99040,2023,6,12,16,2,5,850
0.05480,2.92250,-4.65500,0.00000,-0.01013,0.01049,-0.98722,2023,6,12,16,2,5,861
0.05490,3.08000,-4.53250,0.00000,-0.01025,0.01257,-0.98771,2023,6,12,16,2,5,872
0.05500,2.87000,-4.58500,0.00000,-0.00976,0.01208,-0.98857,2023,6,12,16,2,5,884
0.05510,3.06250,-4.63750,0.00000,-0.00976,0.01061,-0.98771,2023,6,12,16,2,5,895
0.05520,2.94000,-4.65500,0.00000,-0.01061,0.01318,-0.98857,2023,6,12,16,2,5,906
0.05530,2.85250,-4.72500,0.00000,-0.00927,0.01220,-0.98954,2023,6,12,16,2,5,917
0.05540,3.04500,-4.72500,0.00000,-0.01013,0.01025,-0.98515,2023,6,12,16,2,5,928
0.05550,2.99250,-4.81250,0.00000,-0.00952,0.01244,-0.98674,2023,6,12,16,2,5,939
0.05560,2.90500,-4.41000,0.00000,-0.00976,0.01208,-0.98637,2023,6,12,16,2,5,950
0.05570,2.76500,-4.63750,0.00000,-0.00756,0.01257,-0.98515,2023,6,12,16,2,5,961
0.05580,2.94000,-4.41000,0.00000,-0.01037,0.01257,-0.98942,2023,6,12,16,2,5,972
0.05590,2.88750,-4.55000,0.00000,-0.00988,0.01159,-0.98674,2023,6,12,16,2,6,4
0.05600,2.78250,-4.18250,0.00000,-0.01000,0.01049,-0.98942,2023,6,12,16,2,6,15
0.05610,3.18500,-4.81250,0.00000,-0.00927,0.01098,-0.98710,2023,6,12,16,2,6,26
0.05620,2.97500,-4.48000,0.00000,-0.01025,0.01269,-0.98759,2023,6,12,16,2,6,37
0.05630,2.97500,-4.55000,0.00000,-0.01122,0.01196,-0.98722,2023,6,12,16,2,6,48
0.05640,2.73000,-4.56750,0.00000,-0.01183,0.01110,-0.98783,2023,6,12,16,2,6,59
0.05650,2.99250,-4.67250,0.00000,-0.01098,0.01074,-0.98722,2023,6,12,16,2,6,70
0.05660,2.92250,-4.53250,0.00000,-0.00830,0.01061,-0.98918,2023,6,12,16,2,6,81
0.05670,2.95750,-4.65500,0.00000,-0.01086,0.01037,-0.98552,2023,6,12,16,2,6,92
0.05680,2.85250,-4.79500,0.00000,-0.01159,0.00842,-0.98832,2023,6,12,16,2,6,104
0.05690,2.78250,-4.44500,0.00000,-0.00976,0.01159,-0.98783,2023,6,12,16,2,6,115
0.05700,3.13250,-4.90000,0.00000,-0.01122,0.01293,-0.98466,2023,6,12,16,2,6,126
0.05710,2.97500,-4.53250,0.00000,-0.00927,0.01220,-0.98820,2023,6,12,16,2,6,137
0.05720,2.88750,-4.51500,0.00000,-0.01061,0.01159,-0.98918,2023,6,12,16,2,6,148
0.05730,3.02750,-4.74250,0.00000,-0.01196,0.01208,-0.98783,2023,6,12,16,2,6,159
0.05740,2.94000,-4.70750,0.00000,-0.00927,0.01379,-0.98686,2023,6,12,16,2,6,170
0.05750,2.88750,-4.69000,0.00000,-0.01159,0.01281,-0.98747,2023,6,12,16,2,6,181
0.05760,2.81750,-4.74250,0.00000,-0.00891,0.01098,-0.98771,2023,6,12,16,2,6,192
0.05770,2.87000,-4.46250,0.00000,-0.01074,0.01135,-0.98905,2023,6,12,16,2,6,204
0.05780,2.88750,-4.48000,0.00000,-0.00793,0.01086,-0.98857,2023,6,12,16,2,6,215
0.05790,3.02750,-4.72500,0.00000,-0.00903,0.01037,-0.98966,2023,6,12,16,2,6,226
0.05800,2.85250,-4.77750,0.00000,-0.00891,0.01171,-0.98735,2023,6,12,16,2,6,237
0.05810,3.01000,-4.74250,0.00000,-0.00988,0.01196,-0.98783,2023,6,12,16,2,6,248
0.05820,2.73000,-4.58500,0.00000,-0.00952,0.01464,-0.98759,2023,6,12,16,2,6,259
0.05830,2.74750,-4.48000,0.00000,-0.01013,0.01086,-0.98966,2023,6,12,16,2,6,270
0.05840,3.01000,-4.69000,0.00000,-0.01122,0.01110,-0.98637,2023,6,12,16,2,6,281
0.05850,2.73000,-4.56750,0.00000,-0.01110,0.01281,-0.98820,2023,6,12,16,2,6,292
0.05860,2.95750,-4.60250,0.00000,-0.00964,0.01257,-0.99015,2023,6,12,16,2,6,304
0.05870,2.87000,-4.58500,0.00000,-0.00793,0.01244,-0.98576,2023,6,12,16,2,6,315
0.05880,3.04500,-4.65500,0.00000,-0.00964,0.01171,-0.98674,2023,6,12,16,2,6,326
0.05890,2.87000,-4.48000,0.00000,-0.01098,0.01086,-0.98722,2023,6,12,16,2,6,337
0.05900,2.64250,-4.56750,0.00000,-0.01013,0.01110,-0.98844,2023,6,12,16,2,6,348
0.05910,2.78250,-4.32250,0.00000,-0.01025,0.01220,-0.98844,2023,6,12,16,2,6,359
0.05920,2.99250,-4.81250,0.00000,-0.00976,0.01110,-0.98832,2023,6,12,16,2,6,370
0.05930,2.99250,-4.42750,0.00000,-0.01171,0.01232,-0.98844,2023,6,12,16,2,6,381
0.05940,2.76500,-4.46250,0.00000,-0.01098,0.01318,-0.98857,2023,6,12,16,2,6,392
0.05950,3.09750,-4.88250,0.00000,-0.00793,0.01135,-0.98613,2023,6,12,16,2,6,404
0.05960,2.87000,-4.51500,0.00000,-0.00927,0.01147,-0.98844,2023,6,12,16,2,6,415
0.05970,2.95750,-4.63750,0.00000,-0.01013,0.01244,-0.98930,2023,6,12,16,2,6,426
0.05980,3.15000,-4.65500,0.00000,-0.01147,0.01196,-0.98759,2023,6,12,16,2,6,437
0.05990,3.08000,-4.67250,0.00000,-0.00903,0.01049,-0.98686,2023,6,12,16,2,6,448
0.06000,3.02750,-4.63750,0.00000,-0.00927,0.01305,-0.99003,2023,6,12,16,2,6,459
0.06010,2.95750,-4.56750,0.00000,-0.00927,0.01037,-0.98893,2023,6,12,16,2,6,470
0.06020,2.88750,-4.46250,0.00000,-0.01086,0.00927,-0.98832,2023,6,12,16,2,6,481
0.06030,3.01000,-4.63750,0.00000,-0.01135,0.01000,-0.98478,2023,6,12,16,2,6,492
0.06040,2.90500,-4.56750,0.00000,-0.00915,0.01244,-0.98637,2023,6,12,16,2,6,504
0.06050,2.88750,-4.58500,0.00000,-0.00842,0.01098,-0.98600,2023,6,12,16,2,6,515
0.06060,3.09750,-4.63750,0.00000,-0.00939,0.01135,-0.98735,2023,6,12,16,2,6,526
0.06070,3.04500,-4.70750,0.00000,-0.00964,0.00939,-0.98661,2023,6,12,16,2,6,537
0.06080,2.83500,-4.60250,0.00000,-0.00964,0.01159,-0.98771,2023,6,12,16,2,6,548
0.06090,2.97500,-4.65500,0.00000,-0.00903,0.01061,-0.98722,2023,6,12,16,2,6,559
0.06100,2.88750,-4.67250,0.00000,-0.00988,0.01330,-0.98759,2023,6,12,16,2,6,570
0.06110,2.90500,-4.65500,0.00000,-0.01086,0.01257,-0.98698,2023,6,12,16,2,6,581
0.06120,2.97500,-4.42750,0.00000,-0.00891,0.01110,-0.98710,2023,6,12,16,2,6,592
0.06130,2.99250,-4.62000,0.00000,-0.01293,0.00952,-0.98759,2023,6,12,16,2,6,604
0.06140,2.78250,-4.53250,0.00000,-0.00842,0.01196,-0.98649,2023,6,12,16,2,6,615
0.06150,3.08000,-4.74250,0.00000,-0.01013,0.01159,-0.99040,2023,6,12,16,2,6,626
0.06160,3.04500,-4.74250,0.00000,-0.00976,0.01293,-0.98820,2023,6,12,16,2,6,637
0.06170,2.92250,-4.53250,0.00000,-0.00744,0.01135,-0.98710,2023,6,12,16,2,6,648
0.06180,2.99250,-4.63750,0.00000,-0.01061,0.01293,-0.98783,2023,6,12,16,2,6,659
0.06190,2.80000,-4.44500,0.00000,-0.01244,0.01269,-0.98893,2023,6,12,16,2,6,670
0.06200,2.88750,-4.53250,0.00000,-0.00952,0.01183,-0.98503,2023,6,12,16,2,6,681
0.06210,2.92250,-4.70750,0.00000,-0.01013,0.01061,-0.98857,2023,6,12,16,2,6,692
0.06220,2.88750,-4.42750,0.00000,-0.01159,0.01403,-0.98808,2023,6,12,16,2,6,704
0.06230,3.02750,-4.74250,0.00000,-0.00952,0.01257,-0.98857,2023,6,12,16,2,6,715
0.06240,3.08000,-4.63750,0.00000,-0.00964,0.01171,-0.98930,2023,6,12,16,2,6,726
0.06250,2.83500,-4.55000,0.00000,-0.00952,0.01330,-0.98783,2023,6,12,16,2,6,737
0.06260,2.90500,-4.56750,0.00000,-0.01098,0.01147,-0.98722,2023,6,12,16,2,6,748
0.06270,3.01000,-4.65500,0.00000,-0.00976,0.01000,-0.98600,2023,6,12,16,2,6,759
0.06280,2.83500,-4.60250,0.00000,-0.00988,0.01061,-0.98552,2023,6,12,16,2,6,770
0.06290,2.78250,-4.46250,0.00000,-0.01086,0.01281,-0.98600,2023,6,12,16,2,6,781
0.06300,2.90500,-4.62000,0.00000,-0.00988,0.01269,-0.98808,2023,6,12,16,2,6,792
0.06310,2.94000,-4.41000,0.00000,-0.00915,0.01147,-0.98637,2023,6,12,16,2,6,804
0.06320,2.95750,-4.42750,0.00000,-0.01098,0.01135,-0.98649,2023,6,12,16,2,6,815
0.06330,2.85250,-4.41000,0.00000,-0.00976,0.01147,-0.98808,2023,6,12,16,2,6,826
0.06340,2.92250,-4.49750,0.00000,-0.01122,0.01208,-0.98564,2023,6,12,16,2,6,837
0.06350,2.94000,-4.58500,0.00000,-0.01110,0.01159,-0.98710,2023,6,12,16,2,6,848
0.06360,2.74750,-4.56750,0.00000,-0.01037,0.00915,-0.98820,2023,6,12,16,2,6,859
0.06370,2.83500,-4.63750,0.00000,-0.00988,0.01232,-0.99064,2023,6,12,16,2,6,870
0.06380,2.99250,-4.49750,0.00000,-0.01000,0.01232,-0.98930,2023,6,12,16,2,6,881
0.06390,2.88750,-4.51500,0.00000,-0.00732,0.01208,-0.98698,2023,6,12,16,2,6,892
0.06400,3.08000,-4.67250,0.00000,-0.01000,0.01061,-0.98686,2023,6,12,16,2,6,904
0.06410,2.88750,-4.72500,0.00000,-0.01049,0.01208,-0.98796,2023,6,12,16,2,6,915
0.06420,2.92250,-4.58500,0.00000,-0.00927,0.01000,-0.98905,2023,6,12,16,2,6,926
0.06430,2.87000,-4.79500,0.00000,-0.01025,0.01110,-0.98722,2023,6,12,16,2,6,937
0.06440,3.02750,-4.72500,0.00000,-0.01147,0.01049,-0.98857,2023,6,12,16,2,6,948
0.06450,2.81750,-4.69000,0.00000,-0.01110,0.00891,-0.98503,2023,6,12,16,2,6,959
0.06460,2.78250,-4.62000,0.00000,-0.00793,0.00952,-0.98686,2023,6,12,16,2,6,970
0.06470,2.87000,-4.72500,0.00000,-0.01159,0.01183,-0.98747,2023,6,12,16,2,7,1
0.06480,2.87000,-4.65500,0.00000,-0.01025,0.01122,-0.98661,2023,6,12,16,2,7,12
0.06490,3.04500,-4.62000,0.00000,-0.01159,0.01086,-0.98820,2023,6,12,16,2,7,24
0.06500,2.95750,-4.67250,0.00000,-0.01013,0.01232,-0.98613,2023,6,12,16,2,7,35
0.06510,2.80000,-4.46250,0.00000,-0.00976,0.01159,-0.98552,2023,6,12,16,2,7,46
0.06520,3.06250,-4.70750,0.00000,-0.00927,0.01232,-0.99015,2023,6,12,16,2,7,57
0.06530,2.88750,-4.60250,0.00000,-0.00854,0.01147,-0.98808,2023,6,12,16,2,7,68
0.06540,2.95750,-4.49750,0.00000,-0.00866,0.01196,-0.98905,2023,6,12,16,2,7,79
0.06550,2.92250,-4.44500,0.00000,-0.00939,0.01269,-0.98747,2023,6,12,16,2,7,90
0.06560,2.69500,-4.23500,0.00000,-0.00988,0.00964,-0.98527,2023,6,12,16,2,7,101
0.06570,2.85250,-4.58500,0.00000,-0.01110,0.01269,-0.98844,2023,6,12,16,2,7,112
0.06580,2.78250,-4.63750,0.00000,-0.01074,0.01074,-0.98698,2023,6,12,16,2,7,124
0.06590,3.02750,-4.63750,0.00000,-0.00927,0.01159,-0.98661,2023,6,12,16,2,7,135
0.06600,2.87000,-4.55000,0.00000,-0.01025,0.01330,-0.99137,2023,6,12,16,2,7,146
0.06610,2.92250,-4.62000,0.00000,-0.01122,0.01171,-0.98979,2023,6,12,16,2,7,157
0.06620,2.95750,-4.56750,0.00000,-0.01086,0.01366,-0.98710,2023,6,12,16,2,7,168
0.06630,2.90500,-4.51500,0.00000,-0.01049,0.01257,-0.98869,2023,6,12,16,2,7,179
0.06640,2.85250,-4.48000,0.00000,-0.01281,0.01074,-0.98369,2023,6,12,16,2,7,190
0.06650,2.83500,-4.46250,0.00000,-0.01025,0.01244,-0.98735,2023,6,12,16,2,7,201
0.06660,2.88750,-4.51500,0.00000,-0.00952,0.01281,-0.98930,2023,6,12,16,2,7,212
0.06670,2.81750,-4.63750,0.00000,-0.01086,0.01110,-0.98844,2023,6,12,16,2,7,224
0.06680,3.11500,-4.62000,0.00000,-0.00952,0.01159,-0.99003,2023,6,12,16,2,7,235
0.06690,3.02750,-4.62000,0.00000,-0.01135,0.01208,-0.98954,2023,6,12,16,2,7,246
0.06700,2.83500,-4.56750,0.00000,-0.01013,0.01074,-0.98893,2023,6,12,16,2,7,257
0.06710,2.90500,-4.56750,0.00000,-0.01110,0.00866,-0.98832,2023,6,12,16,2,7,268
0.06720,2.74750,-4.44500,0.00000,-0.01086,0.01037,-0.98796,2023,6,12,16,2,7,279
0.06730,3.13250,-4.62000,0.00000,-0.00817,0.01537,-0.98405,2023,6,12,16,2,7,290
0.06740,2.94000,-4.69000,0.00000,-0.01135,0.01049,-0.98747,2023,6,12,16,2,7,301
0.06750,2.94000,-4.69000,0.00000,-0.01171,0.01281,-0.99003,2023,6,12,16,2,7,312
0.06760,2.99250,-4.49750,0.00000,-0.00891,0.00976,-0.98954,2023,6,12,16,2,7,324
0.06770,2.67750,-4.35750,0.00000,-0.01110,0.01159,-0.98796,2023,6,12,16,2,7,335
0.06780,3.06250,-4.58500,0.00000,-0.01013,0.01232,-0.98735,2023,6,12,16,2,7,346
0.06790,2.81750,-4.42750,0.00000,-0.00988,0.01488,-0.98771,2023,6,12,16,2,7,357
0.06800,2.90500,-4.67250,0.00000,-0.01000,0.01232,-0.98918,2023,6,12,16,2,7,368
0.06810,2.83500,-4.56750,0.00000,-0.00988,0.01293,-0.98722,2023,6,12,16,2,7,379
0.06820,2.71250,-4.39250,0.00000,-0.00952,0.01244,-0.98893,2023,6,12,16,2,7,390
0.06830,2.83500,-4.70750,0.00000,-0.00915,0.01366,-0.98832,2023,6,12,16,2,7,401
0.06840,2.94000,-4.49750,0.00000,-0.01000,0.01244,-0.98527,2023,6,12,16,2,7,412
0.06850,3.08000,-4.55000,0.00000,-0.01025,0.01098,-0.98783,2023,6,12,16,2,7,424
0.06860,2.97500,-4.76000,0.00000,-0.00854,0.01110,-0.98686,2023,6,12,16,2,7,435
0.06870,2.99250,-4.41000,0.00000,-0.01049,0.01196,-0.99052,2023,6,12,16,2,7,446
0.06880,2.97500,-4.63750,0.00000,-0.01000,0.01196,-0.98905,2023,6,12,16,2,7,457
0.06890,2.85250,-4.44500,0.00000,-0.00976,0.01061,-0.98674,2023,6,12,16,2,7,468
0.06900,3.01000,-4.48000,0.00000,-0.01049,0.00964,-0.98808,2023,6,12,16,2,7,479
0.06910,2.85250,-4.51500,0.00000,-0.01208,0.01098,-0.98759,2023,6,12,16,2,7,490
0.06920,2.76500,-4.53250,0.00000,-0.01037,0.01281,-0.98759,2023,6,12,16,2,7,501
0.06930,2.95750,-4.58500,0.00000,-0.00976,0.01135,-0.98344,2023,6,12,16,2,7,512
0.06940,2.94000,-4.70750,0.00000,-0.01000,0.01208,-0.98881,2023,6,12,16,2,7,524
0.06950,2.95750,-4.46250,0.00000,-0.00903,0.01049,-0.98698,2023,6,12,16,2,7,535
0.06960,2.88750,-4.53250,0.00000,-0.01049,0.01208,-0.98857,2023,6,12,16,2,7,546
0.06970,2.88750,-4.51500,0.00000,-0.00964,0.01000,-0.98796,2023,6,12,16,2,7,557
0.06980,2.85250,-4.37500,0.00000,-0.00769,0.01342,-0.98966,2023,6,12,16,2,7,568
0.06990,3.15000,-4.49750,0.00000,-0.01000,0.01244,-0.98674,2023,6,12,16,2,7,579
0.07000,3.06250,-4.86500,0.00000,-0.00732,0.01220,-0.98783,2023,6,12,16,2,7,590
0.07010,2.90500,-4.51500,0.00000,-0.01049,0.01196,-0.98808,2023,6,12,16,2,7,601
0.07020,2.81750,-4.58500,0.00000,-0.00903,0.00988,-0.98442,2023,6,12,16,2,7,612
0.07030,2.88750,-4.53250,0.00000,-0.01135,0.00976,-0.98600,2023,6,12,16,2,7,624
0.07040,2.81750,-4.62000,0.00000,-0.01049,0.01208,-0.98600,2023,6,12,16,2,7,635
0.07050,2.73000,-4.74250,0.00000,-0.01074,0.01098,-0.98747,2023,6,12,16,2,7,646
0.07060,3.06250,-4.55000,0.00000,-0.00878,0.01159,-0.98588,2023,6,12,16,2,7,657
0.07070,3.06250,-4.72500,0.00000,-0.00927,0.01037,-0.98735,2023,6,12,16,2,7,668
0.07080,3.11500,-4.69000,0.00000,-0.00830,0.01037,-0.98588,2023,6,12,16,2,7,679
0.07090,2.76500,-4.65500,0.00000,-0.00952,0.01232,-0.98515,2023,6,12,16,2,7,690
0.07100,2.94000,-4.60250,0.00000,-0.01000,0.01379,-0.98808,2023,6,12,16,2,7,701
0.07110,2.71250,-4.39250,0.00000,-0.01196,0.01061,-0.98588,2023,6,12,16,2,7,712
0.07120,3.08000,-4.53250,0.00000,-0.00903,0.01061,-0.98686,2023,6,12,16,2,7,724
0.07130,2.92250,-4.51500,0.00000,-0.00915,0.00952,-0.98771,2023,6,12,16,2,7,735
0.07140,2.85250,-4.63750,0.00000,-0.00817,0.01330,-0.98783,2023,6,12,16,2,7,746
0.07150,3.04500,-4.62000,0.00000,-0.00952,0.01354,-0.98808,2023,6,12,16,2,7,757
0.07160,2.83500,-4.53250,0.00000,-0.00976,0.01000,-0.98600,2023,6,12,16,2,7,768
0.07170,2.95750,-4.53250,0.00000,-0.01049,0.00854,-0.98710,2023,6,12,16,2,7,779
0.07180,3.02750,-4.44500,0.00000,-0.01208,0.01061,-0.98539,2023,6,12,16,2,7,790
0.07190,2.83500,-4.46250,0.00000,-0.01049,0.01196,-0.98759,2023,6,12,16,2,7,801
0.07200,3.08000,-4.70750,0.00000,-0.00842,0.00964,-0.98857,2023,6,12,16,2,7,812
0.07210,2.99250,-4.67250,0.00000,-0.00964,0.01037,-0.98600,2023,6,12,16,2,7,824
0.07220,2.97500,-4.90000,0.00000,-0.00817,0.01074,-0.98381,2023,6,12,16,2,7,835
0.07230,3.04500,-4.58500,0.00000,-0.00939,0.01281,-0.99003,2023,6,12,16,2,7,846
0.07240,2.94000,-4.63750,0.00000,-0.01025,0.01208,-0.98588,2023,6,12,16,2,7,857
0.07250,2.97500,-4.55000,0.00000,-0.01122,0.01415,-0.98991,2023,6,12,16,2,7,868
0.07260,2.74750,-4.28750,0.00000,-0.01086,0.01208,-0.98844,2023,6,12,16,2,7,879
0.07270,2.99250,-4.63750,0.00000,-0.00915,0.01293,-0.98649,2023,6,12,16,2,7,890
0.07280,3.08000,-4.55000,0.00000,-0.01061,0.01049,-0.98783,2023,6,12,16,2,7,901
0.07290,2.87000,-4.62000,0.00000,-0.00781,0.01000,-0.98527,2023,6,12,16,2,7,912
0.07300,2.94000,-4.58500,0.00000,-0.01135,0.00988,-0.98844,2023,6,12,16,2,7,924
0.07310,2.83500,-4.70750,0.00000,-0.00939,0.01208,-0.98881,2023,6,12,16,2,7,935
0.07320,2.90500,-4.53250,0.00000,-0.01110,0.00952,-0.98637,2023,6,12,16,2,7,946
0.07330,2.92250,-4.27000,0.00000,-0.01000,0.01147,-0.98625,2023,6,12,16,2,7,957
0.07340,2.87000,-4.55000,0.00000,-0.01122,0.01220,-0.98710,2023,6,12,16,2,7,968
0.07350,3.06250,-4.37500,0.00000,-0.00952,0.01232,-0.98796,2023,6,12,16,2,8,9
0.07360,2.92250,-4.53250,0.00000,-0.01049,0.01366,-0.99040,2023,6,12,16,2,8,20
0.07370,3.08000,-4.81250,0.00000,-0.01074,0.01025,-0.98796,2023,6,12,16,2,8,31
0.07380,2.97500,-4.69000,0.00000,-0.00817,0.01086,-0.98674,2023,6,12,16,2,8,42
0.07390,3.08000,-4.63750,0.00000,-0.01025,0.01232,-0.98832,2023,6,12,16,2,8,54
0.07400,3.22000,-4.72500,0.00000,-0.01037,0.01452,-0.98930,2023,6,12,16,2,8,65
0.07410,3.01000,-4.58500,0.00000,-0.01110,0.01171,-0.98539,2023,6,12,16,2,8,76
0.07420,2.95750,-4.62000,0.00000,-0.00976,0.00952,-0.98649,2023,6,12,16,2,8,87
0.07430,2.90500,-4.55000,0.00000,-0.00903,0.01013,-0.98759,2023,6,12,16,2,8,98
0.07440,2.78250,-4.60250,0.00000,-0.00939,0.01098,-0.98588,2023,6,12,16,2,8,109
0.07450,2.90500,-4.51500,0.00000,-0.01037,0.01293,-0.98796,2023,6,12,16,2,8,120
0.07460,3.01000,-4.49750,0.00000,-0.01147,0.01232,-0.98649,2023,6,12,16,2,8,131
0.07470,2.90500,-4.60250,0.00000,-0.00976,0.01281,-0.98552,2023,6,12,16,2,8,142
0.07480,2.69500,-4.60250,0.00000,-0.00903,0.01110,-0.98759,2023,6,12,16,2,8,154
0.07490,2.85250,-4.58500,0.00000,-0.00903,0.01135,-0.98722,2023,6,12,16,2,8,165
0.07500,3.04500,-4.90000,0.00000,-0.00988,0.01122,-0.98503,2023,6,12,16,2,8,176
0.07510,3.02750,-4.63750,0.00000,-0.01061,0.01208,-0.99259,2023,6,12,16,2,8,187
0.07520,2.80000,-4.49750,0.00000,-0.00927,0.01098,-0.98600,2023,6,12,16,2,8,198
0.07530,2.90500,-4.46250,0.00000,-0.00891,0.01415,-0.98588,2023,6,12,16,2,8,209
0.07540,2.78250,-4.53250,0.00000,-0.01110,0.01025,-0.99015,2023,6,12,16,2,8,220
0.07550,3.08000,-4.63750,0.00000,-0.01000,0.01061,-0.98710,2023,6,12,16,2,8,231
0.07560,2.73000,-4.79500,0.00000,-0.01000,0.01135,-0.99003,2023,6,12,16,2,8,242
0.07570,3.23750,-4.84750,0.00000,-0.01061,0.01122,-0.98661,2023,6,12,16,2,8,254
0.07580,2.85250,-4.56750,0.00000,-0.00952,0.01098,-0.98869,2023,6,12,16,2,8,265
0.07590,3.18500,-4.79500,0.00000,-0.01110,0.00976,-0.98808,2023,6,12,16,2,8,276
0.07600,3.01000,-4.67250,0.00000,-0.01098,0.01110,-0.98735,2023,6,12,16,2,8,287
0.07610,2.76500,-4.42750,0.00000,-0.01013,0.01415,-0.98747,2023,6,12,16,2,8,298
0.07620,2.94000,-4.51500,0.00000,-0.01110,0.01098,-0.99198,2023,6,12,16,2,8,309
0.07630,2.78250,-4.44500,0.00000,-0.00769,0.01159,-0.98637,2023,6,12,16,2,8,320
0.07640,2.95750,-4.32250,0.00000,-0.01183,0.01061,-0.98674,2023,6,12,16,2,8,331
0.07650,2.90500,-4.55000,0.00000,-0.01074,0.01171,-0.99088,2023,6,12,16,2,8,342
0.07660,2.87000,-4.58500,0.00000,-0.01000,0.01293,-0.98722,2023,6,12,16,2,8,354
0.07670,3.06250,-4.53250,0.00000,-0.00952,0.01159,-0.98661,2023,6,12,16,2,8,365
0.07680,3.08000,-4.88250,0.00000,-0.01147,0.01098,-0.98759,2023,6,12,16,2,8,376
0.07690,2.88750,-4.39250,0.00000,-0.00952,0.01232,-0.98661,2023,6,12,16,2,8,387
0.07700,2.87000,-4.69000,0.00000,-0.00708,0.01110,-0.98466,2023,6,12,16,2,8,398
0.07710,2.97500,-4.51500,0.00000,-0.00964,0.01098,-0.98710,2023,6,12,16,2,8,409
0.07720,2.97500,-4.58500,0.00000,-0.01110,0.01147,-0.98796,2023,6,12,16,2,8,420
0.07730,2.85250,-4.65500,0.00000,-0.01110,0.01171,-0.98771,2023,6,12,16,2,8,431
0.07740,3.18500,-4.49750,0.00000,-0.01037,0.01061,-0.98783,2023,6,12,16,2,8,442
0.07750,2.88750,-4.69000,0.00000,-0.00903,0.01257,-0.99088,2023,6,12,16,2,8,454
0.07760,2.85250,-4.67250,0.00000,-0.00952,0.01135,-0.98686,2023,6,12,16,2,8,465
0.07770,2.95750,-4.70750,0.00000,-0.01171,0.01293,-0.98674,2023,6,12,16,2,8,476
0.07780,2.85250,-4.62000,0.00000,-0.01159,0.01122,-0.98747,2023,6,12,16,2,8,487
0.07790,2.90500,-4.23500,0.00000,-0.01013,0.01000,-0.98808,2023,6,12,16,2,8,498
0.07800,2.83500,-4.46250,0.00000,-0.00939,0.01159,-0.98857,2023,6,12,16,2,8,509
0.07810,2.76500,-4.49750,0.00000,-0.01135,0.01171,-0.98954,2023,6,12,16,2,8,520
0.07820,3.01000,-4.65500,0.00000,-0.00756,0.01037,-0.98686,2023,6,12,16,2,8,531
0.07830,2.83500,-4.46250,0.00000,-0.00927,0.01208,-0.98637,2023,6,12,16,2,8,542
0.07840,2.87000,-4.56750,0.00000,-0.01061,0.01000,-0.98796,2023,6,12,16,2,8,554
0.07850,2.92250,-4.69000,0.00000,-0.01159,0.01049,-0.98503,2023,6,12,16,2,8,565
0.07860,2.90500,-4.55000,0.00000,-0.00854,0.01244,-0.98674,2023,6,12,16,2,8,576
0.07870,2.94000,-4.53250,0.00000,-0.01122,0.01061,-0.98710,2023,6,12,16,2,8,587
0.07880,2.88750,-4.86500,0.00000,-0.01098,0.01074,-0.98796,2023,6,12,16,2,8,598
0.07890,2.99250,-4.56750,0.00000,-0.00927,0.01244,-0.98600,2023,6,12,16,2,8,609
0.07900,2.85250,-4.48000,0.00000,-0.00952,0.00988,-0.98954,2023,6,12,16,2,8,620
0.07910,3.02750,-4.81250,0.00000,-0.00988,0.00964,-0.98857,2023,6,12,16,2,8,631
0.07920,2.94000,-4.58500,0.00000,-0.00903,0.01171,-0.98881,2023,6,12,16,2,8,642
0.07930,3.06250,-4.51500,0.00000,-0.01025,0.01098,-0.98832,2023,6,12,16,2,8,654
0.07940,2.81750,-4.55000,0.00000,-0.01147,0.01244,-0.98661,2023,6,12,16,2,8,665
0.07950,2.95750,-4.69000,0.00000,-0.00915,0.01281,-0.98674,2023,6,12,16,2,8,676
0.07960,2.92250,-4.58500,0.00000,-0.00964,0.01171,-0.98771,2023,6,12,16,2,8,687
0.07970,2.83500,-4.62000,0.00000,-0.00976,0.01159,-0.98747,2023,6,12,16,2,8,698
0.07980,2.90500,-4.63750,0.00000,-0.00891,0.01208,-0.99027,2023,6,12,16,2,8,709
0.07990,2.85250,-4.48000,0.00000,-0.00952,0.01342,-0.98771,2023,6,12,16,2,8,720
0.08000,3.08000,-4.63750,0.00000,-0.01074,0.01037,-0.98674,2023,6,12,16,2,8,731
0.08010,2.99250,-4.53250,0.00000,-0.00854,0.01196,-0.98722,2023,6,12,16,2,8,742
0.08020,3.16750,-4.62000,0.00000,-0.00964,0.01293,-0.98625,2023,6,12,16,2,8,754
0.08030,2.88750,-4.51500,0.00000,-0.00878,0.01244,-0.98637,2023,6,12,16,2,8,765
0.08040,2.94000,-4.65500,0.00000,-0.01049,0.01171,-0.98417,2023,6,12,16,2,8,776
0.08050,2.95750,-4.60250,0.00000,-0.01000,0.00976,-0.98674,2023,6,12,16,2,8,787
0.08060,2.73000,-4.32250,0.00000,-0.00939,0.01196,-0.98722,2023,6,12,16,2,8,798
0.08070,2.88750,-4.74250,0.00000,-0.01086,0.01049,-0.98637,2023,6,12,16,2,8,809
0.08080,2.90500,-4.41000,0.00000,-0.00939,0.01147,-0.98942,2023,6,12,16,2,8,820
0.08090,2.83500,-4.60250,0.00000,-0.00927,0.01244,-0.98600,2023,6,12,16,2,8,831
0.08100,3.06250,-4.60250,0.00000,-0.01135,0.01159,-0.98796,2023,6,12,16,2,8,842
0.08110,2.99250,-4.62000,0.00000,-0.01049,0.01098,-0.98649,2023,6,12,16,2,8,854
0.08120,2.80000,-4.55000,0.00000,-0.00988,0.01269,-0.98515,2023,6,12,16,2,8,865
0.08130,2.95750,-4.65500,0.00000,-0.01025,0.01220,-0.98759,2023,6,12,16,2,8,876
0.08140,3.06250,-4.48000,0.00000,-0.00854,0.01086,-0.98515,2023,6,12,16,2,8,887
0.08150,2.81750,-4.58500,0.00000,-0.01135,0.00964,-0.98857,2023,6,12,16,2,8,898
0.08160,3.01000,-4.55000,0.00000,-0.01135,0.01342,-0.98844,2023,6,12,16,2,8,909
0.08170,3.08000,-4.65500,0.00000,-0.00939,0.01196,-0.98808,2023,6,12,16,2,8,920
0.08180,2.83500,-4.51500,0.00000,-0.01000,0.01122,-0.98552,2023,6,12,16,2,8,931
0.08190,2.87000,-4.53250,0.00000,-0.00793,0.01354,-0.98491,2023,6,12,16,2,8,942
0.08200,2.88750,-4.37500,0.00000,-0.00976,0.01025,-0.98893,2023,6,12,16,2,8,954
0.08210,2.92250,-4.72500,0.00000,-0.00927,0.01074,-0.98796,2023,6,12,16,2,8,965
0.08220,2.85250,-4.30500,0.00000,-0.01122,0.01122,-0.98613,2023,6,12,16,2,9,6
0.08230,3.02750,-4.63750,0.00000,-0.00964,0.01354,-0.99088,2023,6,12,16,2,9,17
0.08240,3.13250,-4.49750,0.00000,-0.00939,0.01013,-0.98527,2023,6,12,16,2,9,28
0.08250,3.04500,-4.55000,0.00000,-0.01049,0.01074,-0.98881,2023,6,12,16,2,9,39
0.08260,2.94000,-4.58500,0.00000,-0.00964,0.01171,-0.98881,2023,6,12,16,2,9,50
0.08270,2.71250,-4.58500,0.00000,-0.01098,0.01196,-0.99040,2023,6,12,16,2,9,61
0.08280,2.71250,-4.51500,0.00000,-0.00891,0.01281,-0.98625,2023,6,12,16,2,9,72
0.08290,2.90500,-4.56750,0.00000,-0.01000,0.01171,-0.98600,2023,6,12,16,2,9,84
0.08300,2.95750,-4.60250,0.00000,-0.01086,0.01366,-0.98820,2023,6,12,16,2,9,95
0.08310,2.81750,-4.51500,0.00000,-0.00952,0.01305,-0.98613,2023,6,12,16,2,9,106
0.08320,2.90500,-4.65500,0.00000,-0.00952,0.01000,-0.98552,2023,6,12,16,2,9,117
0.08330,3.09750,-4.70750,0.00000,-0.00854,0.01086,-0.98637,2023,6,12,16,2,9,128
0.08340,2.92250,-4.65500,0.00000,-0.00878,0.01232,-0.98527,2023,6,12,16,2,9,139
0.08350,2.95750,-4.48000,0.00000,-0.00976,0.01147,-0.98564,2023,6,12,16,2,9,150
0.08360,2.74750,-4.48000,0.00000,-0.01110,0.01122,-0.98674,2023,6,12,16,2,9,161
0.08370,2.88750,-4.49750,0.00000,-0.01025,0.01415,-0.98539,2023,6,12,16,2,9,172
0.08380,2.97500,-4.60250,0.00000,-0.01000,0.01159,-0.98454,2023,6,12,16,2,9,184
0.08390,2.99250,-4.46250,0.00000,-0.00915,0.01147,-0.98820,2023,6,12,16,2,9,195
0.08400,2.88750,-4.55000,0.00000,-0.01183,0.01366,-0.98820,2023,6,12,16,2,9,206
0.08410,2.88750,-4.42750,0.00000,-0.01135,0.01305,-0.98881,2023,6,12,16,2,9,217
0.08420,2.83500,-4.63750,0.00000,-0.00891,0.01330,-0.98893,2023,6,12,16,2,9,228
0.08430,2.85250,-4.41000,0.00000,-0.01183,0.01232,-0.98661,2023,6,12,16,2,9,239
0.08440,2.87000,-4.49750,0.00000,-0.01000,0.01257,-0.98686,2023,6,12,16,2,9,250
0.08450,2.94000,-4.70750,0.00000,-0.00854,0.01135,-0.98942,2023,6,12,16,2,9,261
0.08460,2.85250,-4.62000,0.00000,-0.00976,0.01244,-0.98735,2023,6,12,16,2,9,272
0.08470,3.02750,-4.81250,0.00000,-0.00866,0.01208,-0.98515,2023,6,12,16,2,9,284
0.08480,2.97500,-4.72500,0.00000,-0.01049,0.01037,-0.98491,2023,6,12,16,2,9,295
0.08490,2.94000,-4.72500,0.00000,-0.01208,0.01000,-0.98869,2023,6,12,16,2,9,306
0.08500,2.92250,-4.51500,0.00000,-0.00903,0.01220,-0.98405,2023,6,12,16,2,9,317
0.08510,3.13250,-4.55000,0.00000,-0.00952,0.01135,-0.98759,2023,6,12,16,2,9,328
0.08520,2.87000,-4.69000,0.00000,-0.01061,0.01208,-0.99040,2023,6,12,16,2,9,339
0.08530,2.90500,-4.67250,0.00000,-0.01171,0.01122,-0.98722,2023,6,12,16,2,9,350
0.08540,2.92250,-4.83000,0.00000,-0.01000,0.01122,-0.98698,2023,6,12,16,2,9,361
0.08550,3.11500,-4.74250,0.00000,-0.01013,0.01013,-0.98625,2023,6,12,16,2,9,372
0.08560,2.97500,-4.55000,0.00000,-0.01086,0.01220,-0.98905,2023,6,12,16,2,9,384
0.08570,3.02750,-4.37500,0.00000,-0.00842,0.00915,-0.98844,2023,6,12,16,2,9,395
0.08580,2.97500,-4.60250,0.00000,-0.00891,0.01183,-0.98771,2023,6,12,16,2,9,406
0.08590,2.83500,-4.55000,0.00000,-0.01086,0.01122,-0.98637,2023,6,12,16,2,9,417
0.08600,2.99250,-4.60250,0.00000,-0.01086,0.00988,-0.98686,2023,6,12,16,2,9,428
0.08610,2.94000,-4.60250,0.00000,-0.00793,0.01049,-0.98869,2023,6,12,16,2,9,439
0.08620,2.80000,-4.55000,0.00000,-0.00952,0.01098,-0.98893,2023,6,12,16,2,9,450
0.08630,2.97500,-4.62000,0.00000,-0.01013,0.01159,-0.98600,2023,6,12,16,2,9,461
0.08640,2.90500,-4.55000,0.00000,-0.01037,0.01293,-0.99003,2023,6,12,16,2,9,472
0.08650,2.99250,-4.55000,0.00000,-0.01061,0.01220,-0.98661,2023,6,12,16,2,9,484
0.08660,2.83500,-4.46250,0.00000,-0.01086,0.00988,-0.98661,2023,6,12,16,2,9,495
0.08670,2.80000,-4.74250,0.00000,-0.01147,0.01183,-0.98930,2023,6,12,16,2,9,506
0.08680,2.85250,-4.72500,0.00000,-0.01037,0.01244,-0.98747,2023,6,12,16,2,9,517
0.08690,2.88750,-4.63750,0.00000,-0.00952,0.01220,-0.98844,2023,6,12,16,2,9,528
0.08700,2.90500,-4.63750,0.00000,-0.00976,0.01293,-0.98869,2023,6,12,16,2,9,539
0.08710,2.85250,-4.62000,0.00000,-0.01000,0.01074,-0.99052,2023,6,12,16,2,9,550
0.08720,3.08000,-4.46250,0.00000,-0.01135,0.01183,-0.98710,2023,6,12,16,2,9,561
0.08730,2.95750,-4.62000,0.00000,-0.01110,0.01330,-0.98759,2023,6,12,16,2,9,572
0.08740,2.90500,-4.56750,0.00000,-0.00988,0.01366,-0.98966,2023,6,12,16,2,9,584
0.08750,2.85250,-4.67250,0.00000,-0.00952,0.01452,-0.98600,2023,6,12,16,2,9,595
0.08760,2.87000,-4.69000,0.00000,-0.01098,0.00976,-0.98735,2023,6,12,16,2,9,606
0.08770,2.88750,-4.56750,0.00000,-0.00988,0.01037,-0.98332,2023,6,12,16,2,9,617
0.08780,2.87000,-4.46250,0.00000,-0.01049,0.01122,-0.98588,2023,6,12,16,2,9,628
0.08790,2.67750,-4.51500,0.00000,-0.01171,0.01135,-0.98637,2023,6,12,16,2,9,639
0.08800,2.92250,-4.42750,0.00000,-0.01061,0.01196,-0.98759,2023,6,12,16,2,9,650
0.08810,3.04500,-4.62000,0.00000,-0.00781,0.01074,-0.98478,2023,6,12,16,2,9,661
0.08820,2.90500,-4.69000,0.00000,-0.00939,0.01171,-0.98491,2023,6,12,16,2,9,672
0.08830,2.74750,-4.27000,0.00000,-0.01061,0.01220,-0.98674,2023,6,12,16,2,9,684
0.08840,2.95750,-4.44500,0.00000,-0.01013,0.01293,-0.98771,2023,6,12,16,2,9,695
0.08850,2.95750,-4.48000,0.00000,-0.00988,0.01220,-0.98613,2023,6,12,16,2,9,706
0.08860,3.04500,-4.58500,0.00000,-0.00976,0.01196,-0.98771,2023,6,12,16,2,9,717
0.08870,2.95750,-4.51500,0.00000,-0.01061,0.01061,-0.98698,2023,6,12,16,2,9,728
0.08880,2.94000,-4.63750,0.00000,-0.01183,0.01135,-0.98808,2023,6,12,16,2,9,739
0.08890,2.87000,-4.53250,0.00000,-0.01220,0.01074,-0.98735,2023,6,12,16,2,9,750
0.08900,2.95750,-4.70750,0.00000,-0.01025,0.01061,-0.98527,2023,6,12,16,2,9,761
0.08910,2.88750,-4.60250,0.00000,-0.01110,0.01049,-0.98796,2023,6,12,16,2,9,772
0.08920,2.97500,-4.58500,0.00000,-0.00988,0.01196,-0.98918,2023,6,12,16,2,9,784
0.08930,3.02750,-4.58500,0.00000,-0.00891,0.01171,-0.98735,2023,6,12,16,2,9,795
0.08940,2.80000,-4.42750,0.00000,-0.00769,0.01342,-0.98844,2023,6,12,16,2,9,806
0.08950,2.81750,-4.56750,0.00000,-0.01025,0.01061,-0.98588,2023,6,12,16,2,9,817
0.08960,3.09750,-4.34000,0.00000,-0.00952,0.01354,-0.98881,2023,6,12,16,2,9,828
0.08970,2.83500,-4.65500,0.00000,-0.01025,0.01208,-0.98649,2023,6,12,16,2,9,839
0.08980,2.94000,-4.72500,0.00000,-0.01013,0.01244,-0.98820,2023,6,12,16,2,9,850
0.08990,2.88750,-4.88250,0.00000,-0.00976,0.01220,-0.98844,2023,6,12,16,2,9,861
0.09000,2.74750,-4.51500,0.00000,-0.01196,0.00988,-0.98430,2023,6,12,16,2,9,872
0.09010,3.06250,-4.55000,0.00000,-0.00817,0.01086,-0.98783,2023,6,12,16,2,9,884
0.09020,2.83500,-4.72500,0.00000,-0.00964,0.01232,-0.99040,2023,6,12,16,2,9,895
0.09030,2.88750,-4.51500,0.00000,-0.01086,0.01269,-0.98893,2023,6,12,16,2,9,906
0.09040,2.85250,-4.77750,0.00000,-0.01013,0.01183,-0.98710,2023,6,12,16,2,9,917
0.09050,2.85250,-4.48000,0.00000,-0.00927,0.01183,-0.98930,2023,6,12,16,2,9,928
0.09060,2.99250,-4.48000,0.00000,-0.00988,0.01366,-0.98564,2023,6,12,16,2,9,939
0.09070,2.95750,-4.74250,0.00000,-0.00976,0.01330,-0.98674,2023,6,12,16,2,9,950
0.09080,2.90500,-4.62000,0.00000,-0.01049,0.01013,-0.98588,2023,6,12,16,2,9,961
0.09090,2.90500,-4.63750,0.00000,-0.01135,0.01269,-0.99015,2023,6,12,16,2,9,972
0.09100,2.73000,-4.49750,0.00000,-0.00891,0.01318,-0.98649,2023,6,12,16,2,9,984
0.09110,2.87000,-4.79500,0.00000,-0.00964,0.01147,-0.98698,2023,6,12,16,2,10,5
0.09120,3.09750,-4.58500,0.00000,-0.00964,0.01074,-0.98613,2023,6,12,16,2,10,16
0.09130,2.88750,-4.69000,0.00000,-0.01013,0.01037,-0.98759,2023,6,12,16,2,10,27
0.09140,2.88750,-4.53250,0.00000,-0.01135,0.01098,-0.98857,2023,6,12,16,2,10,38
0.09150,2.92250,-4.62000,0.00000,-0.00952,0.01232,-0.98832,2023,6,12,16,2,10,49
0.09160,2.90500,-4.70750,0.00000,-0.00854,0.01037,-0.98588,2023,6,12,16,2,10,60
0.09170,2.87000,-4.69000,0.00000,-0.01135,0.01232,-0.98820,2023,6,12,16,2,10,71
0.09180,2.95750,-4.55000,0.00000,-0.00903,0.01135,-0.98649,2023,6,12,16,2,10,82
0.09190,2.94000,-4.76000,0.00000,-0.01086,0.01000,-0.98832,2023,6,12,16,2,10,94
0.09200,2.83500,-4.44500,0.00000,-0.00964,0.01049,-0.98893,2023,6,12,16,2,10,105
0.09210,2.81750,-4.56750,0.00000,-0.01086,0.01025,-0.98515,2023,6,12,16,2,10,116
0.09220,2.97500,-4.63750,0.00000,-0.01074,0.01122,-0.98698,2023,6,12,16,2,10,127
0.09230,2.92250,-4.51500,0.00000,-0.01110,0.01318,-0.98381,2023,6,12,16,2,10,138
0.09240,3.02750,-4.56750,0.00000,-0.01013,0.01196,-0.98674,2023,6,12,16,2,10,149
0.09250,2.94000,-4.37500,0.00000,-0.00866,0.01220,-0.98954,2023,6,12,16,2,10,160
0.09260,3.11500,-4.65500,0.00000,-0.01196,0.00927,-0.98649,2023,6,12,16,2,10,171
0.09270,2.90500,-4.81250,0.00000,-0.01122,0.01305,-0.98808,2023,6,12,16,2,10,182
0.09280,2.94000,-4.60250,0.00000,-0.01049,0.01208,-0.98930,2023,6,12,16,2,10,194
0.09290,2.92250,-4.51500,0.00000,-0.01025,0.01013,-0.98722,2023,6,12,16,2,10,205
0.09300,2.94000,-4.67250,0.00000,-0.01171,0.01257,-0.98722,2023,6,12,16,2,10,216
0.09310,3.02750,-4.60250,0.00000,-0.00915,0.01183,-0.98637,2023,6,12,16,2,10,227
0.09320,3.08000,-4.42750,0.00000,-0.01074,0.01281,-0.99015,2023,6,12,16,2,10,238
0.09330,2.90500,-4.42750,0.00000,-0.00988,0.01257,-0.98808,2023,6,12,16,2,10,249
0.09340,2.83500,-4.60250,0.00000,-0.01098,0.01122,-0.98539,2023,6,12,16,2,10,260
0.09350,3.04500,-4.49750,0.00000,-0.01171,0.01196,-0.98674,2023,6,12,16,2,10,271
0.09360,2.76500,-4.51500,0.00000,-0.01196,0.01281,-0.98649,2023,6,12,16,2,10,282
0.09370,3.04500,-4.56750,0.00000,-0.01049,0.01269,-0.98698,2023,6,12,16,2,10,294
0.09380,2.71250,-4.53250,0.00000,-0.01037,0.01183,-0.98661,2023,6,12,16,2,10,305
0.09390,2.94000,-4.65500,0.00000,-0.01049,0.01281,-0.98820,2023,6,12,16,2,10,316
0.09400,2.87000,-4.49750,0.00000,-0.00976,0.01025,-0.98674,2023,6,12,16,2,10,327
0.09410,2.99250,-4.55000,0.00000,-0.00927,0.01086,-0.98637,2023,6,12,16,2,10,338
0.09420,2.81750,-4.58500,0.00000,-0.01061,0.01086,-0.98783,2023,6,12,16,2,10,349
0.09430,2.99250,-4.74250,0.00000,-0.01037,0.01196,-0.98771,2023,6,12,16,2,10,360
0.09440,2.83500,-4.70750,0.00000,-0.01208,0.01208,-0.99186,2023,6,12,16,2,10,371
0.09450,3.04500,-4.55000,0.00000,-0.00915,0.01061,-0.98674,2023,6,12,16,2,10,382
0.09460,2.87000,-4.65500,0.00000,-0.00927,0.01257,-0.98686,2023,6,12,16,2,10,394
0.09470,2.95750,-4.46250,0.00000,-0.01049,0.01086,-0.98796,2023,6,12,16,2,10,405
0.09480,2.99250,-4.76000,0.00000,-0.01159,0.01293,-0.98832,2023,6,12,16,2,10,416
0.09490,2.78250,-4.44500,0.00000,-0.00939,0.00964,-0.98613,2023,6,12,16,2,10,427
0.09500,2.90500,-4.51500,0.00000,-0.00976,0.01049,-0.98661,2023,6,12,16,2,10,438
0.09510,3.06250,-4.70750,0.00000,-0.01037,0.00939,-0.99113,2023,6,12,16,2,10,449
0.09520,3.02750,-4.74250,0.00000,-0.01037,0.01110,-0.98905,2023,6,12,16,2,10,460
0.09530,2.99250,-4.76000,0.00000,-0.01098,0.01098,-0.98820,2023,6,12,16,2,10,471
0.09540,3.02750,-4.76000,0.00000,-0.00854,0.01403,-0.98905,2023,6,12,16,2,10,482
0.09550,3.09750,-4.76000,0.00000,-0.01000,0.01232,-0.98625,2023,6,12,16,2,10,494
0.09560,2.97500,-4.63750,0.00000,-0.00891,0.01305,-0.99015,2023,6,12,16,2,10,505
0.09570,2.85250,-4.53250,0.00000,-0.01135,0.01110,-0.98735,2023,6,12,16,2,10,516
0.09580,2.76500,-4.32250,0.00000,-0.01025,0.01244,-0.98454,2023,6,12,16,2,10,527
0.09590,2.76500,-4.70750,0.00000,-0.01013,0.01196,-0.98576,2023,6,12,16,2,10,538
0.09600,2.99250,-4.42750,0.00000,-0.01086,0.01281,-0.98552,2023,6,12,16,2,10,549
0.09610,2.90500,-4.65500,0.00000,-0.00903,0.01159,-0.98771,2023,6,12,16,2,10,560
0.09620,3.01000,-4.56750,0.00000,-0.00830,0.01183,-0.98600,2023,6,12,16,2,10,571
0.09630,2.94000,-4.55000,0.00000,-0.00915,0.01415,-0.98503,2023,6,12,16,2,10,582
0.09640,2.80000,-4.55000,0.00000,-0.00952,0.00903,-0.98466,2023,6,12,16,2,10,594
0.09650,2.90500,-4.39250,0.00000,-0.01098,0.01013,-0.98710,2023,6,12,16,2,10,605
0.09660,2.76500,-4.46250,0.00000,-0.01147,0.01220,-0.98735,2023,6,12,16,2,10,616
0.09670,2.97500,-4.67250,0.00000,-0.00952,0.01293,-0.98698,2023,6,12,16,2,10,627
0.09680,2.94000,-4.74250,0.00000,-0.00830,0.01257,-0.98747,2023,6,12,16,2,10,638
0.09690,3.04500,-4.37500,0.00000,-0.00939,0.01159,-0.98625,2023,6,12,16,2,10,649
0.09700,2.87000,-4.49750,0.00000,-0.01061,0.00964,-0.98759,2023,6,12,16,2,10,660
0.09710,2.85250,-4.62000,0.00000,-0.01049,0.01098,-0.98564,2023,6,12,16,2,10,671
0.09720,3.01000,-4.51500,0.00000,-0.00939,0.01196,-0.98869,2023,6,12,16,2,10,682
0.09730,2.94000,-4.53250,0.00000,-0.01135,0.01147,-0.98722,2023,6,12,16,2,10,694
0.09740,2.95750,-4.41000,0.00000,-0.00915,0.01086,-0.98844,2023,6,12,16,2,10,705
0.09750,2.80000,-4.51500,0.00000,-0.00878,0.01074,-0.98674,2023,6,12,16,2,10,716
0.09760,2.81750,-4.63750,0.00000,-0.01074,0.01244,-0.98710,2023,6,12,16,2,10,727
0.09770,2.94000,-4.56750,0.00000,-0.00866,0.01232,-0.98759,2023,6,12,16,2,10,738
0.09780,2.76500,-4.32250,0.00000,-0.00915,0.01269,-0.98808,2023,6,12,16,2,10,749
0.09790,2.87000,-4.63750,0.00000,-0.00939,0.01293,-0.98759,2023,6,12,16,2,10,760
0.09800,3.04500,-4.67250,0.00000,-0.00939,0.01061,-0.98552,2023,6,12,16,2,10,771
0.09810,2.87000,-4.56750,0.00000,-0.01013,0.01220,-0.98649,2023,6,12,16,2,10,782
0.09820,2.87000,-4.46250,0.00000,-0.01135,0.01135,-0.98539,2023,6,12,16,2,10,794
0.09830,3.04500,-4.42750,0.00000,-0.01110,0.01171,-0.98881,2023,6,12,16,2,10,805
0.09840,2.94000,-4.56750,0.00000,-0.01000,0.01098,-0.98588,2023,6,12,16,2,10,816
0.09850,2.94000,-4.77750,0.00000,-0.01000,0.01379,-0.98600,2023,6,12,16,2,10,827
0.09860,2.95750,-4.76000,0.00000,-0.00964,0.01074,-0.98637,2023,6,12,16,2,10,838
0.09870,2.97500,-4.77750,0.00000,-0.01110,0.00903,-0.98771,2023,6,12,16,2,10,849
0.09880,2.99250,-4.55000,0.00000,-0.00793,0.01183,-0.98747,2023,6,12,16,2,10,860
0.09890,2.95750,-4.53250,0.00000,-0.01135,0.01147,-0.98661,2023,6,12,16,2,10,871
0.09900,2.80000,-4.11250,0.00000,-0.00927,0.01354,-0.98808,2023,6,12,16,2,10,882
0.09910,2.97500,-4.51500,0.00000,-0.01147,0.01061,-0.98771,2023,6,12,16,2,10,894
0.09920,2.97500,-4.44500,0.00000,-0.01025,0.01232,-0.98588,2023,6,12,16,2,10,905
0.09930,2.92250,-4.53250,0.00000,-0.00817,0.00915,-0.98637,2023,6,12,16,2,10,916
0.09940,2.88750,-4.77750,0.00000,-0.00988,0.01074,-0.98991,2023,6,12,16,2,10,927
0.09950,3.02750,-4.60250,0.00000,-0.01110,0.01281,-0.98832,2023,6,12,16,2,10,938
0.09960,3.01000,-4.81250,0.00000,-0.00805,0.01318,-0.98905,2023,6,12,16,2,10,949
0.09970,2.81750,-4.70750,0.00000,-0.01025,0.01098,-0.98466,2023,6,12,16,2,10,960
0.09980,2.95750,-4.55000,0.00000,-0.01305,0.01122,-0.98405,2023,6,12,16,2,11,1
0.09990,2.90500,-4.60250,0.00000,-0.01000,0.01232,-0.98954,2023,6,12,16,2,11,12
0.10000,2.88750,-4.63750,0.00000,-0.01025,0.01208,-0.98576,2023,6,12,16,2,11,24
0.10010,2.97500,-4.67250,0.00000,-0.00964,0.01025,-0.98576,2023,6,12,16,2,11,35
0.10020,2.83500,-4.70750,0.00000,-0.01061,0.01232,-0.98735,2023,6,12,16,2,11,46
0.10030,2.94000,-4.58500,0.00000,-0.01037,0.01171,-0.98881,2023,6,12,16,2,11,57
0.10040,2.74750,-4.51500,0.00000,-0.00866,0.01135,-0.98527,2023,6,12,16,2,11,68
0.10050,2.74750,-4.51500,0.00000,-0.00854,0.01318,-0.98808,2023,6,12,16,2,11,79
0.10060,2.74750,-4.55000,0.00000,-0.00976,0.01208,-0.98539,2023,6,12,16,2,11,90
0.10070,2.88750,-4.55000,0.00000,-0.01135,0.01196,-0.98625,2023,6,12,16,2,11,101
0.10080,2.81750,-4.53250,0.00000,-0.00756,0.01281,-0.98698,2023,6,12,16,2,11,112
0.10090,2.95750,-4.69000,0.00000,-0.00854,0.01257,-0.98552,2023,6,12,16,2,11,124
0.10100,2.81750,-4.69000,0.00000,-0.01086,0.01318,-0.98844,2023,6,12,16,2,11,135
0.10110,2.87000,-4.65500,0.00000,-0.00756,0.01257,-0.98796,2023,6,12,16,2,11,146
0.10120,2.88750,-4.44500,0.00000,-0.01061,0.01330,-0.98808,2023,6,12,16,2,11,157
0.10130,2.92250,-4.60250,0.00000,-0.01159,0.01098,-0.98686,2023,6,12,16,2,11,168
0.10140,2.85250,-4.44500,0.00000,-0.01061,0.01183,-0.98649,2023,6,12,16,2,11,179
0.10150,3.08000,-4.58500,0.00000,-0.01147,0.01098,-0.98735,2023,6,12,16,2,11,190
0.10160,2.87000,-4.49750,0.00000,-0.00793,0.01257,-0.98600,2023,6,12,16,2,11,201
0.10170,2.76500,-4.42750,0.00000,-0.01086,0.01159,-0.98393,2023,6,12,16,2,11,212
0.10180,2.81750,-4.69000,0.00000,-0.00964,0.01049,-0.98808,2023,6,12,16,2,11,224
0.10190,2.90500,-4.69000,0.00000,-0.01049,0.01074,-0.98710,2023,6,12,16,2,11,235
0.10200,2.80000,-4.70750,0.00000,-0.00952,0.01171,-0.98674,2023,6,12,16,2,11,246
0.10210,3.01000,-4.62000,0.00000,-0.01074,0.01135,-0.98844,2023,6,12,16,2,11,257
0.10220,2.99250,-4.63750,0.00000,-0.00939,0.01037,-0.99076,2023,6,12,16,2,11,268
0.10230,2.80000,-4.56750,0.00000,-0.00988,0.01391,-0.98759,2023,6,12,16,2,11,279
0.10240,2.97500,-4.69000,0.00000,-0.01000,0.01110,-0.98759,2023,6,12,16,2,11,290
0.10250,2.87000,-4.83000,0.00000,-0.01110,0.01135,-0.98393,2023,6,12,16,2,11,301
0.10260,3.09750,-4.51500,0.00000,-0.00866,0.01074,-0.98491,2023,6,12,16,2,11,312
0.10270,2.99250,-4.49750,0.00000,-0.01122,0.01159,-0.98844,2023,6,12,16,2,11,324
0.10280,2.80000,-4.53250,0.00000,-0.01000,0.01049,-0.98491,2023,6,12,16,2,11,335
0.10290,2.92250,-4.60250,0.00000,-0.01244,0.01244,-0.98747,2023,6,12,16,2,11,346
0.10300,2.92250,-4.55000,0.00000,-0.00842,0.01110,-0.98893,2023,6,12,16,2,11,357
0.10310,2.71250,-4.69000,0.00000,-0.00976,0.01232,-0.98783,2023,6,12,16,2,11,368
0.10320,2.88750,-4.58500,0.00000,-0.00964,0.01147,-0.98771,2023,6,12,16,2,11,379
0.10330,2.88750,-4.63750,0.00000,-0.00952,0.01305,-0.99052,2023,6,12,16,2,11,390
0.10340,2.76500,-4.49750,0.00000,-0.01135,0.01135,-0.98393,2023,6,12,16,2,11,401
0.10350,2.88750,-4.37500,0.00000,-0.00805,0.01232,-0.98771,2023,6,12,16,2,11,412
0.10360,2.97500,-4.62000,0.00000,-0.01025,0.01013,-0.98722,2023,6,12,16,2,11,424
0.10370,2.94000,-4.53250,0.00000,-0.01135,0.01171,-0.98869,2023,6,12,16,2,11,435
0.10380,2.87000,-4.46250,0.00000,-0.00891,0.01147,-0.98918,2023,6,12,16,2,11,446
0.10390,2.94000,-4.65500,0.00000,-0.01037,0.00866,-0.98991,2023,6,12,16,2,11,457
0.10400,2.99250,-4.49750,0.00000,-0.01086,0.01183,-0.98796,2023,6,12,16,2,11,468
0.10410,2.90500,-4.65500,0.00000,-0.01074,0.01098,-0.98905,2023,6,12,16,2,11,479
0.10420,3.04500,-4.86500,0.00000,-0.00903,0.01098,-0.98820,2023,6,12,16,2,11,490
0.10430,3.01000,-4.60250,0.00000,-0.00976,0.01098,-0.98552,2023,6,12,16,2,11,501
0.10440,2.85250,-4.60250,0.00000,-0.01025,0.01171,-0.99076,2023,6,12,16,2,11,512
0.10450,2.88750,-4.37500,0.00000,-0.00964,0.01208,-0.98783,2023,6,12,16,2,11,524
0.10460,3.04500,-4.49750,0.00000,-0.01025,0.01122,-0.98686,2023,6,12,16,2,11,535
0.10470,2.95750,-4.62000,0.00000,-0.00952,0.01147,-0.98686,2023,6,12,16,2,11,546
0.10480,2.94000,-4.48000,0.00000,-0.01171,0.01000,-0.98893,2023,6,12,16,2,11,557
0.10490,3.08000,-4.81250,0.00000,-0.01049,0.01135,-0.98735,2023,6,12,16,2,11,568
0.10500,2.88750,-4.67250,0.00000,-0.01061,0.01135,-0.98527,2023,6,12,16,2,11,579
0.10510,2.99250,-4.48000,0.00000,-0.01135,0.01305,-0.98722,2023,6,12,16,2,11,590
0.10520,2.95750,-4.72500,0.00000,-0.00952,0.01293,-0.98625,2023,6,12,16,2,11,601
0.10530,3.02750,-4.62000,0.00000,-0.00927,0.01257,-0.98771,2023,6,12,16,2,11,612
0.10540,2.90500,-4.55000,0.00000,-0.00866,0.01135,-0.98539,2023,6,12,16,2,11,624
0.10550,2.69500,-4.60250,0.00000,-0.00891,0.01159,-0.98783,2023,6,12,16,2,11,635
0.10560,2.76500,-4.67250,0.00000,-0.01232,0.01098,-0.98686,2023,6,12,16,2,11,646
0.10570,2.92250,-4.63750,0.00000,-0.01025,0.01171,-0.98564,2023,6,12,16,2,11,657
0.10580,2.76500,-4.55000,0.00000,-0.01086,0.01330,-0.98759,2023,6,12,16,2,11,668
0.10590,3.02750,-4.70750,0.00000,-0.00805,0.01159,-0.98820,2023,6,12,16,2,11,679
0.10600,2.74750,-4.72500,0.00000,-0.00988,0.00964,-0.98918,2023,6,12,16,2,11,690
0.10610,2.80000,-4.41000,0.00000,-0.00891,0.01159,-0.98491,2023,6,12,16,2,11,701
0.10620,2.94000,-4.53250,0.00000,-0.01098,0.01074,-0.98674,2023,6,12,16,2,11,712
0.10630,2.92250,-4.84750,0.00000,-0.01147,0.00988,-0.98735,2023,6,12,16,2,11,724
0.10640,2.92250,-4.44500,0.00000,-0.01086,0.01037,-0.98698,2023,6,12,16,2,11,735
0.10650,2.85250,-4.63750,0.00000,-0.01208,0.01098,-0.98796,2023,6,12,16,2,11,746
0.10660,2.99250,-4.60250,0.00000,-0.01037,0.01122,-0.98625,2023,6,12,16,2,11,757
0.10670,2.81750,-4.41000,0.00000,-0.00927,0.01354,-0.98832,2023,6,12,16,2,11,768
0.10680,3.01000,-4.70750,0.00000,-0.01037,0.00927,-0.98430,2023,6,12,16,2,11,779
0.10690,2.97500,-4.83000,0.00000,-0.00671,0.01147,-0.98905,2023,6,12,16,2,11,790
0.10700,3.01000,-4.55000,0.00000,-0.01025,0.01122,-0.98808,2023,6,12,16,2,11,801
0.10710,2.88750,-4.58500,0.00000,-0.01049,0.01220,-0.98759,2023,6,12,16,2,11,812
0.10720,3.02750,-4.74250,0.00000,-0.01013,0.01049,-0.98869,2023,6,12,16,2,11,824
0.10730,2.87000,-4.67250,0.00000,-0.00805,0.01232,-0.99052,2023,6,12,16,2,11,835
0.10740,2.80000,-4.56750,0.00000,-0.00964,0.01342,-0.98881,2023,6,12,16,2,11,846
0.10750,2.85250,-4.65500,0.00000,-0.01135,0.01232,-0.98844,2023,6,12,16,2,11,857
0.10760,2.78250,-4.44500,0.00000,-0.01000,0.01391,-0.98942,2023,6,12,16,2,11,868
0.10770,2.90500,-4.63750,0.00000,-0.00927,0.01305,-0.98869,2023,6,12,16,2,11,879
0.10780,2.90500,-4.67250,0.00000,-0.01037,0.01147,-0.98722,2023,6,12,16,2,11,890
0.10790,2.97500,-4.65500,0.00000,-0.01183,0.01379,-0.98686,2023,6,12,16,2,11,901
0.10800,2.83500,-4.51500,0.00000,-0.00915,0.00927,-0.98552,2023,6,12,16,2,11,912
0.10810,2.80000,-4.63750,0.00000,-0.00927,0.01147,-0.98783,2023,6,12,16,2,11,924
0.10820,2.85250,-4.72500,0.00000,-0.00927,0.01110,-0.98808,2023,6,12,16,2,11,935
0.10830,2.69500,-4.44500,0.00000,-0.00781,0.01061,-0.98857,2023,6,12,16,2,11,946
0.10840,2.99250,-4.58500,0.00000,-0.01135,0.01159,-0.98747,2023,6,12,16,2,11,957
0.10850,2.81750,-4.65500,0.00000,-0.01086,0.01183,-0.98722,2023,6,12,16,2,11,968
0.10860,2.95750,-4.53250,0.00000,-0.00854,0.01208,-0.98698,2023,6,12,16,2,12,9
0.10870,2.99250,-4.55000,0.00000,-0.01098,0.01049,-0.98905,2023,6,12,16,2,12,20
0.10880,2.99250,-4.70750,0.00000,-0.00939,0.01232,-0.99198,2023,6,12,16,2,12,31
0.10890,2.87000,-4.60250,0.00000,-0.00939,0.01330,-0.98966,2023,6,12,16,2,12,42
0.10900,3.08000,-4.72500,0.00000,-0.01025,0.01025,-0.98649,2023,6,12,16,2,12,54
0.10910,2.99250,-4.62000,0.00000,-0.01196,0.01269,-0.99088,2023,6,12,16,2,12,65
0.10920,2.66000,-4.39250,0.00000,-0.01135,0.01037,-0.98808,2023,6,12,16,2,12,76
0.10930,2.94000,-4.62000,0.00000,-0.01061,0.01061,-0.99052,2023,6,12,16,2,12,87
0.10940,2.94000,-4.70750,0.00000,-0.00915,0.01208,-0.98954,2023,6,12,16,2,12,98
0.10950,2.87000,-4.51500,0.00000,-0.01098,0.01183,-0.98820,2023,6,12,16,2,12,109
0.10960,3.06250,-4.48000,0.00000,-0.01025,0.01244,-0.98893,2023,6,12,16,2,12,120
0.10970,3.02750,-4.67250,0.00000,-0.01244,0.01159,-0.98857,2023,6,12,16,2,12,131
0.10980,2.90500,-4.58500,0.00000,-0.00830,0.01354,-0.98820,2023,6,12,16,2,12,142
0.10990,2.99250,-4.48000,0.00000,-0.01086,0.01086,-0.98808,2023,6,12,16,2,12,154
0.11000,3.13250,-4.84750,0.00000,-0.01013,0.01122,-0.98808,2023,6,12,16,2,12,165
0.11010,2.87000,-4.42750,0.00000,-0.01061,0.01257,-0.98674,2023,6,12,16,2,12,176
0.11020,2.95750,-4.51500,0.00000,-0.00964,0.01147,-0.98637,2023,6,12,16,2,12,187
0.11030,2.94000,-4.58500,0.00000,-0.01013,0.01086,-0.98722,2023,6,12,16,2,12,198
0.11040,2.88750,-4.46250,0.00000,-0.01171,0.00952,-0.98698,2023,6,12,16,2,12,209
0.11050,3.09750,-4.53250,0.00000,-0.01171,0.01257,-0.99015,2023,6,12,16,2,12,220
0.11060,2.76500,-4.60250,0.00000,-0.01208,0.01257,-0.98576,2023,6,12,16,2,12,231
0.11070,2.83500,-4.51500,0.00000,-0.00769,0.01183,-0.98832,2023,6,12,16,2,12,242
0.11080,2.95750,-4.60250,0.00000,-0.00939,0.01415,-0.99052,2023,6,12,16,2,12,254
0.11090,2.99250,-4.58500,0.00000,-0.01061,0.01086,-0.98783,2023,6,12,16,2,12,265
0.11100,2.76500,-4.69000,0.00000,-0.00964,0.01147,-0.98796,2023,6,12,16,2,12,276
0.11110,2.88750,-4.49750,0.00000,-0.01037,0.01098,-0.98905,2023,6,12,16,2,12,287
0.11120,2.87000,-4.67250,0.00000,-0.01000,0.01183,-0.98759,2023,6,12,16,2,12,298
0.11130,2.83500,-4.58500,0.00000,-0.01244,0.01244,-0.98552,2023,6,12,16,2,12,309
0.11140,3.13250,-4.67250,0.00000,-0.01025,0.01183,-0.98942,2023,6,12,16,2,12,320
0.11150,3.02750,-4.51500,0.00000,-0.00927,0.01183,-0.98759,2023,6,12,16,2,12,331
0.11160,3.09750,-4.69000,0.00000,-0.00988,0.01220,-0.98881,2023,6,12,16,2,12,342
0.11170,2.94000,-4.60250,0.00000,-0.01135,0.01049,-0.98966,2023,6,12,16,2,12,354
0.11180,2.81750,-4.63750,0.00000,-0.00988,0.01074,-0.99040,2023,6,12,16,2,12,365
0.11190,3.11500,-4.77750,0.00000,-0.01013,0.01135,-0.98661,2023,6,12,16,2,12,376
0.11200,2.78250,-4.56750,0.00000,-0.01110,0.01110,-0.98991,2023,6,12,16,2,12,387
0.11210,2.83500,-4.70750,0.00000,-0.01049,0.01098,-0.98735,2023,6,12,16,2,12,398
0.11220,3.15000,-4.72500,0.00000,-0.01171,0.01244,-0.98844,2023,6,12,16,2,12,409
0.11230,2.99250,-4.55000,0.00000,-0.01013,0.00976,-0.98783,2023,6,12,16,2,12,420
0.11240,2.95750,-4.83000,0.00000,-0.01000,0.01013,-0.98222,2023,6,12,16,2,12,431
0.11250,2.99250,-4.60250,0.00000,-0.00866,0.01159,-0.98332,2023,6,12,16,2,12,442
0.11260,3.08000,-4.65500,0.00000,-0.00964,0.01086,-0.98844,2023,6,12,16,2,12,454
0.11270,2.99250,-4.51500,0.00000,-0.01025,0.01000,-0.98637,2023,6,12,16,2,12,465
0.11280,2.95750,-4.69000,0.00000,-0.00988,0.01135,-0.99040,2023,6,12,16,2,12,476
0.11290,3.04500,-4.70750,0.00000,-0.01232,0.00939,-0.98893,2023,6,12,16,2,12,487
0.11300,2.95750,-4.72500,0.00000,-0.00988,0.01244,-0.98893,2023,6,12,16,2,12,498
0.11310,3.02750,-4.58500,0.00000,-0.00903,0.01098,-0.98881,2023,6,12,16,2,12,509
0.11320,3.02750,-4.70750,0.00000,-0.00842,0.01366,-0.98918,2023,6,12,16,2,12,520
0.11330,2.81750,-4.53250,0.00000,-0.00952,0.01452,-0.98844,2023,6,12,16,2,12,531
0.11340,2.83500,-4.67250,0.00000,-0.00866,0.01354,-0.98735,2023,6,12,16,2,12,542
0.11350,2.97500,-4.62000,0.00000,-0.01086,0.01183,-0.98893,2023,6,12,16,2,12,554
0.11360,2.87000,-4.51500,0.00000,-0.01098,0.01147,-0.98783,2023,6,12,16,2,12,565
0.11370,2.60750,-4.41000,0.00000,-0.01135,0.01196,-0.98857,2023,6,12,16,2,12,576
0.11380,2.99250,-4.74250,0.00000,-0.00964,0.01452,-0.98881,2023,6,12,16,2,12,587
0.11390,2.90500,-4.53250,0.00000,-0.01122,0.01232,-0.98710,2023,6,12,16,2,12,598
0.11400,3.04500,-4.62000,0.00000,-0.01074,0.01171,-0.98722,2023,6,12,16,2,12,609
0.11410,2.81750,-4.70750,0.00000,-0.00878,0.01183,-0.98942,2023,6,12,16,2,12,620
0.11420,3.06250,-4.32250,0.00000,-0.00988,0.01232,-0.99137,2023,6,12,16,2,12,631
0.11430,2.92250,-4.65500,0.00000,-0.01086,0.01159,-0.98710,2023,6,12,16,2,12,642
0.11440,2.83500,-4.65500,0.00000,-0.01037,0.00952,-0.98966,2023,6,12,16,2,12,654
0.11450,3.01000,-4.69000,0.00000,-0.01147,0.01086,-0.98954,2023,6,12,16,2,12,665
0.11460,2.97500,-4.83000,0.00000,-0.00964,0.01061,-0.98832,2023,6,12,16,2,12,676
0.11470,2.67750,-4.55000,0.00000,-0.00952,0.01281,-0.98564,2023,6,12,16,2,12,687
0.11480,2.99250,-4.72500,0.00000,-0.01074,0.01098,-0.98771,2023,6,12,16,2,12,698
0.11490,2.83500,-4.67250,0.00000,-0.01147,0.01183,-0.98991,2023,6,12,16,2,12,709
0.11500,2.80000,-4.41000,0.00000,-0.00854,0.01159,-0.98808,2023,6,12,16,2,12,720
0.11510,2.94000,-4.67250,0.00000,-0.01086,0.01025,-0.98613,2023,6,12,16,2,12,731
0.11520,3.09750,-4.60250,0.00000,-0.01122,0.00988,-0.98783,2023,6,12,16,2,12,742
0.11530,3.06250,-4.65500,0.00000,-0.01061,0.01074,-0.99308,2023,6,12,16,2,12,754
0.11540,3.01000,-4.79500,0.00000,-0.00976,0.01086,-0.98979,2023,6,12,16,2,12,765
0.11550,2.90500,-4.79500,0.00000,-0.01037,0.01391,-0.98820,2023,6,12,16,2,12,776
0.11560,3.01000,-4.76000,0.00000,-0.00891,0.01074,-0.99064,2023,6,12,16,2,12,787
0.11570,2.92250,-4.60250,0.00000,-0.01049,0.01037,-0.98857,2023,6,12,16,2,12,798
0.11580,3.04500,-4.70750,0.00000,-0.00842,0.01098,-0.98722,2023,6,12,16,2,12,809
0.11590,2.95750,-4.69000,0.00000,-0.01074,0.01208,-0.98991,2023,6,12,16,2,12,820
0.11600,2.80000,-4.72500,0.00000,-0.01061,0.00952,-0.98405,2023,6,12,16,2,12,831
0.11610,2.78250,-4.62000,0.00000,-0.01000,0.01061,-0.98783,2023,6,12,16,2,12,842
0.11620,2.76500,-4.65500,0.00000,-0.01025,0.01208,-0.98796,2023,6,12,16,2,12,854
0.11630,2.95750,-4.65500,0.00000,-0.00964,0.01074,-0.98844,2023,6,12,16,2,12,865
0.11640,3.02750,-4.55000,0.00000,-0.00988,0.01244,-0.98905,2023,6,12,16,2,12,876
0.11650,2.94000,-4.62000,0.00000,-0.00952,0.01318,-0.98820,2023,6,12,16,2,12,887
0.11660,3.09750,-4.65500,0.00000,-0.00878,0.01342,-0.98698,2023,6,12,16,2,12,898
0.11670,3.11500,-4.53250,0.00000,-0.00976,0.01098,-0.98942,2023,6,12,16,2,12,909
0.11680,2.94000,-4.63750,0.00000,-0.01025,0.01086,-0.98674,2023,6,12,16,2,12,920
0.11690,3.02750,-4.74250,0.00000,-0.00939,0.01159,-0.98771,2023,6,12,16,2,12,931
0.11700,2.74750,-4.51500,0.00000,-0.00708,0.01147,-0.98844,2023,6,12,16,2,12,942
0.11710,2.90500,-4.77750,0.00000,-0.00939,0.01232,-0.99125,2023,6,12,16,2,12,954
0.11720,2.87000,-4.55000,0.00000,-0.00976,0.01086,-0.99040,2023,6,12,16,2,12,965
0.11730,2.87000,-4.65500,0.00000,-0.01000,0.01074,-0.98552,2023,6,12,16,2,13,6
0.11740,3.08000,-4.93500,0.00000,-0.01037,0.01232,-0.98783,2023,6,12,16,2,13,17
0.11750,3.13250,-4.58500,0.00000,-0.00830,0.01183,-0.99027,2023,6,12,16,2,13,28
0.11760,3.13250,-4.74250,0.00000,-0.01000,0.01147,-0.99137,2023,6,12,16,2,13,39
0.11770,2.92250,-4.53250,0.00000,-0.00964,0.01110,-0.98735,2023,6,12,16,2,13,50
0.11780,3.02750,-4.55000,0.00000,-0.01196,0.01171,-0.98637,2023,6,12,16,2,13,61
0.11790,2.81750,-4.51500,0.00000,-0.01220,0.01086,-0.98857,2023,6,12,16,2,13,72
0.11800,2.92250,-4.81250,0.00000,-0.00817,0.01013,-0.98930,2023,6,12,16,2,13,84
0.11810,2.88750,-4.63750,0.00000,-0.00976,0.01354,-0.98661,2023,6,12,16,2,13,95
0.11820,3.06250,-4.70750,0.00000,-0.00817,0.01293,-0.98796,2023,6,12,16,2,13,106
0.11830,2.80000,-4.67250,0.00000,-0.01135,0.01025,-0.98710,2023,6,12,16,2,13,117
0.11840,3.02750,-4.74250,0.00000,-0.00720,0.01037,-0.98771,2023,6,12,16,2,13,128
0.11850,3.22000,-4.58500,0.00000,-0.01122,0.00976,-0.98832,2023,6,12,16,2,13,139
0.11860,3.04500,-4.44500,0.00000,-0.01232,0.01366,-0.99015,2023,6,12,16,2,13,150
0.11870,3.11500,-4.63750,0.00000,-0.01171,0.01208,-0.99064,2023,6,12,16,2,13,161
0.11880,2.92250,-4.62000,0.00000,-0.01074,0.01244,-0.98686,2023,6,12,16,2,13,172
0.11890,2.74750,-4.53250,0.00000,-0.01086,0.01171,-0.99052,2023,6,12,16,2,13,184
0.11900,3.04500,-4.84750,0.00000,-0.01159,0.01330,-0.99113,2023,6,12,16,2,13,195
0.11910,2.92250,-4.58500,0.00000,-0.00915,0.01232,-0.99088,2023,6,12,16,2,13,206
0.11920,2.88750,-4.67250,0.00000,-0.00988,0.01135,-0.98686,2023,6,12,16,2,13,217
0.11930,2.87000,-4.81250,0.00000,-0.00842,0.01147,-0.98881,2023,6,12,16,2,13,228
0.11940,2.83500,-4.48000,0.00000,-0.00964,0.01269,-0.98771,2023,6,12,16,2,13,239
0.11950,2.85250,-4.65500,0.00000,-0.00866,0.01171,-0.98869,2023,6,12,16,2,13,250
0.11960,2.74750,-4.41000,0.00000,-0.01013,0.01086,-0.99320,2023,6,12,16,2,13,261
0.11970,2.92250,-4.56750,0.00000,-0.00854,0.01293,-0.98942,2023,6,12,16,2,13,272
0.11980,2.87000,-4.69000,0.00000,-0.01208,0.01305,-0.98625,2023,6,12,16,2,13,284
0.11990,2.99250,-4.62000,0.00000,-0.00891,0.01147,-0.98783,2023,6,12,16,2,13,295
0.12000,2.80000,-4.56750,0.00000,-0.00866,0.01305,-0.98954,2023,6,12,16,2,13,306
0.12010,2.76500,-4.44500,0.00000,-0.01013,0.01025,-0.98966,2023,6,12,16,2,13,317
0.12020,2.97500,-4.48000,0.00000,-0.01025,0.01354,-0.99003,2023,6,12,16,2,13,328
0.12030,2.90500,-4.69000,0.00000,-0.01342,0.01013,-0.98942,2023,6,12,16,2,13,339
0.12040,2.99250,-4.77750,0.00000,-0.00939,0.01122,-0.99003,2023,6,12,16,2,13,350
0.12050,3.04500,-4.56750,0.00000,-0.01122,0.01220,-0.99040,2023,6,12,16,2,13,361
0.12060,3.08000,-4.88250,0.00000,-0.01000,0.01098,-0.98808,2023,6,12,16,2,13,372
0.12070,2.73000,-4.49750,0.00000,-0.01074,0.01122,-0.98674,2023,6,12,16,2,13,384
0.12080,2.76500,-4.37500,0.00000,-0.00866,0.01061,-0.98649,2023,6,12,16,2,13,395
0.12090,2.88750,-4.60250,0.00000,-0.01049,0.01159,-0.98918,2023,6,12,16,2,13,406
0.12100,2.99250,-4.63750,0.00000,-0.00939,0.01208,-0.98808,2023,6,12,16,2,13,417
0.12110,2.97500,-4.77750,0.00000,-0.00976,0.01330,-0.98674,2023,6,12,16,2,13,428
0.12120,2.90500,-4.88250,0.00000,-0.01049,0.01013,-0.99174,2023,6,12,16,2,13,439
0.12130,2.78250,-4.60250,0.00000,-0.01122,0.01257,-0.98820,2023,6,12,16,2,13,450
0.12140,2.81750,-4.65500,0.00000,-0.00891,0.01232,-0.98759,2023,6,12,16,2,13,461
0.12150,3.23750,-4.65500,0.00000,-0.00817,0.00903,-0.99064,2023,6,12,16,2,13,472
0.12160,2.83500,-4.90000,0.00000,-0.00842,0.01159,-0.98820,2023,6,12,16,2,13,484
0.12170,3.02750,-4.83000,0.00000,-0.00964,0.01074,-0.98820,2023,6,12,16,2,13,495
0.12180,2.97500,-4.69000,0.00000,-0.00878,0.01220,-0.98942,2023,6,12,16,2,13,506
0.12190,2.95750,-4.62000,0.00000,-0.01000,0.01147,-0.98686,2023,6,12,16,2,13,517
0.12200,2.78250,-4.41000,0.00000,-0.01074,0.01330,-0.98783,2023,6,12,16,2,13,528
0.12210,2.85250,-4.60250,0.00000,-0.00976,0.01122,-0.98613,2023,6,12,16,2,13,539
0.12220,2.83500,-4.42750,0.00000,-0.01000,0.00988,-0.99040,2023,6,12,16,2,13,550
0.12230,2.73000,-4.70750,0.00000,-0.00854,0.01074,-0.98747,2023,6,12,16,2,13,561
0.12240,2.88750,-4.44500,0.00000,-0.00939,0.01208,-0.98869,2023,6,12,16,2,13,572
0.12250,2.92250,-4.41000,0.00000,-0.01159,0.01476,-0.99040,2023,6,12,16,2,13,584
0.12260,3.04500,-4.49750,0.00000,-0.00878,0.01098,-0.98857,2023,6,12,16,2,13,595
0.12270,2.95750,-4.65500,0.00000,-0.01208,0.00805,-0.98893,2023,6,12,16,2,13,606
0.12280,2.74750,-4.39250,0.00000,-0.00976,0.01135,-0.98857,2023,6,12,16,2,13,617
0.12290,2.85250,-4.69000,0.00000,-0.01061,0.00927,-0.98649,2023,6,12,16,2,13,628
0.12300,3.06250,-4.69000,0.00000,-0.01049,0.01122,-0.98674,2023,6,12,16,2,13,639
0.12310,2.87000,-4.56750,0.00000,-0.01013,0.01501,-0.98905,2023,6,12,16,2,13,650
0.12320,2.78250,-4.53250,0.00000,-0.00842,0.01305,-0.98820,2023,6,12,16,2,13,661
0.12330,2.85250,-4.65500,0.00000,-0.00903,0.01379,-0.98625,2023,6,12,16,2,13,672
0.12340,2.74750,-4.56750,0.00000,-0.01049,0.01269,-0.98954,2023,6,12,16,2,13,684
0.12350,3.02750,-4.70750,0.00000,-0.00927,0.01074,-0.99088,2023,6,12,16,2,13,695
0.12360,3.15000,-4.55000,0.00000,-0.01013,0.01025,-0.98979,2023,6,12,16,2,13,706
0.12370,2.80000,-4.74250,0.00000,-0.00976,0.00830,-0.98820,2023,6,12,16,2,13,717
0.12380,3.01000,-4.69000,0.00000,-0.01098,0.01098,-0.98783,2023,6,12,16,2,13,728
0.12390,3.16750,-4.69000,0.00000,-0.01086,0.00671,-0.99796,2023,6,12,16,2,13,739
0.12400,3.60500,-4.83000,0.00000,-0.01440,0.00427,-0.99454,2023,6,12,16,2,13,750
0.12410,2.76500,-4.44500,0.00000,-0.01049,-0.00195,-0.99820,2023,6,12,16,2,13,761
0.12420,2.71250,-4.39250,0.00000,-0.00842,0.00842,-0.99003,2023,6,12,16,2,13,772
0.12430,3.41250,-4.79500,0.00000,-0.01305,0.00549,-0.99491,2023,6,12,16,2,13,784
0.12440,3.02750,-4.70750,0.00000,-0.01366,0.01025,-0.98759,2023,6,12,16,2,13,795
0.12450,2.78250,-4.63750,0.00000,-0.01049,0.01354,-0.98661,2023,6,12,16,2,13,806
0.12460,2.94000,-4.51500,0.00000,-0.00952,0.01464,-0.98454,2023,6,12,16,2,13,817
0.12470,2.95750,-4.60250,0.00000,-0.00866,0.01171,-0.98588,2023,6,12,16,2,13,828
0.12480,2.87000,-4.63750,0.00000,-0.00744,0.01086,-0.98613,2023,6,12,16,2,13,839
0.12490,2.80000,-4.67250,0.00000,-0.00927,0.01525,-0.98674,2023,6,12,16,2,13,850
#2023/06/12 16:02:13
