#2023/06/12 15:41:17
time,wx,wy,wz,ax,ay,az,yy,MM,dd,hh,mm,ss,ms
0.46370,2.95750,-4.51500,0.00000,-0.01171,0.01208,-0.98820,2023,6,12,15,41,17,722
0.46380,3.29000,-4.67250,0.00000,-0.01061,0.01135,-0.98820,2023,6,12,15,41,17,733
0.46390,2.97500,-4.69000,0.00000,-0.00842,0.00988,-0.98783,2023,6,12,15,41,17,744
0.46400,3.04500,-4.56750,0.00000,-0.01220,0.01086,-0.98698,2023,6,12,15,41,17,755
0.46410,2.95750,-4.56750,0.00000,-0.01000,0.01000,-0.98674,2023,6,12,15,41,17,766
0.46420,3.18500,-4.53250,0.00000,-0.00939,0.01183,-0.98747,2023,6,12,15,41,17,777
0.46430,3.11500,-4.55000,0.00000,-0.01122,0.01171,-0.99137,2023,6,12,15,41,17,788
0.46440,3.06250,-4.67250,0.00000,-0.01086,0.01220,-0.98783,2023,6,12,15,41,17,799
0.46450,3.08000,-4.69000,0.00000,-0.01281,0.01244,-0.98966,2023,6,12,15,41,17,810
0.46460,2.99250,-4.74250,0.00000,-0.01171,0.01220,-0.98966,2023,6,12,15,41,17,821
0.46470,2.97500,-4.65500,0.00000,-0.01074,0.01110,-0.99027,2023,6,12,15,41,17,833
0.46480,3.11500,-4.51500,0.00000,-0.01147,0.00915,-0.99040,2023,6,12,15,41,17,844
0.46490,3.04500,-4.39250,0.00000,-0.01147,0.01147,-0.99113,2023,6,12,15,41,17,855
0.46500,2.95750,-4.55000,0.00000,-0.01159,0.01025,-0.98918,2023,6,12,15,41,17,866
0.46510,2.97500,-4.46250,0.00000,-0.01183,0.01171,-0.99003,2023,6,12,15,41,17,877
0.46520,2.94000,-4.53250,0.00000,-0.01086,0.01135,-0.98686,2023,6,12,15,41,17,888
0.46530,3.06250,-4.67250,0.00000,-0.01110,0.01196,-0.98808,2023,6,12,15,41,17,899
0.46540,2.99250,-4.74250,0.00000,-0.01196,0.00976,-0.98649,2023,6,12,15,41,17,910
0.46550,2.99250,-4.46250,0.00000,-0.01025,0.01025,-0.98759,2023,6,12,15,41,17,921
0.46560,2.87000,-4.48000,0.00000,-0.01147,0.00939,-0.98783,2023,6,12,15,41,17,933
0.46570,3.01000,-4.62000,0.00000,-0.01110,0.01281,-0.98625,2023,6,12,15,41,17,944
0.46580,3.02750,-4.55000,0.00000,-0.01269,0.00903,-0.98637,2023,6,12,15,41,17,955
0.46590,3.02750,-4.37500,0.00000,-0.00805,0.01366,-0.98722,2023,6,12,15,41,17,966
0.46600,3.11500,-4.39250,0.00000,-0.01025,0.01196,-0.98649,2023,6,12,15,41,17,977
0.46610,3.15000,-4.70750,0.00000,-0.01171,0.01049,-0.98783,2023,6,12,15,41,17,988
0.46620,2.87000,-4.60250,0.00000,-0.01061,0.01135,-0.98674,2023,6,12,15,41,17,999
0.46630,3.01000,-4.63750,0.00000,-0.01037,0.01269,-0.99174,2023,6,12,15,41,17,10
0.46640,3.08000,-4.55000,0.00000,-0.01220,0.01000,-0.98857,2023,6,12,15,41,17,21
0.46650,3.02750,-4.41000,0.00000,-0.01135,0.01342,-0.98759,2023,6,12,15,41,17,33
0.46660,3.04500,-4.65500,0.00000,-0.00903,0.01147,-0.98503,2023,6,12,15,41,17,44
0.46670,2.87000,-4.65500,0.00000,-0.01110,0.01269,-0.98930,2023,6,12,15,41,17,55
0.46680,3.02750,-4.56750,0.00000,-0.01013,0.01074,-0.98991,2023,6,12,15,41,17,66
0.46690,2.87000,-4.63750,0.00000,-0.00976,0.01171,-0.98869,2023,6,12,15,41,17,77
0.46700,2.92250,-4.72500,0.00000,-0.00952,0.01049,-0.98844,2023,6,12,15,41,17,88
0.46710,2.94000,-4.53250,0.00000,-0.01135,0.01171,-0.98857,2023,6,12,15,41,17,99
0.46720,2.92250,-4.51500,0.00000,-0.01074,0.01183,-0.98808,2023,6,12,15,41,17,110
0.46730,3.15000,-4.46250,0.00000,-0.01122,0.01086,-0.99003,2023,6,12,15,41,17,121
0.46740,2.83500,-4.70750,0.00000,-0.01037,0.01110,-0.98942,2023,6,12,15,41,17,133
0.46750,3.15000,-4.53250,0.00000,-0.00939,0.01135,-0.98930,2023,6,12,15,41,17,144
0.46760,3.08000,-4.77750,0.00000,-0.01135,0.00952,-0.98869,2023,6,12,15,41,17,155
0.46770,2.94000,-4.49750,0.00000,-0.01110,0.01049,-0.98722,2023,6,12,15,41,17,166
0.46780,3.04500,-4.27000,0.00000,-0.01098,0.01293,-0.98979,2023,6,12,15,41,17,177
0.46790,3.02750,-4.60250,0.00000,-0.01086,0.01220,-0.98710,2023,6,12,15,41,17,188
0.46800,2.97500,-4.79500,0.00000,-0.01074,0.01208,-0.98857,2023,6,12,15,41,17,199
0.46810,3.01000,-4.62000,0.00000,-0.01171,0.00878,-0.98966,2023,6,12,15,41,17,210
0.46820,2.99250,-4.48000,0.00000,-0.01086,0.01208,-0.98881,2023,6,12,15,41,17,221
0.46830,2.97500,-4.70750,0.00000,-0.01074,0.01171,-0.98808,2023,6,12,15,41,17,233
0.46840,2.90500,-4.77750,0.00000,-0.01049,0.01257,-0.98796,2023,6,12,15,41,17,244
0.46850,2.99250,-4.65500,0.00000,-0.00842,0.01342,-0.98747,2023,6,12,15,41,17,255
0.46860,3.01000,-4.58500,0.00000,-0.01122,0.01049,-0.98942,2023,6,12,15,41,17,266
0.46870,2.95750,-4.60250,0.00000,-0.01098,0.01159,-0.98942,2023,6,12,15,41,17,277
0.46880,3.16750,-4.70750,0.00000,-0.01122,0.01159,-0.98796,2023,6,12,15,41,17,288
0.46890,2.99250,-4.63750,0.00000,-0.01098,0.01196,-0.98857,2023,6,12,15,41,17,299
0.46900,2.94000,-4.44500,0.00000,-0.01013,0.01147,-0.98979,2023,6,12,15,41,17,310
0.46910,2.83500,-4.58500,0.00000,-0.01061,0.01074,-0.99003,2023,6,12,15,41,18,1
0.46920,3.06250,-4.53250,0.00000,-0.01220,0.01061,-0.99149,2023,6,12,15,41,18,13
0.46930,2.99250,-4.63750,0.00000,-0.01061,0.01098,-0.98796,2023,6,12,15,41,18,24
0.46940,2.97500,-4.39250,0.00000,-0.01135,0.01074,-0.99320,2023,6,12,15,41,18,35
0.46950,3.09750,-4.79500,0.00000,-0.01415,0.01147,-0.99076,2023,6,12,15,41,18,46
0.46960,3.02750,-4.70750,0.00000,-0.01037,0.01122,-0.98820,2023,6,12,15,41,18,57
0.46970,2.99250,-4.63750,0.00000,-0.01220,0.00927,-0.99040,2023,6,12,15,41,18,68
0.46980,3.02750,-4.67250,0.00000,-0.01135,0.01147,-0.99076,2023,6,12,15,41,18,79
0.46990,2.97500,-4.70750,0.00000,-0.00939,0.01220,-0.98588,2023,6,12,15,41,18,90
0.47000,3.01000,-4.63750,0.00000,-0.01232,0.01403,-0.99210,2023,6,12,15,41,18,101
0.47010,3.04500,-4.58500,0.00000,-0.01244,0.01232,-0.98722,2023,6,12,15,41,18,113
0.47020,3.02750,-4.67250,0.00000,-0.00854,0.00939,-0.98796,2023,6,12,15,41,18,124
0.47030,3.20250,-4.53250,0.00000,-0.00988,0.00988,-0.98844,2023,6,12,15,41,18,135
0.47040,3.08000,-4.53250,0.00000,-0.01293,0.00915,-0.98954,2023,6,12,15,41,18,146
0.47050,3.01000,-4.60250,0.00000,-0.01232,0.01244,-0.98905,2023,6,12,15,41,18,157
0.47060,3.08000,-4.69000,0.00000,-0.01244,0.01135,-0.98808,2023,6,12,15,41,18,168
0.47070,3.20250,-4.72500,0.00000,-0.01171,0.01318,-0.98966,2023,6,12,15,41,18,179
0.47080,2.94000,-4.60250,0.00000,-0.01318,0.01257,-0.98832,2023,6,12,15,41,18,190
0.47090,3.08000,-4.41000,0.00000,-0.01147,0.01013,-0.98966,2023,6,12,15,41,18,201
0.47100,3.06250,-4.65500,0.00000,-0.01110,0.01061,-0.98991,2023,6,12,15,41,18,213
0.47110,2.76500,-4.49750,0.00000,-0.01000,0.01269,-0.98552,2023,6,12,15,41,18,224
0.47120,2.87000,-4.46250,0.00000,-0.01281,0.01110,-0.99418,2023,6,12,15,41,18,235
0.47130,3.01000,-4.70750,0.00000,-0.01159,0.00988,-0.99113,2023,6,12,15,41,18,246
0.47140,3.01000,-4.55000,0.00000,-0.01074,0.01135,-0.98881,2023,6,12,15,41,18,257
0.47150,3.16750,-4.67250,0.00000,-0.01110,0.00805,-0.99040,2023,6,12,15,41,18,268
0.47160,3.06250,-4.58500,0.00000,-0.01000,0.01000,-0.98759,2023,6,12,15,41,18,279
0.47170,3.04500,-4.60250,0.00000,-0.00988,0.01037,-0.98844,2023,6,12,15,41,18,290
0.47180,2.99250,-4.58500,0.00000,-0.01183,0.01330,-0.99052,2023,6,12,15,41,18,301
0.47190,3.09750,-4.77750,0.00000,-0.01049,0.01061,-0.98783,2023,6,12,15,41,18,313
0.47200,3.08000,-4.56750,0.00000,-0.01232,0.01049,-0.99015,2023,6,12,15,41,18,324
0.47210,3.01000,-4.62000,0.00000,-0.01098,0.00927,-0.98918,2023,6,12,15,41,18,335
0.47220,3.06250,-4.63750,0.00000,-0.00927,0.01000,-0.98820,2023,6,12,15,41,18,346
0.47230,2.99250,-4.58500,0.00000,-0.01293,0.01257,-0.98808,2023,6,12,15,41,18,357
0.47240,2.99250,-4.48000,0.00000,-0.01257,0.00903,-0.99064,2023,6,12,15,41,18,368
0.47250,3.08000,-4.55000,0.00000,-0.01354,0.01147,-0.98698,2023,6,12,15,41,18,379
0.47260,2.90500,-4.48000,0.00000,-0.00976,0.01074,-0.98783,2023,6,12,15,41,18,390
0.47270,3.04500,-4.58500,0.00000,-0.00964,0.01122,-0.98942,2023,6,12,15,41,18,401
0.47280,2.95750,-4.62000,0.00000,-0.01135,0.01061,-0.98905,2023,6,12,15,41,18,413
0.47290,2.97500,-4.51500,0.00000,-0.01171,0.00927,-0.98759,2023,6,12,15,41,18,424
0.47300,3.13250,-4.44500,0.00000,-0.01183,0.01049,-0.98600,2023,6,12,15,41,18,435
0.47310,3.13250,-4.70750,0.00000,-0.01061,0.01318,-0.99076,2023,6,12,15,41,18,446
0.47320,2.94000,-4.51500,0.00000,-0.01281,0.01159,-0.98454,2023,6,12,15,41,18,457
0.47330,2.97500,-4.60250,0.00000,-0.01220,0.01220,-0.98832,2023,6,12,15,41,18,468
0.47340,2.95750,-4.46250,0.00000,-0.01098,0.01281,-0.98686,2023,6,12,15,41,18,479
0.47350,3.01000,-4.44500,0.00000,-0.01049,0.01135,-0.99040,2023,6,12,15,41,18,490
0.47360,2.94000,-4.55000,0.00000,-0.01049,0.00976,-0.98796,2023,6,12,15,41,18,501
0.47370,3.04500,-4.60250,0.00000,-0.01098,0.01049,-0.98747,2023,6,12,15,41,18,513
0.47380,2.90500,-4.60250,0.00000,-0.01061,0.00866,-0.99027,2023,6,12,15,41,18,524
0.47390,2.94000,-4.46250,0.00000,-0.01122,0.01391,-0.98844,2023,6,12,15,41,18,535
0.47400,3.04500,-4.74250,0.00000,-0.00988,0.01159,-0.98478,2023,6,12,15,41,18,546
0.47410,3.15000,-4.63750,0.00000,-0.01110,0.00878,-0.98710,2023,6,12,15,41,18,557
0.47420,3.09750,-4.58500,0.00000,-0.01171,0.00903,-0.98722,2023,6,12,15,41,18,568
0.47430,3.06250,-4.56750,0.00000,-0.01208,0.01366,-0.98942,2023,6,12,15,41,18,579
0.47440,3.01000,-4.60250,0.00000,-0.01196,0.01110,-0.98832,2023,6,12,15,41,18,590
0.47450,3.09750,-4.56750,0.00000,-0.01257,0.01086,-0.98881,2023,6,12,15,41,18,601
0.47460,3.15000,-4.56750,0.00000,-0.01135,0.00720,-0.98710,2023,6,12,15,41,18,613
0.47470,2.94000,-4.41000,0.00000,-0.01220,0.01013,-0.98698,2023,6,12,15,41,18,624
0.47480,2.88750,-4.60250,0.00000,-0.01098,0.01074,-0.99088,2023,6,12,15,41,18,635
0.47490,2.95750,-4.44500,0.00000,-0.01183,0.01147,-0.98796,2023,6,12,15,41,18,646
0.47500,2.99250,-4.44500,0.00000,-0.01281,0.01281,-0.98942,2023,6,12,15,41,18,657
0.47510,2.95750,-4.48000,0.00000,-0.00988,0.01318,-0.99003,2023,6,12,15,41,18,668
0.47520,2.85250,-4.34000,0.00000,-0.01135,0.01147,-0.98857,2023,6,12,15,41,18,679
0.47530,3.04500,-4.60250,0.00000,-0.01122,0.00915,-0.98857,2023,6,12,15,41,18,690
0.47540,3.01000,-4.53250,0.00000,-0.01244,0.01110,-0.98759,2023,6,12,15,41,18,701
0.47550,3.09750,-4.58500,0.00000,-0.01122,0.01171,-0.98832,2023,6,12,15,41,18,713
0.47560,3.11500,-4.74250,0.00000,-0.01403,0.01403,-0.98942,2023,6,12,15,41,18,724
0.47570,3.08000,-4.65500,0.00000,-0.01122,0.01196,-0.98942,2023,6,12,15,41,18,735
0.47580,3.04500,-4.60250,0.00000,-0.01244,0.01074,-0.98820,2023,6,12,15,41,18,746
0.47590,3.01000,-4.55000,0.00000,-0.01183,0.01196,-0.98771,2023,6,12,15,41,18,757
0.47600,2.85250,-4.46250,0.00000,-0.01208,0.01049,-0.99015,2023,6,12,15,41,18,768
0.47610,3.13250,-4.79500,0.00000,-0.01257,0.01147,-0.98649,2023,6,12,15,41,18,779
0.47620,3.08000,-4.65500,0.00000,-0.01013,0.01098,-0.98698,2023,6,12,15,41,18,790
0.47630,2.97500,-4.70750,0.00000,-0.01220,0.01049,-0.98698,2023,6,12,15,41,18,801
0.47640,3.08000,-4.48000,0.00000,-0.01257,0.01269,-0.98710,2023,6,12,15,41,18,813
0.47650,3.04500,-4.44500,0.00000,-0.00939,0.01281,-0.98832,2023,6,12,15,41,18,824
0.47660,2.94000,-4.53250,0.00000,-0.01037,0.00988,-0.98808,2023,6,12,15,41,18,835
0.47670,2.87000,-4.46250,0.00000,-0.01049,0.01037,-0.98649,2023,6,12,15,41,18,846
0.47680,2.95750,-4.53250,0.00000,-0.01037,0.01208,-0.99064,2023,6,12,15,41,18,857
0.47690,3.20250,-4.69000,0.00000,-0.01257,0.01293,-0.98991,2023,6,12,15,41,18,868
0.47700,3.11500,-4.56750,0.00000,-0.01135,0.01318,-0.98527,2023,6,12,15,41,18,879
0.47710,2.99250,-4.35750,0.00000,-0.01086,0.01269,-0.98893,2023,6,12,15,41,18,890
0.47720,2.94000,-4.69000,0.00000,-0.01074,0.01013,-0.98820,2023,6,12,15,41,18,901
0.47730,3.06250,-4.70750,0.00000,-0.01025,0.00964,-0.98771,2023,6,12,15,41,18,913
0.47740,3.09750,-4.41000,0.00000,-0.01159,0.01183,-0.98783,2023,6,12,15,41,18,924
0.47750,3.04500,-4.60250,0.00000,-0.01049,0.01049,-0.98979,2023,6,12,15,41,18,935
0.47760,2.92250,-4.58500,0.00000,-0.01037,0.01159,-0.98759,2023,6,12,15,41,18,946
0.47770,2.92250,-4.51500,0.00000,-0.01049,0.00866,-0.98674,2023,6,12,15,41,18,957
0.47780,3.06250,-4.70750,0.00000,-0.01220,0.01061,-0.98869,2023,6,12,15,41,19,8
0.47790,3.11500,-4.69000,0.00000,-0.01159,0.01330,-0.99040,2023,6,12,15,41,19,19
0.47800,2.87000,-4.46250,0.00000,-0.01025,0.01000,-0.98637,2023,6,12,15,41,19,30
0.47810,3.08000,-4.62000,0.00000,-0.01110,0.01159,-0.98527,2023,6,12,15,41,19,41
0.47820,2.88750,-4.77750,0.00000,-0.01013,0.01159,-0.98527,2023,6,12,15,41,19,53
0.47830,3.13250,-4.56750,0.00000,-0.01000,0.01281,-0.99088,2023,6,12,15,41,19,64
0.47840,3.06250,-4.44500,0.00000,-0.01086,0.01208,-0.98698,2023,6,12,15,41,19,75
0.47850,2.90500,-4.49750,0.00000,-0.01281,0.01037,-0.98661,2023,6,12,15,41,19,86
0.47860,2.99250,-4.49750,0.00000,-0.00964,0.01281,-0.98844,2023,6,12,15,41,19,97
0.47870,2.94000,-4.63750,0.00000,-0.01074,0.00976,-0.98698,2023,6,12,15,41,19,108
0.47880,2.95750,-4.46250,0.00000,-0.01183,0.00952,-0.98979,2023,6,12,15,41,19,119
0.47890,2.90500,-4.37500,0.00000,-0.01074,0.00903,-0.98735,2023,6,12,15,41,19,130
0.47900,3.01000,-4.60250,0.00000,-0.01196,0.01281,-0.98979,2023,6,12,15,41,19,141
0.47910,2.97500,-4.84750,0.00000,-0.00854,0.01318,-0.98942,2023,6,12,15,41,19,153
0.47920,2.99250,-4.49750,0.00000,-0.01171,0.00976,-0.98771,2023,6,12,15,41,19,164
0.47930,3.02750,-4.58500,0.00000,-0.01000,0.01293,-0.99040,2023,6,12,15,41,19,175
0.47940,2.94000,-4.76000,0.00000,-0.01110,0.01159,-0.98698,2023,6,12,15,41,19,186
0.47950,2.92250,-4.41000,0.00000,-0.01147,0.01061,-0.99113,2023,6,12,15,41,19,197
0.47960,2.97500,-4.48000,0.00000,-0.01183,0.01196,-0.98905,2023,6,12,15,41,19,208
0.47970,3.04500,-4.44500,0.00000,-0.01183,0.01135,-0.98613,2023,6,12,15,41,19,219
0.47980,2.95750,-4.79500,0.00000,-0.01074,0.01220,-0.99003,2023,6,12,15,41,19,230
0.47990,3.01000,-4.42750,0.00000,-0.01110,0.00964,-0.98710,2023,6,12,15,41,19,241
0.48000,2.90500,-4.63750,0.00000,-0.01122,0.01037,-0.98893,2023,6,12,15,41,19,253
0.48010,2.94000,-4.30500,0.00000,-0.01086,0.00915,-0.98552,2023,6,12,15,41,19,264
0.48020,3.01000,-4.53250,0.00000,-0.01098,0.01171,-0.99015,2023,6,12,15,41,19,275
0.48030,2.94000,-4.35750,0.00000,-0.01171,0.01318,-0.98857,2023,6,12,15,41,19,286
0.48040,3.06250,-4.79500,0.00000,-0.00903,0.01257,-0.98832,2023,6,12,15,41,19,297
0.48050,3.09750,-4.48000,0.00000,-0.01183,0.00988,-0.98893,2023,6,12,15,41,19,308
0.48060,3.02750,-4.55000,0.00000,-0.01049,0.01013,-0.98747,2023,6,12,15,41,19,319
0.48070,3.06250,-4.46250,0.00000,-0.01159,0.01013,-0.99064,2023,6,12,15,41,19,330
0.48080,2.95750,-4.62000,0.00000,-0.01122,0.01037,-0.98869,2023,6,12,15,41,19,341
0.48090,3.13250,-4.53250,0.00000,-0.01013,0.01196,-0.99003,2023,6,12,15,41,19,353
0.48100,3.02750,-4.44500,0.00000,-0.00781,0.01159,-0.98881,2023,6,12,15,41,19,364
0.48110,2.97500,-4.27000,0.00000,-0.01403,0.01159,-0.98722,2023,6,12,15,41,19,375
0.48120,2.94000,-4.42750,0.00000,-0.00964,0.00976,-0.98979,2023,6,12,15,41,19,386
0.48130,2.85250,-4.21750,0.00000,-0.01110,0.00927,-0.98881,2023,6,12,15,41,19,397
0.48140,2.92250,-4.41000,0.00000,-0.01269,0.01159,-0.98564,2023,6,12,15,41,19,408
0.48150,2.95750,-4.51500,0.00000,-0.01110,0.01074,-0.98771,2023,6,12,15,41,19,419
0.48160,3.18500,-4.56750,0.00000,-0.01208,0.01086,-0.98771,2023,6,12,15,41,19,430
0.48170,2.99250,-4.55000,0.00000,-0.00976,0.01208,-0.98747,2023,6,12,15,41,19,441
0.48180,2.90500,-4.46250,0.00000,-0.01061,0.01257,-0.98722,2023,6,12,15,41,19,453
0.48190,3.06250,-4.70750,0.00000,-0.01013,0.00964,-0.98722,2023,6,12,15,41,19,464
0.48200,3.04500,-4.58500,0.00000,-0.00939,0.01110,-0.99027,2023,6,12,15,41,19,475
0.48210,3.16750,-4.56750,0.00000,-0.01110,0.01147,-0.98844,2023,6,12,15,41,19,486
0.48220,3.08000,-4.63750,0.00000,-0.00915,0.01159,-0.98783,2023,6,12,15,41,19,497
0.48230,3.06250,-4.58500,0.00000,-0.01110,0.01061,-0.98991,2023,6,12,15,41,19,508
0.48240,2.94000,-4.60250,0.00000,-0.01135,0.01183,-0.98857,2023,6,12,15,41,19,519
0.48250,3.01000,-4.69000,0.00000,-0.00903,0.01159,-0.98905,2023,6,12,15,41,19,530
0.48260,3.06250,-4.34000,0.00000,-0.01013,0.01427,-0.98857,2023,6,12,15,41,19,541
0.48270,2.80000,-4.44500,0.00000,-0.01281,0.01330,-0.98820,2023,6,12,15,41,19,553
0.48280,3.04500,-4.60250,0.00000,-0.01086,0.01330,-0.99015,2023,6,12,15,41,19,564
0.48290,3.18500,-4.55000,0.00000,-0.00964,0.01147,-0.98698,2023,6,12,15,41,19,575
0.48300,2.95750,-4.77750,0.00000,-0.01147,0.01025,-0.99027,2023,6,12,15,41,19,586
0.48310,3.02750,-4.42750,0.00000,-0.01074,0.01269,-0.98905,2023,6,12,15,41,19,597
0.48320,2.95750,-4.81250,0.00000,-0.01122,0.01171,-0.98930,2023,6,12,15,41,19,608
0.48330,2.90500,-4.58500,0.00000,-0.01000,0.01208,-0.98857,2023,6,12,15,41,19,619
0.48340,3.06250,-4.49750,0.00000,-0.01000,0.00964,-0.98735,2023,6,12,15,41,19,630
0.48350,3.02750,-4.65500,0.00000,-0.01110,0.01013,-0.98796,2023,6,12,15,41,19,641
0.48360,2.92250,-4.56750,0.00000,-0.01061,0.01037,-0.98832,2023,6,12,15,41,19,653
0.48370,3.16750,-4.70750,0.00000,-0.01159,0.00842,-0.98893,2023,6,12,15,41,19,664
0.48380,3.11500,-4.62000,0.00000,-0.01257,0.01110,-0.98832,2023,6,12,15,41,19,675
0.48390,3.18500,-4.62000,0.00000,-0.01074,0.01159,-0.98637,2023,6,12,15,41,19,686
0.48400,3.01000,-4.62000,0.00000,-0.01037,0.01196,-0.99076,2023,6,12,15,41,19,697
0.48410,3.01000,-4.49750,0.00000,-0.01147,0.01269,-0.99186,2023,6,12,15,41,19,708
0.48420,3.02750,-4.56750,0.00000,-0.01183,0.01208,-0.98918,2023,6,12,15,41,19,719
0.48430,3.08000,-4.62000,0.00000,-0.00952,0.00927,-0.98954,2023,6,12,15,41,19,730
0.48440,2.97500,-4.74250,0.00000,-0.01220,0.00903,-0.98759,2023,6,12,15,41,19,741
0.48450,3.11500,-4.62000,0.00000,-0.01147,0.01061,-0.98478,2023,6,12,15,41,19,753
0.48460,3.02750,-4.55000,0.00000,-0.01232,0.01257,-0.98966,2023,6,12,15,41,19,764
0.48470,3.13250,-4.53250,0.00000,-0.01061,0.01074,-0.98942,2023,6,12,15,41,19,775
0.48480,2.97500,-4.58500,0.00000,-0.00988,0.00927,-0.99113,2023,6,12,15,41,19,786
0.48490,2.83500,-4.30500,0.00000,-0.01391,0.00683,-0.98881,2023,6,12,15,41,19,797
0.48500,3.11500,-4.84750,0.00000,-0.01330,0.00976,-0.98820,2023,6,12,15,41,19,808
0.48510,3.11500,-4.58500,0.00000,-0.01366,0.01342,-0.98930,2023,6,12,15,41,19,819
0.48520,3.32500,-4.53250,0.00000,-0.01110,0.01208,-0.98820,2023,6,12,15,41,19,830
0.48530,3.09750,-4.67250,0.00000,-0.01049,0.00842,-0.98832,2023,6,12,15,41,19,841
0.48540,3.15000,-4.67250,0.00000,-0.01110,0.01122,-0.98820,2023,6,12,15,41,19,853
0.48550,3.08000,-4.74250,0.00000,-0.01415,0.01220,-0.98930,2023,6,12,15,41,19,864
0.48560,3.20250,-4.69000,0.00000,-0.01122,0.01257,-0.99076,2023,6,12,15,41,19,875
0.48570,3.09750,-4.62000,0.00000,-0.01159,0.00781,-0.99162,2023,6,12,15,41,19,886
0.48580,2.80000,-4.56750,0.00000,-0.01025,0.01098,-0.98796,2023,6,12,15,41,19,897
0.48590,3.04500,-4.51500,0.00000,-0.01305,0.01074,-1.00089,2023,6,12,15,41,19,908
0.48600,2.99250,-4.44500,0.00000,-0.01135,0.01122,-0.99052,2023,6,12,15,41,19,919
0.48610,3.13250,-4.60250,0.00000,-0.01061,0.01122,-0.98308,2023,6,12,15,41,19,930
0.48620,3.06250,-4.60250,0.00000,-0.01074,0.01208,-0.97966,2023,6,12,15,41,19,941
0.48630,2.87000,-4.49750,0.00000,-0.01061,0.01330,-0.98820,2023,6,12,15,41,19,953
0.48640,2.97500,-4.48000,0.00000,-0.01122,0.01183,-0.98344,2023,6,12,15,41,19,964
0.48650,3.01000,-4.67250,0.00000,-0.00976,0.01061,-0.98661,2023,6,12,15,41,20,5
0.48660,3.01000,-4.76000,0.00000,-0.01196,0.01159,-0.98808,2023,6,12,15,41,20,16
0.48670,3.09750,-4.53250,0.00000,-0.01244,0.01269,-0.98637,2023,6,12,15,41,20,27
0.48680,3.13250,-4.56750,0.00000,-0.01074,0.01159,-0.98979,2023,6,12,15,41,20,38
0.48690,2.94000,-4.55000,0.00000,-0.01049,0.01269,-0.98991,2023,6,12,15,41,20,49
0.48700,2.94000,-4.46250,0.00000,-0.00817,0.00976,-0.99040,2023,6,12,15,41,20,60
0.48710,2.99250,-4.63750,0.00000,-0.00903,0.01208,-0.98393,2023,6,12,15,41,20,71
0.48720,2.90500,-4.49750,0.00000,-0.01183,0.01354,-0.99052,2023,6,12,15,41,20,83
0.48730,2.88750,-4.72500,0.00000,-0.01061,0.00927,-0.98796,2023,6,12,15,41,20,94
0.48740,2.99250,-4.53250,0.00000,-0.01049,0.01135,-0.98625,2023,6,12,15,41,20,105
0.48750,3.16750,-4.39250,0.00000,-0.00988,0.01135,-0.99027,2023,6,12,15,41,20,116
0.48760,2.95750,-4.69000,0.00000,-0.00891,0.01305,-0.99113,2023,6,12,15,41,20,127
0.48770,3.02750,-4.72500,0.00000,-0.01135,0.01391,-0.98625,2023,6,12,15,41,20,138
0.48780,2.92250,-4.55000,0.00000,-0.00976,0.01196,-0.98552,2023,6,12,15,41,20,149
0.48790,3.20250,-4.67250,0.00000,-0.01208,0.01257,-0.98478,2023,6,12,15,41,20,160
0.48800,2.88750,-4.51500,0.00000,-0.01183,0.00866,-0.98820,2023,6,12,15,41,20,171
0.48810,2.95750,-4.39250,0.00000,-0.01086,0.01013,-0.98783,2023,6,12,15,41,20,183
0.48820,2.94000,-4.67250,0.00000,-0.01074,0.01049,-0.99015,2023,6,12,15,41,20,194
0.48830,3.08000,-4.51500,0.00000,-0.00927,0.01391,-0.98369,2023,6,12,15,41,20,205
0.48840,3.15000,-4.44500,0.00000,-0.01086,0.01318,-0.98735,2023,6,12,15,41,20,216
0.48850,3.11500,-4.56750,0.00000,-0.01061,0.01135,-0.98881,2023,6,12,15,41,20,227
0.48860,2.88750,-4.41000,0.00000,-0.01196,0.01244,-0.99040,2023,6,12,15,41,20,238
0.48870,3.11500,-4.86500,0.00000,-0.01110,0.01232,-0.98759,2023,6,12,15,41,20,249
0.48880,3.06250,-4.77750,0.00000,-0.01110,0.01135,-0.98954,2023,6,12,15,41,20,260
0.48890,3.02750,-4.44500,0.00000,-0.01391,0.01098,-0.99064,2023,6,12,15,41,20,271
0.48900,3.02750,-4.70750,0.00000,-0.01244,0.01122,-0.98783,2023,6,12,15,41,20,283
0.48910,3.08000,-4.76000,0.00000,-0.01196,0.01135,-0.99174,2023,6,12,15,41,20,294
0.48920,3.11500,-4.63750,0.00000,-0.01086,0.01135,-0.98722,2023,6,12,15,41,20,305
0.48930,3.22000,-4.70750,0.00000,-0.00842,0.01147,-0.98796,2023,6,12,15,41,20,316
0.48940,3.22000,-4.72500,0.00000,-0.01135,0.01037,-0.98515,2023,6,12,15,41,20,327
0.48950,3.04500,-4.51500,0.00000,-0.01135,0.01061,-0.98783,2023,6,12,15,41,20,338
0.48960,3.04500,-4.67250,0.00000,-0.01061,0.01171,-0.98735,2023,6,12,15,41,20,349
0.48970,3.08000,-4.63750,0.00000,-0.01086,0.01086,-0.99052,2023,6,12,15,41,20,360
0.48980,3.16750,-4.77750,0.00000,-0.01000,0.01159,-0.98710,2023,6,12,15,41,20,371
0.48990,3.04500,-4.65500,0.00000,-0.01037,0.01110,-0.98698,2023,6,12,15,41,20,383
0.49000,2.92250,-4.62000,0.00000,-0.00891,0.01354,-0.98649,2023,6,12,15,41,20,394
0.49010,2.95750,-4.72500,0.00000,-0.01220,0.01110,-0.98710,2023,6,12,15,41,20,405
0.49020,2.99250,-4.37500,0.00000,-0.01013,0.01061,-0.98759,2023,6,12,15,41,20,416
0.49030,2.92250,-4.42750,0.00000,-0.01000,0.00964,-0.98747,2023,6,12,15,41,20,427
0.49040,3.01000,-4.51500,0.00000,-0.00842,0.01318,-0.98588,2023,6,12,15,41,20,438
0.49050,3.11500,-4.53250,0.00000,-0.01171,0.01257,-0.98820,2023,6,12,15,41,20,449
0.49060,3.01000,-4.41000,0.00000,-0.01110,0.01025,-0.98649,2023,6,12,15,41,20,460
0.49070,2.97500,-4.49750,0.00000,-0.01122,0.00952,-0.98808,2023,6,12,15,41,20,471
0.49080,3.09750,-4.53250,0.00000,-0.00964,0.01086,-0.98686,2023,6,12,15,41,20,483
0.49090,3.06250,-4.55000,0.00000,-0.01049,0.01122,-0.98759,2023,6,12,15,41,20,494
0.49100,3.13250,-4.74250,0.00000,-0.00891,0.01159,-0.98698,2023,6,12,15,41,20,505
0.49110,2.78250,-4.70750,0.00000,-0.01147,0.01061,-0.98918,2023,6,12,15,41,20,516
0.49120,3.02750,-4.58500,0.00000,-0.01232,0.01098,-0.98771,2023,6,12,15,41,20,527
0.49130,2.95750,-4.51500,0.00000,-0.01183,0.01183,-0.98576,2023,6,12,15,41,20,538
0.49140,2.88750,-4.48000,0.00000,-0.01098,0.00952,-0.98661,2023,6,12,15,41,20,549
0.49150,3.01000,-4.55000,0.00000,-0.01098,0.00939,-0.98576,2023,6,12,15,41,20,560
0.49160,3.01000,-4.72500,0.00000,-0.01220,0.01159,-0.98674,2023,6,12,15,41,20,571
0.49170,3.02750,-4.58500,0.00000,-0.01257,0.01025,-0.98686,2023,6,12,15,41,20,583
0.49180,2.95750,-4.60250,0.00000,-0.01013,0.01183,-0.98808,2023,6,12,15,41,20,594
0.49190,2.88750,-4.49750,0.00000,-0.01098,0.01074,-0.98600,2023,6,12,15,41,20,605
0.49200,2.81750,-4.56750,0.00000,-0.01281,0.00976,-0.98991,2023,6,12,15,41,20,616
0.49210,3.08000,-4.67250,0.00000,-0.01196,0.01122,-0.98771,2023,6,12,15,41,20,627
0.49220,3.01000,-4.55000,0.00000,-0.01122,0.01342,-0.99210,2023,6,12,15,41,20,638
0.49230,3.02750,-4.56750,0.00000,-0.01061,0.01110,-0.99015,2023,6,12,15,41,20,649
0.49240,3.18500,-4.48000,0.00000,-0.01147,0.01147,-0.98478,2023,6,12,15,41,20,660
0.49250,2.94000,-4.56750,0.00000,-0.01220,0.01159,-0.98820,2023,6,12,15,41,20,671
0.49260,3.04500,-4.69000,0.00000,-0.01147,0.01257,-0.98832,2023,6,12,15,41,20,683
0.49270,3.01000,-4.51500,0.00000,-0.00976,0.01074,-0.98771,2023,6,12,15,41,20,694
0.49280,2.80000,-4.53250,0.00000,-0.01269,0.00976,-0.98686,2023,6,12,15,41,20,705
0.49290,2.94000,-4.27000,0.00000,-0.01220,0.01171,-0.98796,2023,6,12,15,41,20,716
0.49300,2.87000,-4.72500,0.00000,-0.01196,0.01098,-0.98771,2023,6,12,15,41,20,727
0.49310,3.16750,-4.58500,0.00000,-0.01061,0.01147,-0.98796,2023,6,12,15,41,20,738
0.49320,3.08000,-4.55000,0.00000,-0.01074,0.01098,-0.99186,2023,6,12,15,41,20,749
0.49330,3.06250,-4.56750,0.00000,-0.01037,0.01147,-0.98637,2023,6,12,15,41,20,760
0.49340,3.02750,-4.41000,0.00000,-0.00891,0.01135,-0.98649,2023,6,12,15,41,20,771
0.49350,2.95750,-4.65500,0.00000,-0.00976,0.01159,-0.98796,2023,6,12,15,41,20,783
0.49360,2.92250,-4.28750,0.00000,-0.01110,0.01281,-0.98832,2023,6,12,15,41,20,794
0.49370,2.95750,-4.77750,0.00000,-0.01135,0.01269,-0.99040,2023,6,12,15,41,20,805
0.49380,3.01000,-4.63750,0.00000,-0.01196,0.01159,-0.98844,2023,6,12,15,41,20,816
0.49390,3.02750,-4.53250,0.00000,-0.01098,0.01183,-0.98661,2023,6,12,15,41,20,827
0.49400,3.04500,-4.49750,0.00000,-0.00976,0.01171,-0.98515,2023,6,12,15,41,20,838
0.49410,2.85250,-4.56750,0.00000,-0.01037,0.01061,-0.98661,2023,6,12,15,41,20,849
0.49420,3.02750,-4.62000,0.00000,-0.01208,0.01135,-0.98893,2023,6,12,15,41,20,860
0.49430,3.04500,-4.55000,0.00000,-0.00964,0.01037,-0.98613,2023,6,12,15,41,20,871
0.49440,2.99250,-4.39250,0.00000,-0.01269,0.00842,-0.99015,2023,6,12,15,41,20,883
0.49450,3.08000,-4.60250,0.00000,-0.01135,0.01013,-0.98844,2023,6,12,15,41,20,894
0.49460,3.20250,-4.62000,0.00000,-0.00927,0.01013,-0.98588,2023,6,12,15,41,20,905
0.49470,2.94000,-4.70750,0.00000,-0.00964,0.01196,-0.98808,2023,6,12,15,41,20,916
0.49480,3.06250,-4.56750,0.00000,-0.01208,0.01135,-0.98857,2023,6,12,15,41,20,927
0.49490,2.99250,-4.42750,0.00000,-0.00915,0.01293,-0.98600,2023,6,12,15,41,20,938
0.49500,2.88750,-4.58500,0.00000,-0.01147,0.01147,-0.98954,2023,6,12,15,41,20,949
0.49510,3.09750,-4.77750,0.00000,-0.01049,0.01366,-0.98576,2023,6,12,15,41,20,960
0.49520,3.15000,-4.67250,0.00000,-0.01147,0.01183,-0.98796,2023,6,12,15,41,20,971
0.49530,2.92250,-4.49750,0.00000,-0.01147,0.01244,-0.98747,2023,6,12,15,41,21,3
0.49540,2.94000,-4.41000,0.00000,-0.01013,0.01440,-0.98661,2023,6,12,15,41,21,14
0.49550,2.87000,-4.65500,0.00000,-0.01110,0.01232,-0.98430,2023,6,12,15,41,21,25
0.49560,3.08000,-4.58500,0.00000,-0.01013,0.00976,-0.98796,2023,6,12,15,41,21,36
0.49570,2.99250,-4.65500,0.00000,-0.01135,0.01074,-0.98808,2023,6,12,15,41,21,47
0.49580,2.99250,-4.44500,0.00000,-0.01220,0.01183,-0.98722,2023,6,12,15,41,21,58
0.49590,2.99250,-4.67250,0.00000,-0.01098,0.01171,-0.98869,2023,6,12,15,41,21,69
0.49600,2.97500,-4.49750,0.00000,-0.01098,0.01147,-0.98954,2023,6,12,15,41,21,80
0.49610,3.02750,-4.48000,0.00000,-0.01220,0.01244,-0.98442,2023,6,12,15,41,21,91
0.49620,3.01000,-4.60250,0.00000,-0.01074,0.01183,-0.98881,2023,6,12,15,41,21,103
0.49630,2.99250,-4.76000,0.00000,-0.01000,0.01244,-0.98698,2023,6,12,15,41,21,114
0.49640,2.95750,-4.62000,0.00000,-0.01086,0.01086,-0.98710,2023,6,12,15,41,21,125
0.49650,3.09750,-4.53250,0.00000,-0.01049,0.01025,-0.98796,2023,6,12,15,41,21,136
0.49660,3.06250,-4.79500,0.00000,-0.01000,0.01147,-0.98869,2023,6,12,15,41,21,147
0.49670,3.20250,-4.72500,0.00000,-0.01135,0.01183,-0.98832,2023,6,12,15,41,21,158
0.49680,3.04500,-4.56750,0.00000,-0.01098,0.00866,-0.98930,2023,6,12,15,41,21,169
0.49690,2.92250,-4.46250,0.00000,-0.01220,0.01318,-0.98637,2023,6,12,15,41,21,180
0.49700,3.04500,-4.67250,0.00000,-0.01098,0.01013,-0.98844,2023,6,12,15,41,21,191
0.49710,2.90500,-4.39250,0.00000,-0.01257,0.01147,-0.98881,2023,6,12,15,41,21,203
0.49720,3.09750,-4.53250,0.00000,-0.01147,0.01220,-0.98722,2023,6,12,15,41,21,214
0.49730,3.01000,-4.62000,0.00000,-0.01110,0.01086,-0.98844,2023,6,12,15,41,21,225
0.49740,2.99250,-4.49750,0.00000,-0.01330,0.01086,-0.98796,2023,6,12,15,41,21,236
0.49750,2.90500,-4.63750,0.00000,-0.01135,0.01110,-0.98820,2023,6,12,15,41,21,247
0.49760,2.99250,-4.60250,0.00000,-0.01135,0.00939,-0.98771,2023,6,12,15,41,21,258
0.49770,3.08000,-4.63750,0.00000,-0.01110,0.00952,-0.98832,2023,6,12,15,41,21,269
0.49780,2.94000,-4.49750,0.00000,-0.01122,0.01122,-0.98796,2023,6,12,15,41,21,280
0.49790,3.04500,-4.70750,0.00000,-0.01074,0.01135,-0.98783,2023,6,12,15,41,21,291
0.49800,2.99250,-4.46250,0.00000,-0.01269,0.01110,-0.98808,2023,6,12,15,41,21,303
0.49810,2.83500,-4.63750,0.00000,-0.01305,0.01061,-0.98783,2023,6,12,15,41,21,314
0.49820,2.95750,-4.41000,0.00000,-0.01037,0.01013,-0.98808,2023,6,12,15,41,21,325
0.49830,2.95750,-4.58500,0.00000,-0.00891,0.01086,-0.98442,2023,6,12,15,41,21,336
0.49840,3.16750,-4.53250,0.00000,-0.00952,0.01086,-0.99015,2023,6,12,15,41,21,347
0.49850,3.09750,-4.62000,0.00000,-0.01098,0.01135,-0.98783,2023,6,12,15,41,21,358
0.49860,2.92250,-4.58500,0.00000,-0.01135,0.01171,-0.98722,2023,6,12,15,41,21,369
0.49870,3.06250,-4.67250,0.00000,-0.01171,0.01342,-0.98820,2023,6,12,15,41,21,380
0.49880,2.90500,-4.58500,0.00000,-0.01147,0.01281,-0.98881,2023,6,12,15,41,21,391
0.49890,3.06250,-4.58500,0.00000,-0.01049,0.01281,-0.98905,2023,6,12,15,41,21,403
0.49900,3.04500,-4.49750,0.00000,-0.01049,0.01000,-0.99076,2023,6,12,15,41,21,414
0.49910,2.99250,-4.62000,0.00000,-0.01098,0.01318,-0.98674,2023,6,12,15,41,21,425
0.49920,3.01000,-4.34000,0.00000,-0.01171,0.01354,-0.98954,2023,6,12,15,41,21,436
0.49930,3.06250,-4.56750,0.00000,-0.01037,0.01098,-0.98893,2023,6,12,15,41,21,447
0.49940,3.09750,-4.56750,0.00000,-0.01061,0.01025,-0.98539,2023,6,12,15,41,21,458
0.49950,3.01000,-4.51500,0.00000,-0.01025,0.01196,-0.98820,2023,6,12,15,41,21,469
0.49960,2.83500,-4.53250,0.00000,-0.01098,0.01013,-0.98722,2023,6,12,15,41,21,480
0.49970,3.01000,-4.74250,0.00000,-0.01122,0.01061,-0.98625,2023,6,12,15,41,21,491
0.49980,3.09750,-4.53250,0.00000,-0.01098,0.00976,-0.98918,2023,6,12,15,41,21,503
0.49990,3.01000,-4.65500,0.00000,-0.01061,0.01196,-0.98820,2023,6,12,15,41,21,514
0.50000,3.01000,-4.72500,0.00000,-0.01147,0.01305,-0.98649,2023,6,12,15,41,21,525
0.50010,3.13250,-4.53250,0.00000,-0.00976,0.01183,-0.98747,2023,6,12,15,41,21,536
0.50020,3.13250,-4.77750,0.00000,-0.01110,0.01220,-0.98661,2023,6,12,15,41,21,547
0.50030,2.88750,-4.48000,0.00000,-0.00927,0.01196,-0.99113,2023,6,12,15,41,21,558
0.50040,2.81750,-4.39250,0.00000,-0.01086,0.01269,-0.98735,2023,6,12,15,41,21,569
0.50050,3.08000,-4.65500,0.00000,-0.01061,0.00915,-0.98832,2023,6,12,15,41,21,580
0.50060,2.87000,-4.34000,0.00000,-0.01025,0.01159,-0.98600,2023,6,12,15,41,21,591
0.50070,3.04500,-4.65500,0.00000,-0.01061,0.01086,-0.98771,2023,6,12,15,41,21,603
0.50080,2.95750,-4.48000,0.00000,-0.01183,0.01086,-0.98796,2023,6,12,15,41,21,614
0.50090,3.11500,-4.84750,0.00000,-0.01098,0.00964,-0.98783,2023,6,12,15,41,21,625
0.50100,3.08000,-4.21750,0.00000,-0.01159,0.01098,-0.98625,2023,6,12,15,41,21,636
0.50110,2.87000,-4.46250,0.00000,-0.01208,0.01208,-0.98747,2023,6,12,15,41,21,647
0.50120,3.16750,-4.79500,0.00000,-0.00988,0.01220,-0.98893,2023,6,12,15,41,21,658
0.50130,3.04500,-4.49750,0.00000,-0.01061,0.01147,-0.98796,2023,6,12,15,41,21,669
0.50140,3.13250,-4.58500,0.00000,-0.01013,0.01086,-0.99015,2023,6,12,15,41,21,680
0.50150,2.87000,-4.60250,0.00000,-0.01110,0.01049,-0.98954,2023,6,12,15,41,21,691
0.50160,2.90500,-4.42750,0.00000,-0.01049,0.01122,-0.98722,2023,6,12,15,41,21,703
0.50170,3.11500,-4.65500,0.00000,-0.01171,0.01257,-0.98966,2023,6,12,15,41,21,714
0.50180,3.01000,-4.58500,0.00000,-0.01061,0.01196,-0.99003,2023,6,12,15,41,21,725
0.50190,2.92250,-4.41000,0.00000,-0.01074,0.01110,-0.98905,2023,6,12,15,41,21,736
0.50200,3.08000,-4.51500,0.00000,-0.01086,0.01098,-0.98735,2023,6,12,15,41,21,747
0.50210,2.83500,-4.49750,0.00000,-0.00988,0.01244,-0.98783,2023,6,12,15,41,21,758
0.50220,3.01000,-4.72500,0.00000,-0.01171,0.01208,-0.98576,2023,6,12,15,41,21,769
0.50230,3.08000,-4.49750,0.00000,-0.00976,0.01293,-0.98954,2023,6,12,15,41,21,780
0.50240,3.02750,-4.65500,0.00000,-0.00964,0.01281,-0.98783,2023,6,12,15,41,21,791
0.50250,3.20250,-4.62000,0.00000,-0.01135,0.01208,-0.98796,2023,6,12,15,41,21,803
0.50260,3.20250,-4.58500,0.00000,-0.00915,0.01232,-0.98954,2023,6,12,15,41,21,814
0.50270,3.09750,-4.42750,0.00000,-0.01074,0.01086,-0.98747,2023,6,12,15,41,21,825
0.50280,3.15000,-4.49750,0.00000,-0.01342,0.01061,-0.98966,2023,6,12,15,41,21,836
0.50290,2.90500,-4.48000,0.00000,-0.01196,0.01257,-0.98710,2023,6,12,15,41,21,847
0.50300,3.04500,-4.42750,0.00000,-0.01159,0.01074,-0.98735,2023,6,12,15,41,21,858
0.50310,3.02750,-4.67250,0.00000,-0.01025,0.01305,-0.98796,2023,6,12,15,41,21,869
0.50320,2.99250,-4.58500,0.00000,-0.00964,0.01293,-0.98954,2023,6,12,15,41,21,880
0.50330,2.87000,-4.37500,0.00000,-0.01318,0.01183,-0.98613,2023,6,12,15,41,21,891
0.50340,3.04500,-4.76000,0.00000,-0.01049,0.00927,-0.98466,2023,6,12,15,41,21,903
0.50350,3.15000,-4.55000,0.00000,-0.01196,0.01196,-0.98869,2023,6,12,15,41,21,914
0.50360,2.74750,-4.37500,0.00000,-0.01037,0.01037,-0.98539,2023,6,12,15,41,21,925
0.50370,3.11500,-4.62000,0.00000,-0.01220,0.01208,-0.98832,2023,6,12,15,41,21,936
0.50380,3.13250,-4.69000,0.00000,-0.01074,0.01220,-0.98515,2023,6,12,15,41,21,947
0.50390,2.94000,-4.51500,0.00000,-0.01049,0.01244,-0.98698,2023,6,12,15,41,21,958
0.50400,2.81750,-4.46250,0.00000,-0.01110,0.01086,-0.98698,2023,6,12,15,41,22,9
0.50410,3.15000,-4.67250,0.00000,-0.01147,0.01074,-0.98869,2023,6,12,15,41,22,20
0.50420,2.85250,-4.65500,0.00000,-0.01135,0.01305,-0.98747,2023,6,12,15,41,22,31
0.50430,3.20250,-4.70750,0.00000,-0.01196,0.01244,-0.98881,2023,6,12,15,41,22,43
0.50440,2.94000,-4.62000,0.00000,-0.01330,0.01074,-0.98710,2023,6,12,15,41,22,54
0.50450,2.90500,-4.42750,0.00000,-0.00952,0.00964,-0.98478,2023,6,12,15,41,22,65
0.50460,3.08000,-4.51500,0.00000,-0.00952,0.01159,-0.99027,2023,6,12,15,41,22,76
0.50470,3.15000,-4.49750,0.00000,-0.01110,0.00988,-0.98759,2023,6,12,15,41,22,87
0.50480,2.97500,-4.53250,0.00000,-0.01013,0.01293,-0.98869,2023,6,12,15,41,22,98
0.50490,2.94000,-4.53250,0.00000,-0.01110,0.01208,-0.98674,2023,6,12,15,41,22,109
0.50500,3.04500,-4.46250,0.00000,-0.00915,0.01135,-0.98686,2023,6,12,15,41,22,120
0.50510,3.06250,-4.48000,0.00000,-0.01159,0.01037,-0.98674,2023,6,12,15,41,22,131
0.50520,3.02750,-4.65500,0.00000,-0.00891,0.01208,-0.98625,2023,6,12,15,41,22,143
0.50530,2.99250,-4.49750,0.00000,-0.00866,0.01074,-0.98698,2023,6,12,15,41,22,154
0.50540,3.01000,-4.44500,0.00000,-0.01013,0.01098,-0.98466,2023,6,12,15,41,22,165
0.50550,2.92250,-4.56750,0.00000,-0.01013,0.01244,-0.98698,2023,6,12,15,41,22,176
0.50560,3.18500,-4.56750,0.00000,-0.01000,0.01122,-0.98478,2023,6,12,15,41,22,187
0.50570,2.95750,-4.41000,0.00000,-0.00964,0.01269,-0.98576,2023,6,12,15,41,22,198
0.50580,2.87000,-4.41000,0.00000,-0.01330,0.01208,-0.98552,2023,6,12,15,41,22,209
0.50590,3.18500,-4.51500,0.00000,-0.01232,0.01293,-0.98857,2023,6,12,15,41,22,220
0.50600,2.92250,-4.60250,0.00000,-0.01196,0.01318,-0.98796,2023,6,12,15,41,22,231
0.50610,2.85250,-4.65500,0.00000,-0.01159,0.01196,-0.98771,2023,6,12,15,41,22,243
0.50620,3.20250,-4.58500,0.00000,-0.01171,0.01171,-0.98857,2023,6,12,15,41,22,254
0.50630,3.11500,-4.67250,0.00000,-0.01025,0.01208,-0.98637,2023,6,12,15,41,22,265
0.50640,3.22000,-4.48000,0.00000,-0.01037,0.01293,-0.98759,2023,6,12,15,41,22,276
0.50650,2.87000,-4.65500,0.00000,-0.01086,0.01098,-0.98539,2023,6,12,15,41,22,287
0.50660,2.88750,-4.62000,0.00000,-0.01147,0.01061,-0.98710,2023,6,12,15,41,22,298
0.50670,3.11500,-4.48000,0.00000,-0.01049,0.01391,-0.98722,2023,6,12,15,41,22,309
0.50680,3.08000,-4.55000,0.00000,-0.01196,0.01013,-0.98735,2023,6,12,15,41,22,320
0.50690,3.08000,-4.55000,0.00000,-0.01098,0.01110,-0.98637,2023,6,12,15,41,22,331
0.50700,2.99250,-4.46250,0.00000,-0.01061,0.01208,-0.98820,2023,6,12,15,41,22,343
0.50710,2.85250,-4.55000,0.00000,-0.01086,0.01086,-0.98722,2023,6,12,15,41,22,354
0.50720,2.90500,-4.67250,0.00000,-0.00976,0.01159,-0.98515,2023,6,12,15,41,22,365
0.50730,3.02750,-4.58500,0.00000,-0.01208,0.01196,-0.98539,2023,6,12,15,41,22,376
0.50740,3.08000,-4.65500,0.00000,-0.01147,0.01220,-0.98820,2023,6,12,15,41,22,387
0.50750,2.95750,-4.62000,0.00000,-0.01061,0.01049,-0.98771,2023,6,12,15,41,22,398
0.50760,2.95750,-4.56750,0.00000,-0.00976,0.00964,-0.98735,2023,6,12,15,41,22,409
0.50770,2.90500,-4.51500,0.00000,-0.01086,0.01366,-0.98857,2023,6,12,15,41,22,420
0.50780,3.01000,-4.76000,0.00000,-0.00915,0.01147,-0.98820,2023,6,12,15,41,22,431
0.50790,3.01000,-4.51500,0.00000,-0.01220,0.01086,-0.98625,2023,6,12,15,41,22,443
0.50800,3.01000,-4.53250,0.00000,-0.00964,0.01220,-0.98674,2023,6,12,15,41,22,454
0.50810,3.09750,-4.35750,0.00000,-0.01061,0.01086,-0.98613,2023,6,12,15,41,22,465
0.50820,2.87000,-4.46250,0.00000,-0.00927,0.01403,-0.98576,2023,6,12,15,41,22,476
0.50830,2.95750,-4.49750,0.00000,-0.01000,0.01037,-0.98808,2023,6,12,15,41,22,487
0.50840,2.81750,-4.55000,0.00000,-0.01074,0.01257,-0.98515,2023,6,12,15,41,22,498
0.50850,2.78250,-4.53250,0.00000,-0.01318,0.01000,-0.98661,2023,6,12,15,41,22,509
0.50860,3.04500,-4.53250,0.00000,-0.01098,0.01025,-0.98808,2023,6,12,15,41,22,520
0.50870,2.92250,-4.53250,0.00000,-0.01208,0.01183,-0.98649,2023,6,12,15,41,22,531
0.50880,3.06250,-4.46250,0.00000,-0.01098,0.01379,-0.98869,2023,6,12,15,41,22,543
0.50890,3.01000,-4.72500,0.00000,-0.01122,0.01244,-0.98844,2023,6,12,15,41,22,554
0.50900,3.04500,-4.49750,0.00000,-0.01037,0.01098,-0.98637,2023,6,12,15,41,22,565
0.50910,2.97500,-4.62000,0.00000,-0.01013,0.01293,-0.99015,2023,6,12,15,41,22,576
0.50920,2.90500,-4.46250,0.00000,-0.00952,0.01135,-0.98820,2023,6,12,15,41,22,587
0.50930,2.94000,-4.60250,0.00000,-0.01061,0.01171,-0.98832,2023,6,12,15,41,22,598
0.50940,2.95750,-4.44500,0.00000,-0.01208,0.01208,-0.98637,2023,6,12,15,41,22,609
0.50950,3.04500,-4.56750,0.00000,-0.01086,0.00854,-0.99015,2023,6,12,15,41,22,620
0.50960,3.20250,-4.63750,0.00000,-0.01013,0.01171,-0.98991,2023,6,12,15,41,22,631
0.50970,3.13250,-4.55000,0.00000,-0.01171,0.00988,-0.98893,2023,6,12,15,41,22,643
0.50980,3.11500,-4.70750,0.00000,-0.01171,0.01269,-0.99137,2023,6,12,15,41,22,654
0.50990,2.94000,-4.69000,0.00000,-0.00903,0.00988,-0.98381,2023,6,12,15,41,22,665
0.51000,3.08000,-4.69000,0.00000,-0.01098,0.01086,-0.99064,2023,6,12,15,41,22,676
0.51010,2.88750,-4.56750,0.00000,-0.00915,0.01476,-0.98954,2023,6,12,15,41,22,687
0.51020,3.06250,-4.48000,0.00000,-0.00976,0.01000,-0.98832,2023,6,12,15,41,22,698
0.51030,2.80000,-4.46250,0.00000,-0.01086,0.01183,-0.98600,2023,6,12,15,41,22,709
0.51040,2.99250,-4.63750,0.00000,-0.01208,0.01025,-0.99015,2023,6,12,15,41,22,720
0.51050,2.92250,-4.44500,0.00000,-0.01220,0.01086,-0.98735,2023,6,12,15,41,22,731
0.51060,3.02750,-4.53250,0.00000,-0.01025,0.01232,-0.98686,2023,6,12,15,41,22,743
0.51070,3.08000,-4.83000,0.00000,-0.01232,0.00988,-0.98942,2023,6,12,15,41,22,754
0.51080,2.94000,-4.58500,0.00000,-0.01098,0.01208,-0.98905,2023,6,12,15,41,22,765
0.51090,2.94000,-4.48000,0.00000,-0.01135,0.01232,-0.99113,2023,6,12,15,41,22,776
0.51100,3.13250,-4.65500,0.00000,-0.01074,0.01342,-0.98808,2023,6,12,15,41,22,787
0.51110,3.02750,-4.67250,0.00000,-0.01025,0.01183,-0.98686,2023,6,12,15,41,22,798
0.51120,3.09750,-4.44500,0.00000,-0.01171,0.01147,-0.98722,2023,6,12,15,41,22,809
0.51130,3.11500,-4.53250,0.00000,-0.01293,0.01220,-0.98808,2023,6,12,15,41,22,820
0.51140,3.08000,-4.48000,0.00000,-0.01122,0.00866,-0.98893,2023,6,12,15,41,22,831
0.51150,2.81750,-4.65500,0.00000,-0.01037,0.01122,-0.98905,2023,6,12,15,41,22,843
0.51160,3.13250,-4.72500,0.00000,-0.00842,0.00903,-0.98649,2023,6,12,15,41,22,854
0.51170,3.02750,-4.63750,0.00000,-0.00927,0.01257,-0.98783,2023,6,12,15,41,22,865
0.51180,3.20250,-4.44500,0.00000,-0.01196,0.01061,-0.98942,2023,6,12,15,41,22,876
0.51190,2.94000,-4.48000,0.00000,-0.01098,0.01037,-0.99076,2023,6,12,15,41,22,887
0.51200,3.04500,-4.56750,0.00000,-0.01061,0.01110,-0.98759,2023,6,12,15,41,22,898
0.51210,3.09750,-4.74250,0.00000,-0.01171,0.01049,-0.98881,2023,6,12,15,41,22,909
0.51220,3.01000,-4.76000,0.00000,-0.01110,0.00830,-0.98857,2023,6,12,15,41,22,920
0.51230,3.06250,-4.56750,0.00000,-0.01220,0.01269,-0.98600,2023,6,12,15,41,22,931
0.51240,3.11500,-4.44500,0.00000,-0.01196,0.01464,-0.98344,2023,6,12,15,41,22,943
0.51250,3.04500,-4.51500,0.00000,-0.01159,0.01061,-0.98771,2023,6,12,15,41,22,954
0.51260,2.95750,-4.56750,0.00000,-0.01147,0.00964,-0.98771,2023,6,12,15,41,22,965
0.51270,3.15000,-4.70750,0.00000,-0.00915,0.01098,-0.98686,2023,6,12,15,41,22,976
0.51280,3.11500,-4.56750,0.00000,-0.00927,0.01318,-0.99101,2023,6,12,15,41,23,7
0.51290,3.09750,-4.69000,0.00000,-0.01220,0.01037,-0.98918,2023,6,12,15,41,23,18
0.51300,3.11500,-4.46250,0.00000,-0.00976,0.01159,-0.98881,2023,6,12,15,41,23,29
0.51310,2.90500,-4.60250,0.00000,-0.00842,0.01110,-0.98576,2023,6,12,15,41,23,40
0.51320,3.04500,-4.69000,0.00000,-0.01147,0.01049,-0.98844,2023,6,12,15,41,23,51
0.51330,2.94000,-4.69000,0.00000,-0.01244,0.01074,-0.98735,2023,6,12,15,41,23,63
0.51340,2.94000,-4.35750,0.00000,-0.00964,0.01013,-0.98808,2023,6,12,15,41,23,74
0.51350,2.83500,-4.41000,0.00000,-0.01013,0.01074,-0.98991,2023,6,12,15,41,23,85
0.51360,3.01000,-4.51500,0.00000,-0.01232,0.01086,-0.98918,2023,6,12,15,41,23,96
0.51370,2.87000,-4.34000,0.00000,-0.00891,0.01147,-0.99076,2023,6,12,15,41,23,107
0.51380,2.95750,-4.62000,0.00000,-0.01061,0.01244,-0.98759,2023,6,12,15,41,23,118
0.51390,2.85250,-4.58500,0.00000,-0.00988,0.01330,-0.98722,2023,6,12,15,41,23,129
0.51400,3.01000,-4.56750,0.00000,-0.01257,0.01025,-0.99076,2023,6,12,15,41,23,140
0.51410,3.08000,-4.76000,0.00000,-0.01122,0.01000,-0.98954,2023,6,12,15,41,23,151
0.51420,2.97500,-4.76000,0.00000,-0.01013,0.01196,-0.98979,2023,6,12,15,41,23,163
0.51430,3.30750,-4.65500,0.00000,-0.00866,0.01110,-0.98820,2023,6,12,15,41,23,174
0.51440,2.90500,-4.70750,0.00000,-0.01122,0.01049,-0.98771,2023,6,12,15,41,23,185
0.51450,3.02750,-4.42750,0.00000,-0.01159,0.01000,-0.98686,2023,6,12,15,41,23,196
0.51460,2.92250,-4.55000,0.00000,-0.01122,0.01318,-0.98820,2023,6,12,15,41,23,207
0.51470,2.94000,-4.41000,0.00000,-0.01037,0.01098,-0.98808,2023,6,12,15,41,23,218
0.51480,2.88750,-4.58500,0.00000,-0.00927,0.01293,-0.98930,2023,6,12,15,41,23,229
0.51490,3.08000,-4.41000,0.00000,-0.00891,0.01196,-0.98661,2023,6,12,15,41,23,240
0.51500,3.06250,-4.65500,0.00000,-0.01147,0.01183,-0.98576,2023,6,12,15,41,23,251
0.51510,2.78250,-4.63750,0.00000,-0.00939,0.01330,-0.98820,2023,6,12,15,41,23,263
0.51520,3.15000,-4.62000,0.00000,-0.01281,0.01208,-0.99003,2023,6,12,15,41,23,274
0.51530,2.94000,-4.46250,0.00000,-0.01183,0.01147,-0.98930,2023,6,12,15,41,23,285
0.51540,3.06250,-4.79500,0.00000,-0.01171,0.00952,-0.98588,2023,6,12,15,41,23,296
0.51550,2.95750,-4.69000,0.00000,-0.00988,0.01159,-0.98722,2023,6,12,15,41,23,307
0.51560,2.99250,-4.42750,0.00000,-0.01171,0.01013,-0.98820,2023,6,12,15,41,23,318
0.51570,2.97500,-4.41000,0.00000,-0.00964,0.01171,-0.98747,2023,6,12,15,41,23,329
0.51580,3.06250,-4.34000,0.00000,-0.01196,0.01086,-0.98930,2023,6,12,15,41,23,340
0.51590,2.97500,-4.56750,0.00000,-0.00915,0.01171,-0.98649,2023,6,12,15,41,23,351
0.51600,2.88750,-4.70750,0.00000,-0.01183,0.00939,-0.98710,2023,6,12,15,41,23,363
0.51610,2.87000,-4.41000,0.00000,-0.01269,0.00866,-0.98674,2023,6,12,15,41,23,374
0.51620,3.11500,-4.69000,0.00000,-0.01244,0.01147,-0.98722,2023,6,12,15,41,23,385
0.51630,3.13250,-4.46250,0.00000,-0.00988,0.01110,-0.98893,2023,6,12,15,41,23,396
0.51640,2.95750,-4.51500,0.00000,-0.01330,0.01269,-0.98661,2023,6,12,15,41,23,407
0.51650,3.02750,-4.58500,0.00000,-0.00976,0.01244,-0.98979,2023,6,12,15,41,23,418
0.51660,2.88750,-4.58500,0.00000,-0.01147,0.01208,-0.98942,2023,6,12,15,41,23,429
0.51670,3.11500,-4.91750,0.00000,-0.01159,0.01159,-0.98771,2023,6,12,15,41,23,440
0.51680,2.99250,-4.55000,0.00000,-0.00854,0.01220,-0.98710,2023,6,12,15,41,23,451
0.51690,2.94000,-4.34000,0.00000,-0.00939,0.01110,-0.98503,2023,6,12,15,41,23,463
0.51700,2.99250,-4.67250,0.00000,-0.01171,0.01403,-0.98698,2023,6,12,15,41,23,474
0.51710,2.92250,-4.58500,0.00000,-0.00964,0.01318,-0.98979,2023,6,12,15,41,23,485
0.51720,3.13250,-4.63750,0.00000,-0.01098,0.01220,-0.98552,2023,6,12,15,41,23,496
0.51730,3.04500,-4.49750,0.00000,-0.01061,0.01196,-0.98649,2023,6,12,15,41,23,507
0.51740,3.01000,-4.49750,0.00000,-0.01269,0.01122,-0.98832,2023,6,12,15,41,23,518
0.51750,3.06250,-4.51500,0.00000,-0.01074,0.01147,-0.98710,2023,6,12,15,41,23,529
0.51760,3.15000,-4.62000,0.00000,-0.01257,0.01147,-0.98539,2023,6,12,15,41,23,540
0.51770,3.08000,-4.62000,0.00000,-0.01208,0.01305,-0.98661,2023,6,12,15,41,23,551
0.51780,3.25500,-4.62000,0.00000,-0.01232,0.01330,-0.98857,2023,6,12,15,41,23,563
0.51790,2.90500,-4.72500,0.00000,-0.01122,0.01379,-0.98808,2023,6,12,15,41,23,574
0.51800,3.02750,-4.70750,0.00000,-0.01025,0.01049,-0.98905,2023,6,12,15,41,23,585
0.51810,2.97500,-4.60250,0.00000,-0.01086,0.01025,-0.98613,2023,6,12,15,41,23,596
0.51820,3.04500,-4.72500,0.00000,-0.01183,0.01293,-0.98918,2023,6,12,15,41,23,607
0.51830,3.09750,-4.44500,0.00000,-0.00854,0.01171,-0.98747,2023,6,12,15,41,23,618
0.51840,2.88750,-4.55000,0.00000,-0.01269,0.01135,-0.98600,2023,6,12,15,41,23,629
0.51850,2.94000,-4.55000,0.00000,-0.01135,0.01074,-0.98857,2023,6,12,15,41,23,640
0.51860,2.95750,-4.58500,0.00000,-0.01061,0.01171,-0.98869,2023,6,12,15,41,23,651
0.51870,3.01000,-4.79500,0.00000,-0.00878,0.01074,-0.98625,2023,6,12,15,41,23,663
0.51880,3.08000,-4.55000,0.00000,-0.00878,0.01147,-0.98625,2023,6,12,15,41,23,674
0.51890,2.88750,-4.46250,0.00000,-0.01159,0.00939,-0.98686,2023,6,12,15,41,23,685
0.51900,3.09750,-4.65500,0.00000,-0.01208,0.01110,-0.98930,2023,6,12,15,41,23,696
0.51910,2.97500,-4.53250,0.00000,-0.01171,0.01147,-0.98991,2023,6,12,15,41,23,707
0.51920,2.92250,-4.60250,0.00000,-0.01269,0.00891,-0.98637,2023,6,12,15,41,23,718
0.51930,3.02750,-4.79500,0.00000,-0.01159,0.01122,-0.98832,2023,6,12,15,41,23,729
0.51940,2.87000,-4.74250,0.00000,-0.01122,0.01220,-0.98710,2023,6,12,15,41,23,740
0.51950,2.99250,-4.60250,0.00000,-0.00866,0.01135,-0.98478,2023,6,12,15,41,23,751
0.51960,3.02750,-4.41000,0.00000,-0.00964,0.01171,-0.98832,2023,6,12,15,41,23,763
0.51970,3.08000,-4.63750,0.00000,-0.01196,0.01037,-0.99003,2023,6,12,15,41,23,774
0.51980,3.06250,-4.70750,0.00000,-0.01147,0.01244,-0.98808,2023,6,12,15,41,23,785
0.51990,3.04500,-4.55000,0.00000,-0.01281,0.01391,-0.98844,2023,6,12,15,41,23,796
0.52000,2.97500,-4.55000,0.00000,-0.01135,0.01110,-0.98759,2023,6,12,15,41,23,807
0.52010,3.25500,-4.69000,0.00000,-0.01061,0.01135,-0.98588,2023,6,12,15,41,23,818
0.52020,3.02750,-4.70750,0.00000,-0.01098,0.01257,-0.98478,2023,6,12,15,41,23,829
0.52030,2.99250,-4.51500,0.00000,-0.01122,0.01037,-0.98881,2023,6,12,15,41,23,840
0.52040,2.90500,-4.60250,0.00000,-0.01293,0.01086,-0.98722,2023,6,12,15,41,23,851
0.52050,3.22000,-4.63750,0.00000,-0.01171,0.01037,-0.98942,2023,6,12,15,41,23,863
0.52060,2.97500,-4.67250,0.00000,-0.01074,0.01000,-0.98747,2023,6,12,15,41,23,874
0.52070,3.04500,-4.55000,0.00000,-0.00964,0.01147,-0.98747,2023,6,12,15,41,23,885
0.52080,3.06250,-4.41000,0.00000,-0.01110,0.01440,-0.98539,2023,6,12,15,41,23,896
0.52090,2.94000,-4.63750,0.00000,-0.01196,0.01244,-0.98649,2023,6,12,15,41,23,907
0.52100,3.06250,-4.62000,0.00000,-0.01135,0.00988,-0.98454,2023,6,12,15,41,23,918
0.52110,2.95750,-4.51500,0.00000,-0.01183,0.00939,-0.98735,2023,6,12,15,41,23,929
0.52120,3.09750,-4.62000,0.00000,-0.01366,0.01244,-0.98796,2023,6,12,15,41,23,940
0.52130,3.01000,-4.86500,0.00000,-0.01135,0.01135,-0.98674,2023,6,12,15,41,23,951
0.52140,2.94000,-4.27000,0.00000,-0.01293,0.01208,-0.98930,2023,6,12,15,41,23,963
0.52150,3.08000,-4.65500,0.00000,-0.01122,0.01159,-0.98710,2023,6,12,15,41,24,4
0.52160,2.83500,-4.79500,0.00000,-0.01074,0.01037,-0.98771,2023,6,12,15,41,24,15
0.52170,3.08000,-4.53250,0.00000,-0.01098,0.00708,-0.98759,2023,6,12,15,41,24,26
0.52180,3.09750,-4.58500,0.00000,-0.01061,0.01171,-0.98747,2023,6,12,15,41,24,37
0.52190,3.09750,-4.69000,0.00000,-0.01171,0.01147,-0.98686,2023,6,12,15,41,24,48
0.52200,3.23750,-4.65500,0.00000,-0.01244,0.01025,-0.98417,2023,6,12,15,41,24,59
0.52210,2.90500,-4.42750,0.00000,-0.01305,0.01098,-0.98759,2023,6,12,15,41,24,70
0.52220,3.04500,-4.53250,0.00000,-0.00903,0.01403,-0.98527,2023,6,12,15,41,24,81
0.52230,2.99250,-4.55000,0.00000,-0.01183,0.01049,-0.98808,2023,6,12,15,41,24,93
0.52240,3.02750,-4.60250,0.00000,-0.01086,0.00915,-0.98820,2023,6,12,15,41,24,104
0.52250,3.08000,-4.63750,0.00000,-0.01049,0.01049,-0.98625,2023,6,12,15,41,24,115
0.52260,2.88750,-4.30500,0.00000,-0.01122,0.01110,-0.98844,2023,6,12,15,41,24,126
0.52270,2.92250,-4.65500,0.00000,-0.01220,0.01220,-0.98966,2023,6,12,15,41,24,137
0.52280,2.90500,-4.60250,0.00000,-0.01025,0.01208,-0.98796,2023,6,12,15,41,24,148
0.52290,2.94000,-4.28750,0.00000,-0.01220,0.01196,-0.98857,2023,6,12,15,41,24,159
0.52300,2.87000,-4.34000,0.00000,-0.00939,0.01171,-0.98832,2023,6,12,15,41,24,170
0.52310,2.88750,-4.53250,0.00000,-0.01049,0.00939,-0.98844,2023,6,12,15,41,24,181
0.52320,3.04500,-4.67250,0.00000,-0.00988,0.01049,-0.98796,2023,6,12,15,41,24,193
0.52330,3.01000,-4.62000,0.00000,-0.01061,0.01183,-0.98832,2023,6,12,15,41,24,204
0.52340,2.94000,-4.44500,0.00000,-0.01232,0.01159,-0.98625,2023,6,12,15,41,24,215
0.52350,3.08000,-4.65500,0.00000,-0.01196,0.01074,-0.98735,2023,6,12,15,41,24,226
0.52360,2.85250,-4.51500,0.00000,-0.01220,0.01159,-0.98759,2023,6,12,15,41,24,237
0.52370,2.99250,-4.44500,0.00000,-0.00964,0.00964,-0.98832,2023,6,12,15,41,24,248
0.52380,2.95750,-4.67250,0.00000,-0.01135,0.00854,-0.98857,2023,6,12,15,41,24,259
0.52390,2.99250,-4.67250,0.00000,-0.00915,0.00915,-0.98637,2023,6,12,15,41,24,270
0.52400,2.97500,-4.56750,0.00000,-0.01122,0.01452,-0.98966,2023,6,12,15,41,24,281
0.52410,2.90500,-4.67250,0.00000,-0.01293,0.01049,-0.98722,2023,6,12,15,41,24,293
0.52420,3.01000,-4.42750,0.00000,-0.01220,0.01196,-0.98759,2023,6,12,15,41,24,304
0.52430,3.16750,-4.39250,0.00000,-0.01159,0.01000,-0.98661,2023,6,12,15,41,24,315
0.52440,2.99250,-4.77750,0.00000,-0.01196,0.01171,-0.98905,2023,6,12,15,41,24,326
0.52450,3.01000,-4.72500,0.00000,-0.00988,0.01122,-0.98661,2023,6,12,15,41,24,337
0.52460,3.13250,-4.69000,0.00000,-0.01098,0.01122,-0.98735,2023,6,12,15,41,24,348
0.52470,2.97500,-4.55000,0.00000,-0.01232,0.01037,-0.98796,2023,6,12,15,41,24,359
0.52480,3.15000,-4.69000,0.00000,-0.01086,0.01098,-0.98722,2023,6,12,15,41,24,370
0.52490,2.94000,-4.48000,0.00000,-0.01269,0.01074,-0.98722,2023,6,12,15,41,24,381
0.52500,2.95750,-4.62000,0.00000,-0.01257,0.01196,-0.98979,2023,6,12,15,41,24,393
0.52510,2.90500,-4.65500,0.00000,-0.01086,0.01061,-0.98869,2023,6,12,15,41,24,404
0.52520,3.01000,-4.65500,0.00000,-0.01098,0.01220,-0.98796,2023,6,12,15,41,24,415
0.52530,3.04500,-4.72500,0.00000,-0.01159,0.01086,-0.98832,2023,6,12,15,41,24,426
0.52540,2.97500,-4.49750,0.00000,-0.01037,0.01110,-0.98881,2023,6,12,15,41,24,437
0.52550,2.85250,-4.37500,0.00000,-0.01061,0.01244,-0.99027,2023,6,12,15,41,24,448
0.52560,3.08000,-4.51500,0.00000,-0.01025,0.01122,-0.98783,2023,6,12,15,41,24,459
0.52570,2.94000,-4.51500,0.00000,-0.01171,0.01049,-0.98698,2023,6,12,15,41,24,470
0.52580,3.02750,-4.53250,0.00000,-0.01122,0.01147,-0.99015,2023,6,12,15,41,24,481
0.52590,2.97500,-4.51500,0.00000,-0.00939,0.01159,-0.98674,2023,6,12,15,41,24,493
0.52600,3.15000,-4.83000,0.00000,-0.01000,0.01037,-0.98613,2023,6,12,15,41,24,504
0.52610,2.87000,-4.51500,0.00000,-0.01244,0.01025,-0.98613,2023,6,12,15,41,24,515
0.52620,2.80000,-4.55000,0.00000,-0.01061,0.01135,-0.99040,2023,6,12,15,41,24,526
0.52630,2.78250,-4.44500,0.00000,-0.01110,0.00891,-0.98918,2023,6,12,15,41,24,537
0.52640,2.92250,-4.60250,0.00000,-0.00964,0.01318,-0.98942,2023,6,12,15,41,24,548
0.52650,3.02750,-4.55000,0.00000,-0.01074,0.01061,-0.98661,2023,6,12,15,41,24,559
0.52660,3.02750,-4.58500,0.00000,-0.01196,0.01159,-0.99125,2023,6,12,15,41,24,570
0.52670,2.99250,-4.62000,0.00000,-0.00952,0.01354,-0.98893,2023,6,12,15,41,24,581
0.52680,2.81750,-4.58500,0.00000,-0.01147,0.01122,-0.98918,2023,6,12,15,41,24,593
0.52690,2.97500,-4.58500,0.00000,-0.01098,0.01086,-0.98783,2023,6,12,15,41,24,604
0.52700,2.95750,-4.48000,0.00000,-0.01037,0.01281,-0.98735,2023,6,12,15,41,24,615
0.52710,3.02750,-4.63750,0.00000,-0.01232,0.01110,-0.98844,2023,6,12,15,41,24,626
0.52720,3.09750,-4.51500,0.00000,-0.01074,0.00854,-0.98869,2023,6,12,15,41,24,637
0.52730,3.01000,-4.49750,0.00000,-0.01269,0.01122,-0.99186,2023,6,12,15,41,24,648
0.52740,2.88750,-4.62000,0.00000,-0.01183,0.01049,-0.98661,2023,6,12,15,41,24,659
0.52750,3.08000,-4.63750,0.00000,-0.01049,0.01086,-0.98844,2023,6,12,15,41,24,670
0.52760,3.20250,-4.63750,0.00000,-0.01147,0.01098,-0.98857,2023,6,12,15,41,24,681
0.52770,2.97500,-4.39250,0.00000,-0.01000,0.01086,-0.98808,2023,6,12,15,41,24,693
0.52780,3.34250,-4.67250,0.00000,-0.00964,0.01110,-0.98869,2023,6,12,15,41,24,704
0.52790,2.94000,-4.37500,0.00000,-0.01147,0.01208,-0.98820,2023,6,12,15,41,24,715
0.52800,3.15000,-4.44500,0.00000,-0.01208,0.01135,-0.98808,2023,6,12,15,41,24,726
0.52810,2.94000,-4.60250,0.00000,-0.01122,0.00964,-0.98674,2023,6,12,15,41,24,737
0.52820,3.18500,-4.72500,0.00000,-0.01147,0.01159,-0.98808,2023,6,12,15,41,24,748
0.52830,2.81750,-4.56750,0.00000,-0.01074,0.00988,-0.98893,2023,6,12,15,41,24,759
0.52840,2.92250,-4.62000,0.00000,-0.01147,0.01208,-0.98820,2023,6,12,15,41,24,770
0.52850,2.95750,-4.67250,0.00000,-0.01135,0.00964,-0.99003,2023,6,12,15,41,24,781
0.52860,3.06250,-4.70750,0.00000,-0.00988,0.01147,-0.98747,2023,6,12,15,41,24,793
0.52870,2.99250,-4.39250,0.00000,-0.01281,0.00988,-0.98576,2023,6,12,15,41,24,804
0.52880,3.08000,-4.77750,0.00000,-0.00976,0.01025,-0.98796,2023,6,12,15,41,24,815
0.52890,3.11500,-4.63750,0.00000,-0.01220,0.01013,-0.98881,2023,6,12,15,41,24,826
0.52900,3.09750,-4.42750,0.00000,-0.01159,0.01366,-0.98966,2023,6,12,15,41,24,837
0.52910,3.04500,-4.65500,0.00000,-0.01171,0.01147,-0.98588,2023,6,12,15,41,24,848
0.52920,3.01000,-4.65500,0.00000,-0.01122,0.00988,-0.99149,2023,6,12,15,41,24,859
0.52930,2.87000,-4.63750,0.00000,-0.00988,0.01110,-0.98783,2023,6,12,15,41,24,870
0.52940,2.97500,-4.60250,0.00000,-0.01086,0.01086,-0.98674,2023,6,12,15,41,24,881
0.52950,3.11500,-4.60250,0.00000,-0.01110,0.01110,-0.98661,2023,6,12,15,41,24,893
0.52960,3.09750,-4.62000,0.00000,-0.01122,0.01074,-0.98588,2023,6,12,15,41,24,904
0.52970,3.11500,-4.63750,0.00000,-0.01232,0.01318,-0.98808,2023,6,12,15,41,24,915
0.52980,3.09750,-4.48000,0.00000,-0.01196,0.01159,-0.98771,2023,6,12,15,41,24,926
0.52990,3.04500,-4.41000,0.00000,-0.01220,0.01257,-0.98808,2023,6,12,15,41,24,937
0.53000,3.08000,-4.53250,0.00000,-0.01159,0.01196,-0.98832,2023,6,12,15,41,24,948
0.53010,2.97500,-4.21750,0.00000,-0.01342,0.01147,-0.98747,2023,6,12,15,41,24,959
0.53020,3.13250,-4.23500,0.00000,-0.01049,0.01147,-0.98832,2023,6,12,15,41,24,970
0.53030,2.97500,-4.37500,0.00000,-0.00964,0.01110,-0.98783,2023,6,12,15,41,25,1
0.53040,3.02750,-4.60250,0.00000,-0.01196,0.01049,-0.98796,2023,6,12,15,41,25,13
0.53050,3.06250,-4.76000,0.00000,-0.01135,0.01208,-0.98820,2023,6,12,15,41,25,24
0.53060,2.90500,-4.55000,0.00000,-0.01074,0.01122,-0.98417,2023,6,12,15,41,25,35
0.53070,3.09750,-4.63750,0.00000,-0.01135,0.01098,-0.99040,2023,6,12,15,41,25,46
0.53080,3.15000,-4.63750,0.00000,-0.01220,0.01147,-0.98954,2023,6,12,15,41,25,57
0.53090,3.23750,-4.53250,0.00000,-0.01232,0.01171,-0.99101,2023,6,12,15,41,25,68
0.53100,3.09750,-4.65500,0.00000,-0.01013,0.00976,-0.98722,2023,6,12,15,41,25,79
0.53110,2.87000,-4.70750,0.00000,-0.01013,0.01147,-0.98576,2023,6,12,15,41,25,90
0.53120,2.92250,-4.70750,0.00000,-0.00830,0.01000,-0.98686,2023,6,12,15,41,25,101
0.53130,2.95750,-4.60250,0.00000,-0.01183,0.01159,-0.98881,2023,6,12,15,41,25,113
0.53140,3.06250,-4.53250,0.00000,-0.00927,0.01000,-0.98966,2023,6,12,15,41,25,124
0.53150,3.08000,-4.74250,0.00000,-0.01147,0.00952,-0.98759,2023,6,12,15,41,25,135
0.53160,2.94000,-4.48000,0.00000,-0.01293,0.01037,-0.98820,2023,6,12,15,41,25,146
0.53170,3.04500,-4.65500,0.00000,-0.01110,0.01159,-0.98832,2023,6,12,15,41,25,157
0.53180,2.95750,-4.53250,0.00000,-0.00903,0.01171,-0.98844,2023,6,12,15,41,25,168
0.53190,3.02750,-4.58500,0.00000,-0.01305,0.00866,-0.98832,2023,6,12,15,41,25,179
0.53200,2.81750,-4.56750,0.00000,-0.01183,0.01122,-0.98698,2023,6,12,15,41,25,190
0.53210,3.04500,-4.65500,0.00000,-0.01122,0.00952,-0.98722,2023,6,12,15,41,25,201
0.53220,2.74750,-4.51500,0.00000,-0.01147,0.01305,-0.99259,2023,6,12,15,41,25,213
0.53230,2.95750,-4.44500,0.00000,-0.01025,0.01135,-0.98844,2023,6,12,15,41,25,224
0.53240,2.69500,-4.20000,0.00000,-0.01232,0.01049,-0.98930,2023,6,12,15,41,25,235
0.53250,3.11500,-4.32250,0.00000,-0.01110,0.01122,-0.99003,2023,6,12,15,41,25,246
0.53260,3.01000,-4.60250,0.00000,-0.01220,0.01147,-0.99027,2023,6,12,15,41,25,257
0.53270,3.08000,-4.60250,0.00000,-0.01000,0.00964,-0.99101,2023,6,12,15,41,25,268
0.53280,2.95750,-4.76000,0.00000,-0.00854,0.01025,-0.99064,2023,6,12,15,41,25,279
0.53290,3.09750,-4.58500,0.00000,-0.00842,0.01257,-0.98832,2023,6,12,15,41,25,290
0.53300,3.06250,-4.51500,0.00000,-0.00952,0.01171,-0.98796,2023,6,12,15,41,25,301
0.53310,3.04500,-4.53250,0.00000,-0.01171,0.01318,-0.98649,2023,6,12,15,41,25,313
0.53320,2.85250,-4.42750,0.00000,-0.00805,0.01293,-0.98869,2023,6,12,15,41,25,324
0.53330,3.13250,-4.63750,0.00000,-0.01135,0.01305,-0.98808,2023,6,12,15,41,25,335
0.53340,2.88750,-4.35750,0.00000,-0.01330,0.01122,-0.99162,2023,6,12,15,41,25,346
0.53350,2.83500,-4.55000,0.00000,-0.01342,0.01110,-0.98918,2023,6,12,15,41,25,357
0.53360,2.95750,-4.56750,0.00000,-0.01342,0.00927,-0.99027,2023,6,12,15,41,25,368
0.53370,3.11500,-4.74250,0.00000,-0.01000,0.01110,-0.98600,2023,6,12,15,41,25,379
0.53380,3.02750,-4.44500,0.00000,-0.01159,0.01379,-0.98735,2023,6,12,15,41,25,390
0.53390,2.92250,-4.49750,0.00000,-0.01025,0.01257,-0.98710,2023,6,12,15,41,25,401
0.53400,2.88750,-4.46250,0.00000,-0.01110,0.01208,-0.98881,2023,6,12,15,41,25,413
0.53410,2.92250,-4.42750,0.00000,-0.00964,0.01269,-0.98832,2023,6,12,15,41,25,424
0.53420,2.99250,-4.46250,0.00000,-0.01061,0.01086,-0.98478,2023,6,12,15,41,25,435
0.53430,3.02750,-4.56750,0.00000,-0.01135,0.00988,-0.98869,2023,6,12,15,41,25,446
0.53440,2.95750,-4.69000,0.00000,-0.01122,0.01037,-0.98759,2023,6,12,15,41,25,457
0.53450,3.23750,-4.46250,0.00000,-0.01159,0.00903,-0.98796,2023,6,12,15,41,25,468
0.53460,2.81750,-4.53250,0.00000,-0.01269,0.01171,-0.98783,2023,6,12,15,41,25,479
0.53470,2.85250,-4.49750,0.00000,-0.01013,0.01293,-0.98649,2023,6,12,15,41,25,490
0.53480,3.01000,-4.49750,0.00000,-0.01208,0.01135,-0.98515,2023,6,12,15,41,25,501
0.53490,2.94000,-4.77750,0.00000,-0.01098,0.01171,-0.99088,2023,6,12,15,41,25,513
0.53500,2.92250,-4.46250,0.00000,-0.01061,0.01000,-0.98747,2023,6,12,15,41,25,524
0.53510,2.95750,-4.58500,0.00000,-0.01074,0.01440,-0.98735,2023,6,12,15,41,25,535
0.53520,2.80000,-4.55000,0.00000,-0.01086,0.01183,-0.98710,2023,6,12,15,41,25,546
0.53530,2.90500,-4.55000,0.00000,-0.01098,0.01159,-0.99064,2023,6,12,15,41,25,557
0.53540,3.08000,-4.58500,0.00000,-0.01366,0.01110,-0.98576,2023,6,12,15,41,25,568
0.53550,2.97500,-4.62000,0.00000,-0.01074,0.01025,-0.98942,2023,6,12,15,41,25,579
0.53560,3.18500,-4.63750,0.00000,-0.00878,0.01159,-0.98576,2023,6,12,15,41,25,590
0.53570,3.08000,-4.72500,0.00000,-0.01208,0.00781,-0.98796,2023,6,12,15,41,25,601
0.53580,3.16750,-4.51500,0.00000,-0.01074,0.00952,-0.98966,2023,6,12,15,41,25,613
0.53590,3.13250,-4.76000,0.00000,-0.00927,0.01025,-0.98637,2023,6,12,15,41,25,624
0.53600,3.11500,-4.46250,0.00000,-0.00939,0.01318,-0.98576,2023,6,12,15,41,25,635
0.53610,2.88750,-4.65500,0.00000,-0.01061,0.01232,-0.99113,2023,6,12,15,41,25,646
0.53620,3.02750,-4.69000,0.00000,-0.00988,0.01147,-0.98405,2023,6,12,15,41,25,657
0.53630,2.97500,-4.74250,0.00000,-0.01122,0.01025,-0.98796,2023,6,12,15,41,25,668
0.53640,2.95750,-4.32250,0.00000,-0.01244,0.00866,-0.98722,2023,6,12,15,41,25,679
0.53650,3.11500,-4.81250,0.00000,-0.01037,0.01098,-0.98735,2023,6,12,15,41,25,690
0.53660,2.85250,-4.69000,0.00000,-0.01159,0.01330,-0.98930,2023,6,12,15,41,25,701
0.53670,3.11500,-4.46250,0.00000,-0.01196,0.01232,-0.98710,2023,6,12,15,41,25,713
0.53680,3.08000,-4.44500,0.00000,-0.01074,0.01183,-0.98576,2023,6,12,15,41,25,724
0.53690,2.92250,-4.53250,0.00000,-0.00854,0.01074,-0.98954,2023,6,12,15,41,25,735
0.53700,2.88750,-4.58500,0.00000,-0.01098,0.01086,-0.98710,2023,6,12,15,41,25,746
0.53710,2.81750,-4.48000,0.00000,-0.01074,0.01159,-0.98796,2023,6,12,15,41,25,757
0.53720,3.11500,-4.55000,0.00000,-0.01293,0.01061,-0.98881,2023,6,12,15,41,25,768
0.53730,2.97500,-4.74250,0.00000,-0.01110,0.00927,-0.98905,2023,6,12,15,41,25,779
0.53740,2.95750,-4.48000,0.00000,-0.01269,0.01122,-0.98698,2023,6,12,15,41,25,790
0.53750,3.18500,-4.70750,0.00000,-0.01208,0.01122,-0.99174,2023,6,12,15,41,25,801
0.53760,3.08000,-4.58500,0.00000,-0.00964,0.01183,-0.98954,2023,6,12,15,41,25,813
#2023/06/12 15:41:26
