#2023/06/12 11:18:12
time,wx,wy,wz,ax,ay,az,yy,MM,dd,hh,mm,ss,ms
0.00000,3.32500,-4.60250,0.00000,0.00500,0.04343,-0.98539,2023,6,12,11,18,12,857
0.00010,3.15000,-4.53250,0.00000,0.00610,0.04624,-0.98808,2023,6,12,11,18,12,868
0.00020,3.18500,-4.65500,0.00000,0.00451,0.04587,-0.98783,2023,6,12,11,18,12,879
0.00030,3.25500,-4.77750,0.00000,0.00415,0.04660,-0.98613,2023,6,12,11,18,12,890
0.00040,3.06250,-4.60250,0.00000,0.00451,0.04429,-0.98588,2023,6,12,11,18,12,901
0.00050,3.16750,-4.42750,0.00000,0.00512,0.04453,-0.98649,2023,6,12,11,18,12,912
0.00060,3.25500,-4.67250,0.00000,0.00561,0.04465,-0.98796,2023,6,12,11,18,12,923
0.00070,3.02750,-4.63750,0.00000,0.00561,0.04709,-0.98966,2023,6,12,11,18,12,934
0.00080,3.27250,-4.69000,0.00000,0.00476,0.04734,-0.98661,2023,6,12,11,18,12,945
0.00090,3.08000,-4.69000,0.00000,0.00561,0.04660,-0.98576,2023,6,12,11,18,12,956
0.00100,3.04500,-4.49750,0.00000,0.00403,0.04514,-0.98674,2023,6,12,11,18,12,968
0.00110,3.11500,-4.76000,0.00000,0.00622,0.04343,-0.98832,2023,6,12,11,18,12,979
0.00120,3.25500,-4.56750,0.00000,0.00281,0.04734,-0.98637,2023,6,12,11,18,12,990
0.00130,3.18500,-4.70750,0.00000,0.00586,0.04648,-0.98966,2023,6,12,11,18,12,1
0.00140,3.32500,-4.44500,0.00000,0.00525,0.04526,-0.98783,2023,6,12,11,18,12,12
0.00150,3.16750,-4.83000,0.00000,0.00769,0.04770,-0.98918,2023,6,12,11,18,12,23
0.00160,3.13250,-4.67250,0.00000,0.00415,0.04843,-0.98942,2023,6,12,11,18,12,34
0.00170,3.16750,-4.76000,0.00000,0.00390,0.04795,-0.99088,2023,6,12,11,18,12,45
0.00180,3.08000,-4.56750,0.00000,0.00366,0.04709,-0.98625,2023,6,12,11,18,12,56
0.00190,3.02750,-4.32250,0.00000,0.00549,0.04490,-0.98820,2023,6,12,11,18,12,68
0.00200,3.06250,-4.51500,0.00000,0.00354,0.04709,-0.98649,2023,6,12,11,18,12,79
0.00210,3.16750,-4.56750,0.00000,0.00427,0.04514,-0.98783,2023,6,12,11,18,12,90
0.00220,3.18500,-4.79500,0.00000,0.00573,0.04490,-0.98832,2023,6,12,11,18,12,101
0.00230,2.99250,-4.74250,0.00000,0.00476,0.04270,-0.98600,2023,6,12,11,18,12,112
0.00240,3.29000,-4.65500,0.00000,0.00439,0.04441,-0.98564,2023,6,12,11,18,12,123
0.00250,3.18500,-4.84750,0.00000,0.00476,0.04368,-0.98783,2023,6,12,11,18,12,134
0.00260,3.25500,-4.67250,0.00000,0.00537,0.04380,-0.98466,2023,6,12,11,18,12,145
0.00270,3.04500,-4.62000,0.00000,0.00427,0.04624,-0.98539,2023,6,12,11,18,12,156
0.00280,3.18500,-4.55000,0.00000,0.00659,0.04599,-0.98625,2023,6,12,11,18,12,168
0.00290,2.99250,-4.55000,0.00000,0.00598,0.04429,-0.98564,2023,6,12,11,18,12,179
0.00300,3.13250,-4.60250,0.00000,0.00354,0.04490,-0.98576,2023,6,12,11,18,12,190
0.00310,2.95750,-4.58500,0.00000,0.00671,0.04514,-0.98820,2023,6,12,11,18,12,201
0.00320,3.41250,-4.60250,0.00000,0.00390,0.04685,-0.98466,2023,6,12,11,18,12,212
0.00330,3.20250,-4.56750,0.00000,0.00476,0.04258,-0.98564,2023,6,12,11,18,12,223
0.00340,3.04500,-4.51500,0.00000,0.00708,0.04575,-0.98735,2023,6,12,11,18,12,234
0.00350,3.18500,-4.44500,0.00000,0.00500,0.04624,-0.98649,2023,6,12,11,18,12,245
0.00360,3.06250,-4.48000,0.00000,0.00378,0.04502,-0.98613,2023,6,12,11,18,12,256
0.00370,2.78250,-4.44500,0.00000,0.00512,0.04514,-0.98466,2023,6,12,11,18,12,268
0.00380,3.25500,-4.69000,0.00000,0.00427,0.04392,-0.98637,2023,6,12,11,18,12,279
0.00390,3.08000,-4.63750,0.00000,0.00537,0.04343,-0.98308,2023,6,12,11,18,12,290
0.00400,2.80000,-4.56750,0.00000,0.00659,0.04233,-0.98686,2023,6,12,11,18,12,301
0.00410,3.23750,-4.55000,0.00000,0.00683,0.04514,-0.98722,2023,6,12,11,18,13,2
0.00420,3.15000,-4.39250,0.00000,0.00561,0.04502,-0.98698,2023,6,12,11,18,13,13
0.00430,3.20250,-4.58500,0.00000,0.00622,0.04490,-0.98759,2023,6,12,11,18,13,24
0.00440,3.09750,-4.39250,0.00000,0.00561,0.04721,-0.98796,2023,6,12,11,18,13,35
0.00450,3.22000,-4.60250,0.00000,0.00537,0.04416,-0.98649,2023,6,12,11,18,13,46
0.00460,3.13250,-4.58500,0.00000,0.00366,0.04392,-0.98820,2023,6,12,11,18,13,58
0.00470,3.11500,-4.65500,0.00000,0.00439,0.04538,-0.98698,2023,6,12,11,18,13,69
0.00480,3.23750,-4.74250,0.00000,0.00464,0.04319,-0.98588,2023,6,12,11,18,13,80
0.00490,3.29000,-4.63750,0.00000,0.00390,0.04514,-0.98710,2023,6,12,11,18,13,91
0.00500,3.13250,-4.48000,0.00000,0.00756,0.04453,-0.98625,2023,6,12,11,18,13,102
0.00510,3.32500,-4.56750,0.00000,0.00817,0.04563,-0.98808,2023,6,12,11,18,13,113
0.00520,3.16750,-4.65500,0.00000,0.00537,0.04612,-0.98503,2023,6,12,11,18,13,124
0.00530,3.16750,-4.79500,0.00000,0.00390,0.04575,-0.98698,2023,6,12,11,18,13,135
0.00540,3.15000,-4.70750,0.00000,0.00586,0.04294,-0.98649,2023,6,12,11,18,13,146
0.00550,3.16750,-4.58500,0.00000,0.00390,0.04221,-0.98552,2023,6,12,11,18,13,158
0.00560,3.16750,-4.74250,0.00000,0.00598,0.04587,-0.98698,2023,6,12,11,18,13,169
0.00570,2.97500,-4.65500,0.00000,0.00390,0.04465,-0.98661,2023,6,12,11,18,13,180
0.00580,3.23750,-4.76000,0.00000,0.00732,0.04563,-0.98796,2023,6,12,11,18,13,191
0.00590,3.09750,-4.23500,0.00000,0.00488,0.04563,-0.98588,2023,6,12,11,18,13,202
0.00600,3.15000,-4.83000,0.00000,0.00695,0.04612,-0.98783,2023,6,12,11,18,13,213
0.00610,3.15000,-4.28750,0.00000,0.00647,0.04526,-0.98515,2023,6,12,11,18,13,224
0.00620,3.20250,-4.60250,0.00000,0.00525,0.04465,-0.98844,2023,6,12,11,18,13,235
0.00630,3.13250,-4.44500,0.00000,0.00305,0.04612,-0.98918,2023,6,12,11,18,13,246
0.00640,3.16750,-4.70750,0.00000,0.00476,0.04307,-0.98796,2023,6,12,11,18,13,258
0.00650,3.02750,-4.69000,0.00000,0.00598,0.04368,-0.98674,2023,6,12,11,18,13,269
0.00660,3.29000,-4.74250,0.00000,0.00769,0.04551,-0.98820,2023,6,12,11,18,13,280
0.00670,3.22000,-4.48000,0.00000,0.00439,0.04624,-0.98759,2023,6,12,11,18,13,291
0.00680,3.29000,-4.48000,0.00000,0.00464,0.04319,-0.98808,2023,6,12,11,18,13,302
0.00690,3.23750,-4.39250,0.00000,0.00415,0.04368,-0.98515,2023,6,12,11,18,13,313
0.00700,3.08000,-4.70750,0.00000,0.00366,0.04575,-0.98588,2023,6,12,11,18,13,324
0.00710,3.23750,-4.62000,0.00000,0.00451,0.04477,-0.98674,2023,6,12,11,18,13,335
0.00720,3.01000,-4.53250,0.00000,0.00817,0.04368,-0.98515,2023,6,12,11,18,13,346
0.00730,3.23750,-4.58500,0.00000,0.00366,0.04514,-0.98649,2023,6,12,11,18,13,358
0.00740,3.06250,-4.41000,0.00000,0.00464,0.04709,-0.98661,2023,6,12,11,18,13,369
0.00750,3.11500,-4.55000,0.00000,0.00293,0.04648,-0.98552,2023,6,12,11,18,13,380
0.00760,2.90500,-4.37500,0.00000,0.00573,0.04453,-0.98869,2023,6,12,11,18,13,391
0.00770,3.15000,-4.69000,0.00000,0.00744,0.04477,-0.98735,2023,6,12,11,18,13,402
0.00780,3.25500,-4.67250,0.00000,0.00744,0.04416,-0.98515,2023,6,12,11,18,13,413
0.00790,3.08000,-4.60250,0.00000,0.00561,0.04441,-0.98649,2023,6,12,11,18,13,424
0.00800,3.27250,-4.32250,0.00000,0.00744,0.04453,-0.98564,2023,6,12,11,18,13,435
0.00810,3.22000,-4.56750,0.00000,0.00476,0.04636,-0.98905,2023,6,12,11,18,13,446
0.00820,2.90500,-4.53250,0.00000,0.00512,0.04477,-0.98918,2023,6,12,11,18,13,458
0.00830,3.25500,-4.70750,0.00000,0.00464,0.04307,-0.98771,2023,6,12,11,18,13,469
0.00840,3.29000,-4.55000,0.00000,0.00586,0.04709,-0.98454,2023,6,12,11,18,13,480
0.00850,3.25500,-4.49750,0.00000,0.00512,0.04514,-0.98698,2023,6,12,11,18,13,491
0.00860,3.32500,-4.70750,0.00000,0.00537,0.04294,-0.98649,2023,6,12,11,18,13,502
0.00870,3.06250,-4.55000,0.00000,0.00305,0.04355,-0.98564,2023,6,12,11,18,13,513
0.00880,3.11500,-4.55000,0.00000,0.00488,0.04392,-0.98552,2023,6,12,11,18,13,524
0.00890,3.30750,-4.69000,0.00000,0.00756,0.04563,-0.98613,2023,6,12,11,18,13,535
0.00900,2.95750,-4.63750,0.00000,0.00256,0.04355,-0.98893,2023,6,12,11,18,13,546
0.00910,3.11500,-4.67250,0.00000,0.00378,0.04392,-0.98832,2023,6,12,11,18,13,558
0.00920,3.18500,-4.63750,0.00000,0.00622,0.04429,-0.98613,2023,6,12,11,18,13,569
0.00930,3.08000,-4.34000,0.00000,0.00244,0.04416,-0.98649,2023,6,12,11,18,13,580
0.00940,3.18500,-4.58500,0.00000,0.00476,0.04551,-0.98747,2023,6,12,11,18,13,591
0.00950,3.18500,-4.62000,0.00000,0.00573,0.04538,-0.98576,2023,6,12,11,18,13,602
0.00960,3.27250,-4.56750,0.00000,0.00476,0.04551,-0.98527,2023,6,12,11,18,13,613
0.00970,3.16750,-4.65500,0.00000,0.00671,0.04380,-0.98527,2023,6,12,11,18,13,624
0.00980,3.09750,-4.37500,0.00000,0.00561,0.04538,-0.98649,2023,6,12,11,18,13,635
0.00990,3.08000,-4.60250,0.00000,0.00366,0.04563,-0.98539,2023,6,12,11,18,13,646
0.01000,3.27250,-4.69000,0.00000,0.00720,0.04624,-0.98600,2023,6,12,11,18,13,658
0.01010,3.06250,-4.60250,0.00000,0.00512,0.04660,-0.98722,2023,6,12,11,18,13,669
0.01020,3.37750,-4.46250,0.00000,0.00488,0.04502,-0.98576,2023,6,12,11,18,13,680
0.01030,3.23750,-4.55000,0.00000,0.00610,0.04319,-0.98674,2023,6,12,11,18,13,691
0.01040,3.22000,-4.81250,0.00000,0.00537,0.04673,-0.99027,2023,6,12,11,18,13,702
0.01050,3.20250,-4.58500,0.00000,0.00464,0.04331,-0.98600,2023,6,12,11,18,13,713
0.01060,3.15000,-4.56750,0.00000,0.00598,0.04368,-0.98600,2023,6,12,11,18,13,724
0.01070,3.16750,-4.55000,0.00000,0.00525,0.04636,-0.98649,2023,6,12,11,18,13,735
0.01080,3.29000,-4.60250,0.00000,0.00439,0.04392,-0.98832,2023,6,12,11,18,13,746
0.01090,2.88750,-4.42750,0.00000,0.00451,0.04307,-0.98808,2023,6,12,11,18,13,758
0.01100,3.23750,-4.60250,0.00000,0.00549,0.04404,-0.99015,2023,6,12,11,18,13,769
0.01110,3.29000,-4.56750,0.00000,0.00842,0.04380,-0.98430,2023,6,12,11,18,13,780
0.01120,3.13250,-4.60250,0.00000,0.00695,0.04563,-0.98820,2023,6,12,11,18,13,791
0.01130,3.11500,-4.41000,0.00000,0.00671,0.04380,-0.98588,2023,6,12,11,18,13,802
0.01140,3.04500,-4.46250,0.00000,0.00525,0.04465,-0.98539,2023,6,12,11,18,13,813
0.01150,2.94000,-4.58500,0.00000,0.00317,0.04416,-0.98613,2023,6,12,11,18,13,824
0.01160,3.22000,-4.86500,0.00000,0.00464,0.04331,-0.98515,2023,6,12,11,18,13,835
0.01170,3.02750,-4.44500,0.00000,0.00403,0.04441,-0.98698,2023,6,12,11,18,13,846
0.01180,3.06250,-4.60250,0.00000,0.00586,0.04319,-0.98722,2023,6,12,11,18,13,858
0.01190,3.09750,-4.74250,0.00000,0.00598,0.04319,-0.98527,2023,6,12,11,18,13,869
0.01200,3.08000,-4.72500,0.00000,0.00488,0.04599,-0.98930,2023,6,12,11,18,13,880
0.01210,3.16750,-4.72500,0.00000,0.00610,0.04380,-0.98491,2023,6,12,11,18,13,891
0.01220,3.04500,-4.34000,0.00000,0.00403,0.04429,-0.98674,2023,6,12,11,18,13,902
0.01230,3.04500,-4.72500,0.00000,0.00512,0.04465,-0.98649,2023,6,12,11,18,13,913
0.01240,3.09750,-4.58500,0.00000,0.00403,0.04477,-0.98674,2023,6,12,11,18,13,924
0.01250,3.02750,-4.49750,0.00000,0.00488,0.04624,-0.99015,2023,6,12,11,18,13,935
0.01260,3.11500,-4.62000,0.00000,0.00525,0.04294,-0.98234,2023,6,12,11,18,13,946
0.01270,3.25500,-4.76000,0.00000,0.00720,0.04575,-0.98625,2023,6,12,11,18,13,958
0.01280,2.99250,-4.46250,0.00000,0.00561,0.04404,-0.98857,2023,6,12,11,18,13,969
0.01290,3.18500,-4.62000,0.00000,0.00329,0.04453,-0.98552,2023,6,12,11,18,13,980
0.01300,3.29000,-4.51500,0.00000,0.00586,0.04465,-0.98735,2023,6,12,11,18,14,1
0.01310,3.08000,-4.65500,0.00000,0.00549,0.04343,-0.98442,2023,6,12,11,18,14,12
0.01320,3.34250,-4.62000,0.00000,0.00464,0.04612,-0.98600,2023,6,12,11,18,14,23
0.01330,3.16750,-4.56750,0.00000,0.00598,0.04660,-0.98527,2023,6,12,11,18,14,34
0.01340,3.06250,-4.53250,0.00000,0.00573,0.04514,-0.98661,2023,6,12,11,18,14,45
0.01350,3.13250,-4.16500,0.00000,0.00537,0.04209,-0.98539,2023,6,12,11,18,14,56
0.01360,3.02750,-4.55000,0.00000,0.00415,0.04819,-0.98637,2023,6,12,11,18,14,68
0.01370,3.20250,-4.63750,0.00000,0.00500,0.04319,-0.98783,2023,6,12,11,18,14,79
0.01380,3.23750,-4.41000,0.00000,0.00537,0.04355,-0.98686,2023,6,12,11,18,14,90
0.01390,3.22000,-4.46250,0.00000,0.00512,0.04453,-0.98356,2023,6,12,11,18,14,101
0.01400,3.08000,-4.79500,0.00000,0.00561,0.04612,-0.98637,2023,6,12,11,18,14,112
0.01410,3.13250,-4.63750,0.00000,0.00622,0.04185,-0.98491,2023,6,12,11,18,14,123
0.01420,3.01000,-4.55000,0.00000,0.00415,0.04551,-0.98625,2023,6,12,11,18,14,134
0.01430,2.90500,-4.56750,0.00000,0.00586,0.04404,-0.98759,2023,6,12,11,18,14,145
0.01440,3.02750,-4.49750,0.00000,0.00622,0.04587,-0.98747,2023,6,12,11,18,14,156
0.01450,2.97500,-4.46250,0.00000,0.00586,0.04063,-0.98686,2023,6,12,11,18,14,168
0.01460,3.18500,-4.67250,0.00000,0.00573,0.04551,-0.98710,2023,6,12,11,18,14,179
0.01470,3.08000,-4.60250,0.00000,0.00610,0.04538,-0.98515,2023,6,12,11,18,14,190
0.01480,3.09750,-4.41000,0.00000,0.00464,0.04477,-0.98893,2023,6,12,11,18,14,201
0.01490,3.20250,-4.65500,0.00000,0.00586,0.04685,-0.98710,2023,6,12,11,18,14,212
0.01500,3.01000,-4.56750,0.00000,0.00549,0.04502,-0.98515,2023,6,12,11,18,14,223
0.01510,3.06250,-4.74250,0.00000,0.00476,0.04368,-0.98661,2023,6,12,11,18,14,234
0.01520,3.08000,-4.63750,0.00000,0.00476,0.04587,-0.98625,2023,6,12,11,18,14,245
0.01530,3.23750,-4.53250,0.00000,0.00500,0.04575,-0.98552,2023,6,12,11,18,14,256
0.01540,3.02750,-4.63750,0.00000,0.00744,0.04416,-0.98869,2023,6,12,11,18,14,268
0.01550,3.09750,-4.70750,0.00000,0.00439,0.04563,-0.98686,2023,6,12,11,18,14,279
0.01560,3.27250,-4.72500,0.00000,0.00586,0.04612,-0.99113,2023,6,12,11,18,14,290
0.01570,3.30750,-4.74250,0.00000,0.00817,0.04282,-0.98442,2023,6,12,11,18,14,301
0.01580,3.16750,-4.49750,0.00000,0.00573,0.04331,-0.98686,2023,6,12,11,18,14,312
0.01590,3.11500,-4.49750,0.00000,0.00525,0.04636,-0.98527,2023,6,12,11,18,14,323
0.01600,3.16750,-4.53250,0.00000,0.00451,0.04502,-0.98600,2023,6,12,11,18,14,334
0.01610,3.16750,-4.65500,0.00000,0.00329,0.04636,-0.98564,2023,6,12,11,18,14,345
0.01620,3.13250,-4.65500,0.00000,0.00439,0.04502,-0.98649,2023,6,12,11,18,14,356
0.01630,3.27250,-4.46250,0.00000,0.00671,0.04465,-0.98686,2023,6,12,11,18,14,368
0.01640,3.09750,-4.48000,0.00000,0.00744,0.04599,-0.98783,2023,6,12,11,18,14,379
0.01650,3.13250,-4.58500,0.00000,0.00659,0.04355,-0.98247,2023,6,12,11,18,14,390
0.01660,3.16750,-4.62000,0.00000,0.00573,0.04551,-0.98405,2023,6,12,11,18,14,401
0.01670,3.13250,-4.58500,0.00000,0.00549,0.04441,-0.98491,2023,6,12,11,18,14,412
0.01680,3.18500,-4.81250,0.00000,0.00634,0.04514,-0.98478,2023,6,12,11,18,14,423
0.01690,3.04500,-4.53250,0.00000,0.00634,0.04563,-0.98698,2023,6,12,11,18,14,434
0.01700,3.04500,-4.48000,0.00000,0.00415,0.04612,-0.98649,2023,6,12,11,18,14,445
0.01710,3.04500,-4.53250,0.00000,0.00427,0.04660,-0.98527,2023,6,12,11,18,14,456
0.01720,3.15000,-4.44500,0.00000,0.00598,0.04453,-0.98710,2023,6,12,11,18,14,468
0.01730,3.16750,-4.51500,0.00000,0.00634,0.04624,-0.98454,2023,6,12,11,18,14,479
0.01740,3.02750,-4.62000,0.00000,0.00586,0.04429,-0.98588,2023,6,12,11,18,14,490
0.01750,3.13250,-4.53250,0.00000,0.00451,0.04575,-0.98588,2023,6,12,11,18,14,501
0.01760,3.11500,-4.51500,0.00000,0.00744,0.04538,-0.98356,2023,6,12,11,18,14,512
0.01770,2.99250,-4.32250,0.00000,0.00525,0.04477,-0.98478,2023,6,12,11,18,14,523
0.01780,3.22000,-4.77750,0.00000,0.00549,0.04453,-0.98649,2023,6,12,11,18,14,534
0.01790,2.99250,-4.53250,0.00000,0.00476,0.04343,-0.98649,2023,6,12,11,18,14,545
0.01800,3.11500,-4.72500,0.00000,0.00439,0.04404,-0.98844,2023,6,12,11,18,14,556
0.01810,3.16750,-4.70750,0.00000,0.00549,0.04307,-0.98893,2023,6,12,11,18,14,568
0.01820,3.08000,-4.69000,0.00000,0.00647,0.04575,-0.98393,2023,6,12,11,18,14,579
0.01830,3.15000,-4.46250,0.00000,0.00781,0.04368,-0.98686,2023,6,12,11,18,14,590
0.01840,3.08000,-4.67250,0.00000,0.00512,0.04465,-0.98600,2023,6,12,11,18,14,601
0.01850,3.18500,-4.67250,0.00000,0.00488,0.04477,-0.98844,2023,6,12,11,18,14,612
0.01860,3.13250,-4.53250,0.00000,0.00451,0.04563,-0.98661,2023,6,12,11,18,14,623
0.01870,3.20250,-4.58500,0.00000,0.00793,0.04673,-0.98466,2023,6,12,11,18,14,634
0.01880,3.20250,-4.83000,0.00000,0.00695,0.04343,-0.98637,2023,6,12,11,18,14,645
0.01890,3.13250,-4.44500,0.00000,0.00451,0.04429,-0.98844,2023,6,12,11,18,14,656
0.01900,3.08000,-4.37500,0.00000,0.00512,0.04563,-0.98771,2023,6,12,11,18,14,668
0.01910,3.25500,-4.56750,0.00000,0.00500,0.04404,-0.98637,2023,6,12,11,18,14,679
0.01920,3.09750,-4.63750,0.00000,0.00622,0.04416,-0.98918,2023,6,12,11,18,14,690
0.01930,2.92250,-4.58500,0.00000,0.00403,0.04551,-0.98491,2023,6,12,11,18,14,701
0.01940,3.22000,-4.67250,0.00000,0.00525,0.04599,-0.98588,2023,6,12,11,18,14,712
0.01950,3.22000,-4.60250,0.00000,0.00464,0.04490,-0.98613,2023,6,12,11,18,14,723
0.01960,3.02750,-4.48000,0.00000,0.00647,0.04551,-0.98893,2023,6,12,11,18,14,734
0.01970,3.30750,-4.83000,0.00000,0.00512,0.04526,-0.98783,2023,6,12,11,18,14,745
0.01980,3.18500,-4.76000,0.00000,0.00488,0.04477,-0.98991,2023,6,12,11,18,14,756
0.01990,3.02750,-4.58500,0.00000,0.00476,0.04429,-0.98564,2023,6,12,11,18,14,768
0.02000,3.09750,-4.49750,0.00000,0.00537,0.04538,-0.98637,2023,6,12,11,18,14,779
0.02010,3.18500,-4.58500,0.00000,0.00488,0.04441,-0.98759,2023,6,12,11,18,14,790
0.02020,3.15000,-4.83000,0.00000,0.00390,0.04294,-0.98698,2023,6,12,11,18,14,801
0.02030,3.23750,-4.70750,0.00000,0.00525,0.04502,-0.98735,2023,6,12,11,18,14,812
0.02040,3.02750,-4.51500,0.00000,0.00415,0.04465,-0.98320,2023,6,12,11,18,14,823
0.02050,3.04500,-4.55000,0.00000,0.00671,0.04538,-0.98491,2023,6,12,11,18,14,834
0.02060,3.06250,-4.39250,0.00000,0.00586,0.04538,-0.98649,2023,6,12,11,18,14,845
0.02070,3.11500,-4.56750,0.00000,0.00537,0.04477,-0.98759,2023,6,12,11,18,14,856
0.02080,2.99250,-4.88250,0.00000,0.00793,0.04453,-0.98600,2023,6,12,11,18,14,868
0.02090,3.18500,-4.69000,0.00000,0.00525,0.04380,-0.98686,2023,6,12,11,18,14,879
0.02100,3.02750,-4.51500,0.00000,0.00549,0.04490,-0.98674,2023,6,12,11,18,14,890
0.02110,3.16750,-4.95250,0.00000,0.00415,0.04502,-0.98686,2023,6,12,11,18,14,901
0.02120,3.01000,-4.60250,0.00000,0.00549,0.04294,-0.98527,2023,6,12,11,18,14,912
0.02130,3.01000,-4.55000,0.00000,0.00634,0.04368,-0.98527,2023,6,12,11,18,14,923
0.02140,2.87000,-4.42750,0.00000,0.00659,0.04660,-0.98539,2023,6,12,11,18,14,934
0.02150,3.16750,-4.65500,0.00000,0.00708,0.04490,-0.98466,2023,6,12,11,18,14,945
0.02160,3.18500,-4.81250,0.00000,0.00647,0.04551,-0.98552,2023,6,12,11,18,14,956
0.02170,2.87000,-4.56750,0.00000,0.00561,0.04343,-0.98369,2023,6,12,11,18,14,968
0.02180,2.97500,-4.42750,0.00000,0.00525,0.04526,-0.98576,2023,6,12,11,18,15,9
0.02190,3.09750,-4.56750,0.00000,0.00476,0.04502,-0.98417,2023,6,12,11,18,15,20
0.02200,3.09750,-4.56750,0.00000,0.00500,0.04331,-0.98686,2023,6,12,11,18,15,31
0.02210,3.30750,-4.86500,0.00000,0.00525,0.04587,-0.98503,2023,6,12,11,18,15,42
0.02220,3.15000,-4.44500,0.00000,0.00488,0.04526,-0.98405,2023,6,12,11,18,15,53
0.02230,3.13250,-4.70750,0.00000,0.00500,0.04612,-0.98759,2023,6,12,11,18,15,64
0.02240,3.06250,-4.72500,0.00000,0.00683,0.04441,-0.98332,2023,6,12,11,18,15,75
0.02250,3.01000,-4.42750,0.00000,0.00634,0.04490,-0.98552,2023,6,12,11,18,15,86
0.02260,3.20250,-4.39250,0.00000,0.00671,0.04575,-0.98503,2023,6,12,11,18,15,98
0.02270,3.11500,-4.83000,0.00000,0.00634,0.04526,-0.98771,2023,6,12,11,18,15,109
0.02280,3.15000,-4.63750,0.00000,0.00476,0.04612,-0.98625,2023,6,12,11,18,15,120
0.02290,3.13250,-4.70750,0.00000,0.00464,0.04453,-0.98527,2023,6,12,11,18,15,131
0.02300,3.04500,-4.56750,0.00000,0.00586,0.04502,-0.98515,2023,6,12,11,18,15,142
0.02310,3.23750,-4.81250,0.00000,0.00537,0.04477,-0.98844,2023,6,12,11,18,15,153
0.02320,3.11500,-4.53250,0.00000,0.00671,0.04282,-0.98747,2023,6,12,11,18,15,164
0.02330,3.22000,-4.62000,0.00000,0.00793,0.04233,-0.98613,2023,6,12,11,18,15,175
0.02340,3.11500,-4.62000,0.00000,0.00512,0.04380,-0.98503,2023,6,12,11,18,15,186
0.02350,3.01000,-4.65500,0.00000,0.00598,0.04490,-0.98564,2023,6,12,11,18,15,198
0.02360,3.22000,-4.63750,0.00000,0.00647,0.04294,-0.98759,2023,6,12,11,18,15,209
0.02370,3.06250,-4.63750,0.00000,0.00683,0.04599,-0.98442,2023,6,12,11,18,15,220
0.02380,3.20250,-4.56750,0.00000,0.00659,0.04502,-0.98539,2023,6,12,11,18,15,231
0.02390,3.09750,-4.69000,0.00000,0.00708,0.04416,-0.98466,2023,6,12,11,18,15,242
0.02400,3.18500,-4.39250,0.00000,0.00622,0.04465,-0.98588,2023,6,12,11,18,15,253
0.02410,3.16750,-4.58500,0.00000,0.00464,0.04477,-0.98710,2023,6,12,11,18,15,264
0.02420,3.23750,-4.55000,0.00000,0.00769,0.04673,-0.98466,2023,6,12,11,18,15,275
0.02430,3.15000,-4.62000,0.00000,0.00610,0.04526,-0.98271,2023,6,12,11,18,15,286
0.02440,3.16750,-4.58500,0.00000,0.00561,0.04368,-0.98637,2023,6,12,11,18,15,298
0.02450,3.29000,-4.70750,0.00000,0.00537,0.04697,-0.98442,2023,6,12,11,18,15,309
0.02460,3.15000,-4.76000,0.00000,0.00659,0.04538,-0.98564,2023,6,12,11,18,15,320
0.02470,3.09750,-4.48000,0.00000,0.00732,0.04404,-0.98625,2023,6,12,11,18,15,331
0.02480,3.11500,-4.60250,0.00000,0.00512,0.04124,-0.98527,2023,6,12,11,18,15,342
0.02490,3.09750,-4.65500,0.00000,0.00525,0.04551,-0.98491,2023,6,12,11,18,15,353
0.02500,3.23750,-4.51500,0.00000,0.00598,0.04685,-0.98576,2023,6,12,11,18,15,364
0.02510,3.20250,-4.37500,0.00000,0.00695,0.04563,-0.98503,2023,6,12,11,18,15,375
0.02520,3.06250,-4.39250,0.00000,0.00464,0.04416,-0.98539,2023,6,12,11,18,15,386
0.02530,3.09750,-4.42750,0.00000,0.00561,0.04331,-0.98588,2023,6,12,11,18,15,398
0.02540,2.99250,-4.53250,0.00000,0.00586,0.04355,-0.98661,2023,6,12,11,18,15,409
0.02550,3.22000,-4.72500,0.00000,0.00964,0.04404,-0.98564,2023,6,12,11,18,15,420
0.02560,3.08000,-4.35750,0.00000,0.00525,0.04416,-0.98844,2023,6,12,11,18,15,431
0.02570,3.04500,-4.44500,0.00000,0.00403,0.04551,-0.98686,2023,6,12,11,18,15,442
0.02580,3.15000,-4.51500,0.00000,0.00634,0.04612,-0.98588,2023,6,12,11,18,15,453
0.02590,3.20250,-4.62000,0.00000,0.00586,0.04416,-0.98576,2023,6,12,11,18,15,464
0.02600,3.22000,-4.44500,0.00000,0.00427,0.04575,-0.98539,2023,6,12,11,18,15,475
0.02610,3.20250,-4.72500,0.00000,0.00695,0.04307,-0.98808,2023,6,12,11,18,15,486
0.02620,2.94000,-4.48000,0.00000,0.00439,0.04709,-0.98686,2023,6,12,11,18,15,498
0.02630,3.11500,-4.69000,0.00000,0.00439,0.04429,-0.98527,2023,6,12,11,18,15,509
0.02640,3.09750,-4.62000,0.00000,0.00549,0.04307,-0.98661,2023,6,12,11,18,15,520
0.02650,3.11500,-4.41000,0.00000,0.00476,0.04465,-0.98613,2023,6,12,11,18,15,531
0.02660,3.18500,-4.69000,0.00000,0.00220,0.04343,-0.98710,2023,6,12,11,18,15,542
0.02670,3.29000,-4.60250,0.00000,0.00403,0.04612,-0.98491,2023,6,12,11,18,15,553
0.02680,3.13250,-4.58500,0.00000,0.00329,0.04246,-0.98600,2023,6,12,11,18,15,564
0.02690,3.04500,-4.56750,0.00000,0.00464,0.04429,-0.98747,2023,6,12,11,18,15,575
0.02700,2.87000,-4.62000,0.00000,0.00549,0.04685,-0.98637,2023,6,12,11,18,15,586
0.02710,3.18500,-4.72500,0.00000,0.00488,0.04477,-0.98454,2023,6,12,11,18,15,598
0.02720,3.09750,-4.56750,0.00000,0.00451,0.04465,-0.98674,2023,6,12,11,18,15,609
0.02730,2.90500,-4.41000,0.00000,0.00561,0.04648,-0.98271,2023,6,12,11,18,15,620
0.02740,3.36000,-4.62000,0.00000,0.00708,0.04429,-0.98564,2023,6,12,11,18,15,631
0.02750,2.94000,-4.63750,0.00000,0.00549,0.04258,-0.98637,2023,6,12,11,18,15,642
0.02760,3.25500,-4.88250,0.00000,0.00439,0.04538,-0.98674,2023,6,12,11,18,15,653
0.02770,3.04500,-4.77750,0.00000,0.00500,0.04392,-0.98722,2023,6,12,11,18,15,664
0.02780,3.08000,-4.65500,0.00000,0.00464,0.04526,-0.98503,2023,6,12,11,18,15,675
0.02790,3.08000,-4.76000,0.00000,0.00756,0.04575,-0.98698,2023,6,12,11,18,15,686
0.02800,3.20250,-4.65500,0.00000,0.00549,0.04392,-0.98539,2023,6,12,11,18,15,698
0.02810,3.13250,-4.70750,0.00000,0.00415,0.04502,-0.98417,2023,6,12,11,18,15,709
0.02820,3.13250,-4.49750,0.00000,0.00427,0.04429,-0.98454,2023,6,12,11,18,15,720
0.02830,3.08000,-4.48000,0.00000,0.00586,0.04453,-0.98649,2023,6,12,11,18,15,731
0.02840,3.23750,-4.55000,0.00000,0.00549,0.04612,-0.98637,2023,6,12,11,18,15,742
0.02850,3.27250,-4.48000,0.00000,0.00659,0.04270,-0.98893,2023,6,12,11,18,15,753
0.02860,3.11500,-4.53250,0.00000,0.00403,0.04660,-0.98405,2023,6,12,11,18,15,764
0.02870,3.23750,-4.53250,0.00000,0.00525,0.04258,-0.98710,2023,6,12,11,18,15,775
0.02880,3.22000,-4.65500,0.00000,0.00525,0.04258,-0.98783,2023,6,12,11,18,15,786
0.02890,3.20250,-4.65500,0.00000,0.00598,0.04490,-0.98613,2023,6,12,11,18,15,798
0.02900,3.02750,-4.55000,0.00000,0.00451,0.04502,-0.98491,2023,6,12,11,18,15,809
0.02910,3.04500,-4.56750,0.00000,0.00549,0.04441,-0.98637,2023,6,12,11,18,15,820
0.02920,3.02750,-4.62000,0.00000,0.00549,0.04221,-0.98576,2023,6,12,11,18,15,831
0.02930,3.06250,-4.56750,0.00000,0.00537,0.04416,-0.98613,2023,6,12,11,18,15,842
0.02940,2.94000,-4.44500,0.00000,0.00634,0.04465,-0.98539,2023,6,12,11,18,15,853
0.02950,3.06250,-4.48000,0.00000,0.00610,0.04429,-0.98857,2023,6,12,11,18,15,864
0.02960,2.90500,-4.55000,0.00000,0.00598,0.04392,-0.98405,2023,6,12,11,18,15,875
0.02970,3.16750,-4.48000,0.00000,0.00415,0.04441,-0.98759,2023,6,12,11,18,15,886
0.02980,3.16750,-4.60250,0.00000,0.00769,0.04453,-0.98405,2023,6,12,11,18,15,898
0.02990,3.09750,-4.28750,0.00000,0.00512,0.04453,-0.98893,2023,6,12,11,18,15,909
0.03000,2.88750,-4.53250,0.00000,0.00586,0.04477,-0.98552,2023,6,12,11,18,15,920
0.03010,3.20250,-4.51500,0.00000,0.00464,0.04538,-0.98661,2023,6,12,11,18,15,931
0.03020,3.15000,-4.74250,0.00000,0.00549,0.04355,-0.98344,2023,6,12,11,18,15,942
0.03030,3.09750,-4.62000,0.00000,0.00476,0.04526,-0.98979,2023,6,12,11,18,15,953
0.03040,3.04500,-4.62000,0.00000,0.00500,0.04368,-0.98503,2023,6,12,11,18,15,964
0.03050,2.99250,-4.35750,0.00000,0.00232,0.04282,-0.98564,2023,6,12,11,18,15,975
0.03060,3.34250,-4.46250,0.00000,0.00366,0.04526,-0.98613,2023,6,12,11,18,15,986
0.03070,2.92250,-4.58500,0.00000,0.00525,0.04575,-0.98613,2023,6,12,11,18,16,8
0.03080,3.34250,-4.67250,0.00000,0.00403,0.04380,-0.98637,2023,6,12,11,18,16,19
0.03090,2.88750,-4.35750,0.00000,0.00549,0.04526,-0.98576,2023,6,12,11,18,16,30
0.03100,3.16750,-4.55000,0.00000,0.00634,0.04502,-0.98564,2023,6,12,11,18,16,41
0.03110,3.06250,-4.55000,0.00000,0.00817,0.04246,-0.98722,2023,6,12,11,18,16,52
0.03120,3.15000,-4.67250,0.00000,0.00415,0.04612,-0.98491,2023,6,12,11,18,16,63
0.03130,3.22000,-4.62000,0.00000,0.00464,0.04380,-0.98417,2023,6,12,11,18,16,74
0.03140,3.13250,-4.84750,0.00000,0.00744,0.04429,-0.98588,2023,6,12,11,18,16,85
0.03150,2.94000,-4.60250,0.00000,0.00720,0.04599,-0.98283,2023,6,12,11,18,16,96
0.03160,3.22000,-4.56750,0.00000,0.00525,0.04453,-0.98722,2023,6,12,11,18,16,108
0.03170,3.04500,-4.67250,0.00000,0.00610,0.04648,-0.98588,2023,6,12,11,18,16,119
0.03180,2.97500,-4.51500,0.00000,0.00342,0.04380,-0.98661,2023,6,12,11,18,16,130
0.03190,3.30750,-4.67250,0.00000,0.00622,0.04441,-0.98564,2023,6,12,11,18,16,141
0.03200,2.94000,-4.51500,0.00000,0.00451,0.04551,-0.98491,2023,6,12,11,18,16,152
0.03210,2.99250,-4.46250,0.00000,0.00451,0.04331,-0.98686,2023,6,12,11,18,16,163
0.03220,3.20250,-4.72500,0.00000,0.00695,0.04709,-0.98808,2023,6,12,11,18,16,174
0.03230,2.99250,-4.28750,0.00000,0.00525,0.04343,-0.98869,2023,6,12,11,18,16,185
0.03240,3.16750,-4.60250,0.00000,0.00610,0.04599,-0.98515,2023,6,12,11,18,16,196
0.03250,2.99250,-4.39250,0.00000,0.00464,0.04343,-0.98991,2023,6,12,11,18,16,208
0.03260,3.02750,-4.51500,0.00000,0.00537,0.04490,-0.98832,2023,6,12,11,18,16,219
0.03270,3.04500,-4.74250,0.00000,0.00366,0.04294,-0.98454,2023,6,12,11,18,16,230
0.03280,3.23750,-4.48000,0.00000,0.00464,0.04563,-0.98491,2023,6,12,11,18,16,241
0.03290,2.99250,-4.46250,0.00000,0.00683,0.04465,-0.98698,2023,6,12,11,18,16,252
0.03300,5.68750,-5.96750,0.00000,0.00281,0.05039,-0.98137,2023,6,12,11,18,16,263
0.03310,2.94000,-4.77750,0.00000,0.00512,0.03758,-0.98869,2023,6,12,11,18,16,274
0.03320,1.94250,-4.07750,0.00000,0.00488,0.04050,-0.98369,2023,6,12,11,18,16,285
0.03330,3.15000,-4.51500,0.00000,0.00476,0.04099,-0.98808,2023,6,12,11,18,16,296
0.03340,1.85500,-4.04250,0.00000,0.00610,0.04612,-0.98515,2023,6,12,11,18,16,308
0.03350,4.02500,-5.11000,0.00000,0.00500,0.04002,-0.99064,2023,6,12,11,18,16,319
0.03360,2.87000,-4.35750,0.00000,0.00793,0.04514,-0.98356,2023,6,12,11,18,16,330
0.03370,3.44750,-4.72500,0.00000,0.00586,0.04307,-0.98869,2023,6,12,11,18,16,341
0.03380,3.13250,-4.58500,0.00000,0.00720,0.04636,-0.98552,2023,6,12,11,18,16,352
0.03390,2.76500,-4.32250,0.00000,0.00586,0.04380,-0.98552,2023,6,12,11,18,16,363
0.03400,3.55250,-4.83000,0.00000,0.00537,0.04502,-0.98466,2023,6,12,11,18,16,374
0.03410,2.81750,-4.46250,0.00000,0.00317,0.04685,-0.98527,2023,6,12,11,18,16,385
0.03420,3.20250,-4.70750,0.00000,0.00366,0.04404,-0.98869,2023,6,12,11,18,16,396
0.03430,2.99250,-4.63750,0.00000,0.00500,0.04575,-0.98503,2023,6,12,11,18,16,408
0.03440,2.95750,-4.41000,0.00000,0.00573,0.04441,-0.98454,2023,6,12,11,18,16,419
0.03450,3.29000,-4.83000,0.00000,0.00598,0.04502,-0.98613,2023,6,12,11,18,16,430
0.03460,2.99250,-4.69000,0.00000,0.00610,0.04551,-0.98869,2023,6,12,11,18,16,441
0.03470,3.02750,-4.65500,0.00000,0.00610,0.04368,-0.98613,2023,6,12,11,18,16,452
0.03480,0.73500,-3.29000,0.00000,0.01464,0.03172,-0.97966,2023,6,12,11,18,16,463
0.03490,1.75000,-3.71000,0.00000,-0.00525,0.10468,-0.99162,2023,6,12,11,18,16,474
0.03500,3.25500,-4.60250,0.00000,0.00573,0.04343,-0.98869,2023,6,12,11,18,16,485
0.03510,2.39750,-4.30500,0.00000,0.00842,0.04368,-0.98600,2023,6,12,11,18,16,496
0.03520,2.92250,-4.25250,0.00000,0.00866,0.04429,-0.98564,2023,6,12,11,18,16,508
0.03530,2.62500,-4.46250,0.00000,0.00744,0.04307,-0.98698,2023,6,12,11,18,16,519
0.03540,1.36500,-3.62250,0.00000,0.00817,0.02062,-0.97722,2023,6,12,11,18,16,530
0.03550,4.20000,-5.16250,0.00000,0.00342,0.04697,-0.98564,2023,6,12,11,18,16,541
0.03560,2.64250,-4.25250,0.00000,0.00464,0.04087,-0.99186,2023,6,12,11,18,16,552
0.03570,5.86250,-5.40750,0.00000,0.01208,0.01659,-0.97881,2023,6,12,11,18,16,563
0.03580,2.57250,-4.06000,0.00000,0.00415,0.00939,-0.96661,2023,6,12,11,18,16,574
0.03590,0.61250,-3.57000,0.00000,0.01867,-0.01293,-0.97661,2023,6,12,11,18,16,585
0.03600,3.25500,-5.72250,0.00000,-0.00952,-0.01989,-1.02224,2023,6,12,11,18,16,596
0.03610,4.72500,-3.99000,0.00000,0.05527,-0.03416,-0.88645,2023,6,12,11,18,16,608
0.03620,2.38000,-4.41000,0.00000,-0.01623,-0.02562,-0.93513,2023,6,12,11,18,16,619
0.03630,11.00750,-7.91000,0.00000,-0.00964,0.16202,-0.89304,2023,6,12,11,18,16,630
0.03640,2.67750,-4.65500,0.00000,0.06515,0.16873,-0.97075,2023,6,12,11,18,16,641
0.03650,8.33000,-6.96500,0.00000,-0.00012,0.07906,-0.98942,2023,6,12,11,18,16,652
0.03660,10.27250,-7.94500,0.00000,-0.00342,0.04490,-0.99967,2023,6,12,11,18,16,663
0.03670,6.86000,-6.42250,0.00000,0.00537,0.03050,-1.00455,2023,6,12,11,18,16,674
0.03680,6.77250,-5.96750,0.00000,-0.01208,0.05649,-0.96673,2023,6,12,11,18,16,685
0.03690,10.57000,-8.31250,0.00000,0.00781,0.03672,-0.98356,2023,6,12,11,18,16,696
0.03700,8.17250,-7.05250,0.00000,0.00354,0.03721,-0.98747,2023,6,12,11,18,16,708
0.03710,10.01000,-7.91000,0.00000,0.00805,0.04526,-0.97100,2023,6,12,11,18,16,719
0.03720,17.16750,-11.30500,0.00000,-0.00769,0.02806,-0.99308,2023,6,12,11,18,16,730
0.03730,12.30250,-8.99500,0.00000,0.00573,0.03538,-0.98649,2023,6,12,11,18,16,741
0.03740,9.67750,-7.61250,0.00000,0.00903,0.02538,-0.98832,2023,6,12,11,18,16,752
0.03750,12.79250,-9.08250,0.00000,-0.00586,0.02416,-0.98588,2023,6,12,11,18,16,763
0.03760,8.50500,-7.08750,0.00000,0.01501,0.01208,-0.99332,2023,6,12,11,18,16,774
0.03770,6.63250,-7.52500,0.00000,-0.01806,0.01903,-0.97551,2023,6,12,11,18,16,785
0.03780,10.53500,-8.38250,0.00000,0.02013,-0.03221,-0.97515,2023,6,12,11,18,16,796
0.03790,9.36250,-8.05000,0.00000,-0.01720,0.01915,-0.97405,2023,6,12,11,18,16,808
0.03800,9.50250,-8.20750,0.00000,-0.02037,0.11468,-1.00687,2023,6,12,11,18,16,819
0.03810,6.30000,-5.65250,0.00000,0.05344,-0.05807,-0.96185,2023,6,12,11,18,16,830
0.03820,16.39750,-8.85500,0.00000,0.00598,0.02123,-1.10386,2023,6,12,11,18,16,841
0.03830,16.88750,-9.10000,0.00000,0.03343,-0.08821,-0.86913,2023,6,12,11,18,16,852
0.03840,8.75000,-4.77750,0.00000,0.02025,-0.03538,-1.01772,2023,6,12,11,18,16,863
0.03850,14.94500,-9.39750,0.00000,-0.00586,-0.03148,-0.92464,2023,6,12,11,18,16,874
0.03860,11.77750,-6.87750,0.00000,-0.07967,0.02989,-1.10154,2023,6,12,11,18,16,885
0.03870,-14.28000,-9.10000,0.00000,0.00732,0.05136,-0.97893,2023,6,12,11,18,16,896
0.03880,-26.33750,-7.73500,0.00000,-0.03623,0.04221,-0.97722,2023,6,12,11,18,16,908
0.03890,-24.72750,-6.40500,0.00000,-0.00708,0.03026,-0.98857,2023,6,12,11,18,16,919
0.03900,-17.36000,-8.87250,0.00000,-0.00134,0.04075,-0.97112,2023,6,12,11,18,16,930
0.03910,-17.39500,-11.27000,0.00000,-0.01208,0.02355,-1.01053,2023,6,12,11,18,16,941
0.03920,-21.84000,-18.63750,0.00000,0.00012,0.00537,-1.06323,2023,6,12,11,18,16,952
0.03930,-16.32750,-7.61250,0.00000,0.00098,0.03831,-1.05786,2023,6,12,11,18,16,963
0.03940,-62.26500,-16.55500,0.00000,-0.02111,0.01574,-1.05286,2023,6,12,11,18,16,974
0.03950,-74.90000,-18.51500,0.00000,-0.01281,0.07527,-0.96173,2023,6,12,11,18,17,5
0.03960,-59.32500,-15.64500,0.00000,-0.02098,0.10077,-0.94611,2023,6,12,11,18,17,16
0.03970,-26.32000,-10.97250,0.00000,-0.03806,0.08381,-0.93379,2023,6,12,11,18,17,28
0.03980,-11.27000,-7.63000,0.00000,-0.01049,0.14494,-1.01394,2023,6,12,11,18,17,39
0.03990,-22.31250,-9.55500,0.00000,-0.01208,0.10419,-1.00455,2023,6,12,11,18,17,50
0.04000,-15.59250,-8.27750,0.00000,-0.02708,0.10565,-0.94147,2023,6,12,11,18,17,61
0.04010,0.00000,-5.72250,0.00000,-0.03160,0.09296,-0.98832,2023,6,12,11,18,17,72
0.04020,-8.17250,-7.03500,0.00000,-0.02550,0.10065,-0.97490,2023,6,12,11,18,17,83
0.04030,-8.10250,-6.77250,0.00000,-0.02037,0.11297,-0.99735,2023,6,12,11,18,17,94
0.04040,-14.12250,-7.98000,0.00000,-0.03123,0.06124,-0.98295,2023,6,12,11,18,17,105
0.04050,-29.08500,-10.27250,0.00000,-0.03965,0.08772,-0.96697,2023,6,12,11,18,17,116
0.04060,-37.80000,-11.27000,0.00000,-0.03026,0.11846,-0.99820,2023,6,12,11,18,17,128
0.04070,-34.05500,-10.90250,0.00000,-0.03184,0.13213,-0.97234,2023,6,12,11,18,17,139
0.04080,-29.36500,-9.92250,0.00000,-0.03416,0.14250,-0.97161,2023,6,12,11,18,17,150
0.04090,-32.74250,-10.57000,0.00000,-0.03806,0.14042,-0.97429,2023,6,12,11,18,17,161
0.04100,-56.05250,-14.96250,0.00000,-0.04050,0.15006,-0.96502,2023,6,12,11,18,17,172
0.04110,-59.76250,-14.08750,0.00000,-0.04404,0.12383,-0.96014,2023,6,12,11,18,17,183
0.04120,-67.04250,-14.92750,0.00000,-0.01574,0.17836,-1.03700,2023,6,12,11,18,17,194
0.04130,-57.36500,-13.87750,0.00000,-0.04050,0.21582,-0.91000,2023,6,12,11,18,17,205
0.04140,-23.48500,-8.71500,0.00000,-0.04063,0.21387,-0.94013,2023,6,12,11,18,17,216
0.04150,-35.17500,-9.85250,0.00000,-0.03562,0.16360,-1.05506,2023,6,12,11,18,17,228
0.04160,-77.75250,-16.67750,0.00000,-0.03806,0.18947,-1.01528,2023,6,12,11,18,17,239
0.04170,-87.74500,-17.65750,0.00000,-0.03928,0.23046,-0.96807,2023,6,12,11,18,17,250
0.04180,-88.95250,-17.88500,0.00000,-0.05234,0.22838,-0.96978,2023,6,12,11,18,17,261
0.04190,-102.23500,-18.13000,0.00000,-0.02806,0.25339,-1.05323,2023,6,12,11,18,17,272
0.04200,-136.09750,-23.81750,0.00000,-0.05868,0.22497,-1.03907,2023,6,12,11,18,17,283
0.04210,-164.71000,-27.73750,0.00000,-0.05466,0.32049,-0.99174,2023,6,12,11,18,17,294
0.04220,-177.29250,-26.58250,0.00000,-0.08076,0.31464,-0.89987,2023,6,12,11,18,17,305
0.04230,-192.34250,-26.88000,0.00000,-0.10321,0.32903,-0.91293,2023,6,12,11,18,17,316
0.04240,-200.23500,-22.20750,0.00000,-0.08796,0.35404,-0.86547,2023,6,12,11,18,17,328
0.04250,-198.97500,-21.35000,0.00000,-0.05368,0.50044,-0.83619,2023,6,12,11,18,17,339
0.04260,-184.92250,-18.16500,0.00000,-0.06539,0.58731,-0.86571,2023,6,12,11,18,17,350
0.04270,-209.26500,-18.86500,0.00000,-0.09309,0.48715,-0.86815,2023,6,12,11,18,17,361
0.04280,-230.45750,-19.35500,0.00000,-0.07418,0.56254,-0.78666,2023,6,12,11,18,17,372
0.04290,-233.18750,-18.60250,0.00000,-0.08857,0.64770,-0.73420,2023,6,12,11,18,17,383
0.04300,-223.37000,-14.70000,0.00000,-0.09687,0.52082,-0.67771,2023,6,12,11,18,17,394
0.04310,-213.76250,-12.93250,0.00000,-0.10260,0.60549,-0.71919,2023,6,12,11,18,17,405
0.04320,-208.98500,-11.55000,0.00000,-0.09516,0.69198,-0.67698,2023,6,12,11,18,17,416
0.04330,-213.58750,-9.78250,0.00000,-0.07588,0.79239,-0.75567,2023,6,12,11,18,17,428
0.04340,-143.83250,-9.57250,0.00000,-0.05588,0.82387,-0.64257,2023,6,12,11,18,17,439
0.04350,-126.47250,-4.44500,0.00000,-0.05331,0.80776,-0.57804,2023,6,12,11,18,17,450
0.04360,-117.79250,-2.24000,0.00000,-0.08784,0.78666,-0.49971,2023,6,12,11,18,17,461
0.04370,-90.56250,-0.03500,0.00000,-0.05173,0.83680,-0.55364,2023,6,12,11,18,17,472
0.04380,-84.15750,-3.69250,0.00000,-0.05124,0.82143,-0.52948,2023,6,12,11,18,17,483
0.04390,-66.71000,-2.39750,0.00000,-0.05197,0.86278,-0.47214,2023,6,12,11,18,17,494
0.04400,-47.28500,2.32750,0.00000,-0.05685,0.84204,-0.51008,2023,6,12,11,18,17,505
0.04410,-57.41750,1.15500,0.00000,-0.05466,0.81533,-0.57499,2023,6,12,11,18,17,516
0.04420,-64.20750,-2.64250,0.00000,-0.06686,0.86522,-0.44310,2023,6,12,11,18,17,528
0.04430,-61.25000,2.60750,0.00000,-0.06942,0.82814,-0.53021,2023,6,12,11,18,17,539
0.04440,-63.75250,-1.52250,0.00000,-0.06515,0.88194,-0.46885,2023,6,12,11,18,17,550
0.04450,-57.12000,2.85250,0.00000,-0.06015,0.84900,-0.51521,2023,6,12,11,18,17,561
0.04460,-75.30250,-1.69750,0.00000,-0.05929,0.86230,-0.45957,2023,6,12,11,18,17,572
0.04470,-94.48250,0.42000,0.00000,-0.01574,0.86583,-0.42773,2023,6,12,11,18,17,583
0.04480,-95.46250,-2.01250,0.00000,-0.04685,0.90561,-0.40736,2023,6,12,11,18,17,594
0.04490,-83.61500,-0.47250,0.00000,-0.03233,0.91976,-0.46628,2023,6,12,11,18,17,605
0.04500,-85.62750,-4.06000,0.00000,-0.04124,0.90927,-0.33452,2023,6,12,11,18,17,616
0.04510,-70.89250,-2.01250,0.00000,-0.05039,0.90658,-0.38247,2023,6,12,11,18,17,628
0.04520,-105.21000,0.19250,0.00000,-0.03062,0.92025,-0.30061,2023,6,12,11,18,17,639
0.04530,-113.64500,1.94250,0.00000,-0.01366,0.86827,-0.22216,2023,6,12,11,18,17,650
0.04540,-104.91250,9.20500,0.00000,-0.02306,0.95136,-0.22485,2023,6,12,11,18,17,661
0.04550,-123.72500,10.16750,0.00000,-0.01464,0.98466,-0.38833,2023,6,12,11,18,17,672
0.04560,-81.25250,1.40000,0.00000,-0.07454,1.00528,-0.25535,2023,6,12,11,18,17,683
0.04570,-65.29250,6.30000,0.00000,-0.01842,0.93611,-0.32696,2023,6,12,11,18,17,694
0.04580,-71.66250,1.87250,0.00000,-0.01488,0.91720,-0.28499,2023,6,12,11,18,17,705
0.04590,-9.48500,8.36500,0.00000,0.03245,0.97454,-0.19971,2023,6,12,11,18,17,716
0.04600,-7.82250,11.28750,0.00000,-0.02879,0.95319,-0.27145,2023,6,12,11,18,17,728
0.04610,-8.57500,6.51000,0.00000,-0.01208,0.96600,-0.24827,2023,6,12,11,18,17,739
0.04620,-26.33750,0.19250,0.00000,-0.00207,0.96612,-0.29304,2023,6,12,11,18,17,750
0.04630,-43.10250,-0.12250,0.00000,-0.03562,0.95538,-0.25303,2023,6,12,11,18,17,761
0.04640,-67.86500,3.01000,0.00000,0.02440,0.98271,-0.22021,2023,6,12,11,18,17,772
0.04650,-60.67250,2.29250,0.00000,-0.00366,0.97441,-0.19398,2023,6,12,11,18,17,783
0.04660,-36.01500,-10.65750,0.00000,-0.04075,0.96099,-0.29939,2023,6,12,11,18,17,794
0.04670,-55.63250,-24.48250,0.00000,0.00122,0.96465,-0.12395,2023,6,12,11,18,17,805
0.04680,-27.66750,-11.49750,0.00000,0.01574,1.00674,-0.20411,2023,6,12,11,18,17,816
0.04690,-42.28000,-6.86000,0.00000,-0.00842,0.99381,-0.21191,2023,6,12,11,18,17,828
0.04700,-81.09500,-4.53250,0.00000,-0.06076,0.94696,-0.16055,2023,6,12,11,18,17,839
0.04710,-99.64500,-5.61750,0.00000,-0.00878,0.95502,-0.12834,2023,6,12,11,18,17,850
0.04720,-82.19750,-14.45500,0.00000,-0.01391,1.01321,-0.15372,2023,6,12,11,18,17,861
0.04730,-118.17750,-5.53000,0.00000,-0.05234,0.95550,0.03172,2023,6,12,11,18,17,872
0.04740,-119.14000,-2.25750,0.00000,-0.01781,0.97661,0.00830,2023,6,12,11,18,17,883
0.04750,-97.66750,-3.79750,0.00000,-0.01427,0.95611,-0.01720,2023,6,12,11,18,17,894
0.04760,-78.26000,-6.58000,0.00000,-0.06625,0.99088,0.06234,2023,6,12,11,18,17,905
0.04770,-65.90500,-15.89000,0.00000,-0.02684,1.00028,-0.02769,2023,6,12,11,18,17,916
0.04780,-63.82250,-12.53000,0.00000,-0.01135,0.97478,-0.01501,2023,6,12,11,18,17,928
0.04790,-67.28750,-14.24500,0.00000,-0.02050,0.97637,0.20679,2023,6,12,11,18,17,939
0.04800,-20.87750,-5.23250,0.00000,0.00122,0.99235,-0.00293,2023,6,12,11,18,17,950
0.04810,-35.10500,-12.91500,0.00000,0.00952,0.99979,-0.03538,2023,6,12,11,18,17,961
0.04820,-19.04000,-12.14500,0.00000,-0.01964,1.01931,-0.08003,2023,6,12,11,18,18,2
0.04830,-39.88250,-18.74250,0.00000,0.00451,1.00540,0.02135,2023,6,12,11,18,18,13
0.04840,-27.40500,-25.21750,0.00000,-0.01049,0.99418,0.05380,2023,6,12,11,18,18,24
0.04850,-29.61000,-24.22000,0.00000,0.02940,0.99723,0.05661,2023,6,12,11,18,18,35
0.04860,-40.54750,-20.80750,0.00000,0.00695,0.99198,0.04538,2023,6,12,11,18,18,46
0.04870,-45.32500,-22.03250,0.00000,0.00439,0.97771,0.07625,2023,6,12,11,18,18,58
0.04880,-38.93750,-17.32500,0.00000,-0.01732,1.03273,0.06673,2023,6,12,11,18,18,69
0.04890,-42.22750,-22.38250,0.00000,-0.03684,1.05859,0.11627,2023,6,12,11,18,18,80
0.04900,-47.26750,-29.06750,0.00000,-0.02574,0.99686,0.06356,2023,6,12,11,18,18,91
0.04910,-40.18000,-35.07000,0.00000,-0.00756,1.04957,0.07954,2023,6,12,11,18,18,102
0.04920,-39.23500,-36.85500,0.00000,0.00561,1.08080,0.15018,2023,6,12,11,18,18,113
0.04930,-36.05000,-33.93250,0.00000,-0.00939,1.09934,0.16177,2023,6,12,11,18,18,124
0.04940,-32.07750,-26.32000,0.00000,0.01379,1.07043,0.16873,2023,6,12,11,18,18,135
0.04950,-24.65750,-17.60500,0.00000,0.01757,1.01663,0.16141,2023,6,12,11,18,18,146
0.04960,-19.16250,-9.39750,0.00000,0.02294,1.00040,0.13993,2023,6,12,11,18,18,158
0.04970,-27.73750,-7.49000,0.00000,0.02965,1.00504,0.15262,2023,6,12,11,18,18,169
0.04980,-27.26500,-8.06750,0.00000,0.00573,0.99759,0.13469,2023,6,12,11,18,18,180
0.04990,-23.94000,-10.01000,0.00000,0.02086,1.00247,0.10821,2023,6,12,11,18,18,191
0.05000,-27.23000,-13.98250,0.00000,-0.01208,1.00784,0.10602,2023,6,12,11,18,18,202
0.05010,-30.32750,-18.69000,0.00000,-0.00464,1.01272,0.14384,2023,6,12,11,18,18,213
0.05020,-29.19000,-18.39250,0.00000,0.00769,1.02456,0.16482,2023,6,12,11,18,18,224
0.05030,-29.94250,-16.81750,0.00000,0.00500,1.03127,0.19081,2023,6,12,11,18,18,235
0.05040,-26.84500,-15.52250,0.00000,0.00390,1.01711,0.18459,2023,6,12,11,18,18,246
0.05050,-26.28500,-14.00000,0.00000,0.00622,0.99479,0.17312,2023,6,12,11,18,18,258
0.05060,-19.28500,-6.07250,0.00000,0.03221,0.97319,0.19239,2023,6,12,11,18,18,269
0.05070,-19.35500,-5.07500,0.00000,0.00781,0.96380,0.18398,2023,6,12,11,18,18,280
0.05080,-21.00000,-2.32750,0.00000,0.00049,0.95843,0.20569,2023,6,12,11,18,18,291
0.05090,-17.06250,2.10000,0.00000,0.01354,0.98674,0.19081,2023,6,12,11,18,18,302
0.05100,-9.73000,0.73500,0.00000,0.00171,0.97002,0.19227,2023,6,12,11,18,18,313
0.05110,-2.06500,1.03250,0.00000,-0.00732,0.94928,0.18690,2023,6,12,11,18,18,324
0.05120,6.09000,2.08250,0.00000,0.01952,0.93720,0.18678,2023,6,12,11,18,18,335
0.05130,6.65000,0.77000,0.00000,-0.00073,0.93147,0.19679,2023,6,12,11,18,18,346
0.05140,5.82750,0.36750,0.00000,-0.01684,0.92452,0.20142,2023,6,12,11,18,18,358
0.05150,6.82500,2.62500,0.00000,-0.02782,0.91305,0.18983,2023,6,12,11,18,18,369
0.05160,14.22750,5.30250,0.00000,-0.03953,0.89816,0.16982,2023,6,12,11,18,18,380
0.05170,14.42000,3.95500,0.00000,-0.05417,0.92171,0.15518,2023,6,12,11,18,18,391
0.05180,11.44500,0.40250,0.00000,-0.07613,0.94562,0.14872,2023,6,12,11,18,18,402
0.05190,11.93500,-1.05000,0.00000,-0.09687,1.00040,0.17361,2023,6,12,11,18,18,413
0.05200,17.72750,-0.35000,0.00000,-0.09882,1.00809,0.19752,2023,6,12,11,18,18,424
0.05210,26.19750,4.00750,0.00000,-0.06954,1.00113,0.21716,2023,6,12,11,18,18,435
0.05220,35.12250,9.76500,0.00000,-0.05319,0.98503,0.23168,2023,6,12,11,18,18,446
0.05230,57.38250,16.24000,0.00000,-0.05905,0.98051,0.22838,2023,6,12,11,18,18,458
0.05240,81.77750,21.01750,0.00000,-0.02074,0.97624,0.18849,2023,6,12,11,18,18,469
0.05250,91.61250,21.61250,0.00000,-0.00988,1.00540,0.14115,2023,6,12,11,18,18,480
0.05260,94.58750,23.13500,0.00000,-0.04160,1.01040,0.15921,2023,6,12,11,18,18,491
0.05270,105.36750,26.60000,0.00000,-0.01659,0.98966,0.08211,2023,6,12,11,18,18,502
0.05280,109.51500,24.46500,0.00000,-0.03221,0.98100,0.06173,2023,6,12,11,18,18,513
0.05290,116.13000,25.06000,0.00000,-0.03904,0.99345,0.03562,2023,6,12,11,18,18,524
0.05300,117.12750,25.27000,0.00000,-0.03928,1.00162,-0.00317,2023,6,12,11,18,18,535
0.05310,104.10750,26.04000,0.00000,-0.05673,0.99503,-0.05417,2023,6,12,11,18,18,546
0.05320,83.61500,22.64500,0.00000,-0.09089,1.01223,-0.09126,2023,6,12,11,18,18,558
0.05330,80.62250,15.89000,0.00000,-0.09797,1.02285,-0.09748,2023,6,12,11,18,18,569
0.05340,74.25250,4.74250,0.00000,-0.08296,1.04334,-0.10663,2023,6,12,11,18,18,580
0.05350,58.34500,-5.79250,0.00000,-0.06478,1.04908,-0.07466,2023,6,12,11,18,18,591
0.05360,47.00500,-10.06250,0.00000,-0.02818,1.04871,-0.05563,2023,6,12,11,18,18,602
0.05370,35.59500,-8.68000,0.00000,-0.01793,1.01968,-0.05807,2023,6,12,11,18,18,613
0.05380,26.18000,-4.95250,0.00000,-0.01806,0.98125,-0.07418,2023,6,12,11,18,18,624
0.05390,23.97500,-3.95500,0.00000,-0.04502,0.95880,-0.11126,2023,6,12,11,18,18,635
0.05400,42.07000,-9.73000,0.00000,-0.05051,0.95807,-0.10431,2023,6,12,11,18,18,646
0.05410,71.62750,-16.04750,0.00000,-0.06112,0.97295,-0.11468,2023,6,12,11,18,18,658
0.05420,83.33500,-23.90500,0.00000,-0.04904,0.98149,-0.11602,2023,6,12,11,18,18,669
0.05430,97.37000,-27.51000,0.00000,-0.05209,0.98234,-0.13066,2023,6,12,11,18,18,680
0.05440,113.54000,-29.66250,0.00000,-0.06747,1.00235,-0.17434,2023,6,12,11,18,18,691
0.05450,133.63000,-34.03750,0.00000,-0.08699,1.01602,-0.17873,2023,6,12,11,18,18,702
0.05460,151.18250,-35.52500,0.00000,-0.05539,1.03188,-0.17141,2023,6,12,11,18,18,713
0.05470,152.61750,-34.24750,0.00000,-0.05990,1.00479,-0.19703,2023,6,12,11,18,18,724
0.05480,133.49000,-28.15750,0.00000,-0.04258,0.95026,-0.19044,2023,6,12,11,18,18,735
0.05490,130.58500,-24.95500,0.00000,-0.04538,0.90317,-0.19825,2023,6,12,11,18,18,746
0.05500,131.37250,-22.83750,0.00000,-0.01903,0.89060,-0.19581,2023,6,12,11,18,18,758
0.05510,142.74750,-21.03500,0.00000,-0.06954,0.87669,-0.19191,2023,6,12,11,18,18,769
0.05520,170.90500,-17.41250,0.00000,-0.08955,0.83826,-0.27389,2023,6,12,11,18,18,780
0.05530,173.14500,-18.42750,0.00000,-0.08601,0.83375,-0.36649,2023,6,12,11,18,18,791
0.05540,172.04250,-19.98500,0.00000,-0.09406,0.85986,-0.37454,2023,6,12,11,18,18,802
0.05550,172.30500,-21.52500,0.00000,-0.08906,0.89475,-0.38930,2023,6,12,11,18,18,813
0.05560,185.74500,-20.82500,0.00000,-0.09089,0.89877,-0.42590,2023,6,12,11,18,18,824
0.05570,209.79000,-21.00000,0.00000,-0.11468,0.89475,-0.46360,2023,6,12,11,18,18,835
0.05580,228.13000,-21.73500,0.00000,-0.11261,0.87413,-0.49544,2023,6,12,11,18,18,846
0.05590,239.13750,-18.77750,0.00000,-0.10638,0.82631,-0.53070,2023,6,12,11,18,18,858
0.05600,240.60750,-12.00500,0.00000,-0.13066,0.78080,-0.56742,2023,6,12,11,18,18,869
0.05610,218.06750,-4.16500,0.00000,-0.11834,0.73517,-0.61085,2023,6,12,11,18,18,880
0.05620,150.86750,13.54500,0.00000,-0.13200,0.68466,-0.66295,2023,6,12,11,18,18,891
0.05630,68.07500,31.85000,0.00000,-0.11736,0.60378,-0.68076,2023,6,12,11,18,18,902
0.05640,26.05750,38.53500,0.00000,-0.13371,0.59207,-0.62732,2023,6,12,11,18,18,913
0.05650,23.80000,40.40750,0.00000,-0.12566,0.60610,-0.63599,2023,6,12,11,18,18,924
0.05660,28.17500,39.81250,0.00000,-0.12554,0.63879,-0.68308,2023,6,12,11,18,18,935
0.05670,1.62750,28.14000,0.00000,-0.10846,0.69760,-0.77238,2023,6,12,11,18,18,946
0.05680,-31.64000,10.46500,0.00000,-0.13176,0.75054,-0.74091,2023,6,12,11,18,18,958
0.05690,-44.80000,-4.20000,0.00000,-0.12993,0.75701,-0.69186,2023,6,12,11,18,18,969
0.05700,-33.67000,-8.43500,0.00000,-0.11444,0.76116,-0.66368,2023,6,12,11,18,19,0
0.05710,-15.73250,-8.96000,0.00000,-0.10760,0.71858,-0.64794,2023,6,12,11,18,19,11
0.05720,12.21500,-7.42000,0.00000,-0.10248,0.73054,-0.64087,2023,6,12,11,18,19,22
0.05730,28.38500,-7.33250,0.00000,-0.11395,0.70455,-0.64562,2023,6,12,11,18,19,33
0.05740,25.32250,-5.33750,0.00000,-0.11004,0.71016,-0.65380,2023,6,12,11,18,19,44
0.05750,-7.57750,1.54000,0.00000,-0.12102,0.71919,-0.70223,2023,6,12,11,18,19,55
0.05760,-36.61000,8.29500,0.00000,-0.13200,0.74701,-0.69467,2023,6,12,11,18,19,66
0.05770,-50.48750,8.20750,0.00000,-0.12725,0.73212,-0.69247,2023,6,12,11,18,19,78
0.05780,-45.74500,9.29250,0.00000,-0.10236,0.72358,-0.68893,2023,6,12,11,18,19,89
0.05790,-64.15500,9.22250,0.00000,-0.13493,0.69930,-0.70760,2023,6,12,11,18,19,100
0.05800,-71.43500,5.33750,0.00000,-0.10834,0.68991,-0.70967,2023,6,12,11,18,19,111
0.05810,-51.45000,-4.44500,0.00000,-0.09248,0.71016,-0.72236,2023,6,12,11,18,19,122
0.05820,2.45000,-21.71750,0.00000,-0.05600,0.75018,-0.76250,2023,6,12,11,18,19,133
0.05830,16.36250,-39.98750,0.00000,-0.08638,0.79227,-0.76116,2023,6,12,11,18,19,144
0.05840,-6.59750,-53.48000,0.00000,-0.12346,0.82997,-0.64367,2023,6,12,11,18,19,155
0.05850,-7.63000,-50.33000,0.00000,-0.07027,0.78190,-0.56828,2023,6,12,11,18,19,166
0.05860,-21.15750,-51.36250,0.00000,-0.14103,0.72773,-0.56742,2023,6,12,11,18,19,178
0.05870,-55.82500,-31.16750,0.00000,-0.24461,0.69333,-0.45360,2023,6,12,11,18,19,189
0.05880,-49.82250,-10.08000,0.00000,-0.20667,0.70540,-0.41663,2023,6,12,11,18,19,200
0.05890,-47.84500,11.28750,0.00000,-0.17324,0.72993,-0.48385,2023,6,12,11,18,19,211
0.05900,-51.85250,21.42000,0.00000,-0.14872,0.75128,-0.57950,2023,6,12,11,18,19,222
0.05910,-65.99250,19.65250,0.00000,-0.14591,0.76701,-0.65002,2023,6,12,11,18,19,233
0.05920,-48.40500,8.03250,0.00000,-0.14384,0.77019,-0.64977,2023,6,12,11,18,19,244
0.05930,-25.88250,-7.61250,0.00000,-0.14957,0.79471,-0.61354,2023,6,12,11,18,19,255
0.05940,-49.43750,-12.67000,0.00000,-0.15055,0.81581,-0.52265,2023,6,12,11,18,19,266
0.05950,-59.65750,-2.88750,0.00000,-0.15787,0.82094,-0.44054,2023,6,12,11,18,19,278
0.05960,-41.28250,9.73000,0.00000,-0.15152,0.83985,-0.46287,2023,6,12,11,18,19,289
0.05970,-29.22500,11.46250,0.00000,-0.14628,0.85217,-0.45970,2023,6,12,11,18,19,300
0.05980,-13.47500,13.77250,0.00000,-0.15470,0.83948,-0.45384,2023,6,12,11,18,19,311
0.05990,-2.17000,18.13000,0.00000,-0.16116,0.77092,-0.50362,2023,6,12,11,18,19,322
0.06000,25.14750,14.57750,0.00000,-0.13774,0.72456,-0.58938,2023,6,12,11,18,19,333
0.06010,26.02250,8.48750,0.00000,-0.12871,0.73444,-0.65514,2023,6,12,11,18,19,344
0.06020,6.77250,-0.59500,0.00000,-0.16226,0.75933,-0.68527,2023,6,12,11,18,19,355
0.06030,-7.22750,-11.13000,0.00000,-0.14384,0.81484,-0.65880,2023,6,12,11,18,19,366
0.06040,-26.19750,-15.55750,0.00000,-0.14469,0.86522,-0.58584,2023,6,12,11,18,19,378
0.06050,-21.68250,-19.16250,0.00000,-0.08272,0.87145,-0.50020,2023,6,12,11,18,19,389
0.06060,1.90750,-20.59750,0.00000,-0.15750,0.87279,-0.56401,2023,6,12,11,18,19,400
0.06070,-0.64750,-19.44250,0.00000,-0.11407,0.86596,-0.54534,2023,6,12,11,18,19,411
0.06080,1.66250,-19.49500,0.00000,-0.14616,0.85717,-0.57730,2023,6,12,11,18,19,422
0.06090,5.33750,-24.65750,0.00000,-0.12639,0.84375,-0.54961,2023,6,12,11,18,19,433
0.06100,6.72000,-25.56750,0.00000,-0.12407,0.83838,-0.52240,2023,6,12,11,18,19,444
0.06110,3.51750,-24.97250,0.00000,-0.14140,0.83021,-0.53229,2023,6,12,11,18,19,455
0.06120,-5.28500,-24.76250,0.00000,-0.10016,0.81337,-0.45945,2023,6,12,11,18,19,466
0.06130,-7.57750,-19.75750,0.00000,-0.10565,0.77372,-0.47226,2023,6,12,11,18,19,478
0.06140,-10.69250,-12.11000,0.00000,-0.12481,0.77726,-0.54558,2023,6,12,11,18,19,489
0.06150,-30.41500,-15.40000,0.00000,-0.12200,0.80056,-0.57364,2023,6,12,11,18,19,500
0.06160,-37.27500,-22.43500,0.00000,-0.12127,0.81581,-0.58157,2023,6,12,11,18,19,511
0.06170,-65.53750,-27.98250,0.00000,-0.13676,0.83533,-0.57425,2023,6,12,11,18,19,522
0.06180,-57.34750,-32.63750,0.00000,-0.11883,0.88023,-0.49532,2023,6,12,11,18,19,533
0.06190,-9.57250,-34.38750,0.00000,-0.11224,0.90378,-0.46421,2023,6,12,11,18,19,544
0.06200,44.81750,-35.49000,0.00000,-0.11053,0.90707,-0.46836,2023,6,12,11,18,19,555
0.06210,117.81000,-41.77250,0.00000,-0.10138,0.89304,-0.54070,2023,6,12,11,18,19,566
0.06220,146.09000,-48.54500,0.00000,-0.09504,0.88474,-0.53033,2023,6,12,11,18,19,578
0.06230,181.24750,-51.94000,0.00000,-0.11614,0.84924,-0.56364,2023,6,12,11,18,19,589
0.06240,223.73750,-59.18500,0.00000,-0.12798,0.83094,-0.59841,2023,6,12,11,18,19,600
0.06250,292.02250,-68.53000,0.00000,-0.18459,0.77836,-0.62915,2023,6,12,11,18,19,611
0.06260,334.49500,-74.35750,0.00000,-0.26157,0.73615,-0.68991,2023,6,12,11,18,19,622
0.06270,331.15250,-77.59500,0.00000,-0.26828,0.69894,-0.69857,2023,6,12,11,18,19,633
0.06280,286.94750,-65.48500,0.00000,-0.23204,0.71846,-0.69747,2023,6,12,11,18,19,644
0.06290,251.47500,-52.97250,0.00000,-0.22277,0.70797,-0.75530,2023,6,12,11,18,19,655
0.06300,234.58750,-46.18250,0.00000,-0.13969,0.70113,-0.75042,2023,6,12,11,18,19,666
0.06310,245.14000,-42.01750,0.00000,-0.12029,0.66063,-0.71577,2023,6,12,11,18,19,678
0.06320,263.44500,-37.31000,0.00000,-0.17568,0.57157,-0.72370,2023,6,12,11,18,19,689
0.06330,253.75000,-23.74750,0.00000,-0.19471,0.44018,-0.73725,2023,6,12,11,18,19,700
0.06340,274.96000,-9.83500,0.00000,-0.22570,0.32867,-0.79788,2023,6,12,11,18,19,711
0.06350,273.03500,-9.66000,0.00000,-0.25461,0.25474,-0.91781,2023,6,12,11,18,19,722
0.06360,256.69000,-8.31250,0.00000,-0.25766,0.18166,-0.94733,2023,6,12,11,18,19,733
0.06370,265.84250,-17.09750,0.00000,-0.21716,0.14506,-1.01419,2023,6,12,11,18,19,744
0.06380,270.88250,-39.34000,0.00000,-0.23448,0.08930,-1.04786,2023,6,12,11,18,19,755
0.06390,280.50750,-59.69250,0.00000,-0.23912,0.03148,-1.00443,2023,6,12,11,18,19,766
0.06400,258.52750,-68.14500,0.00000,-0.24010,-0.06320,-0.87950,2023,6,12,11,18,19,778
0.06410,246.62750,-55.94750,0.00000,-0.28511,-0.08943,-0.87730,2023,6,12,11,18,19,789
0.06420,197.73250,-38.76250,0.00000,-0.31793,-0.07100,-0.86034,2023,6,12,11,18,19,800
0.06430,159.77500,-25.21750,0.00000,-0.32464,0.02708,-0.90060,2023,6,12,11,18,19,811
0.06440,126.40250,-17.39500,0.00000,-0.31122,0.04868,-0.94074,2023,6,12,11,18,19,822
0.06450,96.37250,-18.46250,0.00000,-0.30195,0.00354,-0.94465,2023,6,12,11,18,19,833
0.06460,79.03000,-23.53750,0.00000,-0.30158,-0.01745,-0.92561,2023,6,12,11,18,19,844
0.06470,57.62750,-25.93500,0.00000,-0.31403,-0.06112,-0.87206,2023,6,12,11,18,19,855
0.06480,28.45500,-21.77000,0.00000,-0.34941,-0.10382,-0.86108,2023,6,12,11,18,19,866
0.06490,-17.79750,-21.05250,0.00000,-0.36039,-0.09309,-0.93525,2023,6,12,11,18,19,878
0.06500,-55.96500,-26.19750,0.00000,-0.36612,-0.07113,-0.98003,2023,6,12,11,18,19,889
0.06510,-92.76750,-30.24000,0.00000,-0.33928,-0.08015,-0.97478,2023,6,12,11,18,19,900
0.06520,-127.10250,-30.88750,0.00000,-0.35551,-0.06368,-0.97649,2023,6,12,11,18,19,911
0.06530,-168.33250,-27.70250,0.00000,-0.34502,-0.06405,-0.95611,2023,6,12,11,18,19,922
0.06540,-202.66750,-21.99750,0.00000,-0.35978,-0.03916,-0.98369,2023,6,12,11,18,19,933
0.06550,-228.58500,-23.06500,0.00000,-0.35892,0.02342,-1.02675,2023,6,12,11,18,19,944
0.06560,-251.28250,-30.53750,0.00000,-0.36173,0.08198,-1.03505,2023,6,12,11,18,19,955
0.06570,-283.50000,-32.86500,0.00000,-0.36429,0.08564,-0.94745,2023,6,12,11,18,19,966
0.06580,-277.25250,-31.51750,0.00000,-0.39992,0.09760,-0.93159,2023,6,12,11,18,20,8
0.06590,-286.80750,-31.36000,0.00000,-0.36441,0.15091,-0.92281,2023,6,12,11,18,20,19
0.06600,-315.50750,-33.23250,0.00000,-0.27840,0.23900,-0.94379,2023,6,12,11,18,20,30
0.06610,-392.63000,-41.45750,0.00000,-0.38210,0.36295,-0.88462,2023,6,12,11,18,20,41
0.06620,-346.41250,-48.70250,0.00000,-0.45116,0.45311,-0.71443,2023,6,12,11,18,20,52
0.06630,-229.05750,-41.54500,0.00000,-0.40614,0.54717,-0.62684,2023,6,12,11,18,20,63
0.06640,-130.67250,-34.94750,0.00000,-0.38503,0.57804,-0.64684,2023,6,12,11,18,20,74
0.06650,-76.19500,-27.52750,0.00000,-0.37552,0.60048,-0.67381,2023,6,12,11,18,20,85
0.06660,-48.09000,-24.22000,0.00000,-0.37661,0.58353,-0.73883,2023,6,12,11,18,20,96
0.06670,-17.93750,-27.93000,0.00000,-0.40943,0.45543,-0.72187,2023,6,12,11,18,20,108
0.06680,-8.54000,-31.81500,0.00000,-0.38589,0.41334,-0.76872,2023,6,12,11,18,20,119
0.06690,-60.30500,-31.60500,0.00000,-0.39174,0.39260,-0.67905,2023,6,12,11,18,20,130
0.06700,-54.40750,-19.51250,0.00000,-0.43432,0.35392,-0.55437,2023,6,12,11,18,20,141
0.06710,-17.18500,-5.91500,0.00000,-0.45835,0.34282,-0.63245,2023,6,12,11,18,20,152
0.06720,-62.84250,3.55250,0.00000,-0.45274,0.34672,-0.73981,2023,6,12,11,18,20,163
0.06730,-84.31500,3.76250,0.00000,-0.49312,0.32891,-0.82911,2023,6,12,11,18,20,174
0.06740,-107.08250,-7.78750,0.00000,-0.48812,0.30366,-0.90085,2023,6,12,11,18,20,185
0.06750,-97.52750,-29.52250,0.00000,-0.47568,0.26486,-0.86120,2023,6,12,11,18,20,196
0.06760,-81.81250,-48.00250,0.00000,-0.48983,0.29609,-0.80081,2023,6,12,11,18,20,208
0.06770,-58.06500,-57.20750,0.00000,-0.50154,0.32733,-0.72724,2023,6,12,11,18,20,219
0.06780,-49.61250,-63.94500,0.00000,-0.48959,0.42114,-0.70418,2023,6,12,11,18,20,230
0.06790,-20.68500,-78.06750,0.00000,-0.48898,0.43200,-0.53460,2023,6,12,11,18,20,241
0.06800,20.96500,-80.16750,0.00000,-0.49434,0.49971,-0.50471,2023,6,12,11,18,20,252
0.06810,1.96000,-63.98000,0.00000,-0.48251,0.59743,-0.47946,2023,6,12,11,18,20,263
0.06820,-19.07500,-42.29750,0.00000,-0.48690,0.65038,-0.42810,2023,6,12,11,18,20,274
0.06830,-9.67750,-25.77750,0.00000,-0.50691,0.65831,-0.47055,2023,6,12,11,18,20,285
0.06840,-5.63500,-12.40750,0.00000,-0.53033,0.64575,-0.55132,2023,6,12,11,18,20,296
0.06850,3.09750,-9.43250,0.00000,-0.53741,0.58767,-0.64318,2023,6,12,11,18,20,308
0.06860,16.53750,-18.28750,0.00000,-0.52911,0.54705,-0.69613,2023,6,12,11,18,20,319
0.06870,38.25500,-29.69750,0.00000,-0.51228,0.50459,-0.70894,2023,6,12,11,18,20,330
0.06880,54.63500,-42.68250,0.00000,-0.51411,0.48873,-0.72346,2023,6,12,11,18,20,341
0.06890,50.71500,-51.64250,0.00000,-0.52875,0.49630,-0.68222,2023,6,12,11,18,20,352
0.06900,42.71750,-57.64500,0.00000,-0.52436,0.51899,-0.62049,2023,6,12,11,18,20,363
0.06910,29.54000,-55.98250,0.00000,-0.54973,0.54729,-0.58389,2023,6,12,11,18,20,374
0.06920,21.03500,-47.79250,0.00000,-0.57120,0.54144,-0.55778,2023,6,12,11,18,20,385
0.06930,18.79500,-39.86500,0.00000,-0.57596,0.53546,-0.55644,2023,6,12,11,18,20,396
0.06940,16.03000,-33.14500,0.00000,-0.60146,0.50484,-0.58536,2023,6,12,11,18,20,408
0.06950,8.34750,-28.99750,0.00000,-0.59987,0.49898,-0.61769,2023,6,12,11,18,20,419
0.06960,-6.03750,-27.87750,0.00000,-0.59609,0.51008,-0.65514,2023,6,12,11,18,20,430
0.06970,-10.18500,-33.40750,0.00000,-0.58096,0.54510,-0.65880,2023,6,12,11,18,20,441
0.06980,-7.38500,-39.46250,0.00000,-0.57291,0.57462,-0.63062,2023,6,12,11,18,20,452
0.06990,5.82750,-43.80250,0.00000,-0.55620,0.52423,-0.59524,2023,6,12,11,18,20,463
0.07000,11.32250,-42.22750,0.00000,-0.59231,0.43005,-0.56035,2023,6,12,11,18,20,474
0.07010,4.56750,-33.33750,0.00000,-0.58206,0.39613,-0.48654,2023,6,12,11,18,20,485
0.07020,-17.25500,-21.64750,0.00000,-0.56998,0.39089,-0.46079,2023,6,12,11,18,20,496
0.07030,-52.22000,-5.37250,0.00000,-0.56742,0.37857,-0.48471,2023,6,12,11,18,20,508
0.07040,-82.49500,4.60250,0.00000,-0.59963,0.34526,-0.54693,2023,6,12,11,18,20,519
0.07050,-101.65750,7.40250,0.00000,-0.60402,0.40589,-0.58902,2023,6,12,11,18,20,530
0.07060,-121.97500,-3.51750,0.00000,-0.57694,0.52789,-0.58804,2023,6,12,11,18,20,541
0.07070,-113.47000,-14.15750,0.00000,-0.55803,0.68125,-0.54339,2023,6,12,11,18,20,552
0.07080,-93.27500,-20.56250,0.00000,-0.52423,0.80947,-0.53997,2023,6,12,11,18,20,563
0.07090,-76.89500,-26.81000,0.00000,-0.53119,0.81984,-0.49361,2023,6,12,11,18,20,574
0.07100,-44.04750,-25.35750,0.00000,-0.53021,0.74054,-0.47678,2023,6,12,11,18,20,585
0.07110,-27.93000,-31.01000,0.00000,-0.53521,0.69430,-0.53887,2023,6,12,11,18,20,596
0.07120,-63.63000,-34.47500,0.00000,-0.56913,0.61476,-0.46165,2023,6,12,11,18,20,608
0.07130,-105.33250,-30.50250,0.00000,-0.54998,0.59609,-0.46372,2023,6,12,11,18,20,619
0.07140,-120.40000,-26.60000,0.00000,-0.54583,0.59975,-0.44835,2023,6,12,11,18,20,630
0.07150,-121.69500,-27.00250,0.00000,-0.53814,0.62232,-0.45762,2023,6,12,11,18,20,641
0.07160,-139.17750,-31.13250,0.00000,-0.52106,0.67686,-0.40626,2023,6,12,11,18,20,652
0.07170,-139.10750,-30.38000,0.00000,-0.48446,0.74859,-0.35807,2023,6,12,11,18,20,663
0.07180,-145.05750,-24.04500,0.00000,-0.49983,0.81813,-0.30988,2023,6,12,11,18,20,674
0.07190,-168.89250,-14.17500,0.00000,-0.49739,0.85071,-0.28633,2023,6,12,11,18,20,685
0.07200,-199.86750,-10.01000,0.00000,-0.50203,0.84851,-0.27670,2023,6,12,11,18,20,696
0.07210,-205.50250,-8.12000,0.00000,-0.50301,0.79642,-0.23387,2023,6,12,11,18,20,708
0.07220,-195.75500,-5.74000,0.00000,-0.47763,0.80508,-0.19044,2023,6,12,11,18,20,719
0.07230,-178.08000,-5.89750,0.00000,-0.47360,0.82948,-0.17458,2023,6,12,11,18,20,730
0.07240,-162.55750,-5.93250,0.00000,-0.46592,0.84143,-0.12090,2023,6,12,11,18,20,741
0.07250,-181.86000,-5.19750,0.00000,-0.44506,0.85681,-0.09675,2023,6,12,11,18,20,752
0.07260,-216.86000,5.61750,0.00000,-0.44933,0.82606,-0.01354,2023,6,12,11,18,20,763
0.07270,-250.75750,17.60500,0.00000,-0.42639,0.83497,-0.01818,2023,6,12,11,18,20,774
0.07280,-281.85500,23.57250,0.00000,-0.42749,0.85815,0.00134,2023,6,12,11,18,20,785
0.07290,-302.82000,26.60000,0.00000,-0.42383,0.87608,0.05344,2023,6,12,11,18,20,796
0.07300,-312.67250,28.71750,0.00000,-0.40907,0.88572,0.12041,2023,6,12,11,18,20,808
0.07310,-325.09750,28.47250,0.00000,-0.38296,0.89121,0.15335,2023,6,12,11,18,20,819
0.07320,-310.67750,27.10750,0.00000,-0.38869,0.89060,0.21911,2023,6,12,11,18,20,830
0.07330,-296.27500,21.61250,0.00000,-0.37649,0.89548,0.26901,2023,6,12,11,18,20,841
0.07340,-288.17250,18.44500,0.00000,-0.37051,0.88779,0.35270,2023,6,12,11,18,20,852
0.07350,-250.68750,12.40750,0.00000,-0.34502,0.83753,0.38857,2023,6,12,11,18,20,863
0.07360,-240.90500,6.93000,0.00000,-0.35258,0.79239,0.42773,2023,6,12,11,18,20,874
0.07370,-252.22750,7.56000,0.00000,-0.36014,0.77080,0.45445,2023,6,12,11,18,20,885
0.07380,-289.15250,12.82750,0.00000,-0.38271,0.76262,0.47458,2023,6,12,11,18,20,896
0.07390,-337.57500,18.07750,0.00000,-0.38003,0.73237,0.50593,2023,6,12,11,18,20,908
0.07400,-390.77500,20.56250,0.00000,-0.36393,0.69869,0.57267,2023,6,12,11,18,20,919
0.07410,-432.23250,25.21750,0.00000,-0.36893,0.64660,0.64355,2023,6,12,11,18,20,930
0.07420,-475.70250,31.65750,0.00000,-0.35819,0.58963,0.73115,2023,6,12,11,18,20,941
0.07430,-498.33000,37.66000,0.00000,-0.34416,0.52484,0.81228,2023,6,12,11,18,20,952
0.07440,-482.59750,38.39500,0.00000,-0.33623,0.49178,0.88584,2023,6,12,11,18,21,3
0.07450,-418.44250,33.18000,0.00000,-0.30793,0.47629,0.92769,2023,6,12,11,18,21,14
0.07460,-334.86250,22.78500,0.00000,-0.31549,0.42871,0.89658,2023,6,12,11,18,21,25
0.07470,-288.31250,15.48750,0.00000,-0.35844,0.37198,0.88621,2023,6,12,11,18,21,36
0.07480,-277.42750,10.67500,0.00000,-0.32867,0.27291,0.85546,2023,6,12,11,18,21,48
0.07490,-299.77500,12.68750,0.00000,-0.38247,0.20167,0.92683,2023,6,12,11,18,21,59
0.07500,-289.55500,14.26250,0.00000,-0.38174,0.15409,0.94513,2023,6,12,11,18,21,70
0.07510,-277.77750,15.22500,0.00000,-0.37259,0.10529,0.94599,2023,6,12,11,18,21,81
0.07520,-278.91500,16.13500,0.00000,-0.36685,0.05063,0.93367,2023,6,12,11,18,21,92
0.07530,-260.01500,11.51500,0.00000,-0.37478,0.01208,0.95233,2023,6,12,11,18,21,103
0.07540,-239.68000,8.36500,0.00000,-0.35221,-0.02403,0.93391,2023,6,12,11,18,21,114
0.07550,-228.70750,4.91750,0.00000,-0.36319,-0.06844,0.88914,2023,6,12,11,18,21,125
0.07560,-221.04250,-1.83750,0.00000,-0.36954,-0.08625,0.89548,2023,6,12,11,18,21,136
0.07570,-207.69000,-5.19750,0.00000,-0.38637,-0.11309,0.92830,2023,6,12,11,18,21,148
0.07580,-190.61000,-8.10250,0.00000,-0.41931,-0.15958,0.94928,2023,6,12,11,18,21,159
0.07590,-164.62250,-6.89500,0.00000,-0.38942,-0.19801,0.99820,2023,6,12,11,18,21,170
0.07600,-130.02500,-3.15000,0.00000,-0.41260,-0.24376,0.98173,2023,6,12,11,18,21,181
0.07610,-111.35250,2.03000,0.00000,-0.40382,-0.27218,0.97124,2023,6,12,11,18,21,192
0.07620,-87.55250,3.72750,0.00000,-0.40333,-0.27962,0.91659,2023,6,12,11,18,21,203
0.07630,-81.16500,3.72750,0.00000,-0.36307,-0.30439,0.89353,2023,6,12,11,18,21,214
0.07640,-85.68000,3.44750,0.00000,-0.39601,-0.32769,0.86608,2023,6,12,11,18,21,225
0.07650,-112.50750,4.91750,0.00000,-0.35587,-0.31525,0.79849,2023,6,12,11,18,21,236
0.07660,-136.92000,0.50750,0.00000,-0.39601,-0.32354,0.81276,2023,6,12,11,18,21,248
0.07670,-149.45000,-3.78000,0.00000,-0.39296,-0.32672,0.79044,2023,6,12,11,18,21,259
0.07680,-145.75750,-11.86500,0.00000,-0.38601,-0.35795,0.80483,2023,6,12,11,18,21,270
0.07690,-140.77000,-14.00000,0.00000,-0.40955,-0.40760,0.82814,2023,6,12,11,18,21,281
0.07700,-125.44000,-13.44000,0.00000,-0.40846,-0.44676,0.83338,2023,6,12,11,18,21,292
0.07710,-106.26000,-11.18250,0.00000,-0.41004,-0.46689,0.84839,2023,6,12,11,18,21,303
0.07720,-89.82750,-8.13750,0.00000,-0.38576,-0.47617,0.83289,2023,6,12,11,18,21,314
0.07730,-82.81000,-5.56500,0.00000,-0.37722,-0.49105,0.79727,2023,6,12,11,18,21,325
0.07740,-78.66250,-6.37000,0.00000,-0.38345,-0.47434,0.77409,2023,6,12,11,18,21,336
0.07750,-66.97250,-10.53500,0.00000,-0.36746,-0.51630,0.77092,2023,6,12,11,18,21,348
0.07760,-58.22250,-11.02500,0.00000,-0.36576,-0.55839,0.78251,2023,6,12,11,18,21,359
0.07770,-52.90250,-10.46500,0.00000,-0.35014,-0.55278,0.78531,2023,6,12,11,18,21,370
0.07780,-47.46000,-10.37750,0.00000,-0.36332,-0.56596,0.77714,2023,6,12,11,18,21,381
0.07790,-46.42750,-8.94250,0.00000,-0.36210,-0.56547,0.79422,2023,6,12,11,18,21,392
0.07800,-43.61000,-5.61750,0.00000,-0.37588,-0.55998,0.76360,2023,6,12,11,18,21,403
0.07810,-44.57250,-6.12500,0.00000,-0.37076,-0.55754,0.74164,2023,6,12,11,18,21,414
0.07820,-43.20750,-5.95000,0.00000,-0.36380,-0.57987,0.75445,2023,6,12,11,18,21,425
0.07830,-35.17500,-4.70750,0.00000,-0.37893,-0.60353,0.75616,2023,6,12,11,18,21,436
0.07840,-27.17750,-4.11250,0.00000,-0.36954,-0.61878,0.75286,2023,6,12,11,18,21,448
0.07850,-17.72750,-3.69250,0.00000,-0.36295,-0.63355,0.76860,2023,6,12,11,18,21,459
0.07860,0.54250,-3.27250,0.00000,-0.36088,-0.63562,0.76030,2023,6,12,11,18,21,470
0.07870,12.02250,-4.13000,0.00000,-0.34953,-0.64416,0.76848,2023,6,12,11,18,21,481
0.07880,25.28750,-3.15000,0.00000,-0.36942,-0.61293,0.76140,2023,6,12,11,18,21,492
0.07890,29.62750,-2.55500,0.00000,-0.36307,-0.56096,0.73090,2023,6,12,11,18,21,503
0.07900,22.22500,-1.90750,0.00000,-0.37930,-0.54327,0.74493,2023,6,12,11,18,21,514
0.07910,17.74500,-1.59250,0.00000,-0.36820,-0.54912,0.72590,2023,6,12,11,18,21,525
0.07920,5.14500,-1.03250,0.00000,-0.37039,-0.55266,0.73188,2023,6,12,11,18,21,536
0.07930,-2.13500,-0.15750,0.00000,-0.37478,-0.56474,0.73834,2023,6,12,11,18,21,548
0.07940,-1.90750,-0.54250,0.00000,-0.36027,-0.54985,0.71492,2023,6,12,11,18,21,559
0.07950,-5.56500,-1.10250,0.00000,-0.37015,-0.55388,0.72383,2023,6,12,11,18,21,570
0.07960,-3.30750,-1.13750,0.00000,-0.37515,-0.56083,0.73212,2023,6,12,11,18,21,581
0.07970,-6.52750,0.47250,0.00000,-0.37881,-0.56315,0.73407,2023,6,12,11,18,21,592
0.07980,-15.76750,1.48750,0.00000,-0.37149,-0.55083,0.71834,2023,6,12,11,18,21,603
0.07990,-19.00500,2.03000,0.00000,-0.38442,-0.56035,0.73066,2023,6,12,11,18,21,614
0.08000,-18.32250,4.13000,0.00000,-0.38564,-0.57206,0.72090,2023,6,12,11,18,21,625
0.08010,-17.81500,2.94000,0.00000,-0.38235,-0.56327,0.69625,2023,6,12,11,18,21,636
0.08020,-14.05250,2.20500,0.00000,-0.37735,-0.55791,0.71102,2023,6,12,11,18,21,648
0.08030,-2.69500,1.80250,0.00000,-0.37405,-0.57023,0.71455,2023,6,12,11,18,21,659
0.08040,0.49000,1.73250,0.00000,-0.38503,-0.58926,0.71699,2023,6,12,11,18,21,670
0.08050,4.97000,2.80000,0.00000,-0.38210,-0.60671,0.73920,2023,6,12,11,18,21,681
0.08060,17.79750,4.13000,0.00000,-0.37332,-0.60695,0.72090,2023,6,12,11,18,21,692
0.08070,23.55500,2.66000,0.00000,-0.37576,-0.60573,0.71760,2023,6,12,11,18,21,703
0.08080,29.20750,1.64500,0.00000,-0.37942,-0.59121,0.72590,2023,6,12,11,18,21,714
0.08090,19.19750,1.52250,0.00000,-0.38247,-0.56132,0.70174,2023,6,12,11,18,21,725
0.08100,10.51750,1.71500,0.00000,-0.37979,-0.58426,0.71870,2023,6,12,11,18,21,736
0.08110,8.43500,2.27500,0.00000,-0.38528,-0.59170,0.72761,2023,6,12,11,18,21,748
0.08120,5.91500,3.16750,0.00000,-0.37198,-0.58950,0.71663,2023,6,12,11,18,21,759
0.08130,0.33250,3.51750,0.00000,-0.38357,-0.58328,0.71590,2023,6,12,11,18,21,770
0.08140,0.87500,3.29000,0.00000,-0.38393,-0.58816,0.71297,2023,6,12,11,18,21,781
0.08150,3.11500,2.48500,0.00000,-0.39333,-0.57913,0.72261,2023,6,12,11,18,21,792
0.08160,6.14250,4.55000,0.00000,-0.38698,-0.57413,0.72505,2023,6,12,11,18,21,803
0.08170,5.86250,5.54750,0.00000,-0.37930,-0.57889,0.71102,2023,6,12,11,18,21,814
0.08180,4.07750,6.68500,0.00000,-0.37661,-0.56620,0.67844,2023,6,12,11,18,21,825
0.08190,-0.35000,3.57000,0.00000,-0.38784,-0.54278,0.67015,2023,6,12,11,18,21,836
0.08200,-4.88250,2.32750,0.00000,-0.38589,-0.55083,0.68283,2023,6,12,11,18,21,848
0.08210,-2.83500,1.12000,0.00000,-0.39162,-0.56486,0.69052,2023,6,12,11,18,21,859
0.08220,0.49000,0.56000,0.00000,-0.38503,-0.57108,0.69833,2023,6,12,11,18,21,870
0.08230,7.57750,0.89250,0.00000,-0.39101,-0.55925,0.68015,2023,6,12,11,18,21,881
0.08240,10.65750,0.14000,0.00000,-0.39138,-0.55486,0.67612,2023,6,12,11,18,21,892
0.08250,9.80000,-0.50750,0.00000,-0.38894,-0.55669,0.67283,2023,6,12,11,18,21,903
0.08260,13.65000,-1.26000,0.00000,-0.39809,-0.54583,0.66551,2023,6,12,11,18,21,914
0.08270,13.75500,-3.01000,0.00000,-0.40065,-0.54363,0.68405,2023,6,12,11,18,21,925
0.08280,10.57000,-2.17000,0.00000,-0.39870,-0.56645,0.69943,2023,6,12,11,18,21,936
0.08290,9.90500,-1.47000,0.00000,-0.40406,-0.56535,0.68942,2023,6,12,11,18,21,948
0.08300,8.90750,-2.22250,0.00000,-0.40297,-0.55498,0.69613,2023,6,12,11,18,21,959
0.08310,8.83750,-3.08000,0.00000,-0.40126,-0.55498,0.70467,2023,6,12,11,18,22,0
0.08320,13.61500,-3.50000,0.00000,-0.38918,-0.55839,0.70187,2023,6,12,11,18,22,11
0.08330,11.34000,-4.02500,0.00000,-0.40248,-0.56401,0.68906,2023,6,12,11,18,22,22
0.08340,8.34750,-5.39000,0.00000,-0.39174,-0.55376,0.70394,2023,6,12,11,18,22,33
0.08350,13.82500,-6.21250,0.00000,-0.40516,-0.56901,0.72261,2023,6,12,11,18,22,44
0.08360,17.53500,-4.14750,0.00000,-0.40028,-0.57242,0.71980,2023,6,12,11,18,22,55
0.08370,19.84500,-4.37500,0.00000,-0.39247,-0.55705,0.70882,2023,6,12,11,18,22,66
0.08380,19.63500,-6.03750,0.00000,-0.40382,-0.56779,0.72834,2023,6,12,11,18,22,78
0.08390,25.06000,-4.90000,0.00000,-0.39382,-0.56937,0.74957,2023,6,12,11,18,22,89
0.08400,31.44750,-3.37750,0.00000,-0.40272,-0.56205,0.72663,2023,6,12,11,18,22,100
0.08410,33.63500,-5.61750,0.00000,-0.38711,-0.55498,0.72993,2023,6,12,11,18,22,111
0.08420,39.67250,-5.75750,0.00000,-0.39235,-0.55742,0.73517,2023,6,12,11,18,22,122
0.08430,48.14250,-6.26500,0.00000,-0.38991,-0.54558,0.72285,2023,6,12,11,18,22,133
0.08440,54.98500,-7.64750,0.00000,-0.39272,-0.53485,0.74383,2023,6,12,11,18,22,144
0.08450,76.35250,-9.04750,0.00000,-0.39296,-0.52899,0.75213,2023,6,12,11,18,22,155
0.08460,91.56000,-10.08000,0.00000,-0.40370,-0.51411,0.76299,2023,6,12,11,18,22,166
0.08470,110.04000,-11.11250,0.00000,-0.39101,-0.49666,0.78422,2023,6,12,11,18,22,178
0.08480,130.98750,-11.32250,0.00000,-0.39479,-0.49605,0.81252,2023,6,12,11,18,22,189
0.08490,153.09000,-8.94250,0.00000,-0.39638,-0.47678,0.82692,2023,6,12,11,18,22,200
0.08500,182.71750,-6.91250,0.00000,-0.40016,-0.43627,0.85083,2023,6,12,11,18,22,211
0.08510,215.09250,-5.09250,0.00000,-0.40138,-0.40736,0.86827,2023,6,12,11,18,22,222
0.08520,251.77250,-2.20500,0.00000,-0.40650,-0.37796,0.88950,2023,6,12,11,18,22,233
0.08530,289.32750,1.08500,0.00000,-0.40260,-0.31879,0.89707,2023,6,12,11,18,22,244
0.08540,316.71500,3.71000,0.00000,-0.40492,-0.26779,0.92513,2023,6,12,11,18,22,255
0.08550,347.02500,7.05250,0.00000,-0.41626,-0.21094,0.92854,2023,6,12,11,18,22,266
0.08560,387.80000,9.39750,0.00000,-0.41431,-0.13469,0.93611,2023,6,12,11,18,22,278
0.08570,434.14000,9.41500,0.00000,-0.41273,-0.06210,0.93196,2023,6,12,11,18,22,289
0.08580,467.05750,8.97750,0.00000,-0.40992,0.01232,0.91720,2023,6,12,11,18,22,300
0.08590,495.09250,10.13250,0.00000,-0.42541,0.09333,0.89231,2023,6,12,11,18,22,311
0.08600,525.91000,9.60750,0.00000,-0.42151,0.16677,0.90097,2023,6,12,11,18,22,322
0.08610,548.01250,9.32750,0.00000,-0.40260,0.25425,0.90207,2023,6,12,11,18,22,333
0.08620,572.70500,13.98250,0.00000,-0.39491,0.31940,0.88779,2023,6,12,11,18,22,344
0.08630,573.40500,23.59000,0.00000,-0.40968,0.41565,0.81667,2023,6,12,11,18,22,355
0.08640,573.40500,31.44750,0.00000,-0.41797,0.52106,0.72175,2023,6,12,11,18,22,366
0.08650,573.40500,30.81750,0.00000,-0.40504,0.60707,0.63355,2023,6,12,11,18,22,378
0.08660,573.40500,25.51500,0.00000,-0.38930,0.67039,0.49447,2023,6,12,11,18,22,389
0.08670,573.40500,18.90000,0.00000,-0.35429,0.72627,0.30073,2023,6,12,11,18,22,400
0.08680,573.40500,10.36000,0.00000,-0.37686,0.71712,0.08723,2023,6,12,11,18,22,411
0.08690,573.40500,8.24250,0.00000,-0.46567,0.83875,-0.19801,2023,6,12,11,18,22,422
0.08700,573.40500,31.78000,0.00000,-0.54754,0.81935,-0.23412,2023,6,12,11,18,22,433
0.08710,345.57250,76.05500,0.00000,-0.51264,0.65502,-0.23253,2023,6,12,11,18,22,444
0.08720,271.88000,96.56500,0.00000,-0.47739,0.61817,-0.36929,2023,6,12,11,18,22,455
0.08730,270.58500,96.39000,0.00000,-0.48190,0.61817,-0.50471,2023,6,12,11,18,22,466
0.08740,267.52250,78.66250,0.00000,-0.49239,0.63220,-0.60683,2023,6,12,11,18,22,478
0.08750,244.05500,59.23750,0.00000,-0.45372,0.63586,-0.62281,2023,6,12,11,18,22,489
0.08760,173.95000,31.69250,0.00000,-0.44030,0.61781,-0.68393,2023,6,12,11,18,22,500
0.08770,149.55500,2.78250,0.00000,-0.44506,0.64160,-0.62049,2023,6,12,11,18,22,511
0.08780,135.18750,-2.34500,0.00000,-0.43420,0.63501,-0.57645,2023,6,12,11,18,22,522
0.08790,124.44250,5.35500,0.00000,-0.45128,0.61342,-0.60500,2023,6,12,11,18,22,533
0.08800,109.74250,11.55000,0.00000,-0.43066,0.56364,-0.60451,2023,6,12,11,18,22,544
0.08810,109.41000,11.14750,0.00000,-0.42871,0.53229,-0.62732,2023,6,12,11,18,22,555
0.08820,101.46500,8.76750,0.00000,-0.42041,0.54058,-0.60878,2023,6,12,11,18,22,566
0.08830,92.34750,10.88500,0.00000,-0.40675,0.54888,-0.60097,2023,6,12,11,18,22,578
0.08840,82.49500,16.50250,0.00000,-0.40699,0.53875,-0.61891,2023,6,12,11,18,22,589
0.08850,64.85500,23.24000,0.00000,-0.40053,0.53375,-0.65294,2023,6,12,11,18,22,600
0.08860,43.27750,25.39250,0.00000,-0.39674,0.54790,-0.69308,2023,6,12,11,18,22,611
0.08870,26.81000,21.92750,0.00000,-0.39735,0.55242,-0.70028,2023,6,12,11,18,22,622
0.08880,18.65500,16.01250,0.00000,-0.38796,0.52655,-0.67515,2023,6,12,11,18,22,633
0.08890,13.12500,16.17000,0.00000,-0.37369,0.52936,-0.64123,2023,6,12,11,18,22,644
0.08900,12.37250,22.75000,0.00000,-0.37722,0.52387,-0.66307,2023,6,12,11,18,22,655
0.08910,14.49000,21.59500,0.00000,-0.36624,0.49227,-0.69857,2023,6,12,11,18,22,666
0.08920,30.76500,15.29500,0.00000,-0.36063,0.51789,-0.73224,2023,6,12,11,18,22,678
0.08930,28.63000,2.67750,0.00000,-0.33428,0.50545,-0.71712,2023,6,12,11,18,22,689
0.08940,38.23750,-8.08500,0.00000,-0.32794,0.49044,-0.66941,2023,6,12,11,18,22,700
0.08950,38.23750,-10.48250,0.00000,-0.34306,0.46787,-0.68784,2023,6,12,11,18,22,711
0.08960,17.79750,-3.78000,0.00000,-0.40077,0.48349,-0.79202,2023,6,12,11,18,22,722
0.08970,14.73500,-1.83750,0.00000,-0.39321,0.52338,-0.80313,2023,6,12,11,18,22,733
0.08980,-9.60750,-8.40000,0.00000,-0.37283,0.51996,-0.87328,2023,6,12,11,18,22,744
0.08990,43.27750,8.01500,0.00000,-0.40955,0.45543,-0.69223,2023,6,12,11,18,22,755
0.09000,15.31250,37.55500,0.00000,-0.42676,0.45774,-0.67198,2023,6,12,11,18,22,766
0.09010,-15.94250,54.28500,0.00000,-0.39089,0.49593,-0.77726,2023,6,12,11,18,22,778
0.09020,-6.23000,48.66750,0.00000,-0.37417,0.49642,-0.81874,2023,6,12,11,18,22,789
0.09030,10.51750,37.17000,0.00000,-0.37613,0.47946,-0.79751,2023,6,12,11,18,22,800
0.09040,16.99250,32.81250,0.00000,-0.36771,0.44798,-0.75054,2023,6,12,11,18,22,811
0.09050,21.84000,35.56000,0.00000,-0.40004,0.43054,-0.78690,2023,6,12,11,18,22,822
0.09060,13.24750,38.92000,0.00000,-0.38235,0.43981,-0.84046,2023,6,12,11,18,22,833
0.09070,17.85000,31.79750,0.00000,-0.35587,0.48946,-0.84668,2023,6,12,11,18,22,844
0.09080,25.18250,25.67250,0.00000,-0.37039,0.50349,-0.85534,2023,6,12,11,18,22,855
0.09090,24.83250,24.06250,0.00000,-0.38125,0.54180,-0.90902,2023,6,12,11,18,22,866
0.09100,34.12500,18.72500,0.00000,-0.35868,0.56291,-0.91439,2023,6,12,11,18,22,878
0.09110,65.01250,7.12250,0.00000,-0.37491,0.49678,-0.90475,2023,6,12,11,18,22,889
0.09120,75.47750,0.89250,0.00000,-0.35978,0.42188,-0.83899,2023,6,12,11,18,22,900
0.09130,88.13000,-1.55750,0.00000,-0.35063,0.37832,-0.84241,2023,6,12,11,18,22,911
0.09140,93.39750,1.24250,0.00000,-0.35709,0.36295,-0.81081,2023,6,12,11,18,22,922
0.09150,113.57500,4.46250,0.00000,-0.36563,0.32794,-0.85607,2023,6,12,11,18,22,933
0.09160,137.13000,4.30500,0.00000,-0.34807,0.32757,-0.85534,2023,6,12,11,18,22,944
0.09170,172.76000,3.60500,0.00000,-0.36612,0.34001,-0.90670,2023,6,12,11,18,22,955
0.09180,193.79500,2.06500,0.00000,-0.34111,0.32537,-0.91183,2023,6,12,11,18,22,966
0.09190,212.10000,2.57250,0.00000,-0.28487,0.32903,-0.87596,2023,6,12,11,18,23,8
0.09200,222.11000,3.95500,0.00000,-0.34990,0.25547,-0.89877,2023,6,12,11,18,23,19
0.09210,226.83500,7.49000,0.00000,-0.31159,0.17690,-0.89341,2023,6,12,11,18,23,30
0.09220,232.80250,9.08250,0.00000,-0.32330,0.06234,-0.87023,2023,6,12,11,18,23,41
0.09230,243.28500,9.66000,0.00000,-0.32159,0.02050,-0.88792,2023,6,12,11,18,23,52
0.09240,247.92250,14.01750,0.00000,-0.29341,0.00171,-0.88474,2023,6,12,11,18,23,63
0.09250,246.97750,17.81500,0.00000,-0.26303,0.04441,-0.93818,2023,6,12,11,18,23,74
0.09260,241.32500,16.27500,0.00000,-0.27999,0.07369,-0.97027,2023,6,12,11,18,23,85
0.09270,227.30750,15.26000,0.00000,-0.29817,0.02904,-0.95855,2023,6,12,11,18,23,96
0.09280,196.17500,16.81750,0.00000,-0.27901,-0.02965,-0.92903,2023,6,12,11,18,23,108
0.09290,190.33000,22.12000,0.00000,-0.28463,-0.10590,-0.86095,2023,6,12,11,18,23,119
0.09300,164.18500,33.28500,0.00000,-0.27011,-0.22375,-0.83851,2023,6,12,11,18,23,130
0.09310,148.94250,46.49750,0.00000,-0.24876,-0.26132,-0.81545,2023,6,12,11,18,23,141
0.09320,129.34250,52.74500,0.00000,-0.25779,-0.24583,-0.81557,2023,6,12,11,18,23,152
0.09330,110.82750,58.55500,0.00000,-0.23436,-0.23888,-0.82204,2023,6,12,11,18,23,163
0.09340,104.16000,70.01750,0.00000,-0.19581,-0.21374,-0.84766,2023,6,12,11,18,23,174
0.09350,107.48500,79.17000,0.00000,-0.19825,-0.21167,-0.91488,2023,6,12,11,18,23,185
0.09360,98.91000,83.07250,0.00000,-0.19459,-0.22704,-0.95380,2023,6,12,11,18,23,196
0.09370,86.36250,83.89500,0.00000,-0.19898,-0.29012,-0.98991,2023,6,12,11,18,23,208
0.09380,74.51500,79.53750,0.00000,-0.18129,-0.32281,-1.02870,2023,6,12,11,18,23,219
0.09390,64.10250,65.20500,0.00000,-0.16653,-0.33623,-1.03297,2023,6,12,11,18,23,230
0.09400,54.14500,50.96000,0.00000,-0.14152,-0.33318,-0.98186,2023,6,12,11,18,23,241
0.09410,55.31750,47.47750,0.00000,-0.11248,-0.35197,-0.92122,2023,6,12,11,18,23,252
0.09420,58.59000,52.34250,0.00000,-0.10382,-0.35917,-0.88194,2023,6,12,11,18,23,263
0.09430,45.95500,58.52000,0.00000,-0.10565,-0.36368,-0.91097,2023,6,12,11,18,23,274
0.09440,35.22750,57.97750,0.00000,-0.08882,-0.35539,-0.96465,2023,6,12,11,18,23,285
0.09450,23.06500,50.48750,0.00000,-0.08808,-0.35392,-0.98064,2023,6,12,11,18,23,296
0.09460,12.28500,41.73750,0.00000,-0.08174,-0.36002,-0.96526,2023,6,12,11,18,23,308
0.09470,-1.66250,36.31250,0.00000,-0.09174,-0.33172,-0.96551,2023,6,12,11,18,23,319
0.09480,-25.79500,28.75250,0.00000,-0.09467,-0.30500,-0.97027,2023,6,12,11,18,23,330
0.09490,-57.68000,18.23500,0.00000,-0.10980,-0.28011,-0.97380,2023,6,12,11,18,23,341
0.09500,-97.44000,7.96250,0.00000,-0.10492,-0.24058,-0.96417,2023,6,12,11,18,23,352
0.09510,-133.71750,4.32250,0.00000,-0.09528,-0.21484,-0.94184,2023,6,12,11,18,23,363
0.09520,-175.63000,5.35500,0.00000,-0.08930,-0.20850,-0.92244,2023,6,12,11,18,23,374
0.09530,-218.10250,15.54000,0.00000,-0.06503,-0.19508,-0.90317,2023,6,12,11,18,23,385
0.09540,-252.82250,32.49750,0.00000,-0.04941,-0.15262,-0.92378,2023,6,12,11,18,23,396
0.09550,-270.72500,48.44000,0.00000,-0.02025,-0.12151,-0.98454,2023,6,12,11,18,23,408
0.09560,-262.64000,50.71500,0.00000,-0.03087,-0.11017,-1.07140,2023,6,12,11,18,23,419
0.09570,-238.59500,36.78500,0.00000,-0.04843,-0.07369,-1.12399,2023,6,12,11,18,23,430
0.09580,-228.44500,23.11750,0.00000,-0.04917,-0.05197,-1.09324,2023,6,12,11,18,23,441
0.09590,-220.02750,16.59000,0.00000,-0.01196,-0.00573,-1.04408,2023,6,12,11,18,23,452
0.09600,-218.41750,7.85750,0.00000,-0.00122,0.02818,-0.98149,2023,6,12,11,18,23,463
0.09610,-200.83000,8.78500,0.00000,0.03026,0.07857,-0.94294,2023,6,12,11,18,23,474
0.09620,-186.02500,9.60750,0.00000,0.02416,0.12822,-0.95575,2023,6,12,11,18,23,485
0.09630,-170.27500,10.08000,0.00000,0.00659,0.20203,-1.01406,2023,6,12,11,18,23,496
0.09640,-163.53750,2.73000,0.00000,0.02123,0.28145,-1.08104,2023,6,12,11,18,23,508
0.09650,-136.97250,-14.64750,0.00000,0.05856,0.32806,-1.06994,2023,6,12,11,18,23,519
0.09660,-99.41750,-28.12250,0.00000,0.04404,0.33123,-1.00321,2023,6,12,11,18,23,530
0.09670,-88.67250,-31.65750,0.00000,0.01806,0.33147,-0.95880,2023,6,12,11,18,23,541
0.09680,-77.45500,-31.76250,0.00000,0.01525,0.32037,-0.92854,2023,6,12,11,18,23,552
0.09690,-65.38000,-32.00750,0.00000,-0.01549,0.30183,-0.93403,2023,6,12,11,18,23,563
0.09700,-63.14000,-34.54500,0.00000,-0.02940,0.29829,-0.92659,2023,6,12,11,18,23,574
0.09710,-66.09750,-37.74750,0.00000,-0.02367,0.31830,-0.91146,2023,6,12,11,18,23,585
0.09720,-61.56500,-38.37750,0.00000,-0.00878,0.35856,-0.88718,2023,6,12,11,18,23,596
0.09730,-39.97000,-38.16750,0.00000,-0.01684,0.39674,-0.89633,2023,6,12,11,18,23,608
0.09740,-28.38500,-35.45500,0.00000,-0.02562,0.42383,-0.88377,2023,6,12,11,18,23,619
0.09750,-20.19500,-32.97000,0.00000,-0.02269,0.42639,-0.87181,2023,6,12,11,18,23,630
0.09760,-16.25750,-28.22750,0.00000,-0.05966,0.42859,-0.87852,2023,6,12,11,18,23,641
0.09770,-27.94750,-24.48250,0.00000,-0.06307,0.42859,-0.88352,2023,6,12,11,18,23,652
0.09780,-39.23500,-22.99500,0.00000,-0.07418,0.42444,-0.89048,2023,6,12,11,18,23,663
0.09790,-53.97000,-21.42000,0.00000,-0.07332,0.42798,-0.87779,2023,6,12,11,18,23,674
0.09800,-66.79750,-18.20000,0.00000,-0.08455,0.44628,-0.88243,2023,6,12,11,18,23,685
0.09810,-86.52000,-15.03250,0.00000,-0.09565,0.44164,-0.88218,2023,6,12,11,18,23,696
0.09820,-92.06750,-15.19000,0.00000,-0.09479,0.44091,-0.87828,2023,6,12,11,18,23,708
0.09830,-101.22000,-15.83750,0.00000,-0.11529,0.45042,-0.87498,2023,6,12,11,18,23,719
0.09840,-106.45250,-14.01750,0.00000,-0.11688,0.45335,-0.83375,2023,6,12,11,18,23,730
0.09850,-82.74000,-14.84000,0.00000,-0.10089,0.49154,-0.74957,2023,6,12,11,18,23,741
0.09860,187.19750,-19.12750,0.00000,-0.05368,0.60500,-0.50227,2023,6,12,11,18,23,752
0.09870,200.56750,-12.00500,0.00000,-0.10077,0.50630,-1.12179,2023,6,12,11,18,23,763
0.09880,-73.20250,-0.89250,0.00000,-0.10797,0.36222,-0.92244,2023,6,12,11,18,23,774
0.09890,-60.70750,3.18500,0.00000,-0.14213,0.32550,-0.83106,2023,6,12,11,18,23,785
0.09900,-6.23000,-5.75750,0.00000,-0.13481,0.32794,-0.88657,2023,6,12,11,18,23,796
0.09910,-6.82500,-11.46250,0.00000,-0.12371,0.37295,-0.88413,2023,6,12,11,18,23,808
0.09920,-9.76500,-9.55500,0.00000,-0.10150,0.42773,-0.83863,2023,6,12,11,18,23,819
0.09930,-0.42000,-8.19000,0.00000,-0.11663,0.45896,-0.84021,2023,6,12,11,18,23,830
0.09940,-0.24500,-8.12000,0.00000,-0.14128,0.43578,-0.86535,2023,6,12,11,18,23,841
0.09950,11.95250,-9.11750,0.00000,-0.11932,0.37552,-0.86034,2023,6,12,11,18,23,852
0.09960,17.83250,-10.44750,0.00000,-0.10687,0.37076,-0.90585,2023,6,12,11,18,23,863
0.09970,16.06500,-14.24500,0.00000,-0.12188,0.42017,-0.88182,2023,6,12,11,18,23,874
0.09980,31.53500,-18.18250,0.00000,-0.11614,0.43517,-0.86108,2023,6,12,11,18,23,885
0.09990,32.97000,-17.93750,0.00000,-0.09309,0.45787,-0.87706,2023,6,12,11,18,23,896
0.10000,10.41250,-14.91000,0.00000,-0.09333,0.50569,-0.86339,2023,6,12,11,18,23,908
0.10010,5.79250,-15.15500,0.00000,-0.08845,0.55339,-0.79227,2023,6,12,11,18,23,919
0.10020,21.52500,-11.98750,0.00000,-0.13408,0.54351,-0.77433,2023,6,12,11,18,23,930
0.10030,20.80750,-3.97250,0.00000,-0.14396,0.49947,-0.82167,2023,6,12,11,18,23,941
0.10040,0.15750,2.80000,0.00000,-0.15323,0.43749,-0.88047,2023,6,12,11,18,23,952
0.10050,-6.42250,3.95500,0.00000,-0.12346,0.38308,-0.92671,2023,6,12,11,18,23,963
0.10060,13.16000,-6.00250,0.00000,-0.10431,0.39211,-0.94099,2023,6,12,11,18,24,4
0.10070,53.62000,-19.70500,0.00000,-0.12200,0.42968,-0.90121,2023,6,12,11,18,24,15
0.10080,62.89500,-22.73250,0.00000,-0.14433,0.47653,-0.89890,2023,6,12,11,18,24,26
0.10090,27.47500,-22.66250,0.00000,-0.15787,0.41956,-0.83558,2023,6,12,11,18,24,38
0.10100,-2.50250,-15.24250,0.00000,-0.14982,0.35636,-0.78275,2023,6,12,11,18,24,49
0.10110,-24.69250,2.08250,0.00000,-0.14530,0.36478,-0.85217,2023,6,12,11,18,24,60
0.10120,-48.00250,5.04000,0.00000,-0.13945,0.43517,-0.91024,2023,6,12,11,18,24,71
0.10130,-33.89750,-0.94500,0.00000,-0.12285,0.45799,-0.90426,2023,6,12,11,18,24,82
0.10140,-9.69500,-5.58250,0.00000,-0.13335,0.44432,-0.90829,2023,6,12,11,18,24,93
0.10150,-4.88250,-11.74250,0.00000,-0.14628,0.42944,-0.92500,2023,6,12,11,18,24,104
0.10160,-10.09750,-13.68500,0.00000,-0.15165,0.42968,-0.91732,2023,6,12,11,18,24,115
0.10170,-4.83000,-17.37750,0.00000,-0.16067,0.41968,-0.92818,2023,6,12,11,18,24,126
0.10180,4.07750,-24.43000,0.00000,-0.13701,0.43847,-0.89829,2023,6,12,11,18,24,138
0.10190,10.95500,-27.86000,0.00000,-0.11419,0.48568,-0.88743,2023,6,12,11,18,24,149
0.10200,12.74000,-28.75250,0.00000,-0.11736,0.51191,-0.88328,2023,6,12,11,18,24,160
0.10210,0.22750,-29.50500,0.00000,-0.12542,0.51447,-0.87828,2023,6,12,11,18,24,171
0.10220,-20.86000,-27.51000,0.00000,-0.13554,0.49105,-0.85400,2023,6,12,11,18,24,182
0.10230,-46.70750,-24.43000,0.00000,-0.15750,0.45457,-0.81862,2023,6,12,11,18,24,193
0.10240,-48.23000,-19.54750,0.00000,-0.11639,0.43822,-0.81191,2023,6,12,11,18,24,204
0.10250,-39.62000,-18.88250,0.00000,-0.14530,0.44774,-0.81923,2023,6,12,11,18,24,215
0.10260,-40.46000,-20.82500,0.00000,-0.14530,0.45750,-0.81703,2023,6,12,11,18,24,226
0.10270,-47.84500,-20.24750,0.00000,-0.15714,0.46433,-0.82094,2023,6,12,11,18,24,238
0.10280,-67.77750,-18.65500,0.00000,-0.16446,0.48422,-0.81472,2023,6,12,11,18,24,249
0.10290,-72.10000,-15.22500,0.00000,-0.15274,0.53058,-0.80691,2023,6,12,11,18,24,260
0.10300,-60.00750,-16.41500,0.00000,-0.14262,0.57377,-0.79825,2023,6,12,11,18,24,271
0.10310,-52.27250,-16.57250,0.00000,-0.14359,0.57462,-0.77214,2023,6,12,11,18,24,282
0.10320,-44.36250,-12.42500,0.00000,-0.14835,0.56364,-0.77226,2023,6,12,11,18,24,293
0.10330,-32.88250,-8.62750,0.00000,-0.14933,0.55827,-0.77629,2023,6,12,11,18,24,304
0.10340,-14.03500,-8.78500,0.00000,-0.12688,0.55461,-0.77104,2023,6,12,11,18,24,315
0.10350,13.87750,-9.81750,0.00000,-0.12322,0.54839,-0.77738,2023,6,12,11,18,24,326
0.10360,41.42250,-10.81500,0.00000,-0.13298,0.55742,-0.78007,2023,6,12,11,18,24,338
0.10370,44.59000,-11.32250,0.00000,-0.13225,0.56913,-0.76030,2023,6,12,11,18,24,349
0.10380,32.79500,-6.98250,0.00000,-0.13274,0.55290,-0.72639,2023,6,12,11,18,24,360
0.10390,12.35500,3.71000,0.00000,-0.11810,0.53033,-0.69601,2023,6,12,11,18,24,371
0.10400,12.51250,13.66750,0.00000,-0.10687,0.51277,-0.70736,2023,6,12,11,18,24,382
0.10410,13.54500,21.08750,0.00000,-0.11273,0.50630,-0.71590,2023,6,12,11,18,24,393
0.10420,16.36250,25.44500,0.00000,-0.10516,0.51301,-0.73798,2023,6,12,11,18,24,404
0.10430,19.81000,31.69250,0.00000,-0.10419,0.52204,-0.74713,2023,6,12,11,18,24,415
0.10440,2.71250,37.36250,0.00000,-0.08991,0.52375,-0.76384,2023,6,12,11,18,24,426
0.10450,-11.74250,40.53000,0.00000,-0.10516,0.52436,-0.78104,2023,6,12,11,18,24,438
0.10460,-13.52750,42.42000,0.00000,-0.08076,0.51923,-0.79739,2023,6,12,11,18,24,449
0.10470,-1.99500,37.95750,0.00000,-0.09040,0.50130,-0.82130,2023,6,12,11,18,24,460
0.10480,2.45000,28.24500,0.00000,-0.06344,0.52631,-0.85046,2023,6,12,11,18,24,471
0.10490,-3.71000,20.16000,0.00000,-0.06344,0.55791,-0.83680,2023,6,12,11,18,24,482
0.10500,-26.47750,13.02000,0.00000,-0.06222,0.57657,-0.84070,2023,6,12,11,18,24,493
0.10510,-37.94000,11.06000,0.00000,-0.03074,0.59268,-0.83058,2023,6,12,11,18,24,504
0.10520,-51.71250,9.24000,0.00000,-0.04673,0.59719,-0.81167,2023,6,12,11,18,24,515
0.10530,-64.52250,11.42750,0.00000,-0.02916,0.59731,-0.80008,2023,6,12,11,18,24,526
0.10540,-90.07250,16.04750,0.00000,-0.04685,0.59207,-0.79971,2023,6,12,11,18,24,538
0.10550,-113.27750,20.72000,0.00000,-0.02721,0.59951,-0.80727,2023,6,12,11,18,24,549
0.10560,-131.68750,21.71750,0.00000,-0.00720,0.63708,-0.79776,2023,6,12,11,18,24,560
0.10570,-133.96250,19.33750,0.00000,0.00549,0.67930,-0.77738,2023,6,12,11,18,24,571
0.10580,-124.35500,17.43000,0.00000,0.03282,0.72932,-0.75201,2023,6,12,11,18,24,582
0.10590,-99.12000,13.98250,0.00000,0.04465,0.74579,-0.73066,2023,6,12,11,18,24,593
0.10600,-79.73000,11.97000,0.00000,0.04575,0.76384,-0.70821,2023,6,12,11,18,24,604
0.10610,-69.42250,12.23250,0.00000,0.06173,0.79227,-0.70211,2023,6,12,11,18,24,615
0.10620,-67.46250,12.54750,0.00000,0.04185,0.81533,-0.68527,2023,6,12,11,18,24,626
0.10630,-67.39250,13.03750,0.00000,0.04807,0.80740,-0.67088,2023,6,12,11,18,24,638
0.10640,-66.41250,14.77000,0.00000,0.03611,0.78531,-0.64306,2023,6,12,11,18,24,649
0.10650,-60.21750,18.20000,0.00000,0.03074,0.76311,-0.64623,2023,6,12,11,18,24,660
0.10660,-56.00000,21.82250,0.00000,0.02623,0.74359,-0.62098,2023,6,12,11,18,24,671
0.10670,-39.69000,21.78750,0.00000,0.03538,0.72907,-0.62000,2023,6,12,11,18,24,682
0.10680,-27.37000,20.31750,0.00000,0.03209,0.74518,-0.64196,2023,6,12,11,18,24,693
0.10690,-13.70250,17.65750,0.00000,0.03477,0.73725,-0.62915,2023,6,12,11,18,24,704
0.10700,5.58250,14.42000,0.00000,0.04538,0.72968,-0.63989,2023,6,12,11,18,24,715
0.10710,19.11000,12.00500,0.00000,0.04648,0.74676,-0.62940,2023,6,12,11,18,24,726
0.10720,27.56250,8.12000,0.00000,0.03745,0.75469,-0.65575,2023,6,12,11,18,24,738
0.10730,20.87750,6.30000,0.00000,0.03550,0.76445,-0.65575,2023,6,12,11,18,24,749
0.10740,4.55000,5.81000,0.00000,0.04136,0.77019,-0.64880,2023,6,12,11,18,24,760
0.10750,6.52750,2.46750,0.00000,0.05209,0.77080,-0.64721,2023,6,12,11,18,24,771
0.10760,16.01250,-0.77000,0.00000,0.05697,0.77019,-0.65941,2023,6,12,11,18,24,782
0.10770,32.16500,-5.75750,0.00000,0.05380,0.76262,-0.65514,2023,6,12,11,18,24,793
0.10780,38.97250,-9.83500,0.00000,0.05624,0.75018,-0.66697,2023,6,12,11,18,24,804
0.10790,43.12000,-12.79250,0.00000,0.05234,0.74103,-0.63916,2023,6,12,11,18,24,815
0.10800,35.57750,-11.53250,0.00000,0.06002,0.74688,-0.63269,2023,6,12,11,18,24,826
0.10810,25.81250,-7.52500,0.00000,0.06393,0.75140,-0.61354,2023,6,12,11,18,24,838
0.10820,19.68750,-2.67750,0.00000,0.06905,0.74481,-0.61830,2023,6,12,11,18,24,849
0.10830,24.78000,-0.73500,0.00000,0.07918,0.73066,-0.64428,2023,6,12,11,18,24,860
0.10840,43.50500,-5.75750,0.00000,0.09443,0.71504,-0.66002,2023,6,12,11,18,24,871
0.10850,72.95750,-13.21250,0.00000,0.08625,0.72700,-0.68418,2023,6,12,11,18,24,882
0.10860,74.27000,-18.04250,0.00000,0.07564,0.74054,-0.70455,2023,6,12,11,18,24,893
0.10870,66.72750,-19.75750,0.00000,0.08137,0.74054,-0.70394,2023,6,12,11,18,24,904
0.10880,61.74000,-18.09500,0.00000,0.08076,0.73249,-0.70089,2023,6,12,11,18,24,915
0.10890,49.49000,-14.78750,0.00000,0.07552,0.71553,-0.72834,2023,6,12,11,18,24,926
0.10900,36.59250,-13.10750,0.00000,0.09333,0.70614,-0.71748,2023,6,12,11,18,24,938
0.10910,40.05750,-14.33250,0.00000,0.05710,0.69369,-0.73102,2023,6,12,11,18,24,949
0.10920,36.64500,-15.24250,0.00000,0.05478,0.67527,-0.73554,2023,6,12,11,18,24,960
0.10930,28.84000,-16.11750,0.00000,0.05856,0.67210,-0.73566,2023,6,12,11,18,24,971
0.10940,24.06250,-15.48750,0.00000,0.07259,0.65697,-0.71675,2023,6,12,11,18,25,2
0.10950,19.26750,-12.74000,0.00000,0.06368,0.65758,-0.70992,2023,6,12,11,18,25,13
0.10960,10.08000,-8.06750,0.00000,0.03538,0.65782,-0.71651,2023,6,12,11,18,25,24
0.10970,3.76250,-4.06000,0.00000,0.05319,0.64941,-0.70992,2023,6,12,11,18,25,35
0.10980,0.17500,-0.56000,0.00000,0.04380,0.64831,-0.72578,2023,6,12,11,18,25,46
0.10990,-7.07000,1.41750,0.00000,0.03977,0.64648,-0.72675,2023,6,12,11,18,25,58
0.11000,-9.95750,1.40000,0.00000,0.05624,0.64367,-0.72395,2023,6,12,11,18,25,69
0.11010,-9.20500,0.26250,0.00000,0.04819,0.64489,-0.71919,2023,6,12,11,18,25,80
0.11020,-9.22250,0.29750,0.00000,0.04648,0.65014,-0.72431,2023,6,12,11,18,25,91
0.11030,-12.02250,1.17250,0.00000,0.05405,0.65807,-0.71492,2023,6,12,11,18,25,102
0.11040,-13.93000,2.45000,0.00000,0.06344,0.67381,-0.71882,2023,6,12,11,18,25,113
0.11050,-15.83750,3.79750,0.00000,0.06930,0.69125,-0.71358,2023,6,12,11,18,25,124
0.11060,-16.60750,4.37500,0.00000,0.06991,0.69699,-0.70723,2023,6,12,11,18,25,135
0.11070,-20.59750,4.55000,0.00000,0.07710,0.69894,-0.69918,2023,6,12,11,18,25,146
0.11080,-23.95750,8.38250,0.00000,0.08015,0.69076,-0.67490,2023,6,12,11,18,25,158
0.11090,-31.34250,13.42250,0.00000,0.07698,0.68747,-0.68076,2023,6,12,11,18,25,169
0.11100,-36.06750,16.53750,0.00000,0.08418,0.68967,-0.68759,2023,6,12,11,18,25,180
0.11110,-39.13000,17.27250,0.00000,0.09199,0.69223,-0.68479,2023,6,12,11,18,25,191
0.11120,-37.80000,17.69250,0.00000,0.09919,0.70723,-0.69259,2023,6,12,11,18,25,202
0.11130,-40.32000,17.11500,0.00000,0.09174,0.73651,-0.69747,2023,6,12,11,18,25,213
0.11140,-40.61750,15.22500,0.00000,0.10699,0.76445,-0.70797,2023,6,12,11,18,25,224
0.11150,-32.13000,11.76000,0.00000,0.11492,0.77470,-0.69613,2023,6,12,11,18,25,235
0.11160,-27.31750,8.59250,0.00000,0.11895,0.75933,-0.68088,2023,6,12,11,18,25,246
0.11170,-25.90000,8.48750,0.00000,0.10016,0.74823,-0.66588,2023,6,12,11,18,25,258
0.11180,-24.81500,9.87000,0.00000,0.08991,0.74505,-0.66502,2023,6,12,11,18,25,269
0.11190,-30.32750,10.50000,0.00000,0.10870,0.74444,-0.65575,2023,6,12,11,18,25,280
0.11200,-30.67750,9.60750,0.00000,0.10882,0.75311,-0.65770,2023,6,12,11,18,25,291
0.11210,-31.55250,9.55500,0.00000,0.11370,0.76055,-0.64428,2023,6,12,11,18,25,302
0.11220,-30.71250,10.02750,0.00000,0.10663,0.76348,-0.63355,2023,6,12,11,18,25,313
0.11230,-29.62750,11.02500,0.00000,0.10346,0.75652,-0.63257,2023,6,12,11,18,25,324
0.11240,-28.07000,11.39250,0.00000,0.12090,0.74847,-0.62232,2023,6,12,11,18,25,335
0.11250,-24.02750,10.36000,0.00000,0.09980,0.74469,-0.62244,2023,6,12,11,18,25,346
0.11260,-24.46500,10.01000,0.00000,0.10834,0.74310,-0.61146,2023,6,12,11,18,25,358
0.11270,-25.35750,10.41250,0.00000,0.11517,0.74444,-0.59646,2023,6,12,11,18,25,369
0.11280,-18.49750,11.32250,0.00000,0.11712,0.74725,-0.59853,2023,6,12,11,18,25,380
0.11290,-17.34250,10.79750,0.00000,0.12041,0.75799,-0.60366,2023,6,12,11,18,25,391
0.11300,-10.60500,9.15250,0.00000,0.12041,0.74396,-0.58987,2023,6,12,11,18,25,402
0.11310,38.67500,5.12750,0.00000,0.13432,0.70089,-0.62318,2023,6,12,11,18,25,413
0.11320,35.19250,2.60750,0.00000,0.11932,0.74871,-0.64514,2023,6,12,11,18,25,424
0.11330,29.47000,1.92500,0.00000,0.13444,0.77311,-0.63818,2023,6,12,11,18,25,435
0.11340,22.22500,1.19000,0.00000,0.13762,0.79617,-0.63708,2023,6,12,11,18,25,446
0.11350,14.19250,3.44750,0.00000,0.13884,0.79617,-0.61439,2023,6,12,11,18,25,458
0.11360,1.08500,7.38500,0.00000,0.13115,0.79459,-0.62305,2023,6,12,11,18,25,469
0.11370,-9.94000,10.79750,0.00000,0.14213,0.79995,-0.63184,2023,6,12,11,18,25,480
0.11380,-13.94750,12.56500,0.00000,0.16165,0.79690,-0.63037,2023,6,12,11,18,25,491
0.11390,-9.38000,10.78000,0.00000,0.15213,0.80056,-0.65868,2023,6,12,11,18,25,502
0.11400,-8.01500,6.49250,0.00000,0.15079,0.78971,-0.65343,2023,6,12,11,18,25,513
0.11410,-2.34500,2.41500,0.00000,0.15726,0.77470,-0.63977,2023,6,12,11,18,25,524
0.11420,2.57250,0.42000,0.00000,0.15299,0.76213,-0.62952,2023,6,12,11,18,25,535
0.11430,4.70750,-0.54250,0.00000,0.15860,0.75542,-0.61695,2023,6,12,11,18,25,546
0.11440,8.22500,-0.96250,0.00000,0.15921,0.75384,-0.61207,2023,6,12,11,18,25,558
0.11450,8.01500,-1.03250,0.00000,0.16141,0.75579,-0.60695,2023,6,12,11,18,25,569
0.11460,11.23500,-1.85500,0.00000,0.16311,0.75225,-0.60195,2023,6,12,11,18,25,580
0.11470,12.72250,-1.54000,0.00000,0.17629,0.75457,-0.60244,2023,6,12,11,18,25,591
0.11480,14.40250,-2.46750,0.00000,0.16946,0.76409,-0.59194,2023,6,12,11,18,25,602
0.11490,13.75500,-1.59250,0.00000,0.16616,0.75872,-0.59585,2023,6,12,11,18,25,613
0.11500,10.43000,0.71750,0.00000,0.16738,0.75298,-0.59207,2023,6,12,11,18,25,624
0.11510,5.42500,3.99000,0.00000,0.17202,0.74127,-0.60573,2023,6,12,11,18,25,635
0.11520,4.28750,5.44250,0.00000,0.17312,0.73773,-0.62415,2023,6,12,11,18,25,646
0.11530,5.00500,4.95250,0.00000,0.16141,0.74261,-0.64440,2023,6,12,11,18,25,658
0.11540,7.10500,3.41250,0.00000,0.17141,0.74786,-0.64660,2023,6,12,11,18,25,669
0.11550,15.06750,-1.06750,0.00000,0.16519,0.74737,-0.64855,2023,6,12,11,18,25,680
0.11560,18.67250,-3.67500,0.00000,0.17775,0.75469,-0.64050,2023,6,12,11,18,25,691
0.11570,22.43500,-5.32000,0.00000,0.17727,0.75713,-0.63513,2023,6,12,11,18,25,702
0.11580,22.83750,-6.26500,0.00000,0.18337,0.75738,-0.63025,2023,6,12,11,18,25,713
0.11590,19.49500,-6.14250,0.00000,0.18483,0.75250,-0.62549,2023,6,12,11,18,25,724
0.11600,13.23000,-3.86750,0.00000,0.18678,0.74786,-0.61781,2023,6,12,11,18,25,735
0.11610,3.36000,-1.52250,0.00000,0.19203,0.75237,-0.61244,2023,6,12,11,18,25,746
0.11620,-1.90750,-8.78500,0.00000,-0.09150,1.44216,-1.46778,2023,6,12,11,18,25,758
0.11630,7.45500,-16.34500,0.00000,0.42102,1.11654,-0.92122,2023,6,12,11,18,25,769
0.11640,21.26250,-12.67000,0.00000,0.19642,0.76140,-0.64111,2023,6,12,11,18,25,780
0.11650,20.40500,-10.93750,0.00000,0.18227,0.73505,-0.66209,2023,6,12,11,18,25,791
0.11660,8.59250,-10.13250,0.00000,0.18922,0.74993,-0.64819,2023,6,12,11,18,25,802
0.11670,12.75750,-9.38000,0.00000,0.19191,0.75067,-0.64892,2023,6,12,11,18,25,813
0.11680,11.83000,-7.94500,0.00000,0.18398,0.73615,-0.64941,2023,6,12,11,18,25,824
0.11690,7.71750,-7.89250,0.00000,0.18093,0.73664,-0.64904,2023,6,12,11,18,25,835
0.11700,7.38500,-7.87500,0.00000,0.17702,0.73700,-0.65038,2023,6,12,11,18,25,846
0.11710,5.67000,-8.38250,0.00000,0.18105,0.73578,-0.64111,2023,6,12,11,18,25,858
0.11720,8.06750,-8.76750,0.00000,0.18068,0.73322,-0.64087,2023,6,12,11,18,25,869
0.11730,0.31500,-8.26000,0.00000,0.16409,0.74676,-0.63489,2023,6,12,11,18,25,880
0.11740,11.95250,-10.18500,0.00000,0.17836,0.72724,-0.65319,2023,6,12,11,18,25,891
0.11750,10.43000,-11.63750,0.00000,0.17641,0.72651,-0.64611,2023,6,12,11,18,25,902
0.11760,9.20500,-10.74500,0.00000,0.16494,0.73664,-0.65685,2023,6,12,11,18,25,913
0.11770,8.48750,-10.25500,0.00000,0.16995,0.72749,-0.64904,2023,6,12,11,18,25,924
0.11780,10.58750,-11.04250,0.00000,0.17983,0.72102,-0.66087,2023,6,12,11,18,25,935
0.11790,8.59250,-12.11000,0.00000,0.14750,0.72553,-0.63111,2023,6,12,11,18,25,946
0.11800,26.05750,-12.68750,0.00000,0.16189,0.71712,-0.61500,2023,6,12,11,18,25,958
0.11810,30.53750,-14.33250,0.00000,0.19435,0.72700,-0.64977,2023,6,12,11,18,25,969
0.11820,36.10250,-14.57750,0.00000,0.15177,0.71626,-0.65758,2023,6,12,11,18,26,0
0.11830,36.99500,-13.82500,0.00000,0.17251,0.71053,-0.66502,2023,6,12,11,18,26,11
0.11840,40.51250,-13.75500,0.00000,0.14969,0.70687,-0.67271,2023,6,12,11,18,26,22
0.11850,36.19000,-13.09000,0.00000,0.15348,0.71699,-0.70113,2023,6,12,11,18,26,33
0.11860,31.20250,-12.82750,0.00000,0.13896,0.72041,-0.68430,2023,6,12,11,18,26,44
0.11870,34.52750,-11.81250,0.00000,0.14494,0.71004,-0.68576,2023,6,12,11,18,26,55
0.11880,34.07250,-11.53250,0.00000,0.14433,0.69516,-0.69625,2023,6,12,11,18,26,66
0.11890,34.33500,-12.88000,0.00000,0.14201,0.68759,-0.68723,2023,6,12,11,18,26,78
0.11900,39.21750,-12.54750,0.00000,0.13213,0.69552,-0.70455,2023,6,12,11,18,26,89
0.11910,37.67750,-12.12750,0.00000,0.13261,0.70040,-0.72053,2023,6,12,11,18,26,100
0.11920,33.65250,-12.37250,0.00000,0.14018,0.67808,-0.70906,2023,6,12,11,18,26,111
0.11930,37.43250,-12.18000,0.00000,0.14262,0.66575,-0.70321,2023,6,12,11,18,26,122
0.11940,37.22250,-12.05750,0.00000,0.12725,0.65831,-0.73334,2023,6,12,11,18,26,133
0.11950,29.06750,-11.86500,0.00000,0.10480,0.66722,-0.74103,2023,6,12,11,18,26,144
0.11960,25.34000,-11.20000,0.00000,0.14201,0.67393,-0.72907,2023,6,12,11,18,26,155
0.11970,31.46500,-10.53500,0.00000,0.11846,0.66588,-0.72053,2023,6,12,11,18,26,166
0.11980,34.96500,-9.85250,0.00000,0.10455,0.64367,-0.74249,2023,6,12,11,18,26,178
0.11990,27.54500,-10.64000,0.00000,0.11126,0.64087,-0.75335,2023,6,12,11,18,26,189
0.12000,20.33500,-10.62250,0.00000,0.10724,0.64745,-0.74945,2023,6,12,11,18,26,200
0.12010,24.39500,-11.23500,0.00000,0.06393,0.63233,-0.73651,2023,6,12,11,18,26,211
0.12020,47.26750,-13.24750,0.00000,0.15213,0.71943,-0.85717,2023,6,12,11,18,26,222
0.12030,6.79000,-13.73750,0.00000,0.09040,0.60195,-0.71565,2023,6,12,11,18,26,233
0.12040,3.53500,-14.45500,0.00000,0.10773,0.62928,-0.75225,2023,6,12,11,18,26,244
0.12050,12.98500,-12.95000,0.00000,0.07198,0.60073,-0.69601,2023,6,12,11,18,26,255
0.12060,21.36750,-10.23750,0.00000,0.11261,0.63086,-0.73590,2023,6,12,11,18,26,266
0.12070,21.91000,-8.82000,0.00000,0.10907,0.63062,-0.76945,2023,6,12,11,18,26,278
0.12080,18.02500,-8.26000,0.00000,0.08638,0.63428,-0.77080,2023,6,12,11,18,26,289
0.12090,19.09250,-6.68500,0.00000,0.08906,0.63489,-0.76640,2023,6,12,11,18,26,300
0.12100,19.12750,-6.02000,0.00000,0.08638,0.61976,-0.77397,2023,6,12,11,18,26,311
0.12110,12.77500,-6.77250,0.00000,0.08028,0.62684,-0.78263,2023,6,12,11,18,26,322
0.12120,8.27750,-7.21000,0.00000,0.09052,0.62684,-0.76970,2023,6,12,11,18,26,333
0.12130,14.96250,-7.03500,0.00000,0.09345,0.62244,-0.75994,2023,6,12,11,18,26,344
0.12140,18.25250,-7.99750,0.00000,0.08503,0.61964,-0.76091,2023,6,12,11,18,26,355
0.12150,14.57750,-9.50250,0.00000,0.08394,0.61085,-0.77348,2023,6,12,11,18,26,366
0.12160,16.27500,-10.01000,0.00000,0.07808,0.60244,-0.77507,2023,6,12,11,18,26,378
0.12170,20.73750,-11.51500,0.00000,0.10102,0.62330,-0.79239,2023,6,12,11,18,26,389
0.12180,15.45250,-11.84750,0.00000,0.07832,0.59707,-0.77092,2023,6,12,11,18,26,400
0.12190,23.92250,-11.93500,0.00000,0.08662,0.62476,-0.78568,2023,6,12,11,18,26,411
0.12200,36.26000,-11.65500,0.00000,0.10358,0.67503,-0.81020,2023,6,12,11,18,26,422
0.12210,53.51500,-12.35500,0.00000,0.09284,0.72395,-0.87901,2023,6,12,11,18,26,433
0.12220,5.82750,-9.43250,0.00000,0.08003,0.64233,-0.81032,2023,6,12,11,18,26,444
0.12230,19.84500,-6.21250,0.00000,0.06405,0.58877,-0.77921,2023,6,12,11,18,26,455
0.12240,18.77750,-7.00000,0.00000,0.07015,0.58767,-0.78983,2023,6,12,11,18,26,466
0.12250,14.15750,-7.87500,0.00000,0.06381,0.58743,-0.80154,2023,6,12,11,18,26,478
0.12260,12.72250,-8.66250,0.00000,0.06564,0.58645,-0.77568,2023,6,12,11,18,26,489
0.12270,29.82000,-11.69000,0.00000,0.06637,0.58963,-0.74335,2023,6,12,11,18,26,500
0.12280,46.06000,-8.83750,0.00000,0.06051,0.57816,-0.82679,2023,6,12,11,18,26,511
0.12290,33.51250,-8.75000,0.00000,0.06002,0.57474,-0.79947,2023,6,12,11,18,26,522
0.12300,48.58000,-11.77750,0.00000,0.05392,0.58048,-0.76396,2023,6,12,11,18,26,533
0.12310,70.28000,-11.55000,0.00000,0.05453,0.56108,-0.78983,2023,6,12,11,18,26,544
0.12320,76.40500,-11.41000,0.00000,0.05185,0.55193,-0.81337,2023,6,12,11,18,26,555
0.12330,87.74500,-9.39750,0.00000,0.02806,0.58841,-0.81362,2023,6,12,11,18,26,566
0.12340,123.91750,-9.59000,0.00000,0.00830,0.69601,-0.63074,2023,6,12,11,18,26,578
0.12350,210.12250,-3.67500,0.00000,0.06283,0.43652,-0.84997,2023,6,12,11,18,26,589
0.12360,203.14000,0.15750,0.00000,0.07259,0.34916,-0.96929,2023,6,12,11,18,26,600
0.12370,118.65000,-6.33500,0.00000,0.05466,0.36222,-1.07189,2023,6,12,11,18,26,611
0.12380,31.83250,-11.48000,0.00000,0.05307,0.39565,-0.93452,2023,6,12,11,18,26,622
0.12390,42.15750,-9.53750,0.00000,0.05026,0.44042,-0.83363,2023,6,12,11,18,26,633
0.12400,86.92250,-4.30500,0.00000,0.05466,0.41358,-0.84436,2023,6,12,11,18,26,644
0.12410,95.04250,-4.86500,0.00000,0.05148,0.38601,-0.91500,2023,6,12,11,18,26,655
0.12420,83.45750,-5.00500,0.00000,0.05563,0.35685,-0.93696,2023,6,12,11,18,26,666
0.12430,71.90750,-6.54500,0.00000,0.05258,0.34709,-0.92220,2023,6,12,11,18,26,678
0.12440,74.65500,-7.08750,0.00000,0.05148,0.34563,-0.91842,2023,6,12,11,18,26,689
0.12450,81.49750,-5.19750,0.00000,0.05014,0.33111,-0.92952,2023,6,12,11,18,26,700
0.12460,76.93000,-5.21500,0.00000,0.05331,0.30073,-0.95502,2023,6,12,11,18,26,711
0.12470,61.72250,-5.37250,0.00000,0.05222,0.28926,-0.98857,2023,6,12,11,18,26,722
0.12480,40.60000,-6.37000,0.00000,0.05392,0.28023,-0.96221,2023,6,12,11,18,26,733
0.12490,28.12250,-6.16000,0.00000,0.04965,0.29121,-0.96331,2023,6,12,11,18,26,744
0.12500,29.27750,-7.40250,0.00000,0.05075,0.29902,-0.90927,2023,6,12,11,18,26,755
0.12510,55.00250,-6.68500,0.00000,0.05246,0.28865,-0.91244,2023,6,12,11,18,26,766
0.12520,70.70000,-7.00000,0.00000,0.04917,0.27023,-0.94269,2023,6,12,11,18,26,778
0.12530,75.25000,-6.98250,0.00000,0.05087,0.26620,-0.92561,2023,6,12,11,18,26,789
0.12540,82.81000,-5.74000,0.00000,0.04880,0.23473,-0.97002,2023,6,12,11,18,26,800
0.12550,71.62750,-6.30000,0.00000,0.04795,0.22094,-0.97136,2023,6,12,11,18,26,811
0.12560,68.18000,-4.98750,0.00000,0.05002,0.19435,-0.99650,2023,6,12,11,18,26,822
0.12570,51.59000,-7.08750,0.00000,0.04892,0.19593,-0.96514,2023,6,12,11,18,26,833
0.12580,57.54000,-4.83000,0.00000,0.05100,0.19593,-0.97197,2023,6,12,11,18,26,844
0.12590,53.93500,-4.81250,0.00000,0.05051,0.17971,-0.97685,2023,6,12,11,18,26,855
0.12600,48.65000,-5.60000,0.00000,0.05002,0.17397,-0.97673,2023,6,12,11,18,26,866
0.12610,56.03500,-6.28250,0.00000,0.05319,0.17165,-0.93952,2023,6,12,11,18,26,878
0.12620,74.72500,-6.82500,0.00000,0.04965,0.18727,-0.90670,2023,6,12,11,18,26,889
0.12630,123.27000,-7.47250,0.00000,0.04746,0.17678,-0.86376,2023,6,12,11,18,26,900
0.12640,184.24000,-6.28250,0.00000,0.05490,0.11370,-0.89511,2023,6,12,11,18,26,911
0.12650,-3.15000,-3.71000,0.00000,0.11395,-0.04746,-1.43387,2023,6,12,11,18,26,922
0.12660,1.54000,-8.36500,0.00000,0.04014,0.03819,-0.94574,2023,6,12,11,18,26,933
0.12670,3.83250,-1.80250,0.00000,0.04685,0.08894,-0.99369,2023,6,12,11,18,26,944
0.12680,2.80000,-6.89500,0.00000,0.04050,0.10651,-0.99637,2023,6,12,11,18,27,5
0.12690,3.08000,-4.46250,0.00000,0.04721,0.10199,-0.97624,2023,6,12,11,18,27,16
0.12700,2.85250,-5.30250,0.00000,0.04648,0.09565,-0.98625,2023,6,12,11,18,27,28
0.12710,2.48500,-7.64750,0.00000,0.04294,0.10163,-0.97563,2023,6,12,11,18,27,39
0.12720,2.60750,-6.63250,0.00000,0.04404,0.08930,-0.99552,2023,6,12,11,18,27,50
0.12730,2.60750,-6.24750,0.00000,0.04575,0.09943,-0.97368,2023,6,12,11,18,27,61
0.12740,2.52000,-6.96500,0.00000,0.04392,0.09577,-0.98527,2023,6,12,11,18,27,72
0.12750,2.45000,-6.96500,0.00000,0.04392,0.09504,-0.97905,2023,6,12,11,18,27,83
0.12760,2.52000,-7.12250,0.00000,0.04331,0.09418,-0.98381,2023,6,12,11,18,27,94
0.12770,2.67750,-6.00250,0.00000,0.04587,0.09614,-0.98649,2023,6,12,11,18,27,105
0.12780,3.04500,-4.76000,0.00000,0.04526,0.10126,-0.98539,2023,6,12,11,18,27,116
0.12790,3.20250,-4.04250,0.00000,0.04477,0.09736,-0.98112,2023,6,12,11,18,27,128
0.12800,3.27250,-3.48250,0.00000,0.04575,0.09431,-0.98271,2023,6,12,11,18,27,139
0.12810,3.34250,-3.55250,0.00000,0.04453,0.09540,-0.98088,2023,6,12,11,18,27,150
0.12820,3.43000,-3.67500,0.00000,0.04734,0.09333,-0.98405,2023,6,12,11,18,27,161
0.12830,2.87000,-4.51500,0.00000,0.04843,0.10712,-0.95685,2023,6,12,11,18,27,172
0.12840,3.18500,-4.58500,0.00000,0.04648,0.08686,-0.99637,2023,6,12,11,18,27,183
0.12850,2.95750,-5.11000,0.00000,0.04648,0.10016,-0.97868,2023,6,12,11,18,27,194
0.12860,3.01000,-4.32250,0.00000,0.04490,0.09467,-0.98112,2023,6,12,11,18,27,205
0.12870,3.06250,-4.88250,0.00000,0.04441,0.09626,-0.98393,2023,6,12,11,18,27,216
0.12880,3.01000,-4.44500,0.00000,0.04563,0.09699,-0.97832,2023,6,12,11,18,27,228
0.12890,3.06250,-4.77750,0.00000,0.04612,0.09809,-0.98295,2023,6,12,11,18,27,239
0.12900,2.95750,-4.63750,0.00000,0.04685,0.09760,-0.97820,2023,6,12,11,18,27,250
0.12910,3.09750,-4.56750,0.00000,0.04477,0.09809,-0.98393,2023,6,12,11,18,27,261
0.12920,3.23750,-4.81250,0.00000,0.04758,0.09565,-0.98076,2023,6,12,11,18,27,272
0.12930,2.87000,-4.67250,0.00000,0.04673,0.09784,-0.98222,2023,6,12,11,18,27,283
0.12940,3.06250,-4.79500,0.00000,0.04612,0.09723,-0.98149,2023,6,12,11,18,27,294
0.12950,3.01000,-4.55000,0.00000,0.04538,0.09736,-0.98271,2023,6,12,11,18,27,305
0.12960,3.15000,-4.79500,0.00000,0.04477,0.09687,-0.98210,2023,6,12,11,18,27,316
0.12970,2.88750,-4.79500,0.00000,0.04490,0.09492,-0.98234,2023,6,12,11,18,27,328
0.12980,3.15000,-4.86500,0.00000,0.04490,0.09565,-0.98137,2023,6,12,11,18,27,339
0.12990,3.06250,-4.62000,0.00000,0.04636,0.09723,-0.98381,2023,6,12,11,18,27,350
0.13000,3.23750,-4.60250,0.00000,0.04538,0.09589,-0.98308,2023,6,12,11,18,27,361
0.13010,2.97500,-4.76000,0.00000,0.04465,0.09614,-0.98125,2023,6,12,11,18,27,372
0.13020,3.01000,-4.69000,0.00000,0.04465,0.09711,-0.98381,2023,6,12,11,18,27,383
0.13030,3.06250,-4.60250,0.00000,0.04355,0.09601,-0.98088,2023,6,12,11,18,27,394
0.13040,3.01000,-4.81250,0.00000,0.04380,0.09821,-0.97868,2023,6,12,11,18,27,405
0.13050,3.20250,-4.63750,0.00000,0.04758,0.09675,-0.98003,2023,6,12,11,18,27,416
0.13060,3.06250,-4.76000,0.00000,0.04538,0.09565,-0.98076,2023,6,12,11,18,27,428
0.13070,3.20250,-4.84750,0.00000,0.04380,0.09797,-0.98320,2023,6,12,11,18,27,439
0.13080,3.08000,-4.84750,0.00000,0.04404,0.09650,-0.98271,2023,6,12,11,18,27,450
0.13090,3.34250,-4.65500,0.00000,0.04612,0.09748,-0.98210,2023,6,12,11,18,27,461
0.13100,3.08000,-4.86500,0.00000,0.04233,0.09626,-0.98222,2023,6,12,11,18,27,472
0.13110,2.80000,-4.46250,0.00000,0.04477,0.09650,-0.98198,2023,6,12,11,18,27,483
0.13120,2.94000,-4.67250,0.00000,0.04575,0.09565,-0.98198,2023,6,12,11,18,27,494
0.13130,3.13250,-4.79500,0.00000,0.04429,0.09906,-0.98283,2023,6,12,11,18,27,505
0.13140,3.06250,-4.70750,0.00000,0.04380,0.09736,-0.98137,2023,6,12,11,18,27,516
0.13150,3.15000,-4.91750,0.00000,0.04490,0.09626,-0.97929,2023,6,12,11,18,27,528
0.13160,3.16750,-4.81250,0.00000,0.04441,0.09540,-0.98064,2023,6,12,11,18,27,539
0.13170,2.97500,-4.67250,0.00000,0.04514,0.09601,-0.98210,2023,6,12,11,18,27,550
0.13180,3.04500,-4.76000,0.00000,0.04599,0.09711,-0.98015,2023,6,12,11,18,27,561
0.13190,3.04500,-4.63750,0.00000,0.04209,0.09736,-0.98064,2023,6,12,11,18,27,572
0.13200,3.06250,-4.70750,0.00000,0.04624,0.09833,-0.98283,2023,6,12,11,18,27,583
0.13210,3.08000,-4.88250,0.00000,0.04319,0.09736,-0.97868,2023,6,12,11,18,27,594
0.13220,3.02750,-4.72500,0.00000,0.04380,0.09626,-0.98064,2023,6,12,11,18,27,605
0.13230,3.20250,-4.86500,0.00000,0.04380,0.09675,-0.98088,2023,6,12,11,18,27,616
0.13240,3.09750,-4.65500,0.00000,0.04453,0.09797,-0.98186,2023,6,12,11,18,27,628
0.13250,2.99250,-4.88250,0.00000,0.04270,0.09687,-0.98259,2023,6,12,11,18,27,639
0.13260,2.99250,-4.76000,0.00000,0.04429,0.09687,-0.98320,2023,6,12,11,18,27,650
0.13270,2.99250,-4.69000,0.00000,0.04551,0.09687,-0.98222,2023,6,12,11,18,27,661
0.13280,3.08000,-4.79500,0.00000,0.04380,0.09589,-0.97856,2023,6,12,11,18,27,672
0.13290,3.04500,-4.60250,0.00000,0.04563,0.09675,-0.98186,2023,6,12,11,18,27,683
0.13300,3.15000,-4.72500,0.00000,0.04160,0.09784,-0.98600,2023,6,12,11,18,27,694
0.13310,2.94000,-4.88250,0.00000,0.04368,0.09809,-0.98100,2023,6,12,11,18,27,705
0.13320,2.88750,-4.77750,0.00000,0.04319,0.09699,-0.98137,2023,6,12,11,18,27,716
0.13330,3.16750,-4.58500,0.00000,0.04453,0.09833,-0.98027,2023,6,12,11,18,27,728
0.13340,2.99250,-4.83000,0.00000,0.04441,0.09760,-0.98064,2023,6,12,11,18,27,739
0.13350,3.11500,-4.65500,0.00000,0.04429,0.09638,-0.98088,2023,6,12,11,18,27,750
0.13360,3.23750,-4.88250,0.00000,0.04355,0.09711,-0.98125,2023,6,12,11,18,27,761
0.13370,3.08000,-4.72500,0.00000,0.04331,0.09845,-0.98332,2023,6,12,11,18,27,772
0.13380,3.02750,-4.76000,0.00000,0.04624,0.09833,-0.98234,2023,6,12,11,18,27,783
0.13390,3.09750,-4.62000,0.00000,0.04551,0.09577,-0.98198,2023,6,12,11,18,27,794
0.13400,3.25500,-4.69000,0.00000,0.04246,0.09528,-0.98381,2023,6,12,11,18,27,805
0.13410,3.15000,-4.69000,0.00000,0.04307,0.09797,-0.98369,2023,6,12,11,18,27,816
0.13420,3.04500,-4.63750,0.00000,0.04416,0.09809,-0.98283,2023,6,12,11,18,27,828
0.13430,2.88750,-4.63750,0.00000,0.04514,0.09821,-0.98112,2023,6,12,11,18,27,839
0.13440,3.01000,-4.70750,0.00000,0.04172,0.09797,-0.98149,2023,6,12,11,18,27,850
0.13450,3.16750,-4.65500,0.00000,0.04380,0.09614,-0.98064,2023,6,12,11,18,27,861
0.13460,3.15000,-4.76000,0.00000,0.04477,0.09845,-0.98173,2023,6,12,11,18,27,872
0.13470,2.97500,-4.72500,0.00000,0.04380,0.09845,-0.98112,2023,6,12,11,18,27,883
0.13480,2.92250,-4.63750,0.00000,0.04331,0.09614,-0.98088,2023,6,12,11,18,27,894
0.13490,3.29000,-4.77750,0.00000,0.04441,0.09736,-0.98271,2023,6,12,11,18,27,905
0.13500,3.02750,-4.88250,0.00000,0.04343,0.09553,-0.98430,2023,6,12,11,18,27,916
0.13510,3.16750,-4.76000,0.00000,0.04368,0.09687,-0.98210,2023,6,12,11,18,27,928
0.13520,3.09750,-4.69000,0.00000,0.04502,0.09711,-0.98234,2023,6,12,11,18,27,939
0.13530,3.08000,-4.67250,0.00000,0.04221,0.09723,-0.97893,2023,6,12,11,18,27,950
0.13540,3.13250,-4.74250,0.00000,0.04331,0.09675,-0.98112,2023,6,12,11,18,28,1
0.13550,3.04500,-4.69000,0.00000,0.04453,0.09650,-0.98149,2023,6,12,11,18,28,12
0.13560,3.04500,-4.58500,0.00000,0.04172,0.09601,-0.98283,2023,6,12,11,18,28,23
0.13570,2.94000,-4.83000,0.00000,0.04355,0.09699,-0.98064,2023,6,12,11,18,28,34
0.13580,3.18500,-4.74250,0.00000,0.04538,0.09614,-0.98417,2023,6,12,11,18,28,45
0.13590,2.88750,-4.56750,0.00000,0.04453,0.09528,-0.97917,2023,6,12,11,18,28,56
0.13600,3.06250,-4.67250,0.00000,0.04441,0.09626,-0.98222,2023,6,12,11,18,28,68
0.13610,3.01000,-4.65500,0.00000,0.04246,0.09797,-0.98088,2023,6,12,11,18,28,79
0.13620,3.01000,-4.93500,0.00000,0.04331,0.09894,-0.98210,2023,6,12,11,18,28,90
0.13630,3.25500,-4.77750,0.00000,0.04355,0.09528,-0.98076,2023,6,12,11,18,28,101
0.13640,3.20250,-4.63750,0.00000,0.04612,0.09540,-0.98112,2023,6,12,11,18,28,112
0.13650,3.11500,-4.46250,0.00000,0.04331,0.09711,-0.98234,2023,6,12,11,18,28,123
0.13660,3.02750,-4.67250,0.00000,0.04429,0.09772,-0.98308,2023,6,12,11,18,28,134
0.13670,3.25500,-4.88250,0.00000,0.04477,0.09772,-0.98112,2023,6,12,11,18,28,145
0.13680,3.08000,-4.76000,0.00000,0.04282,0.09528,-0.98088,2023,6,12,11,18,28,156
0.13690,3.22000,-4.77750,0.00000,0.04404,0.09699,-0.98234,2023,6,12,11,18,28,168
0.13700,2.88750,-4.49750,0.00000,0.04282,0.09418,-0.98051,2023,6,12,11,18,28,179
0.13710,3.06250,-4.56750,0.00000,0.04319,0.09723,-0.98027,2023,6,12,11,18,28,190
0.13720,2.95750,-4.67250,0.00000,0.04392,0.09870,-0.98186,2023,6,12,11,18,28,201
0.13730,3.30750,-4.76000,0.00000,0.04343,0.09687,-0.98039,2023,6,12,11,18,28,212
0.13740,2.97500,-4.77750,0.00000,0.04416,0.09601,-0.98076,2023,6,12,11,18,28,223
0.13750,3.22000,-4.77750,0.00000,0.04636,0.09626,-0.98320,2023,6,12,11,18,28,234
0.13760,2.92250,-4.58500,0.00000,0.04392,0.09565,-0.97942,2023,6,12,11,18,28,245
0.13770,3.08000,-4.60250,0.00000,0.04221,0.09748,-0.97990,2023,6,12,11,18,28,256
0.13780,2.95750,-4.76000,0.00000,0.04453,0.09614,-0.98027,2023,6,12,11,18,28,268
0.13790,2.97500,-4.84750,0.00000,0.04380,0.09540,-0.98161,2023,6,12,11,18,28,279
0.13800,3.01000,-4.65500,0.00000,0.04185,0.09638,-0.98125,2023,6,12,11,18,28,290
0.13810,3.29000,-4.63750,0.00000,0.04270,0.09626,-0.98076,2023,6,12,11,18,28,301
0.13820,3.15000,-4.67250,0.00000,0.04209,0.09858,-0.98332,2023,6,12,11,18,28,312
0.13830,3.11500,-4.51500,0.00000,0.04453,0.09516,-0.97893,2023,6,12,11,18,28,323
0.13840,2.95750,-4.58500,0.00000,0.04063,0.09504,-0.98344,2023,6,12,11,18,28,334
0.13850,3.27250,-4.58500,0.00000,0.04416,0.09662,-0.98076,2023,6,12,11,18,28,345
0.13860,3.01000,-4.58500,0.00000,0.04343,0.09797,-0.98430,2023,6,12,11,18,28,356
0.13870,3.32500,-4.76000,0.00000,0.04441,0.09577,-0.97929,2023,6,12,11,18,28,368
0.13880,3.02750,-4.56750,0.00000,0.04026,0.09784,-0.98076,2023,6,12,11,18,28,379
0.13890,3.18500,-4.67250,0.00000,0.04050,0.09577,-0.98112,2023,6,12,11,18,28,390
0.13900,2.95750,-4.72500,0.00000,0.04136,0.09601,-0.98173,2023,6,12,11,18,28,401
0.13910,3.01000,-4.79500,0.00000,0.04148,0.09626,-0.98173,2023,6,12,11,18,28,412
0.13920,3.08000,-4.62000,0.00000,0.04380,0.09479,-0.98295,2023,6,12,11,18,28,423
0.13930,3.15000,-4.56750,0.00000,0.04453,0.09784,-0.98234,2023,6,12,11,18,28,434
0.13940,2.99250,-4.65500,0.00000,0.04538,0.09845,-0.98027,2023,6,12,11,18,28,445
0.13950,3.13250,-4.58500,0.00000,0.04124,0.09760,-0.98295,2023,6,12,11,18,28,456
0.13960,2.95750,-4.63750,0.00000,0.04282,0.09662,-0.97990,2023,6,12,11,18,28,468
0.13970,3.15000,-4.90000,0.00000,0.04307,0.09601,-0.98027,2023,6,12,11,18,28,479
0.13980,2.99250,-4.48000,0.00000,0.04160,0.09382,-0.98137,2023,6,12,11,18,28,490
0.13990,3.06250,-4.56750,0.00000,0.04160,0.09589,-0.97990,2023,6,12,11,18,28,501
0.14000,3.16750,-4.63750,0.00000,0.04380,0.09638,-0.98173,2023,6,12,11,18,28,512
0.14010,2.85250,-4.42750,0.00000,0.04246,0.09784,-0.98283,2023,6,12,11,18,28,523
0.14020,3.18500,-4.60250,0.00000,0.04111,0.09687,-0.97942,2023,6,12,11,18,28,534
0.14030,3.01000,-4.62000,0.00000,0.04404,0.09626,-0.98137,2023,6,12,11,18,28,545
0.14040,3.09750,-4.60250,0.00000,0.04124,0.09809,-0.97990,2023,6,12,11,18,28,556
0.14050,3.20250,-4.77750,0.00000,0.04319,0.09492,-0.98210,2023,6,12,11,18,28,568
0.14060,3.20250,-4.86500,0.00000,0.04368,0.09394,-0.98088,2023,6,12,11,18,28,579
0.14070,2.80000,-4.56750,0.00000,0.04477,0.09394,-0.98125,2023,6,12,11,18,28,590
0.14080,3.11500,-4.72500,0.00000,0.04319,0.09650,-0.98222,2023,6,12,11,18,28,601
0.14090,3.11500,-4.69000,0.00000,0.04136,0.09797,-0.98100,2023,6,12,11,18,28,612
0.14100,3.04500,-4.58500,0.00000,0.04319,0.09760,-0.98173,2023,6,12,11,18,28,623
0.14110,3.06250,-4.79500,0.00000,0.04392,0.09748,-0.97978,2023,6,12,11,18,28,634
0.14120,3.04500,-4.74250,0.00000,0.04221,0.09821,-0.98112,2023,6,12,11,18,28,645
0.14130,3.01000,-4.62000,0.00000,0.04319,0.09699,-0.98198,2023,6,12,11,18,28,656
0.14140,2.92250,-4.56750,0.00000,0.04270,0.09797,-0.98003,2023,6,12,11,18,28,668
0.14150,3.06250,-4.65500,0.00000,0.04160,0.09723,-0.98198,2023,6,12,11,18,28,679
0.14160,2.92250,-4.69000,0.00000,0.04246,0.09736,-0.98015,2023,6,12,11,18,28,690
0.14170,3.22000,-4.88250,0.00000,0.04136,0.09418,-0.98112,2023,6,12,11,18,28,701
0.14180,3.02750,-4.44500,0.00000,0.04111,0.09601,-0.98173,2023,6,12,11,18,28,712
0.14190,2.97500,-4.62000,0.00000,0.04380,0.09870,-0.98308,2023,6,12,11,18,28,723
0.14200,3.01000,-4.65500,0.00000,0.04392,0.09711,-0.98149,2023,6,12,11,18,28,734
0.14210,2.99250,-4.65500,0.00000,0.04233,0.09626,-0.98051,2023,6,12,11,18,28,745
0.14220,3.02750,-4.58500,0.00000,0.04331,0.09565,-0.98015,2023,6,12,11,18,28,756
0.14230,3.04500,-4.72500,0.00000,0.04282,0.09687,-0.98247,2023,6,12,11,18,28,768
0.14240,3.25500,-4.62000,0.00000,0.04416,0.09577,-0.98210,2023,6,12,11,18,28,779
0.14250,3.06250,-4.76000,0.00000,0.04453,0.09626,-0.97942,2023,6,12,11,18,28,790
0.14260,2.90500,-4.62000,0.00000,0.04429,0.09638,-0.98234,2023,6,12,11,18,28,801
0.14270,3.06250,-4.53250,0.00000,0.04087,0.09675,-0.98222,2023,6,12,11,18,28,812
0.14280,3.11500,-4.76000,0.00000,0.04331,0.09650,-0.98039,2023,6,12,11,18,28,823
0.14290,2.90500,-4.70750,0.00000,0.04490,0.09601,-0.98210,2023,6,12,11,18,28,834
0.14300,3.04500,-4.56750,0.00000,0.04172,0.09528,-0.98100,2023,6,12,11,18,28,845
0.14310,3.08000,-4.51500,0.00000,0.04392,0.09638,-0.98295,2023,6,12,11,18,28,856
0.14320,3.09750,-4.74250,0.00000,0.04124,0.09809,-0.98100,2023,6,12,11,18,28,868
0.14330,3.13250,-4.67250,0.00000,0.04331,0.09699,-0.98064,2023,6,12,11,18,28,879
0.14340,2.99250,-4.74250,0.00000,0.04185,0.09638,-0.98100,2023,6,12,11,18,28,890
0.14350,3.04500,-4.42750,0.00000,0.04014,0.09870,-0.98295,2023,6,12,11,18,28,901
0.14360,2.92250,-4.58500,0.00000,0.04209,0.09955,-0.98003,2023,6,12,11,18,28,912
0.14370,2.87000,-4.44500,0.00000,0.04246,0.09650,-0.98125,2023,6,12,11,18,28,923
0.14380,3.08000,-4.49750,0.00000,0.04331,0.09565,-0.98173,2023,6,12,11,18,28,934
0.14390,3.08000,-4.76000,0.00000,0.04429,0.09687,-0.98137,2023,6,12,11,18,28,945
0.14400,3.25500,-4.74250,0.00000,0.04075,0.09626,-0.97954,2023,6,12,11,18,28,956
0.14410,3.04500,-4.67250,0.00000,0.04258,0.09650,-0.98088,2023,6,12,11,18,28,968
0.14420,3.11500,-4.77750,0.00000,0.04233,0.09870,-0.98393,2023,6,12,11,18,29,9
0.14430,3.15000,-4.79500,0.00000,0.04160,0.09687,-0.98271,2023,6,12,11,18,29,20
0.14440,3.13250,-4.70750,0.00000,0.04185,0.09906,-0.98137,2023,6,12,11,18,29,31
0.14450,3.11500,-4.56750,0.00000,0.04246,0.09919,-0.98039,2023,6,12,11,18,29,42
0.14460,3.16750,-4.74250,0.00000,0.04258,0.09784,-0.98027,2023,6,12,11,18,29,53
0.14470,2.90500,-4.70750,0.00000,0.04209,0.09699,-0.98100,2023,6,12,11,18,29,64
0.14480,3.04500,-4.41000,0.00000,0.04063,0.09553,-0.98478,2023,6,12,11,18,29,75
0.14490,3.20250,-4.69000,0.00000,0.04307,0.09772,-0.98247,2023,6,12,11,18,29,86
0.14500,2.95750,-4.74250,0.00000,0.04270,0.09748,-0.98210,2023,6,12,11,18,29,98
0.14510,3.06250,-4.83000,0.00000,0.04441,0.09760,-0.98369,2023,6,12,11,18,29,109
0.14520,3.20250,-4.62000,0.00000,0.04343,0.09626,-0.98234,2023,6,12,11,18,29,120
0.14530,3.06250,-4.55000,0.00000,0.04294,0.09821,-0.98332,2023,6,12,11,18,29,131
0.14540,3.04500,-4.63750,0.00000,0.04343,0.09479,-0.98466,2023,6,12,11,18,29,142
