#2023/06/12 11:35:58
time,wx,wy,wz,ax,ay,az,yy,MM,dd,hh,mm,ss,ms
0.00100,2.94000,-4.67250,0.00000,0.00024,0.03087,-0.98442,2023,6,12,11,35,58,453
0.00110,2.95750,-4.63750,0.00000,-0.00305,0.03245,-0.98722,2023,6,12,11,35,58,464
0.00120,3.01000,-4.60250,0.00000,-0.00329,0.03282,-0.99015,2023,6,12,11,35,58,475
0.00130,3.09750,-4.55000,0.00000,-0.00268,0.03099,-0.98796,2023,6,12,11,35,58,486
0.00140,3.04500,-4.55000,0.00000,-0.00403,0.03160,-0.98686,2023,6,12,11,35,58,497
0.00150,2.80000,-4.48000,0.00000,-0.00232,0.03209,-0.98503,2023,6,12,11,35,58,508
0.00160,3.16750,-4.44500,0.00000,-0.00256,0.03209,-0.98832,2023,6,12,11,35,58,519
0.00170,2.74750,-4.39250,0.00000,-0.00256,0.03123,-0.98735,2023,6,12,11,35,58,530
0.00180,2.94000,-4.76000,0.00000,-0.00195,0.03038,-0.98674,2023,6,12,11,35,58,541
0.00190,2.80000,-4.28750,0.00000,-0.00366,0.03282,-0.98588,2023,6,12,11,35,58,553
0.00200,3.01000,-4.77750,0.00000,-0.00329,0.03111,-0.98783,2023,6,12,11,35,58,564
0.00210,3.01000,-4.83000,0.00000,-0.00220,0.03367,-0.98710,2023,6,12,11,35,58,575
0.00220,3.13250,-4.70750,0.00000,-0.00171,0.03026,-0.98600,2023,6,12,11,35,58,586
0.00230,2.92250,-4.42750,0.00000,-0.00378,0.03184,-0.98710,2023,6,12,11,35,58,597
0.00240,2.83500,-4.67250,0.00000,-0.00122,0.03209,-0.98625,2023,6,12,11,35,58,608
0.00250,2.83500,-4.44500,0.00000,0.00049,0.03074,-0.98783,2023,6,12,11,35,58,619
0.00260,3.16750,-4.65500,0.00000,-0.00281,0.03184,-0.98600,2023,6,12,11,35,58,630
0.00270,2.88750,-4.65500,0.00000,0.00110,0.03050,-0.98625,2023,6,12,11,35,58,641
0.00280,3.09750,-4.70750,0.00000,-0.00195,0.03209,-0.98869,2023,6,12,11,35,58,653
0.00290,2.97500,-4.60250,0.00000,-0.00305,0.03196,-0.98893,2023,6,12,11,35,58,664
0.00300,3.11500,-4.77750,0.00000,-0.00159,0.03087,-0.98918,2023,6,12,11,35,58,675
0.00310,2.99250,-4.58500,0.00000,-0.00220,0.03001,-0.98844,2023,6,12,11,35,58,686
0.00320,3.06250,-4.56750,0.00000,-0.00159,0.02928,-0.98674,2023,6,12,11,35,58,697
0.00330,3.02750,-4.41000,0.00000,-0.00037,0.03367,-0.98808,2023,6,12,11,35,58,708
0.00340,2.99250,-4.76000,0.00000,-0.00183,0.03148,-0.98454,2023,6,12,11,35,58,719
0.00350,3.11500,-4.69000,0.00000,-0.00390,0.03184,-0.98674,2023,6,12,11,35,58,730
0.00360,3.02750,-4.62000,0.00000,-0.00049,0.02843,-0.98576,2023,6,12,11,35,58,741
0.00370,2.95750,-4.49750,0.00000,-0.00305,0.03111,-0.98698,2023,6,12,11,35,58,753
0.00380,3.06250,-4.62000,0.00000,0.00000,0.02904,-0.98600,2023,6,12,11,35,58,764
0.00390,2.90500,-4.62000,0.00000,-0.00354,0.03306,-0.98771,2023,6,12,11,35,58,775
0.00400,3.01000,-4.35750,0.00000,-0.00293,0.03294,-0.98674,2023,6,12,11,35,58,786
0.00410,2.87000,-4.56750,0.00000,-0.00354,0.03160,-0.98991,2023,6,12,11,35,58,797
0.00420,3.15000,-4.53250,0.00000,-0.00220,0.02843,-0.98722,2023,6,12,11,35,58,808
0.00430,2.99250,-4.56750,0.00000,-0.00146,0.03160,-0.98686,2023,6,12,11,35,58,819
0.00440,3.06250,-4.56750,0.00000,-0.00305,0.03135,-0.98991,2023,6,12,11,35,58,830
0.00450,2.99250,-4.53250,0.00000,-0.00403,0.02977,-0.98869,2023,6,12,11,35,58,841
0.00460,3.16750,-4.65500,0.00000,-0.00476,0.03099,-0.98796,2023,6,12,11,35,58,853
0.00470,3.13250,-4.46250,0.00000,-0.00390,0.03209,-0.99052,2023,6,12,11,35,58,864
0.00480,2.90500,-4.48000,0.00000,-0.00159,0.03111,-0.99052,2023,6,12,11,35,58,875
0.00490,2.94000,-4.58500,0.00000,-0.00012,0.02855,-0.98735,2023,6,12,11,35,58,886
0.00500,3.01000,-4.63750,0.00000,-0.00207,0.03221,-0.98576,2023,6,12,11,35,58,897
0.00510,3.09750,-4.83000,0.00000,-0.00195,0.03013,-0.98698,2023,6,12,11,35,58,908
0.00520,2.88750,-4.62000,0.00000,-0.00317,0.03050,-0.98771,2023,6,12,11,35,58,919
0.00530,3.09750,-4.60250,0.00000,-0.00122,0.03135,-0.98686,2023,6,12,11,35,58,930
0.00540,2.90500,-4.49750,0.00000,-0.00439,0.03282,-0.98771,2023,6,12,11,35,58,941
0.00550,2.85250,-4.53250,0.00000,-0.00134,0.03233,-0.98893,2023,6,12,11,35,58,953
0.00560,2.90500,-4.25250,0.00000,-0.00110,0.03306,-0.98527,2023,6,12,11,35,58,964
0.00570,2.95750,-4.79500,0.00000,-0.00244,0.03184,-0.98613,2023,6,12,11,35,58,975
0.00580,2.95750,-4.60250,0.00000,-0.00354,0.03245,-0.98576,2023,6,12,11,35,58,986
0.00590,3.23750,-4.77750,0.00000,-0.00244,0.03148,-0.98893,2023,6,12,11,35,58,997
0.00600,2.94000,-4.88250,0.00000,-0.00317,0.03184,-0.98710,2023,6,12,11,35,58,8
0.00610,2.87000,-4.65500,0.00000,-0.00256,0.03209,-0.98905,2023,6,12,11,35,58,19
0.00620,2.90500,-4.39250,0.00000,-0.00451,0.03148,-0.98661,2023,6,12,11,35,58,30
0.00630,2.95750,-4.63750,0.00000,-0.00183,0.03160,-0.98600,2023,6,12,11,35,58,41
0.00640,2.95750,-4.53250,0.00000,-0.00012,0.02940,-0.98576,2023,6,12,11,35,58,53
0.00650,2.94000,-4.55000,0.00000,-0.00220,0.03270,-0.98905,2023,6,12,11,35,58,64
0.00660,3.22000,-4.67250,0.00000,-0.00207,0.02879,-0.98588,2023,6,12,11,35,58,75
0.00670,2.88750,-4.55000,0.00000,-0.00134,0.03026,-0.98503,2023,6,12,11,35,58,86
0.00680,3.01000,-4.63750,0.00000,-0.00293,0.03233,-0.98649,2023,6,12,11,35,58,97
0.00690,2.92250,-4.49750,0.00000,-0.00281,0.03135,-0.98722,2023,6,12,11,35,58,108
0.00700,3.08000,-4.86500,0.00000,-0.00171,0.03343,-0.98576,2023,6,12,11,35,58,119
0.00710,2.78250,-4.37500,0.00000,-0.00061,0.03184,-0.98649,2023,6,12,11,35,58,130
0.00720,2.85250,-4.56750,0.00000,-0.00403,0.03257,-0.98747,2023,6,12,11,35,58,141
0.00730,3.01000,-4.72500,0.00000,-0.00037,0.03245,-0.98417,2023,6,12,11,35,58,153
0.00740,2.95750,-4.63750,0.00000,-0.00146,0.03050,-0.98661,2023,6,12,11,35,58,164
0.00750,2.95750,-4.58500,0.00000,-0.00329,0.03087,-0.98613,2023,6,12,11,35,58,175
0.00760,3.11500,-4.67250,0.00000,-0.00134,0.02952,-0.98637,2023,6,12,11,35,58,186
0.00770,3.08000,-4.81250,0.00000,-0.00293,0.03355,-0.98881,2023,6,12,11,35,58,197
0.00780,2.97500,-4.49750,0.00000,-0.00415,0.03135,-0.98954,2023,6,12,11,35,58,208
0.00790,2.85250,-4.49750,0.00000,-0.00232,0.03001,-0.98918,2023,6,12,11,35,58,219
0.00800,2.94000,-4.48000,0.00000,-0.00366,0.03148,-0.98905,2023,6,12,11,35,58,230
0.00810,2.83500,-4.44500,0.00000,-0.00037,0.03099,-0.98527,2023,6,12,11,35,58,241
0.00820,2.99250,-4.69000,0.00000,-0.00110,0.03111,-0.98625,2023,6,12,11,35,58,253
0.00830,3.01000,-4.76000,0.00000,-0.00268,0.02904,-0.98820,2023,6,12,11,35,58,264
0.00840,2.97500,-4.56750,0.00000,-0.00439,0.03111,-0.98686,2023,6,12,11,35,58,275
0.00850,2.87000,-4.67250,0.00000,-0.00171,0.03050,-0.98588,2023,6,12,11,35,58,286
0.00860,2.95750,-4.51500,0.00000,-0.00122,0.03062,-0.98637,2023,6,12,11,35,59,7
0.00870,2.85250,-4.74250,0.00000,-0.00110,0.03221,-0.98857,2023,6,12,11,35,59,18
0.00880,2.87000,-4.41000,0.00000,-0.00085,0.03355,-0.98808,2023,6,12,11,35,59,29
0.00890,3.04500,-4.53250,0.00000,-0.00427,0.03379,-0.98564,2023,6,12,11,35,59,40
0.00900,2.95750,-4.70750,0.00000,-0.00195,0.03148,-0.98539,2023,6,12,11,35,59,51
0.00910,2.74750,-4.56750,0.00000,-0.00073,0.03038,-0.98527,2023,6,12,11,35,59,63
0.00920,2.97500,-4.65500,0.00000,-0.00110,0.03062,-0.98576,2023,6,12,11,35,59,74
0.00930,3.06250,-4.70750,0.00000,-0.00317,0.03087,-0.98759,2023,6,12,11,35,59,85
0.00940,3.06250,-4.58500,0.00000,-0.00366,0.03196,-0.98576,2023,6,12,11,35,59,96
0.00950,3.04500,-4.62000,0.00000,-0.00476,0.03148,-0.98491,2023,6,12,11,35,59,107
0.00960,2.99250,-4.63750,0.00000,-0.00354,0.03123,-0.98649,2023,6,12,11,35,59,118
0.00970,3.06250,-4.65500,0.00000,-0.00305,0.03209,-0.98552,2023,6,12,11,35,59,129
0.00980,3.11500,-4.53250,0.00000,-0.00171,0.03282,-0.98564,2023,6,12,11,35,59,140
0.00990,2.99250,-4.44500,0.00000,-0.00451,0.03111,-0.98942,2023,6,12,11,35,59,151
0.01000,2.90500,-4.34000,0.00000,-0.00256,0.03294,-0.98808,2023,6,12,11,35,59,163
0.01010,2.83500,-4.48000,0.00000,-0.00195,0.02952,-0.98405,2023,6,12,11,35,59,174
0.01020,3.13250,-4.65500,0.00000,-0.00354,0.03148,-0.98808,2023,6,12,11,35,59,185
0.01030,3.13250,-4.63750,0.00000,-0.00256,0.03270,-0.98625,2023,6,12,11,35,59,196
0.01040,3.04500,-4.58500,0.00000,-0.00317,0.03099,-0.98832,2023,6,12,11,35,59,207
0.01050,3.08000,-4.76000,0.00000,-0.00268,0.03099,-0.98356,2023,6,12,11,35,59,218
0.01060,3.02750,-4.79500,0.00000,-0.00427,0.03257,-0.98600,2023,6,12,11,35,59,229
0.01070,2.99250,-4.49750,0.00000,-0.00232,0.03172,-0.98393,2023,6,12,11,35,59,240
0.01080,3.06250,-4.30500,0.00000,-0.00329,0.03306,-0.98735,2023,6,12,11,35,59,251
0.01090,2.95750,-4.49750,0.00000,-0.00403,0.03172,-0.98893,2023,6,12,11,35,59,263
0.01100,3.08000,-4.46250,0.00000,-0.00317,0.03196,-0.98320,2023,6,12,11,35,59,274
0.01110,2.87000,-4.60250,0.00000,-0.00085,0.02928,-0.98783,2023,6,12,11,35,59,285
0.01120,2.81750,-4.53250,0.00000,-0.00134,0.03099,-0.98869,2023,6,12,11,35,59,296
0.01130,2.80000,-4.49750,0.00000,-0.00354,0.03209,-0.98637,2023,6,12,11,35,59,307
0.01140,3.08000,-4.62000,0.00000,-0.00159,0.03013,-0.98686,2023,6,12,11,35,59,318
0.01150,2.94000,-4.41000,0.00000,-0.00171,0.03026,-0.98979,2023,6,12,11,35,59,329
0.01160,3.11500,-4.55000,0.00000,-0.00244,0.03245,-0.98832,2023,6,12,11,35,59,340
0.01170,2.85250,-4.53250,0.00000,-0.00110,0.03209,-0.98735,2023,6,12,11,35,59,351
0.01180,3.09750,-4.41000,0.00000,-0.00268,0.03111,-0.98674,2023,6,12,11,35,59,363
0.01190,2.92250,-4.58500,0.00000,-0.00159,0.03343,-0.98954,2023,6,12,11,35,59,374
0.01200,3.02750,-4.55000,0.00000,-0.00378,0.03160,-0.98674,2023,6,12,11,35,59,385
0.01210,2.87000,-4.46250,0.00000,-0.00146,0.03196,-0.98527,2023,6,12,11,35,59,396
0.01220,2.99250,-4.51500,0.00000,-0.00195,0.03270,-0.98942,2023,6,12,11,35,59,407
0.01230,2.90500,-4.70750,0.00000,0.00024,0.03050,-0.98832,2023,6,12,11,35,59,418
0.01240,2.99250,-4.49750,0.00000,-0.00232,0.03013,-0.98515,2023,6,12,11,35,59,429
0.01250,3.16750,-4.46250,0.00000,-0.00171,0.03221,-0.98698,2023,6,12,11,35,59,440
0.01260,3.01000,-4.55000,0.00000,-0.00293,0.03074,-0.98625,2023,6,12,11,35,59,451
0.01270,2.83500,-4.69000,0.00000,-0.00488,0.03087,-0.98539,2023,6,12,11,35,59,463
0.01280,2.97500,-4.65500,0.00000,-0.00122,0.03123,-0.98674,2023,6,12,11,35,59,474
0.01290,3.04500,-4.63750,0.00000,-0.00268,0.03184,-0.98771,2023,6,12,11,35,59,485
0.01300,3.13250,-4.65500,0.00000,-0.00293,0.03172,-0.98710,2023,6,12,11,35,59,496
0.01310,3.04500,-4.30500,0.00000,-0.00171,0.03050,-0.98710,2023,6,12,11,35,59,507
0.01320,2.95750,-4.53250,0.00000,-0.00268,0.03221,-0.98844,2023,6,12,11,35,59,518
0.01330,2.88750,-4.49750,0.00000,-0.00366,0.03209,-0.98686,2023,6,12,11,35,59,529
0.01340,2.83500,-4.58500,0.00000,-0.00232,0.03111,-0.98722,2023,6,12,11,35,59,540
0.01350,3.01000,-4.39250,0.00000,-0.00268,0.03221,-0.98661,2023,6,12,11,35,59,551
0.01360,2.90500,-4.55000,0.00000,-0.00293,0.03172,-0.98588,2023,6,12,11,35,59,563
0.01370,2.99250,-4.42750,0.00000,-0.00195,0.03294,-0.98966,2023,6,12,11,35,59,574
0.01380,2.99250,-4.44500,0.00000,-0.00427,0.03001,-0.98759,2023,6,12,11,35,59,585
0.01390,2.99250,-4.27000,0.00000,-0.00500,0.03306,-0.98771,2023,6,12,11,35,59,596
0.01400,3.06250,-4.41000,0.00000,-0.00403,0.03087,-0.98881,2023,6,12,11,35,59,607
0.01410,2.99250,-4.53250,0.00000,-0.00281,0.03001,-0.98576,2023,6,12,11,35,59,618
0.01420,2.74750,-4.42750,0.00000,0.00049,0.03062,-0.98552,2023,6,12,11,35,59,629
0.01430,3.04500,-4.51500,0.00000,-0.00195,0.03392,-0.98893,2023,6,12,11,35,59,640
0.01440,3.01000,-4.70750,0.00000,-0.00037,0.03074,-0.98857,2023,6,12,11,35,59,651
0.01450,2.99250,-4.83000,0.00000,-0.00110,0.03257,-0.98600,2023,6,12,11,35,59,663
0.01460,3.01000,-4.51500,0.00000,-0.00232,0.03233,-0.98808,2023,6,12,11,35,59,674
0.01470,2.87000,-4.56750,0.00000,-0.00305,0.03257,-0.98796,2023,6,12,11,35,59,685
0.01480,3.20250,-4.76000,0.00000,-0.00256,0.02855,-0.98808,2023,6,12,11,35,59,696
0.01490,2.99250,-4.56750,0.00000,-0.00195,0.03087,-0.98747,2023,6,12,11,35,59,707
0.01500,2.87000,-4.60250,0.00000,-0.00220,0.03282,-0.98979,2023,6,12,11,35,59,718
0.01510,2.95750,-4.48000,0.00000,-0.00439,0.03294,-0.98686,2023,6,12,11,35,59,729
0.01520,2.85250,-4.42750,0.00000,-0.00427,0.03428,-0.98698,2023,6,12,11,35,59,740
0.01530,3.08000,-4.58500,0.00000,-0.00220,0.03209,-0.98686,2023,6,12,11,35,59,751
0.01540,3.01000,-4.65500,0.00000,-0.00256,0.02952,-0.98747,2023,6,12,11,35,59,763
0.01550,3.02750,-4.46250,0.00000,-0.00293,0.03038,-0.98491,2023,6,12,11,35,59,774
0.01560,3.06250,-4.76000,0.00000,-0.00464,0.03270,-0.98722,2023,6,12,11,35,59,785
0.01570,2.92250,-4.46250,0.00000,-0.00390,0.03062,-0.98625,2023,6,12,11,35,59,796
0.01580,2.87000,-4.58500,0.00000,-0.00146,0.02977,-0.98515,2023,6,12,11,35,59,807
0.01590,2.95750,-4.39250,0.00000,-0.00073,0.03099,-0.98686,2023,6,12,11,35,59,818
0.01600,2.92250,-4.58500,0.00000,-0.00073,0.03074,-0.98674,2023,6,12,11,35,59,829
0.01610,3.04500,-4.56750,0.00000,-0.00317,0.02965,-0.98820,2023,6,12,11,35,59,840
0.01620,3.08000,-4.67250,0.00000,-0.00012,0.02928,-0.98613,2023,6,12,11,35,59,851
0.01630,3.02750,-4.76000,0.00000,-0.00451,0.03209,-0.98747,2023,6,12,11,35,59,863
0.01640,2.97500,-4.74250,0.00000,-0.00403,0.03245,-0.98600,2023,6,12,11,35,59,874
0.01650,2.97500,-4.53250,0.00000,-0.00317,0.03148,-0.98759,2023,6,12,11,35,59,885
0.01660,3.09750,-4.65500,0.00000,-0.00085,0.03209,-0.98747,2023,6,12,11,35,59,896
0.01670,3.06250,-4.67250,0.00000,-0.00220,0.03233,-0.98698,2023,6,12,11,35,59,907
0.01680,2.85250,-4.60250,0.00000,-0.00024,0.02989,-0.98478,2023,6,12,11,35,59,918
0.01690,2.99250,-4.46250,0.00000,-0.00183,0.03135,-0.98808,2023,6,12,11,35,59,929
0.01700,2.92250,-4.46250,0.00000,-0.00366,0.03282,-0.98820,2023,6,12,11,35,59,940
0.01710,3.20250,-4.63750,0.00000,-0.00098,0.02928,-0.98527,2023,6,12,11,35,59,951
0.01720,3.01000,-4.55000,0.00000,-0.00281,0.03074,-0.98661,2023,6,12,11,35,59,963
0.01730,3.01000,-4.51500,0.00000,-0.00220,0.03318,-0.98649,2023,6,12,11,35,59,974
0.01740,3.11500,-4.62000,0.00000,-0.00146,0.02940,-0.98625,2023,6,12,11,36,0,5
0.01750,2.99250,-4.55000,0.00000,-0.00366,0.03233,-0.98698,2023,6,12,11,36,0,16
0.01760,3.11500,-4.77750,0.00000,-0.00317,0.03172,-0.98832,2023,6,12,11,36,0,27
0.01770,3.15000,-4.49750,0.00000,-0.00439,0.03221,-0.98832,2023,6,12,11,36,0,38
0.01780,2.87000,-4.74250,0.00000,-0.00183,0.03123,-0.98832,2023,6,12,11,36,0,49
0.01790,3.01000,-4.81250,0.00000,-0.00293,0.03160,-0.98832,2023,6,12,11,36,0,60
0.01800,2.80000,-4.69000,0.00000,-0.00403,0.03087,-0.98613,2023,6,12,11,36,0,71
0.01810,3.02750,-4.58500,0.00000,0.00000,0.02904,-0.98954,2023,6,12,11,36,0,83
0.01820,2.97500,-4.58500,0.00000,-0.00342,0.03160,-0.98613,2023,6,12,11,36,0,94
0.01830,3.01000,-4.74250,0.00000,-0.00110,0.03318,-0.98771,2023,6,12,11,36,0,105
0.01840,3.11500,-4.60250,0.00000,-0.00183,0.03074,-0.98625,2023,6,12,11,36,0,116
0.01850,3.01000,-4.51500,0.00000,-0.00268,0.03257,-0.98722,2023,6,12,11,36,0,127
0.01860,2.88750,-4.62000,0.00000,-0.00354,0.03257,-0.98893,2023,6,12,11,36,0,138
0.01870,3.15000,-4.62000,0.00000,-0.00403,0.02940,-0.98796,2023,6,12,11,36,0,149
0.01880,2.99250,-4.56750,0.00000,-0.00390,0.03160,-0.98698,2023,6,12,11,36,0,160
0.01890,3.08000,-4.67250,0.00000,-0.00317,0.03221,-0.98552,2023,6,12,11,36,0,171
0.01900,3.06250,-4.53250,0.00000,-0.00195,0.03160,-0.98905,2023,6,12,11,36,0,183
0.01910,3.08000,-4.58500,0.00000,-0.00012,0.03245,-0.98930,2023,6,12,11,36,0,194
0.01920,2.92250,-4.72500,0.00000,-0.00061,0.03135,-0.98771,2023,6,12,11,36,0,205
0.01930,2.95750,-4.74250,0.00000,-0.00232,0.03221,-0.98478,2023,6,12,11,36,0,216
0.01940,2.97500,-4.48000,0.00000,-0.00256,0.03135,-0.98893,2023,6,12,11,36,0,227
0.01950,3.16750,-4.72500,0.00000,-0.00232,0.03087,-0.98735,2023,6,12,11,36,0,238
0.01960,3.01000,-4.46250,0.00000,-0.00293,0.03209,-0.98393,2023,6,12,11,36,0,249
0.01970,2.97500,-4.51500,0.00000,-0.00305,0.03172,-0.98930,2023,6,12,11,36,0,260
0.01980,3.15000,-4.60250,0.00000,-0.00159,0.03245,-0.99113,2023,6,12,11,36,0,271
0.01990,3.01000,-4.62000,0.00000,0.00146,0.03026,-0.98942,2023,6,12,11,36,0,283
0.02000,2.81750,-4.62000,0.00000,-0.00061,0.03282,-0.98661,2023,6,12,11,36,0,294
0.02010,3.06250,-4.51500,0.00000,-0.00220,0.03050,-0.98613,2023,6,12,11,36,0,305
0.02020,2.94000,-4.60250,0.00000,-0.00317,0.03050,-0.98735,2023,6,12,11,36,0,316
0.02030,2.87000,-4.62000,0.00000,-0.00232,0.03074,-0.98674,2023,6,12,11,36,0,327
0.02040,3.11500,-4.67250,0.00000,-0.00366,0.03294,-0.98478,2023,6,12,11,36,0,338
0.02050,2.85250,-4.49750,0.00000,-0.00122,0.03160,-0.98637,2023,6,12,11,36,0,349
0.02060,3.06250,-4.56750,0.00000,-0.00122,0.03111,-0.98759,2023,6,12,11,36,0,360
0.02070,3.01000,-4.41000,0.00000,-0.00195,0.03001,-0.98918,2023,6,12,11,36,0,371
0.02080,2.83500,-4.32250,0.00000,-0.00098,0.03343,-0.98442,2023,6,12,11,36,0,383
0.02090,2.88750,-4.69000,0.00000,-0.00415,0.03331,-0.98552,2023,6,12,11,36,0,394
0.02100,2.78250,-4.65500,0.00000,-0.00098,0.03148,-0.98698,2023,6,12,11,36,0,405
0.02110,3.02750,-4.72500,0.00000,-0.00464,0.03196,-0.98722,2023,6,12,11,36,0,416
0.02120,2.88750,-4.53250,0.00000,-0.00268,0.03135,-0.98979,2023,6,12,11,36,0,427
0.02130,2.90500,-4.46250,0.00000,-0.00171,0.03233,-0.98771,2023,6,12,11,36,0,438
0.02140,2.99250,-4.63750,0.00000,-0.00134,0.03221,-0.98674,2023,6,12,11,36,0,449
0.02150,3.06250,-4.53250,0.00000,-0.00012,0.03050,-0.98625,2023,6,12,11,36,0,460
0.02160,3.29000,-4.79500,0.00000,-0.00207,0.03172,-0.98710,2023,6,12,11,36,0,471
0.02170,3.04500,-4.60250,0.00000,-0.00171,0.03196,-0.98637,2023,6,12,11,36,0,483
0.02180,3.06250,-4.49750,0.00000,-0.00293,0.03001,-0.98808,2023,6,12,11,36,0,494
0.02190,3.09750,-4.65500,0.00000,-0.00378,0.03221,-0.98783,2023,6,12,11,36,0,505
0.02200,2.88750,-4.56750,0.00000,-0.00195,0.03196,-0.98686,2023,6,12,11,36,0,516
0.02210,2.87000,-4.69000,0.00000,-0.00342,0.03160,-0.98722,2023,6,12,11,36,0,527
0.02220,2.95750,-4.49750,0.00000,-0.00281,0.03245,-0.98539,2023,6,12,11,36,0,538
0.02230,2.95750,-4.56750,0.00000,-0.00159,0.03123,-0.98881,2023,6,12,11,36,0,549
0.02240,2.94000,-4.72500,0.00000,-0.00122,0.03148,-0.98698,2023,6,12,11,36,0,560
0.02250,3.15000,-4.60250,0.00000,-0.00256,0.03184,-0.98722,2023,6,12,11,36,0,571
0.02260,2.94000,-4.63750,0.00000,-0.00293,0.03135,-0.98747,2023,6,12,11,36,0,583
0.02270,2.81750,-4.74250,0.00000,-0.00159,0.03123,-0.98783,2023,6,12,11,36,0,594
0.02280,3.01000,-4.39250,0.00000,-0.00329,0.03221,-0.98698,2023,6,12,11,36,0,605
0.02290,2.94000,-4.55000,0.00000,0.00037,0.03013,-0.98796,2023,6,12,11,36,0,616
0.02300,3.11500,-4.46250,0.00000,-0.00159,0.03184,-0.98710,2023,6,12,11,36,0,627
0.02310,2.74750,-4.60250,0.00000,-0.00634,0.03123,-0.98893,2023,6,12,11,36,0,638
0.02320,2.88750,-4.63750,0.00000,-0.00293,0.03038,-0.98698,2023,6,12,11,36,0,649
0.02330,3.02750,-4.67250,0.00000,-0.00293,0.03050,-0.98930,2023,6,12,11,36,0,660
0.02340,2.81750,-4.44500,0.00000,-0.00317,0.03270,-0.98552,2023,6,12,11,36,0,671
0.02350,3.01000,-4.62000,0.00000,-0.00098,0.03062,-0.98735,2023,6,12,11,36,0,683
0.02360,3.02750,-4.58500,0.00000,-0.00122,0.03257,-0.98625,2023,6,12,11,36,0,694
0.02370,2.87000,-4.48000,0.00000,-0.00207,0.03282,-0.99113,2023,6,12,11,36,0,705
0.02380,2.94000,-4.58500,0.00000,-0.00183,0.03270,-0.98796,2023,6,12,11,36,0,716
0.02390,3.09750,-4.67250,0.00000,-0.00195,0.03087,-0.98613,2023,6,12,11,36,0,727
0.02400,2.87000,-4.55000,0.00000,-0.00244,0.03172,-0.98759,2023,6,12,11,36,0,738
0.02410,2.97500,-4.72500,0.00000,-0.00220,0.03148,-0.98710,2023,6,12,11,36,0,749
0.02420,2.94000,-4.56750,0.00000,-0.00146,0.03245,-0.98747,2023,6,12,11,36,0,760
0.02430,3.06250,-4.70750,0.00000,-0.00159,0.03148,-0.98808,2023,6,12,11,36,0,771
0.02440,2.94000,-4.42750,0.00000,-0.00354,0.03270,-0.98820,2023,6,12,11,36,0,783
0.02450,3.02750,-4.58500,0.00000,0.00073,0.03050,-0.98710,2023,6,12,11,36,0,794
0.02460,3.01000,-4.65500,0.00000,-0.00134,0.03196,-0.98918,2023,6,12,11,36,0,805
0.02470,2.95750,-4.56750,0.00000,-0.00281,0.03172,-0.98478,2023,6,12,11,36,0,816
0.02480,2.85250,-4.70750,0.00000,-0.00244,0.03172,-0.98539,2023,6,12,11,36,0,827
0.02490,2.99250,-4.58500,0.00000,-0.00281,0.03209,-0.98600,2023,6,12,11,36,0,838
0.02500,2.90500,-4.60250,0.00000,-0.00244,0.03135,-0.99125,2023,6,12,11,36,0,849
0.02510,2.69500,-4.41000,0.00000,-0.00122,0.03221,-0.98625,2023,6,12,11,36,0,860
0.02520,2.97500,-4.65500,0.00000,-0.00207,0.03184,-0.98771,2023,6,12,11,36,0,871
0.02530,2.90500,-4.56750,0.00000,-0.00195,0.03221,-0.98466,2023,6,12,11,36,0,883
0.02540,3.15000,-4.44500,0.00000,-0.00232,0.03172,-0.98735,2023,6,12,11,36,0,894
0.02550,2.99250,-4.63750,0.00000,-0.00256,0.03160,-0.98576,2023,6,12,11,36,0,905
0.02560,2.94000,-4.63750,0.00000,-0.00171,0.03270,-0.98759,2023,6,12,11,36,0,916
0.02570,2.99250,-4.49750,0.00000,-0.00232,0.03160,-0.98515,2023,6,12,11,36,0,927
0.02580,2.87000,-4.74250,0.00000,-0.00329,0.03172,-0.98661,2023,6,12,11,36,0,938
0.02590,2.87000,-4.53250,0.00000,-0.00085,0.03050,-0.98369,2023,6,12,11,36,0,949
0.02600,2.95750,-4.62000,0.00000,-0.00207,0.03270,-0.98966,2023,6,12,11,36,0,960
0.02610,2.92250,-4.55000,0.00000,-0.00183,0.03209,-0.98930,2023,6,12,11,36,0,971
0.02620,3.18500,-4.55000,0.00000,-0.00317,0.03196,-0.98905,2023,6,12,11,36,1,3
0.02630,2.94000,-4.53250,0.00000,-0.00281,0.03282,-0.98613,2023,6,12,11,36,1,14
0.02640,3.01000,-4.62000,0.00000,-0.00256,0.03221,-0.98735,2023,6,12,11,36,1,25
0.02650,2.92250,-4.74250,0.00000,-0.00366,0.03172,-0.98478,2023,6,12,11,36,1,36
0.02660,3.01000,-4.72500,0.00000,-0.00037,0.03135,-0.98661,2023,6,12,11,36,1,47
0.02670,2.99250,-4.65500,0.00000,-0.00134,0.03062,-0.98893,2023,6,12,11,36,1,58
0.02680,3.09750,-4.60250,0.00000,-0.00317,0.03123,-0.98527,2023,6,12,11,36,1,69
0.02690,2.90500,-4.72500,0.00000,-0.00281,0.03111,-0.98588,2023,6,12,11,36,1,80
0.02700,2.97500,-4.55000,0.00000,-0.00146,0.03209,-0.98808,2023,6,12,11,36,1,91
0.02710,2.97500,-4.60250,0.00000,-0.00354,0.03233,-0.98613,2023,6,12,11,36,1,103
0.02720,3.15000,-4.67250,0.00000,-0.00195,0.03013,-0.98747,2023,6,12,11,36,1,114
0.02730,3.04500,-4.60250,0.00000,-0.00268,0.03087,-0.98600,2023,6,12,11,36,1,125
0.02740,2.94000,-4.58500,0.00000,-0.00268,0.03196,-0.98966,2023,6,12,11,36,1,136
0.02750,2.97500,-4.51500,0.00000,-0.00317,0.03184,-0.98796,2023,6,12,11,36,1,147
0.02760,2.88750,-4.60250,0.00000,-0.00098,0.03343,-0.99101,2023,6,12,11,36,1,158
0.02770,2.95750,-4.65500,0.00000,-0.00122,0.03135,-0.98588,2023,6,12,11,36,1,169
0.02780,2.95750,-4.74250,0.00000,-0.00354,0.03160,-0.98844,2023,6,12,11,36,1,180
0.02790,2.95750,-4.60250,0.00000,-0.00220,0.03233,-0.98600,2023,6,12,11,36,1,191
0.02800,2.90500,-4.53250,0.00000,-0.00354,0.03196,-0.98710,2023,6,12,11,36,1,203
0.02810,2.92250,-4.48000,0.00000,-0.00305,0.03111,-0.98783,2023,6,12,11,36,1,214
0.02820,2.83500,-4.67250,0.00000,-0.00342,0.03306,-0.98491,2023,6,12,11,36,1,225
0.02830,3.09750,-4.76000,0.00000,-0.00183,0.03074,-0.98783,2023,6,12,11,36,1,236
0.02840,2.97500,-4.60250,0.00000,-0.00244,0.03209,-0.98552,2023,6,12,11,36,1,247
0.02850,2.92250,-4.42750,0.00000,-0.00098,0.03062,-0.98771,2023,6,12,11,36,1,258
0.02860,3.13250,-4.58500,0.00000,-0.00183,0.03270,-0.99101,2023,6,12,11,36,1,269
0.02870,2.99250,-4.69000,0.00000,-0.00342,0.03294,-0.98564,2023,6,12,11,36,1,280
0.02880,2.97500,-4.58500,0.00000,-0.00342,0.03013,-0.98466,2023,6,12,11,36,1,291
0.02890,3.02750,-4.41000,0.00000,-0.00342,0.03099,-0.98442,2023,6,12,11,36,1,303
0.02900,3.09750,-4.53250,0.00000,-0.00244,0.03318,-0.98710,2023,6,12,11,36,1,314
0.02910,2.95750,-4.63750,0.00000,-0.00293,0.03172,-0.98942,2023,6,12,11,36,1,325
0.02920,2.88750,-4.41000,0.00000,-0.00195,0.03062,-0.98454,2023,6,12,11,36,1,336
0.02930,3.11500,-4.74250,0.00000,-0.00134,0.03209,-0.98600,2023,6,12,11,36,1,347
0.02940,2.95750,-4.63750,0.00000,0.00159,0.03050,-0.98564,2023,6,12,11,36,1,358
0.02950,3.02750,-4.79500,0.00000,-0.00378,0.03099,-0.98674,2023,6,12,11,36,1,369
0.02960,2.90500,-4.72500,0.00000,-0.00366,0.03026,-0.98759,2023,6,12,11,36,1,380
0.02970,3.13250,-4.60250,0.00000,-0.00329,0.03038,-0.98905,2023,6,12,11,36,1,391
0.02980,2.95750,-4.44500,0.00000,-0.00232,0.03221,-0.99149,2023,6,12,11,36,1,403
0.02990,2.88750,-4.53250,0.00000,-0.00183,0.03087,-0.98649,2023,6,12,11,36,1,414
0.03000,2.87000,-4.62000,0.00000,-0.00146,0.03343,-0.98747,2023,6,12,11,36,1,425
0.03010,2.95750,-4.72500,0.00000,-0.00281,0.03196,-0.98771,2023,6,12,11,36,1,436
0.03020,3.16750,-4.60250,0.00000,-0.00317,0.03099,-0.98844,2023,6,12,11,36,1,447
0.03030,3.04500,-4.76000,0.00000,-0.00159,0.03221,-0.98771,2023,6,12,11,36,1,458
0.03040,2.92250,-4.53250,0.00000,-0.00390,0.03209,-0.98832,2023,6,12,11,36,1,469
0.03050,3.06250,-4.62000,0.00000,-0.00329,0.03099,-0.98503,2023,6,12,11,36,1,480
0.03060,3.01000,-4.69000,0.00000,-0.00354,0.03160,-0.98808,2023,6,12,11,36,1,491
0.03070,3.01000,-4.62000,0.00000,-0.00220,0.03318,-0.98600,2023,6,12,11,36,1,503
0.03080,3.08000,-4.67250,0.00000,-0.00427,0.03270,-0.98588,2023,6,12,11,36,1,514
0.03090,2.87000,-4.58500,0.00000,-0.00037,0.03209,-0.98491,2023,6,12,11,36,1,525
0.03100,3.09750,-4.44500,0.00000,-0.00415,0.03148,-0.98613,2023,6,12,11,36,1,536
0.03110,3.09750,-4.46250,0.00000,-0.00293,0.03148,-0.98539,2023,6,12,11,36,1,547
0.03120,2.92250,-4.51500,0.00000,-0.00073,0.02989,-0.98759,2023,6,12,11,36,1,558
0.03130,2.97500,-4.53250,0.00000,-0.00122,0.02891,-0.98796,2023,6,12,11,36,1,569
0.03140,3.04500,-4.69000,0.00000,-0.00146,0.03331,-0.98796,2023,6,12,11,36,1,580
0.03150,3.04500,-4.72500,0.00000,-0.00159,0.03172,-0.98625,2023,6,12,11,36,1,591
0.03160,2.92250,-4.60250,0.00000,-0.00037,0.03099,-0.99064,2023,6,12,11,36,1,603
0.03170,2.94000,-4.77750,0.00000,-0.00085,0.03294,-0.98698,2023,6,12,11,36,1,614
0.03180,2.97500,-4.49750,0.00000,-0.00134,0.02989,-0.98710,2023,6,12,11,36,1,625
0.03190,2.94000,-4.55000,0.00000,-0.00171,0.03135,-0.98918,2023,6,12,11,36,1,636
0.03200,2.88750,-4.65500,0.00000,-0.00122,0.03331,-0.98771,2023,6,12,11,36,1,647
0.03210,2.88750,-4.32250,0.00000,-0.00122,0.03367,-0.98332,2023,6,12,11,36,1,658
0.03220,2.92250,-4.51500,0.00000,-0.00220,0.03013,-0.98649,2023,6,12,11,36,1,669
0.03230,3.09750,-4.79500,0.00000,-0.00159,0.03001,-0.98820,2023,6,12,11,36,1,680
0.03240,3.01000,-4.67250,0.00000,-0.00195,0.03196,-0.98747,2023,6,12,11,36,1,691
0.03250,3.08000,-4.60250,0.00000,-0.00159,0.03123,-0.98625,2023,6,12,11,36,1,703
0.03260,2.99250,-4.60250,0.00000,-0.00207,0.03050,-0.98954,2023,6,12,11,36,1,714
0.03270,3.01000,-4.84750,0.00000,-0.00342,0.03343,-0.98893,2023,6,12,11,36,1,725
0.03280,2.90500,-4.48000,0.00000,-0.00256,0.03233,-0.98771,2023,6,12,11,36,1,736
0.03290,3.04500,-4.62000,0.00000,-0.00024,0.03135,-0.98564,2023,6,12,11,36,1,747
0.03300,2.97500,-4.83000,0.00000,-0.00220,0.03135,-0.98869,2023,6,12,11,36,1,758
0.03310,3.22000,-4.65500,0.00000,-0.00244,0.03245,-0.98808,2023,6,12,11,36,1,769
0.03320,3.09750,-4.56750,0.00000,-0.00305,0.03270,-0.98857,2023,6,12,11,36,1,780
0.03330,2.97500,-4.56750,0.00000,-0.00427,0.02952,-0.98698,2023,6,12,11,36,1,791
0.03340,2.95750,-4.77750,0.00000,-0.00207,0.03196,-0.98686,2023,6,12,11,36,1,803
0.03350,2.88750,-4.69000,0.00000,-0.00134,0.03282,-0.98771,2023,6,12,11,36,1,814
0.03360,2.99250,-4.56750,0.00000,-0.00195,0.02940,-0.98698,2023,6,12,11,36,1,825
0.03370,3.06250,-4.55000,0.00000,-0.00354,0.03184,-0.98747,2023,6,12,11,36,1,836
0.03380,2.95750,-4.76000,0.00000,-0.00366,0.03123,-0.98759,2023,6,12,11,36,1,847
0.03390,3.11500,-4.51500,0.00000,-0.00378,0.03172,-0.98710,2023,6,12,11,36,1,858
0.03400,3.09750,-4.70750,0.00000,-0.00171,0.03087,-0.98686,2023,6,12,11,36,1,869
0.03410,3.01000,-4.39250,0.00000,-0.00293,0.03196,-0.98698,2023,6,12,11,36,1,880
0.03420,2.85250,-4.28750,0.00000,0.00000,0.03111,-0.98381,2023,6,12,11,36,1,891
0.03430,2.99250,-4.48000,0.00000,-0.00329,0.03318,-0.98430,2023,6,12,11,36,1,903
0.03440,2.99250,-4.32250,0.00000,-0.00378,0.03257,-0.98844,2023,6,12,11,36,1,914
0.03450,2.90500,-4.55000,0.00000,-0.00329,0.03209,-0.98808,2023,6,12,11,36,1,925
0.03460,2.88750,-4.67250,0.00000,-0.00268,0.03135,-0.98600,2023,6,12,11,36,1,936
0.03470,2.94000,-4.60250,0.00000,-0.00354,0.03282,-0.98698,2023,6,12,11,36,1,947
0.03480,2.90500,-4.41000,0.00000,-0.00378,0.03196,-0.98930,2023,6,12,11,36,1,958
0.03490,2.88750,-4.56750,0.00000,-0.00110,0.02940,-0.98918,2023,6,12,11,36,2,9
0.03500,2.87000,-4.62000,0.00000,-0.00195,0.03135,-0.98491,2023,6,12,11,36,2,20
0.03510,2.80000,-4.58500,0.00000,-0.00134,0.03087,-0.98698,2023,6,12,11,36,2,31
0.03520,2.92250,-4.67250,0.00000,-0.00195,0.03062,-0.98710,2023,6,12,11,36,2,43
0.03530,2.78250,-4.70750,0.00000,-0.00415,0.03282,-0.98771,2023,6,12,11,36,2,54
0.03540,3.04500,-4.63750,0.00000,-0.00354,0.03135,-0.98625,2023,6,12,11,36,2,65
0.03550,2.88750,-4.48000,0.00000,-0.00268,0.03160,-0.98295,2023,6,12,11,36,2,76
0.03560,2.74750,-4.53250,0.00000,-0.00293,0.03074,-0.98613,2023,6,12,11,36,2,87
0.03570,3.01000,-4.69000,0.00000,-0.00293,0.03270,-0.98979,2023,6,12,11,36,2,98
0.03580,2.92250,-4.65500,0.00000,-0.00378,0.03270,-0.98491,2023,6,12,11,36,2,109
0.03590,3.11500,-4.58500,0.00000,-0.00037,0.03087,-0.98759,2023,6,12,11,36,2,120
0.03600,2.87000,-4.48000,0.00000,-0.00317,0.03148,-0.98869,2023,6,12,11,36,2,131
0.03610,2.78250,-4.69000,0.00000,-0.00159,0.03074,-0.98503,2023,6,12,11,36,2,143
0.03620,2.92250,-4.65500,0.00000,-0.00183,0.03038,-0.98881,2023,6,12,11,36,2,154
0.03630,2.92250,-4.51500,0.00000,-0.00159,0.03416,-0.98454,2023,6,12,11,36,2,165
0.03640,3.01000,-4.69000,0.00000,-0.00317,0.03282,-0.98649,2023,6,12,11,36,2,176
0.03650,3.09750,-4.65500,0.00000,-0.00134,0.03123,-0.99027,2023,6,12,11,36,2,187
0.03660,2.94000,-4.49750,0.00000,-0.00122,0.03062,-0.98600,2023,6,12,11,36,2,198
0.03670,2.88750,-4.55000,0.00000,-0.00256,0.03038,-0.98686,2023,6,12,11,36,2,209
0.03680,3.06250,-4.53250,0.00000,-0.00354,0.03074,-0.99015,2023,6,12,11,36,2,220
0.03690,2.88750,-4.51500,0.00000,-0.00342,0.03343,-0.98808,2023,6,12,11,36,2,231
0.03700,3.02750,-4.44500,0.00000,-0.00293,0.03221,-0.98564,2023,6,12,11,36,2,243
0.03710,2.97500,-4.58500,0.00000,-0.00244,0.03318,-0.98918,2023,6,12,11,36,2,254
0.03720,2.99250,-4.55000,0.00000,-0.00012,0.03087,-0.98564,2023,6,12,11,36,2,265
0.03730,3.08000,-4.56750,0.00000,-0.00061,0.03001,-0.98710,2023,6,12,11,36,2,276
0.03740,3.02750,-4.60250,0.00000,-0.00244,0.03209,-0.98735,2023,6,12,11,36,2,287
0.03750,2.95750,-4.55000,0.00000,-0.00061,0.03367,-0.98857,2023,6,12,11,36,2,298
0.03760,3.08000,-4.48000,0.00000,-0.00305,0.03160,-0.98564,2023,6,12,11,36,2,309
0.03770,3.27250,-4.79500,0.00000,-0.00366,0.03331,-0.98613,2023,6,12,11,36,2,320
0.03780,2.88750,-4.53250,0.00000,-0.00085,0.03074,-0.98942,2023,6,12,11,36,2,331
0.03790,2.92250,-4.77750,0.00000,-0.00146,0.03099,-0.98698,2023,6,12,11,36,2,343
0.03800,2.94000,-4.49750,0.00000,-0.00281,0.03209,-0.98613,2023,6,12,11,36,2,354
0.03810,2.88750,-4.44500,0.00000,-0.00305,0.03294,-0.98918,2023,6,12,11,36,2,365
0.03820,3.01000,-4.46250,0.00000,-0.00268,0.03294,-0.98600,2023,6,12,11,36,2,376
0.03830,3.09750,-4.62000,0.00000,-0.00342,0.03172,-0.98466,2023,6,12,11,36,2,387
0.03840,3.13250,-4.74250,0.00000,-0.00122,0.03331,-0.98649,2023,6,12,11,36,2,398
0.03850,3.11500,-4.55000,0.00000,-0.00134,0.03209,-0.98600,2023,6,12,11,36,2,409
0.03860,3.09750,-4.79500,0.00000,-0.00329,0.03233,-0.98771,2023,6,12,11,36,2,420
0.03870,3.11500,-4.44500,0.00000,-0.00403,0.03001,-0.98674,2023,6,12,11,36,2,431
0.03880,2.76500,-4.35750,0.00000,-0.00073,0.03013,-0.98454,2023,6,12,11,36,2,443
0.03890,3.02750,-4.55000,0.00000,-0.00024,0.03087,-0.98820,2023,6,12,11,36,2,454
0.03900,3.01000,-4.62000,0.00000,-0.00378,0.03355,-0.98857,2023,6,12,11,36,2,465
0.03910,3.06250,-4.55000,0.00000,-0.00329,0.03099,-0.98747,2023,6,12,11,36,2,476
0.03920,3.08000,-4.76000,0.00000,-0.00268,0.02916,-0.98783,2023,6,12,11,36,2,487
0.03930,2.88750,-4.60250,0.00000,-0.00366,0.03123,-0.98552,2023,6,12,11,36,2,498
0.03940,2.94000,-4.60250,0.00000,-0.00329,0.02989,-0.98661,2023,6,12,11,36,2,509
0.03950,3.01000,-4.44500,0.00000,-0.00122,0.03209,-0.98808,2023,6,12,11,36,2,520
0.03960,2.85250,-4.55000,0.00000,-0.00305,0.03257,-0.99003,2023,6,12,11,36,2,531
0.03970,2.99250,-4.58500,0.00000,-0.00342,0.03257,-0.98722,2023,6,12,11,36,2,543
0.03980,3.01000,-4.53250,0.00000,-0.00134,0.03135,-0.98905,2023,6,12,11,36,2,554
0.03990,2.97500,-4.79500,0.00000,-0.00244,0.03221,-0.98735,2023,6,12,11,36,2,565
0.04000,3.04500,-4.58500,0.00000,-0.00378,0.03184,-0.98649,2023,6,12,11,36,2,576
0.04010,2.92250,-4.34000,0.00000,-0.00220,0.03282,-0.98820,2023,6,12,11,36,2,587
0.04020,2.88750,-4.56750,0.00000,-0.00110,0.03087,-0.98405,2023,6,12,11,36,2,598
0.04030,3.02750,-4.58500,0.00000,-0.00439,0.03196,-0.98661,2023,6,12,11,36,2,609
0.04040,2.90500,-4.65500,0.00000,-0.00537,0.03148,-0.98698,2023,6,12,11,36,2,620
0.04050,2.92250,-4.41000,0.00000,-0.00232,0.03135,-0.98796,2023,6,12,11,36,2,631
0.04060,2.99250,-4.86500,0.00000,-0.00220,0.03233,-0.98905,2023,6,12,11,36,2,643
0.04070,3.06250,-4.56750,0.00000,-0.00049,0.03270,-0.98930,2023,6,12,11,36,2,654
0.04080,3.11500,-4.86500,0.00000,-0.00207,0.03074,-0.98796,2023,6,12,11,36,2,665
0.04090,2.88750,-4.56750,0.00000,-0.00220,0.03148,-0.98686,2023,6,12,11,36,2,676
0.04100,2.83500,-4.34000,0.00000,-0.00268,0.03111,-0.98796,2023,6,12,11,36,2,687
0.04110,2.99250,-4.65500,0.00000,-0.00220,0.03392,-0.98747,2023,6,12,11,36,2,698
0.04120,2.99250,-4.55000,0.00000,-0.00268,0.03038,-0.98808,2023,6,12,11,36,2,709
0.04130,2.94000,-4.60250,0.00000,-0.00244,0.03038,-0.98588,2023,6,12,11,36,2,720
0.04140,2.97500,-4.48000,0.00000,-0.00183,0.03038,-0.98552,2023,6,12,11,36,2,731
0.04150,3.02750,-4.79500,0.00000,-0.00281,0.03001,-0.98649,2023,6,12,11,36,2,743
0.04160,2.85250,-4.51500,0.00000,-0.00110,0.03318,-0.98686,2023,6,12,11,36,2,754
0.04170,3.04500,-4.77750,0.00000,-0.00293,0.03233,-0.98796,2023,6,12,11,36,2,765
0.04180,2.99250,-4.79500,0.00000,-0.00281,0.03087,-0.98393,2023,6,12,11,36,2,776
0.04190,3.01000,-4.69000,0.00000,-0.00476,0.03245,-0.99052,2023,6,12,11,36,2,787
0.04200,3.04500,-4.42750,0.00000,0.00085,0.03160,-0.98857,2023,6,12,11,36,2,798
0.04210,3.02750,-4.44500,0.00000,-0.00207,0.03074,-0.98735,2023,6,12,11,36,2,809
0.04220,3.04500,-4.56750,0.00000,-0.00146,0.02965,-0.98759,2023,6,12,11,36,2,820
0.04230,3.04500,-4.62000,0.00000,-0.00220,0.03038,-0.98649,2023,6,12,11,36,2,831
0.04240,3.16750,-4.69000,0.00000,-0.00268,0.03123,-0.98796,2023,6,12,11,36,2,843
0.04250,3.18500,-4.56750,0.00000,-0.00500,0.03257,-0.98930,2023,6,12,11,36,2,854
0.04260,2.95750,-4.84750,0.00000,-0.00268,0.03148,-0.98979,2023,6,12,11,36,2,865
0.04270,2.81750,-4.44500,0.00000,-0.00427,0.03135,-0.98698,2023,6,12,11,36,2,876
0.04280,2.90500,-4.55000,0.00000,-0.00317,0.03318,-0.98735,2023,6,12,11,36,2,887
0.04290,2.87000,-4.53250,0.00000,-0.00122,0.03209,-0.98808,2023,6,12,11,36,2,898
0.04300,3.01000,-4.51500,0.00000,-0.00268,0.03160,-0.98832,2023,6,12,11,36,2,909
0.04310,2.88750,-4.55000,0.00000,-0.00329,0.03123,-0.98832,2023,6,12,11,36,2,920
0.04320,3.02750,-4.70750,0.00000,-0.00403,0.03245,-0.98613,2023,6,12,11,36,2,931
0.04330,2.95750,-4.46250,0.00000,-0.00110,0.03282,-0.98722,2023,6,12,11,36,2,943
0.04340,3.01000,-4.44500,0.00000,-0.00159,0.03087,-0.98759,2023,6,12,11,36,2,954
0.04350,2.95750,-4.51500,0.00000,-0.00122,0.03135,-0.98698,2023,6,12,11,36,2,965
0.04360,2.92250,-4.46250,0.00000,-0.00317,0.03099,-0.98759,2023,6,12,11,36,2,976
0.04370,3.16750,-4.72500,0.00000,-0.00110,0.03270,-0.98820,2023,6,12,11,36,3,7
0.04380,2.94000,-4.86500,0.00000,-0.00256,0.03099,-0.98759,2023,6,12,11,36,3,18
0.04390,2.97500,-4.55000,0.00000,-0.00232,0.03038,-0.98820,2023,6,12,11,36,3,29
0.04400,2.97500,-4.58500,0.00000,-0.00305,0.03160,-0.98454,2023,6,12,11,36,3,40
0.04410,3.08000,-4.67250,0.00000,-0.00110,0.03148,-0.98991,2023,6,12,11,36,3,51
0.04420,2.81750,-4.51500,0.00000,-0.00451,0.03196,-0.98649,2023,6,12,11,36,3,63
0.04430,2.97500,-4.62000,0.00000,-0.00366,0.03148,-0.98698,2023,6,12,11,36,3,74
0.04440,2.64250,-4.67250,0.00000,-0.00451,0.03379,-0.98893,2023,6,12,11,36,3,85
0.04450,2.85250,-4.62000,0.00000,-0.00476,0.03306,-0.98808,2023,6,12,11,36,3,96
0.04460,3.04500,-4.70750,0.00000,-0.00207,0.03318,-0.98649,2023,6,12,11,36,3,107
0.04470,3.20250,-4.81250,0.00000,-0.00403,0.03160,-0.98905,2023,6,12,11,36,3,118
0.04480,3.02750,-4.49750,0.00000,-0.00207,0.03038,-0.98674,2023,6,12,11,36,3,129
0.04490,3.08000,-4.65500,0.00000,-0.00049,0.03196,-0.98649,2023,6,12,11,36,3,140
0.04500,3.15000,-4.76000,0.00000,-0.00366,0.03221,-0.98747,2023,6,12,11,36,3,151
0.04510,3.11500,-4.56750,0.00000,-0.00281,0.03148,-0.98722,2023,6,12,11,36,3,163
0.04520,2.94000,-4.53250,0.00000,-0.00500,0.03233,-0.98783,2023,6,12,11,36,3,174
0.04530,3.02750,-4.67250,0.00000,-0.00183,0.03209,-0.98698,2023,6,12,11,36,3,185
0.04540,2.92250,-4.69000,0.00000,-0.00293,0.03282,-0.98576,2023,6,12,11,36,3,196
0.04550,3.04500,-4.58500,0.00000,-0.00305,0.03196,-0.98979,2023,6,12,11,36,3,207
0.04560,2.95750,-4.44500,0.00000,-0.00281,0.03111,-0.98735,2023,6,12,11,36,3,218
0.04570,3.06250,-4.69000,0.00000,-0.00244,0.03087,-0.98844,2023,6,12,11,36,3,229
0.04580,3.02750,-4.49750,0.00000,-0.00354,0.03160,-0.98747,2023,6,12,11,36,3,240
0.04590,3.02750,-4.63750,0.00000,-0.00146,0.03257,-0.98698,2023,6,12,11,36,3,251
0.04600,3.02750,-4.76000,0.00000,-0.00256,0.03184,-0.98600,2023,6,12,11,36,3,263
0.04610,2.94000,-4.46250,0.00000,-0.00171,0.03355,-0.98722,2023,6,12,11,36,3,274
0.04620,3.16750,-4.60250,0.00000,-0.00098,0.03062,-0.98527,2023,6,12,11,36,3,285
0.04630,2.95750,-4.63750,0.00000,-0.00049,0.03050,-0.98588,2023,6,12,11,36,3,296
0.04640,3.01000,-4.65500,0.00000,-0.00232,0.03184,-0.98808,2023,6,12,11,36,3,307
0.04650,2.94000,-4.53250,0.00000,-0.00390,0.03257,-0.98796,2023,6,12,11,36,3,318
0.04660,2.92250,-4.55000,0.00000,-0.00354,0.03282,-0.98600,2023,6,12,11,36,3,329
0.04670,2.97500,-4.70750,0.00000,-0.00171,0.03062,-0.99027,2023,6,12,11,36,3,340
0.04680,2.90500,-4.74250,0.00000,-0.00134,0.03318,-0.98735,2023,6,12,11,36,3,351
0.04690,2.99250,-4.51500,0.00000,-0.00293,0.02940,-0.99076,2023,6,12,11,36,3,363
0.04700,2.87000,-4.58500,0.00000,-0.00293,0.03135,-0.98844,2023,6,12,11,36,3,374
0.04710,3.09750,-4.53250,0.00000,-0.00183,0.03257,-0.98552,2023,6,12,11,36,3,385
0.04720,3.11500,-4.63750,0.00000,-0.00329,0.03196,-0.98686,2023,6,12,11,36,3,396
0.04730,2.76500,-4.46250,0.00000,-0.00171,0.02989,-0.98564,2023,6,12,11,36,3,407
0.04740,2.83500,-4.18250,0.00000,-0.00183,0.03221,-0.98637,2023,6,12,11,36,3,418
0.04750,2.94000,-4.53250,0.00000,-0.00220,0.03184,-0.98844,2023,6,12,11,36,3,429
0.04760,3.02750,-4.70750,0.00000,-0.00329,0.03123,-0.98588,2023,6,12,11,36,3,440
0.04770,2.78250,-4.25250,0.00000,-0.00146,0.03148,-0.98979,2023,6,12,11,36,3,451
0.04780,3.01000,-4.62000,0.00000,-0.00171,0.02989,-0.98600,2023,6,12,11,36,3,463
0.04790,2.97500,-4.55000,0.00000,-0.00451,0.03233,-0.99088,2023,6,12,11,36,3,474
0.04800,2.94000,-4.79500,0.00000,-0.00415,0.03148,-0.98783,2023,6,12,11,36,3,485
0.04810,3.04500,-4.67250,0.00000,-0.00268,0.03343,-0.99027,2023,6,12,11,36,3,496
0.04820,2.95750,-4.49750,0.00000,-0.00122,0.03282,-0.98735,2023,6,12,11,36,3,507
0.04830,2.99250,-4.72500,0.00000,-0.00159,0.03184,-0.98649,2023,6,12,11,36,3,518
0.04840,2.94000,-4.53250,0.00000,-0.00244,0.03087,-0.98869,2023,6,12,11,36,3,529
0.04850,2.88750,-4.65500,0.00000,-0.00317,0.03111,-0.98747,2023,6,12,11,36,3,540
0.04860,3.08000,-4.51500,0.00000,-0.00171,0.03135,-0.98796,2023,6,12,11,36,3,551
0.04870,2.94000,-4.58500,0.00000,-0.00134,0.03099,-0.98613,2023,6,12,11,36,3,563
0.04880,2.95750,-4.58500,0.00000,-0.00439,0.03209,-0.98918,2023,6,12,11,36,3,574
0.04890,3.08000,-4.62000,0.00000,-0.00220,0.03099,-0.98637,2023,6,12,11,36,3,585
0.04900,2.90500,-4.48000,0.00000,-0.00024,0.03074,-0.98783,2023,6,12,11,36,3,596
0.04910,3.11500,-4.62000,0.00000,-0.00403,0.03184,-0.98930,2023,6,12,11,36,3,607
0.04920,2.85250,-4.44500,0.00000,-0.00195,0.03074,-0.98759,2023,6,12,11,36,3,618
0.04930,2.94000,-4.46250,0.00000,-0.00134,0.03111,-0.98808,2023,6,12,11,36,3,629
0.04940,3.08000,-4.70750,0.00000,-0.00085,0.03221,-0.98796,2023,6,12,11,36,3,640
0.04950,2.83500,-4.56750,0.00000,-0.00329,0.03209,-0.98722,2023,6,12,11,36,3,651
0.04960,2.92250,-4.48000,0.00000,-0.00134,0.03050,-0.98771,2023,6,12,11,36,3,663
0.04970,3.04500,-4.67250,0.00000,-0.00366,0.03172,-0.98564,2023,6,12,11,36,3,674
0.04980,3.01000,-4.51500,0.00000,-0.00256,0.03099,-0.98918,2023,6,12,11,36,3,685
0.04990,2.90500,-4.76000,0.00000,-0.00256,0.03196,-0.98918,2023,6,12,11,36,3,696
0.05000,2.99250,-4.60250,0.00000,-0.00220,0.03282,-0.98588,2023,6,12,11,36,3,707
0.05010,2.97500,-4.65500,0.00000,-0.00415,0.03367,-0.98674,2023,6,12,11,36,3,718
0.05020,2.88750,-4.48000,0.00000,-0.00268,0.03074,-0.98710,2023,6,12,11,36,3,729
0.05030,2.99250,-4.58500,0.00000,-0.00268,0.03270,-0.98735,2023,6,12,11,36,3,740
0.05040,2.88750,-4.55000,0.00000,-0.00195,0.03367,-0.99015,2023,6,12,11,36,3,751
0.05050,3.04500,-4.58500,0.00000,-0.00195,0.03160,-0.99149,2023,6,12,11,36,3,763
0.05060,2.80000,-4.58500,0.00000,-0.00171,0.03087,-0.98661,2023,6,12,11,36,3,774
0.05070,2.94000,-4.58500,0.00000,-0.00146,0.03135,-0.98735,2023,6,12,11,36,3,785
0.05080,3.01000,-4.63750,0.00000,-0.00342,0.03306,-0.98942,2023,6,12,11,36,3,796
0.05090,3.16750,-4.69000,0.00000,-0.00403,0.03160,-0.98832,2023,6,12,11,36,3,807
0.05100,3.06250,-4.46250,0.00000,-0.00183,0.03209,-0.98796,2023,6,12,11,36,3,818
0.05110,2.88750,-4.67250,0.00000,-0.00317,0.03099,-0.98808,2023,6,12,11,36,3,829
0.05120,3.08000,-4.56750,0.00000,-0.00342,0.03233,-0.99003,2023,6,12,11,36,3,840
0.05130,3.09750,-4.77750,0.00000,-0.00085,0.03233,-0.98588,2023,6,12,11,36,3,851
0.05140,3.11500,-4.51500,0.00000,0.00024,0.03160,-0.98771,2023,6,12,11,36,3,863
0.05150,2.90500,-4.56750,0.00000,-0.00268,0.03184,-0.98808,2023,6,12,11,36,3,874
0.05160,2.97500,-4.69000,0.00000,-0.00256,0.03209,-0.98576,2023,6,12,11,36,3,885
0.05170,2.80000,-4.76000,0.00000,-0.00305,0.03282,-0.98735,2023,6,12,11,36,3,896
0.05180,2.73000,-4.44500,0.00000,-0.00293,0.03123,-0.98515,2023,6,12,11,36,3,907
0.05190,2.90500,-4.56750,0.00000,-0.00281,0.03233,-0.98783,2023,6,12,11,36,3,918
0.05200,3.11500,-4.81250,0.00000,-0.00329,0.03270,-0.98954,2023,6,12,11,36,3,929
0.05210,3.06250,-4.79500,0.00000,-0.00049,0.03026,-0.98942,2023,6,12,11,36,3,940
0.05220,3.02750,-4.53250,0.00000,-0.00451,0.03245,-0.98747,2023,6,12,11,36,3,951
0.05230,3.11500,-4.70750,0.00000,-0.00256,0.03172,-0.98796,2023,6,12,11,36,3,963
0.05240,3.02750,-4.62000,0.00000,-0.00415,0.03172,-0.98710,2023,6,12,11,36,4,4
0.05250,3.02750,-4.37500,0.00000,-0.00220,0.03233,-0.98613,2023,6,12,11,36,4,15
0.05260,2.71250,-4.42750,0.00000,-0.00220,0.03294,-0.98637,2023,6,12,11,36,4,26
0.05270,3.02750,-4.46250,0.00000,-0.00073,0.03038,-0.98857,2023,6,12,11,36,4,37
0.05280,2.99250,-4.58500,0.00000,-0.00122,0.03013,-0.98844,2023,6,12,11,36,4,48
0.05290,3.06250,-4.55000,0.00000,-0.00354,0.03367,-0.99015,2023,6,12,11,36,4,59
0.05300,3.01000,-4.55000,0.00000,-0.00317,0.03184,-0.98783,2023,6,12,11,36,4,70
0.05310,2.87000,-4.65500,0.00000,-0.00171,0.03184,-0.98735,2023,6,12,11,36,4,81
0.05320,2.94000,-4.67250,0.00000,-0.00171,0.03111,-0.98661,2023,6,12,11,36,4,93
0.05330,3.02750,-4.76000,0.00000,-0.00073,0.03038,-0.98893,2023,6,12,11,36,4,104
0.05340,2.90500,-4.65500,0.00000,-0.00122,0.03087,-0.98820,2023,6,12,11,36,4,115
0.05350,2.85250,-4.32250,0.00000,-0.00317,0.03038,-0.98808,2023,6,12,11,36,4,126
0.05360,2.97500,-4.70750,0.00000,0.00098,0.03160,-0.98869,2023,6,12,11,36,4,137
0.05370,3.08000,-4.60250,0.00000,-0.00207,0.03135,-0.99015,2023,6,12,11,36,4,148
0.05380,2.97500,-4.46250,0.00000,-0.00244,0.03270,-0.98698,2023,6,12,11,36,4,159
0.05390,3.01000,-4.53250,0.00000,-0.00293,0.03111,-0.98698,2023,6,12,11,36,4,170
0.05400,3.01000,-4.49750,0.00000,-0.00183,0.03099,-0.98625,2023,6,12,11,36,4,181
0.05410,3.02750,-4.70750,0.00000,-0.00146,0.03087,-0.98747,2023,6,12,11,36,4,193
0.05420,2.88750,-4.55000,0.00000,-0.00098,0.03074,-0.98698,2023,6,12,11,36,4,204
0.05430,3.06250,-4.62000,0.00000,-0.00281,0.03233,-0.98771,2023,6,12,11,36,4,215
0.05440,3.06250,-4.62000,0.00000,-0.00183,0.03172,-0.98722,2023,6,12,11,36,4,226
0.05450,3.06250,-4.58500,0.00000,-0.00171,0.03111,-0.98869,2023,6,12,11,36,4,237
0.05460,3.08000,-4.84750,0.00000,-0.00073,0.03123,-0.98686,2023,6,12,11,36,4,248
0.05470,3.20250,-4.65500,0.00000,0.00049,0.03062,-0.99003,2023,6,12,11,36,4,259
0.05480,2.87000,-4.51500,0.00000,-0.00110,0.03026,-0.98808,2023,6,12,11,36,4,270
0.05490,2.85250,-4.49750,0.00000,-0.00354,0.03282,-0.98869,2023,6,12,11,36,4,281
0.05500,2.97500,-4.72500,0.00000,-0.00232,0.03245,-0.99015,2023,6,12,11,36,4,293
0.05510,3.02750,-4.55000,0.00000,-0.00268,0.03026,-0.98844,2023,6,12,11,36,4,304
0.05520,3.04500,-4.69000,0.00000,-0.00342,0.03172,-0.98564,2023,6,12,11,36,4,315
0.05530,2.92250,-4.41000,0.00000,-0.00061,0.03050,-0.98564,2023,6,12,11,36,4,326
0.05540,3.09750,-4.39250,0.00000,-0.00439,0.03135,-0.98820,2023,6,12,11,36,4,337
0.05550,2.95750,-4.49750,0.00000,-0.00329,0.03257,-0.98832,2023,6,12,11,36,4,348
0.05560,3.09750,-4.67250,0.00000,-0.00049,0.02977,-0.98905,2023,6,12,11,36,4,359
0.05570,3.09750,-4.76000,0.00000,-0.00415,0.03294,-0.98674,2023,6,12,11,36,4,370
0.05580,2.99250,-4.72500,0.00000,-0.00220,0.03282,-0.99003,2023,6,12,11,36,4,381
0.05590,3.18500,-4.55000,0.00000,-0.00098,0.03050,-0.98808,2023,6,12,11,36,4,393
0.05600,3.16750,-4.70750,0.00000,-0.00220,0.03135,-0.98698,2023,6,12,11,36,4,404
0.05610,3.06250,-4.79500,0.00000,-0.00061,0.03123,-0.98710,2023,6,12,11,36,4,415
0.05620,2.81750,-4.55000,0.00000,-0.00146,0.03270,-0.98747,2023,6,12,11,36,4,426
0.05630,3.01000,-4.67250,0.00000,-0.00293,0.03270,-0.98576,2023,6,12,11,36,4,437
0.05640,3.01000,-4.65500,0.00000,-0.00244,0.03343,-0.98686,2023,6,12,11,36,4,448
0.05650,3.13250,-4.67250,0.00000,-0.00293,0.02952,-0.98686,2023,6,12,11,36,4,459
0.05660,3.01000,-4.60250,0.00000,-0.00232,0.03270,-0.98954,2023,6,12,11,36,4,470
0.05670,2.90500,-4.76000,0.00000,-0.00146,0.03062,-0.98832,2023,6,12,11,36,4,481
0.05680,2.99250,-4.53250,0.00000,-0.00403,0.03148,-0.98747,2023,6,12,11,36,4,493
0.05690,2.87000,-4.55000,0.00000,-0.00061,0.03001,-0.98930,2023,6,12,11,36,4,504
0.05700,3.06250,-4.63750,0.00000,0.00000,0.03087,-0.98649,2023,6,12,11,36,4,515
0.05710,2.90500,-4.44500,0.00000,-0.00220,0.03245,-0.98771,2023,6,12,11,36,4,526
0.05720,2.85250,-4.60250,0.00000,-0.00305,0.03209,-0.98698,2023,6,12,11,36,4,537
0.05730,2.99250,-4.41000,0.00000,-0.00122,0.03245,-0.98893,2023,6,12,11,36,4,548
0.05740,2.92250,-4.79500,0.00000,-0.00110,0.03111,-0.98954,2023,6,12,11,36,4,559
0.05750,2.76500,-4.60250,0.00000,-0.00378,0.03001,-0.98966,2023,6,12,11,36,4,570
0.05760,3.02750,-4.41000,0.00000,-0.00061,0.03135,-0.99088,2023,6,12,11,36,4,581
0.05770,3.02750,-4.69000,0.00000,-0.00232,0.03196,-0.98783,2023,6,12,11,36,4,593
0.05780,3.01000,-4.51500,0.00000,-0.00317,0.03221,-0.98979,2023,6,12,11,36,4,604
0.05790,2.94000,-4.48000,0.00000,-0.00281,0.03160,-0.98454,2023,6,12,11,36,4,615
0.05800,2.90500,-4.58500,0.00000,-0.00061,0.03209,-0.98905,2023,6,12,11,36,4,626
0.05810,3.09750,-4.63750,0.00000,-0.00183,0.03135,-0.98515,2023,6,12,11,36,4,637
0.05820,3.04500,-4.62000,0.00000,-0.00354,0.03196,-0.98820,2023,6,12,11,36,4,648
0.05830,3.01000,-4.46250,0.00000,-0.00073,0.02989,-0.98625,2023,6,12,11,36,4,659
0.05840,3.04500,-4.58500,0.00000,-0.00354,0.03282,-0.98820,2023,6,12,11,36,4,670
0.05850,3.15000,-4.74250,0.00000,-0.00256,0.03135,-0.98722,2023,6,12,11,36,4,681
0.05860,3.06250,-4.72500,0.00000,-0.00024,0.03209,-0.98930,2023,6,12,11,36,4,693
0.05870,2.94000,-4.48000,0.00000,-0.00305,0.03233,-0.98698,2023,6,12,11,36,4,704
0.05880,3.06250,-4.86500,0.00000,-0.00220,0.03135,-0.98649,2023,6,12,11,36,4,715
0.05890,2.99250,-4.56750,0.00000,-0.00354,0.03123,-0.98442,2023,6,12,11,36,4,726
0.05900,3.08000,-4.32250,0.00000,-0.00171,0.03087,-0.98710,2023,6,12,11,36,4,737
0.05910,3.06250,-4.62000,0.00000,-0.00329,0.03270,-0.98820,2023,6,12,11,36,4,748
0.05920,2.94000,-4.65500,0.00000,-0.00293,0.03404,-0.98783,2023,6,12,11,36,4,759
0.05930,3.02750,-4.46250,0.00000,-0.00073,0.02952,-0.98637,2023,6,12,11,36,4,770
0.05940,2.78250,-4.51500,0.00000,-0.00207,0.03099,-0.98735,2023,6,12,11,36,4,781
0.05950,2.80000,-4.37500,0.00000,-0.00317,0.03111,-0.98710,2023,6,12,11,36,4,793
0.05960,3.02750,-4.69000,0.00000,-0.00256,0.03257,-0.98710,2023,6,12,11,36,4,804
0.05970,2.90500,-4.60250,0.00000,-0.00378,0.02965,-0.98808,2023,6,12,11,36,4,815
0.05980,2.94000,-4.60250,0.00000,-0.00244,0.03111,-0.98857,2023,6,12,11,36,4,826
0.05990,2.80000,-4.60250,0.00000,-0.00305,0.03270,-0.98808,2023,6,12,11,36,4,837
0.06000,2.87000,-4.37500,0.00000,-0.00146,0.03196,-0.98893,2023,6,12,11,36,4,848
0.06010,2.90500,-4.60250,0.00000,-0.00207,0.03221,-0.98796,2023,6,12,11,36,4,859
0.06020,2.90500,-4.55000,0.00000,-0.00207,0.03111,-0.98478,2023,6,12,11,36,4,870
0.06030,2.90500,-4.49750,0.00000,-0.00415,0.03270,-0.98649,2023,6,12,11,36,4,881
0.06040,3.16750,-4.72500,0.00000,0.00098,0.02916,-0.98686,2023,6,12,11,36,4,893
0.06050,2.97500,-4.62000,0.00000,-0.00256,0.03184,-0.98796,2023,6,12,11,36,4,904
0.06060,2.81750,-4.44500,0.00000,-0.00171,0.03233,-0.99015,2023,6,12,11,36,4,915
0.06070,2.90500,-4.74250,0.00000,-0.00317,0.03160,-0.98832,2023,6,12,11,36,4,926
0.06080,2.95750,-4.70750,0.00000,-0.00159,0.03099,-0.98649,2023,6,12,11,36,4,937
0.06090,3.18500,-4.81250,0.00000,-0.00183,0.03111,-0.98820,2023,6,12,11,36,4,948
0.06100,2.95750,-4.48000,0.00000,-0.00354,0.03050,-0.98735,2023,6,12,11,36,4,959
0.06110,3.08000,-4.74250,0.00000,-0.00268,0.03135,-0.98808,2023,6,12,11,36,5,0
0.06120,2.87000,-4.63750,0.00000,-0.00268,0.03111,-0.98954,2023,6,12,11,36,5,11
0.06130,2.95750,-4.49750,0.00000,-0.00281,0.03001,-0.98771,2023,6,12,11,36,5,23
0.06140,2.95750,-4.56750,0.00000,-0.00305,0.03209,-0.98686,2023,6,12,11,36,5,34
0.06150,3.01000,-4.35750,0.00000,-0.00085,0.03074,-0.98515,2023,6,12,11,36,5,45
0.06160,3.01000,-4.62000,0.00000,-0.00256,0.03087,-0.98686,2023,6,12,11,36,5,56
0.06170,2.83500,-4.49750,0.00000,0.00073,0.03221,-0.98649,2023,6,12,11,36,5,67
0.06180,2.81750,-4.48000,0.00000,-0.00317,0.03209,-0.98759,2023,6,12,11,36,5,78
0.06190,2.97500,-4.70750,0.00000,-0.00256,0.03233,-0.98820,2023,6,12,11,36,5,89
0.06200,3.04500,-4.76000,0.00000,-0.00037,0.03074,-0.98564,2023,6,12,11,36,5,100
0.06210,3.08000,-4.74250,0.00000,-0.00268,0.03172,-0.98771,2023,6,12,11,36,5,111
0.06220,2.95750,-4.42750,0.00000,-0.00122,0.03050,-0.98820,2023,6,12,11,36,5,123
0.06230,2.94000,-4.86500,0.00000,-0.00122,0.03148,-0.98820,2023,6,12,11,36,5,134
0.06240,2.99250,-4.63750,0.00000,0.00000,0.03209,-0.98930,2023,6,12,11,36,5,145
0.06250,3.06250,-4.63750,0.00000,-0.00354,0.03160,-0.98661,2023,6,12,11,36,5,156
0.06260,2.99250,-4.67250,0.00000,-0.00415,0.03111,-0.98722,2023,6,12,11,36,5,167
0.06270,2.97500,-4.83000,0.00000,-0.00305,0.03172,-0.98515,2023,6,12,11,36,5,178
0.06280,2.88750,-4.44500,0.00000,-0.00159,0.03074,-0.98869,2023,6,12,11,36,5,189
0.06290,3.01000,-4.46250,0.00000,-0.00268,0.03135,-0.98674,2023,6,12,11,36,5,200
0.06300,2.99250,-4.51500,0.00000,-0.00317,0.03282,-0.98808,2023,6,12,11,36,5,211
0.06310,2.81750,-4.41000,0.00000,-0.00146,0.03392,-0.98613,2023,6,12,11,36,5,223
0.06320,2.80000,-4.62000,0.00000,-0.00085,0.03343,-0.98735,2023,6,12,11,36,5,234
0.06330,3.08000,-4.58500,0.00000,-0.00256,0.03062,-0.98735,2023,6,12,11,36,5,245
0.06340,3.04500,-4.51500,0.00000,-0.00342,0.03209,-0.99149,2023,6,12,11,36,5,256
0.06350,2.95750,-4.55000,0.00000,-0.00232,0.03209,-0.98771,2023,6,12,11,36,5,267
0.06360,2.90500,-4.49750,0.00000,-0.00183,0.03331,-0.98649,2023,6,12,11,36,5,278
0.06370,2.97500,-4.74250,0.00000,-0.00232,0.03184,-0.98539,2023,6,12,11,36,5,289
0.06380,2.83500,-4.55000,0.00000,0.00073,0.03209,-0.98710,2023,6,12,11,36,5,300
0.06390,2.99250,-4.49750,0.00000,-0.00183,0.03257,-0.98820,2023,6,12,11,36,5,311
0.06400,3.02750,-4.60250,0.00000,-0.00378,0.03257,-0.98783,2023,6,12,11,36,5,323
0.06410,2.90500,-4.53250,0.00000,0.00098,0.03135,-0.98649,2023,6,12,11,36,5,334
0.06420,3.11500,-4.65500,0.00000,-0.00232,0.03257,-0.98600,2023,6,12,11,36,5,345
0.06430,3.08000,-4.60250,0.00000,-0.00134,0.03148,-0.98576,2023,6,12,11,36,5,356
0.06440,3.02750,-4.77750,0.00000,-0.00134,0.03062,-0.98491,2023,6,12,11,36,5,367
0.06450,2.88750,-4.65500,0.00000,-0.00232,0.03270,-0.98600,2023,6,12,11,36,5,378
0.06460,2.94000,-4.44500,0.00000,-0.00195,0.02977,-0.98893,2023,6,12,11,36,5,389
0.06470,3.06250,-4.44500,0.00000,-0.00268,0.03355,-0.98722,2023,6,12,11,36,5,400
0.06480,3.20250,-4.53250,0.00000,-0.00220,0.03294,-0.98905,2023,6,12,11,36,5,411
0.06490,3.01000,-4.49750,0.00000,-0.00183,0.03160,-0.98942,2023,6,12,11,36,5,423
0.06500,2.85250,-4.58500,0.00000,-0.00390,0.03196,-0.98698,2023,6,12,11,36,5,434
0.06510,3.04500,-4.58500,0.00000,-0.00012,0.02904,-0.98661,2023,6,12,11,36,5,445
0.06520,3.11500,-4.49750,0.00000,-0.00415,0.03099,-0.99076,2023,6,12,11,36,5,456
0.06530,2.87000,-4.49750,0.00000,-0.00220,0.03148,-0.98869,2023,6,12,11,36,5,467
0.06540,3.16750,-4.91750,0.00000,-0.00012,0.03099,-0.98600,2023,6,12,11,36,5,478
0.06550,2.90500,-4.53250,0.00000,-0.00232,0.03148,-0.98966,2023,6,12,11,36,5,489
0.06560,2.90500,-4.48000,0.00000,-0.00317,0.03062,-0.99101,2023,6,12,11,36,5,500
0.06570,3.08000,-4.77750,0.00000,-0.00171,0.03160,-0.98576,2023,6,12,11,36,5,511
0.06580,2.92250,-4.60250,0.00000,-0.00427,0.03148,-0.98576,2023,6,12,11,36,5,523
0.06590,2.87000,-4.69000,0.00000,-0.00122,0.03294,-0.98649,2023,6,12,11,36,5,534
0.06600,2.92250,-4.48000,0.00000,-0.00207,0.03062,-0.98832,2023,6,12,11,36,5,545
0.06610,3.08000,-4.74250,0.00000,-0.00207,0.03233,-0.98564,2023,6,12,11,36,5,556
0.06620,2.87000,-4.60250,0.00000,-0.00268,0.03087,-0.98564,2023,6,12,11,36,5,567
0.06630,2.97500,-4.72500,0.00000,-0.00244,0.03099,-0.98735,2023,6,12,11,36,5,578
0.06640,3.02750,-4.72500,0.00000,-0.00329,0.03148,-0.98539,2023,6,12,11,36,5,589
0.06650,3.09750,-4.55000,0.00000,-0.00183,0.03001,-0.98966,2023,6,12,11,36,5,600
0.06660,3.06250,-4.55000,0.00000,-0.00207,0.03135,-0.98600,2023,6,12,11,36,5,611
0.06670,3.01000,-4.74250,0.00000,-0.00317,0.03282,-0.98808,2023,6,12,11,36,5,623
0.06680,2.81750,-4.46250,0.00000,-0.00171,0.03172,-0.98808,2023,6,12,11,36,5,634
0.06690,2.92250,-4.56750,0.00000,-0.00317,0.03111,-0.98564,2023,6,12,11,36,5,645
0.06700,2.94000,-4.63750,0.00000,-0.00268,0.03160,-0.98600,2023,6,12,11,36,5,656
0.06710,3.06250,-4.63750,0.00000,-0.00232,0.03306,-0.98686,2023,6,12,11,36,5,667
0.06720,2.85250,-4.62000,0.00000,-0.00268,0.03160,-0.98747,2023,6,12,11,36,5,678
0.06730,3.06250,-4.76000,0.00000,-0.00293,0.03331,-0.98735,2023,6,12,11,36,5,689
0.06740,2.95750,-4.58500,0.00000,-0.00207,0.03172,-0.98783,2023,6,12,11,36,5,700
0.06750,3.11500,-4.56750,0.00000,0.00012,0.03087,-0.98686,2023,6,12,11,36,5,711
0.06760,2.87000,-4.41000,0.00000,-0.00183,0.03184,-0.98832,2023,6,12,11,36,5,723
0.06770,3.01000,-4.69000,0.00000,-0.00220,0.03087,-0.98722,2023,6,12,11,36,5,734
0.06780,2.87000,-4.51500,0.00000,-0.00439,0.03148,-0.98637,2023,6,12,11,36,5,745
0.06790,3.15000,-4.81250,0.00000,-0.00281,0.03379,-0.98796,2023,6,12,11,36,5,756
0.06800,2.92250,-4.62000,0.00000,-0.00244,0.03135,-0.98747,2023,6,12,11,36,5,767
0.06810,3.09750,-4.53250,0.00000,0.00012,0.03160,-0.98625,2023,6,12,11,36,5,778
0.06820,3.15000,-4.72500,0.00000,-0.00415,0.03294,-0.98796,2023,6,12,11,36,5,789
0.06830,3.08000,-4.63750,0.00000,-0.00159,0.03050,-0.98503,2023,6,12,11,36,5,800
0.06840,3.13250,-4.56750,0.00000,-0.00146,0.02940,-0.98820,2023,6,12,11,36,5,811
0.06850,2.81750,-4.48000,0.00000,-0.00451,0.03184,-0.98661,2023,6,12,11,36,5,823
0.06860,2.94000,-4.65500,0.00000,-0.00207,0.03379,-0.98613,2023,6,12,11,36,5,834
0.06870,2.85250,-4.62000,0.00000,-0.00012,0.03233,-0.98832,2023,6,12,11,36,5,845
0.06880,2.85250,-4.34000,0.00000,-0.00390,0.03013,-0.98844,2023,6,12,11,36,5,856
0.06890,3.06250,-4.67250,0.00000,-0.00293,0.03233,-0.98674,2023,6,12,11,36,5,867
0.06900,2.94000,-4.34000,0.00000,-0.00244,0.03148,-0.98722,2023,6,12,11,36,5,878
0.06910,2.90500,-4.51500,0.00000,-0.00378,0.03209,-0.98747,2023,6,12,11,36,5,889
0.06920,2.97500,-4.53250,0.00000,-0.00220,0.03148,-0.98893,2023,6,12,11,36,5,900
0.06930,2.83500,-4.67250,0.00000,-0.00366,0.03196,-0.98796,2023,6,12,11,36,5,911
0.06940,2.97500,-4.65500,0.00000,-0.00195,0.03172,-0.98600,2023,6,12,11,36,5,923
0.06950,2.92250,-4.67250,0.00000,-0.00207,0.03172,-0.98796,2023,6,12,11,36,5,934
0.06960,3.11500,-4.58500,0.00000,-0.00256,0.03038,-0.98783,2023,6,12,11,36,5,945
0.06970,2.85250,-4.44500,0.00000,-0.00390,0.03367,-0.98698,2023,6,12,11,36,6,6
0.06980,2.88750,-4.51500,0.00000,-0.00244,0.03123,-0.98686,2023,6,12,11,36,6,17
0.06990,3.04500,-4.53250,0.00000,-0.00293,0.03221,-0.98710,2023,6,12,11,36,6,28
0.07000,2.97500,-4.60250,0.00000,-0.00195,0.03221,-0.98503,2023,6,12,11,36,6,39
0.07010,3.02750,-4.67250,0.00000,-0.00146,0.03135,-0.98808,2023,6,12,11,36,6,50
0.07020,2.88750,-4.49750,0.00000,-0.00171,0.03087,-0.98478,2023,6,12,11,36,6,61
0.07030,2.87000,-4.48000,0.00000,-0.00146,0.03087,-0.98661,2023,6,12,11,36,6,73
0.07040,2.95750,-4.70750,0.00000,-0.00378,0.03038,-0.98844,2023,6,12,11,36,6,84
0.07050,3.08000,-4.74250,0.00000,-0.00281,0.03148,-0.98576,2023,6,12,11,36,6,95
0.07060,3.15000,-4.65500,0.00000,-0.00244,0.03160,-0.98661,2023,6,12,11,36,6,106
0.07070,2.87000,-4.53250,0.00000,-0.00281,0.03245,-0.98430,2023,6,12,11,36,6,117
0.07080,3.04500,-4.60250,0.00000,-0.00146,0.03196,-0.98710,2023,6,12,11,36,6,128
0.07090,3.04500,-4.56750,0.00000,-0.00281,0.03026,-0.98710,2023,6,12,11,36,6,139
0.07100,2.99250,-4.63750,0.00000,-0.00061,0.03196,-0.98613,2023,6,12,11,36,6,150
0.07110,2.76500,-4.32250,0.00000,-0.00207,0.02989,-0.98710,2023,6,12,11,36,6,161
0.07120,3.16750,-4.88250,0.00000,-0.00232,0.03184,-0.98442,2023,6,12,11,36,6,173
0.07130,2.92250,-4.56750,0.00000,-0.00110,0.03050,-0.98808,2023,6,12,11,36,6,184
0.07140,2.92250,-4.58500,0.00000,-0.00037,0.03184,-0.98552,2023,6,12,11,36,6,195
0.07150,2.99250,-4.58500,0.00000,-0.00207,0.03135,-0.98576,2023,6,12,11,36,6,206
0.07160,3.08000,-4.60250,0.00000,-0.00098,0.03074,-0.98588,2023,6,12,11,36,6,217
0.07170,2.94000,-4.41000,0.00000,-0.00085,0.03111,-0.98503,2023,6,12,11,36,6,228
0.07180,2.94000,-4.67250,0.00000,-0.00171,0.03135,-0.98613,2023,6,12,11,36,6,239
0.07190,2.94000,-4.46250,0.00000,-0.00146,0.03062,-0.98954,2023,6,12,11,36,6,250
0.07200,3.04500,-4.91750,0.00000,-0.00134,0.03318,-0.98661,2023,6,12,11,36,6,261
0.07210,2.94000,-4.62000,0.00000,-0.00183,0.03221,-0.98600,2023,6,12,11,36,6,273
0.07220,2.99250,-4.56750,0.00000,-0.00220,0.03062,-0.98527,2023,6,12,11,36,6,284
0.07230,3.04500,-4.67250,0.00000,-0.00146,0.03160,-0.98564,2023,6,12,11,36,6,295
0.07240,3.01000,-4.46250,0.00000,-0.00061,0.03245,-0.98503,2023,6,12,11,36,6,306
0.07250,2.88750,-4.74250,0.00000,-0.00232,0.03087,-0.98503,2023,6,12,11,36,6,317
0.07260,3.01000,-4.49750,0.00000,-0.00171,0.03111,-0.98600,2023,6,12,11,36,6,328
0.07270,2.88750,-4.49750,0.00000,-0.00464,0.03160,-0.98710,2023,6,12,11,36,6,339
0.07280,2.97500,-4.60250,0.00000,-0.00342,0.03001,-0.98564,2023,6,12,11,36,6,350
0.07290,2.95750,-4.63750,0.00000,-0.00037,0.03160,-0.98698,2023,6,12,11,36,6,361
0.07300,2.83500,-4.35750,0.00000,-0.00366,0.03257,-0.98710,2023,6,12,11,36,6,373
0.07310,2.90500,-4.79500,0.00000,-0.00232,0.03221,-0.98722,2023,6,12,11,36,6,384
0.07320,3.06250,-4.46250,0.00000,-0.00390,0.03343,-0.98588,2023,6,12,11,36,6,395
0.07330,2.97500,-4.44500,0.00000,-0.00244,0.03221,-0.98881,2023,6,12,11,36,6,406
0.07340,2.95750,-4.49750,0.00000,-0.00366,0.03160,-0.98796,2023,6,12,11,36,6,417
0.07350,3.01000,-4.63750,0.00000,-0.00195,0.03233,-0.98796,2023,6,12,11,36,6,428
0.07360,2.90500,-4.58500,0.00000,-0.00146,0.03331,-0.98625,2023,6,12,11,36,6,439
0.07370,3.08000,-4.58500,0.00000,-0.00317,0.03184,-0.98649,2023,6,12,11,36,6,450
0.07380,3.01000,-4.72500,0.00000,-0.00329,0.03172,-0.98844,2023,6,12,11,36,6,461
0.07390,2.95750,-4.58500,0.00000,-0.00098,0.03123,-0.98552,2023,6,12,11,36,6,473
0.07400,2.90500,-4.67250,0.00000,-0.00183,0.03148,-0.98649,2023,6,12,11,36,6,484
0.07410,3.11500,-4.65500,0.00000,-0.00232,0.02977,-0.98747,2023,6,12,11,36,6,495
0.07420,2.95750,-4.49750,0.00000,-0.00061,0.02830,-0.98588,2023,6,12,11,36,6,506
0.07430,2.87000,-4.60250,0.00000,0.00024,0.03123,-0.98600,2023,6,12,11,36,6,517
0.07440,2.78250,-4.53250,0.00000,-0.00220,0.03013,-0.98808,2023,6,12,11,36,6,528
0.07450,3.08000,-4.44500,0.00000,-0.00354,0.03196,-0.98844,2023,6,12,11,36,6,539
0.07460,2.85250,-4.49750,0.00000,-0.00183,0.03148,-0.98905,2023,6,12,11,36,6,550
0.07470,2.90500,-4.51500,0.00000,-0.00329,0.03160,-0.98637,2023,6,12,11,36,6,561
0.07480,3.18500,-4.76000,0.00000,-0.00195,0.03099,-0.98783,2023,6,12,11,36,6,573
0.07490,2.92250,-4.62000,0.00000,-0.00415,0.03270,-0.98893,2023,6,12,11,36,6,584
0.07500,3.06250,-4.67250,0.00000,0.00012,0.03428,-0.98527,2023,6,12,11,36,6,595
0.07510,3.08000,-4.60250,0.00000,-0.00171,0.03270,-0.98820,2023,6,12,11,36,6,606
0.07520,3.18500,-4.49750,0.00000,-0.00317,0.03294,-0.98893,2023,6,12,11,36,6,617
0.07530,3.04500,-4.67250,0.00000,-0.00183,0.02989,-0.98491,2023,6,12,11,36,6,628
0.07540,2.90500,-4.53250,0.00000,-0.00293,0.03087,-0.98527,2023,6,12,11,36,6,639
0.07550,3.02750,-4.70750,0.00000,-0.00110,0.03148,-0.98869,2023,6,12,11,36,6,650
0.07560,2.87000,-4.35750,0.00000,-0.00256,0.03209,-0.98735,2023,6,12,11,36,6,661
0.07570,2.97500,-4.63750,0.00000,-0.00293,0.03416,-0.98820,2023,6,12,11,36,6,673
0.07580,3.04500,-4.77750,0.00000,-0.00244,0.03160,-0.98613,2023,6,12,11,36,6,684
0.07590,2.69500,-4.60250,0.00000,-0.00329,0.03209,-0.98783,2023,6,12,11,36,6,695
0.07600,3.06250,-4.65500,0.00000,-0.00415,0.03172,-0.98674,2023,6,12,11,36,6,706
0.07610,2.83500,-4.62000,0.00000,-0.00159,0.03318,-0.98649,2023,6,12,11,36,6,717
0.07620,2.97500,-4.55000,0.00000,-0.00268,0.03282,-0.98820,2023,6,12,11,36,6,728
0.07630,2.99250,-4.55000,0.00000,-0.00024,0.03282,-0.98710,2023,6,12,11,36,6,739
0.07640,3.04500,-4.58500,0.00000,-0.00293,0.03099,-0.98649,2023,6,12,11,36,6,750
0.07650,2.87000,-4.62000,0.00000,-0.00195,0.03196,-0.98771,2023,6,12,11,36,6,761
0.07660,3.04500,-4.70750,0.00000,-0.00171,0.03221,-0.98905,2023,6,12,11,36,6,773
0.07670,3.06250,-4.63750,0.00000,-0.00281,0.03135,-0.98857,2023,6,12,11,36,6,784
0.07680,2.94000,-4.44500,0.00000,-0.00134,0.03196,-0.98649,2023,6,12,11,36,6,795
0.07690,3.22000,-4.63750,0.00000,-0.00464,0.03050,-0.98613,2023,6,12,11,36,6,806
0.07700,2.83500,-4.67250,0.00000,-0.00329,0.03294,-0.98893,2023,6,12,11,36,6,817
0.07710,2.97500,-4.67250,0.00000,-0.00305,0.03013,-0.98698,2023,6,12,11,36,6,828
0.07720,2.99250,-4.77750,0.00000,-0.00378,0.03148,-0.98686,2023,6,12,11,36,6,839
0.07730,2.90500,-4.53250,0.00000,0.00012,0.03038,-0.98844,2023,6,12,11,36,6,850
0.07740,2.92250,-4.62000,0.00000,-0.00342,0.02977,-0.98820,2023,6,12,11,36,6,861
0.07750,2.88750,-4.62000,0.00000,-0.00317,0.03099,-0.98893,2023,6,12,11,36,6,873
0.07760,2.87000,-4.60250,0.00000,-0.00244,0.03074,-0.98661,2023,6,12,11,36,6,884
0.07770,2.95750,-4.76000,0.00000,-0.00439,0.03148,-0.98503,2023,6,12,11,36,6,895
0.07780,2.94000,-4.53250,0.00000,-0.00110,0.03257,-0.98844,2023,6,12,11,36,6,906
0.07790,3.02750,-4.83000,0.00000,-0.00061,0.03087,-0.98918,2023,6,12,11,36,6,917
0.07800,3.01000,-4.56750,0.00000,-0.00403,0.03135,-0.98759,2023,6,12,11,36,6,928
0.07810,2.92250,-4.48000,0.00000,-0.00220,0.03245,-0.98649,2023,6,12,11,36,6,939
0.07820,2.92250,-4.58500,0.00000,-0.00110,0.03099,-0.98564,2023,6,12,11,36,6,950
0.07830,2.99250,-4.65500,0.00000,-0.00024,0.02989,-0.98674,2023,6,12,11,36,6,961
0.07840,2.88750,-4.72500,0.00000,-0.00220,0.03148,-0.98613,2023,6,12,11,36,6,973
0.07850,2.94000,-4.67250,0.00000,-0.00403,0.03233,-0.98796,2023,6,12,11,36,6,984
0.07860,2.92250,-4.60250,0.00000,-0.00488,0.03196,-0.98991,2023,6,12,11,36,7,5
0.07870,2.76500,-4.55000,0.00000,-0.00256,0.03306,-0.98552,2023,6,12,11,36,7,16
0.07880,2.99250,-4.63750,0.00000,-0.00317,0.03099,-0.98515,2023,6,12,11,36,7,27
0.07890,2.94000,-4.60250,0.00000,-0.00293,0.03233,-0.98722,2023,6,12,11,36,7,38
0.07900,2.99250,-4.63750,0.00000,-0.00195,0.03221,-0.98735,2023,6,12,11,36,7,49
0.07910,2.99250,-4.76000,0.00000,-0.00293,0.03087,-0.98344,2023,6,12,11,36,7,60
0.07920,2.76500,-4.35750,0.00000,-0.00183,0.03318,-0.98771,2023,6,12,11,36,7,71
0.07930,2.94000,-4.56750,0.00000,-0.00366,0.03331,-0.98478,2023,6,12,11,36,7,83
0.07940,3.02750,-4.83000,0.00000,-0.00146,0.03111,-0.98722,2023,6,12,11,36,7,94
0.07950,3.02750,-4.55000,0.00000,-0.00390,0.03013,-0.98881,2023,6,12,11,36,7,105
0.07960,2.71250,-4.72500,0.00000,-0.00207,0.03148,-0.98869,2023,6,12,11,36,7,116
0.07970,2.80000,-4.51500,0.00000,-0.00195,0.02989,-0.98722,2023,6,12,11,36,7,127
0.07980,3.01000,-4.65500,0.00000,0.00098,0.03184,-0.98625,2023,6,12,11,36,7,138
0.07990,3.01000,-4.51500,0.00000,-0.00012,0.03221,-0.98881,2023,6,12,11,36,7,149
0.08000,2.92250,-4.56750,0.00000,0.00012,0.03257,-0.98600,2023,6,12,11,36,7,160
0.08010,2.87000,-4.53250,0.00000,-0.00012,0.03026,-0.98539,2023,6,12,11,36,7,171
0.08020,3.01000,-4.60250,0.00000,-0.00415,0.03184,-0.98771,2023,6,12,11,36,7,183
0.08030,3.18500,-4.48000,0.00000,-0.00207,0.03062,-0.98417,2023,6,12,11,36,7,194
0.08040,3.04500,-4.53250,0.00000,0.00061,0.03038,-0.98735,2023,6,12,11,36,7,205
0.08050,2.92250,-4.63750,0.00000,-0.00317,0.03087,-0.99088,2023,6,12,11,36,7,216
0.08060,3.15000,-4.72500,0.00000,0.00000,0.03233,-0.98491,2023,6,12,11,36,7,227
0.08070,2.87000,-4.69000,0.00000,-0.00073,0.03087,-0.98576,2023,6,12,11,36,7,238
0.08080,3.01000,-4.60250,0.00000,-0.00256,0.03087,-0.98747,2023,6,12,11,36,7,249
0.08090,3.06250,-4.55000,0.00000,-0.00244,0.03184,-0.98564,2023,6,12,11,36,7,260
0.08100,3.04500,-4.69000,0.00000,-0.00085,0.03367,-0.98637,2023,6,12,11,36,7,271
0.08110,3.02750,-4.62000,0.00000,-0.00354,0.03196,-0.98613,2023,6,12,11,36,7,283
0.08120,2.92250,-4.44500,0.00000,-0.00281,0.03245,-0.98674,2023,6,12,11,36,7,294
0.08130,2.87000,-4.51500,0.00000,-0.00085,0.03062,-0.98649,2023,6,12,11,36,7,305
0.08140,2.92250,-4.55000,0.00000,-0.00220,0.03318,-0.98893,2023,6,12,11,36,7,316
0.08150,3.06250,-4.49750,0.00000,-0.00061,0.03209,-0.98625,2023,6,12,11,36,7,327
0.08160,3.01000,-4.63750,0.00000,-0.00049,0.03282,-0.98588,2023,6,12,11,36,7,338
0.08170,3.08000,-4.72500,0.00000,-0.00244,0.03172,-0.98808,2023,6,12,11,36,7,349
0.08180,2.99250,-4.49750,0.00000,-0.00329,0.03160,-0.98783,2023,6,12,11,36,7,360
0.08190,2.95750,-4.72500,0.00000,-0.00110,0.02989,-0.98710,2023,6,12,11,36,7,371
0.08200,3.02750,-4.60250,0.00000,-0.00439,0.03367,-0.98722,2023,6,12,11,36,7,383
0.08210,3.01000,-4.84750,0.00000,-0.00268,0.03099,-0.98771,2023,6,12,11,36,7,394
0.08220,2.94000,-4.44500,0.00000,-0.00390,0.03270,-0.98747,2023,6,12,11,36,7,405
0.08230,3.04500,-4.60250,0.00000,-0.00085,0.03013,-0.98844,2023,6,12,11,36,7,416
0.08240,2.99250,-4.55000,0.00000,-0.00122,0.03087,-0.98905,2023,6,12,11,36,7,427
0.08250,2.92250,-4.58500,0.00000,-0.00061,0.02977,-0.98686,2023,6,12,11,36,7,438
0.08260,3.06250,-4.70750,0.00000,-0.00390,0.03001,-0.98637,2023,6,12,11,36,7,449
0.08270,3.15000,-4.48000,0.00000,-0.00329,0.03331,-0.98722,2023,6,12,11,36,7,460
0.08280,2.81750,-4.56750,0.00000,-0.00317,0.03428,-0.98564,2023,6,12,11,36,7,471
0.08290,2.92250,-4.65500,0.00000,-0.00281,0.02989,-0.98442,2023,6,12,11,36,7,483
0.08300,2.85250,-4.48000,0.00000,-0.00281,0.03343,-0.98808,2023,6,12,11,36,7,494
0.08310,2.97500,-4.62000,0.00000,-0.00146,0.03245,-0.98588,2023,6,12,11,36,7,505
0.08320,2.99250,-4.53250,0.00000,-0.00122,0.03160,-0.98832,2023,6,12,11,36,7,516
0.08330,2.99250,-4.69000,0.00000,-0.00305,0.03221,-0.98735,2023,6,12,11,36,7,527
0.08340,2.85250,-4.67250,0.00000,0.00061,0.03148,-0.98893,2023,6,12,11,36,7,538
0.08350,3.01000,-4.67250,0.00000,-0.00207,0.03062,-0.98564,2023,6,12,11,36,7,549
0.08360,2.97500,-4.58500,0.00000,-0.00232,0.02989,-0.98783,2023,6,12,11,36,7,560
0.08370,3.02750,-4.76000,0.00000,-0.00366,0.03160,-0.98747,2023,6,12,11,36,7,571
0.08380,2.94000,-4.72500,0.00000,-0.00037,0.03050,-0.98722,2023,6,12,11,36,7,583
0.08390,3.04500,-4.53250,0.00000,-0.00207,0.03062,-0.98686,2023,6,12,11,36,7,594
0.08400,2.97500,-4.69000,0.00000,-0.00049,0.03196,-0.98979,2023,6,12,11,36,7,605
0.08410,2.90500,-4.48000,0.00000,-0.00171,0.03013,-0.98771,2023,6,12,11,36,7,616
0.08420,2.85250,-4.60250,0.00000,-0.00183,0.02952,-0.98661,2023,6,12,11,36,7,627
0.08430,2.99250,-4.53250,0.00000,-0.00415,0.03196,-0.98796,2023,6,12,11,36,7,638
0.08440,2.78250,-4.70750,0.00000,-0.00073,0.03111,-0.98832,2023,6,12,11,36,7,649
0.08450,2.94000,-4.46250,0.00000,-0.00073,0.03343,-0.98832,2023,6,12,11,36,7,660
0.08460,2.90500,-4.39250,0.00000,-0.00366,0.03282,-0.98698,2023,6,12,11,36,7,671
0.08470,2.95750,-4.55000,0.00000,-0.00146,0.03123,-0.98613,2023,6,12,11,36,7,683
0.08480,3.15000,-4.62000,0.00000,-0.00403,0.03135,-0.98832,2023,6,12,11,36,7,694
0.08490,3.02750,-4.49750,0.00000,-0.00439,0.03379,-0.98820,2023,6,12,11,36,7,705
0.08500,3.13250,-4.58500,0.00000,-0.00085,0.03062,-0.98966,2023,6,12,11,36,7,716
0.08510,2.83500,-4.37500,0.00000,-0.00134,0.02952,-0.98796,2023,6,12,11,36,7,727
0.08520,2.87000,-4.28750,0.00000,-0.00207,0.03355,-0.99027,2023,6,12,11,36,7,738
0.08530,2.83500,-4.72500,0.00000,-0.00171,0.03135,-0.98808,2023,6,12,11,36,7,749
0.08540,2.92250,-4.63750,0.00000,-0.00268,0.03196,-0.98234,2023,6,12,11,36,7,760
0.08550,2.99250,-4.56750,0.00000,-0.00146,0.03111,-0.98796,2023,6,12,11,36,7,771
0.08560,3.09750,-4.84750,0.00000,-0.00293,0.03306,-0.99064,2023,6,12,11,36,7,783
0.08570,3.09750,-4.62000,0.00000,-0.00317,0.03245,-0.98710,2023,6,12,11,36,7,794
0.08580,3.08000,-4.41000,0.00000,-0.00220,0.03270,-0.98759,2023,6,12,11,36,7,805
0.08590,3.04500,-4.69000,0.00000,-0.00232,0.03123,-0.98515,2023,6,12,11,36,7,816
0.08600,3.01000,-4.62000,0.00000,-0.00305,0.02891,-0.98930,2023,6,12,11,36,7,827
0.08610,2.94000,-4.60250,0.00000,-0.00305,0.03135,-0.98564,2023,6,12,11,36,7,838
0.08620,2.73000,-4.53250,0.00000,-0.00390,0.03196,-0.98747,2023,6,12,11,36,7,849
0.08630,2.99250,-4.72500,0.00000,-0.00195,0.03270,-0.98857,2023,6,12,11,36,7,860
0.08640,2.94000,-4.60250,0.00000,-0.00342,0.02916,-0.99345,2023,6,12,11,36,7,871
0.08650,2.92250,-4.55000,0.00000,-0.00085,0.03099,-0.98844,2023,6,12,11,36,7,883
0.08660,3.01000,-4.76000,0.00000,-0.00293,0.03172,-0.98796,2023,6,12,11,36,7,894
0.08670,2.90500,-4.70750,0.00000,-0.00195,0.03148,-0.98747,2023,6,12,11,36,7,905
0.08680,2.92250,-4.67250,0.00000,-0.00329,0.03001,-0.98893,2023,6,12,11,36,7,916
0.08690,3.11500,-4.60250,0.00000,-0.00024,0.03074,-0.98808,2023,6,12,11,36,7,927
0.08700,2.92250,-4.63750,0.00000,-0.00244,0.03245,-0.98930,2023,6,12,11,36,7,938
0.08710,2.95750,-4.70750,0.00000,-0.00232,0.03196,-0.98905,2023,6,12,11,36,7,949
0.08720,2.92250,-4.44500,0.00000,-0.00061,0.02904,-0.98600,2023,6,12,11,36,7,960
0.08730,2.80000,-4.44500,0.00000,-0.00159,0.03123,-0.98735,2023,6,12,11,36,8,1
0.08740,2.80000,-4.56750,0.00000,-0.00134,0.03257,-0.98735,2023,6,12,11,36,8,13
0.08750,3.11500,-4.65500,0.00000,-0.00159,0.02989,-0.98613,2023,6,12,11,36,8,24
0.08760,2.94000,-4.37500,0.00000,-0.00378,0.03026,-0.98783,2023,6,12,11,36,8,35
0.08770,3.01000,-4.55000,0.00000,-0.00256,0.03209,-0.98747,2023,6,12,11,36,8,46
0.08780,2.94000,-4.56750,0.00000,-0.00354,0.03062,-0.98674,2023,6,12,11,36,8,57
0.08790,3.02750,-4.58500,0.00000,-0.00268,0.03221,-0.98747,2023,6,12,11,36,8,68
0.08800,2.95750,-4.53250,0.00000,-0.00183,0.03209,-0.98808,2023,6,12,11,36,8,79
0.08810,2.94000,-4.70750,0.00000,-0.00403,0.03257,-0.98844,2023,6,12,11,36,8,90
0.08820,2.81750,-4.60250,0.00000,-0.00146,0.03148,-0.98771,2023,6,12,11,36,8,101
0.08830,3.01000,-4.46250,0.00000,-0.00317,0.03379,-0.98966,2023,6,12,11,36,8,113
0.08840,2.81750,-4.46250,0.00000,-0.00256,0.03331,-0.98661,2023,6,12,11,36,8,124
0.08850,2.85250,-4.44500,0.00000,-0.00366,0.03306,-0.98698,2023,6,12,11,36,8,135
0.08860,3.04500,-4.60250,0.00000,-0.00171,0.03013,-0.98905,2023,6,12,11,36,8,146
0.08870,2.80000,-4.39250,0.00000,-0.00220,0.03087,-0.98649,2023,6,12,11,36,8,157
0.08880,2.95750,-4.53250,0.00000,-0.00110,0.03245,-0.98747,2023,6,12,11,36,8,168
0.08890,2.99250,-4.65500,0.00000,-0.00256,0.03074,-0.98759,2023,6,12,11,36,8,179
0.08900,3.02750,-4.58500,0.00000,-0.00061,0.03123,-0.98600,2023,6,12,11,36,8,190
0.08910,2.88750,-4.56750,0.00000,-0.00024,0.03294,-0.98552,2023,6,12,11,36,8,201
0.08920,2.83500,-4.65500,0.00000,-0.00232,0.03209,-0.98808,2023,6,12,11,36,8,213
0.08930,3.02750,-4.53250,0.00000,-0.00085,0.03184,-0.98564,2023,6,12,11,36,8,224
0.08940,3.04500,-4.67250,0.00000,-0.00244,0.03196,-0.98686,2023,6,12,11,36,8,235
0.08950,2.92250,-4.77750,0.00000,-0.00403,0.03221,-0.98844,2023,6,12,11,36,8,246
0.08960,3.20250,-4.34000,0.00000,-0.00110,0.03135,-0.99064,2023,6,12,11,36,8,257
0.08970,2.99250,-4.56750,0.00000,-0.00317,0.03074,-0.98857,2023,6,12,11,36,8,268
0.08980,2.83500,-4.67250,0.00000,-0.00268,0.03221,-0.98722,2023,6,12,11,36,8,279
0.08990,2.99250,-4.48000,0.00000,-0.00195,0.03001,-0.98686,2023,6,12,11,36,8,290
0.09000,3.04500,-4.63750,0.00000,-0.00122,0.03099,-0.98588,2023,6,12,11,36,8,301
0.09010,2.99250,-4.58500,0.00000,-0.00183,0.02965,-0.98491,2023,6,12,11,36,8,313
0.09020,3.25500,-4.56750,0.00000,-0.00390,0.03318,-0.98979,2023,6,12,11,36,8,324
0.09030,2.92250,-4.77750,0.00000,-0.00195,0.03196,-0.98308,2023,6,12,11,36,8,335
0.09040,3.22000,-4.93500,0.00000,-0.00122,0.02952,-0.98661,2023,6,12,11,36,8,346
0.09050,2.99250,-4.55000,0.00000,0.00024,0.03123,-0.98966,2023,6,12,11,36,8,357
0.09060,2.74750,-4.63750,0.00000,-0.00220,0.03135,-0.98698,2023,6,12,11,36,8,368
0.09070,2.87000,-4.67250,0.00000,0.00000,0.03221,-0.98698,2023,6,12,11,36,8,379
0.09080,3.02750,-4.65500,0.00000,0.00012,0.03050,-0.98564,2023,6,12,11,36,8,390
0.09090,2.90500,-4.51500,0.00000,-0.00378,0.03062,-0.98771,2023,6,12,11,36,8,401
0.09100,2.85250,-4.62000,0.00000,-0.00220,0.03074,-0.98893,2023,6,12,11,36,8,413
0.09110,2.99250,-4.67250,0.00000,-0.00110,0.03026,-0.98832,2023,6,12,11,36,8,424
0.09120,3.02750,-4.60250,0.00000,-0.00281,0.03172,-0.98783,2023,6,12,11,36,8,435
0.09130,2.90500,-4.55000,0.00000,-0.00378,0.03209,-0.98832,2023,6,12,11,36,8,446
0.09140,3.13250,-4.69000,0.00000,-0.00256,0.03355,-0.99040,2023,6,12,11,36,8,457
0.09150,2.85250,-4.70750,0.00000,-0.00171,0.03111,-0.98991,2023,6,12,11,36,8,468
0.09160,3.01000,-4.42750,0.00000,-0.00134,0.03172,-0.98686,2023,6,12,11,36,8,479
0.09170,2.94000,-4.56750,0.00000,-0.00159,0.03135,-0.98857,2023,6,12,11,36,8,490
0.09180,3.15000,-4.51500,0.00000,-0.00037,0.03160,-0.98637,2023,6,12,11,36,8,501
0.09190,2.99250,-4.56750,0.00000,-0.00037,0.02940,-0.98930,2023,6,12,11,36,8,513
0.09200,2.99250,-4.62000,0.00000,-0.00427,0.03270,-0.98698,2023,6,12,11,36,8,524
0.09210,2.99250,-4.48000,0.00000,-0.00390,0.03306,-0.98832,2023,6,12,11,36,8,535
0.09220,2.99250,-4.46250,0.00000,-0.00293,0.03245,-0.98735,2023,6,12,11,36,8,546
0.09230,2.97500,-4.69000,0.00000,-0.00134,0.03306,-0.98722,2023,6,12,11,36,8,557
0.09240,2.95750,-4.63750,0.00000,-0.00427,0.03355,-0.98430,2023,6,12,11,36,8,568
0.09250,2.90500,-4.69000,0.00000,-0.00293,0.03245,-0.98735,2023,6,12,11,36,8,579
0.09260,3.13250,-4.74250,0.00000,-0.00403,0.03062,-0.98710,2023,6,12,11,36,8,590
0.09270,2.80000,-4.42750,0.00000,-0.00451,0.03160,-0.98552,2023,6,12,11,36,8,601
0.09280,2.95750,-4.46250,0.00000,-0.00098,0.02965,-0.98698,2023,6,12,11,36,8,613
0.09290,2.90500,-4.48000,0.00000,-0.00232,0.03074,-0.98576,2023,6,12,11,36,8,624
0.09300,2.73000,-4.48000,0.00000,-0.00012,0.03184,-0.98844,2023,6,12,11,36,8,635
0.09310,3.09750,-4.58500,0.00000,-0.00329,0.03160,-0.98674,2023,6,12,11,36,8,646
0.09320,2.99250,-4.69000,0.00000,-0.00098,0.02965,-0.98881,2023,6,12,11,36,8,657
0.09330,3.20250,-4.74250,0.00000,-0.00049,0.03148,-0.98576,2023,6,12,11,36,8,668
0.09340,2.88750,-4.42750,0.00000,-0.00427,0.03184,-0.98625,2023,6,12,11,36,8,679
0.09350,3.02750,-4.53250,0.00000,-0.00220,0.03184,-0.98515,2023,6,12,11,36,8,690
0.09360,3.11500,-4.58500,0.00000,-0.00110,0.03123,-0.98613,2023,6,12,11,36,8,701
0.09370,2.97500,-4.53250,0.00000,-0.00195,0.03294,-0.98564,2023,6,12,11,36,8,713
0.09380,3.15000,-4.63750,0.00000,0.00037,0.03184,-0.98893,2023,6,12,11,36,8,724
0.09390,3.02750,-4.60250,0.00000,-0.00244,0.03111,-0.98869,2023,6,12,11,36,8,735
0.09400,3.04500,-4.44500,0.00000,-0.00110,0.03074,-0.98600,2023,6,12,11,36,8,746
0.09410,3.01000,-4.81250,0.00000,-0.00134,0.03050,-0.98552,2023,6,12,11,36,8,757
0.09420,3.04500,-4.60250,0.00000,-0.00171,0.02965,-0.98991,2023,6,12,11,36,8,768
0.09430,2.94000,-4.58500,0.00000,-0.00122,0.03013,-0.98747,2023,6,12,11,36,8,779
0.09440,3.13250,-4.55000,0.00000,-0.00146,0.03184,-0.98747,2023,6,12,11,36,8,790
0.09450,3.06250,-4.69000,0.00000,-0.00220,0.03209,-0.98649,2023,6,12,11,36,8,801
0.09460,2.83500,-4.46250,0.00000,-0.00415,0.03294,-0.98661,2023,6,12,11,36,8,813
0.09470,2.73000,-4.42750,0.00000,-0.00342,0.03184,-0.98686,2023,6,12,11,36,8,824
0.09480,2.92250,-4.67250,0.00000,-0.00146,0.03172,-0.98600,2023,6,12,11,36,8,835
0.09490,3.08000,-4.70750,0.00000,-0.00073,0.03257,-0.98918,2023,6,12,11,36,8,846
0.09500,2.87000,-4.35750,0.00000,-0.00110,0.03160,-0.98991,2023,6,12,11,36,8,857
0.09510,3.04500,-4.46250,0.00000,-0.00317,0.03111,-0.99027,2023,6,12,11,36,8,868
0.09520,2.81750,-4.49750,0.00000,0.00024,0.02965,-0.99003,2023,6,12,11,36,8,879
0.09530,3.04500,-4.67250,0.00000,-0.00134,0.02989,-0.98625,2023,6,12,11,36,8,890
0.09540,3.06250,-4.74250,0.00000,-0.00134,0.03099,-0.98564,2023,6,12,11,36,8,901
0.09550,2.88750,-4.41000,0.00000,-0.00012,0.03038,-0.98710,2023,6,12,11,36,8,913
0.09560,2.92250,-4.56750,0.00000,-0.00146,0.03172,-0.98478,2023,6,12,11,36,8,924
0.09570,3.18500,-4.53250,0.00000,-0.00281,0.03343,-0.98966,2023,6,12,11,36,8,935
0.09580,2.99250,-4.63750,0.00000,-0.00305,0.03245,-0.99003,2023,6,12,11,36,8,946
0.09590,2.97500,-4.62000,0.00000,-0.00207,0.03123,-0.98783,2023,6,12,11,36,8,957
0.09600,3.08000,-4.53250,0.00000,-0.00415,0.03343,-0.98918,2023,6,12,11,36,9,8
0.09610,3.01000,-4.63750,0.00000,-0.00317,0.03233,-0.98759,2023,6,12,11,36,9,19
0.09620,2.81750,-4.70750,0.00000,-0.00122,0.03087,-0.98930,2023,6,12,11,36,9,30
0.09630,2.92250,-4.55000,0.00000,-0.00171,0.03111,-0.98674,2023,6,12,11,36,9,41
0.09640,3.11500,-4.53250,0.00000,0.00085,0.03050,-0.98759,2023,6,12,11,36,9,53
0.09650,2.87000,-4.44500,0.00000,-0.00342,0.02977,-0.98796,2023,6,12,11,36,9,64
0.09660,2.94000,-4.67250,0.00000,-0.00146,0.03270,-0.98588,2023,6,12,11,36,9,75
0.09670,2.95750,-4.46250,0.00000,-0.00403,0.03306,-0.98649,2023,6,12,11,36,9,86
0.09680,2.97500,-4.63750,0.00000,-0.00122,0.03050,-0.98686,2023,6,12,11,36,9,97
0.09690,2.92250,-4.60250,0.00000,0.00122,0.03074,-0.98783,2023,6,12,11,36,9,108
0.09700,3.04500,-4.44500,0.00000,0.00024,0.03099,-0.98527,2023,6,12,11,36,9,119
0.09710,3.06250,-4.72500,0.00000,-0.00146,0.03074,-0.98857,2023,6,12,11,36,9,130
0.09720,2.94000,-4.60250,0.00000,-0.00110,0.03135,-0.98942,2023,6,12,11,36,9,141
0.09730,2.87000,-4.69000,0.00000,-0.00207,0.03123,-0.98808,2023,6,12,11,36,9,153
0.09740,3.01000,-4.74250,0.00000,-0.00049,0.03184,-0.98613,2023,6,12,11,36,9,164
0.09750,2.87000,-4.46250,0.00000,-0.00098,0.03282,-0.98735,2023,6,12,11,36,9,175
0.09760,2.88750,-4.62000,0.00000,-0.00195,0.03062,-0.98759,2023,6,12,11,36,9,186
0.09770,2.85250,-4.62000,0.00000,-0.00317,0.03257,-0.99003,2023,6,12,11,36,9,197
0.09780,2.99250,-4.63750,0.00000,-0.00268,0.03294,-0.98600,2023,6,12,11,36,9,208
0.09790,2.99250,-4.55000,0.00000,-0.00098,0.03013,-0.98625,2023,6,12,11,36,9,219
0.09800,2.95750,-4.56750,0.00000,-0.00049,0.03123,-0.98552,2023,6,12,11,36,9,230
0.09810,3.09750,-4.69000,0.00000,-0.00220,0.03038,-0.98710,2023,6,12,11,36,9,241
0.09820,2.97500,-4.70750,0.00000,-0.00390,0.03050,-0.98722,2023,6,12,11,36,9,253
0.09830,2.88750,-4.55000,0.00000,-0.00037,0.03282,-0.98735,2023,6,12,11,36,9,264
0.09840,2.94000,-4.65500,0.00000,-0.00183,0.03148,-0.98722,2023,6,12,11,36,9,275
0.09850,3.09750,-4.51500,0.00000,-0.00354,0.03233,-0.98820,2023,6,12,11,36,9,286
0.09860,2.85250,-4.51500,0.00000,-0.00232,0.03172,-0.98759,2023,6,12,11,36,9,297
0.09870,3.04500,-4.70750,0.00000,-0.00220,0.03221,-0.98698,2023,6,12,11,36,9,308
0.09880,2.87000,-4.62000,0.00000,-0.00378,0.03233,-0.98637,2023,6,12,11,36,9,319
0.09890,2.97500,-4.55000,0.00000,-0.00220,0.03184,-0.98698,2023,6,12,11,36,9,330
0.09900,2.99250,-4.55000,0.00000,-0.00207,0.03172,-0.98564,2023,6,12,11,36,9,341
0.09910,3.09750,-4.55000,0.00000,-0.00244,0.02916,-0.98637,2023,6,12,11,36,9,353
0.09920,2.88750,-4.34000,0.00000,-0.00171,0.03306,-0.98600,2023,6,12,11,36,9,364
0.09930,2.94000,-4.53250,0.00000,-0.00098,0.03257,-0.98613,2023,6,12,11,36,9,375
0.09940,3.20250,-4.44500,0.00000,-0.00415,0.03099,-0.98820,2023,6,12,11,36,9,386
0.09950,2.90500,-4.49750,0.00000,-0.00317,0.03172,-0.98710,2023,6,12,11,36,9,397
0.09960,3.18500,-4.65500,0.00000,-0.00366,0.03343,-0.98808,2023,6,12,11,36,9,408
0.09970,2.83500,-4.55000,0.00000,-0.00305,0.03074,-0.98832,2023,6,12,11,36,9,419
0.09980,3.02750,-4.53250,0.00000,-0.00329,0.03123,-0.98539,2023,6,12,11,36,9,430
0.09990,2.90500,-4.49750,0.00000,-0.00110,0.03221,-0.98942,2023,6,12,11,36,9,441
0.10000,2.99250,-4.46250,0.00000,-0.00256,0.02977,-0.98649,2023,6,12,11,36,9,453
0.10010,2.99250,-4.63750,0.00000,-0.00451,0.03416,-0.98649,2023,6,12,11,36,9,464
0.10020,2.99250,-4.56750,0.00000,-0.00207,0.03245,-0.98527,2023,6,12,11,36,9,475
0.10030,2.83500,-4.60250,0.00000,-0.00183,0.03270,-0.98613,2023,6,12,11,36,9,486
0.10040,2.81750,-4.65500,0.00000,-0.00220,0.03196,-0.98625,2023,6,12,11,36,9,497
0.10050,2.99250,-4.69000,0.00000,0.00000,0.03001,-0.98491,2023,6,12,11,36,9,508
0.10060,2.94000,-4.49750,0.00000,-0.00268,0.03270,-0.98661,2023,6,12,11,36,9,519
0.10070,2.87000,-4.48000,0.00000,-0.00366,0.03184,-0.98539,2023,6,12,11,36,9,530
0.10080,2.83500,-4.65500,0.00000,-0.00244,0.03404,-0.98820,2023,6,12,11,36,9,541
0.10090,2.85250,-4.46250,0.00000,-0.00256,0.03135,-0.98722,2023,6,12,11,36,9,553
0.10100,2.83500,-4.48000,0.00000,-0.00073,0.03062,-0.98783,2023,6,12,11,36,9,564
0.10110,2.92250,-4.51500,0.00000,-0.00159,0.03001,-0.99027,2023,6,12,11,36,9,575
0.10120,2.95750,-4.56750,0.00000,-0.00146,0.03172,-0.98637,2023,6,12,11,36,9,586
0.10130,2.88750,-4.46250,0.00000,-0.00061,0.02952,-0.98991,2023,6,12,11,36,9,597
0.10140,3.18500,-4.72500,0.00000,-0.00122,0.03331,-0.98661,2023,6,12,11,36,9,608
0.10150,2.90500,-4.70750,0.00000,-0.00061,0.03099,-0.98942,2023,6,12,11,36,9,619
0.10160,3.02750,-4.56750,0.00000,-0.00366,0.03111,-0.98466,2023,6,12,11,36,9,630
0.10170,2.78250,-4.49750,0.00000,-0.00061,0.03233,-0.98808,2023,6,12,11,36,9,641
0.10180,2.83500,-4.62000,0.00000,0.00061,0.03111,-0.98405,2023,6,12,11,36,9,653
0.10190,3.01000,-4.55000,0.00000,-0.00232,0.03099,-0.98552,2023,6,12,11,36,9,664
0.10200,3.16750,-4.76000,0.00000,-0.00427,0.03160,-0.98893,2023,6,12,11,36,9,675
0.10210,2.90500,-4.62000,0.00000,-0.00134,0.03087,-0.98613,2023,6,12,11,36,9,686
0.10220,3.04500,-4.49750,0.00000,-0.00232,0.03233,-0.98710,2023,6,12,11,36,9,697
0.10230,2.97500,-4.60250,0.00000,-0.00110,0.03196,-0.98808,2023,6,12,11,36,9,708
0.10240,3.04500,-4.67250,0.00000,-0.00183,0.03294,-0.98649,2023,6,12,11,36,9,719
0.10250,3.15000,-4.53250,0.00000,-0.00073,0.03050,-0.99003,2023,6,12,11,36,9,730
0.10260,2.85250,-4.63750,0.00000,-0.00012,0.03233,-0.98735,2023,6,12,11,36,9,741
0.10270,2.83500,-4.72500,0.00000,-0.00244,0.03123,-0.98539,2023,6,12,11,36,9,753
0.10280,2.94000,-4.53250,0.00000,-0.00378,0.03465,-0.98613,2023,6,12,11,36,9,764
0.10290,2.92250,-4.49750,0.00000,-0.00366,0.03306,-0.98747,2023,6,12,11,36,9,775
0.10300,3.01000,-4.65500,0.00000,-0.00049,0.03026,-0.98466,2023,6,12,11,36,9,786
0.10310,3.18500,-4.72500,0.00000,-0.00134,0.03221,-0.98832,2023,6,12,11,36,9,797
0.10320,2.99250,-4.53250,0.00000,-0.00171,0.03160,-0.98588,2023,6,12,11,36,9,808
0.10330,3.01000,-4.53250,0.00000,-0.00183,0.03123,-0.98600,2023,6,12,11,36,9,819
0.10340,2.99250,-4.81250,0.00000,-0.00183,0.03221,-0.98686,2023,6,12,11,36,9,830
0.10350,2.87000,-4.56750,0.00000,-0.00293,0.03062,-0.98637,2023,6,12,11,36,9,841
0.10360,3.06250,-4.63750,0.00000,-0.00098,0.03074,-0.98905,2023,6,12,11,36,9,853
0.10370,2.94000,-4.62000,0.00000,-0.00134,0.03062,-0.98710,2023,6,12,11,36,9,864
0.10380,2.92250,-4.55000,0.00000,-0.00317,0.03111,-0.98710,2023,6,12,11,36,9,875
0.10390,3.02750,-4.74250,0.00000,-0.00122,0.03355,-0.98491,2023,6,12,11,36,9,886
0.10400,2.85250,-4.60250,0.00000,-0.00268,0.03148,-0.98735,2023,6,12,11,36,9,897
0.10410,2.78250,-4.35750,0.00000,-0.00256,0.03392,-0.98686,2023,6,12,11,36,9,908
0.10420,2.95750,-4.56750,0.00000,-0.00232,0.03123,-0.98893,2023,6,12,11,36,9,919
0.10430,3.04500,-4.53250,0.00000,-0.00073,0.03087,-0.98613,2023,6,12,11,36,9,930
0.10440,3.01000,-4.69000,0.00000,-0.00146,0.03087,-0.98661,2023,6,12,11,36,9,941
0.10450,2.90500,-4.67250,0.00000,-0.00220,0.03221,-0.98698,2023,6,12,11,36,9,953
0.10460,3.01000,-4.49750,0.00000,-0.00342,0.03062,-0.98417,2023,6,12,11,36,9,964
0.10470,2.80000,-4.58500,0.00000,-0.00159,0.03111,-0.98527,2023,6,12,11,36,9,975
0.10480,2.90500,-4.81250,0.00000,-0.00464,0.03221,-0.98979,2023,6,12,11,36,10,6
0.10490,2.99250,-4.86500,0.00000,-0.00159,0.03123,-0.98832,2023,6,12,11,36,10,17
0.10500,2.95750,-4.72500,0.00000,-0.00220,0.03196,-0.98515,2023,6,12,11,36,10,28
0.10510,3.04500,-4.65500,0.00000,-0.00207,0.03282,-0.98393,2023,6,12,11,36,10,39
0.10520,3.09750,-4.49750,0.00000,-0.00122,0.03050,-0.98613,2023,6,12,11,36,10,50
0.10530,2.97500,-4.58500,0.00000,-0.00085,0.03282,-0.98552,2023,6,12,11,36,10,61
0.10540,2.85250,-4.49750,0.00000,-0.00110,0.02965,-0.98649,2023,6,12,11,36,10,73
0.10550,2.76500,-4.58500,0.00000,0.00024,0.03160,-0.98576,2023,6,12,11,36,10,84
0.10560,2.80000,-4.69000,0.00000,-0.00171,0.03331,-0.98588,2023,6,12,11,36,10,95
0.10570,2.88750,-4.49750,0.00000,-0.00525,0.03294,-0.98649,2023,6,12,11,36,10,106
0.10580,2.90500,-4.60250,0.00000,-0.00122,0.03123,-0.98869,2023,6,12,11,36,10,117
0.10590,2.81750,-4.67250,0.00000,-0.00134,0.03379,-0.98808,2023,6,12,11,36,10,128
0.10600,3.02750,-4.65500,0.00000,-0.00134,0.03026,-0.98869,2023,6,12,11,36,10,139
0.10610,2.80000,-4.72500,0.00000,-0.00439,0.03184,-0.98710,2023,6,12,11,36,10,150
0.10620,2.80000,-4.53250,0.00000,-0.00171,0.03111,-0.98857,2023,6,12,11,36,10,161
0.10630,2.92250,-4.42750,0.00000,-0.00317,0.03306,-0.98710,2023,6,12,11,36,10,173
0.10640,2.87000,-4.55000,0.00000,-0.00159,0.03148,-0.98539,2023,6,12,11,36,10,184
0.10650,2.87000,-4.63750,0.00000,-0.00146,0.03270,-0.98698,2023,6,12,11,36,10,195
0.10660,2.81750,-4.58500,0.00000,-0.00329,0.03160,-0.98588,2023,6,12,11,36,10,206
0.10670,3.01000,-4.65500,0.00000,-0.00171,0.03087,-0.98649,2023,6,12,11,36,10,217
0.10680,3.11500,-4.74250,0.00000,-0.00293,0.03233,-0.98735,2023,6,12,11,36,10,228
0.10690,3.11500,-4.83000,0.00000,-0.00134,0.03257,-0.98613,2023,6,12,11,36,10,239
0.10700,2.92250,-4.37500,0.00000,-0.00085,0.03087,-0.98625,2023,6,12,11,36,10,250
0.10710,2.95750,-4.56750,0.00000,-0.00171,0.03148,-0.98637,2023,6,12,11,36,10,261
0.10720,2.78250,-4.51500,0.00000,-0.00183,0.03306,-0.98588,2023,6,12,11,36,10,273
0.10730,3.02750,-4.63750,0.00000,-0.00207,0.03245,-0.98552,2023,6,12,11,36,10,284
0.10740,2.85250,-4.51500,0.00000,-0.00500,0.03331,-0.98918,2023,6,12,11,36,10,295
0.10750,2.83500,-4.67250,0.00000,-0.00207,0.03184,-0.98613,2023,6,12,11,36,10,306
0.10760,2.87000,-4.53250,0.00000,-0.00256,0.03270,-0.98686,2023,6,12,11,36,10,317
0.10770,3.04500,-4.49750,0.00000,-0.00354,0.03135,-0.98686,2023,6,12,11,36,10,328
0.10780,2.92250,-4.51500,0.00000,-0.00317,0.03209,-0.98808,2023,6,12,11,36,10,339
0.10790,3.01000,-4.67250,0.00000,-0.00171,0.03282,-0.98649,2023,6,12,11,36,10,350
0.10800,3.08000,-4.55000,0.00000,-0.00305,0.03233,-0.98588,2023,6,12,11,36,10,361
0.10810,2.99250,-4.60250,0.00000,-0.00268,0.03209,-0.98430,2023,6,12,11,36,10,373
0.10820,2.88750,-4.67250,0.00000,-0.00073,0.03148,-0.98661,2023,6,12,11,36,10,384
0.10830,2.87000,-4.63750,0.00000,-0.00134,0.02830,-0.98710,2023,6,12,11,36,10,395
0.10840,2.85250,-4.60250,0.00000,-0.00183,0.03001,-0.98637,2023,6,12,11,36,10,406
0.10850,3.06250,-4.53250,0.00000,-0.00122,0.03294,-0.98552,2023,6,12,11,36,10,417
0.10860,3.06250,-4.84750,0.00000,-0.00159,0.03294,-0.98552,2023,6,12,11,36,10,428
0.10870,2.99250,-4.70750,0.00000,-0.00073,0.02904,-0.98405,2023,6,12,11,36,10,439
0.10880,2.95750,-4.58500,0.00000,-0.00134,0.03331,-0.98637,2023,6,12,11,36,10,450
0.10890,3.11500,-4.76000,0.00000,-0.00220,0.03270,-0.98722,2023,6,12,11,36,10,461
0.10900,3.02750,-4.49750,0.00000,-0.00329,0.03026,-0.98942,2023,6,12,11,36,10,473
0.10910,3.04500,-4.81250,0.00000,-0.00390,0.03282,-0.98747,2023,6,12,11,36,10,484
0.10920,3.04500,-4.72500,0.00000,-0.00122,0.03038,-0.98674,2023,6,12,11,36,10,495
0.10930,2.88750,-4.74250,0.00000,-0.00146,0.03318,-0.98552,2023,6,12,11,36,10,506
0.10940,2.90500,-4.55000,0.00000,-0.00195,0.03172,-0.98966,2023,6,12,11,36,10,517
0.10950,3.09750,-4.69000,0.00000,-0.00293,0.02940,-0.98588,2023,6,12,11,36,10,528
0.10960,3.01000,-4.60250,0.00000,-0.00354,0.03184,-0.98771,2023,6,12,11,36,10,539
0.10970,2.90500,-4.60250,0.00000,-0.00085,0.03221,-0.98539,2023,6,12,11,36,10,550
0.10980,3.09750,-4.60250,0.00000,-0.00049,0.03001,-0.98491,2023,6,12,11,36,10,561
0.10990,2.92250,-4.48000,0.00000,-0.00366,0.03123,-0.98661,2023,6,12,11,36,10,573
0.11000,2.88750,-4.34000,0.00000,-0.00049,0.03184,-0.98625,2023,6,12,11,36,10,584
0.11010,3.06250,-4.32250,0.00000,-0.00195,0.03245,-0.98796,2023,6,12,11,36,10,595
0.11020,2.99250,-4.46250,0.00000,-0.00244,0.02916,-0.98393,2023,6,12,11,36,10,606
0.11030,2.88750,-4.58500,0.00000,-0.00037,0.02977,-0.98722,2023,6,12,11,36,10,617
0.11040,2.88750,-4.49750,0.00000,-0.00122,0.03026,-0.98759,2023,6,12,11,36,10,628
0.11050,2.83500,-4.56750,0.00000,-0.00024,0.03355,-0.98478,2023,6,12,11,36,10,639
0.11060,3.06250,-4.63750,0.00000,-0.00244,0.03001,-0.98832,2023,6,12,11,36,10,650
0.11070,2.97500,-4.49750,0.00000,-0.00244,0.03392,-0.98576,2023,6,12,11,36,10,661
0.11080,3.01000,-4.56750,0.00000,-0.00329,0.03318,-0.98710,2023,6,12,11,36,10,673
0.11090,3.01000,-4.70750,0.00000,-0.00110,0.03013,-0.98649,2023,6,12,11,36,10,684
0.11100,3.04500,-4.56750,0.00000,-0.00256,0.03135,-0.98588,2023,6,12,11,36,10,695
0.11110,2.92250,-4.72500,0.00000,-0.00061,0.03123,-0.98722,2023,6,12,11,36,10,706
0.11120,2.95750,-4.62000,0.00000,-0.00293,0.03221,-0.98674,2023,6,12,11,36,10,717
0.11130,2.85250,-4.65500,0.00000,-0.00232,0.03123,-0.98539,2023,6,12,11,36,10,728
0.11140,3.13250,-4.60250,0.00000,-0.00085,0.03196,-0.98686,2023,6,12,11,36,10,739
0.11150,3.08000,-4.55000,0.00000,-0.00281,0.03135,-0.98417,2023,6,12,11,36,10,750
0.11160,3.04500,-4.27000,0.00000,-0.00098,0.03416,-0.98710,2023,6,12,11,36,10,761
0.11170,3.01000,-4.37500,0.00000,-0.00207,0.03282,-0.98613,2023,6,12,11,36,10,773
0.11180,3.04500,-4.56750,0.00000,-0.00207,0.03160,-0.98491,2023,6,12,11,36,10,784
0.11190,3.15000,-4.69000,0.00000,-0.00159,0.03160,-0.98661,2023,6,12,11,36,10,795
0.11200,3.01000,-4.41000,0.00000,-0.00024,0.02989,-0.98552,2023,6,12,11,36,10,806
0.11210,2.90500,-4.60250,0.00000,-0.00110,0.03074,-0.98796,2023,6,12,11,36,10,817
0.11220,3.16750,-4.77750,0.00000,-0.00037,0.03135,-0.98844,2023,6,12,11,36,10,828
0.11230,2.81750,-4.53250,0.00000,-0.00085,0.03257,-0.98759,2023,6,12,11,36,10,839
0.11240,3.09750,-4.65500,0.00000,-0.00085,0.03257,-0.98832,2023,6,12,11,36,10,850
0.11250,3.01000,-4.65500,0.00000,-0.00207,0.03270,-0.98613,2023,6,12,11,36,10,861
0.11260,2.78250,-4.65500,0.00000,-0.00354,0.03184,-0.98759,2023,6,12,11,36,10,873
0.11270,3.06250,-4.83000,0.00000,-0.00207,0.03282,-0.98430,2023,6,12,11,36,10,884
0.11280,3.18500,-4.58500,0.00000,-0.00134,0.03038,-0.98735,2023,6,12,11,36,10,895
0.11290,2.80000,-4.35750,0.00000,-0.00293,0.02952,-0.98491,2023,6,12,11,36,10,906
0.11300,3.01000,-4.76000,0.00000,-0.00366,0.03123,-0.98552,2023,6,12,11,36,10,917
0.11310,2.85250,-4.49750,0.00000,-0.00207,0.03062,-0.98552,2023,6,12,11,36,10,928
0.11320,2.97500,-4.55000,0.00000,-0.00390,0.03135,-0.98600,2023,6,12,11,36,10,939
0.11330,3.08000,-4.65500,0.00000,-0.00232,0.02989,-0.98649,2023,6,12,11,36,10,950
0.11340,3.01000,-4.30500,0.00000,-0.00415,0.03221,-0.98454,2023,6,12,11,36,11,1
0.11350,3.16750,-4.51500,0.00000,-0.00244,0.03050,-0.98649,2023,6,12,11,36,11,13
0.11360,2.92250,-4.55000,0.00000,-0.00268,0.03111,-0.98698,2023,6,12,11,36,11,24
0.11370,2.83500,-4.53250,0.00000,-0.00207,0.02916,-0.98600,2023,6,12,11,36,11,35
0.11380,2.90500,-4.65500,0.00000,-0.00171,0.03331,-0.98710,2023,6,12,11,36,11,46
0.11390,3.11500,-4.67250,0.00000,-0.00146,0.03062,-0.98515,2023,6,12,11,36,11,57
0.11400,2.88750,-4.32250,0.00000,-0.00049,0.02904,-0.98442,2023,6,12,11,36,11,68
0.11410,2.99250,-4.44500,0.00000,-0.00244,0.03233,-0.98686,2023,6,12,11,36,11,79
0.11420,3.01000,-4.51500,0.00000,-0.00281,0.03428,-0.98698,2023,6,12,11,36,11,90
0.11430,3.11500,-4.76000,0.00000,-0.00098,0.03062,-0.98649,2023,6,12,11,36,11,101
0.11440,2.85250,-4.55000,0.00000,-0.00244,0.03074,-0.98832,2023,6,12,11,36,11,113
0.11450,2.99250,-4.46250,0.00000,-0.00110,0.03135,-0.98686,2023,6,12,11,36,11,124
0.11460,2.78250,-4.62000,0.00000,-0.00293,0.03196,-0.98637,2023,6,12,11,36,11,135
0.11470,2.87000,-4.41000,0.00000,-0.00012,0.03001,-0.98625,2023,6,12,11,36,11,146
0.11480,2.92250,-4.62000,0.00000,-0.00366,0.03160,-0.99015,2023,6,12,11,36,11,157
0.11490,2.97500,-4.42750,0.00000,-0.00146,0.03428,-0.98356,2023,6,12,11,36,11,168
0.11500,2.64250,-4.46250,0.00000,-0.00268,0.03172,-0.99064,2023,6,12,11,36,11,179
0.11510,3.18500,-4.58500,0.00000,-0.00403,0.03282,-0.98283,2023,6,12,11,36,11,190
0.11520,3.08000,-4.51500,0.00000,-0.00220,0.03221,-0.98649,2023,6,12,11,36,11,201
0.11530,3.11500,-4.77750,0.00000,-0.00329,0.03013,-0.98954,2023,6,12,11,36,11,213
0.11540,3.06250,-4.44500,0.00000,-0.00073,0.03148,-0.98625,2023,6,12,11,36,11,224
0.11550,3.02750,-4.44500,0.00000,-0.00390,0.03062,-0.98454,2023,6,12,11,36,11,235
0.11560,3.20250,-4.65500,0.00000,-0.00146,0.03099,-0.98613,2023,6,12,11,36,11,246
0.11570,2.94000,-4.63750,0.00000,-0.00342,0.03160,-0.98564,2023,6,12,11,36,11,257
0.11580,2.97500,-4.49750,0.00000,-0.00122,0.03294,-0.99040,2023,6,12,11,36,11,268
0.11590,2.99250,-4.70750,0.00000,-0.00366,0.03087,-0.98649,2023,6,12,11,36,11,279
0.11600,2.90500,-4.53250,0.00000,0.00049,0.03209,-0.98649,2023,6,12,11,36,11,290
0.11610,3.02750,-4.27000,0.00000,-0.00232,0.03306,-0.98576,2023,6,12,11,36,11,301
0.11620,2.83500,-4.58500,0.00000,-0.00220,0.03440,-0.98881,2023,6,12,11,36,11,313
0.11630,3.08000,-4.67250,0.00000,-0.00268,0.03184,-0.98527,2023,6,12,11,36,11,324
0.11640,3.08000,-4.76000,0.00000,-0.00281,0.03196,-0.98564,2023,6,12,11,36,11,335
0.11650,3.22000,-4.63750,0.00000,-0.00183,0.03074,-0.98857,2023,6,12,11,36,11,346
0.11660,2.85250,-4.53250,0.00000,-0.00146,0.03123,-0.98564,2023,6,12,11,36,11,357
0.11670,2.99250,-4.65500,0.00000,-0.00171,0.02952,-0.98796,2023,6,12,11,36,11,368
0.11680,2.88750,-4.53250,0.00000,-0.00403,0.03294,-0.98759,2023,6,12,11,36,11,379
0.11690,2.90500,-4.79500,0.00000,-0.00244,0.03245,-0.98637,2023,6,12,11,36,11,390
0.11700,3.27250,-4.76000,0.00000,-0.00329,0.03233,-0.98661,2023,6,12,11,36,11,401
0.11710,3.09750,-4.72500,0.00000,-0.00305,0.03123,-0.98722,2023,6,12,11,36,11,413
0.11720,2.88750,-4.56750,0.00000,-0.00281,0.03160,-0.98698,2023,6,12,11,36,11,424
0.11730,2.99250,-4.56750,0.00000,0.00000,0.03050,-0.98661,2023,6,12,11,36,11,435
0.11740,2.87000,-4.65500,0.00000,-0.00049,0.03318,-0.98649,2023,6,12,11,36,11,446
0.11750,2.99250,-4.53250,0.00000,-0.00403,0.03416,-0.98808,2023,6,12,11,36,11,457
0.11760,2.99250,-4.62000,0.00000,-0.00085,0.02916,-0.98710,2023,6,12,11,36,11,468
0.11770,2.99250,-4.72500,0.00000,-0.00146,0.03318,-0.98735,2023,6,12,11,36,11,479
0.11780,2.97500,-4.65500,0.00000,-0.00390,0.03038,-0.99003,2023,6,12,11,36,11,490
0.11790,3.08000,-4.63750,0.00000,-0.00134,0.03160,-0.98686,2023,6,12,11,36,11,501
0.11800,2.69500,-4.56750,0.00000,-0.00171,0.03184,-0.98808,2023,6,12,11,36,11,513
0.11810,2.94000,-4.51500,0.00000,-0.00207,0.03172,-0.98600,2023,6,12,11,36,11,524
0.11820,2.94000,-4.48000,0.00000,-0.00244,0.03160,-0.98832,2023,6,12,11,36,11,535
0.11830,2.94000,-4.53250,0.00000,-0.00305,0.03294,-0.98722,2023,6,12,11,36,11,546
0.11840,3.02750,-4.28750,0.00000,-0.00207,0.03343,-0.98527,2023,6,12,11,36,11,557
0.11850,3.11500,-4.69000,0.00000,-0.00342,0.03160,-0.98454,2023,6,12,11,36,11,568
0.11860,2.83500,-4.60250,0.00000,-0.00195,0.03038,-0.98661,2023,6,12,11,36,11,579
0.11870,2.95750,-4.81250,0.00000,-0.00085,0.03135,-0.98503,2023,6,12,11,36,11,590
0.11880,2.85250,-4.56750,0.00000,0.00012,0.03099,-0.98661,2023,6,12,11,36,11,601
0.11890,3.06250,-4.67250,0.00000,-0.00134,0.03087,-0.98613,2023,6,12,11,36,11,613
0.11900,2.90500,-4.58500,0.00000,-0.00183,0.02855,-0.98735,2023,6,12,11,36,11,624
0.11910,2.87000,-4.69000,0.00000,-0.00256,0.03331,-0.98747,2023,6,12,11,36,11,635
0.11920,2.80000,-4.58500,0.00000,-0.00451,0.03294,-0.98564,2023,6,12,11,36,11,646
0.11930,2.92250,-4.44500,0.00000,-0.00427,0.03209,-0.98539,2023,6,12,11,36,11,657
0.11940,3.01000,-4.63750,0.00000,-0.00232,0.03148,-0.98661,2023,6,12,11,36,11,668
0.11950,3.15000,-4.44500,0.00000,-0.00415,0.03111,-0.98649,2023,6,12,11,36,11,679
0.11960,3.13250,-4.67250,0.00000,-0.00122,0.03001,-0.98735,2023,6,12,11,36,11,690
0.11970,2.95750,-4.67250,0.00000,-0.00268,0.03209,-0.98747,2023,6,12,11,36,11,701
0.11980,2.94000,-4.48000,0.00000,-0.00232,0.03233,-0.98783,2023,6,12,11,36,11,713
0.11990,3.08000,-4.56750,0.00000,-0.00366,0.03099,-0.98564,2023,6,12,11,36,11,724
0.12000,3.02750,-4.81250,0.00000,-0.00354,0.03209,-0.98588,2023,6,12,11,36,11,735
0.12010,2.76500,-4.39250,0.00000,-0.00085,0.03257,-0.98796,2023,6,12,11,36,11,746
0.12020,3.20250,-4.84750,0.00000,-0.00232,0.03172,-0.98747,2023,6,12,11,36,11,757
0.12030,2.83500,-4.42750,0.00000,-0.00061,0.03135,-0.98552,2023,6,12,11,36,11,768
0.12040,3.02750,-4.56750,0.00000,-0.00049,0.03135,-0.98686,2023,6,12,11,36,11,779
0.12050,3.08000,-4.74250,0.00000,-0.00354,0.03282,-0.98820,2023,6,12,11,36,11,790
0.12060,2.97500,-4.76000,0.00000,0.00061,0.03404,-0.98881,2023,6,12,11,36,11,801
0.12070,2.94000,-4.60250,0.00000,-0.00390,0.03221,-0.99003,2023,6,12,11,36,11,813
0.12080,3.16750,-4.58500,0.00000,-0.00439,0.03001,-0.98637,2023,6,12,11,36,11,824
0.12090,2.95750,-4.44500,0.00000,-0.00171,0.03062,-0.98539,2023,6,12,11,36,11,835
0.12100,2.81750,-4.28750,0.00000,-0.00512,0.03123,-0.98661,2023,6,12,11,36,11,846
0.12110,2.92250,-4.56750,0.00000,-0.00146,0.03172,-0.98808,2023,6,12,11,36,11,857
0.12120,2.92250,-4.63750,0.00000,0.00049,0.03318,-0.98527,2023,6,12,11,36,11,868
0.12130,2.97500,-4.56750,0.00000,-0.00366,0.03135,-0.98759,2023,6,12,11,36,11,879
0.12140,3.01000,-4.60250,0.00000,-0.00476,0.03184,-0.98747,2023,6,12,11,36,11,890
0.12150,3.08000,-4.58500,0.00000,-0.00171,0.03111,-0.98893,2023,6,12,11,36,11,901
0.12160,2.85250,-4.62000,0.00000,-0.00268,0.03172,-0.98613,2023,6,12,11,36,11,913
0.12170,3.11500,-4.56750,0.00000,-0.00281,0.03282,-0.98796,2023,6,12,11,36,11,924
0.12180,3.01000,-4.63750,0.00000,-0.00342,0.03306,-0.98503,2023,6,12,11,36,11,935
0.12190,2.90500,-4.63750,0.00000,-0.00098,0.03306,-0.98710,2023,6,12,11,36,11,946
0.12200,2.90500,-4.51500,0.00000,-0.00061,0.03233,-0.98515,2023,6,12,11,36,11,957
0.12210,2.99250,-4.39250,0.00000,-0.00415,0.03404,-0.98674,2023,6,12,11,36,11,968
0.12220,3.06250,-4.90000,0.00000,-0.00293,0.03111,-0.98405,2023,6,12,11,36,12,9
0.12230,3.15000,-4.72500,0.00000,-0.00390,0.03270,-0.98747,2023,6,12,11,36,12,20
0.12240,2.74750,-4.35750,0.00000,-0.00183,0.03160,-0.99015,2023,6,12,11,36,12,31
0.12250,2.99250,-4.69000,0.00000,-0.00171,0.03257,-0.98625,2023,6,12,11,36,12,43
0.12260,2.80000,-4.53250,0.00000,-0.00110,0.03318,-0.98844,2023,6,12,11,36,12,54
0.12270,3.06250,-4.56750,0.00000,-0.00207,0.03233,-0.99015,2023,6,12,11,36,12,65
0.12280,2.92250,-4.56750,0.00000,-0.00110,0.03135,-0.98735,2023,6,12,11,36,12,76
0.12290,2.99250,-4.48000,0.00000,-0.00110,0.02830,-0.98710,2023,6,12,11,36,12,87
0.12300,2.90500,-4.51500,0.00000,-0.00256,0.03148,-0.98844,2023,6,12,11,36,12,98
0.12310,3.06250,-4.55000,0.00000,-0.00378,0.03233,-0.98735,2023,6,12,11,36,12,109
0.12320,2.97500,-4.63750,0.00000,-0.00220,0.03282,-0.98722,2023,6,12,11,36,12,120
0.12330,2.97500,-4.77750,0.00000,-0.00305,0.03306,-0.98722,2023,6,12,11,36,12,131
0.12340,2.92250,-4.67250,0.00000,0.00073,0.03331,-0.98637,2023,6,12,11,36,12,143
0.12350,2.90500,-4.56750,0.00000,-0.00073,0.03050,-0.98808,2023,6,12,11,36,12,154
0.12360,2.97500,-4.69000,0.00000,-0.00024,0.03123,-0.98710,2023,6,12,11,36,12,165
0.12370,2.85250,-4.76000,0.00000,-0.00244,0.03221,-0.98564,2023,6,12,11,36,12,176
0.12380,2.90500,-4.51500,0.00000,-0.00195,0.03294,-0.98527,2023,6,12,11,36,12,187
0.12390,2.81750,-4.48000,0.00000,-0.00232,0.03282,-0.98857,2023,6,12,11,36,12,198
0.12400,3.06250,-4.74250,0.00000,-0.00378,0.03099,-0.98698,2023,6,12,11,36,12,209
0.12410,2.87000,-4.86500,0.00000,0.00464,0.03221,-0.98381,2023,6,12,11,36,12,220
0.12420,2.62500,-4.25250,0.00000,0.00037,0.03538,-0.98478,2023,6,12,11,36,12,231
0.12430,2.69500,-4.44500,0.00000,-0.00183,0.03282,-0.98552,2023,6,12,11,36,12,243
0.12440,2.87000,-4.46250,0.00000,0.00061,0.03282,-0.98515,2023,6,12,11,36,12,254
0.12450,2.80000,-4.49750,0.00000,-0.00220,0.03233,-0.98625,2023,6,12,11,36,12,265
0.12460,3.09750,-4.84750,0.00000,-0.00159,0.03087,-0.98820,2023,6,12,11,36,12,276
0.12470,3.09750,-4.53250,0.00000,-0.00293,0.03148,-0.98674,2023,6,12,11,36,12,287
0.12480,3.20250,-4.70750,0.00000,-0.00439,0.03135,-0.98478,2023,6,12,11,36,12,298
0.12490,3.13250,-4.69000,0.00000,-0.00183,0.03135,-0.98698,2023,6,12,11,36,12,309
0.12500,3.01000,-4.46250,0.00000,-0.00134,0.03575,-0.98356,2023,6,12,11,36,12,320
0.12510,3.36000,-4.70750,0.00000,-0.00122,0.03221,-0.99125,2023,6,12,11,36,12,331
0.12520,2.81750,-4.51500,0.00000,-0.00232,0.03465,-0.98442,2023,6,12,11,36,12,343
0.12530,2.71250,-4.51500,0.00000,-0.00451,0.03392,-0.98649,2023,6,12,11,36,12,354
0.12540,3.78000,-4.84750,0.00000,-0.00464,0.03050,-0.98759,2023,6,12,11,36,12,365
0.12550,2.43250,-4.35750,0.00000,-0.00427,0.03172,-0.98576,2023,6,12,11,36,12,376
0.12560,3.41250,-4.69000,0.00000,-0.00500,0.02928,-0.98905,2023,6,12,11,36,12,387
0.12570,2.64250,-4.46250,0.00000,0.00037,0.03184,-0.98466,2023,6,12,11,36,12,398
0.12580,3.32500,-4.70750,0.00000,-0.00317,0.03148,-0.99052,2023,6,12,11,36,12,409
0.12590,2.01250,-4.18250,0.00000,-0.00439,0.03306,-0.98722,2023,6,12,11,36,12,420
0.12600,2.45000,-4.42750,0.00000,-0.00366,0.03392,-0.98979,2023,6,12,11,36,12,431
0.12610,3.41250,-4.84750,0.00000,-0.00354,0.03038,-0.98466,2023,6,12,11,36,12,443
0.12620,2.04750,-4.13000,0.00000,0.00110,0.02452,-0.98698,2023,6,12,11,36,12,454
0.12630,3.72750,-5.04000,0.00000,-0.00512,0.03123,-0.98503,2023,6,12,11,36,12,465
0.12640,2.92250,-4.49750,0.00000,-0.00378,0.03111,-0.98625,2023,6,12,11,36,12,476
0.12650,3.02750,-4.69000,0.00000,-0.00268,0.03050,-0.98771,2023,6,12,11,36,12,487
0.12660,3.09750,-4.58500,0.00000,-0.00061,0.03318,-0.98808,2023,6,12,11,36,12,498
0.12670,3.02750,-4.49750,0.00000,-0.00098,0.03428,-0.98820,2023,6,12,11,36,12,509
0.12680,3.39500,-4.91750,0.00000,0.00073,0.02867,-0.98600,2023,6,12,11,36,12,520
0.12690,2.83500,-4.55000,0.00000,-0.00427,0.03099,-0.98649,2023,6,12,11,36,12,531
0.12700,3.13250,-4.69000,0.00000,-0.00415,0.03392,-0.98832,2023,6,12,11,36,12,543
0.12710,2.69500,-4.28750,0.00000,-0.00366,0.03453,-0.98344,2023,6,12,11,36,12,554
0.12720,3.15000,-4.63750,0.00000,-0.00415,0.03196,-0.98893,2023,6,12,11,36,12,565
0.12730,2.03000,-4.00750,0.00000,-0.00329,0.03160,-0.98759,2023,6,12,11,36,12,576
0.12740,3.02750,-4.65500,0.00000,-0.00122,0.03087,-0.98600,2023,6,12,11,36,12,587
0.12750,2.85250,-4.53250,0.00000,0.00293,0.03343,-0.99125,2023,6,12,11,36,12,598
0.12760,3.25500,-4.74250,0.00000,-0.00183,0.03465,-0.99125,2023,6,12,11,36,12,609
0.12770,2.48500,-4.21750,0.00000,0.00085,0.03623,-0.98381,2023,6,12,11,36,12,620
0.12780,3.30750,-4.63750,0.00000,-0.00342,0.02855,-0.98820,2023,6,12,11,36,12,631
0.12790,2.80000,-4.44500,0.00000,-0.00293,0.03087,-0.98515,2023,6,12,11,36,12,643
0.12800,3.01000,-4.69000,0.00000,-0.00390,0.03282,-0.98808,2023,6,12,11,36,12,654
0.12810,2.95750,-4.55000,0.00000,-0.00366,0.03245,-0.98759,2023,6,12,11,36,12,665
0.12820,2.59000,-4.39250,0.00000,-0.00439,0.03257,-0.98588,2023,6,12,11,36,12,676
0.12830,2.83500,-4.65500,0.00000,0.00268,0.03148,-0.98466,2023,6,12,11,36,12,687
0.12840,2.67750,-4.60250,0.00000,0.00049,0.03282,-0.99235,2023,6,12,11,36,12,698
0.12850,2.88750,-4.46250,0.00000,-0.00159,0.03599,-0.98637,2023,6,12,11,36,12,709
0.12860,3.15000,-4.55000,0.00000,-0.00366,0.03306,-0.98735,2023,6,12,11,36,12,720
0.12870,3.22000,-4.74250,0.00000,-0.00220,0.03087,-0.98625,2023,6,12,11,36,12,731
0.12880,2.71250,-4.37500,0.00000,-0.00037,0.02965,-0.98893,2023,6,12,11,36,12,743
0.12890,2.88750,-4.46250,0.00000,-0.00317,0.03209,-0.98771,2023,6,12,11,36,12,754
#2023/06/12 11:36:12
