#2023/06/12 10:05:43
time,wx,wy,wz,ax,ay,az,yy,MM,dd,hh,mm,ss,ms
0.00000,2.97500,-4.62000,0.00000,0.02342,0.97307,-0.20301,2023,6,12,10,5,43,831
0.00010,3.25500,-4.74250,0.00000,0.02294,0.97295,-0.20301,2023,6,12,10,5,43,842
0.00020,3.04500,-4.37500,0.00000,0.02379,0.97502,-0.20240,2023,6,12,10,5,43,853
0.00030,2.90500,-4.53250,0.00000,0.02269,0.97234,-0.19837,2023,6,12,10,5,43,864
0.00040,2.95750,-4.48000,0.00000,0.02245,0.97210,-0.20093,2023,6,12,10,5,43,875
0.00050,2.95750,-4.65500,0.00000,0.02379,0.97588,-0.20264,2023,6,12,10,5,43,886
0.00060,3.15000,-4.55000,0.00000,0.02245,0.97295,-0.19947,2023,6,12,10,5,43,897
0.00070,2.87000,-4.76000,0.00000,0.02208,0.97405,-0.20264,2023,6,12,10,5,43,908
0.00080,2.74750,-4.37500,0.00000,0.02208,0.97185,-0.20069,2023,6,12,10,5,43,919
0.00090,2.97500,-4.51500,0.00000,0.02306,0.97210,-0.20203,2023,6,12,10,5,43,930
0.00100,3.04500,-4.41000,0.00000,0.02355,0.97319,-0.20350,2023,6,12,10,5,43,942
0.00110,3.08000,-4.70750,0.00000,0.02172,0.97149,-0.19996,2023,6,12,10,5,43,953
0.00120,2.99250,-4.55000,0.00000,0.02501,0.97380,-0.20081,2023,6,12,10,5,43,964
0.00130,2.85250,-4.60250,0.00000,0.02367,0.97185,-0.20191,2023,6,12,10,5,43,975
0.00140,3.11500,-4.74250,0.00000,0.02269,0.97515,-0.20215,2023,6,12,10,5,43,986
0.00150,2.99250,-4.39250,0.00000,0.02135,0.97551,-0.20191,2023,6,12,10,5,43,997
0.00160,3.01000,-4.51500,0.00000,0.02403,0.97405,-0.20191,2023,6,12,10,5,43,8
0.00170,3.15000,-4.63750,0.00000,0.02257,0.97344,-0.20301,2023,6,12,10,5,43,19
0.00180,3.27250,-4.60250,0.00000,0.02403,0.97417,-0.20130,2023,6,12,10,5,43,30
0.00190,3.06250,-4.79500,0.00000,0.02330,0.97295,-0.20191,2023,6,12,10,5,43,42
0.00200,2.76500,-4.67250,0.00000,0.02245,0.97051,-0.19984,2023,6,12,10,5,43,53
0.00210,3.06250,-4.39250,0.00000,0.02355,0.97478,-0.19947,2023,6,12,10,5,43,64
0.00220,2.97500,-4.60250,0.00000,0.02159,0.97258,-0.19971,2023,6,12,10,5,43,75
0.00230,3.01000,-4.51500,0.00000,0.02245,0.97258,-0.20179,2023,6,12,10,5,43,86
0.00240,3.02750,-4.56750,0.00000,0.02245,0.97380,-0.20362,2023,6,12,10,5,43,97
0.00250,3.06250,-4.48000,0.00000,0.02489,0.97417,-0.20276,2023,6,12,10,5,43,108
0.00260,2.88750,-4.55000,0.00000,0.02391,0.97307,-0.20215,2023,6,12,10,5,43,119
0.00270,3.06250,-4.53250,0.00000,0.02208,0.97417,-0.19947,2023,6,12,10,5,43,130
0.00280,3.04500,-4.58500,0.00000,0.02416,0.97161,-0.20167,2023,6,12,10,5,43,142
0.00290,3.04500,-4.48000,0.00000,0.02513,0.97368,-0.20142,2023,6,12,10,5,43,153
0.00300,3.08000,-4.62000,0.00000,0.02184,0.97356,-0.20032,2023,6,12,10,5,43,164
0.00310,2.99250,-4.62000,0.00000,0.02318,0.97197,-0.20008,2023,6,12,10,5,43,175
0.00320,2.99250,-4.60250,0.00000,0.02379,0.97332,-0.20106,2023,6,12,10,5,43,186
0.00330,3.13250,-4.63750,0.00000,0.02159,0.97405,-0.20167,2023,6,12,10,5,43,197
0.00340,3.11500,-4.70750,0.00000,0.02135,0.97490,-0.20154,2023,6,12,10,5,43,208
0.00350,3.04500,-4.83000,0.00000,0.02220,0.97307,-0.20069,2023,6,12,10,5,43,219
0.00360,2.92250,-4.55000,0.00000,0.02147,0.97185,-0.20215,2023,6,12,10,5,43,230
0.00370,2.87000,-4.34000,0.00000,0.02342,0.97356,-0.20130,2023,6,12,10,5,43,242
0.00380,3.08000,-4.53250,0.00000,0.02391,0.97454,-0.20179,2023,6,12,10,5,43,253
0.00390,3.08000,-4.49750,0.00000,0.02062,0.97441,-0.20106,2023,6,12,10,5,43,264
0.00400,3.11500,-4.63750,0.00000,0.02355,0.97332,-0.20008,2023,6,12,10,5,43,275
0.00410,3.08000,-4.60250,0.00000,0.02391,0.97222,-0.20057,2023,6,12,10,5,43,286
0.00420,3.04500,-4.86500,0.00000,0.02428,0.97197,-0.20179,2023,6,12,10,5,43,297
0.00430,2.80000,-4.51500,0.00000,0.02318,0.97258,-0.20008,2023,6,12,10,5,43,308
0.00440,3.06250,-4.44500,0.00000,0.02367,0.97161,-0.20167,2023,6,12,10,5,44,9
0.00450,2.99250,-4.27000,0.00000,0.02281,0.97283,-0.20203,2023,6,12,10,5,44,20
0.00460,3.02750,-4.63750,0.00000,0.02318,0.97490,-0.20118,2023,6,12,10,5,44,32
0.00470,2.99250,-4.41000,0.00000,0.02342,0.97173,-0.19886,2023,6,12,10,5,44,43
0.00480,3.27250,-4.58500,0.00000,0.02318,0.97380,-0.20154,2023,6,12,10,5,44,54
0.00490,3.15000,-4.84750,0.00000,0.02428,0.97356,-0.19996,2023,6,12,10,5,44,65
0.00500,2.94000,-4.48000,0.00000,0.02159,0.97417,-0.20167,2023,6,12,10,5,44,76
0.00510,3.06250,-4.60250,0.00000,0.02281,0.97295,-0.19849,2023,6,12,10,5,44,87
0.00520,2.90500,-4.55000,0.00000,0.02245,0.97246,-0.19947,2023,6,12,10,5,44,98
0.00530,3.18500,-4.49750,0.00000,0.02367,0.97319,-0.20106,2023,6,12,10,5,44,109
0.00540,2.92250,-4.63750,0.00000,0.02452,0.97185,-0.20191,2023,6,12,10,5,44,120
0.00550,3.01000,-4.46250,0.00000,0.02306,0.97149,-0.20057,2023,6,12,10,5,44,132
0.00560,3.09750,-4.67250,0.00000,0.02257,0.97319,-0.20252,2023,6,12,10,5,44,143
0.00570,2.88750,-4.46250,0.00000,0.02367,0.97124,-0.20020,2023,6,12,10,5,44,154
0.00580,2.97500,-4.65500,0.00000,0.02318,0.97161,-0.20118,2023,6,12,10,5,44,165
0.00590,3.11500,-4.63750,0.00000,0.02159,0.97393,-0.19971,2023,6,12,10,5,44,176
0.00600,3.09750,-4.83000,0.00000,0.02269,0.97014,-0.20179,2023,6,12,10,5,44,187
0.00610,2.97500,-4.72500,0.00000,0.02233,0.97441,-0.20350,2023,6,12,10,5,44,198
0.00620,2.99250,-4.55000,0.00000,0.02050,0.97222,-0.20154,2023,6,12,10,5,44,209
0.00630,3.04500,-4.56750,0.00000,0.02489,0.97356,-0.20203,2023,6,12,10,5,44,220
0.00640,3.01000,-4.53250,0.00000,0.02306,0.97222,-0.20142,2023,6,12,10,5,44,232
0.00650,2.99250,-4.67250,0.00000,0.02391,0.97429,-0.20106,2023,6,12,10,5,44,243
0.00660,2.94000,-4.70750,0.00000,0.02233,0.97210,-0.19971,2023,6,12,10,5,44,254
0.00670,3.04500,-4.63750,0.00000,0.02281,0.97417,-0.20032,2023,6,12,10,5,44,265
0.00680,2.92250,-4.51500,0.00000,0.02330,0.97429,-0.20203,2023,6,12,10,5,44,276
0.00690,2.94000,-4.41000,0.00000,0.02379,0.97222,-0.20142,2023,6,12,10,5,44,287
0.00700,2.99250,-4.32250,0.00000,0.02306,0.97319,-0.19910,2023,6,12,10,5,44,298
0.00710,2.97500,-4.65500,0.00000,0.02391,0.97380,-0.20008,2023,6,12,10,5,44,309
0.00720,3.09750,-4.53250,0.00000,0.02416,0.97515,-0.20081,2023,6,12,10,5,44,320
0.00730,2.95750,-4.55000,0.00000,0.02452,0.97295,-0.20289,2023,6,12,10,5,44,332
0.00740,2.88750,-4.53250,0.00000,0.02196,0.97112,-0.20203,2023,6,12,10,5,44,343
0.00750,3.22000,-4.62000,0.00000,0.02403,0.97234,-0.20142,2023,6,12,10,5,44,354
0.00760,3.04500,-4.56750,0.00000,0.02391,0.97100,-0.19947,2023,6,12,10,5,44,365
0.00770,2.92250,-4.62000,0.00000,0.02086,0.97222,-0.19862,2023,6,12,10,5,44,376
0.00780,3.04500,-4.49750,0.00000,0.02086,0.97405,-0.20191,2023,6,12,10,5,44,387
0.00790,2.97500,-4.51500,0.00000,0.02403,0.97563,-0.20276,2023,6,12,10,5,44,398
0.00800,3.08000,-4.28750,0.00000,0.02464,0.97210,-0.20167,2023,6,12,10,5,44,409
0.00810,3.04500,-4.49750,0.00000,0.02318,0.97100,-0.20008,2023,6,12,10,5,44,420
0.00820,3.04500,-4.53250,0.00000,0.02159,0.97197,-0.20252,2023,6,12,10,5,44,432
0.00830,3.02750,-4.69000,0.00000,0.02391,0.97417,-0.20093,2023,6,12,10,5,44,443
0.00840,3.01000,-4.58500,0.00000,0.02269,0.97222,-0.20130,2023,6,12,10,5,44,454
0.00850,2.92250,-4.35750,0.00000,0.02245,0.97088,-0.20057,2023,6,12,10,5,44,465
0.00860,3.02750,-4.65500,0.00000,0.02440,0.97295,-0.20118,2023,6,12,10,5,44,476
0.00870,3.08000,-4.60250,0.00000,0.02318,0.97283,-0.20423,2023,6,12,10,5,44,487
0.00880,2.95750,-4.60250,0.00000,0.02074,0.97246,-0.20118,2023,6,12,10,5,44,498
0.00890,3.18500,-4.69000,0.00000,0.01989,0.97295,-0.20240,2023,6,12,10,5,44,509
0.00900,3.22000,-4.42750,0.00000,0.02196,0.97124,-0.20167,2023,6,12,10,5,44,520
0.00910,2.85250,-4.41000,0.00000,0.02111,0.97210,-0.20179,2023,6,12,10,5,44,532
0.00920,2.97500,-4.72500,0.00000,0.02330,0.97283,-0.20362,2023,6,12,10,5,44,543
0.00930,2.92250,-4.83000,0.00000,0.02294,0.97197,-0.20118,2023,6,12,10,5,44,554
0.00940,2.90500,-4.53250,0.00000,0.02111,0.97210,-0.19947,2023,6,12,10,5,44,565
0.00950,2.83500,-4.55000,0.00000,0.02452,0.96941,-0.20167,2023,6,12,10,5,44,576
0.00960,2.95750,-4.56750,0.00000,0.02257,0.97210,-0.20154,2023,6,12,10,5,44,587
0.00970,2.81750,-4.44500,0.00000,0.02281,0.97173,-0.20069,2023,6,12,10,5,44,598
0.00980,3.04500,-4.42750,0.00000,0.02379,0.97173,-0.19910,2023,6,12,10,5,44,609
0.00990,2.94000,-4.72500,0.00000,0.02074,0.97441,-0.20179,2023,6,12,10,5,44,620
0.01000,2.97500,-4.51500,0.00000,0.02440,0.97222,-0.20374,2023,6,12,10,5,44,632
0.01010,3.08000,-4.90000,0.00000,0.02355,0.97319,-0.20154,2023,6,12,10,5,44,643
0.01020,3.08000,-4.69000,0.00000,0.02245,0.97185,-0.19971,2023,6,12,10,5,44,654
0.01030,2.97500,-4.60250,0.00000,0.02452,0.97332,-0.20069,2023,6,12,10,5,44,665
0.01040,2.95750,-4.53250,0.00000,0.02172,0.97161,-0.20191,2023,6,12,10,5,44,676
0.01050,3.11500,-4.53250,0.00000,0.02281,0.97161,-0.20301,2023,6,12,10,5,44,687
0.01060,3.06250,-4.56750,0.00000,0.02318,0.97588,-0.19971,2023,6,12,10,5,44,698
0.01070,2.97500,-4.56750,0.00000,0.02220,0.97222,-0.20106,2023,6,12,10,5,44,709
0.01080,3.01000,-4.55000,0.00000,0.02062,0.97368,-0.20154,2023,6,12,10,5,44,720
0.01090,2.92250,-4.35750,0.00000,0.02135,0.97393,-0.20142,2023,6,12,10,5,44,732
0.01100,3.04500,-4.44500,0.00000,0.02233,0.97380,-0.20289,2023,6,12,10,5,44,743
0.01110,3.08000,-4.72500,0.00000,0.02330,0.97405,-0.20167,2023,6,12,10,5,44,754
0.01120,2.85250,-4.51500,0.00000,0.02403,0.97234,-0.20142,2023,6,12,10,5,44,765
0.01130,2.88750,-4.60250,0.00000,0.02403,0.97197,-0.20057,2023,6,12,10,5,44,776
0.01140,3.02750,-4.76000,0.00000,0.02428,0.97490,-0.20020,2023,6,12,10,5,44,787
0.01150,3.04500,-4.63750,0.00000,0.02318,0.97429,-0.19935,2023,6,12,10,5,44,798
0.01160,2.90500,-4.76000,0.00000,0.02330,0.97258,-0.20069,2023,6,12,10,5,44,809
0.01170,2.76500,-4.25250,0.00000,0.02501,0.97210,-0.19996,2023,6,12,10,5,44,820
0.01180,3.01000,-4.70750,0.00000,0.02245,0.97380,-0.20411,2023,6,12,10,5,44,832
0.01190,2.99250,-4.55000,0.00000,0.02135,0.97234,-0.20240,2023,6,12,10,5,44,843
0.01200,2.99250,-4.42750,0.00000,0.02330,0.97222,-0.19910,2023,6,12,10,5,44,854
0.01210,3.09750,-4.58500,0.00000,0.02294,0.97380,-0.20350,2023,6,12,10,5,44,865
0.01220,2.94000,-4.70750,0.00000,0.02281,0.97234,-0.19971,2023,6,12,10,5,44,876
0.01230,2.99250,-4.56750,0.00000,0.02281,0.97429,-0.20228,2023,6,12,10,5,44,887
0.01240,3.13250,-4.60250,0.00000,0.02367,0.97332,-0.20057,2023,6,12,10,5,44,898
0.01250,3.11500,-4.72500,0.00000,0.02037,0.97454,-0.20093,2023,6,12,10,5,44,909
0.01260,3.13250,-4.70750,0.00000,0.02342,0.97149,-0.20057,2023,6,12,10,5,44,920
0.01270,3.11500,-4.65500,0.00000,0.02196,0.97234,-0.20240,2023,6,12,10,5,44,932
0.01280,2.81750,-4.58500,0.00000,0.02403,0.97332,-0.20179,2023,6,12,10,5,44,943
0.01290,3.09750,-4.41000,0.00000,0.02489,0.97307,-0.20093,2023,6,12,10,5,44,954
0.01300,3.02750,-4.58500,0.00000,0.02391,0.97344,-0.19910,2023,6,12,10,5,44,965
0.01310,3.06250,-4.48000,0.00000,0.02330,0.97417,-0.20203,2023,6,12,10,5,44,976
0.01320,2.90500,-4.48000,0.00000,0.02281,0.97454,-0.20154,2023,6,12,10,5,44,987
0.01330,2.99250,-4.41000,0.00000,0.02403,0.97234,-0.20301,2023,6,12,10,5,45,8
0.01340,3.15000,-4.65500,0.00000,0.02330,0.97319,-0.20045,2023,6,12,10,5,45,19
0.01350,3.09750,-4.46250,0.00000,0.02269,0.97454,-0.20093,2023,6,12,10,5,45,30
0.01360,3.02750,-4.65500,0.00000,0.02135,0.97075,-0.20228,2023,6,12,10,5,45,42
0.01370,2.94000,-4.77750,0.00000,0.02489,0.97515,-0.20215,2023,6,12,10,5,45,53
0.01380,3.08000,-4.56750,0.00000,0.02257,0.97039,-0.20130,2023,6,12,10,5,45,64
0.01390,3.08000,-4.84750,0.00000,0.02172,0.97258,-0.19984,2023,6,12,10,5,45,75
0.01400,2.94000,-4.65500,0.00000,0.02208,0.97283,-0.20167,2023,6,12,10,5,45,86
0.01410,3.02750,-4.55000,0.00000,0.02464,0.97441,-0.20154,2023,6,12,10,5,45,97
0.01420,3.02750,-4.53250,0.00000,0.02525,0.97210,-0.20106,2023,6,12,10,5,45,108
0.01430,2.97500,-4.49750,0.00000,0.02233,0.97258,-0.19935,2023,6,12,10,5,45,119
0.01440,3.15000,-4.88250,0.00000,0.02184,0.97551,-0.19947,2023,6,12,10,5,45,130
0.01450,2.94000,-4.63750,0.00000,0.02379,0.97380,-0.20118,2023,6,12,10,5,45,142
0.01460,3.02750,-4.49750,0.00000,0.02269,0.96917,-0.20032,2023,6,12,10,5,45,153
0.01470,3.08000,-4.60250,0.00000,0.02159,0.97380,-0.20057,2023,6,12,10,5,45,164
0.01480,3.02750,-4.60250,0.00000,0.02159,0.97417,-0.20252,2023,6,12,10,5,45,175
0.01490,2.94000,-4.67250,0.00000,0.02428,0.97356,-0.20106,2023,6,12,10,5,45,186
0.01500,2.90500,-4.55000,0.00000,0.02428,0.97222,-0.20020,2023,6,12,10,5,45,197
0.01510,2.99250,-4.88250,0.00000,0.02050,0.97100,-0.20215,2023,6,12,10,5,45,208
0.01520,3.15000,-4.70750,0.00000,0.02440,0.97100,-0.20228,2023,6,12,10,5,45,219
0.01530,3.04500,-4.51500,0.00000,0.02391,0.97173,-0.20289,2023,6,12,10,5,45,230
0.01540,2.81750,-4.53250,0.00000,0.02257,0.97441,-0.19947,2023,6,12,10,5,45,242
0.01550,3.06250,-4.60250,0.00000,0.02159,0.97112,-0.20093,2023,6,12,10,5,45,253
0.01560,3.04500,-4.65500,0.00000,0.02342,0.97234,-0.19984,2023,6,12,10,5,45,264
0.01570,2.95750,-4.67250,0.00000,0.02306,0.97405,-0.19959,2023,6,12,10,5,45,275
0.01580,3.22000,-4.76000,0.00000,0.02416,0.97393,-0.19984,2023,6,12,10,5,45,286
0.01590,2.87000,-4.42750,0.00000,0.02074,0.97197,-0.20130,2023,6,12,10,5,45,297
0.01600,2.95750,-4.58500,0.00000,0.01976,0.97356,-0.20020,2023,6,12,10,5,45,308
0.01610,3.08000,-4.51500,0.00000,0.02403,0.97466,-0.20203,2023,6,12,10,5,45,319
0.01620,3.16750,-4.65500,0.00000,0.02086,0.97283,-0.19947,2023,6,12,10,5,45,330
0.01630,3.25500,-4.44500,0.00000,0.02220,0.97222,-0.20142,2023,6,12,10,5,45,342
0.01640,2.95750,-4.62000,0.00000,0.02281,0.97307,-0.20264,2023,6,12,10,5,45,353
0.01650,3.02750,-4.53250,0.00000,0.02464,0.97429,-0.20252,2023,6,12,10,5,45,364
0.01660,2.94000,-4.74250,0.00000,0.02184,0.97502,-0.20228,2023,6,12,10,5,45,375
0.01670,3.01000,-4.34000,0.00000,0.02098,0.97307,-0.20130,2023,6,12,10,5,45,386
0.01680,3.04500,-4.60250,0.00000,0.02233,0.97246,-0.20337,2023,6,12,10,5,45,397
0.01690,3.13250,-4.69000,0.00000,0.02233,0.97173,-0.20203,2023,6,12,10,5,45,408
0.01700,3.08000,-4.60250,0.00000,0.02208,0.97478,-0.20496,2023,6,12,10,5,45,419
0.01710,3.02750,-4.81250,0.00000,0.02294,0.97490,-0.20289,2023,6,12,10,5,45,430
0.01720,2.90500,-4.62000,0.00000,0.02281,0.97417,-0.20179,2023,6,12,10,5,45,442
0.01730,3.32500,-4.58500,0.00000,0.02050,0.97271,-0.20228,2023,6,12,10,5,45,453
0.01740,2.94000,-4.41000,0.00000,0.02050,0.97441,-0.20240,2023,6,12,10,5,45,464
0.01750,2.87000,-4.39250,0.00000,0.02464,0.97002,-0.19654,2023,6,12,10,5,45,475
0.01760,3.08000,-4.69000,0.00000,0.02281,0.97173,-0.20045,2023,6,12,10,5,45,486
0.01770,3.16750,-4.51500,0.00000,0.02233,0.97210,-0.20264,2023,6,12,10,5,45,497
0.01780,2.97500,-4.49750,0.00000,0.02403,0.97332,-0.20191,2023,6,12,10,5,45,508
0.01790,3.37750,-4.76000,0.00000,0.02391,0.97368,-0.20423,2023,6,12,10,5,45,519
0.01800,2.97500,-4.76000,0.00000,0.02208,0.97551,-0.20203,2023,6,12,10,5,45,530
0.01810,2.81750,-4.41000,0.00000,0.02233,0.97161,-0.20118,2023,6,12,10,5,45,542
0.01820,3.11500,-4.55000,0.00000,0.02281,0.97197,-0.19776,2023,6,12,10,5,45,553
0.01830,3.08000,-4.37500,0.00000,0.02318,0.97380,-0.20045,2023,6,12,10,5,45,564
0.01840,3.09750,-4.76000,0.00000,0.02342,0.97112,-0.20179,2023,6,12,10,5,45,575
0.01850,3.02750,-4.55000,0.00000,0.02245,0.97319,-0.20167,2023,6,12,10,5,45,586
0.01860,3.01000,-4.74250,0.00000,0.02452,0.97344,-0.20118,2023,6,12,10,5,45,597
0.01870,2.94000,-4.55000,0.00000,0.02355,0.97185,-0.19971,2023,6,12,10,5,45,608
0.01880,3.23750,-4.39250,0.00000,0.02355,0.97441,-0.20203,2023,6,12,10,5,45,619
0.01890,2.97500,-4.48000,0.00000,0.02196,0.97100,-0.20276,2023,6,12,10,5,45,630
0.01900,3.04500,-4.81250,0.00000,0.02172,0.97100,-0.19862,2023,6,12,10,5,45,642
0.01910,3.01000,-4.46250,0.00000,0.02281,0.97295,-0.20154,2023,6,12,10,5,45,653
0.01920,2.99250,-4.48000,0.00000,0.02513,0.97539,-0.19898,2023,6,12,10,5,45,664
0.01930,3.08000,-4.76000,0.00000,0.02367,0.97368,-0.20252,2023,6,12,10,5,45,675
0.01940,3.06250,-4.70750,0.00000,0.02391,0.97368,-0.20191,2023,6,12,10,5,45,686
0.01950,3.11500,-4.53250,0.00000,0.02306,0.97393,-0.20130,2023,6,12,10,5,45,697
0.01960,3.01000,-4.51500,0.00000,0.02391,0.97283,-0.20167,2023,6,12,10,5,45,708
0.01970,2.88750,-4.51500,0.00000,0.01976,0.97515,-0.19947,2023,6,12,10,5,45,719
0.01980,2.95750,-4.83000,0.00000,0.02123,0.97368,-0.19788,2023,6,12,10,5,45,730
0.01990,2.83500,-4.32250,0.00000,0.02391,0.97368,-0.20276,2023,6,12,10,5,45,742
0.02000,3.02750,-4.69000,0.00000,0.02403,0.97222,-0.20106,2023,6,12,10,5,45,753
0.02010,3.09750,-4.56750,0.00000,0.02562,0.97039,-0.20130,2023,6,12,10,5,45,764
0.02020,2.99250,-4.41000,0.00000,0.02233,0.97295,-0.20154,2023,6,12,10,5,45,775
0.02030,3.18500,-4.62000,0.00000,0.02464,0.97027,-0.20069,2023,6,12,10,5,45,786
0.02040,3.09750,-4.53250,0.00000,0.02294,0.97295,-0.20411,2023,6,12,10,5,45,797
0.02050,3.02750,-4.48000,0.00000,0.02281,0.97307,-0.20069,2023,6,12,10,5,45,808
0.02060,3.08000,-4.48000,0.00000,0.02355,0.97136,-0.20191,2023,6,12,10,5,45,819
0.02070,2.88750,-4.51500,0.00000,0.02306,0.97441,-0.20179,2023,6,12,10,5,45,830
0.02080,3.02750,-4.48000,0.00000,0.02440,0.97283,-0.19984,2023,6,12,10,5,45,842
0.02090,3.01000,-4.69000,0.00000,0.02147,0.97429,-0.20289,2023,6,12,10,5,45,853
0.02100,3.04500,-4.34000,0.00000,0.02306,0.97185,-0.19959,2023,6,12,10,5,45,864
0.02110,3.15000,-4.49750,0.00000,0.02416,0.97344,-0.20276,2023,6,12,10,5,45,875
0.02120,2.97500,-4.76000,0.00000,0.02159,0.97417,-0.20252,2023,6,12,10,5,45,886
0.02130,2.97500,-4.34000,0.00000,0.02428,0.97234,-0.20045,2023,6,12,10,5,45,897
0.02140,2.92250,-4.70750,0.00000,0.02135,0.97502,-0.19984,2023,6,12,10,5,45,908
0.02150,2.95750,-4.44500,0.00000,0.02306,0.97258,-0.20228,2023,6,12,10,5,45,919
0.02160,3.08000,-4.49750,0.00000,0.02379,0.97222,-0.19935,2023,6,12,10,5,45,930
0.02170,2.97500,-4.44500,0.00000,0.02220,0.97161,-0.20069,2023,6,12,10,5,45,942
0.02180,3.02750,-4.49750,0.00000,0.02513,0.97161,-0.20045,2023,6,12,10,5,45,953
0.02190,3.11500,-4.67250,0.00000,0.02196,0.97295,-0.20130,2023,6,12,10,5,45,964
0.02200,3.13250,-4.58500,0.00000,0.02391,0.97307,-0.20276,2023,6,12,10,5,46,5
0.02210,2.85250,-4.58500,0.00000,0.02294,0.97283,-0.20215,2023,6,12,10,5,46,16
0.02220,2.94000,-4.74250,0.00000,0.02379,0.97258,-0.20142,2023,6,12,10,5,46,27
0.02230,3.08000,-4.39250,0.00000,0.02440,0.97185,-0.20093,2023,6,12,10,5,46,38
0.02240,3.13250,-4.70750,0.00000,0.02220,0.97441,-0.20228,2023,6,12,10,5,46,49
0.02250,2.88750,-4.65500,0.00000,0.02318,0.97368,-0.20118,2023,6,12,10,5,46,60
0.02260,3.04500,-4.51500,0.00000,0.02172,0.97210,-0.20289,2023,6,12,10,5,46,72
0.02270,3.16750,-4.56750,0.00000,0.02184,0.97417,-0.20130,2023,6,12,10,5,46,83
0.02280,3.04500,-4.55000,0.00000,0.02159,0.97332,-0.20386,2023,6,12,10,5,46,94
0.02290,2.95750,-4.56750,0.00000,0.02306,0.97478,-0.20252,2023,6,12,10,5,46,105
0.02300,3.09750,-4.49750,0.00000,0.02208,0.97319,-0.20411,2023,6,12,10,5,46,116
0.02310,2.99250,-4.84750,0.00000,0.02294,0.97429,-0.20106,2023,6,12,10,5,46,127
0.02320,2.88750,-4.69000,0.00000,0.02428,0.96636,-0.19837,2023,6,12,10,5,46,138
0.02330,3.36000,-4.56750,0.00000,0.02184,0.96148,-0.19642,2023,6,12,10,5,46,149
0.02340,3.18500,-4.60250,0.00000,0.02550,0.97393,-0.19776,2023,6,12,10,5,46,160
0.02350,2.38000,-4.72500,0.00000,0.02416,0.97307,-0.19642,2023,6,12,10,5,46,172
0.02360,2.94000,-4.67250,0.00000,0.02257,0.97454,-0.20057,2023,6,12,10,5,46,183
0.02370,3.13250,-4.51500,0.00000,0.01867,0.97417,-0.20655,2023,6,12,10,5,46,194
0.02380,2.94000,-4.63750,0.00000,0.01964,0.96868,-0.20093,2023,6,12,10,5,46,205
0.02390,3.09750,-4.60250,0.00000,0.02525,0.97673,-0.20215,2023,6,12,10,5,46,216
0.02400,3.04500,-4.63750,0.00000,0.02233,0.97027,-0.19862,2023,6,12,10,5,46,227
0.02410,2.99250,-4.67250,0.00000,0.02403,0.97136,-0.20191,2023,6,12,10,5,46,238
0.02420,2.99250,-4.55000,0.00000,0.02233,0.97551,-0.20008,2023,6,12,10,5,46,249
0.02430,2.81750,-4.48000,0.00000,0.02257,0.97356,-0.20142,2023,6,12,10,5,46,260
0.02440,2.80000,-4.41000,0.00000,0.02172,0.97258,-0.20045,2023,6,12,10,5,46,272
0.02450,3.15000,-4.58500,0.00000,0.02294,0.97502,-0.20289,2023,6,12,10,5,46,283
0.02460,2.83500,-4.63750,0.00000,0.02220,0.97173,-0.20118,2023,6,12,10,5,46,294
0.02470,3.04500,-4.60250,0.00000,0.02391,0.97478,-0.20093,2023,6,12,10,5,46,305
0.02480,3.06250,-4.51500,0.00000,0.02428,0.97332,-0.20203,2023,6,12,10,5,46,316
0.02490,2.95750,-4.55000,0.00000,0.02269,0.97380,-0.20459,2023,6,12,10,5,46,327
0.02500,3.13250,-4.58500,0.00000,0.02098,0.97319,-0.19996,2023,6,12,10,5,46,338
0.02510,2.90500,-4.44500,0.00000,0.02635,0.97283,-0.20191,2023,6,12,10,5,46,349
0.02520,3.02750,-4.74250,0.00000,0.02245,0.97210,-0.20264,2023,6,12,10,5,46,360
0.02530,2.80000,-4.65500,0.00000,0.02355,0.97332,-0.20374,2023,6,12,10,5,46,372
0.02540,3.02750,-4.51500,0.00000,0.02416,0.97307,-0.20069,2023,6,12,10,5,46,383
0.02550,3.01000,-4.58500,0.00000,0.02294,0.97283,-0.20411,2023,6,12,10,5,46,394
0.02560,3.09750,-4.72500,0.00000,0.02184,0.97112,-0.20008,2023,6,12,10,5,46,405
0.02570,3.09750,-4.86500,0.00000,0.02184,0.97246,-0.20154,2023,6,12,10,5,46,416
0.02580,2.81750,-4.39250,0.00000,0.02379,0.97161,-0.20154,2023,6,12,10,5,46,427
0.02590,2.97500,-4.23500,0.00000,0.02220,0.97271,-0.20276,2023,6,12,10,5,46,438
0.02600,2.97500,-4.69000,0.00000,0.02281,0.97088,-0.20191,2023,6,12,10,5,46,449
0.02610,3.02750,-4.44500,0.00000,0.02269,0.97246,-0.20130,2023,6,12,10,5,46,460
0.02620,3.08000,-4.63750,0.00000,0.02208,0.97551,-0.19984,2023,6,12,10,5,46,472
0.02630,2.94000,-4.62000,0.00000,0.02379,0.97210,-0.20215,2023,6,12,10,5,46,483
0.02640,2.90500,-4.70750,0.00000,0.02245,0.97222,-0.20142,2023,6,12,10,5,46,494
0.02650,3.06250,-4.51500,0.00000,0.02489,0.97222,-0.20228,2023,6,12,10,5,46,505
0.02660,3.16750,-4.91750,0.00000,0.02001,0.97295,-0.20093,2023,6,12,10,5,46,516
0.02670,2.97500,-4.62000,0.00000,0.02403,0.97344,-0.20203,2023,6,12,10,5,46,527
0.02680,3.15000,-4.67250,0.00000,0.02001,0.97222,-0.19898,2023,6,12,10,5,46,538
0.02690,3.13250,-4.55000,0.00000,0.02281,0.97173,-0.20179,2023,6,12,10,5,46,549
0.02700,2.90500,-4.65500,0.00000,0.02184,0.97478,-0.19959,2023,6,12,10,5,46,560
0.02710,3.01000,-4.56750,0.00000,0.02464,0.97271,-0.20154,2023,6,12,10,5,46,572
0.02720,2.94000,-4.41000,0.00000,0.02379,0.97332,-0.20093,2023,6,12,10,5,46,583
0.02730,3.08000,-4.55000,0.00000,0.02281,0.97368,-0.19935,2023,6,12,10,5,46,594
0.02740,2.88750,-4.63750,0.00000,0.02257,0.97319,-0.20435,2023,6,12,10,5,46,605
0.02750,3.06250,-4.69000,0.00000,0.02281,0.97307,-0.20203,2023,6,12,10,5,46,616
0.02760,3.08000,-4.48000,0.00000,0.02208,0.97161,-0.20142,2023,6,12,10,5,46,627
0.02770,3.06250,-4.39250,0.00000,0.02245,0.97429,-0.20337,2023,6,12,10,5,46,638
0.02780,2.83500,-4.34000,0.00000,0.02135,0.97295,-0.20179,2023,6,12,10,5,46,649
0.02790,2.94000,-4.56750,0.00000,0.02245,0.97014,-0.20240,2023,6,12,10,5,46,660
0.02800,3.15000,-4.58500,0.00000,0.02525,0.97027,-0.19947,2023,6,12,10,5,46,672
0.02810,2.81750,-4.46250,0.00000,0.02281,0.97307,-0.19910,2023,6,12,10,5,46,683
0.02820,2.74750,-4.34000,0.00000,0.02281,0.97527,-0.20069,2023,6,12,10,5,46,694
0.02830,3.18500,-4.48000,0.00000,0.02220,0.97283,-0.20045,2023,6,12,10,5,46,705
0.02840,3.25500,-4.56750,0.00000,0.02355,0.97319,-0.20032,2023,6,12,10,5,46,716
0.02850,3.08000,-4.46250,0.00000,0.02086,0.97393,-0.20008,2023,6,12,10,5,46,727
0.02860,3.01000,-4.35750,0.00000,0.02452,0.97466,-0.20154,2023,6,12,10,5,46,738
0.02870,3.16750,-4.56750,0.00000,0.02220,0.97258,-0.20386,2023,6,12,10,5,46,749
0.02880,2.97500,-4.42750,0.00000,0.02403,0.97307,-0.20130,2023,6,12,10,5,46,760
0.02890,2.99250,-4.60250,0.00000,0.02342,0.97027,-0.20045,2023,6,12,10,5,46,772
0.02900,2.73000,-4.63750,0.00000,0.02318,0.97429,-0.20301,2023,6,12,10,5,46,783
0.02910,2.90500,-4.60250,0.00000,0.02367,0.97283,-0.19862,2023,6,12,10,5,46,794
0.02920,3.25500,-4.84750,0.00000,0.02159,0.97185,-0.20179,2023,6,12,10,5,46,805
0.02930,2.90500,-4.51500,0.00000,0.02318,0.97490,-0.20203,2023,6,12,10,5,46,816
0.02940,3.02750,-4.44500,0.00000,0.02257,0.97100,-0.20106,2023,6,12,10,5,46,827
0.02950,3.15000,-4.60250,0.00000,0.02355,0.97246,-0.20215,2023,6,12,10,5,46,838
0.02960,3.09750,-4.84750,0.00000,0.02037,0.97405,-0.20215,2023,6,12,10,5,46,849
0.02970,2.85250,-4.79500,0.00000,0.02306,0.97588,-0.20264,2023,6,12,10,5,46,860
0.02980,3.22000,-4.67250,0.00000,0.02294,0.97380,-0.19984,2023,6,12,10,5,46,872
0.02990,3.13250,-4.76000,0.00000,0.02330,0.97246,-0.20179,2023,6,12,10,5,46,883
0.03000,3.06250,-4.62000,0.00000,0.02123,0.97307,-0.20057,2023,6,12,10,5,46,894
0.03010,3.13250,-4.49750,0.00000,0.02318,0.97246,-0.20337,2023,6,12,10,5,46,905
0.03020,2.94000,-4.60250,0.00000,0.02208,0.97283,-0.20252,2023,6,12,10,5,46,916
0.03030,3.04500,-4.46250,0.00000,0.02159,0.97258,-0.19959,2023,6,12,10,5,46,927
0.03040,3.09750,-4.74250,0.00000,0.02159,0.97319,-0.20252,2023,6,12,10,5,46,938
0.03050,2.99250,-4.55000,0.00000,0.02391,0.97271,-0.20081,2023,6,12,10,5,46,949
0.03060,2.95750,-4.62000,0.00000,0.02257,0.97210,-0.20020,2023,6,12,10,5,46,960
0.03070,3.20250,-4.55000,0.00000,0.02233,0.97124,-0.20081,2023,6,12,10,5,46,972
0.03080,3.09750,-4.56750,0.00000,0.02318,0.97527,-0.20203,2023,6,12,10,5,47,3
0.03090,3.02750,-4.63750,0.00000,0.02159,0.97295,-0.20362,2023,6,12,10,5,47,14
0.03100,3.11500,-4.88250,0.00000,0.02464,0.97246,-0.20203,2023,6,12,10,5,47,25
0.03110,2.97500,-4.49750,0.00000,0.02379,0.97295,-0.20130,2023,6,12,10,5,47,36
0.03120,2.95750,-4.48000,0.00000,0.02379,0.97356,-0.20154,2023,6,12,10,5,47,47
0.03130,2.90500,-4.70750,0.00000,0.02269,0.97332,-0.20374,2023,6,12,10,5,47,58
0.03140,2.85250,-4.67250,0.00000,0.02294,0.97368,-0.20045,2023,6,12,10,5,47,69
0.03150,3.06250,-4.63750,0.00000,0.02428,0.97185,-0.20069,2023,6,12,10,5,47,80
0.03160,3.08000,-4.53250,0.00000,0.02318,0.97124,-0.20020,2023,6,12,10,5,47,92
0.03170,3.06250,-4.58500,0.00000,0.02355,0.97112,-0.20215,2023,6,12,10,5,47,103
0.03180,3.08000,-4.67250,0.00000,0.02257,0.97283,-0.20106,2023,6,12,10,5,47,114
0.03190,2.87000,-4.56750,0.00000,0.02306,0.97393,-0.20106,2023,6,12,10,5,47,125
0.03200,3.01000,-4.53250,0.00000,0.02233,0.97295,-0.20276,2023,6,12,10,5,47,136
0.03210,2.95750,-4.56750,0.00000,0.02220,0.97380,-0.20191,2023,6,12,10,5,47,147
0.03220,3.11500,-4.65500,0.00000,0.02477,0.97173,-0.20057,2023,6,12,10,5,47,158
0.03230,3.13250,-4.53250,0.00000,0.02428,0.97368,-0.20106,2023,6,12,10,5,47,169
0.03240,3.02750,-4.58500,0.00000,0.02452,0.97210,-0.20215,2023,6,12,10,5,47,180
0.03250,2.90500,-4.39250,0.00000,0.02391,0.97332,-0.20142,2023,6,12,10,5,47,192
0.03260,2.99250,-4.39250,0.00000,0.02294,0.97185,-0.20069,2023,6,12,10,5,47,203
0.03270,2.97500,-4.51500,0.00000,0.02586,0.97283,-0.20142,2023,6,12,10,5,47,214
0.03280,3.09750,-4.74250,0.00000,0.02440,0.97222,-0.20069,2023,6,12,10,5,47,225
0.03290,2.97500,-4.46250,0.00000,0.02257,0.97185,-0.20118,2023,6,12,10,5,47,236
0.03300,2.94000,-4.56750,0.00000,0.02208,0.97271,-0.20215,2023,6,12,10,5,47,247
0.03310,3.02750,-4.65500,0.00000,0.02245,0.97332,-0.20191,2023,6,12,10,5,47,258
0.03320,3.09750,-4.63750,0.00000,0.02196,0.97380,-0.20337,2023,6,12,10,5,47,269
0.03330,3.13250,-4.72500,0.00000,0.02257,0.97234,-0.20142,2023,6,12,10,5,47,280
0.03340,2.83500,-4.65500,0.00000,0.02464,0.97283,-0.20289,2023,6,12,10,5,47,292
0.03350,2.94000,-4.49750,0.00000,0.02294,0.97332,-0.20264,2023,6,12,10,5,47,303
0.03360,3.04500,-4.32250,0.00000,0.02269,0.97307,-0.20228,2023,6,12,10,5,47,314
0.03370,3.11500,-4.76000,0.00000,0.02281,0.97149,-0.20093,2023,6,12,10,5,47,325
0.03380,3.04500,-4.44500,0.00000,0.02403,0.97393,-0.20008,2023,6,12,10,5,47,336
0.03390,3.08000,-4.79500,0.00000,0.02330,0.97136,-0.20154,2023,6,12,10,5,47,347
0.03400,3.09750,-4.58500,0.00000,0.02306,0.97502,-0.20167,2023,6,12,10,5,47,358
0.03410,3.08000,-4.51500,0.00000,0.02318,0.97441,-0.19996,2023,6,12,10,5,47,369
0.03420,2.94000,-4.49750,0.00000,0.02342,0.97271,-0.20301,2023,6,12,10,5,47,380
0.03430,2.97500,-4.62000,0.00000,0.02355,0.97307,-0.19923,2023,6,12,10,5,47,392
0.03440,2.90500,-4.58500,0.00000,0.02367,0.97319,-0.20252,2023,6,12,10,5,47,403
0.03450,3.15000,-4.48000,0.00000,0.02220,0.97271,-0.20130,2023,6,12,10,5,47,414
0.03460,2.94000,-4.51500,0.00000,0.02330,0.97161,-0.20325,2023,6,12,10,5,47,425
0.03470,3.04500,-4.48000,0.00000,0.02257,0.97429,-0.20228,2023,6,12,10,5,47,436
0.03480,3.09750,-4.67250,0.00000,0.02440,0.97356,-0.20423,2023,6,12,10,5,47,447
0.03490,3.18500,-4.65500,0.00000,0.02233,0.97124,-0.20240,2023,6,12,10,5,47,458
0.03500,3.08000,-4.55000,0.00000,0.02233,0.97283,-0.20301,2023,6,12,10,5,47,469
0.03510,3.01000,-4.58500,0.00000,0.02464,0.97380,-0.20032,2023,6,12,10,5,47,480
0.03520,3.08000,-4.60250,0.00000,0.02257,0.97417,-0.20118,2023,6,12,10,5,47,492
0.03530,2.94000,-4.55000,0.00000,0.02098,0.97356,-0.20276,2023,6,12,10,5,47,503
0.03540,2.97500,-4.60250,0.00000,0.02379,0.97063,-0.20106,2023,6,12,10,5,47,514
0.03550,2.97500,-4.58500,0.00000,0.02281,0.97405,-0.20484,2023,6,12,10,5,47,525
0.03560,2.81750,-4.39250,0.00000,0.02281,0.97356,-0.20350,2023,6,12,10,5,47,536
0.03570,3.15000,-4.74250,0.00000,0.02342,0.97405,-0.20215,2023,6,12,10,5,47,547
0.03580,3.18500,-4.97000,0.00000,0.02281,0.97319,-0.20154,2023,6,12,10,5,47,558
0.03590,3.04500,-4.55000,0.00000,0.02318,0.97332,-0.20252,2023,6,12,10,5,47,569
0.03600,2.92250,-4.72500,0.00000,0.02184,0.97344,-0.20167,2023,6,12,10,5,47,580
0.03610,2.95750,-4.72500,0.00000,0.02318,0.97222,-0.20118,2023,6,12,10,5,47,592
0.03620,2.94000,-4.48000,0.00000,0.02086,0.97380,-0.20240,2023,6,12,10,5,47,603
0.03630,3.13250,-4.42750,0.00000,0.02391,0.97380,-0.20203,2023,6,12,10,5,47,614
0.03640,2.97500,-4.62000,0.00000,0.02281,0.97185,-0.20179,2023,6,12,10,5,47,625
0.03650,3.01000,-4.62000,0.00000,0.02196,0.97063,-0.20179,2023,6,12,10,5,47,636
0.03660,2.94000,-4.56750,0.00000,0.02184,0.97210,-0.20215,2023,6,12,10,5,47,647
0.03670,3.08000,-4.46250,0.00000,0.02159,0.97124,-0.20179,2023,6,12,10,5,47,658
0.03680,3.15000,-4.74250,0.00000,0.02489,0.97271,-0.20362,2023,6,12,10,5,47,669
0.03690,2.99250,-4.56750,0.00000,0.02281,0.97356,-0.20203,2023,6,12,10,5,47,680
0.03700,2.99250,-4.58500,0.00000,0.02135,0.97295,-0.20264,2023,6,12,10,5,47,692
0.03710,3.15000,-4.60250,0.00000,0.02428,0.97222,-0.20215,2023,6,12,10,5,47,703
0.03720,2.97500,-4.44500,0.00000,0.02245,0.97185,-0.20264,2023,6,12,10,5,47,714
0.03730,2.76500,-4.51500,0.00000,0.02379,0.97356,-0.20374,2023,6,12,10,5,47,725
0.03740,2.99250,-4.51500,0.00000,0.02513,0.97319,-0.20118,2023,6,12,10,5,47,736
0.03750,3.04500,-4.60250,0.00000,0.02269,0.97136,-0.20142,2023,6,12,10,5,47,747
0.03760,2.85250,-4.42750,0.00000,0.02550,0.97185,-0.20276,2023,6,12,10,5,47,758
0.03770,2.80000,-4.60250,0.00000,0.02379,0.97332,-0.20301,2023,6,12,10,5,47,769
0.03780,3.09750,-4.41000,0.00000,0.02245,0.97161,-0.20215,2023,6,12,10,5,47,780
0.03790,3.11500,-4.34000,0.00000,0.02220,0.97405,-0.20301,2023,6,12,10,5,47,792
0.03800,2.87000,-4.62000,0.00000,0.02306,0.97478,-0.20118,2023,6,12,10,5,47,803
0.03810,2.95750,-4.46250,0.00000,0.02098,0.97356,-0.19923,2023,6,12,10,5,47,814
0.03820,2.94000,-4.49750,0.00000,0.02306,0.97478,-0.20264,2023,6,12,10,5,47,825
0.03830,3.16750,-4.58500,0.00000,0.02355,0.97405,-0.20179,2023,6,12,10,5,47,836
0.03840,2.94000,-4.69000,0.00000,0.02294,0.97161,-0.20264,2023,6,12,10,5,47,847
0.03850,3.02750,-4.65500,0.00000,0.02440,0.97490,-0.20325,2023,6,12,10,5,47,858
0.03860,2.88750,-4.60250,0.00000,0.02184,0.97136,-0.20179,2023,6,12,10,5,47,869
0.03870,3.02750,-4.63750,0.00000,0.02269,0.97356,-0.20191,2023,6,12,10,5,47,880
0.03880,2.90500,-4.56750,0.00000,0.02416,0.97173,-0.19886,2023,6,12,10,5,47,892
0.03890,2.97500,-4.48000,0.00000,0.02269,0.97075,-0.20240,2023,6,12,10,5,47,903
0.03900,3.01000,-4.72500,0.00000,0.02452,0.97210,-0.20374,2023,6,12,10,5,47,914
0.03910,3.06250,-4.51500,0.00000,0.02330,0.97417,-0.20386,2023,6,12,10,5,47,925
0.03920,2.90500,-4.58500,0.00000,0.02147,0.97234,-0.20203,2023,6,12,10,5,47,936
0.03930,2.99250,-4.62000,0.00000,0.02159,0.97356,-0.20106,2023,6,12,10,5,47,947
0.03940,3.09750,-4.62000,0.00000,0.02281,0.97380,-0.20081,2023,6,12,10,5,47,958
0.03950,3.18500,-4.41000,0.00000,0.02367,0.97173,-0.20289,2023,6,12,10,5,47,969
0.03960,2.90500,-4.70750,0.00000,0.02159,0.97088,-0.20289,2023,6,12,10,5,48,0
0.03970,2.99250,-4.60250,0.00000,0.02342,0.97197,-0.20264,2023,6,12,10,5,48,12
0.03980,3.09750,-4.69000,0.00000,0.02452,0.97380,-0.20240,2023,6,12,10,5,48,23
0.03990,3.08000,-4.42750,0.00000,0.02452,0.97246,-0.19923,2023,6,12,10,5,48,34
0.04000,3.08000,-4.48000,0.00000,0.02306,0.97344,-0.20240,2023,6,12,10,5,48,45
0.04010,3.11500,-4.63750,0.00000,0.02330,0.97185,-0.20240,2023,6,12,10,5,48,56
0.04020,2.99250,-4.62000,0.00000,0.02220,0.97332,-0.20191,2023,6,12,10,5,48,67
0.04030,2.92250,-4.37500,0.00000,0.02525,0.97197,-0.20240,2023,6,12,10,5,48,78
0.04040,2.92250,-4.51500,0.00000,0.02403,0.97185,-0.20069,2023,6,12,10,5,48,89
0.04050,3.09750,-4.48000,0.00000,0.02367,0.97368,-0.20240,2023,6,12,10,5,48,100
0.04060,3.01000,-4.60250,0.00000,0.02196,0.97454,-0.20228,2023,6,12,10,5,48,112
0.04070,3.13250,-4.70750,0.00000,0.02342,0.97136,-0.20093,2023,6,12,10,5,48,123
0.04080,2.94000,-4.65500,0.00000,0.02208,0.97307,-0.20252,2023,6,12,10,5,48,134
0.04090,3.04500,-4.44500,0.00000,0.02294,0.97332,-0.20203,2023,6,12,10,5,48,145
0.04100,2.92250,-4.60250,0.00000,0.02269,0.97454,-0.20167,2023,6,12,10,5,48,156
0.04110,2.99250,-4.46250,0.00000,0.02367,0.97429,-0.20191,2023,6,12,10,5,48,167
0.04120,3.02750,-4.76000,0.00000,0.02184,0.97258,-0.20325,2023,6,12,10,5,48,178
0.04130,3.06250,-4.56750,0.00000,0.02525,0.97563,-0.20215,2023,6,12,10,5,48,189
0.04140,3.08000,-4.28750,0.00000,0.02257,0.97185,-0.20228,2023,6,12,10,5,48,200
0.04150,2.90500,-4.69000,0.00000,0.02257,0.97246,-0.20240,2023,6,12,10,5,48,212
0.04160,2.92250,-4.37500,0.00000,0.02403,0.97210,-0.20362,2023,6,12,10,5,48,223
0.04170,3.15000,-4.65500,0.00000,0.02294,0.97295,-0.20228,2023,6,12,10,5,48,234
0.04180,3.04500,-4.55000,0.00000,0.02403,0.97234,-0.20228,2023,6,12,10,5,48,245
0.04190,3.08000,-4.53250,0.00000,0.02379,0.97344,-0.20289,2023,6,12,10,5,48,256
0.04200,3.16750,-4.76000,0.00000,0.02489,0.97149,-0.20313,2023,6,12,10,5,48,267
0.04210,3.09750,-4.65500,0.00000,0.02318,0.97417,-0.20142,2023,6,12,10,5,48,278
0.04220,2.97500,-4.42750,0.00000,0.02464,0.97063,-0.19935,2023,6,12,10,5,48,289
0.04230,2.95750,-4.58500,0.00000,0.02379,0.97185,-0.20228,2023,6,12,10,5,48,300
0.04240,3.08000,-4.60250,0.00000,0.02367,0.97295,-0.20093,2023,6,12,10,5,48,312
0.04250,3.20250,-4.70750,0.00000,0.02342,0.97307,-0.20130,2023,6,12,10,5,48,323
0.04260,2.90500,-4.69000,0.00000,0.02342,0.97344,-0.20032,2023,6,12,10,5,48,334
0.04270,3.02750,-4.84750,0.00000,0.02330,0.97246,-0.20093,2023,6,12,10,5,48,345
0.04280,2.99250,-4.81250,0.00000,0.02416,0.97356,-0.20008,2023,6,12,10,5,48,356
0.04290,3.08000,-4.79500,0.00000,0.02269,0.97283,-0.20142,2023,6,12,10,5,48,367
0.04300,3.11500,-4.83000,0.00000,0.02196,0.97356,-0.20191,2023,6,12,10,5,48,378
0.04310,3.13250,-4.44500,0.00000,0.02196,0.97393,-0.20240,2023,6,12,10,5,48,389
0.04320,2.99250,-4.34000,0.00000,0.01952,0.97441,-0.20252,2023,6,12,10,5,48,400
0.04330,2.92250,-4.65500,0.00000,0.02086,0.97161,-0.20398,2023,6,12,10,5,48,412
0.04340,3.13250,-4.41000,0.00000,0.02355,0.97441,-0.20276,2023,6,12,10,5,48,423
0.04350,2.87000,-4.37500,0.00000,0.02257,0.97222,-0.20081,2023,6,12,10,5,48,434
0.04360,3.08000,-4.56750,0.00000,0.02245,0.97405,-0.20179,2023,6,12,10,5,48,445
0.04370,2.99250,-4.42750,0.00000,0.01928,0.97319,-0.20386,2023,6,12,10,5,48,456
0.04380,3.13250,-4.51500,0.00000,0.02245,0.97222,-0.20106,2023,6,12,10,5,48,467
0.04390,3.01000,-4.69000,0.00000,0.02172,0.97258,-0.19910,2023,6,12,10,5,48,478
0.04400,2.99250,-4.48000,0.00000,0.02159,0.97295,-0.20435,2023,6,12,10,5,48,489
0.04410,3.04500,-4.37500,0.00000,0.02001,0.97136,-0.19959,2023,6,12,10,5,48,500
0.04420,3.09750,-4.60250,0.00000,0.02086,0.97441,-0.20179,2023,6,12,10,5,48,512
0.04430,2.99250,-4.63750,0.00000,0.02074,0.97344,-0.20215,2023,6,12,10,5,48,523
0.04440,2.95750,-4.60250,0.00000,0.02306,0.97319,-0.20289,2023,6,12,10,5,48,534
0.04450,2.83500,-4.41000,0.00000,0.02147,0.97051,-0.20057,2023,6,12,10,5,48,545
0.04460,2.80000,-4.63750,0.00000,0.02269,0.97051,-0.20118,2023,6,12,10,5,48,556
0.04470,3.06250,-4.67250,0.00000,0.02318,0.97210,-0.20203,2023,6,12,10,5,48,567
0.04480,3.04500,-4.37500,0.00000,0.01989,0.97307,-0.20240,2023,6,12,10,5,48,578
0.04490,3.08000,-4.39250,0.00000,0.02452,0.97332,-0.20228,2023,6,12,10,5,48,589
0.04500,3.02750,-4.62000,0.00000,0.02147,0.97124,-0.20069,2023,6,12,10,5,48,600
0.04510,3.08000,-4.51500,0.00000,0.02111,0.97490,-0.20081,2023,6,12,10,5,48,612
0.04520,2.97500,-4.55000,0.00000,0.02184,0.97210,-0.20179,2023,6,12,10,5,48,623
0.04530,3.08000,-4.81250,0.00000,0.02245,0.97429,-0.20045,2023,6,12,10,5,48,634
0.04540,3.08000,-4.39250,0.00000,0.02184,0.97197,-0.20240,2023,6,12,10,5,48,645
0.04550,2.92250,-4.53250,0.00000,0.02135,0.97295,-0.20045,2023,6,12,10,5,48,656
0.04560,3.15000,-4.65500,0.00000,0.02098,0.97124,-0.20081,2023,6,12,10,5,48,667
0.04570,3.13250,-4.46250,0.00000,0.02135,0.97271,-0.20313,2023,6,12,10,5,48,678
0.04580,2.92250,-4.41000,0.00000,0.02123,0.97271,-0.20118,2023,6,12,10,5,48,689
0.04590,3.09750,-4.67250,0.00000,0.02233,0.97258,-0.20313,2023,6,12,10,5,48,700
0.04600,2.83500,-4.51500,0.00000,0.02159,0.97332,-0.20252,2023,6,12,10,5,48,712
0.04610,3.02750,-4.48000,0.00000,0.02086,0.97075,-0.20289,2023,6,12,10,5,48,723
0.04620,3.20250,-4.51500,0.00000,0.01976,0.97283,-0.20325,2023,6,12,10,5,48,734
0.04630,2.92250,-4.62000,0.00000,0.02196,0.97210,-0.19971,2023,6,12,10,5,48,745
0.04640,2.78250,-4.49750,0.00000,0.02184,0.97149,-0.20264,2023,6,12,10,5,48,756
0.04650,3.04500,-4.62000,0.00000,0.02172,0.97149,-0.20081,2023,6,12,10,5,48,767
0.04660,3.06250,-4.67250,0.00000,0.02147,0.97527,-0.20228,2023,6,12,10,5,48,778
0.04670,2.97500,-4.42750,0.00000,0.01940,0.97295,-0.20020,2023,6,12,10,5,48,789
0.04680,2.87000,-4.44500,0.00000,0.02196,0.97502,-0.20508,2023,6,12,10,5,48,800
0.04690,3.04500,-4.65500,0.00000,0.01903,0.97441,-0.20057,2023,6,12,10,5,48,812
0.04700,2.99250,-4.51500,0.00000,0.02098,0.97344,-0.20374,2023,6,12,10,5,48,823
0.04710,2.78250,-4.30500,0.00000,0.01903,0.97380,-0.20289,2023,6,12,10,5,48,834
0.04720,2.90500,-4.44500,0.00000,0.02074,0.97136,-0.20240,2023,6,12,10,5,48,845
0.04730,3.01000,-4.65500,0.00000,0.02172,0.97197,-0.20057,2023,6,12,10,5,48,856
0.04740,3.15000,-4.70750,0.00000,0.01976,0.97319,-0.20276,2023,6,12,10,5,48,867
0.04750,3.01000,-4.77750,0.00000,0.02220,0.97319,-0.19837,2023,6,12,10,5,48,878
0.04760,3.01000,-4.51500,0.00000,0.02025,0.97088,-0.19849,2023,6,12,10,5,48,889
0.04770,2.95750,-4.67250,0.00000,0.01964,0.97185,-0.20020,2023,6,12,10,5,48,900
0.04780,3.01000,-4.55000,0.00000,0.02013,0.97075,-0.19947,2023,6,12,10,5,48,912
0.04790,2.95750,-4.34000,0.00000,0.02159,0.97307,-0.19874,2023,6,12,10,5,48,923
0.04800,3.04500,-4.48000,0.00000,0.02098,0.97136,-0.20313,2023,6,12,10,5,48,934
0.04810,3.06250,-4.69000,0.00000,0.02062,0.97161,-0.19971,2023,6,12,10,5,48,945
0.04820,2.80000,-4.41000,0.00000,0.02159,0.97515,-0.20020,2023,6,12,10,5,48,956
0.04830,2.92250,-4.67250,0.00000,0.02281,0.97466,-0.20240,2023,6,12,10,5,48,967
0.04840,3.06250,-4.49750,0.00000,0.02123,0.97283,-0.20057,2023,6,12,10,5,49,8
0.04850,3.01000,-4.58500,0.00000,0.02123,0.97441,-0.20142,2023,6,12,10,5,49,19
0.04860,3.01000,-4.46250,0.00000,0.01928,0.97039,-0.20276,2023,6,12,10,5,49,30
0.04870,2.76500,-4.30500,0.00000,0.02147,0.97490,-0.20203,2023,6,12,10,5,49,42
0.04880,3.04500,-4.41000,0.00000,0.02025,0.97246,-0.20313,2023,6,12,10,5,49,53
0.04890,2.99250,-4.65500,0.00000,0.01940,0.97173,-0.20106,2023,6,12,10,5,49,64
0.04900,2.95750,-4.58500,0.00000,0.02159,0.97319,-0.20191,2023,6,12,10,5,49,75
0.04910,2.94000,-4.69000,0.00000,0.02172,0.97393,-0.20240,2023,6,12,10,5,49,86
0.04920,2.94000,-4.48000,0.00000,0.02367,0.97576,-0.20240,2023,6,12,10,5,49,97
0.04930,2.99250,-4.41000,0.00000,0.02440,0.97332,-0.19947,2023,6,12,10,5,49,108
0.04940,3.08000,-4.65500,0.00000,0.02013,0.97563,-0.20045,2023,6,12,10,5,49,119
0.04950,2.92250,-4.67250,0.00000,0.02269,0.97295,-0.20313,2023,6,12,10,5,49,130
0.04960,2.90500,-4.56750,0.00000,0.02135,0.97234,-0.20130,2023,6,12,10,5,49,142
0.04970,3.02750,-4.76000,0.00000,0.01757,0.97173,-0.19984,2023,6,12,10,5,49,153
0.04980,2.94000,-4.51500,0.00000,0.02281,0.97258,-0.20215,2023,6,12,10,5,49,164
0.04990,2.85250,-4.39250,0.00000,0.02147,0.97185,-0.20411,2023,6,12,10,5,49,175
0.05000,2.94000,-4.49750,0.00000,0.02025,0.97380,-0.20289,2023,6,12,10,5,49,186
0.05010,2.97500,-4.48000,0.00000,0.02196,0.97368,-0.20167,2023,6,12,10,5,49,197
0.05020,3.02750,-4.53250,0.00000,0.01952,0.97234,-0.20069,2023,6,12,10,5,49,208
0.05030,2.94000,-4.51500,0.00000,0.02147,0.97185,-0.20154,2023,6,12,10,5,49,219
0.05040,3.01000,-4.70750,0.00000,0.02184,0.97356,-0.20154,2023,6,12,10,5,49,230
0.05050,2.92250,-4.41000,0.00000,0.02318,0.97527,-0.19996,2023,6,12,10,5,49,242
0.05060,2.97500,-4.49750,0.00000,0.02196,0.97173,-0.20252,2023,6,12,10,5,49,253
0.05070,3.01000,-4.69000,0.00000,0.02111,0.97454,-0.20179,2023,6,12,10,5,49,264
0.05080,2.85250,-4.62000,0.00000,0.02208,0.97527,-0.19971,2023,6,12,10,5,49,275
0.05090,3.23750,-4.44500,0.00000,0.02001,0.97161,-0.20008,2023,6,12,10,5,49,286
0.05100,2.94000,-4.55000,0.00000,0.02269,0.97405,-0.20118,2023,6,12,10,5,49,297
0.05110,3.06250,-4.56750,0.00000,0.02208,0.97490,-0.19837,2023,6,12,10,5,49,308
0.05120,3.18500,-4.81250,0.00000,0.02123,0.97210,-0.20191,2023,6,12,10,5,49,319
0.05130,2.87000,-4.48000,0.00000,0.02074,0.97258,-0.20008,2023,6,12,10,5,49,330
0.05140,2.94000,-4.69000,0.00000,0.02147,0.97356,-0.20093,2023,6,12,10,5,49,342
0.05150,2.94000,-4.56750,0.00000,0.01928,0.97222,-0.19947,2023,6,12,10,5,49,353
0.05160,3.08000,-4.62000,0.00000,0.01818,0.97161,-0.19898,2023,6,12,10,5,49,364
0.05170,3.08000,-4.49750,0.00000,0.02050,0.97258,-0.20179,2023,6,12,10,5,49,375
0.05180,3.04500,-4.63750,0.00000,0.02269,0.97210,-0.20167,2023,6,12,10,5,49,386
0.05190,2.95750,-4.32250,0.00000,0.02245,0.97417,-0.20142,2023,6,12,10,5,49,397
0.05200,3.04500,-4.42750,0.00000,0.02208,0.97100,-0.19971,2023,6,12,10,5,49,408
0.05210,2.92250,-4.53250,0.00000,0.02159,0.97466,-0.19984,2023,6,12,10,5,49,419
0.05220,2.97500,-4.60250,0.00000,0.02294,0.97319,-0.20203,2023,6,12,10,5,49,430
0.05230,3.18500,-4.62000,0.00000,0.02025,0.97368,-0.20167,2023,6,12,10,5,49,442
0.05240,2.87000,-4.37500,0.00000,0.02098,0.97100,-0.20057,2023,6,12,10,5,49,453
0.05250,3.22000,-4.65500,0.00000,0.02074,0.97161,-0.20154,2023,6,12,10,5,49,464
0.05260,3.02750,-4.53250,0.00000,0.02220,0.97466,-0.20276,2023,6,12,10,5,49,475
0.05270,3.13250,-4.60250,0.00000,0.02342,0.97344,-0.20264,2023,6,12,10,5,49,486
0.05280,2.87000,-4.62000,0.00000,0.02098,0.97307,-0.20142,2023,6,12,10,5,49,497
0.05290,2.95750,-4.35750,0.00000,0.02086,0.97563,-0.19971,2023,6,12,10,5,49,508
0.05300,2.99250,-4.58500,0.00000,0.02098,0.97539,-0.20301,2023,6,12,10,5,49,519
0.05310,3.01000,-4.77750,0.00000,0.02037,0.97356,-0.20191,2023,6,12,10,5,49,530
0.05320,2.90500,-4.41000,0.00000,0.01891,0.97563,-0.20215,2023,6,12,10,5,49,542
0.05330,2.99250,-4.62000,0.00000,0.02074,0.97222,-0.20118,2023,6,12,10,5,49,553
0.05340,2.94000,-4.60250,0.00000,0.01964,0.97149,-0.19862,2023,6,12,10,5,49,564
0.05350,2.99250,-4.58500,0.00000,0.02208,0.97454,-0.20228,2023,6,12,10,5,49,575
0.05360,3.09750,-4.58500,0.00000,0.02037,0.97380,-0.19959,2023,6,12,10,5,49,586
0.05370,2.94000,-4.55000,0.00000,0.02098,0.97466,-0.19947,2023,6,12,10,5,49,597
0.05380,2.87000,-4.49750,0.00000,0.02477,0.97319,-0.20008,2023,6,12,10,5,49,608
0.05390,3.09750,-4.69000,0.00000,0.02135,0.97185,-0.19959,2023,6,12,10,5,49,619
0.05400,2.87000,-4.58500,0.00000,0.02062,0.97149,-0.20215,2023,6,12,10,5,49,630
0.05410,2.87000,-4.32250,0.00000,0.02123,0.97222,-0.20289,2023,6,12,10,5,49,642
0.05420,2.99250,-4.49750,0.00000,0.02172,0.97210,-0.20142,2023,6,12,10,5,49,653
0.05430,3.13250,-4.63750,0.00000,0.02037,0.97271,-0.20264,2023,6,12,10,5,49,664
0.05440,3.04500,-4.60250,0.00000,0.02135,0.97307,-0.20106,2023,6,12,10,5,49,675
0.05450,3.02750,-4.62000,0.00000,0.02440,0.97295,-0.20020,2023,6,12,10,5,49,686
0.05460,3.06250,-4.65500,0.00000,0.02086,0.97197,-0.19984,2023,6,12,10,5,49,697
0.05470,3.01000,-4.53250,0.00000,0.02037,0.97429,-0.20423,2023,6,12,10,5,49,708
0.05480,3.01000,-4.67250,0.00000,0.02062,0.97307,-0.20081,2023,6,12,10,5,49,719
0.05490,3.08000,-4.74250,0.00000,0.01952,0.97356,-0.19923,2023,6,12,10,5,49,730
0.05500,2.87000,-4.55000,0.00000,0.02172,0.97319,-0.20008,2023,6,12,10,5,49,742
0.05510,2.85250,-4.46250,0.00000,0.02062,0.97344,-0.19996,2023,6,12,10,5,49,753
0.05520,2.99250,-4.55000,0.00000,0.02159,0.97283,-0.20435,2023,6,12,10,5,49,764
0.05530,2.99250,-4.46250,0.00000,0.02050,0.97124,-0.19947,2023,6,12,10,5,49,775
0.05540,3.01000,-4.72500,0.00000,0.02037,0.97283,-0.20093,2023,6,12,10,5,49,786
0.05550,2.78250,-4.39250,0.00000,0.02184,0.97454,-0.20093,2023,6,12,10,5,49,797
0.05560,3.16750,-4.70750,0.00000,0.02257,0.97344,-0.20130,2023,6,12,10,5,49,808
0.05570,2.97500,-4.65500,0.00000,0.02062,0.97478,-0.20289,2023,6,12,10,5,49,819
0.05580,2.97500,-4.46250,0.00000,0.02184,0.97246,-0.19874,2023,6,12,10,5,49,830
0.05590,2.95750,-4.69000,0.00000,0.02208,0.97185,-0.20203,2023,6,12,10,5,49,842
0.05600,3.02750,-4.65500,0.00000,0.02050,0.97295,-0.20289,2023,6,12,10,5,49,853
0.05610,3.22000,-4.63750,0.00000,0.02062,0.97173,-0.19923,2023,6,12,10,5,49,864
0.05620,2.95750,-4.55000,0.00000,0.02025,0.97319,-0.19959,2023,6,12,10,5,49,875
0.05630,2.81750,-4.37500,0.00000,0.02245,0.97307,-0.20154,2023,6,12,10,5,49,886
0.05640,2.87000,-4.30500,0.00000,0.02037,0.97295,-0.20057,2023,6,12,10,5,49,897
0.05650,2.87000,-4.41000,0.00000,0.02147,0.97295,-0.20032,2023,6,12,10,5,49,908
0.05660,2.99250,-4.65500,0.00000,0.02306,0.97271,-0.19935,2023,6,12,10,5,49,919
0.05670,2.90500,-4.70750,0.00000,0.02050,0.97319,-0.20215,2023,6,12,10,5,49,930
0.05680,2.87000,-4.63750,0.00000,0.02098,0.97283,-0.20130,2023,6,12,10,5,49,942
0.05690,3.01000,-4.58500,0.00000,0.02233,0.97258,-0.20252,2023,6,12,10,5,49,953
0.05700,3.04500,-4.69000,0.00000,0.01976,0.97234,-0.20228,2023,6,12,10,5,49,964
0.05710,3.06250,-4.44500,0.00000,0.02050,0.97466,-0.20276,2023,6,12,10,5,50,5
0.05720,3.09750,-4.76000,0.00000,0.02257,0.97307,-0.19971,2023,6,12,10,5,50,16
0.05730,2.90500,-4.74250,0.00000,0.02220,0.97136,-0.20240,2023,6,12,10,5,50,27
0.05740,2.94000,-4.63750,0.00000,0.02001,0.97222,-0.20289,2023,6,12,10,5,50,38
0.05750,2.87000,-4.62000,0.00000,0.02452,0.97210,-0.20093,2023,6,12,10,5,50,49
0.05760,3.06250,-4.69000,0.00000,0.02196,0.97222,-0.20069,2023,6,12,10,5,50,60
0.05770,2.85250,-4.67250,0.00000,0.02245,0.97441,-0.20093,2023,6,12,10,5,50,72
0.05780,3.11500,-4.60250,0.00000,0.02037,0.97429,-0.20106,2023,6,12,10,5,50,83
0.05790,3.02750,-4.56750,0.00000,0.02123,0.97222,-0.20142,2023,6,12,10,5,50,94
0.05800,2.92250,-4.60250,0.00000,0.02025,0.97197,-0.19971,2023,6,12,10,5,50,105
0.05810,2.99250,-4.55000,0.00000,0.02111,0.97222,-0.19984,2023,6,12,10,5,50,116
0.05820,3.16750,-4.65500,0.00000,0.01928,0.97332,-0.20045,2023,6,12,10,5,50,127
0.05830,3.04500,-4.60250,0.00000,0.02196,0.97173,-0.20337,2023,6,12,10,5,50,138
0.05840,3.11500,-4.60250,0.00000,0.02294,0.97295,-0.20057,2023,6,12,10,5,50,149
0.05850,3.06250,-4.58500,0.00000,0.02086,0.97124,-0.20118,2023,6,12,10,5,50,160
0.05860,3.08000,-4.65500,0.00000,0.01952,0.97441,-0.20081,2023,6,12,10,5,50,172
0.05870,3.11500,-4.51500,0.00000,0.02269,0.97356,-0.19996,2023,6,12,10,5,50,183
0.05880,3.01000,-4.35750,0.00000,0.02245,0.97429,-0.20130,2023,6,12,10,5,50,194
0.05890,3.02750,-4.56750,0.00000,0.02184,0.97368,-0.20398,2023,6,12,10,5,50,205
0.05900,3.15000,-4.60250,0.00000,0.02172,0.97173,-0.20240,2023,6,12,10,5,50,216
0.05910,2.99250,-4.62000,0.00000,0.02050,0.97258,-0.20032,2023,6,12,10,5,50,227
0.05920,2.81750,-4.53250,0.00000,0.02208,0.97490,-0.20179,2023,6,12,10,5,50,238
0.05930,3.01000,-4.60250,0.00000,0.01976,0.97197,-0.20057,2023,6,12,10,5,50,249
0.05940,3.06250,-4.49750,0.00000,0.02220,0.97417,-0.20459,2023,6,12,10,5,50,260
0.05950,3.13250,-4.67250,0.00000,0.02220,0.97368,-0.20228,2023,6,12,10,5,50,272
0.05960,2.92250,-4.55000,0.00000,0.02184,0.97307,-0.20081,2023,6,12,10,5,50,283
0.05970,2.78250,-4.56750,0.00000,0.02208,0.97161,-0.20167,2023,6,12,10,5,50,294
0.05980,3.22000,-4.62000,0.00000,0.02086,0.97344,-0.20118,2023,6,12,10,5,50,305
0.05990,2.97500,-4.70750,0.00000,0.02172,0.97405,-0.20423,2023,6,12,10,5,50,316
0.06000,3.16750,-4.63750,0.00000,0.02001,0.97173,-0.20057,2023,6,12,10,5,50,327
0.06010,3.02750,-4.58500,0.00000,0.02001,0.97246,-0.20167,2023,6,12,10,5,50,338
0.06020,2.87000,-4.44500,0.00000,0.02184,0.97405,-0.20374,2023,6,12,10,5,50,349
0.06030,2.95750,-4.67250,0.00000,0.01903,0.97222,-0.19923,2023,6,12,10,5,50,360
0.06040,3.06250,-4.63750,0.00000,0.02208,0.97246,-0.20228,2023,6,12,10,5,50,372
0.06050,3.02750,-4.42750,0.00000,0.02086,0.97197,-0.20106,2023,6,12,10,5,50,383
0.06060,2.90500,-4.44500,0.00000,0.02245,0.97307,-0.20045,2023,6,12,10,5,50,394
0.06070,2.81750,-4.56750,0.00000,0.02013,0.97173,-0.20142,2023,6,12,10,5,50,405
0.06080,3.04500,-4.51500,0.00000,0.02159,0.97624,-0.20374,2023,6,12,10,5,50,416
0.06090,3.11500,-4.49750,0.00000,0.02233,0.97380,-0.20289,2023,6,12,10,5,50,427
0.06100,2.92250,-4.65500,0.00000,0.02111,0.97197,-0.20154,2023,6,12,10,5,50,438
0.06110,2.99250,-4.67250,0.00000,0.02257,0.97527,-0.20106,2023,6,12,10,5,50,449
0.06120,3.08000,-4.56750,0.00000,0.02074,0.97100,-0.20093,2023,6,12,10,5,50,460
0.06130,3.01000,-4.72500,0.00000,0.02111,0.97100,-0.20106,2023,6,12,10,5,50,472
0.06140,3.15000,-4.62000,0.00000,0.01928,0.97344,-0.20020,2023,6,12,10,5,50,483
0.06150,3.06250,-4.42750,0.00000,0.02086,0.97124,-0.20337,2023,6,12,10,5,50,494
0.06160,2.99250,-4.53250,0.00000,0.02245,0.97380,-0.19898,2023,6,12,10,5,50,505
0.06170,3.02750,-4.41000,0.00000,0.02330,0.97319,-0.19959,2023,6,12,10,5,50,516
0.06180,3.06250,-4.62000,0.00000,0.02208,0.97368,-0.19996,2023,6,12,10,5,50,527
0.06190,2.97500,-4.72500,0.00000,0.02123,0.97368,-0.20215,2023,6,12,10,5,50,538
0.06200,2.83500,-4.60250,0.00000,0.02123,0.97100,-0.19996,2023,6,12,10,5,50,549
0.06210,3.02750,-4.55000,0.00000,0.02050,0.97173,-0.20228,2023,6,12,10,5,50,560
0.06220,3.08000,-4.67250,0.00000,0.02147,0.97319,-0.20350,2023,6,12,10,5,50,572
0.06230,2.92250,-4.58500,0.00000,0.02123,0.97429,-0.19959,2023,6,12,10,5,50,583
0.06240,2.95750,-4.58500,0.00000,0.02269,0.97161,-0.20069,2023,6,12,10,5,50,594
0.06250,3.06250,-4.53250,0.00000,0.02062,0.97441,-0.20020,2023,6,12,10,5,50,605
0.06260,2.97500,-4.49750,0.00000,0.02220,0.97185,-0.20228,2023,6,12,10,5,50,616
0.06270,2.87000,-4.49750,0.00000,0.02233,0.97356,-0.19935,2023,6,12,10,5,50,627
0.06280,2.97500,-4.62000,0.00000,0.02220,0.97344,-0.20350,2023,6,12,10,5,50,638
0.06290,2.92250,-4.56750,0.00000,0.02220,0.97527,-0.20691,2023,6,12,10,5,50,649
0.06300,3.06250,-4.42750,0.00000,0.02074,0.97368,-0.19898,2023,6,12,10,5,50,660
0.06310,2.81750,-4.44500,0.00000,0.02147,0.97368,-0.20191,2023,6,12,10,5,50,672
0.06320,2.95750,-4.62000,0.00000,0.02050,0.97100,-0.20228,2023,6,12,10,5,50,683
0.06330,2.90500,-4.46250,0.00000,0.02269,0.97332,-0.20191,2023,6,12,10,5,50,694
0.06340,2.81750,-4.48000,0.00000,0.02281,0.97344,-0.20020,2023,6,12,10,5,50,705
0.06350,3.20250,-4.69000,0.00000,0.01915,0.97307,-0.20093,2023,6,12,10,5,50,716
0.06360,3.11500,-4.70750,0.00000,0.02123,0.97405,-0.20447,2023,6,12,10,5,50,727
0.06370,3.09750,-4.72500,0.00000,0.02172,0.97454,-0.20045,2023,6,12,10,5,50,738
0.06380,3.04500,-4.63750,0.00000,0.02245,0.97088,-0.20045,2023,6,12,10,5,50,749
0.06390,3.09750,-4.42750,0.00000,0.02245,0.97380,-0.20032,2023,6,12,10,5,50,760
0.06400,2.95750,-4.53250,0.00000,0.02208,0.97466,-0.20423,2023,6,12,10,5,50,772
0.06410,3.01000,-4.83000,0.00000,0.02233,0.97222,-0.20203,2023,6,12,10,5,50,783
0.06420,3.09750,-4.69000,0.00000,0.02257,0.97258,-0.20106,2023,6,12,10,5,50,794
0.06430,2.85250,-4.46250,0.00000,0.02318,0.97295,-0.20179,2023,6,12,10,5,50,805
0.06440,2.92250,-4.70750,0.00000,0.02135,0.97307,-0.19996,2023,6,12,10,5,50,816
0.06450,3.06250,-4.86500,0.00000,0.02050,0.97112,-0.20154,2023,6,12,10,5,50,827
0.06460,3.08000,-4.60250,0.00000,0.02025,0.97612,-0.20240,2023,6,12,10,5,50,838
0.06470,2.85250,-4.30500,0.00000,0.02184,0.97332,-0.20069,2023,6,12,10,5,50,849
0.06480,3.04500,-4.53250,0.00000,0.02257,0.97393,-0.20350,2023,6,12,10,5,50,860
0.06490,2.97500,-4.44500,0.00000,0.01928,0.97307,-0.20215,2023,6,12,10,5,50,872
0.06500,3.13250,-4.63750,0.00000,0.01952,0.97393,-0.20106,2023,6,12,10,5,50,883
0.06510,3.06250,-4.74250,0.00000,0.02111,0.97405,-0.20093,2023,6,12,10,5,50,894
0.06520,2.92250,-4.65500,0.00000,0.02062,0.97344,-0.20142,2023,6,12,10,5,50,905
0.06530,2.92250,-4.39250,0.00000,0.01903,0.97454,-0.20130,2023,6,12,10,5,50,916
0.06540,3.04500,-4.70750,0.00000,0.02098,0.97380,-0.19910,2023,6,12,10,5,50,927
0.06550,3.09750,-4.55000,0.00000,0.02147,0.97380,-0.20228,2023,6,12,10,5,50,938
0.06560,2.92250,-4.37500,0.00000,0.02257,0.97307,-0.20118,2023,6,12,10,5,50,949
0.06570,3.06250,-4.69000,0.00000,0.02172,0.97246,-0.20057,2023,6,12,10,5,50,960
0.06580,2.87000,-4.55000,0.00000,0.02233,0.97234,-0.20069,2023,6,12,10,5,51,2
0.06590,3.09750,-4.55000,0.00000,0.02330,0.97344,-0.20289,2023,6,12,10,5,51,13
0.06600,3.06250,-4.51500,0.00000,0.02233,0.97502,-0.20167,2023,6,12,10,5,51,24
0.06610,2.99250,-4.55000,0.00000,0.02135,0.97258,-0.20093,2023,6,12,10,5,51,35
0.06620,2.88750,-4.34000,0.00000,0.02184,0.97368,-0.20228,2023,6,12,10,5,51,46
0.06630,2.92250,-4.63750,0.00000,0.02245,0.97185,-0.20252,2023,6,12,10,5,51,57
0.06640,2.99250,-4.51500,0.00000,0.02025,0.97380,-0.19959,2023,6,12,10,5,51,68
0.06650,2.99250,-4.56750,0.00000,0.02001,0.97405,-0.20240,2023,6,12,10,5,51,79
0.06660,3.02750,-4.69000,0.00000,0.01989,0.97149,-0.20020,2023,6,12,10,5,51,90
0.06670,3.01000,-4.56750,0.00000,0.02172,0.97271,-0.20179,2023,6,12,10,5,51,102
0.06680,2.99250,-4.67250,0.00000,0.02208,0.97454,-0.20130,2023,6,12,10,5,51,113
0.06690,2.95750,-4.46250,0.00000,0.01952,0.97234,-0.20106,2023,6,12,10,5,51,124
0.06700,3.01000,-4.62000,0.00000,0.01976,0.97454,-0.20142,2023,6,12,10,5,51,135
0.06710,2.94000,-4.63750,0.00000,0.02111,0.97429,-0.20215,2023,6,12,10,5,51,146
0.06720,3.04500,-4.72500,0.00000,0.02196,0.97344,-0.20118,2023,6,12,10,5,51,157
0.06730,2.99250,-4.67250,0.00000,0.02159,0.97368,-0.20350,2023,6,12,10,5,51,168
0.06740,3.15000,-4.60250,0.00000,0.02123,0.97417,-0.20032,2023,6,12,10,5,51,179
0.06750,2.97500,-4.58500,0.00000,0.02086,0.97149,-0.20252,2023,6,12,10,5,51,190
0.06760,2.99250,-4.65500,0.00000,0.02147,0.97185,-0.20081,2023,6,12,10,5,51,202
0.06770,3.01000,-4.60250,0.00000,0.02196,0.97283,-0.20154,2023,6,12,10,5,51,213
0.06780,2.92250,-4.60250,0.00000,0.02367,0.97173,-0.20191,2023,6,12,10,5,51,224
0.06790,3.09750,-4.79500,0.00000,0.02062,0.97185,-0.20252,2023,6,12,10,5,51,235
0.06800,3.04500,-4.63750,0.00000,0.02123,0.97271,-0.20179,2023,6,12,10,5,51,246
0.06810,2.95750,-4.63750,0.00000,0.02147,0.97368,-0.20374,2023,6,12,10,5,51,257
0.06820,2.99250,-4.41000,0.00000,0.02050,0.97441,-0.20240,2023,6,12,10,5,51,268
0.06830,2.99250,-4.77750,0.00000,0.02172,0.97478,-0.20167,2023,6,12,10,5,51,279
0.06840,2.94000,-4.58500,0.00000,0.02245,0.97393,-0.20252,2023,6,12,10,5,51,290
0.06850,3.11500,-4.62000,0.00000,0.01940,0.97258,-0.19996,2023,6,12,10,5,51,302
0.06860,2.92250,-4.60250,0.00000,0.02050,0.97405,-0.20215,2023,6,12,10,5,51,313
0.06870,3.08000,-4.72500,0.00000,0.02050,0.97502,-0.20093,2023,6,12,10,5,51,324
0.06880,2.90500,-4.42750,0.00000,0.02086,0.97319,-0.20032,2023,6,12,10,5,51,335
0.06890,3.02750,-4.77750,0.00000,0.02379,0.97210,-0.20203,2023,6,12,10,5,51,346
0.06900,2.99250,-4.56750,0.00000,0.02220,0.97027,-0.20032,2023,6,12,10,5,51,357
0.06910,2.92250,-4.76000,0.00000,0.02269,0.97295,-0.20228,2023,6,12,10,5,51,368
0.06920,3.15000,-4.53250,0.00000,0.02257,0.97088,-0.20240,2023,6,12,10,5,51,379
0.06930,2.97500,-4.69000,0.00000,0.02135,0.97441,-0.20154,2023,6,12,10,5,51,390
0.06940,3.16750,-4.65500,0.00000,0.02379,0.97197,-0.20374,2023,6,12,10,5,51,402
0.06950,2.95750,-4.35750,0.00000,0.02098,0.97466,-0.20276,2023,6,12,10,5,51,413
0.06960,3.09750,-4.67250,0.00000,0.02220,0.97100,-0.20093,2023,6,12,10,5,51,424
0.06970,2.97500,-4.49750,0.00000,0.02111,0.97185,-0.20106,2023,6,12,10,5,51,435
0.06980,2.81750,-4.53250,0.00000,0.01964,0.97490,-0.20130,2023,6,12,10,5,51,446
0.06990,3.09750,-4.79500,0.00000,0.02086,0.97271,-0.20081,2023,6,12,10,5,51,457
0.07000,2.95750,-4.49750,0.00000,0.02098,0.97332,-0.20240,2023,6,12,10,5,51,468
0.07010,3.04500,-4.58500,0.00000,0.02172,0.97417,-0.20081,2023,6,12,10,5,51,479
0.07020,2.99250,-4.77750,0.00000,0.02294,0.97344,-0.20228,2023,6,12,10,5,51,490
0.07030,2.95750,-4.70750,0.00000,0.02098,0.97124,-0.20106,2023,6,12,10,5,51,502
0.07040,3.22000,-4.67250,0.00000,0.02159,0.97588,-0.20020,2023,6,12,10,5,51,513
0.07050,2.99250,-4.81250,0.00000,0.02037,0.97173,-0.20386,2023,6,12,10,5,51,524
0.07060,3.09750,-4.55000,0.00000,0.01940,0.97283,-0.20398,2023,6,12,10,5,51,535
0.07070,2.87000,-4.55000,0.00000,0.02025,0.97393,-0.19849,2023,6,12,10,5,51,546
0.07080,2.94000,-4.69000,0.00000,0.02245,0.97210,-0.20118,2023,6,12,10,5,51,557
0.07090,2.90500,-4.56750,0.00000,0.02245,0.97429,-0.20093,2023,6,12,10,5,51,568
0.07100,3.06250,-4.62000,0.00000,0.02001,0.97417,-0.20215,2023,6,12,10,5,51,579
0.07110,3.09750,-4.42750,0.00000,0.02257,0.97136,-0.20252,2023,6,12,10,5,51,590
0.07120,2.97500,-4.58500,0.00000,0.02147,0.97283,-0.20191,2023,6,12,10,5,51,602
0.07130,2.99250,-4.62000,0.00000,0.02050,0.97344,-0.20191,2023,6,12,10,5,51,613
0.07140,3.15000,-4.79500,0.00000,0.02098,0.97271,-0.20459,2023,6,12,10,5,51,624
0.07150,2.92250,-4.58500,0.00000,0.02245,0.97307,-0.20130,2023,6,12,10,5,51,635
0.07160,2.99250,-4.58500,0.00000,0.02196,0.97393,-0.20069,2023,6,12,10,5,51,646
0.07170,2.97500,-4.74250,0.00000,0.02269,0.97319,-0.20142,2023,6,12,10,5,51,657
0.07180,3.06250,-4.72500,0.00000,0.02281,0.97185,-0.20179,2023,6,12,10,5,51,668
0.07190,3.04500,-4.67250,0.00000,0.01879,0.97234,-0.20325,2023,6,12,10,5,51,679
0.07200,3.22000,-4.72500,0.00000,0.02184,0.97295,-0.20252,2023,6,12,10,5,51,690
0.07210,3.16750,-4.39250,0.00000,0.02123,0.97197,-0.19910,2023,6,12,10,5,51,702
0.07220,2.74750,-4.41000,0.00000,0.02135,0.97319,-0.20252,2023,6,12,10,5,51,713
0.07230,3.08000,-4.51500,0.00000,0.02184,0.97222,-0.20289,2023,6,12,10,5,51,724
0.07240,2.99250,-4.76000,0.00000,0.02355,0.97124,-0.20069,2023,6,12,10,5,51,735
0.07250,2.97500,-4.69000,0.00000,0.01940,0.97112,-0.19910,2023,6,12,10,5,51,746
0.07260,2.99250,-4.60250,0.00000,0.02037,0.97393,-0.19959,2023,6,12,10,5,51,757
0.07270,3.01000,-4.46250,0.00000,0.02123,0.97393,-0.20167,2023,6,12,10,5,51,768
0.07280,3.22000,-4.88250,0.00000,0.02391,0.97222,-0.20106,2023,6,12,10,5,51,779
0.07290,3.04500,-4.65500,0.00000,0.02318,0.97612,-0.20289,2023,6,12,10,5,51,790
0.07300,3.01000,-4.51500,0.00000,0.02086,0.97344,-0.20045,2023,6,12,10,5,51,802
0.07310,3.02750,-4.83000,0.00000,0.02086,0.97210,-0.20313,2023,6,12,10,5,51,813
0.07320,2.92250,-4.49750,0.00000,0.02184,0.97380,-0.20179,2023,6,12,10,5,51,824
0.07330,3.02750,-4.58500,0.00000,0.02220,0.97344,-0.20179,2023,6,12,10,5,51,835
0.07340,3.01000,-4.58500,0.00000,0.02135,0.97319,-0.20276,2023,6,12,10,5,51,846
0.07350,3.06250,-4.79500,0.00000,0.01867,0.97234,-0.20252,2023,6,12,10,5,51,857
0.07360,2.95750,-4.56750,0.00000,0.02147,0.97149,-0.19935,2023,6,12,10,5,51,868
0.07370,2.87000,-4.63750,0.00000,0.02379,0.97332,-0.20215,2023,6,12,10,5,51,879
0.07380,2.95750,-4.58500,0.00000,0.02074,0.97136,-0.20167,2023,6,12,10,5,51,890
0.07390,3.09750,-4.63750,0.00000,0.01989,0.97283,-0.20093,2023,6,12,10,5,51,902
0.07400,2.88750,-4.74250,0.00000,0.02245,0.97271,-0.20215,2023,6,12,10,5,51,913
0.07410,2.97500,-4.46250,0.00000,0.02245,0.97234,-0.20459,2023,6,12,10,5,51,924
0.07420,2.99250,-4.67250,0.00000,0.02159,0.97295,-0.20020,2023,6,12,10,5,51,935
0.07430,2.94000,-4.60250,0.00000,0.02050,0.97368,-0.20057,2023,6,12,10,5,51,946
0.07440,2.95750,-4.51500,0.00000,0.02403,0.97185,-0.20240,2023,6,12,10,5,51,957
0.07450,2.88750,-4.48000,0.00000,0.02111,0.97405,-0.20398,2023,6,12,10,5,51,968
0.07460,2.95750,-4.48000,0.00000,0.02269,0.97295,-0.20252,2023,6,12,10,5,52,9
0.07470,3.06250,-4.77750,0.00000,0.02257,0.97441,-0.20154,2023,6,12,10,5,52,20
0.07480,3.06250,-4.60250,0.00000,0.02001,0.97210,-0.20045,2023,6,12,10,5,52,32
0.07490,3.16750,-4.69000,0.00000,0.02159,0.97356,-0.20240,2023,6,12,10,5,52,43
0.07500,2.71250,-4.60250,0.00000,0.02074,0.97319,-0.20215,2023,6,12,10,5,52,54
0.07510,2.92250,-4.65500,0.00000,0.02062,0.97124,-0.19837,2023,6,12,10,5,52,65
0.07520,3.09750,-4.72500,0.00000,0.02062,0.97161,-0.20301,2023,6,12,10,5,52,76
0.07530,3.02750,-4.67250,0.00000,0.02184,0.97246,-0.20020,2023,6,12,10,5,52,87
0.07540,2.97500,-4.56750,0.00000,0.02196,0.97283,-0.20167,2023,6,12,10,5,52,98
0.07550,2.87000,-4.60250,0.00000,0.02123,0.97332,-0.20215,2023,6,12,10,5,52,109
0.07560,2.95750,-4.60250,0.00000,0.02147,0.97319,-0.20228,2023,6,12,10,5,52,120
0.07570,3.04500,-4.62000,0.00000,0.01867,0.97380,-0.20069,2023,6,12,10,5,52,132
0.07580,2.92250,-4.65500,0.00000,0.02269,0.97149,-0.20106,2023,6,12,10,5,52,143
0.07590,3.08000,-4.56750,0.00000,0.02135,0.97527,-0.19935,2023,6,12,10,5,52,154
0.07600,3.08000,-4.60250,0.00000,0.02172,0.97222,-0.20179,2023,6,12,10,5,52,165
0.07610,2.92250,-4.49750,0.00000,0.02013,0.97368,-0.19959,2023,6,12,10,5,52,176
0.07620,2.90500,-4.74250,0.00000,0.02318,0.97429,-0.20276,2023,6,12,10,5,52,187
0.07630,2.90500,-4.53250,0.00000,0.02159,0.97258,-0.20154,2023,6,12,10,5,52,198
0.07640,3.06250,-4.53250,0.00000,0.02111,0.97368,-0.20252,2023,6,12,10,5,52,209
0.07650,3.11500,-4.58500,0.00000,0.02074,0.97466,-0.20240,2023,6,12,10,5,52,220
0.07660,2.90500,-4.60250,0.00000,0.02172,0.97356,-0.20118,2023,6,12,10,5,52,232
0.07670,2.87000,-4.67250,0.00000,0.02123,0.97088,-0.19801,2023,6,12,10,5,52,243
0.07680,2.95750,-4.35750,0.00000,0.02379,0.97234,-0.20386,2023,6,12,10,5,52,254
0.07690,3.09750,-4.74250,0.00000,0.02050,0.97197,-0.20118,2023,6,12,10,5,52,265
0.07700,2.88750,-4.39250,0.00000,0.02233,0.97307,-0.20179,2023,6,12,10,5,52,276
0.07710,2.92250,-4.32250,0.00000,0.02306,0.97185,-0.20069,2023,6,12,10,5,52,287
0.07720,3.02750,-4.74250,0.00000,0.02184,0.97527,-0.20179,2023,6,12,10,5,52,298
0.07730,2.80000,-4.44500,0.00000,0.02208,0.97441,-0.20130,2023,6,12,10,5,52,309
0.07740,3.08000,-4.70750,0.00000,0.02147,0.97344,-0.20154,2023,6,12,10,5,52,320
0.07750,3.15000,-4.74250,0.00000,0.02062,0.97405,-0.20057,2023,6,12,10,5,52,332
0.07760,2.97500,-4.56750,0.00000,0.02037,0.97393,-0.20203,2023,6,12,10,5,52,343
0.07770,2.95750,-4.58500,0.00000,0.02001,0.97307,-0.20008,2023,6,12,10,5,52,354
0.07780,2.97500,-4.55000,0.00000,0.02367,0.97258,-0.19971,2023,6,12,10,5,52,365
0.07790,3.04500,-4.58500,0.00000,0.02269,0.97173,-0.20374,2023,6,12,10,5,52,376
0.07800,2.92250,-4.53250,0.00000,0.02123,0.97222,-0.20264,2023,6,12,10,5,52,387
0.07810,3.06250,-4.63750,0.00000,0.02245,0.97197,-0.20069,2023,6,12,10,5,52,398
0.07820,2.95750,-4.63750,0.00000,0.02062,0.97173,-0.19947,2023,6,12,10,5,52,409
0.07830,3.08000,-4.55000,0.00000,0.02159,0.97454,-0.20289,2023,6,12,10,5,52,420
0.07840,2.99250,-4.69000,0.00000,0.02184,0.97283,-0.20191,2023,6,12,10,5,52,432
0.07850,2.94000,-4.51500,0.00000,0.02086,0.97332,-0.20203,2023,6,12,10,5,52,443
0.07860,2.92250,-4.49750,0.00000,0.02037,0.97234,-0.20130,2023,6,12,10,5,52,454
0.07870,3.09750,-4.46250,0.00000,0.02233,0.97234,-0.20142,2023,6,12,10,5,52,465
0.07880,3.06250,-4.62000,0.00000,0.02111,0.97295,-0.20045,2023,6,12,10,5,52,476
0.07890,3.08000,-4.62000,0.00000,0.02025,0.97173,-0.20106,2023,6,12,10,5,52,487
0.07900,3.01000,-4.62000,0.00000,0.02281,0.97356,-0.20301,2023,6,12,10,5,52,498
0.07910,2.94000,-4.63750,0.00000,0.02147,0.97502,-0.19898,2023,6,12,10,5,52,509
0.07920,3.02750,-4.60250,0.00000,0.01964,0.97124,-0.19776,2023,6,12,10,5,52,520
0.07930,3.08000,-4.83000,0.00000,0.02086,0.97368,-0.20191,2023,6,12,10,5,52,532
0.07940,2.90500,-4.48000,0.00000,0.02208,0.97051,-0.20130,2023,6,12,10,5,52,543
0.07950,2.99250,-4.55000,0.00000,0.02318,0.97295,-0.20240,2023,6,12,10,5,52,554
0.07960,3.02750,-4.49750,0.00000,0.02147,0.97441,-0.20154,2023,6,12,10,5,52,565
0.07970,2.90500,-4.60250,0.00000,0.02123,0.97185,-0.20203,2023,6,12,10,5,52,576
0.07980,3.11500,-4.70750,0.00000,0.02367,0.97466,-0.19935,2023,6,12,10,5,52,587
0.07990,3.02750,-4.63750,0.00000,0.02074,0.97246,-0.20289,2023,6,12,10,5,52,598
0.08000,3.02750,-4.48000,0.00000,0.02074,0.97100,-0.19740,2023,6,12,10,5,52,609
0.08010,2.97500,-4.49750,0.00000,0.01964,0.97307,-0.20191,2023,6,12,10,5,52,620
0.08020,2.80000,-4.41000,0.00000,0.02220,0.97319,-0.20276,2023,6,12,10,5,52,632
0.08030,3.04500,-4.63750,0.00000,0.02074,0.97185,-0.20106,2023,6,12,10,5,52,643
0.08040,2.99250,-4.39250,0.00000,0.02172,0.97246,-0.19984,2023,6,12,10,5,52,654
0.08050,2.97500,-4.49750,0.00000,0.02050,0.97478,-0.19996,2023,6,12,10,5,52,665
0.08060,3.08000,-4.79500,0.00000,0.01940,0.97161,-0.20398,2023,6,12,10,5,52,676
0.08070,2.80000,-4.58500,0.00000,0.02098,0.97197,-0.20045,2023,6,12,10,5,52,687
0.08080,3.13250,-4.60250,0.00000,0.02208,0.97417,-0.20106,2023,6,12,10,5,52,698
0.08090,2.99250,-4.60250,0.00000,0.02172,0.97295,-0.19923,2023,6,12,10,5,52,709
0.08100,2.94000,-4.60250,0.00000,0.02159,0.97417,-0.20313,2023,6,12,10,5,52,720
0.08110,2.99250,-4.46250,0.00000,0.02294,0.97246,-0.20130,2023,6,12,10,5,52,732
0.08120,2.85250,-4.53250,0.00000,0.02184,0.97222,-0.20130,2023,6,12,10,5,52,743
0.08130,3.04500,-4.55000,0.00000,0.02220,0.97283,-0.20203,2023,6,12,10,5,52,754
0.08140,2.97500,-4.70750,0.00000,0.02318,0.97332,-0.20301,2023,6,12,10,5,52,765
0.08150,3.09750,-4.67250,0.00000,0.02281,0.97234,-0.20191,2023,6,12,10,5,52,776
0.08160,3.04500,-4.62000,0.00000,0.02403,0.97185,-0.20179,2023,6,12,10,5,52,787
0.08170,2.99250,-4.49750,0.00000,0.02111,0.97429,-0.20167,2023,6,12,10,5,52,798
0.08180,2.99250,-4.53250,0.00000,0.02233,0.97295,-0.20191,2023,6,12,10,5,52,809
0.08190,3.02750,-4.55000,0.00000,0.02172,0.97356,-0.20093,2023,6,12,10,5,52,820
0.08200,2.92250,-4.65500,0.00000,0.01952,0.97356,-0.20337,2023,6,12,10,5,52,832
0.08210,2.99250,-4.65500,0.00000,0.02269,0.97197,-0.20130,2023,6,12,10,5,52,843
0.08220,2.97500,-4.42750,0.00000,0.02135,0.97124,-0.20032,2023,6,12,10,5,52,854
0.08230,3.11500,-4.72500,0.00000,0.02184,0.97161,-0.20130,2023,6,12,10,5,52,865
0.08240,3.01000,-4.55000,0.00000,0.02013,0.97319,-0.19898,2023,6,12,10,5,52,876
0.08250,2.92250,-4.37500,0.00000,0.02306,0.97393,-0.20337,2023,6,12,10,5,52,887
0.08260,2.95750,-4.42750,0.00000,0.02111,0.97417,-0.20215,2023,6,12,10,5,52,898
0.08270,3.04500,-4.51500,0.00000,0.02306,0.97344,-0.19886,2023,6,12,10,5,52,909
0.08280,2.87000,-4.53250,0.00000,0.02440,0.97454,-0.19959,2023,6,12,10,5,52,920
0.08290,2.92250,-4.63750,0.00000,0.02037,0.97332,-0.20411,2023,6,12,10,5,52,932
0.08300,3.06250,-4.95250,0.00000,0.02159,0.97271,-0.20093,2023,6,12,10,5,52,943
0.08310,2.95750,-4.58500,0.00000,0.02025,0.97295,-0.20142,2023,6,12,10,5,52,954
0.08320,3.02750,-4.74250,0.00000,0.02147,0.97149,-0.19947,2023,6,12,10,5,52,965
0.08330,3.13250,-4.42750,0.00000,0.02172,0.97380,-0.20142,2023,6,12,10,5,53,6
0.08340,3.08000,-4.65500,0.00000,0.02086,0.97429,-0.20350,2023,6,12,10,5,53,17
0.08350,2.95750,-4.51500,0.00000,0.02159,0.97234,-0.20289,2023,6,12,10,5,53,28
0.08360,2.99250,-4.76000,0.00000,0.02220,0.97319,-0.20118,2023,6,12,10,5,53,39
0.08370,3.01000,-4.65500,0.00000,0.02330,0.96844,-0.20130,2023,6,12,10,5,53,50
0.08380,2.87000,-4.55000,0.00000,0.02147,0.97271,-0.20081,2023,6,12,10,5,53,62
0.08390,2.95750,-4.65500,0.00000,0.02086,0.97368,-0.20289,2023,6,12,10,5,53,73
0.08400,3.18500,-4.56750,0.00000,0.02037,0.97380,-0.20142,2023,6,12,10,5,53,84
0.08410,2.97500,-4.55000,0.00000,0.02013,0.97295,-0.20106,2023,6,12,10,5,53,95
0.08420,3.02750,-4.58500,0.00000,0.02208,0.97295,-0.20264,2023,6,12,10,5,53,106
0.08430,2.78250,-4.30500,0.00000,0.02428,0.97271,-0.20130,2023,6,12,10,5,53,117
0.08440,3.02750,-4.65500,0.00000,0.02318,0.97271,-0.20154,2023,6,12,10,5,53,128
0.08450,2.92250,-4.51500,0.00000,0.02220,0.97307,-0.20191,2023,6,12,10,5,53,139
0.08460,3.06250,-4.65500,0.00000,0.02111,0.97149,-0.20240,2023,6,12,10,5,53,150
0.08470,2.97500,-4.72500,0.00000,0.02098,0.97295,-0.20045,2023,6,12,10,5,53,162
0.08480,2.94000,-4.76000,0.00000,0.02367,0.97344,-0.20472,2023,6,12,10,5,53,173
0.08490,3.08000,-4.56750,0.00000,0.02233,0.97380,-0.20081,2023,6,12,10,5,53,184
0.08500,2.99250,-4.53250,0.00000,0.02135,0.97295,-0.20203,2023,6,12,10,5,53,195
0.08510,3.22000,-4.79500,0.00000,0.02330,0.97332,-0.20411,2023,6,12,10,5,53,206
0.08520,2.74750,-4.46250,0.00000,0.01928,0.97222,-0.20240,2023,6,12,10,5,53,217
0.08530,2.83500,-4.65500,0.00000,0.02013,0.97088,-0.20362,2023,6,12,10,5,53,228
0.08540,3.15000,-4.76000,0.00000,0.02184,0.97246,-0.20167,2023,6,12,10,5,53,239
0.08550,3.02750,-4.51500,0.00000,0.02001,0.97307,-0.20240,2023,6,12,10,5,53,250
0.08560,2.87000,-4.49750,0.00000,0.02147,0.97380,-0.20264,2023,6,12,10,5,53,262
0.08570,3.18500,-4.70750,0.00000,0.02025,0.97344,-0.20069,2023,6,12,10,5,53,273
0.08580,3.01000,-4.63750,0.00000,0.02111,0.97332,-0.19837,2023,6,12,10,5,53,284
0.08590,2.90500,-4.53250,0.00000,0.02111,0.97222,-0.20045,2023,6,12,10,5,53,295
0.08600,3.06250,-4.76000,0.00000,0.01903,0.97271,-0.20081,2023,6,12,10,5,53,306
0.08610,3.09750,-4.53250,0.00000,0.02159,0.97441,-0.20057,2023,6,12,10,5,53,317
0.08620,2.83500,-4.46250,0.00000,0.01964,0.97271,-0.20045,2023,6,12,10,5,53,328
0.08630,2.90500,-4.39250,0.00000,0.02123,0.97185,-0.20215,2023,6,12,10,5,53,339
0.08640,3.04500,-4.65500,0.00000,0.02025,0.97039,-0.20106,2023,6,12,10,5,53,350
0.08650,3.11500,-4.53250,0.00000,0.02159,0.97283,-0.20447,2023,6,12,10,5,53,362
0.08660,2.88750,-4.42750,0.00000,0.02489,0.97307,-0.20118,2023,6,12,10,5,53,373
0.08670,2.88750,-4.46250,0.00000,0.02111,0.97234,-0.20020,2023,6,12,10,5,53,384
0.08680,3.06250,-4.72500,0.00000,0.02184,0.97185,-0.20118,2023,6,12,10,5,53,395
0.08690,3.08000,-4.56750,0.00000,0.02123,0.97210,-0.20386,2023,6,12,10,5,53,406
0.08700,2.99250,-4.60250,0.00000,0.02342,0.97222,-0.20533,2023,6,12,10,5,53,417
0.08710,3.02750,-4.46250,0.00000,0.02367,0.97100,-0.20142,2023,6,12,10,5,53,428
0.08720,3.13250,-4.55000,0.00000,0.02184,0.97405,-0.20240,2023,6,12,10,5,53,439
0.08730,2.92250,-4.72500,0.00000,0.02281,0.97173,-0.20252,2023,6,12,10,5,53,450
0.08740,2.97500,-4.37500,0.00000,0.02245,0.97637,-0.20203,2023,6,12,10,5,53,462
0.08750,3.06250,-4.41000,0.00000,0.02196,0.97429,-0.20167,2023,6,12,10,5,53,473
0.08760,3.02750,-4.74250,0.00000,0.02208,0.97356,-0.20118,2023,6,12,10,5,53,484
0.08770,2.95750,-4.69000,0.00000,0.02294,0.97063,-0.20276,2023,6,12,10,5,53,495
0.08780,3.04500,-4.67250,0.00000,0.02233,0.97307,-0.20118,2023,6,12,10,5,53,506
0.08790,2.94000,-4.63750,0.00000,0.02233,0.97185,-0.20106,2023,6,12,10,5,53,517
0.08800,2.95750,-4.60250,0.00000,0.02196,0.97502,-0.20240,2023,6,12,10,5,53,528
0.08810,2.95750,-4.56750,0.00000,0.01989,0.97502,-0.20289,2023,6,12,10,5,53,539
0.08820,3.20250,-4.74250,0.00000,0.02172,0.97478,-0.20252,2023,6,12,10,5,53,550
0.08830,2.87000,-4.58500,0.00000,0.02062,0.97161,-0.20203,2023,6,12,10,5,53,562
0.08840,2.87000,-4.67250,0.00000,0.02184,0.97344,-0.20325,2023,6,12,10,5,53,573
0.08850,2.74750,-4.37500,0.00000,0.02013,0.97319,-0.20081,2023,6,12,10,5,53,584
0.08860,2.94000,-4.72500,0.00000,0.02379,0.97478,-0.20191,2023,6,12,10,5,53,595
0.08870,3.04500,-4.62000,0.00000,0.02135,0.97234,-0.20154,2023,6,12,10,5,53,606
0.08880,2.97500,-4.53250,0.00000,0.02135,0.97319,-0.20240,2023,6,12,10,5,53,617
0.08890,2.94000,-4.67250,0.00000,0.02111,0.97393,-0.20057,2023,6,12,10,5,53,628
0.08900,2.94000,-4.69000,0.00000,0.02233,0.97307,-0.20301,2023,6,12,10,5,53,639
0.08910,2.99250,-4.62000,0.00000,0.02086,0.97295,-0.20240,2023,6,12,10,5,53,650
0.08920,2.90500,-4.48000,0.00000,0.02147,0.97380,-0.19862,2023,6,12,10,5,53,662
0.08930,2.92250,-4.70750,0.00000,0.02135,0.97258,-0.20203,2023,6,12,10,5,53,673
0.08940,3.04500,-4.58500,0.00000,0.02172,0.97197,-0.20106,2023,6,12,10,5,53,684
0.08950,3.09750,-4.53250,0.00000,0.02220,0.97234,-0.19862,2023,6,12,10,5,53,695
0.08960,3.02750,-4.56750,0.00000,0.02086,0.97002,-0.20215,2023,6,12,10,5,53,706
0.08970,2.92250,-4.63750,0.00000,0.01964,0.97258,-0.20252,2023,6,12,10,5,53,717
0.08980,2.90500,-4.51500,0.00000,0.02379,0.97185,-0.20325,2023,6,12,10,5,53,728
0.08990,2.92250,-4.69000,0.00000,0.02306,0.97283,-0.20240,2023,6,12,10,5,53,739
0.09000,2.85250,-4.55000,0.00000,0.02196,0.97161,-0.20167,2023,6,12,10,5,53,750
0.09010,3.09750,-4.46250,0.00000,0.02245,0.97380,-0.20154,2023,6,12,10,5,53,762
0.09020,3.04500,-4.63750,0.00000,0.02098,0.97490,-0.20313,2023,6,12,10,5,53,773
0.09030,3.09750,-4.56750,0.00000,0.02318,0.97380,-0.20167,2023,6,12,10,5,53,784
0.09040,3.01000,-4.74250,0.00000,0.02111,0.97112,-0.20032,2023,6,12,10,5,53,795
0.09050,2.95750,-4.44500,0.00000,0.02220,0.97124,-0.20520,2023,6,12,10,5,53,806
0.09060,3.16750,-4.67250,0.00000,0.02147,0.97551,-0.20350,2023,6,12,10,5,53,817
0.09070,3.02750,-4.91750,0.00000,0.02196,0.97344,-0.20313,2023,6,12,10,5,53,828
0.09080,3.13250,-4.60250,0.00000,0.02001,0.97356,-0.20179,2023,6,12,10,5,53,839
0.09090,2.99250,-4.74250,0.00000,0.02050,0.97271,-0.20264,2023,6,12,10,5,53,850
0.09100,2.94000,-4.55000,0.00000,0.02172,0.97332,-0.20435,2023,6,12,10,5,53,862
0.09110,2.94000,-4.49750,0.00000,0.02135,0.97124,-0.20362,2023,6,12,10,5,53,873
0.09120,3.11500,-4.67250,0.00000,0.02135,0.97258,-0.20337,2023,6,12,10,5,53,884
0.09130,3.08000,-4.53250,0.00000,0.02172,0.97149,-0.20728,2023,6,12,10,5,53,895
0.09140,2.83500,-4.28750,0.00000,0.02135,0.97466,-0.20240,2023,6,12,10,5,53,906
0.09150,2.90500,-4.49750,0.00000,0.01964,0.97258,-0.20484,2023,6,12,10,5,53,917
0.09160,3.13250,-4.81250,0.00000,0.02306,0.97405,-0.20472,2023,6,12,10,5,53,928
0.09170,2.73000,-4.49750,0.00000,0.01891,0.97295,-0.20533,2023,6,12,10,5,53,939
0.09180,2.90500,-4.51500,0.00000,0.02147,0.97356,-0.20301,2023,6,12,10,5,53,950
0.09190,2.97500,-4.58500,0.00000,0.02196,0.97344,-0.20423,2023,6,12,10,5,53,962
0.09200,2.90500,-4.63750,0.00000,0.01952,0.97539,-0.20459,2023,6,12,10,5,53,973
0.09210,3.02750,-4.58500,0.00000,0.02172,0.97185,-0.20337,2023,6,12,10,5,54,4
0.09220,3.04500,-4.76000,0.00000,0.02147,0.97429,-0.20496,2023,6,12,10,5,54,15
0.09230,2.87000,-4.53250,0.00000,0.02281,0.97405,-0.20447,2023,6,12,10,5,54,26
0.09240,3.23750,-4.39250,0.00000,0.02367,0.97124,-0.20411,2023,6,12,10,5,54,37
0.09250,3.04500,-4.56750,0.00000,0.02013,0.97332,-0.20337,2023,6,12,10,5,54,48
0.09260,2.87000,-4.44500,0.00000,0.02294,0.97234,-0.20167,2023,6,12,10,5,54,59
0.09270,3.11500,-4.44500,0.00000,0.02281,0.97136,-0.20350,2023,6,12,10,5,54,70
0.09280,2.83500,-4.56750,0.00000,0.02098,0.97393,-0.20008,2023,6,12,10,5,54,82
0.09290,2.90500,-4.23500,0.00000,0.02245,0.97185,-0.20020,2023,6,12,10,5,54,93
0.09300,3.04500,-4.60250,0.00000,0.01903,0.97161,-0.20313,2023,6,12,10,5,54,104
0.09310,2.97500,-4.62000,0.00000,0.02001,0.97283,-0.20533,2023,6,12,10,5,54,115
0.09320,2.95750,-4.46250,0.00000,0.01964,0.97246,-0.20374,2023,6,12,10,5,54,126
0.09330,3.06250,-4.48000,0.00000,0.02208,0.97173,-0.20325,2023,6,12,10,5,54,137
0.09340,2.94000,-4.69000,0.00000,0.02159,0.97454,-0.20447,2023,6,12,10,5,54,148
0.09350,2.81750,-4.32250,0.00000,0.02111,0.97405,-0.20484,2023,6,12,10,5,54,159
0.09360,2.94000,-4.53250,0.00000,0.02172,0.97332,-0.20398,2023,6,12,10,5,54,170
0.09370,3.04500,-4.83000,0.00000,0.02220,0.97246,-0.20081,2023,6,12,10,5,54,182
0.09380,2.90500,-4.42750,0.00000,0.02111,0.97173,-0.20423,2023,6,12,10,5,54,193
0.09390,2.95750,-4.53250,0.00000,0.02294,0.97344,-0.20362,2023,6,12,10,5,54,204
0.09400,3.06250,-4.55000,0.00000,0.02074,0.97356,-0.20093,2023,6,12,10,5,54,215
0.09410,3.01000,-4.51500,0.00000,0.02001,0.97136,-0.20252,2023,6,12,10,5,54,226
0.09420,3.04500,-4.58500,0.00000,0.02147,0.97283,-0.20398,2023,6,12,10,5,54,237
0.09430,2.87000,-4.49750,0.00000,0.02111,0.97173,-0.20106,2023,6,12,10,5,54,248
0.09440,3.11500,-4.48000,0.00000,0.01952,0.97478,-0.20520,2023,6,12,10,5,54,259
0.09450,3.09750,-4.84750,0.00000,0.02220,0.97417,-0.20215,2023,6,12,10,5,54,270
0.09460,2.95750,-4.55000,0.00000,0.02111,0.97063,-0.20191,2023,6,12,10,5,54,282
0.09470,2.97500,-4.74250,0.00000,0.02123,0.97222,-0.20215,2023,6,12,10,5,54,293
0.09480,2.95750,-4.67250,0.00000,0.02111,0.97332,-0.20179,2023,6,12,10,5,54,304
0.09490,3.01000,-4.42750,0.00000,0.02245,0.97161,-0.20106,2023,6,12,10,5,54,315
0.09500,3.08000,-4.49750,0.00000,0.02220,0.97356,-0.20106,2023,6,12,10,5,54,326
0.09510,3.04500,-4.42750,0.00000,0.01964,0.97295,-0.20081,2023,6,12,10,5,54,337
0.09520,3.06250,-4.60250,0.00000,0.02098,0.97258,-0.20008,2023,6,12,10,5,54,348
0.09530,3.08000,-4.63750,0.00000,0.01903,0.97197,-0.20203,2023,6,12,10,5,54,359
0.09540,2.88750,-4.42750,0.00000,0.02281,0.97271,-0.20142,2023,6,12,10,5,54,370
0.09550,2.92250,-4.41000,0.00000,0.02233,0.97295,-0.20435,2023,6,12,10,5,54,382
0.09560,3.08000,-4.67250,0.00000,0.02233,0.97222,-0.20093,2023,6,12,10,5,54,393
0.09570,2.88750,-4.58500,0.00000,0.02111,0.97295,-0.20118,2023,6,12,10,5,54,404
0.09580,3.13250,-4.51500,0.00000,0.02123,0.97234,-0.20179,2023,6,12,10,5,54,415
0.09590,2.95750,-4.44500,0.00000,0.02355,0.97185,-0.20313,2023,6,12,10,5,54,426
0.09600,2.97500,-4.44500,0.00000,0.02196,0.97307,-0.20350,2023,6,12,10,5,54,437
0.09610,3.06250,-4.44500,0.00000,0.02123,0.97283,-0.20081,2023,6,12,10,5,54,448
0.09620,2.95750,-4.42750,0.00000,0.01879,0.97490,-0.20154,2023,6,12,10,5,54,459
0.09630,3.08000,-4.81250,0.00000,0.02355,0.97551,-0.20264,2023,6,12,10,5,54,470
0.09640,2.95750,-4.69000,0.00000,0.02184,0.97429,-0.20252,2023,6,12,10,5,54,482
0.09650,2.90500,-4.69000,0.00000,0.02086,0.97417,-0.20301,2023,6,12,10,5,54,493
0.09660,2.94000,-4.35750,0.00000,0.02172,0.97210,-0.20423,2023,6,12,10,5,54,504
0.09670,3.09750,-4.86500,0.00000,0.01989,0.97307,-0.20179,2023,6,12,10,5,54,515
0.09680,2.99250,-4.41000,0.00000,0.02208,0.97051,-0.20472,2023,6,12,10,5,54,526
0.09690,3.15000,-4.69000,0.00000,0.02172,0.97295,-0.20154,2023,6,12,10,5,54,537
0.09700,2.97500,-4.51500,0.00000,0.02098,0.97307,-0.20386,2023,6,12,10,5,54,548
0.09710,3.18500,-4.65500,0.00000,0.02159,0.97380,-0.20386,2023,6,12,10,5,54,559
0.09720,2.99250,-4.53250,0.00000,0.02123,0.97380,-0.20508,2023,6,12,10,5,54,570
0.09730,3.08000,-4.58500,0.00000,0.02184,0.97246,-0.20154,2023,6,12,10,5,54,582
0.09740,2.90500,-4.37500,0.00000,0.02159,0.97405,-0.20350,2023,6,12,10,5,54,593
0.09750,2.83500,-4.53250,0.00000,0.02342,0.97307,-0.20350,2023,6,12,10,5,54,604
0.09760,2.95750,-4.53250,0.00000,0.02196,0.97344,-0.20362,2023,6,12,10,5,54,615
0.09770,2.90500,-4.60250,0.00000,0.02062,0.97149,-0.20215,2023,6,12,10,5,54,626
0.09780,3.04500,-4.70750,0.00000,0.02318,0.97197,-0.20228,2023,6,12,10,5,54,637
0.09790,2.90500,-4.51500,0.00000,0.02001,0.97551,-0.20362,2023,6,12,10,5,54,648
0.09800,2.80000,-4.48000,0.00000,0.02037,0.97295,-0.20191,2023,6,12,10,5,54,659
0.09810,2.95750,-4.49750,0.00000,0.02111,0.97246,-0.20337,2023,6,12,10,5,54,670
0.09820,2.99250,-4.46250,0.00000,0.01879,0.97136,-0.20325,2023,6,12,10,5,54,682
0.09830,2.99250,-4.41000,0.00000,0.02050,0.97283,-0.20301,2023,6,12,10,5,54,693
0.09840,3.09750,-4.51500,0.00000,0.02440,0.97185,-0.20118,2023,6,12,10,5,54,704
0.09850,3.15000,-4.62000,0.00000,0.02086,0.97295,-0.20142,2023,6,12,10,5,54,715
0.09860,2.92250,-4.30500,0.00000,0.02220,0.97234,-0.20203,2023,6,12,10,5,54,726
0.09870,3.16750,-4.56750,0.00000,0.02220,0.97393,-0.20386,2023,6,12,10,5,54,737
0.09880,2.92250,-4.69000,0.00000,0.02196,0.97283,-0.20142,2023,6,12,10,5,54,748
0.09890,2.95750,-4.37500,0.00000,0.02037,0.97173,-0.20008,2023,6,12,10,5,54,759
0.09900,2.97500,-4.56750,0.00000,0.02062,0.97197,-0.20179,2023,6,12,10,5,54,770
0.09910,3.01000,-4.49750,0.00000,0.02025,0.97063,-0.20325,2023,6,12,10,5,54,782
0.09920,2.95750,-4.51500,0.00000,0.01989,0.97161,-0.20301,2023,6,12,10,5,54,793
0.09930,3.08000,-4.53250,0.00000,0.01952,0.97124,-0.20240,2023,6,12,10,5,54,804
0.09940,2.97500,-4.72500,0.00000,0.02086,0.97600,-0.20362,2023,6,12,10,5,54,815
0.09950,3.02750,-4.44500,0.00000,0.02306,0.97344,-0.20154,2023,6,12,10,5,54,826
0.09960,3.02750,-4.58500,0.00000,0.02220,0.97161,-0.20386,2023,6,12,10,5,54,837
0.09970,2.97500,-4.44500,0.00000,0.02184,0.97368,-0.20496,2023,6,12,10,5,54,848
0.09980,2.87000,-4.58500,0.00000,0.02269,0.97576,-0.20581,2023,6,12,10,5,54,859
0.09990,3.22000,-4.60250,0.00000,0.02001,0.97344,-0.20386,2023,6,12,10,5,54,870
0.10000,2.87000,-4.76000,0.00000,0.01976,0.97344,-0.20081,2023,6,12,10,5,54,882
0.10010,3.01000,-4.49750,0.00000,0.02050,0.97283,-0.20228,2023,6,12,10,5,54,893
0.10020,3.01000,-4.74250,0.00000,0.02294,0.97210,-0.20435,2023,6,12,10,5,54,904
0.10030,3.02750,-4.46250,0.00000,0.02233,0.97356,-0.20167,2023,6,12,10,5,54,915
0.10040,2.99250,-4.58500,0.00000,0.02269,0.97271,-0.20203,2023,6,12,10,5,54,926
0.10050,3.06250,-4.65500,0.00000,0.02037,0.97234,-0.20203,2023,6,12,10,5,54,937
0.10060,3.09750,-4.42750,0.00000,0.02477,0.97088,-0.20093,2023,6,12,10,5,54,948
0.10070,3.01000,-4.72500,0.00000,0.02220,0.97490,-0.20215,2023,6,12,10,5,54,959
0.10080,3.06250,-4.34000,0.00000,0.02086,0.97234,-0.20179,2023,6,12,10,5,55,0
0.10090,2.83500,-4.48000,0.00000,0.02281,0.97441,-0.20106,2023,6,12,10,5,55,12
0.10100,3.02750,-4.62000,0.00000,0.02318,0.97161,-0.20069,2023,6,12,10,5,55,23
0.10110,3.15000,-4.58500,0.00000,0.02196,0.97393,-0.20228,2023,6,12,10,5,55,34
0.10120,2.97500,-4.42750,0.00000,0.02172,0.97258,-0.20167,2023,6,12,10,5,55,45
0.10130,2.99250,-4.56750,0.00000,0.02111,0.97405,-0.19971,2023,6,12,10,5,55,56
0.10140,2.92250,-4.60250,0.00000,0.02147,0.97271,-0.20435,2023,6,12,10,5,55,67
0.10150,2.83500,-4.41000,0.00000,0.02050,0.97429,-0.20203,2023,6,12,10,5,55,78
0.10160,2.80000,-4.55000,0.00000,0.02050,0.97307,-0.20240,2023,6,12,10,5,55,89
0.10170,2.85250,-4.53250,0.00000,0.02233,0.97197,-0.20276,2023,6,12,10,5,55,100
0.10180,3.11500,-4.72500,0.00000,0.02123,0.97234,-0.20276,2023,6,12,10,5,55,112
0.10190,3.27250,-4.69000,0.00000,0.02269,0.97295,-0.20032,2023,6,12,10,5,55,123
0.10200,3.02750,-4.62000,0.00000,0.02135,0.97466,-0.20313,2023,6,12,10,5,55,134
0.10210,2.94000,-4.53250,0.00000,0.01928,0.97283,-0.20081,2023,6,12,10,5,55,145
0.10220,2.94000,-4.72500,0.00000,0.02294,0.97405,-0.20215,2023,6,12,10,5,55,156
0.10230,2.97500,-4.67250,0.00000,0.02294,0.97246,-0.20337,2023,6,12,10,5,55,167
0.10240,2.94000,-4.53250,0.00000,0.02111,0.97332,-0.20240,2023,6,12,10,5,55,178
0.10250,2.92250,-4.46250,0.00000,0.02184,0.97441,-0.20203,2023,6,12,10,5,55,189
0.10260,3.15000,-4.58500,0.00000,0.02172,0.97319,-0.20130,2023,6,12,10,5,55,200
0.10270,3.01000,-4.44500,0.00000,0.02355,0.97283,-0.20289,2023,6,12,10,5,55,212
0.10280,2.74750,-4.56750,0.00000,0.01903,0.96978,-0.20142,2023,6,12,10,5,55,223
0.10290,2.94000,-4.58500,0.00000,0.02098,0.97417,-0.20228,2023,6,12,10,5,55,234
0.10300,3.01000,-4.60250,0.00000,0.02123,0.97368,-0.20386,2023,6,12,10,5,55,245
0.10310,2.97500,-4.55000,0.00000,0.01976,0.97368,-0.20032,2023,6,12,10,5,55,256
0.10320,2.90500,-4.56750,0.00000,0.02135,0.97258,-0.20240,2023,6,12,10,5,55,267
0.10330,2.94000,-4.76000,0.00000,0.02220,0.97210,-0.20191,2023,6,12,10,5,55,278
0.10340,3.04500,-4.55000,0.00000,0.02098,0.97234,-0.20313,2023,6,12,10,5,55,289
0.10350,3.13250,-4.44500,0.00000,0.01940,0.97600,-0.20032,2023,6,12,10,5,55,300
0.10360,2.90500,-4.42750,0.00000,0.02416,0.97624,-0.20130,2023,6,12,10,5,55,312
0.10370,3.06250,-4.58500,0.00000,0.01940,0.97429,-0.19959,2023,6,12,10,5,55,323
0.10380,2.97500,-4.63750,0.00000,0.02172,0.97490,-0.20435,2023,6,12,10,5,55,334
0.10390,3.06250,-4.41000,0.00000,0.02184,0.97344,-0.20362,2023,6,12,10,5,55,345
0.10400,3.01000,-4.62000,0.00000,0.02208,0.97441,-0.20142,2023,6,12,10,5,55,356
0.10410,2.94000,-4.48000,0.00000,0.02220,0.97295,-0.20191,2023,6,12,10,5,55,367
0.10420,3.06250,-4.62000,0.00000,0.01952,0.97271,-0.20142,2023,6,12,10,5,55,378
0.10430,2.87000,-4.41000,0.00000,0.02257,0.97429,-0.20459,2023,6,12,10,5,55,389
0.10440,2.90500,-4.74250,0.00000,0.01842,0.97405,-0.20203,2023,6,12,10,5,55,400
0.10450,2.95750,-4.48000,0.00000,0.02233,0.97356,-0.20264,2023,6,12,10,5,55,412
0.10460,2.92250,-4.69000,0.00000,0.02184,0.97112,-0.20106,2023,6,12,10,5,55,423
0.10470,2.92250,-4.56750,0.00000,0.02098,0.97417,-0.20130,2023,6,12,10,5,55,434
0.10480,2.99250,-4.65500,0.00000,0.02184,0.97405,-0.20167,2023,6,12,10,5,55,445
0.10490,2.97500,-4.69000,0.00000,0.02294,0.97271,-0.20167,2023,6,12,10,5,55,456
0.10500,2.97500,-4.77750,0.00000,0.02208,0.97368,-0.20276,2023,6,12,10,5,55,467
0.10510,3.08000,-4.74250,0.00000,0.02281,0.97295,-0.20362,2023,6,12,10,5,55,478
0.10520,3.08000,-4.58500,0.00000,0.02135,0.97136,-0.20215,2023,6,12,10,5,55,489
0.10530,2.99250,-4.56750,0.00000,0.02403,0.97319,-0.20228,2023,6,12,10,5,55,500
0.10540,2.94000,-4.48000,0.00000,0.02306,0.97319,-0.20240,2023,6,12,10,5,55,512
0.10550,3.06250,-4.83000,0.00000,0.02086,0.97307,-0.20472,2023,6,12,10,5,55,523
0.10560,2.92250,-4.53250,0.00000,0.02196,0.97210,-0.20325,2023,6,12,10,5,55,534
0.10570,2.83500,-4.70750,0.00000,0.02147,0.97210,-0.20386,2023,6,12,10,5,55,545
0.10580,2.92250,-4.65500,0.00000,0.02306,0.97149,-0.20398,2023,6,12,10,5,55,556
0.10590,3.20250,-4.37500,0.00000,0.02159,0.97234,-0.20240,2023,6,12,10,5,55,567
0.10600,2.97500,-4.63750,0.00000,0.02184,0.97319,-0.20240,2023,6,12,10,5,55,578
0.10610,2.87000,-4.60250,0.00000,0.02208,0.97527,-0.20252,2023,6,12,10,5,55,589
0.10620,2.99250,-4.55000,0.00000,0.02306,0.97295,-0.20508,2023,6,12,10,5,55,600
0.10630,3.04500,-4.84750,0.00000,0.01915,0.97295,-0.20289,2023,6,12,10,5,55,612
0.10640,2.94000,-4.60250,0.00000,0.02062,0.97405,-0.20252,2023,6,12,10,5,55,623
0.10650,3.08000,-4.46250,0.00000,0.01976,0.97283,-0.20203,2023,6,12,10,5,55,634
0.10660,3.20250,-4.69000,0.00000,0.02416,0.97295,-0.20581,2023,6,12,10,5,55,645
0.10670,2.92250,-4.42750,0.00000,0.02074,0.97600,-0.20240,2023,6,12,10,5,55,656
0.10680,3.06250,-4.49750,0.00000,0.02111,0.97344,-0.20203,2023,6,12,10,5,55,667
0.10690,2.81750,-4.46250,0.00000,0.02025,0.97161,-0.20167,2023,6,12,10,5,55,678
0.10700,3.13250,-4.72500,0.00000,0.02086,0.97380,-0.20557,2023,6,12,10,5,55,689
0.10710,3.06250,-4.53250,0.00000,0.02184,0.97246,-0.20545,2023,6,12,10,5,55,700
0.10720,3.06250,-4.77750,0.00000,0.02269,0.97502,-0.20106,2023,6,12,10,5,55,712
0.10730,3.13250,-4.65500,0.00000,0.02257,0.97307,-0.20411,2023,6,12,10,5,55,723
0.10740,2.99250,-4.42750,0.00000,0.02147,0.97319,-0.20337,2023,6,12,10,5,55,734
0.10750,3.01000,-4.77750,0.00000,0.02330,0.97393,-0.20154,2023,6,12,10,5,55,745
0.10760,2.88750,-4.72500,0.00000,0.02074,0.97222,-0.20350,2023,6,12,10,5,55,756
0.10770,3.01000,-4.51500,0.00000,0.01891,0.97319,-0.20411,2023,6,12,10,5,55,767
0.10780,2.81750,-4.48000,0.00000,0.02196,0.97271,-0.20472,2023,6,12,10,5,55,778
0.10790,3.01000,-4.53250,0.00000,0.02123,0.97441,-0.20447,2023,6,12,10,5,55,789
0.10800,2.99250,-4.65500,0.00000,0.02233,0.97173,-0.20606,2023,6,12,10,5,55,800
0.10810,3.01000,-4.55000,0.00000,0.02220,0.97222,-0.20386,2023,6,12,10,5,55,812
0.10820,3.02750,-4.69000,0.00000,0.02233,0.97210,-0.20642,2023,6,12,10,5,55,823
0.10830,2.95750,-4.72500,0.00000,0.02159,0.97246,-0.20667,2023,6,12,10,5,55,834
0.10840,2.81750,-4.62000,0.00000,0.02294,0.97197,-0.20313,2023,6,12,10,5,55,845
0.10850,2.95750,-4.41000,0.00000,0.02257,0.97405,-0.20374,2023,6,12,10,5,55,856
0.10860,3.13250,-4.70750,0.00000,0.02220,0.97222,-0.20691,2023,6,12,10,5,55,867
0.10870,3.13250,-4.49750,0.00000,0.02001,0.97539,-0.20398,2023,6,12,10,5,55,878
0.10880,3.01000,-4.48000,0.00000,0.02159,0.97222,-0.20264,2023,6,12,10,5,55,889
0.10890,2.99250,-4.67250,0.00000,0.02184,0.97222,-0.20264,2023,6,12,10,5,55,900
0.10900,2.99250,-4.49750,0.00000,0.02135,0.97234,-0.20594,2023,6,12,10,5,55,912
0.10910,2.95750,-4.60250,0.00000,0.02245,0.97258,-0.20520,2023,6,12,10,5,55,923
0.10920,3.16750,-4.67250,0.00000,0.02086,0.97173,-0.20459,2023,6,12,10,5,55,934
0.10930,2.87000,-4.69000,0.00000,0.02013,0.97258,-0.20398,2023,6,12,10,5,55,945
0.10940,3.04500,-4.58500,0.00000,0.02123,0.97319,-0.20642,2023,6,12,10,5,55,956
0.10950,2.85250,-4.72500,0.00000,0.02086,0.97283,-0.20447,2023,6,12,10,5,56,7
0.10960,2.71250,-4.49750,0.00000,0.02172,0.97344,-0.20411,2023,6,12,10,5,56,18
0.10970,3.09750,-4.62000,0.00000,0.02306,0.97258,-0.20496,2023,6,12,10,5,56,29
0.10980,3.01000,-4.35750,0.00000,0.02330,0.97173,-0.20642,2023,6,12,10,5,56,40
0.10990,2.92250,-4.35750,0.00000,0.02245,0.97319,-0.20447,2023,6,12,10,5,56,52
0.11000,2.95750,-4.56750,0.00000,0.01928,0.97136,-0.20435,2023,6,12,10,5,56,63
0.11010,2.92250,-4.46250,0.00000,0.02147,0.97185,-0.20557,2023,6,12,10,5,56,74
0.11020,2.92250,-4.55000,0.00000,0.02111,0.97271,-0.20398,2023,6,12,10,5,56,85
0.11030,3.16750,-4.91750,0.00000,0.01952,0.97185,-0.20398,2023,6,12,10,5,56,96
0.11040,2.94000,-4.51500,0.00000,0.02025,0.97576,-0.20374,2023,6,12,10,5,56,107
0.11050,2.88750,-4.72500,0.00000,0.02208,0.97295,-0.20533,2023,6,12,10,5,56,118
0.11060,3.20250,-4.41000,0.00000,0.02172,0.97258,-0.20411,2023,6,12,10,5,56,129
0.11070,3.08000,-4.58500,0.00000,0.02306,0.97600,-0.20289,2023,6,12,10,5,56,140
0.11080,3.04500,-4.62000,0.00000,0.02037,0.97380,-0.20203,2023,6,12,10,5,56,152
0.11090,2.92250,-4.63750,0.00000,0.02013,0.97344,-0.20423,2023,6,12,10,5,56,163
0.11100,3.22000,-4.58500,0.00000,0.02147,0.97210,-0.20093,2023,6,12,10,5,56,174
0.11110,3.02750,-4.74250,0.00000,0.02074,0.97624,-0.20374,2023,6,12,10,5,56,185
0.11120,3.01000,-4.55000,0.00000,0.02269,0.97210,-0.20215,2023,6,12,10,5,56,196
0.11130,3.01000,-4.83000,0.00000,0.02098,0.97283,-0.20106,2023,6,12,10,5,56,207
0.11140,3.01000,-4.74250,0.00000,0.02147,0.97149,-0.20435,2023,6,12,10,5,56,218
0.11150,3.06250,-4.77750,0.00000,0.02172,0.97441,-0.20252,2023,6,12,10,5,56,229
0.11160,3.04500,-4.74250,0.00000,0.02257,0.97197,-0.20252,2023,6,12,10,5,56,240
0.11170,2.90500,-4.60250,0.00000,0.02111,0.97051,-0.20252,2023,6,12,10,5,56,252
0.11180,2.80000,-4.51500,0.00000,0.02184,0.97149,-0.20374,2023,6,12,10,5,56,263
0.11190,3.16750,-4.65500,0.00000,0.01940,0.97307,-0.20179,2023,6,12,10,5,56,274
0.11200,2.90500,-4.69000,0.00000,0.02379,0.97088,-0.20240,2023,6,12,10,5,56,285
0.11210,3.32500,-4.51500,0.00000,0.02269,0.97490,-0.20337,2023,6,12,10,5,56,296
0.11220,3.01000,-4.56750,0.00000,0.02172,0.97319,-0.20215,2023,6,12,10,5,56,307
0.11230,2.81750,-4.49750,0.00000,0.02355,0.97405,-0.20142,2023,6,12,10,5,56,318
0.11240,2.97500,-4.42750,0.00000,0.02111,0.97576,-0.20240,2023,6,12,10,5,56,329
0.11250,3.01000,-4.62000,0.00000,0.02355,0.97417,-0.20167,2023,6,12,10,5,56,340
0.11260,3.06250,-4.79500,0.00000,0.02135,0.97258,-0.20069,2023,6,12,10,5,56,352
0.11270,2.90500,-4.30500,0.00000,0.02159,0.97185,-0.20215,2023,6,12,10,5,56,363
0.11280,3.08000,-4.60250,0.00000,0.02184,0.97210,-0.20032,2023,6,12,10,5,56,374
0.11290,3.11500,-4.58500,0.00000,0.02220,0.97454,-0.20520,2023,6,12,10,5,56,385
0.11300,3.08000,-4.70750,0.00000,0.02147,0.97246,-0.20167,2023,6,12,10,5,56,396
0.11310,2.87000,-4.53250,0.00000,0.02001,0.97417,-0.20203,2023,6,12,10,5,56,407
0.11320,2.92250,-4.65500,0.00000,0.02098,0.97295,-0.20228,2023,6,12,10,5,56,418
0.11330,3.02750,-4.49750,0.00000,0.02135,0.97210,-0.20276,2023,6,12,10,5,56,429
0.11340,3.06250,-4.49750,0.00000,0.02196,0.97393,-0.20386,2023,6,12,10,5,56,440
0.11350,2.88750,-4.55000,0.00000,0.02050,0.97234,-0.20252,2023,6,12,10,5,56,452
0.11360,2.88750,-4.65500,0.00000,0.02050,0.97136,-0.20533,2023,6,12,10,5,56,463
0.11370,3.06250,-4.97000,0.00000,0.02111,0.97210,-0.20435,2023,6,12,10,5,56,474
0.11380,2.97500,-4.42750,0.00000,0.02074,0.97307,-0.20276,2023,6,12,10,5,56,485
0.11390,2.99250,-4.55000,0.00000,0.01989,0.97258,-0.20374,2023,6,12,10,5,56,496
0.11400,2.81750,-4.72500,0.00000,0.02172,0.97258,-0.20447,2023,6,12,10,5,56,507
0.11410,2.83500,-4.60250,0.00000,0.02037,0.97124,-0.20215,2023,6,12,10,5,56,518
0.11420,3.09750,-4.44500,0.00000,0.02074,0.97185,-0.20179,2023,6,12,10,5,56,529
0.11430,2.88750,-4.65500,0.00000,0.02111,0.97478,-0.20411,2023,6,12,10,5,56,540
0.11440,3.01000,-4.70750,0.00000,0.01928,0.97502,-0.20618,2023,6,12,10,5,56,552
0.11450,2.88750,-4.39250,0.00000,0.02123,0.97429,-0.20337,2023,6,12,10,5,56,563
0.11460,2.85250,-4.32250,0.00000,0.02196,0.97393,-0.20581,2023,6,12,10,5,56,574
0.11470,3.02750,-4.55000,0.00000,0.01989,0.97161,-0.20606,2023,6,12,10,5,56,585
0.11480,2.78250,-4.62000,0.00000,0.02111,0.97210,-0.20264,2023,6,12,10,5,56,596
0.11490,3.04500,-4.55000,0.00000,0.02098,0.97185,-0.20374,2023,6,12,10,5,56,607
0.11500,2.90500,-4.60250,0.00000,0.02074,0.97234,-0.20228,2023,6,12,10,5,56,618
0.11510,2.92250,-4.35750,0.00000,0.02074,0.97185,-0.20252,2023,6,12,10,5,56,629
0.11520,2.88750,-4.58500,0.00000,0.02269,0.97368,-0.20142,2023,6,12,10,5,56,640
0.11530,3.02750,-4.74250,0.00000,0.02111,0.97197,-0.20313,2023,6,12,10,5,56,652
0.11540,2.99250,-4.65500,0.00000,0.02062,0.97466,-0.20301,2023,6,12,10,5,56,663
0.11550,2.94000,-4.53250,0.00000,0.02196,0.97539,-0.20374,2023,6,12,10,5,56,674
0.11560,3.15000,-4.62000,0.00000,0.02220,0.97466,-0.20520,2023,6,12,10,5,56,685
0.11570,3.02750,-4.32250,0.00000,0.02233,0.97490,-0.20398,2023,6,12,10,5,56,696
0.11580,2.95750,-4.32250,0.00000,0.02147,0.97429,-0.20179,2023,6,12,10,5,56,707
0.11590,3.01000,-4.55000,0.00000,0.02208,0.97051,-0.20191,2023,6,12,10,5,56,718
0.11600,3.04500,-4.55000,0.00000,0.02086,0.97393,-0.20374,2023,6,12,10,5,56,729
0.11610,3.02750,-4.60250,0.00000,0.02281,0.97380,-0.20411,2023,6,12,10,5,56,740
0.11620,2.92250,-4.58500,0.00000,0.02111,0.97332,-0.20411,2023,6,12,10,5,56,752
0.11630,2.83500,-4.55000,0.00000,0.02062,0.97319,-0.20093,2023,6,12,10,5,56,763
0.11640,2.99250,-4.60250,0.00000,0.02025,0.97454,-0.20203,2023,6,12,10,5,56,774
0.11650,2.90500,-4.49750,0.00000,0.02074,0.97356,-0.20289,2023,6,12,10,5,56,785
0.11660,3.20250,-4.63750,0.00000,0.02086,0.97344,-0.20301,2023,6,12,10,5,56,796
0.11670,3.01000,-4.46250,0.00000,0.02147,0.97319,-0.20459,2023,6,12,10,5,56,807
0.11680,2.94000,-4.32250,0.00000,0.02489,0.97258,-0.20215,2023,6,12,10,5,56,818
0.11690,2.90500,-4.58500,0.00000,0.02062,0.97380,-0.20447,2023,6,12,10,5,56,829
0.11700,3.06250,-4.60250,0.00000,0.02281,0.97454,-0.20423,2023,6,12,10,5,56,840
0.11710,2.95750,-4.55000,0.00000,0.02159,0.97136,-0.20191,2023,6,12,10,5,56,852
0.11720,3.13250,-4.56750,0.00000,0.02233,0.97405,-0.20472,2023,6,12,10,5,56,863
0.11730,3.01000,-4.51500,0.00000,0.02135,0.97344,-0.20374,2023,6,12,10,5,56,874
0.11740,2.85250,-4.63750,0.00000,0.02037,0.97088,-0.20142,2023,6,12,10,5,56,885
0.11750,3.16750,-4.41000,0.00000,0.02159,0.97271,-0.20240,2023,6,12,10,5,56,896
0.11760,3.08000,-4.77750,0.00000,0.02098,0.97393,-0.20655,2023,6,12,10,5,56,907
0.11770,2.88750,-4.48000,0.00000,0.02172,0.97283,-0.20130,2023,6,12,10,5,56,918
0.11780,2.88750,-4.56750,0.00000,0.02220,0.97124,-0.20228,2023,6,12,10,5,56,929
0.11790,3.02750,-4.69000,0.00000,0.02184,0.97246,-0.20398,2023,6,12,10,5,56,940
0.11800,2.95750,-4.62000,0.00000,0.02233,0.97271,-0.20350,2023,6,12,10,5,56,952
0.11810,2.81750,-4.55000,0.00000,0.01976,0.97222,-0.20301,2023,6,12,10,5,56,963
0.11820,2.99250,-4.49750,0.00000,0.02074,0.97283,-0.20252,2023,6,12,10,5,57,4
0.11830,2.71250,-4.46250,0.00000,0.02062,0.97234,-0.20557,2023,6,12,10,5,57,15
0.11840,2.95750,-4.46250,0.00000,0.02025,0.97295,-0.20325,2023,6,12,10,5,57,26
0.11850,2.90500,-4.70750,0.00000,0.02196,0.97161,-0.20386,2023,6,12,10,5,57,37
0.11860,2.92250,-4.67250,0.00000,0.02184,0.97185,-0.20179,2023,6,12,10,5,57,48
0.11870,2.92250,-4.56750,0.00000,0.02220,0.97246,-0.20411,2023,6,12,10,5,57,59
0.11880,3.09750,-4.70750,0.00000,0.02233,0.97356,-0.20398,2023,6,12,10,5,57,70
0.11890,2.85250,-4.60250,0.00000,0.02037,0.97283,-0.20215,2023,6,12,10,5,57,82
0.11900,3.13250,-4.79500,0.00000,0.02098,0.97197,-0.20106,2023,6,12,10,5,57,93
0.11910,2.94000,-4.32250,0.00000,0.02159,0.97405,-0.20337,2023,6,12,10,5,57,104
0.11920,2.87000,-4.41000,0.00000,0.01757,0.97295,-0.20472,2023,6,12,10,5,57,115
0.11930,2.94000,-4.49750,0.00000,0.02159,0.97319,-0.20240,2023,6,12,10,5,57,126
0.11940,2.99250,-4.70750,0.00000,0.02013,0.97197,-0.20276,2023,6,12,10,5,57,137
0.11950,3.04500,-4.60250,0.00000,0.02135,0.97307,-0.20374,2023,6,12,10,5,57,148
0.11960,3.02750,-4.60250,0.00000,0.02196,0.97380,-0.20594,2023,6,12,10,5,57,159
0.11970,2.81750,-4.60250,0.00000,0.02147,0.97149,-0.20289,2023,6,12,10,5,57,170
0.11980,3.04500,-4.55000,0.00000,0.02184,0.97185,-0.20447,2023,6,12,10,5,57,182
0.11990,2.97500,-4.53250,0.00000,0.02147,0.97271,-0.20106,2023,6,12,10,5,57,193
0.12000,2.90500,-4.46250,0.00000,0.02147,0.97283,-0.20472,2023,6,12,10,5,57,204
0.12010,2.97500,-4.63750,0.00000,0.02013,0.97197,-0.20374,2023,6,12,10,5,57,215
0.12020,3.09750,-4.62000,0.00000,0.02074,0.97051,-0.20508,2023,6,12,10,5,57,226
0.12030,2.92250,-4.67250,0.00000,0.02379,0.97344,-0.20496,2023,6,12,10,5,57,237
0.12040,2.78250,-4.49750,0.00000,0.02306,0.97210,-0.20301,2023,6,12,10,5,57,248
0.12050,3.02750,-4.49750,0.00000,0.02196,0.97100,-0.20325,2023,6,12,10,5,57,259
0.12060,3.08000,-4.62000,0.00000,0.02184,0.97149,-0.20435,2023,6,12,10,5,57,270
0.12070,2.80000,-4.60250,0.00000,0.02135,0.97307,-0.20276,2023,6,12,10,5,57,282
0.12080,2.83500,-4.63750,0.00000,0.02184,0.97393,-0.20374,2023,6,12,10,5,57,293
0.12090,2.97500,-4.62000,0.00000,0.02294,0.97405,-0.20569,2023,6,12,10,5,57,304
0.12100,2.99250,-4.55000,0.00000,0.02257,0.97307,-0.20496,2023,6,12,10,5,57,315
0.12110,3.06250,-4.56750,0.00000,0.02074,0.97344,-0.20569,2023,6,12,10,5,57,326
0.12120,3.08000,-4.58500,0.00000,0.01928,0.97271,-0.20337,2023,6,12,10,5,57,337
0.12130,3.02750,-4.63750,0.00000,0.01940,0.97527,-0.20325,2023,6,12,10,5,57,348
0.12140,2.92250,-4.53250,0.00000,0.02074,0.97356,-0.20325,2023,6,12,10,5,57,359
0.12150,3.16750,-4.69000,0.00000,0.02184,0.97100,-0.20520,2023,6,12,10,5,57,370
0.12160,2.99250,-4.58500,0.00000,0.02306,0.97417,-0.20533,2023,6,12,10,5,57,382
0.12170,2.95750,-4.55000,0.00000,0.02062,0.97515,-0.20545,2023,6,12,10,5,57,393
0.12180,3.16750,-4.70750,0.00000,0.01842,0.97319,-0.20484,2023,6,12,10,5,57,404
0.12190,2.95750,-4.58500,0.00000,0.02050,0.97319,-0.20508,2023,6,12,10,5,57,415
0.12200,3.06250,-4.76000,0.00000,0.02025,0.97258,-0.20386,2023,6,12,10,5,57,426
0.12210,2.74750,-4.56750,0.00000,0.02245,0.97271,-0.20655,2023,6,12,10,5,57,437
0.12220,2.85250,-4.48000,0.00000,0.02098,0.97222,-0.20423,2023,6,12,10,5,57,448
0.12230,3.01000,-4.46250,0.00000,0.02013,0.97332,-0.20276,2023,6,12,10,5,57,459
0.12240,3.16750,-4.58500,0.00000,0.02135,0.97551,-0.20508,2023,6,12,10,5,57,470
0.12250,2.99250,-4.46250,0.00000,0.02294,0.97515,-0.20618,2023,6,12,10,5,57,482
0.12260,3.04500,-4.56750,0.00000,0.02098,0.97307,-0.20496,2023,6,12,10,5,57,493
0.12270,3.08000,-4.56750,0.00000,0.02184,0.97515,-0.20447,2023,6,12,10,5,57,504
0.12280,3.01000,-4.58500,0.00000,0.01940,0.97210,-0.20337,2023,6,12,10,5,57,515
0.12290,3.08000,-4.62000,0.00000,0.02220,0.97185,-0.20398,2023,6,12,10,5,57,526
0.12300,2.90500,-4.41000,0.00000,0.02147,0.97063,-0.20508,2023,6,12,10,5,57,537
0.12310,3.06250,-4.56750,0.00000,0.02172,0.97527,-0.20191,2023,6,12,10,5,57,548
0.12320,2.95750,-4.74250,0.00000,0.02281,0.97161,-0.20545,2023,6,12,10,5,57,559
0.12330,2.92250,-4.58500,0.00000,0.02184,0.97246,-0.20325,2023,6,12,10,5,57,570
0.12340,2.81750,-4.53250,0.00000,0.02220,0.97332,-0.20289,2023,6,12,10,5,57,582
0.12350,2.85250,-4.77750,0.00000,0.02330,0.97332,-0.20301,2023,6,12,10,5,57,593
0.12360,2.94000,-4.42750,0.00000,0.02294,0.97332,-0.20313,2023,6,12,10,5,57,604
0.12370,2.95750,-4.70750,0.00000,0.02172,0.97246,-0.20533,2023,6,12,10,5,57,615
0.12380,2.83500,-4.55000,0.00000,0.02379,0.97185,-0.20276,2023,6,12,10,5,57,626
0.12390,2.95750,-4.74250,0.00000,0.02281,0.97344,-0.20130,2023,6,12,10,5,57,637
0.12400,2.83500,-4.49750,0.00000,0.02233,0.97393,-0.20337,2023,6,12,10,5,57,648
0.12410,3.04500,-4.72500,0.00000,0.02086,0.97454,-0.20276,2023,6,12,10,5,57,659
0.12420,3.04500,-4.56750,0.00000,0.02013,0.97271,-0.20240,2023,6,12,10,5,57,670
0.12430,2.90500,-4.53250,0.00000,0.02050,0.97344,-0.20215,2023,6,12,10,5,57,682
0.12440,3.04500,-4.67250,0.00000,0.02147,0.97307,-0.20594,2023,6,12,10,5,57,693
0.12450,2.81750,-4.32250,0.00000,0.02025,0.97246,-0.20313,2023,6,12,10,5,57,704
0.12460,3.04500,-4.39250,0.00000,0.02367,0.97332,-0.20093,2023,6,12,10,5,57,715
0.12470,3.15000,-4.81250,0.00000,0.02025,0.97100,-0.20545,2023,6,12,10,5,57,726
0.12480,2.97500,-4.55000,0.00000,0.02269,0.97478,-0.20325,2023,6,12,10,5,57,737
0.12490,3.06250,-4.60250,0.00000,0.02123,0.97222,-0.20289,2023,6,12,10,5,57,748
0.12500,2.85250,-4.28750,0.00000,0.02062,0.97112,-0.20252,2023,6,12,10,5,57,759
0.12510,2.94000,-4.65500,0.00000,0.02086,0.97405,-0.20081,2023,6,12,10,5,57,770
0.12520,2.87000,-4.83000,0.00000,0.02233,0.97258,-0.20240,2023,6,12,10,5,57,782
0.12530,2.92250,-4.74250,0.00000,0.02098,0.97307,-0.20252,2023,6,12,10,5,57,793
0.12540,2.92250,-4.44500,0.00000,0.02257,0.97368,-0.20350,2023,6,12,10,5,57,804
0.12550,2.94000,-4.77750,0.00000,0.02391,0.97405,-0.20313,2023,6,12,10,5,57,815
0.12560,3.04500,-4.46250,0.00000,0.02135,0.97295,-0.20289,2023,6,12,10,5,57,826
0.12570,2.87000,-4.81250,0.00000,0.02208,0.97283,-0.20557,2023,6,12,10,5,57,837
0.12580,3.01000,-4.88250,0.00000,0.02159,0.97149,-0.20520,2023,6,12,10,5,57,848
0.12590,3.08000,-4.35750,0.00000,0.02135,0.97258,-0.20228,2023,6,12,10,5,57,859
0.12600,3.11500,-4.69000,0.00000,0.01915,0.97100,-0.20386,2023,6,12,10,5,57,870
0.12610,3.13250,-4.55000,0.00000,0.02208,0.97417,-0.20167,2023,6,12,10,5,57,882
0.12620,3.15000,-4.65500,0.00000,0.02159,0.97502,-0.20276,2023,6,12,10,5,57,893
0.12630,3.06250,-4.62000,0.00000,0.02123,0.97295,-0.20411,2023,6,12,10,5,57,904
0.12640,3.02750,-4.41000,0.00000,0.02172,0.97441,-0.20325,2023,6,12,10,5,57,915
0.12650,2.76500,-4.42750,0.00000,0.02123,0.97271,-0.20264,2023,6,12,10,5,57,926
0.12660,2.94000,-4.48000,0.00000,0.02086,0.97173,-0.19935,2023,6,12,10,5,57,937
0.12670,2.92250,-4.60250,0.00000,0.02159,0.97112,-0.20252,2023,6,12,10,5,57,948
0.12680,2.78250,-4.51500,0.00000,0.02306,0.97319,-0.20520,2023,6,12,10,5,57,959
0.12690,2.85250,-4.41000,0.00000,0.02281,0.97393,-0.20130,2023,6,12,10,5,57,970
0.12700,3.13250,-4.51500,0.00000,0.02172,0.97441,-0.20179,2023,6,12,10,5,58,2
0.12710,3.13250,-4.56750,0.00000,0.01891,0.97441,-0.20252,2023,6,12,10,5,58,13
0.12720,2.85250,-4.41000,0.00000,0.02135,0.97295,-0.20325,2023,6,12,10,5,58,24
0.12730,2.97500,-4.35750,0.00000,0.02001,0.97222,-0.20191,2023,6,12,10,5,58,35
0.12740,2.85250,-4.56750,0.00000,0.02062,0.97051,-0.20301,2023,6,12,10,5,58,46
0.12750,3.08000,-4.48000,0.00000,0.02050,0.97441,-0.20337,2023,6,12,10,5,58,57
0.12760,2.97500,-4.58500,0.00000,0.01757,0.97868,-0.20435,2023,6,12,10,5,58,68
0.12770,3.11500,-4.41000,0.00000,0.02062,0.97100,-0.20691,2023,6,12,10,5,58,79
0.12780,3.25500,-4.56750,0.00000,0.01818,0.97014,-0.20691,2023,6,12,10,5,58,90
0.12790,3.16750,-4.70750,0.00000,0.01952,0.97222,-0.20264,2023,6,12,10,5,58,102
0.12800,3.15000,-4.58500,0.00000,0.02367,0.97698,-0.20276,2023,6,12,10,5,58,113
0.12810,2.60750,-4.60250,0.00000,0.02098,0.97539,-0.19959,2023,6,12,10,5,58,124
0.12820,2.85250,-4.46250,0.00000,0.02086,0.97307,-0.20350,2023,6,12,10,5,58,135
0.12830,3.11500,-4.77750,0.00000,0.02208,0.96831,-0.20569,2023,6,12,10,5,58,146
0.12840,3.02750,-4.34000,0.00000,0.02098,0.97393,-0.20447,2023,6,12,10,5,58,157
0.12850,3.29000,-4.60250,0.00000,0.02086,0.97210,-0.20020,2023,6,12,10,5,58,168
0.12860,2.99250,-4.53250,0.00000,0.02220,0.97185,-0.20240,2023,6,12,10,5,58,179
0.12870,3.08000,-4.60250,0.00000,0.02196,0.97368,-0.20215,2023,6,12,10,5,58,190
0.12880,3.01000,-4.69000,0.00000,0.02330,0.97429,-0.20191,2023,6,12,10,5,58,202
0.12890,3.04500,-4.51500,0.00000,0.02062,0.97441,-0.20325,2023,6,12,10,5,58,213
0.12900,2.95750,-4.62000,0.00000,0.02013,0.97332,-0.20008,2023,6,12,10,5,58,224
0.12910,2.90500,-4.65500,0.00000,0.02306,0.97307,-0.20252,2023,6,12,10,5,58,235
0.12920,2.92250,-4.65500,0.00000,0.02233,0.97563,-0.20142,2023,6,12,10,5,58,246
0.12930,2.66000,-4.39250,0.00000,0.02172,0.97271,-0.20386,2023,6,12,10,5,58,257
0.12940,3.11500,-4.60250,0.00000,0.02208,0.97307,-0.20325,2023,6,12,10,5,58,268
0.12950,3.08000,-4.41000,0.00000,0.02281,0.97100,-0.20276,2023,6,12,10,5,58,279
0.12960,2.87000,-4.55000,0.00000,0.02135,0.97271,-0.20203,2023,6,12,10,5,58,290
0.12970,2.94000,-4.60250,0.00000,0.02220,0.97307,-0.19935,2023,6,12,10,5,58,302
0.12980,2.88750,-4.49750,0.00000,0.01915,0.97173,-0.20362,2023,6,12,10,5,58,313
0.12990,2.92250,-4.58500,0.00000,0.02111,0.97210,-0.20215,2023,6,12,10,5,58,324
0.13000,3.09750,-4.63750,0.00000,0.02318,0.97332,-0.20069,2023,6,12,10,5,58,335
0.13010,2.85250,-4.58500,0.00000,0.02074,0.97332,-0.20252,2023,6,12,10,5,58,346
0.13020,2.78250,-4.46250,0.00000,0.02098,0.97271,-0.20350,2023,6,12,10,5,58,357
0.13030,2.92250,-4.39250,0.00000,0.02111,0.97332,-0.20313,2023,6,12,10,5,58,368
0.13040,3.02750,-4.28750,0.00000,0.02147,0.97295,-0.20301,2023,6,12,10,5,58,379
0.13050,3.01000,-4.63750,0.00000,0.02123,0.97283,-0.20130,2023,6,12,10,5,58,390
0.13060,3.04500,-4.49750,0.00000,0.02147,0.97246,-0.20350,2023,6,12,10,5,58,402
0.13070,2.94000,-4.58500,0.00000,0.02233,0.97380,-0.20264,2023,6,12,10,5,58,413
0.13080,3.06250,-4.60250,0.00000,0.02172,0.97527,-0.20203,2023,6,12,10,5,58,424
0.13090,3.01000,-4.49750,0.00000,0.02074,0.97368,-0.20289,2023,6,12,10,5,58,435
0.13100,2.90500,-4.51500,0.00000,0.02086,0.97283,-0.20106,2023,6,12,10,5,58,446
0.13110,2.99250,-4.49750,0.00000,0.02172,0.97393,-0.20032,2023,6,12,10,5,58,457
0.13120,2.76500,-4.42750,0.00000,0.02208,0.97319,-0.20154,2023,6,12,10,5,58,468
0.13130,2.92250,-4.56750,0.00000,0.02208,0.97197,-0.20142,2023,6,12,10,5,58,479
0.13140,2.90500,-4.55000,0.00000,0.02184,0.97271,-0.20191,2023,6,12,10,5,58,490
0.13150,3.23750,-4.55000,0.00000,0.02172,0.97075,-0.20325,2023,6,12,10,5,58,502
0.13160,2.87000,-4.53250,0.00000,0.02025,0.97271,-0.20093,2023,6,12,10,5,58,513
0.13170,2.92250,-4.60250,0.00000,0.02111,0.97173,-0.20215,2023,6,12,10,5,58,524
0.13180,2.94000,-4.30500,0.00000,0.02220,0.97454,-0.20386,2023,6,12,10,5,58,535
0.13190,2.94000,-4.84750,0.00000,0.02184,0.97149,-0.20191,2023,6,12,10,5,58,546
0.13200,2.90500,-4.60250,0.00000,0.02147,0.97307,-0.20264,2023,6,12,10,5,58,557
0.13210,2.80000,-4.63750,0.00000,0.02159,0.97100,-0.19910,2023,6,12,10,5,58,568
0.13220,2.95750,-4.69000,0.00000,0.02050,0.97222,-0.20264,2023,6,12,10,5,58,579
0.13230,3.04500,-4.79500,0.00000,0.02098,0.97246,-0.20081,2023,6,12,10,5,58,590
0.13240,3.08000,-4.48000,0.00000,0.02208,0.97258,-0.20191,2023,6,12,10,5,58,602
0.13250,3.16750,-4.53250,0.00000,0.02220,0.97283,-0.20093,2023,6,12,10,5,58,613
0.13260,2.97500,-4.60250,0.00000,0.02111,0.97368,-0.20276,2023,6,12,10,5,58,624
0.13270,3.09750,-4.60250,0.00000,0.02257,0.97173,-0.20484,2023,6,12,10,5,58,635
0.13280,3.09750,-4.53250,0.00000,0.02367,0.97161,-0.20215,2023,6,12,10,5,58,646
0.13290,2.97500,-4.55000,0.00000,0.01952,0.97441,-0.20191,2023,6,12,10,5,58,657
0.13300,2.92250,-4.53250,0.00000,0.02147,0.97173,-0.19971,2023,6,12,10,5,58,668
0.13310,2.88750,-4.62000,0.00000,0.02147,0.97271,-0.20191,2023,6,12,10,5,58,679
0.13320,2.90500,-4.46250,0.00000,0.02001,0.97307,-0.20069,2023,6,12,10,5,58,690
0.13330,2.90500,-4.51500,0.00000,0.02184,0.97222,-0.20057,2023,6,12,10,5,58,702
0.13340,2.99250,-4.77750,0.00000,0.02013,0.97222,-0.20142,2023,6,12,10,5,58,713
0.13350,3.16750,-4.67250,0.00000,0.02208,0.97185,-0.20167,2023,6,12,10,5,58,724
0.13360,2.88750,-4.51500,0.00000,0.02233,0.97283,-0.20142,2023,6,12,10,5,58,735
0.13370,2.97500,-4.60250,0.00000,0.02172,0.97088,-0.20020,2023,6,12,10,5,58,746
0.13380,2.83500,-4.44500,0.00000,0.02159,0.97368,-0.20276,2023,6,12,10,5,58,757
0.13390,3.16750,-4.72500,0.00000,0.02172,0.97319,-0.20130,2023,6,12,10,5,58,768
0.13400,3.04500,-4.48000,0.00000,0.02074,0.97405,-0.20179,2023,6,12,10,5,58,779
0.13410,3.01000,-4.76000,0.00000,0.02098,0.97380,-0.20276,2023,6,12,10,5,58,790
0.13420,2.92250,-4.67250,0.00000,0.02172,0.97307,-0.20191,2023,6,12,10,5,58,802
0.13430,3.02750,-4.53250,0.00000,0.02220,0.97234,-0.20215,2023,6,12,10,5,58,813
0.13440,2.90500,-4.51500,0.00000,0.02074,0.97405,-0.20276,2023,6,12,10,5,58,824
0.13450,2.99250,-4.32250,0.00000,0.02355,0.97271,-0.20179,2023,6,12,10,5,58,835
0.13460,3.01000,-4.56750,0.00000,0.02050,0.97173,-0.20032,2023,6,12,10,5,58,846
0.13470,2.90500,-4.62000,0.00000,0.02086,0.97502,-0.20313,2023,6,12,10,5,58,857
0.13480,2.94000,-4.60250,0.00000,0.02086,0.97271,-0.20435,2023,6,12,10,5,58,868
0.13490,2.87000,-4.62000,0.00000,0.02159,0.97344,-0.19984,2023,6,12,10,5,58,879
0.13500,2.92250,-4.70750,0.00000,0.02318,0.97258,-0.20106,2023,6,12,10,5,58,890
0.13510,3.01000,-4.49750,0.00000,0.02159,0.97246,-0.19935,2023,6,12,10,5,58,902
0.13520,3.08000,-4.48000,0.00000,0.02245,0.97454,-0.20154,2023,6,12,10,5,58,913
0.13530,2.88750,-4.53250,0.00000,0.02172,0.97258,-0.20313,2023,6,12,10,5,58,924
0.13540,3.01000,-4.56750,0.00000,0.02159,0.97088,-0.20069,2023,6,12,10,5,58,935
0.13550,2.97500,-4.41000,0.00000,0.02086,0.97246,-0.20228,2023,6,12,10,5,58,946
0.13560,2.88750,-4.67250,0.00000,0.02037,0.97271,-0.20240,2023,6,12,10,5,58,957
0.13570,2.92250,-4.44500,0.00000,0.02074,0.97393,-0.20045,2023,6,12,10,5,59,8
0.13580,2.95750,-4.62000,0.00000,0.02050,0.97417,-0.20215,2023,6,12,10,5,59,19
0.13590,2.92250,-4.67250,0.00000,0.02001,0.97344,-0.20264,2023,6,12,10,5,59,30
0.13600,2.85250,-4.44500,0.00000,0.02001,0.97295,-0.20264,2023,6,12,10,5,59,42
0.13610,2.92250,-4.41000,0.00000,0.02269,0.97295,-0.20325,2023,6,12,10,5,59,53
0.13620,2.88750,-4.62000,0.00000,0.02245,0.97417,-0.20142,2023,6,12,10,5,59,64
0.13630,3.18500,-4.39250,0.00000,0.02245,0.97307,-0.20179,2023,6,12,10,5,59,75
0.13640,3.02750,-4.23500,0.00000,0.02318,0.97332,-0.20362,2023,6,12,10,5,59,86
0.13650,3.23750,-4.55000,0.00000,0.02123,0.97173,-0.20289,2023,6,12,10,5,59,97
0.13660,2.99250,-4.55000,0.00000,0.01928,0.97344,-0.20276,2023,6,12,10,5,59,108
0.13670,3.08000,-4.70750,0.00000,0.02208,0.97234,-0.20130,2023,6,12,10,5,59,119
0.13680,2.97500,-4.35750,0.00000,0.02184,0.97271,-0.20435,2023,6,12,10,5,59,130
0.13690,2.99250,-4.51500,0.00000,0.02184,0.97515,-0.20179,2023,6,12,10,5,59,142
#2023/06/12 10:05:59
