#2023/06/12 14:16:01
time,wx,wy,wz,ax,ay,az,yy,MM,dd,hh,mm,ss,ms
0.00000,3.32500,-4.42750,0.00000,-0.01000,0.01086,-0.98722,2023,6,12,14,16,1,323
0.00010,3.22000,-4.44500,0.00000,-0.00952,0.01110,-0.98918,2023,6,12,14,16,1,334
0.00020,2.92250,-4.58500,0.00000,-0.01000,0.00988,-0.98844,2023,6,12,14,16,1,345
0.00030,2.78250,-4.37500,0.00000,-0.01208,0.00939,-0.98722,2023,6,12,14,16,1,356
0.00040,2.95750,-4.46250,0.00000,-0.00793,0.01025,-0.99015,2023,6,12,14,16,1,367
0.00050,3.02750,-4.51500,0.00000,-0.00915,0.01183,-0.98625,2023,6,12,14,16,1,378
0.00060,2.94000,-4.34000,0.00000,-0.00939,0.01074,-0.98869,2023,6,12,14,16,1,389
0.00070,3.06250,-4.53250,0.00000,-0.01098,0.01000,-0.98869,2023,6,12,14,16,1,400
0.00080,2.99250,-4.58500,0.00000,-0.01110,0.01110,-0.98783,2023,6,12,14,16,1,411
0.00090,3.32500,-4.49750,0.00000,-0.00854,0.01208,-0.98747,2023,6,12,14,16,1,422
0.00100,3.02750,-4.67250,0.00000,-0.00891,0.01159,-0.98759,2023,6,12,14,16,1,434
0.00110,3.01000,-4.58500,0.00000,-0.01049,0.00964,-0.98747,2023,6,12,14,16,1,445
0.00120,3.15000,-4.65500,0.00000,-0.01061,0.00976,-0.98625,2023,6,12,14,16,1,456
0.00130,3.11500,-4.62000,0.00000,-0.01135,0.00964,-0.98869,2023,6,12,14,16,1,467
0.00140,3.23750,-4.63750,0.00000,-0.01013,0.01098,-0.98881,2023,6,12,14,16,1,478
0.00150,3.29000,-4.67250,0.00000,-0.01147,0.01098,-0.98637,2023,6,12,14,16,1,489
0.00160,3.15000,-4.55000,0.00000,-0.00964,0.01098,-0.98796,2023,6,12,14,16,1,500
0.00170,2.99250,-4.44500,0.00000,-0.01000,0.01464,-0.98844,2023,6,12,14,16,1,511
0.00180,2.92250,-4.35750,0.00000,-0.00988,0.01135,-0.98783,2023,6,12,14,16,1,522
0.00190,2.99250,-4.55000,0.00000,-0.00866,0.00988,-0.98820,2023,6,12,14,16,1,534
0.00200,3.06250,-4.46250,0.00000,-0.00976,0.01196,-0.99076,2023,6,12,14,16,1,545
0.00210,3.23750,-4.48000,0.00000,-0.01037,0.00976,-0.98674,2023,6,12,14,16,1,556
0.00220,3.02750,-4.58500,0.00000,-0.00976,0.01110,-0.98747,2023,6,12,14,16,1,567
0.00230,3.02750,-4.81250,0.00000,-0.00891,0.01049,-0.98820,2023,6,12,14,16,1,578
0.00240,3.02750,-4.51500,0.00000,-0.01061,0.01049,-0.98771,2023,6,12,14,16,1,589
0.00250,3.15000,-4.79500,0.00000,-0.00964,0.01025,-0.98491,2023,6,12,14,16,1,600
0.00260,3.22000,-4.72500,0.00000,-0.00939,0.00915,-0.98857,2023,6,12,14,16,1,611
0.00270,3.08000,-4.53250,0.00000,-0.00976,0.01098,-0.98722,2023,6,12,14,16,1,622
0.00280,3.02750,-4.41000,0.00000,-0.01074,0.01135,-0.98747,2023,6,12,14,16,1,634
0.00290,3.09750,-4.67250,0.00000,-0.00988,0.01330,-0.98552,2023,6,12,14,16,1,645
0.00300,3.32500,-4.65500,0.00000,-0.01013,0.01159,-0.98539,2023,6,12,14,16,1,656
0.00310,3.04500,-4.46250,0.00000,-0.01061,0.00976,-0.98735,2023,6,12,14,16,1,667
0.00320,3.25500,-4.48000,0.00000,-0.01305,0.01013,-0.98905,2023,6,12,14,16,1,678
0.00330,3.09750,-4.62000,0.00000,-0.01110,0.01305,-0.98857,2023,6,12,14,16,1,689
0.00340,3.08000,-4.63750,0.00000,-0.01061,0.01049,-0.98552,2023,6,12,14,16,1,700
0.00350,2.99250,-4.51500,0.00000,-0.00976,0.01135,-0.98783,2023,6,12,14,16,1,711
0.00360,2.94000,-4.62000,0.00000,-0.01171,0.01135,-0.99223,2023,6,12,14,16,1,722
0.00370,3.23750,-4.67250,0.00000,-0.01049,0.01098,-0.98783,2023,6,12,14,16,1,734
0.00380,3.11500,-4.48000,0.00000,-0.00854,0.01147,-0.98674,2023,6,12,14,16,1,745
0.00390,3.20250,-4.62000,0.00000,-0.01135,0.00854,-0.99040,2023,6,12,14,16,1,756
0.00400,3.15000,-4.55000,0.00000,-0.01074,0.00976,-0.98796,2023,6,12,14,16,1,767
0.00410,3.09750,-4.48000,0.00000,-0.00903,0.01196,-0.98820,2023,6,12,14,16,1,778
0.00420,3.13250,-4.49750,0.00000,-0.01098,0.01110,-0.98722,2023,6,12,14,16,1,789
0.00430,3.09750,-4.55000,0.00000,-0.01000,0.01183,-0.98905,2023,6,12,14,16,1,800
0.00440,2.99250,-4.62000,0.00000,-0.00976,0.01147,-0.98527,2023,6,12,14,16,1,811
0.00450,3.09750,-4.67250,0.00000,-0.00903,0.00939,-0.98759,2023,6,12,14,16,1,822
0.00460,3.18500,-4.55000,0.00000,-0.01159,0.01037,-0.98564,2023,6,12,14,16,1,834
0.00470,2.87000,-4.39250,0.00000,-0.01269,0.01196,-0.98674,2023,6,12,14,16,1,845
0.00480,3.11500,-4.70750,0.00000,-0.00866,0.01196,-0.98893,2023,6,12,14,16,1,856
0.00490,3.11500,-4.65500,0.00000,-0.00939,0.00976,-0.98942,2023,6,12,14,16,1,867
0.00500,3.32500,-4.55000,0.00000,-0.01000,0.01122,-0.98808,2023,6,12,14,16,1,878
0.00510,3.20250,-4.65500,0.00000,-0.01037,0.01098,-0.98576,2023,6,12,14,16,1,889
0.00520,3.11500,-4.69000,0.00000,-0.01159,0.01135,-0.98674,2023,6,12,14,16,1,900
0.00530,3.15000,-4.48000,0.00000,-0.01147,0.01049,-0.98735,2023,6,12,14,16,1,911
0.00540,3.06250,-4.58500,0.00000,-0.00903,0.01147,-0.98796,2023,6,12,14,16,1,922
0.00550,3.23750,-4.62000,0.00000,-0.00915,0.01037,-0.98710,2023,6,12,14,16,1,934
0.00560,2.92250,-4.55000,0.00000,-0.01147,0.01086,-0.98637,2023,6,12,14,16,1,945
0.00570,3.23750,-4.60250,0.00000,-0.00976,0.00830,-0.98881,2023,6,12,14,16,1,956
0.00580,3.18500,-4.53250,0.00000,-0.01074,0.01159,-0.98771,2023,6,12,14,16,1,967
0.00590,2.99250,-4.46250,0.00000,-0.00830,0.01098,-0.98588,2023,6,12,14,16,1,978
0.00600,3.08000,-4.67250,0.00000,-0.01110,0.00976,-0.98783,2023,6,12,14,16,1,989
0.00610,3.29000,-4.72500,0.00000,-0.00939,0.01208,-0.98722,2023,6,12,14,16,1,0
0.00620,2.88750,-4.62000,0.00000,-0.01025,0.01049,-0.98515,2023,6,12,14,16,1,11
0.00630,3.08000,-4.76000,0.00000,-0.01025,0.01061,-0.98735,2023,6,12,14,16,1,22
0.00640,3.08000,-4.49750,0.00000,-0.00830,0.01013,-0.98564,2023,6,12,14,16,1,34
0.00650,3.04500,-4.69000,0.00000,-0.00805,0.01086,-0.98649,2023,6,12,14,16,1,45
0.00660,3.15000,-4.62000,0.00000,-0.01171,0.01037,-0.98722,2023,6,12,14,16,1,56
0.00670,3.15000,-4.46250,0.00000,-0.01379,0.00976,-0.98881,2023,6,12,14,16,1,67
0.00680,3.15000,-4.65500,0.00000,-0.01025,0.01086,-0.98637,2023,6,12,14,16,1,78
0.00690,3.09750,-4.58500,0.00000,-0.00964,0.01110,-0.98759,2023,6,12,14,16,1,89
0.00700,3.16750,-4.65500,0.00000,-0.01159,0.01061,-0.98820,2023,6,12,14,16,1,100
0.00710,3.20250,-4.51500,0.00000,-0.00781,0.01135,-0.98893,2023,6,12,14,16,1,111
0.00720,3.02750,-4.53250,0.00000,-0.00878,0.01086,-0.98637,2023,6,12,14,16,1,122
0.00730,3.30750,-4.63750,0.00000,-0.01208,0.01147,-0.98735,2023,6,12,14,16,1,134
0.00740,3.08000,-4.67250,0.00000,-0.00830,0.01061,-0.98881,2023,6,12,14,16,1,145
0.00750,3.16750,-4.55000,0.00000,-0.00964,0.00976,-0.98442,2023,6,12,14,16,1,156
0.00760,3.11500,-4.65500,0.00000,-0.01110,0.00952,-0.98649,2023,6,12,14,16,1,167
0.00770,3.02750,-4.41000,0.00000,-0.01086,0.01049,-0.98722,2023,6,12,14,16,1,178
0.00780,3.11500,-4.63750,0.00000,-0.01074,0.00891,-0.98710,2023,6,12,14,16,1,189
0.00790,2.97500,-4.65500,0.00000,-0.00915,0.00878,-0.98625,2023,6,12,14,16,1,200
0.00800,3.02750,-4.69000,0.00000,-0.01122,0.01049,-0.98905,2023,6,12,14,16,1,211
0.00810,3.15000,-4.34000,0.00000,-0.00817,0.01171,-0.98369,2023,6,12,14,16,1,222
0.00820,2.95750,-4.69000,0.00000,-0.00976,0.01159,-0.98771,2023,6,12,14,16,1,234
0.00830,3.02750,-4.56750,0.00000,-0.00903,0.01110,-0.98783,2023,6,12,14,16,1,245
0.00840,3.29000,-4.46250,0.00000,-0.00842,0.00915,-0.98466,2023,6,12,14,16,1,256
0.00850,2.90500,-4.55000,0.00000,-0.01147,0.01208,-0.98576,2023,6,12,14,16,1,267
0.00860,3.08000,-4.51500,0.00000,-0.00988,0.01000,-0.98698,2023,6,12,14,16,1,278
0.00870,3.06250,-4.65500,0.00000,-0.01147,0.01098,-0.99003,2023,6,12,14,16,1,289
0.00880,3.04500,-4.60250,0.00000,-0.01013,0.01037,-0.98686,2023,6,12,14,16,1,300
0.00890,3.25500,-4.58500,0.00000,-0.00939,0.01013,-0.98674,2023,6,12,14,16,2,1
0.00900,3.16750,-4.72500,0.00000,-0.00976,0.01110,-0.98686,2023,6,12,14,16,2,12
0.00910,3.01000,-4.32250,0.00000,-0.01000,0.01049,-0.98527,2023,6,12,14,16,2,24
0.00920,3.04500,-4.65500,0.00000,-0.00842,0.01110,-0.98722,2023,6,12,14,16,2,35
0.00930,2.97500,-4.72500,0.00000,-0.00842,0.00939,-0.98649,2023,6,12,14,16,2,46
0.00940,3.15000,-4.53250,0.00000,-0.00952,0.01122,-0.98808,2023,6,12,14,16,2,57
0.00950,3.01000,-4.56750,0.00000,-0.00976,0.00952,-0.98710,2023,6,12,14,16,2,68
0.00960,2.94000,-4.37500,0.00000,-0.01135,0.00988,-0.98991,2023,6,12,14,16,2,79
0.00970,3.06250,-4.49750,0.00000,-0.01196,0.01049,-0.98588,2023,6,12,14,16,2,90
0.00980,3.27250,-4.72500,0.00000,-0.01061,0.01171,-0.98771,2023,6,12,14,16,2,101
0.00990,3.18500,-4.67250,0.00000,-0.00964,0.01098,-0.98515,2023,6,12,14,16,2,112
0.01000,3.09750,-4.48000,0.00000,-0.01000,0.00891,-0.99052,2023,6,12,14,16,2,124
0.01010,2.97500,-4.44500,0.00000,-0.00952,0.01196,-0.98991,2023,6,12,14,16,2,135
0.01020,3.04500,-4.67250,0.00000,-0.01000,0.01061,-0.98661,2023,6,12,14,16,2,146
0.01030,3.22000,-4.67250,0.00000,-0.01183,0.00915,-0.98783,2023,6,12,14,16,2,157
0.01040,3.16750,-4.46250,0.00000,-0.01000,0.01135,-0.98771,2023,6,12,14,16,2,168
0.01050,3.18500,-4.62000,0.00000,-0.00927,0.01318,-0.98747,2023,6,12,14,16,2,179
0.01060,3.02750,-4.48000,0.00000,-0.00976,0.01135,-0.98759,2023,6,12,14,16,2,190
0.01070,3.02750,-4.48000,0.00000,-0.01000,0.01122,-0.98905,2023,6,12,14,16,2,201
0.01080,3.15000,-4.63750,0.00000,-0.01086,0.01098,-0.98686,2023,6,12,14,16,2,212
0.01090,2.99250,-4.60250,0.00000,-0.01159,0.01049,-0.98735,2023,6,12,14,16,2,224
0.01100,3.23750,-4.67250,0.00000,-0.01122,0.01269,-0.98930,2023,6,12,14,16,2,235
0.01110,3.16750,-4.51500,0.00000,-0.01135,0.01159,-0.99040,2023,6,12,14,16,2,246
0.01120,3.27250,-4.65500,0.00000,-0.01000,0.00964,-0.98625,2023,6,12,14,16,2,257
0.01130,3.01000,-4.21750,0.00000,-0.01025,0.01220,-0.98674,2023,6,12,14,16,2,268
0.01140,3.15000,-4.55000,0.00000,-0.01025,0.01183,-0.98674,2023,6,12,14,16,2,279
0.01150,3.09750,-4.44500,0.00000,-0.00976,0.01061,-0.98832,2023,6,12,14,16,2,290
0.01160,3.15000,-4.70750,0.00000,-0.01037,0.01293,-0.98930,2023,6,12,14,16,2,301
0.01170,3.11500,-4.56750,0.00000,-0.00939,0.01037,-0.98722,2023,6,12,14,16,2,312
0.01180,2.95750,-4.55000,0.00000,-0.01037,0.01220,-0.98783,2023,6,12,14,16,2,324
0.01190,3.20250,-4.56750,0.00000,-0.01013,0.01122,-0.98966,2023,6,12,14,16,2,335
0.01200,3.16750,-4.69000,0.00000,-0.01013,0.01147,-0.98710,2023,6,12,14,16,2,346
0.01210,3.13250,-4.44500,0.00000,-0.01220,0.01086,-0.98820,2023,6,12,14,16,2,357
0.01220,3.16750,-4.65500,0.00000,-0.01000,0.01098,-0.98857,2023,6,12,14,16,2,368
0.01230,3.01000,-4.51500,0.00000,-0.00915,0.01049,-0.98503,2023,6,12,14,16,2,379
0.01240,3.09750,-4.55000,0.00000,-0.01025,0.01037,-0.98869,2023,6,12,14,16,2,390
0.01250,3.01000,-4.42750,0.00000,-0.01122,0.01074,-0.98966,2023,6,12,14,16,2,401
0.01260,3.20250,-4.51500,0.00000,-0.01074,0.01135,-0.98844,2023,6,12,14,16,2,412
0.01270,3.23750,-4.79500,0.00000,-0.00842,0.01159,-0.98613,2023,6,12,14,16,2,424
0.01280,3.09750,-4.62000,0.00000,-0.00988,0.01196,-0.98698,2023,6,12,14,16,2,435
0.01290,3.18500,-4.72500,0.00000,-0.01025,0.01147,-0.98759,2023,6,12,14,16,2,446
0.01300,3.11500,-4.70750,0.00000,-0.00927,0.01013,-0.98796,2023,6,12,14,16,2,457
0.01310,3.15000,-4.65500,0.00000,-0.01025,0.00964,-0.98564,2023,6,12,14,16,2,468
0.01320,3.18500,-4.67250,0.00000,-0.01025,0.01098,-0.98759,2023,6,12,14,16,2,479
0.01330,2.97500,-4.51500,0.00000,-0.01037,0.01086,-0.98674,2023,6,12,14,16,2,490
0.01340,2.97500,-4.67250,0.00000,-0.00866,0.01171,-0.98515,2023,6,12,14,16,2,501
0.01350,2.81750,-4.44500,0.00000,-0.00732,0.01086,-0.98588,2023,6,12,14,16,2,512
0.01360,2.94000,-4.60250,0.00000,-0.00805,0.01000,-0.98710,2023,6,12,14,16,2,524
0.01370,2.97500,-4.51500,0.00000,-0.01086,0.01000,-0.98710,2023,6,12,14,16,2,535
0.01380,3.08000,-4.72500,0.00000,-0.01000,0.00964,-0.98759,2023,6,12,14,16,2,546
0.01390,3.15000,-4.32250,0.00000,-0.01061,0.00903,-0.98808,2023,6,12,14,16,2,557
0.01400,3.15000,-4.79500,0.00000,-0.00903,0.01013,-0.98698,2023,6,12,14,16,2,568
0.01410,2.78250,-4.49750,0.00000,-0.01171,0.01122,-0.98747,2023,6,12,14,16,2,579
0.01420,3.02750,-4.53250,0.00000,-0.01098,0.00903,-0.98832,2023,6,12,14,16,2,590
0.01430,2.83500,-4.46250,0.00000,-0.01074,0.01037,-0.98857,2023,6,12,14,16,2,601
0.01440,2.99250,-4.60250,0.00000,-0.00817,0.00854,-0.98491,2023,6,12,14,16,2,612
0.01450,3.09750,-4.79500,0.00000,-0.01159,0.01269,-0.98735,2023,6,12,14,16,2,624
0.01460,3.04500,-4.32250,0.00000,-0.00915,0.01025,-0.98857,2023,6,12,14,16,2,635
0.01470,3.01000,-4.53250,0.00000,-0.01037,0.01171,-0.98783,2023,6,12,14,16,2,646
0.01480,2.83500,-4.39250,0.00000,-0.00939,0.01037,-0.98808,2023,6,12,14,16,2,657
0.01490,2.97500,-4.55000,0.00000,-0.00781,0.01183,-0.98759,2023,6,12,14,16,2,668
0.01500,3.23750,-4.56750,0.00000,-0.00915,0.01074,-0.98637,2023,6,12,14,16,2,679
0.01510,2.92250,-4.56750,0.00000,-0.01000,0.01171,-0.99125,2023,6,12,14,16,2,690
0.01520,3.13250,-4.69000,0.00000,-0.00915,0.01037,-0.98466,2023,6,12,14,16,2,701
0.01530,3.09750,-4.48000,0.00000,-0.01049,0.01293,-0.98893,2023,6,12,14,16,2,712
0.01540,2.90500,-4.63750,0.00000,-0.00927,0.01000,-0.98369,2023,6,12,14,16,2,724
0.01550,3.09750,-4.58500,0.00000,-0.00976,0.00891,-0.98759,2023,6,12,14,16,2,735
0.01560,3.16750,-4.58500,0.00000,-0.01000,0.01000,-0.98698,2023,6,12,14,16,2,746
0.01570,3.36000,-4.62000,0.00000,-0.00964,0.01025,-0.98661,2023,6,12,14,16,2,757
0.01580,3.25500,-4.48000,0.00000,-0.00842,0.01025,-0.98820,2023,6,12,14,16,2,768
0.01590,3.04500,-4.48000,0.00000,-0.01000,0.01098,-0.98832,2023,6,12,14,16,2,779
0.01600,3.13250,-4.72500,0.00000,-0.01086,0.01147,-0.98893,2023,6,12,14,16,2,790
0.01610,3.22000,-4.55000,0.00000,-0.01000,0.01086,-0.98503,2023,6,12,14,16,2,801
0.01620,3.13250,-4.51500,0.00000,-0.01025,0.01086,-0.98613,2023,6,12,14,16,2,812
0.01630,3.01000,-4.58500,0.00000,-0.00817,0.01025,-0.98625,2023,6,12,14,16,2,824
0.01640,3.09750,-4.44500,0.00000,-0.00976,0.01110,-0.98625,2023,6,12,14,16,2,835
0.01650,3.16750,-4.67250,0.00000,-0.01025,0.01354,-0.98966,2023,6,12,14,16,2,846
0.01660,2.95750,-4.42750,0.00000,-0.01196,0.01025,-0.98735,2023,6,12,14,16,2,857
0.01670,3.16750,-4.48000,0.00000,-0.00964,0.01110,-0.99015,2023,6,12,14,16,2,868
0.01680,3.04500,-4.67250,0.00000,-0.00866,0.00769,-0.98857,2023,6,12,14,16,2,879
0.01690,3.15000,-4.62000,0.00000,-0.00939,0.00854,-0.98844,2023,6,12,14,16,2,890
0.01700,3.22000,-4.55000,0.00000,-0.01171,0.01013,-0.98649,2023,6,12,14,16,2,901
0.01710,3.06250,-4.34000,0.00000,-0.00683,0.01122,-0.98869,2023,6,12,14,16,2,912
0.01720,3.02750,-4.49750,0.00000,-0.00952,0.01013,-0.98771,2023,6,12,14,16,2,924
0.01730,2.95750,-4.41000,0.00000,-0.01269,0.01086,-0.98869,2023,6,12,14,16,2,935
0.01740,2.95750,-4.56750,0.00000,-0.00964,0.01147,-0.98674,2023,6,12,14,16,2,946
0.01750,3.02750,-4.56750,0.00000,-0.00939,0.01061,-0.98454,2023,6,12,14,16,2,957
0.01760,3.11500,-4.48000,0.00000,-0.00891,0.01122,-0.99015,2023,6,12,14,16,2,968
0.01770,3.02750,-4.53250,0.00000,-0.00720,0.01061,-0.98613,2023,6,12,14,16,3,9
0.01780,3.09750,-4.67250,0.00000,-0.01086,0.00952,-0.98832,2023,6,12,14,16,3,20
0.01790,3.20250,-4.69000,0.00000,-0.01025,0.01049,-0.99271,2023,6,12,14,16,3,31
0.01800,3.11500,-4.42750,0.00000,-0.01013,0.01220,-0.98649,2023,6,12,14,16,3,42
0.01810,2.94000,-4.46250,0.00000,-0.00891,0.00891,-0.98747,2023,6,12,14,16,3,54
0.01820,3.04500,-4.49750,0.00000,-0.01049,0.01232,-0.99101,2023,6,12,14,16,3,65
0.01830,2.92250,-4.58500,0.00000,-0.01232,0.01098,-0.98661,2023,6,12,14,16,3,76
0.01840,3.09750,-4.67250,0.00000,-0.01061,0.01037,-0.98576,2023,6,12,14,16,3,87
0.01850,2.95750,-4.46250,0.00000,-0.01098,0.00976,-0.98686,2023,6,12,14,16,3,98
0.01860,3.09750,-4.63750,0.00000,-0.01025,0.01074,-0.98820,2023,6,12,14,16,3,109
0.01870,3.09750,-4.49750,0.00000,-0.01013,0.01147,-0.99088,2023,6,12,14,16,3,120
0.01880,2.97500,-4.56750,0.00000,-0.01061,0.00939,-0.98588,2023,6,12,14,16,3,131
0.01890,3.08000,-4.49750,0.00000,-0.01086,0.00781,-0.98893,2023,6,12,14,16,3,142
0.01900,3.04500,-4.51500,0.00000,-0.01013,0.01269,-0.98869,2023,6,12,14,16,3,154
0.01910,2.97500,-4.53250,0.00000,-0.00854,0.01147,-0.98710,2023,6,12,14,16,3,165
0.01920,3.15000,-4.48000,0.00000,-0.01086,0.01086,-0.98881,2023,6,12,14,16,3,176
0.01930,3.18500,-4.76000,0.00000,-0.00976,0.01049,-0.98869,2023,6,12,14,16,3,187
0.01940,3.08000,-4.53250,0.00000,-0.01061,0.01086,-0.98747,2023,6,12,14,16,3,198
0.01950,3.04500,-4.44500,0.00000,-0.00854,0.01013,-0.99076,2023,6,12,14,16,3,209
0.01960,2.99250,-4.44500,0.00000,-0.00866,0.01013,-0.98783,2023,6,12,14,16,3,220
0.01970,3.13250,-4.63750,0.00000,-0.00842,0.01049,-0.98820,2023,6,12,14,16,3,231
0.01980,3.04500,-4.55000,0.00000,-0.01135,0.00964,-0.98893,2023,6,12,14,16,3,242
0.01990,2.88750,-4.65500,0.00000,-0.01122,0.01110,-0.98930,2023,6,12,14,16,3,254
0.02000,3.23750,-4.77750,0.00000,-0.01098,0.00976,-0.98857,2023,6,12,14,16,3,265
0.02010,3.09750,-4.60250,0.00000,-0.01098,0.01025,-0.98930,2023,6,12,14,16,3,276
0.02020,3.02750,-4.35750,0.00000,-0.00805,0.01074,-0.98832,2023,6,12,14,16,3,287
0.02030,3.09750,-4.58500,0.00000,-0.00878,0.01061,-0.98710,2023,6,12,14,16,3,298
0.02040,3.09750,-4.60250,0.00000,-0.00927,0.01122,-0.98820,2023,6,12,14,16,3,309
0.02050,3.04500,-4.63750,0.00000,-0.01037,0.00805,-0.98893,2023,6,12,14,16,3,320
0.02060,3.02750,-4.51500,0.00000,-0.00878,0.01049,-0.98966,2023,6,12,14,16,3,331
0.02070,2.95750,-4.49750,0.00000,-0.01074,0.01122,-0.98735,2023,6,12,14,16,3,342
0.02080,3.34250,-4.60250,0.00000,-0.01159,0.00952,-0.98954,2023,6,12,14,16,3,354
0.02090,3.18500,-4.53250,0.00000,-0.00939,0.01159,-0.99064,2023,6,12,14,16,3,365
0.02100,3.04500,-4.37500,0.00000,-0.01074,0.01049,-0.98844,2023,6,12,14,16,3,376
0.02110,3.13250,-4.58500,0.00000,-0.00842,0.01049,-0.98783,2023,6,12,14,16,3,387
0.02120,3.08000,-4.49750,0.00000,-0.00988,0.01220,-0.98759,2023,6,12,14,16,3,398
0.02130,2.88750,-4.49750,0.00000,-0.00842,0.01061,-0.98698,2023,6,12,14,16,3,409
0.02140,2.69500,-4.56750,0.00000,-0.00866,0.01000,-0.98869,2023,6,12,14,16,3,420
0.02150,3.16750,-4.39250,0.00000,-0.01074,0.00964,-0.98893,2023,6,12,14,16,3,431
0.02160,3.11500,-4.60250,0.00000,-0.00915,0.01000,-0.98747,2023,6,12,14,16,3,442
0.02170,3.13250,-4.51500,0.00000,-0.00988,0.01013,-0.98783,2023,6,12,14,16,3,454
0.02180,3.18500,-4.56750,0.00000,-0.00866,0.01330,-0.98771,2023,6,12,14,16,3,465
0.02190,3.09750,-4.41000,0.00000,-0.00866,0.01098,-0.99040,2023,6,12,14,16,3,476
0.02200,3.02750,-4.84750,0.00000,-0.01159,0.00952,-0.98869,2023,6,12,14,16,3,487
0.02210,3.06250,-4.49750,0.00000,-0.00915,0.00769,-0.98881,2023,6,12,14,16,3,498
0.02220,3.11500,-4.56750,0.00000,-0.00988,0.01037,-0.98759,2023,6,12,14,16,3,509
0.02230,2.81750,-4.39250,0.00000,-0.01013,0.01086,-0.99040,2023,6,12,14,16,3,520
0.02240,3.04500,-4.63750,0.00000,-0.01196,0.01208,-0.98637,2023,6,12,14,16,3,531
0.02250,3.02750,-4.67250,0.00000,-0.00756,0.01281,-0.98442,2023,6,12,14,16,3,542
0.02260,2.94000,-4.41000,0.00000,-0.01013,0.01025,-0.98710,2023,6,12,14,16,3,554
0.02270,3.11500,-4.74250,0.00000,-0.01098,0.01074,-0.98686,2023,6,12,14,16,3,565
0.02280,3.09750,-4.44500,0.00000,-0.00952,0.00927,-0.98613,2023,6,12,14,16,3,576
0.02290,3.02750,-4.63750,0.00000,-0.00939,0.01183,-0.99076,2023,6,12,14,16,3,587
0.02300,3.11500,-4.42750,0.00000,-0.01159,0.01159,-0.98613,2023,6,12,14,16,3,598
0.02310,3.13250,-4.72500,0.00000,-0.01013,0.00988,-0.98796,2023,6,12,14,16,3,609
0.02320,2.99250,-4.60250,0.00000,-0.01171,0.01061,-0.98576,2023,6,12,14,16,3,620
0.02330,3.11500,-4.70750,0.00000,-0.01098,0.01159,-0.98832,2023,6,12,14,16,3,631
0.02340,3.04500,-4.39250,0.00000,-0.00878,0.01025,-0.98759,2023,6,12,14,16,3,642
0.02350,2.95750,-4.60250,0.00000,-0.00891,0.01110,-0.98771,2023,6,12,14,16,3,654
0.02360,3.04500,-4.60250,0.00000,-0.00866,0.01183,-0.98686,2023,6,12,14,16,3,665
0.02370,3.20250,-4.41000,0.00000,-0.01061,0.01305,-0.99088,2023,6,12,14,16,3,676
0.02380,3.11500,-4.46250,0.00000,-0.01110,0.01037,-0.98600,2023,6,12,14,16,3,687
0.02390,3.02750,-4.72500,0.00000,-0.01025,0.01061,-0.98722,2023,6,12,14,16,3,698
0.02400,3.08000,-4.37500,0.00000,-0.01074,0.01074,-0.98710,2023,6,12,14,16,3,709
0.02410,3.15000,-4.60250,0.00000,-0.00988,0.01159,-0.98674,2023,6,12,14,16,3,720
0.02420,3.16750,-4.53250,0.00000,-0.01086,0.01074,-0.98661,2023,6,12,14,16,3,731
0.02430,3.13250,-4.60250,0.00000,-0.01074,0.00903,-0.98613,2023,6,12,14,16,3,742
0.02440,2.97500,-4.30500,0.00000,-0.01000,0.01049,-0.98844,2023,6,12,14,16,3,754
0.02450,3.13250,-4.63750,0.00000,-0.01037,0.01208,-0.98942,2023,6,12,14,16,3,765
0.02460,2.92250,-4.41000,0.00000,-0.01074,0.01171,-0.98869,2023,6,12,14,16,3,776
0.02470,3.22000,-4.51500,0.00000,-0.01013,0.01171,-0.98698,2023,6,12,14,16,3,787
0.02480,3.13250,-4.58500,0.00000,-0.01061,0.01061,-0.99027,2023,6,12,14,16,3,798
0.02490,3.22000,-4.79500,0.00000,-0.00830,0.01208,-0.98771,2023,6,12,14,16,3,809
0.02500,3.23750,-4.44500,0.00000,-0.01000,0.01159,-0.98722,2023,6,12,14,16,3,820
0.02510,3.15000,-4.58500,0.00000,-0.00915,0.01025,-0.98686,2023,6,12,14,16,3,831
0.02520,3.22000,-4.67250,0.00000,-0.01000,0.01281,-0.98625,2023,6,12,14,16,3,842
0.02530,3.15000,-4.51500,0.00000,-0.01037,0.01037,-0.98966,2023,6,12,14,16,3,854
0.02540,3.16750,-4.44500,0.00000,-0.00915,0.01049,-0.99162,2023,6,12,14,16,3,865
0.02550,2.92250,-4.48000,0.00000,-0.00952,0.01135,-0.98674,2023,6,12,14,16,3,876
0.02560,3.08000,-4.65500,0.00000,-0.00781,0.01196,-0.98552,2023,6,12,14,16,3,887
0.02570,3.13250,-4.55000,0.00000,-0.00964,0.00976,-0.98966,2023,6,12,14,16,3,898
0.02580,2.97500,-4.74250,0.00000,-0.01000,0.01000,-0.98613,2023,6,12,14,16,3,909
0.02590,2.92250,-4.39250,0.00000,-0.00927,0.01208,-0.98954,2023,6,12,14,16,3,920
0.02600,3.04500,-4.46250,0.00000,-0.01037,0.01159,-0.98783,2023,6,12,14,16,3,931
0.02610,3.11500,-4.74250,0.00000,-0.01122,0.01135,-0.98783,2023,6,12,14,16,3,942
0.02620,3.23750,-4.27000,0.00000,-0.01183,0.00952,-0.98454,2023,6,12,14,16,3,954
0.02630,3.02750,-4.44500,0.00000,-0.01037,0.01098,-0.98759,2023,6,12,14,16,3,965
0.02640,3.09750,-4.49750,0.00000,-0.01086,0.01135,-0.98759,2023,6,12,14,16,3,976
0.02650,3.18500,-4.55000,0.00000,-0.01074,0.01318,-0.98783,2023,6,12,14,16,3,987
0.02660,3.06250,-4.65500,0.00000,-0.00854,0.01074,-0.98735,2023,6,12,14,16,4,8
0.02670,3.16750,-4.58500,0.00000,-0.01025,0.00854,-0.98881,2023,6,12,14,16,4,19
0.02680,3.16750,-4.81250,0.00000,-0.00915,0.00952,-0.98783,2023,6,12,14,16,4,30
0.02690,3.15000,-4.51500,0.00000,-0.00769,0.01318,-0.99003,2023,6,12,14,16,4,41
0.02700,2.97500,-4.58500,0.00000,-0.00842,0.01147,-0.98966,2023,6,12,14,16,4,52
0.02710,2.95750,-4.65500,0.00000,-0.00964,0.01074,-0.98905,2023,6,12,14,16,4,64
0.02720,2.85250,-4.30500,0.00000,-0.01159,0.00976,-0.98637,2023,6,12,14,16,4,75
0.02730,2.95750,-4.76000,0.00000,-0.01013,0.01013,-0.98722,2023,6,12,14,16,4,86
0.02740,3.11500,-4.58500,0.00000,-0.00976,0.01013,-0.98661,2023,6,12,14,16,4,97
0.02750,3.18500,-4.76000,0.00000,-0.01037,0.00927,-0.98661,2023,6,12,14,16,4,108
0.02760,2.99250,-4.62000,0.00000,-0.01013,0.01196,-0.98735,2023,6,12,14,16,4,119
0.02770,3.09750,-4.44500,0.00000,-0.00842,0.00988,-0.98771,2023,6,12,14,16,4,130
0.02780,3.01000,-4.39250,0.00000,-0.00964,0.01037,-0.98576,2023,6,12,14,16,4,141
0.02790,3.09750,-4.69000,0.00000,-0.01110,0.00952,-0.98515,2023,6,12,14,16,4,152
0.02800,3.23750,-4.51500,0.00000,-0.01013,0.01281,-0.99088,2023,6,12,14,16,4,164
0.02810,2.90500,-4.58500,0.00000,-0.00988,0.01061,-0.98966,2023,6,12,14,16,4,175
0.02820,2.78250,-4.58500,0.00000,-0.00939,0.00988,-0.98637,2023,6,12,14,16,4,186
0.02830,3.09750,-4.60250,0.00000,-0.00915,0.01074,-0.98503,2023,6,12,14,16,4,197
0.02840,3.06250,-4.51500,0.00000,-0.01061,0.01159,-0.98686,2023,6,12,14,16,4,208
0.02850,2.95750,-4.56750,0.00000,-0.00964,0.01135,-0.98710,2023,6,12,14,16,4,219
0.02860,3.15000,-4.67250,0.00000,-0.00878,0.00976,-0.98661,2023,6,12,14,16,4,230
0.02870,2.90500,-4.53250,0.00000,-0.01110,0.00866,-0.98783,2023,6,12,14,16,4,241
0.02880,3.18500,-4.60250,0.00000,-0.00976,0.01244,-0.98661,2023,6,12,14,16,4,252
0.02890,3.23750,-4.62000,0.00000,-0.00903,0.01000,-0.98442,2023,6,12,14,16,4,264
0.02900,2.99250,-4.62000,0.00000,-0.01037,0.01061,-0.98600,2023,6,12,14,16,4,275
0.02910,3.09750,-4.63750,0.00000,-0.01061,0.01159,-0.98613,2023,6,12,14,16,4,286
0.02920,3.06250,-4.30500,0.00000,-0.01000,0.00976,-0.98625,2023,6,12,14,16,4,297
0.02930,3.18500,-4.58500,0.00000,-0.01037,0.01257,-0.98844,2023,6,12,14,16,4,308
0.02940,3.02750,-4.65500,0.00000,-0.01098,0.01025,-0.98771,2023,6,12,14,16,4,319
0.02950,3.06250,-4.74250,0.00000,-0.00927,0.01183,-0.98905,2023,6,12,14,16,4,330
0.02960,2.95750,-4.69000,0.00000,-0.01208,0.00866,-0.98808,2023,6,12,14,16,4,341
0.02970,3.23750,-4.70750,0.00000,-0.00952,0.01086,-0.98832,2023,6,12,14,16,4,352
0.02980,3.18500,-4.51500,0.00000,-0.01110,0.00927,-0.98588,2023,6,12,14,16,4,364
0.02990,3.01000,-4.51500,0.00000,-0.00903,0.00915,-0.98588,2023,6,12,14,16,4,375
0.03000,3.01000,-4.39250,0.00000,-0.00952,0.01159,-0.98735,2023,6,12,14,16,4,386
0.03010,3.06250,-4.56750,0.00000,-0.01013,0.01110,-0.98954,2023,6,12,14,16,4,397
0.03020,3.16750,-4.53250,0.00000,-0.00915,0.01049,-0.98503,2023,6,12,14,16,4,408
0.03030,3.04500,-4.44500,0.00000,-0.01110,0.01061,-0.98527,2023,6,12,14,16,4,419
0.03040,3.15000,-4.60250,0.00000,-0.01049,0.01220,-0.98844,2023,6,12,14,16,4,430
0.03050,3.13250,-4.67250,0.00000,-0.01049,0.01183,-0.98600,2023,6,12,14,16,4,441
0.03060,3.08000,-4.42750,0.00000,-0.00988,0.01183,-0.98564,2023,6,12,14,16,4,452
0.03070,3.04500,-4.56750,0.00000,-0.00903,0.01098,-0.98893,2023,6,12,14,16,4,464
0.03080,2.99250,-4.49750,0.00000,-0.00976,0.01000,-0.98796,2023,6,12,14,16,4,475
0.03090,2.90500,-4.51500,0.00000,-0.01086,0.00964,-0.98637,2023,6,12,14,16,4,486
0.03100,3.11500,-4.62000,0.00000,-0.01049,0.00915,-0.98905,2023,6,12,14,16,4,497
0.03110,3.09750,-4.63750,0.00000,-0.00964,0.01049,-0.98613,2023,6,12,14,16,4,508
0.03120,3.02750,-4.56750,0.00000,-0.00805,0.01147,-0.98796,2023,6,12,14,16,4,519
0.03130,3.06250,-4.48000,0.00000,-0.00988,0.01000,-0.98820,2023,6,12,14,16,4,530
0.03140,3.25500,-4.63750,0.00000,-0.01183,0.01232,-0.98857,2023,6,12,14,16,4,541
0.03150,3.27250,-4.53250,0.00000,-0.00744,0.01013,-0.98674,2023,6,12,14,16,4,552
0.03160,3.15000,-4.58500,0.00000,-0.00854,0.01049,-0.98600,2023,6,12,14,16,4,564
0.03170,2.97500,-4.46250,0.00000,-0.01013,0.01000,-0.98808,2023,6,12,14,16,4,575
0.03180,2.99250,-4.65500,0.00000,-0.01013,0.01208,-0.98625,2023,6,12,14,16,4,586
0.03190,3.04500,-4.62000,0.00000,-0.00891,0.01110,-0.98576,2023,6,12,14,16,4,597
0.03200,2.92250,-4.70750,0.00000,-0.00976,0.01171,-0.98661,2023,6,12,14,16,4,608
0.03210,2.95750,-4.39250,0.00000,-0.01269,0.01098,-0.98771,2023,6,12,14,16,4,619
0.03220,2.99250,-4.46250,0.00000,-0.01171,0.01086,-0.98747,2023,6,12,14,16,4,630
0.03230,3.13250,-4.70750,0.00000,-0.01049,0.01318,-0.98552,2023,6,12,14,16,4,641
0.03240,2.97500,-4.51500,0.00000,-0.01037,0.01074,-0.98686,2023,6,12,14,16,4,652
0.03250,3.36000,-4.51500,0.00000,-0.00878,0.01147,-0.98783,2023,6,12,14,16,4,664
0.03260,3.13250,-4.53250,0.00000,-0.01000,0.01037,-0.98783,2023,6,12,14,16,4,675
0.03270,3.11500,-4.44500,0.00000,-0.01000,0.01074,-0.98893,2023,6,12,14,16,4,686
0.03280,3.06250,-4.53250,0.00000,-0.00830,0.01086,-0.98881,2023,6,12,14,16,4,697
0.03290,3.13250,-4.53250,0.00000,-0.01000,0.01110,-0.98905,2023,6,12,14,16,4,708
0.03300,3.13250,-4.49750,0.00000,-0.00903,0.01232,-0.98991,2023,6,12,14,16,4,719
0.03310,3.06250,-4.72500,0.00000,-0.01013,0.01159,-0.98527,2023,6,12,14,16,4,730
0.03320,3.16750,-4.56750,0.00000,-0.00988,0.01074,-0.98698,2023,6,12,14,16,4,741
0.03330,3.22000,-4.70750,0.00000,-0.00952,0.01013,-0.98796,2023,6,12,14,16,4,752
0.03340,3.16750,-4.42750,0.00000,-0.01013,0.01013,-0.98539,2023,6,12,14,16,4,764
0.03350,3.18500,-4.90000,0.00000,-0.01025,0.01220,-0.98747,2023,6,12,14,16,4,775
0.03360,3.06250,-4.62000,0.00000,-0.01232,0.01025,-0.98478,2023,6,12,14,16,4,786
0.03370,3.15000,-4.56750,0.00000,-0.00878,0.00964,-0.98844,2023,6,12,14,16,4,797
0.03380,3.02750,-4.46250,0.00000,-0.00866,0.00964,-0.98832,2023,6,12,14,16,4,808
0.03390,2.90500,-4.58500,0.00000,-0.01000,0.01000,-0.98686,2023,6,12,14,16,4,819
0.03400,2.87000,-4.46250,0.00000,-0.01318,0.00964,-0.98613,2023,6,12,14,16,4,830
0.03410,3.16750,-4.69000,0.00000,-0.00964,0.01232,-0.98783,2023,6,12,14,16,4,841
0.03420,3.02750,-4.39250,0.00000,-0.01049,0.01330,-0.98588,2023,6,12,14,16,4,852
0.03430,3.02750,-4.62000,0.00000,-0.00952,0.00988,-0.98893,2023,6,12,14,16,4,864
0.03440,3.11500,-4.44500,0.00000,-0.00878,0.00866,-0.98722,2023,6,12,14,16,4,875
0.03450,3.22000,-4.72500,0.00000,-0.00817,0.01025,-0.98722,2023,6,12,14,16,4,886
0.03460,3.18500,-4.48000,0.00000,-0.00769,0.01147,-0.98649,2023,6,12,14,16,4,897
0.03470,3.02750,-4.37500,0.00000,-0.01049,0.01171,-0.98869,2023,6,12,14,16,4,908
0.03480,3.16750,-4.28750,0.00000,-0.01086,0.00891,-0.98661,2023,6,12,14,16,4,919
0.03490,2.99250,-4.65500,0.00000,-0.01159,0.00952,-0.98576,2023,6,12,14,16,4,930
0.03500,3.08000,-4.74250,0.00000,-0.00744,0.01135,-0.98588,2023,6,12,14,16,4,941
0.03510,2.92250,-4.58500,0.00000,-0.00854,0.01037,-0.98722,2023,6,12,14,16,4,952
0.03520,3.06250,-4.58500,0.00000,-0.00976,0.01135,-0.98832,2023,6,12,14,16,4,964
0.03530,3.16750,-4.69000,0.00000,-0.01013,0.01196,-0.98796,2023,6,12,14,16,4,975
0.03540,3.11500,-4.76000,0.00000,-0.00854,0.00988,-0.98283,2023,6,12,14,16,5,6
0.03550,3.15000,-4.53250,0.00000,-0.00927,0.01135,-0.98613,2023,6,12,14,16,5,17
0.03560,3.15000,-4.76000,0.00000,-0.00866,0.00915,-0.98600,2023,6,12,14,16,5,28
0.03570,3.20250,-4.55000,0.00000,-0.01074,0.01122,-0.98405,2023,6,12,14,16,5,39
0.03580,3.16750,-4.70750,0.00000,-0.01110,0.01074,-0.98625,2023,6,12,14,16,5,50
0.03590,3.11500,-4.56750,0.00000,-0.00964,0.01037,-0.98539,2023,6,12,14,16,5,61
0.03600,2.95750,-4.39250,0.00000,-0.00964,0.01196,-0.98710,2023,6,12,14,16,5,72
0.03610,2.99250,-4.48000,0.00000,-0.00988,0.01159,-0.98722,2023,6,12,14,16,5,84
0.03620,3.15000,-4.69000,0.00000,-0.01000,0.01196,-0.98600,2023,6,12,14,16,5,95
0.03630,3.08000,-4.48000,0.00000,-0.01037,0.01122,-0.98722,2023,6,12,14,16,5,106
0.03640,3.08000,-4.56750,0.00000,-0.00903,0.01025,-0.98491,2023,6,12,14,16,5,117
0.03650,3.23750,-4.55000,0.00000,-0.01074,0.01086,-0.98613,2023,6,12,14,16,5,128
0.03660,2.95750,-4.55000,0.00000,-0.01049,0.01037,-0.98527,2023,6,12,14,16,5,139
0.03670,2.90500,-4.49750,0.00000,-0.00939,0.00927,-0.98600,2023,6,12,14,16,5,150
0.03680,3.23750,-4.56750,0.00000,-0.01000,0.01171,-0.98918,2023,6,12,14,16,5,161
0.03690,2.88750,-4.46250,0.00000,-0.01147,0.01074,-0.98588,2023,6,12,14,16,5,172
0.03700,3.06250,-4.55000,0.00000,-0.00732,0.00964,-0.98661,2023,6,12,14,16,5,184
0.03710,3.01000,-4.28750,0.00000,-0.00939,0.01183,-0.98417,2023,6,12,14,16,5,195
0.03720,3.06250,-4.60250,0.00000,-0.01049,0.00952,-0.98600,2023,6,12,14,16,5,206
0.03730,3.08000,-4.70750,0.00000,-0.01110,0.01122,-0.98857,2023,6,12,14,16,5,217
0.03740,3.15000,-4.63750,0.00000,-0.01086,0.00939,-0.98832,2023,6,12,14,16,5,228
0.03750,3.02750,-4.44500,0.00000,-0.01037,0.01208,-0.98649,2023,6,12,14,16,5,239
0.03760,3.30750,-4.62000,0.00000,-0.01061,0.01171,-0.98564,2023,6,12,14,16,5,250
0.03770,2.95750,-4.51500,0.00000,-0.01049,0.01135,-0.98832,2023,6,12,14,16,5,261
0.03780,3.15000,-4.69000,0.00000,-0.01013,0.01098,-0.98820,2023,6,12,14,16,5,272
0.03790,3.06250,-4.58500,0.00000,-0.01025,0.01061,-0.98478,2023,6,12,14,16,5,284
0.03800,3.29000,-4.90000,0.00000,-0.01110,0.00817,-0.98539,2023,6,12,14,16,5,295
0.03810,3.01000,-4.65500,0.00000,-0.01013,0.01086,-0.98869,2023,6,12,14,16,5,306
0.03820,2.99250,-4.62000,0.00000,-0.00988,0.01086,-0.98564,2023,6,12,14,16,5,317
0.03830,3.18500,-4.58500,0.00000,-0.01061,0.01061,-0.98625,2023,6,12,14,16,5,328
0.03840,3.04500,-4.62000,0.00000,-0.00939,0.01061,-0.98564,2023,6,12,14,16,5,339
0.03850,3.06250,-4.55000,0.00000,-0.00830,0.01183,-0.99015,2023,6,12,14,16,5,350
0.03860,3.11500,-4.63750,0.00000,-0.00976,0.01122,-0.98564,2023,6,12,14,16,5,361
0.03870,3.06250,-4.48000,0.00000,-0.00976,0.00988,-0.98796,2023,6,12,14,16,5,372
0.03880,2.97500,-4.39250,0.00000,-0.01049,0.01098,-0.98930,2023,6,12,14,16,5,384
0.03890,3.11500,-4.56750,0.00000,-0.00927,0.01257,-0.98759,2023,6,12,14,16,5,395
0.03900,3.08000,-4.67250,0.00000,-0.01025,0.00964,-0.98710,2023,6,12,14,16,5,406
0.03910,2.92250,-4.42750,0.00000,-0.01049,0.00903,-0.98710,2023,6,12,14,16,5,417
0.03920,3.30750,-4.41000,0.00000,-0.00952,0.01025,-0.98966,2023,6,12,14,16,5,428
0.03930,3.15000,-4.63750,0.00000,-0.01049,0.01025,-0.98759,2023,6,12,14,16,5,439
0.03940,3.09750,-4.49750,0.00000,-0.00781,0.01086,-0.98820,2023,6,12,14,16,5,450
0.03950,3.09750,-4.58500,0.00000,-0.00939,0.01135,-0.98564,2023,6,12,14,16,5,461
0.03960,3.11500,-4.60250,0.00000,-0.01025,0.01000,-0.98796,2023,6,12,14,16,5,472
0.03970,3.15000,-4.69000,0.00000,-0.01086,0.01000,-0.98905,2023,6,12,14,16,5,484
0.03980,3.13250,-4.56750,0.00000,-0.01037,0.01293,-0.98881,2023,6,12,14,16,5,495
0.03990,3.01000,-4.35750,0.00000,-0.00939,0.01013,-0.98503,2023,6,12,14,16,5,506
0.04000,3.23750,-4.58500,0.00000,-0.00976,0.00915,-0.98869,2023,6,12,14,16,5,517
0.04010,3.16750,-4.56750,0.00000,-0.00781,0.01232,-0.98600,2023,6,12,14,16,5,528
0.04020,3.13250,-4.62000,0.00000,-0.00903,0.00952,-0.98613,2023,6,12,14,16,5,539
0.04030,3.01000,-4.60250,0.00000,-0.00866,0.01098,-0.98783,2023,6,12,14,16,5,550
0.04040,3.06250,-4.44500,0.00000,-0.00878,0.01086,-0.98857,2023,6,12,14,16,5,561
0.04050,3.11500,-4.76000,0.00000,-0.01025,0.01147,-0.98735,2023,6,12,14,16,5,572
0.04060,2.88750,-4.67250,0.00000,-0.01061,0.01122,-0.98930,2023,6,12,14,16,5,584
0.04070,3.09750,-4.44500,0.00000,-0.01000,0.01074,-0.98686,2023,6,12,14,16,5,595
0.04080,3.08000,-4.55000,0.00000,-0.01025,0.00854,-0.98808,2023,6,12,14,16,5,606
0.04090,3.09750,-4.88250,0.00000,-0.00976,0.01110,-0.98820,2023,6,12,14,16,5,617
0.04100,3.06250,-4.67250,0.00000,-0.00976,0.01061,-0.98539,2023,6,12,14,16,5,628
0.04110,2.83500,-4.56750,0.00000,-0.00878,0.01000,-0.98588,2023,6,12,14,16,5,639
0.04120,2.99250,-4.51500,0.00000,-0.00854,0.00842,-0.98832,2023,6,12,14,16,5,650
0.04130,2.88750,-4.51500,0.00000,-0.01159,0.01074,-0.99015,2023,6,12,14,16,5,661
0.04140,3.01000,-4.42750,0.00000,-0.00866,0.01122,-0.98942,2023,6,12,14,16,5,672
0.04150,3.06250,-4.58500,0.00000,-0.00939,0.01037,-0.98905,2023,6,12,14,16,5,684
0.04160,3.02750,-4.67250,0.00000,-0.01037,0.01037,-0.98661,2023,6,12,14,16,5,695
0.04170,3.04500,-4.53250,0.00000,-0.00854,0.01049,-0.98857,2023,6,12,14,16,5,706
0.04180,3.15000,-4.56750,0.00000,-0.01086,0.01086,-0.98649,2023,6,12,14,16,5,717
0.04190,2.97500,-4.60250,0.00000,-0.00927,0.01074,-0.98857,2023,6,12,14,16,5,728
0.04200,3.11500,-4.60250,0.00000,-0.00854,0.00878,-0.98905,2023,6,12,14,16,5,739
0.04210,3.09750,-4.62000,0.00000,-0.01122,0.01147,-0.98844,2023,6,12,14,16,5,750
0.04220,2.81750,-4.49750,0.00000,-0.01025,0.01244,-0.98893,2023,6,12,14,16,5,761
0.04230,3.29000,-4.77750,0.00000,-0.01122,0.01098,-0.99088,2023,6,12,14,16,5,772
0.04240,3.22000,-4.46250,0.00000,-0.01061,0.01208,-0.98905,2023,6,12,14,16,5,784
0.04250,3.13250,-4.48000,0.00000,-0.00903,0.01086,-0.98820,2023,6,12,14,16,5,795
0.04260,3.27250,-4.56750,0.00000,-0.00952,0.00988,-0.98515,2023,6,12,14,16,5,806
0.04270,3.15000,-4.55000,0.00000,-0.00854,0.01037,-0.99186,2023,6,12,14,16,5,817
0.04280,2.99250,-4.55000,0.00000,-0.01098,0.01122,-0.99040,2023,6,12,14,16,5,828
0.04290,3.04500,-4.53250,0.00000,-0.00903,0.01098,-0.98552,2023,6,12,14,16,5,839
0.04300,2.95750,-4.56750,0.00000,-0.00866,0.00976,-0.98552,2023,6,12,14,16,5,850
0.04310,3.04500,-4.49750,0.00000,-0.00939,0.01074,-0.98710,2023,6,12,14,16,5,861
0.04320,3.01000,-4.65500,0.00000,-0.00976,0.00781,-0.98796,2023,6,12,14,16,5,872
0.04330,3.13250,-4.55000,0.00000,-0.00878,0.01025,-0.98905,2023,6,12,14,16,5,884
0.04340,2.92250,-4.62000,0.00000,-0.01049,0.01013,-0.99088,2023,6,12,14,16,5,895
0.04350,3.27250,-4.53250,0.00000,-0.00842,0.00927,-0.98832,2023,6,12,14,16,5,906
0.04360,3.11500,-4.69000,0.00000,-0.01037,0.01342,-0.98820,2023,6,12,14,16,5,917
0.04370,3.04500,-4.76000,0.00000,-0.01049,0.00952,-0.98478,2023,6,12,14,16,5,928
0.04380,3.06250,-4.56750,0.00000,-0.00988,0.01122,-0.98649,2023,6,12,14,16,5,939
0.04390,3.04500,-4.48000,0.00000,-0.01122,0.01183,-0.98722,2023,6,12,14,16,5,950
0.04400,3.09750,-4.65500,0.00000,-0.00927,0.01110,-0.98503,2023,6,12,14,16,5,961
0.04410,3.23750,-4.65500,0.00000,-0.00915,0.00854,-0.98710,2023,6,12,14,16,5,972
0.04420,3.06250,-4.48000,0.00000,-0.00988,0.01122,-0.98771,2023,6,12,14,16,6,4
0.04430,3.15000,-4.60250,0.00000,-0.00976,0.01183,-0.98783,2023,6,12,14,16,6,15
0.04440,2.88750,-4.41000,0.00000,-0.01159,0.01147,-0.98625,2023,6,12,14,16,6,26
0.04450,3.04500,-4.56750,0.00000,-0.00817,0.01110,-0.98686,2023,6,12,14,16,6,37
0.04460,3.02750,-4.72500,0.00000,-0.00878,0.01037,-0.98844,2023,6,12,14,16,6,48
0.04470,3.01000,-4.62000,0.00000,-0.00976,0.01135,-0.98808,2023,6,12,14,16,6,59
0.04480,3.11500,-4.58500,0.00000,-0.00793,0.01232,-0.98698,2023,6,12,14,16,6,70
0.04490,2.99250,-4.49750,0.00000,-0.00866,0.01159,-0.98661,2023,6,12,14,16,6,81
0.04500,2.92250,-4.83000,0.00000,-0.00939,0.01196,-0.98674,2023,6,12,14,16,6,92
0.04510,3.01000,-4.55000,0.00000,-0.00830,0.00964,-0.98613,2023,6,12,14,16,6,104
0.04520,3.06250,-4.67250,0.00000,-0.00952,0.01086,-0.98735,2023,6,12,14,16,6,115
0.04530,3.20250,-4.62000,0.00000,-0.00854,0.01232,-0.98905,2023,6,12,14,16,6,126
0.04540,2.81750,-4.53250,0.00000,-0.00878,0.00915,-0.98771,2023,6,12,14,16,6,137
0.04550,3.02750,-4.41000,0.00000,-0.00952,0.01122,-0.98722,2023,6,12,14,16,6,148
0.04560,2.80000,-4.51500,0.00000,-0.01037,0.01086,-0.99088,2023,6,12,14,16,6,159
0.04570,2.90500,-4.42750,0.00000,-0.01122,0.01244,-0.98844,2023,6,12,14,16,6,170
0.04580,3.08000,-4.48000,0.00000,-0.00952,0.01013,-0.98454,2023,6,12,14,16,6,181
0.04590,3.13250,-4.46250,0.00000,-0.01098,0.01122,-0.98820,2023,6,12,14,16,6,192
0.04600,3.23750,-4.70750,0.00000,-0.00805,0.01281,-0.98564,2023,6,12,14,16,6,204
0.04610,3.15000,-4.51500,0.00000,-0.01110,0.01061,-0.98735,2023,6,12,14,16,6,215
0.04620,3.18500,-4.60250,0.00000,-0.00781,0.00964,-0.98661,2023,6,12,14,16,6,226
0.04630,3.11500,-4.53250,0.00000,-0.01000,0.01086,-0.98686,2023,6,12,14,16,6,237
0.04640,3.13250,-4.63750,0.00000,-0.00915,0.00927,-0.98905,2023,6,12,14,16,6,248
0.04650,3.06250,-4.48000,0.00000,-0.00952,0.01281,-0.98954,2023,6,12,14,16,6,259
0.04660,3.08000,-4.65500,0.00000,-0.00866,0.00927,-0.98686,2023,6,12,14,16,6,270
0.04670,3.27250,-4.62000,0.00000,-0.00866,0.01074,-0.98747,2023,6,12,14,16,6,281
0.04680,3.20250,-4.67250,0.00000,-0.01171,0.01037,-0.98844,2023,6,12,14,16,6,292
0.04690,3.08000,-4.60250,0.00000,-0.00891,0.01049,-0.98539,2023,6,12,14,16,6,304
0.04700,3.08000,-4.39250,0.00000,-0.00878,0.00903,-0.98661,2023,6,12,14,16,6,315
0.04710,3.04500,-4.35750,0.00000,-0.01049,0.01061,-0.98637,2023,6,12,14,16,6,326
0.04720,2.87000,-4.39250,0.00000,-0.00976,0.01135,-0.98735,2023,6,12,14,16,6,337
0.04730,3.16750,-4.55000,0.00000,-0.00952,0.01208,-0.98564,2023,6,12,14,16,6,348
0.04740,3.13250,-4.58500,0.00000,-0.00854,0.01074,-0.98417,2023,6,12,14,16,6,359
0.04750,3.11500,-4.37500,0.00000,-0.01074,0.01061,-0.98527,2023,6,12,14,16,6,370
0.04760,3.30750,-4.65500,0.00000,-0.01037,0.01135,-0.98783,2023,6,12,14,16,6,381
0.04770,3.18500,-4.62000,0.00000,-0.01061,0.01171,-0.98808,2023,6,12,14,16,6,392
0.04780,2.92250,-4.51500,0.00000,-0.00915,0.01220,-0.99113,2023,6,12,14,16,6,404
0.04790,3.13250,-4.60250,0.00000,-0.01037,0.01049,-0.98625,2023,6,12,14,16,6,415
0.04800,3.02750,-4.51500,0.00000,-0.00952,0.01122,-0.98674,2023,6,12,14,16,6,426
0.04810,3.06250,-4.49750,0.00000,-0.00830,0.00988,-0.98661,2023,6,12,14,16,6,437
0.04820,2.97500,-4.55000,0.00000,-0.01074,0.01122,-0.98954,2023,6,12,14,16,6,448
0.04830,3.23750,-4.58500,0.00000,-0.00720,0.01037,-0.98564,2023,6,12,14,16,6,459
0.04840,3.08000,-4.62000,0.00000,-0.01061,0.01061,-0.98918,2023,6,12,14,16,6,470
0.04850,3.01000,-4.63750,0.00000,-0.00866,0.01061,-0.98649,2023,6,12,14,16,6,481
0.04860,3.15000,-4.51500,0.00000,-0.01171,0.01061,-0.98942,2023,6,12,14,16,6,492
0.04870,3.09750,-4.55000,0.00000,-0.00878,0.01037,-0.98832,2023,6,12,14,16,6,504
0.04880,3.11500,-4.56750,0.00000,-0.00842,0.00854,-0.98881,2023,6,12,14,16,6,515
0.04890,3.02750,-4.69000,0.00000,-0.00915,0.01220,-0.98905,2023,6,12,14,16,6,526
0.04900,2.97500,-4.63750,0.00000,-0.00952,0.00988,-0.98771,2023,6,12,14,16,6,537
0.04910,3.04500,-4.63750,0.00000,-0.01025,0.01013,-0.98759,2023,6,12,14,16,6,548
0.04920,3.04500,-4.60250,0.00000,-0.00866,0.01098,-0.98942,2023,6,12,14,16,6,559
0.04930,3.09750,-4.56750,0.00000,-0.01061,0.01037,-0.98527,2023,6,12,14,16,6,570
0.04940,3.18500,-4.76000,0.00000,-0.01074,0.01037,-0.99113,2023,6,12,14,16,6,581
0.04950,3.02750,-4.56750,0.00000,-0.00927,0.00781,-0.98808,2023,6,12,14,16,6,592
0.04960,3.02750,-4.48000,0.00000,-0.00854,0.00976,-0.98576,2023,6,12,14,16,6,604
0.04970,3.18500,-4.60250,0.00000,-0.01049,0.01049,-0.99052,2023,6,12,14,16,6,615
0.04980,3.11500,-4.69000,0.00000,-0.01037,0.01208,-0.98918,2023,6,12,14,16,6,626
0.04990,2.87000,-4.39250,0.00000,-0.00878,0.01135,-0.98722,2023,6,12,14,16,6,637
0.05000,3.25500,-4.77750,0.00000,-0.01037,0.00988,-0.98869,2023,6,12,14,16,6,648
0.05010,3.01000,-4.62000,0.00000,-0.00988,0.01135,-0.98625,2023,6,12,14,16,6,659
0.05020,3.11500,-4.77750,0.00000,-0.00939,0.01147,-0.99015,2023,6,12,14,16,6,670
0.05030,3.22000,-4.55000,0.00000,-0.00891,0.01098,-0.98552,2023,6,12,14,16,6,681
0.05040,3.04500,-4.79500,0.00000,-0.00903,0.01013,-0.98710,2023,6,12,14,16,6,692
0.05050,2.88750,-4.56750,0.00000,-0.01013,0.00988,-0.98588,2023,6,12,14,16,6,704
0.05060,3.13250,-4.41000,0.00000,-0.00842,0.01013,-0.98393,2023,6,12,14,16,6,715
0.05070,3.02750,-4.76000,0.00000,-0.00903,0.01135,-0.99345,2023,6,12,14,16,6,726
0.05080,3.16750,-4.48000,0.00000,-0.00854,0.00952,-0.98844,2023,6,12,14,16,6,737
0.05090,2.97500,-4.74250,0.00000,-0.01098,0.00769,-0.98820,2023,6,12,14,16,6,748
0.05100,3.18500,-4.42750,0.00000,-0.01025,0.01098,-0.98320,2023,6,12,14,16,6,759
0.05110,3.02750,-4.58500,0.00000,-0.01025,0.01232,-0.98600,2023,6,12,14,16,6,770
0.05120,3.08000,-4.70750,0.00000,-0.00915,0.01183,-0.98905,2023,6,12,14,16,6,781
0.05130,3.13250,-4.58500,0.00000,-0.01074,0.00817,-0.98722,2023,6,12,14,16,6,792
0.05140,3.11500,-4.55000,0.00000,-0.00939,0.01074,-0.98503,2023,6,12,14,16,6,804
0.05150,2.99250,-4.58500,0.00000,-0.01196,0.01074,-0.99088,2023,6,12,14,16,6,815
0.05160,3.02750,-4.63750,0.00000,-0.01086,0.01135,-0.98527,2023,6,12,14,16,6,826
0.05170,3.06250,-4.42750,0.00000,-0.01171,0.01244,-0.98527,2023,6,12,14,16,6,837
0.05180,3.29000,-4.74250,0.00000,-0.01110,0.01049,-0.98783,2023,6,12,14,16,6,848
0.05190,2.92250,-4.56750,0.00000,-0.01000,0.00988,-0.98869,2023,6,12,14,16,6,859
0.05200,3.02750,-4.74250,0.00000,-0.00939,0.01122,-0.98808,2023,6,12,14,16,6,870
0.05210,3.16750,-4.55000,0.00000,-0.00830,0.01171,-0.98539,2023,6,12,14,16,6,881
0.05220,3.22000,-4.53250,0.00000,-0.00842,0.00878,-0.98832,2023,6,12,14,16,6,892
0.05230,2.95750,-4.67250,0.00000,-0.00891,0.00976,-0.98796,2023,6,12,14,16,6,904
0.05240,2.94000,-4.51500,0.00000,-0.00927,0.00903,-0.98588,2023,6,12,14,16,6,915
0.05250,3.06250,-4.63750,0.00000,-0.01074,0.00988,-0.98674,2023,6,12,14,16,6,926
0.05260,3.16750,-4.56750,0.00000,-0.01049,0.01013,-0.98503,2023,6,12,14,16,6,937
0.05270,3.08000,-4.49750,0.00000,-0.01025,0.01074,-0.98625,2023,6,12,14,16,6,948
0.05280,3.02750,-4.35750,0.00000,-0.00915,0.01220,-0.98491,2023,6,12,14,16,6,959
0.05290,3.06250,-4.88250,0.00000,-0.00805,0.00891,-0.98613,2023,6,12,14,16,6,970
0.05300,3.30750,-4.65500,0.00000,-0.01122,0.00964,-0.98637,2023,6,12,14,16,7,1
0.05310,2.92250,-4.55000,0.00000,-0.00878,0.00976,-0.98674,2023,6,12,14,16,7,12
0.05320,3.13250,-4.65500,0.00000,-0.01000,0.01037,-0.99003,2023,6,12,14,16,7,24
0.05330,3.29000,-4.63750,0.00000,-0.00842,0.00952,-0.98600,2023,6,12,14,16,7,35
0.05340,2.83500,-4.74250,0.00000,-0.01037,0.01305,-0.98808,2023,6,12,14,16,7,46
0.05350,3.09750,-4.58500,0.00000,-0.01147,0.01196,-0.98857,2023,6,12,14,16,7,57
0.05360,3.01000,-4.58500,0.00000,-0.01000,0.01049,-0.98613,2023,6,12,14,16,7,68
0.05370,3.09750,-4.42750,0.00000,-0.01037,0.01086,-0.98454,2023,6,12,14,16,7,79
0.05380,3.13250,-4.63750,0.00000,-0.01025,0.01208,-0.98539,2023,6,12,14,16,7,90
0.05390,3.20250,-4.51500,0.00000,-0.01110,0.01098,-0.98710,2023,6,12,14,16,7,101
0.05400,3.02750,-4.69000,0.00000,-0.01049,0.01183,-0.98552,2023,6,12,14,16,7,112
0.05410,2.97500,-4.49750,0.00000,-0.00817,0.01196,-0.98674,2023,6,12,14,16,7,124
0.05420,3.27250,-4.69000,0.00000,-0.00976,0.00976,-0.98783,2023,6,12,14,16,7,135
0.05430,3.04500,-4.62000,0.00000,-0.00720,0.01037,-0.98478,2023,6,12,14,16,7,146
0.05440,2.99250,-4.76000,0.00000,-0.00964,0.01049,-0.98576,2023,6,12,14,16,7,157
0.05450,3.02750,-4.79500,0.00000,-0.00976,0.01025,-0.98783,2023,6,12,14,16,7,168
0.05460,3.06250,-4.39250,0.00000,-0.00903,0.01147,-0.98539,2023,6,12,14,16,7,179
0.05470,3.06250,-4.55000,0.00000,-0.00830,0.01074,-0.98576,2023,6,12,14,16,7,190
0.05480,3.01000,-4.65500,0.00000,-0.01159,0.01159,-0.98893,2023,6,12,14,16,7,201
0.05490,3.09750,-4.60250,0.00000,-0.00842,0.01086,-0.98759,2023,6,12,14,16,7,212
0.05500,3.04500,-4.56750,0.00000,-0.00793,0.01061,-0.98747,2023,6,12,14,16,7,224
0.05510,3.04500,-4.58500,0.00000,-0.01171,0.01403,-0.98844,2023,6,12,14,16,7,235
0.05520,3.04500,-4.67250,0.00000,-0.01122,0.01318,-0.99149,2023,6,12,14,16,7,246
0.05530,3.08000,-4.60250,0.00000,-0.00952,0.01183,-0.98869,2023,6,12,14,16,7,257
0.05540,2.99250,-4.56750,0.00000,-0.00891,0.01013,-0.98844,2023,6,12,14,16,7,268
0.05550,3.11500,-4.67250,0.00000,-0.00915,0.01232,-0.98576,2023,6,12,14,16,7,279
0.05560,3.13250,-4.46250,0.00000,-0.01110,0.01049,-0.98905,2023,6,12,14,16,7,290
0.05570,3.13250,-4.81250,0.00000,-0.00756,0.01098,-0.99149,2023,6,12,14,16,7,301
0.05580,2.99250,-4.63750,0.00000,-0.00854,0.01257,-0.98747,2023,6,12,14,16,7,312
0.05590,3.11500,-4.53250,0.00000,-0.01110,0.00939,-0.98674,2023,6,12,14,16,7,324
0.05600,2.95750,-4.48000,0.00000,-0.01037,0.01196,-0.98539,2023,6,12,14,16,7,335
0.05610,3.08000,-4.69000,0.00000,-0.00854,0.01110,-0.98771,2023,6,12,14,16,7,346
0.05620,3.08000,-4.56750,0.00000,-0.00793,0.01061,-0.98808,2023,6,12,14,16,7,357
0.05630,3.06250,-4.49750,0.00000,-0.00842,0.01232,-0.98905,2023,6,12,14,16,7,368
0.05640,3.16750,-4.65500,0.00000,-0.01122,0.01220,-0.98966,2023,6,12,14,16,7,379
0.05650,3.09750,-4.55000,0.00000,-0.00878,0.00927,-0.98991,2023,6,12,14,16,7,390
0.05660,3.02750,-4.62000,0.00000,-0.01013,0.01074,-0.98893,2023,6,12,14,16,7,401
0.05670,3.20250,-4.63750,0.00000,-0.00952,0.00988,-0.98625,2023,6,12,14,16,7,412
0.05680,3.06250,-4.60250,0.00000,-0.01000,0.01025,-0.98869,2023,6,12,14,16,7,424
0.05690,3.11500,-4.65500,0.00000,-0.01110,0.00976,-0.98564,2023,6,12,14,16,7,435
0.05700,3.22000,-4.70750,0.00000,-0.01244,0.00976,-0.98588,2023,6,12,14,16,7,446
0.05710,3.09750,-4.69000,0.00000,-0.00756,0.01159,-0.98637,2023,6,12,14,16,7,457
0.05720,3.09750,-4.70750,0.00000,-0.01122,0.01086,-0.98686,2023,6,12,14,16,7,468
0.05730,3.11500,-4.70750,0.00000,-0.01159,0.01135,-0.98637,2023,6,12,14,16,7,479
0.05740,3.32500,-4.41000,0.00000,-0.00866,0.01183,-0.98491,2023,6,12,14,16,7,490
0.05750,3.16750,-4.53250,0.00000,-0.01098,0.01196,-0.98796,2023,6,12,14,16,7,501
0.05760,3.06250,-4.69000,0.00000,-0.00830,0.01257,-0.98722,2023,6,12,14,16,7,512
0.05770,3.11500,-4.58500,0.00000,-0.00878,0.01098,-0.98600,2023,6,12,14,16,7,524
0.05780,3.09750,-4.72500,0.00000,-0.00939,0.00939,-0.98637,2023,6,12,14,16,7,535
0.05790,3.20250,-4.62000,0.00000,-0.01037,0.00915,-0.98649,2023,6,12,14,16,7,546
0.05800,2.95750,-4.58500,0.00000,-0.00976,0.01257,-0.98722,2023,6,12,14,16,7,557
0.05810,3.06250,-4.62000,0.00000,-0.01074,0.01037,-0.98698,2023,6,12,14,16,7,568
0.05820,3.11500,-4.90000,0.00000,-0.01013,0.01135,-0.98661,2023,6,12,14,16,7,579
0.05830,3.18500,-4.65500,0.00000,-0.00891,0.01122,-0.98710,2023,6,12,14,16,7,590
0.05840,3.04500,-4.63750,0.00000,-0.00988,0.01183,-0.98747,2023,6,12,14,16,7,601
0.05850,3.02750,-4.65500,0.00000,-0.01183,0.01159,-0.98698,2023,6,12,14,16,7,612
0.05860,3.11500,-4.62000,0.00000,-0.00927,0.01147,-0.98588,2023,6,12,14,16,7,624
0.05870,3.08000,-4.41000,0.00000,-0.00939,0.00988,-0.98588,2023,6,12,14,16,7,635
0.05880,3.16750,-4.79500,0.00000,-0.01025,0.01110,-0.98796,2023,6,12,14,16,7,646
0.05890,3.04500,-4.55000,0.00000,-0.01037,0.01074,-0.98564,2023,6,12,14,16,7,657
0.05900,3.02750,-4.56750,0.00000,-0.01086,0.01098,-0.98686,2023,6,12,14,16,7,668
0.05910,3.08000,-4.56750,0.00000,-0.00964,0.00842,-0.98637,2023,6,12,14,16,7,679
0.05920,3.11500,-4.49750,0.00000,-0.00903,0.01061,-0.98722,2023,6,12,14,16,7,690
0.05930,2.92250,-4.60250,0.00000,-0.00939,0.01122,-0.98674,2023,6,12,14,16,7,701
0.05940,3.27250,-4.60250,0.00000,-0.01061,0.01074,-0.98686,2023,6,12,14,16,7,712
0.05950,3.20250,-4.62000,0.00000,-0.00964,0.01025,-0.98539,2023,6,12,14,16,7,724
0.05960,3.23750,-4.70750,0.00000,-0.01098,0.01086,-0.98637,2023,6,12,14,16,7,735
0.05970,3.16750,-4.56750,0.00000,-0.01025,0.01147,-0.98820,2023,6,12,14,16,7,746
0.05980,3.15000,-4.70750,0.00000,-0.00952,0.01281,-0.98954,2023,6,12,14,16,7,757
0.05990,2.94000,-4.49750,0.00000,-0.01098,0.01074,-0.98613,2023,6,12,14,16,7,768
0.06000,3.20250,-4.76000,0.00000,-0.00842,0.01305,-0.98905,2023,6,12,14,16,7,779
0.06010,3.18500,-4.48000,0.00000,-0.00976,0.01049,-0.98552,2023,6,12,14,16,7,790
0.06020,3.02750,-4.63750,0.00000,-0.01196,0.01025,-0.98710,2023,6,12,14,16,7,801
0.06030,2.87000,-4.49750,0.00000,-0.00952,0.01269,-0.98722,2023,6,12,14,16,7,812
0.06040,3.15000,-4.58500,0.00000,-0.00878,0.01110,-0.98564,2023,6,12,14,16,7,824
0.06050,2.90500,-4.56750,0.00000,-0.00866,0.01232,-0.98674,2023,6,12,14,16,7,835
0.06060,3.08000,-4.48000,0.00000,-0.01013,0.00817,-0.98625,2023,6,12,14,16,7,846
0.06070,3.11500,-4.56750,0.00000,-0.00939,0.01098,-0.98576,2023,6,12,14,16,7,857
0.06080,3.02750,-4.37500,0.00000,-0.00878,0.01159,-0.98783,2023,6,12,14,16,7,868
0.06090,3.15000,-4.69000,0.00000,-0.01086,0.01269,-0.98771,2023,6,12,14,16,7,879
0.06100,3.01000,-4.49750,0.00000,-0.00952,0.01098,-0.98674,2023,6,12,14,16,7,890
0.06110,3.08000,-4.65500,0.00000,-0.00964,0.00915,-0.98893,2023,6,12,14,16,7,901
0.06120,2.90500,-4.67250,0.00000,-0.00866,0.00915,-0.98747,2023,6,12,14,16,7,912
0.06130,2.95750,-4.63750,0.00000,-0.01110,0.01049,-0.98869,2023,6,12,14,16,7,924
0.06140,3.18500,-4.42750,0.00000,-0.01086,0.01074,-0.98844,2023,6,12,14,16,7,935
0.06150,3.04500,-4.44500,0.00000,-0.01049,0.01061,-0.98930,2023,6,12,14,16,7,946
0.06160,3.09750,-4.67250,0.00000,-0.00988,0.01013,-0.98478,2023,6,12,14,16,7,957
0.06170,3.11500,-4.77750,0.00000,-0.01025,0.00878,-0.98564,2023,6,12,14,16,7,968
0.06180,3.04500,-4.72500,0.00000,-0.00939,0.01159,-0.98820,2023,6,12,14,16,7,979
0.06190,3.09750,-4.58500,0.00000,-0.00952,0.00915,-0.98661,2023,6,12,14,16,8,0
0.06200,2.92250,-4.51500,0.00000,-0.01037,0.01074,-0.98613,2023,6,12,14,16,8,11
0.06210,2.88750,-4.60250,0.00000,-0.00964,0.01061,-0.98649,2023,6,12,14,16,8,22
0.06220,3.01000,-4.65500,0.00000,-0.00891,0.00769,-0.98515,2023,6,12,14,16,8,34
0.06230,2.83500,-4.55000,0.00000,-0.00988,0.01037,-0.98869,2023,6,12,14,16,8,45
0.06240,3.02750,-4.70750,0.00000,-0.01208,0.00866,-0.98478,2023,6,12,14,16,8,56
0.06250,3.13250,-4.67250,0.00000,-0.00830,0.01196,-0.99064,2023,6,12,14,16,8,67
0.06260,3.02750,-4.48000,0.00000,-0.00817,0.01159,-0.98710,2023,6,12,14,16,8,78
0.06270,3.11500,-4.65500,0.00000,-0.00964,0.01159,-0.98747,2023,6,12,14,16,8,89
0.06280,3.11500,-4.46250,0.00000,-0.00952,0.01147,-0.98710,2023,6,12,14,16,8,100
0.06290,2.83500,-4.27000,0.00000,-0.01074,0.00915,-0.98735,2023,6,12,14,16,8,111
0.06300,3.02750,-4.46250,0.00000,-0.00976,0.01086,-0.98771,2023,6,12,14,16,8,122
0.06310,3.27250,-4.53250,0.00000,-0.00647,0.01159,-0.98820,2023,6,12,14,16,8,134
0.06320,3.13250,-4.70750,0.00000,-0.00854,0.01122,-0.98625,2023,6,12,14,16,8,145
0.06330,3.08000,-4.53250,0.00000,-0.00988,0.01110,-0.98869,2023,6,12,14,16,8,156
0.06340,3.08000,-4.74250,0.00000,-0.01098,0.01000,-0.98686,2023,6,12,14,16,8,167
0.06350,3.13250,-4.55000,0.00000,-0.01110,0.01244,-0.98832,2023,6,12,14,16,8,178
0.06360,3.04500,-4.63750,0.00000,-0.00915,0.01086,-0.98674,2023,6,12,14,16,8,189
0.06370,2.87000,-4.49750,0.00000,-0.01000,0.00891,-0.98271,2023,6,12,14,16,8,200
0.06380,3.15000,-4.65500,0.00000,-0.00891,0.00976,-0.98625,2023,6,12,14,16,8,211
0.06390,3.09750,-4.41000,0.00000,-0.01000,0.01098,-0.99186,2023,6,12,14,16,8,222
0.06400,3.09750,-4.58500,0.00000,-0.01000,0.01135,-0.98503,2023,6,12,14,16,8,234
0.06410,3.08000,-4.53250,0.00000,-0.00952,0.01098,-0.98869,2023,6,12,14,16,8,245
0.06420,3.02750,-4.46250,0.00000,-0.01135,0.01098,-0.98491,2023,6,12,14,16,8,256
0.06430,3.01000,-4.70750,0.00000,-0.01025,0.01257,-0.98747,2023,6,12,14,16,8,267
0.06440,3.15000,-4.53250,0.00000,-0.00988,0.01171,-0.98625,2023,6,12,14,16,8,278
0.06450,2.85250,-4.55000,0.00000,-0.00915,0.01305,-0.98649,2023,6,12,14,16,8,289
0.06460,3.15000,-4.51500,0.00000,-0.00988,0.01159,-0.98722,2023,6,12,14,16,8,300
0.06470,3.13250,-4.74250,0.00000,-0.00939,0.01147,-0.98881,2023,6,12,14,16,8,311
0.06480,3.23750,-4.49750,0.00000,-0.00939,0.01000,-0.98503,2023,6,12,14,16,8,322
0.06490,3.01000,-4.46250,0.00000,-0.01122,0.00952,-0.98613,2023,6,12,14,16,8,334
0.06500,3.06250,-4.46250,0.00000,-0.01013,0.01220,-0.98783,2023,6,12,14,16,8,345
0.06510,3.15000,-4.63750,0.00000,-0.01220,0.01074,-0.98625,2023,6,12,14,16,8,356
0.06520,3.15000,-4.62000,0.00000,-0.00964,0.01220,-0.98478,2023,6,12,14,16,8,367
0.06530,3.16750,-4.70750,0.00000,-0.00952,0.01159,-0.98722,2023,6,12,14,16,8,378
0.06540,3.18500,-4.56750,0.00000,-0.01013,0.01049,-0.98820,2023,6,12,14,16,8,389
0.06550,3.11500,-4.56750,0.00000,-0.00866,0.01110,-0.98759,2023,6,12,14,16,8,400
0.06560,3.02750,-4.58500,0.00000,-0.00878,0.01305,-0.98674,2023,6,12,14,16,8,411
0.06570,3.08000,-4.56750,0.00000,-0.00805,0.01074,-0.99088,2023,6,12,14,16,8,422
0.06580,3.09750,-4.60250,0.00000,-0.00854,0.01196,-0.98796,2023,6,12,14,16,8,434
0.06590,3.25500,-4.60250,0.00000,-0.01171,0.01049,-0.98600,2023,6,12,14,16,8,445
0.06600,3.04500,-4.46250,0.00000,-0.01086,0.01086,-0.98625,2023,6,12,14,16,8,456
0.06610,3.15000,-4.74250,0.00000,-0.01086,0.01013,-0.98576,2023,6,12,14,16,8,467
0.06620,3.08000,-4.65500,0.00000,-0.00830,0.00964,-0.98625,2023,6,12,14,16,8,478
0.06630,3.13250,-4.65500,0.00000,-0.00891,0.01049,-0.99003,2023,6,12,14,16,8,489
0.06640,2.97500,-4.60250,0.00000,-0.01110,0.01171,-0.98637,2023,6,12,14,16,8,500
0.06650,3.13250,-4.65500,0.00000,-0.01013,0.01257,-0.98527,2023,6,12,14,16,8,511
0.06660,3.06250,-4.70750,0.00000,-0.01000,0.01171,-0.98564,2023,6,12,14,16,8,522
0.06670,3.08000,-4.69000,0.00000,-0.01098,0.01171,-0.98527,2023,6,12,14,16,8,534
0.06680,3.06250,-4.42750,0.00000,-0.01086,0.01135,-0.98637,2023,6,12,14,16,8,545
0.06690,3.01000,-4.48000,0.00000,-0.00866,0.01232,-0.98735,2023,6,12,14,16,8,556
0.06700,3.20250,-4.67250,0.00000,-0.01025,0.01013,-0.98722,2023,6,12,14,16,8,567
0.06710,3.11500,-4.56750,0.00000,-0.00866,0.01013,-0.98478,2023,6,12,14,16,8,578
0.06720,3.29000,-4.62000,0.00000,-0.00939,0.01196,-0.99040,2023,6,12,14,16,8,589
0.06730,3.09750,-4.63750,0.00000,-0.00927,0.00976,-0.98832,2023,6,12,14,16,8,600
0.06740,2.97500,-4.51500,0.00000,-0.00878,0.01037,-0.98527,2023,6,12,14,16,8,611
0.06750,3.06250,-4.42750,0.00000,-0.00939,0.01086,-0.99015,2023,6,12,14,16,8,622
0.06760,3.04500,-4.67250,0.00000,-0.01000,0.00976,-0.98771,2023,6,12,14,16,8,634
0.06770,3.15000,-4.74250,0.00000,-0.00830,0.01244,-0.98466,2023,6,12,14,16,8,645
0.06780,2.90500,-4.63750,0.00000,-0.00988,0.01366,-0.98710,2023,6,12,14,16,8,656
0.06790,3.02750,-4.72500,0.00000,-0.00805,0.01037,-0.98417,2023,6,12,14,16,8,667
0.06800,3.18500,-4.56750,0.00000,-0.00891,0.00976,-0.98661,2023,6,12,14,16,8,678
0.06810,3.15000,-4.58500,0.00000,-0.00866,0.01147,-0.98356,2023,6,12,14,16,8,689
0.06820,3.08000,-4.46250,0.00000,-0.01013,0.01049,-0.98405,2023,6,12,14,16,8,700
0.06830,3.23750,-4.48000,0.00000,-0.01122,0.01342,-0.98844,2023,6,12,14,16,8,711
0.06840,3.15000,-4.67250,0.00000,-0.01000,0.00976,-0.98649,2023,6,12,14,16,8,722
0.06850,3.01000,-4.46250,0.00000,-0.00891,0.01110,-0.98771,2023,6,12,14,16,8,734
0.06860,3.02750,-4.48000,0.00000,-0.00952,0.01098,-0.98649,2023,6,12,14,16,8,745
0.06870,3.08000,-4.37500,0.00000,-0.00915,0.00793,-0.98686,2023,6,12,14,16,8,756
0.06880,3.09750,-4.72500,0.00000,-0.00964,0.01196,-0.98710,2023,6,12,14,16,8,767
0.06890,3.11500,-4.49750,0.00000,-0.01013,0.01000,-0.98686,2023,6,12,14,16,8,778
0.06900,3.08000,-4.72500,0.00000,-0.01000,0.01086,-0.98832,2023,6,12,14,16,8,789
0.06910,3.09750,-4.41000,0.00000,-0.01025,0.01122,-0.98759,2023,6,12,14,16,8,800
0.06920,3.08000,-4.67250,0.00000,-0.01159,0.01025,-0.98747,2023,6,12,14,16,8,811
0.06930,3.13250,-4.32250,0.00000,-0.00793,0.01086,-0.98747,2023,6,12,14,16,8,822
0.06940,3.09750,-4.56750,0.00000,-0.01159,0.01013,-0.98613,2023,6,12,14,16,8,834
0.06950,3.27250,-4.48000,0.00000,-0.00878,0.01135,-0.98539,2023,6,12,14,16,8,845
0.06960,3.13250,-4.49750,0.00000,-0.01013,0.01183,-0.98747,2023,6,12,14,16,8,856
0.06970,2.92250,-4.56750,0.00000,-0.00866,0.01208,-0.99076,2023,6,12,14,16,8,867
0.06980,3.11500,-4.37500,0.00000,-0.01049,0.00891,-0.98588,2023,6,12,14,16,8,878
0.06990,3.13250,-4.69000,0.00000,-0.00988,0.01147,-0.98539,2023,6,12,14,16,8,889
0.07000,3.11500,-4.46250,0.00000,-0.01049,0.01220,-0.98320,2023,6,12,14,16,8,900
0.07010,3.01000,-4.35750,0.00000,-0.00878,0.01061,-0.98759,2023,6,12,14,16,8,911
0.07020,2.94000,-4.72500,0.00000,-0.00842,0.01013,-0.98674,2023,6,12,14,16,8,922
0.07030,3.09750,-4.58500,0.00000,-0.00830,0.01183,-0.98539,2023,6,12,14,16,8,934
0.07040,3.22000,-4.46250,0.00000,-0.01000,0.01159,-0.98771,2023,6,12,14,16,8,945
0.07050,3.09750,-4.55000,0.00000,-0.01013,0.01086,-0.98503,2023,6,12,14,16,8,956
0.07060,3.30750,-4.58500,0.00000,-0.01025,0.01232,-0.98539,2023,6,12,14,16,8,967
0.07070,3.08000,-4.69000,0.00000,-0.00903,0.01208,-0.98588,2023,6,12,14,16,9,8
0.07080,2.88750,-4.55000,0.00000,-0.00866,0.00939,-0.98686,2023,6,12,14,16,9,19
0.07090,3.18500,-4.58500,0.00000,-0.00866,0.01220,-0.99015,2023,6,12,14,16,9,30
0.07100,3.06250,-4.46250,0.00000,-0.00903,0.01159,-0.98808,2023,6,12,14,16,9,41
0.07110,3.06250,-4.53250,0.00000,-0.01110,0.01061,-0.98576,2023,6,12,14,16,9,52
0.07120,3.02750,-4.46250,0.00000,-0.01147,0.01257,-0.98710,2023,6,12,14,16,9,64
0.07130,2.88750,-4.42750,0.00000,-0.00903,0.01183,-0.98698,2023,6,12,14,16,9,75
0.07140,3.04500,-4.67250,0.00000,-0.00976,0.01074,-0.98747,2023,6,12,14,16,9,86
0.07150,3.04500,-4.58500,0.00000,-0.00817,0.01110,-0.98649,2023,6,12,14,16,9,97
0.07160,3.16750,-4.62000,0.00000,-0.01025,0.00976,-0.98674,2023,6,12,14,16,9,108
0.07170,2.94000,-4.51500,0.00000,-0.00976,0.01183,-0.98698,2023,6,12,14,16,9,119
0.07180,3.02750,-4.49750,0.00000,-0.00964,0.01147,-0.98637,2023,6,12,14,16,9,130
0.07190,3.09750,-4.63750,0.00000,-0.00891,0.01220,-0.98661,2023,6,12,14,16,9,141
0.07200,3.18500,-4.60250,0.00000,-0.01000,0.00927,-0.98722,2023,6,12,14,16,9,152
0.07210,3.04500,-4.55000,0.00000,-0.00756,0.01305,-0.98686,2023,6,12,14,16,9,164
0.07220,3.06250,-4.56750,0.00000,-0.01086,0.00952,-0.98552,2023,6,12,14,16,9,175
0.07230,3.06250,-4.63750,0.00000,-0.00976,0.01049,-0.98637,2023,6,12,14,16,9,186
0.07240,2.78250,-4.37500,0.00000,-0.00976,0.01147,-0.98857,2023,6,12,14,16,9,197
0.07250,3.23750,-4.72500,0.00000,-0.01013,0.01318,-0.98893,2023,6,12,14,16,9,208
0.07260,3.15000,-4.70750,0.00000,-0.00878,0.01074,-0.98649,2023,6,12,14,16,9,219
0.07270,3.13250,-4.67250,0.00000,-0.00830,0.01171,-0.98710,2023,6,12,14,16,9,230
0.07280,3.13250,-4.72500,0.00000,-0.01013,0.01135,-0.98661,2023,6,12,14,16,9,241
0.07290,2.90500,-4.48000,0.00000,-0.01049,0.00927,-0.98417,2023,6,12,14,16,9,252
0.07300,3.08000,-4.70750,0.00000,-0.01086,0.01000,-0.98820,2023,6,12,14,16,9,264
0.07310,3.11500,-4.65500,0.00000,-0.00915,0.01025,-0.98649,2023,6,12,14,16,9,275
0.07320,3.01000,-4.55000,0.00000,-0.01208,0.00976,-0.99027,2023,6,12,14,16,9,286
0.07330,3.08000,-4.70750,0.00000,-0.00769,0.01110,-0.98344,2023,6,12,14,16,9,297
0.07340,3.08000,-4.60250,0.00000,-0.01135,0.01269,-0.98844,2023,6,12,14,16,9,308
0.07350,3.25500,-4.55000,0.00000,-0.01135,0.01171,-0.98735,2023,6,12,14,16,9,319
0.07360,3.13250,-4.44500,0.00000,-0.01086,0.01074,-0.98735,2023,6,12,14,16,9,330
0.07370,3.09750,-4.63750,0.00000,-0.00903,0.00964,-0.98564,2023,6,12,14,16,9,341
0.07380,3.02750,-4.67250,0.00000,-0.01037,0.01013,-0.98735,2023,6,12,14,16,9,352
0.07390,3.06250,-4.62000,0.00000,-0.00939,0.01122,-0.98564,2023,6,12,14,16,9,364
0.07400,3.04500,-4.62000,0.00000,-0.01049,0.00842,-0.98771,2023,6,12,14,16,9,375
0.07410,2.87000,-4.56750,0.00000,-0.00903,0.01196,-0.98674,2023,6,12,14,16,9,386
0.07420,2.92250,-4.51500,0.00000,-0.00915,0.01281,-0.98771,2023,6,12,14,16,9,397
0.07430,3.06250,-4.51500,0.00000,-0.00927,0.01074,-0.98600,2023,6,12,14,16,9,408
0.07440,2.92250,-4.60250,0.00000,-0.00988,0.01000,-0.98759,2023,6,12,14,16,9,419
0.07450,3.04500,-4.60250,0.00000,-0.00805,0.01122,-0.98722,2023,6,12,14,16,9,430
0.07460,3.25500,-4.51500,0.00000,-0.00988,0.00976,-0.98722,2023,6,12,14,16,9,441
0.07470,3.15000,-4.74250,0.00000,-0.00952,0.01122,-0.98417,2023,6,12,14,16,9,452
0.07480,3.04500,-4.70750,0.00000,-0.00708,0.01025,-0.98552,2023,6,12,14,16,9,464
0.07490,2.95750,-4.53250,0.00000,-0.00793,0.01305,-0.98674,2023,6,12,14,16,9,475
0.07500,3.04500,-4.74250,0.00000,-0.00634,0.01110,-0.98759,2023,6,12,14,16,9,486
0.07510,2.88750,-4.58500,0.00000,-0.00891,0.00988,-0.98637,2023,6,12,14,16,9,497
0.07520,2.88750,-4.55000,0.00000,-0.01037,0.01061,-0.98698,2023,6,12,14,16,9,508
0.07530,2.99250,-4.48000,0.00000,-0.00903,0.00854,-0.98625,2023,6,12,14,16,9,519
0.07540,3.02750,-4.58500,0.00000,-0.00915,0.01281,-0.98735,2023,6,12,14,16,9,530
0.07550,2.99250,-4.74250,0.00000,-0.00732,0.01147,-0.98552,2023,6,12,14,16,9,541
0.07560,3.11500,-4.48000,0.00000,-0.01025,0.01074,-0.98491,2023,6,12,14,16,9,552
0.07570,3.23750,-4.48000,0.00000,-0.00891,0.00939,-0.98698,2023,6,12,14,16,9,564
0.07580,3.16750,-4.56750,0.00000,-0.01159,0.01000,-0.98527,2023,6,12,14,16,9,575
0.07590,3.20250,-4.72500,0.00000,-0.00939,0.00964,-0.98576,2023,6,12,14,16,9,586
0.07600,3.20250,-4.58500,0.00000,-0.00952,0.01281,-0.98576,2023,6,12,14,16,9,597
0.07610,3.01000,-4.74250,0.00000,-0.01049,0.01086,-0.98564,2023,6,12,14,16,9,608
0.07620,2.83500,-4.74250,0.00000,-0.00976,0.01281,-0.98832,2023,6,12,14,16,9,619
0.07630,3.04500,-4.58500,0.00000,-0.00891,0.00976,-0.98832,2023,6,12,14,16,9,630
0.07640,3.04500,-4.53250,0.00000,-0.00854,0.01061,-0.98710,2023,6,12,14,16,9,641
0.07650,2.99250,-4.86500,0.00000,-0.01037,0.01244,-0.98442,2023,6,12,14,16,9,652
0.07660,2.88750,-4.60250,0.00000,-0.00830,0.01122,-0.98771,2023,6,12,14,16,9,664
0.07670,3.13250,-4.58500,0.00000,-0.00805,0.01000,-0.98735,2023,6,12,14,16,9,675
0.07680,2.97500,-4.37500,0.00000,-0.00891,0.01208,-0.98735,2023,6,12,14,16,9,686
0.07690,3.11500,-4.84750,0.00000,-0.01025,0.01159,-0.98735,2023,6,12,14,16,9,697
0.07700,2.97500,-4.32250,0.00000,-0.01013,0.01147,-0.98735,2023,6,12,14,16,9,708
0.07710,3.04500,-4.74250,0.00000,-0.01196,0.00988,-0.98844,2023,6,12,14,16,9,719
0.07720,2.99250,-4.58500,0.00000,-0.00878,0.00939,-0.98722,2023,6,12,14,16,9,730
0.07730,3.13250,-4.37500,0.00000,-0.00976,0.01086,-0.98600,2023,6,12,14,16,9,741
0.07740,2.99250,-4.72500,0.00000,-0.01025,0.01049,-0.98539,2023,6,12,14,16,9,752
0.07750,3.01000,-4.63750,0.00000,-0.00976,0.01147,-0.98442,2023,6,12,14,16,9,764
0.07760,3.04500,-4.63750,0.00000,-0.01074,0.01122,-0.98771,2023,6,12,14,16,9,775
0.07770,2.97500,-4.51500,0.00000,-0.00805,0.01098,-0.98674,2023,6,12,14,16,9,786
0.07780,3.25500,-4.79500,0.00000,-0.00927,0.01037,-0.99101,2023,6,12,14,16,9,797
0.07790,2.97500,-4.67250,0.00000,-0.01159,0.00927,-0.98320,2023,6,12,14,16,9,808
0.07800,2.87000,-4.67250,0.00000,-0.01196,0.01281,-0.98930,2023,6,12,14,16,9,819
0.07810,3.09750,-4.60250,0.00000,-0.01098,0.00878,-0.99040,2023,6,12,14,16,9,830
0.07820,3.29000,-4.62000,0.00000,-0.01122,0.01122,-0.98600,2023,6,12,14,16,9,841
0.07830,2.99250,-4.42750,0.00000,-0.00878,0.01061,-0.98710,2023,6,12,14,16,9,852
0.07840,3.02750,-4.41000,0.00000,-0.00842,0.01074,-0.98417,2023,6,12,14,16,9,864
0.07850,3.08000,-4.56750,0.00000,-0.00939,0.01196,-0.98527,2023,6,12,14,16,9,875
0.07860,3.09750,-4.56750,0.00000,-0.01061,0.01330,-0.98637,2023,6,12,14,16,9,886
0.07870,3.16750,-4.39250,0.00000,-0.01000,0.00988,-0.98649,2023,6,12,14,16,9,897
0.07880,3.02750,-4.65500,0.00000,-0.00830,0.01037,-0.98442,2023,6,12,14,16,9,908
0.07890,3.04500,-4.49750,0.00000,-0.00769,0.01086,-0.98515,2023,6,12,14,16,9,919
0.07900,3.13250,-4.53250,0.00000,-0.00866,0.01171,-0.98478,2023,6,12,14,16,9,930
0.07910,3.15000,-4.74250,0.00000,-0.00927,0.01086,-0.98674,2023,6,12,14,16,9,941
0.07920,2.99250,-4.58500,0.00000,-0.00988,0.01074,-0.98783,2023,6,12,14,16,9,952
0.07930,3.02750,-4.56750,0.00000,-0.00939,0.01037,-0.98844,2023,6,12,14,16,9,964
0.07940,3.06250,-4.72500,0.00000,-0.01013,0.01061,-0.98698,2023,6,12,14,16,9,975
0.07950,2.90500,-4.67250,0.00000,-0.00915,0.00854,-0.98661,2023,6,12,14,16,10,6
0.07960,3.23750,-4.65500,0.00000,-0.00866,0.00988,-0.98771,2023,6,12,14,16,10,17
0.07970,3.15000,-4.74250,0.00000,-0.00988,0.01098,-0.98930,2023,6,12,14,16,10,28
0.07980,3.04500,-4.53250,0.00000,-0.01061,0.01098,-0.98735,2023,6,12,14,16,10,39
0.07990,3.23750,-4.67250,0.00000,-0.00939,0.01183,-0.99015,2023,6,12,14,16,10,50
0.08000,3.13250,-4.67250,0.00000,-0.01037,0.01098,-0.98564,2023,6,12,14,16,10,61
0.08010,3.01000,-4.60250,0.00000,-0.01037,0.01135,-0.98613,2023,6,12,14,16,10,72
0.08020,3.04500,-4.62000,0.00000,-0.00939,0.01074,-0.98844,2023,6,12,14,16,10,84
0.08030,3.06250,-4.79500,0.00000,-0.00866,0.01098,-0.98600,2023,6,12,14,16,10,95
0.08040,3.06250,-4.51500,0.00000,-0.01074,0.01305,-0.98771,2023,6,12,14,16,10,106
0.08050,3.16750,-4.69000,0.00000,-0.00891,0.01342,-0.98735,2023,6,12,14,16,10,117
0.08060,3.16750,-4.60250,0.00000,-0.00927,0.01183,-0.98747,2023,6,12,14,16,10,128
0.08070,3.11500,-4.63750,0.00000,-0.01074,0.01159,-0.98735,2023,6,12,14,16,10,139
0.08080,3.13250,-4.41000,0.00000,-0.01061,0.01037,-0.98771,2023,6,12,14,16,10,150
0.08090,3.18500,-4.53250,0.00000,-0.00744,0.01305,-0.98710,2023,6,12,14,16,10,161
0.08100,3.08000,-4.63750,0.00000,-0.00878,0.01269,-0.98759,2023,6,12,14,16,10,172
0.08110,2.97500,-4.28750,0.00000,-0.01074,0.01074,-0.98881,2023,6,12,14,16,10,184
0.08120,3.04500,-4.62000,0.00000,-0.00830,0.00903,-0.98491,2023,6,12,14,16,10,195
0.08130,3.06250,-4.58500,0.00000,-0.00744,0.01354,-0.98613,2023,6,12,14,16,10,206
0.08140,2.88750,-4.48000,0.00000,-0.00805,0.01232,-0.98649,2023,6,12,14,16,10,217
0.08150,3.06250,-4.37500,0.00000,-0.00854,0.00976,-0.98503,2023,6,12,14,16,10,228
0.08160,3.20250,-4.67250,0.00000,-0.00854,0.01086,-0.98417,2023,6,12,14,16,10,239
0.08170,3.02750,-4.39250,0.00000,-0.01110,0.01049,-0.98600,2023,6,12,14,16,10,250
0.08180,3.13250,-4.49750,0.00000,-0.01293,0.00952,-0.98430,2023,6,12,14,16,10,261
0.08190,3.02750,-4.46250,0.00000,-0.00854,0.01061,-0.98686,2023,6,12,14,16,10,272
0.08200,3.16750,-4.79500,0.00000,-0.00915,0.01074,-0.98430,2023,6,12,14,16,10,284
0.08210,2.81750,-4.42750,0.00000,-0.00976,0.01110,-0.98759,2023,6,12,14,16,10,295
0.08220,3.06250,-4.41000,0.00000,-0.00866,0.01183,-0.98637,2023,6,12,14,16,10,306
0.08230,2.97500,-4.30500,0.00000,-0.00927,0.01025,-0.98564,2023,6,12,14,16,10,317
0.08240,3.11500,-4.51500,0.00000,-0.01061,0.01122,-0.98722,2023,6,12,14,16,10,328
0.08250,2.94000,-4.60250,0.00000,-0.00915,0.01098,-0.98857,2023,6,12,14,16,10,339
0.08260,3.18500,-4.51500,0.00000,-0.00891,0.00976,-0.98552,2023,6,12,14,16,10,350
0.08270,3.09750,-4.53250,0.00000,-0.00927,0.00964,-0.98661,2023,6,12,14,16,10,361
0.08280,3.11500,-4.58500,0.00000,-0.00915,0.01159,-0.98576,2023,6,12,14,16,10,372
0.08290,3.01000,-4.56750,0.00000,-0.00927,0.01269,-0.98710,2023,6,12,14,16,10,384
0.08300,3.01000,-4.42750,0.00000,-0.00976,0.01074,-0.98808,2023,6,12,14,16,10,395
0.08310,3.13250,-4.69000,0.00000,-0.01061,0.01110,-0.98600,2023,6,12,14,16,10,406
0.08320,3.16750,-4.60250,0.00000,-0.00854,0.01171,-0.98686,2023,6,12,14,16,10,417
0.08330,3.13250,-4.51500,0.00000,-0.01037,0.00976,-0.98527,2023,6,12,14,16,10,428
0.08340,3.09750,-4.70750,0.00000,-0.01000,0.01122,-0.98600,2023,6,12,14,16,10,439
0.08350,3.08000,-4.56750,0.00000,-0.00915,0.00854,-0.98515,2023,6,12,14,16,10,450
0.08360,3.13250,-4.65500,0.00000,-0.00927,0.00976,-0.98674,2023,6,12,14,16,10,461
0.08370,3.11500,-4.70750,0.00000,-0.01122,0.01159,-0.99088,2023,6,12,14,16,10,472
0.08380,3.06250,-4.16500,0.00000,-0.01025,0.01110,-0.98625,2023,6,12,14,16,10,484
0.08390,3.15000,-4.56750,0.00000,-0.00976,0.01061,-0.98893,2023,6,12,14,16,10,495
0.08400,3.18500,-4.51500,0.00000,-0.00891,0.01232,-0.98564,2023,6,12,14,16,10,506
0.08410,3.06250,-4.74250,0.00000,-0.01135,0.00988,-0.98649,2023,6,12,14,16,10,517
0.08420,3.09750,-4.76000,0.00000,-0.00878,0.01342,-0.98637,2023,6,12,14,16,10,528
0.08430,2.97500,-4.69000,0.00000,-0.00915,0.01269,-0.98600,2023,6,12,14,16,10,539
0.08440,3.04500,-4.46250,0.00000,-0.01000,0.01171,-0.98576,2023,6,12,14,16,10,550
0.08450,2.88750,-4.60250,0.00000,-0.00915,0.01098,-0.98649,2023,6,12,14,16,10,561
0.08460,3.15000,-4.65500,0.00000,-0.01037,0.01122,-0.98600,2023,6,12,14,16,10,572
0.08470,3.25500,-4.67250,0.00000,-0.00866,0.01122,-0.98527,2023,6,12,14,16,10,584
0.08480,3.18500,-4.69000,0.00000,-0.01110,0.00964,-0.98552,2023,6,12,14,16,10,595
0.08490,3.09750,-4.49750,0.00000,-0.00891,0.01183,-0.98747,2023,6,12,14,16,10,606
0.08500,2.97500,-4.42750,0.00000,-0.01013,0.01159,-0.98796,2023,6,12,14,16,10,617
0.08510,2.92250,-4.49750,0.00000,-0.00939,0.01013,-0.98844,2023,6,12,14,16,10,628
0.08520,3.23750,-4.51500,0.00000,-0.01049,0.01391,-0.98686,2023,6,12,14,16,10,639
0.08530,3.18500,-4.60250,0.00000,-0.01110,0.01086,-0.98808,2023,6,12,14,16,10,650
0.08540,2.94000,-4.34000,0.00000,-0.01000,0.00817,-0.98796,2023,6,12,14,16,10,661
0.08550,3.18500,-4.55000,0.00000,-0.01000,0.01013,-0.98454,2023,6,12,14,16,10,672
0.08560,2.94000,-4.51500,0.00000,-0.00866,0.01013,-0.98442,2023,6,12,14,16,10,684
0.08570,3.09750,-4.76000,0.00000,-0.00927,0.01318,-0.98844,2023,6,12,14,16,10,695
0.08580,3.08000,-4.62000,0.00000,-0.00769,0.01037,-0.98722,2023,6,12,14,16,10,706
0.08590,3.09750,-4.49750,0.00000,-0.01110,0.01122,-0.98747,2023,6,12,14,16,10,717
0.08600,3.25500,-4.65500,0.00000,-0.01086,0.01232,-0.98381,2023,6,12,14,16,10,728
0.08610,3.13250,-4.69000,0.00000,-0.01147,0.00927,-0.98613,2023,6,12,14,16,10,739
0.08620,3.01000,-4.62000,0.00000,-0.01122,0.01135,-0.98430,2023,6,12,14,16,10,750
0.08630,2.99250,-4.63750,0.00000,-0.00830,0.01293,-0.98552,2023,6,12,14,16,10,761
0.08640,2.99250,-4.70750,0.00000,-0.00903,0.01354,-0.98491,2023,6,12,14,16,10,772
0.08650,3.11500,-4.63750,0.00000,-0.00891,0.01122,-0.98674,2023,6,12,14,16,10,784
0.08660,3.08000,-4.69000,0.00000,-0.00903,0.00878,-0.98515,2023,6,12,14,16,10,795
0.08670,3.15000,-4.48000,0.00000,-0.00744,0.01061,-0.98832,2023,6,12,14,16,10,806
0.08680,3.22000,-4.77750,0.00000,-0.01098,0.01049,-0.98918,2023,6,12,14,16,10,817
0.08690,3.08000,-4.60250,0.00000,-0.00866,0.01074,-0.98442,2023,6,12,14,16,10,828
0.08700,3.13250,-4.58500,0.00000,-0.00915,0.01196,-0.98661,2023,6,12,14,16,10,839
0.08710,3.06250,-4.49750,0.00000,-0.00793,0.01037,-0.98466,2023,6,12,14,16,10,850
0.08720,2.99250,-4.65500,0.00000,-0.00878,0.00976,-0.98649,2023,6,12,14,16,10,861
0.08730,2.90500,-4.56750,0.00000,-0.00756,0.00903,-0.98991,2023,6,12,14,16,10,872
0.08740,3.16750,-4.32250,0.00000,-0.00830,0.00903,-0.98588,2023,6,12,14,16,10,884
0.08750,3.09750,-4.62000,0.00000,-0.01135,0.01110,-0.98515,2023,6,12,14,16,10,895
0.08760,3.15000,-4.69000,0.00000,-0.01074,0.00903,-0.98649,2023,6,12,14,16,10,906
0.08770,2.94000,-4.30500,0.00000,-0.01049,0.01244,-0.98576,2023,6,12,14,16,10,917
0.08780,3.02750,-4.72500,0.00000,-0.01037,0.01135,-0.98844,2023,6,12,14,16,10,928
0.08790,3.29000,-4.65500,0.00000,-0.00854,0.00988,-0.98796,2023,6,12,14,16,10,939
0.08800,2.83500,-4.65500,0.00000,-0.00964,0.01110,-0.98698,2023,6,12,14,16,10,950
0.08810,3.06250,-4.58500,0.00000,-0.00671,0.00927,-0.98539,2023,6,12,14,16,10,961
0.08820,3.08000,-4.48000,0.00000,-0.00891,0.01183,-0.98576,2023,6,12,14,16,10,972
0.08830,3.13250,-4.56750,0.00000,-0.00854,0.01171,-0.98564,2023,6,12,14,16,11,4
0.08840,3.13250,-4.51500,0.00000,-0.00927,0.00952,-0.98527,2023,6,12,14,16,11,15
0.08850,3.11500,-4.77750,0.00000,-0.00952,0.00952,-0.98576,2023,6,12,14,16,11,26
0.08860,2.85250,-4.56750,0.00000,-0.00976,0.01061,-0.98625,2023,6,12,14,16,11,37
0.08870,3.01000,-4.35750,0.00000,-0.01061,0.01098,-0.98417,2023,6,12,14,16,11,48
0.08880,3.16750,-4.72500,0.00000,-0.00866,0.01183,-0.98442,2023,6,12,14,16,11,59
0.08890,3.13250,-4.58500,0.00000,-0.01110,0.01159,-0.98783,2023,6,12,14,16,11,70
0.08900,3.22000,-4.53250,0.00000,-0.00903,0.01122,-0.98674,2023,6,12,14,16,11,81
0.08910,3.08000,-4.58500,0.00000,-0.00927,0.00976,-0.98893,2023,6,12,14,16,11,92
0.08920,3.06250,-4.55000,0.00000,-0.00939,0.01110,-0.98966,2023,6,12,14,16,11,104
0.08930,3.27250,-4.56750,0.00000,-0.00830,0.01208,-0.98405,2023,6,12,14,16,11,115
0.08940,3.02750,-4.55000,0.00000,-0.01232,0.01147,-0.98783,2023,6,12,14,16,11,126
0.08950,3.20250,-4.74250,0.00000,-0.00952,0.01110,-0.98893,2023,6,12,14,16,11,137
0.08960,3.06250,-4.32250,0.00000,-0.01000,0.01147,-0.98820,2023,6,12,14,16,11,148
0.08970,3.01000,-4.51500,0.00000,-0.00976,0.01025,-0.98771,2023,6,12,14,16,11,159
0.08980,3.11500,-4.42750,0.00000,-0.00854,0.01208,-0.98552,2023,6,12,14,16,11,170
0.08990,2.76500,-4.48000,0.00000,-0.01013,0.01061,-0.98735,2023,6,12,14,16,11,181
0.09000,3.09750,-4.56750,0.00000,-0.00878,0.00976,-0.98857,2023,6,12,14,16,11,192
0.09010,2.99250,-4.63750,0.00000,-0.00793,0.01391,-0.98857,2023,6,12,14,16,11,204
0.09020,2.97500,-4.44500,0.00000,-0.00988,0.01513,-0.98661,2023,6,12,14,16,11,215
0.09030,3.11500,-4.55000,0.00000,-0.01110,0.01098,-0.98844,2023,6,12,14,16,11,226
0.09040,2.95750,-4.56750,0.00000,-0.00878,0.01110,-0.98649,2023,6,12,14,16,11,237
0.09050,3.13250,-4.70750,0.00000,-0.01074,0.01061,-0.98710,2023,6,12,14,16,11,248
0.09060,3.08000,-4.34000,0.00000,-0.00927,0.01183,-0.98613,2023,6,12,14,16,11,259
0.09070,3.16750,-4.48000,0.00000,-0.01074,0.00964,-0.98698,2023,6,12,14,16,11,270
0.09080,3.04500,-4.65500,0.00000,-0.00842,0.01122,-0.98564,2023,6,12,14,16,11,281
0.09090,3.01000,-4.46250,0.00000,-0.01110,0.00927,-0.98430,2023,6,12,14,16,11,292
0.09100,2.99250,-4.48000,0.00000,-0.01098,0.01049,-0.98332,2023,6,12,14,16,11,304
0.09110,3.06250,-4.44500,0.00000,-0.00976,0.01147,-0.98674,2023,6,12,14,16,11,315
0.09120,3.06250,-4.48000,0.00000,-0.00830,0.01074,-0.98674,2023,6,12,14,16,11,326
0.09130,3.08000,-4.56750,0.00000,-0.00927,0.01135,-0.98491,2023,6,12,14,16,11,337
0.09140,3.09750,-4.56750,0.00000,-0.00915,0.01110,-0.98503,2023,6,12,14,16,11,348
0.09150,3.11500,-4.60250,0.00000,-0.01037,0.01159,-0.98539,2023,6,12,14,16,11,359
0.09160,3.15000,-4.56750,0.00000,-0.00891,0.01122,-0.98844,2023,6,12,14,16,11,370
0.09170,2.85250,-4.42750,0.00000,-0.00805,0.01244,-0.98600,2023,6,12,14,16,11,381
0.09180,3.23750,-4.55000,0.00000,-0.00939,0.01183,-0.98637,2023,6,12,14,16,11,392
0.09190,3.06250,-4.65500,0.00000,-0.01098,0.01098,-0.98808,2023,6,12,14,16,11,404
0.09200,3.11500,-4.56750,0.00000,-0.00964,0.01098,-0.98698,2023,6,12,14,16,11,415
0.09210,3.22000,-4.58500,0.00000,-0.01086,0.01147,-0.98832,2023,6,12,14,16,11,426
0.09220,3.16750,-4.60250,0.00000,-0.01013,0.01232,-0.98625,2023,6,12,14,16,11,437
0.09230,3.09750,-4.67250,0.00000,-0.00854,0.01074,-0.98442,2023,6,12,14,16,11,448
0.09240,3.08000,-4.65500,0.00000,-0.00842,0.01110,-0.98539,2023,6,12,14,16,11,459
0.09250,3.04500,-4.70750,0.00000,-0.01013,0.01122,-0.98552,2023,6,12,14,16,11,470
0.09260,2.97500,-4.72500,0.00000,-0.00903,0.00988,-0.98771,2023,6,12,14,16,11,481
0.09270,3.04500,-4.65500,0.00000,-0.00915,0.01208,-0.98722,2023,6,12,14,16,11,492
0.09280,3.08000,-4.51500,0.00000,-0.01013,0.01196,-0.98820,2023,6,12,14,16,11,504
0.09290,3.20250,-4.62000,0.00000,-0.01037,0.01281,-0.98918,2023,6,12,14,16,11,515
0.09300,3.16750,-4.56750,0.00000,-0.00891,0.01110,-0.98625,2023,6,12,14,16,11,526
0.09310,3.01000,-4.53250,0.00000,-0.00891,0.01122,-0.98674,2023,6,12,14,16,11,537
0.09320,3.01000,-4.60250,0.00000,-0.00805,0.01232,-0.98747,2023,6,12,14,16,11,548
0.09330,3.06250,-4.67250,0.00000,-0.00891,0.01196,-0.98491,2023,6,12,14,16,11,559
0.09340,3.08000,-4.46250,0.00000,-0.00842,0.01049,-0.98649,2023,6,12,14,16,11,570
0.09350,3.04500,-4.70750,0.00000,-0.00927,0.01122,-0.98576,2023,6,12,14,16,11,581
0.09360,3.13250,-4.76000,0.00000,-0.01000,0.01025,-0.98637,2023,6,12,14,16,11,592
0.09370,3.18500,-4.55000,0.00000,-0.00988,0.01110,-0.98747,2023,6,12,14,16,11,604
0.09380,3.16750,-4.65500,0.00000,-0.00854,0.01049,-0.98588,2023,6,12,14,16,11,615
0.09390,3.02750,-4.72500,0.00000,-0.00769,0.01025,-0.98600,2023,6,12,14,16,11,626
0.09400,3.16750,-4.79500,0.00000,-0.00915,0.01293,-0.98527,2023,6,12,14,16,11,637
0.09410,3.09750,-4.76000,0.00000,-0.00683,0.01037,-0.98710,2023,6,12,14,16,11,648
0.09420,3.02750,-4.63750,0.00000,-0.01086,0.00939,-0.98674,2023,6,12,14,16,11,659
0.09430,3.04500,-4.56750,0.00000,-0.01110,0.00988,-0.98783,2023,6,12,14,16,11,670
0.09440,3.06250,-4.37500,0.00000,-0.00708,0.01086,-0.98478,2023,6,12,14,16,11,681
0.09450,3.08000,-4.67250,0.00000,-0.01013,0.01061,-0.98747,2023,6,12,14,16,11,692
0.09460,3.04500,-4.30500,0.00000,-0.01110,0.01403,-0.98710,2023,6,12,14,16,11,704
0.09470,3.18500,-4.58500,0.00000,-0.00708,0.00915,-0.98759,2023,6,12,14,16,11,715
0.09480,3.13250,-4.62000,0.00000,-0.00976,0.01208,-0.98564,2023,6,12,14,16,11,726
0.09490,3.30750,-4.51500,0.00000,-0.00927,0.00854,-0.98613,2023,6,12,14,16,11,737
0.09500,3.15000,-4.49750,0.00000,-0.01074,0.01183,-0.98735,2023,6,12,14,16,11,748
0.09510,3.18500,-4.58500,0.00000,-0.00939,0.01049,-0.98661,2023,6,12,14,16,11,759
0.09520,3.04500,-4.63750,0.00000,-0.00891,0.01159,-0.98503,2023,6,12,14,16,11,770
0.09530,3.01000,-4.58500,0.00000,-0.01061,0.01025,-0.98552,2023,6,12,14,16,11,781
0.09540,2.88750,-4.44500,0.00000,-0.00927,0.01000,-0.98844,2023,6,12,14,16,11,792
0.09550,3.25500,-4.74250,0.00000,-0.00988,0.01037,-0.98552,2023,6,12,14,16,11,804
0.09560,3.16750,-4.62000,0.00000,-0.00903,0.01074,-0.98674,2023,6,12,14,16,11,815
0.09570,3.02750,-4.67250,0.00000,-0.00927,0.01110,-0.98674,2023,6,12,14,16,11,826
0.09580,3.04500,-4.44500,0.00000,-0.01000,0.00964,-0.98747,2023,6,12,14,16,11,837
0.09590,3.06250,-4.62000,0.00000,-0.01061,0.00903,-0.98783,2023,6,12,14,16,11,848
0.09600,3.18500,-4.55000,0.00000,-0.00915,0.01049,-0.98674,2023,6,12,14,16,11,859
0.09610,2.95750,-4.65500,0.00000,-0.01098,0.01208,-0.98832,2023,6,12,14,16,11,870
0.09620,2.94000,-4.56750,0.00000,-0.00964,0.01208,-0.98686,2023,6,12,14,16,11,881
0.09630,3.02750,-4.35750,0.00000,-0.00830,0.01159,-0.98637,2023,6,12,14,16,11,892
0.09640,3.11500,-4.65500,0.00000,-0.00952,0.01000,-0.98478,2023,6,12,14,16,11,904
0.09650,3.11500,-4.60250,0.00000,-0.01171,0.01208,-0.98735,2023,6,12,14,16,11,915
0.09660,3.11500,-4.48000,0.00000,-0.00903,0.01025,-0.98686,2023,6,12,14,16,11,926
0.09670,3.16750,-4.48000,0.00000,-0.01171,0.00927,-0.98588,2023,6,12,14,16,11,937
0.09680,3.02750,-4.53250,0.00000,-0.00903,0.01318,-0.98783,2023,6,12,14,16,11,948
0.09690,3.13250,-4.62000,0.00000,-0.01025,0.00976,-0.98478,2023,6,12,14,16,11,959
0.09700,2.90500,-4.58500,0.00000,-0.01025,0.01135,-0.98613,2023,6,12,14,16,11,970
0.09710,3.04500,-4.56750,0.00000,-0.01000,0.00988,-0.98735,2023,6,12,14,16,11,981
0.09720,3.06250,-4.55000,0.00000,-0.00793,0.01000,-0.98600,2023,6,12,14,16,12,2
0.09730,3.08000,-4.49750,0.00000,-0.00854,0.01196,-0.98625,2023,6,12,14,16,12,14
0.09740,2.99250,-4.42750,0.00000,-0.01037,0.00976,-0.98674,2023,6,12,14,16,12,25
0.09750,2.99250,-4.39250,0.00000,-0.01171,0.01208,-0.98613,2023,6,12,14,16,12,36
0.09760,2.92250,-4.65500,0.00000,-0.01074,0.01183,-0.98576,2023,6,12,14,16,12,47
0.09770,3.22000,-4.41000,0.00000,-0.01000,0.01074,-0.98613,2023,6,12,14,16,12,58
0.09780,2.99250,-4.58500,0.00000,-0.00878,0.01110,-0.98796,2023,6,12,14,16,12,69
0.09790,3.04500,-4.53250,0.00000,-0.00915,0.00976,-0.98722,2023,6,12,14,16,12,80
0.09800,3.15000,-4.46250,0.00000,-0.00878,0.01183,-0.98649,2023,6,12,14,16,12,91
0.09810,3.09750,-4.58500,0.00000,-0.00988,0.01074,-0.98600,2023,6,12,14,16,12,102
0.09820,3.20250,-4.42750,0.00000,-0.01000,0.01208,-0.98918,2023,6,12,14,16,12,114
0.09830,2.94000,-4.60250,0.00000,-0.00878,0.01049,-0.98454,2023,6,12,14,16,12,125
0.09840,2.99250,-4.62000,0.00000,-0.01110,0.01196,-0.98576,2023,6,12,14,16,12,136
0.09850,2.90500,-4.62000,0.00000,-0.00781,0.01196,-0.98381,2023,6,12,14,16,12,147
0.09860,3.06250,-4.58500,0.00000,-0.00842,0.00952,-0.98686,2023,6,12,14,16,12,158
0.09870,3.06250,-4.58500,0.00000,-0.01171,0.01171,-0.98552,2023,6,12,14,16,12,169
0.09880,3.04500,-4.58500,0.00000,-0.01098,0.01098,-0.98637,2023,6,12,14,16,12,180
0.09890,3.16750,-4.44500,0.00000,-0.01037,0.01171,-0.98759,2023,6,12,14,16,12,191
0.09900,3.02750,-4.62000,0.00000,-0.00952,0.00988,-0.98442,2023,6,12,14,16,12,202
0.09910,3.02750,-4.72500,0.00000,-0.00866,0.01098,-0.98527,2023,6,12,14,16,12,214
0.09920,3.06250,-4.49750,0.00000,-0.00793,0.01196,-0.98844,2023,6,12,14,16,12,225
0.09930,2.97500,-4.55000,0.00000,-0.01013,0.01147,-0.98771,2023,6,12,14,16,12,236
0.09940,3.01000,-4.44500,0.00000,-0.01013,0.01098,-0.98564,2023,6,12,14,16,12,247
0.09950,3.08000,-4.79500,0.00000,-0.00988,0.01281,-0.98930,2023,6,12,14,16,12,258
0.09960,3.08000,-4.46250,0.00000,-0.01305,0.00830,-0.98503,2023,6,12,14,16,12,269
0.09970,2.90500,-4.65500,0.00000,-0.00769,0.01171,-0.98405,2023,6,12,14,16,12,280
0.09980,2.94000,-4.62000,0.00000,-0.01013,0.01074,-0.98686,2023,6,12,14,16,12,291
0.09990,3.11500,-4.70750,0.00000,-0.00878,0.00976,-0.98234,2023,6,12,14,16,12,302
0.10000,3.09750,-4.70750,0.00000,-0.00805,0.01098,-0.98637,2023,6,12,14,16,12,314
0.10010,3.20250,-4.60250,0.00000,-0.00964,0.01098,-0.98771,2023,6,12,14,16,12,325
0.10020,2.87000,-4.62000,0.00000,-0.01074,0.01086,-0.98588,2023,6,12,14,16,12,336
0.10030,3.18500,-4.69000,0.00000,-0.00976,0.01330,-0.98857,2023,6,12,14,16,12,347
0.10040,2.90500,-4.44500,0.00000,-0.00683,0.01061,-0.98844,2023,6,12,14,16,12,358
0.10050,3.04500,-4.49750,0.00000,-0.01159,0.01183,-0.98637,2023,6,12,14,16,12,369
0.10060,2.99250,-4.49750,0.00000,-0.00952,0.01171,-0.98710,2023,6,12,14,16,12,380
0.10070,3.18500,-4.70750,0.00000,-0.00793,0.01098,-0.98698,2023,6,12,14,16,12,391
0.10080,3.16750,-4.58500,0.00000,-0.00988,0.01074,-0.98735,2023,6,12,14,16,12,402
0.10090,3.11500,-4.83000,0.00000,-0.00939,0.01135,-0.98491,2023,6,12,14,16,12,414
0.10100,3.04500,-4.53250,0.00000,-0.00842,0.01110,-0.98491,2023,6,12,14,16,12,425
0.10110,3.09750,-4.51500,0.00000,-0.00988,0.01049,-0.98417,2023,6,12,14,16,12,436
0.10120,3.18500,-4.62000,0.00000,-0.01098,0.01196,-0.98674,2023,6,12,14,16,12,447
0.10130,3.06250,-4.58500,0.00000,-0.00866,0.01171,-0.98613,2023,6,12,14,16,12,458
0.10140,3.01000,-4.44500,0.00000,-0.00793,0.01013,-0.98820,2023,6,12,14,16,12,469
0.10150,2.85250,-4.46250,0.00000,-0.00756,0.01122,-0.98747,2023,6,12,14,16,12,480
0.10160,3.20250,-4.72500,0.00000,-0.00891,0.01086,-0.98808,2023,6,12,14,16,12,491
0.10170,3.11500,-4.60250,0.00000,-0.00830,0.01098,-0.98588,2023,6,12,14,16,12,502
0.10180,2.99250,-4.56750,0.00000,-0.00915,0.01025,-0.98625,2023,6,12,14,16,12,514
0.10190,3.04500,-4.53250,0.00000,-0.00842,0.00988,-0.98552,2023,6,12,14,16,12,525
0.10200,3.08000,-4.63750,0.00000,-0.00988,0.01281,-0.98491,2023,6,12,14,16,12,536
0.10210,3.15000,-4.44500,0.00000,-0.00915,0.01061,-0.98869,2023,6,12,14,16,12,547
0.10220,2.97500,-4.48000,0.00000,-0.00915,0.00964,-0.99052,2023,6,12,14,16,12,558
0.10230,3.08000,-4.70750,0.00000,-0.00878,0.01159,-0.98771,2023,6,12,14,16,12,569
0.10240,2.99250,-4.49750,0.00000,-0.01110,0.01074,-0.98735,2023,6,12,14,16,12,580
0.10250,3.08000,-4.58500,0.00000,-0.00988,0.01098,-0.98808,2023,6,12,14,16,12,591
0.10260,3.02750,-4.69000,0.00000,-0.00903,0.01342,-0.98649,2023,6,12,14,16,12,602
0.10270,3.11500,-4.62000,0.00000,-0.00854,0.01208,-0.98649,2023,6,12,14,16,12,614
0.10280,3.13250,-4.65500,0.00000,-0.01135,0.00878,-0.98613,2023,6,12,14,16,12,625
0.10290,3.08000,-4.39250,0.00000,-0.01000,0.01159,-0.98539,2023,6,12,14,16,12,636
0.10300,3.08000,-4.44500,0.00000,-0.00769,0.01037,-0.98576,2023,6,12,14,16,12,647
0.10310,3.02750,-4.65500,0.00000,-0.00756,0.01135,-0.98478,2023,6,12,14,16,12,658
0.10320,3.08000,-4.48000,0.00000,-0.01122,0.01147,-0.98783,2023,6,12,14,16,12,669
0.10330,3.04500,-4.49750,0.00000,-0.01086,0.01086,-0.98564,2023,6,12,14,16,12,680
0.10340,3.02750,-4.62000,0.00000,-0.00903,0.01049,-0.98686,2023,6,12,14,16,12,691
0.10350,3.22000,-4.63750,0.00000,-0.00976,0.01000,-0.98527,2023,6,12,14,16,12,702
0.10360,3.06250,-4.48000,0.00000,-0.00939,0.01135,-0.98613,2023,6,12,14,16,12,714
0.10370,3.02750,-4.65500,0.00000,-0.00817,0.01171,-0.98503,2023,6,12,14,16,12,725
0.10380,3.16750,-4.58500,0.00000,-0.00817,0.01110,-0.98576,2023,6,12,14,16,12,736
0.10390,2.97500,-4.62000,0.00000,-0.01122,0.01098,-0.98698,2023,6,12,14,16,12,747
0.10400,2.99250,-4.62000,0.00000,-0.01122,0.01196,-0.99003,2023,6,12,14,16,12,758
0.10410,3.08000,-4.65500,0.00000,-0.01074,0.00976,-0.98649,2023,6,12,14,16,12,769
0.10420,2.94000,-4.65500,0.00000,-0.01061,0.01122,-0.98747,2023,6,12,14,16,12,780
0.10430,3.23750,-4.58500,0.00000,-0.00915,0.01098,-0.98637,2023,6,12,14,16,12,791
0.10440,3.09750,-4.34000,0.00000,-0.01013,0.01183,-0.98527,2023,6,12,14,16,12,802
0.10450,3.06250,-4.74250,0.00000,-0.01013,0.01086,-0.98857,2023,6,12,14,16,12,814
0.10460,3.16750,-4.55000,0.00000,-0.00976,0.01147,-0.98674,2023,6,12,14,16,12,825
0.10470,2.92250,-4.34000,0.00000,-0.01037,0.01366,-0.98942,2023,6,12,14,16,12,836
0.10480,2.97500,-4.65500,0.00000,-0.00817,0.00964,-0.98527,2023,6,12,14,16,12,847
0.10490,3.16750,-4.42750,0.00000,-0.00854,0.01159,-0.98661,2023,6,12,14,16,12,858
0.10500,3.01000,-4.60250,0.00000,-0.00878,0.01171,-0.98747,2023,6,12,14,16,12,869
0.10510,3.06250,-4.51500,0.00000,-0.00964,0.01257,-0.98564,2023,6,12,14,16,12,880
0.10520,2.94000,-4.30500,0.00000,-0.00842,0.00915,-0.98710,2023,6,12,14,16,12,891
0.10530,2.99250,-4.83000,0.00000,-0.00927,0.01086,-0.98674,2023,6,12,14,16,12,902
0.10540,3.22000,-4.48000,0.00000,-0.01037,0.01074,-0.98918,2023,6,12,14,16,12,914
0.10550,2.94000,-4.60250,0.00000,-0.00769,0.01196,-0.98710,2023,6,12,14,16,12,925
0.10560,2.99250,-4.46250,0.00000,-0.00732,0.01037,-0.98808,2023,6,12,14,16,12,936
0.10570,3.11500,-4.37500,0.00000,-0.00976,0.01098,-0.98820,2023,6,12,14,16,12,947
0.10580,3.02750,-4.67250,0.00000,-0.01061,0.00927,-0.98771,2023,6,12,14,16,12,958
0.10590,3.04500,-4.81250,0.00000,-0.00976,0.01293,-0.98539,2023,6,12,14,16,12,969
0.10600,3.06250,-4.58500,0.00000,-0.00976,0.00976,-0.98710,2023,6,12,14,16,13,0
0.10610,3.15000,-4.76000,0.00000,-0.00830,0.00976,-0.98857,2023,6,12,14,16,13,11
0.10620,3.06250,-4.58500,0.00000,-0.00952,0.01171,-0.98698,2023,6,12,14,16,13,22
0.10630,2.97500,-4.41000,0.00000,-0.01061,0.01061,-0.98979,2023,6,12,14,16,13,34
0.10640,3.15000,-4.77750,0.00000,-0.00854,0.01037,-0.98600,2023,6,12,14,16,13,45
0.10650,3.09750,-4.55000,0.00000,-0.01049,0.01257,-0.98783,2023,6,12,14,16,13,56
0.10660,3.16750,-4.62000,0.00000,-0.01049,0.01122,-0.98613,2023,6,12,14,16,13,67
0.10670,3.08000,-4.55000,0.00000,-0.00866,0.00952,-0.98539,2023,6,12,14,16,13,78
0.10680,2.90500,-4.63750,0.00000,-0.01000,0.01305,-0.98844,2023,6,12,14,16,13,89
0.10690,3.04500,-4.63750,0.00000,-0.00817,0.00988,-0.98661,2023,6,12,14,16,13,100
0.10700,3.06250,-4.55000,0.00000,-0.00781,0.00903,-0.98808,2023,6,12,14,16,13,111
0.10710,3.15000,-4.69000,0.00000,-0.01074,0.01135,-0.98442,2023,6,12,14,16,13,122
0.10720,3.04500,-4.62000,0.00000,-0.01049,0.01220,-0.98710,2023,6,12,14,16,13,134
0.10730,3.02750,-4.56750,0.00000,-0.01086,0.01049,-0.98649,2023,6,12,14,16,13,145
0.10740,3.11500,-4.55000,0.00000,-0.00988,0.01208,-0.98783,2023,6,12,14,16,13,156
0.10750,3.09750,-4.63750,0.00000,-0.00952,0.01147,-0.98930,2023,6,12,14,16,13,167
0.10760,3.37750,-4.69000,0.00000,-0.00927,0.01183,-0.98576,2023,6,12,14,16,13,178
0.10770,3.11500,-4.69000,0.00000,-0.01074,0.01147,-0.98515,2023,6,12,14,16,13,189
0.10780,3.18500,-4.56750,0.00000,-0.00817,0.01037,-0.98552,2023,6,12,14,16,13,200
0.10790,2.95750,-4.72500,0.00000,-0.00976,0.00988,-0.98271,2023,6,12,14,16,13,211
0.10800,2.95750,-4.51500,0.00000,-0.00988,0.01013,-0.98466,2023,6,12,14,16,13,222
0.10810,3.18500,-4.46250,0.00000,-0.00976,0.01183,-0.98674,2023,6,12,14,16,13,234
0.10820,3.01000,-4.56750,0.00000,-0.01086,0.01330,-0.99027,2023,6,12,14,16,13,245
0.10830,3.08000,-4.56750,0.00000,-0.01110,0.01110,-0.98613,2023,6,12,14,16,13,256
0.10840,3.16750,-4.67250,0.00000,-0.01122,0.00964,-0.98539,2023,6,12,14,16,13,267
0.10850,3.16750,-4.44500,0.00000,-0.00915,0.01061,-0.98552,2023,6,12,14,16,13,278
0.10860,3.08000,-4.60250,0.00000,-0.01049,0.01342,-0.98759,2023,6,12,14,16,13,289
0.10870,3.02750,-4.70750,0.00000,-0.00830,0.01220,-0.98381,2023,6,12,14,16,13,300
0.10880,2.99250,-4.67250,0.00000,-0.01098,0.01110,-0.98588,2023,6,12,14,16,13,311
0.10890,3.18500,-4.60250,0.00000,-0.00805,0.01171,-0.98649,2023,6,12,14,16,13,322
0.10900,3.04500,-4.72500,0.00000,-0.00854,0.01220,-0.98649,2023,6,12,14,16,13,334
0.10910,3.06250,-4.41000,0.00000,-0.01110,0.01061,-0.98576,2023,6,12,14,16,13,345
0.10920,3.08000,-4.46250,0.00000,-0.01037,0.01000,-0.98735,2023,6,12,14,16,13,356
0.10930,2.90500,-4.63750,0.00000,-0.00744,0.00915,-0.98661,2023,6,12,14,16,13,367
0.10940,2.97500,-4.58500,0.00000,-0.00915,0.01098,-0.98625,2023,6,12,14,16,13,378
0.10950,2.94000,-4.65500,0.00000,-0.01000,0.01013,-0.98796,2023,6,12,14,16,13,389
0.10960,3.18500,-4.63750,0.00000,-0.00647,0.01342,-0.98564,2023,6,12,14,16,13,400
0.10970,2.97500,-4.60250,0.00000,-0.01000,0.01171,-0.98649,2023,6,12,14,16,13,411
0.10980,3.04500,-4.62000,0.00000,-0.01098,0.01000,-0.98527,2023,6,12,14,16,13,422
0.10990,2.95750,-4.42750,0.00000,-0.01049,0.01220,-0.99162,2023,6,12,14,16,13,434
0.11000,3.23750,-4.69000,0.00000,-0.00988,0.01061,-0.98759,2023,6,12,14,16,13,445
0.11010,3.22000,-4.51500,0.00000,-0.01122,0.01110,-0.98515,2023,6,12,14,16,13,456
0.11020,3.09750,-4.62000,0.00000,-0.00769,0.00964,-0.98698,2023,6,12,14,16,13,467
0.11030,3.13250,-4.62000,0.00000,-0.00915,0.01000,-0.98722,2023,6,12,14,16,13,478
0.11040,2.99250,-4.56750,0.00000,-0.00964,0.01086,-0.98613,2023,6,12,14,16,13,489
0.11050,2.87000,-4.55000,0.00000,-0.01098,0.01110,-0.98796,2023,6,12,14,16,13,500
0.11060,3.18500,-4.60250,0.00000,-0.01000,0.00964,-0.98674,2023,6,12,14,16,13,511
0.11070,3.04500,-4.60250,0.00000,-0.00891,0.01110,-0.98771,2023,6,12,14,16,13,522
0.11080,3.09750,-4.60250,0.00000,-0.00915,0.01098,-0.98905,2023,6,12,14,16,13,534
0.11090,3.06250,-4.27000,0.00000,-0.00854,0.01086,-0.98564,2023,6,12,14,16,13,545
0.11100,3.08000,-4.51500,0.00000,-0.00732,0.01037,-0.98600,2023,6,12,14,16,13,556
0.11110,3.11500,-4.46250,0.00000,-0.01013,0.00988,-0.98674,2023,6,12,14,16,13,567
0.11120,3.02750,-4.62000,0.00000,-0.00939,0.01159,-0.98637,2023,6,12,14,16,13,578
0.11130,3.01000,-4.42750,0.00000,-0.00866,0.00988,-0.98637,2023,6,12,14,16,13,589
0.11140,2.97500,-4.41000,0.00000,-0.00988,0.01025,-0.98869,2023,6,12,14,16,13,600
0.11150,2.99250,-4.37500,0.00000,-0.01110,0.01159,-0.98832,2023,6,12,14,16,13,611
0.11160,3.08000,-4.69000,0.00000,-0.01122,0.01232,-0.98832,2023,6,12,14,16,13,622
0.11170,2.95750,-4.76000,0.00000,-0.01013,0.01110,-0.98747,2023,6,12,14,16,13,634
0.11180,3.01000,-4.63750,0.00000,-0.01110,0.01098,-0.98820,2023,6,12,14,16,13,645
0.11190,2.95750,-4.69000,0.00000,-0.00805,0.01110,-0.98527,2023,6,12,14,16,13,656
0.11200,2.94000,-4.69000,0.00000,-0.00952,0.01208,-0.98478,2023,6,12,14,16,13,667
0.11210,3.16750,-4.67250,0.00000,-0.00805,0.01196,-0.98503,2023,6,12,14,16,13,678
0.11220,3.27250,-4.69000,0.00000,-0.00878,0.01025,-0.98613,2023,6,12,14,16,13,689
0.11230,3.02750,-4.60250,0.00000,-0.00842,0.01159,-0.98320,2023,6,12,14,16,13,700
0.11240,3.04500,-4.37500,0.00000,-0.00854,0.00647,-0.98661,2023,6,12,14,16,13,711
0.11250,3.08000,-4.30500,0.00000,-0.00988,0.01110,-0.98905,2023,6,12,14,16,13,722
0.11260,3.02750,-4.42750,0.00000,-0.00927,0.01061,-0.98564,2023,6,12,14,16,13,734
0.11270,3.20250,-4.77750,0.00000,-0.00854,0.01013,-0.98600,2023,6,12,14,16,13,745
0.11280,3.04500,-4.69000,0.00000,-0.01110,0.01147,-0.98686,2023,6,12,14,16,13,756
0.11290,2.90500,-4.62000,0.00000,-0.00866,0.01110,-0.98686,2023,6,12,14,16,13,767
0.11300,3.02750,-4.27000,0.00000,-0.00927,0.01196,-0.98844,2023,6,12,14,16,13,778
0.11310,3.01000,-4.62000,0.00000,-0.00903,0.01049,-0.98783,2023,6,12,14,16,13,789
0.11320,2.99250,-4.60250,0.00000,-0.00891,0.01061,-0.98930,2023,6,12,14,16,13,800
0.11330,3.22000,-4.55000,0.00000,-0.00976,0.01244,-0.98332,2023,6,12,14,16,13,811
0.11340,3.01000,-4.37500,0.00000,-0.01037,0.00805,-0.98552,2023,6,12,14,16,13,822
0.11350,3.13250,-4.60250,0.00000,-0.00915,0.00927,-0.98576,2023,6,12,14,16,13,834
0.11360,3.18500,-4.70750,0.00000,-0.00744,0.01244,-0.98552,2023,6,12,14,16,13,845
0.11370,2.87000,-4.65500,0.00000,-0.01061,0.01464,-0.98564,2023,6,12,14,16,13,856
0.11380,2.87000,-4.44500,0.00000,-0.00952,0.01208,-0.98613,2023,6,12,14,16,13,867
0.11390,3.13250,-4.60250,0.00000,-0.00878,0.01013,-0.98417,2023,6,12,14,16,13,878
0.11400,3.01000,-4.55000,0.00000,-0.01110,0.01122,-0.98625,2023,6,12,14,16,13,889
0.11410,2.88750,-4.39250,0.00000,-0.01000,0.00939,-0.98576,2023,6,12,14,16,13,900
0.11420,3.02750,-4.67250,0.00000,-0.00878,0.01257,-0.98759,2023,6,12,14,16,13,911
0.11430,3.11500,-4.72500,0.00000,-0.01037,0.00964,-0.98686,2023,6,12,14,16,13,922
0.11440,2.99250,-4.51500,0.00000,-0.00939,0.01037,-0.98625,2023,6,12,14,16,13,934
0.11450,3.01000,-4.62000,0.00000,-0.00878,0.01061,-0.98442,2023,6,12,14,16,13,945
0.11460,3.06250,-4.58500,0.00000,-0.01196,0.01135,-0.98735,2023,6,12,14,16,13,956
0.11470,3.01000,-4.65500,0.00000,-0.01049,0.01037,-0.98625,2023,6,12,14,16,13,967
0.11480,3.16750,-4.70750,0.00000,-0.01074,0.00952,-0.98576,2023,6,12,14,16,14,8
0.11490,3.04500,-4.69000,0.00000,-0.00927,0.01196,-0.98783,2023,6,12,14,16,14,19
0.11500,3.15000,-4.67250,0.00000,-0.01000,0.01342,-0.98722,2023,6,12,14,16,14,30
0.11510,3.01000,-4.55000,0.00000,-0.01061,0.00988,-0.98747,2023,6,12,14,16,14,41
0.11520,3.09750,-4.55000,0.00000,-0.01049,0.01159,-0.98783,2023,6,12,14,16,14,52
0.11530,3.18500,-4.56750,0.00000,-0.00915,0.00915,-0.98710,2023,6,12,14,16,14,64
0.11540,2.90500,-4.58500,0.00000,-0.01025,0.01061,-0.98588,2023,6,12,14,16,14,75
0.11550,2.88750,-4.65500,0.00000,-0.00830,0.01061,-0.98564,2023,6,12,14,16,14,86
0.11560,3.11500,-4.55000,0.00000,-0.01122,0.01159,-0.98820,2023,6,12,14,16,14,97
0.11570,2.97500,-4.53250,0.00000,-0.00952,0.00891,-0.98710,2023,6,12,14,16,14,108
0.11580,3.02750,-4.58500,0.00000,-0.01122,0.00927,-0.98783,2023,6,12,14,16,14,119
0.11590,3.09750,-4.63750,0.00000,-0.01000,0.00988,-0.98674,2023,6,12,14,16,14,130
0.11600,3.08000,-4.49750,0.00000,-0.00878,0.01318,-0.98808,2023,6,12,14,16,14,141
0.11610,3.13250,-4.44500,0.00000,-0.01000,0.00939,-0.98686,2023,6,12,14,16,14,152
0.11620,3.13250,-4.74250,0.00000,-0.01366,0.01098,-0.98613,2023,6,12,14,16,14,164
0.11630,3.11500,-4.62000,0.00000,-0.00952,0.01208,-0.98552,2023,6,12,14,16,14,175
0.11640,2.99250,-4.62000,0.00000,-0.00817,0.00939,-0.98735,2023,6,12,14,16,14,186
0.11650,3.04500,-4.58500,0.00000,-0.01074,0.01293,-0.98625,2023,6,12,14,16,14,197
0.11660,3.15000,-4.62000,0.00000,-0.00769,0.01013,-0.98649,2023,6,12,14,16,14,208
0.11670,2.97500,-4.39250,0.00000,-0.00964,0.01061,-0.98552,2023,6,12,14,16,14,219
0.11680,3.02750,-4.51500,0.00000,-0.00830,0.01049,-0.98735,2023,6,12,14,16,14,230
0.11690,3.30750,-4.49750,0.00000,-0.00927,0.01122,-0.98722,2023,6,12,14,16,14,241
0.11700,3.16750,-4.76000,0.00000,-0.00805,0.01086,-0.98771,2023,6,12,14,16,14,252
0.11710,3.22000,-4.62000,0.00000,-0.01025,0.01147,-0.98710,2023,6,12,14,16,14,264
0.11720,3.27250,-4.74250,0.00000,-0.01135,0.01110,-0.98344,2023,6,12,14,16,14,275
0.11730,3.22000,-4.76000,0.00000,-0.01183,0.01122,-0.98759,2023,6,12,14,16,14,286
0.11740,3.13250,-4.56750,0.00000,-0.00756,0.01403,-0.98820,2023,6,12,14,16,14,297
0.11750,3.04500,-4.49750,0.00000,-0.01037,0.01013,-0.98564,2023,6,12,14,16,14,308
0.11760,2.92250,-4.32250,0.00000,-0.00915,0.01159,-0.98796,2023,6,12,14,16,14,319
0.11770,3.18500,-4.84750,0.00000,-0.00769,0.01037,-0.98661,2023,6,12,14,16,14,330
0.11780,3.11500,-4.62000,0.00000,-0.00952,0.01196,-0.98564,2023,6,12,14,16,14,341
0.11790,3.09750,-4.67250,0.00000,-0.01061,0.01086,-0.98808,2023,6,12,14,16,14,352
0.11800,2.99250,-4.72500,0.00000,-0.01159,0.01183,-0.98771,2023,6,12,14,16,14,364
0.11810,3.04500,-4.46250,0.00000,-0.00830,0.01037,-0.98747,2023,6,12,14,16,14,375
0.11820,2.99250,-4.42750,0.00000,-0.01122,0.01086,-0.98466,2023,6,12,14,16,14,386
0.11830,3.04500,-4.62000,0.00000,-0.01037,0.01086,-0.98722,2023,6,12,14,16,14,397
0.11840,3.11500,-4.44500,0.00000,-0.00805,0.01171,-0.98564,2023,6,12,14,16,14,408
0.11850,3.09750,-4.58500,0.00000,-0.01110,0.01183,-0.98759,2023,6,12,14,16,14,419
0.11860,3.22000,-4.69000,0.00000,-0.00793,0.01013,-0.98625,2023,6,12,14,16,14,430
0.11870,3.09750,-4.81250,0.00000,-0.00878,0.00915,-0.98527,2023,6,12,14,16,14,441
0.11880,3.08000,-4.55000,0.00000,-0.01086,0.01037,-0.98588,2023,6,12,14,16,14,452
0.11890,3.13250,-4.60250,0.00000,-0.00805,0.01135,-0.98832,2023,6,12,14,16,14,464
0.11900,2.97500,-4.62000,0.00000,-0.00915,0.01135,-0.98942,2023,6,12,14,16,14,475
0.11910,3.23750,-4.60250,0.00000,-0.01025,0.01159,-0.98637,2023,6,12,14,16,14,486
0.11920,3.20250,-4.65500,0.00000,-0.01110,0.01208,-0.98637,2023,6,12,14,16,14,497
0.11930,3.20250,-4.67250,0.00000,-0.00939,0.00976,-0.98674,2023,6,12,14,16,14,508
0.11940,2.90500,-4.39250,0.00000,-0.00854,0.01232,-0.98808,2023,6,12,14,16,14,519
0.11950,2.95750,-4.53250,0.00000,-0.01110,0.00915,-0.98698,2023,6,12,14,16,14,530
0.11960,3.15000,-4.58500,0.00000,-0.00878,0.01074,-0.98625,2023,6,12,14,16,14,541
0.11970,2.94000,-4.74250,0.00000,-0.01013,0.01183,-0.98576,2023,6,12,14,16,14,552
0.11980,2.97500,-4.49750,0.00000,-0.01086,0.01098,-0.98625,2023,6,12,14,16,14,564
0.11990,2.90500,-4.44500,0.00000,-0.00976,0.01354,-0.98393,2023,6,12,14,16,14,575
0.12000,3.22000,-4.72500,0.00000,-0.01000,0.00866,-0.98552,2023,6,12,14,16,14,586
0.12010,3.06250,-4.65500,0.00000,-0.01000,0.01086,-0.98808,2023,6,12,14,16,14,597
0.12020,3.04500,-4.56750,0.00000,-0.01013,0.00988,-0.98698,2023,6,12,14,16,14,608
0.12030,3.06250,-4.51500,0.00000,-0.00927,0.01330,-0.98539,2023,6,12,14,16,14,619
0.12040,3.04500,-4.53250,0.00000,-0.00744,0.01159,-0.98600,2023,6,12,14,16,14,630
0.12050,3.18500,-4.62000,0.00000,-0.00903,0.01025,-0.98613,2023,6,12,14,16,14,641
0.12060,3.08000,-4.53250,0.00000,-0.01037,0.00964,-0.98820,2023,6,12,14,16,14,652
0.12070,3.08000,-4.58500,0.00000,-0.00964,0.01098,-0.98588,2023,6,12,14,16,14,664
0.12080,3.09750,-4.72500,0.00000,-0.00891,0.01122,-0.98552,2023,6,12,14,16,14,675
0.12090,3.15000,-4.49750,0.00000,-0.00878,0.01086,-0.98722,2023,6,12,14,16,14,686
0.12100,2.94000,-4.60250,0.00000,-0.01061,0.01098,-0.98674,2023,6,12,14,16,14,697
0.12110,3.18500,-4.69000,0.00000,-0.01110,0.01098,-0.98613,2023,6,12,14,16,14,708
0.12120,3.04500,-4.53250,0.00000,-0.01159,0.01220,-0.98759,2023,6,12,14,16,14,719
0.12130,2.97500,-4.55000,0.00000,-0.01183,0.01086,-0.98613,2023,6,12,14,16,14,730
0.12140,3.01000,-4.60250,0.00000,-0.00769,0.01013,-0.98405,2023,6,12,14,16,14,741
0.12150,3.11500,-4.65500,0.00000,-0.01183,0.01196,-0.98588,2023,6,12,14,16,14,752
0.12160,3.22000,-4.69000,0.00000,-0.00915,0.01183,-0.98759,2023,6,12,14,16,14,764
0.12170,2.97500,-4.37500,0.00000,-0.01086,0.00988,-0.98600,2023,6,12,14,16,14,775
0.12180,3.11500,-4.48000,0.00000,-0.00866,0.00927,-0.98722,2023,6,12,14,16,14,786
0.12190,3.08000,-4.46250,0.00000,-0.01000,0.01098,-0.98796,2023,6,12,14,16,14,797
0.12200,3.13250,-4.60250,0.00000,-0.00903,0.01074,-0.98661,2023,6,12,14,16,14,808
0.12210,3.13250,-4.74250,0.00000,-0.00769,0.01244,-0.98649,2023,6,12,14,16,14,819
0.12220,3.08000,-4.63750,0.00000,-0.01013,0.01086,-0.98674,2023,6,12,14,16,14,830
0.12230,3.11500,-4.72500,0.00000,-0.00830,0.01159,-0.98893,2023,6,12,14,16,14,841
0.12240,3.29000,-4.53250,0.00000,-0.00976,0.01244,-0.98637,2023,6,12,14,16,14,852
0.12250,3.06250,-4.69000,0.00000,-0.00964,0.01171,-0.98808,2023,6,12,14,16,14,864
0.12260,3.16750,-4.74250,0.00000,-0.01135,0.01086,-0.98710,2023,6,12,14,16,14,875
0.12270,2.87000,-4.65500,0.00000,-0.00964,0.01135,-0.98454,2023,6,12,14,16,14,886
0.12280,2.92250,-4.51500,0.00000,-0.01061,0.01147,-0.98869,2023,6,12,14,16,14,897
0.12290,3.02750,-4.56750,0.00000,-0.01086,0.01074,-0.98674,2023,6,12,14,16,14,908
0.12300,3.01000,-4.67250,0.00000,-0.01037,0.01000,-0.98686,2023,6,12,14,16,14,919
0.12310,3.06250,-4.60250,0.00000,-0.00939,0.01171,-0.98832,2023,6,12,14,16,14,930
0.12320,3.01000,-4.63750,0.00000,-0.01049,0.01196,-0.98552,2023,6,12,14,16,14,941
0.12330,3.06250,-4.44500,0.00000,-0.01037,0.01037,-0.98637,2023,6,12,14,16,14,952
0.12340,3.06250,-4.46250,0.00000,-0.01049,0.00854,-0.98515,2023,6,12,14,16,14,964
0.12350,3.01000,-4.70750,0.00000,-0.00732,0.01098,-0.98356,2023,6,12,14,16,14,975
0.12360,3.09750,-4.53250,0.00000,-0.00915,0.00976,-0.98796,2023,6,12,14,16,14,986
0.12370,2.92250,-4.56750,0.00000,-0.00927,0.01074,-0.98637,2023,6,12,14,16,15,7
0.12380,3.02750,-4.49750,0.00000,-0.01013,0.01098,-0.98625,2023,6,12,14,16,15,18
0.12390,3.08000,-4.56750,0.00000,-0.00988,0.01098,-0.98735,2023,6,12,14,16,15,29
0.12400,3.08000,-4.58500,0.00000,-0.00952,0.01196,-0.98625,2023,6,12,14,16,15,40
0.12410,3.01000,-4.79500,0.00000,-0.00854,0.01074,-0.98539,2023,6,12,14,16,15,51
0.12420,3.11500,-4.74250,0.00000,-0.00891,0.00988,-0.98649,2023,6,12,14,16,15,62
0.12430,3.08000,-4.48000,0.00000,-0.01013,0.01147,-0.98796,2023,6,12,14,16,15,74
0.12440,3.15000,-4.51500,0.00000,-0.00695,0.01122,-0.98503,2023,6,12,14,16,15,85
0.12450,3.01000,-4.60250,0.00000,-0.00756,0.01098,-0.98820,2023,6,12,14,16,15,96
0.12460,3.16750,-4.69000,0.00000,-0.00915,0.00988,-0.98698,2023,6,12,14,16,15,107
0.12470,3.02750,-4.60250,0.00000,-0.00927,0.01147,-0.98759,2023,6,12,14,16,15,118
0.12480,2.95750,-4.44500,0.00000,-0.00927,0.01098,-0.98588,2023,6,12,14,16,15,129
0.12490,3.13250,-4.53250,0.00000,-0.01049,0.01183,-0.98613,2023,6,12,14,16,15,140
0.12500,3.02750,-4.58500,0.00000,-0.00817,0.01000,-0.98710,2023,6,12,14,16,15,151
0.12510,3.09750,-4.53250,0.00000,-0.01000,0.01220,-0.98637,2023,6,12,14,16,15,162
0.12520,2.99250,-4.42750,0.00000,-0.01074,0.01318,-0.98661,2023,6,12,14,16,15,174
0.12530,3.06250,-4.56750,0.00000,-0.01049,0.01379,-0.98820,2023,6,12,14,16,15,185
0.12540,2.88750,-4.74250,0.00000,-0.01013,0.01135,-0.98759,2023,6,12,14,16,15,196
0.12550,3.01000,-4.42750,0.00000,-0.01147,0.01000,-0.98527,2023,6,12,14,16,15,207
0.12560,2.99250,-4.51500,0.00000,-0.01122,0.00939,-0.98674,2023,6,12,14,16,15,218
0.12570,3.04500,-4.81250,0.00000,-0.00878,0.01196,-0.98857,2023,6,12,14,16,15,229
0.12580,3.11500,-4.41000,0.00000,-0.00952,0.00939,-0.98771,2023,6,12,14,16,15,240
0.12590,2.95750,-4.63750,0.00000,-0.00830,0.01025,-0.98613,2023,6,12,14,16,15,251
0.12600,2.90500,-4.48000,0.00000,-0.01061,0.01122,-0.98539,2023,6,12,14,16,15,262
0.12610,2.99250,-4.55000,0.00000,-0.00976,0.01049,-0.98722,2023,6,12,14,16,15,274
0.12620,3.16750,-4.53250,0.00000,-0.00915,0.01342,-0.98893,2023,6,12,14,16,15,285
0.12630,3.18500,-4.62000,0.00000,-0.00903,0.01086,-0.98905,2023,6,12,14,16,15,296
0.12640,2.97500,-4.58500,0.00000,-0.00939,0.01122,-0.98649,2023,6,12,14,16,15,307
0.12650,2.99250,-4.62000,0.00000,-0.00781,0.01025,-0.98649,2023,6,12,14,16,15,318
0.12660,3.39500,-4.34000,0.00000,-0.00915,0.01110,-0.98698,2023,6,12,14,16,15,329
0.12670,2.97500,-4.53250,0.00000,-0.00976,0.01098,-0.98759,2023,6,12,14,16,15,340
0.12680,3.18500,-4.76000,0.00000,-0.01208,0.01135,-0.98515,2023,6,12,14,16,15,351
0.12690,2.99250,-4.56750,0.00000,-0.00695,0.01025,-0.98979,2023,6,12,14,16,15,362
0.12700,3.01000,-4.60250,0.00000,-0.00866,0.00891,-0.98808,2023,6,12,14,16,15,374
0.12710,2.92250,-4.49750,0.00000,-0.01013,0.00976,-0.98600,2023,6,12,14,16,15,385
0.12720,2.83500,-4.60250,0.00000,-0.00744,0.01098,-0.98649,2023,6,12,14,16,15,396
0.12730,3.04500,-4.44500,0.00000,-0.01159,0.01000,-0.98588,2023,6,12,14,16,15,407
0.12740,3.15000,-4.51500,0.00000,-0.01098,0.01013,-0.98783,2023,6,12,14,16,15,418
0.12750,2.90500,-4.44500,0.00000,-0.00891,0.01098,-0.98783,2023,6,12,14,16,15,429
0.12760,2.81750,-4.56750,0.00000,-0.01013,0.00976,-0.98613,2023,6,12,14,16,15,440
0.12770,2.97500,-4.55000,0.00000,-0.00988,0.01159,-0.98674,2023,6,12,14,16,15,451
0.12780,3.18500,-4.63750,0.00000,-0.01000,0.01135,-0.98783,2023,6,12,14,16,15,462
0.12790,3.11500,-4.58500,0.00000,-0.01025,0.01196,-0.98661,2023,6,12,14,16,15,474
0.12800,3.08000,-4.79500,0.00000,-0.01110,0.01147,-0.98637,2023,6,12,14,16,15,485
0.12810,2.95750,-4.60250,0.00000,-0.01013,0.01281,-0.98783,2023,6,12,14,16,15,496
0.12820,2.90500,-4.58500,0.00000,-0.01220,0.00805,-0.99064,2023,6,12,14,16,15,507
0.12830,3.09750,-4.58500,0.00000,-0.00927,0.01135,-0.98454,2023,6,12,14,16,15,518
0.12840,3.04500,-4.49750,0.00000,-0.00732,0.01171,-0.98356,2023,6,12,14,16,15,529
0.12850,3.20250,-4.67250,0.00000,-0.00805,0.01159,-0.98796,2023,6,12,14,16,15,540
0.12860,3.16750,-4.60250,0.00000,-0.01086,0.01000,-0.98674,2023,6,12,14,16,15,551
0.12870,3.06250,-4.74250,0.00000,-0.00769,0.01061,-0.98527,2023,6,12,14,16,15,562
0.12880,3.16750,-4.56750,0.00000,-0.00939,0.01135,-0.98442,2023,6,12,14,16,15,574
0.12890,3.15000,-4.53250,0.00000,-0.00976,0.01281,-0.98649,2023,6,12,14,16,15,585
0.12900,2.81750,-4.44500,0.00000,-0.00708,0.01086,-0.98539,2023,6,12,14,16,15,596
0.12910,3.18500,-4.76000,0.00000,-0.00854,0.01074,-0.98466,2023,6,12,14,16,15,607
0.12920,3.06250,-4.53250,0.00000,-0.00756,0.01098,-0.98674,2023,6,12,14,16,15,618
0.12930,2.97500,-4.49750,0.00000,-0.00939,0.01208,-0.98576,2023,6,12,14,16,15,629
0.12940,2.95750,-4.72500,0.00000,-0.00964,0.01037,-0.98649,2023,6,12,14,16,15,640
0.12950,3.04500,-4.44500,0.00000,-0.00964,0.00976,-0.98576,2023,6,12,14,16,15,651
0.12960,3.13250,-4.53250,0.00000,-0.01061,0.01147,-0.98747,2023,6,12,14,16,15,662
0.12970,3.01000,-4.32250,0.00000,-0.01000,0.01098,-0.98588,2023,6,12,14,16,15,674
0.12980,3.02750,-4.76000,0.00000,-0.00952,0.01208,-0.98674,2023,6,12,14,16,15,685
0.12990,3.01000,-4.58500,0.00000,-0.00720,0.01037,-0.98320,2023,6,12,14,16,15,696
0.13000,2.95750,-4.56750,0.00000,-0.00915,0.01074,-0.98698,2023,6,12,14,16,15,707
0.13010,3.18500,-4.60250,0.00000,-0.00976,0.01244,-0.98600,2023,6,12,14,16,15,718
0.13020,3.22000,-4.70750,0.00000,-0.00952,0.01122,-0.98820,2023,6,12,14,16,15,729
0.13030,3.09750,-4.56750,0.00000,-0.01110,0.01232,-0.98698,2023,6,12,14,16,15,740
0.13040,3.08000,-4.83000,0.00000,-0.00964,0.01098,-0.98637,2023,6,12,14,16,15,751
0.13050,3.13250,-4.39250,0.00000,-0.00903,0.00976,-0.98832,2023,6,12,14,16,15,762
0.13060,3.23750,-4.58500,0.00000,-0.00817,0.00976,-0.98588,2023,6,12,14,16,15,774
0.13070,2.95750,-4.35750,0.00000,-0.00976,0.00903,-0.98625,2023,6,12,14,16,15,785
0.13080,3.02750,-4.60250,0.00000,-0.01049,0.00927,-0.98674,2023,6,12,14,16,15,796
0.13090,3.22000,-4.67250,0.00000,-0.01000,0.01025,-0.98588,2023,6,12,14,16,15,807
0.13100,2.88750,-4.53250,0.00000,-0.00964,0.01232,-0.98735,2023,6,12,14,16,15,818
0.13110,3.01000,-4.53250,0.00000,-0.00830,0.01049,-0.98588,2023,6,12,14,16,15,829
0.13120,3.02750,-4.53250,0.00000,-0.00817,0.01171,-0.98588,2023,6,12,14,16,15,840
0.13130,3.09750,-4.44500,0.00000,-0.00939,0.01354,-0.98735,2023,6,12,14,16,15,851
0.13140,3.02750,-4.60250,0.00000,-0.00732,0.01183,-0.98710,2023,6,12,14,16,15,862
0.13150,2.83500,-4.49750,0.00000,-0.00866,0.01037,-0.98576,2023,6,12,14,16,15,874
0.13160,3.09750,-4.63750,0.00000,-0.00854,0.01171,-0.98661,2023,6,12,14,16,15,885
0.13170,3.13250,-4.58500,0.00000,-0.01061,0.00939,-0.98600,2023,6,12,14,16,15,896
0.13180,3.29000,-4.65500,0.00000,-0.00781,0.00927,-0.98442,2023,6,12,14,16,15,907
0.13190,2.99250,-4.42750,0.00000,-0.01159,0.01000,-0.98539,2023,6,12,14,16,15,918
0.13200,3.16750,-4.63750,0.00000,-0.00842,0.01037,-0.98564,2023,6,12,14,16,15,929
0.13210,3.15000,-4.49750,0.00000,-0.00964,0.01110,-0.98698,2023,6,12,14,16,15,940
0.13220,3.18500,-4.55000,0.00000,-0.01000,0.00927,-0.98844,2023,6,12,14,16,15,951
0.13230,2.88750,-4.58500,0.00000,-0.01000,0.01196,-0.98515,2023,6,12,14,16,15,962
0.13240,3.11500,-4.56750,0.00000,-0.00927,0.01074,-0.98661,2023,6,12,14,16,15,974
0.13250,3.01000,-4.62000,0.00000,-0.00976,0.00952,-0.98735,2023,6,12,14,16,16,5
0.13260,3.23750,-4.67250,0.00000,-0.01013,0.01037,-0.98588,2023,6,12,14,16,16,16
0.13270,3.23750,-4.77750,0.00000,-0.01025,0.01098,-0.98613,2023,6,12,14,16,16,27
0.13280,3.15000,-4.51500,0.00000,-0.00976,0.01098,-0.98966,2023,6,12,14,16,16,38
0.13290,2.95750,-4.37500,0.00000,-0.00988,0.01025,-0.98625,2023,6,12,14,16,16,49
0.13300,3.01000,-4.51500,0.00000,-0.00915,0.00915,-0.98576,2023,6,12,14,16,16,60
0.13310,3.09750,-4.49750,0.00000,-0.01000,0.00854,-0.98564,2023,6,12,14,16,16,71
0.13320,3.13250,-4.62000,0.00000,-0.00720,0.01147,-0.98783,2023,6,12,14,16,16,82
0.13330,3.02750,-4.39250,0.00000,-0.01122,0.01257,-0.98710,2023,6,12,14,16,16,94
0.13340,3.02750,-4.69000,0.00000,-0.00903,0.01037,-0.98393,2023,6,12,14,16,16,105
0.13350,3.16750,-4.55000,0.00000,-0.00976,0.01220,-0.98991,2023,6,12,14,16,16,116
0.13360,3.09750,-4.83000,0.00000,-0.00964,0.01049,-0.98698,2023,6,12,14,16,16,127
0.13370,2.85250,-4.86500,0.00000,-0.00939,0.01244,-0.98600,2023,6,12,14,16,16,138
0.13380,3.16750,-4.70750,0.00000,-0.00842,0.00952,-0.98588,2023,6,12,14,16,16,149
0.13390,2.99250,-4.60250,0.00000,-0.00805,0.01269,-0.98674,2023,6,12,14,16,16,160
0.13400,2.92250,-4.63750,0.00000,-0.00915,0.01147,-0.98698,2023,6,12,14,16,16,171
0.13410,3.09750,-4.60250,0.00000,-0.00952,0.01232,-0.98674,2023,6,12,14,16,16,182
0.13420,3.08000,-4.60250,0.00000,-0.00915,0.01232,-0.98759,2023,6,12,14,16,16,194
0.13430,3.23750,-4.63750,0.00000,-0.00781,0.01208,-0.98515,2023,6,12,14,16,16,205
0.13440,2.90500,-4.63750,0.00000,-0.01013,0.00964,-0.98454,2023,6,12,14,16,16,216
0.13450,3.01000,-4.53250,0.00000,-0.00903,0.01159,-0.98747,2023,6,12,14,16,16,227
0.13460,3.02750,-4.63750,0.00000,-0.00976,0.01135,-0.98783,2023,6,12,14,16,16,238
0.13470,3.15000,-4.51500,0.00000,-0.00903,0.01244,-0.98466,2023,6,12,14,16,16,249
0.13480,3.02750,-4.67250,0.00000,-0.01025,0.01232,-0.98552,2023,6,12,14,16,16,260
0.13490,3.11500,-4.48000,0.00000,-0.01074,0.01049,-0.98552,2023,6,12,14,16,16,271
0.13500,2.81750,-4.46250,0.00000,-0.00903,0.01061,-0.98430,2023,6,12,14,16,16,282
0.13510,3.29000,-4.69000,0.00000,-0.00769,0.01257,-0.98588,2023,6,12,14,16,16,294
0.13520,3.02750,-4.58500,0.00000,-0.00927,0.00915,-0.98759,2023,6,12,14,16,16,305
0.13530,2.94000,-4.35750,0.00000,-0.00952,0.01244,-0.98832,2023,6,12,14,16,16,316
0.13540,3.02750,-4.55000,0.00000,-0.00805,0.01159,-0.98625,2023,6,12,14,16,16,327
0.13550,2.83500,-4.53250,0.00000,-0.01061,0.01013,-0.98722,2023,6,12,14,16,16,338
0.13560,2.88750,-4.60250,0.00000,-0.01074,0.01110,-0.98698,2023,6,12,14,16,16,349
0.13570,2.99250,-4.72500,0.00000,-0.00769,0.01110,-0.98381,2023,6,12,14,16,16,360
0.13580,3.22000,-4.83000,0.00000,-0.00903,0.01086,-0.98613,2023,6,12,14,16,16,371
0.13590,3.01000,-4.46250,0.00000,-0.00805,0.01098,-0.98576,2023,6,12,14,16,16,382
0.13600,3.09750,-4.55000,0.00000,-0.01037,0.01232,-0.98613,2023,6,12,14,16,16,394
0.13610,3.08000,-4.51500,0.00000,-0.00915,0.01208,-0.98661,2023,6,12,14,16,16,405
0.13620,3.16750,-4.56750,0.00000,-0.00988,0.00988,-0.98552,2023,6,12,14,16,16,416
0.13630,3.13250,-4.56750,0.00000,-0.00939,0.01171,-0.98686,2023,6,12,14,16,16,427
0.13640,3.09750,-4.62000,0.00000,-0.01000,0.01098,-0.98552,2023,6,12,14,16,16,438
0.13650,3.06250,-4.46250,0.00000,-0.00903,0.00939,-0.98735,2023,6,12,14,16,16,449
0.13660,3.01000,-4.44500,0.00000,-0.00878,0.01135,-0.98576,2023,6,12,14,16,16,460
0.13670,3.06250,-4.53250,0.00000,-0.00842,0.01159,-0.98722,2023,6,12,14,16,16,471
0.13680,3.04500,-4.60250,0.00000,-0.01110,0.01013,-0.98625,2023,6,12,14,16,16,482
0.13690,3.22000,-4.56750,0.00000,-0.01074,0.00878,-0.98588,2023,6,12,14,16,16,494
0.13700,3.04500,-4.67250,0.00000,-0.00976,0.01000,-0.98979,2023,6,12,14,16,16,505
0.13710,3.09750,-4.77750,0.00000,-0.01013,0.01122,-0.98820,2023,6,12,14,16,16,516
0.13720,2.99250,-4.55000,0.00000,-0.01000,0.00915,-0.98747,2023,6,12,14,16,16,527
0.13730,2.97500,-4.53250,0.00000,-0.01159,0.01061,-0.98686,2023,6,12,14,16,16,538
0.13740,2.90500,-4.55000,0.00000,-0.00805,0.01220,-0.98466,2023,6,12,14,16,16,549
0.13750,2.95750,-4.60250,0.00000,-0.00903,0.00952,-0.98637,2023,6,12,14,16,16,560
0.13760,3.09750,-4.44500,0.00000,-0.01244,0.01257,-0.98552,2023,6,12,14,16,16,571
0.13770,3.08000,-4.58500,0.00000,-0.01025,0.01232,-0.98613,2023,6,12,14,16,16,582
0.13780,3.09750,-4.62000,0.00000,-0.00842,0.01147,-0.98686,2023,6,12,14,16,16,594
0.13790,3.20250,-4.86500,0.00000,-0.01135,0.01196,-0.98674,2023,6,12,14,16,16,605
0.13800,3.11500,-4.49750,0.00000,-0.01000,0.00939,-0.98698,2023,6,12,14,16,16,616
0.13810,3.08000,-4.58500,0.00000,-0.00805,0.00781,-0.98722,2023,6,12,14,16,16,627
0.13820,2.97500,-4.67250,0.00000,-0.01000,0.01159,-0.98491,2023,6,12,14,16,16,638
0.13830,3.13250,-4.48000,0.00000,-0.00878,0.01013,-0.98844,2023,6,12,14,16,16,649
0.13840,3.06250,-4.65500,0.00000,-0.00866,0.01281,-0.98759,2023,6,12,14,16,16,660
0.13850,2.99250,-4.62000,0.00000,-0.00866,0.01122,-0.98527,2023,6,12,14,16,16,671
0.13860,3.08000,-4.62000,0.00000,-0.00878,0.01086,-0.98722,2023,6,12,14,16,16,682
0.13870,3.15000,-4.77750,0.00000,-0.00903,0.01110,-0.98491,2023,6,12,14,16,16,694
0.13880,3.06250,-4.42750,0.00000,-0.00939,0.01171,-0.98820,2023,6,12,14,16,16,705
0.13890,2.97500,-4.65500,0.00000,-0.01098,0.01183,-0.98515,2023,6,12,14,16,16,716
0.13900,3.29000,-4.70750,0.00000,-0.01074,0.00939,-0.98369,2023,6,12,14,16,16,727
0.13910,2.80000,-4.39250,0.00000,-0.00695,0.01135,-0.98613,2023,6,12,14,16,16,738
0.13920,3.11500,-4.63750,0.00000,-0.00781,0.01074,-0.98576,2023,6,12,14,16,16,749
0.13930,3.27250,-4.77750,0.00000,-0.01049,0.01305,-0.98613,2023,6,12,14,16,16,760
0.13940,3.08000,-4.51500,0.00000,-0.00915,0.01061,-0.98649,2023,6,12,14,16,16,771
0.13950,3.04500,-4.53250,0.00000,-0.00903,0.01061,-0.98783,2023,6,12,14,16,16,782
0.13960,3.23750,-4.65500,0.00000,-0.00891,0.01098,-0.98454,2023,6,12,14,16,16,794
0.13970,2.90500,-4.35750,0.00000,-0.00952,0.00939,-0.98686,2023,6,12,14,16,16,805
0.13980,2.92250,-4.67250,0.00000,-0.00854,0.01147,-0.98613,2023,6,12,14,16,16,816
0.13990,3.08000,-4.62000,0.00000,-0.00830,0.01049,-0.98564,2023,6,12,14,16,16,827
0.14000,3.18500,-4.53250,0.00000,-0.00952,0.01074,-0.98564,2023,6,12,14,16,16,838
0.14010,3.04500,-4.62000,0.00000,-0.01074,0.00769,-0.98625,2023,6,12,14,16,16,849
0.14020,3.22000,-4.70750,0.00000,-0.01049,0.01183,-0.98588,2023,6,12,14,16,16,860
0.14030,2.95750,-4.65500,0.00000,-0.00817,0.00976,-0.98759,2023,6,12,14,16,16,871
0.14040,3.11500,-4.63750,0.00000,-0.01013,0.01061,-0.98747,2023,6,12,14,16,16,882
0.14050,3.02750,-4.46250,0.00000,-0.00903,0.01220,-0.98649,2023,6,12,14,16,16,894
0.14060,3.06250,-4.53250,0.00000,-0.00927,0.00793,-0.98588,2023,6,12,14,16,16,905
0.14070,3.04500,-4.56750,0.00000,-0.00915,0.01049,-0.98735,2023,6,12,14,16,16,916
0.14080,3.06250,-4.55000,0.00000,-0.00793,0.00952,-0.98674,2023,6,12,14,16,16,927
0.14090,3.02750,-4.53250,0.00000,-0.01049,0.01098,-0.98613,2023,6,12,14,16,16,938
0.14100,3.13250,-4.32250,0.00000,-0.01208,0.01232,-0.98625,2023,6,12,14,16,16,949
0.14110,3.06250,-4.58500,0.00000,-0.01098,0.01122,-0.98820,2023,6,12,14,16,16,960
0.14120,3.08000,-4.65500,0.00000,-0.00769,0.01110,-0.98686,2023,6,12,14,16,16,971
0.14130,3.20250,-4.70750,0.00000,-0.00939,0.01122,-0.98844,2023,6,12,14,16,17,2
0.14140,3.06250,-4.63750,0.00000,-0.01049,0.01049,-0.98637,2023,6,12,14,16,17,14
0.14150,3.08000,-4.48000,0.00000,-0.00939,0.01061,-0.98857,2023,6,12,14,16,17,25
0.14160,2.88750,-4.65500,0.00000,-0.01000,0.01098,-0.98539,2023,6,12,14,16,17,36
0.14170,3.01000,-4.56750,0.00000,-0.01110,0.01171,-0.98722,2023,6,12,14,16,17,47
0.14180,3.08000,-4.65500,0.00000,-0.01061,0.01061,-0.98491,2023,6,12,14,16,17,58
0.14190,3.09750,-4.53250,0.00000,-0.01074,0.01232,-0.98576,2023,6,12,14,16,17,69
0.14200,3.09750,-4.56750,0.00000,-0.00732,0.01244,-0.98417,2023,6,12,14,16,17,80
0.14210,3.18500,-4.55000,0.00000,-0.01025,0.00988,-0.98625,2023,6,12,14,16,17,91
0.14220,3.09750,-4.56750,0.00000,-0.00988,0.01086,-0.98844,2023,6,12,14,16,17,102
0.14230,3.02750,-4.62000,0.00000,-0.00939,0.01061,-0.98905,2023,6,12,14,16,17,114
0.14240,3.08000,-4.74250,0.00000,-0.00866,0.01049,-0.98844,2023,6,12,14,16,17,125
0.14250,2.90500,-4.35750,0.00000,-0.00964,0.01147,-0.98722,2023,6,12,14,16,17,136
0.14260,3.06250,-4.53250,0.00000,-0.00939,0.01000,-0.98564,2023,6,12,14,16,17,147
0.14270,3.08000,-4.63750,0.00000,-0.00952,0.00952,-0.98527,2023,6,12,14,16,17,158
0.14280,3.13250,-4.62000,0.00000,-0.01074,0.01037,-0.98722,2023,6,12,14,16,17,169
0.14290,3.02750,-4.37500,0.00000,-0.00854,0.01061,-0.98698,2023,6,12,14,16,17,180
0.14300,3.06250,-4.46250,0.00000,-0.01061,0.01159,-0.98881,2023,6,12,14,16,17,191
0.14310,2.99250,-4.42750,0.00000,-0.01025,0.01122,-0.98588,2023,6,12,14,16,17,202
0.14320,2.90500,-4.46250,0.00000,-0.01000,0.01061,-0.98674,2023,6,12,14,16,17,214
0.14330,2.94000,-4.55000,0.00000,-0.01171,0.01013,-0.98661,2023,6,12,14,16,17,225
0.14340,2.92250,-4.55000,0.00000,-0.01122,0.01305,-0.98539,2023,6,12,14,16,17,236
0.14350,3.15000,-4.46250,0.00000,-0.01000,0.01037,-0.98600,2023,6,12,14,16,17,247
0.14360,3.04500,-4.70750,0.00000,-0.00830,0.01208,-0.98735,2023,6,12,14,16,17,258
0.14370,3.16750,-4.51500,0.00000,-0.01086,0.01049,-0.98539,2023,6,12,14,16,17,269
0.14380,3.02750,-4.72500,0.00000,-0.00964,0.01086,-0.98918,2023,6,12,14,16,17,280
0.14390,3.09750,-4.39250,0.00000,-0.00854,0.01025,-0.98991,2023,6,12,14,16,17,291
0.14400,2.94000,-4.77750,0.00000,-0.01159,0.01183,-0.98747,2023,6,12,14,16,17,302
0.14410,2.92250,-4.70750,0.00000,-0.00891,0.00988,-0.98466,2023,6,12,14,16,17,314
0.14420,2.85250,-4.46250,0.00000,-0.01147,0.01000,-0.98722,2023,6,12,14,16,17,325
0.14430,3.13250,-4.65500,0.00000,-0.00805,0.00878,-0.98417,2023,6,12,14,16,17,336
0.14440,3.16750,-4.53250,0.00000,-0.00915,0.01293,-0.98832,2023,6,12,14,16,17,347
0.14450,2.97500,-4.56750,0.00000,-0.01122,0.01159,-0.98637,2023,6,12,14,16,17,358
0.14460,3.15000,-4.56750,0.00000,-0.01232,0.00939,-0.98674,2023,6,12,14,16,17,369
0.14470,3.08000,-4.67250,0.00000,-0.01183,0.01208,-0.98674,2023,6,12,14,16,17,380
0.14480,3.13250,-4.58500,0.00000,-0.00915,0.00866,-0.98600,2023,6,12,14,16,17,391
0.14490,3.20250,-4.63750,0.00000,-0.00793,0.01159,-0.98857,2023,6,12,14,16,17,402
0.14500,3.09750,-4.62000,0.00000,-0.00964,0.01110,-0.98637,2023,6,12,14,16,17,414
0.14510,3.08000,-4.65500,0.00000,-0.00939,0.01220,-0.98698,2023,6,12,14,16,17,425
0.14520,3.08000,-4.58500,0.00000,-0.00976,0.01135,-0.98478,2023,6,12,14,16,17,436
0.14530,3.16750,-4.62000,0.00000,-0.00915,0.01122,-0.98820,2023,6,12,14,16,17,447
0.14540,2.87000,-4.48000,0.00000,-0.00878,0.00988,-0.98771,2023,6,12,14,16,17,458
0.14550,3.13250,-4.55000,0.00000,-0.00964,0.01025,-0.98613,2023,6,12,14,16,17,469
0.14560,3.02750,-4.48000,0.00000,-0.01415,0.01159,-0.98722,2023,6,12,14,16,17,480
0.14570,3.13250,-4.56750,0.00000,-0.00939,0.01171,-0.98576,2023,6,12,14,16,17,491
0.14580,3.13250,-4.37500,0.00000,-0.00793,0.01196,-0.98588,2023,6,12,14,16,17,502
0.14590,3.01000,-4.55000,0.00000,-0.00903,0.01122,-0.98552,2023,6,12,14,16,17,514
0.14600,3.04500,-4.44500,0.00000,-0.00878,0.01281,-0.98869,2023,6,12,14,16,17,525
0.14610,2.97500,-4.44500,0.00000,-0.00708,0.01049,-0.98832,2023,6,12,14,16,17,536
0.14620,3.16750,-4.84750,0.00000,-0.00866,0.01220,-0.98405,2023,6,12,14,16,17,547
0.14630,2.92250,-4.53250,0.00000,-0.00878,0.01110,-0.98503,2023,6,12,14,16,17,558
0.14640,3.01000,-4.56750,0.00000,-0.00903,0.01232,-0.98600,2023,6,12,14,16,17,569
0.14650,3.15000,-4.49750,0.00000,-0.00793,0.01061,-0.98600,2023,6,12,14,16,17,580
0.14660,2.87000,-4.56750,0.00000,-0.00830,0.01013,-0.98808,2023,6,12,14,16,17,591
0.14670,3.02750,-4.62000,0.00000,-0.00769,0.01135,-0.98454,2023,6,12,14,16,17,602
0.14680,2.97500,-4.63750,0.00000,-0.01037,0.01208,-0.98674,2023,6,12,14,16,17,614
0.14690,3.02750,-4.62000,0.00000,-0.00891,0.01086,-0.98722,2023,6,12,14,16,17,625
0.14700,2.90500,-4.62000,0.00000,-0.00756,0.01049,-0.98649,2023,6,12,14,16,17,636
0.14710,2.83500,-4.56750,0.00000,-0.00891,0.01183,-0.98710,2023,6,12,14,16,17,647
0.14720,3.06250,-4.51500,0.00000,-0.00732,0.00927,-0.98857,2023,6,12,14,16,17,658
0.14730,2.95750,-4.70750,0.00000,-0.00927,0.01025,-0.98600,2023,6,12,14,16,17,669
