#2023/06/12 10:31:22
time,wx,wy,wz,ax,ay,az,yy,MM,dd,hh,mm,ss,ms
0.00000,2.95750,-4.60250,0.00000,0.01818,0.97002,-0.21509,2023,6,12,10,31,22,63
0.00010,2.88750,-4.51500,0.00000,0.01488,0.97136,-0.21265,2023,6,12,10,31,22,74
0.00020,3.04500,-4.63750,0.00000,0.01696,0.97173,-0.21265,2023,6,12,10,31,22,85
0.00030,2.97500,-4.58500,0.00000,0.01623,0.97185,-0.21313,2023,6,12,10,31,22,96
0.00040,2.88750,-4.69000,0.00000,0.01440,0.97112,-0.21374,2023,6,12,10,31,22,107
0.00050,2.97500,-4.55000,0.00000,0.01501,0.97319,-0.21399,2023,6,12,10,31,22,118
0.00060,2.80000,-4.37500,0.00000,0.01501,0.97307,-0.21448,2023,6,12,10,31,22,129
0.00070,3.02750,-4.60250,0.00000,0.01476,0.97112,-0.21460,2023,6,12,10,31,22,140
0.00080,3.06250,-4.51500,0.00000,0.01488,0.97197,-0.21350,2023,6,12,10,31,22,151
0.00090,2.78250,-4.48000,0.00000,0.01366,0.97100,-0.21448,2023,6,12,10,31,22,163
0.00100,2.87000,-4.67250,0.00000,0.01708,0.97039,-0.21069,2023,6,12,10,31,22,174
0.00110,2.92250,-4.63750,0.00000,0.01647,0.97185,-0.21204,2023,6,12,10,31,22,185
0.00120,2.99250,-4.74250,0.00000,0.01793,0.97124,-0.21130,2023,6,12,10,31,22,196
0.00130,2.99250,-4.69000,0.00000,0.01696,0.97027,-0.21167,2023,6,12,10,31,22,207
0.00140,2.87000,-4.58500,0.00000,0.01769,0.97136,-0.21094,2023,6,12,10,31,22,218
0.00150,2.94000,-4.55000,0.00000,0.01549,0.97246,-0.21362,2023,6,12,10,31,22,229
0.00160,2.99250,-4.51500,0.00000,0.01501,0.97185,-0.21570,2023,6,12,10,31,22,240
0.00170,2.88750,-4.35750,0.00000,0.01562,0.96844,-0.21289,2023,6,12,10,31,22,251
0.00180,3.01000,-4.69000,0.00000,0.01684,0.97002,-0.21252,2023,6,12,10,31,22,263
0.00190,2.85250,-4.72500,0.00000,0.01452,0.97234,-0.21411,2023,6,12,10,31,22,274
0.00200,3.08000,-4.46250,0.00000,0.01537,0.97100,-0.21399,2023,6,12,10,31,22,285
0.00210,2.99250,-4.42750,0.00000,0.01586,0.97319,-0.21313,2023,6,12,10,31,22,296
0.00220,2.76500,-4.34000,0.00000,0.01464,0.96978,-0.21582,2023,6,12,10,31,22,307
0.00230,2.85250,-4.74250,0.00000,0.01757,0.96856,-0.21435,2023,6,12,10,31,22,318
0.00240,3.02750,-4.58500,0.00000,0.01403,0.97185,-0.21362,2023,6,12,10,31,22,329
0.00250,2.87000,-4.53250,0.00000,0.01635,0.97246,-0.21435,2023,6,12,10,31,22,340
0.00260,2.88750,-4.63750,0.00000,0.01488,0.97088,-0.21472,2023,6,12,10,31,22,351
0.00270,2.73000,-4.55000,0.00000,0.01598,0.97271,-0.21631,2023,6,12,10,31,22,362
0.00280,2.78250,-4.44500,0.00000,0.01732,0.97112,-0.21814,2023,6,12,10,31,22,374
0.00290,2.95750,-4.63750,0.00000,0.01574,0.97197,-0.21460,2023,6,12,10,31,22,385
0.00300,2.83500,-4.49750,0.00000,0.01598,0.97124,-0.21448,2023,6,12,10,31,22,396
0.00310,2.87000,-4.51500,0.00000,0.01830,0.97100,-0.21545,2023,6,12,10,31,22,407
0.00320,2.90500,-4.49750,0.00000,0.01488,0.97429,-0.21399,2023,6,12,10,31,22,418
0.00330,2.88750,-4.44500,0.00000,0.01549,0.97161,-0.21313,2023,6,12,10,31,22,429
0.00340,2.90500,-4.44500,0.00000,0.01488,0.96929,-0.21606,2023,6,12,10,31,22,440
0.00350,2.80000,-4.69000,0.00000,0.01647,0.97283,-0.21606,2023,6,12,10,31,22,451
0.00360,2.97500,-4.63750,0.00000,0.01696,0.97088,-0.21399,2023,6,12,10,31,22,462
0.00370,2.99250,-4.56750,0.00000,0.01513,0.97307,-0.21460,2023,6,12,10,31,22,474
0.00380,2.83500,-4.74250,0.00000,0.01781,0.97136,-0.21533,2023,6,12,10,31,22,485
0.00390,2.81750,-4.56750,0.00000,0.01501,0.97210,-0.21570,2023,6,12,10,31,22,496
0.00400,2.99250,-4.56750,0.00000,0.01525,0.97124,-0.21448,2023,6,12,10,31,22,507
0.00410,2.85250,-4.67250,0.00000,0.01562,0.97283,-0.21399,2023,6,12,10,31,22,518
0.00420,2.85250,-4.51500,0.00000,0.01525,0.97161,-0.21582,2023,6,12,10,31,22,529
0.00430,2.95750,-4.58500,0.00000,0.01659,0.97039,-0.21582,2023,6,12,10,31,22,540
0.00440,2.97500,-4.58500,0.00000,0.01671,0.96978,-0.21448,2023,6,12,10,31,22,551
0.00450,2.90500,-4.46250,0.00000,0.01537,0.97271,-0.21521,2023,6,12,10,31,22,562
0.00460,2.92250,-4.56750,0.00000,0.01769,0.97173,-0.21496,2023,6,12,10,31,22,574
0.00470,2.90500,-4.51500,0.00000,0.01549,0.97161,-0.21277,2023,6,12,10,31,22,585
0.00480,2.94000,-4.63750,0.00000,0.01574,0.96966,-0.21399,2023,6,12,10,31,22,596
0.00490,2.95750,-4.62000,0.00000,0.01610,0.97234,-0.21301,2023,6,12,10,31,22,607
0.00500,2.94000,-4.60250,0.00000,0.01793,0.97014,-0.21240,2023,6,12,10,31,22,618
0.00510,3.16750,-4.72500,0.00000,0.01818,0.97234,-0.21313,2023,6,12,10,31,22,629
0.00520,2.97500,-4.76000,0.00000,0.01854,0.96856,-0.21228,2023,6,12,10,31,22,640
0.00530,3.02750,-4.60250,0.00000,0.01769,0.97319,-0.21130,2023,6,12,10,31,22,651
0.00540,3.18500,-4.74250,0.00000,0.01586,0.97039,-0.21484,2023,6,12,10,31,22,662
0.00550,3.06250,-4.65500,0.00000,0.01610,0.96978,-0.21350,2023,6,12,10,31,22,674
0.00560,2.95750,-4.60250,0.00000,0.01647,0.97075,-0.21350,2023,6,12,10,31,22,685
0.00570,2.80000,-4.42750,0.00000,0.01574,0.97149,-0.21289,2023,6,12,10,31,22,696
0.00580,2.81750,-4.56750,0.00000,0.01684,0.97088,-0.21399,2023,6,12,10,31,22,707
0.00590,2.85250,-4.51500,0.00000,0.01562,0.97136,-0.21143,2023,6,12,10,31,22,718
0.00600,2.99250,-4.28750,0.00000,0.01476,0.97210,-0.21155,2023,6,12,10,31,22,729
0.00610,2.88750,-4.69000,0.00000,0.01476,0.97173,-0.21179,2023,6,12,10,31,22,740
0.00620,3.15000,-4.74250,0.00000,0.01647,0.97210,-0.21472,2023,6,12,10,31,22,751
0.00630,2.80000,-4.70750,0.00000,0.01525,0.97075,-0.21338,2023,6,12,10,31,22,762
0.00640,2.94000,-4.56750,0.00000,0.01623,0.97234,-0.21204,2023,6,12,10,31,22,774
0.00650,2.92250,-4.65500,0.00000,0.01379,0.97027,-0.21167,2023,6,12,10,31,22,785
0.00660,2.95750,-4.55000,0.00000,0.01537,0.97234,-0.21057,2023,6,12,10,31,22,796
0.00670,2.94000,-4.62000,0.00000,0.01427,0.97112,-0.21155,2023,6,12,10,31,22,807
0.00680,3.06250,-4.48000,0.00000,0.01635,0.97173,-0.21313,2023,6,12,10,31,22,818
0.00690,3.04500,-4.67250,0.00000,0.01757,0.96941,-0.21240,2023,6,12,10,31,22,829
0.00700,3.08000,-4.39250,0.00000,0.01440,0.97210,-0.21094,2023,6,12,10,31,22,840
0.00710,2.85250,-4.62000,0.00000,0.01574,0.97075,-0.20947,2023,6,12,10,31,22,851
0.00720,2.90500,-4.72500,0.00000,0.01598,0.97100,-0.21179,2023,6,12,10,31,22,862
0.00730,2.88750,-4.46250,0.00000,0.01720,0.97344,-0.21130,2023,6,12,10,31,22,874
0.00740,3.04500,-4.55000,0.00000,0.01696,0.97161,-0.21350,2023,6,12,10,31,22,885
0.00750,2.95750,-4.56750,0.00000,0.01562,0.97075,-0.21045,2023,6,12,10,31,22,896
0.00760,3.02750,-4.58500,0.00000,0.01684,0.97027,-0.20996,2023,6,12,10,31,22,907
0.00770,2.74750,-4.44500,0.00000,0.01452,0.97136,-0.21216,2023,6,12,10,31,22,918
0.00780,3.13250,-4.55000,0.00000,0.01635,0.97100,-0.21130,2023,6,12,10,31,22,929
0.00790,3.01000,-4.56750,0.00000,0.01574,0.97197,-0.21252,2023,6,12,10,31,22,940
0.00800,2.92250,-4.63750,0.00000,0.01525,0.97295,-0.21496,2023,6,12,10,31,22,951
0.00810,3.01000,-4.39250,0.00000,0.01598,0.97039,-0.21167,2023,6,12,10,31,22,962
0.00820,3.08000,-4.37500,0.00000,0.01586,0.97197,-0.21082,2023,6,12,10,31,22,974
0.00830,2.85250,-4.74250,0.00000,0.01513,0.97258,-0.21216,2023,6,12,10,31,22,985
0.00840,2.94000,-4.46250,0.00000,0.01793,0.97161,-0.21252,2023,6,12,10,31,22,996
0.00850,2.67750,-4.60250,0.00000,0.01415,0.97405,-0.21277,2023,6,12,10,31,22,7
0.00860,3.01000,-4.70750,0.00000,0.01610,0.97368,-0.20923,2023,6,12,10,31,22,18
0.00870,2.78250,-4.58500,0.00000,0.01452,0.97295,-0.21338,2023,6,12,10,31,22,29
0.00880,3.01000,-4.56750,0.00000,0.01732,0.97063,-0.21289,2023,6,12,10,31,22,40
0.00890,2.81750,-4.51500,0.00000,0.01513,0.97075,-0.21301,2023,6,12,10,31,22,51
0.00900,2.92250,-4.69000,0.00000,0.01586,0.97246,-0.21265,2023,6,12,10,31,22,62
0.00910,2.83500,-4.77750,0.00000,0.01671,0.97088,-0.21216,2023,6,12,10,31,22,74
0.00920,2.94000,-4.67250,0.00000,0.01696,0.97063,-0.21167,2023,6,12,10,31,22,85
0.00930,2.81750,-4.62000,0.00000,0.01745,0.97027,-0.21130,2023,6,12,10,31,22,96
0.00940,2.87000,-4.58500,0.00000,0.01586,0.97002,-0.21399,2023,6,12,10,31,22,107
0.00950,2.97500,-4.63750,0.00000,0.01452,0.97124,-0.20947,2023,6,12,10,31,22,118
0.00960,3.16750,-4.65500,0.00000,0.01549,0.97319,-0.21130,2023,6,12,10,31,22,129
0.00970,2.92250,-4.60250,0.00000,0.01684,0.97258,-0.21130,2023,6,12,10,31,22,140
0.00980,3.04500,-4.53250,0.00000,0.01769,0.97136,-0.21265,2023,6,12,10,31,22,151
0.00990,3.11500,-4.81250,0.00000,0.01452,0.97307,-0.21240,2023,6,12,10,31,22,162
0.01000,2.92250,-4.69000,0.00000,0.01586,0.97185,-0.21191,2023,6,12,10,31,22,174
0.01010,2.90500,-4.56750,0.00000,0.01501,0.97173,-0.21106,2023,6,12,10,31,22,185
0.01020,2.95750,-4.88250,0.00000,0.01610,0.97295,-0.21216,2023,6,12,10,31,22,196
0.01030,2.87000,-4.58500,0.00000,0.01574,0.97380,-0.21191,2023,6,12,10,31,22,207
0.01040,2.88750,-4.76000,0.00000,0.01525,0.97380,-0.21118,2023,6,12,10,31,22,218
0.01050,2.80000,-4.56750,0.00000,0.01659,0.97234,-0.21045,2023,6,12,10,31,22,229
0.01060,2.95750,-4.53250,0.00000,0.01769,0.97075,-0.21106,2023,6,12,10,31,22,240
0.01070,2.87000,-4.55000,0.00000,0.01562,0.97368,-0.21228,2023,6,12,10,31,22,251
0.01080,2.99250,-4.74250,0.00000,0.01769,0.97185,-0.21191,2023,6,12,10,31,22,262
0.01090,2.92250,-4.51500,0.00000,0.01379,0.97136,-0.21289,2023,6,12,10,31,22,274
0.01100,2.87000,-4.44500,0.00000,0.01464,0.97051,-0.21399,2023,6,12,10,31,22,285
0.01110,2.78250,-4.74250,0.00000,0.01501,0.97234,-0.21387,2023,6,12,10,31,22,296
0.01120,2.83500,-4.56750,0.00000,0.01903,0.97088,-0.21069,2023,6,12,10,31,23,7
0.01130,2.94000,-4.48000,0.00000,0.01610,0.97246,-0.21167,2023,6,12,10,31,23,18
0.01140,2.90500,-4.60250,0.00000,0.01537,0.97088,-0.21326,2023,6,12,10,31,23,29
0.01150,2.85250,-4.35750,0.00000,0.01501,0.97185,-0.20947,2023,6,12,10,31,23,40
0.01160,2.85250,-4.69000,0.00000,0.01598,0.97197,-0.21204,2023,6,12,10,31,23,51
0.01170,2.97500,-4.46250,0.00000,0.01891,0.97051,-0.21082,2023,6,12,10,31,23,62
0.01180,2.88750,-4.37500,0.00000,0.01586,0.97088,-0.21240,2023,6,12,10,31,23,74
0.01190,2.88750,-4.77750,0.00000,0.01452,0.97051,-0.20947,2023,6,12,10,31,23,85
0.01200,2.95750,-4.63750,0.00000,0.01610,0.96966,-0.21143,2023,6,12,10,31,23,96
0.01210,3.04500,-4.58500,0.00000,0.01671,0.97380,-0.21277,2023,6,12,10,31,23,107
0.01220,2.90500,-4.69000,0.00000,0.01452,0.97039,-0.21338,2023,6,12,10,31,23,118
0.01230,2.90500,-4.48000,0.00000,0.01793,0.97149,-0.21265,2023,6,12,10,31,23,129
0.01240,2.95750,-4.63750,0.00000,0.01659,0.96941,-0.21350,2023,6,12,10,31,23,140
0.01250,2.92250,-4.46250,0.00000,0.01720,0.97124,-0.21362,2023,6,12,10,31,23,151
0.01260,3.09750,-4.63750,0.00000,0.01635,0.97344,-0.21313,2023,6,12,10,31,23,162
0.01270,3.02750,-4.69000,0.00000,0.01708,0.97124,-0.21338,2023,6,12,10,31,23,174
0.01280,2.78250,-4.46250,0.00000,0.01793,0.97222,-0.21240,2023,6,12,10,31,23,185
0.01290,2.85250,-4.65500,0.00000,0.01562,0.97100,-0.21106,2023,6,12,10,31,23,196
0.01300,2.94000,-4.69000,0.00000,0.01525,0.97173,-0.21008,2023,6,12,10,31,23,207
0.01310,2.83500,-4.55000,0.00000,0.01659,0.97136,-0.21130,2023,6,12,10,31,23,218
0.01320,2.78250,-4.60250,0.00000,0.01562,0.97075,-0.21179,2023,6,12,10,31,23,229
0.01330,2.78250,-4.55000,0.00000,0.01549,0.97246,-0.21155,2023,6,12,10,31,23,240
0.01340,2.92250,-4.67250,0.00000,0.01635,0.97027,-0.21082,2023,6,12,10,31,23,251
0.01350,3.06250,-4.56750,0.00000,0.01696,0.97234,-0.21204,2023,6,12,10,31,23,262
0.01360,2.92250,-4.44500,0.00000,0.01525,0.97063,-0.21374,2023,6,12,10,31,23,274
0.01370,2.92250,-4.70750,0.00000,0.01671,0.97112,-0.21460,2023,6,12,10,31,23,285
0.01380,2.87000,-4.83000,0.00000,0.01671,0.97075,-0.21179,2023,6,12,10,31,23,296
0.01390,2.83500,-4.48000,0.00000,0.01610,0.97210,-0.21143,2023,6,12,10,31,23,307
0.01400,2.94000,-4.62000,0.00000,0.01745,0.97161,-0.21301,2023,6,12,10,31,23,318
0.01410,3.01000,-4.60250,0.00000,0.01769,0.97136,-0.21130,2023,6,12,10,31,23,329
0.01420,2.97500,-4.70750,0.00000,0.01586,0.97258,-0.21106,2023,6,12,10,31,23,340
0.01430,2.87000,-4.77750,0.00000,0.01562,0.97173,-0.21313,2023,6,12,10,31,23,351
0.01440,2.87000,-4.35750,0.00000,0.01391,0.97136,-0.21106,2023,6,12,10,31,23,362
0.01450,2.95750,-4.81250,0.00000,0.01647,0.97149,-0.21301,2023,6,12,10,31,23,374
0.01460,3.01000,-4.58500,0.00000,0.01757,0.97185,-0.21082,2023,6,12,10,31,23,385
0.01470,2.66000,-4.39250,0.00000,0.01684,0.97246,-0.21326,2023,6,12,10,31,23,396
0.01480,2.88750,-4.58500,0.00000,0.01488,0.97051,-0.21387,2023,6,12,10,31,23,407
0.01490,2.97500,-4.56750,0.00000,0.01671,0.96844,-0.21216,2023,6,12,10,31,23,418
0.01500,2.90500,-4.48000,0.00000,0.01732,0.97100,-0.21082,2023,6,12,10,31,23,429
0.01510,2.66000,-4.48000,0.00000,0.01720,0.97271,-0.21313,2023,6,12,10,31,23,440
0.01520,2.95750,-4.63750,0.00000,0.01659,0.97124,-0.21179,2023,6,12,10,31,23,451
0.01530,2.90500,-4.62000,0.00000,0.01732,0.97210,-0.21362,2023,6,12,10,31,23,462
0.01540,2.76500,-4.48000,0.00000,0.01537,0.97197,-0.21277,2023,6,12,10,31,23,474
0.01550,2.83500,-4.56750,0.00000,0.01574,0.97356,-0.21484,2023,6,12,10,31,23,485
0.01560,2.90500,-4.44500,0.00000,0.01708,0.97246,-0.21179,2023,6,12,10,31,23,496
0.01570,3.08000,-4.55000,0.00000,0.01452,0.97161,-0.21484,2023,6,12,10,31,23,507
0.01580,2.74750,-4.53250,0.00000,0.01635,0.96990,-0.21313,2023,6,12,10,31,23,518
0.01590,3.11500,-4.69000,0.00000,0.01427,0.97454,-0.21411,2023,6,12,10,31,23,529
0.01600,2.94000,-4.65500,0.00000,0.01549,0.97149,-0.21265,2023,6,12,10,31,23,540
0.01610,2.90500,-4.48000,0.00000,0.01562,0.97075,-0.21228,2023,6,12,10,31,23,551
0.01620,2.92250,-4.76000,0.00000,0.01610,0.97051,-0.21204,2023,6,12,10,31,23,562
0.01630,2.95750,-4.58500,0.00000,0.01574,0.97149,-0.21216,2023,6,12,10,31,23,574
0.01640,3.09750,-4.67250,0.00000,0.01830,0.96990,-0.21533,2023,6,12,10,31,23,585
0.01650,2.85250,-4.44500,0.00000,0.01562,0.97197,-0.21448,2023,6,12,10,31,23,596
0.01660,2.90500,-4.62000,0.00000,0.01659,0.97100,-0.21240,2023,6,12,10,31,23,607
0.01670,2.81750,-4.53250,0.00000,0.01610,0.97210,-0.21130,2023,6,12,10,31,23,618
0.01680,2.62500,-4.49750,0.00000,0.01598,0.97100,-0.21204,2023,6,12,10,31,23,629
0.01690,2.87000,-4.63750,0.00000,0.01574,0.97161,-0.21265,2023,6,12,10,31,23,640
0.01700,3.06250,-4.65500,0.00000,0.01647,0.97014,-0.21472,2023,6,12,10,31,23,651
0.01710,2.87000,-4.56750,0.00000,0.01720,0.96966,-0.21362,2023,6,12,10,31,23,662
0.01720,3.01000,-4.62000,0.00000,0.01586,0.97319,-0.21021,2023,6,12,10,31,23,674
0.01730,2.92250,-4.51500,0.00000,0.01415,0.97197,-0.21301,2023,6,12,10,31,23,685
0.01740,3.01000,-4.51500,0.00000,0.01598,0.97271,-0.21057,2023,6,12,10,31,23,696
0.01750,2.90500,-4.48000,0.00000,0.01610,0.97136,-0.21118,2023,6,12,10,31,23,707
0.01760,3.02750,-4.77750,0.00000,0.01818,0.97271,-0.21082,2023,6,12,10,31,23,718
0.01770,2.92250,-4.48000,0.00000,0.01671,0.97002,-0.21008,2023,6,12,10,31,23,729
0.01780,3.09750,-4.93500,0.00000,0.01720,0.97136,-0.20960,2023,6,12,10,31,23,740
0.01790,2.94000,-4.41000,0.00000,0.01610,0.96929,-0.21082,2023,6,12,10,31,23,751
0.01800,2.92250,-4.70750,0.00000,0.01549,0.97051,-0.21326,2023,6,12,10,31,23,762
0.01810,2.85250,-4.67250,0.00000,0.01647,0.97368,-0.21045,2023,6,12,10,31,23,774
0.01820,2.85250,-4.69000,0.00000,0.01501,0.97197,-0.21143,2023,6,12,10,31,23,785
0.01830,2.99250,-4.60250,0.00000,0.01525,0.97149,-0.21204,2023,6,12,10,31,23,796
0.01840,2.92250,-4.32250,0.00000,0.01757,0.97307,-0.21191,2023,6,12,10,31,23,807
0.01850,2.78250,-4.58500,0.00000,0.01440,0.97100,-0.21155,2023,6,12,10,31,23,818
0.01860,2.88750,-4.67250,0.00000,0.01501,0.96990,-0.21082,2023,6,12,10,31,23,829
0.01870,2.76500,-4.72500,0.00000,0.01757,0.97063,-0.21216,2023,6,12,10,31,23,840
0.01880,2.94000,-4.81250,0.00000,0.01720,0.97088,-0.21228,2023,6,12,10,31,23,851
0.01890,2.90500,-4.63750,0.00000,0.01562,0.97478,-0.21374,2023,6,12,10,31,23,862
0.01900,2.85250,-4.58500,0.00000,0.01598,0.97210,-0.21130,2023,6,12,10,31,23,874
0.01910,2.83500,-4.72500,0.00000,0.01488,0.97014,-0.21118,2023,6,12,10,31,23,885
0.01920,2.81750,-4.74250,0.00000,0.01684,0.97149,-0.21277,2023,6,12,10,31,23,896
0.01930,2.88750,-4.55000,0.00000,0.01647,0.96966,-0.20972,2023,6,12,10,31,23,907
0.01940,2.78250,-4.70750,0.00000,0.01623,0.97161,-0.21204,2023,6,12,10,31,23,918
0.01950,3.04500,-4.62000,0.00000,0.01635,0.96978,-0.21301,2023,6,12,10,31,23,929
0.01960,3.02750,-4.55000,0.00000,0.01598,0.97271,-0.21265,2023,6,12,10,31,23,940
0.01970,2.81750,-4.34000,0.00000,0.01562,0.97222,-0.21106,2023,6,12,10,31,23,951
0.01980,3.01000,-4.65500,0.00000,0.01696,0.97271,-0.21191,2023,6,12,10,31,23,962
0.01990,3.09750,-4.58500,0.00000,0.01574,0.97075,-0.21045,2023,6,12,10,31,24,4
0.02000,2.90500,-4.65500,0.00000,0.01549,0.97295,-0.21252,2023,6,12,10,31,24,15
0.02010,2.87000,-4.53250,0.00000,0.01659,0.97002,-0.21057,2023,6,12,10,31,24,26
0.02020,3.01000,-4.69000,0.00000,0.01903,0.97185,-0.21167,2023,6,12,10,31,24,37
0.02030,2.94000,-4.56750,0.00000,0.01818,0.96978,-0.21301,2023,6,12,10,31,24,48
0.02040,2.92250,-4.41000,0.00000,0.01452,0.97124,-0.21167,2023,6,12,10,31,24,59
0.02050,2.74750,-4.56750,0.00000,0.01562,0.97344,-0.21240,2023,6,12,10,31,24,70
0.02060,3.02750,-4.60250,0.00000,0.01647,0.97136,-0.21228,2023,6,12,10,31,24,81
0.02070,2.85250,-4.55000,0.00000,0.01574,0.97210,-0.20935,2023,6,12,10,31,24,92
0.02080,2.83500,-4.69000,0.00000,0.01452,0.97210,-0.21045,2023,6,12,10,31,24,104
0.02090,2.87000,-4.48000,0.00000,0.01586,0.97112,-0.21265,2023,6,12,10,31,24,115
0.02100,3.06250,-4.53250,0.00000,0.01586,0.97161,-0.21423,2023,6,12,10,31,24,126
0.02110,2.74750,-4.62000,0.00000,0.01598,0.96990,-0.21143,2023,6,12,10,31,24,137
0.02120,2.92250,-4.58500,0.00000,0.01684,0.97173,-0.21289,2023,6,12,10,31,24,148
0.02130,3.06250,-4.60250,0.00000,0.01330,0.97185,-0.21106,2023,6,12,10,31,24,159
0.02140,3.04500,-4.44500,0.00000,0.01525,0.97258,-0.21082,2023,6,12,10,31,24,170
0.02150,2.99250,-4.62000,0.00000,0.01537,0.97112,-0.21362,2023,6,12,10,31,24,181
0.02160,2.95750,-4.81250,0.00000,0.01623,0.97014,-0.21204,2023,6,12,10,31,24,192
0.02170,2.80000,-4.55000,0.00000,0.01513,0.97039,-0.21289,2023,6,12,10,31,24,204
0.02180,2.88750,-4.76000,0.00000,0.01354,0.97332,-0.21021,2023,6,12,10,31,24,215
0.02190,2.81750,-4.56750,0.00000,0.01501,0.97258,-0.20996,2023,6,12,10,31,24,226
0.02200,3.02750,-4.72500,0.00000,0.01610,0.97063,-0.21033,2023,6,12,10,31,24,237
0.02210,2.74750,-4.53250,0.00000,0.01732,0.97039,-0.21216,2023,6,12,10,31,24,248
0.02220,2.97500,-4.67250,0.00000,0.01647,0.96966,-0.21204,2023,6,12,10,31,24,259
0.02230,2.85250,-4.49750,0.00000,0.01549,0.97027,-0.21204,2023,6,12,10,31,24,270
0.02240,2.97500,-4.49750,0.00000,0.01488,0.97283,-0.21313,2023,6,12,10,31,24,281
0.02250,2.97500,-4.49750,0.00000,0.01525,0.97234,-0.21143,2023,6,12,10,31,24,292
0.02260,2.99250,-4.60250,0.00000,0.01513,0.97197,-0.21240,2023,6,12,10,31,24,304
0.02270,3.01000,-4.37500,0.00000,0.01671,0.97356,-0.21252,2023,6,12,10,31,24,315
0.02280,3.04500,-4.72500,0.00000,0.01476,0.97088,-0.21496,2023,6,12,10,31,24,326
0.02290,3.02750,-4.69000,0.00000,0.01745,0.97075,-0.21570,2023,6,12,10,31,24,337
0.02300,2.92250,-4.72500,0.00000,0.01720,0.97088,-0.21509,2023,6,12,10,31,24,348
0.02310,3.04500,-4.81250,0.00000,0.01488,0.96990,-0.21387,2023,6,12,10,31,24,359
0.02320,3.18500,-4.65500,0.00000,0.01574,0.97246,-0.21484,2023,6,12,10,31,24,370
0.02330,2.73000,-4.48000,0.00000,0.01671,0.97039,-0.21362,2023,6,12,10,31,24,381
0.02340,2.92250,-4.35750,0.00000,0.01720,0.97124,-0.21204,2023,6,12,10,31,24,392
0.02350,2.81750,-4.58500,0.00000,0.01452,0.97063,-0.21350,2023,6,12,10,31,24,404
0.02360,2.97500,-4.79500,0.00000,0.01623,0.97368,-0.21350,2023,6,12,10,31,24,415
0.02370,2.81750,-4.55000,0.00000,0.01586,0.97173,-0.21570,2023,6,12,10,31,24,426
0.02380,2.88750,-4.44500,0.00000,0.01879,0.97319,-0.21289,2023,6,12,10,31,24,437
0.02390,2.83500,-4.49750,0.00000,0.01757,0.97344,-0.21435,2023,6,12,10,31,24,448
0.02400,3.15000,-4.51500,0.00000,0.01793,0.97234,-0.21521,2023,6,12,10,31,24,459
0.02410,2.95750,-4.55000,0.00000,0.01659,0.97161,-0.21167,2023,6,12,10,31,24,470
0.02420,2.71250,-4.49750,0.00000,0.01610,0.97027,-0.21240,2023,6,12,10,31,24,481
0.02430,2.81750,-4.44500,0.00000,0.01549,0.97258,-0.21240,2023,6,12,10,31,24,492
0.02440,2.94000,-4.77750,0.00000,0.01671,0.97234,-0.21350,2023,6,12,10,31,24,504
0.02450,3.04500,-4.72500,0.00000,0.01647,0.97136,-0.21362,2023,6,12,10,31,24,515
0.02460,2.94000,-4.67250,0.00000,0.01745,0.97136,-0.21228,2023,6,12,10,31,24,526
0.02470,2.97500,-4.44500,0.00000,0.01720,0.97161,-0.21362,2023,6,12,10,31,24,537
0.02480,2.94000,-4.58500,0.00000,0.01403,0.97344,-0.21362,2023,6,12,10,31,24,548
0.02490,2.88750,-4.83000,0.00000,0.01818,0.97246,-0.21326,2023,6,12,10,31,24,559
0.02500,2.81750,-4.70750,0.00000,0.01403,0.97380,-0.21252,2023,6,12,10,31,24,570
0.02510,2.94000,-4.58500,0.00000,0.01562,0.97014,-0.21277,2023,6,12,10,31,24,581
0.02520,2.95750,-4.37500,0.00000,0.01793,0.97344,-0.21143,2023,6,12,10,31,24,592
0.02530,2.78250,-4.39250,0.00000,0.01464,0.97136,-0.21362,2023,6,12,10,31,24,604
0.02540,2.83500,-4.53250,0.00000,0.01732,0.97027,-0.21216,2023,6,12,10,31,24,615
0.02550,3.02750,-4.79500,0.00000,0.01635,0.97063,-0.21326,2023,6,12,10,31,24,626
0.02560,3.16750,-4.55000,0.00000,0.01623,0.97210,-0.21594,2023,6,12,10,31,24,637
0.02570,2.85250,-4.55000,0.00000,0.01379,0.97051,-0.21204,2023,6,12,10,31,24,648
0.02580,2.95750,-4.76000,0.00000,0.01476,0.97429,-0.21362,2023,6,12,10,31,24,659
0.02590,3.02750,-4.67250,0.00000,0.01635,0.96905,-0.21228,2023,6,12,10,31,24,670
0.02600,2.74750,-4.86500,0.00000,0.01757,0.97185,-0.21448,2023,6,12,10,31,24,681
0.02610,3.06250,-4.70750,0.00000,0.01745,0.97039,-0.21484,2023,6,12,10,31,24,692
0.02620,3.11500,-4.60250,0.00000,0.01696,0.97136,-0.21265,2023,6,12,10,31,24,704
0.02630,2.87000,-4.49750,0.00000,0.01671,0.97210,-0.21448,2023,6,12,10,31,24,715
0.02640,2.97500,-4.49750,0.00000,0.01623,0.96905,-0.21496,2023,6,12,10,31,24,726
0.02650,3.04500,-4.74250,0.00000,0.01708,0.97258,-0.21362,2023,6,12,10,31,24,737
0.02660,2.95750,-4.49750,0.00000,0.01757,0.97063,-0.21277,2023,6,12,10,31,24,748
0.02670,2.90500,-4.39250,0.00000,0.01464,0.97222,-0.21521,2023,6,12,10,31,24,759
0.02680,2.94000,-4.65500,0.00000,0.01610,0.96856,-0.21423,2023,6,12,10,31,24,770
0.02690,2.76500,-4.55000,0.00000,0.01623,0.97283,-0.21472,2023,6,12,10,31,24,781
0.02700,2.78250,-4.67250,0.00000,0.01745,0.97149,-0.21374,2023,6,12,10,31,24,792
0.02710,2.99250,-4.56750,0.00000,0.01659,0.97173,-0.21338,2023,6,12,10,31,24,804
0.02720,2.69500,-4.70750,0.00000,0.01513,0.97234,-0.21399,2023,6,12,10,31,24,815
0.02730,2.76500,-4.56750,0.00000,0.01671,0.97185,-0.21338,2023,6,12,10,31,24,826
0.02740,2.99250,-4.63750,0.00000,0.01635,0.97051,-0.21057,2023,6,12,10,31,24,837
0.02750,3.11500,-4.53250,0.00000,0.01586,0.97210,-0.21204,2023,6,12,10,31,24,848
0.02760,2.81750,-4.28750,0.00000,0.01623,0.97222,-0.21155,2023,6,12,10,31,24,859
0.02770,2.97500,-4.35750,0.00000,0.01549,0.97173,-0.21069,2023,6,12,10,31,24,870
0.02780,2.92250,-4.70750,0.00000,0.01598,0.97063,-0.21496,2023,6,12,10,31,24,881
0.02790,2.88750,-4.58500,0.00000,0.01610,0.97136,-0.21399,2023,6,12,10,31,24,892
0.02800,2.94000,-4.65500,0.00000,0.01647,0.97246,-0.21228,2023,6,12,10,31,24,904
0.02810,2.85250,-4.56750,0.00000,0.01342,0.97039,-0.21350,2023,6,12,10,31,24,915
0.02820,2.76500,-4.49750,0.00000,0.01513,0.97185,-0.21277,2023,6,12,10,31,24,926
0.02830,2.92250,-4.69000,0.00000,0.01293,0.97075,-0.21350,2023,6,12,10,31,24,937
0.02840,2.94000,-4.55000,0.00000,0.01720,0.97234,-0.21143,2023,6,12,10,31,24,948
0.02850,2.74750,-4.58500,0.00000,0.01549,0.97149,-0.21313,2023,6,12,10,31,24,959
0.02860,3.06250,-4.72500,0.00000,0.01720,0.97063,-0.21252,2023,6,12,10,31,24,970
0.02870,2.76500,-4.69000,0.00000,0.01757,0.97088,-0.21265,2023,6,12,10,31,25,1
0.02880,2.80000,-4.67250,0.00000,0.01696,0.97271,-0.21130,2023,6,12,10,31,25,12
0.02890,2.97500,-4.56750,0.00000,0.01598,0.97124,-0.21204,2023,6,12,10,31,25,24
0.02900,3.11500,-4.67250,0.00000,0.01684,0.96978,-0.21399,2023,6,12,10,31,25,35
0.02910,2.94000,-4.81250,0.00000,0.01647,0.97307,-0.21265,2023,6,12,10,31,25,46
0.02920,3.06250,-4.48000,0.00000,0.01635,0.97088,-0.21265,2023,6,12,10,31,25,57
0.02930,2.85250,-4.60250,0.00000,0.01403,0.97246,-0.21326,2023,6,12,10,31,25,68
0.02940,2.90500,-4.79500,0.00000,0.01427,0.97234,-0.21496,2023,6,12,10,31,25,79
0.02950,2.94000,-4.62000,0.00000,0.01769,0.97149,-0.21191,2023,6,12,10,31,25,90
0.02960,2.87000,-4.53250,0.00000,0.01720,0.97124,-0.21228,2023,6,12,10,31,25,101
0.02970,2.97500,-4.44500,0.00000,0.01684,0.97271,-0.21350,2023,6,12,10,31,25,112
0.02980,2.92250,-4.53250,0.00000,0.01366,0.97100,-0.21399,2023,6,12,10,31,25,124
0.02990,3.02750,-4.63750,0.00000,0.01574,0.96929,-0.21338,2023,6,12,10,31,25,135
0.03000,2.88750,-4.51500,0.00000,0.01452,0.97039,-0.21167,2023,6,12,10,31,25,146
0.03010,2.83500,-4.86500,0.00000,0.01635,0.96917,-0.21313,2023,6,12,10,31,25,157
0.03020,3.08000,-4.51500,0.00000,0.01598,0.97124,-0.21301,2023,6,12,10,31,25,168
0.03030,2.90500,-4.60250,0.00000,0.01684,0.96966,-0.21509,2023,6,12,10,31,25,179
0.03040,2.97500,-4.49750,0.00000,0.01647,0.96990,-0.21179,2023,6,12,10,31,25,190
0.03050,2.97500,-4.69000,0.00000,0.01708,0.97124,-0.21301,2023,6,12,10,31,25,201
0.03060,2.88750,-4.53250,0.00000,0.01440,0.96795,-0.21265,2023,6,12,10,31,25,212
0.03070,2.78250,-4.44500,0.00000,0.01671,0.97307,-0.21350,2023,6,12,10,31,25,224
0.03080,2.83500,-4.41000,0.00000,0.01623,0.97283,-0.21289,2023,6,12,10,31,25,235
0.03090,2.87000,-4.20000,0.00000,0.01635,0.97185,-0.21265,2023,6,12,10,31,25,246
0.03100,2.94000,-4.72500,0.00000,0.01635,0.96844,-0.21191,2023,6,12,10,31,25,257
0.03110,3.06250,-4.76000,0.00000,0.01342,0.97100,-0.21374,2023,6,12,10,31,25,268
0.03120,2.67750,-4.28750,0.00000,0.01562,0.97124,-0.21167,2023,6,12,10,31,25,279
0.03130,3.15000,-4.81250,0.00000,0.01415,0.97161,-0.21277,2023,6,12,10,31,25,290
0.03140,2.92250,-4.53250,0.00000,0.01635,0.97271,-0.21033,2023,6,12,10,31,25,301
0.03150,2.83500,-4.79500,0.00000,0.01708,0.97136,-0.21106,2023,6,12,10,31,25,312
0.03160,3.11500,-4.76000,0.00000,0.01781,0.97283,-0.21240,2023,6,12,10,31,25,324
0.03170,2.85250,-4.91750,0.00000,0.01525,0.97124,-0.21155,2023,6,12,10,31,25,335
0.03180,3.02750,-4.49750,0.00000,0.01720,0.97173,-0.21313,2023,6,12,10,31,25,346
0.03190,2.83500,-4.56750,0.00000,0.01488,0.97185,-0.21204,2023,6,12,10,31,25,357
0.03200,2.88750,-4.53250,0.00000,0.01610,0.97027,-0.21130,2023,6,12,10,31,25,368
0.03210,2.95750,-4.55000,0.00000,0.01793,0.97136,-0.21167,2023,6,12,10,31,25,379
0.03220,3.01000,-4.58500,0.00000,0.01598,0.97417,-0.21106,2023,6,12,10,31,25,390
0.03230,2.95750,-4.65500,0.00000,0.01915,0.97027,-0.21252,2023,6,12,10,31,25,401
0.03240,3.01000,-4.74250,0.00000,0.01696,0.97039,-0.21130,2023,6,12,10,31,25,412
0.03250,2.94000,-4.42750,0.00000,0.01720,0.97271,-0.21228,2023,6,12,10,31,25,424
0.03260,2.76500,-4.42750,0.00000,0.01696,0.96966,-0.21277,2023,6,12,10,31,25,435
0.03270,2.94000,-4.69000,0.00000,0.01574,0.97185,-0.21155,2023,6,12,10,31,25,446
0.03280,3.08000,-4.58500,0.00000,0.01562,0.97088,-0.21326,2023,6,12,10,31,25,457
0.03290,2.87000,-4.51500,0.00000,0.01635,0.97161,-0.21277,2023,6,12,10,31,25,468
0.03300,2.74750,-4.56750,0.00000,0.01671,0.96953,-0.21167,2023,6,12,10,31,25,479
0.03310,2.87000,-4.53250,0.00000,0.01745,0.97161,-0.21118,2023,6,12,10,31,25,490
0.03320,2.95750,-4.62000,0.00000,0.01769,0.97234,-0.21435,2023,6,12,10,31,25,501
0.03330,2.94000,-4.60250,0.00000,0.01732,0.97039,-0.21423,2023,6,12,10,31,25,512
0.03340,2.87000,-4.48000,0.00000,0.01684,0.97136,-0.21338,2023,6,12,10,31,25,524
0.03350,2.95750,-4.81250,0.00000,0.01537,0.97014,-0.21350,2023,6,12,10,31,25,535
0.03360,2.90500,-4.56750,0.00000,0.01476,0.97356,-0.21374,2023,6,12,10,31,25,546
0.03370,2.97500,-4.58500,0.00000,0.01671,0.97051,-0.21387,2023,6,12,10,31,25,557
0.03380,2.81750,-4.53250,0.00000,0.01684,0.97075,-0.21277,2023,6,12,10,31,25,568
0.03390,2.81750,-4.65500,0.00000,0.01610,0.97149,-0.21252,2023,6,12,10,31,25,579
0.03400,2.90500,-4.63750,0.00000,0.01427,0.97210,-0.21618,2023,6,12,10,31,25,590
0.03410,2.64250,-4.41000,0.00000,0.01598,0.97234,-0.21191,2023,6,12,10,31,25,601
0.03420,2.95750,-4.93500,0.00000,0.01440,0.97051,-0.21191,2023,6,12,10,31,25,612
0.03430,2.81750,-4.60250,0.00000,0.01586,0.97112,-0.21106,2023,6,12,10,31,25,624
0.03440,2.78250,-4.55000,0.00000,0.01696,0.97161,-0.21326,2023,6,12,10,31,25,635
0.03450,2.92250,-4.48000,0.00000,0.01769,0.97210,-0.21240,2023,6,12,10,31,25,646
0.03460,2.95750,-4.62000,0.00000,0.01562,0.97234,-0.21399,2023,6,12,10,31,25,657
0.03470,2.80000,-4.77750,0.00000,0.01696,0.97246,-0.21216,2023,6,12,10,31,25,668
0.03480,2.99250,-4.72500,0.00000,0.01549,0.97027,-0.21557,2023,6,12,10,31,25,679
0.03490,2.95750,-4.56750,0.00000,0.01732,0.97136,-0.21277,2023,6,12,10,31,25,690
0.03500,2.83500,-4.46250,0.00000,0.01427,0.97197,-0.21191,2023,6,12,10,31,25,701
0.03510,2.69500,-4.35750,0.00000,0.01562,0.97258,-0.21338,2023,6,12,10,31,25,712
0.03520,2.97500,-4.62000,0.00000,0.01684,0.97173,-0.21338,2023,6,12,10,31,25,724
0.03530,2.99250,-4.56750,0.00000,0.01501,0.97222,-0.21423,2023,6,12,10,31,25,735
0.03540,2.88750,-4.67250,0.00000,0.01598,0.97173,-0.21191,2023,6,12,10,31,25,746
0.03550,2.92250,-4.58500,0.00000,0.01671,0.97136,-0.21374,2023,6,12,10,31,25,757
0.03560,2.97500,-4.65500,0.00000,0.01574,0.97100,-0.21252,2023,6,12,10,31,25,768
0.03570,2.78250,-4.41000,0.00000,0.01671,0.96929,-0.21094,2023,6,12,10,31,25,779
0.03580,2.95750,-4.70750,0.00000,0.01476,0.97149,-0.21338,2023,6,12,10,31,25,790
0.03590,2.81750,-4.62000,0.00000,0.01684,0.97075,-0.21374,2023,6,12,10,31,25,801
0.03600,2.88750,-4.81250,0.00000,0.01781,0.97124,-0.21057,2023,6,12,10,31,25,812
0.03610,3.18500,-4.95250,0.00000,0.01635,0.97051,-0.21155,2023,6,12,10,31,25,824
0.03620,2.88750,-4.56750,0.00000,0.01440,0.97027,-0.21106,2023,6,12,10,31,25,835
0.03630,2.99250,-4.51500,0.00000,0.01537,0.97295,-0.21252,2023,6,12,10,31,25,846
0.03640,3.02750,-4.67250,0.00000,0.01513,0.97368,-0.21265,2023,6,12,10,31,25,857
0.03650,2.92250,-4.42750,0.00000,0.01635,0.97246,-0.21204,2023,6,12,10,31,25,868
0.03660,2.92250,-4.70750,0.00000,0.01562,0.96929,-0.21277,2023,6,12,10,31,25,879
0.03670,3.06250,-4.53250,0.00000,0.01818,0.97210,-0.21374,2023,6,12,10,31,25,890
0.03680,2.97500,-4.44500,0.00000,0.01537,0.96990,-0.21313,2023,6,12,10,31,25,901
0.03690,2.87000,-4.56750,0.00000,0.01574,0.96831,-0.21435,2023,6,12,10,31,25,912
0.03700,3.11500,-4.77750,0.00000,0.01671,0.97161,-0.21399,2023,6,12,10,31,25,924
0.03710,2.87000,-4.41000,0.00000,0.01671,0.96844,-0.21277,2023,6,12,10,31,25,935
0.03720,2.88750,-4.72500,0.00000,0.01513,0.97014,-0.21216,2023,6,12,10,31,25,946
0.03730,2.95750,-4.69000,0.00000,0.01562,0.97100,-0.21472,2023,6,12,10,31,25,957
0.03740,2.60750,-4.27000,0.00000,0.01659,0.96917,-0.21216,2023,6,12,10,31,26,8
0.03750,2.80000,-4.39250,0.00000,0.01647,0.97234,-0.21191,2023,6,12,10,31,26,19
0.03760,2.88750,-4.77750,0.00000,0.01623,0.97136,-0.21448,2023,6,12,10,31,26,30
0.03770,2.92250,-4.62000,0.00000,0.01732,0.97124,-0.21362,2023,6,12,10,31,26,41
0.03780,2.81750,-4.48000,0.00000,0.01610,0.97222,-0.21435,2023,6,12,10,31,26,52
0.03790,2.81750,-4.60250,0.00000,0.01562,0.97039,-0.21631,2023,6,12,10,31,26,64
0.03800,2.95750,-4.48000,0.00000,0.01513,0.97319,-0.21448,2023,6,12,10,31,26,75
0.03810,2.94000,-4.56750,0.00000,0.01562,0.97136,-0.21496,2023,6,12,10,31,26,86
0.03820,2.83500,-4.51500,0.00000,0.01549,0.97344,-0.21265,2023,6,12,10,31,26,97
0.03830,2.88750,-4.37500,0.00000,0.01501,0.97014,-0.21130,2023,6,12,10,31,26,108
0.03840,2.78250,-4.60250,0.00000,0.01427,0.97002,-0.21448,2023,6,12,10,31,26,119
0.03850,2.87000,-4.65500,0.00000,0.01635,0.97295,-0.21130,2023,6,12,10,31,26,130
0.03860,2.92250,-4.76000,0.00000,0.01769,0.97149,-0.21387,2023,6,12,10,31,26,141
0.03870,2.88750,-4.37500,0.00000,0.01598,0.97039,-0.21265,2023,6,12,10,31,26,152
0.03880,2.78250,-4.60250,0.00000,0.01415,0.97161,-0.21411,2023,6,12,10,31,26,164
0.03890,2.99250,-4.81250,0.00000,0.01647,0.97051,-0.21240,2023,6,12,10,31,26,175
0.03900,2.81750,-4.62000,0.00000,0.01769,0.97100,-0.21411,2023,6,12,10,31,26,186
0.03910,3.06250,-4.79500,0.00000,0.01671,0.97258,-0.21374,2023,6,12,10,31,26,197
0.03920,2.87000,-4.65500,0.00000,0.01549,0.97271,-0.21228,2023,6,12,10,31,26,208
0.03930,2.97500,-4.79500,0.00000,0.01549,0.97112,-0.21106,2023,6,12,10,31,26,219
0.03940,2.83500,-4.35750,0.00000,0.01574,0.97027,-0.21362,2023,6,12,10,31,26,230
0.03950,2.92250,-4.49750,0.00000,0.01537,0.97234,-0.21228,2023,6,12,10,31,26,241
0.03960,2.85250,-4.79500,0.00000,0.01415,0.97185,-0.21191,2023,6,12,10,31,26,252
0.03970,3.06250,-4.58500,0.00000,0.01598,0.97112,-0.21362,2023,6,12,10,31,26,264
0.03980,3.02750,-4.56750,0.00000,0.01415,0.97271,-0.21350,2023,6,12,10,31,26,275
0.03990,2.80000,-4.49750,0.00000,0.01415,0.97185,-0.21448,2023,6,12,10,31,26,286
0.04000,2.94000,-4.48000,0.00000,0.01867,0.97307,-0.21448,2023,6,12,10,31,26,297
0.04010,2.76500,-4.83000,0.00000,0.01501,0.97197,-0.21521,2023,6,12,10,31,26,308
0.04020,2.90500,-4.70750,0.00000,0.01452,0.97075,-0.21301,2023,6,12,10,31,26,319
0.04030,2.78250,-4.42750,0.00000,0.01830,0.97271,-0.21277,2023,6,12,10,31,26,330
0.04040,2.69500,-4.51500,0.00000,0.01464,0.97039,-0.21326,2023,6,12,10,31,26,341
0.04050,2.90500,-4.39250,0.00000,0.01647,0.97002,-0.21472,2023,6,12,10,31,26,352
0.04060,2.85250,-4.65500,0.00000,0.01745,0.97063,-0.21155,2023,6,12,10,31,26,364
0.04070,2.60750,-4.53250,0.00000,0.01684,0.97417,-0.21326,2023,6,12,10,31,26,375
0.04080,2.87000,-4.70750,0.00000,0.01476,0.97258,-0.21557,2023,6,12,10,31,26,386
0.04090,2.83500,-4.55000,0.00000,0.01574,0.97063,-0.21240,2023,6,12,10,31,26,397
0.04100,2.94000,-4.51500,0.00000,0.01476,0.97075,-0.21277,2023,6,12,10,31,26,408
0.04110,3.13250,-4.74250,0.00000,0.01574,0.97124,-0.21435,2023,6,12,10,31,26,419
0.04120,2.95750,-4.84750,0.00000,0.01586,0.96892,-0.21265,2023,6,12,10,31,26,430
0.04130,2.83500,-4.44500,0.00000,0.01440,0.97258,-0.21191,2023,6,12,10,31,26,441
0.04140,2.90500,-4.72500,0.00000,0.01562,0.97124,-0.21374,2023,6,12,10,31,26,452
0.04150,2.99250,-4.51500,0.00000,0.01476,0.97234,-0.21191,2023,6,12,10,31,26,464
0.04160,2.85250,-4.67250,0.00000,0.01488,0.97136,-0.21716,2023,6,12,10,31,26,475
0.04170,2.87000,-4.30500,0.00000,0.01366,0.97161,-0.21301,2023,6,12,10,31,26,486
0.04180,2.99250,-4.51500,0.00000,0.01427,0.97112,-0.21496,2023,6,12,10,31,26,497
0.04190,3.09750,-4.72500,0.00000,0.01488,0.97149,-0.21545,2023,6,12,10,31,26,508
0.04200,2.88750,-4.67250,0.00000,0.01915,0.97222,-0.21411,2023,6,12,10,31,26,519
0.04210,2.97500,-4.55000,0.00000,0.01635,0.96966,-0.21411,2023,6,12,10,31,26,530
0.04220,2.95750,-4.51500,0.00000,0.01610,0.97124,-0.21667,2023,6,12,10,31,26,541
0.04230,2.81750,-4.62000,0.00000,0.01501,0.97246,-0.21289,2023,6,12,10,31,26,552
0.04240,2.90500,-4.72500,0.00000,0.01452,0.97173,-0.21326,2023,6,12,10,31,26,564
0.04250,2.85250,-4.62000,0.00000,0.01842,0.97149,-0.21399,2023,6,12,10,31,26,575
0.04260,2.97500,-4.70750,0.00000,0.01598,0.97112,-0.21448,2023,6,12,10,31,26,586
0.04270,2.87000,-4.53250,0.00000,0.01757,0.97332,-0.21326,2023,6,12,10,31,26,597
0.04280,2.71250,-4.55000,0.00000,0.01464,0.97197,-0.21301,2023,6,12,10,31,26,608
0.04290,3.02750,-4.58500,0.00000,0.01745,0.97051,-0.21167,2023,6,12,10,31,26,619
0.04300,2.73000,-4.46250,0.00000,0.01745,0.97161,-0.21399,2023,6,12,10,31,26,630
0.04310,2.88750,-4.60250,0.00000,0.01769,0.97283,-0.21509,2023,6,12,10,31,26,641
0.04320,2.94000,-4.46250,0.00000,0.01671,0.96990,-0.21216,2023,6,12,10,31,26,652
0.04330,2.99250,-4.74250,0.00000,0.01684,0.97246,-0.21387,2023,6,12,10,31,26,664
0.04340,2.76500,-4.49750,0.00000,0.01586,0.97051,-0.21423,2023,6,12,10,31,26,675
0.04350,2.83500,-4.56750,0.00000,0.01647,0.96966,-0.21326,2023,6,12,10,31,26,686
0.04360,2.99250,-4.63750,0.00000,0.01671,0.97210,-0.21313,2023,6,12,10,31,26,697
0.04370,2.81750,-4.53250,0.00000,0.01415,0.96978,-0.21545,2023,6,12,10,31,26,708
0.04380,3.04500,-4.69000,0.00000,0.01379,0.97149,-0.21399,2023,6,12,10,31,26,719
0.04390,2.95750,-4.55000,0.00000,0.01598,0.97149,-0.21082,2023,6,12,10,31,26,730
0.04400,2.97500,-4.39250,0.00000,0.01476,0.96990,-0.21191,2023,6,12,10,31,26,741
0.04410,2.73000,-4.60250,0.00000,0.01610,0.96978,-0.21167,2023,6,12,10,31,26,752
0.04420,2.88750,-4.46250,0.00000,0.01684,0.97307,-0.21350,2023,6,12,10,31,26,764
0.04430,2.78250,-4.62000,0.00000,0.01684,0.97319,-0.21143,2023,6,12,10,31,26,775
0.04440,3.08000,-4.77750,0.00000,0.01635,0.97063,-0.21350,2023,6,12,10,31,26,786
0.04450,2.95750,-4.51500,0.00000,0.01623,0.96929,-0.21204,2023,6,12,10,31,26,797
0.04460,2.87000,-4.39250,0.00000,0.01379,0.97027,-0.21484,2023,6,12,10,31,26,808
0.04470,2.94000,-4.53250,0.00000,0.01647,0.96953,-0.21533,2023,6,12,10,31,26,819
0.04480,2.99250,-4.63750,0.00000,0.01537,0.97173,-0.21265,2023,6,12,10,31,26,830
0.04490,2.76500,-4.58500,0.00000,0.01513,0.97088,-0.21399,2023,6,12,10,31,26,841
0.04500,2.88750,-4.56750,0.00000,0.01562,0.97100,-0.21399,2023,6,12,10,31,26,852
0.04510,2.97500,-4.74250,0.00000,0.01757,0.97063,-0.21216,2023,6,12,10,31,26,864
0.04520,2.80000,-4.62000,0.00000,0.01732,0.97124,-0.21045,2023,6,12,10,31,26,875
0.04530,2.81750,-4.42750,0.00000,0.01610,0.97271,-0.21204,2023,6,12,10,31,26,886
0.04540,2.94000,-4.65500,0.00000,0.01562,0.97075,-0.21179,2023,6,12,10,31,26,897
0.04550,2.88750,-4.30500,0.00000,0.01427,0.97088,-0.21216,2023,6,12,10,31,26,908
0.04560,3.04500,-4.65500,0.00000,0.01452,0.97429,-0.20996,2023,6,12,10,31,26,919
0.04570,2.92250,-4.46250,0.00000,0.01415,0.97161,-0.21326,2023,6,12,10,31,26,930
0.04580,2.78250,-4.65500,0.00000,0.01562,0.97027,-0.21179,2023,6,12,10,31,26,941
0.04590,2.67750,-4.48000,0.00000,0.01793,0.97149,-0.21106,2023,6,12,10,31,26,952
0.04600,3.20250,-4.58500,0.00000,0.01623,0.97246,-0.21118,2023,6,12,10,31,26,964
0.04610,2.99250,-4.62000,0.00000,0.01464,0.97124,-0.21387,2023,6,12,10,31,26,975
0.04620,2.99250,-4.44500,0.00000,0.01684,0.97307,-0.21301,2023,6,12,10,31,27,6
0.04630,3.04500,-4.46250,0.00000,0.01610,0.96929,-0.21435,2023,6,12,10,31,27,17
0.04640,2.74750,-4.63750,0.00000,0.01854,0.97283,-0.21252,2023,6,12,10,31,27,28
0.04650,3.04500,-4.86500,0.00000,0.01623,0.97210,-0.21143,2023,6,12,10,31,27,39
0.04660,3.02750,-4.63750,0.00000,0.01769,0.97014,-0.21435,2023,6,12,10,31,27,50
0.04670,3.08000,-4.53250,0.00000,0.01427,0.97197,-0.21350,2023,6,12,10,31,27,61
0.04680,2.87000,-4.37500,0.00000,0.01488,0.97051,-0.21265,2023,6,12,10,31,27,72
0.04690,3.02750,-4.60250,0.00000,0.01610,0.97197,-0.21350,2023,6,12,10,31,27,84
0.04700,2.73000,-4.56750,0.00000,0.01537,0.97149,-0.21252,2023,6,12,10,31,27,95
0.04710,2.71250,-4.37500,0.00000,0.01696,0.97149,-0.21313,2023,6,12,10,31,27,106
0.04720,2.97500,-4.51500,0.00000,0.01427,0.96929,-0.21374,2023,6,12,10,31,27,117
0.04730,2.88750,-4.49750,0.00000,0.01659,0.97258,-0.21301,2023,6,12,10,31,27,128
0.04740,2.81750,-4.62000,0.00000,0.01513,0.97100,-0.21179,2023,6,12,10,31,27,139
0.04750,2.74750,-4.55000,0.00000,0.01635,0.97173,-0.21338,2023,6,12,10,31,27,150
0.04760,2.99250,-4.55000,0.00000,0.01745,0.97344,-0.20972,2023,6,12,10,31,27,161
0.04770,2.94000,-4.65500,0.00000,0.01318,0.97075,-0.21216,2023,6,12,10,31,27,172
0.04780,2.85250,-4.44500,0.00000,0.01562,0.97088,-0.21435,2023,6,12,10,31,27,184
0.04790,2.81750,-4.76000,0.00000,0.01659,0.97088,-0.21326,2023,6,12,10,31,27,195
0.04800,2.87000,-4.63750,0.00000,0.01610,0.97222,-0.21082,2023,6,12,10,31,27,206
0.04810,2.97500,-4.72500,0.00000,0.01586,0.97063,-0.21289,2023,6,12,10,31,27,217
0.04820,2.90500,-4.55000,0.00000,0.01501,0.97307,-0.21289,2023,6,12,10,31,27,228
0.04830,2.88750,-4.58500,0.00000,0.01671,0.97014,-0.21411,2023,6,12,10,31,27,239
0.04840,3.02750,-4.62000,0.00000,0.01330,0.97149,-0.21045,2023,6,12,10,31,27,250
0.04850,2.83500,-4.49750,0.00000,0.01647,0.97136,-0.21204,2023,6,12,10,31,27,261
0.04860,3.04500,-4.55000,0.00000,0.01574,0.97027,-0.21082,2023,6,12,10,31,27,272
0.04870,2.92250,-4.69000,0.00000,0.01659,0.97185,-0.21313,2023,6,12,10,31,27,284
0.04880,2.80000,-4.44500,0.00000,0.01708,0.97344,-0.21265,2023,6,12,10,31,27,295
0.04890,2.80000,-4.49750,0.00000,0.01745,0.97100,-0.21374,2023,6,12,10,31,27,306
0.04900,2.92250,-4.69000,0.00000,0.01708,0.96978,-0.21313,2023,6,12,10,31,27,317
0.04910,2.90500,-4.49750,0.00000,0.01574,0.96966,-0.21313,2023,6,12,10,31,27,328
0.04920,2.81750,-4.44500,0.00000,0.01684,0.97161,-0.21265,2023,6,12,10,31,27,339
0.04930,3.06250,-4.41000,0.00000,0.01708,0.97246,-0.21301,2023,6,12,10,31,27,350
0.04940,2.94000,-4.58500,0.00000,0.01781,0.97222,-0.21301,2023,6,12,10,31,27,361
0.04950,2.99250,-4.72500,0.00000,0.01708,0.97075,-0.21094,2023,6,12,10,31,27,372
0.04960,2.94000,-4.56750,0.00000,0.01598,0.96941,-0.20984,2023,6,12,10,31,27,384
0.04970,2.97500,-4.55000,0.00000,0.01891,0.97002,-0.21191,2023,6,12,10,31,27,395
0.04980,2.90500,-4.58500,0.00000,0.01671,0.97283,-0.21472,2023,6,12,10,31,27,406
0.04990,2.94000,-4.56750,0.00000,0.01757,0.97100,-0.21191,2023,6,12,10,31,27,417
0.05000,2.85250,-4.63750,0.00000,0.01684,0.97149,-0.21204,2023,6,12,10,31,27,428
0.05010,3.02750,-4.69000,0.00000,0.01598,0.97014,-0.21143,2023,6,12,10,31,27,439
0.05020,2.87000,-4.60250,0.00000,0.01586,0.97222,-0.21374,2023,6,12,10,31,27,450
0.05030,3.01000,-4.67250,0.00000,0.01427,0.97258,-0.21448,2023,6,12,10,31,27,461
0.05040,2.97500,-4.53250,0.00000,0.01708,0.97051,-0.21362,2023,6,12,10,31,27,472
0.05050,3.13250,-4.77750,0.00000,0.01586,0.97063,-0.21399,2023,6,12,10,31,27,484
0.05060,2.87000,-4.48000,0.00000,0.01720,0.97210,-0.21118,2023,6,12,10,31,27,495
0.05070,2.69500,-4.65500,0.00000,0.01671,0.97100,-0.21265,2023,6,12,10,31,27,506
0.05080,3.08000,-4.76000,0.00000,0.01366,0.97136,-0.21094,2023,6,12,10,31,27,517
0.05090,2.99250,-4.55000,0.00000,0.01671,0.97088,-0.21155,2023,6,12,10,31,27,528
0.05100,2.88750,-4.44500,0.00000,0.01598,0.97100,-0.21411,2023,6,12,10,31,27,539
0.05110,2.83500,-4.28750,0.00000,0.01452,0.96990,-0.21289,2023,6,12,10,31,27,550
0.05120,2.78250,-4.53250,0.00000,0.01818,0.97112,-0.21069,2023,6,12,10,31,27,561
0.05130,3.08000,-4.67250,0.00000,0.01635,0.97112,-0.21143,2023,6,12,10,31,27,572
0.05140,2.90500,-4.67250,0.00000,0.01525,0.97197,-0.21350,2023,6,12,10,31,27,584
0.05150,2.88750,-4.67250,0.00000,0.01464,0.97002,-0.21045,2023,6,12,10,31,27,595
0.05160,2.83500,-4.60250,0.00000,0.01354,0.97161,-0.21265,2023,6,12,10,31,27,606
0.05170,2.95750,-4.60250,0.00000,0.01501,0.97088,-0.21106,2023,6,12,10,31,27,617
0.05180,2.99250,-4.41000,0.00000,0.01915,0.97210,-0.21216,2023,6,12,10,31,27,628
0.05190,3.01000,-4.63750,0.00000,0.01818,0.97051,-0.21399,2023,6,12,10,31,27,639
0.05200,3.06250,-4.81250,0.00000,0.01684,0.96941,-0.21057,2023,6,12,10,31,27,650
0.05210,2.88750,-4.83000,0.00000,0.01659,0.97271,-0.21167,2023,6,12,10,31,27,661
0.05220,3.18500,-4.58500,0.00000,0.01476,0.97149,-0.21130,2023,6,12,10,31,27,672
0.05230,2.80000,-4.48000,0.00000,0.01366,0.97112,-0.20947,2023,6,12,10,31,27,684
0.05240,2.92250,-4.53250,0.00000,0.01513,0.97100,-0.21179,2023,6,12,10,31,27,695
0.05250,2.97500,-4.39250,0.00000,0.01525,0.97100,-0.21106,2023,6,12,10,31,27,706
0.05260,2.97500,-4.74250,0.00000,0.01635,0.97112,-0.21155,2023,6,12,10,31,27,717
0.05270,2.92250,-4.58500,0.00000,0.01830,0.96990,-0.21277,2023,6,12,10,31,27,728
0.05280,2.95750,-4.60250,0.00000,0.01659,0.97222,-0.21216,2023,6,12,10,31,27,739
0.05290,2.94000,-4.53250,0.00000,0.01476,0.97307,-0.21143,2023,6,12,10,31,27,750
0.05300,2.83500,-4.55000,0.00000,0.01574,0.97307,-0.21167,2023,6,12,10,31,27,761
0.05310,3.02750,-4.70750,0.00000,0.01574,0.97368,-0.20947,2023,6,12,10,31,27,772
0.05320,2.90500,-4.76000,0.00000,0.01488,0.97112,-0.21301,2023,6,12,10,31,27,784
0.05330,2.62500,-4.46250,0.00000,0.01610,0.97319,-0.21143,2023,6,12,10,31,27,795
0.05340,2.90500,-4.48000,0.00000,0.01915,0.97185,-0.21216,2023,6,12,10,31,27,806
0.05350,2.87000,-4.65500,0.00000,0.01793,0.97173,-0.21179,2023,6,12,10,31,27,817
0.05360,3.01000,-4.56750,0.00000,0.01525,0.97161,-0.21277,2023,6,12,10,31,27,828
0.05370,2.94000,-4.53250,0.00000,0.01598,0.96966,-0.20960,2023,6,12,10,31,27,839
0.05380,2.95750,-4.27000,0.00000,0.01464,0.97039,-0.21155,2023,6,12,10,31,27,850
0.05390,2.78250,-4.51500,0.00000,0.01647,0.97063,-0.21338,2023,6,12,10,31,27,861
0.05400,3.16750,-4.63750,0.00000,0.01598,0.97161,-0.21106,2023,6,12,10,31,27,872
0.05410,2.80000,-4.49750,0.00000,0.01659,0.97075,-0.21350,2023,6,12,10,31,27,884
0.05420,2.83500,-4.67250,0.00000,0.01854,0.97185,-0.20935,2023,6,12,10,31,27,895
0.05430,3.06250,-4.72500,0.00000,0.01635,0.97393,-0.21594,2023,6,12,10,31,27,906
0.05440,2.90500,-4.60250,0.00000,0.01379,0.97027,-0.21021,2023,6,12,10,31,27,917
0.05450,2.76500,-4.35750,0.00000,0.01610,0.97258,-0.20740,2023,6,12,10,31,27,928
0.05460,3.20250,-4.65500,0.00000,0.01562,0.97088,-0.21069,2023,6,12,10,31,27,939
0.05470,2.99250,-4.51500,0.00000,0.01732,0.97222,-0.21155,2023,6,12,10,31,27,950
0.05480,2.88750,-4.55000,0.00000,0.01769,0.97185,-0.21252,2023,6,12,10,31,27,961
0.05490,2.85250,-4.49750,0.00000,0.01610,0.97124,-0.20838,2023,6,12,10,31,27,972
0.05500,2.76500,-4.56750,0.00000,0.01623,0.97039,-0.20703,2023,6,12,10,31,28,4
0.05510,2.94000,-4.51500,0.00000,0.01818,0.97185,-0.20947,2023,6,12,10,31,28,15
0.05520,2.99250,-4.60250,0.00000,0.01525,0.97210,-0.20874,2023,6,12,10,31,28,26
0.05530,2.97500,-4.51500,0.00000,0.01464,0.96966,-0.21289,2023,6,12,10,31,28,37
0.05540,2.90500,-4.81250,0.00000,0.01684,0.97173,-0.21167,2023,6,12,10,31,28,48
0.05550,2.88750,-4.53250,0.00000,0.01732,0.97185,-0.21021,2023,6,12,10,31,28,59
0.05560,3.11500,-4.48000,0.00000,0.01586,0.97088,-0.20923,2023,6,12,10,31,28,70
0.05570,3.18500,-4.69000,0.00000,0.01623,0.97210,-0.21179,2023,6,12,10,31,28,81
0.05580,2.69500,-4.65500,0.00000,0.01464,0.97149,-0.21155,2023,6,12,10,31,28,92
0.05590,2.74750,-4.49750,0.00000,0.01562,0.97271,-0.20777,2023,6,12,10,31,28,104
0.05600,2.99250,-4.48000,0.00000,0.01574,0.97368,-0.20984,2023,6,12,10,31,28,115
0.05610,3.15000,-4.65500,0.00000,0.01818,0.96953,-0.21289,2023,6,12,10,31,28,126
0.05620,3.15000,-4.70750,0.00000,0.01745,0.97124,-0.21435,2023,6,12,10,31,28,137
0.05630,3.02750,-4.44500,0.00000,0.01452,0.96917,-0.21008,2023,6,12,10,31,28,148
0.05640,2.92250,-4.41000,0.00000,0.01610,0.97149,-0.20996,2023,6,12,10,31,28,159
0.05650,2.80000,-4.30500,0.00000,0.01501,0.97136,-0.21277,2023,6,12,10,31,28,170
0.05660,3.08000,-4.39250,0.00000,0.01684,0.97161,-0.21069,2023,6,12,10,31,28,181
0.05670,3.18500,-4.41000,0.00000,0.01635,0.96953,-0.21460,2023,6,12,10,31,28,192
0.05680,3.11500,-4.74250,0.00000,0.01354,0.97002,-0.21082,2023,6,12,10,31,28,204
0.05690,2.83500,-4.74250,0.00000,0.01623,0.97136,-0.21191,2023,6,12,10,31,28,215
0.05700,3.09750,-4.58500,0.00000,0.01562,0.97234,-0.21057,2023,6,12,10,31,28,226
0.05710,3.08000,-4.70750,0.00000,0.01818,0.97185,-0.21008,2023,6,12,10,31,28,237
0.05720,2.97500,-4.56750,0.00000,0.01769,0.97063,-0.21204,2023,6,12,10,31,28,248
0.05730,3.04500,-4.65500,0.00000,0.01745,0.97173,-0.21130,2023,6,12,10,31,28,259
0.05740,3.09750,-4.55000,0.00000,0.01513,0.96990,-0.21435,2023,6,12,10,31,28,270
0.05750,2.99250,-4.55000,0.00000,0.01757,0.97173,-0.20996,2023,6,12,10,31,28,281
0.05760,2.99250,-4.53250,0.00000,0.01671,0.97075,-0.21021,2023,6,12,10,31,28,292
0.05770,2.92250,-4.49750,0.00000,0.01549,0.97027,-0.20984,2023,6,12,10,31,28,304
0.05780,2.81750,-4.63750,0.00000,0.01903,0.97173,-0.21252,2023,6,12,10,31,28,315
0.05790,2.88750,-4.48000,0.00000,0.01537,0.97210,-0.21094,2023,6,12,10,31,28,326
0.05800,2.95750,-4.72500,0.00000,0.01720,0.96966,-0.21106,2023,6,12,10,31,28,337
0.05810,3.16750,-4.70750,0.00000,0.01598,0.97161,-0.21094,2023,6,12,10,31,28,348
0.05820,2.97500,-4.69000,0.00000,0.01574,0.97307,-0.21204,2023,6,12,10,31,28,359
0.05830,2.87000,-4.63750,0.00000,0.01501,0.97197,-0.21179,2023,6,12,10,31,28,370
0.05840,3.09750,-4.77750,0.00000,0.01671,0.97173,-0.21204,2023,6,12,10,31,28,381
0.05850,3.01000,-4.65500,0.00000,0.01720,0.97185,-0.21191,2023,6,12,10,31,28,392
0.05860,3.09750,-4.58500,0.00000,0.01623,0.97002,-0.21094,2023,6,12,10,31,28,404
0.05870,2.94000,-4.76000,0.00000,0.01464,0.97027,-0.21033,2023,6,12,10,31,28,415
0.05880,2.97500,-4.60250,0.00000,0.01793,0.97136,-0.21045,2023,6,12,10,31,28,426
0.05890,2.99250,-4.65500,0.00000,0.01562,0.97088,-0.21301,2023,6,12,10,31,28,437
0.05900,2.95750,-4.67250,0.00000,0.01549,0.96990,-0.21057,2023,6,12,10,31,28,448
0.05910,2.95750,-4.70750,0.00000,0.01574,0.97124,-0.21155,2023,6,12,10,31,28,459
0.05920,2.88750,-4.79500,0.00000,0.01659,0.97124,-0.21021,2023,6,12,10,31,28,470
0.05930,2.90500,-4.46250,0.00000,0.01586,0.97063,-0.20996,2023,6,12,10,31,28,481
0.05940,2.87000,-4.51500,0.00000,0.01574,0.97417,-0.21216,2023,6,12,10,31,28,492
0.05950,2.85250,-4.49750,0.00000,0.01757,0.96892,-0.20764,2023,6,12,10,31,28,504
0.05960,2.67750,-4.62000,0.00000,0.01757,0.97210,-0.21057,2023,6,12,10,31,28,515
0.05970,2.92250,-4.81250,0.00000,0.01318,0.97100,-0.21057,2023,6,12,10,31,28,526
0.05980,2.87000,-4.63750,0.00000,0.01562,0.97039,-0.21118,2023,6,12,10,31,28,537
0.05990,2.74750,-4.62000,0.00000,0.01427,0.97149,-0.21252,2023,6,12,10,31,28,548
0.06000,2.83500,-4.49750,0.00000,0.01647,0.97051,-0.20960,2023,6,12,10,31,28,559
0.06010,2.92250,-4.56750,0.00000,0.01501,0.97295,-0.20947,2023,6,12,10,31,28,570
0.06020,2.94000,-4.63750,0.00000,0.01403,0.97234,-0.21033,2023,6,12,10,31,28,581
0.06030,2.99250,-4.55000,0.00000,0.01635,0.97405,-0.20911,2023,6,12,10,31,28,592
0.06040,2.78250,-4.70750,0.00000,0.01574,0.97319,-0.21155,2023,6,12,10,31,28,604
0.06050,2.95750,-4.63750,0.00000,0.01452,0.97368,-0.21191,2023,6,12,10,31,28,615
0.06060,2.92250,-4.55000,0.00000,0.01525,0.97063,-0.21252,2023,6,12,10,31,28,626
0.06070,3.01000,-4.62000,0.00000,0.01574,0.97222,-0.20984,2023,6,12,10,31,28,637
0.06080,2.87000,-4.79500,0.00000,0.01574,0.97149,-0.21082,2023,6,12,10,31,28,648
0.06090,2.85250,-4.72500,0.00000,0.01427,0.96966,-0.21045,2023,6,12,10,31,28,659
0.06100,3.01000,-4.56750,0.00000,0.01452,0.97405,-0.20923,2023,6,12,10,31,28,670
0.06110,2.97500,-4.83000,0.00000,0.01696,0.97112,-0.21155,2023,6,12,10,31,28,681
0.06120,2.97500,-4.62000,0.00000,0.01488,0.97161,-0.21033,2023,6,12,10,31,28,692
0.06130,2.97500,-4.49750,0.00000,0.01586,0.97088,-0.21033,2023,6,12,10,31,28,704
0.06140,3.06250,-4.53250,0.00000,0.01623,0.97210,-0.20972,2023,6,12,10,31,28,715
0.06150,2.85250,-4.53250,0.00000,0.01525,0.97027,-0.21082,2023,6,12,10,31,28,726
0.06160,3.04500,-4.46250,0.00000,0.01745,0.97136,-0.21021,2023,6,12,10,31,28,737
0.06170,2.81750,-4.74250,0.00000,0.01610,0.97258,-0.21057,2023,6,12,10,31,28,748
0.06180,2.85250,-4.65500,0.00000,0.01684,0.97161,-0.21008,2023,6,12,10,31,28,759
0.06190,2.95750,-4.58500,0.00000,0.01562,0.97136,-0.20923,2023,6,12,10,31,28,770
0.06200,2.99250,-4.56750,0.00000,0.01659,0.97124,-0.21045,2023,6,12,10,31,28,781
0.06210,2.92250,-4.18250,0.00000,0.01671,0.97136,-0.20960,2023,6,12,10,31,28,792
0.06220,2.81750,-4.74250,0.00000,0.01452,0.97234,-0.21143,2023,6,12,10,31,28,804
0.06230,2.78250,-4.67250,0.00000,0.01476,0.97136,-0.21167,2023,6,12,10,31,28,815
0.06240,2.73000,-4.60250,0.00000,0.01452,0.97307,-0.21057,2023,6,12,10,31,28,826
0.06250,2.92250,-4.39250,0.00000,0.01671,0.97222,-0.21057,2023,6,12,10,31,28,837
0.06260,2.87000,-4.49750,0.00000,0.01732,0.97161,-0.20984,2023,6,12,10,31,28,848
0.06270,3.08000,-4.72500,0.00000,0.01745,0.97014,-0.21143,2023,6,12,10,31,28,859
0.06280,3.02750,-4.63750,0.00000,0.01696,0.97136,-0.21509,2023,6,12,10,31,28,870
0.06290,2.97500,-4.63750,0.00000,0.01476,0.97283,-0.21216,2023,6,12,10,31,28,881
0.06300,2.99250,-4.65500,0.00000,0.01403,0.97319,-0.21216,2023,6,12,10,31,28,892
0.06310,2.83500,-4.81250,0.00000,0.01574,0.97149,-0.21118,2023,6,12,10,31,28,904
0.06320,2.92250,-4.53250,0.00000,0.01549,0.97295,-0.21045,2023,6,12,10,31,28,915
0.06330,2.85250,-4.39250,0.00000,0.01659,0.97149,-0.20984,2023,6,12,10,31,28,926
0.06340,2.74750,-4.74250,0.00000,0.01818,0.97088,-0.21106,2023,6,12,10,31,28,937
0.06350,2.81750,-4.42750,0.00000,0.01659,0.97075,-0.21130,2023,6,12,10,31,28,948
0.06360,2.87000,-4.69000,0.00000,0.01720,0.97161,-0.21338,2023,6,12,10,31,28,959
0.06370,2.88750,-4.67250,0.00000,0.01806,0.97393,-0.21460,2023,6,12,10,31,29,0
0.06380,2.87000,-4.58500,0.00000,0.01549,0.97051,-0.21240,2023,6,12,10,31,29,11
0.06390,2.78250,-4.62000,0.00000,0.01366,0.97149,-0.21313,2023,6,12,10,31,29,22
0.06400,2.83500,-4.41000,0.00000,0.01757,0.97185,-0.21179,2023,6,12,10,31,29,34
0.06410,3.09750,-4.53250,0.00000,0.01586,0.97173,-0.21277,2023,6,12,10,31,29,45
0.06420,3.01000,-4.65500,0.00000,0.01537,0.97319,-0.20947,2023,6,12,10,31,29,56
0.06430,2.92250,-4.76000,0.00000,0.01732,0.97112,-0.21143,2023,6,12,10,31,29,67
0.06440,3.04500,-4.49750,0.00000,0.01598,0.97051,-0.21204,2023,6,12,10,31,29,78
0.06450,2.92250,-4.62000,0.00000,0.01659,0.97344,-0.21265,2023,6,12,10,31,29,89
0.06460,2.76500,-4.51500,0.00000,0.01476,0.97088,-0.20911,2023,6,12,10,31,29,100
0.06470,3.11500,-4.58500,0.00000,0.01562,0.97124,-0.20862,2023,6,12,10,31,29,111
0.06480,3.13250,-4.81250,0.00000,0.01501,0.97258,-0.20972,2023,6,12,10,31,29,122
0.06490,2.95750,-4.46250,0.00000,0.01684,0.97136,-0.20972,2023,6,12,10,31,29,134
0.06500,2.94000,-4.63750,0.00000,0.01720,0.97051,-0.21008,2023,6,12,10,31,29,145
0.06510,2.87000,-4.53250,0.00000,0.01647,0.97088,-0.21008,2023,6,12,10,31,29,156
0.06520,3.08000,-4.55000,0.00000,0.01757,0.97051,-0.21021,2023,6,12,10,31,29,167
0.06530,2.85250,-4.63750,0.00000,0.01720,0.97112,-0.21143,2023,6,12,10,31,29,178
0.06540,2.90500,-4.79500,0.00000,0.01501,0.97063,-0.20850,2023,6,12,10,31,29,189
0.06550,3.04500,-4.48000,0.00000,0.01452,0.96941,-0.21094,2023,6,12,10,31,29,200
0.06560,2.97500,-4.74250,0.00000,0.01647,0.97319,-0.21118,2023,6,12,10,31,29,211
0.06570,3.06250,-4.49750,0.00000,0.01830,0.97161,-0.21008,2023,6,12,10,31,29,222
0.06580,2.94000,-4.65500,0.00000,0.01586,0.97344,-0.20764,2023,6,12,10,31,29,234
0.06590,2.92250,-4.25250,0.00000,0.01708,0.97100,-0.20972,2023,6,12,10,31,29,245
0.06600,2.95750,-4.93500,0.00000,0.01745,0.97002,-0.21045,2023,6,12,10,31,29,256
0.06610,2.99250,-4.46250,0.00000,0.01476,0.97319,-0.20935,2023,6,12,10,31,29,267
0.06620,2.94000,-4.67250,0.00000,0.01513,0.97088,-0.20972,2023,6,12,10,31,29,278
0.06630,2.90500,-4.56750,0.00000,0.01732,0.97356,-0.20972,2023,6,12,10,31,29,289
0.06640,2.81750,-4.55000,0.00000,0.01635,0.97173,-0.21118,2023,6,12,10,31,29,300
0.06650,2.85250,-4.60250,0.00000,0.01501,0.97222,-0.21118,2023,6,12,10,31,29,311
0.06660,2.92250,-4.41000,0.00000,0.01867,0.97039,-0.21191,2023,6,12,10,31,29,322
0.06670,2.80000,-4.49750,0.00000,0.01610,0.97124,-0.20972,2023,6,12,10,31,29,334
0.06680,2.78250,-4.32250,0.00000,0.01586,0.97088,-0.21216,2023,6,12,10,31,29,345
0.06690,2.94000,-4.67250,0.00000,0.01476,0.97234,-0.21155,2023,6,12,10,31,29,356
0.06700,2.69500,-4.48000,0.00000,0.01732,0.97075,-0.21167,2023,6,12,10,31,29,367
0.06710,2.99250,-4.62000,0.00000,0.01671,0.97417,-0.20801,2023,6,12,10,31,29,378
0.06720,2.85250,-4.48000,0.00000,0.01745,0.97014,-0.20850,2023,6,12,10,31,29,389
0.06730,2.83500,-4.60250,0.00000,0.01647,0.97246,-0.20972,2023,6,12,10,31,29,400
0.06740,2.90500,-4.55000,0.00000,0.01623,0.97417,-0.20935,2023,6,12,10,31,29,411
0.06750,2.99250,-4.65500,0.00000,0.01635,0.97258,-0.21094,2023,6,12,10,31,29,422
0.06760,2.78250,-4.56750,0.00000,0.01647,0.96783,-0.20899,2023,6,12,10,31,29,434
0.06770,2.92250,-4.56750,0.00000,0.01403,0.97197,-0.20947,2023,6,12,10,31,29,445
0.06780,2.94000,-4.48000,0.00000,0.01403,0.97319,-0.20728,2023,6,12,10,31,29,456
0.06790,3.06250,-4.67250,0.00000,0.01574,0.97222,-0.21045,2023,6,12,10,31,29,467
0.06800,2.85250,-4.49750,0.00000,0.01720,0.96746,-0.20947,2023,6,12,10,31,29,478
0.06810,2.85250,-4.56750,0.00000,0.01659,0.97197,-0.21033,2023,6,12,10,31,29,489
0.06820,2.90500,-4.34000,0.00000,0.01745,0.97112,-0.21008,2023,6,12,10,31,29,500
0.06830,2.81750,-4.34000,0.00000,0.01623,0.97283,-0.21033,2023,6,12,10,31,29,511
0.06840,2.73000,-4.62000,0.00000,0.01708,0.96929,-0.21057,2023,6,12,10,31,29,522
0.06850,3.02750,-4.41000,0.00000,0.01598,0.96990,-0.21033,2023,6,12,10,31,29,534
0.06860,2.81750,-4.46250,0.00000,0.01562,0.97271,-0.21216,2023,6,12,10,31,29,545
0.06870,2.88750,-4.41000,0.00000,0.01598,0.97075,-0.20984,2023,6,12,10,31,29,556
0.06880,2.94000,-4.58500,0.00000,0.01562,0.97197,-0.21069,2023,6,12,10,31,29,567
0.06890,2.99250,-4.74250,0.00000,0.01562,0.97173,-0.20960,2023,6,12,10,31,29,578
0.06900,2.90500,-4.86500,0.00000,0.01879,0.97075,-0.21033,2023,6,12,10,31,29,589
0.06910,2.88750,-4.51500,0.00000,0.01671,0.97039,-0.21008,2023,6,12,10,31,29,600
0.06920,2.85250,-4.63750,0.00000,0.01549,0.96880,-0.21008,2023,6,12,10,31,29,611
0.06930,3.04500,-4.46250,0.00000,0.01391,0.97063,-0.21399,2023,6,12,10,31,29,622
0.06940,2.73000,-4.53250,0.00000,0.01696,0.97149,-0.21118,2023,6,12,10,31,29,634
0.06950,3.02750,-4.51500,0.00000,0.01488,0.96941,-0.21155,2023,6,12,10,31,29,645
0.06960,2.88750,-4.72500,0.00000,0.01659,0.97222,-0.21033,2023,6,12,10,31,29,656
0.06970,2.94000,-4.58500,0.00000,0.01769,0.97234,-0.21045,2023,6,12,10,31,29,667
0.06980,2.83500,-4.65500,0.00000,0.01562,0.97222,-0.21106,2023,6,12,10,31,29,678
0.06990,2.90500,-4.77750,0.00000,0.01342,0.97161,-0.21057,2023,6,12,10,31,29,689
0.07000,3.04500,-4.58500,0.00000,0.01598,0.97149,-0.20960,2023,6,12,10,31,29,700
0.07010,3.04500,-4.69000,0.00000,0.01818,0.97197,-0.20923,2023,6,12,10,31,29,711
0.07020,2.87000,-4.76000,0.00000,0.01769,0.97368,-0.20899,2023,6,12,10,31,29,722
0.07030,2.76500,-4.63750,0.00000,0.01732,0.97185,-0.21008,2023,6,12,10,31,29,734
0.07040,2.90500,-4.53250,0.00000,0.01684,0.97136,-0.21216,2023,6,12,10,31,29,745
0.07050,2.80000,-4.62000,0.00000,0.01501,0.97258,-0.21240,2023,6,12,10,31,29,756
0.07060,3.04500,-4.55000,0.00000,0.01415,0.97368,-0.20825,2023,6,12,10,31,29,767
0.07070,3.08000,-4.35750,0.00000,0.01562,0.97161,-0.21069,2023,6,12,10,31,29,778
0.07080,2.80000,-4.55000,0.00000,0.01684,0.96880,-0.20972,2023,6,12,10,31,29,789
0.07090,2.99250,-4.56750,0.00000,0.01732,0.97112,-0.21008,2023,6,12,10,31,29,800
0.07100,2.87000,-4.69000,0.00000,0.01562,0.97368,-0.21130,2023,6,12,10,31,29,811
0.07110,2.85250,-4.67250,0.00000,0.01647,0.97246,-0.20874,2023,6,12,10,31,29,822
0.07120,2.90500,-4.65500,0.00000,0.01659,0.97100,-0.20972,2023,6,12,10,31,29,834
0.07130,2.87000,-4.62000,0.00000,0.01623,0.97454,-0.21057,2023,6,12,10,31,29,845
0.07140,2.64250,-4.63750,0.00000,0.01586,0.97051,-0.21155,2023,6,12,10,31,29,856
0.07150,3.04500,-4.76000,0.00000,0.01562,0.97100,-0.20899,2023,6,12,10,31,29,867
0.07160,2.85250,-4.60250,0.00000,0.01525,0.97112,-0.21106,2023,6,12,10,31,29,878
0.07170,2.95750,-4.49750,0.00000,0.01635,0.97002,-0.20923,2023,6,12,10,31,29,889
0.07180,2.92250,-4.74250,0.00000,0.01793,0.97283,-0.21008,2023,6,12,10,31,29,900
0.07190,2.97500,-4.63750,0.00000,0.01818,0.97088,-0.21167,2023,6,12,10,31,29,911
0.07200,2.99250,-4.62000,0.00000,0.01610,0.97466,-0.21118,2023,6,12,10,31,29,922
0.07210,2.88750,-4.60250,0.00000,0.01574,0.97258,-0.21021,2023,6,12,10,31,29,934
0.07220,2.92250,-4.49750,0.00000,0.01598,0.97063,-0.21033,2023,6,12,10,31,29,945
0.07230,3.06250,-4.70750,0.00000,0.01598,0.97417,-0.21106,2023,6,12,10,31,29,956
0.07240,2.83500,-4.49750,0.00000,0.01464,0.97234,-0.21118,2023,6,12,10,31,29,967
0.07250,2.81750,-4.53250,0.00000,0.01501,0.96990,-0.20960,2023,6,12,10,31,30,8
0.07260,2.74750,-4.77750,0.00000,0.01549,0.97173,-0.20996,2023,6,12,10,31,30,19
0.07270,2.92250,-4.56750,0.00000,0.01476,0.97100,-0.21204,2023,6,12,10,31,30,30
0.07280,2.88750,-4.60250,0.00000,0.01537,0.97210,-0.20874,2023,6,12,10,31,30,41
0.07290,3.18500,-4.76000,0.00000,0.01696,0.97149,-0.20923,2023,6,12,10,31,30,52
0.07300,2.85250,-4.58500,0.00000,0.01488,0.97222,-0.20972,2023,6,12,10,31,30,64
0.07310,2.90500,-4.44500,0.00000,0.01464,0.97100,-0.21130,2023,6,12,10,31,30,75
0.07320,2.85250,-4.46250,0.00000,0.01513,0.97307,-0.20899,2023,6,12,10,31,30,86
0.07330,3.01000,-4.63750,0.00000,0.01793,0.97319,-0.20960,2023,6,12,10,31,30,97
0.07340,2.85250,-4.67250,0.00000,0.01708,0.97112,-0.20960,2023,6,12,10,31,30,108
0.07350,2.88750,-4.65500,0.00000,0.01452,0.97014,-0.20923,2023,6,12,10,31,30,119
0.07360,2.97500,-4.70750,0.00000,0.01537,0.96990,-0.20862,2023,6,12,10,31,30,130
0.07370,2.95750,-4.28750,0.00000,0.01464,0.97210,-0.20984,2023,6,12,10,31,30,141
0.07380,2.88750,-4.49750,0.00000,0.01452,0.97173,-0.21069,2023,6,12,10,31,30,152
0.07390,2.81750,-4.60250,0.00000,0.01659,0.97185,-0.21277,2023,6,12,10,31,30,164
0.07400,3.04500,-4.44500,0.00000,0.01562,0.97149,-0.20911,2023,6,12,10,31,30,175
0.07410,2.83500,-4.65500,0.00000,0.01732,0.97100,-0.21021,2023,6,12,10,31,30,186
0.07420,3.15000,-4.74250,0.00000,0.01647,0.97210,-0.21118,2023,6,12,10,31,30,197
0.07430,2.81750,-4.44500,0.00000,0.01610,0.97100,-0.20972,2023,6,12,10,31,30,208
0.07440,2.88750,-4.63750,0.00000,0.01586,0.97149,-0.21228,2023,6,12,10,31,30,219
0.07450,2.80000,-4.79500,0.00000,0.01708,0.97014,-0.21143,2023,6,12,10,31,30,230
0.07460,3.22000,-4.58500,0.00000,0.01549,0.97234,-0.21179,2023,6,12,10,31,30,241
0.07470,3.01000,-4.60250,0.00000,0.01842,0.97112,-0.21033,2023,6,12,10,31,30,252
0.07480,2.95750,-4.48000,0.00000,0.01635,0.97149,-0.20984,2023,6,12,10,31,30,264
0.07490,2.66000,-4.58500,0.00000,0.01793,0.97234,-0.21069,2023,6,12,10,31,30,275
0.07500,3.11500,-4.55000,0.00000,0.01647,0.97185,-0.21057,2023,6,12,10,31,30,286
0.07510,2.97500,-4.46250,0.00000,0.01757,0.97234,-0.21118,2023,6,12,10,31,30,297
0.07520,2.78250,-4.46250,0.00000,0.01391,0.97222,-0.20972,2023,6,12,10,31,30,308
0.07530,3.04500,-4.63750,0.00000,0.01635,0.97234,-0.20923,2023,6,12,10,31,30,319
0.07540,2.90500,-4.67250,0.00000,0.01427,0.97173,-0.21094,2023,6,12,10,31,30,330
0.07550,2.90500,-4.48000,0.00000,0.01769,0.96978,-0.21082,2023,6,12,10,31,30,341
0.07560,2.95750,-4.60250,0.00000,0.01525,0.97258,-0.20886,2023,6,12,10,31,30,352
0.07570,2.71250,-4.46250,0.00000,0.01610,0.97063,-0.21033,2023,6,12,10,31,30,364
0.07580,2.92250,-4.70750,0.00000,0.01549,0.97051,-0.20777,2023,6,12,10,31,30,375
0.07590,2.87000,-4.53250,0.00000,0.01598,0.96953,-0.21021,2023,6,12,10,31,30,386
0.07600,2.88750,-4.63750,0.00000,0.01769,0.97356,-0.21204,2023,6,12,10,31,30,397
0.07610,3.02750,-4.72500,0.00000,0.01903,0.97063,-0.21033,2023,6,12,10,31,30,408
0.07620,2.97500,-4.77750,0.00000,0.01537,0.96953,-0.21082,2023,6,12,10,31,30,419
0.07630,2.85250,-4.76000,0.00000,0.01501,0.97246,-0.21045,2023,6,12,10,31,30,430
0.07640,3.01000,-4.58500,0.00000,0.01635,0.97124,-0.21179,2023,6,12,10,31,30,441
0.07650,2.92250,-4.62000,0.00000,0.01586,0.97051,-0.21033,2023,6,12,10,31,30,452
0.07660,2.90500,-4.65500,0.00000,0.01610,0.97368,-0.20984,2023,6,12,10,31,30,464
0.07670,2.90500,-4.37500,0.00000,0.01513,0.97100,-0.21191,2023,6,12,10,31,30,475
0.07680,2.94000,-4.53250,0.00000,0.01769,0.97380,-0.21179,2023,6,12,10,31,30,486
0.07690,2.78250,-4.53250,0.00000,0.01757,0.97234,-0.21021,2023,6,12,10,31,30,497
0.07700,2.94000,-4.62000,0.00000,0.01513,0.97112,-0.21045,2023,6,12,10,31,30,508
0.07710,2.87000,-4.55000,0.00000,0.01647,0.97197,-0.20947,2023,6,12,10,31,30,519
0.07720,2.76500,-4.32250,0.00000,0.01549,0.97173,-0.21082,2023,6,12,10,31,30,530
0.07730,2.80000,-4.62000,0.00000,0.01745,0.97332,-0.21411,2023,6,12,10,31,30,541
0.07740,2.97500,-4.46250,0.00000,0.01635,0.97075,-0.21021,2023,6,12,10,31,30,552
0.07750,2.90500,-4.77750,0.00000,0.01598,0.97271,-0.21094,2023,6,12,10,31,30,564
0.07760,2.83500,-4.35750,0.00000,0.01635,0.97149,-0.20947,2023,6,12,10,31,30,575
0.07770,2.99250,-4.56750,0.00000,0.01488,0.97149,-0.21008,2023,6,12,10,31,30,586
0.07780,2.94000,-4.51500,0.00000,0.01598,0.97075,-0.20899,2023,6,12,10,31,30,597
0.07790,2.85250,-4.77750,0.00000,0.01586,0.97210,-0.21167,2023,6,12,10,31,30,608
0.07800,2.80000,-4.51500,0.00000,0.01647,0.97197,-0.20862,2023,6,12,10,31,30,619
0.07810,2.99250,-4.55000,0.00000,0.01452,0.97112,-0.21106,2023,6,12,10,31,30,630
0.07820,2.78250,-4.63750,0.00000,0.01513,0.97075,-0.20899,2023,6,12,10,31,30,641
0.07830,2.85250,-4.67250,0.00000,0.01452,0.97112,-0.21057,2023,6,12,10,31,30,652
0.07840,2.71250,-4.63750,0.00000,0.01684,0.97136,-0.20716,2023,6,12,10,31,30,664
0.07850,2.94000,-4.74250,0.00000,0.01610,0.97246,-0.21216,2023,6,12,10,31,30,675
0.07860,2.83500,-4.72500,0.00000,0.01635,0.97368,-0.21021,2023,6,12,10,31,30,686
0.07870,2.83500,-4.58500,0.00000,0.01623,0.97136,-0.21045,2023,6,12,10,31,30,697
0.07880,2.97500,-4.48000,0.00000,0.01586,0.97075,-0.21118,2023,6,12,10,31,30,708
0.07890,2.97500,-4.60250,0.00000,0.01671,0.97149,-0.21033,2023,6,12,10,31,30,719
0.07900,2.87000,-4.62000,0.00000,0.01757,0.96990,-0.20972,2023,6,12,10,31,30,730
0.07910,2.87000,-4.77750,0.00000,0.01586,0.97173,-0.21021,2023,6,12,10,31,30,741
0.07920,2.99250,-4.63750,0.00000,0.01647,0.97222,-0.21228,2023,6,12,10,31,30,752
0.07930,2.88750,-4.79500,0.00000,0.01635,0.97100,-0.21021,2023,6,12,10,31,30,764
0.07940,3.01000,-4.77750,0.00000,0.01684,0.97161,-0.21033,2023,6,12,10,31,30,775
0.07950,2.94000,-4.46250,0.00000,0.01757,0.97124,-0.21069,2023,6,12,10,31,30,786
0.07960,2.73000,-4.63750,0.00000,0.01623,0.97246,-0.21191,2023,6,12,10,31,30,797
0.07970,2.80000,-4.49750,0.00000,0.01610,0.97368,-0.21118,2023,6,12,10,31,30,808
0.07980,2.80000,-4.70750,0.00000,0.01440,0.97124,-0.21082,2023,6,12,10,31,30,819
0.07990,2.80000,-4.51500,0.00000,0.01476,0.97393,-0.21130,2023,6,12,10,31,30,830
0.08000,2.81750,-4.53250,0.00000,0.01671,0.97161,-0.20984,2023,6,12,10,31,30,841
0.08010,2.85250,-4.53250,0.00000,0.01440,0.97319,-0.20703,2023,6,12,10,31,30,852
0.08020,2.74750,-4.58500,0.00000,0.01440,0.97210,-0.20960,2023,6,12,10,31,30,864
0.08030,2.94000,-4.51500,0.00000,0.01671,0.97112,-0.21094,2023,6,12,10,31,30,875
0.08040,2.85250,-4.41000,0.00000,0.01440,0.97075,-0.21228,2023,6,12,10,31,30,886
0.08050,2.97500,-4.90000,0.00000,0.01757,0.97002,-0.20874,2023,6,12,10,31,30,897
0.08060,2.78250,-4.48000,0.00000,0.01623,0.97100,-0.21094,2023,6,12,10,31,30,908
0.08070,2.87000,-4.58500,0.00000,0.01342,0.97234,-0.21130,2023,6,12,10,31,30,919
0.08080,2.94000,-4.56750,0.00000,0.01586,0.96990,-0.21143,2023,6,12,10,31,30,930
0.08090,2.94000,-4.67250,0.00000,0.01830,0.97246,-0.21130,2023,6,12,10,31,30,941
0.08100,2.87000,-4.60250,0.00000,0.01488,0.97185,-0.21057,2023,6,12,10,31,30,952
0.08110,2.90500,-4.58500,0.00000,0.01781,0.97185,-0.21374,2023,6,12,10,31,30,964
0.08120,2.87000,-4.63750,0.00000,0.01586,0.97173,-0.20862,2023,6,12,10,31,31,5
0.08130,2.87000,-4.49750,0.00000,0.01708,0.97124,-0.20886,2023,6,12,10,31,31,16
0.08140,2.94000,-4.34000,0.00000,0.01867,0.97295,-0.21191,2023,6,12,10,31,31,27
0.08150,2.95750,-4.51500,0.00000,0.01659,0.97051,-0.21240,2023,6,12,10,31,31,38
0.08160,2.80000,-4.55000,0.00000,0.01537,0.97173,-0.20899,2023,6,12,10,31,31,49
0.08170,2.87000,-4.65500,0.00000,0.01586,0.96978,-0.21130,2023,6,12,10,31,31,60
0.08180,2.99250,-4.48000,0.00000,0.01781,0.97112,-0.21057,2023,6,12,10,31,31,71
0.08190,2.88750,-4.51500,0.00000,0.01818,0.97027,-0.21082,2023,6,12,10,31,31,82
0.08200,2.85250,-4.55000,0.00000,0.01464,0.97222,-0.21387,2023,6,12,10,31,31,94
0.08210,3.20250,-4.49750,0.00000,0.01586,0.97027,-0.20825,2023,6,12,10,31,31,105
0.08220,3.06250,-4.55000,0.00000,0.01696,0.97295,-0.20850,2023,6,12,10,31,31,116
0.08230,3.04500,-4.55000,0.00000,0.01830,0.97185,-0.21045,2023,6,12,10,31,31,127
0.08240,3.06250,-4.53250,0.00000,0.01684,0.97185,-0.21033,2023,6,12,10,31,31,138
0.08250,2.97500,-4.46250,0.00000,0.01696,0.97197,-0.20960,2023,6,12,10,31,31,149
0.08260,3.02750,-4.72500,0.00000,0.01806,0.97088,-0.21057,2023,6,12,10,31,31,160
0.08270,2.88750,-4.58500,0.00000,0.01659,0.97258,-0.21069,2023,6,12,10,31,31,171
0.08280,2.80000,-4.77750,0.00000,0.01647,0.97307,-0.21021,2023,6,12,10,31,31,182
0.08290,2.97500,-4.46250,0.00000,0.01732,0.97100,-0.21008,2023,6,12,10,31,31,194
0.08300,2.85250,-4.55000,0.00000,0.01574,0.97246,-0.21021,2023,6,12,10,31,31,205
0.08310,2.85250,-4.60250,0.00000,0.01684,0.96941,-0.21021,2023,6,12,10,31,31,216
0.08320,2.76500,-4.41000,0.00000,0.01659,0.96978,-0.21191,2023,6,12,10,31,31,227
0.08330,2.94000,-4.49750,0.00000,0.01513,0.97307,-0.21057,2023,6,12,10,31,31,238
0.08340,2.87000,-4.49750,0.00000,0.01586,0.97027,-0.20923,2023,6,12,10,31,31,249
0.08350,2.87000,-4.63750,0.00000,0.01647,0.97271,-0.21069,2023,6,12,10,31,31,260
0.08360,2.99250,-4.49750,0.00000,0.01623,0.96966,-0.21216,2023,6,12,10,31,31,271
0.08370,2.88750,-4.48000,0.00000,0.01549,0.97063,-0.20838,2023,6,12,10,31,31,282
0.08380,3.06250,-4.62000,0.00000,0.01513,0.97173,-0.21057,2023,6,12,10,31,31,294
0.08390,2.87000,-4.51500,0.00000,0.01769,0.97380,-0.21143,2023,6,12,10,31,31,305
0.08400,2.92250,-4.58500,0.00000,0.01757,0.97112,-0.21021,2023,6,12,10,31,31,316
0.08410,2.94000,-4.56750,0.00000,0.01684,0.97283,-0.21057,2023,6,12,10,31,31,327
0.08420,2.97500,-4.60250,0.00000,0.01659,0.97112,-0.21204,2023,6,12,10,31,31,338
0.08430,3.04500,-4.53250,0.00000,0.01635,0.97197,-0.21106,2023,6,12,10,31,31,349
0.08440,2.95750,-4.83000,0.00000,0.01452,0.97124,-0.21240,2023,6,12,10,31,31,360
0.08450,3.04500,-4.72500,0.00000,0.01574,0.97014,-0.21191,2023,6,12,10,31,31,371
0.08460,2.92250,-4.65500,0.00000,0.01476,0.97307,-0.21496,2023,6,12,10,31,31,382
0.08470,2.87000,-4.58500,0.00000,0.01586,0.97063,-0.21460,2023,6,12,10,31,31,394
0.08480,2.95750,-4.56750,0.00000,0.01793,0.97051,-0.21082,2023,6,12,10,31,31,405
0.08490,2.99250,-4.93500,0.00000,0.01671,0.97136,-0.21179,2023,6,12,10,31,31,416
0.08500,3.01000,-4.48000,0.00000,0.01501,0.97112,-0.21069,2023,6,12,10,31,31,427
0.08510,3.16750,-4.67250,0.00000,0.01635,0.96966,-0.21143,2023,6,12,10,31,31,438
0.08520,2.81750,-4.56750,0.00000,0.01488,0.97173,-0.21045,2023,6,12,10,31,31,449
0.08530,2.80000,-4.58500,0.00000,0.01659,0.97283,-0.21167,2023,6,12,10,31,31,460
0.08540,3.02750,-4.81250,0.00000,0.01549,0.97075,-0.21033,2023,6,12,10,31,31,471
0.08550,2.83500,-4.67250,0.00000,0.01623,0.97136,-0.21228,2023,6,12,10,31,31,482
0.08560,2.80000,-4.32250,0.00000,0.01623,0.97161,-0.21045,2023,6,12,10,31,31,494
0.08570,2.92250,-4.63750,0.00000,0.01598,0.96917,-0.21082,2023,6,12,10,31,31,505
0.08580,3.01000,-4.58500,0.00000,0.01440,0.97185,-0.21313,2023,6,12,10,31,31,516
0.08590,2.87000,-4.63750,0.00000,0.01586,0.97100,-0.21069,2023,6,12,10,31,31,527
0.08600,3.04500,-4.74250,0.00000,0.01720,0.97173,-0.21082,2023,6,12,10,31,31,538
0.08610,2.92250,-4.58500,0.00000,0.01598,0.97124,-0.21435,2023,6,12,10,31,31,549
0.08620,2.81750,-4.46250,0.00000,0.01549,0.97222,-0.20947,2023,6,12,10,31,31,560
0.08630,2.81750,-4.55000,0.00000,0.01513,0.97222,-0.21130,2023,6,12,10,31,31,571
0.08640,2.95750,-4.49750,0.00000,0.01610,0.97222,-0.20972,2023,6,12,10,31,31,582
0.08650,3.09750,-4.56750,0.00000,0.01513,0.97551,-0.21265,2023,6,12,10,31,31,594
0.08660,3.02750,-4.51500,0.00000,0.01598,0.97075,-0.21057,2023,6,12,10,31,31,605
0.08670,2.97500,-4.74250,0.00000,0.01671,0.97295,-0.21130,2023,6,12,10,31,31,616
0.08680,2.74750,-4.46250,0.00000,0.01586,0.97380,-0.21289,2023,6,12,10,31,31,627
0.08690,3.11500,-4.44500,0.00000,0.01623,0.97234,-0.21179,2023,6,12,10,31,31,638
0.08700,2.81750,-4.51500,0.00000,0.01671,0.96856,-0.21289,2023,6,12,10,31,31,649
0.08710,2.85250,-4.51500,0.00000,0.01574,0.97258,-0.20935,2023,6,12,10,31,31,660
0.08720,2.87000,-4.53250,0.00000,0.01720,0.97002,-0.20996,2023,6,12,10,31,31,671
0.08730,2.80000,-4.55000,0.00000,0.01647,0.97332,-0.21277,2023,6,12,10,31,31,682
0.08740,2.94000,-4.53250,0.00000,0.01586,0.97039,-0.20935,2023,6,12,10,31,31,694
0.08750,2.99250,-4.51500,0.00000,0.01586,0.96966,-0.20996,2023,6,12,10,31,31,705
0.08760,3.13250,-4.74250,0.00000,0.01720,0.97100,-0.21313,2023,6,12,10,31,31,716
0.08770,2.99250,-4.62000,0.00000,0.01720,0.96978,-0.21057,2023,6,12,10,31,31,727
0.08780,2.94000,-4.55000,0.00000,0.01513,0.97344,-0.21008,2023,6,12,10,31,31,738
0.08790,3.01000,-4.67250,0.00000,0.01696,0.96941,-0.20899,2023,6,12,10,31,31,749
0.08800,3.02750,-4.65500,0.00000,0.01562,0.97332,-0.21057,2023,6,12,10,31,31,760
0.08810,2.90500,-4.69000,0.00000,0.01610,0.97210,-0.20825,2023,6,12,10,31,31,771
0.08820,3.09750,-4.88250,0.00000,0.01488,0.97210,-0.20874,2023,6,12,10,31,31,782
0.08830,2.81750,-4.51500,0.00000,0.01549,0.97295,-0.20911,2023,6,12,10,31,31,794
0.08840,2.90500,-4.39250,0.00000,0.01745,0.97283,-0.21252,2023,6,12,10,31,31,805
0.08850,3.20250,-4.77750,0.00000,0.01586,0.97100,-0.21069,2023,6,12,10,31,31,816
0.08860,2.94000,-4.60250,0.00000,0.01647,0.97332,-0.21021,2023,6,12,10,31,31,827
0.08870,2.87000,-4.53250,0.00000,0.01732,0.97124,-0.21045,2023,6,12,10,31,31,838
0.08880,3.04500,-4.69000,0.00000,0.01525,0.96905,-0.21069,2023,6,12,10,31,31,849
0.08890,2.74750,-4.49750,0.00000,0.01647,0.97271,-0.21167,2023,6,12,10,31,31,860
0.08900,2.95750,-4.69000,0.00000,0.01354,0.97100,-0.20874,2023,6,12,10,31,31,871
0.08910,2.97500,-4.77750,0.00000,0.01537,0.97100,-0.21191,2023,6,12,10,31,31,882
0.08920,2.94000,-4.58500,0.00000,0.01806,0.97283,-0.21008,2023,6,12,10,31,31,894
0.08930,3.02750,-4.55000,0.00000,0.01781,0.97075,-0.21155,2023,6,12,10,31,31,905
0.08940,2.94000,-4.76000,0.00000,0.01757,0.97124,-0.20850,2023,6,12,10,31,31,916
0.08950,2.81750,-4.62000,0.00000,0.01525,0.97222,-0.21033,2023,6,12,10,31,31,927
0.08960,3.08000,-4.46250,0.00000,0.01708,0.97246,-0.20874,2023,6,12,10,31,31,938
0.08970,2.99250,-4.69000,0.00000,0.01781,0.97344,-0.20923,2023,6,12,10,31,31,949
0.08980,2.88750,-4.69000,0.00000,0.01379,0.97234,-0.20752,2023,6,12,10,31,31,960
0.08990,2.80000,-4.65500,0.00000,0.01720,0.97258,-0.20691,2023,6,12,10,31,31,971
0.09000,3.16750,-4.63750,0.00000,0.01659,0.97051,-0.21069,2023,6,12,10,31,32,2
0.09010,2.95750,-4.74250,0.00000,0.01586,0.97014,-0.20886,2023,6,12,10,31,32,14
0.09020,3.01000,-4.60250,0.00000,0.01464,0.97027,-0.20886,2023,6,12,10,31,32,25
0.09030,2.99250,-4.51500,0.00000,0.01659,0.96880,-0.20935,2023,6,12,10,31,32,36
0.09040,3.01000,-4.86500,0.00000,0.01671,0.97136,-0.21045,2023,6,12,10,31,32,47
0.09050,2.87000,-4.72500,0.00000,0.01501,0.97295,-0.21143,2023,6,12,10,31,32,58
0.09060,3.08000,-4.69000,0.00000,0.01598,0.97088,-0.21094,2023,6,12,10,31,32,69
0.09070,3.06250,-4.60250,0.00000,0.01586,0.97014,-0.21069,2023,6,12,10,31,32,80
0.09080,2.80000,-4.48000,0.00000,0.01562,0.97222,-0.20960,2023,6,12,10,31,32,91
0.09090,2.81750,-4.32250,0.00000,0.01671,0.97075,-0.20972,2023,6,12,10,31,32,102
0.09100,2.95750,-4.65500,0.00000,0.01745,0.97075,-0.21265,2023,6,12,10,31,32,114
0.09110,2.88750,-4.46250,0.00000,0.01574,0.97136,-0.20911,2023,6,12,10,31,32,125
0.09120,2.83500,-4.81250,0.00000,0.01513,0.97271,-0.20923,2023,6,12,10,31,32,136
0.09130,2.97500,-4.60250,0.00000,0.01464,0.97124,-0.20996,2023,6,12,10,31,32,147
0.09140,2.69500,-4.34000,0.00000,0.01635,0.97027,-0.21045,2023,6,12,10,31,32,158
0.09150,2.76500,-4.56750,0.00000,0.01708,0.97088,-0.20911,2023,6,12,10,31,32,169
0.09160,2.88750,-4.72500,0.00000,0.01623,0.97136,-0.20947,2023,6,12,10,31,32,180
0.09170,2.81750,-4.60250,0.00000,0.01427,0.96990,-0.21033,2023,6,12,10,31,32,191
0.09180,2.90500,-4.55000,0.00000,0.01696,0.97136,-0.21118,2023,6,12,10,31,32,202
0.09190,2.94000,-4.60250,0.00000,0.01732,0.97112,-0.20923,2023,6,12,10,31,32,214
0.09200,2.78250,-4.53250,0.00000,0.01574,0.97271,-0.21057,2023,6,12,10,31,32,225
0.09210,2.94000,-4.65500,0.00000,0.01647,0.96990,-0.20813,2023,6,12,10,31,32,236
0.09220,3.01000,-4.72500,0.00000,0.01464,0.97222,-0.21411,2023,6,12,10,31,32,247
0.09230,2.90500,-4.72500,0.00000,0.01501,0.97136,-0.20960,2023,6,12,10,31,32,258
0.09240,3.01000,-4.62000,0.00000,0.01671,0.97063,-0.20923,2023,6,12,10,31,32,269
0.09250,3.04500,-4.48000,0.00000,0.01647,0.97173,-0.20947,2023,6,12,10,31,32,280
0.09260,2.85250,-4.63750,0.00000,0.01732,0.97161,-0.21179,2023,6,12,10,31,32,291
0.09270,2.97500,-4.51500,0.00000,0.01562,0.96990,-0.20923,2023,6,12,10,31,32,302
0.09280,2.95750,-4.51500,0.00000,0.01476,0.97197,-0.20960,2023,6,12,10,31,32,314
0.09290,2.95750,-4.62000,0.00000,0.01476,0.97222,-0.21045,2023,6,12,10,31,32,325
0.09300,2.80000,-4.72500,0.00000,0.01684,0.97014,-0.21008,2023,6,12,10,31,32,336
0.09310,2.92250,-4.65500,0.00000,0.01574,0.97173,-0.20996,2023,6,12,10,31,32,347
0.09320,2.95750,-4.65500,0.00000,0.01513,0.97307,-0.20874,2023,6,12,10,31,32,358
0.09330,3.02750,-4.56750,0.00000,0.01635,0.97295,-0.20740,2023,6,12,10,31,32,369
0.09340,2.88750,-4.56750,0.00000,0.01684,0.97002,-0.21045,2023,6,12,10,31,32,380
0.09350,2.95750,-4.69000,0.00000,0.01671,0.97380,-0.20935,2023,6,12,10,31,32,391
0.09360,2.99250,-4.37500,0.00000,0.01464,0.97161,-0.20935,2023,6,12,10,31,32,402
0.09370,2.95750,-4.69000,0.00000,0.01757,0.97039,-0.21045,2023,6,12,10,31,32,414
0.09380,3.04500,-4.46250,0.00000,0.01537,0.97161,-0.21191,2023,6,12,10,31,32,425
0.09390,2.90500,-4.74250,0.00000,0.01574,0.97258,-0.20935,2023,6,12,10,31,32,436
0.09400,2.95750,-4.72500,0.00000,0.01513,0.97100,-0.21033,2023,6,12,10,31,32,447
0.09410,3.01000,-4.28750,0.00000,0.01610,0.97185,-0.20972,2023,6,12,10,31,32,458
0.09420,2.78250,-4.44500,0.00000,0.01647,0.97027,-0.21143,2023,6,12,10,31,32,469
0.09430,2.74750,-4.72500,0.00000,0.01549,0.97149,-0.21094,2023,6,12,10,31,32,480
0.09440,2.81750,-4.65500,0.00000,0.01659,0.97002,-0.21008,2023,6,12,10,31,32,491
0.09450,2.88750,-4.39250,0.00000,0.01781,0.97344,-0.20874,2023,6,12,10,31,32,502
0.09460,3.04500,-4.62000,0.00000,0.01635,0.97112,-0.20972,2023,6,12,10,31,32,514
0.09470,2.99250,-4.51500,0.00000,0.01574,0.97088,-0.21045,2023,6,12,10,31,32,525
0.09480,2.92250,-4.60250,0.00000,0.01525,0.97088,-0.21033,2023,6,12,10,31,32,536
0.09490,3.01000,-4.49750,0.00000,0.01537,0.97173,-0.21338,2023,6,12,10,31,32,547
0.09500,2.90500,-4.56750,0.00000,0.01659,0.97051,-0.20862,2023,6,12,10,31,32,558
0.09510,2.78250,-4.69000,0.00000,0.01537,0.96905,-0.21008,2023,6,12,10,31,32,569
0.09520,2.95750,-4.55000,0.00000,0.01452,0.97319,-0.21204,2023,6,12,10,31,32,580
0.09530,2.76500,-4.44500,0.00000,0.01537,0.97332,-0.21045,2023,6,12,10,31,32,591
0.09540,2.78250,-4.56750,0.00000,0.01696,0.97100,-0.21313,2023,6,12,10,31,32,602
0.09550,2.90500,-4.51500,0.00000,0.01452,0.97149,-0.21252,2023,6,12,10,31,32,614
0.09560,2.71250,-4.41000,0.00000,0.01879,0.97332,-0.21094,2023,6,12,10,31,32,625
0.09570,2.76500,-4.58500,0.00000,0.01586,0.97319,-0.20911,2023,6,12,10,31,32,636
0.09580,2.90500,-4.30500,0.00000,0.01562,0.97051,-0.21033,2023,6,12,10,31,32,647
0.09590,2.76500,-4.32250,0.00000,0.01488,0.97368,-0.21057,2023,6,12,10,31,32,658
0.09600,2.97500,-4.72500,0.00000,0.01586,0.97283,-0.20862,2023,6,12,10,31,32,669
0.09610,3.11500,-4.53250,0.00000,0.01476,0.97307,-0.20911,2023,6,12,10,31,32,680
0.09620,2.83500,-4.81250,0.00000,0.01513,0.97088,-0.21240,2023,6,12,10,31,32,691
0.09630,2.97500,-4.65500,0.00000,0.01708,0.96990,-0.21265,2023,6,12,10,31,32,702
0.09640,3.04500,-4.55000,0.00000,0.01513,0.97307,-0.20935,2023,6,12,10,31,32,714
0.09650,2.90500,-4.39250,0.00000,0.01440,0.96941,-0.21033,2023,6,12,10,31,32,725
0.09660,2.99250,-4.48000,0.00000,0.01635,0.97002,-0.21057,2023,6,12,10,31,32,736
0.09670,2.87000,-4.49750,0.00000,0.01586,0.97161,-0.20923,2023,6,12,10,31,32,747
0.09680,3.04500,-4.97000,0.00000,0.01647,0.97307,-0.21179,2023,6,12,10,31,32,758
0.09690,2.94000,-4.48000,0.00000,0.01708,0.97051,-0.20972,2023,6,12,10,31,32,769
0.09700,2.92250,-4.42750,0.00000,0.01598,0.97210,-0.21118,2023,6,12,10,31,32,780
0.09710,2.76500,-4.46250,0.00000,0.01379,0.97112,-0.21082,2023,6,12,10,31,32,791
0.09720,2.88750,-4.34000,0.00000,0.01708,0.97149,-0.20752,2023,6,12,10,31,32,802
0.09730,2.92250,-4.62000,0.00000,0.01476,0.97393,-0.20825,2023,6,12,10,31,32,814
0.09740,2.94000,-4.46250,0.00000,0.01757,0.97332,-0.20752,2023,6,12,10,31,32,825
0.09750,2.88750,-4.63750,0.00000,0.01488,0.96966,-0.20996,2023,6,12,10,31,32,836
0.09760,2.90500,-4.51500,0.00000,0.01440,0.97258,-0.21167,2023,6,12,10,31,32,847
0.09770,2.88750,-4.39250,0.00000,0.01525,0.97380,-0.21021,2023,6,12,10,31,32,858
0.09780,2.83500,-4.76000,0.00000,0.01537,0.97149,-0.20911,2023,6,12,10,31,32,869
0.09790,3.08000,-4.76000,0.00000,0.01635,0.97149,-0.20862,2023,6,12,10,31,32,880
0.09800,2.73000,-4.67250,0.00000,0.01549,0.97112,-0.21021,2023,6,12,10,31,32,891
0.09810,2.87000,-4.56750,0.00000,0.01671,0.97173,-0.21082,2023,6,12,10,31,32,902
0.09820,2.94000,-4.48000,0.00000,0.01610,0.97319,-0.21021,2023,6,12,10,31,32,914
0.09830,3.13250,-4.74250,0.00000,0.01501,0.97136,-0.21069,2023,6,12,10,31,32,925
0.09840,2.76500,-4.58500,0.00000,0.01525,0.97136,-0.21069,2023,6,12,10,31,32,936
0.09850,2.74750,-4.60250,0.00000,0.01476,0.97124,-0.21008,2023,6,12,10,31,32,947
0.09860,2.92250,-4.44500,0.00000,0.01891,0.97039,-0.20801,2023,6,12,10,31,32,958
0.09870,2.94000,-4.46250,0.00000,0.01440,0.97210,-0.21033,2023,6,12,10,31,32,969
0.09880,3.02750,-4.49750,0.00000,0.01769,0.97429,-0.21094,2023,6,12,10,31,33,0
0.09890,2.97500,-4.25250,0.00000,0.01574,0.97075,-0.20984,2023,6,12,10,31,33,11
0.09900,2.95750,-4.69000,0.00000,0.01757,0.97222,-0.21033,2023,6,12,10,31,33,22
0.09910,3.06250,-4.62000,0.00000,0.01610,0.97173,-0.20984,2023,6,12,10,31,33,34
0.09920,2.81750,-4.49750,0.00000,0.01696,0.97063,-0.20947,2023,6,12,10,31,33,45
0.09930,3.01000,-4.60250,0.00000,0.01842,0.97063,-0.20581,2023,6,12,10,31,33,56
0.09940,2.74750,-4.56750,0.00000,0.01525,0.97344,-0.21033,2023,6,12,10,31,33,67
0.09950,2.90500,-4.74250,0.00000,0.01732,0.97246,-0.21191,2023,6,12,10,31,33,78
0.09960,3.13250,-4.67250,0.00000,0.01720,0.97283,-0.20923,2023,6,12,10,31,33,89
0.09970,2.81750,-4.60250,0.00000,0.01488,0.96831,-0.21143,2023,6,12,10,31,33,100
0.09980,2.92250,-4.65500,0.00000,0.01806,0.96978,-0.20984,2023,6,12,10,31,33,111
0.09990,2.87000,-4.74250,0.00000,0.01525,0.96953,-0.21143,2023,6,12,10,31,33,122
0.10000,2.76500,-4.55000,0.00000,0.01635,0.96953,-0.21191,2023,6,12,10,31,33,134
0.10010,3.04500,-4.49750,0.00000,0.01476,0.96978,-0.21069,2023,6,12,10,31,33,145
0.10020,2.80000,-4.55000,0.00000,0.01586,0.97246,-0.20996,2023,6,12,10,31,33,156
0.10030,2.78250,-4.46250,0.00000,0.01586,0.97088,-0.20923,2023,6,12,10,31,33,167
0.10040,2.97500,-4.56750,0.00000,0.01574,0.97051,-0.20899,2023,6,12,10,31,33,178
0.10050,2.80000,-4.72500,0.00000,0.01708,0.97185,-0.20874,2023,6,12,10,31,33,189
0.10060,2.99250,-4.67250,0.00000,0.01647,0.97185,-0.20911,2023,6,12,10,31,33,200
0.10070,2.94000,-4.53250,0.00000,0.01464,0.96844,-0.21338,2023,6,12,10,31,33,211
0.10080,2.95750,-4.74250,0.00000,0.01501,0.96953,-0.20923,2023,6,12,10,31,33,222
0.10090,3.04500,-4.69000,0.00000,0.01476,0.97100,-0.21057,2023,6,12,10,31,33,234
0.10100,2.88750,-4.51500,0.00000,0.01452,0.97210,-0.20935,2023,6,12,10,31,33,245
0.10110,3.13250,-4.60250,0.00000,0.01635,0.97149,-0.20960,2023,6,12,10,31,33,256
0.10120,2.80000,-4.53250,0.00000,0.01732,0.96831,-0.20984,2023,6,12,10,31,33,267
0.10130,2.87000,-4.62000,0.00000,0.01818,0.97197,-0.21057,2023,6,12,10,31,33,278
0.10140,2.99250,-4.79500,0.00000,0.01440,0.97088,-0.21155,2023,6,12,10,31,33,289
0.10150,2.90500,-4.48000,0.00000,0.01623,0.97319,-0.20996,2023,6,12,10,31,33,300
0.10160,2.95750,-4.51500,0.00000,0.01488,0.97063,-0.20911,2023,6,12,10,31,33,311
0.10170,2.90500,-4.41000,0.00000,0.01415,0.97185,-0.21069,2023,6,12,10,31,33,322
0.10180,2.90500,-4.46250,0.00000,0.01732,0.97332,-0.21289,2023,6,12,10,31,33,334
0.10190,2.85250,-4.62000,0.00000,0.01976,0.97234,-0.21204,2023,6,12,10,31,33,345
0.10200,2.94000,-4.53250,0.00000,0.01830,0.97258,-0.20947,2023,6,12,10,31,33,356
0.10210,3.16750,-4.84750,0.00000,0.01757,0.97161,-0.21301,2023,6,12,10,31,33,367
0.10220,2.92250,-4.60250,0.00000,0.01623,0.97136,-0.21094,2023,6,12,10,31,33,378
0.10230,2.83500,-4.81250,0.00000,0.01708,0.96892,-0.21106,2023,6,12,10,31,33,389
0.10240,3.20250,-4.60250,0.00000,0.01732,0.97100,-0.21204,2023,6,12,10,31,33,400
0.10250,3.02750,-4.74250,0.00000,0.01757,0.97112,-0.21387,2023,6,12,10,31,33,411
0.10260,2.80000,-4.51500,0.00000,0.01659,0.97100,-0.21045,2023,6,12,10,31,33,422
0.10270,2.81750,-4.51500,0.00000,0.01732,0.97295,-0.21252,2023,6,12,10,31,33,434
0.10280,2.94000,-4.60250,0.00000,0.01562,0.97307,-0.21094,2023,6,12,10,31,33,445
0.10290,3.02750,-4.70750,0.00000,0.01781,0.97307,-0.20801,2023,6,12,10,31,33,456
0.10300,2.94000,-4.55000,0.00000,0.01635,0.97100,-0.20972,2023,6,12,10,31,33,467
0.10310,3.01000,-4.79500,0.00000,0.01769,0.97271,-0.21277,2023,6,12,10,31,33,478
0.10320,2.87000,-4.72500,0.00000,0.01415,0.97039,-0.20984,2023,6,12,10,31,33,489
0.10330,3.09750,-4.56750,0.00000,0.01513,0.97197,-0.21106,2023,6,12,10,31,33,500
0.10340,2.85250,-4.58500,0.00000,0.01635,0.97039,-0.21094,2023,6,12,10,31,33,511
0.10350,2.71250,-4.55000,0.00000,0.01708,0.97112,-0.21350,2023,6,12,10,31,33,522
0.10360,2.99250,-4.60250,0.00000,0.01769,0.97039,-0.21106,2023,6,12,10,31,33,534
0.10370,2.85250,-4.51500,0.00000,0.01720,0.97136,-0.21228,2023,6,12,10,31,33,545
0.10380,3.08000,-4.49750,0.00000,0.01586,0.97368,-0.21130,2023,6,12,10,31,33,556
0.10390,2.95750,-4.56750,0.00000,0.01513,0.97258,-0.21033,2023,6,12,10,31,33,567
0.10400,2.97500,-4.62000,0.00000,0.01501,0.97197,-0.20935,2023,6,12,10,31,33,578
0.10410,2.81750,-4.37500,0.00000,0.01793,0.97319,-0.21082,2023,6,12,10,31,33,589
0.10420,3.11500,-4.70750,0.00000,0.01318,0.97051,-0.21130,2023,6,12,10,31,33,600
0.10430,2.95750,-4.81250,0.00000,0.01623,0.97185,-0.21130,2023,6,12,10,31,33,611
0.10440,2.97500,-4.51500,0.00000,0.01427,0.97210,-0.20972,2023,6,12,10,31,33,622
0.10450,2.83500,-4.56750,0.00000,0.01623,0.97112,-0.21143,2023,6,12,10,31,33,634
0.10460,2.83500,-4.49750,0.00000,0.01623,0.97417,-0.20911,2023,6,12,10,31,33,645
0.10470,2.83500,-4.74250,0.00000,0.01635,0.97075,-0.20764,2023,6,12,10,31,33,656
0.10480,2.92250,-4.58500,0.00000,0.01623,0.97417,-0.21130,2023,6,12,10,31,33,667
0.10490,2.78250,-4.67250,0.00000,0.01464,0.97088,-0.21033,2023,6,12,10,31,33,678
0.10500,3.25500,-4.70750,0.00000,0.01757,0.96978,-0.21069,2023,6,12,10,31,33,689
0.10510,3.04500,-4.60250,0.00000,0.01464,0.97149,-0.21033,2023,6,12,10,31,33,700
0.10520,2.97500,-4.62000,0.00000,0.01867,0.97100,-0.21167,2023,6,12,10,31,33,711
0.10530,2.83500,-4.56750,0.00000,0.01513,0.97039,-0.21216,2023,6,12,10,31,33,722
0.10540,2.97500,-4.55000,0.00000,0.01562,0.96905,-0.21094,2023,6,12,10,31,33,734
0.10550,2.94000,-4.67250,0.00000,0.01598,0.97307,-0.21118,2023,6,12,10,31,33,745
0.10560,2.85250,-4.49750,0.00000,0.01635,0.97246,-0.21045,2023,6,12,10,31,33,756
0.10570,2.85250,-4.53250,0.00000,0.01610,0.97100,-0.21106,2023,6,12,10,31,33,767
0.10580,2.73000,-4.48000,0.00000,0.01562,0.97063,-0.20862,2023,6,12,10,31,33,778
0.10590,2.94000,-4.67250,0.00000,0.01647,0.97197,-0.20862,2023,6,12,10,31,33,789
0.10600,3.04500,-4.55000,0.00000,0.01464,0.97027,-0.21094,2023,6,12,10,31,33,800
0.10610,2.90500,-4.55000,0.00000,0.01696,0.97136,-0.20899,2023,6,12,10,31,33,811
0.10620,2.78250,-4.58500,0.00000,0.01671,0.97197,-0.20801,2023,6,12,10,31,33,822
0.10630,2.80000,-4.46250,0.00000,0.01549,0.97161,-0.21118,2023,6,12,10,31,33,834
0.10640,2.90500,-4.62000,0.00000,0.01464,0.97136,-0.21008,2023,6,12,10,31,33,845
0.10650,2.67750,-4.48000,0.00000,0.01684,0.97185,-0.20911,2023,6,12,10,31,33,856
0.10660,2.81750,-4.39250,0.00000,0.01867,0.97039,-0.21069,2023,6,12,10,31,33,867
0.10670,2.90500,-4.37500,0.00000,0.01806,0.97222,-0.21106,2023,6,12,10,31,33,878
0.10680,2.81750,-4.65500,0.00000,0.01671,0.97332,-0.20996,2023,6,12,10,31,33,889
0.10690,2.81750,-4.46250,0.00000,0.01366,0.97161,-0.20972,2023,6,12,10,31,33,900
0.10700,2.92250,-4.48000,0.00000,0.01452,0.97234,-0.21155,2023,6,12,10,31,33,911
0.10710,3.02750,-4.83000,0.00000,0.01537,0.97319,-0.21118,2023,6,12,10,31,33,922
0.10720,2.95750,-4.63750,0.00000,0.01867,0.97063,-0.20886,2023,6,12,10,31,33,934
0.10730,2.87000,-4.65500,0.00000,0.01440,0.96966,-0.21118,2023,6,12,10,31,33,945
0.10740,3.01000,-4.34000,0.00000,0.01732,0.97088,-0.21240,2023,6,12,10,31,33,956
0.10750,2.87000,-4.41000,0.00000,0.01635,0.97124,-0.21130,2023,6,12,10,31,33,967
0.10760,2.94000,-4.48000,0.00000,0.01537,0.97246,-0.21069,2023,6,12,10,31,34,8
0.10770,2.81750,-4.51500,0.00000,0.01464,0.97075,-0.21021,2023,6,12,10,31,34,19
0.10780,2.92250,-4.60250,0.00000,0.01574,0.97051,-0.21179,2023,6,12,10,31,34,30
0.10790,3.06250,-4.55000,0.00000,0.01781,0.97295,-0.21301,2023,6,12,10,31,34,41
0.10800,2.69500,-4.44500,0.00000,0.01562,0.97075,-0.21082,2023,6,12,10,31,34,52
0.10810,2.88750,-4.46250,0.00000,0.01708,0.97344,-0.20972,2023,6,12,10,31,34,64
0.10820,2.87000,-4.37500,0.00000,0.01574,0.97075,-0.21130,2023,6,12,10,31,34,75
0.10830,2.83500,-4.44500,0.00000,0.01671,0.97271,-0.21021,2023,6,12,10,31,34,86
0.10840,2.88750,-4.58500,0.00000,0.01476,0.97197,-0.21082,2023,6,12,10,31,34,97
0.10850,2.87000,-4.39250,0.00000,0.01647,0.97100,-0.21082,2023,6,12,10,31,34,108
0.10860,2.88750,-4.48000,0.00000,0.01586,0.97210,-0.21069,2023,6,12,10,31,34,119
0.10870,2.76500,-4.56750,0.00000,0.01659,0.97210,-0.20972,2023,6,12,10,31,34,130
0.10880,3.04500,-4.62000,0.00000,0.01610,0.97100,-0.20923,2023,6,12,10,31,34,141
0.10890,2.88750,-4.60250,0.00000,0.01842,0.97295,-0.21008,2023,6,12,10,31,34,152
0.10900,2.74750,-4.37500,0.00000,0.01586,0.97246,-0.21033,2023,6,12,10,31,34,164
0.10910,2.94000,-4.63750,0.00000,0.01732,0.97063,-0.20838,2023,6,12,10,31,34,175
0.10920,2.74750,-4.60250,0.00000,0.01586,0.97173,-0.21143,2023,6,12,10,31,34,186
0.10930,2.88750,-4.49750,0.00000,0.01623,0.96905,-0.21204,2023,6,12,10,31,34,197
0.10940,2.99250,-4.51500,0.00000,0.01488,0.97185,-0.21240,2023,6,12,10,31,34,208
0.10950,2.81750,-4.63750,0.00000,0.01671,0.97112,-0.20960,2023,6,12,10,31,34,219
0.10960,2.88750,-4.60250,0.00000,0.01806,0.97368,-0.20911,2023,6,12,10,31,34,230
0.10970,2.80000,-4.53250,0.00000,0.01696,0.97210,-0.20862,2023,6,12,10,31,34,241
0.10980,2.71250,-4.72500,0.00000,0.01464,0.97234,-0.20923,2023,6,12,10,31,34,252
0.10990,3.06250,-4.60250,0.00000,0.01525,0.97307,-0.21082,2023,6,12,10,31,34,264
0.11000,3.01000,-4.67250,0.00000,0.01623,0.97344,-0.20984,2023,6,12,10,31,34,275
0.11010,3.01000,-4.48000,0.00000,0.01623,0.97319,-0.21094,2023,6,12,10,31,34,286
0.11020,2.85250,-4.62000,0.00000,0.01635,0.97149,-0.20886,2023,6,12,10,31,34,297
0.11030,2.94000,-4.53250,0.00000,0.01623,0.97149,-0.21118,2023,6,12,10,31,34,308
0.11040,2.59000,-4.46250,0.00000,0.01732,0.97002,-0.20886,2023,6,12,10,31,34,319
0.11050,2.99250,-4.60250,0.00000,0.01671,0.96966,-0.21069,2023,6,12,10,31,34,330
0.11060,3.11500,-4.55000,0.00000,0.01830,0.96941,-0.21191,2023,6,12,10,31,34,341
0.11070,2.90500,-4.77750,0.00000,0.01635,0.97271,-0.21155,2023,6,12,10,31,34,352
0.11080,3.06250,-4.55000,0.00000,0.01586,0.97136,-0.21033,2023,6,12,10,31,34,364
0.11090,2.90500,-4.48000,0.00000,0.01537,0.97246,-0.21130,2023,6,12,10,31,34,375
0.11100,2.94000,-4.58500,0.00000,0.01537,0.97100,-0.21216,2023,6,12,10,31,34,386
0.11110,2.95750,-4.60250,0.00000,0.01818,0.97185,-0.20960,2023,6,12,10,31,34,397
0.11120,2.73000,-4.44500,0.00000,0.01513,0.97149,-0.21313,2023,6,12,10,31,34,408
0.11130,2.90500,-4.53250,0.00000,0.01586,0.97027,-0.21130,2023,6,12,10,31,34,419
0.11140,2.87000,-4.53250,0.00000,0.01452,0.97185,-0.21130,2023,6,12,10,31,34,430
0.11150,2.90500,-4.60250,0.00000,0.01854,0.97295,-0.21094,2023,6,12,10,31,34,441
0.11160,2.94000,-4.72500,0.00000,0.01452,0.97222,-0.21216,2023,6,12,10,31,34,452
0.11170,2.81750,-4.56750,0.00000,0.01476,0.97234,-0.21082,2023,6,12,10,31,34,464
0.11180,2.66000,-4.37500,0.00000,0.01623,0.97149,-0.20947,2023,6,12,10,31,34,475
0.11190,2.69500,-4.48000,0.00000,0.01403,0.97002,-0.21033,2023,6,12,10,31,34,486
0.11200,2.83500,-4.51500,0.00000,0.01757,0.97210,-0.21021,2023,6,12,10,31,34,497
0.11210,3.06250,-4.56750,0.00000,0.01598,0.97149,-0.20972,2023,6,12,10,31,34,508
0.11220,2.85250,-4.69000,0.00000,0.01623,0.97112,-0.20874,2023,6,12,10,31,34,519
0.11230,2.95750,-4.39250,0.00000,0.01708,0.97173,-0.20801,2023,6,12,10,31,34,530
0.11240,2.74750,-4.56750,0.00000,0.01708,0.97161,-0.21008,2023,6,12,10,31,34,541
0.11250,2.90500,-4.23500,0.00000,0.01647,0.97075,-0.20984,2023,6,12,10,31,34,552
0.11260,2.88750,-4.65500,0.00000,0.01647,0.97222,-0.21069,2023,6,12,10,31,34,564
0.11270,2.73000,-4.62000,0.00000,0.01757,0.97100,-0.21082,2023,6,12,10,31,34,575
0.11280,2.87000,-4.62000,0.00000,0.01488,0.97100,-0.21008,2023,6,12,10,31,34,586
0.11290,2.94000,-4.67250,0.00000,0.01562,0.96941,-0.21033,2023,6,12,10,31,34,597
0.11300,3.09750,-4.44500,0.00000,0.01525,0.97014,-0.21216,2023,6,12,10,31,34,608
0.11310,2.83500,-4.44500,0.00000,0.01574,0.96978,-0.20923,2023,6,12,10,31,34,619
0.11320,2.83500,-4.58500,0.00000,0.01379,0.97136,-0.21008,2023,6,12,10,31,34,630
0.11330,2.92250,-4.42750,0.00000,0.01610,0.97185,-0.21069,2023,6,12,10,31,34,641
0.11340,2.73000,-4.63750,0.00000,0.01464,0.96953,-0.20947,2023,6,12,10,31,34,652
0.11350,2.69500,-4.49750,0.00000,0.01696,0.97075,-0.21069,2023,6,12,10,31,34,664
0.11360,2.94000,-4.79500,0.00000,0.01623,0.97344,-0.21021,2023,6,12,10,31,34,675
0.11370,2.87000,-4.42750,0.00000,0.01440,0.97246,-0.21204,2023,6,12,10,31,34,686
0.11380,2.81750,-4.49750,0.00000,0.01696,0.97124,-0.20923,2023,6,12,10,31,34,697
0.11390,2.88750,-4.60250,0.00000,0.01610,0.97319,-0.21033,2023,6,12,10,31,34,708
0.11400,2.80000,-4.53250,0.00000,0.01696,0.97149,-0.20874,2023,6,12,10,31,34,719
0.11410,2.85250,-4.42750,0.00000,0.01379,0.97173,-0.21094,2023,6,12,10,31,34,730
0.11420,2.80000,-4.62000,0.00000,0.01684,0.97246,-0.20984,2023,6,12,10,31,34,741
0.11430,2.76500,-4.46250,0.00000,0.01537,0.97063,-0.21008,2023,6,12,10,31,34,752
0.11440,2.90500,-4.53250,0.00000,0.01415,0.97161,-0.20996,2023,6,12,10,31,34,764
0.11450,2.83500,-4.72500,0.00000,0.01488,0.96880,-0.21057,2023,6,12,10,31,34,775
0.11460,3.06250,-4.53250,0.00000,0.01501,0.97271,-0.20789,2023,6,12,10,31,34,786
0.11470,2.87000,-4.69000,0.00000,0.01781,0.97380,-0.20960,2023,6,12,10,31,34,797
0.11480,3.15000,-4.55000,0.00000,0.01452,0.97149,-0.21216,2023,6,12,10,31,34,808
0.11490,3.22000,-4.84750,0.00000,0.01915,0.97405,-0.21008,2023,6,12,10,31,34,819
0.11500,2.87000,-4.60250,0.00000,0.01415,0.97161,-0.20935,2023,6,12,10,31,34,830
0.11510,2.81750,-4.41000,0.00000,0.01647,0.97344,-0.21252,2023,6,12,10,31,34,841
0.11520,2.97500,-4.60250,0.00000,0.01757,0.97246,-0.21167,2023,6,12,10,31,34,852
0.11530,2.81750,-4.65500,0.00000,0.01671,0.97088,-0.21179,2023,6,12,10,31,34,864
0.11540,2.87000,-4.46250,0.00000,0.01708,0.97271,-0.20935,2023,6,12,10,31,34,875
0.11550,3.01000,-4.69000,0.00000,0.01476,0.97380,-0.21362,2023,6,12,10,31,34,886
0.11560,2.87000,-4.44500,0.00000,0.01732,0.97283,-0.21033,2023,6,12,10,31,34,897
0.11570,2.85250,-4.37500,0.00000,0.01708,0.97014,-0.21155,2023,6,12,10,31,34,908
0.11580,2.87000,-4.55000,0.00000,0.01696,0.97124,-0.21228,2023,6,12,10,31,34,919
0.11590,2.81750,-4.76000,0.00000,0.01623,0.96978,-0.21301,2023,6,12,10,31,34,930
0.11600,2.92250,-4.48000,0.00000,0.01513,0.97063,-0.21204,2023,6,12,10,31,34,941
0.11610,3.08000,-4.69000,0.00000,0.01745,0.97319,-0.21155,2023,6,12,10,31,34,952
0.11620,3.08000,-4.49750,0.00000,0.01647,0.97100,-0.21374,2023,6,12,10,31,34,964
0.11630,2.95750,-4.35750,0.00000,0.01330,0.97161,-0.21277,2023,6,12,10,31,34,975
0.11640,2.76500,-4.44500,0.00000,0.01720,0.97307,-0.21167,2023,6,12,10,31,35,6
0.11650,2.94000,-4.76000,0.00000,0.01623,0.97039,-0.21106,2023,6,12,10,31,35,17
0.11660,3.02750,-4.49750,0.00000,0.01586,0.96990,-0.21374,2023,6,12,10,31,35,28
0.11670,2.87000,-4.46250,0.00000,0.01427,0.97210,-0.20960,2023,6,12,10,31,35,39
0.11680,2.90500,-4.65500,0.00000,0.01562,0.96868,-0.21167,2023,6,12,10,31,35,50
0.11690,2.90500,-4.69000,0.00000,0.01537,0.97197,-0.20801,2023,6,12,10,31,35,61
0.11700,2.88750,-4.32250,0.00000,0.01464,0.97063,-0.21033,2023,6,12,10,31,35,72
0.11710,2.94000,-4.35750,0.00000,0.01732,0.97246,-0.20862,2023,6,12,10,31,35,84
0.11720,2.83500,-4.69000,0.00000,0.01537,0.97222,-0.20984,2023,6,12,10,31,35,95
0.11730,3.13250,-4.62000,0.00000,0.01562,0.97551,-0.21265,2023,6,12,10,31,35,106
0.11740,2.90500,-4.53250,0.00000,0.01647,0.97136,-0.21045,2023,6,12,10,31,35,117
0.11750,3.22000,-4.70750,0.00000,0.01464,0.97185,-0.21338,2023,6,12,10,31,35,128
0.11760,2.87000,-4.62000,0.00000,0.01647,0.97173,-0.21130,2023,6,12,10,31,35,139
0.11770,2.76500,-4.60250,0.00000,0.01354,0.97246,-0.21374,2023,6,12,10,31,35,150
0.11780,3.06250,-4.60250,0.00000,0.01610,0.97197,-0.21448,2023,6,12,10,31,35,161
0.11790,2.87000,-4.72500,0.00000,0.01598,0.97100,-0.21179,2023,6,12,10,31,35,172
0.11800,2.88750,-4.70750,0.00000,0.01806,0.97039,-0.21228,2023,6,12,10,31,35,184
0.11810,2.81750,-4.63750,0.00000,0.01586,0.97063,-0.21216,2023,6,12,10,31,35,195
0.11820,2.88750,-4.48000,0.00000,0.01671,0.97234,-0.21155,2023,6,12,10,31,35,206
0.11830,3.06250,-4.55000,0.00000,0.01659,0.97088,-0.21252,2023,6,12,10,31,35,217
0.11840,3.01000,-4.65500,0.00000,0.01513,0.97088,-0.21204,2023,6,12,10,31,35,228
0.11850,2.80000,-4.51500,0.00000,0.01684,0.97197,-0.21204,2023,6,12,10,31,35,239
0.11860,2.90500,-4.41000,0.00000,0.01635,0.97295,-0.21118,2023,6,12,10,31,35,250
0.11870,2.99250,-4.72500,0.00000,0.01745,0.97393,-0.21289,2023,6,12,10,31,35,261
0.11880,2.64250,-4.46250,0.00000,0.01635,0.97112,-0.21179,2023,6,12,10,31,35,272
0.11890,2.85250,-4.51500,0.00000,0.01354,0.97197,-0.21265,2023,6,12,10,31,35,284
0.11900,2.90500,-4.65500,0.00000,0.01610,0.97332,-0.21179,2023,6,12,10,31,35,295
0.11910,2.88750,-4.63750,0.00000,0.01513,0.97197,-0.21277,2023,6,12,10,31,35,306
0.11920,2.90500,-4.63750,0.00000,0.01562,0.97136,-0.21191,2023,6,12,10,31,35,317
0.11930,2.92250,-4.55000,0.00000,0.01769,0.96831,-0.21143,2023,6,12,10,31,35,328
0.11940,2.76500,-4.34000,0.00000,0.01610,0.97039,-0.21289,2023,6,12,10,31,35,339
0.11950,2.80000,-4.51500,0.00000,0.01732,0.97100,-0.21191,2023,6,12,10,31,35,350
0.11960,2.87000,-4.65500,0.00000,0.01623,0.97258,-0.20972,2023,6,12,10,31,35,361
0.11970,2.73000,-4.44500,0.00000,0.01720,0.97307,-0.21069,2023,6,12,10,31,35,372
0.11980,2.85250,-4.41000,0.00000,0.01525,0.97258,-0.21191,2023,6,12,10,31,35,384
0.11990,2.80000,-4.46250,0.00000,0.01610,0.97283,-0.21130,2023,6,12,10,31,35,395
0.12000,2.78250,-4.44500,0.00000,0.01574,0.97161,-0.21143,2023,6,12,10,31,35,406
0.12010,2.94000,-4.67250,0.00000,0.01684,0.97051,-0.21118,2023,6,12,10,31,35,417
0.12020,2.97500,-4.55000,0.00000,0.01623,0.97063,-0.21021,2023,6,12,10,31,35,428
0.12030,2.80000,-4.53250,0.00000,0.01403,0.97258,-0.21265,2023,6,12,10,31,35,439
0.12040,2.73000,-4.48000,0.00000,0.01452,0.97088,-0.21094,2023,6,12,10,31,35,450
0.12050,2.80000,-4.55000,0.00000,0.01793,0.97429,-0.20960,2023,6,12,10,31,35,461
0.12060,3.13250,-4.60250,0.00000,0.01647,0.97161,-0.21033,2023,6,12,10,31,35,472
0.12070,2.95750,-4.39250,0.00000,0.01671,0.97234,-0.21216,2023,6,12,10,31,35,484
0.12080,2.73000,-4.55000,0.00000,0.01635,0.97405,-0.21069,2023,6,12,10,31,35,495
0.12090,2.74750,-4.60250,0.00000,0.01537,0.97027,-0.20935,2023,6,12,10,31,35,506
0.12100,3.08000,-4.58500,0.00000,0.01427,0.96905,-0.21228,2023,6,12,10,31,35,517
0.12110,2.87000,-4.51500,0.00000,0.01562,0.97319,-0.21301,2023,6,12,10,31,35,528
0.12120,2.76500,-4.58500,0.00000,0.01391,0.97014,-0.21082,2023,6,12,10,31,35,539
0.12130,2.94000,-4.55000,0.00000,0.01781,0.97234,-0.21130,2023,6,12,10,31,35,550
0.12140,2.97500,-4.56750,0.00000,0.01720,0.97356,-0.21191,2023,6,12,10,31,35,561
0.12150,2.97500,-4.70750,0.00000,0.01708,0.97197,-0.21179,2023,6,12,10,31,35,572
0.12160,2.95750,-4.58500,0.00000,0.01598,0.97088,-0.21167,2023,6,12,10,31,35,584
0.12170,2.92250,-4.63750,0.00000,0.01391,0.97039,-0.21179,2023,6,12,10,31,35,595
0.12180,8.29500,0.01750,0.00000,-0.03270,0.97454,-0.22887,2023,6,12,10,31,35,606
0.12190,20.96500,9.38000,0.00000,-0.03123,0.93342,-0.23278,2023,6,12,10,31,35,617
0.12200,8.34750,8.97750,0.00000,-0.01952,1.09532,-0.68588,2023,6,12,10,31,35,628
0.12210,2.67750,3.78000,0.00000,-0.05722,0.89280,-0.22985,2023,6,12,10,31,35,639
0.12220,-14.12250,-6.30000,0.00000,-0.04014,1.35859,-0.53265,2023,6,12,10,31,35,650
0.12230,19.63500,-45.02750,0.00000,0.11761,1.42630,-0.57779,2023,6,12,10,31,35,661
0.12240,6.07250,-47.37250,0.00000,0.03367,0.87584,-0.41675,2023,6,12,10,31,35,672
0.12250,61.32000,-38.16750,0.00000,0.08601,1.37494,-0.87547,2023,6,12,10,31,35,684
0.12260,11.65500,-37.03000,0.00000,-0.03062,1.62211,-0.84534,2023,6,12,10,31,35,695
0.12270,7.05250,-41.00250,0.00000,0.01586,1.30796,-0.49825,2023,6,12,10,31,35,706
0.12280,-17.37750,-37.18750,0.00000,-0.06088,0.89926,0.20740,2023,6,12,10,31,35,717
0.12290,-17.37750,-30.74750,0.00000,-0.16775,1.27161,0.23058,2023,6,12,10,31,35,728
0.12300,36.80250,-33.35500,0.00000,0.08442,1.41715,-0.48605,2023,6,12,10,31,35,739
0.12310,16.81750,-32.69000,0.00000,0.05100,1.10203,-0.43481,2023,6,12,10,31,35,750
0.12320,21.82250,-28.70000,0.00000,-0.04355,1.19828,-0.05734,2023,6,12,10,31,35,761
0.12330,1.78500,-33.37250,0.00000,0.05649,0.96258,-0.32525,2023,6,12,10,31,35,772
0.12340,-49.77000,-30.29250,0.00000,-0.02940,0.47995,0.22753,2023,6,12,10,31,35,784
0.12350,3.32500,-28.82250,0.00000,0.03489,1.14155,-0.26596,2023,6,12,10,31,35,795
0.12360,12.02250,-27.40500,0.00000,-0.01623,1.29381,-0.44249,2023,6,12,10,31,35,806
0.12370,16.67750,-27.07250,0.00000,-0.04099,0.67417,-0.19496,2023,6,12,10,31,35,817
0.12380,1.80250,-25.07750,0.00000,0.01318,1.04151,-0.27182,2023,6,12,10,31,35,828
0.12390,29.64500,-27.30000,0.00000,0.03989,0.86376,-0.51935,2023,6,12,10,31,35,839
0.12400,33.00500,-25.63750,0.00000,0.12554,1.75790,-0.95038,2023,6,12,10,31,35,850
0.12410,-66.37750,-26.21500,0.00000,-0.04929,0.50630,0.17348,2023,6,12,10,31,35,861
0.12420,25.56750,-17.71000,0.00000,0.14298,1.19816,-0.68515,2023,6,12,10,31,35,872
0.12430,17.37750,-18.34000,0.00000,0.03318,1.04566,0.08955,2023,6,12,10,31,35,884
0.12440,17.43000,-11.79500,0.00000,0.17104,1.02736,-0.45970,2023,6,12,10,31,35,895
0.12450,11.95250,-8.15500,0.00000,0.16250,1.17791,-0.40053,2023,6,12,10,31,35,906
0.12460,-6.16000,-6.23000,0.00000,0.11322,1.35359,-0.61378,2023,6,12,10,31,35,917
0.12470,10.55250,-4.11250,0.00000,-0.05295,1.19633,-0.13505,2023,6,12,10,31,35,928
0.12480,-4.74250,-6.02000,0.00000,0.08735,1.27893,-0.39125,2023,6,12,10,31,35,939
0.12490,6.10750,-9.52000,0.00000,0.10102,0.90890,-0.21496,2023,6,12,10,31,35,950
0.12500,5.28500,-10.57000,0.00000,0.05014,0.97746,-0.12054,2023,6,12,10,31,35,961
0.12510,27.61500,-8.99500,0.00000,-0.01842,1.03724,-0.27377,2023,6,12,10,31,36,2
0.12520,-3.30750,-11.84750,0.00000,0.13420,0.90487,-0.12151,2023,6,12,10,31,36,14
0.12530,0.38500,5.67000,0.00000,-0.02086,1.00918,0.00683,2023,6,12,10,31,36,25
0.12540,-6.93000,-0.22750,0.00000,0.11663,0.96831,-0.19947,2023,6,12,10,31,36,36
0.12550,-5.16250,-1.66250,0.00000,-0.00378,0.97417,-0.07430,2023,6,12,10,31,36,47
0.12560,5.07500,-3.64000,0.00000,0.07210,0.98332,-0.22009,2023,6,12,10,31,36,58
0.12570,5.72250,-0.49000,0.00000,0.04514,0.96124,-0.04331,2023,6,12,10,31,36,69
0.12580,8.38250,4.25250,0.00000,0.03099,0.92879,-0.17434,2023,6,12,10,31,36,80
0.12590,-3.27250,-3.34250,0.00000,0.08930,0.93842,-0.28487,2023,6,12,10,31,36,91
0.12600,5.74000,8.64500,0.00000,0.03758,0.96587,-0.21618,2023,6,12,10,31,36,102
0.12610,5.51250,6.94750,0.00000,-0.03831,0.94892,-0.20899,2023,6,12,10,31,36,114
0.12620,-1.89000,6.80750,0.00000,-0.00598,0.99833,-0.12773,2023,6,12,10,31,36,125
0.12630,-2.25750,8.75000,0.00000,0.04660,0.98137,-0.20362,2023,6,12,10,31,36,136
0.12640,6.59750,13.52750,0.00000,0.01879,0.97624,-0.21094,2023,6,12,10,31,36,147
0.12650,2.87000,11.39250,0.00000,0.00586,0.97246,-0.24571,2023,6,12,10,31,36,158
0.12660,-21.87500,11.02500,0.00000,0.02721,0.97746,-0.23314,2023,6,12,10,31,36,169
0.12670,-24.58750,10.65750,0.00000,0.01122,0.96807,-0.20472,2023,6,12,10,31,36,180
0.12680,-24.65750,14.19250,0.00000,0.02416,0.97661,-0.18276,2023,6,12,10,31,36,191
0.12690,-14.92750,17.83250,0.00000,0.03038,0.98247,-0.16519,2023,6,12,10,31,36,202
0.12700,-12.60000,23.73000,0.00000,0.02342,0.96685,-0.18032,2023,6,12,10,31,36,214
0.12710,206.97250,14.43750,0.00000,0.01013,1.73752,-0.69613,2023,6,12,10,31,36,225
0.12720,30.11750,-2.31000,0.00000,-0.09382,0.78714,-0.48410,2023,6,12,10,31,36,236
0.12730,-63.24500,5.89750,0.00000,-0.12505,0.57377,0.04904,2023,6,12,10,31,36,247
0.12740,-249.95250,-5.93250,0.00000,0.00049,1.01150,-0.27060,2023,6,12,10,31,36,258
0.12750,318.43000,-13.28250,0.00000,0.16568,2.04960,-1.48864,2023,6,12,10,31,36,269
0.12760,93.20500,-42.36750,0.00000,-0.02318,0.71797,-0.32879,2023,6,12,10,31,36,280
0.12770,4.34000,-58.18750,0.00000,-0.12066,1.18011,-0.19093,2023,6,12,10,31,36,291
0.12780,-1.24250,-86.01250,0.00000,-0.04660,1.06177,-0.12993,2023,6,12,10,31,36,302
0.12790,26.12750,-62.59750,0.00000,0.06771,0.89755,0.44542,2023,6,12,10,31,36,314
0.12800,-53.51500,-24.22000,0.00000,-0.00366,0.82972,0.48458,2023,6,12,10,31,36,325
0.12810,5.09250,5.74000,0.00000,-0.03184,0.89487,0.19471,2023,6,12,10,31,36,336
0.12820,-1.22500,14.87500,0.00000,0.03209,0.99894,-0.10260,2023,6,12,10,31,36,347
0.12830,-2.57250,8.26000,0.00000,0.04490,0.98783,-0.21057,2023,6,12,10,31,36,358
0.12840,10.22000,7.07000,0.00000,0.02257,0.96648,-0.28755,2023,6,12,10,31,36,369
0.12850,-3.32500,6.86000,0.00000,0.03282,0.91939,-0.12176,2023,6,12,10,31,36,380
0.12860,-10.32500,4.16500,0.00000,0.00610,0.94245,-0.03331,2023,6,12,10,31,36,391
0.12870,5.12750,5.02250,0.00000,0.05014,0.97942,-0.29768,2023,6,12,10,31,36,402
0.12880,2.88750,8.66250,0.00000,0.01586,0.95721,-0.16165,2023,6,12,10,31,36,414
0.12890,2.62500,15.22500,0.00000,-0.00586,0.96600,-0.01635,2023,6,12,10,31,36,425
0.12900,3.44750,14.01750,0.00000,-0.01818,0.97527,-0.18983,2023,6,12,10,31,36,436
0.12910,6.19500,11.63750,0.00000,0.05807,0.98198,-0.18434,2023,6,12,10,31,36,447
0.12920,11.14750,9.52000,0.00000,0.02940,0.86901,-0.11468,2023,6,12,10,31,36,458
0.12930,-8.34750,9.94000,0.00000,0.02965,0.85363,0.08955,2023,6,12,10,31,36,469
0.12940,6.72000,26.98500,0.00000,-0.00537,1.11703,0.01940,2023,6,12,10,31,36,480
0.12950,-2.80000,36.22500,0.00000,0.03489,0.57621,0.33367,2023,6,12,10,31,36,491
0.12960,-56.63000,46.67250,0.00000,0.03050,0.76238,0.38759,2023,6,12,10,31,36,502
0.12970,-16.74750,48.12500,0.00000,0.01562,0.61708,0.10541,2023,6,12,10,31,36,514
0.12980,7.85750,50.97750,0.00000,0.01037,1.10605,-0.51228,2023,6,12,10,31,36,525
0.12990,24.86750,46.63750,0.00000,-0.08015,1.00894,-0.16714,2023,6,12,10,31,36,536
0.13000,13.80750,37.50250,0.00000,0.05075,1.10471,-0.40065,2023,6,12,10,31,36,547
0.13010,-10.22000,30.25750,0.00000,0.01793,0.74603,0.14652,2023,6,12,10,31,36,558
0.13020,-18.53250,16.60750,0.00000,0.04880,0.76799,-0.17910,2023,6,12,10,31,36,569
0.13030,1.15500,9.85250,0.00000,0.03977,0.90317,-0.23839,2023,6,12,10,31,36,580
0.13040,13.42250,4.20000,0.00000,-0.02013,0.97393,-0.30988,2023,6,12,10,31,36,591
0.13050,3.72750,3.09750,0.00000,0.03062,0.96173,-0.27596,2023,6,12,10,31,36,602
0.13060,5.16250,-5.56500,0.00000,0.01586,0.94721,-0.27047,2023,6,12,10,31,36,614
0.13070,-15.97750,-5.54750,0.00000,0.01464,0.97807,-0.06710,2023,6,12,10,31,36,625
0.13080,4.18250,-3.62250,0.00000,-0.00769,0.95001,-0.20813,2023,6,12,10,31,36,636
0.13090,3.09750,-4.76000,0.00000,0.00769,0.97246,-0.21667,2023,6,12,10,31,36,647
0.13100,9.15250,-8.19000,0.00000,0.06246,0.97014,-0.23863,2023,6,12,10,31,36,658
0.13110,14.07000,-8.90750,0.00000,0.01830,0.96783,-0.23790,2023,6,12,10,31,36,669
0.13120,8.97750,-7.61250,0.00000,-0.00281,0.96038,-0.22253,2023,6,12,10,31,36,680
0.13130,10.43000,-7.96250,0.00000,0.00012,0.97088,-0.21045,2023,6,12,10,31,36,691
0.13140,8.13750,-10.23750,0.00000,-0.02879,0.95733,-0.25034,2023,6,12,10,31,36,702
0.13150,-2.55500,-8.73250,0.00000,0.01513,0.95855,-0.23814,2023,6,12,10,31,36,714
0.13160,-12.18000,-10.64000,0.00000,0.03331,0.93330,-0.25413,2023,6,12,10,31,36,725
0.13170,13.21250,-28.19250,0.00000,0.08137,0.90902,-0.33757,2023,6,12,10,31,36,736
0.13180,-6.23000,-36.99500,0.00000,0.02318,0.93659,-0.12371,2023,6,12,10,31,36,747
0.13190,4.25250,-32.70750,0.00000,-0.00110,0.97466,-0.20752,2023,6,12,10,31,36,758
0.13200,2.55500,-28.14000,0.00000,-0.02843,0.95611,-0.16519,2023,6,12,10,31,36,769
0.13210,0.08750,-21.80500,0.00000,0.00622,0.95685,-0.22241,2023,6,12,10,31,36,780
0.13220,1.64500,-12.44250,0.00000,-0.02635,0.97380,-0.19642,2023,6,12,10,31,36,791
0.13230,4.02500,-5.21500,0.00000,0.00146,0.96429,-0.21704,2023,6,12,10,31,36,802
0.13240,1.76750,-4.13000,0.00000,0.01366,0.97088,-0.22716,2023,6,12,10,31,36,814
0.13250,3.90250,-4.90000,0.00000,0.01305,0.96868,-0.22155,2023,6,12,10,31,36,825
0.13260,3.04500,-5.21500,0.00000,0.00854,0.96734,-0.22607,2023,6,12,10,31,36,836
0.13270,2.41500,-4.84750,0.00000,0.01354,0.96941,-0.21789,2023,6,12,10,31,36,847
0.13280,3.20250,-5.53000,0.00000,0.01110,0.97039,-0.22045,2023,6,12,10,31,36,858
0.13290,2.67750,-5.21500,0.00000,0.01086,0.96917,-0.22131,2023,6,12,10,31,36,869
0.13300,2.69500,-4.90000,0.00000,0.01159,0.97136,-0.22009,2023,6,12,10,31,36,880
0.13310,2.90500,-5.09250,0.00000,0.01122,0.96831,-0.21960,2023,6,12,10,31,36,891
0.13320,2.52000,-4.63750,0.00000,0.01074,0.96905,-0.22131,2023,6,12,10,31,36,902
0.13330,2.90500,-4.97000,0.00000,0.01342,0.96966,-0.22106,2023,6,12,10,31,36,914
0.13340,2.83500,-4.74250,0.00000,0.00927,0.97014,-0.21923,2023,6,12,10,31,36,925
0.13350,2.71250,-4.88250,0.00000,0.01049,0.97149,-0.21667,2023,6,12,10,31,36,936
0.13360,2.83500,-4.76000,0.00000,0.00976,0.96978,-0.21887,2023,6,12,10,31,36,947
0.13370,3.11500,-5.02250,0.00000,0.01379,0.97051,-0.21972,2023,6,12,10,31,36,958
0.13380,2.83500,-4.81250,0.00000,0.01220,0.96990,-0.21826,2023,6,12,10,31,36,969
0.13390,2.69500,-4.62000,0.00000,0.01171,0.96953,-0.21936,2023,6,12,10,31,36,980
0.13400,2.95750,-4.81250,0.00000,0.01061,0.96978,-0.21887,2023,6,12,10,31,37,1
0.13410,2.62500,-4.81250,0.00000,0.01049,0.97149,-0.21948,2023,6,12,10,31,37,12
0.13420,2.90500,-5.05750,0.00000,0.01061,0.96783,-0.22094,2023,6,12,10,31,37,24
0.13430,2.76500,-4.97000,0.00000,0.01183,0.96917,-0.21899,2023,6,12,10,31,37,35
0.13440,2.64250,-4.79500,0.00000,0.01135,0.96868,-0.21936,2023,6,12,10,31,37,46
0.13450,2.92250,-4.83000,0.00000,0.01122,0.96844,-0.21826,2023,6,12,10,31,37,57
0.13460,2.85250,-4.67250,0.00000,0.01220,0.97124,-0.21826,2023,6,12,10,31,37,68
0.13470,3.11500,-4.98750,0.00000,0.00976,0.96978,-0.22082,2023,6,12,10,31,37,79
0.13480,2.83500,-4.76000,0.00000,0.01049,0.96819,-0.22143,2023,6,12,10,31,37,90
0.13490,3.13250,-4.77750,0.00000,0.00891,0.96892,-0.21875,2023,6,12,10,31,37,101
0.13500,2.92250,-4.58500,0.00000,0.01110,0.96722,-0.21801,2023,6,12,10,31,37,112
0.13510,2.90500,-4.65500,0.00000,0.01098,0.97075,-0.22106,2023,6,12,10,31,37,124
0.13520,2.92250,-4.49750,0.00000,0.01086,0.96917,-0.21704,2023,6,12,10,31,37,135
0.13530,3.08000,-4.51500,0.00000,0.01196,0.96770,-0.21887,2023,6,12,10,31,37,146
0.13540,3.16750,-4.62000,0.00000,0.01135,0.96941,-0.21765,2023,6,12,10,31,37,157
0.13550,2.95750,-4.67250,0.00000,0.00988,0.96624,-0.22082,2023,6,12,10,31,37,168
0.13560,2.97500,-4.49750,0.00000,0.00891,0.96905,-0.21948,2023,6,12,10,31,37,179
0.13570,2.92250,-4.74250,0.00000,0.01183,0.96966,-0.21862,2023,6,12,10,31,37,190
0.13580,2.88750,-4.46250,0.00000,0.01208,0.96966,-0.21765,2023,6,12,10,31,37,201
0.13590,2.97500,-4.67250,0.00000,0.01074,0.97039,-0.22045,2023,6,12,10,31,37,212
0.13600,2.80000,-4.55000,0.00000,0.01061,0.97002,-0.21923,2023,6,12,10,31,37,224
0.13610,2.87000,-4.51500,0.00000,0.01208,0.97039,-0.21826,2023,6,12,10,31,37,235
0.13620,3.04500,-4.65500,0.00000,0.00915,0.96831,-0.21972,2023,6,12,10,31,37,246
0.13630,2.81750,-4.67250,0.00000,0.01025,0.96734,-0.21875,2023,6,12,10,31,37,257
0.13640,2.87000,-4.62000,0.00000,0.01171,0.96941,-0.22021,2023,6,12,10,31,37,268
0.13650,2.99250,-4.60250,0.00000,0.01147,0.96880,-0.22033,2023,6,12,10,31,37,279
0.13660,3.06250,-4.79500,0.00000,0.01049,0.97027,-0.22094,2023,6,12,10,31,37,290
0.13670,2.87000,-4.76000,0.00000,0.01000,0.97014,-0.21911,2023,6,12,10,31,37,301
0.13680,2.92250,-4.58500,0.00000,0.01208,0.97002,-0.21728,2023,6,12,10,31,37,312
0.13690,2.90500,-4.51500,0.00000,0.01098,0.96819,-0.21789,2023,6,12,10,31,37,324
0.13700,2.85250,-4.76000,0.00000,0.01281,0.96929,-0.22143,2023,6,12,10,31,37,335
0.13710,2.81750,-4.67250,0.00000,0.00988,0.97051,-0.21960,2023,6,12,10,31,37,346
0.13720,2.94000,-4.79500,0.00000,0.00927,0.96905,-0.21972,2023,6,12,10,31,37,357
0.13730,2.87000,-4.63750,0.00000,0.00878,0.96966,-0.22167,2023,6,12,10,31,37,368
0.13740,3.04500,-4.70750,0.00000,0.01171,0.97075,-0.21923,2023,6,12,10,31,37,379
0.13750,2.99250,-4.72500,0.00000,0.01098,0.97063,-0.21997,2023,6,12,10,31,37,390
0.13760,2.92250,-4.56750,0.00000,0.00988,0.97063,-0.21838,2023,6,12,10,31,37,401
0.13770,2.76500,-4.56750,0.00000,0.01074,0.96990,-0.21948,2023,6,12,10,31,37,412
0.13780,2.69500,-4.51500,0.00000,0.01159,0.97027,-0.22204,2023,6,12,10,31,37,424
0.13790,3.04500,-4.56750,0.00000,0.01086,0.96929,-0.22094,2023,6,12,10,31,37,435
0.13800,2.90500,-4.49750,0.00000,0.00952,0.97002,-0.21936,2023,6,12,10,31,37,446
0.13810,2.85250,-4.69000,0.00000,0.00744,0.97124,-0.21838,2023,6,12,10,31,37,457
0.13820,2.87000,-4.76000,0.00000,0.00903,0.96892,-0.22021,2023,6,12,10,31,37,468
0.13830,2.83500,-4.58500,0.00000,0.01305,0.96953,-0.21838,2023,6,12,10,31,37,479
0.13840,3.09750,-4.81250,0.00000,0.01086,0.97136,-0.21850,2023,6,12,10,31,37,490
0.13850,2.97500,-4.60250,0.00000,0.00952,0.96795,-0.21899,2023,6,12,10,31,37,501
0.13860,2.87000,-4.49750,0.00000,0.01281,0.96905,-0.22167,2023,6,12,10,31,37,512
0.13870,2.73000,-4.44500,0.00000,0.01196,0.96868,-0.22021,2023,6,12,10,31,37,524
0.13880,3.09750,-4.53250,0.00000,0.00927,0.97088,-0.21740,2023,6,12,10,31,37,535
0.13890,2.71250,-4.49750,0.00000,0.00988,0.96795,-0.21618,2023,6,12,10,31,37,546
0.13900,2.85250,-4.62000,0.00000,0.00964,0.96929,-0.21801,2023,6,12,10,31,37,557
0.13910,2.69500,-4.44500,0.00000,0.01098,0.96831,-0.21838,2023,6,12,10,31,37,568
0.13920,2.87000,-4.39250,0.00000,0.01196,0.96990,-0.21740,2023,6,12,10,31,37,579
0.13930,2.88750,-4.51500,0.00000,0.00830,0.96880,-0.21948,2023,6,12,10,31,37,590
0.13940,3.02750,-4.88250,0.00000,0.01061,0.96722,-0.21789,2023,6,12,10,31,37,601
0.13950,2.71250,-4.49750,0.00000,0.01061,0.96929,-0.22021,2023,6,12,10,31,37,612
0.13960,2.87000,-4.69000,0.00000,0.00915,0.97027,-0.21948,2023,6,12,10,31,37,624
0.13970,3.01000,-4.74250,0.00000,0.01098,0.96795,-0.21826,2023,6,12,10,31,37,635
0.13980,2.99250,-4.67250,0.00000,0.01135,0.96953,-0.21740,2023,6,12,10,31,37,646
0.13990,2.83500,-4.44500,0.00000,0.00964,0.97063,-0.21972,2023,6,12,10,31,37,657
0.14000,3.01000,-4.60250,0.00000,0.01013,0.96990,-0.21862,2023,6,12,10,31,37,668
0.14010,3.01000,-4.69000,0.00000,0.00830,0.96783,-0.21899,2023,6,12,10,31,37,679
0.14020,2.92250,-4.53250,0.00000,0.01098,0.96953,-0.21875,2023,6,12,10,31,37,690
0.14030,2.85250,-4.51500,0.00000,0.01098,0.96978,-0.21936,2023,6,12,10,31,37,701
0.14040,2.85250,-4.49750,0.00000,0.00939,0.97014,-0.22106,2023,6,12,10,31,37,712
0.14050,2.83500,-4.60250,0.00000,0.01159,0.96917,-0.22155,2023,6,12,10,31,37,724
0.14060,3.02750,-4.58500,0.00000,0.01061,0.97136,-0.22106,2023,6,12,10,31,37,735
0.14070,2.90500,-4.65500,0.00000,0.00964,0.96844,-0.21801,2023,6,12,10,31,37,746
0.14080,2.81750,-4.55000,0.00000,0.01013,0.96783,-0.22106,2023,6,12,10,31,37,757
0.14090,2.83500,-4.69000,0.00000,0.01000,0.97063,-0.21948,2023,6,12,10,31,37,768
0.14100,2.85250,-4.53250,0.00000,0.00952,0.96990,-0.21850,2023,6,12,10,31,37,779
0.14110,2.76500,-4.70750,0.00000,0.01049,0.97014,-0.21923,2023,6,12,10,31,37,790
0.14120,2.73000,-4.51500,0.00000,0.01037,0.96831,-0.21936,2023,6,12,10,31,37,801
0.14130,2.94000,-4.60250,0.00000,0.00744,0.97051,-0.21826,2023,6,12,10,31,37,812
0.14140,2.85250,-4.58500,0.00000,0.01135,0.97100,-0.21826,2023,6,12,10,31,37,824
0.14150,3.02750,-4.67250,0.00000,0.01196,0.97051,-0.21936,2023,6,12,10,31,37,835
0.14160,2.95750,-4.69000,0.00000,0.00866,0.96758,-0.21789,2023,6,12,10,31,37,846
0.14170,3.09750,-4.51500,0.00000,0.01013,0.96990,-0.22082,2023,6,12,10,31,37,857
0.14180,3.08000,-4.62000,0.00000,0.01013,0.96917,-0.22192,2023,6,12,10,31,37,868
0.14190,3.02750,-4.44500,0.00000,0.01171,0.97124,-0.21948,2023,6,12,10,31,37,879
0.14200,2.88750,-4.60250,0.00000,0.01147,0.96807,-0.22119,2023,6,12,10,31,37,890
0.14210,2.90500,-4.56750,0.00000,0.01000,0.96917,-0.22009,2023,6,12,10,31,37,901
0.14220,2.90500,-4.56750,0.00000,0.01110,0.96648,-0.21777,2023,6,12,10,31,37,912
0.14230,2.99250,-4.62000,0.00000,0.01000,0.96856,-0.21960,2023,6,12,10,31,37,924
0.14240,2.94000,-4.70750,0.00000,0.01269,0.96941,-0.21875,2023,6,12,10,31,37,935
0.14250,2.97500,-4.62000,0.00000,0.01208,0.96709,-0.22131,2023,6,12,10,31,37,946
0.14260,2.92250,-4.69000,0.00000,0.00915,0.97234,-0.21875,2023,6,12,10,31,37,957
0.14270,2.81750,-4.74250,0.00000,0.01025,0.97027,-0.21740,2023,6,12,10,31,38,8
0.14280,2.92250,-4.65500,0.00000,0.01025,0.96722,-0.21679,2023,6,12,10,31,38,19
0.14290,2.73000,-4.55000,0.00000,0.01196,0.96770,-0.21997,2023,6,12,10,31,38,30
0.14300,2.94000,-4.44500,0.00000,0.01098,0.96978,-0.21838,2023,6,12,10,31,38,41
0.14310,2.95750,-4.46250,0.00000,0.01049,0.97051,-0.21606,2023,6,12,10,31,38,52
0.14320,2.90500,-4.76000,0.00000,0.00976,0.97002,-0.21765,2023,6,12,10,31,38,64
0.14330,2.92250,-4.76000,0.00000,0.01049,0.96917,-0.21997,2023,6,12,10,31,38,75
0.14340,2.97500,-4.44500,0.00000,0.00988,0.96856,-0.21679,2023,6,12,10,31,38,86
0.14350,3.04500,-4.69000,0.00000,0.01049,0.97100,-0.21899,2023,6,12,10,31,38,97
0.14360,2.92250,-4.53250,0.00000,0.00964,0.96978,-0.22143,2023,6,12,10,31,38,108
0.14370,2.83500,-4.56750,0.00000,0.01061,0.97063,-0.21948,2023,6,12,10,31,38,119
0.14380,2.81750,-4.63750,0.00000,0.00878,0.96758,-0.21838,2023,6,12,10,31,38,130
0.14390,2.92250,-4.67250,0.00000,0.00915,0.97075,-0.21875,2023,6,12,10,31,38,141
0.14400,3.02750,-4.34000,0.00000,0.01281,0.97014,-0.21984,2023,6,12,10,31,38,152
0.14410,2.67750,-4.44500,0.00000,0.01147,0.96917,-0.21984,2023,6,12,10,31,38,164
0.14420,2.85250,-4.63750,0.00000,0.01098,0.96648,-0.22021,2023,6,12,10,31,38,175
0.14430,3.01000,-4.63750,0.00000,0.01049,0.96917,-0.22155,2023,6,12,10,31,38,186
0.14440,3.06250,-4.53250,0.00000,0.00964,0.96819,-0.21862,2023,6,12,10,31,38,197
0.14450,2.99250,-4.41000,0.00000,0.01244,0.96978,-0.21850,2023,6,12,10,31,38,208
0.14460,3.15000,-4.51500,0.00000,0.00915,0.96953,-0.21728,2023,6,12,10,31,38,219
0.14470,2.88750,-4.67250,0.00000,0.01159,0.96758,-0.21850,2023,6,12,10,31,38,230
0.14480,3.01000,-4.67250,0.00000,0.00866,0.97075,-0.21923,2023,6,12,10,31,38,241
0.14490,2.87000,-4.42750,0.00000,0.00964,0.96892,-0.22192,2023,6,12,10,31,38,252
0.14500,2.97500,-4.60250,0.00000,0.00854,0.97088,-0.21801,2023,6,12,10,31,38,264
0.14510,2.81750,-4.37500,0.00000,0.01208,0.96929,-0.21984,2023,6,12,10,31,38,275
0.14520,2.95750,-4.63750,0.00000,0.01135,0.96941,-0.21972,2023,6,12,10,31,38,286
0.14530,2.92250,-4.67250,0.00000,0.01159,0.96966,-0.22216,2023,6,12,10,31,38,297
0.14540,2.88750,-4.65500,0.00000,0.01037,0.97063,-0.21936,2023,6,12,10,31,38,308
0.14550,2.76500,-4.48000,0.00000,0.01183,0.96966,-0.22131,2023,6,12,10,31,38,319
0.14560,2.97500,-4.69000,0.00000,0.01208,0.96868,-0.21887,2023,6,12,10,31,38,330
0.14570,2.85250,-4.58500,0.00000,0.01074,0.96831,-0.22045,2023,6,12,10,31,38,341
0.14580,2.85250,-4.58500,0.00000,0.01086,0.96917,-0.21948,2023,6,12,10,31,38,352
0.14590,2.94000,-4.51500,0.00000,0.01269,0.97112,-0.21936,2023,6,12,10,31,38,364
0.14600,3.08000,-4.58500,0.00000,0.00952,0.96880,-0.21960,2023,6,12,10,31,38,375
0.14610,2.73000,-4.51500,0.00000,0.00915,0.97271,-0.21923,2023,6,12,10,31,38,386
0.14620,2.90500,-4.55000,0.00000,0.01037,0.96892,-0.22082,2023,6,12,10,31,38,397
0.14630,2.81750,-4.63750,0.00000,0.01366,0.96953,-0.22082,2023,6,12,10,31,38,408
0.14640,3.04500,-4.79500,0.00000,0.00988,0.97002,-0.21923,2023,6,12,10,31,38,419
0.14650,2.80000,-4.55000,0.00000,0.01086,0.97027,-0.21911,2023,6,12,10,31,38,430
0.14660,2.97500,-4.60250,0.00000,0.01098,0.96892,-0.21850,2023,6,12,10,31,38,441
0.14670,3.08000,-4.69000,0.00000,0.01171,0.97063,-0.22082,2023,6,12,10,31,38,452
0.14680,3.01000,-4.63750,0.00000,0.01025,0.97112,-0.22082,2023,6,12,10,31,38,464
0.14690,2.95750,-4.62000,0.00000,0.01135,0.97039,-0.21826,2023,6,12,10,31,38,475
0.14700,3.04500,-4.70750,0.00000,0.01013,0.97051,-0.21753,2023,6,12,10,31,38,486
0.14710,3.06250,-4.83000,0.00000,0.01013,0.96953,-0.21875,2023,6,12,10,31,38,497
0.14720,3.01000,-4.58500,0.00000,0.00964,0.97075,-0.21923,2023,6,12,10,31,38,508
0.14730,2.95750,-4.39250,0.00000,0.01013,0.97222,-0.21826,2023,6,12,10,31,38,519
0.14740,2.97500,-4.48000,0.00000,0.00952,0.96783,-0.21740,2023,6,12,10,31,38,530
0.14750,2.88750,-4.41000,0.00000,0.01147,0.96783,-0.22009,2023,6,12,10,31,38,541
0.14760,2.87000,-4.51500,0.00000,0.01281,0.96917,-0.21887,2023,6,12,10,31,38,552
0.14770,2.80000,-4.58500,0.00000,0.01049,0.96990,-0.22082,2023,6,12,10,31,38,564
0.14780,3.06250,-4.67250,0.00000,0.00964,0.96892,-0.21777,2023,6,12,10,31,38,575
0.14790,2.66000,-4.60250,0.00000,0.01074,0.97014,-0.21679,2023,6,12,10,31,38,586
0.14800,2.92250,-4.51500,0.00000,0.01098,0.96795,-0.21887,2023,6,12,10,31,38,597
