#2023/06/12 13:24:17
time,wx,wy,wz,ax,ay,az,yy,MM,dd,hh,mm,ss,ms
0.00000,2.88750,-4.65500,0.00000,-0.00842,0.02086,-0.98869,2023,6,12,13,24,17,356
0.00010,2.92250,-4.56750,0.00000,-0.00683,0.02245,-0.98783,2023,6,12,13,24,17,367
0.00020,3.02750,-4.67250,0.00000,-0.00683,0.02025,-0.98808,2023,6,12,13,24,17,378
0.00030,2.92250,-4.46250,0.00000,-0.00610,0.02147,-0.98930,2023,6,12,13,24,17,389
0.00040,2.90500,-4.60250,0.00000,-0.00744,0.01891,-0.98735,2023,6,12,13,24,17,400
0.00050,2.97500,-4.72500,0.00000,-0.00537,0.02123,-0.98979,2023,6,12,13,24,17,411
0.00060,3.13250,-4.77750,0.00000,-0.00622,0.02013,-0.98918,2023,6,12,13,24,17,422
0.00070,2.67750,-4.39250,0.00000,-0.00634,0.02001,-0.99003,2023,6,12,13,24,17,433
0.00080,2.71250,-4.62000,0.00000,-0.00622,0.02025,-0.98869,2023,6,12,13,24,17,444
0.00090,2.80000,-4.41000,0.00000,-0.00708,0.01989,-0.98771,2023,6,12,13,24,17,455
0.00100,2.83500,-4.42750,0.00000,-0.00464,0.01830,-0.98869,2023,6,12,13,24,17,467
0.00110,2.94000,-4.65500,0.00000,-0.00476,0.02330,-0.98918,2023,6,12,13,24,17,478
0.00120,2.88750,-4.58500,0.00000,-0.00634,0.01989,-0.98857,2023,6,12,13,24,17,489
0.00130,2.92250,-4.49750,0.00000,-0.00647,0.02086,-0.99149,2023,6,12,13,24,17,500
0.00140,2.83500,-4.53250,0.00000,-0.00683,0.01854,-0.98686,2023,6,12,13,24,17,511
0.00150,3.11500,-4.63750,0.00000,-0.00695,0.01952,-0.98979,2023,6,12,13,24,17,522
0.00160,2.80000,-4.46250,0.00000,-0.00561,0.02135,-0.98796,2023,6,12,13,24,17,533
0.00170,2.88750,-4.81250,0.00000,-0.00756,0.02074,-0.98771,2023,6,12,13,24,17,544
0.00180,2.85250,-4.65500,0.00000,-0.00512,0.02123,-0.98942,2023,6,12,13,24,17,555
0.00190,2.83500,-4.67250,0.00000,-0.00586,0.01793,-0.98979,2023,6,12,13,24,17,567
0.00200,2.80000,-4.53250,0.00000,-0.00622,0.01964,-0.98808,2023,6,12,13,24,17,578
0.00210,2.83500,-4.34000,0.00000,-0.00598,0.02037,-0.99003,2023,6,12,13,24,17,589
0.00220,2.92250,-4.86500,0.00000,-0.00525,0.02086,-0.98832,2023,6,12,13,24,17,600
0.00230,2.74750,-4.49750,0.00000,-0.00537,0.02135,-0.98869,2023,6,12,13,24,17,611
0.00240,2.83500,-4.56750,0.00000,-0.00756,0.01928,-0.98796,2023,6,12,13,24,17,622
0.00250,3.08000,-4.63750,0.00000,-0.00488,0.02318,-0.98808,2023,6,12,13,24,17,633
0.00260,2.97500,-4.74250,0.00000,-0.00610,0.01867,-0.98759,2023,6,12,13,24,17,644
0.00270,2.92250,-4.46250,0.00000,-0.00647,0.02111,-0.98796,2023,6,12,13,24,17,655
0.00280,2.74750,-4.42750,0.00000,-0.00769,0.02025,-0.99015,2023,6,12,13,24,17,667
0.00290,2.85250,-4.42750,0.00000,-0.00769,0.01818,-0.98808,2023,6,12,13,24,17,678
0.00300,2.94000,-4.63750,0.00000,-0.00769,0.02001,-0.98832,2023,6,12,13,24,17,689
0.00310,2.90500,-4.58500,0.00000,-0.00610,0.02111,-0.98820,2023,6,12,13,24,17,700
0.00320,2.76500,-4.77750,0.00000,-0.00732,0.01940,-0.98905,2023,6,12,13,24,17,711
0.00330,2.95750,-4.55000,0.00000,-0.00451,0.02111,-0.99015,2023,6,12,13,24,17,722
0.00340,3.01000,-4.56750,0.00000,-0.00610,0.02135,-0.98783,2023,6,12,13,24,17,733
0.00350,2.76500,-4.42750,0.00000,-0.00622,0.02037,-0.98857,2023,6,12,13,24,17,744
0.00360,2.81750,-4.62000,0.00000,-0.00537,0.01915,-0.98674,2023,6,12,13,24,17,755
0.00370,3.04500,-4.56750,0.00000,-0.00549,0.01854,-0.98637,2023,6,12,13,24,17,767
0.00380,2.76500,-4.60250,0.00000,-0.00598,0.02037,-0.98844,2023,6,12,13,24,17,778
0.00390,2.92250,-4.49750,0.00000,-0.00659,0.02111,-0.98893,2023,6,12,13,24,17,789
0.00400,2.80000,-4.55000,0.00000,-0.00561,0.02074,-0.98771,2023,6,12,13,24,17,800
0.00410,2.85250,-4.25250,0.00000,-0.00683,0.01891,-0.98991,2023,6,12,13,24,17,811
0.00420,2.80000,-4.46250,0.00000,-0.00647,0.02025,-0.98747,2023,6,12,13,24,17,822
0.00430,2.74750,-4.35750,0.00000,-0.00634,0.02086,-0.98576,2023,6,12,13,24,17,833
0.00440,2.90500,-4.39250,0.00000,-0.00451,0.02037,-0.98979,2023,6,12,13,24,17,844
0.00450,3.01000,-4.63750,0.00000,-0.00683,0.02098,-0.98613,2023,6,12,13,24,17,855
0.00460,2.81750,-4.53250,0.00000,-0.00830,0.02159,-0.98893,2023,6,12,13,24,17,867
0.00470,2.66000,-4.58500,0.00000,-0.00573,0.02440,-0.98783,2023,6,12,13,24,17,878
0.00480,2.78250,-4.67250,0.00000,-0.00683,0.02111,-0.98966,2023,6,12,13,24,17,889
0.00490,2.90500,-4.63750,0.00000,-0.00695,0.01964,-0.99040,2023,6,12,13,24,17,900
0.00500,2.92250,-4.58500,0.00000,-0.00708,0.01915,-0.98771,2023,6,12,13,24,17,911
0.00510,2.87000,-4.56750,0.00000,-0.00720,0.01928,-0.98637,2023,6,12,13,24,17,922
0.00520,2.78250,-4.72500,0.00000,-0.00634,0.02111,-0.98991,2023,6,12,13,24,17,933
0.00530,2.78250,-4.51500,0.00000,-0.00488,0.02172,-0.98808,2023,6,12,13,24,17,944
0.00540,2.74750,-4.63750,0.00000,-0.00647,0.01879,-0.99040,2023,6,12,13,24,17,955
0.00550,2.81750,-4.51500,0.00000,-0.00598,0.01940,-0.98918,2023,6,12,13,24,17,967
0.00560,2.78250,-4.28750,0.00000,-0.00805,0.01867,-0.98966,2023,6,12,13,24,17,978
0.00570,2.97500,-4.58500,0.00000,-0.00598,0.01964,-0.99198,2023,6,12,13,24,17,989
0.00580,2.74750,-4.44500,0.00000,-0.00647,0.02147,-0.98759,2023,6,12,13,24,17,0
0.00590,2.83500,-4.49750,0.00000,-0.00634,0.01989,-0.98881,2023,6,12,13,24,17,11
0.00600,2.80000,-4.65500,0.00000,-0.00500,0.02062,-0.98869,2023,6,12,13,24,17,22
0.00610,2.94000,-4.56750,0.00000,-0.00695,0.02123,-0.98930,2023,6,12,13,24,17,33
0.00620,2.94000,-4.56750,0.00000,-0.00573,0.02147,-0.98979,2023,6,12,13,24,17,44
0.00630,2.97500,-4.76000,0.00000,-0.00647,0.02196,-0.98613,2023,6,12,13,24,17,55
0.00640,2.88750,-4.39250,0.00000,-0.00610,0.01806,-0.98869,2023,6,12,13,24,17,67
0.00650,3.06250,-4.65500,0.00000,-0.00744,0.01757,-0.98820,2023,6,12,13,24,17,78
0.00660,2.99250,-4.70750,0.00000,-0.00708,0.01928,-0.98930,2023,6,12,13,24,17,89
0.00670,2.87000,-4.53250,0.00000,-0.00683,0.02037,-0.98869,2023,6,12,13,24,17,100
0.00680,2.76500,-4.67250,0.00000,-0.00695,0.02074,-0.99015,2023,6,12,13,24,17,111
0.00690,2.81750,-4.63750,0.00000,-0.00708,0.01989,-0.98820,2023,6,12,13,24,17,122
0.00700,2.78250,-4.42750,0.00000,-0.00634,0.01952,-0.98649,2023,6,12,13,24,17,133
0.00710,2.71250,-4.35750,0.00000,-0.00561,0.02233,-0.98857,2023,6,12,13,24,17,144
0.00720,2.95750,-4.53250,0.00000,-0.00720,0.02111,-0.98820,2023,6,12,13,24,17,155
0.00730,2.94000,-4.69000,0.00000,-0.00561,0.02111,-0.98796,2023,6,12,13,24,17,167
0.00740,2.80000,-4.46250,0.00000,-0.00573,0.02050,-0.98979,2023,6,12,13,24,17,178
0.00750,2.76500,-4.60250,0.00000,-0.00512,0.02245,-0.98820,2023,6,12,13,24,17,189
0.00760,2.81750,-4.53250,0.00000,-0.00695,0.02086,-0.98747,2023,6,12,13,24,17,200
0.00770,2.95750,-4.60250,0.00000,-0.00659,0.02184,-0.98918,2023,6,12,13,24,17,211
0.00780,2.80000,-4.53250,0.00000,-0.00610,0.02037,-0.98954,2023,6,12,13,24,17,222
0.00790,2.90500,-4.48000,0.00000,-0.00671,0.02001,-0.98747,2023,6,12,13,24,17,233
0.00800,2.88750,-4.58500,0.00000,-0.00634,0.02220,-0.98905,2023,6,12,13,24,17,244
0.00810,2.87000,-4.81250,0.00000,-0.00634,0.02062,-0.98796,2023,6,12,13,24,17,255
0.00820,2.62500,-4.53250,0.00000,-0.00598,0.02025,-0.99027,2023,6,12,13,24,17,267
0.00830,2.95750,-4.46250,0.00000,-0.00598,0.02025,-0.98966,2023,6,12,13,24,17,278
0.00840,2.90500,-4.67250,0.00000,-0.00525,0.01989,-0.98564,2023,6,12,13,24,17,289
0.00850,2.78250,-4.56750,0.00000,-0.00695,0.02135,-0.99040,2023,6,12,13,24,17,300
0.00860,2.92250,-4.69000,0.00000,-0.00537,0.01940,-0.99015,2023,6,12,13,24,17,311
0.00870,2.80000,-4.70750,0.00000,-0.00671,0.01806,-0.98722,2023,6,12,13,24,18,2
0.00880,2.88750,-4.63750,0.00000,-0.00561,0.02111,-0.98869,2023,6,12,13,24,18,13
0.00890,2.76500,-4.56750,0.00000,-0.00512,0.02086,-0.98881,2023,6,12,13,24,18,24
0.00900,3.04500,-4.60250,0.00000,-0.00573,0.02172,-0.99430,2023,6,12,13,24,18,35
0.00910,2.67750,-4.35750,0.00000,-0.00610,0.02184,-0.98747,2023,6,12,13,24,18,47
0.00920,2.85250,-4.53250,0.00000,-0.00561,0.01976,-0.99064,2023,6,12,13,24,18,58
0.00930,2.99250,-4.90000,0.00000,-0.00732,0.02123,-0.99015,2023,6,12,13,24,18,69
0.00940,3.02750,-4.70750,0.00000,-0.00598,0.02196,-0.98893,2023,6,12,13,24,18,80
0.00950,2.76500,-4.81250,0.00000,-0.00573,0.02062,-0.98869,2023,6,12,13,24,18,91
0.00960,2.73000,-4.69000,0.00000,-0.00708,0.01928,-0.99003,2023,6,12,13,24,18,102
0.00970,2.92250,-4.62000,0.00000,-0.00805,0.02159,-0.99040,2023,6,12,13,24,18,113
0.00980,2.81750,-4.42750,0.00000,-0.00708,0.02086,-0.98735,2023,6,12,13,24,18,124
0.00990,2.83500,-4.56750,0.00000,-0.00976,0.01940,-0.98893,2023,6,12,13,24,18,135
0.01000,2.99250,-4.51500,0.00000,-0.00756,0.02147,-0.99003,2023,6,12,13,24,18,147
0.01010,3.02750,-4.77750,0.00000,-0.00549,0.02111,-0.99076,2023,6,12,13,24,18,158
0.01020,3.04500,-4.67250,0.00000,-0.00720,0.01879,-0.98930,2023,6,12,13,24,18,169
0.01030,2.83500,-4.51500,0.00000,-0.00610,0.02025,-0.98820,2023,6,12,13,24,18,180
0.01040,2.74750,-4.67250,0.00000,-0.00708,0.02135,-0.98759,2023,6,12,13,24,18,191
0.01050,2.76500,-4.56750,0.00000,-0.00634,0.02208,-0.99198,2023,6,12,13,24,18,202
0.01060,2.83500,-4.48000,0.00000,-0.00708,0.01976,-0.98966,2023,6,12,13,24,18,213
0.01070,3.06250,-4.60250,0.00000,-0.00512,0.02013,-0.99003,2023,6,12,13,24,18,224
0.01080,2.90500,-4.49750,0.00000,-0.00756,0.02098,-0.99003,2023,6,12,13,24,18,235
0.01090,2.85250,-4.53250,0.00000,-0.00671,0.02257,-0.98832,2023,6,12,13,24,18,247
0.01100,2.99250,-4.30500,0.00000,-0.00622,0.01989,-0.99064,2023,6,12,13,24,18,258
0.01110,2.85250,-4.49750,0.00000,-0.00610,0.02086,-0.99003,2023,6,12,13,24,18,269
0.01120,2.97500,-4.53250,0.00000,-0.00549,0.02159,-0.98820,2023,6,12,13,24,18,280
0.01130,2.92250,-4.49750,0.00000,-0.00659,0.01976,-0.99027,2023,6,12,13,24,18,291
0.01140,3.08000,-4.58500,0.00000,-0.00403,0.02220,-0.99027,2023,6,12,13,24,18,302
0.01150,2.83500,-4.51500,0.00000,-0.00610,0.02111,-0.98905,2023,6,12,13,24,18,313
0.01160,2.87000,-4.55000,0.00000,-0.00500,0.02184,-0.98930,2023,6,12,13,24,18,324
0.01170,2.92250,-4.76000,0.00000,-0.00549,0.01964,-0.98869,2023,6,12,13,24,18,335
0.01180,3.04500,-4.70750,0.00000,-0.00683,0.02123,-0.98893,2023,6,12,13,24,18,347
0.01190,2.69500,-4.48000,0.00000,-0.00512,0.02037,-0.98881,2023,6,12,13,24,18,358
0.01200,2.90500,-4.42750,0.00000,-0.00683,0.02184,-0.99101,2023,6,12,13,24,18,369
0.01210,2.69500,-4.65500,0.00000,-0.00671,0.01952,-0.98771,2023,6,12,13,24,18,380
0.01220,2.67750,-4.55000,0.00000,-0.00683,0.01928,-0.98796,2023,6,12,13,24,18,391
0.01230,2.74750,-4.34000,0.00000,-0.00708,0.01867,-0.98820,2023,6,12,13,24,18,402
0.01240,2.92250,-4.56750,0.00000,-0.00708,0.01793,-0.99162,2023,6,12,13,24,18,413
0.01250,3.02750,-4.72500,0.00000,-0.00659,0.01879,-0.98844,2023,6,12,13,24,18,424
0.01260,2.76500,-4.58500,0.00000,-0.00671,0.02074,-0.98820,2023,6,12,13,24,18,435
0.01270,2.78250,-4.41000,0.00000,-0.00683,0.02147,-0.98844,2023,6,12,13,24,18,447
0.01280,2.97500,-4.51500,0.00000,-0.00793,0.01928,-0.99137,2023,6,12,13,24,18,458
0.01290,2.81750,-4.42750,0.00000,-0.00647,0.02220,-0.98930,2023,6,12,13,24,18,469
0.01300,2.94000,-4.67250,0.00000,-0.00598,0.02062,-0.98905,2023,6,12,13,24,18,480
0.01310,2.95750,-4.53250,0.00000,-0.00695,0.02074,-0.98966,2023,6,12,13,24,18,491
0.01320,2.69500,-4.44500,0.00000,-0.00647,0.01964,-0.98759,2023,6,12,13,24,18,502
0.01330,2.81750,-4.58500,0.00000,-0.00781,0.01940,-0.98796,2023,6,12,13,24,18,513
0.01340,2.78250,-4.55000,0.00000,-0.00647,0.01903,-0.99003,2023,6,12,13,24,18,524
0.01350,3.08000,-4.58500,0.00000,-0.00647,0.01903,-0.99235,2023,6,12,13,24,18,535
0.01360,2.95750,-4.65500,0.00000,-0.00817,0.01928,-0.98796,2023,6,12,13,24,18,547
0.01370,2.73000,-4.34000,0.00000,-0.00610,0.02013,-0.99113,2023,6,12,13,24,18,558
0.01380,2.90500,-4.77750,0.00000,-0.00732,0.02025,-0.98991,2023,6,12,13,24,18,569
0.01390,2.78250,-4.56750,0.00000,-0.00537,0.02257,-0.98796,2023,6,12,13,24,18,580
0.01400,3.01000,-4.58500,0.00000,-0.00586,0.02001,-0.98930,2023,6,12,13,24,18,591
0.01410,2.64250,-4.60250,0.00000,-0.00659,0.02013,-0.99235,2023,6,12,13,24,18,602
0.01420,2.81750,-4.44500,0.00000,-0.00708,0.02050,-0.99027,2023,6,12,13,24,18,613
0.01430,2.76500,-4.55000,0.00000,-0.00732,0.02135,-0.98905,2023,6,12,13,24,18,624
0.01440,2.80000,-4.63750,0.00000,-0.00586,0.02001,-0.98942,2023,6,12,13,24,18,635
0.01450,2.83500,-4.70750,0.00000,-0.00561,0.02196,-0.99198,2023,6,12,13,24,18,647
0.01460,2.78250,-4.58500,0.00000,-0.00659,0.01867,-0.99015,2023,6,12,13,24,18,658
0.01470,2.87000,-4.70750,0.00000,-0.00549,0.02086,-0.98747,2023,6,12,13,24,18,669
0.01480,2.73000,-4.63750,0.00000,-0.00695,0.02281,-0.98966,2023,6,12,13,24,18,680
0.01490,2.94000,-4.48000,0.00000,-0.00756,0.01903,-0.99101,2023,6,12,13,24,18,691
0.01500,2.95750,-4.67250,0.00000,-0.00720,0.01952,-0.99052,2023,6,12,13,24,18,702
0.01510,2.94000,-4.58500,0.00000,-0.00708,0.01915,-0.98844,2023,6,12,13,24,18,713
0.01520,3.06250,-4.62000,0.00000,-0.00439,0.02159,-0.99174,2023,6,12,13,24,18,724
0.01530,3.09750,-4.84750,0.00000,-0.00622,0.02098,-0.98844,2023,6,12,13,24,18,735
0.01540,2.92250,-4.69000,0.00000,-0.00598,0.02074,-0.98930,2023,6,12,13,24,18,747
0.01550,2.90500,-4.44500,0.00000,-0.00744,0.01915,-0.98954,2023,6,12,13,24,18,758
0.01560,2.97500,-4.51500,0.00000,-0.00561,0.01867,-0.98808,2023,6,12,13,24,18,769
0.01570,2.97500,-4.46250,0.00000,-0.00793,0.01989,-0.98783,2023,6,12,13,24,18,780
0.01580,2.81750,-4.67250,0.00000,-0.00720,0.01867,-0.98905,2023,6,12,13,24,18,791
0.01590,3.15000,-4.76000,0.00000,-0.00647,0.01867,-0.99052,2023,6,12,13,24,18,802
0.01600,2.69500,-4.67250,0.00000,-0.00903,0.02159,-0.98979,2023,6,12,13,24,18,813
0.01610,2.87000,-4.55000,0.00000,-0.00695,0.02086,-0.98979,2023,6,12,13,24,18,824
0.01620,2.88750,-4.63750,0.00000,-0.00586,0.02025,-0.99088,2023,6,12,13,24,18,835
0.01630,2.97500,-4.69000,0.00000,-0.00830,0.01940,-0.98966,2023,6,12,13,24,18,847
0.01640,2.76500,-4.62000,0.00000,-0.00732,0.02172,-0.98979,2023,6,12,13,24,18,858
0.01650,2.87000,-4.51500,0.00000,-0.00708,0.02220,-0.99223,2023,6,12,13,24,18,869
0.01660,2.94000,-4.63750,0.00000,-0.00573,0.02025,-0.99162,2023,6,12,13,24,18,880
0.01670,2.67750,-4.46250,0.00000,-0.00610,0.02086,-0.99064,2023,6,12,13,24,18,891
0.01680,2.95750,-4.60250,0.00000,-0.00622,0.02001,-0.98857,2023,6,12,13,24,18,902
0.01690,3.04500,-4.63750,0.00000,-0.00512,0.02013,-0.98661,2023,6,12,13,24,18,913
0.01700,3.09750,-4.84750,0.00000,-0.00610,0.02062,-0.98918,2023,6,12,13,24,18,924
0.01710,2.87000,-4.53250,0.00000,-0.00659,0.02196,-0.99125,2023,6,12,13,24,18,935
0.01720,2.81750,-4.67250,0.00000,-0.00647,0.01903,-0.98966,2023,6,12,13,24,18,947
0.01730,2.94000,-4.42750,0.00000,-0.00622,0.02086,-0.98966,2023,6,12,13,24,18,958
0.01740,2.97500,-4.83000,0.00000,-0.00561,0.02159,-0.98564,2023,6,12,13,24,18,969
0.01750,2.92250,-4.53250,0.00000,-0.00671,0.02159,-0.98942,2023,6,12,13,24,18,980
0.01760,2.94000,-4.56750,0.00000,-0.00622,0.01891,-0.99003,2023,6,12,13,24,19,1
0.01770,2.90500,-4.65500,0.00000,-0.00744,0.02123,-0.99088,2023,6,12,13,24,19,12
0.01780,2.99250,-4.60250,0.00000,-0.00683,0.02050,-0.98857,2023,6,12,13,24,19,23
0.01790,2.80000,-4.70750,0.00000,-0.00671,0.02208,-0.99064,2023,6,12,13,24,19,34
0.01800,2.94000,-4.67250,0.00000,-0.00695,0.01940,-0.98942,2023,6,12,13,24,19,45
0.01810,2.83500,-4.37500,0.00000,-0.00610,0.01879,-0.98820,2023,6,12,13,24,19,57
0.01820,2.78250,-4.28750,0.00000,-0.00683,0.02074,-0.98637,2023,6,12,13,24,19,68
0.01830,2.94000,-4.65500,0.00000,-0.00537,0.02013,-0.98979,2023,6,12,13,24,19,79
0.01840,2.92250,-4.60250,0.00000,-0.00769,0.01989,-0.99003,2023,6,12,13,24,19,90
0.01850,2.85250,-4.60250,0.00000,-0.00732,0.01781,-0.98832,2023,6,12,13,24,19,101
0.01860,2.87000,-4.56750,0.00000,-0.00598,0.01891,-0.98979,2023,6,12,13,24,19,112
0.01870,2.71250,-4.48000,0.00000,-0.00439,0.02111,-0.98930,2023,6,12,13,24,19,123
0.01880,2.83500,-4.53250,0.00000,-0.00622,0.01879,-0.98869,2023,6,12,13,24,19,134
0.01890,2.88750,-4.60250,0.00000,-0.00744,0.02074,-0.99210,2023,6,12,13,24,19,145
0.01900,2.87000,-4.67250,0.00000,-0.00695,0.02025,-0.98881,2023,6,12,13,24,19,157
0.01910,2.71250,-4.56750,0.00000,-0.00476,0.02159,-0.98991,2023,6,12,13,24,19,168
0.01920,2.78250,-4.67250,0.00000,-0.00622,0.02025,-0.98661,2023,6,12,13,24,19,179
0.01930,2.66000,-4.48000,0.00000,-0.00549,0.02159,-0.98991,2023,6,12,13,24,19,190
0.01940,2.90500,-4.63750,0.00000,-0.00683,0.01903,-0.98527,2023,6,12,13,24,19,201
0.01950,2.95750,-4.42750,0.00000,-0.00622,0.02208,-0.98930,2023,6,12,13,24,19,212
0.01960,2.87000,-4.62000,0.00000,-0.00720,0.02135,-0.98808,2023,6,12,13,24,19,223
0.01970,3.02750,-4.60250,0.00000,-0.00549,0.02001,-0.98783,2023,6,12,13,24,19,234
0.01980,2.92250,-4.58500,0.00000,-0.00500,0.02245,-0.98991,2023,6,12,13,24,19,245
0.01990,2.71250,-4.55000,0.00000,-0.00598,0.02050,-0.99003,2023,6,12,13,24,19,257
0.02000,2.94000,-4.62000,0.00000,-0.00647,0.02074,-0.98979,2023,6,12,13,24,19,268
0.02010,2.87000,-4.83000,0.00000,-0.00500,0.02013,-0.98735,2023,6,12,13,24,19,279
0.02020,2.85250,-4.72500,0.00000,-0.00769,0.01915,-0.98771,2023,6,12,13,24,19,290
0.02030,3.01000,-4.79500,0.00000,-0.00500,0.02025,-0.98613,2023,6,12,13,24,19,301
0.02040,2.90500,-4.70750,0.00000,-0.00805,0.01952,-0.99076,2023,6,12,13,24,19,312
0.02050,2.88750,-4.49750,0.00000,-0.00598,0.02172,-0.98857,2023,6,12,13,24,19,323
0.02060,2.95750,-4.53250,0.00000,-0.00671,0.01867,-0.98857,2023,6,12,13,24,19,334
0.02070,2.92250,-4.53250,0.00000,-0.00561,0.02184,-0.99027,2023,6,12,13,24,19,345
0.02080,2.64250,-4.49750,0.00000,-0.00634,0.02135,-0.98552,2023,6,12,13,24,19,357
0.02090,2.88750,-4.55000,0.00000,-0.00708,0.01879,-0.98991,2023,6,12,13,24,19,368
0.02100,2.78250,-4.65500,0.00000,-0.00732,0.02208,-0.98881,2023,6,12,13,24,19,379
0.02110,2.97500,-4.83000,0.00000,-0.00671,0.01915,-0.98991,2023,6,12,13,24,19,390
0.02120,2.90500,-4.55000,0.00000,-0.00708,0.02062,-0.98930,2023,6,12,13,24,19,401
0.02130,3.04500,-4.58500,0.00000,-0.00598,0.01915,-0.98783,2023,6,12,13,24,19,412
0.02140,3.09750,-4.63750,0.00000,-0.00683,0.01867,-0.98796,2023,6,12,13,24,19,423
0.02150,2.76500,-4.58500,0.00000,-0.00793,0.02208,-0.99003,2023,6,12,13,24,19,434
0.02160,3.16750,-4.49750,0.00000,-0.00695,0.01952,-0.99247,2023,6,12,13,24,19,445
0.02170,2.80000,-4.42750,0.00000,-0.00720,0.02025,-0.98674,2023,6,12,13,24,19,457
0.02180,2.87000,-4.65500,0.00000,-0.00647,0.02037,-0.98893,2023,6,12,13,24,19,468
0.02190,2.88750,-4.65500,0.00000,-0.00683,0.02037,-0.98686,2023,6,12,13,24,19,479
0.02200,2.97500,-4.67250,0.00000,-0.00634,0.01915,-0.98942,2023,6,12,13,24,19,490
0.02210,2.92250,-4.48000,0.00000,-0.00561,0.02184,-0.99101,2023,6,12,13,24,19,501
0.02220,2.85250,-4.60250,0.00000,-0.00671,0.02111,-0.98930,2023,6,12,13,24,19,512
0.02230,3.06250,-4.67250,0.00000,-0.00647,0.01928,-0.98869,2023,6,12,13,24,19,523
0.02240,2.74750,-4.55000,0.00000,-0.00622,0.01928,-0.98820,2023,6,12,13,24,19,534
0.02250,2.88750,-4.65500,0.00000,-0.00525,0.02037,-0.98722,2023,6,12,13,24,19,545
0.02260,2.78250,-4.60250,0.00000,-0.00586,0.02159,-0.98857,2023,6,12,13,24,19,557
0.02270,2.83500,-4.41000,0.00000,-0.00561,0.01976,-0.98857,2023,6,12,13,24,19,568
0.02280,2.78250,-4.53250,0.00000,-0.00647,0.02037,-0.98698,2023,6,12,13,24,19,579
0.02290,2.99250,-4.55000,0.00000,-0.00598,0.02172,-0.98649,2023,6,12,13,24,19,590
0.02300,2.74750,-4.51500,0.00000,-0.00573,0.02013,-0.98820,2023,6,12,13,24,19,601
0.02310,2.88750,-4.56750,0.00000,-0.00622,0.01757,-0.98857,2023,6,12,13,24,19,612
0.02320,2.92250,-4.48000,0.00000,-0.00561,0.02001,-0.99040,2023,6,12,13,24,19,623
0.02330,2.88750,-4.58500,0.00000,-0.00683,0.02013,-0.98796,2023,6,12,13,24,19,634
0.02340,2.83500,-4.67250,0.00000,-0.00671,0.01940,-0.98893,2023,6,12,13,24,19,645
0.02350,2.78250,-4.51500,0.00000,-0.00549,0.01940,-0.98600,2023,6,12,13,24,19,657
0.02360,2.78250,-4.69000,0.00000,-0.00695,0.02159,-0.98820,2023,6,12,13,24,19,668
0.02370,2.90500,-4.60250,0.00000,-0.00720,0.01964,-0.98661,2023,6,12,13,24,19,679
0.02380,2.74750,-4.48000,0.00000,-0.00537,0.02135,-0.98759,2023,6,12,13,24,19,690
0.02390,2.76500,-4.58500,0.00000,-0.00683,0.02001,-0.99113,2023,6,12,13,24,19,701
0.02400,2.74750,-4.49750,0.00000,-0.00903,0.02050,-0.98893,2023,6,12,13,24,19,712
0.02410,2.94000,-4.41000,0.00000,-0.00939,0.02172,-0.99162,2023,6,12,13,24,19,723
0.02420,2.85250,-4.63750,0.00000,-0.00573,0.02220,-0.98515,2023,6,12,13,24,19,734
0.02430,2.78250,-4.58500,0.00000,-0.00512,0.02330,-0.98625,2023,6,12,13,24,19,745
0.02440,2.83500,-4.60250,0.00000,-0.00610,0.02013,-0.98698,2023,6,12,13,24,19,757
0.02450,2.92250,-4.86500,0.00000,-0.00561,0.02074,-0.99052,2023,6,12,13,24,19,768
0.02460,3.08000,-4.81250,0.00000,-0.00659,0.01891,-0.98808,2023,6,12,13,24,19,779
0.02470,2.76500,-4.46250,0.00000,-0.00683,0.01903,-0.98930,2023,6,12,13,24,19,790
0.02480,2.94000,-4.56750,0.00000,-0.00769,0.02013,-0.99113,2023,6,12,13,24,19,801
0.02490,2.97500,-4.63750,0.00000,-0.00598,0.01952,-0.99003,2023,6,12,13,24,19,812
0.02500,2.80000,-4.55000,0.00000,-0.00720,0.02245,-0.98942,2023,6,12,13,24,19,823
0.02510,2.83500,-4.46250,0.00000,-0.00756,0.02074,-0.98857,2023,6,12,13,24,19,834
0.02520,2.80000,-4.46250,0.00000,-0.00683,0.01952,-0.98686,2023,6,12,13,24,19,845
0.02530,2.71250,-4.58500,0.00000,-0.00610,0.02013,-0.98954,2023,6,12,13,24,19,857
0.02540,2.81750,-4.55000,0.00000,-0.00842,0.01989,-0.98796,2023,6,12,13,24,19,868
0.02550,3.01000,-4.69000,0.00000,-0.00598,0.02013,-0.98869,2023,6,12,13,24,19,879
0.02560,3.01000,-4.72500,0.00000,-0.00708,0.02001,-0.98759,2023,6,12,13,24,19,890
0.02570,2.74750,-4.37500,0.00000,-0.00634,0.01854,-0.98857,2023,6,12,13,24,19,901
0.02580,2.87000,-4.77750,0.00000,-0.00744,0.01903,-0.98881,2023,6,12,13,24,19,912
0.02590,2.74750,-4.51500,0.00000,-0.00695,0.01989,-0.98649,2023,6,12,13,24,19,923
0.02600,2.90500,-4.72500,0.00000,-0.00598,0.01928,-0.98674,2023,6,12,13,24,19,934
0.02610,3.15000,-4.74250,0.00000,-0.00622,0.02062,-0.99223,2023,6,12,13,24,19,945
0.02620,2.83500,-4.62000,0.00000,-0.00598,0.01940,-0.98905,2023,6,12,13,24,19,957
0.02630,2.87000,-4.56750,0.00000,-0.00500,0.02147,-0.98869,2023,6,12,13,24,20,8
0.02640,2.81750,-4.44500,0.00000,-0.00598,0.02037,-0.99052,2023,6,12,13,24,20,19
0.02650,2.90500,-4.56750,0.00000,-0.00781,0.02135,-0.99125,2023,6,12,13,24,20,30
0.02660,3.13250,-4.42750,0.00000,-0.00659,0.01891,-0.98686,2023,6,12,13,24,20,41
0.02670,2.87000,-4.81250,0.00000,-0.00573,0.02050,-0.99162,2023,6,12,13,24,20,52
0.02680,2.87000,-4.42750,0.00000,-0.00671,0.02037,-0.98966,2023,6,12,13,24,20,63
0.02690,2.80000,-4.34000,0.00000,-0.00537,0.02062,-0.99101,2023,6,12,13,24,20,74
0.02700,2.80000,-4.41000,0.00000,-0.00854,0.02123,-0.99003,2023,6,12,13,24,20,85
0.02710,2.90500,-4.55000,0.00000,-0.00683,0.02147,-0.98796,2023,6,12,13,24,20,97
0.02720,3.08000,-4.74250,0.00000,-0.00781,0.01891,-0.98893,2023,6,12,13,24,20,108
0.02730,2.85250,-4.63750,0.00000,-0.00671,0.02025,-0.99064,2023,6,12,13,24,20,119
0.02740,2.92250,-4.69000,0.00000,-0.00634,0.02086,-0.98686,2023,6,12,13,24,20,130
0.02750,3.15000,-4.63750,0.00000,-0.00622,0.01976,-0.99003,2023,6,12,13,24,20,141
0.02760,2.87000,-4.39250,0.00000,-0.00647,0.02269,-0.98735,2023,6,12,13,24,20,152
0.02770,2.97500,-4.65500,0.00000,-0.00537,0.02111,-0.98893,2023,6,12,13,24,20,163
0.02780,2.87000,-4.81250,0.00000,-0.00561,0.01989,-0.99064,2023,6,12,13,24,20,174
0.02790,3.11500,-4.67250,0.00000,-0.00708,0.02123,-0.98954,2023,6,12,13,24,20,185
0.02800,2.99250,-4.63750,0.00000,-0.00744,0.01989,-0.98783,2023,6,12,13,24,20,197
0.02810,3.02750,-4.51500,0.00000,-0.00561,0.01989,-0.98930,2023,6,12,13,24,20,208
0.02820,3.16750,-4.65500,0.00000,-0.00683,0.02196,-0.98930,2023,6,12,13,24,20,219
0.02830,2.80000,-4.65500,0.00000,-0.00586,0.02062,-0.98966,2023,6,12,13,24,20,230
0.02840,2.90500,-4.46250,0.00000,-0.00720,0.01818,-0.99015,2023,6,12,13,24,20,241
0.02850,2.94000,-4.65500,0.00000,-0.00732,0.02025,-0.98820,2023,6,12,13,24,20,252
0.02860,3.02750,-4.60250,0.00000,-0.00549,0.02037,-0.98942,2023,6,12,13,24,20,263
0.02870,3.02750,-4.72500,0.00000,-0.00634,0.02013,-0.98478,2023,6,12,13,24,20,274
0.02880,2.87000,-4.79500,0.00000,-0.00598,0.02025,-0.99052,2023,6,12,13,24,20,285
0.02890,2.95750,-4.55000,0.00000,-0.00659,0.02098,-0.98820,2023,6,12,13,24,20,297
0.02900,2.81750,-4.51500,0.00000,-0.00695,0.02147,-0.98759,2023,6,12,13,24,20,308
0.02910,2.90500,-4.55000,0.00000,-0.00671,0.02098,-0.98942,2023,6,12,13,24,20,319
0.02920,2.90500,-4.55000,0.00000,-0.00598,0.01854,-0.98820,2023,6,12,13,24,20,330
0.02930,2.88750,-4.51500,0.00000,-0.00549,0.02098,-0.98966,2023,6,12,13,24,20,341
0.02940,2.90500,-4.65500,0.00000,-0.00720,0.01854,-0.98747,2023,6,12,13,24,20,352
0.02950,2.71250,-4.46250,0.00000,-0.00622,0.01964,-0.98930,2023,6,12,13,24,20,363
0.02960,2.87000,-4.44500,0.00000,-0.00598,0.02184,-0.98881,2023,6,12,13,24,20,374
0.02970,2.81750,-4.41000,0.00000,-0.00891,0.02013,-0.98991,2023,6,12,13,24,20,385
0.02980,2.71250,-4.77750,0.00000,-0.00512,0.02135,-0.98820,2023,6,12,13,24,20,397
0.02990,2.88750,-4.63750,0.00000,-0.00647,0.01915,-0.98661,2023,6,12,13,24,20,408
0.03000,2.99250,-4.65500,0.00000,-0.00598,0.02074,-0.98918,2023,6,12,13,24,20,419
0.03010,3.02750,-4.49750,0.00000,-0.00634,0.01915,-0.99113,2023,6,12,13,24,20,430
0.03020,2.94000,-4.42750,0.00000,-0.00561,0.01854,-0.98649,2023,6,12,13,24,20,441
0.03030,2.74750,-4.62000,0.00000,-0.00720,0.01976,-0.99088,2023,6,12,13,24,20,452
0.03040,2.97500,-4.65500,0.00000,-0.00659,0.01903,-0.98747,2023,6,12,13,24,20,463
0.03050,2.73000,-4.49750,0.00000,-0.00610,0.02062,-0.99076,2023,6,12,13,24,20,474
0.03060,2.81750,-4.63750,0.00000,-0.00720,0.02025,-0.99052,2023,6,12,13,24,20,485
0.03070,2.80000,-4.81250,0.00000,-0.00378,0.02098,-0.99040,2023,6,12,13,24,20,497
0.03080,2.80000,-4.48000,0.00000,-0.00671,0.01867,-0.98918,2023,6,12,13,24,20,508
0.03090,2.88750,-4.53250,0.00000,-0.00720,0.02086,-0.99040,2023,6,12,13,24,20,519
0.03100,3.02750,-4.81250,0.00000,-0.00634,0.01903,-0.98954,2023,6,12,13,24,20,530
0.03110,2.88750,-4.49750,0.00000,-0.00622,0.01806,-0.98966,2023,6,12,13,24,20,541
0.03120,2.74750,-4.35750,0.00000,-0.00695,0.02111,-0.98942,2023,6,12,13,24,20,552
0.03130,2.67750,-4.39250,0.00000,-0.00659,0.01928,-0.98905,2023,6,12,13,24,20,563
0.03140,2.90500,-4.70750,0.00000,-0.00500,0.02037,-0.98759,2023,6,12,13,24,20,574
0.03150,2.80000,-4.35750,0.00000,-0.00805,0.02074,-0.98918,2023,6,12,13,24,20,585
0.03160,3.01000,-4.46250,0.00000,-0.00525,0.02172,-0.98881,2023,6,12,13,24,20,597
0.03170,2.83500,-4.60250,0.00000,-0.00622,0.02001,-0.98954,2023,6,12,13,24,20,608
0.03180,2.81750,-4.65500,0.00000,-0.00634,0.02111,-0.98918,2023,6,12,13,24,20,619
0.03190,3.02750,-4.72500,0.00000,-0.00756,0.01903,-0.98698,2023,6,12,13,24,20,630
0.03200,2.95750,-4.60250,0.00000,-0.00671,0.01903,-0.99137,2023,6,12,13,24,20,641
0.03210,2.92250,-4.58500,0.00000,-0.00671,0.01940,-0.98649,2023,6,12,13,24,20,652
0.03220,2.74750,-4.51500,0.00000,-0.00549,0.01952,-0.98844,2023,6,12,13,24,20,663
0.03230,2.95750,-4.41000,0.00000,-0.00683,0.02184,-0.99125,2023,6,12,13,24,20,674
0.03240,2.83500,-4.65500,0.00000,-0.00671,0.02159,-0.98881,2023,6,12,13,24,20,685
0.03250,2.88750,-4.69000,0.00000,-0.00683,0.02062,-0.98869,2023,6,12,13,24,20,697
0.03260,2.80000,-4.70750,0.00000,-0.00659,0.01940,-0.98710,2023,6,12,13,24,20,708
0.03270,2.80000,-4.58500,0.00000,-0.00647,0.02184,-0.98417,2023,6,12,13,24,20,719
0.03280,2.81750,-4.42750,0.00000,-0.00537,0.01964,-0.98674,2023,6,12,13,24,20,730
0.03290,2.85250,-4.55000,0.00000,-0.00622,0.02062,-0.98979,2023,6,12,13,24,20,741
0.03300,2.87000,-4.46250,0.00000,-0.00561,0.02135,-0.98893,2023,6,12,13,24,20,752
0.03310,2.87000,-4.34000,0.00000,-0.00769,0.01976,-0.98893,2023,6,12,13,24,20,763
0.03320,2.76500,-4.48000,0.00000,-0.00671,0.02062,-0.98759,2023,6,12,13,24,20,774
0.03330,2.99250,-4.60250,0.00000,-0.00622,0.01842,-0.98954,2023,6,12,13,24,20,785
0.03340,2.80000,-4.56750,0.00000,-0.00622,0.01915,-0.98881,2023,6,12,13,24,20,797
0.03350,2.48500,-4.41000,0.00000,-0.00708,0.01976,-0.99088,2023,6,12,13,24,20,808
0.03360,2.78250,-4.44500,0.00000,-0.00500,0.02123,-0.98832,2023,6,12,13,24,20,819
0.03370,2.81750,-4.63750,0.00000,-0.00842,0.02062,-0.98857,2023,6,12,13,24,20,830
0.03380,2.92250,-4.55000,0.00000,-0.00512,0.02086,-0.98979,2023,6,12,13,24,20,841
0.03390,2.87000,-4.60250,0.00000,-0.00610,0.01964,-0.98771,2023,6,12,13,24,20,852
0.03400,2.97500,-4.56750,0.00000,-0.00659,0.02098,-0.98905,2023,6,12,13,24,20,863
0.03410,2.69500,-4.53250,0.00000,-0.00586,0.01867,-0.98893,2023,6,12,13,24,20,874
0.03420,2.88750,-4.72500,0.00000,-0.00683,0.01940,-0.98979,2023,6,12,13,24,20,885
0.03430,2.90500,-4.79500,0.00000,-0.00622,0.02050,-0.98881,2023,6,12,13,24,20,897
0.03440,2.71250,-4.46250,0.00000,-0.00610,0.02074,-0.99027,2023,6,12,13,24,20,908
0.03450,2.87000,-4.72500,0.00000,-0.00586,0.02184,-0.98966,2023,6,12,13,24,20,919
0.03460,2.92250,-4.63750,0.00000,-0.00537,0.02208,-0.98661,2023,6,12,13,24,20,930
0.03470,2.85250,-4.60250,0.00000,-0.00573,0.02086,-0.99076,2023,6,12,13,24,20,941
0.03480,3.01000,-4.63750,0.00000,-0.00817,0.01976,-0.98759,2023,6,12,13,24,20,952
0.03490,3.16750,-4.56750,0.00000,-0.00647,0.02135,-0.98808,2023,6,12,13,24,20,963
0.03500,2.90500,-4.70750,0.00000,-0.00451,0.02111,-0.99003,2023,6,12,13,24,21,4
0.03510,2.76500,-4.53250,0.00000,-0.00634,0.02037,-0.99174,2023,6,12,13,24,21,15
0.03520,2.78250,-4.70750,0.00000,-0.00756,0.02013,-0.98735,2023,6,12,13,24,21,27
0.03530,3.06250,-4.34000,0.00000,-0.00756,0.02037,-0.98942,2023,6,12,13,24,21,38
0.03540,2.85250,-4.65500,0.00000,-0.00732,0.01903,-0.99174,2023,6,12,13,24,21,49
0.03550,2.69500,-4.53250,0.00000,-0.00598,0.02147,-0.99040,2023,6,12,13,24,21,60
0.03560,2.92250,-4.55000,0.00000,-0.00769,0.02086,-0.98783,2023,6,12,13,24,21,71
0.03570,3.09750,-4.67250,0.00000,-0.00695,0.02037,-0.99064,2023,6,12,13,24,21,82
0.03580,2.81750,-4.65500,0.00000,-0.00634,0.01879,-0.98954,2023,6,12,13,24,21,93
0.03590,2.99250,-4.81250,0.00000,-0.00561,0.01976,-0.98966,2023,6,12,13,24,21,104
0.03600,2.90500,-4.49750,0.00000,-0.00634,0.01879,-0.98722,2023,6,12,13,24,21,115
0.03610,2.92250,-4.65500,0.00000,-0.00671,0.01964,-0.99040,2023,6,12,13,24,21,127
0.03620,3.01000,-4.65500,0.00000,-0.00525,0.02050,-0.98808,2023,6,12,13,24,21,138
0.03630,2.95750,-4.44500,0.00000,-0.00610,0.02147,-0.98820,2023,6,12,13,24,21,149
0.03640,2.78250,-4.51500,0.00000,-0.00647,0.02147,-0.98881,2023,6,12,13,24,21,160
0.03650,2.88750,-4.65500,0.00000,-0.00573,0.02001,-0.98966,2023,6,12,13,24,21,171
0.03660,2.97500,-4.27000,0.00000,-0.00598,0.02098,-0.99003,2023,6,12,13,24,21,182
0.03670,2.87000,-4.76000,0.00000,-0.00671,0.01989,-0.99003,2023,6,12,13,24,21,193
0.03680,2.95750,-4.69000,0.00000,-0.00512,0.02086,-0.99101,2023,6,12,13,24,21,204
0.03690,2.71250,-4.65500,0.00000,-0.00671,0.01867,-0.98796,2023,6,12,13,24,21,215
0.03700,2.99250,-4.42750,0.00000,-0.00586,0.01867,-0.98820,2023,6,12,13,24,21,227
0.03710,2.88750,-4.46250,0.00000,-0.00598,0.01903,-0.98966,2023,6,12,13,24,21,238
0.03720,2.87000,-4.46250,0.00000,-0.00659,0.02159,-0.98808,2023,6,12,13,24,21,249
0.03730,2.81750,-4.67250,0.00000,-0.00659,0.02062,-0.98942,2023,6,12,13,24,21,260
0.03740,2.80000,-4.56750,0.00000,-0.00525,0.01976,-0.99064,2023,6,12,13,24,21,271
0.03750,2.95750,-4.62000,0.00000,-0.00573,0.02062,-0.98820,2023,6,12,13,24,21,282
0.03760,2.97500,-4.58500,0.00000,-0.00683,0.02074,-0.98613,2023,6,12,13,24,21,293
0.03770,2.90500,-4.53250,0.00000,-0.00732,0.02001,-0.99088,2023,6,12,13,24,21,304
0.03780,2.80000,-4.46250,0.00000,-0.00598,0.02172,-0.98844,2023,6,12,13,24,21,315
0.03790,2.99250,-4.65500,0.00000,-0.00586,0.02245,-0.99040,2023,6,12,13,24,21,327
0.03800,2.97500,-4.76000,0.00000,-0.00647,0.02025,-0.98930,2023,6,12,13,24,21,338
0.03810,2.88750,-4.63750,0.00000,-0.00622,0.02050,-0.99015,2023,6,12,13,24,21,349
0.03820,2.87000,-4.60250,0.00000,-0.00525,0.02050,-0.99064,2023,6,12,13,24,21,360
0.03830,2.88750,-4.49750,0.00000,-0.00683,0.01818,-0.98966,2023,6,12,13,24,21,371
0.03840,3.08000,-4.53250,0.00000,-0.00732,0.01781,-0.98918,2023,6,12,13,24,21,382
0.03850,3.01000,-4.67250,0.00000,-0.00598,0.02062,-0.99064,2023,6,12,13,24,21,393
0.03860,3.04500,-4.86500,0.00000,-0.00561,0.01940,-0.98954,2023,6,12,13,24,21,404
0.03870,2.62500,-4.63750,0.00000,-0.00634,0.02062,-0.98905,2023,6,12,13,24,21,415
0.03880,2.85250,-4.55000,0.00000,-0.00488,0.02037,-0.99101,2023,6,12,13,24,21,427
0.03890,2.97500,-4.48000,0.00000,-0.00610,0.02025,-0.99101,2023,6,12,13,24,21,438
0.03900,2.97500,-4.58500,0.00000,-0.00659,0.02159,-0.99040,2023,6,12,13,24,21,449
0.03910,2.81750,-4.39250,0.00000,-0.00671,0.01952,-0.98698,2023,6,12,13,24,21,460
0.03920,2.83500,-4.39250,0.00000,-0.00781,0.02135,-0.98857,2023,6,12,13,24,21,471
0.03930,2.78250,-4.65500,0.00000,-0.00586,0.02074,-0.99284,2023,6,12,13,24,21,482
0.03940,2.87000,-4.51500,0.00000,-0.00598,0.01867,-0.98930,2023,6,12,13,24,21,493
0.03950,2.94000,-4.60250,0.00000,-0.00927,0.01976,-0.98954,2023,6,12,13,24,21,504
0.03960,2.66000,-4.65500,0.00000,-0.00842,0.01903,-0.99271,2023,6,12,13,24,21,515
0.03970,2.64250,-4.49750,0.00000,-0.00830,0.02050,-0.98783,2023,6,12,13,24,21,527
0.03980,3.09750,-4.49750,0.00000,-0.00732,0.02123,-0.99003,2023,6,12,13,24,21,538
0.03990,2.97500,-4.65500,0.00000,-0.00622,0.02123,-0.99064,2023,6,12,13,24,21,549
0.04000,2.73000,-4.58500,0.00000,-0.00427,0.02062,-0.98966,2023,6,12,13,24,21,560
0.04010,3.01000,-4.42750,0.00000,-0.00793,0.02050,-0.98930,2023,6,12,13,24,21,571
0.04020,2.90500,-4.72500,0.00000,-0.00598,0.02074,-0.99137,2023,6,12,13,24,21,582
0.04030,2.83500,-4.49750,0.00000,-0.00793,0.02147,-0.98905,2023,6,12,13,24,21,593
0.04040,2.64250,-4.46250,0.00000,-0.00695,0.02050,-0.99088,2023,6,12,13,24,21,604
0.04050,2.88750,-4.42750,0.00000,-0.00622,0.02123,-0.98893,2023,6,12,13,24,21,615
0.04060,2.71250,-4.46250,0.00000,-0.00805,0.02220,-0.98759,2023,6,12,13,24,21,627
0.04070,2.67750,-4.46250,0.00000,-0.00622,0.01976,-0.99052,2023,6,12,13,24,21,638
0.04080,2.99250,-4.72500,0.00000,-0.00561,0.02123,-0.98771,2023,6,12,13,24,21,649
0.04090,2.88750,-4.53250,0.00000,-0.00586,0.02086,-0.99027,2023,6,12,13,24,21,660
0.04100,2.74750,-4.49750,0.00000,-0.00671,0.01891,-0.98747,2023,6,12,13,24,21,671
0.04110,3.02750,-4.79500,0.00000,-0.00415,0.01976,-0.99003,2023,6,12,13,24,21,682
0.04120,2.78250,-4.55000,0.00000,-0.00622,0.02013,-0.98820,2023,6,12,13,24,21,693
0.04130,2.88750,-4.69000,0.00000,-0.00598,0.01952,-0.98905,2023,6,12,13,24,21,704
0.04140,2.74750,-4.44500,0.00000,-0.00586,0.02013,-0.98454,2023,6,12,13,24,21,715
0.04150,2.99250,-4.53250,0.00000,-0.00708,0.02062,-0.98771,2023,6,12,13,24,21,727
0.04160,3.01000,-4.60250,0.00000,-0.00732,0.01964,-0.98771,2023,6,12,13,24,21,738
0.04170,2.88750,-4.69000,0.00000,-0.00695,0.02013,-0.98747,2023,6,12,13,24,21,749
0.04180,2.90500,-4.46250,0.00000,-0.00683,0.01806,-0.98722,2023,6,12,13,24,21,760
0.04190,2.81750,-4.62000,0.00000,-0.00720,0.02184,-0.98966,2023,6,12,13,24,21,771
0.04200,2.94000,-4.76000,0.00000,-0.00769,0.02001,-0.99259,2023,6,12,13,24,21,782
0.04210,2.95750,-4.48000,0.00000,-0.00769,0.01964,-0.98783,2023,6,12,13,24,21,793
0.04220,2.94000,-4.60250,0.00000,-0.00695,0.02050,-0.98869,2023,6,12,13,24,21,804
0.04230,2.81750,-4.55000,0.00000,-0.00549,0.02098,-0.98869,2023,6,12,13,24,21,815
0.04240,2.87000,-4.58500,0.00000,-0.00695,0.02037,-0.98966,2023,6,12,13,24,21,827
0.04250,2.88750,-4.72500,0.00000,-0.00732,0.02062,-0.99076,2023,6,12,13,24,21,838
0.04260,2.73000,-4.49750,0.00000,-0.00744,0.01976,-0.98808,2023,6,12,13,24,21,849
0.04270,2.85250,-4.46250,0.00000,-0.00720,0.01879,-0.98979,2023,6,12,13,24,21,860
0.04280,3.04500,-4.72500,0.00000,-0.00708,0.01976,-0.98832,2023,6,12,13,24,21,871
0.04290,2.83500,-4.58500,0.00000,-0.00683,0.01806,-0.99027,2023,6,12,13,24,21,882
0.04300,2.83500,-4.65500,0.00000,-0.00671,0.01842,-0.98674,2023,6,12,13,24,21,893
0.04310,2.88750,-4.58500,0.00000,-0.00671,0.02074,-0.98881,2023,6,12,13,24,21,904
0.04320,2.80000,-4.32250,0.00000,-0.00610,0.02025,-0.98893,2023,6,12,13,24,21,915
0.04330,3.06250,-4.79500,0.00000,-0.00708,0.01989,-0.98649,2023,6,12,13,24,21,927
0.04340,2.90500,-4.39250,0.00000,-0.00671,0.01952,-0.98893,2023,6,12,13,24,21,938
0.04350,2.85250,-4.56750,0.00000,-0.00744,0.02062,-0.98918,2023,6,12,13,24,21,949
0.04360,2.74750,-4.39250,0.00000,-0.00488,0.02330,-0.98893,2023,6,12,13,24,21,960
0.04370,2.97500,-4.65500,0.00000,-0.00683,0.02269,-0.99052,2023,6,12,13,24,21,971
0.04380,2.88750,-4.34000,0.00000,-0.00671,0.02050,-0.99040,2023,6,12,13,24,22,2
0.04390,2.99250,-4.39250,0.00000,-0.00549,0.01928,-0.98820,2023,6,12,13,24,22,13
0.04400,2.92250,-4.49750,0.00000,-0.00512,0.02257,-0.98661,2023,6,12,13,24,22,24
0.04410,2.74750,-4.55000,0.00000,-0.00732,0.01745,-0.98783,2023,6,12,13,24,22,35
0.04420,3.04500,-4.53250,0.00000,-0.00671,0.01976,-0.98796,2023,6,12,13,24,22,47
0.04430,2.76500,-4.55000,0.00000,-0.00525,0.02025,-0.99101,2023,6,12,13,24,22,58
0.04440,2.94000,-4.39250,0.00000,-0.00610,0.01928,-0.98808,2023,6,12,13,24,22,69
0.04450,2.81750,-4.56750,0.00000,-0.00622,0.02025,-0.99064,2023,6,12,13,24,22,80
0.04460,2.78250,-4.55000,0.00000,-0.00586,0.02062,-0.98893,2023,6,12,13,24,22,91
0.04470,2.81750,-4.51500,0.00000,-0.00793,0.02123,-0.98844,2023,6,12,13,24,22,102
0.04480,2.83500,-4.46250,0.00000,-0.00586,0.02172,-0.98686,2023,6,12,13,24,22,113
0.04490,2.81750,-4.48000,0.00000,-0.00549,0.02172,-0.98783,2023,6,12,13,24,22,124
0.04500,2.69500,-4.39250,0.00000,-0.00549,0.02025,-0.98588,2023,6,12,13,24,22,135
0.04510,2.92250,-4.63750,0.00000,-0.00512,0.02111,-0.98625,2023,6,12,13,24,22,147
0.04520,2.94000,-4.77750,0.00000,-0.00561,0.02123,-0.98710,2023,6,12,13,24,22,158
0.04530,2.85250,-4.46250,0.00000,-0.00683,0.01879,-0.98844,2023,6,12,13,24,22,169
0.04540,2.92250,-4.42750,0.00000,-0.00610,0.02159,-0.98588,2023,6,12,13,24,22,180
0.04550,2.90500,-4.70750,0.00000,-0.00732,0.02001,-0.98881,2023,6,12,13,24,22,191
0.04560,2.94000,-4.74250,0.00000,-0.00671,0.02037,-0.98698,2023,6,12,13,24,22,202
0.04570,2.95750,-4.63750,0.00000,-0.00610,0.02050,-0.99125,2023,6,12,13,24,22,213
0.04580,2.76500,-4.41000,0.00000,-0.00622,0.02123,-0.98930,2023,6,12,13,24,22,224
0.04590,3.01000,-4.49750,0.00000,-0.00695,0.01867,-0.98710,2023,6,12,13,24,22,235
0.04600,2.81750,-4.63750,0.00000,-0.00683,0.02037,-0.98747,2023,6,12,13,24,22,247
0.04610,3.04500,-4.62000,0.00000,-0.00549,0.02111,-0.98613,2023,6,12,13,24,22,258
0.04620,2.85250,-4.53250,0.00000,-0.00537,0.02111,-0.98820,2023,6,12,13,24,22,269
0.04630,2.99250,-4.69000,0.00000,-0.00744,0.01952,-0.98844,2023,6,12,13,24,22,280
0.04640,2.97500,-4.39250,0.00000,-0.00695,0.02050,-0.98966,2023,6,12,13,24,22,291
0.04650,2.80000,-4.32250,0.00000,-0.00598,0.02159,-0.98869,2023,6,12,13,24,22,302
0.04660,2.88750,-4.58500,0.00000,-0.00695,0.02159,-0.98771,2023,6,12,13,24,22,313
0.04670,2.94000,-4.60250,0.00000,-0.00647,0.02062,-0.99137,2023,6,12,13,24,22,324
0.04680,2.87000,-4.48000,0.00000,-0.00537,0.02086,-0.98698,2023,6,12,13,24,22,335
0.04690,2.81750,-4.48000,0.00000,-0.00537,0.02013,-0.99015,2023,6,12,13,24,22,347
0.04700,2.80000,-4.46250,0.00000,-0.00793,0.01940,-0.98759,2023,6,12,13,24,22,358
0.04710,2.81750,-4.63750,0.00000,-0.00610,0.01891,-0.98796,2023,6,12,13,24,22,369
0.04720,2.76500,-4.58500,0.00000,-0.00781,0.02037,-0.98832,2023,6,12,13,24,22,380
0.04730,2.88750,-4.55000,0.00000,-0.00451,0.01989,-0.98417,2023,6,12,13,24,22,391
0.04740,2.69500,-4.55000,0.00000,-0.00695,0.02013,-0.98832,2023,6,12,13,24,22,402
0.04750,2.95750,-4.95250,0.00000,-0.00683,0.02074,-0.98613,2023,6,12,13,24,22,413
0.04760,2.81750,-4.56750,0.00000,-0.00647,0.01989,-0.98710,2023,6,12,13,24,22,424
0.04770,2.69500,-4.63750,0.00000,-0.00598,0.01891,-0.98539,2023,6,12,13,24,22,435
0.04780,2.85250,-4.48000,0.00000,-0.00586,0.01964,-0.98844,2023,6,12,13,24,22,447
0.04790,2.87000,-4.58500,0.00000,-0.00659,0.01915,-0.98698,2023,6,12,13,24,22,458
0.04800,2.85250,-4.72500,0.00000,-0.00549,0.02098,-0.98942,2023,6,12,13,24,22,469
0.04810,2.97500,-4.48000,0.00000,-0.00671,0.02050,-0.98881,2023,6,12,13,24,22,480
0.04820,2.85250,-4.69000,0.00000,-0.00683,0.02281,-0.98820,2023,6,12,13,24,22,491
0.04830,2.85250,-4.49750,0.00000,-0.00756,0.01915,-0.98844,2023,6,12,13,24,22,502
0.04840,2.85250,-4.41000,0.00000,-0.00634,0.01928,-0.99198,2023,6,12,13,24,22,513
0.04850,3.08000,-4.63750,0.00000,-0.00683,0.02098,-0.98649,2023,6,12,13,24,22,524
0.04860,2.92250,-4.49750,0.00000,-0.00634,0.02172,-0.98686,2023,6,12,13,24,22,535
0.04870,2.88750,-4.58500,0.00000,-0.00512,0.02086,-0.98686,2023,6,12,13,24,22,547
0.04880,2.76500,-4.35750,0.00000,-0.00708,0.01891,-0.98966,2023,6,12,13,24,22,558
0.04890,2.80000,-4.48000,0.00000,-0.00647,0.02037,-0.98722,2023,6,12,13,24,22,569
0.04900,2.74750,-4.56750,0.00000,-0.00586,0.01879,-0.98930,2023,6,12,13,24,22,580
0.04910,2.97500,-4.69000,0.00000,-0.00561,0.02025,-0.98698,2023,6,12,13,24,22,591
0.04920,2.87000,-4.58500,0.00000,-0.00659,0.02135,-0.98710,2023,6,12,13,24,22,602
0.04930,2.94000,-4.65500,0.00000,-0.00793,0.01915,-0.98759,2023,6,12,13,24,22,613
0.04940,2.85250,-4.58500,0.00000,-0.00647,0.01903,-0.98747,2023,6,12,13,24,22,624
0.04950,2.90500,-4.60250,0.00000,-0.00598,0.02062,-0.98539,2023,6,12,13,24,22,635
0.04960,2.88750,-4.30500,0.00000,-0.00659,0.01903,-0.98808,2023,6,12,13,24,22,647
0.04970,2.87000,-4.72500,0.00000,-0.00488,0.02159,-0.98698,2023,6,12,13,24,22,658
0.04980,2.80000,-4.55000,0.00000,-0.00476,0.01976,-0.98857,2023,6,12,13,24,22,669
0.04990,2.80000,-4.48000,0.00000,-0.00586,0.02086,-0.98930,2023,6,12,13,24,22,680
0.05000,2.85250,-4.62000,0.00000,-0.00732,0.01915,-0.98918,2023,6,12,13,24,22,691
0.05010,2.95750,-4.69000,0.00000,-0.00817,0.02013,-0.98905,2023,6,12,13,24,22,702
0.05020,2.85250,-4.46250,0.00000,-0.00695,0.01952,-0.98857,2023,6,12,13,24,22,713
0.05030,2.94000,-4.60250,0.00000,-0.00586,0.02147,-0.98832,2023,6,12,13,24,22,724
0.05040,2.94000,-4.55000,0.00000,-0.00695,0.01915,-0.98674,2023,6,12,13,24,22,735
0.05050,2.87000,-4.49750,0.00000,-0.00586,0.02001,-0.98991,2023,6,12,13,24,22,747
0.05060,2.97500,-4.53250,0.00000,-0.00598,0.01964,-0.99052,2023,6,12,13,24,22,758
0.05070,2.85250,-4.67250,0.00000,-0.00634,0.02062,-0.99003,2023,6,12,13,24,22,769
0.05080,2.74750,-4.30500,0.00000,-0.00695,0.02123,-0.98625,2023,6,12,13,24,22,780
0.05090,2.99250,-4.65500,0.00000,-0.00439,0.02001,-0.98918,2023,6,12,13,24,22,791
0.05100,2.85250,-4.63750,0.00000,-0.00488,0.02184,-0.98930,2023,6,12,13,24,22,802
0.05110,2.87000,-4.56750,0.00000,-0.00549,0.01976,-0.98796,2023,6,12,13,24,22,813
0.05120,2.80000,-4.49750,0.00000,-0.00671,0.01732,-0.98491,2023,6,12,13,24,22,824
0.05130,2.87000,-4.48000,0.00000,-0.00586,0.01952,-0.98808,2023,6,12,13,24,22,835
0.05140,2.88750,-4.53250,0.00000,-0.00683,0.01928,-0.98722,2023,6,12,13,24,22,847
0.05150,2.74750,-4.53250,0.00000,-0.00610,0.02147,-0.98869,2023,6,12,13,24,22,858
0.05160,2.94000,-4.53250,0.00000,-0.00634,0.02050,-0.98674,2023,6,12,13,24,22,869
0.05170,2.87000,-4.62000,0.00000,-0.00732,0.02147,-0.98527,2023,6,12,13,24,22,880
0.05180,2.88750,-4.65500,0.00000,-0.00537,0.02037,-0.98808,2023,6,12,13,24,22,891
0.05190,2.78250,-4.55000,0.00000,-0.00769,0.01915,-0.98881,2023,6,12,13,24,22,902
0.05200,2.81750,-4.62000,0.00000,-0.00781,0.02074,-0.98808,2023,6,12,13,24,22,913
0.05210,2.99250,-4.49750,0.00000,-0.00720,0.02172,-0.98710,2023,6,12,13,24,22,924
0.05220,2.80000,-4.49750,0.00000,-0.00525,0.02330,-0.98820,2023,6,12,13,24,22,935
0.05230,2.69500,-4.37500,0.00000,-0.00598,0.02098,-0.99040,2023,6,12,13,24,22,947
0.05240,2.87000,-4.51500,0.00000,-0.00561,0.02050,-0.98661,2023,6,12,13,24,22,958
0.05250,3.04500,-4.65500,0.00000,-0.00561,0.02013,-0.98674,2023,6,12,13,24,22,969
0.05260,2.83500,-4.76000,0.00000,-0.00793,0.02111,-0.99003,2023,6,12,13,24,23,0
0.05270,2.80000,-4.46250,0.00000,-0.00586,0.01903,-0.98783,2023,6,12,13,24,23,11
0.05280,2.78250,-4.53250,0.00000,-0.00525,0.02184,-0.98783,2023,6,12,13,24,23,22
0.05290,2.90500,-4.53250,0.00000,-0.00525,0.02037,-0.98722,2023,6,12,13,24,23,33
0.05300,2.69500,-4.56750,0.00000,-0.00634,0.02062,-0.98600,2023,6,12,13,24,23,44
0.05310,2.88750,-4.77750,0.00000,-0.00683,0.01745,-0.98661,2023,6,12,13,24,23,55
0.05320,2.83500,-4.58500,0.00000,-0.00598,0.02245,-0.99149,2023,6,12,13,24,23,67
0.05330,2.95750,-4.67250,0.00000,-0.00708,0.02062,-0.99040,2023,6,12,13,24,23,78
0.05340,2.90500,-4.67250,0.00000,-0.00647,0.01952,-0.98918,2023,6,12,13,24,23,89
0.05350,2.81750,-4.70750,0.00000,-0.00683,0.02135,-0.98735,2023,6,12,13,24,23,100
0.05360,2.99250,-4.51500,0.00000,-0.00622,0.01891,-0.99027,2023,6,12,13,24,23,111
0.05370,3.04500,-4.70750,0.00000,-0.00537,0.02037,-0.98381,2023,6,12,13,24,23,122
0.05380,2.81750,-4.39250,0.00000,-0.00488,0.02208,-0.98832,2023,6,12,13,24,23,133
0.05390,2.67750,-4.48000,0.00000,-0.00573,0.01976,-0.98747,2023,6,12,13,24,23,144
0.05400,2.83500,-4.51500,0.00000,-0.00622,0.01915,-0.98820,2023,6,12,13,24,23,155
0.05410,2.83500,-4.51500,0.00000,-0.00488,0.02135,-0.98979,2023,6,12,13,24,23,167
0.05420,2.94000,-4.56750,0.00000,-0.00647,0.02111,-0.98808,2023,6,12,13,24,23,178
0.05430,2.83500,-4.44500,0.00000,-0.00671,0.02123,-0.99088,2023,6,12,13,24,23,189
0.05440,2.88750,-4.35750,0.00000,-0.00586,0.01964,-0.98722,2023,6,12,13,24,23,200
0.05450,2.78250,-4.48000,0.00000,-0.00561,0.02013,-0.99088,2023,6,12,13,24,23,211
0.05460,2.80000,-4.84750,0.00000,-0.00671,0.01952,-0.99137,2023,6,12,13,24,23,222
0.05470,2.85250,-4.37500,0.00000,-0.00610,0.02147,-0.98918,2023,6,12,13,24,23,233
0.05480,2.92250,-4.63750,0.00000,-0.00549,0.02159,-0.98893,2023,6,12,13,24,23,244
0.05490,2.94000,-4.70750,0.00000,-0.00647,0.01952,-0.99088,2023,6,12,13,24,23,255
0.05500,3.06250,-4.63750,0.00000,-0.00634,0.02220,-0.98710,2023,6,12,13,24,23,267
0.05510,2.87000,-4.62000,0.00000,-0.00525,0.02025,-0.98942,2023,6,12,13,24,23,278
0.05520,2.69500,-4.69000,0.00000,-0.00622,0.02147,-0.98771,2023,6,12,13,24,23,289
0.05530,2.95750,-4.58500,0.00000,-0.00573,0.01989,-0.98710,2023,6,12,13,24,23,300
0.05540,2.88750,-4.67250,0.00000,-0.00598,0.01976,-0.98491,2023,6,12,13,24,23,311
0.05550,2.87000,-4.72500,0.00000,-0.00744,0.01867,-0.98783,2023,6,12,13,24,23,322
0.05560,2.71250,-4.72500,0.00000,-0.00659,0.02111,-0.98808,2023,6,12,13,24,23,333
0.05570,2.81750,-4.56750,0.00000,-0.00598,0.02123,-0.98759,2023,6,12,13,24,23,344
0.05580,2.83500,-4.55000,0.00000,-0.00610,0.01928,-0.99052,2023,6,12,13,24,23,355
0.05590,3.04500,-4.65500,0.00000,-0.00732,0.02172,-0.98869,2023,6,12,13,24,23,367
0.05600,2.81750,-4.51500,0.00000,-0.00647,0.02001,-0.98686,2023,6,12,13,24,23,378
0.05610,2.88750,-4.83000,0.00000,-0.00537,0.02025,-0.98991,2023,6,12,13,24,23,389
0.05620,2.90500,-4.70750,0.00000,-0.00683,0.01989,-0.98747,2023,6,12,13,24,23,400
0.05630,2.81750,-4.53250,0.00000,-0.00671,0.02062,-0.98881,2023,6,12,13,24,23,411
0.05640,3.04500,-4.74250,0.00000,-0.00598,0.02111,-0.98942,2023,6,12,13,24,23,422
0.05650,2.88750,-4.72500,0.00000,-0.00586,0.02062,-0.98759,2023,6,12,13,24,23,433
0.05660,2.97500,-4.60250,0.00000,-0.00659,0.01891,-0.98930,2023,6,12,13,24,23,444
0.05670,2.97500,-4.58500,0.00000,-0.00622,0.01928,-0.98832,2023,6,12,13,24,23,455
0.05680,2.88750,-4.56750,0.00000,-0.00647,0.02050,-0.98698,2023,6,12,13,24,23,467
0.05690,2.80000,-4.39250,0.00000,-0.00817,0.02184,-0.98979,2023,6,12,13,24,23,478
0.05700,2.66000,-4.63750,0.00000,-0.00561,0.01903,-0.98722,2023,6,12,13,24,23,489
0.05710,2.90500,-4.46250,0.00000,-0.00695,0.01842,-0.98942,2023,6,12,13,24,23,500
0.05720,2.88750,-4.28750,0.00000,-0.00671,0.02050,-0.98808,2023,6,12,13,24,23,511
0.05730,2.94000,-4.65500,0.00000,-0.00781,0.01952,-0.98808,2023,6,12,13,24,23,522
0.05740,2.80000,-4.67250,0.00000,-0.00781,0.02050,-0.98796,2023,6,12,13,24,23,533
0.05750,2.71250,-4.69000,0.00000,-0.00598,0.02111,-0.98710,2023,6,12,13,24,23,544
0.05760,2.80000,-4.62000,0.00000,-0.00598,0.01952,-0.99027,2023,6,12,13,24,23,555
0.05770,3.02750,-4.53250,0.00000,-0.00622,0.02025,-0.98954,2023,6,12,13,24,23,567
0.05780,2.99250,-4.65500,0.00000,-0.00671,0.02294,-0.98808,2023,6,12,13,24,23,578
0.05790,3.09750,-4.56750,0.00000,-0.00708,0.01696,-0.99040,2023,6,12,13,24,23,589
0.05800,2.76500,-4.51500,0.00000,-0.00573,0.02074,-0.98979,2023,6,12,13,24,23,600
0.05810,3.08000,-4.65500,0.00000,-0.00476,0.02086,-0.98783,2023,6,12,13,24,23,611
0.05820,2.94000,-4.51500,0.00000,-0.00512,0.01903,-0.98930,2023,6,12,13,24,23,622
0.05830,3.06250,-4.77750,0.00000,-0.00708,0.01818,-0.98869,2023,6,12,13,24,23,633
0.05840,2.71250,-4.60250,0.00000,-0.00756,0.02159,-0.98966,2023,6,12,13,24,23,644
0.05850,3.04500,-4.51500,0.00000,-0.00634,0.02025,-0.98918,2023,6,12,13,24,23,655
0.05860,2.97500,-4.60250,0.00000,-0.00671,0.02037,-0.98869,2023,6,12,13,24,23,667
0.05870,2.81750,-4.51500,0.00000,-0.00683,0.02050,-0.98979,2023,6,12,13,24,23,678
0.05880,2.88750,-4.53250,0.00000,-0.00464,0.02098,-0.98722,2023,6,12,13,24,23,689
0.05890,2.95750,-4.48000,0.00000,-0.00573,0.01928,-0.98710,2023,6,12,13,24,23,700
0.05900,2.90500,-4.70750,0.00000,-0.00500,0.02196,-0.98820,2023,6,12,13,24,23,711
0.05910,2.97500,-4.53250,0.00000,-0.00695,0.01854,-0.98954,2023,6,12,13,24,23,722
0.05920,2.94000,-4.65500,0.00000,-0.00586,0.02245,-0.98881,2023,6,12,13,24,23,733
0.05930,3.06250,-4.72500,0.00000,-0.00647,0.01915,-0.98991,2023,6,12,13,24,23,744
0.05940,2.85250,-4.74250,0.00000,-0.00610,0.02135,-0.98759,2023,6,12,13,24,23,755
0.05950,2.88750,-4.65500,0.00000,-0.00647,0.01928,-0.98857,2023,6,12,13,24,23,767
0.05960,2.76500,-4.51500,0.00000,-0.00744,0.02062,-0.98979,2023,6,12,13,24,23,778
0.05970,3.02750,-4.48000,0.00000,-0.00695,0.02050,-0.98832,2023,6,12,13,24,23,789
0.05980,3.04500,-4.70750,0.00000,-0.00769,0.02086,-0.98710,2023,6,12,13,24,23,800
0.05990,2.88750,-4.53250,0.00000,-0.00695,0.01830,-0.98735,2023,6,12,13,24,23,811
0.06000,2.78250,-4.62000,0.00000,-0.00671,0.02123,-0.98649,2023,6,12,13,24,23,822
0.06010,3.01000,-4.46250,0.00000,-0.00586,0.02050,-0.99015,2023,6,12,13,24,23,833
0.06020,2.95750,-4.72500,0.00000,-0.00671,0.02184,-0.99430,2023,6,12,13,24,23,844
0.06030,2.88750,-4.67250,0.00000,-0.00573,0.02025,-0.98796,2023,6,12,13,24,23,855
0.06040,2.62500,-4.48000,0.00000,-0.00647,0.02098,-0.98747,2023,6,12,13,24,23,867
0.06050,2.88750,-4.49750,0.00000,-0.00610,0.01989,-0.98674,2023,6,12,13,24,23,878
0.06060,2.88750,-4.67250,0.00000,-0.00610,0.01903,-0.98869,2023,6,12,13,24,23,889
0.06070,3.08000,-4.67250,0.00000,-0.00476,0.02050,-0.99064,2023,6,12,13,24,23,900
0.06080,2.99250,-4.44500,0.00000,-0.00464,0.02013,-0.98649,2023,6,12,13,24,23,911
0.06090,2.97500,-4.74250,0.00000,-0.00659,0.02074,-0.98881,2023,6,12,13,24,23,922
0.06100,2.90500,-4.90000,0.00000,-0.00537,0.01891,-0.98832,2023,6,12,13,24,23,933
0.06110,2.83500,-4.49750,0.00000,-0.00744,0.01842,-0.98820,2023,6,12,13,24,23,944
0.06120,2.95750,-4.48000,0.00000,-0.00671,0.02037,-0.98966,2023,6,12,13,24,24,5
0.06130,2.76500,-4.44500,0.00000,-0.00683,0.02001,-0.98869,2023,6,12,13,24,24,17
0.06140,2.83500,-4.53250,0.00000,-0.00732,0.01952,-0.99052,2023,6,12,13,24,24,28
0.06150,2.71250,-4.56750,0.00000,-0.00622,0.02050,-0.98942,2023,6,12,13,24,24,39
0.06160,2.94000,-4.69000,0.00000,-0.00634,0.01928,-0.98869,2023,6,12,13,24,24,50
0.06170,2.97500,-4.58500,0.00000,-0.00805,0.02135,-0.99332,2023,6,12,13,24,24,61
0.06180,2.78250,-4.58500,0.00000,-0.00708,0.02147,-0.98979,2023,6,12,13,24,24,72
0.06190,2.97500,-4.79500,0.00000,-0.00671,0.02050,-0.98637,2023,6,12,13,24,24,83
0.06200,2.81750,-4.56750,0.00000,-0.00561,0.02050,-0.98832,2023,6,12,13,24,24,94
0.06210,2.97500,-4.53250,0.00000,-0.00695,0.01940,-0.99101,2023,6,12,13,24,24,105
0.06220,3.11500,-4.76000,0.00000,-0.00610,0.02184,-0.99052,2023,6,12,13,24,24,117
0.06230,2.71250,-4.44500,0.00000,-0.00622,0.02013,-0.98686,2023,6,12,13,24,24,128
0.06240,3.02750,-4.74250,0.00000,-0.00622,0.01940,-0.98832,2023,6,12,13,24,24,139
0.06250,2.71250,-4.37500,0.00000,-0.00659,0.02098,-0.98796,2023,6,12,13,24,24,150
0.06260,2.97500,-4.46250,0.00000,-0.00647,0.02123,-0.98930,2023,6,12,13,24,24,161
0.06270,2.78250,-4.46250,0.00000,-0.00561,0.02147,-0.98771,2023,6,12,13,24,24,172
0.06280,2.85250,-4.79500,0.00000,-0.00732,0.01806,-0.99040,2023,6,12,13,24,24,183
0.06290,2.92250,-4.63750,0.00000,-0.00671,0.02074,-0.99015,2023,6,12,13,24,24,194
0.06300,3.18500,-4.60250,0.00000,-0.00622,0.01903,-0.99015,2023,6,12,13,24,24,205
0.06310,3.04500,-4.86500,0.00000,-0.00659,0.01976,-0.98722,2023,6,12,13,24,24,217
0.06320,2.97500,-4.60250,0.00000,-0.00537,0.02159,-0.98979,2023,6,12,13,24,24,228
0.06330,3.09750,-4.65500,0.00000,-0.00573,0.01940,-0.98844,2023,6,12,13,24,24,239
0.06340,2.81750,-4.49750,0.00000,-0.00708,0.02062,-0.98918,2023,6,12,13,24,24,250
0.06350,2.95750,-4.62000,0.00000,-0.00671,0.01964,-0.98844,2023,6,12,13,24,24,261
0.06360,2.81750,-4.62000,0.00000,-0.00610,0.02098,-0.99088,2023,6,12,13,24,24,272
0.06370,2.95750,-4.63750,0.00000,-0.00732,0.02123,-0.99210,2023,6,12,13,24,24,283
0.06380,2.78250,-4.46250,0.00000,-0.00732,0.02050,-0.99137,2023,6,12,13,24,24,294
0.06390,2.88750,-4.81250,0.00000,-0.00732,0.02001,-0.99393,2023,6,12,13,24,24,305
0.06400,2.85250,-4.65500,0.00000,-0.00512,0.02098,-0.99088,2023,6,12,13,24,24,317
0.06410,2.78250,-4.56750,0.00000,-0.00634,0.02037,-0.98869,2023,6,12,13,24,24,328
0.06420,2.95750,-4.58500,0.00000,-0.00537,0.02367,-0.99137,2023,6,12,13,24,24,339
0.06430,2.88750,-4.58500,0.00000,-0.00573,0.02245,-0.98722,2023,6,12,13,24,24,350
0.06440,2.90500,-4.74250,0.00000,-0.00671,0.01976,-0.99040,2023,6,12,13,24,24,361
0.06450,2.76500,-4.51500,0.00000,-0.00549,0.02159,-0.98942,2023,6,12,13,24,24,372
0.06460,2.87000,-4.46250,0.00000,-0.00647,0.01976,-0.99088,2023,6,12,13,24,24,383
0.06470,2.81750,-4.74250,0.00000,-0.00525,0.02001,-0.99101,2023,6,12,13,24,24,394
0.06480,2.87000,-4.67250,0.00000,-0.00549,0.01940,-0.98942,2023,6,12,13,24,24,405
0.06490,2.95750,-4.62000,0.00000,-0.00598,0.01891,-0.99015,2023,6,12,13,24,24,417
0.06500,2.88750,-4.86500,0.00000,-0.00537,0.02037,-0.98991,2023,6,12,13,24,24,428
0.06510,2.95750,-4.76000,0.00000,-0.00781,0.01830,-0.99259,2023,6,12,13,24,24,439
0.06520,2.92250,-4.44500,0.00000,-0.00622,0.01964,-0.99186,2023,6,12,13,24,24,450
0.06530,2.90500,-4.62000,0.00000,-0.00622,0.01915,-0.99137,2023,6,12,13,24,24,461
0.06540,2.80000,-4.63750,0.00000,-0.00769,0.02074,-0.99003,2023,6,12,13,24,24,472
0.06550,2.85250,-4.83000,0.00000,-0.00842,0.02062,-0.98979,2023,6,12,13,24,24,483
0.06560,2.94000,-4.63750,0.00000,-0.00732,0.01854,-0.99174,2023,6,12,13,24,24,494
0.06570,2.90500,-4.67250,0.00000,-0.00610,0.02123,-0.99345,2023,6,12,13,24,24,505
0.06580,3.06250,-4.67250,0.00000,-0.00720,0.01842,-0.99076,2023,6,12,13,24,24,517
0.06590,2.83500,-4.56750,0.00000,-0.00464,0.01915,-0.98930,2023,6,12,13,24,24,528
0.06600,2.85250,-4.49750,0.00000,-0.00586,0.02062,-0.99137,2023,6,12,13,24,24,539
0.06610,2.73000,-4.60250,0.00000,-0.00708,0.02074,-0.99052,2023,6,12,13,24,24,550
0.06620,2.74750,-4.53250,0.00000,-0.00671,0.01915,-0.99296,2023,6,12,13,24,24,561
0.06630,2.90500,-4.62000,0.00000,-0.00598,0.01952,-0.99015,2023,6,12,13,24,24,572
0.06640,2.78250,-4.51500,0.00000,-0.00561,0.01964,-0.99259,2023,6,12,13,24,24,583
0.06650,2.81750,-4.65500,0.00000,-0.00659,0.01915,-0.99088,2023,6,12,13,24,24,594
0.06660,2.66000,-4.62000,0.00000,-0.00805,0.01940,-0.98552,2023,6,12,13,24,24,605
0.06670,3.02750,-4.60250,0.00000,-0.00720,0.02013,-0.99113,2023,6,12,13,24,24,617
0.06680,2.87000,-4.56750,0.00000,-0.00561,0.02245,-0.99308,2023,6,12,13,24,24,628
0.06690,2.92250,-4.48000,0.00000,-0.00634,0.02074,-0.99088,2023,6,12,13,24,24,639
0.06700,2.94000,-4.60250,0.00000,-0.00573,0.02111,-0.99064,2023,6,12,13,24,24,650
0.06710,2.71250,-4.44500,0.00000,-0.00659,0.01769,-0.98747,2023,6,12,13,24,24,661
0.06720,2.97500,-4.74250,0.00000,-0.00659,0.01989,-0.98686,2023,6,12,13,24,24,672
0.06730,2.76500,-4.56750,0.00000,-0.00744,0.01915,-0.99198,2023,6,12,13,24,24,683
0.06740,2.92250,-4.49750,0.00000,-0.00720,0.02050,-0.99125,2023,6,12,13,24,24,694
0.06750,2.85250,-4.49750,0.00000,-0.00573,0.02074,-0.98857,2023,6,12,13,24,24,705
0.06760,2.90500,-4.60250,0.00000,-0.00634,0.01793,-0.98966,2023,6,12,13,24,24,717
0.06770,2.92250,-4.53250,0.00000,-0.00634,0.01940,-0.98881,2023,6,12,13,24,24,728
0.06780,2.92250,-4.67250,0.00000,-0.00573,0.02062,-0.98857,2023,6,12,13,24,24,739
0.06790,2.71250,-4.46250,0.00000,-0.00769,0.02037,-0.99247,2023,6,12,13,24,24,750
0.06800,3.01000,-4.60250,0.00000,-0.00622,0.01976,-0.99076,2023,6,12,13,24,24,761
0.06810,2.94000,-4.69000,0.00000,-0.00671,0.02050,-0.98832,2023,6,12,13,24,24,772
0.06820,2.85250,-4.58500,0.00000,-0.00610,0.02086,-0.98918,2023,6,12,13,24,24,783
0.06830,2.90500,-4.62000,0.00000,-0.00622,0.01806,-0.98893,2023,6,12,13,24,24,794
0.06840,2.85250,-4.69000,0.00000,-0.00671,0.01928,-0.99125,2023,6,12,13,24,24,805
0.06850,2.92250,-4.55000,0.00000,-0.00561,0.01940,-0.98869,2023,6,12,13,24,24,817
0.06860,2.80000,-4.77750,0.00000,-0.00671,0.01745,-0.99125,2023,6,12,13,24,24,828
0.06870,2.94000,-4.30500,0.00000,-0.00647,0.02025,-0.98966,2023,6,12,13,24,24,839
0.06880,2.99250,-4.65500,0.00000,-0.00769,0.01915,-0.99247,2023,6,12,13,24,24,850
0.06890,2.81750,-4.62000,0.00000,-0.00537,0.02208,-0.99223,2023,6,12,13,24,24,861
0.06900,2.87000,-4.56750,0.00000,-0.00903,0.02281,-0.99076,2023,6,12,13,24,24,872
0.06910,2.83500,-4.55000,0.00000,-0.00537,0.02233,-0.98783,2023,6,12,13,24,24,883
0.06920,2.97500,-4.48000,0.00000,-0.00537,0.02172,-0.98991,2023,6,12,13,24,24,894
0.06930,3.09750,-4.70750,0.00000,-0.00598,0.02013,-0.98881,2023,6,12,13,24,24,905
0.06940,3.13250,-4.79500,0.00000,-0.00671,0.01940,-0.98991,2023,6,12,13,24,24,917
0.06950,2.83500,-4.58500,0.00000,-0.00488,0.02184,-0.99027,2023,6,12,13,24,24,928
0.06960,2.76500,-4.56750,0.00000,-0.00561,0.01952,-0.98991,2023,6,12,13,24,24,939
0.06970,2.67750,-4.58500,0.00000,-0.00793,0.02123,-0.99235,2023,6,12,13,24,24,950
0.06980,2.83500,-4.37500,0.00000,-0.00756,0.01854,-0.99088,2023,6,12,13,24,24,961
0.06990,2.90500,-4.67250,0.00000,-0.00622,0.02123,-0.99015,2023,6,12,13,24,25,2
0.07000,2.83500,-4.62000,0.00000,-0.00598,0.02037,-0.99137,2023,6,12,13,24,25,13
0.07010,2.85250,-4.70750,0.00000,-0.00586,0.02013,-0.98869,2023,6,12,13,24,25,24
0.07020,2.74750,-4.58500,0.00000,-0.00744,0.01952,-0.98991,2023,6,12,13,24,25,35
0.07030,2.69500,-4.70750,0.00000,-0.00671,0.02013,-0.98857,2023,6,12,13,24,25,47
0.07040,2.99250,-4.69000,0.00000,-0.00647,0.01940,-0.98857,2023,6,12,13,24,25,58
0.07050,2.97500,-4.77750,0.00000,-0.00805,0.02123,-0.98881,2023,6,12,13,24,25,69
0.07060,2.94000,-4.69000,0.00000,-0.00525,0.02062,-0.98820,2023,6,12,13,24,25,80
0.07070,2.69500,-4.46250,0.00000,-0.00634,0.02074,-0.98796,2023,6,12,13,24,25,91
0.07080,2.94000,-4.65500,0.00000,-0.00878,0.02184,-0.98881,2023,6,12,13,24,25,102
0.07090,3.02750,-4.46250,0.00000,-0.00720,0.02111,-0.98820,2023,6,12,13,24,25,113
0.07100,2.94000,-4.79500,0.00000,-0.00671,0.02196,-0.99113,2023,6,12,13,24,25,124
0.07110,2.80000,-4.56750,0.00000,-0.00671,0.01806,-0.98771,2023,6,12,13,24,25,135
0.07120,2.99250,-4.63750,0.00000,-0.00695,0.01928,-0.99027,2023,6,12,13,24,25,147
0.07130,2.78250,-4.53250,0.00000,-0.00756,0.02111,-0.98954,2023,6,12,13,24,25,158
0.07140,2.94000,-4.48000,0.00000,-0.00720,0.01757,-0.99332,2023,6,12,13,24,25,169
0.07150,2.87000,-4.46250,0.00000,-0.00732,0.01915,-0.98844,2023,6,12,13,24,25,180
0.07160,2.95750,-4.56750,0.00000,-0.00695,0.01976,-0.99076,2023,6,12,13,24,25,191
0.07170,2.87000,-4.60250,0.00000,-0.00549,0.01964,-0.99137,2023,6,12,13,24,25,202
0.07180,2.95750,-4.65500,0.00000,-0.00573,0.01891,-0.98796,2023,6,12,13,24,25,213
0.07190,2.99250,-4.65500,0.00000,-0.00793,0.02257,-0.99064,2023,6,12,13,24,25,224
0.07200,2.67750,-4.30500,0.00000,-0.00659,0.02025,-0.98832,2023,6,12,13,24,25,235
0.07210,2.90500,-4.58500,0.00000,-0.00695,0.01781,-0.99088,2023,6,12,13,24,25,247
0.07220,2.88750,-4.53250,0.00000,-0.00744,0.02098,-0.99052,2023,6,12,13,24,25,258
0.07230,2.92250,-4.74250,0.00000,-0.00549,0.02050,-0.99101,2023,6,12,13,24,25,269
0.07240,2.69500,-4.44500,0.00000,-0.00634,0.02013,-0.99101,2023,6,12,13,24,25,280
0.07250,3.08000,-4.62000,0.00000,-0.00634,0.01842,-0.99101,2023,6,12,13,24,25,291
0.07260,2.95750,-4.49750,0.00000,-0.00634,0.02074,-0.98832,2023,6,12,13,24,25,302
0.07270,2.92250,-4.56750,0.00000,-0.00634,0.02074,-0.98698,2023,6,12,13,24,25,313
0.07280,2.90500,-4.69000,0.00000,-0.00647,0.02208,-0.99027,2023,6,12,13,24,25,324
0.07290,2.97500,-4.41000,0.00000,-0.00476,0.02172,-0.98942,2023,6,12,13,24,25,335
0.07300,2.94000,-4.65500,0.00000,-0.00366,0.01952,-0.99015,2023,6,12,13,24,25,347
0.07310,2.90500,-4.62000,0.00000,-0.00756,0.02062,-0.98808,2023,6,12,13,24,25,358
0.07320,3.01000,-4.39250,0.00000,-0.00598,0.02086,-0.99003,2023,6,12,13,24,25,369
0.07330,2.81750,-4.69000,0.00000,-0.00610,0.02013,-0.99235,2023,6,12,13,24,25,380
0.07340,2.94000,-4.46250,0.00000,-0.00573,0.02111,-0.99076,2023,6,12,13,24,25,391
0.07350,2.88750,-4.67250,0.00000,-0.00561,0.02135,-0.98893,2023,6,12,13,24,25,402
0.07360,2.88750,-4.49750,0.00000,-0.00756,0.02013,-0.98735,2023,6,12,13,24,25,413
0.07370,2.83500,-4.63750,0.00000,-0.00610,0.02123,-0.98710,2023,6,12,13,24,25,424
0.07380,2.99250,-4.44500,0.00000,-0.00708,0.01818,-0.98649,2023,6,12,13,24,25,435
0.07390,3.06250,-4.49750,0.00000,-0.00586,0.02086,-0.98747,2023,6,12,13,24,25,447
0.07400,2.90500,-4.62000,0.00000,-0.00610,0.02074,-0.98905,2023,6,12,13,24,25,458
0.07410,2.78250,-4.58500,0.00000,-0.00561,0.01745,-0.98930,2023,6,12,13,24,25,469
0.07420,2.95750,-4.46250,0.00000,-0.00561,0.02025,-0.98857,2023,6,12,13,24,25,480
0.07430,2.73000,-4.69000,0.00000,-0.00695,0.02269,-0.98991,2023,6,12,13,24,25,491
0.07440,2.92250,-4.49750,0.00000,-0.00659,0.01867,-0.98991,2023,6,12,13,24,25,502
0.07450,2.92250,-4.53250,0.00000,-0.00610,0.02062,-0.98796,2023,6,12,13,24,25,513
0.07460,2.94000,-4.63750,0.00000,-0.00598,0.02086,-0.99101,2023,6,12,13,24,25,524
0.07470,2.90500,-4.58500,0.00000,-0.00634,0.01842,-0.98930,2023,6,12,13,24,25,535
0.07480,2.90500,-4.83000,0.00000,-0.00500,0.02147,-0.98930,2023,6,12,13,24,25,547
0.07490,2.83500,-4.53250,0.00000,-0.00586,0.01745,-0.98869,2023,6,12,13,24,25,558
0.07500,2.81750,-4.49750,0.00000,-0.00671,0.02074,-0.98881,2023,6,12,13,24,25,569
0.07510,2.99250,-4.72500,0.00000,-0.00647,0.02159,-0.99076,2023,6,12,13,24,25,580
0.07520,3.01000,-4.56750,0.00000,-0.00659,0.01928,-0.98820,2023,6,12,13,24,25,591
0.07530,3.09750,-4.63750,0.00000,-0.00549,0.01879,-0.98796,2023,6,12,13,24,25,602
0.07540,2.95750,-4.70750,0.00000,-0.00622,0.01952,-0.98783,2023,6,12,13,24,25,613
0.07550,2.78250,-4.53250,0.00000,-0.00537,0.02086,-0.98674,2023,6,12,13,24,25,624
0.07560,2.90500,-4.55000,0.00000,-0.00586,0.01976,-0.98820,2023,6,12,13,24,25,635
0.07570,2.85250,-4.41000,0.00000,-0.00793,0.02123,-0.98808,2023,6,12,13,24,25,647
0.07580,3.02750,-4.63750,0.00000,-0.00537,0.02037,-0.98966,2023,6,12,13,24,25,658
0.07590,3.01000,-4.69000,0.00000,-0.00464,0.02086,-0.98527,2023,6,12,13,24,25,669
0.07600,2.88750,-4.46250,0.00000,-0.00561,0.01854,-0.98759,2023,6,12,13,24,25,680
0.07610,2.62500,-4.65500,0.00000,-0.00647,0.02269,-0.98783,2023,6,12,13,24,25,691
0.07620,2.78250,-4.58500,0.00000,-0.00561,0.01989,-0.99040,2023,6,12,13,24,25,702
0.07630,2.94000,-4.53250,0.00000,-0.00659,0.01940,-0.98722,2023,6,12,13,24,25,713
0.07640,2.95750,-4.69000,0.00000,-0.00586,0.01952,-0.98735,2023,6,12,13,24,25,724
0.07650,2.78250,-4.41000,0.00000,-0.00610,0.01842,-0.98735,2023,6,12,13,24,25,735
0.07660,3.02750,-4.69000,0.00000,-0.00610,0.01915,-0.98771,2023,6,12,13,24,25,747
0.07670,2.81750,-4.49750,0.00000,-0.00659,0.01879,-0.98588,2023,6,12,13,24,25,758
0.07680,3.08000,-4.88250,0.00000,-0.00647,0.01854,-0.98857,2023,6,12,13,24,25,769
0.07690,2.88750,-4.67250,0.00000,-0.00500,0.01964,-0.98674,2023,6,12,13,24,25,780
0.07700,2.90500,-4.63750,0.00000,-0.00683,0.02086,-0.98991,2023,6,12,13,24,25,791
0.07710,2.80000,-4.39250,0.00000,-0.00720,0.02074,-0.98698,2023,6,12,13,24,25,802
0.07720,2.87000,-4.56750,0.00000,-0.00549,0.01879,-0.98832,2023,6,12,13,24,25,813
0.07730,2.97500,-4.53250,0.00000,-0.00769,0.02159,-0.98710,2023,6,12,13,24,25,824
0.07740,2.81750,-4.37500,0.00000,-0.00842,0.01964,-0.99027,2023,6,12,13,24,25,835
0.07750,2.80000,-4.56750,0.00000,-0.00732,0.01793,-0.98942,2023,6,12,13,24,25,847
0.07760,2.83500,-4.51500,0.00000,-0.00561,0.01879,-0.98661,2023,6,12,13,24,25,858
0.07770,2.88750,-4.55000,0.00000,-0.00610,0.02098,-0.98869,2023,6,12,13,24,25,869
0.07780,2.85250,-4.72500,0.00000,-0.00708,0.02086,-0.98918,2023,6,12,13,24,25,880
0.07790,2.92250,-4.53250,0.00000,-0.00647,0.01940,-0.98844,2023,6,12,13,24,25,891
0.07800,2.87000,-4.55000,0.00000,-0.00586,0.01989,-0.98844,2023,6,12,13,24,25,902
0.07810,2.95750,-4.44500,0.00000,-0.00403,0.02111,-0.98515,2023,6,12,13,24,25,913
0.07820,2.76500,-4.41000,0.00000,-0.00695,0.01940,-0.98686,2023,6,12,13,24,25,924
0.07830,2.90500,-4.65500,0.00000,-0.00720,0.02001,-0.98796,2023,6,12,13,24,25,935
0.07840,3.01000,-4.69000,0.00000,-0.00634,0.01976,-0.98808,2023,6,12,13,24,25,947
0.07850,2.88750,-4.69000,0.00000,-0.00744,0.02086,-0.98893,2023,6,12,13,24,25,958
0.07860,2.94000,-4.49750,0.00000,-0.00756,0.01830,-0.98698,2023,6,12,13,24,25,969
0.07870,2.92250,-4.51500,0.00000,-0.00659,0.01830,-0.98552,2023,6,12,13,24,26,0
0.07880,2.81750,-4.46250,0.00000,-0.00610,0.02245,-0.98808,2023,6,12,13,24,26,11
0.07890,3.02750,-4.76000,0.00000,-0.00732,0.01891,-0.99210,2023,6,12,13,24,26,22
0.07900,3.06250,-4.60250,0.00000,-0.00671,0.01854,-0.98832,2023,6,12,13,24,26,33
0.07910,2.80000,-4.65500,0.00000,-0.00744,0.01903,-0.98613,2023,6,12,13,24,26,44
0.07920,2.99250,-4.65500,0.00000,-0.00878,0.02025,-0.98796,2023,6,12,13,24,26,55
0.07930,2.97500,-4.70750,0.00000,-0.00610,0.01830,-0.99015,2023,6,12,13,24,26,67
0.07940,3.04500,-4.63750,0.00000,-0.00598,0.02001,-0.98722,2023,6,12,13,24,26,78
0.07950,2.69500,-4.53250,0.00000,-0.00695,0.02013,-0.98905,2023,6,12,13,24,26,89
0.07960,2.99250,-4.67250,0.00000,-0.00622,0.02147,-0.99259,2023,6,12,13,24,26,100
0.07970,2.99250,-4.60250,0.00000,-0.00525,0.02172,-0.98783,2023,6,12,13,24,26,111
0.07980,3.02750,-4.63750,0.00000,-0.00500,0.02098,-0.98564,2023,6,12,13,24,26,122
0.07990,2.94000,-4.81250,0.00000,-0.00647,0.01891,-0.98808,2023,6,12,13,24,26,133
0.08000,2.78250,-4.63750,0.00000,-0.00769,0.01976,-0.98832,2023,6,12,13,24,26,144
0.08010,3.11500,-4.72500,0.00000,-0.00756,0.01879,-0.99076,2023,6,12,13,24,26,155
0.08020,2.85250,-4.51500,0.00000,-0.00622,0.02025,-0.98759,2023,6,12,13,24,26,167
0.08030,2.67750,-4.48000,0.00000,-0.00659,0.01952,-0.98808,2023,6,12,13,24,26,178
0.08040,2.80000,-4.49750,0.00000,-0.00634,0.02037,-0.98820,2023,6,12,13,24,26,189
0.08050,2.85250,-4.55000,0.00000,-0.00525,0.02159,-0.98857,2023,6,12,13,24,26,200
0.08060,2.80000,-4.70750,0.00000,-0.00573,0.02037,-0.98869,2023,6,12,13,24,26,211
0.08070,2.83500,-4.58500,0.00000,-0.00805,0.01952,-0.98796,2023,6,12,13,24,26,222
0.08080,2.74750,-4.60250,0.00000,-0.00769,0.02111,-0.98844,2023,6,12,13,24,26,233
0.08090,2.90500,-4.56750,0.00000,-0.00573,0.02062,-0.98539,2023,6,12,13,24,26,244
0.08100,2.60750,-4.32250,0.00000,-0.00805,0.01854,-0.98966,2023,6,12,13,24,26,255
0.08110,2.83500,-4.65500,0.00000,-0.00610,0.02050,-0.98844,2023,6,12,13,24,26,267
0.08120,2.66000,-4.65500,0.00000,-0.00439,0.02306,-0.98661,2023,6,12,13,24,26,278
0.08130,2.76500,-4.65500,0.00000,-0.00512,0.02074,-0.98771,2023,6,12,13,24,26,289
0.08140,2.92250,-4.46250,0.00000,-0.00708,0.02062,-0.99015,2023,6,12,13,24,26,300
0.08150,2.90500,-4.58500,0.00000,-0.00866,0.02159,-0.98698,2023,6,12,13,24,26,311
0.08160,2.85250,-4.55000,0.00000,-0.00598,0.01842,-0.98735,2023,6,12,13,24,26,322
0.08170,2.87000,-4.60250,0.00000,-0.00805,0.01964,-0.99101,2023,6,12,13,24,26,333
0.08180,2.94000,-4.67250,0.00000,-0.00634,0.01915,-0.98747,2023,6,12,13,24,26,344
0.08190,2.78250,-4.58500,0.00000,-0.00732,0.01879,-0.98698,2023,6,12,13,24,26,355
0.08200,3.08000,-4.81250,0.00000,-0.00769,0.01793,-0.98979,2023,6,12,13,24,26,367
0.08210,2.80000,-4.51500,0.00000,-0.00695,0.02025,-0.98881,2023,6,12,13,24,26,378
0.08220,2.87000,-4.62000,0.00000,-0.00525,0.02220,-0.99040,2023,6,12,13,24,26,389
0.08230,2.78250,-4.56750,0.00000,-0.00744,0.01928,-0.99088,2023,6,12,13,24,26,400
0.08240,2.64250,-4.76000,0.00000,-0.00732,0.02257,-0.99088,2023,6,12,13,24,26,411
0.08250,2.95750,-4.37500,0.00000,-0.00720,0.01976,-0.98905,2023,6,12,13,24,26,422
0.08260,2.88750,-4.69000,0.00000,-0.00573,0.01940,-0.98552,2023,6,12,13,24,26,433
0.08270,2.50250,-4.39250,0.00000,-0.00720,0.01989,-0.98869,2023,6,12,13,24,26,444
0.08280,2.76500,-4.77750,0.00000,-0.00683,0.01915,-0.98857,2023,6,12,13,24,26,455
0.08290,2.71250,-4.46250,0.00000,-0.00451,0.02294,-0.98966,2023,6,12,13,24,26,467
0.08300,2.80000,-4.39250,0.00000,-0.00549,0.02172,-0.98796,2023,6,12,13,24,26,478
0.08310,2.90500,-4.76000,0.00000,-0.00610,0.02037,-0.98991,2023,6,12,13,24,26,489
0.08320,2.99250,-4.56750,0.00000,-0.00586,0.02086,-0.98881,2023,6,12,13,24,26,500
0.08330,2.85250,-4.49750,0.00000,-0.00695,0.01830,-0.98735,2023,6,12,13,24,26,511
0.08340,2.88750,-4.56750,0.00000,-0.00561,0.02123,-0.98771,2023,6,12,13,24,26,522
0.08350,2.80000,-4.44500,0.00000,-0.00708,0.01940,-0.99101,2023,6,12,13,24,26,533
0.08360,2.92250,-4.53250,0.00000,-0.00891,0.02123,-0.98881,2023,6,12,13,24,26,544
0.08370,2.78250,-4.56750,0.00000,-0.00683,0.01903,-0.98979,2023,6,12,13,24,26,555
0.08380,3.13250,-4.58500,0.00000,-0.00598,0.02013,-0.99003,2023,6,12,13,24,26,567
0.08390,2.92250,-4.60250,0.00000,-0.00793,0.02037,-0.99088,2023,6,12,13,24,26,578
0.08400,2.95750,-4.79500,0.00000,-0.00671,0.02037,-0.98771,2023,6,12,13,24,26,589
0.08410,2.88750,-4.53250,0.00000,-0.00769,0.01903,-0.98783,2023,6,12,13,24,26,600
0.08420,2.73000,-4.55000,0.00000,-0.00488,0.02147,-0.98771,2023,6,12,13,24,26,611
0.08430,2.99250,-4.65500,0.00000,-0.00695,0.02086,-0.98979,2023,6,12,13,24,26,622
0.08440,2.80000,-4.79500,0.00000,-0.00842,0.01891,-0.98771,2023,6,12,13,24,26,633
0.08450,2.92250,-4.70750,0.00000,-0.00500,0.02098,-0.98905,2023,6,12,13,24,26,644
0.08460,2.87000,-4.53250,0.00000,-0.00586,0.01952,-0.99027,2023,6,12,13,24,26,655
0.08470,2.87000,-4.58500,0.00000,-0.00573,0.02172,-0.98869,2023,6,12,13,24,26,667
0.08480,2.83500,-4.44500,0.00000,-0.00610,0.02037,-0.98881,2023,6,12,13,24,26,678
0.08490,2.88750,-4.69000,0.00000,-0.00561,0.02037,-0.99064,2023,6,12,13,24,26,689
0.08500,2.92250,-4.70750,0.00000,-0.00622,0.01720,-0.99015,2023,6,12,13,24,26,700
0.08510,3.08000,-4.51500,0.00000,-0.00598,0.01940,-0.99003,2023,6,12,13,24,26,711
0.08520,2.76500,-4.56750,0.00000,-0.00695,0.02245,-0.99003,2023,6,12,13,24,26,722
0.08530,2.92250,-4.72500,0.00000,-0.00525,0.01940,-0.98979,2023,6,12,13,24,26,733
0.08540,2.83500,-4.42750,0.00000,-0.00671,0.01903,-0.98966,2023,6,12,13,24,26,744
0.08550,2.83500,-4.48000,0.00000,-0.00915,0.02086,-0.99040,2023,6,12,13,24,26,755
0.08560,2.94000,-4.58500,0.00000,-0.00744,0.01842,-0.98930,2023,6,12,13,24,26,767
0.08570,2.94000,-4.72500,0.00000,-0.00671,0.02037,-0.99088,2023,6,12,13,24,26,778
0.08580,3.16750,-4.67250,0.00000,-0.00610,0.02037,-0.98466,2023,6,12,13,24,26,789
0.08590,3.01000,-4.44500,0.00000,-0.00720,0.01928,-0.98966,2023,6,12,13,24,26,800
0.08600,2.92250,-4.55000,0.00000,-0.00537,0.02074,-0.98979,2023,6,12,13,24,26,811
0.08610,2.99250,-4.55000,0.00000,-0.00586,0.02220,-0.98771,2023,6,12,13,24,26,822
0.08620,2.81750,-4.65500,0.00000,-0.00805,0.02025,-0.98881,2023,6,12,13,24,26,833
0.08630,2.81750,-4.69000,0.00000,-0.00793,0.01989,-0.99052,2023,6,12,13,24,26,844
0.08640,2.81750,-4.53250,0.00000,-0.00854,0.01952,-0.98637,2023,6,12,13,24,26,855
0.08650,2.87000,-4.34000,0.00000,-0.00622,0.02111,-0.99052,2023,6,12,13,24,26,867
0.08660,2.87000,-4.67250,0.00000,-0.00525,0.01964,-0.99015,2023,6,12,13,24,26,878
0.08670,2.69500,-4.49750,0.00000,-0.00622,0.02001,-0.98893,2023,6,12,13,24,26,889
0.08680,2.73000,-4.53250,0.00000,-0.00561,0.02013,-0.98625,2023,6,12,13,24,26,900
0.08690,2.78250,-4.60250,0.00000,-0.00610,0.02086,-0.98857,2023,6,12,13,24,26,911
0.08700,2.85250,-4.53250,0.00000,-0.00512,0.02086,-0.98881,2023,6,12,13,24,26,922
0.08710,2.97500,-4.81250,0.00000,-0.00549,0.01879,-0.98759,2023,6,12,13,24,26,933
0.08720,2.85250,-4.69000,0.00000,-0.00671,0.02001,-0.98857,2023,6,12,13,24,26,944
0.08730,2.74750,-4.42750,0.00000,-0.00903,0.01940,-0.98552,2023,6,12,13,24,26,955
0.08740,2.95750,-4.44500,0.00000,-0.00683,0.01928,-0.99125,2023,6,12,13,24,27,7
0.08750,2.85250,-4.39250,0.00000,-0.00708,0.02037,-0.99040,2023,6,12,13,24,27,18
0.08760,2.78250,-4.72500,0.00000,-0.00439,0.02172,-0.98674,2023,6,12,13,24,27,29
0.08770,2.94000,-4.37500,0.00000,-0.00598,0.01891,-0.99125,2023,6,12,13,24,27,40
0.08780,2.74750,-4.70750,0.00000,-0.00586,0.02001,-0.98576,2023,6,12,13,24,27,51
0.08790,2.95750,-4.70750,0.00000,-0.00732,0.01867,-0.98991,2023,6,12,13,24,27,62
0.08800,2.87000,-4.41000,0.00000,-0.00598,0.01964,-0.98954,2023,6,12,13,24,27,73
0.08810,2.83500,-4.46250,0.00000,-0.00561,0.01928,-0.98710,2023,6,12,13,24,27,84
0.08820,2.94000,-4.84750,0.00000,-0.00561,0.02123,-0.98649,2023,6,12,13,24,27,95
0.08830,3.02750,-4.65500,0.00000,-0.00793,0.02086,-0.99137,2023,6,12,13,24,27,107
0.08840,2.80000,-4.34000,0.00000,-0.00476,0.01989,-0.98820,2023,6,12,13,24,27,118
0.08850,2.92250,-4.69000,0.00000,-0.00744,0.02001,-0.98674,2023,6,12,13,24,27,129
0.08860,2.74750,-4.72500,0.00000,-0.00573,0.02086,-0.98735,2023,6,12,13,24,27,140
0.08870,2.97500,-4.76000,0.00000,-0.00659,0.02086,-0.98832,2023,6,12,13,24,27,151
0.08880,2.95750,-4.65500,0.00000,-0.00781,0.01903,-0.99125,2023,6,12,13,24,27,162
0.08890,2.81750,-4.48000,0.00000,-0.00744,0.02001,-0.98820,2023,6,12,13,24,27,173
0.08900,2.78250,-4.56750,0.00000,-0.00671,0.01976,-0.99125,2023,6,12,13,24,27,184
0.08910,2.92250,-4.62000,0.00000,-0.00598,0.02172,-0.98905,2023,6,12,13,24,27,195
0.08920,2.95750,-4.67250,0.00000,-0.00647,0.01842,-0.99101,2023,6,12,13,24,27,207
0.08930,2.92250,-4.74250,0.00000,-0.00744,0.02196,-0.98966,2023,6,12,13,24,27,218
0.08940,3.06250,-4.55000,0.00000,-0.00647,0.02062,-0.98869,2023,6,12,13,24,27,229
0.08950,2.95750,-4.72500,0.00000,-0.00525,0.02062,-0.99137,2023,6,12,13,24,27,240
0.08960,2.88750,-4.53250,0.00000,-0.00781,0.02050,-0.99308,2023,6,12,13,24,27,251
0.08970,3.02750,-4.58500,0.00000,-0.00927,0.01976,-0.99088,2023,6,12,13,24,27,262
0.08980,2.87000,-4.60250,0.00000,-0.00549,0.02037,-0.99003,2023,6,12,13,24,27,273
0.08990,2.73000,-4.56750,0.00000,-0.00671,0.01818,-0.98600,2023,6,12,13,24,27,284
0.09000,2.90500,-4.72500,0.00000,-0.00598,0.01952,-0.98808,2023,6,12,13,24,27,295
0.09010,2.83500,-4.48000,0.00000,-0.00756,0.02074,-0.98930,2023,6,12,13,24,27,307
0.09020,2.81750,-4.55000,0.00000,-0.00695,0.01928,-0.98771,2023,6,12,13,24,27,318
0.09030,2.88750,-4.44500,0.00000,-0.00695,0.01952,-0.99125,2023,6,12,13,24,27,329
0.09040,3.04500,-4.67250,0.00000,-0.00512,0.02086,-0.98796,2023,6,12,13,24,27,340
0.09050,2.85250,-4.35750,0.00000,-0.00439,0.02050,-0.98808,2023,6,12,13,24,27,351
0.09060,2.99250,-4.53250,0.00000,-0.00732,0.02159,-0.99015,2023,6,12,13,24,27,362
0.09070,2.81750,-4.41000,0.00000,-0.00744,0.01976,-0.99101,2023,6,12,13,24,27,373
0.09080,2.90500,-4.60250,0.00000,-0.00586,0.02037,-0.98771,2023,6,12,13,24,27,384
0.09090,2.90500,-4.56750,0.00000,-0.00793,0.02074,-0.98722,2023,6,12,13,24,27,395
0.09100,2.85250,-4.69000,0.00000,-0.00720,0.01696,-0.99101,2023,6,12,13,24,27,407
0.09110,2.76500,-4.62000,0.00000,-0.00598,0.02184,-0.98783,2023,6,12,13,24,27,418
0.09120,2.87000,-4.74250,0.00000,-0.00659,0.01928,-0.98869,2023,6,12,13,24,27,429
0.09130,2.81750,-4.49750,0.00000,-0.00573,0.01830,-0.98588,2023,6,12,13,24,27,440
0.09140,2.90500,-4.49750,0.00000,-0.00549,0.02269,-0.98722,2023,6,12,13,24,27,451
0.09150,2.87000,-4.48000,0.00000,-0.00939,0.02001,-0.98905,2023,6,12,13,24,27,462
0.09160,2.71250,-4.51500,0.00000,-0.00866,0.02123,-0.98808,2023,6,12,13,24,27,473
0.09170,2.92250,-4.53250,0.00000,-0.00610,0.01879,-0.98649,2023,6,12,13,24,27,484
0.09180,2.85250,-4.48000,0.00000,-0.00488,0.02172,-0.99052,2023,6,12,13,24,27,495
0.09190,2.78250,-4.51500,0.00000,-0.00598,0.02025,-0.98966,2023,6,12,13,24,27,507
0.09200,2.90500,-4.51500,0.00000,-0.00720,0.01915,-0.98539,2023,6,12,13,24,27,518
0.09210,2.95750,-4.63750,0.00000,-0.00952,0.02062,-0.98930,2023,6,12,13,24,27,529
0.09220,2.88750,-4.51500,0.00000,-0.00671,0.02062,-0.99015,2023,6,12,13,24,27,540
0.09230,2.78250,-4.60250,0.00000,-0.00854,0.02074,-0.98869,2023,6,12,13,24,27,551
0.09240,2.97500,-4.56750,0.00000,-0.00561,0.02025,-0.98674,2023,6,12,13,24,27,562
0.09250,3.01000,-4.72500,0.00000,-0.00476,0.02147,-0.98869,2023,6,12,13,24,27,573
0.09260,3.06250,-4.69000,0.00000,-0.00476,0.02111,-0.98820,2023,6,12,13,24,27,584
0.09270,2.99250,-4.39250,0.00000,-0.00586,0.01830,-0.98796,2023,6,12,13,24,27,595
0.09280,2.88750,-4.65500,0.00000,-0.00720,0.02159,-0.98771,2023,6,12,13,24,27,607
0.09290,2.94000,-4.56750,0.00000,-0.00573,0.02013,-0.98710,2023,6,12,13,24,27,618
0.09300,2.97500,-4.79500,0.00000,-0.00634,0.02037,-0.99052,2023,6,12,13,24,27,629
0.09310,2.87000,-4.72500,0.00000,-0.00537,0.01952,-0.98857,2023,6,12,13,24,27,640
0.09320,2.99250,-4.65500,0.00000,-0.00439,0.01867,-0.98783,2023,6,12,13,24,27,651
0.09330,2.94000,-4.56750,0.00000,-0.00695,0.02172,-0.98979,2023,6,12,13,24,27,662
0.09340,2.94000,-4.93500,0.00000,-0.00586,0.01976,-0.98893,2023,6,12,13,24,27,673
0.09350,2.97500,-4.53250,0.00000,-0.00537,0.02123,-0.98991,2023,6,12,13,24,27,684
0.09360,2.85250,-4.58500,0.00000,-0.00781,0.01989,-0.99088,2023,6,12,13,24,27,695
0.09370,2.85250,-4.60250,0.00000,-0.00744,0.01806,-0.98735,2023,6,12,13,24,27,707
0.09380,2.94000,-4.44500,0.00000,-0.00659,0.02135,-0.98674,2023,6,12,13,24,27,718
0.09390,2.87000,-4.56750,0.00000,-0.00598,0.02086,-0.98954,2023,6,12,13,24,27,729
0.09400,2.73000,-4.60250,0.00000,-0.00744,0.02147,-0.98918,2023,6,12,13,24,27,740
0.09410,2.80000,-4.46250,0.00000,-0.00683,0.01903,-0.98783,2023,6,12,13,24,27,751
0.09420,2.97500,-4.55000,0.00000,-0.00671,0.02074,-0.98808,2023,6,12,13,24,27,762
0.09430,2.90500,-4.60250,0.00000,-0.00732,0.01891,-0.98771,2023,6,12,13,24,27,773
0.09440,2.83500,-4.56750,0.00000,-0.00464,0.01915,-0.98930,2023,6,12,13,24,27,784
0.09450,2.87000,-4.34000,0.00000,-0.00891,0.01915,-0.99064,2023,6,12,13,24,27,795
0.09460,3.01000,-4.60250,0.00000,-0.00744,0.01928,-0.98954,2023,6,12,13,24,27,807
0.09470,2.73000,-4.41000,0.00000,-0.00647,0.01867,-0.98637,2023,6,12,13,24,27,818
0.09480,2.83500,-4.63750,0.00000,-0.00549,0.01989,-0.98735,2023,6,12,13,24,27,829
0.09490,2.90500,-4.44500,0.00000,-0.00659,0.01915,-0.98637,2023,6,12,13,24,27,840
0.09500,2.73000,-4.44500,0.00000,-0.00671,0.02086,-0.98613,2023,6,12,13,24,27,851
0.09510,2.90500,-4.44500,0.00000,-0.00781,0.01989,-0.99052,2023,6,12,13,24,27,862
0.09520,2.92250,-4.69000,0.00000,-0.00525,0.02135,-0.98905,2023,6,12,13,24,27,873
0.09530,3.02750,-4.58500,0.00000,-0.00598,0.01952,-0.98832,2023,6,12,13,24,27,884
0.09540,2.90500,-4.49750,0.00000,-0.00756,0.02037,-0.98661,2023,6,12,13,24,27,895
0.09550,2.99250,-4.37500,0.00000,-0.00647,0.02196,-0.98783,2023,6,12,13,24,27,907
0.09560,2.90500,-4.67250,0.00000,-0.00671,0.02037,-0.98844,2023,6,12,13,24,27,918
0.09570,2.95750,-4.49750,0.00000,-0.00659,0.01964,-0.98820,2023,6,12,13,24,27,929
0.09580,2.95750,-4.76000,0.00000,-0.00537,0.02135,-0.98979,2023,6,12,13,24,27,940
0.09590,2.94000,-4.74250,0.00000,-0.00683,0.01928,-0.98930,2023,6,12,13,24,27,951
0.09600,2.69500,-4.67250,0.00000,-0.00720,0.01879,-0.99076,2023,6,12,13,24,28,2
0.09610,2.88750,-4.51500,0.00000,-0.00756,0.02074,-0.98588,2023,6,12,13,24,28,13
0.09620,3.01000,-4.55000,0.00000,-0.00671,0.02037,-0.98869,2023,6,12,13,24,28,24
0.09630,2.71250,-4.49750,0.00000,-0.00671,0.01854,-0.98747,2023,6,12,13,24,28,35
0.09640,2.90500,-4.41000,0.00000,-0.00817,0.01952,-0.99076,2023,6,12,13,24,28,47
0.09650,2.76500,-4.39250,0.00000,-0.00695,0.01757,-0.98564,2023,6,12,13,24,28,58
0.09660,2.95750,-4.62000,0.00000,-0.00488,0.02037,-0.98893,2023,6,12,13,24,28,69
0.09670,3.01000,-4.51500,0.00000,-0.00708,0.01903,-0.98747,2023,6,12,13,24,28,80
0.09680,2.87000,-4.67250,0.00000,-0.00683,0.01940,-0.98783,2023,6,12,13,24,28,91
0.09690,2.87000,-4.51500,0.00000,-0.00647,0.02123,-0.98954,2023,6,12,13,24,28,102
0.09700,2.92250,-4.53250,0.00000,-0.00708,0.02013,-0.99125,2023,6,12,13,24,28,113
0.09710,2.97500,-4.62000,0.00000,-0.00561,0.02111,-0.98527,2023,6,12,13,24,28,124
0.09720,2.97500,-4.63750,0.00000,-0.00720,0.01989,-0.98783,2023,6,12,13,24,28,135
0.09730,2.97500,-4.56750,0.00000,-0.00598,0.02001,-0.98844,2023,6,12,13,24,28,147
0.09740,2.81750,-4.63750,0.00000,-0.00598,0.02086,-0.99027,2023,6,12,13,24,28,158
0.09750,2.78250,-4.58500,0.00000,-0.00598,0.02111,-0.98857,2023,6,12,13,24,28,169
0.09760,2.99250,-4.62000,0.00000,-0.00598,0.02098,-0.98674,2023,6,12,13,24,28,180
0.09770,2.69500,-4.55000,0.00000,-0.00598,0.02037,-0.98820,2023,6,12,13,24,28,191
0.09780,2.62500,-4.53250,0.00000,-0.00561,0.02086,-0.99003,2023,6,12,13,24,28,202
0.09790,2.85250,-4.53250,0.00000,-0.00695,0.02025,-0.98881,2023,6,12,13,24,28,213
0.09800,2.76500,-4.53250,0.00000,-0.00525,0.02184,-0.98747,2023,6,12,13,24,28,224
0.09810,3.01000,-4.67250,0.00000,-0.00695,0.02208,-0.98808,2023,6,12,13,24,28,235
0.09820,2.88750,-4.63750,0.00000,-0.00671,0.02050,-0.98869,2023,6,12,13,24,28,247
0.09830,2.81750,-4.65500,0.00000,-0.00695,0.02013,-0.98966,2023,6,12,13,24,28,258
0.09840,3.01000,-4.55000,0.00000,-0.00659,0.01842,-0.98881,2023,6,12,13,24,28,269
0.09850,2.87000,-4.48000,0.00000,-0.00610,0.01915,-0.99052,2023,6,12,13,24,28,280
0.09860,3.04500,-4.67250,0.00000,-0.00488,0.02184,-0.98844,2023,6,12,13,24,28,291
0.09870,2.99250,-4.56750,0.00000,-0.00610,0.02001,-0.98844,2023,6,12,13,24,28,302
0.09880,3.01000,-4.70750,0.00000,-0.00720,0.01854,-0.98991,2023,6,12,13,24,28,313
0.09890,2.81750,-4.65500,0.00000,-0.00488,0.02123,-0.98698,2023,6,12,13,24,28,324
0.09900,2.85250,-4.46250,0.00000,-0.00610,0.01928,-0.99137,2023,6,12,13,24,28,335
0.09910,2.83500,-4.55000,0.00000,-0.00720,0.01867,-0.98661,2023,6,12,13,24,28,347
0.09920,2.88750,-4.79500,0.00000,-0.00586,0.02196,-0.98905,2023,6,12,13,24,28,358
0.09930,2.66000,-4.41000,0.00000,-0.00573,0.02062,-0.99259,2023,6,12,13,24,28,369
0.09940,2.95750,-4.49750,0.00000,-0.00622,0.02111,-0.98722,2023,6,12,13,24,28,380
0.09950,2.92250,-4.55000,0.00000,-0.00622,0.01940,-0.99137,2023,6,12,13,24,28,391
0.09960,3.08000,-4.67250,0.00000,-0.00793,0.02147,-0.98869,2023,6,12,13,24,28,402
0.09970,2.83500,-4.58500,0.00000,-0.00586,0.02257,-0.98735,2023,6,12,13,24,28,413
0.09980,2.95750,-4.56750,0.00000,-0.00525,0.02111,-0.99162,2023,6,12,13,24,28,424
0.09990,2.97500,-4.81250,0.00000,-0.00586,0.02001,-0.99076,2023,6,12,13,24,28,435
0.10000,2.80000,-4.69000,0.00000,-0.00769,0.02013,-0.98832,2023,6,12,13,24,28,447
0.10010,2.81750,-4.51500,0.00000,-0.00610,0.01952,-0.98722,2023,6,12,13,24,28,458
0.10020,2.83500,-4.70750,0.00000,-0.00830,0.02086,-0.98771,2023,6,12,13,24,28,469
0.10030,2.87000,-4.48000,0.00000,-0.00488,0.02050,-0.99064,2023,6,12,13,24,28,480
0.10040,2.97500,-4.49750,0.00000,-0.00512,0.02098,-0.98857,2023,6,12,13,24,28,491
0.10050,2.92250,-4.77750,0.00000,-0.00695,0.02013,-0.98722,2023,6,12,13,24,28,502
0.10060,3.02750,-4.69000,0.00000,-0.00732,0.02123,-0.98588,2023,6,12,13,24,28,513
0.10070,2.90500,-4.53250,0.00000,-0.00561,0.02208,-0.98710,2023,6,12,13,24,28,524
0.10080,2.78250,-4.63750,0.00000,-0.00500,0.01964,-0.98539,2023,6,12,13,24,28,535
0.10090,2.97500,-4.63750,0.00000,-0.00903,0.01891,-0.98698,2023,6,12,13,24,28,547
0.10100,2.99250,-4.70750,0.00000,-0.00708,0.01745,-0.98735,2023,6,12,13,24,28,558
0.10110,2.90500,-4.48000,0.00000,-0.00586,0.02062,-0.98710,2023,6,12,13,24,28,569
0.10120,3.08000,-4.72500,0.00000,-0.00537,0.02269,-0.98783,2023,6,12,13,24,28,580
0.10130,2.83500,-4.55000,0.00000,-0.00647,0.02098,-0.99003,2023,6,12,13,24,28,591
0.10140,2.80000,-4.51500,0.00000,-0.00525,0.02013,-0.98832,2023,6,12,13,24,28,602
0.10150,3.08000,-4.76000,0.00000,-0.00671,0.02172,-0.99101,2023,6,12,13,24,28,613
0.10160,2.83500,-4.53250,0.00000,-0.00659,0.02037,-0.98832,2023,6,12,13,24,28,624
0.10170,2.83500,-4.46250,0.00000,-0.00671,0.01903,-0.98844,2023,6,12,13,24,28,635
0.10180,2.80000,-4.53250,0.00000,-0.00744,0.02086,-0.98869,2023,6,12,13,24,28,647
0.10190,3.01000,-4.74250,0.00000,-0.00781,0.02098,-0.98820,2023,6,12,13,24,28,658
0.10200,2.87000,-4.63750,0.00000,-0.00842,0.02196,-0.98844,2023,6,12,13,24,28,669
0.10210,2.85250,-4.51500,0.00000,-0.00659,0.02233,-0.98954,2023,6,12,13,24,28,680
0.10220,3.01000,-4.55000,0.00000,-0.00622,0.02062,-0.98869,2023,6,12,13,24,28,691
0.10230,3.08000,-4.60250,0.00000,-0.00476,0.02208,-0.99149,2023,6,12,13,24,28,702
0.10240,3.06250,-4.72500,0.00000,-0.00610,0.01952,-0.98796,2023,6,12,13,24,28,713
0.10250,2.88750,-4.62000,0.00000,-0.00781,0.02062,-0.98747,2023,6,12,13,24,28,724
0.10260,2.76500,-4.41000,0.00000,-0.00586,0.02098,-0.98844,2023,6,12,13,24,28,735
0.10270,2.92250,-4.62000,0.00000,-0.00647,0.01867,-0.99113,2023,6,12,13,24,28,747
0.10280,2.85250,-4.76000,0.00000,-0.00586,0.02135,-0.98832,2023,6,12,13,24,28,758
0.10290,2.97500,-4.70750,0.00000,-0.00671,0.02013,-0.98747,2023,6,12,13,24,28,769
0.10300,2.95750,-4.55000,0.00000,-0.00659,0.02025,-0.98686,2023,6,12,13,24,28,780
0.10310,3.02750,-4.56750,0.00000,-0.00659,0.02001,-0.99003,2023,6,12,13,24,28,791
0.10320,2.81750,-4.69000,0.00000,-0.00671,0.02013,-0.99076,2023,6,12,13,24,28,802
0.10330,2.97500,-4.63750,0.00000,-0.00793,0.01781,-0.98844,2023,6,12,13,24,28,813
0.10340,2.80000,-4.41000,0.00000,-0.00647,0.02025,-0.98674,2023,6,12,13,24,28,824
0.10350,2.94000,-4.60250,0.00000,-0.00683,0.02196,-0.98698,2023,6,12,13,24,28,835
0.10360,2.85250,-4.46250,0.00000,-0.00598,0.01976,-0.98808,2023,6,12,13,24,28,847
0.10370,2.74750,-4.60250,0.00000,-0.00464,0.02111,-0.98930,2023,6,12,13,24,28,858
0.10380,2.74750,-4.76000,0.00000,-0.00561,0.02111,-0.98637,2023,6,12,13,24,28,869
0.10390,2.90500,-4.62000,0.00000,-0.00756,0.01867,-0.98796,2023,6,12,13,24,28,880
0.10400,2.81750,-4.62000,0.00000,-0.00781,0.01989,-0.98771,2023,6,12,13,24,28,891
0.10410,3.01000,-4.69000,0.00000,-0.00537,0.02184,-0.98625,2023,6,12,13,24,28,902
0.10420,2.97500,-4.51500,0.00000,-0.00708,0.02062,-0.98820,2023,6,12,13,24,28,913
0.10430,2.71250,-4.62000,0.00000,-0.00659,0.01915,-0.98820,2023,6,12,13,24,28,924
0.10440,2.83500,-4.63750,0.00000,-0.01000,0.02098,-0.98918,2023,6,12,13,24,28,935
0.10450,2.88750,-4.55000,0.00000,-0.00683,0.01952,-0.99174,2023,6,12,13,24,28,947
0.10460,3.16750,-4.65500,0.00000,-0.00512,0.02013,-0.98832,2023,6,12,13,24,28,958
0.10470,2.78250,-4.44500,0.00000,-0.00573,0.02062,-0.98869,2023,6,12,13,24,29,9
0.10480,2.90500,-4.83000,0.00000,-0.00586,0.01793,-0.98759,2023,6,12,13,24,29,20
0.10490,2.92250,-4.76000,0.00000,-0.00634,0.02196,-0.99125,2023,6,12,13,24,29,31
0.10500,2.94000,-4.62000,0.00000,-0.00549,0.02050,-0.98881,2023,6,12,13,24,29,42
0.10510,2.85250,-4.53250,0.00000,-0.00671,0.02001,-0.98954,2023,6,12,13,24,29,53
0.10520,2.88750,-4.51500,0.00000,-0.00634,0.02062,-0.98796,2023,6,12,13,24,29,64
0.10530,2.94000,-4.76000,0.00000,-0.00586,0.01989,-0.99027,2023,6,12,13,24,29,75
0.10540,2.85250,-4.51500,0.00000,-0.00537,0.02098,-0.99015,2023,6,12,13,24,29,87
0.10550,2.90500,-4.60250,0.00000,-0.00622,0.02013,-0.98710,2023,6,12,13,24,29,98
0.10560,2.85250,-4.53250,0.00000,-0.00878,0.02233,-0.99271,2023,6,12,13,24,29,109
0.10570,2.88750,-4.53250,0.00000,-0.00817,0.02233,-0.99210,2023,6,12,13,24,29,120
0.10580,2.87000,-4.60250,0.00000,-0.00537,0.02086,-0.99064,2023,6,12,13,24,29,131
0.10590,3.08000,-4.58500,0.00000,-0.00708,0.02086,-0.98942,2023,6,12,13,24,29,142
0.10600,2.85250,-4.62000,0.00000,-0.00610,0.02050,-0.99137,2023,6,12,13,24,29,153
0.10610,2.88750,-4.39250,0.00000,-0.00720,0.01879,-0.98722,2023,6,12,13,24,29,164
0.10620,2.94000,-4.65500,0.00000,-0.00634,0.01903,-0.98857,2023,6,12,13,24,29,175
0.10630,2.97500,-4.74250,0.00000,-0.00634,0.02037,-0.99113,2023,6,12,13,24,29,187
0.10640,2.87000,-4.63750,0.00000,-0.00573,0.01940,-0.99015,2023,6,12,13,24,29,198
0.10650,2.81750,-4.67250,0.00000,-0.00586,0.02050,-0.98905,2023,6,12,13,24,29,209
0.10660,2.87000,-4.41000,0.00000,-0.00561,0.02196,-0.98857,2023,6,12,13,24,29,220
0.10670,2.81750,-4.49750,0.00000,-0.00634,0.01879,-0.99101,2023,6,12,13,24,29,231
0.10680,2.81750,-4.56750,0.00000,-0.00732,0.01818,-0.98954,2023,6,12,13,24,29,242
0.10690,3.04500,-4.60250,0.00000,-0.00756,0.01757,-0.99162,2023,6,12,13,24,29,253
0.10700,2.87000,-4.48000,0.00000,-0.00610,0.01964,-0.99223,2023,6,12,13,24,29,264
0.10710,2.92250,-4.53250,0.00000,-0.00720,0.02025,-0.99088,2023,6,12,13,24,29,275
0.10720,2.87000,-4.67250,0.00000,-0.00732,0.02123,-0.99003,2023,6,12,13,24,29,287
0.10730,2.94000,-4.67250,0.00000,-0.00476,0.02147,-0.98869,2023,6,12,13,24,29,298
0.10740,2.67750,-4.69000,0.00000,-0.00549,0.02135,-0.98954,2023,6,12,13,24,29,309
0.10750,2.83500,-4.49750,0.00000,-0.00598,0.01976,-0.99076,2023,6,12,13,24,29,320
0.10760,2.74750,-4.42750,0.00000,-0.00659,0.02208,-0.98905,2023,6,12,13,24,29,331
0.10770,2.90500,-4.76000,0.00000,-0.00586,0.01964,-0.98966,2023,6,12,13,24,29,342
0.10780,2.88750,-4.56750,0.00000,-0.00634,0.01952,-0.99064,2023,6,12,13,24,29,353
0.10790,3.01000,-4.58500,0.00000,-0.00610,0.02001,-0.98893,2023,6,12,13,24,29,364
0.10800,2.94000,-4.53250,0.00000,-0.00756,0.02074,-0.98918,2023,6,12,13,24,29,375
0.10810,2.92250,-4.62000,0.00000,-0.00842,0.01940,-0.99064,2023,6,12,13,24,29,387
0.10820,3.11500,-4.84750,0.00000,-0.00683,0.02001,-0.98759,2023,6,12,13,24,29,398
0.10830,2.94000,-4.48000,0.00000,-0.00744,0.02050,-0.98930,2023,6,12,13,24,29,409
0.10840,2.92250,-4.70750,0.00000,-0.00586,0.01915,-0.98783,2023,6,12,13,24,29,420
0.10850,2.88750,-4.51500,0.00000,-0.00622,0.01842,-0.98759,2023,6,12,13,24,29,431
0.10860,2.87000,-4.46250,0.00000,-0.00683,0.01867,-0.99040,2023,6,12,13,24,29,442
0.10870,2.78250,-4.44500,0.00000,-0.00720,0.02001,-0.98905,2023,6,12,13,24,29,453
0.10880,2.83500,-4.56750,0.00000,-0.00683,0.02074,-0.98893,2023,6,12,13,24,29,464
0.10890,2.95750,-4.53250,0.00000,-0.00488,0.02062,-0.98942,2023,6,12,13,24,29,475
0.10900,2.80000,-4.55000,0.00000,-0.00573,0.01879,-0.98857,2023,6,12,13,24,29,487
0.10910,2.83500,-4.56750,0.00000,-0.00781,0.01842,-0.98857,2023,6,12,13,24,29,498
0.10920,3.06250,-4.90000,0.00000,-0.00756,0.01976,-0.98930,2023,6,12,13,24,29,509
0.10930,2.88750,-4.53250,0.00000,-0.00573,0.02245,-0.98808,2023,6,12,13,24,29,520
0.10940,3.06250,-4.81250,0.00000,-0.00488,0.02159,-0.98527,2023,6,12,13,24,29,531
0.10950,3.06250,-4.77750,0.00000,-0.00634,0.02050,-0.98918,2023,6,12,13,24,29,542
0.10960,2.95750,-4.62000,0.00000,-0.00891,0.02098,-0.98857,2023,6,12,13,24,29,553
0.10970,2.78250,-4.62000,0.00000,-0.00561,0.02025,-0.99076,2023,6,12,13,24,29,564
0.10980,2.92250,-4.51500,0.00000,-0.00610,0.02037,-0.99235,2023,6,12,13,24,29,575
0.10990,2.90500,-4.60250,0.00000,-0.00720,0.02074,-0.99015,2023,6,12,13,24,29,587
0.11000,2.81750,-4.62000,0.00000,-0.00781,0.02159,-0.99015,2023,6,12,13,24,29,598
0.11010,2.87000,-4.49750,0.00000,-0.00512,0.01879,-0.98710,2023,6,12,13,24,29,609
0.11020,2.90500,-4.65500,0.00000,-0.00525,0.02025,-0.98918,2023,6,12,13,24,29,620
0.11030,2.85250,-4.44500,0.00000,-0.00598,0.02025,-0.99040,2023,6,12,13,24,29,631
0.11040,2.85250,-4.56750,0.00000,-0.00622,0.01964,-0.98747,2023,6,12,13,24,29,642
0.11050,2.94000,-4.56750,0.00000,-0.00549,0.01976,-0.98783,2023,6,12,13,24,29,653
0.11060,2.90500,-4.56750,0.00000,-0.00561,0.02257,-0.98637,2023,6,12,13,24,29,664
0.11070,2.74750,-4.35750,0.00000,-0.00720,0.01940,-0.98918,2023,6,12,13,24,29,675
0.11080,2.83500,-4.60250,0.00000,-0.00622,0.02013,-0.98820,2023,6,12,13,24,29,687
0.11090,2.99250,-4.60250,0.00000,-0.00634,0.02050,-0.98844,2023,6,12,13,24,29,698
0.11100,2.85250,-4.70750,0.00000,-0.00549,0.02050,-0.99015,2023,6,12,13,24,29,709
0.11110,2.81750,-4.41000,0.00000,-0.00561,0.02037,-0.98979,2023,6,12,13,24,29,720
0.11120,2.69500,-4.74250,0.00000,-0.00732,0.02111,-0.99003,2023,6,12,13,24,29,731
0.11130,2.90500,-4.67250,0.00000,-0.00500,0.01964,-0.98783,2023,6,12,13,24,29,742
0.11140,2.80000,-4.74250,0.00000,-0.00720,0.01769,-0.98808,2023,6,12,13,24,29,753
0.11150,2.73000,-4.49750,0.00000,-0.00573,0.02159,-0.98942,2023,6,12,13,24,29,764
0.11160,3.02750,-4.56750,0.00000,-0.00586,0.02050,-0.98698,2023,6,12,13,24,29,775
0.11170,2.67750,-4.44500,0.00000,-0.00610,0.02086,-0.98954,2023,6,12,13,24,29,787
0.11180,2.87000,-4.55000,0.00000,-0.00683,0.01879,-0.98832,2023,6,12,13,24,29,798
0.11190,2.83500,-4.60250,0.00000,-0.00561,0.01964,-0.99003,2023,6,12,13,24,29,809
0.11200,2.78250,-4.44500,0.00000,-0.00439,0.01879,-0.98832,2023,6,12,13,24,29,820
0.11210,2.85250,-4.42750,0.00000,-0.00586,0.01769,-0.98869,2023,6,12,13,24,29,831
0.11220,2.81750,-4.60250,0.00000,-0.00720,0.01928,-0.98954,2023,6,12,13,24,29,842
0.11230,2.83500,-4.60250,0.00000,-0.00610,0.02111,-0.99125,2023,6,12,13,24,29,853
0.11240,2.87000,-4.60250,0.00000,-0.00769,0.01976,-0.98893,2023,6,12,13,24,29,864
0.11250,2.90500,-4.67250,0.00000,-0.00622,0.01976,-0.99040,2023,6,12,13,24,29,875
0.11260,2.87000,-4.60250,0.00000,-0.00476,0.02172,-0.99137,2023,6,12,13,24,29,887
0.11270,2.83500,-4.60250,0.00000,-0.00659,0.01952,-0.98918,2023,6,12,13,24,29,898
0.11280,2.97500,-4.42750,0.00000,-0.00720,0.01903,-0.99125,2023,6,12,13,24,29,909
0.11290,2.81750,-4.51500,0.00000,-0.00586,0.02050,-0.99052,2023,6,12,13,24,29,920
0.11300,2.94000,-4.44500,0.00000,-0.00695,0.02037,-0.98893,2023,6,12,13,24,29,931
0.11310,2.80000,-4.41000,0.00000,-0.00720,0.01964,-0.98979,2023,6,12,13,24,29,942
0.11320,2.94000,-4.55000,0.00000,-0.00500,0.02050,-0.99003,2023,6,12,13,24,29,953
0.11330,2.94000,-4.63750,0.00000,-0.00720,0.01708,-0.98588,2023,6,12,13,24,29,964
0.11340,2.85250,-4.67250,0.00000,-0.00805,0.02037,-0.98832,2023,6,12,13,24,29,975
0.11350,2.78250,-4.42750,0.00000,-0.00586,0.02025,-0.98930,2023,6,12,13,24,30,7
0.11360,2.99250,-4.63750,0.00000,-0.00610,0.02013,-0.99162,2023,6,12,13,24,30,18
0.11370,2.83500,-4.49750,0.00000,-0.00671,0.02111,-0.98771,2023,6,12,13,24,30,29
0.11380,3.01000,-4.63750,0.00000,-0.00634,0.02050,-0.98820,2023,6,12,13,24,30,40
0.11390,2.95750,-4.72500,0.00000,-0.00683,0.02111,-0.99064,2023,6,12,13,24,30,51
0.11400,2.80000,-4.58500,0.00000,-0.00756,0.02074,-0.98759,2023,6,12,13,24,30,62
0.11410,2.67750,-4.46250,0.00000,-0.00464,0.02147,-0.98552,2023,6,12,13,24,30,73
0.11420,2.76500,-4.44500,0.00000,-0.00647,0.02111,-0.98991,2023,6,12,13,24,30,84
0.11430,2.81750,-4.46250,0.00000,-0.00744,0.01976,-0.99137,2023,6,12,13,24,30,95
0.11440,3.01000,-4.65500,0.00000,-0.00622,0.01989,-0.98954,2023,6,12,13,24,30,107
0.11450,2.83500,-4.67250,0.00000,-0.00549,0.02098,-0.99015,2023,6,12,13,24,30,118
0.11460,3.04500,-4.74250,0.00000,-0.00525,0.01867,-0.99040,2023,6,12,13,24,30,129
0.11470,3.08000,-4.46250,0.00000,-0.00598,0.01842,-0.98820,2023,6,12,13,24,30,140
0.11480,2.88750,-4.58500,0.00000,-0.00549,0.02013,-0.99088,2023,6,12,13,24,30,151
0.11490,3.06250,-4.53250,0.00000,-0.00634,0.01928,-0.99076,2023,6,12,13,24,30,162
0.11500,2.83500,-4.44500,0.00000,-0.00781,0.02025,-0.99015,2023,6,12,13,24,30,173
0.11510,3.04500,-4.74250,0.00000,-0.00756,0.02184,-0.98954,2023,6,12,13,24,30,184
0.11520,2.78250,-4.48000,0.00000,-0.00695,0.02074,-0.99088,2023,6,12,13,24,30,195
0.11530,2.87000,-4.39250,0.00000,-0.00329,0.01989,-0.99076,2023,6,12,13,24,30,207
0.11540,2.76500,-4.53250,0.00000,-0.00769,0.02062,-0.99052,2023,6,12,13,24,30,218
0.11550,2.90500,-4.44500,0.00000,-0.00720,0.01684,-0.98954,2023,6,12,13,24,30,229
0.11560,2.80000,-4.44500,0.00000,-0.00683,0.02037,-0.98820,2023,6,12,13,24,30,240
0.11570,2.94000,-4.32250,0.00000,-0.00671,0.02050,-0.98918,2023,6,12,13,24,30,251
0.11580,2.78250,-4.53250,0.00000,-0.00659,0.02147,-0.98905,2023,6,12,13,24,30,262
0.11590,2.90500,-4.83000,0.00000,-0.00671,0.02111,-0.98881,2023,6,12,13,24,30,273
0.11600,2.80000,-4.51500,0.00000,-0.00634,0.02098,-0.98966,2023,6,12,13,24,30,284
0.11610,2.74750,-4.74250,0.00000,-0.00659,0.02001,-0.99064,2023,6,12,13,24,30,295
0.11620,-4.83000,-0.78750,0.00000,-0.01549,0.00122,-1.01650,2023,6,12,13,24,30,307
0.11630,-11.93500,2.81750,0.00000,-0.02013,0.02745,-0.99076,2023,6,12,13,24,30,318
0.11640,-16.46750,4.21750,0.00000,-0.02123,0.02538,-1.00174,2023,6,12,13,24,30,329
0.11650,-31.43000,11.27000,0.00000,-0.00061,0.02257,-0.99564,2023,6,12,13,24,30,340
0.11660,-34.38750,12.88000,0.00000,-0.00268,0.04331,-0.99381,2023,6,12,13,24,30,351
0.11670,-38.79750,15.19000,0.00000,-0.01610,0.04209,-1.00552,2023,6,12,13,24,30,362
0.11680,-41.94750,16.20500,0.00000,-0.01342,0.05795,-0.97039,2023,6,12,13,24,30,373
0.11690,-22.17250,8.90750,0.00000,0.01183,0.14164,-0.99869,2023,6,12,13,24,30,384
0.11700,-18.79500,7.14000,0.00000,0.01745,0.07210,-0.97112,2023,6,12,13,24,30,395
0.11710,3.97250,-5.07500,0.00000,0.02281,0.09906,-0.94306,2023,6,12,13,24,30,407
0.11720,24.34250,-16.15250,0.00000,-0.02111,0.07015,-0.94977,2023,6,12,13,24,30,418
0.11730,30.55500,-18.90000,0.00000,0.01464,0.02391,-1.03846,2023,6,12,13,24,30,429
0.11740,4.02500,-4.91750,0.00000,-0.00476,0.04685,-0.99064,2023,6,12,13,24,30,440
0.11750,14.84000,-10.81500,0.00000,0.00891,0.02708,-0.97734,2023,6,12,13,24,30,451
0.11760,5.30250,-6.49250,0.00000,-0.00024,0.06027,-1.00992,2023,6,12,13,24,30,462
0.11770,-4.28750,-1.75000,0.00000,0.00878,0.04807,-0.95843,2023,6,12,13,24,30,473
0.11780,6.35250,-6.31750,0.00000,-0.00098,0.13078,-1.00418,2023,6,12,13,24,30,484
0.11790,-4.35750,-1.59250,0.00000,0.01366,0.03697,-0.93476,2023,6,12,13,24,30,495
0.11800,21.99750,-13.31750,0.00000,-0.00720,0.11627,-1.02834,2023,6,12,13,24,30,507
0.11810,19.63500,-13.87750,0.00000,0.03416,0.02074,-0.91939,2023,6,12,13,24,30,518
0.11820,26.93250,-13.52750,0.00000,0.07039,0.26193,-1.05835,2023,6,12,13,24,30,529
0.11830,12.35500,-9.55500,0.00000,-0.00305,0.03135,-0.97978,2023,6,12,13,24,30,540
0.11840,11.11250,-8.38250,0.00000,0.01952,0.04843,-0.98844,2023,6,12,13,24,30,551
0.11850,10.04500,-7.98000,0.00000,-0.00037,0.04770,-0.99540,2023,6,12,13,24,30,562
0.11860,5.35500,-5.67000,0.00000,0.00976,0.04441,-0.98552,2023,6,12,13,24,30,573
0.11870,9.43250,-7.82250,0.00000,0.00744,0.04782,-0.98137,2023,6,12,13,24,30,584
0.11880,10.55250,-8.12000,0.00000,0.00159,0.04063,-0.98796,2023,6,12,13,24,30,595
0.11890,13.23000,-9.53750,0.00000,0.00098,0.04282,-0.98454,2023,6,12,13,24,30,607
0.11900,12.96750,-9.29250,0.00000,-0.00525,0.03026,-0.99698,2023,6,12,13,24,30,618
0.11910,8.75000,-7.57750,0.00000,0.00854,0.06576,-1.00516,2023,6,12,13,24,30,629
0.11920,7.99750,-7.14000,0.00000,0.00183,0.03343,-0.98979,2023,6,12,13,24,30,640
0.11930,9.76500,-7.78750,0.00000,-0.00427,0.03806,-0.98564,2023,6,12,13,24,30,651
0.11940,8.45250,-7.14000,0.00000,-0.00037,0.03989,-0.99454,2023,6,12,13,24,30,662
0.11950,5.05750,-5.68750,0.00000,0.00146,0.03257,-0.98527,2023,6,12,13,24,30,673
0.11960,6.68500,-6.35250,0.00000,-0.00122,0.03294,-0.99210,2023,6,12,13,24,30,684
0.11970,7.03500,-6.51000,0.00000,-0.00256,0.03160,-0.99064,2023,6,12,13,24,30,695
0.11980,9.29250,-7.47250,0.00000,-0.00024,0.03514,-0.98234,2023,6,12,13,24,30,707
0.11990,6.66750,-6.30000,0.00000,-0.00488,0.02757,-0.99320,2023,6,12,13,24,30,718
0.12000,6.66750,-6.21250,0.00000,-0.00403,0.02965,-0.98820,2023,6,12,13,24,30,729
0.12010,5.28500,-5.63500,0.00000,-0.00451,0.02416,-0.99332,2023,6,12,13,24,30,740
0.12020,3.74500,-5.11000,0.00000,-0.00390,0.02879,-0.99137,2023,6,12,13,24,30,751
0.12030,2.67750,-4.42750,0.00000,-0.00146,0.03013,-0.98844,2023,6,12,13,24,30,762
0.12040,2.88750,-4.58500,0.00000,-0.00427,0.02989,-0.99186,2023,6,12,13,24,30,773
0.12050,2.95750,-4.79500,0.00000,-0.00110,0.02757,-0.98466,2023,6,12,13,24,30,784
0.12060,3.39500,-5.00500,0.00000,-0.00268,0.02769,-0.99052,2023,6,12,13,24,30,795
0.12070,4.97000,-5.63500,0.00000,-0.00256,0.02879,-0.98844,2023,6,12,13,24,30,807
0.12080,4.77750,-5.14500,0.00000,-0.00427,0.02733,-0.99040,2023,6,12,13,24,30,818
0.12090,4.65500,-5.58250,0.00000,-0.00403,0.02696,-0.99101,2023,6,12,13,24,30,829
0.12100,4.65500,-5.46000,0.00000,-0.00476,0.02599,-0.99186,2023,6,12,13,24,30,840
0.12110,3.22000,-4.83000,0.00000,-0.00525,0.02586,-0.98796,2023,6,12,13,24,30,851
0.12120,3.64000,-4.93500,0.00000,-0.00305,0.02623,-0.98918,2023,6,12,13,24,30,862
0.12130,4.04250,-5.02250,0.00000,-0.00329,0.03257,-0.97893,2023,6,12,13,24,30,873
0.12140,6.33500,-6.37000,0.00000,-0.00317,0.02513,-0.99198,2023,6,12,13,24,30,884
0.12150,15.54000,-10.53500,0.00000,0.00268,0.06198,-0.95636,2023,6,12,13,24,30,895
0.12160,12.56500,-10.29000,0.00000,-0.02989,0.14506,-1.04493,2023,6,12,13,24,30,907
0.12170,5.16250,-5.42500,0.00000,-0.02586,0.06185,-0.90963,2023,6,12,13,24,30,918
0.12180,17.27250,-11.16500,0.00000,-0.03684,-0.07149,-0.85034,2023,6,12,13,24,30,929
0.12190,13.42250,-10.32500,0.00000,0.02538,0.11480,-1.07482,2023,6,12,13,24,30,940
0.12200,-2.39750,-3.23750,0.00000,-0.00171,0.03245,-0.89804,2023,6,12,13,24,30,951
0.12210,19.53000,-6.59750,0.00000,0.04599,0.14091,-0.87572,2023,6,12,13,24,30,962
0.12220,37.24000,-11.37500,0.00000,0.00976,-0.01940,-0.90219,2023,6,12,13,24,31,3
0.12230,43.75000,-9.45000,0.00000,-0.06710,-0.00561,-0.92598,2023,6,12,13,24,31,14
0.12240,-46.44500,2.39750,0.00000,-0.02367,0.09089,-0.93757,2023,6,12,13,24,31,25
0.12250,1.75000,0.14000,0.00000,0.02830,-0.05527,-0.67503,2023,6,12,13,24,31,37
0.12260,-3.69250,-6.96500,0.00000,-0.04490,-0.11517,-0.94696,2023,6,12,13,24,31,48
0.12270,3.04500,-4.76000,0.00000,-0.01464,0.00891,-0.96990,2023,6,12,13,24,31,59
0.12280,-0.91000,-2.83500,0.00000,-0.01476,0.00537,-1.00711,2023,6,12,13,24,31,70
0.12290,-2.45000,-2.25750,0.00000,-0.00488,0.02721,-0.97161,2023,6,12,13,24,31,81
0.12300,0.28000,-3.25500,0.00000,-0.00939,0.01122,-0.99088,2023,6,12,13,24,31,92
0.12310,0.21000,-3.32500,0.00000,-0.01025,0.01952,-0.98722,2023,6,12,13,24,31,103
0.12320,2.94000,-4.60250,0.00000,-0.00012,0.02147,-0.99076,2023,6,12,13,24,31,114
0.12330,1.87250,-3.97250,0.00000,-0.00732,0.02111,-0.98308,2023,6,12,13,24,31,125
0.12340,2.88750,-4.62000,0.00000,-0.00683,0.01769,-0.99162,2023,6,12,13,24,31,137
0.12350,2.59000,-4.46250,0.00000,-0.00732,0.02025,-0.98930,2023,6,12,13,24,31,148
0.12360,2.69500,-4.46250,0.00000,-0.00817,0.01562,-0.98918,2023,6,12,13,24,31,159
0.12370,2.97500,-4.72500,0.00000,-0.00610,0.01708,-0.98674,2023,6,12,13,24,31,170
0.12380,2.64250,-4.44500,0.00000,-0.00805,0.01830,-0.99296,2023,6,12,13,24,31,181
0.12390,3.06250,-4.63750,0.00000,-0.00647,0.02013,-0.99076,2023,6,12,13,24,31,192
0.12400,2.69500,-4.77750,0.00000,-0.00927,0.01732,-0.98844,2023,6,12,13,24,31,203
0.12410,2.92250,-4.62000,0.00000,-0.00939,0.01989,-0.98552,2023,6,12,13,24,31,214
0.12420,2.94000,-4.58500,0.00000,-0.01098,0.01586,-0.98832,2023,6,12,13,24,31,225
0.12430,3.04500,-4.63750,0.00000,-0.00805,0.01928,-0.98747,2023,6,12,13,24,31,237
0.12440,3.29000,-4.58500,0.00000,-0.00866,0.02111,-0.98625,2023,6,12,13,24,31,248
0.12450,3.06250,-4.58500,0.00000,-0.01086,0.01830,-0.98905,2023,6,12,13,24,31,259
0.12460,3.02750,-4.56750,0.00000,-0.00769,0.01769,-0.98844,2023,6,12,13,24,31,270
0.12470,2.81750,-4.32250,0.00000,-0.00671,0.01757,-0.98710,2023,6,12,13,24,31,281
0.12480,2.85250,-4.49750,0.00000,-0.00671,0.01635,-0.99052,2023,6,12,13,24,31,292
0.12490,2.92250,-4.41000,0.00000,-0.00622,0.01696,-0.98576,2023,6,12,13,24,31,303
#2023/06/12 13:24:31
