#2023/06/05 17:28:08
time,wx,wy,wz,ax,ay,az,yy,MM,dd,hh,mm,ss,ms
20.61310,-0.65468,-0.41457,0.00000,0.03306,0.99772,-0.02098,0.0
20.61320,-0.72468,0.09293,0.00000,0.03392,0.99759,-0.01501,0.0
20.61330,0.86782,0.21543,0.00000,0.03160,0.99454,-0.00024,0.0
20.61340,6.69532,0.32043,0.00000,0.03160,0.99698,-0.00854,0.0
20.61350,9.77532,0.23293,0.00000,0.03233,0.99845,-0.01769,0.0
20.61360,7.64032,0.39043,0.00000,0.03099,0.99967,-0.03257,0.0
20.61370,4.61282,0.19793,0.00000,0.03135,0.99869,-0.03148,0.0
20.61380,2.39032,-0.02957,0.00000,0.03196,0.99625,-0.01781,0.0
20.61390,2.74032,0.11043,0.00000,0.03172,0.99698,-0.02098,0.0
20.61400,1.74282,0.18043,0.00000,0.03392,0.99576,-0.01781,0.0
20.61410,2.89782,0.26793,0.00000,0.03379,0.99515,-0.02403,0.0
20.61420,0.08032,0.14543,0.00000,0.03123,0.99625,-0.02782,0.0
20.61430,-0.16468,0.07543,0.00000,0.03160,0.99515,-0.01269,0.0
20.61440,1.09532,0.26793,0.00000,0.03148,0.99503,-0.01671,0.0
20.61450,1.42782,0.16293,0.00000,0.03270,0.99833,-0.01659,0.0
20.61460,2.70532,0.07543,0.00000,0.03318,0.99576,-0.00891,0.0
20.61470,4.40282,0.26793,0.00000,0.03318,0.99613,-0.01586,0.0
20.61480,5.61032,0.00543,0.00000,0.03416,0.99747,-0.02001,0.0
20.61490,6.11782,0.14543,0.00000,0.03245,0.99686,-0.01415,0.0
20.61500,6.41532,0.02293,0.00000,0.03355,0.99576,-0.01867,0.0
20.61510,6.08282,0.26793,0.00000,0.03135,0.99711,-0.02196,0.0
20.61520,5.50532,0.42543,0.00000,0.03257,0.99845,-0.02330,0.0
20.61530,3.59782,0.44293,0.00000,0.03477,0.99772,-0.02525,0.0
20.61540,2.95032,0.23293,0.00000,0.03392,0.99552,-0.02196,0.0
20.61550,2.30282,0.25043,0.00000,0.03392,0.99613,-0.02538,0.0
20.61560,2.04032,0.05793,0.00000,0.03282,0.99662,-0.01879,0.0
20.61570,2.96782,-0.08207,0.00000,0.03306,0.99564,-0.01989,0.0
20.61580,3.30032,0.19793,0.00000,0.03392,0.99589,-0.01915,0.0
20.61590,3.42282,0.47793,0.00000,0.03148,0.99625,-0.01769,0.0
20.61600,4.35032,0.26793,0.00000,0.03392,0.99552,-0.02269,0.0
20.61610,5.52282,0.07543,0.00000,0.03428,0.99576,-0.01720,0.0
20.61620,6.45032,0.11043,0.00000,0.03343,0.99833,-0.02245,0.0
20.61630,7.04532,0.30293,0.00000,0.03331,1.00003,-0.02098,0.0
20.61640,6.92282,0.33793,0.00000,0.03172,0.99576,-0.02367,0.0
20.61650,6.66032,0.67043,0.00000,0.03038,0.99698,-0.02708,0.0
20.61660,6.71282,0.21543,0.00000,0.03355,0.99442,-0.02428,0.0
20.61670,7.48282,0.61793,0.00000,0.03257,0.99747,-0.03026,0.0
20.61680,5.85532,0.30293,0.00000,0.03465,0.99674,-0.02574,0.0
20.61690,5.27782,0.54793,0.00000,0.03367,0.99711,-0.03306,0.0
20.61700,4.10532,0.14543,0.00000,0.03392,0.99650,-0.03306,0.0
20.61710,0.93782,0.09293,0.00000,0.03111,0.99650,-0.03599,0.0
20.61720,-5.15218,0.12793,0.00000,0.03318,0.99711,-0.04404,0.0
20.61730,-12.37968,-0.85207,0.00000,0.03392,0.99576,-0.04807,0.0
20.61740,-14.16468,-1.55207,0.00000,0.03477,0.99833,0.00464,0.0
20.61750,-1.42468,-0.95707,0.00000,0.03209,0.99503,0.02696,0.0
20.61760,20.06533,0.44293,0.00000,0.03306,0.99540,0.03367,0.0
20.61770,32.08783,1.66793,0.00000,0.03453,0.99686,-0.05417,0.0
20.61780,1.46282,1.16043,0.00000,0.03111,1.00125,-0.12224,0.0
20.61790,-13.34218,0.74043,0.00000,0.03587,0.99320,0.02830,0.0
20.61800,19.01533,0.14543,0.00000,0.03501,0.99637,0.00976,0.0
20.61810,22.63782,1.33543,0.00000,0.03209,0.99613,-0.04856,0.0
20.61820,12.83782,0.35543,0.00000,0.03148,0.99784,-0.05441,0.0
20.61830,5.20782,-0.01207,0.00000,0.03099,0.99784,-0.05417,0.0
20.61840,-2.68468,0.14543,0.00000,0.03343,0.99735,-0.04490,0.0
20.61850,-4.87218,-0.06457,0.00000,0.03294,0.99686,-0.03355,0.0
20.61860,-3.19218,-0.15207,0.00000,0.03355,0.99515,-0.02379,0.0
20.61870,-2.05468,0.09293,0.00000,0.03123,0.99625,-0.02647,0.0
20.61880,3.10782,-0.11707,0.00000,0.03294,0.99625,-0.02135,0.0
20.61890,5.03282,0.00543,0.00000,0.03050,0.99552,-0.03196,0.0
20.61900,4.71782,0.23293,0.00000,0.03209,0.99772,-0.03196,0.0
20.61910,6.80032,0.28543,0.00000,0.03221,0.99467,-0.02501,0.0
20.61920,7.23782,0.39043,0.00000,0.03562,0.99564,-0.04465,0.0
20.61930,3.91282,0.40793,0.00000,0.03684,0.99589,-0.03111,0.0
20.61940,3.84282,0.05793,0.00000,0.03416,0.99686,-0.03392,0.0
20.61950,4.03532,0.09293,0.00000,0.03318,0.99747,-0.03575,0.0
20.61960,4.19282,0.25043,0.00000,0.03221,0.99406,-0.03562,0.0
20.61970,4.17532,0.47793,0.00000,0.03282,0.99515,-0.02989,0.0
20.61980,4.40282,0.00543,0.00000,0.03282,0.99723,-0.03843,0.0
20.61990,2.58282,-0.01207,0.00000,0.03184,0.99625,-0.03526,0.0
20.62000,2.26782,0.12793,0.00000,0.03367,0.99430,-0.03648,0.0
20.62010,2.77532,0.12793,0.00000,0.03404,0.99698,-0.03575,0.0
20.62020,2.56532,0.12793,0.00000,0.03221,0.99564,-0.03514,0.0
20.62030,2.70532,0.28543,0.00000,0.02965,0.99662,-0.03575,0.0
20.62040,3.35282,0.04043,0.00000,0.03209,0.99418,-0.03233,0.0
20.62050,3.73782,0.33793,0.00000,0.03148,0.99796,-0.03477,0.0
20.62060,3.47532,0.35543,0.00000,0.03379,0.99674,-0.03721,0.0
20.62070,3.12532,0.09293,0.00000,0.03428,0.99747,-0.03794,0.0
20.62080,2.54782,0.12793,0.00000,0.03343,0.99650,-0.03648,0.0
20.62090,2.84532,0.18043,0.00000,0.03379,0.99564,-0.03660,0.0
20.62100,2.91532,0.30293,0.00000,0.03416,0.99552,-0.03538,0.0
20.62110,2.91532,0.14543,0.00000,0.03245,0.99650,-0.03489,0.0
20.62120,2.60032,0.23293,0.00000,0.03343,0.99735,-0.03453,0.0
20.62130,3.12532,0.23293,0.00000,0.03367,0.99625,-0.03599,0.0
20.62140,2.96782,0.26793,0.00000,0.03233,0.99845,-0.03758,0.0
20.62150,3.21282,0.14543,0.00000,0.03343,0.99796,-0.03489,0.0
20.62160,3.07282,0.26793,0.00000,0.03355,0.99723,-0.03770,0.0
20.62170,2.19782,0.14543,0.00000,0.03184,0.99576,-0.03684,0.0
20.62180,2.54782,0.02293,0.00000,0.03172,0.99711,-0.03550,0.0
20.62190,2.68782,0.02293,0.00000,0.03233,0.99552,-0.03611,0.0
20.62200,2.86282,-0.13457,0.00000,0.03343,0.99540,-0.03599,0.0
20.62210,2.74032,0.05793,0.00000,0.03123,0.99808,-0.03550,0.0
20.62220,2.68782,0.11043,0.00000,0.03379,0.99589,-0.03465,0.0
20.62230,2.68782,0.19793,0.00000,0.03233,0.99857,-0.03440,0.0
20.62240,2.98532,-0.18707,0.00000,0.03196,0.99613,-0.03379,0.0
20.62250,3.30032,0.07543,0.00000,0.03221,0.99686,-0.03379,0.0
20.62260,3.17782,0.26793,0.00000,0.03221,0.99686,-0.03623,0.0
20.62270,2.68782,0.26793,0.00000,0.03367,0.99747,-0.03733,0.0
20.62280,2.81032,-0.01207,0.00000,0.03087,0.99820,-0.03416,0.0
20.62290,2.74032,0.26793,0.00000,0.03184,0.99686,-0.03709,0.0
20.62300,2.79282,0.44293,0.00000,0.03050,0.99613,-0.03562,0.0
20.62310,2.79282,0.09293,0.00000,0.03233,0.99674,-0.03392,0.0
20.62320,2.75782,0.19793,0.00000,0.03379,0.99979,-0.03404,0.0
20.62330,3.03782,0.04043,0.00000,0.03123,0.99735,-0.03440,0.0
20.62340,3.16032,0.00543,0.00000,0.03367,0.99723,-0.03672,0.0
20.62350,2.96782,0.16293,0.00000,0.03367,0.99869,-0.03501,0.0
20.62360,2.53032,0.23293,0.00000,0.03282,0.99698,-0.03526,0.0
20.62370,2.82782,0.21543,0.00000,0.03221,0.99601,-0.03514,0.0
20.62380,2.68782,0.04043,0.00000,0.03282,0.99833,-0.03575,0.0
20.62390,2.63532,0.00543,0.00000,0.03379,0.99698,-0.03550,0.0
20.62400,2.89782,0.19793,0.00000,0.03282,0.99686,-0.03196,0.0
20.62410,3.09032,0.14543,0.00000,0.03160,0.99576,-0.03489,0.0
20.62420,3.17782,0.16293,0.00000,0.03270,0.99528,-0.03587,0.0
20.62430,2.65282,0.46043,0.00000,0.03343,0.99467,-0.03501,0.0
20.62440,2.96782,0.02293,0.00000,0.03233,0.99698,-0.03709,0.0
20.62450,3.02032,0.37293,0.00000,0.03135,0.99503,-0.03575,0.0
20.62460,3.19532,-0.04707,0.00000,0.03318,0.99491,-0.03794,0.0
20.62470,3.17782,0.28543,0.00000,0.03379,0.99796,-0.03526,0.0
20.62480,3.33532,0.11043,0.00000,0.03270,0.99662,-0.03758,0.0
20.62490,3.21282,0.32043,0.00000,0.03306,0.99564,-0.03721,0.0
20.62500,3.07282,0.12793,0.00000,0.03282,0.99564,-0.03611,0.0
20.62510,2.88032,0.32043,0.00000,0.03318,0.99589,-0.03745,0.0
20.62520,2.75782,0.11043,0.00000,0.03270,0.99711,-0.03709,0.0
20.62530,2.49532,0.25043,0.00000,0.03318,0.99393,-0.03648,0.0
20.62540,2.89782,0.11043,0.00000,0.03331,0.99637,-0.03587,0.0
20.62550,2.95032,0.26793,0.00000,0.03123,0.99662,-0.03672,0.0
20.62560,2.84532,0.14543,0.00000,0.03331,0.99637,-0.03697,0.0
20.62570,2.81032,0.04043,0.00000,0.03257,0.99601,-0.03538,0.0
20.62580,2.86282,0.12793,0.00000,0.03270,0.99418,-0.03428,0.0
20.62590,2.81032,0.39043,0.00000,0.03062,0.99613,-0.03562,0.0
20.62600,2.98532,0.18043,0.00000,0.03428,0.99662,-0.03501,0.0
20.62610,3.24782,0.23293,0.00000,0.03233,0.99747,-0.03550,0.0
20.62620,2.84532,0.02293,0.00000,0.03196,0.99772,-0.03318,0.0
20.62630,2.82782,0.12793,0.00000,0.03196,0.99808,-0.03758,0.0
20.62640,2.86282,0.19793,0.00000,0.03160,0.99674,-0.03465,0.0
20.62650,3.03782,0.00543,0.00000,0.03306,0.99613,-0.03379,0.0
20.62660,3.21282,0.21543,0.00000,0.03233,0.99820,-0.03623,0.0
20.62670,3.19532,0.02293,0.00000,0.03367,0.99540,-0.03611,0.0
20.62680,3.16032,0.07543,0.00000,0.03050,0.99381,-0.03599,0.0
20.62690,3.02032,0.07543,0.00000,0.03221,0.99759,-0.03660,0.0
20.62700,2.88032,0.18043,0.00000,0.03367,0.99564,-0.03806,0.0
20.62710,2.84532,0.09293,0.00000,0.03050,0.99857,-0.03428,0.0
20.62720,2.72282,0.11043,0.00000,0.03294,0.99650,-0.03599,0.0
20.62730,3.02032,0.14543,0.00000,0.03367,0.99528,-0.03501,0.0
20.62740,2.82782,0.12793,0.00000,0.03160,0.99820,-0.03880,0.0
20.62750,2.65282,-0.01207,0.00000,0.03306,0.99686,-0.03721,0.0
20.62760,2.58282,0.12793,0.00000,0.03160,0.99528,-0.03611,0.0
20.62770,2.95032,0.30293,0.00000,0.03318,0.99735,-0.03562,0.0
20.62780,3.12532,0.09293,0.00000,0.03087,0.99759,-0.03843,0.0
20.62790,2.91532,0.21543,0.00000,0.03343,0.99637,-0.03562,0.0
20.62800,2.77532,0.14543,0.00000,0.03306,0.99503,-0.03819,0.0
20.62810,2.82782,0.14543,0.00000,0.03343,0.99869,-0.03709,0.0
20.62820,2.77532,0.39043,0.00000,0.03282,0.99662,-0.03562,0.0
20.62830,3.02032,0.05793,0.00000,0.03209,0.99637,-0.03770,0.0
20.62840,3.16032,0.32043,0.00000,0.03160,0.99564,-0.03709,0.0
20.62850,3.30032,0.21543,0.00000,0.03440,0.99918,-0.03806,0.0
20.62860,3.33532,0.30293,0.00000,0.03257,0.99625,-0.03587,0.0
20.62870,3.45782,0.26793,0.00000,0.03440,0.99613,-0.03758,0.0
20.62880,3.52782,0.12793,0.00000,0.03148,0.99881,-0.03465,0.0
20.62890,3.59782,0.14543,0.00000,0.03282,0.99552,-0.03599,0.0
20.62900,3.65032,0.04043,0.00000,0.03306,0.99515,-0.03782,0.0
20.62910,3.19532,0.37293,0.00000,0.03209,0.99711,-0.03575,0.0
20.62920,3.42282,0.18043,0.00000,0.03111,0.99454,-0.03758,0.0
20.62930,3.38782,0.44293,0.00000,0.03318,0.99735,-0.03806,0.0
20.62940,3.47532,0.25043,0.00000,0.03184,0.99576,-0.03782,0.0
20.62950,3.05532,0.25043,0.00000,0.03562,0.99772,-0.03745,0.0
20.62960,3.00282,0.33793,0.00000,0.03257,0.99637,-0.03928,0.0
20.62970,3.00282,0.30293,0.00000,0.03221,0.99589,-0.03794,0.0
20.62980,3.05532,0.14543,0.00000,0.03514,0.99833,-0.03965,0.0
20.62990,2.95032,0.30293,0.00000,0.03306,0.99698,-0.04063,0.0
20.63000,2.96782,0.16293,0.00000,0.03440,0.99589,-0.04050,0.0
20.63010,2.26782,0.32043,0.00000,0.03233,0.99625,-0.03867,0.0
20.63020,2.61782,0.16293,0.00000,0.03221,0.99686,-0.03806,0.0
20.63030,2.65282,0.05793,0.00000,0.03282,0.99491,-0.03928,0.0
20.63040,2.56532,0.02293,0.00000,0.02965,0.99479,-0.03892,0.0
20.63050,2.67032,0.00543,0.00000,0.03404,0.99735,-0.03843,0.0
20.63060,2.86282,0.39043,0.00000,0.03428,0.99369,-0.03684,0.0
20.63070,2.74032,0.07543,0.00000,0.03038,0.99772,-0.03806,0.0
20.63080,2.56532,0.14543,0.00000,0.03282,0.99564,-0.03782,0.0
20.63090,2.51282,0.37293,0.00000,0.03343,0.99784,-0.03672,0.0
20.63100,2.63532,0.16293,0.00000,0.03233,0.99442,-0.03660,0.0
20.63110,2.49532,0.16293,0.00000,0.03294,0.99540,-0.03782,0.0
20.63120,2.75782,0.18043,0.00000,0.03392,0.99637,-0.03806,0.0
20.63130,2.56532,0.23293,0.00000,0.03331,0.99540,-0.03904,0.0
20.63140,2.42532,0.05793,0.00000,0.03318,0.99759,-0.03745,0.0
20.63150,2.21532,0.26793,0.00000,0.03379,0.99796,-0.03806,0.0
20.63160,2.40782,0.18043,0.00000,0.03270,0.99515,-0.03770,0.0
20.63170,2.23282,0.32043,0.00000,0.03294,0.99759,-0.03880,0.0
20.63180,2.68782,0.16293,0.00000,0.03209,0.99662,-0.03794,0.0
20.63190,3.00282,0.11043,0.00000,0.03074,0.99467,-0.03721,0.0
20.63200,3.14282,0.04043,0.00000,0.03282,0.99613,-0.03745,0.0
20.63210,3.05532,-0.04707,0.00000,0.03526,0.99442,-0.03672,0.0
20.63220,2.95032,0.18043,0.00000,0.03294,0.99820,-0.03697,0.0
20.63230,2.84532,0.11043,0.00000,0.03636,0.99589,-0.03660,0.0
20.63240,2.88032,0.25043,0.00000,0.03306,0.99857,-0.03892,0.0
20.63250,2.65282,0.26793,0.00000,0.03355,0.99650,-0.03770,0.0
20.63260,2.68782,0.12793,0.00000,0.03099,0.99686,-0.03782,0.0
20.63270,3.07282,0.09293,0.00000,0.03318,0.99576,-0.03843,0.0
20.63280,2.81032,0.21543,0.00000,0.03282,0.99418,-0.03611,0.0
20.63290,2.70532,0.09293,0.00000,0.03245,0.99711,-0.03819,0.0
20.63300,2.47782,0.11043,0.00000,0.03489,0.99540,-0.04099,0.0
20.63310,2.35532,0.04043,0.00000,0.03135,0.99552,-0.03343,0.0
20.63320,2.49532,0.21543,0.00000,0.03245,0.99662,-0.03733,0.0
20.63330,2.95032,0.30293,0.00000,0.03343,0.99589,-0.03977,0.0
20.63340,2.88032,0.25043,0.00000,0.03379,0.99772,-0.03916,0.0
20.63350,2.58282,0.25043,0.00000,0.03440,0.99686,-0.03745,0.0
20.63360,2.51282,0.28543,0.00000,0.03221,0.99442,-0.03782,0.0
20.63370,2.46032,0.23293,0.00000,0.03221,0.99552,-0.03758,0.0
20.63380,2.37282,0.23293,0.00000,0.03404,0.99564,-0.03867,0.0
20.63390,2.49532,0.25043,0.00000,0.03428,0.99674,-0.03880,0.0
20.63400,2.46032,0.16293,0.00000,0.03233,0.99662,-0.04075,0.0
20.63410,2.35532,0.30293,0.00000,0.03209,0.99332,-0.03806,0.0
20.63420,2.53032,0.04043,0.00000,0.03318,0.99515,-0.03855,0.0
20.63430,2.30282,0.18043,0.00000,0.03209,0.99564,-0.03782,0.0
20.63440,2.63532,0.04043,0.00000,0.03318,0.99747,-0.03660,0.0
20.63450,2.95032,0.07543,0.00000,0.03343,0.99637,-0.03819,0.0
20.63460,3.17782,-0.01207,0.00000,0.03099,0.99723,-0.03831,0.0
20.63470,2.79282,0.40793,0.00000,0.03331,0.99528,-0.03916,0.0
20.63480,3.07282,0.18043,0.00000,0.03074,0.99674,-0.03989,0.0
20.63490,2.70532,0.33793,0.00000,0.03148,0.99808,-0.04099,0.0
20.63500,2.54782,0.11043,0.00000,0.03135,0.99589,-0.03928,0.0
20.63510,2.91532,0.16293,0.00000,0.03209,0.99662,-0.03709,0.0
20.63520,2.86282,0.33793,0.00000,0.03428,0.99857,-0.03843,0.0
20.63530,3.31782,0.16293,0.00000,0.03416,0.99662,-0.03843,0.0
20.63540,3.24782,0.04043,0.00000,0.03184,0.99784,-0.04172,0.0
20.63550,3.21282,0.19793,0.00000,0.03160,0.99820,-0.03977,0.0
20.63560,3.35282,0.21543,0.00000,0.03087,0.99528,-0.04002,0.0
20.63570,3.24782,0.30293,0.00000,0.03392,0.99613,-0.04002,0.0
20.63580,3.37032,0.14543,0.00000,0.03355,0.99552,-0.03928,0.0
20.63590,3.10782,0.21543,0.00000,0.03367,0.99454,-0.04099,0.0
20.63600,2.89782,0.23293,0.00000,0.03294,0.99393,-0.04221,0.0
20.63610,3.03782,0.02293,0.00000,0.03257,0.99820,-0.04026,0.0
20.63620,3.12532,0.23293,0.00000,0.03099,0.99784,-0.04038,0.0
20.63630,3.28282,0.07543,0.00000,0.03355,0.99747,-0.04026,0.0
20.63640,3.00282,0.02293,0.00000,0.03453,0.99845,-0.04270,0.0
20.63650,2.84532,0.11043,0.00000,0.03160,0.99784,-0.04014,0.0
20.63660,2.58282,0.14543,0.00000,0.03331,0.99662,-0.03721,0.0
20.63670,2.84532,0.19793,0.00000,0.03489,0.99820,-0.04014,0.0
20.63680,2.81032,0.19793,0.00000,0.03428,0.99650,-0.03953,0.0
20.63690,2.61782,0.09293,0.00000,0.03233,0.99674,-0.04197,0.0
20.63700,2.65282,0.14543,0.00000,0.03172,0.99759,-0.03623,0.0
20.63710,2.61782,-0.01207,0.00000,0.03245,0.99833,-0.03977,0.0
20.63720,2.37282,0.12793,0.00000,0.03282,0.99881,-0.03941,0.0
20.63730,2.65282,-0.02957,0.00000,0.03306,0.99576,-0.03941,0.0
20.63740,2.65282,0.04043,0.00000,0.03367,0.99650,-0.03721,0.0
20.63750,2.12782,0.18043,0.00000,0.03245,0.99747,-0.03953,0.0
20.63760,1.83032,0.32043,0.00000,0.03282,0.99674,-0.03880,0.0
20.63770,1.77782,0.32043,0.00000,0.02928,0.99418,-0.03867,0.0
20.63780,1.49782,0.16293,0.00000,0.03306,0.99820,-0.03928,0.0
20.63790,1.41032,0.14543,0.00000,0.03343,1.00040,-0.03611,0.0
20.63800,1.60282,-0.01207,0.00000,0.03514,0.99515,-0.03660,0.0
20.63810,1.67282,-0.01207,0.00000,0.03135,0.99784,-0.03941,0.0
20.63820,2.12782,0.28543,0.00000,0.03489,0.99625,-0.03636,0.0
20.63830,1.83032,0.00543,0.00000,0.03282,0.99503,-0.03819,0.0
20.63840,2.00532,0.21543,0.00000,0.03294,0.99686,-0.03453,0.0
20.63850,2.74032,0.26793,0.00000,0.03099,0.99625,-0.03819,0.0
20.63860,2.35532,0.18043,0.00000,0.03453,0.99589,-0.03550,0.0
20.63870,1.90032,0.00543,0.00000,0.03245,0.99906,-0.03660,0.0
20.63880,2.91532,0.19793,0.00000,0.03209,0.99625,-0.03440,0.0
20.63890,2.95032,0.09293,0.00000,0.03306,0.99650,-0.03880,0.0
20.63900,2.16282,0.32043,0.00000,0.03550,0.99662,-0.03831,0.0
20.63910,1.67282,0.04043,0.00000,0.03209,0.99650,-0.03660,0.0
20.63920,2.05782,0.23293,0.00000,0.03038,0.99650,-0.03770,0.0
20.63930,2.09282,0.19793,0.00000,0.03087,0.99576,-0.03538,0.0
20.63940,2.19782,0.30293,0.00000,0.03184,0.99698,-0.03648,0.0
20.63950,2.47782,0.14543,0.00000,0.03148,0.99564,-0.03526,0.0
20.63960,2.40782,-0.02957,0.00000,0.03331,0.99625,-0.03782,0.0
20.63970,2.37282,0.14543,0.00000,0.02891,0.99528,-0.03526,0.0
20.63980,2.58282,0.12793,0.00000,0.03428,0.99576,-0.03587,0.0
20.63990,2.51282,-0.08207,0.00000,0.03111,0.99589,-0.03501,0.0
20.64000,2.51282,0.25043,0.00000,0.03428,0.99625,-0.03562,0.0
20.64010,2.88032,0.11043,0.00000,0.03050,0.99467,-0.03660,0.0
20.64020,2.86282,0.05793,0.00000,0.03599,0.99564,-0.03355,0.0
20.64030,2.77532,0.28543,0.00000,0.03514,1.00089,-0.03684,0.0
20.64040,2.65282,0.14543,0.00000,0.03306,0.99650,-0.03562,0.0
20.64050,2.61782,0.35543,0.00000,0.03306,0.99589,-0.03599,0.0
20.64060,2.84532,0.19793,0.00000,0.03209,0.99515,-0.03245,0.0
20.64070,2.91532,0.26793,0.00000,0.03123,0.99845,-0.03453,0.0
20.64080,3.66782,-0.02957,0.00000,0.03416,0.99540,-0.03526,0.0
20.64090,3.63282,0.21543,0.00000,0.03257,0.99576,-0.03697,0.0
20.64100,3.75532,0.12793,0.00000,0.03233,0.99601,-0.03733,0.0
20.64110,3.17782,0.16293,0.00000,0.03160,0.99698,-0.03514,0.0
20.64120,3.42282,0.00543,0.00000,0.03331,0.99698,-0.03489,0.0
20.64130,3.44032,0.09293,0.00000,0.03477,0.99625,-0.03684,0.0
20.64140,3.80782,0.19793,0.00000,0.03111,0.99503,-0.03733,0.0
20.64150,3.63282,0.25043,0.00000,0.03184,0.99552,-0.03867,0.0
20.64160,3.54532,0.14543,0.00000,0.03270,0.99906,-0.04026,0.0
20.64170,3.23032,0.12793,0.00000,0.03343,0.99540,-0.03855,0.0
20.64180,2.74032,0.18043,0.00000,0.03099,0.99820,-0.04038,0.0
20.64190,2.53032,0.14543,0.00000,0.03343,0.99759,-0.03672,0.0
20.64200,2.37282,0.37293,0.00000,0.03331,0.99491,-0.03806,0.0
20.64210,2.58282,-0.04707,0.00000,0.03245,0.99491,-0.03770,0.0
20.64220,2.82782,0.18043,0.00000,0.03343,0.99747,-0.03611,0.0
20.64230,2.84532,0.09293,0.00000,0.03465,0.99454,-0.03709,0.0
20.64240,3.19532,0.25043,0.00000,0.03257,0.99637,-0.03684,0.0
20.64250,3.19532,0.11043,0.00000,0.03294,0.99906,-0.04002,0.0
20.64260,3.09032,-0.11707,0.00000,0.03428,0.99845,-0.03697,0.0
20.64270,2.67032,0.18043,0.00000,0.03184,0.99515,-0.03782,0.0
20.64280,2.68782,0.16293,0.00000,0.03453,0.99479,-0.03745,0.0
20.64290,2.63532,0.14543,0.00000,0.03062,0.99759,-0.03928,0.0
20.64300,2.51282,0.14543,0.00000,0.03135,0.99454,-0.03855,0.0
20.64310,2.56532,0.12793,0.00000,0.03135,0.99869,-0.03782,0.0
20.64320,2.51282,0.42543,0.00000,0.03379,0.99515,-0.03867,0.0
20.64330,2.56532,0.23293,0.00000,0.03123,0.99857,-0.03867,0.0
20.64340,2.56532,0.12793,0.00000,0.03160,0.99735,-0.03880,0.0
20.64350,2.75782,0.16293,0.00000,0.03184,0.99723,-0.03684,0.0
20.64360,2.70532,-0.01207,0.00000,0.03184,0.99759,-0.03880,0.0
20.64370,2.53032,0.33793,0.00000,0.03087,0.99711,-0.03880,0.0
20.64380,2.54782,0.02293,0.00000,0.03440,0.99784,-0.03782,0.0
20.64390,2.53032,0.26793,0.00000,0.03087,0.99772,-0.03697,0.0
20.64400,2.39032,0.37293,0.00000,0.03099,0.99662,-0.03733,0.0
20.64410,2.61782,0.25043,0.00000,0.03343,0.99528,-0.03697,0.0
20.64420,2.81032,0.12793,0.00000,0.03184,0.99259,-0.03672,0.0
20.64430,2.98532,0.09293,0.00000,0.03196,0.99650,-0.03648,0.0
20.64440,2.84532,0.19793,0.00000,0.03099,0.99515,-0.03709,0.0
20.64450,3.12532,0.16293,0.00000,0.03367,0.99711,-0.03733,0.0
20.64460,2.91532,0.30293,0.00000,0.03013,0.99674,-0.03806,0.0
20.64470,2.89782,0.26793,0.00000,0.03135,0.99296,-0.03977,0.0
20.64480,2.77532,0.12793,0.00000,0.03428,0.99735,-0.03831,0.0
20.64490,3.12532,0.09293,0.00000,0.03379,0.99467,-0.03599,0.0
20.64500,3.28282,-0.06457,0.00000,0.03233,0.99601,-0.03928,0.0
20.64510,3.28282,0.16293,0.00000,0.03245,0.99723,-0.03782,0.0
20.64520,2.88032,0.25043,0.00000,0.03343,0.99625,-0.03916,0.0
20.64530,2.98532,0.23293,0.00000,0.03257,0.99881,-0.03989,0.0
20.64540,2.88032,0.12793,0.00000,0.02916,0.99613,-0.03599,0.0
20.64550,3.02032,0.21543,0.00000,0.03196,0.99564,-0.03745,0.0
20.64560,3.16032,0.30293,0.00000,0.03416,0.99845,-0.03660,0.0
20.64570,2.82782,0.12793,0.00000,0.03367,0.99711,-0.03941,0.0
20.64580,2.39032,0.12793,0.00000,0.03282,0.99662,-0.03770,0.0
20.64590,2.16282,0.23293,0.00000,0.03282,0.99881,-0.03684,0.0
20.64600,2.25032,0.35543,0.00000,0.03379,0.99479,-0.03562,0.0
20.64610,2.35532,0.04043,0.00000,0.03123,0.99686,-0.03831,0.0
20.64620,2.12782,0.33793,0.00000,0.03050,0.99589,-0.03453,0.0
20.64630,2.35532,-0.01207,0.00000,0.03343,0.99528,-0.03538,0.0
20.64640,2.14532,-0.01207,0.00000,0.03270,0.99735,-0.03465,0.0
20.64650,2.25032,0.04043,0.00000,0.03184,0.99601,-0.03343,0.0
20.64660,2.32032,0.26793,0.00000,0.03209,0.99515,-0.03684,0.0
20.64670,2.75782,0.44293,0.00000,0.03392,0.99467,-0.03440,0.0
20.64680,3.05532,0.16293,0.00000,0.03294,0.99747,-0.03684,0.0
20.64690,2.67032,0.25043,0.00000,0.03282,0.99589,-0.03501,0.0
20.64700,2.60032,0.26793,0.00000,0.03428,0.99674,-0.03538,0.0
20.64710,2.74032,0.26793,0.00000,0.03440,0.99723,-0.03660,0.0
20.64720,2.75782,0.02293,0.00000,0.03355,0.99820,-0.03611,0.0
20.64730,3.10782,-0.01207,0.00000,0.03245,0.99589,-0.03636,0.0
20.64740,3.49282,0.16293,0.00000,0.03111,0.99467,-0.03501,0.0
20.64750,3.63282,0.21543,0.00000,0.03135,0.99772,-0.03965,0.0
20.64760,3.79032,0.21543,0.00000,0.03477,0.99576,-0.03733,0.0
20.64770,3.47532,0.04043,0.00000,0.03172,0.99564,-0.03831,0.0
20.64780,3.40532,0.26793,0.00000,0.03050,0.99747,-0.04002,0.0
20.64790,3.17782,0.04043,0.00000,0.03221,0.99637,-0.03660,0.0
20.64800,3.07282,0.26793,0.00000,0.03343,0.99735,-0.03794,0.0
20.64810,3.17782,0.18043,0.00000,0.03123,0.99576,-0.03806,0.0
20.64820,3.23032,0.16293,0.00000,0.03416,0.99820,-0.03758,0.0
20.64830,3.54532,0.02293,0.00000,0.03428,0.99613,-0.03684,0.0
20.64840,3.66782,0.16293,0.00000,0.03160,0.99650,-0.03977,0.0
20.64850,3.42282,0.12793,0.00000,0.03196,0.99686,-0.03758,0.0
20.64860,3.87782,0.04043,0.00000,0.03514,0.99650,-0.03660,0.0
20.64870,4.08782,0.12793,0.00000,0.03172,0.99650,-0.03819,0.0
20.64880,4.56032,-0.01207,0.00000,0.03209,0.99759,-0.04063,0.0
20.64890,3.35282,0.35543,0.00000,0.03221,0.99418,-0.04331,0.0
20.64900,3.12532,0.16293,0.00000,0.03428,0.99589,-0.03916,0.0
20.64910,2.84532,0.00543,0.00000,0.03257,0.99381,-0.03941,0.0
20.64920,2.74032,0.12793,0.00000,0.03465,0.99808,-0.03904,0.0
20.64930,2.72282,0.14543,0.00000,0.03331,0.99381,-0.03904,0.0
20.64940,2.68782,0.11043,0.00000,0.03404,0.99552,-0.03904,0.0
20.64950,2.47782,0.25043,0.00000,0.03331,0.99589,-0.03916,0.0
20.64960,2.39032,0.23293,0.00000,0.03221,0.99442,-0.04038,0.0
20.64970,2.32032,0.07543,0.00000,0.03294,0.99515,-0.03721,0.0
20.64980,2.30282,0.05793,0.00000,0.03013,0.99979,-0.03721,0.0
20.64990,2.49532,0.16293,0.00000,0.03501,0.99491,-0.03977,0.0
20.65000,3.03782,-0.09957,0.00000,0.03221,0.99552,-0.03733,0.0
20.65010,3.17782,0.12793,0.00000,0.03318,0.99650,-0.03916,0.0
20.65020,3.44032,0.26793,0.00000,0.03038,0.99515,-0.03977,0.0
20.65030,3.23032,0.00543,0.00000,0.03294,0.99650,-0.03831,0.0
20.65040,3.00282,0.14543,0.00000,0.03331,0.99454,-0.03819,0.0
20.65050,3.23032,-0.01207,0.00000,0.03343,0.99686,-0.03831,0.0
20.65060,3.84282,0.11043,0.00000,0.03172,0.99674,-0.04172,0.0
20.65070,4.08782,0.14543,0.00000,0.03282,0.99393,-0.03941,0.0
20.65080,3.94782,0.18043,0.00000,0.03111,0.99674,-0.04233,0.0
20.65090,3.91282,0.14543,0.00000,0.03087,0.99784,-0.04307,0.0
20.65100,3.00282,0.21543,0.00000,0.03257,0.99906,-0.03965,0.0
20.65110,3.17782,0.25043,0.00000,0.03343,0.99869,-0.03367,0.0
20.65120,6.83532,0.16293,0.00000,0.03379,0.99833,-0.04258,0.0
20.65130,5.01532,0.12793,0.00000,0.03245,0.99552,-0.05002,0.0
20.65140,3.14282,0.18043,0.00000,0.03343,0.99454,-0.04392,0.0
20.65150,3.42282,0.18043,0.00000,0.03233,0.99552,-0.04282,0.0
20.65160,3.33532,0.09293,0.00000,0.03331,0.99796,-0.04099,0.0
20.65170,3.28282,0.21543,0.00000,0.03209,0.99576,-0.04331,0.0
20.65180,3.30032,0.49543,0.00000,0.03343,0.99564,-0.04209,0.0
20.65190,4.14032,0.16293,0.00000,0.03440,0.99625,-0.04136,0.0
20.65200,4.07032,0.14543,0.00000,0.03184,0.99796,-0.04490,0.0
20.65210,3.75532,0.46043,0.00000,0.03514,0.99625,-0.04416,0.0
20.65220,3.38782,0.16293,0.00000,0.03477,0.99515,-0.04416,0.0
20.65230,3.77282,0.32043,0.00000,0.03282,0.99576,-0.03416,0.0
20.65240,6.06532,0.40793,0.00000,0.03294,0.99674,-0.04551,0.0
20.65250,3.63282,0.14543,0.00000,0.03221,0.99528,-0.04770,0.0
20.65260,3.86032,0.09293,0.00000,0.03331,0.99528,-0.04477,0.0
20.65270,3.40532,0.11043,0.00000,0.03416,0.99735,-0.04624,0.0
20.65280,3.26532,0.12793,0.00000,0.03379,0.99625,-0.04404,0.0
20.65290,2.89782,0.26793,0.00000,0.03282,0.99820,-0.04465,0.0
20.65300,2.82782,0.19793,0.00000,0.03196,0.99796,-0.04477,0.0
20.65310,3.00282,0.12793,0.00000,0.03196,0.99515,-0.04599,0.0
20.65320,2.72282,0.33793,0.00000,0.03404,0.99601,-0.04673,0.0
20.65330,2.93282,0.39043,0.00000,0.03343,0.99552,-0.04355,0.0
20.65340,2.74032,-0.16957,0.00000,0.03318,0.99869,-0.04758,0.0
20.65350,2.61782,0.12793,0.00000,0.03196,0.99552,-0.04441,0.0
20.65360,2.74032,0.19793,0.00000,0.03331,0.99589,-0.04490,0.0
20.65370,2.56532,0.18043,0.00000,0.03440,0.99686,-0.04514,0.0
20.65380,2.46032,0.11043,0.00000,0.03233,0.99601,-0.04514,0.0
20.65390,2.53032,0.02293,0.00000,0.03257,0.99528,-0.04392,0.0
20.65400,2.63532,0.21543,0.00000,0.03135,0.99759,-0.04392,0.0
20.65410,2.89782,-0.09957,0.00000,0.03087,0.99552,-0.04563,0.0
20.65420,2.89782,0.25043,0.00000,0.03318,0.99662,-0.04612,0.0
20.65430,2.95032,0.26793,0.00000,0.03367,0.99552,-0.04453,0.0
20.65440,2.81032,0.05793,0.00000,0.03526,0.99576,-0.04575,0.0
20.65450,2.63532,-0.18707,0.00000,0.03392,0.99881,-0.04453,0.0
20.65460,2.75782,0.04043,0.00000,0.03196,0.99552,-0.04502,0.0
20.65470,2.56532,0.04043,0.00000,0.03074,0.99540,-0.04380,0.0
20.65480,2.51282,0.05793,0.00000,0.03245,0.99625,-0.04441,0.0
20.65490,2.60032,0.23293,0.00000,0.03331,0.99528,-0.04343,0.0
20.65500,2.23282,0.12793,0.00000,0.03331,0.99747,-0.04599,0.0
20.65510,2.32032,0.30293,0.00000,0.03331,0.99430,-0.04660,0.0
20.65520,2.11032,0.12793,0.00000,0.03270,0.99637,-0.04099,0.0
20.65530,2.28532,0.00543,0.00000,0.03538,0.99625,-0.04355,0.0
20.65540,2.28532,0.30293,0.00000,0.03221,0.99735,-0.04246,0.0
20.65550,2.23282,0.12793,0.00000,0.03160,0.99430,-0.04307,0.0
20.65560,2.28532,0.35543,0.00000,0.03379,0.99637,-0.04441,0.0
20.65570,2.16282,0.16293,0.00000,0.03379,0.99552,-0.04380,0.0
20.65580,2.30282,0.00543,0.00000,0.03306,0.99808,-0.04392,0.0
20.65590,2.00532,0.07543,0.00000,0.03367,0.99686,-0.04294,0.0
20.65600,2.07532,0.28543,0.00000,0.03184,0.99674,-0.04221,0.0
20.65610,2.18032,0.19793,0.00000,0.03257,0.99674,-0.04233,0.0
20.65620,2.58282,0.11043,0.00000,0.03538,0.99723,-0.04551,0.0
20.65630,2.46032,0.09293,0.00000,0.03209,0.99601,-0.04160,0.0
20.65640,2.54782,0.11043,0.00000,0.03318,0.99650,-0.04185,0.0
20.65650,2.33782,0.07543,0.00000,0.03148,0.99601,-0.04099,0.0
20.65660,2.61782,0.16293,0.00000,0.03477,0.99430,-0.04221,0.0
20.65670,3.09032,0.14543,0.00000,0.03599,0.99564,-0.04087,0.0
20.65680,3.17782,0.16293,0.00000,0.03087,0.99698,-0.04209,0.0
20.65690,3.35282,0.09293,0.00000,0.03123,0.99662,-0.04294,0.0
20.65700,2.86282,0.18043,0.00000,0.03001,0.99613,-0.04209,0.0
20.65710,3.07282,0.04043,0.00000,0.03416,0.99723,-0.04209,0.0
20.65720,3.10782,0.26793,0.00000,0.03196,0.99528,-0.04246,0.0
20.65730,3.09032,0.05793,0.00000,0.03282,0.99857,-0.04404,0.0
20.65740,2.82782,0.32043,0.00000,0.03489,0.99564,-0.04136,0.0
20.65750,2.82782,0.05793,0.00000,0.03099,0.99540,-0.04209,0.0
20.65760,2.72282,0.09293,0.00000,0.03282,0.99735,-0.04197,0.0
20.65770,2.91532,0.05793,0.00000,0.03562,0.99576,-0.04380,0.0
20.65780,3.05532,-0.11707,0.00000,0.03245,0.99552,-0.04307,0.0
20.65790,2.84532,-0.04707,0.00000,0.03257,0.99576,-0.04307,0.0
20.65800,2.98532,0.02293,0.00000,0.03099,0.99650,-0.04355,0.0
20.65810,3.12532,-0.09957,0.00000,0.03318,0.99564,-0.04331,0.0
20.65820,3.09032,0.18043,0.00000,0.03245,0.99381,-0.04246,0.0
20.65830,2.96782,0.07543,0.00000,0.03343,0.99540,-0.04355,0.0
20.65840,2.88032,0.19793,0.00000,0.03331,0.99491,-0.04502,0.0
20.65850,2.84532,0.07543,0.00000,0.03416,0.99357,-0.04221,0.0
20.65860,3.23032,0.25043,0.00000,0.03160,0.99711,-0.04172,0.0
20.65870,3.56282,-0.09957,0.00000,0.03306,0.99784,-0.04307,0.0
20.65880,3.21282,-0.01207,0.00000,0.03355,0.99772,-0.04575,0.0
20.65890,2.89782,0.16293,0.00000,0.03489,0.99491,-0.04270,0.0
20.65900,2.70532,0.16293,0.00000,0.03148,0.99406,-0.04380,0.0
20.65910,2.74032,0.18043,0.00000,0.03270,0.99674,-0.04294,0.0
20.65920,3.07282,0.21543,0.00000,0.03062,0.99820,-0.04172,0.0
20.65930,2.93282,0.12793,0.00000,0.03355,0.99881,-0.04246,0.0
20.65940,2.89782,0.16293,0.00000,0.03257,0.99393,-0.04502,0.0
20.65950,2.95032,-0.11707,0.00000,0.03379,0.99772,-0.04465,0.0
20.65960,2.88032,0.18043,0.00000,0.03135,0.99540,-0.04282,0.0
20.65970,2.26782,0.14543,0.00000,0.03294,0.99479,-0.04624,0.0
20.65980,2.14532,0.05793,0.00000,0.03196,0.99454,-0.04099,0.0
20.65990,2.56532,0.11043,0.00000,0.03221,0.99625,-0.04026,0.0
20.66000,2.84532,0.09293,0.00000,0.03318,0.99467,-0.03989,0.0
20.66010,3.17782,-0.06457,0.00000,0.03453,0.99552,-0.04319,0.0
20.66020,3.02032,0.39043,0.00000,0.03172,0.99357,-0.04416,0.0
20.66030,2.67032,0.26793,0.00000,0.03196,0.99625,-0.04294,0.0
20.66040,2.61782,-0.25707,0.00000,0.03428,0.99820,-0.04294,0.0
20.66050,2.67032,0.04043,0.00000,0.03318,0.99442,-0.04282,0.0
20.66060,2.84532,0.14543,0.00000,0.03294,0.99552,-0.04075,0.0
20.66070,2.93282,0.47793,0.00000,0.03331,0.99601,-0.04209,0.0
20.66080,3.30032,0.05793,0.00000,0.03453,0.99576,-0.04343,0.0
20.66090,3.02032,0.44293,0.00000,0.03184,0.99711,-0.04221,0.0
20.66100,2.86282,0.14543,0.00000,0.03331,0.99637,-0.04416,0.0
20.66110,2.37282,0.12793,0.00000,0.03026,0.99454,-0.04404,0.0
20.66120,2.37282,0.21543,0.00000,0.03099,0.99698,-0.04050,0.0
20.66130,2.79282,0.16293,0.00000,0.03379,0.99686,-0.04294,0.0
20.66140,3.09032,0.33793,0.00000,0.03416,0.99601,-0.04136,0.0
20.66150,3.21282,0.04043,0.00000,0.03209,0.99613,-0.04514,0.0
20.66160,2.77532,0.00543,0.00000,0.03270,0.99784,-0.04453,0.0
20.66170,2.39032,0.11043,0.00000,0.03209,0.99393,-0.04026,0.0
20.66180,2.14532,0.26793,0.00000,0.03343,0.99540,-0.04355,0.0
20.66190,2.02282,0.19793,0.00000,0.03489,0.99564,-0.04087,0.0
20.66200,2.74032,0.00543,0.00000,0.03233,0.99625,-0.04294,0.0
20.66210,2.89782,0.32043,0.00000,0.03257,0.99711,-0.04038,0.0
20.66220,3.07282,0.21543,0.00000,0.03306,0.99442,-0.04502,0.0
20.66230,2.65282,0.09293,0.00000,0.03257,0.99991,-0.04416,0.0
20.66240,2.32032,0.26793,0.00000,0.03355,0.99650,-0.04172,0.0
20.66250,2.37282,0.14543,0.00000,0.03489,0.99674,-0.04124,0.0
20.66260,2.30282,-0.04707,0.00000,0.03184,0.99759,-0.04319,0.0
20.66270,2.72282,-0.06457,0.00000,0.03111,0.99491,-0.04087,0.0
20.66280,2.82782,-0.04707,0.00000,0.03392,0.99576,-0.03941,0.0
20.66290,2.91532,0.09293,0.00000,0.03318,0.99564,-0.04319,0.0
20.66300,2.49532,0.19793,0.00000,0.03160,0.99564,-0.04331,0.0
20.66310,2.30282,0.18043,0.00000,0.03331,0.99759,-0.04148,0.0
20.66320,2.21532,0.07543,0.00000,0.03148,0.99650,-0.04099,0.0
20.66330,2.40782,0.28543,0.00000,0.03257,0.99552,-0.03794,0.0
20.66340,2.81032,0.21543,0.00000,0.03318,0.99613,-0.04319,0.0
20.66350,2.82782,0.19793,0.00000,0.03001,0.99515,-0.04246,0.0
20.66360,2.72282,0.09293,0.00000,0.03245,0.99503,-0.04465,0.0
20.66370,2.40782,0.07543,0.00000,0.03404,0.99381,-0.04343,0.0
20.66380,2.67032,0.30293,0.00000,0.03135,0.99735,-0.03928,0.0
20.66390,2.60032,0.23293,0.00000,0.03160,0.99491,-0.04075,0.0
20.66400,2.89782,0.26793,0.00000,0.03038,0.99772,-0.04319,0.0
20.66410,2.93282,0.00543,0.00000,0.03404,0.99711,-0.04136,0.0
20.66420,2.81032,0.05793,0.00000,0.03270,0.99515,-0.04185,0.0
20.66430,2.72282,0.02293,0.00000,0.03343,0.99735,-0.04331,0.0
20.66440,2.84532,0.33793,0.00000,0.03282,0.99454,-0.04002,0.0
20.66450,2.89782,0.16293,0.00000,0.03282,0.99589,-0.04172,0.0
20.66460,2.56532,0.04043,0.00000,0.03111,0.99552,-0.04343,0.0
20.66470,2.44282,0.28543,0.00000,0.03160,0.99540,-0.04185,0.0
20.66480,2.46032,0.19793,0.00000,0.03282,0.99613,-0.04197,0.0
20.66490,2.67032,-0.08207,0.00000,0.03160,0.99540,-0.04270,0.0
20.66500,2.53032,0.00543,0.00000,0.03196,0.99540,-0.04209,0.0
20.66510,2.77532,0.02293,0.00000,0.03355,0.99796,-0.04136,0.0
20.66520,2.60032,0.00543,0.00000,0.03282,0.99674,-0.04185,0.0
20.66530,2.28532,0.04043,0.00000,0.03221,0.99625,-0.04368,0.0
20.66540,2.37282,0.25043,0.00000,0.03318,0.99467,-0.04111,0.0
20.66550,2.88032,0.23293,0.00000,0.03623,0.99637,-0.04136,0.0
20.66560,2.95032,0.18043,0.00000,0.03160,0.99723,-0.04258,0.0
20.66570,2.70532,-0.01207,0.00000,0.03233,0.99589,-0.03941,0.0
20.66580,2.49532,0.32043,0.00000,0.03306,0.99894,-0.04233,0.0
20.66590,2.60032,-0.04707,0.00000,0.03282,0.99442,-0.04160,0.0
20.66600,2.81032,0.09293,0.00000,0.03270,0.99747,-0.04038,0.0
20.66610,2.95032,0.23293,0.00000,0.03135,0.99662,-0.03916,0.0
20.66620,2.88032,0.05793,0.00000,0.03355,0.99711,-0.03989,0.0
20.66630,2.79282,0.23293,0.00000,0.03355,0.99564,-0.04233,0.0
20.66640,2.72282,-0.13457,0.00000,0.03233,0.99650,-0.04221,0.0
20.66650,2.58282,0.25043,0.00000,0.03270,0.99625,-0.04502,0.0
20.66660,2.26782,0.16293,0.00000,0.03282,0.99698,-0.03806,0.0
20.66670,2.23282,0.33793,0.00000,0.03343,0.99698,-0.03916,0.0
20.66680,2.49532,0.11043,0.00000,0.03404,0.99528,-0.04197,0.0
20.66690,3.05532,0.39043,0.00000,0.03270,0.99698,-0.04258,0.0
20.66700,2.56532,0.25043,0.00000,0.03331,0.99894,-0.04063,0.0
20.66710,2.86282,0.00543,0.00000,0.03416,0.99747,-0.04075,0.0
20.66720,2.96782,0.11043,0.00000,0.03172,0.99479,-0.04002,0.0
20.66730,2.79282,0.07543,0.00000,0.03172,0.99589,-0.04465,0.0
20.66740,2.37282,0.30293,0.00000,0.03245,0.99784,-0.04172,0.0
20.66750,2.47782,0.23293,0.00000,0.03111,0.99662,-0.03819,0.0
20.66760,2.70532,0.07543,0.00000,0.03306,0.99662,-0.03892,0.0
20.66770,2.98532,0.19793,0.00000,0.03233,0.99454,-0.04063,0.0
20.66780,3.21282,-0.06457,0.00000,0.02891,0.99589,-0.04392,0.0
20.66790,2.56532,0.14543,0.00000,0.03257,0.99393,-0.04172,0.0
20.66800,2.51282,-0.02957,0.00000,0.03209,0.99930,-0.03989,0.0
20.66810,2.37282,0.09293,0.00000,0.03526,0.99674,-0.04002,0.0
20.66820,2.56532,0.12793,0.00000,0.03245,0.99698,-0.03977,0.0
20.66830,2.61782,0.16293,0.00000,0.03428,0.99601,-0.04026,0.0
20.66840,3.00282,0.30293,0.00000,0.03379,0.99723,-0.03953,0.0
20.66850,3.28282,0.09293,0.00000,0.03196,0.99772,-0.04172,0.0
20.66860,3.07282,0.23293,0.00000,0.03245,0.99515,-0.04124,0.0
20.66870,2.47782,0.02293,0.00000,0.03148,0.99601,-0.04258,0.0
20.66880,2.28532,0.09293,0.00000,0.03257,0.99686,-0.04209,0.0
20.66890,2.49532,0.00543,0.00000,0.03379,0.99650,-0.04050,0.0
20.66900,2.61782,0.04043,0.00000,0.03135,0.99723,-0.04087,0.0
20.66910,2.35532,0.05793,0.00000,0.03526,0.99650,-0.04026,0.0
20.66920,2.61782,-0.15207,0.00000,0.03440,0.99686,-0.04209,0.0
20.66930,2.65282,0.00543,0.00000,0.03343,0.99784,-0.04221,0.0
20.66940,2.49532,0.14543,0.00000,0.03282,0.99723,-0.04111,0.0
20.66950,2.11032,0.02293,0.00000,0.03148,0.99613,-0.03928,0.0
20.66960,2.02282,0.11043,0.00000,0.03343,0.99747,-0.04050,0.0
20.66970,2.74032,0.19793,0.00000,0.03379,0.99711,-0.03867,0.0
20.66980,2.79282,0.11043,0.00000,0.03355,0.99406,-0.04233,0.0
20.66990,2.79282,0.05793,0.00000,0.03440,0.99711,-0.04111,0.0
20.67000,2.28532,0.18043,0.00000,0.03123,0.99650,-0.03916,0.0
20.67010,2.21532,0.16293,0.00000,0.03367,0.99674,-0.03843,0.0
20.67020,2.58282,0.04043,0.00000,0.03379,0.99869,-0.04038,0.0
20.67030,2.63532,0.23293,0.00000,0.03209,0.99881,-0.04002,0.0
20.67040,2.63532,0.11043,0.00000,0.03135,0.99576,-0.04002,0.0
20.67050,3.00282,0.11043,0.00000,0.03172,0.99406,-0.04111,0.0
20.67060,2.58282,0.18043,0.00000,0.03526,0.99845,-0.03855,0.0
20.67070,2.46032,0.09293,0.00000,0.03318,0.99479,-0.04014,0.0
20.67080,2.44282,0.12793,0.00000,0.03160,0.99662,-0.04063,0.0
20.67090,2.30282,0.21543,0.00000,0.03160,0.99869,-0.04136,0.0
20.67100,2.51282,0.04043,0.00000,0.03270,0.99662,-0.04038,0.0
20.67110,2.40782,0.49543,0.00000,0.03489,0.99515,-0.03806,0.0
20.67120,2.79282,0.26793,0.00000,0.03440,0.99625,-0.03928,0.0
20.67130,3.02032,0.18043,0.00000,0.03428,0.99528,-0.04307,0.0
20.67140,2.89782,0.42543,0.00000,0.03221,0.99820,-0.04050,0.0
20.67150,2.40782,0.46043,0.00000,0.03343,0.99857,-0.04050,0.0
20.67160,2.40782,0.11043,0.00000,0.03355,0.99650,-0.03660,0.0
20.67170,2.79282,0.30293,0.00000,0.02952,0.99637,-0.03892,0.0
20.67180,3.31782,0.02293,0.00000,0.03282,0.99686,-0.03892,0.0
20.67190,3.16032,0.12793,0.00000,0.03184,0.99711,-0.04233,0.0
20.67200,2.91532,0.11043,0.00000,0.03343,0.99833,-0.04209,0.0
20.67210,2.77532,0.16293,0.00000,0.03270,0.99662,-0.03928,0.0
20.67220,2.95032,0.30293,0.00000,0.03062,0.99528,-0.03904,0.0
20.67230,3.45782,0.18043,0.00000,0.03440,0.99528,-0.04038,0.0
20.67240,3.21282,0.18043,0.00000,0.03501,0.99735,-0.04185,0.0
20.67250,2.98532,0.25043,0.00000,0.03148,0.99528,-0.04002,0.0
20.67260,2.60032,0.11043,0.00000,0.03355,0.99650,-0.03806,0.0
20.67270,2.79282,0.16293,0.00000,0.03501,0.99345,-0.04002,0.0
20.67280,3.00282,0.00543,0.00000,0.03282,0.99528,-0.03941,0.0
20.67290,3.05532,-0.02957,0.00000,0.03416,0.99698,-0.04465,0.0
20.67300,3.12532,0.04043,0.00000,0.03184,0.99552,-0.04087,0.0
20.67310,3.19532,-0.01207,0.00000,0.03257,0.99820,-0.03941,0.0
20.67320,3.12532,0.14543,0.00000,0.03306,0.99381,-0.03977,0.0
20.67330,3.16032,0.23293,0.00000,0.03221,0.99686,-0.04111,0.0
20.67340,3.14282,0.16293,0.00000,0.03306,0.99589,-0.04148,0.0
20.67350,2.68782,-0.09957,0.00000,0.03306,0.99723,-0.03880,0.0
20.67360,2.58282,0.32043,0.00000,0.03355,0.99320,-0.03989,0.0
20.67370,2.91532,0.05793,0.00000,0.03123,0.99637,-0.03928,0.0
20.67380,3.30032,0.12793,0.00000,0.03294,0.99918,-0.04087,0.0
20.67390,3.35282,0.25043,0.00000,0.03257,0.99540,-0.03880,0.0
20.67400,3.00282,0.00543,0.00000,0.03233,0.99698,-0.04270,0.0
20.67410,2.35532,0.07543,0.00000,0.03172,0.99503,-0.04185,0.0
20.67420,2.70532,0.16293,0.00000,0.03245,0.99894,-0.03867,0.0
20.67430,2.98532,0.33793,0.00000,0.03428,0.99442,-0.03892,0.0
20.67440,3.02032,0.05793,0.00000,0.03428,0.99589,-0.03941,0.0
20.67450,3.10782,0.14543,0.00000,0.03343,0.99528,-0.04233,0.0
20.67460,2.95032,0.16293,0.00000,0.03257,0.99674,-0.04319,0.0
20.67470,2.68782,0.23293,0.00000,0.03355,0.99552,-0.04368,0.0
20.67480,2.91532,0.05793,0.00000,0.03013,0.99564,-0.04355,0.0
20.67490,2.81032,0.26793,0.00000,0.03087,0.99759,-0.04038,0.0
20.67500,2.88032,0.00543,0.00000,0.03526,0.99686,-0.04087,0.0
20.67510,2.82782,0.05793,0.00000,0.03001,0.99601,-0.04185,0.0
20.67520,2.93282,-0.06457,0.00000,0.03221,0.99491,-0.04087,0.0
20.67530,3.16032,-0.01207,0.00000,0.03392,0.99625,-0.04172,0.0
20.67540,3.05532,0.18043,0.00000,0.03318,0.99759,-0.04258,0.0
20.67550,3.12532,0.04043,0.00000,0.03233,0.99540,-0.03941,0.0
20.67560,3.02032,-0.02957,0.00000,0.03038,0.99894,-0.04111,0.0
20.67570,3.23032,0.02293,0.00000,0.03111,0.99515,-0.04270,0.0
20.67580,3.59782,0.07543,0.00000,0.03233,0.99381,-0.04111,0.0
20.67590,3.42282,0.09293,0.00000,0.03257,0.99576,-0.04355,0.0
20.67600,3.17782,0.02293,0.00000,0.03404,0.99881,-0.04514,0.0
20.67610,3.02032,0.16293,0.00000,0.03318,0.99467,-0.04050,0.0
20.67620,3.24782,0.11043,0.00000,0.03087,0.99845,-0.03855,0.0
20.67630,3.52782,0.09293,0.00000,0.03355,0.99674,-0.03941,0.0
20.67640,3.65032,0.23293,0.00000,0.03038,0.99564,-0.04392,0.0
20.67650,3.21282,0.40793,0.00000,0.03172,0.99369,-0.04368,0.0
20.67660,2.58282,0.02293,0.00000,0.03379,0.99686,-0.04453,0.0
20.67670,2.56532,0.26793,0.00000,0.03196,0.99735,-0.04429,0.0
20.67680,2.84532,-0.01207,0.00000,0.03489,0.99589,-0.04099,0.0
20.67690,2.74032,0.14543,0.00000,0.03392,0.99784,-0.04160,0.0
20.67700,3.09032,0.14543,0.00000,0.03294,0.99369,-0.04233,0.0
20.67710,2.72282,0.30293,0.00000,0.03282,0.99589,-0.04258,0.0
20.67720,2.79282,0.19793,0.00000,0.03184,0.99528,-0.04331,0.0
20.67730,2.75782,-0.06457,0.00000,0.03440,0.99686,-0.04307,0.0
20.67740,2.58282,0.09293,0.00000,0.03196,0.99369,-0.04099,0.0
20.67750,2.56532,0.05793,0.00000,0.03160,0.99942,-0.04368,0.0
20.67760,2.58282,0.05793,0.00000,0.03221,0.99528,-0.04197,0.0
20.67770,2.91532,0.25043,0.00000,0.03221,0.99674,-0.04307,0.0
20.67780,2.98532,0.18043,0.00000,0.03148,0.99515,-0.03977,0.0
20.67790,3.05532,0.23293,0.00000,0.03148,0.99515,-0.04331,0.0
20.67800,2.79282,0.04043,0.00000,0.03245,0.99576,-0.04270,0.0
20.67810,2.49532,0.14543,0.00000,0.03367,0.99784,-0.04185,0.0
20.67820,2.44282,0.49543,0.00000,0.03184,0.99540,-0.04160,0.0
20.67830,2.47782,0.11043,0.00000,0.03294,0.99735,-0.04087,0.0
20.67840,2.49532,0.21543,0.00000,0.03343,0.99686,-0.04307,0.0
20.67850,2.53032,0.12793,0.00000,0.03172,0.99637,-0.04148,0.0
20.67860,2.60032,0.14543,0.00000,0.03282,0.99528,-0.04124,0.0
20.67870,2.32032,0.26793,0.00000,0.03331,0.99735,-0.04148,0.0
20.67880,2.21532,0.16293,0.00000,0.03440,0.99711,-0.03928,0.0
20.67890,2.46032,0.16293,0.00000,0.03245,0.99686,-0.04002,0.0
20.67900,2.81032,0.14543,0.00000,0.03270,0.99552,-0.04185,0.0
20.67910,2.74032,0.05793,0.00000,0.03270,0.99637,-0.04148,0.0
20.67920,2.77532,0.05793,0.00000,0.03233,0.99930,-0.04209,0.0
20.67930,2.49532,0.00543,0.00000,0.03501,0.99467,-0.04185,0.0
20.67940,2.44282,0.09293,0.00000,0.03111,0.99540,-0.04197,0.0
20.67950,2.54782,0.14543,0.00000,0.03270,0.99271,-0.04282,0.0
20.67960,2.44282,0.12793,0.00000,0.03294,0.99747,-0.04111,0.0
20.67970,2.39032,-0.02957,0.00000,0.03148,0.99576,-0.03855,0.0
20.67980,2.47782,0.12793,0.00000,0.03221,0.99735,-0.04124,0.0
20.67990,2.86282,0.00543,0.00000,0.03538,0.99345,-0.04282,0.0
20.68000,3.26532,0.12793,0.00000,0.03440,0.99515,-0.04124,0.0
20.68010,3.07282,0.12793,0.00000,0.03233,0.99637,-0.04233,0.0
20.68020,3.19532,0.26793,0.00000,0.03477,0.99735,-0.04319,0.0
20.68030,2.65282,0.21543,0.00000,0.03294,0.99601,-0.04148,0.0
20.68040,2.39032,0.28543,0.00000,0.03074,0.99662,-0.04258,0.0
20.68050,2.49532,0.25043,0.00000,0.03050,0.99564,-0.04185,0.0
20.68060,2.86282,0.30293,0.00000,0.03489,0.99637,-0.04136,0.0
20.68070,3.05532,0.25043,0.00000,0.03233,0.99601,-0.04355,0.0
20.68080,3.10782,0.05793,0.00000,0.03233,0.99576,-0.04148,0.0
20.68090,3.02032,0.18043,0.00000,0.03428,0.99918,-0.04172,0.0
20.68100,2.81032,0.04043,0.00000,0.03172,0.99540,-0.04197,0.0
20.68110,3.05532,0.14543,0.00000,0.03465,0.99613,-0.04209,0.0
20.68120,3.19532,0.23293,0.00000,0.03172,0.99540,-0.04416,0.0
20.68130,3.33532,0.11043,0.00000,0.03245,0.99845,-0.04319,0.0
20.68140,2.84532,0.30293,0.00000,0.03355,0.99552,-0.04526,0.0
20.68150,2.60032,0.07543,0.00000,0.03221,0.99845,-0.04453,0.0
20.68160,2.65282,0.12793,0.00000,0.03184,0.99613,-0.04148,0.0
20.68170,2.63532,0.35543,0.00000,0.03318,0.99479,-0.03989,0.0
20.68180,2.77532,0.14543,0.00000,0.03099,0.99674,-0.04002,0.0
20.68190,2.81032,0.26793,0.00000,0.03453,0.99625,-0.04050,0.0
20.68200,2.54782,0.00543,0.00000,0.03160,0.99540,-0.04160,0.0
20.68210,2.51282,0.11043,0.00000,0.03331,0.99662,-0.04148,0.0
20.68220,2.47782,-0.11707,0.00000,0.03282,0.99662,-0.04172,0.0
20.68230,2.74032,0.30293,0.00000,0.03087,0.99589,-0.04124,0.0
20.68240,2.93282,0.07543,0.00000,0.03209,0.99589,-0.04136,0.0
20.68250,2.61782,0.35543,0.00000,0.03270,0.99869,-0.04355,0.0
20.68260,2.68782,0.16293,0.00000,0.03001,0.99589,-0.04233,0.0
20.68270,2.84532,0.21543,0.00000,0.03221,0.99894,-0.04380,0.0
20.68280,2.81032,0.46043,0.00000,0.03233,0.99686,-0.04233,0.0
20.68290,2.72282,0.25043,0.00000,0.03514,0.99625,-0.04587,0.0
20.68300,2.75782,0.25043,0.00000,0.03367,0.99576,-0.04111,0.0
20.68310,3.21282,0.11043,0.00000,0.03196,0.99589,-0.03977,0.0
20.68320,2.96782,0.25043,0.00000,0.03123,0.99528,-0.04197,0.0
20.68330,3.10782,0.12793,0.00000,0.03343,0.99589,-0.04209,0.0
20.68340,3.03782,0.28543,0.00000,0.03367,0.99674,-0.04246,0.0
20.68350,3.23032,0.09293,0.00000,0.02989,0.99686,-0.04014,0.0
20.68360,3.05532,0.09293,0.00000,0.03428,0.99650,-0.04111,0.0
20.68370,3.21282,0.18043,0.00000,0.03221,0.99613,-0.04197,0.0
20.68380,3.35282,0.11043,0.00000,0.03392,0.99625,-0.04429,0.0
20.68390,2.84532,0.32043,0.00000,0.03416,0.99369,-0.04514,0.0
20.68400,2.68782,0.26793,0.00000,0.03331,0.99564,-0.04538,0.0
20.68410,2.32032,0.28543,0.00000,0.03331,0.99759,-0.04002,0.0
20.68420,2.72282,0.11043,0.00000,0.03465,0.99467,-0.04026,0.0
20.68430,3.42282,0.09293,0.00000,0.03160,0.99698,-0.04343,0.0
20.68440,3.35282,-0.02957,0.00000,0.03172,0.99650,-0.04514,0.0
20.68450,2.72282,0.02293,0.00000,0.03184,0.99345,-0.04416,0.0
20.68460,2.75782,0.11043,0.00000,0.03514,0.99711,-0.04185,0.0
20.68470,2.75782,-0.01207,0.00000,0.03392,0.99576,-0.04490,0.0
20.68480,2.95032,0.23293,0.00000,0.03428,0.99491,-0.04477,0.0
20.68490,2.77532,0.07543,0.00000,0.03355,0.99723,-0.04270,0.0
20.68500,2.47782,0.21543,0.00000,0.03294,0.99711,-0.04050,0.0
20.68510,2.40782,0.30293,0.00000,0.03379,0.99686,-0.04172,0.0
20.68520,3.09032,0.07543,0.00000,0.03379,0.99735,-0.04258,0.0
20.68530,3.19532,0.12793,0.00000,0.03343,0.99576,-0.04075,0.0
20.68540,3.12532,0.09293,0.00000,0.03562,0.99430,-0.04477,0.0
20.68550,2.79282,0.25043,0.00000,0.03257,0.99723,-0.04368,0.0
20.68560,2.84532,0.04043,0.00000,0.03294,0.99540,-0.04233,0.0
20.68570,2.95032,0.25043,0.00000,0.03392,0.99576,-0.04185,0.0
20.68580,2.96782,0.07543,0.00000,0.03440,0.99711,-0.04294,0.0
20.68590,3.07282,0.21543,0.00000,0.03294,0.99869,-0.04392,0.0
20.68600,3.05532,0.04043,0.00000,0.03428,0.99772,-0.04624,0.0
20.68610,2.44282,-0.02957,0.00000,0.03355,0.99662,-0.04294,0.0
20.68620,2.44282,0.00543,0.00000,0.03294,0.99650,-0.04380,0.0
20.68630,2.58282,0.02293,0.00000,0.03367,0.99662,-0.04160,0.0
20.68640,2.42532,-0.06457,0.00000,0.03270,0.99491,-0.04221,0.0
20.68650,2.47782,0.12793,0.00000,0.03331,0.99723,-0.04380,0.0
20.68660,2.65282,0.23293,0.00000,0.03074,0.99698,-0.04331,0.0
20.68670,2.47782,0.02293,0.00000,0.03221,0.99601,-0.04331,0.0
20.68680,2.51282,0.23293,0.00000,0.03428,0.99418,-0.04014,0.0
20.68690,2.46032,-0.13457,0.00000,0.03367,1.00077,-0.04172,0.0
20.68700,2.79282,0.32043,0.00000,0.03294,0.99662,-0.04099,0.0
20.68710,2.72282,0.04043,0.00000,0.03318,0.99491,-0.04343,0.0
20.68720,2.67032,0.28543,0.00000,0.03550,0.99674,-0.04490,0.0
20.68730,2.42532,0.37293,0.00000,0.03416,0.99674,-0.04319,0.0
20.68740,2.33782,0.07543,0.00000,0.03294,0.99747,-0.04221,0.0
20.68750,2.30282,0.05793,0.00000,0.03428,0.99637,-0.04246,0.0
20.68760,2.58282,0.16293,0.00000,0.03233,0.99442,-0.04148,0.0
20.68770,2.47782,0.16293,0.00000,0.03184,0.99650,-0.04148,0.0
20.68780,2.44282,0.19793,0.00000,0.03453,0.99515,-0.04185,0.0
20.68790,2.53032,0.12793,0.00000,0.03343,0.99674,-0.04441,0.0
20.68800,2.65282,0.18043,0.00000,0.03392,0.99662,-0.04209,0.0
20.68810,2.51282,0.09293,0.00000,0.03392,0.99284,-0.03892,0.0
20.68820,2.84532,0.04043,0.00000,0.03318,0.99613,-0.03782,0.0
20.68830,2.74032,-0.04707,0.00000,0.03379,0.99759,-0.04124,0.0
20.68840,2.84532,0.23293,0.00000,0.03160,0.99589,-0.04343,0.0
20.68850,2.65282,0.04043,0.00000,0.03184,0.99747,-0.04136,0.0
20.68860,2.95032,0.04043,0.00000,0.03526,0.99662,-0.04124,0.0
20.68870,3.07282,0.30293,0.00000,0.03562,0.99686,-0.04099,0.0
20.68880,3.05532,0.21543,0.00000,0.03172,0.99625,-0.04233,0.0
20.68890,3.17782,0.11043,0.00000,0.03392,0.99528,-0.04111,0.0
20.68900,3.16032,0.25043,0.00000,0.03282,0.99589,-0.04099,0.0
20.68910,3.05532,0.12793,0.00000,0.03404,0.99503,-0.03904,0.0
20.68920,2.95032,0.37293,0.00000,0.03087,0.99784,-0.04148,0.0
20.68930,3.16032,0.12793,0.00000,0.03379,0.99747,-0.04404,0.0
20.68940,3.17782,0.28543,0.00000,0.03538,0.99442,-0.04075,0.0
20.68950,3.05532,0.09293,0.00000,0.03453,0.99650,-0.04246,0.0
20.68960,2.98532,0.09293,0.00000,0.03184,0.99589,-0.04026,0.0
20.68970,2.74032,0.02293,0.00000,0.03294,0.99540,-0.04087,0.0
20.68980,2.79282,0.16293,0.00000,0.03172,0.99576,-0.04099,0.0
20.68990,2.63532,0.07543,0.00000,0.03416,0.99369,-0.04282,0.0
20.69000,2.75782,0.28543,0.00000,0.03196,0.99698,-0.04063,0.0
20.69010,2.77532,0.04043,0.00000,0.03148,0.99674,-0.04477,0.0
20.69020,2.60032,0.30293,0.00000,0.03087,0.99747,-0.04221,0.0
20.69030,2.54782,0.05793,0.00000,0.03257,0.99674,-0.04319,0.0
20.69040,2.74032,0.05793,0.00000,0.03257,0.99515,-0.04136,0.0
20.69050,3.09032,0.05793,0.00000,0.03282,0.99418,-0.04270,0.0
20.69060,3.05532,0.11043,0.00000,0.03489,0.99515,-0.04099,0.0
20.69070,2.89782,0.07543,0.00000,0.03135,0.99711,-0.04319,0.0
20.69080,2.86282,0.11043,0.00000,0.03257,0.99759,-0.04282,0.0
20.69090,2.95032,-0.02957,0.00000,0.03355,0.99381,-0.04307,0.0
20.69100,2.77532,-0.01207,0.00000,0.03392,0.99601,-0.04026,0.0
20.69110,2.95032,0.33793,0.00000,0.03196,0.99515,-0.04209,0.0
20.69120,2.93282,0.21543,0.00000,0.03099,0.99845,-0.04136,0.0
20.69130,3.12532,0.37293,0.00000,0.03343,0.99601,-0.03953,0.0
20.69140,2.89782,0.30293,0.00000,0.03123,0.99528,-0.04319,0.0
20.69150,2.79282,0.04043,0.00000,0.03233,0.99662,-0.04502,0.0
20.69160,2.54782,0.05793,0.00000,0.03562,0.99430,-0.04050,0.0
20.69170,2.77532,0.30293,0.00000,0.03416,0.99515,-0.03941,0.0
20.69180,2.82782,0.16293,0.00000,0.03245,0.99759,-0.04148,0.0
20.69190,2.93282,0.18043,0.00000,0.03087,0.99894,-0.04368,0.0
20.69200,3.45782,0.14543,0.00000,0.03221,0.99503,-0.04063,0.0
20.69210,3.59782,0.11043,0.00000,0.03282,0.99589,-0.04343,0.0
20.69220,2.88032,0.18043,0.00000,0.03282,0.99637,-0.04355,0.0
20.69230,2.61782,0.23293,0.00000,0.03355,0.99820,-0.04124,0.0
20.69240,2.42532,0.09293,0.00000,0.03282,0.99625,-0.04148,0.0
20.69250,2.60032,0.02293,0.00000,0.03440,0.99442,-0.03953,0.0
20.69260,2.58282,0.19793,0.00000,0.03257,0.99735,-0.04185,0.0
20.69270,2.77532,0.14543,0.00000,0.03221,0.99747,-0.04148,0.0
20.69280,2.91532,0.23293,0.00000,0.03318,0.99357,-0.04160,0.0
20.69290,2.82782,-0.11707,0.00000,0.03392,0.99296,-0.04270,0.0
20.69300,2.88032,0.12793,0.00000,0.03294,0.99857,-0.04258,0.0
20.69310,2.61782,0.18043,0.00000,0.03282,0.99625,-0.04392,0.0
20.69320,2.39032,0.39043,0.00000,0.03355,0.99637,-0.04258,0.0
20.69330,2.58282,0.14543,0.00000,0.03074,0.99698,-0.04148,0.0
20.69340,2.84532,0.16293,0.00000,0.03501,0.99454,-0.04404,0.0
20.69350,2.88032,0.14543,0.00000,0.03355,0.99637,-0.04673,0.0
20.69360,2.47782,0.12793,0.00000,0.03172,0.99650,-0.04380,0.0
20.69370,2.07532,-0.04707,0.00000,0.03245,0.99479,-0.04197,0.0
20.69380,1.79532,-0.02957,0.00000,0.03294,0.99589,-0.04111,0.0
20.69390,2.07532,0.12793,0.00000,0.03196,0.99625,-0.04026,0.0
20.69400,2.40782,0.26793,0.00000,0.03062,0.99686,-0.04294,0.0
20.69410,2.58282,0.25043,0.00000,0.03318,0.99735,-0.04612,0.0
20.69420,2.51282,0.11043,0.00000,0.03428,0.99613,-0.04392,0.0
20.69430,2.09282,0.11043,0.00000,0.03270,0.99467,-0.04380,0.0
20.69440,2.09282,0.32043,0.00000,0.03440,0.99796,-0.04221,0.0
20.69450,2.19782,0.21543,0.00000,0.03306,0.99625,-0.04002,0.0
20.69460,2.40782,0.16293,0.00000,0.03318,0.99503,-0.04160,0.0
20.69470,2.84532,0.12793,0.00000,0.03221,0.99930,-0.04050,0.0
20.69480,3.07282,-0.06457,0.00000,0.03196,0.99576,-0.04258,0.0
20.69490,2.88032,0.00543,0.00000,0.03270,0.99528,-0.04343,0.0
20.69500,2.58282,0.39043,0.00000,0.03599,0.99552,-0.04087,0.0
20.69510,2.65282,-0.02957,0.00000,0.03233,0.99686,-0.04209,0.0
20.69520,2.35532,0.40793,0.00000,0.03282,0.99723,-0.04404,0.0
20.69530,2.58282,0.16293,0.00000,0.03135,0.99955,-0.04185,0.0
20.69540,2.81032,0.05793,0.00000,0.03331,0.99625,-0.04221,0.0
20.69550,2.77532,0.09293,0.00000,0.03245,0.99686,-0.04294,0.0
20.69560,2.56532,0.21543,0.00000,0.03221,0.99625,-0.04282,0.0
20.69570,2.74032,0.21543,0.00000,0.03294,0.99796,-0.04465,0.0
20.69580,2.68782,-0.01207,0.00000,0.03282,0.99601,-0.04355,0.0
20.69590,2.88032,0.05793,0.00000,0.03196,0.99589,-0.03965,0.0
20.69600,3.09032,0.04043,0.00000,0.03489,0.99637,-0.04514,0.0
20.69610,2.74032,0.12793,0.00000,0.03233,0.99503,-0.04441,0.0
20.69620,2.47782,0.07543,0.00000,0.03135,0.99796,-0.04392,0.0
20.69630,2.74032,0.02293,0.00000,0.03257,0.99467,-0.04368,0.0
20.69640,3.02032,0.21543,0.00000,0.03123,0.99759,-0.04355,0.0
20.69650,2.98532,-0.02957,0.00000,0.03184,0.99820,-0.04270,0.0
20.69660,2.77532,0.11043,0.00000,0.03318,0.99735,-0.04294,0.0
20.69670,2.82782,0.11043,0.00000,0.03294,0.99686,-0.04197,0.0
20.69680,3.16032,0.23293,0.00000,0.03294,0.99930,-0.04294,0.0
20.69690,3.10782,0.19793,0.00000,0.03135,0.99503,-0.04319,0.0
20.69700,3.16032,-0.08207,0.00000,0.03318,0.99686,-0.04246,0.0
20.69710,2.77532,0.25043,0.00000,0.03453,0.99735,-0.04294,0.0
20.69720,2.91532,-0.01207,0.00000,0.03453,0.99564,-0.04416,0.0
20.69730,2.84532,0.09293,0.00000,0.03135,0.99772,-0.04392,0.0
20.69740,2.72282,0.18043,0.00000,0.03233,0.99637,-0.04526,0.0
20.69750,2.63532,0.14543,0.00000,0.03428,0.99930,-0.04465,0.0
20.69760,2.28532,0.18043,0.00000,0.03001,0.99467,-0.03977,0.0
20.69770,2.51282,0.02293,0.00000,0.03074,0.99674,-0.04319,0.0
20.69780,2.56532,0.26793,0.00000,0.03355,0.99552,-0.04172,0.0
20.69790,2.44282,0.23293,0.00000,0.03367,0.99528,-0.04355,0.0
20.69800,2.68782,0.12793,0.00000,0.03453,0.99723,-0.04343,0.0
20.69810,2.58282,0.28543,0.00000,0.03331,0.99637,-0.04209,0.0
20.69820,2.86282,0.05793,0.00000,0.03184,0.99491,-0.04185,0.0
20.69830,2.89782,0.11043,0.00000,0.03623,0.99625,-0.04416,0.0
20.69840,3.05532,0.23293,0.00000,0.03160,0.99393,-0.04490,0.0
20.69850,2.61782,0.02293,0.00000,0.03343,0.99552,-0.04307,0.0
20.69860,2.61782,0.14543,0.00000,0.03184,0.99479,-0.04124,0.0
20.69870,2.84532,0.11043,0.00000,0.03428,0.99723,-0.04185,0.0
20.69880,3.09032,0.26793,0.00000,0.03270,0.99637,-0.04368,0.0
20.69890,3.12532,0.25043,0.00000,0.03257,0.99674,-0.04294,0.0
20.69900,2.75782,0.26793,0.00000,0.03392,0.99674,-0.04355,0.0
20.69910,2.75782,0.16293,0.00000,0.03392,0.99698,-0.04197,0.0
20.69920,2.40782,0.16293,0.00000,0.03489,0.99601,-0.04148,0.0
20.69930,2.84532,-0.11707,0.00000,0.03160,0.99698,-0.04380,0.0
20.69940,2.70532,0.11043,0.00000,0.03331,0.99564,-0.04282,0.0
20.69950,2.56532,0.16293,0.00000,0.03343,0.99698,-0.04416,0.0
20.69960,2.33782,0.11043,0.00000,0.03392,0.99711,-0.04416,0.0
20.69970,2.56532,0.35543,0.00000,0.03343,0.99406,-0.04294,0.0
20.69980,2.30282,-0.01207,0.00000,0.03294,0.99637,-0.04258,0.0
20.69990,2.23282,0.44293,0.00000,0.03343,0.99711,-0.04050,0.0
20.70000,2.67032,0.16293,0.00000,0.03245,0.99528,-0.04111,0.0
20.70010,2.93282,-0.09957,0.00000,0.03318,0.99528,-0.04063,0.0
20.70020,3.14282,0.23293,0.00000,0.03318,0.99515,-0.03928,0.0
20.70030,3.35282,-0.01207,0.00000,0.03331,0.99552,-0.04355,0.0
20.70040,2.82782,0.00543,0.00000,0.03184,0.99564,-0.04331,0.0
20.70050,2.49532,0.02293,0.00000,0.03575,0.99576,-0.04087,0.0
20.70060,2.14532,0.19793,0.00000,0.03270,0.99674,-0.04124,0.0
20.70070,2.70532,0.12793,0.00000,0.03270,0.99503,-0.04099,0.0
20.70080,2.96782,0.32043,0.00000,0.03306,0.99650,-0.04136,0.0
20.70090,3.14282,0.00543,0.00000,0.03660,0.99393,-0.04172,0.0
20.70100,2.93282,-0.04707,0.00000,0.03233,0.99454,-0.04514,0.0
20.70110,2.82782,0.18043,0.00000,0.03416,0.99564,-0.04331,0.0
20.70120,2.82782,0.11043,0.00000,0.03209,0.99613,-0.04075,0.0
20.70130,2.63532,-0.04707,0.00000,0.03184,0.99833,-0.04124,0.0
20.70140,2.95032,0.16293,0.00000,0.03196,0.99528,-0.03965,0.0
20.70150,2.72282,0.07543,0.00000,0.03245,0.99601,-0.04453,0.0
20.70160,2.68782,0.33793,0.00000,0.03416,0.99381,-0.04270,0.0
20.70170,2.88032,-0.13457,0.00000,0.03440,0.99564,-0.04441,0.0
20.70180,2.70532,0.05793,0.00000,0.03355,0.99881,-0.04246,0.0
20.70190,2.40782,0.23293,0.00000,0.03221,0.99674,-0.04124,0.0
20.70200,2.42532,0.26793,0.00000,0.03184,0.99735,-0.04221,0.0
20.70210,2.54782,0.21543,0.00000,0.03331,0.99796,-0.04111,0.0
20.70220,2.84532,0.09293,0.00000,0.03135,0.99528,-0.04233,0.0
20.70230,2.61782,0.09293,0.00000,0.03148,0.99772,-0.04270,0.0
20.70240,2.79282,-0.09957,0.00000,0.03245,0.99528,-0.04221,0.0
20.70250,2.49532,0.07543,0.00000,0.03013,0.99515,-0.04209,0.0
20.70260,2.51282,0.21543,0.00000,0.03306,0.99528,-0.04197,0.0
20.70270,2.82782,-0.15207,0.00000,0.03233,0.99625,-0.04209,0.0
20.70280,3.03782,0.33793,0.00000,0.03196,0.99918,-0.04392,0.0
20.70290,3.05532,0.05793,0.00000,0.03135,0.99674,-0.04368,0.0
20.70300,2.93282,0.05793,0.00000,0.03270,0.99759,-0.04392,0.0
20.70310,3.02032,0.23293,0.00000,0.03428,0.99820,-0.04307,0.0
20.70320,3.16032,0.28543,0.00000,0.03318,0.99747,-0.04099,0.0
20.70330,2.82782,0.21543,0.00000,0.03392,0.99686,-0.04136,0.0
20.70340,3.02032,-0.06457,0.00000,0.03343,0.99528,-0.04002,0.0
20.70350,2.95032,0.16293,0.00000,0.03270,0.99576,-0.04038,0.0
20.70360,3.03782,0.05793,0.00000,0.03245,0.99528,-0.04233,0.0
20.70370,3.00282,0.09293,0.00000,0.03416,0.99650,-0.04416,0.0
20.70380,2.98532,0.18043,0.00000,0.03318,0.99686,-0.04258,0.0
20.70390,3.03782,0.23293,0.00000,0.03343,0.99857,-0.04087,0.0
20.70400,3.44032,0.30293,0.00000,0.03404,0.99540,-0.04246,0.0
20.70410,3.45782,0.25043,0.00000,0.03257,0.99796,-0.04221,0.0
20.70420,3.31782,-0.02957,0.00000,0.03209,0.99589,-0.04258,0.0
20.70430,2.89782,0.26793,0.00000,0.03355,0.99247,-0.04294,0.0
20.70440,2.88032,0.07543,0.00000,0.03489,0.99796,-0.04270,0.0
20.70450,2.88032,-0.09957,0.00000,0.03379,0.99589,-0.04599,0.0
20.70460,2.86282,0.07543,0.00000,0.03196,0.99393,-0.04331,0.0
20.70470,3.00282,0.26793,0.00000,0.03379,0.99662,-0.04392,0.0
20.70480,3.00282,-0.08207,0.00000,0.03379,0.99625,-0.04331,0.0
20.70490,2.75782,0.12793,0.00000,0.03209,0.99601,-0.04319,0.0
20.70500,2.68782,0.02293,0.00000,0.03233,0.99418,-0.04429,0.0
20.70510,2.49532,0.21543,0.00000,0.03245,0.99601,-0.04416,0.0
20.70520,2.47782,0.09293,0.00000,0.03172,0.99735,-0.04514,0.0
20.70530,2.61782,0.30293,0.00000,0.03318,0.99491,-0.04294,0.0
20.70540,2.32032,0.12793,0.00000,0.03001,0.99381,-0.04551,0.0
20.70550,2.44282,0.04043,0.00000,0.03453,0.99674,-0.04258,0.0
20.70560,2.19782,0.19793,0.00000,0.03428,0.99528,-0.04416,0.0
20.70570,2.26782,0.12793,0.00000,0.03282,0.99503,-0.04294,0.0
20.70580,2.40782,0.16293,0.00000,0.03294,0.99625,-0.04111,0.0
20.70590,2.30282,0.07543,0.00000,0.03270,0.99564,-0.04429,0.0
20.70600,2.37282,0.18043,0.00000,0.03416,0.99503,-0.04343,0.0
20.70610,2.33782,0.19793,0.00000,0.03270,0.99357,-0.04477,0.0
20.70620,2.53032,0.40793,0.00000,0.03172,0.99637,-0.04331,0.0
20.70630,2.67032,0.26793,0.00000,0.03318,0.99515,-0.04319,0.0
20.70640,2.49532,0.14543,0.00000,0.03404,0.99698,-0.04233,0.0
20.70650,2.58282,0.12793,0.00000,0.03270,0.99540,-0.04490,0.0
20.70660,2.33782,0.28543,0.00000,0.03440,0.99576,-0.04172,0.0
20.70670,2.46032,-0.06457,0.00000,0.03318,0.99589,-0.04465,0.0
20.70680,2.74032,0.16293,0.00000,0.03392,0.99454,-0.04270,0.0
20.70690,2.63532,0.09293,0.00000,0.03184,0.99552,-0.04246,0.0
20.70700,2.77532,0.18043,0.00000,0.03331,0.99650,-0.04087,0.0
20.70710,2.75782,0.00543,0.00000,0.03684,0.99698,-0.04197,0.0
20.70720,2.65282,0.23293,0.00000,0.03501,0.99576,-0.04343,0.0
20.70730,2.44282,0.21543,0.00000,0.03135,0.99625,-0.04258,0.0
20.70740,2.70532,0.09293,0.00000,0.03379,0.99613,-0.04258,0.0
20.70750,2.47782,0.25043,0.00000,0.03026,0.99662,-0.04197,0.0
20.70760,2.51282,0.33793,0.00000,0.03416,0.99625,-0.04172,0.0
20.70770,2.60032,0.14543,0.00000,0.03501,0.99784,-0.04124,0.0
20.70780,2.79282,0.19793,0.00000,0.03501,0.99650,-0.04246,0.0
20.70790,2.79282,0.14543,0.00000,0.03355,0.99698,-0.04221,0.0
20.70800,2.79282,0.02293,0.00000,0.03379,0.99820,-0.04099,0.0
20.70810,2.53032,0.32043,0.00000,0.03172,0.99320,-0.04026,0.0
20.70820,2.77532,0.00543,0.00000,0.03501,0.99515,-0.04233,0.0
20.70830,2.63532,0.25043,0.00000,0.03404,0.99686,-0.04002,0.0
20.70840,2.95032,0.25043,0.00000,0.03318,0.99637,-0.03892,0.0
20.70850,3.14282,0.12793,0.00000,0.03245,0.99637,-0.03928,0.0
20.70860,3.44032,0.12793,0.00000,0.03148,0.99796,-0.04294,0.0
20.70870,3.61532,0.16293,0.00000,0.03221,0.99735,-0.04233,0.0
20.70880,3.17782,0.07543,0.00000,0.03306,0.99637,-0.04136,0.0
20.70890,3.09032,0.07543,0.00000,0.03404,0.99564,-0.04343,0.0
20.70900,3.03782,-0.13457,0.00000,0.03294,0.99381,-0.04185,0.0
20.70910,3.00282,0.40793,0.00000,0.03355,0.99698,-0.04197,0.0
20.70920,3.17782,-0.01207,0.00000,0.03160,0.99515,-0.04319,0.0
20.70930,3.14282,0.04043,0.00000,0.03318,0.99625,-0.04148,0.0
20.70940,2.93282,0.21543,0.00000,0.03245,0.99650,-0.04380,0.0
20.70950,3.17782,0.02293,0.00000,0.03306,0.99259,-0.04258,0.0
20.70960,2.96782,0.16293,0.00000,0.03282,0.99564,-0.04429,0.0
20.70970,3.19532,0.44293,0.00000,0.03331,0.99430,-0.04136,0.0
20.70980,3.09032,0.33793,0.00000,0.03526,0.99442,-0.04380,0.0
20.70990,2.60032,0.11043,0.00000,0.03440,0.99711,-0.04343,0.0
20.71000,2.53032,0.35543,0.00000,0.03453,0.99564,-0.04148,0.0
20.71010,2.75782,0.32043,0.00000,0.03233,0.99735,-0.04282,0.0
20.71020,2.86282,0.14543,0.00000,0.03331,0.99467,-0.04197,0.0
20.71030,2.61782,0.18043,0.00000,0.03270,0.99650,-0.04197,0.0
20.71040,2.25032,0.25043,0.00000,0.03221,0.99430,-0.04160,0.0
20.71050,2.19782,0.11043,0.00000,0.03172,0.99479,-0.04087,0.0
20.71060,2.19782,0.12793,0.00000,0.03099,0.99637,-0.04246,0.0
20.71070,2.39032,0.19793,0.00000,0.03074,0.99564,-0.04111,0.0
20.71080,2.09282,0.18043,0.00000,0.03306,0.99576,-0.04294,0.0
20.71090,2.04032,-0.01207,0.00000,0.03270,0.99674,-0.04148,0.0
20.71100,1.90032,0.16293,0.00000,0.03306,0.99625,-0.04075,0.0
20.71110,1.98782,0.12793,0.00000,0.03416,0.99662,-0.04160,0.0
20.71120,1.98782,0.09293,0.00000,0.03257,0.99515,-0.03904,0.0
20.71130,2.32032,0.19793,0.00000,0.03306,0.99674,-0.04172,0.0
20.71140,2.65282,0.04043,0.00000,0.03209,0.99698,-0.03941,0.0
20.71150,2.54782,0.25043,0.00000,0.03331,0.99564,-0.04002,0.0
20.71160,2.61782,0.02293,0.00000,0.03282,0.99430,-0.03953,0.0
20.71170,2.58282,-0.20457,0.00000,0.03294,0.99735,-0.04185,0.0
20.71180,2.42532,0.32043,0.00000,0.03379,0.99698,-0.03953,0.0
20.71190,2.67032,-0.04707,0.00000,0.03416,0.99564,-0.04160,0.0
20.71200,2.56532,-0.01207,0.00000,0.03062,0.99759,-0.04246,0.0
20.71210,2.84532,0.11043,0.00000,0.03343,0.99528,-0.04087,0.0
20.71220,2.42532,0.16293,0.00000,0.03318,0.99881,-0.04160,0.0
20.71230,2.54782,0.12793,0.00000,0.03282,0.99662,-0.03916,0.0
20.71240,2.70532,-0.01207,0.00000,0.03306,0.99540,-0.03867,0.0
20.71250,2.89782,0.16293,0.00000,0.03428,0.99759,-0.03916,0.0
20.71260,3.09032,0.26793,0.00000,0.03184,0.99698,-0.03965,0.0
20.71270,2.95032,0.21543,0.00000,0.03184,0.99833,-0.04124,0.0
20.71280,3.02032,-0.02957,0.00000,0.03233,0.99576,-0.04185,0.0
20.71290,3.00282,0.14543,0.00000,0.03209,0.99406,-0.04063,0.0
20.71300,3.26532,0.14543,0.00000,0.03245,0.99601,-0.03867,0.0
20.71310,3.59782,0.18043,0.00000,0.03074,0.99820,-0.04319,0.0
20.71320,3.44032,0.07543,0.00000,0.03123,0.99650,-0.04209,0.0
20.71330,3.51032,0.05793,0.00000,0.03209,0.99650,-0.03989,0.0
20.71340,3.59782,0.05793,0.00000,0.03013,0.99881,-0.04148,0.0
20.71350,3.68532,0.11043,0.00000,0.03196,0.99430,-0.04136,0.0
20.71360,3.31782,0.05793,0.00000,0.03404,0.99845,-0.04221,0.0
20.71370,3.38782,-0.09957,0.00000,0.03331,0.99515,-0.03880,0.0
20.71380,3.09032,0.00543,0.00000,0.03392,0.99613,-0.03892,0.0
20.71390,3.09032,0.19793,0.00000,0.03331,0.99540,-0.04258,0.0
20.71400,3.24782,0.00543,0.00000,0.03282,0.99686,-0.04002,0.0
20.71410,3.28282,0.07543,0.00000,0.03196,0.99735,-0.04209,0.0
20.71420,3.21282,0.23293,0.00000,0.03355,0.99515,-0.04258,0.0
20.71430,2.89782,0.23293,0.00000,0.03245,0.99528,-0.04294,0.0
20.71440,3.00282,-0.02957,0.00000,0.03087,0.99698,-0.04319,0.0
20.71450,2.93282,-0.04707,0.00000,0.03306,0.99894,-0.04307,0.0
20.71460,2.86282,-0.04707,0.00000,0.03331,0.99674,-0.04221,0.0
20.71470,3.02032,0.02293,0.00000,0.03331,0.99686,-0.04270,0.0
20.71480,2.61782,0.11043,0.00000,0.03135,0.99601,-0.04111,0.0
20.71490,2.63532,0.16293,0.00000,0.03196,0.99735,-0.04453,0.0
20.71500,2.77532,0.28543,0.00000,0.03514,0.99772,-0.04160,0.0
20.71510,2.81032,0.16293,0.00000,0.03367,0.99662,-0.04197,0.0
20.71520,2.91532,0.21543,0.00000,0.03379,0.99686,-0.04319,0.0
20.71530,2.61782,0.16293,0.00000,0.03306,0.99381,-0.04172,0.0
20.71540,2.42532,0.14543,0.00000,0.03367,0.99808,-0.04185,0.0
20.71550,2.49532,-0.01207,0.00000,0.03294,0.99723,-0.04258,0.0
20.71560,2.74032,0.02293,0.00000,0.02965,0.99515,-0.04209,0.0
20.71570,2.51282,0.23293,0.00000,0.03453,0.99686,-0.04490,0.0
20.71580,2.58282,0.07543,0.00000,0.03257,0.99845,-0.04307,0.0
20.71590,2.32032,0.07543,0.00000,0.03196,0.99820,-0.04124,0.0
20.71600,2.14532,0.00543,0.00000,0.03343,0.99747,-0.04392,0.0
20.71610,1.90032,0.25043,0.00000,0.03172,0.99418,-0.04453,0.0
20.71620,1.95282,-0.15207,0.00000,0.03245,0.99711,-0.04368,0.0
20.71630,2.30282,0.30293,0.00000,0.03209,0.99491,-0.04380,0.0
20.71640,2.40782,0.44293,0.00000,0.03318,0.99845,-0.04221,0.0
20.71640,2.40782,0.44293,0.00000,0.03318,0.99845,-0.04221,0.0
20.78120,3.14282,0.18043,0.00000,0.03331,0.99589,-0.06527,0.0
20.78130,3.21282,0.11043,0.00000,0.03026,0.99454,-0.06405,0.0
20.78140,2.74032,0.18043,0.00000,0.03294,0.99381,-0.06320,0.0
20.78150,2.49532,0.28543,0.00000,0.03001,0.99686,-0.06368,0.0
20.78160,2.65282,0.16293,0.00000,0.02928,0.99454,-0.06381,0.0
20.78170,2.96782,0.00543,0.00000,0.03172,0.99564,-0.06283,0.0
20.78180,3.03782,0.11043,0.00000,0.03111,0.99430,-0.06161,0.0
20.78190,2.98532,0.28543,0.00000,0.03257,0.99674,-0.06588,0.0
20.78200,2.72282,0.02293,0.00000,0.03062,0.99369,-0.06295,0.0
20.78210,2.93282,0.11043,0.00000,0.02916,0.99637,-0.06564,0.0
20.78220,2.68782,0.16293,0.00000,0.03001,0.99528,-0.06454,0.0
20.78230,2.42532,0.30293,0.00000,0.03160,0.99332,-0.06356,0.0
20.78240,2.84532,0.12793,0.00000,0.03282,0.99393,-0.06356,0.0
20.78250,2.67032,0.12793,0.00000,0.03087,0.99650,-0.06356,0.0
20.78260,2.86282,0.30293,0.00000,0.03087,0.99284,-0.06466,0.0
20.78270,2.86282,0.18043,0.00000,0.03062,0.99515,-0.06368,0.0
20.78280,2.77532,0.14543,0.00000,0.03196,0.99723,-0.06405,0.0
20.78290,2.53032,0.09293,0.00000,0.03026,0.99345,-0.06320,0.0
20.78300,2.68782,0.42543,0.00000,0.03160,0.99698,-0.06234,0.0
20.78310,2.88032,0.05793,0.00000,0.03087,0.99540,-0.06442,0.0
20.78320,2.98532,0.23293,0.00000,0.03135,0.99735,-0.06478,0.0
20.78330,2.74032,0.16293,0.00000,0.03306,0.99674,-0.06381,0.0
20.78340,2.68782,0.09293,0.00000,0.03270,0.99515,-0.06442,0.0
20.78350,2.89782,-0.06457,0.00000,0.03123,0.99393,-0.06295,0.0
20.78360,2.84532,0.21543,0.00000,0.03294,0.99625,-0.06234,0.0
20.78370,3.02032,-0.08207,0.00000,0.02952,0.99601,-0.06649,0.0
20.78380,2.88032,0.05793,0.00000,0.03062,0.99772,-0.06393,0.0
20.78390,2.72282,0.35543,0.00000,0.03111,0.99613,-0.06332,0.0
20.78400,2.72282,0.19793,0.00000,0.03062,0.99601,-0.06417,0.0
20.78410,2.81032,0.33793,0.00000,0.03050,0.99625,-0.06234,0.0
20.78420,2.79282,-0.01207,0.00000,0.03062,0.99308,-0.06368,0.0
20.78430,2.95032,0.14543,0.00000,0.03074,0.99406,-0.06442,0.0
20.78440,2.72282,0.07543,0.00000,0.03148,0.99454,-0.06393,0.0
20.78450,2.67032,0.25043,0.00000,0.03038,0.99223,-0.06307,0.0
20.78460,2.79282,-0.04707,0.00000,0.03099,0.99540,-0.06442,0.0
20.78470,2.67032,0.25043,0.00000,0.03245,0.99430,-0.06185,0.0
20.78480,2.79282,0.11043,0.00000,0.03013,0.99430,-0.06222,0.0
20.78490,2.84532,0.23293,0.00000,0.03379,0.99662,-0.06381,0.0
20.78500,2.67032,0.25043,0.00000,0.03355,0.99515,-0.06283,0.0
20.78510,2.47782,0.07543,0.00000,0.02989,0.99601,-0.06320,0.0
20.78520,2.54782,0.28543,0.00000,0.03135,0.99650,-0.06222,0.0
20.78530,2.95032,0.16293,0.00000,0.03050,0.99601,-0.06429,0.0
20.78540,3.21282,0.09293,0.00000,0.03013,0.99345,-0.06405,0.0
20.78550,2.77532,0.26793,0.00000,0.03209,0.99345,-0.06600,0.0
20.78560,2.42532,0.11043,0.00000,0.03221,0.99418,-0.06466,0.0
20.78570,2.74032,0.14543,0.00000,0.03148,0.99613,-0.06234,0.0
20.78580,2.96782,0.16293,0.00000,0.03172,0.99552,-0.06222,0.0
20.78590,2.89782,0.07543,0.00000,0.02989,0.99564,-0.06612,0.0
20.78600,2.84532,-0.11707,0.00000,0.03355,0.99430,-0.06466,0.0
20.78610,2.68782,0.16293,0.00000,0.03270,0.99467,-0.06710,0.0
20.78620,2.65282,0.05793,0.00000,0.03160,0.99284,-0.06320,0.0
20.78630,2.93282,0.05793,0.00000,0.03282,0.99564,-0.06259,0.0
20.78640,2.98532,0.19793,0.00000,0.03123,0.99540,-0.06344,0.0
20.78650,3.05532,0.16293,0.00000,0.03501,0.99613,-0.06466,0.0
20.78660,2.63532,0.21543,0.00000,0.03013,0.99686,-0.06356,0.0
20.78670,2.68782,0.16293,0.00000,0.03038,0.99540,-0.06442,0.0
20.78680,2.88032,0.18043,0.00000,0.03111,0.99284,-0.06344,0.0
20.78690,2.70532,-0.13457,0.00000,0.03038,0.99662,-0.06490,0.0
20.78700,3.03782,0.11043,0.00000,0.03221,0.99271,-0.06588,0.0
20.78710,3.37032,0.19793,0.00000,0.03245,0.99235,-0.06576,0.0
20.78720,2.47782,0.11043,0.00000,0.03343,0.99381,-0.06490,0.0
20.78730,1.91782,0.02293,0.00000,0.03221,0.99479,-0.06442,0.0
20.78740,2.39032,-0.16957,0.00000,0.03074,0.99345,-0.05880,0.0
20.78750,3.61532,0.32043,0.00000,0.02708,0.99515,-0.06198,0.0
20.78760,3.89532,0.25043,0.00000,0.03050,0.99393,-0.06832,0.0
20.78770,2.65282,-0.04707,0.00000,0.03306,0.99259,-0.06942,0.0
20.78780,1.95282,-0.18707,0.00000,0.03062,0.99430,-0.06478,0.0
20.78790,2.35532,-0.01207,0.00000,0.03172,0.99479,-0.06295,0.0
20.78800,3.37032,0.11043,0.00000,0.03209,0.99625,-0.06234,0.0
20.78810,3.49282,0.18043,0.00000,0.03257,0.99601,-0.06429,0.0
20.78820,2.79282,0.16293,0.00000,0.03294,0.99686,-0.06625,0.0
20.78830,2.32032,0.12793,0.00000,0.03270,0.99747,-0.06588,0.0
20.78840,2.49532,0.33793,0.00000,0.03050,0.99418,-0.06246,0.0
20.78850,3.00282,0.09293,0.00000,0.03196,0.99515,-0.06246,0.0
20.78860,3.21282,0.16293,0.00000,0.03209,0.99528,-0.06429,0.0
20.78870,2.67032,0.37293,0.00000,0.02952,0.99515,-0.06503,0.0
20.78880,2.30282,-0.16957,0.00000,0.03306,0.99430,-0.06356,0.0
20.78890,2.53032,0.07543,0.00000,0.03074,0.99589,-0.06478,0.0
20.78900,3.05532,0.14543,0.00000,0.03062,0.99357,-0.06137,0.0
20.78910,3.42282,0.33793,0.00000,0.03123,0.99552,-0.06478,0.0
20.78920,3.26532,0.44293,0.00000,0.03148,0.99515,-0.06625,0.0
20.78930,2.25032,0.07543,0.00000,0.02928,0.99381,-0.06625,0.0
20.78940,2.00532,0.09293,0.00000,0.03416,0.99442,-0.06246,0.0
20.78950,2.79282,0.35543,0.00000,0.03245,0.99784,-0.06271,0.0
20.78960,3.54532,0.51293,0.00000,0.03294,0.99418,-0.06527,0.0
20.78970,3.05532,0.37293,0.00000,0.03233,0.99503,-0.06490,0.0
20.78980,2.35532,0.18043,0.00000,0.02843,0.99406,-0.06564,0.0
20.78990,2.00532,0.05793,0.00000,0.03209,0.99308,-0.06222,0.0
20.79000,2.79282,0.14543,0.00000,0.03209,0.99515,-0.06100,0.0
20.79010,3.30032,0.30293,0.00000,0.03282,0.99735,-0.06332,0.0
20.79020,3.12532,0.02293,0.00000,0.03282,0.99540,-0.06551,0.0
20.79030,2.46032,0.11043,0.00000,0.03111,0.99369,-0.06551,0.0
20.79040,2.49532,-0.20457,0.00000,0.03135,0.99393,-0.06722,0.0
20.79050,2.93282,0.19793,0.00000,0.02904,0.99552,-0.06368,0.0
20.79060,2.89782,0.04043,0.00000,0.03135,0.99540,-0.06490,0.0
20.79070,2.93282,0.33793,0.00000,0.03172,0.99515,-0.06832,0.0
20.79080,2.82782,0.16293,0.00000,0.02952,0.99369,-0.06673,0.0
20.79090,2.46032,0.18043,0.00000,0.03050,0.99564,-0.06454,0.0
20.79100,2.63532,0.12793,0.00000,0.02952,0.99503,-0.06442,0.0
20.79110,3.19532,0.07543,0.00000,0.03099,0.99381,-0.06429,0.0
20.79120,2.93282,0.23293,0.00000,0.03013,0.99552,-0.06429,0.0
20.79130,2.70532,0.05793,0.00000,0.03404,0.99552,-0.06405,0.0
20.79140,2.42532,0.39043,0.00000,0.03062,0.99406,-0.06332,0.0
20.79150,2.61782,0.28543,0.00000,0.03184,0.99332,-0.06429,0.0
20.79160,3.03782,0.44293,0.00000,0.03111,0.99625,-0.06539,0.0
20.79170,2.96782,0.30293,0.00000,0.03160,0.99564,-0.06368,0.0
20.79180,2.84532,0.04043,0.00000,0.03282,0.99540,-0.06625,0.0
20.79190,2.49532,-0.02957,0.00000,0.03148,0.99576,-0.06527,0.0
20.79200,2.53032,-0.09957,0.00000,0.03087,0.99576,-0.06368,0.0
20.79210,2.63532,0.16293,0.00000,0.03062,0.99454,-0.06466,0.0
20.79220,2.91532,0.35543,0.00000,0.03184,0.99198,-0.06295,0.0
20.79230,3.14282,0.04043,0.00000,0.03050,0.99625,-0.06698,0.0
20.79240,3.02032,0.25043,0.00000,0.03196,0.99528,-0.06869,0.0
20.79250,2.74032,0.16293,0.00000,0.03050,0.99406,-0.06917,0.0
20.79260,2.51282,-0.15207,0.00000,0.03001,0.99576,-0.06539,0.0
20.79270,2.53032,0.02293,0.00000,0.03050,0.99637,-0.06320,0.0
20.79280,3.33532,0.04043,0.00000,0.03038,0.99418,-0.06332,0.0
20.79290,2.98532,0.33793,0.00000,0.03148,0.99454,-0.06564,0.0
20.79300,2.91532,0.21543,0.00000,0.03209,0.99479,-0.06551,0.0
20.79310,2.39032,0.16293,0.00000,0.03392,0.99650,-0.06710,0.0
20.79320,2.60032,-0.09957,0.00000,0.03074,0.99467,-0.06246,0.0
20.79330,2.98532,0.25043,0.00000,0.03221,0.99662,-0.06515,0.0
20.79340,3.00282,0.40793,0.00000,0.03270,0.99210,-0.06527,0.0
20.79350,2.79282,0.18043,0.00000,0.03282,0.99418,-0.06320,0.0
20.79360,2.67032,-0.16957,0.00000,0.03001,0.99759,-0.06381,0.0
20.79370,2.56532,0.18043,0.00000,0.03392,0.99515,-0.06442,0.0
20.79380,3.07282,0.28543,0.00000,0.03209,0.99454,-0.06320,0.0
20.79390,3.05532,-0.01207,0.00000,0.03233,0.99381,-0.06466,0.0
20.79400,2.75782,0.07543,0.00000,0.03050,0.99418,-0.06625,0.0
20.79410,2.35532,0.00543,0.00000,0.03196,0.99479,-0.06344,0.0
20.79420,2.44282,0.16293,0.00000,0.03172,0.99430,-0.06185,0.0
20.79430,3.14282,0.23293,0.00000,0.03221,0.99430,-0.06417,0.0
20.79440,3.12532,0.28543,0.00000,0.03062,0.99479,-0.06612,0.0
20.79450,2.60032,0.14543,0.00000,0.03099,0.99747,-0.06686,0.0
20.79460,2.39032,-0.01207,0.00000,0.03099,0.99637,-0.06625,0.0
20.79470,2.51282,0.18043,0.00000,0.03294,0.99149,-0.06454,0.0
20.79480,2.77532,0.04043,0.00000,0.03123,0.99332,-0.06466,0.0
20.79490,3.24782,-0.04707,0.00000,0.03172,0.99430,-0.06417,0.0
20.79500,2.82782,0.02293,0.00000,0.03074,0.99430,-0.06490,0.0
20.79510,2.91532,0.05793,0.00000,0.03196,0.99442,-0.06747,0.0
20.79520,2.68782,-0.08207,0.00000,0.03367,0.99564,-0.06710,0.0
20.79530,2.74032,-0.04707,0.00000,0.03026,0.99454,-0.06417,0.0
20.79540,2.79282,0.07543,0.00000,0.03013,0.99491,-0.06295,0.0
20.79550,2.84532,0.14543,0.00000,0.03111,0.99491,-0.06466,0.0
20.79560,2.84532,0.33793,0.00000,0.02928,0.99454,-0.06466,0.0
20.79570,2.61782,0.09293,0.00000,0.03294,0.99503,-0.06527,0.0
20.79580,2.91532,0.30293,0.00000,0.03135,0.99308,-0.06442,0.0
20.79590,2.77532,0.18043,0.00000,0.03209,0.99430,-0.06454,0.0
20.79600,2.86282,0.12793,0.00000,0.03209,0.99296,-0.06393,0.0
20.79610,2.72282,0.16293,0.00000,0.03026,0.99430,-0.06320,0.0
20.79620,2.65282,0.49543,0.00000,0.03257,0.99406,-0.06478,0.0
20.79630,2.91532,0.23293,0.00000,0.02928,0.99393,-0.06539,0.0
20.79640,2.75782,0.33793,0.00000,0.03331,0.99357,-0.06649,0.0
20.79650,2.72282,0.18043,0.00000,0.03050,0.99479,-0.06759,0.0
20.79660,2.58282,0.05793,0.00000,0.03123,0.99381,-0.06783,0.0
20.79670,2.67032,0.21543,0.00000,0.03026,0.99454,-0.06564,0.0
20.79680,2.96782,-0.01207,0.00000,0.02867,0.99540,-0.06393,0.0
20.79690,3.02032,0.09293,0.00000,0.03099,0.99564,-0.06478,0.0
20.79700,2.58282,0.23293,0.00000,0.03209,0.99515,-0.06429,0.0
20.79710,2.61782,0.32043,0.00000,0.03221,0.99674,-0.06600,0.0
20.79720,2.77532,0.19793,0.00000,0.03111,0.99332,-0.06503,0.0
20.79730,3.02032,0.28543,0.00000,0.03306,0.99552,-0.06612,0.0
20.79740,2.75782,0.16293,0.00000,0.03160,0.99576,-0.06503,0.0
20.79750,2.33782,0.07543,0.00000,0.03209,0.99454,-0.06466,0.0
20.79760,2.46032,0.35543,0.00000,0.03099,0.99540,-0.06661,0.0
20.79770,3.17782,0.11043,0.00000,0.03355,0.99393,-0.06515,0.0
20.79780,3.17782,0.04043,0.00000,0.03233,0.99747,-0.06698,0.0
20.79790,2.95032,0.02293,0.00000,0.03172,0.99418,-0.06503,0.0
20.79800,2.33782,0.18043,0.00000,0.03038,0.99491,-0.06551,0.0
20.79810,2.42532,0.18043,0.00000,0.03160,0.99515,-0.06625,0.0
20.79820,2.60032,0.30293,0.00000,0.03209,0.99479,-0.06332,0.0
20.79830,3.09032,0.39043,0.00000,0.03148,0.99528,-0.06637,0.0
20.79840,2.91532,0.14543,0.00000,0.03074,0.99650,-0.06576,0.0
20.79850,2.75782,0.05793,0.00000,0.03282,0.99284,-0.06527,0.0
20.79860,2.70532,-0.06457,0.00000,0.02952,0.99393,-0.06368,0.0
20.79870,2.53032,0.02293,0.00000,0.03233,0.99552,-0.06283,0.0
20.79880,2.77532,0.18043,0.00000,0.03196,0.99393,-0.06429,0.0
20.79890,2.68782,0.30293,0.00000,0.03184,0.99430,-0.06539,0.0
20.79900,2.86282,0.04043,0.00000,0.02989,0.99589,-0.06588,0.0
20.79910,2.54782,0.07543,0.00000,0.03087,0.99491,-0.06710,0.0
20.79920,2.67032,0.11043,0.00000,0.03099,0.99515,-0.06551,0.0
20.79930,2.96782,0.11043,0.00000,0.02806,0.99162,-0.06515,0.0
20.79940,2.89782,0.11043,0.00000,0.03209,0.99406,-0.06527,0.0
20.79950,2.47782,0.33793,0.00000,0.03294,0.99662,-0.06564,0.0
20.79960,2.49532,0.37293,0.00000,0.03062,0.99369,-0.06466,0.0
20.79970,2.60032,0.04043,0.00000,0.03135,0.99808,-0.06234,0.0
20.79980,3.33532,0.19793,0.00000,0.03038,0.99430,-0.06600,0.0
20.79990,3.03782,0.04043,0.00000,0.03123,0.99698,-0.06490,0.0
20.80000,2.70532,-0.11707,0.00000,0.03160,0.99735,-0.06917,0.0
20.80010,2.70532,0.21543,0.00000,0.03074,0.99393,-0.06759,0.0
20.80020,2.75782,-0.02957,0.00000,0.03245,0.99589,-0.06551,0.0
20.80030,2.67032,-0.01207,0.00000,0.03404,0.99515,-0.06417,0.0
20.80040,2.72282,0.19793,0.00000,0.02843,0.99589,-0.06686,0.0
20.80050,2.68782,0.18043,0.00000,0.03331,0.99406,-0.06539,0.0
20.80060,2.96782,0.40793,0.00000,0.03257,0.99259,-0.06503,0.0
20.80070,3.07282,0.12793,0.00000,0.03282,0.99406,-0.06600,0.0
20.80080,2.65282,0.49543,0.00000,0.03270,0.99345,-0.06442,0.0
20.80090,2.65282,0.26793,0.00000,0.03001,0.99503,-0.06734,0.0
20.80100,2.49532,0.11043,0.00000,0.02977,0.99625,-0.06429,0.0
20.80110,2.81032,0.26793,0.00000,0.02928,0.99332,-0.06283,0.0
20.80120,3.03782,0.09293,0.00000,0.03013,0.99393,-0.06612,0.0
20.80130,2.86282,0.33793,0.00000,0.03160,0.99369,-0.06673,0.0
20.80140,2.74032,-0.13457,0.00000,0.03294,0.99601,-0.06722,0.0
20.80150,2.60032,0.19793,0.00000,0.03172,0.99503,-0.06417,0.0
20.80160,2.60032,0.19793,0.00000,0.03306,0.99674,-0.06454,0.0
20.80170,2.61782,0.14543,0.00000,0.03196,0.99467,-0.06515,0.0
20.80180,2.84532,0.25043,0.00000,0.03013,0.99528,-0.06551,0.0
20.80190,3.21282,0.47793,0.00000,0.03233,0.99235,-0.06600,0.0
20.80200,2.54782,0.21543,0.00000,0.03160,0.99613,-0.06673,0.0
20.80210,2.67032,0.16293,0.00000,0.03026,0.99564,-0.06771,0.0
20.80220,2.68782,0.19793,0.00000,0.03013,0.99589,-0.06490,0.0
20.80230,2.74032,0.33793,0.00000,0.02952,0.99491,-0.06625,0.0
20.80240,2.54782,0.12793,0.00000,0.02989,0.99442,-0.06466,0.0
20.80250,2.44282,0.02293,0.00000,0.03209,0.99540,-0.06173,0.0
20.80260,2.91532,0.35543,0.00000,0.03135,0.99442,-0.06222,0.0
20.80270,3.26532,0.18043,0.00000,0.03062,0.99308,-0.06612,0.0
20.80280,2.75782,0.33793,0.00000,0.03416,0.99637,-0.06625,0.0
20.80290,2.35532,0.00543,0.00000,0.03013,0.99491,-0.06625,0.0
20.80300,2.23282,-0.13457,0.00000,0.03062,0.99723,-0.06478,0.0
20.80310,2.72282,0.23293,0.00000,0.03331,0.99271,-0.06466,0.0
20.80320,3.28282,0.30293,0.00000,0.03148,0.99454,-0.06673,0.0
20.80330,3.09032,0.19793,0.00000,0.03209,0.99552,-0.06661,0.0
20.80340,2.47782,0.09293,0.00000,0.03172,0.99479,-0.06551,0.0
20.80350,2.35532,0.19793,0.00000,0.03038,0.99515,-0.06381,0.0
20.80360,2.60032,0.02293,0.00000,0.02965,0.99357,-0.06649,0.0
20.80370,2.95032,-0.04707,0.00000,0.03062,0.99308,-0.06551,0.0
20.80380,2.88032,0.14543,0.00000,0.03245,0.99259,-0.06539,0.0
20.80390,2.72282,0.21543,0.00000,0.03209,0.99564,-0.06600,0.0
20.80400,2.72282,0.05793,0.00000,0.02940,0.99552,-0.06564,0.0
20.80410,2.67032,0.16293,0.00000,0.03209,0.99515,-0.06551,0.0
20.80420,2.82782,0.18043,0.00000,0.03087,0.99357,-0.06600,0.0
20.80430,2.75782,0.16293,0.00000,0.03196,0.99271,-0.06698,0.0
20.80440,2.82782,-0.13457,0.00000,0.03331,0.99601,-0.06515,0.0
20.80450,2.44282,0.18043,0.00000,0.03209,0.99418,-0.06588,0.0
20.80460,2.88032,0.14543,0.00000,0.03026,0.99552,-0.06576,0.0
20.80470,2.96782,0.09293,0.00000,0.02952,0.99418,-0.06710,0.0
20.80480,3.10782,0.12793,0.00000,0.03050,0.99564,-0.06661,0.0
20.80490,2.58282,0.18043,0.00000,0.03087,0.99259,-0.06588,0.0
20.80500,2.14532,0.12793,0.00000,0.03392,0.99223,-0.06490,0.0
20.80510,2.75782,0.12793,0.00000,0.03074,0.99393,-0.06551,0.0
20.80520,3.19532,0.19793,0.00000,0.03270,0.99552,-0.06795,0.0
20.80530,2.72282,0.19793,0.00000,0.03184,0.99515,-0.06515,0.0
20.80540,2.42532,0.09293,0.00000,0.03099,0.99393,-0.06515,0.0
20.80550,2.58282,0.11043,0.00000,0.02965,0.99576,-0.06551,0.0
20.80560,2.79282,0.33793,0.00000,0.03013,0.99223,-0.06503,0.0
20.80570,3.09032,0.11043,0.00000,0.03184,0.99589,-0.06490,0.0
20.80580,2.74032,0.21543,0.00000,0.03135,0.99540,-0.06747,0.0
20.80590,2.79282,0.11043,0.00000,0.03038,0.99357,-0.06771,0.0
20.80600,2.82782,0.12793,0.00000,0.03013,0.99454,-0.06649,0.0
20.80610,2.79282,0.23293,0.00000,0.03111,0.99625,-0.06588,0.0
20.80620,2.63532,0.05793,0.00000,0.03062,0.99759,-0.06600,0.0
20.80630,2.47782,0.14543,0.00000,0.02806,0.99540,-0.06442,0.0
20.80640,2.79282,0.00543,0.00000,0.03062,0.99381,-0.06466,0.0
20.80650,3.07282,0.16293,0.00000,0.03221,0.99552,-0.06588,0.0
20.80660,3.00282,0.09293,0.00000,0.03184,0.99406,-0.06527,0.0
20.80670,2.67032,0.19793,0.00000,0.03233,0.99552,-0.06625,0.0
20.80680,2.49532,0.12793,0.00000,0.03148,0.99467,-0.06417,0.0
20.80690,2.61782,0.00543,0.00000,0.03038,0.99430,-0.06539,0.0
20.80700,2.98532,0.19793,0.00000,0.03160,0.99467,-0.06295,0.0
20.80710,3.02032,0.40793,0.00000,0.03026,0.99942,-0.06539,0.0
20.80720,2.86282,0.09293,0.00000,0.03196,0.99503,-0.06625,0.0
20.80730,2.26782,0.12793,0.00000,0.03135,0.99650,-0.06490,0.0
20.80740,2.53032,0.02293,0.00000,0.03038,0.99576,-0.06478,0.0
20.80750,2.88032,0.32043,0.00000,0.03148,0.99625,-0.06539,0.0
20.80760,3.12532,0.37293,0.00000,0.02940,0.99576,-0.06588,0.0
20.80770,2.88032,0.09293,0.00000,0.03209,0.99430,-0.06515,0.0
20.80780,2.28532,0.26793,0.00000,0.03209,0.99296,-0.06625,0.0
20.80790,2.58282,0.09293,0.00000,0.03379,0.99247,-0.06429,0.0
20.80800,2.93282,0.12793,0.00000,0.03233,0.99528,-0.06490,0.0
20.80810,3.14282,0.12793,0.00000,0.03245,0.99454,-0.06551,0.0
20.80820,2.63532,0.05793,0.00000,0.03184,0.99308,-0.06612,0.0
20.80830,2.32032,0.30293,0.00000,0.03038,0.99454,-0.06600,0.0
20.80840,2.44282,-0.06457,0.00000,0.03148,0.99662,-0.06246,0.0
20.80850,2.77532,0.32043,0.00000,0.03233,0.99357,-0.06539,0.0
20.80860,2.96782,0.11043,0.00000,0.03209,0.99430,-0.06539,0.0
20.80870,2.95032,0.09293,0.00000,0.02965,0.99467,-0.06722,0.0
20.80880,2.49532,0.18043,0.00000,0.03294,0.99406,-0.06576,0.0
20.80890,2.16282,0.21543,0.00000,0.03123,0.99625,-0.06381,0.0
20.80900,2.82782,0.40793,0.00000,0.03233,0.99467,-0.06466,0.0
20.80910,3.38782,0.30293,0.00000,0.03270,0.99613,-0.06686,0.0
20.80920,3.03782,0.21543,0.00000,0.03209,0.99564,-0.06625,0.0
20.80930,2.49532,0.39043,0.00000,0.02977,0.99430,-0.06661,0.0
20.80940,1.97032,0.04043,0.00000,0.03148,0.99674,-0.06356,0.0
20.80950,2.81032,0.14543,0.00000,0.03209,0.99259,-0.06466,0.0
20.80960,3.05532,0.09293,0.00000,0.03257,0.99491,-0.06466,0.0
20.80970,3.05532,0.39043,0.00000,0.03135,0.99637,-0.06722,0.0
20.80980,2.72282,0.21543,0.00000,0.03172,0.99430,-0.06686,0.0
20.80990,2.54782,0.23293,0.00000,0.02928,0.99662,-0.06808,0.0
20.81000,2.46032,0.26793,0.00000,0.03123,0.99576,-0.06588,0.0
20.81010,2.40782,0.18043,0.00000,0.03379,0.99589,-0.06344,0.0
20.81020,2.84532,0.21543,0.00000,0.02843,0.99284,-0.06320,0.0
20.81030,3.42282,0.35543,0.00000,0.03026,0.99491,-0.06527,0.0
20.81040,3.14282,0.30293,0.00000,0.03013,0.99662,-0.07015,0.0
20.81050,2.11032,0.14543,0.00000,0.03087,0.99686,-0.06686,0.0
20.81060,1.55032,-0.06457,0.00000,0.03184,0.99406,-0.06381,0.0
20.81070,2.93282,0.30293,0.00000,0.02977,0.99479,-0.06198,0.0
20.81080,3.68532,0.37293,0.00000,0.03148,0.99259,-0.06698,0.0
20.81090,3.35282,0.26793,0.00000,0.03257,0.99759,-0.06783,0.0
20.81100,2.42532,0.16293,0.00000,0.03111,0.99467,-0.06612,0.0
20.81110,2.28532,-0.09957,0.00000,0.03172,0.99503,-0.06307,0.0
20.81120,2.61782,0.07543,0.00000,0.03013,0.99235,-0.06503,0.0
20.81130,2.86282,0.14543,0.00000,0.02940,0.99479,-0.06429,0.0
20.81140,3.23032,0.14543,0.00000,0.03172,0.99662,-0.06417,0.0
20.81150,3.07282,0.21543,0.00000,0.03148,0.99540,-0.06588,0.0
20.81160,2.63532,0.12793,0.00000,0.03062,0.99381,-0.06710,0.0
20.81170,1.88282,-0.23957,0.00000,0.03050,0.99491,-0.06295,0.0
20.81180,2.63532,0.07543,0.00000,0.03160,0.99454,-0.06307,0.0
20.81190,3.63282,0.30293,0.00000,0.02928,0.99589,-0.06612,0.0
20.81200,3.24782,0.37293,0.00000,0.03282,0.99442,-0.06881,0.0
20.81210,2.07532,-0.02957,0.00000,0.03294,0.99357,-0.06893,0.0
20.81220,1.83032,-0.11707,0.00000,0.03221,0.99320,-0.06381,0.0
20.81230,2.93282,0.33793,0.00000,0.03196,0.99357,-0.06368,0.0
20.81240,3.84282,0.30293,0.00000,0.03294,0.99515,-0.06734,0.0
20.81250,2.91532,0.05793,0.00000,0.03062,0.99430,-0.06954,0.0
20.81260,2.00532,-0.11707,0.00000,0.03477,0.99528,-0.06564,0.0
20.81270,2.12782,0.12793,0.00000,0.03245,0.99479,-0.06393,0.0
20.81280,3.30032,0.32043,0.00000,0.03355,0.99479,-0.06478,0.0
20.81290,3.42282,0.16293,0.00000,0.03172,0.99845,-0.06698,0.0
20.81300,2.49532,0.04043,0.00000,0.03038,0.99406,-0.06942,0.0
20.81310,2.28532,0.02293,0.00000,0.03087,0.99247,-0.06588,0.0
20.81320,2.58282,0.11043,0.00000,0.03087,0.99662,-0.06490,0.0
20.81330,3.09032,0.23293,0.00000,0.03087,0.99515,-0.06734,0.0
20.81340,3.03782,0.37293,0.00000,0.03331,0.99576,-0.06820,0.0
20.81350,2.70532,0.14543,0.00000,0.03245,0.99613,-0.06625,0.0
20.81360,2.61782,-0.15207,0.00000,0.03160,0.99357,-0.06515,0.0
20.81370,2.72282,-0.04707,0.00000,0.03367,0.99662,-0.06368,0.0
20.81380,2.77532,0.09293,0.00000,0.02952,0.99491,-0.06344,0.0
20.81390,3.05532,0.16293,0.00000,0.02843,0.99418,-0.06588,0.0
20.81400,3.09032,0.05793,0.00000,0.03416,0.99271,-0.06722,0.0
20.81410,2.32032,0.16293,0.00000,0.03221,0.99784,-0.06612,0.0
20.81420,2.44282,0.00543,0.00000,0.03074,0.99345,-0.06271,0.0
20.81430,3.23032,-0.06457,0.00000,0.03209,0.99479,-0.06454,0.0
20.81440,3.45782,0.32043,0.00000,0.03062,0.99552,-0.06588,0.0
20.81450,2.86282,0.11043,0.00000,0.03196,0.99162,-0.06893,0.0
20.81460,2.35532,-0.08207,0.00000,0.03062,0.99467,-0.06515,0.0
20.81470,2.60032,0.00543,0.00000,0.03318,0.99552,-0.06246,0.0
20.81480,3.35282,0.32043,0.00000,0.03294,0.99467,-0.06429,0.0
20.81490,2.96782,0.25043,0.00000,0.03209,0.99454,-0.06710,0.0
20.81500,2.61782,0.18043,0.00000,0.03062,0.99259,-0.06856,0.0
20.81510,2.42532,-0.20457,0.00000,0.03270,0.99454,-0.06393,0.0
20.81520,2.89782,0.26793,0.00000,0.03013,0.99650,-0.06368,0.0
20.81530,3.30032,0.19793,0.00000,0.03270,0.99296,-0.06637,0.0
20.81540,2.95032,0.09293,0.00000,0.03038,0.99381,-0.06527,0.0
20.81550,2.54782,-0.04707,0.00000,0.03196,0.99357,-0.06808,0.0
20.81560,2.65282,0.07543,0.00000,0.03221,0.99442,-0.06442,0.0
20.81570,2.86282,0.23293,0.00000,0.03135,0.99564,-0.06539,0.0
20.81580,2.86282,0.09293,0.00000,0.03477,0.99576,-0.06405,0.0
20.81590,2.93282,0.16293,0.00000,0.03148,0.99528,-0.06869,0.0
20.81600,2.60032,0.25043,0.00000,0.03221,0.99503,-0.06661,0.0
20.81610,2.46032,0.19793,0.00000,0.03245,0.99430,-0.06600,0.0
20.81620,2.53032,0.33793,0.00000,0.03282,0.99393,-0.06454,0.0
20.81630,2.96782,0.35543,0.00000,0.03050,0.99393,-0.06673,0.0
20.81640,3.19532,0.26793,0.00000,0.03148,0.99491,-0.06649,0.0
20.81650,2.67032,0.18043,0.00000,0.02977,0.99650,-0.06673,0.0
20.81660,2.28532,-0.04707,0.00000,0.03184,0.99393,-0.06661,0.0
20.81670,2.74032,0.37293,0.00000,0.03331,0.99467,-0.06271,0.0
20.81680,3.17782,0.32043,0.00000,0.03343,0.99210,-0.06673,0.0
20.81690,2.86282,0.32043,0.00000,0.03111,0.99454,-0.06625,0.0
20.81700,2.49532,0.09293,0.00000,0.02940,0.99430,-0.06612,0.0
20.81710,2.63532,0.16293,0.00000,0.03160,0.99686,-0.06417,0.0
20.81720,2.93282,0.25043,0.00000,0.02745,0.99784,-0.06710,0.0
20.81730,2.86282,0.04043,0.00000,0.02904,0.99503,-0.06405,0.0
20.81740,2.70532,0.40793,0.00000,0.03209,0.99711,-0.06966,0.0
20.81750,2.65282,0.11043,0.00000,0.03160,0.99503,-0.06307,0.0
20.81760,2.86282,0.05793,0.00000,0.03196,0.99442,-0.06539,0.0
20.81770,3.26532,0.19793,0.00000,0.03087,0.99698,-0.06503,0.0
20.81780,3.14282,0.32043,0.00000,0.03050,0.99284,-0.06649,0.0
20.81790,2.67032,0.11043,0.00000,0.02965,0.99662,-0.06600,0.0
20.81800,2.44282,-0.01207,0.00000,0.02989,0.99284,-0.06649,0.0
20.81810,2.53032,0.16293,0.00000,0.03294,0.99601,-0.06478,0.0
20.81820,2.82782,0.16293,0.00000,0.03282,0.99576,-0.06551,0.0
20.81830,3.16032,0.04043,0.00000,0.03294,0.99515,-0.06661,0.0
20.81840,2.81032,0.09293,0.00000,0.03013,0.99576,-0.06783,0.0
20.81850,2.54782,0.05793,0.00000,0.03123,0.99711,-0.06381,0.0
20.81860,2.60032,0.04043,0.00000,0.03233,0.99564,-0.06588,0.0
20.81870,3.14282,0.19793,0.00000,0.03111,0.99271,-0.06759,0.0
20.81880,2.70532,0.18043,0.00000,0.03074,0.99528,-0.06795,0.0
20.81890,2.51282,0.18043,0.00000,0.02965,0.99613,-0.06747,0.0
20.81900,2.72282,-0.09957,0.00000,0.03318,0.99711,-0.06381,0.0
20.81910,3.02032,-0.04707,0.00000,0.03135,0.99076,-0.06710,0.0
20.81920,2.88032,0.16293,0.00000,0.03135,0.99442,-0.06637,0.0
20.81930,2.67032,0.05793,0.00000,0.03050,0.99467,-0.06686,0.0
20.81940,2.46032,0.02293,0.00000,0.03074,0.99381,-0.06686,0.0
20.81950,2.70532,0.11043,0.00000,0.03038,0.99406,-0.06637,0.0
20.81960,2.86282,0.07543,0.00000,0.03111,0.99637,-0.06283,0.0
20.81970,2.96782,0.18043,0.00000,0.03343,0.99515,-0.06527,0.0
20.81980,2.77532,0.11043,0.00000,0.03074,0.99552,-0.06600,0.0
20.81990,2.61782,0.32043,0.00000,0.03245,0.99515,-0.06759,0.0
20.82000,2.58282,0.02293,0.00000,0.03135,0.99576,-0.06381,0.0
20.82010,2.88032,0.04043,0.00000,0.03062,0.99491,-0.06600,0.0
20.82020,3.02032,0.32043,0.00000,0.03111,0.99515,-0.06527,0.0
20.82030,2.95032,0.21543,0.00000,0.02965,0.99406,-0.06576,0.0
20.82040,2.60032,0.28543,0.00000,0.03355,0.99528,-0.06551,0.0
20.82050,2.58282,-0.02957,0.00000,0.03062,0.99454,-0.06637,0.0
20.82060,2.81032,0.05793,0.00000,0.03196,0.99576,-0.06490,0.0
20.82070,2.93282,0.18043,0.00000,0.03221,0.99479,-0.06527,0.0
20.82080,2.74032,0.16293,0.00000,0.03148,0.99735,-0.06722,0.0
20.82090,2.56532,0.18043,0.00000,0.03343,0.99540,-0.06551,0.0
20.82100,2.47782,0.19793,0.00000,0.03123,0.99515,-0.06429,0.0
20.82110,2.91532,0.21543,0.00000,0.03196,0.99308,-0.06600,0.0
20.82120,2.88032,0.21543,0.00000,0.02989,0.99625,-0.06490,0.0
20.82130,2.82782,0.05793,0.00000,0.03013,0.99552,-0.06625,0.0
20.82140,2.53032,0.32043,0.00000,0.03233,0.99418,-0.06429,0.0
20.82150,2.54782,0.23293,0.00000,0.02989,0.99491,-0.06551,0.0
20.82160,2.75782,0.11043,0.00000,0.03135,0.99662,-0.06515,0.0
20.82170,2.86282,0.07543,0.00000,0.03111,0.99406,-0.06539,0.0
20.82180,2.79282,0.16293,0.00000,0.03184,0.99454,-0.06771,0.0
20.82190,2.79282,0.33793,0.00000,0.03331,0.99601,-0.06698,0.0
20.82200,2.61782,-0.09957,0.00000,0.03245,0.99564,-0.06686,0.0
20.82210,2.79282,0.00543,0.00000,0.03050,0.99613,-0.06600,0.0
20.82220,2.67032,0.44293,0.00000,0.03038,0.99564,-0.06710,0.0
20.82230,2.81032,0.00543,0.00000,0.03245,0.99576,-0.06771,0.0
20.82240,2.56532,0.05793,0.00000,0.03013,0.99454,-0.06551,0.0
20.82250,2.79282,0.25043,0.00000,0.03160,0.99503,-0.06759,0.0
20.82260,2.81032,0.12793,0.00000,0.03245,0.99357,-0.06783,0.0
20.82270,2.77532,0.16293,0.00000,0.03026,0.99637,-0.06856,0.0
20.82280,2.54782,0.30293,0.00000,0.03294,0.99686,-0.06625,0.0
20.82290,2.68782,0.02293,0.00000,0.03087,0.99601,-0.06442,0.0
20.82300,2.98532,0.12793,0.00000,0.03026,0.99467,-0.06612,0.0
20.82310,2.72282,0.14543,0.00000,0.03172,0.99381,-0.06722,0.0
20.82320,2.56532,0.23293,0.00000,0.03294,0.99576,-0.06625,0.0
20.82330,2.65282,0.16293,0.00000,0.03087,0.99320,-0.06661,0.0
20.82340,3.02032,0.07543,0.00000,0.03038,0.99503,-0.06637,0.0
20.82350,2.96782,0.32043,0.00000,0.03123,0.99479,-0.06698,0.0
20.82360,2.56532,0.00543,0.00000,0.03221,0.99418,-0.06564,0.0
20.82370,2.46032,0.09293,0.00000,0.03123,0.99491,-0.06454,0.0
20.82380,2.75782,0.11043,0.00000,0.03343,0.99296,-0.06417,0.0
20.82390,3.28282,0.21543,0.00000,0.03221,0.99759,-0.06869,0.0
20.82400,2.70532,0.09293,0.00000,0.03172,0.99406,-0.06637,0.0
20.82410,2.35532,0.14543,0.00000,0.03026,0.99101,-0.06612,0.0
20.82420,2.54782,-0.04707,0.00000,0.03111,0.99662,-0.06576,0.0
20.82430,2.96782,0.37293,0.00000,0.03160,0.99637,-0.06368,0.0
20.82440,3.12532,0.18043,0.00000,0.03294,0.99637,-0.06844,0.0
20.82450,2.75782,0.25043,0.00000,0.03367,0.99162,-0.06954,0.0
20.82460,2.42532,0.14543,0.00000,0.03172,0.99467,-0.06490,0.0
20.82470,2.58282,0.04043,0.00000,0.03050,0.99576,-0.06466,0.0
20.82480,2.58282,0.28543,0.00000,0.03148,0.99515,-0.06551,0.0
20.82490,3.09032,0.09293,0.00000,0.03123,0.99369,-0.06503,0.0
20.82500,2.96782,0.25043,0.00000,0.03148,0.99601,-0.06856,0.0
20.82510,2.89782,0.02293,0.00000,0.03099,0.99540,-0.06637,0.0
20.82520,2.51282,-0.02957,0.00000,0.03074,0.99381,-0.06625,0.0
20.82530,2.65282,0.14543,0.00000,0.02940,0.99515,-0.06673,0.0
20.82540,2.89782,0.12793,0.00000,0.03233,0.99528,-0.06661,0.0
20.82550,3.19532,0.16293,0.00000,0.03099,0.99345,-0.06600,0.0
20.82560,2.70532,0.09293,0.00000,0.03209,0.99503,-0.06905,0.0
20.82570,2.58282,0.14543,0.00000,0.03026,0.99515,-0.06734,0.0
20.82580,2.53032,0.35543,0.00000,0.03026,0.99491,-0.06612,0.0
20.82590,3.07282,0.16293,0.00000,0.02977,0.99625,-0.06783,0.0
20.82600,2.98532,0.25043,0.00000,0.03087,0.99162,-0.06942,0.0
20.82610,2.67032,0.18043,0.00000,0.03306,0.99381,-0.06881,0.0
20.82620,2.40782,0.23293,0.00000,0.03318,0.99442,-0.06698,0.0
20.82630,2.56532,0.25043,0.00000,0.03367,0.99430,-0.06527,0.0
20.82640,2.96782,0.11043,0.00000,0.03184,0.99698,-0.06612,0.0
20.82650,2.84532,0.37293,0.00000,0.03062,0.99625,-0.06515,0.0
20.82660,2.84532,0.11043,0.00000,0.03074,0.99564,-0.06661,0.0
20.82670,2.63532,0.21543,0.00000,0.03074,0.99515,-0.06515,0.0
20.82680,2.54782,0.07543,0.00000,0.03172,0.99454,-0.06564,0.0
20.82690,2.65282,0.16293,0.00000,0.03013,0.99430,-0.06686,0.0
20.82700,2.98532,0.07543,0.00000,0.03038,0.99479,-0.06515,0.0
20.82710,3.03782,0.05793,0.00000,0.03172,0.99296,-0.06734,0.0
20.82720,2.67032,0.16293,0.00000,0.03148,0.99528,-0.06783,0.0
20.82730,2.70532,0.02293,0.00000,0.03062,0.99369,-0.06722,0.0
20.82740,2.54782,0.18043,0.00000,0.03111,0.99454,-0.06527,0.0
20.82750,2.67032,0.33793,0.00000,0.03123,0.99503,-0.06673,0.0
20.82760,2.75782,0.18043,0.00000,0.03245,0.99357,-0.06564,0.0
20.82770,2.63532,0.19793,0.00000,0.03355,0.99442,-0.06661,0.0
20.82780,2.72282,0.19793,0.00000,0.03160,0.99552,-0.06576,0.0
20.82790,2.65282,0.07543,0.00000,0.03379,0.99467,-0.06747,0.0
20.82800,2.86282,0.16293,0.00000,0.03282,0.99540,-0.06673,0.0
20.82810,2.84532,0.04043,0.00000,0.03050,0.99686,-0.06710,0.0
20.82820,2.61782,0.21543,0.00000,0.03050,0.99381,-0.06576,0.0
20.82830,2.63532,0.14543,0.00000,0.03294,0.99576,-0.06405,0.0
20.82840,2.46032,0.25043,0.00000,0.03099,0.99381,-0.06612,0.0
20.82850,2.88032,0.07543,0.00000,0.03270,0.99406,-0.06429,0.0
20.82860,2.79282,0.12793,0.00000,0.03099,0.99735,-0.06686,0.0
20.82870,3.10782,0.11043,0.00000,0.03209,0.99418,-0.06710,0.0
20.82880,2.60032,-0.01207,0.00000,0.03062,0.99357,-0.06539,0.0
20.82890,2.53032,0.21543,0.00000,0.03184,0.99711,-0.06649,0.0
20.82900,3.00282,0.02293,0.00000,0.03099,0.99393,-0.06588,0.0
20.82910,3.02032,0.26793,0.00000,0.03233,0.99320,-0.06564,0.0
20.82920,2.72282,0.32043,0.00000,0.03172,0.99491,-0.06612,0.0
20.82930,2.63532,0.11043,0.00000,0.03282,0.99625,-0.06576,0.0
20.82940,2.63532,0.25043,0.00000,0.03282,0.99247,-0.06673,0.0
20.82950,2.84532,0.28543,0.00000,0.03453,0.99552,-0.06710,0.0
20.82960,3.00282,0.16293,0.00000,0.03233,0.99393,-0.06515,0.0
20.82970,2.58282,0.33793,0.00000,0.03306,0.99418,-0.06710,0.0
20.82980,2.49532,-0.08207,0.00000,0.02952,0.99235,-0.06734,0.0
20.82990,2.84532,0.23293,0.00000,0.03172,0.99625,-0.06564,0.0
20.83000,2.81032,0.14543,0.00000,0.02965,0.99369,-0.06710,0.0
20.83010,2.70532,0.19793,0.00000,0.03087,0.99515,-0.06832,0.0
20.83020,2.65282,0.12793,0.00000,0.03038,0.99528,-0.06600,0.0
20.83030,2.54782,-0.02957,0.00000,0.03233,0.99284,-0.06576,0.0
20.83040,2.51282,0.16293,0.00000,0.03184,0.99686,-0.06625,0.0
20.83050,2.72282,0.12793,0.00000,0.03257,0.99589,-0.06564,0.0
20.83060,3.14282,0.47793,0.00000,0.03257,0.99454,-0.06466,0.0
20.83070,3.07282,-0.01207,0.00000,0.03123,0.99650,-0.06893,0.0
20.83080,2.74032,-0.02957,0.00000,0.03233,0.99357,-0.06698,0.0
20.83090,2.56532,-0.13457,0.00000,0.02989,0.99589,-0.06576,0.0
20.83100,2.75782,0.21543,0.00000,0.03148,0.99662,-0.06368,0.0
20.83110,3.09032,0.12793,0.00000,0.03257,0.99540,-0.06747,0.0
20.83120,2.84532,0.14543,0.00000,0.02977,0.99491,-0.06539,0.0
20.83130,2.40782,0.14543,0.00000,0.03196,0.99576,-0.06588,0.0
20.83140,2.53032,0.16293,0.00000,0.03123,0.99491,-0.06442,0.0
20.83150,2.89782,0.23293,0.00000,0.03282,0.99381,-0.06686,0.0
20.83160,2.84532,0.21543,0.00000,0.03282,0.99613,-0.06820,0.0
20.83170,2.65282,0.21543,0.00000,0.03111,0.99418,-0.06625,0.0
20.83180,2.53032,0.16293,0.00000,0.03209,0.99454,-0.06185,0.0
20.83190,2.74032,0.19793,0.00000,0.03233,0.99613,-0.06527,0.0
20.83200,3.07282,0.04043,0.00000,0.03270,0.99552,-0.06637,0.0
20.83210,2.75782,0.11043,0.00000,0.02965,0.99503,-0.06844,0.0
20.83220,2.60032,0.18043,0.00000,0.03038,0.99662,-0.06551,0.0
20.83230,2.68782,0.30293,0.00000,0.03038,0.99491,-0.06466,0.0
20.83240,2.68782,0.12793,0.00000,0.03135,0.99552,-0.06478,0.0
20.83250,2.86282,0.02293,0.00000,0.03038,0.99540,-0.06527,0.0
20.83260,2.93282,0.16293,0.00000,0.02989,0.99613,-0.06442,0.0
20.83270,2.46032,0.30293,0.00000,0.03196,0.99503,-0.06503,0.0
20.83280,2.65282,0.26793,0.00000,0.03087,0.99515,-0.06637,0.0
20.83290,2.75782,0.12793,0.00000,0.03172,0.99393,-0.06356,0.0
20.83300,2.89782,0.05793,0.00000,0.03221,0.99515,-0.06600,0.0
20.83310,2.81032,0.11043,0.00000,0.03111,0.99357,-0.06759,0.0
20.83320,2.81032,0.23293,0.00000,0.03135,0.99515,-0.06747,0.0
20.83330,2.81032,0.02293,0.00000,0.03026,0.99357,-0.06625,0.0
20.83340,2.65282,0.18043,0.00000,0.03172,0.99393,-0.06344,0.0
20.83350,2.91532,0.33793,0.00000,0.03111,0.99454,-0.06405,0.0
20.83360,2.93282,0.18043,0.00000,0.03099,0.99515,-0.06661,0.0
20.83370,2.82782,-0.02957,0.00000,0.03111,0.99296,-0.06747,0.0
20.83380,2.54782,0.18043,0.00000,0.03062,0.99454,-0.06612,0.0
20.83390,2.89782,0.00543,0.00000,0.03355,0.99430,-0.06393,0.0
20.83400,2.82782,0.00543,0.00000,0.02904,0.99515,-0.06637,0.0
20.83410,2.82782,0.25043,0.00000,0.03001,0.99589,-0.06710,0.0
20.83420,2.81032,0.09293,0.00000,0.03099,0.99467,-0.06600,0.0
20.83430,2.63532,0.05793,0.00000,0.02952,0.99625,-0.06564,0.0
20.83440,2.72282,0.12793,0.00000,0.03257,0.99564,-0.06503,0.0
20.83450,3.14282,-0.08207,0.00000,0.03172,0.99271,-0.06466,0.0
20.83460,3.03782,0.00543,0.00000,0.03001,0.99601,-0.06588,0.0
20.83470,2.75782,0.11043,0.00000,0.03196,0.99589,-0.06515,0.0
20.83480,2.74032,0.12793,0.00000,0.03050,0.99601,-0.06673,0.0
20.83490,2.58282,0.21543,0.00000,0.03123,0.99271,-0.06381,0.0
20.83500,2.84532,0.21543,0.00000,0.03233,0.99564,-0.06185,0.0
20.83510,3.02032,0.05793,0.00000,0.03087,0.99406,-0.06722,0.0
20.83520,2.95032,0.25043,0.00000,0.03087,0.99418,-0.06686,0.0
20.83530,2.68782,0.19793,0.00000,0.03087,0.99650,-0.06600,0.0
20.83540,2.51282,0.18043,0.00000,0.03306,0.99589,-0.06344,0.0
20.83550,2.91532,0.14543,0.00000,0.03062,0.99540,-0.06454,0.0
20.83560,2.98532,-0.11707,0.00000,0.03367,0.99540,-0.06637,0.0
20.83570,2.91532,0.19793,0.00000,0.03184,0.99369,-0.06381,0.0
20.83580,2.58282,0.19793,0.00000,0.03001,0.99369,-0.06673,0.0
20.83590,2.79282,0.19793,0.00000,0.03233,0.99247,-0.06551,0.0
20.83600,2.68782,0.35543,0.00000,0.03221,0.99503,-0.06588,0.0
20.83610,2.65282,0.25043,0.00000,0.03062,0.99662,-0.06795,0.0
20.83620,2.75782,0.09293,0.00000,0.03184,0.99393,-0.06612,0.0
20.83630,2.56532,0.32043,0.00000,0.03233,0.99393,-0.06637,0.0
20.83640,2.89782,0.21543,0.00000,0.03050,0.99515,-0.06588,0.0
20.83650,2.79282,0.19793,0.00000,0.03209,0.99357,-0.06673,0.0
20.83660,2.63532,0.30293,0.00000,0.02940,0.99491,-0.06368,0.0
20.83670,2.81032,-0.01207,0.00000,0.03123,0.99418,-0.06283,0.0
20.83680,2.91532,0.12793,0.00000,0.03270,0.99515,-0.06356,0.0
20.83690,2.93282,0.25043,0.00000,0.03111,0.99357,-0.06478,0.0
20.83700,2.68782,-0.06457,0.00000,0.03123,0.99418,-0.06442,0.0
20.83710,2.74032,0.05793,0.00000,0.03318,0.99235,-0.06466,0.0
20.83720,2.79282,-0.11707,0.00000,0.03392,0.99247,-0.06320,0.0
20.83730,3.00282,-0.01207,0.00000,0.03270,0.99540,-0.06673,0.0
20.83740,2.72282,0.12793,0.00000,0.03306,0.99564,-0.06673,0.0
20.83750,2.75782,0.07543,0.00000,0.03196,0.99296,-0.06588,0.0
20.83760,2.53032,-0.02957,0.00000,0.03135,0.99357,-0.06368,0.0
20.83770,2.77532,0.07543,0.00000,0.03148,0.99503,-0.06564,0.0
20.83780,2.74032,0.04043,0.00000,0.03233,0.99552,-0.06576,0.0
20.83790,3.10782,0.05793,0.00000,0.03196,0.99454,-0.06478,0.0
20.83800,2.93282,0.09293,0.00000,0.03355,0.99406,-0.06564,0.0
20.83810,2.65282,-0.06457,0.00000,0.03270,0.99564,-0.06454,0.0
20.83820,2.54782,0.21543,0.00000,0.03087,0.99381,-0.06795,0.0
20.83830,2.75782,0.21543,0.00000,0.03196,0.99369,-0.06539,0.0
20.83840,3.05532,0.11043,0.00000,0.03282,0.99540,-0.06625,0.0
20.83850,2.72282,0.04043,0.00000,0.03233,0.99528,-0.06588,0.0
20.83860,2.75782,0.12793,0.00000,0.03111,0.99369,-0.06686,0.0
20.83870,2.63532,0.37293,0.00000,0.03062,0.99650,-0.06429,0.0
20.83880,2.86282,0.09293,0.00000,0.03331,0.99345,-0.06295,0.0
20.83890,2.79282,0.37293,0.00000,0.03062,0.99625,-0.06612,0.0
20.83900,2.96782,0.04043,0.00000,0.03233,0.99735,-0.06393,0.0
20.83910,2.56532,0.11043,0.00000,0.03099,0.99528,-0.06564,0.0
20.83920,2.77532,0.09293,0.00000,0.02965,0.99540,-0.06527,0.0
20.83930,2.77532,0.14543,0.00000,0.03245,0.99613,-0.06600,0.0
20.83940,2.74032,-0.01207,0.00000,0.03135,0.99552,-0.06454,0.0
20.83950,2.72282,0.39043,0.00000,0.03209,0.99345,-0.06710,0.0
20.83960,2.86282,0.28543,0.00000,0.03306,0.99503,-0.06478,0.0
20.83970,2.61782,0.44293,0.00000,0.03245,0.99271,-0.06625,0.0
20.83980,2.93282,0.02293,0.00000,0.03001,0.99454,-0.06332,0.0
20.83990,2.79282,0.04043,0.00000,0.03013,0.99418,-0.06649,0.0
20.84000,3.10782,-0.08207,0.00000,0.03160,0.99503,-0.06820,0.0
20.84010,2.70532,0.23293,0.00000,0.03270,0.99637,-0.06820,0.0
20.84020,2.93282,0.09293,0.00000,0.03355,0.99503,-0.06564,0.0
20.84030,2.70532,0.05793,0.00000,0.02940,0.99515,-0.06661,0.0
20.84040,2.86282,0.25043,0.00000,0.03318,0.99418,-0.06686,0.0
20.84050,2.70532,-0.02957,0.00000,0.02928,0.99467,-0.06527,0.0
20.84060,2.56532,0.18043,0.00000,0.03270,0.99576,-0.06576,0.0
20.84070,2.63532,0.18043,0.00000,0.03148,0.99430,-0.06551,0.0
20.84080,2.67032,0.12793,0.00000,0.03099,0.99162,-0.06612,0.0
20.84090,3.00282,0.05793,0.00000,0.03001,0.99491,-0.06429,0.0
20.84100,2.86282,0.05793,0.00000,0.02977,0.99393,-0.06869,0.0
20.84110,2.82782,-0.08207,0.00000,0.03087,0.99479,-0.06466,0.0
20.84120,2.63532,0.18043,0.00000,0.03135,0.99345,-0.06673,0.0
20.84130,2.67032,0.25043,0.00000,0.03294,0.99418,-0.06564,0.0
20.84140,2.81032,0.11043,0.00000,0.03257,0.99442,-0.06661,0.0
20.84150,3.05532,0.11043,0.00000,0.03087,0.99515,-0.06759,0.0
20.84160,2.82782,0.16293,0.00000,0.03172,0.99503,-0.06759,0.0
20.84170,2.75782,0.37293,0.00000,0.03050,0.99698,-0.06429,0.0
20.84180,2.58282,0.25043,0.00000,0.03160,0.99393,-0.06661,0.0
20.84190,2.82782,0.05793,0.00000,0.03343,0.99345,-0.06588,0.0
20.84200,2.95032,-0.02957,0.00000,0.03123,0.99503,-0.06295,0.0
20.84210,2.74032,0.11043,0.00000,0.03160,0.99393,-0.06356,0.0
20.84220,2.77532,0.12793,0.00000,0.03062,0.99540,-0.06564,0.0
20.84230,2.75782,0.25043,0.00000,0.03477,0.99515,-0.06405,0.0
20.84240,2.81032,0.05793,0.00000,0.03196,0.99503,-0.06722,0.0
20.84250,2.81032,-0.02957,0.00000,0.03001,0.99686,-0.06490,0.0
20.84260,2.65282,0.23293,0.00000,0.03318,0.99564,-0.06600,0.0
20.84270,2.93282,0.11043,0.00000,0.03306,0.99564,-0.06442,0.0
20.84280,2.91532,-0.02957,0.00000,0.03257,0.99454,-0.06442,0.0
20.84290,2.61782,0.07543,0.00000,0.03172,0.99540,-0.06820,0.0
20.84300,2.47782,0.21543,0.00000,0.03172,0.99210,-0.06686,0.0
20.84310,2.68782,0.07543,0.00000,0.03050,0.99271,-0.06344,0.0
20.84320,2.91532,0.23293,0.00000,0.03160,0.99772,-0.06368,0.0
20.84330,2.89782,0.12793,0.00000,0.03087,0.99430,-0.06954,0.0
20.84340,2.72282,0.21543,0.00000,0.03257,0.99491,-0.06710,0.0
20.84350,2.49532,0.07543,0.00000,0.03172,0.99369,-0.06588,0.0
20.84360,2.61782,0.33793,0.00000,0.03209,0.99491,-0.06417,0.0
20.84370,2.91532,0.33793,0.00000,0.03270,0.99528,-0.06722,0.0
20.84380,2.96782,0.32043,0.00000,0.03148,0.99332,-0.06551,0.0
20.84390,2.81032,0.12793,0.00000,0.03135,0.99503,-0.06710,0.0
20.84400,2.56532,-0.11707,0.00000,0.03270,0.99308,-0.06332,0.0
20.84410,2.61782,0.16293,0.00000,0.02977,0.99393,-0.06515,0.0
20.84420,2.93282,0.16293,0.00000,0.03160,0.99393,-0.06649,0.0
20.84430,3.07282,0.32043,0.00000,0.03233,0.99564,-0.06551,0.0
20.84440,2.72282,0.16293,0.00000,0.03172,0.99576,-0.06991,0.0
20.84450,2.33782,-0.01207,0.00000,0.03111,0.99564,-0.06734,0.0
20.84460,2.65282,0.18043,0.00000,0.03160,0.99540,-0.06600,0.0
20.84470,3.17782,0.12793,0.00000,0.03416,0.99601,-0.06344,0.0
20.84480,3.17782,0.25043,0.00000,0.03099,0.99235,-0.06747,0.0
20.84490,2.93282,0.23293,0.00000,0.03111,0.99503,-0.06637,0.0
20.84500,2.54782,0.12793,0.00000,0.03294,0.99332,-0.06722,0.0
20.84510,2.60032,0.12793,0.00000,0.03221,0.99284,-0.06503,0.0
20.84520,2.86282,0.02293,0.00000,0.03013,0.99601,-0.06600,0.0
20.84530,3.05532,0.26793,0.00000,0.03123,0.99345,-0.06710,0.0
20.84540,2.82782,0.16293,0.00000,0.02989,0.99650,-0.06722,0.0
20.84550,2.49532,0.12793,0.00000,0.03343,0.99540,-0.06503,0.0
20.84560,2.42532,0.25043,0.00000,0.03099,0.99564,-0.06625,0.0
20.84570,2.72282,0.21543,0.00000,0.03099,0.99576,-0.06381,0.0
20.84580,2.96782,0.32043,0.00000,0.03111,0.99528,-0.06503,0.0
20.84590,2.95032,0.25043,0.00000,0.02891,0.99515,-0.06551,0.0
20.84600,2.58282,0.23293,0.00000,0.03172,0.99454,-0.06612,0.0
20.84610,2.63532,0.28543,0.00000,0.03062,0.99381,-0.06564,0.0
20.84620,2.84532,0.21543,0.00000,0.03074,0.99540,-0.06673,0.0
20.84630,2.89782,0.19793,0.00000,0.03038,0.99625,-0.06649,0.0
20.84640,2.82782,0.21543,0.00000,0.03062,0.99564,-0.06869,0.0
20.84650,2.75782,0.21543,0.00000,0.03379,0.99418,-0.06820,0.0
20.84660,2.53032,0.11043,0.00000,0.03074,0.99540,-0.06539,0.0
20.84670,2.42532,0.16293,0.00000,0.03050,0.99467,-0.06307,0.0
20.84680,3.00282,0.00543,0.00000,0.03123,0.99552,-0.06368,0.0
20.84690,3.19532,0.26793,0.00000,0.03135,0.99223,-0.06539,0.0
20.84700,2.61782,0.11043,0.00000,0.03074,0.99552,-0.06747,0.0
20.84710,2.51282,0.14543,0.00000,0.03074,0.99479,-0.06637,0.0
20.84720,2.33782,0.00543,0.00000,0.03099,0.99296,-0.06454,0.0
20.84730,2.70532,-0.01207,0.00000,0.02928,0.99503,-0.06161,0.0
20.84740,3.26532,0.32043,0.00000,0.03233,0.99601,-0.06673,0.0
20.84750,2.91532,0.19793,0.00000,0.03294,0.99369,-0.06844,0.0
20.84760,2.40782,-0.11707,0.00000,0.03013,0.99723,-0.06637,0.0
20.84770,2.40782,0.05793,0.00000,0.03062,0.99308,-0.06551,0.0
20.84780,2.93282,0.12793,0.00000,0.03038,0.99674,-0.06344,0.0
20.84790,3.17782,0.26793,0.00000,0.03001,0.99686,-0.06539,0.0
20.84800,2.91532,0.09293,0.00000,0.02989,0.99503,-0.06808,0.0
20.84810,2.56532,0.18043,0.00000,0.03123,0.99552,-0.06698,0.0
20.84820,2.54782,0.18043,0.00000,0.02818,0.99491,-0.06673,0.0
20.84830,2.65282,0.30293,0.00000,0.02904,0.99467,-0.06271,0.0
20.84840,2.91532,0.33793,0.00000,0.03331,0.99540,-0.06454,0.0
20.84850,2.95032,0.25043,0.00000,0.03074,0.99308,-0.06625,0.0
20.84860,2.63532,0.23293,0.00000,0.03160,0.99467,-0.06673,0.0
20.84870,2.33782,-0.06457,0.00000,0.02965,0.99393,-0.06722,0.0
20.84880,2.53032,0.05793,0.00000,0.03099,0.99393,-0.06368,0.0
20.84890,2.98532,0.14543,0.00000,0.03038,0.99381,-0.06698,0.0
20.84900,2.96782,0.40793,0.00000,0.03209,0.99406,-0.06588,0.0
20.84910,2.82782,0.19793,0.00000,0.03245,0.99503,-0.06417,0.0
20.84920,2.33782,0.25043,0.00000,0.03233,0.99418,-0.06539,0.0
20.84930,2.53032,0.32043,0.00000,0.03050,0.99332,-0.06795,0.0
20.84940,2.95032,0.04043,0.00000,0.03123,0.99406,-0.06869,0.0
20.84950,2.86282,0.14543,0.00000,0.03099,0.99479,-0.06686,0.0
20.84960,2.77532,0.16293,0.00000,0.03172,0.99552,-0.06661,0.0
20.84970,2.72282,0.09293,0.00000,0.03221,0.99479,-0.06551,0.0
20.84980,2.88032,0.18043,0.00000,0.03087,0.99320,-0.06356,0.0
20.84990,2.88032,0.07543,0.00000,0.02952,0.99381,-0.06564,0.0
20.85000,2.86282,0.11043,0.00000,0.03087,0.99515,-0.06649,0.0
20.85010,2.67032,0.07543,0.00000,0.03148,0.99442,-0.06466,0.0
20.85020,2.58282,0.16293,0.00000,0.02965,0.99467,-0.06649,0.0
20.85030,2.81032,0.14543,0.00000,0.03318,0.99467,-0.06490,0.0
20.85040,2.74032,0.25043,0.00000,0.03062,0.99601,-0.06503,0.0
20.85050,2.74032,0.21543,0.00000,0.03160,0.99454,-0.06539,0.0
20.85060,2.79282,0.18043,0.00000,0.03099,0.99198,-0.06722,0.0
20.85070,2.96782,0.26793,0.00000,0.03233,0.99467,-0.06564,0.0
20.85080,2.74032,0.11043,0.00000,0.03074,0.99369,-0.06612,0.0
20.85090,2.60032,0.05793,0.00000,0.03233,0.99454,-0.06539,0.0
20.85100,2.82782,0.09293,0.00000,0.03257,0.99528,-0.06625,0.0
20.85110,2.77532,0.04043,0.00000,0.03148,0.99296,-0.06454,0.0
20.85120,3.07282,0.19793,0.00000,0.03221,0.99564,-0.06478,0.0
20.85130,2.96782,0.18043,0.00000,0.03355,0.99381,-0.06881,0.0
20.85140,2.60032,0.09293,0.00000,0.03001,0.99479,-0.06466,0.0
20.85150,2.63532,0.33793,0.00000,0.03050,0.99491,-0.06527,0.0
20.85160,2.88032,0.07543,0.00000,0.03257,0.99491,-0.06442,0.0
20.85170,3.09032,0.16293,0.00000,0.03111,0.99625,-0.06564,0.0
20.85180,2.79282,0.26793,0.00000,0.03135,0.99296,-0.06844,0.0
20.85190,2.58282,0.25043,0.00000,0.03099,0.99296,-0.06637,0.0
20.85200,2.35532,-0.06457,0.00000,0.03087,0.99540,-0.06442,0.0
20.85210,2.63532,0.02293,0.00000,0.03001,0.99723,-0.06271,0.0
20.85220,3.23032,0.18043,0.00000,0.03221,0.99467,-0.06673,0.0
20.85230,3.24782,0.07543,0.00000,0.03196,0.99479,-0.06954,0.0
20.85240,2.63532,0.00543,0.00000,0.03416,0.99515,-0.06649,0.0
20.85250,2.18032,-0.02957,0.00000,0.03257,0.99381,-0.06673,0.0
20.85260,2.46032,0.09293,0.00000,0.03453,0.99576,-0.06283,0.0
20.85270,2.81032,0.21543,0.00000,0.03196,0.99601,-0.06344,0.0
20.85280,3.23032,0.21543,0.00000,0.03306,0.99515,-0.06576,0.0
20.85290,3.24782,0.23293,0.00000,0.03160,0.99528,-0.06747,0.0
20.85300,2.63532,0.19793,0.00000,0.03087,0.99528,-0.06612,0.0
20.85310,2.49532,0.19793,0.00000,0.03001,0.99442,-0.06490,0.0
20.85320,2.74032,0.09293,0.00000,0.03172,0.99662,-0.06490,0.0
20.85330,2.82782,0.05793,0.00000,0.03233,0.99467,-0.06490,0.0
20.85340,3.07282,0.25043,0.00000,0.03257,0.99430,-0.06551,0.0
20.85350,3.14282,0.18043,0.00000,0.03355,0.99430,-0.06734,0.0
20.85360,2.65282,0.16293,0.00000,0.03148,0.99613,-0.06637,0.0
20.85370,2.44282,0.14543,0.00000,0.02965,0.99637,-0.06393,0.0
20.85380,2.75782,0.09293,0.00000,0.03062,0.99479,-0.06673,0.0
20.85390,2.81032,0.14543,0.00000,0.03135,0.99418,-0.06515,0.0
20.85400,2.93282,0.07543,0.00000,0.02965,0.99686,-0.06393,0.0
20.85410,2.95032,0.09293,0.00000,0.03026,0.99540,-0.06661,0.0
20.85420,2.65282,0.00543,0.00000,0.03196,0.99479,-0.06710,0.0
20.85430,2.53032,0.09293,0.00000,0.03343,0.99284,-0.06820,0.0
20.85440,2.91532,0.02293,0.00000,0.03209,0.99515,-0.06527,0.0
20.85450,2.79282,0.11043,0.00000,0.03196,0.99515,-0.06527,0.0
20.85460,2.91532,0.18043,0.00000,0.02989,0.99357,-0.06539,0.0
20.85470,2.89782,0.02293,0.00000,0.03001,0.99503,-0.06527,0.0
20.85480,2.46032,0.04043,0.00000,0.03196,0.99479,-0.06649,0.0
20.85490,2.67032,0.04043,0.00000,0.03209,0.99284,-0.06466,0.0
20.85500,2.88032,0.07543,0.00000,0.03392,0.99393,-0.06551,0.0
20.85510,2.93282,0.16293,0.00000,0.02965,0.99393,-0.06515,0.0
20.85520,2.74032,-0.11707,0.00000,0.02928,0.99345,-0.06808,0.0
20.85530,2.60032,0.25043,0.00000,0.02794,0.99503,-0.06490,0.0
20.85540,2.77532,-0.04707,0.00000,0.03245,0.99345,-0.06417,0.0
20.85550,3.14282,0.05793,0.00000,0.03184,0.99442,-0.06734,0.0
20.85560,3.10782,0.12793,0.00000,0.03172,0.99393,-0.06844,0.0
20.85570,2.60032,0.18043,0.00000,0.03209,0.99747,-0.06759,0.0
20.85580,2.56532,0.02293,0.00000,0.03245,0.99454,-0.06527,0.0
20.85590,2.63532,0.19793,0.00000,0.02928,0.99381,-0.06686,0.0
20.85600,2.84532,0.46043,0.00000,0.03148,0.99491,-0.06478,0.0
20.85610,2.82782,0.21543,0.00000,0.03318,0.99381,-0.06625,0.0
20.85620,2.63532,0.21543,0.00000,0.03135,0.99564,-0.06637,0.0
20.85630,2.70532,0.00543,0.00000,0.03160,0.99345,-0.06527,0.0
20.85640,2.58282,-0.06457,0.00000,0.03245,0.99454,-0.06600,0.0
20.85650,2.81032,0.16293,0.00000,0.03099,0.99515,-0.06490,0.0
20.85660,3.03782,0.12793,0.00000,0.03465,0.99430,-0.06551,0.0
20.85670,2.84532,0.21543,0.00000,0.03355,0.99589,-0.06673,0.0
20.85680,2.58282,0.12793,0.00000,0.03099,0.99528,-0.06515,0.0
20.85690,2.63532,0.11043,0.00000,0.02965,0.99564,-0.06795,0.0
20.85700,2.72282,0.18043,0.00000,0.03148,0.99515,-0.06551,0.0
20.85710,3.02032,0.25043,0.00000,0.03038,0.99357,-0.06710,0.0
20.85720,2.91532,0.18043,0.00000,0.03379,0.99393,-0.06844,0.0
20.85730,2.79282,0.18043,0.00000,0.03026,0.99552,-0.07015,0.0
20.85740,2.42532,0.33793,0.00000,0.03038,0.99540,-0.06551,0.0
20.85750,2.93282,0.14543,0.00000,0.02940,0.99601,-0.06771,0.0
20.85760,2.86282,0.28543,0.00000,0.03001,0.99601,-0.06442,0.0
20.85770,2.91532,0.33793,0.00000,0.02904,0.99271,-0.06588,0.0
20.85780,2.72282,0.16293,0.00000,0.03038,0.99515,-0.06759,0.0
20.85790,2.54782,0.00543,0.00000,0.03184,0.99564,-0.06625,0.0
20.85800,2.65282,0.04043,0.00000,0.02977,0.99589,-0.06539,0.0
20.85810,2.74032,-0.02957,0.00000,0.02830,0.99479,-0.06661,0.0
20.85820,2.95032,0.23293,0.00000,0.02952,0.99442,-0.06759,0.0
20.85830,2.96782,0.28543,0.00000,0.03099,0.99406,-0.06856,0.0
20.85840,2.44282,0.12793,0.00000,0.03050,0.99503,-0.06686,0.0
20.85850,2.54782,0.07543,0.00000,0.03013,0.99430,-0.06515,0.0
20.85860,2.72282,0.37293,0.00000,0.02928,0.99686,-0.06539,0.0
20.85870,2.98532,0.28543,0.00000,0.03184,0.99540,-0.06844,0.0
20.85880,2.93282,-0.06457,0.00000,0.03062,0.99442,-0.06832,0.0
20.85890,2.56532,-0.01207,0.00000,0.03282,0.99381,-0.06564,0.0
20.85900,2.70532,0.02293,0.00000,0.03233,0.99442,-0.06783,0.0
20.85910,2.95032,-0.02957,0.00000,0.03270,0.99320,-0.06478,0.0
20.85920,2.93282,0.04043,0.00000,0.03123,0.99576,-0.06722,0.0
20.85930,2.74032,0.07543,0.00000,0.03282,0.99576,-0.06759,0.0
20.85940,2.56532,0.16293,0.00000,0.03148,0.99601,-0.06527,0.0
20.85950,2.79282,0.18043,0.00000,0.03135,0.99564,-0.06783,0.0
20.85960,2.75782,0.07543,0.00000,0.02965,0.99637,-0.06625,0.0
20.85970,2.98532,0.19793,0.00000,0.03050,0.99357,-0.06564,0.0
20.85980,3.00282,0.12793,0.00000,0.03233,0.99198,-0.06783,0.0
20.85990,2.72282,0.11043,0.00000,0.03209,0.99381,-0.06966,0.0
20.86000,2.63532,0.14543,0.00000,0.03306,0.99625,-0.06649,0.0
20.86010,2.65282,0.28543,0.00000,0.03062,0.99393,-0.06625,0.0
20.86020,3.00282,0.16293,0.00000,0.02977,0.99650,-0.06673,0.0
20.86030,2.86282,0.32043,0.00000,0.03074,0.99662,-0.06625,0.0
20.86040,2.75782,0.28543,0.00000,0.02940,0.99845,-0.06747,0.0
20.86050,2.74032,0.12793,0.00000,0.03245,0.99308,-0.06637,0.0
20.86060,2.70532,0.05793,0.00000,0.03160,0.99723,-0.06893,0.0
20.86070,2.86282,0.11043,0.00000,0.03184,0.99454,-0.06515,0.0
20.86080,2.81032,0.07543,0.00000,0.03013,0.99442,-0.06783,0.0
20.86090,2.63532,0.14543,0.00000,0.03453,0.99418,-0.06820,0.0
20.86100,2.65282,0.21543,0.00000,0.03318,0.99369,-0.06686,0.0
20.86110,2.95032,0.25043,0.00000,0.02989,0.99430,-0.06588,0.0
20.86120,2.84532,-0.01207,0.00000,0.03196,0.99723,-0.06600,0.0
20.86130,2.75782,0.11043,0.00000,0.02989,0.99454,-0.06600,0.0
20.86140,2.49532,0.23293,0.00000,0.02952,0.99491,-0.06612,0.0
20.86150,2.89782,0.12793,0.00000,0.03050,0.99503,-0.06600,0.0
20.86160,2.82782,0.30293,0.00000,0.03196,0.99357,-0.06673,0.0
20.86170,2.56532,0.39043,0.00000,0.03245,0.99552,-0.06503,0.0
20.86180,2.61782,-0.06457,0.00000,0.03087,0.99723,-0.06588,0.0
20.86190,2.81032,0.26793,0.00000,0.03111,0.99381,-0.06478,0.0
20.86200,2.63532,0.12793,0.00000,0.03148,0.99601,-0.06649,0.0
20.86210,2.84532,-0.02957,0.00000,0.03074,0.99369,-0.06673,0.0
20.86220,2.77532,0.09293,0.00000,0.02928,0.99625,-0.06795,0.0
20.86230,2.67032,0.19793,0.00000,0.03209,0.99393,-0.06844,0.0
20.86240,2.54782,0.32043,0.00000,0.03270,0.99601,-0.06625,0.0
20.86250,2.72282,0.23293,0.00000,0.03257,0.99503,-0.06564,0.0
20.86260,2.61782,-0.04707,0.00000,0.03294,0.99564,-0.06722,0.0
20.86270,2.79282,0.12793,0.00000,0.02928,0.99467,-0.06551,0.0
20.86280,2.95032,0.09293,0.00000,0.03196,0.99381,-0.06649,0.0
20.86290,2.65282,0.00543,0.00000,0.03135,0.99540,-0.06588,0.0
20.86300,2.68782,0.04043,0.00000,0.03123,0.99503,-0.06625,0.0
20.86310,2.63532,-0.01207,0.00000,0.03013,0.99662,-0.06673,0.0
20.86320,2.58282,0.23293,0.00000,0.02940,0.99381,-0.06503,0.0
20.86330,2.72282,0.11043,0.00000,0.03123,0.99503,-0.06466,0.0
20.86340,2.81032,0.21543,0.00000,0.03343,0.99296,-0.06747,0.0
20.86350,2.70532,0.05793,0.00000,0.02891,0.99637,-0.06686,0.0
20.86360,2.56532,0.33793,0.00000,0.02977,0.99369,-0.06600,0.0
20.86370,2.79282,0.33793,0.00000,0.03636,0.99345,-0.06686,0.0
20.86380,2.95032,0.21543,0.00000,0.03257,0.99454,-0.06637,0.0
20.86390,2.67032,0.19793,0.00000,0.03148,0.99284,-0.06747,0.0
20.86400,2.63532,0.04043,0.00000,0.03355,0.99393,-0.06698,0.0
20.86410,2.70532,0.00543,0.00000,0.03013,0.99491,-0.06527,0.0
20.86420,2.95032,0.14543,0.00000,0.03270,0.99515,-0.06820,0.0
20.86430,2.89782,0.09293,0.00000,0.02977,0.99381,-0.06747,0.0
20.86440,2.61782,0.33793,0.00000,0.03135,0.99454,-0.06588,0.0
20.86450,2.65282,0.11043,0.00000,0.03331,0.99406,-0.06686,0.0
20.86460,2.82782,-0.18707,0.00000,0.03160,0.99503,-0.06649,0.0
20.86470,2.81032,0.30293,0.00000,0.03111,0.99467,-0.06503,0.0
20.86480,3.02032,0.04043,0.00000,0.03196,0.99515,-0.06588,0.0
20.86490,2.67032,0.21543,0.00000,0.03221,0.99442,-0.06442,0.0
20.86500,2.63532,0.30293,0.00000,0.03282,0.99271,-0.06649,0.0
20.86510,2.75782,0.18043,0.00000,0.03123,0.99686,-0.06625,0.0
20.86520,2.72282,0.21543,0.00000,0.02952,0.99454,-0.06673,0.0
20.86530,2.68782,0.18043,0.00000,0.03099,0.99515,-0.06393,0.0
20.86540,3.10782,-0.11707,0.00000,0.03221,0.99662,-0.06588,0.0
20.86550,3.16032,0.09293,0.00000,0.03062,0.99528,-0.06710,0.0
20.86560,2.77532,0.19793,0.00000,0.03379,0.99430,-0.06893,0.0
20.86570,2.60032,0.09293,0.00000,0.03062,0.99491,-0.06600,0.0
20.86580,2.35532,-0.16957,0.00000,0.03196,0.99528,-0.06734,0.0
20.86590,2.68782,0.26793,0.00000,0.03172,0.99503,-0.06478,0.0
20.86600,2.96782,0.04043,0.00000,0.03087,0.99393,-0.06466,0.0
20.86610,2.81032,0.05793,0.00000,0.03318,0.99589,-0.06612,0.0
20.86620,2.98532,0.19793,0.00000,0.03172,0.99442,-0.06698,0.0
20.86630,2.53032,0.14543,0.00000,0.03026,0.99357,-0.06783,0.0
20.86640,2.60032,0.14543,0.00000,0.03160,0.99479,-0.06600,0.0
20.86650,2.96782,0.02293,0.00000,0.02965,0.99540,-0.06808,0.0
20.86660,2.93282,0.16293,0.00000,0.03184,0.99369,-0.06454,0.0
20.86670,2.75782,0.00543,0.00000,0.03013,0.99418,-0.06600,0.0
20.86680,2.74032,0.02293,0.00000,0.03160,0.99088,-0.06734,0.0
20.86690,2.77532,-0.04707,0.00000,0.03026,0.99467,-0.06625,0.0
20.86700,2.70532,0.09293,0.00000,0.03026,0.99247,-0.06649,0.0
20.86710,2.93282,0.16293,0.00000,0.03026,0.99552,-0.06771,0.0
20.86720,2.86282,0.26793,0.00000,0.03270,0.99406,-0.06722,0.0
20.86730,2.58282,0.16293,0.00000,0.03233,0.99528,-0.06564,0.0
20.86740,2.51282,0.11043,0.00000,0.03245,0.99430,-0.06686,0.0
20.86750,2.75782,0.32043,0.00000,0.03050,0.99320,-0.06734,0.0
20.86760,2.89782,0.35543,0.00000,0.03331,0.99418,-0.06649,0.0
20.86770,3.09032,0.12793,0.00000,0.03062,0.99564,-0.06661,0.0
20.86780,2.89782,0.21543,0.00000,0.03038,0.99467,-0.06686,0.0
20.86790,2.53032,0.11043,0.00000,0.02867,0.99442,-0.06734,0.0
20.86800,2.75782,0.09293,0.00000,0.02928,0.99296,-0.06795,0.0
20.86810,2.77532,0.14543,0.00000,0.02965,0.99589,-0.06698,0.0
20.86820,3.07282,0.28543,0.00000,0.03001,0.99698,-0.06747,0.0
20.86830,2.75782,0.16293,0.00000,0.03074,0.99686,-0.06783,0.0
20.86840,2.44282,0.28543,0.00000,0.03087,0.99552,-0.06515,0.0
20.86850,2.61782,0.00543,0.00000,0.03172,0.99271,-0.06576,0.0
20.86860,2.84532,0.00543,0.00000,0.03148,0.99393,-0.06661,0.0
20.86870,3.03782,0.00543,0.00000,0.03099,0.99247,-0.06661,0.0
20.86880,2.82782,0.33793,0.00000,0.03026,0.99711,-0.06844,0.0
20.86890,2.68782,0.09293,0.00000,0.03209,0.99357,-0.06722,0.0
20.86900,2.56532,-0.02957,0.00000,0.03026,0.99528,-0.06527,0.0
20.86910,2.70532,0.23293,0.00000,0.03172,0.99296,-0.06710,0.0
20.86920,2.96782,0.18043,0.00000,0.03038,0.99381,-0.06795,0.0
20.86930,3.07282,0.26793,0.00000,0.03160,0.99503,-0.06808,0.0
20.86940,2.63532,-0.08207,0.00000,0.03196,0.99381,-0.06808,0.0
20.86950,2.56532,-0.09957,0.00000,0.03087,0.99479,-0.06576,0.0
20.86960,2.68782,0.04043,0.00000,0.02928,0.99369,-0.06332,0.0
20.86970,3.23032,0.18043,0.00000,0.03026,0.99528,-0.06869,0.0
20.86980,3.07282,0.09293,0.00000,0.03318,0.99589,-0.06600,0.0
20.86990,2.79282,0.11043,0.00000,0.03184,0.99259,-0.06991,0.0
20.87000,2.26782,0.14543,0.00000,0.03282,0.99515,-0.06759,0.0
20.87010,2.67032,0.11043,0.00000,0.03196,0.99296,-0.06344,0.0
20.87020,3.17782,0.26793,0.00000,0.03160,0.99454,-0.06576,0.0
20.87030,2.88032,0.39043,0.00000,0.02977,0.99332,-0.06844,0.0
20.87040,2.63532,0.09293,0.00000,0.02928,0.99467,-0.06661,0.0
20.87050,2.53032,0.09293,0.00000,0.03050,0.99479,-0.06673,0.0
20.87060,2.60032,0.12793,0.00000,0.03001,0.99503,-0.06649,0.0
