#2023/06/05 17:27:10
time,wx,wy,wz,ax,ay,az,yy,MM,dd,hh,mm,ss,ms
20.21740,0.07000,0.01942,0.00000,0.03123,0.99308,-0.07174,0.0
20.21750,-0.07000,0.01942,0.00000,0.02843,0.99308,-0.07283,0.0
20.21760,-0.14000,-0.13808,0.00000,0.02855,0.99454,-0.07393,0.0
20.21770,-0.24500,-0.10308,0.00000,0.03172,0.99418,-0.07418,0.0
20.21780,-0.12250,-0.05058,0.00000,0.03001,0.99381,-0.07393,0.0
20.21790,0.17500,-0.08558,0.00000,0.02928,0.99540,-0.07259,0.0
20.21800,0.26250,-0.26058,0.00000,0.03318,0.99467,-0.07540,0.0
20.21810,-0.05250,0.14192,0.00000,0.02794,0.99479,-0.07296,0.0
20.21820,-0.08750,-0.03308,0.00000,0.03160,0.99223,-0.07369,0.0
20.21830,0.01750,0.15942,0.00000,0.02928,0.99381,-0.07222,0.0
20.21840,0.14000,0.01942,0.00000,0.03355,0.99515,-0.07186,0.0
20.21850,-0.07000,-0.10308,0.00000,0.03355,0.99259,-0.07308,0.0
20.21860,-0.17500,0.15942,0.00000,0.03221,0.99454,-0.07149,0.0
20.21870,-0.01750,0.22942,0.00000,0.02904,0.99393,-0.07174,0.0
20.21880,0.28000,0.12442,0.00000,0.03221,0.99369,-0.07369,0.0
20.21890,0.15750,0.07192,0.00000,0.03001,0.99686,-0.07198,0.0
20.21900,0.05250,0.07192,0.00000,0.02989,0.99479,-0.07393,0.0
20.21910,-0.01750,-0.05058,0.00000,0.02965,0.99442,-0.07149,0.0
20.21920,-0.19250,-0.03308,0.00000,0.03306,0.99186,-0.07247,0.0
20.21930,0.03500,-0.10308,0.00000,0.03172,0.99772,-0.07210,0.0
20.21940,0.08750,-0.06808,0.00000,0.02818,0.99674,-0.07430,0.0
20.21950,-0.05250,0.24692,0.00000,0.03196,0.99345,-0.07271,0.0
20.21960,-0.03500,-0.01558,0.00000,0.02989,0.99564,-0.07332,0.0
20.21970,-0.01750,-0.01558,0.00000,0.03062,0.99589,-0.07027,0.0
20.21980,0.03500,-0.05058,0.00000,0.02989,0.99418,-0.07137,0.0
20.21990,0.05250,0.00192,0.00000,0.03050,0.99296,-0.07186,0.0
20.22000,0.17500,-0.03308,0.00000,0.03026,0.99406,-0.07320,0.0
20.22010,-0.05250,-0.05058,0.00000,0.02867,0.99662,-0.07283,0.0
20.22020,0.00000,0.05442,0.00000,0.03148,0.99515,-0.07198,0.0
20.22030,-0.03500,-0.12058,0.00000,0.02965,0.99345,-0.07015,0.0
20.22040,-0.01750,-0.05058,0.00000,0.03135,0.99442,-0.07052,0.0
20.22050,0.14000,-0.13808,0.00000,0.02782,0.99515,-0.07393,0.0
20.22060,0.14000,0.12442,0.00000,0.03050,0.99271,-0.07161,0.0
20.22070,0.12250,0.03692,0.00000,0.03196,0.99515,-0.07381,0.0
20.22080,0.15750,-0.20808,0.00000,0.02952,0.99503,-0.07235,0.0
20.22090,-0.07000,0.15942,0.00000,0.02940,0.99430,-0.07259,0.0
20.22100,-0.10500,0.03692,0.00000,0.02855,0.99320,-0.07137,0.0
20.22110,-0.01750,0.05442,0.00000,0.03001,0.99540,-0.07003,0.0
20.22120,0.12250,0.17692,0.00000,0.02891,0.99418,-0.07137,0.0
20.22130,-0.08750,0.08942,0.00000,0.03074,0.99235,-0.07235,0.0
20.22140,0.01750,-0.08558,0.00000,0.03099,0.99503,-0.07357,0.0
20.22150,0.08750,0.12442,0.00000,0.03160,0.99235,-0.07564,0.0
20.22160,0.05250,0.05442,0.00000,0.03245,0.99393,-0.07320,0.0
20.22170,-0.17500,-0.12058,0.00000,0.02769,0.99369,-0.07259,0.0
20.22180,-0.08750,-0.01558,0.00000,0.03160,0.99601,-0.07491,0.0
20.22190,0.03500,0.00192,0.00000,0.02965,0.99223,-0.07466,0.0
20.22200,0.10500,-0.01558,0.00000,0.03233,0.99308,-0.07100,0.0
20.22210,0.05250,-0.20808,0.00000,0.03074,0.99589,-0.07283,0.0
20.22220,-0.05250,0.22942,0.00000,0.03099,0.99576,-0.07271,0.0
20.22230,0.07000,-0.17308,0.00000,0.03062,0.99320,-0.07161,0.0
20.22240,-0.01750,0.07192,0.00000,0.03026,0.99186,-0.07137,0.0
20.22250,0.03500,0.08942,0.00000,0.03099,0.99235,-0.07186,0.0
20.22260,0.03500,-0.20808,0.00000,0.02782,0.99503,-0.07430,0.0
20.22270,0.01750,-0.08558,0.00000,0.03135,0.99296,-0.07235,0.0
20.22280,0.07000,-0.12058,0.00000,0.03111,0.99430,-0.07149,0.0
20.22290,0.14000,-0.19058,0.00000,0.03074,0.99271,-0.07174,0.0
20.22300,-0.15750,-0.20808,0.00000,0.02965,0.99381,-0.07271,0.0
20.22310,-0.03500,0.00192,0.00000,0.03050,0.99442,-0.06966,0.0
20.22320,-0.17500,0.03692,0.00000,0.02952,0.99589,-0.07210,0.0
20.22330,0.19250,0.05442,0.00000,0.03099,0.99393,-0.07235,0.0
20.22340,0.03500,0.03692,0.00000,0.02952,0.99430,-0.07369,0.0
20.22350,0.08750,0.00192,0.00000,0.03001,0.99467,-0.07320,0.0
20.22360,-0.19250,0.00192,0.00000,0.02855,0.99357,-0.07320,0.0
20.22370,-0.17500,-0.12058,0.00000,0.03160,0.99467,-0.07210,0.0
20.22380,0.10500,0.19442,0.00000,0.03111,0.99418,-0.07125,0.0
20.22390,-0.01750,-0.03308,0.00000,0.03050,0.99662,-0.07186,0.0
20.22400,0.19250,-0.15558,0.00000,0.03148,0.99271,-0.07369,0.0
20.22410,-0.07000,0.01942,0.00000,0.02806,0.99393,-0.06991,0.0
20.22420,-0.05250,-0.10308,0.00000,0.03111,0.99357,-0.07247,0.0
20.22430,0.28000,0.07192,0.00000,0.02916,0.99369,-0.07344,0.0
20.22440,0.00000,0.01942,0.00000,0.02928,0.99345,-0.07247,0.0
20.22450,-0.12250,-0.17308,0.00000,0.03111,0.99357,-0.07210,0.0
20.22460,-0.08750,0.01942,0.00000,0.03221,0.99759,-0.07247,0.0
20.22470,0.03500,0.12442,0.00000,0.03135,0.99454,-0.07222,0.0
20.22480,0.38500,-0.03308,0.00000,0.02989,0.99503,-0.07418,0.0
20.22490,-0.08750,-0.12058,0.00000,0.03282,0.99552,-0.07479,0.0
20.22500,0.00000,-0.12058,0.00000,0.02977,0.99454,-0.07418,0.0
20.22510,0.01750,0.14192,0.00000,0.02794,0.98942,-0.07344,0.0
20.22520,-1.06750,-0.08558,0.00000,0.03184,0.99625,-0.06917,0.0
20.22530,-0.73500,-0.22558,0.00000,0.03257,0.99662,-0.06539,0.0
20.22540,2.38000,0.24692,0.00000,0.03184,0.99369,-0.06869,0.0
20.22550,2.45000,0.49192,0.00000,0.03026,0.99503,-0.08150,0.0
20.22560,-0.50750,-0.17308,0.00000,0.03355,0.99137,-0.08064,0.0
20.22570,-3.46500,-0.45308,0.00000,0.03257,0.99491,-0.06832,0.0
20.22580,-0.99750,-0.13808,0.00000,0.02867,0.99552,-0.06356,0.0
20.22590,2.25750,0.47442,0.00000,0.02989,0.99247,-0.06649,0.0
20.22600,2.87000,0.52692,0.00000,0.03074,0.99515,-0.08089,0.0
20.22610,-0.36750,-0.33058,0.00000,0.02708,0.99503,-0.08137,0.0
20.22620,-2.24000,-0.50558,0.00000,0.03062,0.99540,-0.07296,0.0
20.22630,-1.43500,-0.33058,0.00000,0.02891,0.99637,-0.06820,0.0
20.22640,0.42000,0.26442,0.00000,0.02989,0.99711,-0.06710,0.0
20.22650,1.54000,0.08942,0.00000,0.02830,0.99345,-0.07381,0.0
20.22660,0.66500,0.21192,0.00000,0.02928,0.99235,-0.07564,0.0
20.22670,-1.01500,0.08942,0.00000,0.02916,0.99406,-0.07357,0.0
20.22680,-1.20750,-0.29558,0.00000,0.03148,0.99589,-0.07308,0.0
20.22690,0.03500,0.03692,0.00000,0.02806,0.99515,-0.06722,0.0
20.22700,1.43500,0.12442,0.00000,0.02879,0.99381,-0.07418,0.0
20.22710,0.47250,0.08942,0.00000,0.03013,0.99491,-0.07832,0.0
20.22720,-1.68000,-0.31308,0.00000,0.03245,0.99515,-0.06844,0.0
20.22730,-0.92750,-0.24308,0.00000,0.02830,0.99296,-0.06637,0.0
20.22740,1.48750,0.40442,0.00000,0.03294,0.99503,-0.07137,0.0
20.22750,2.73000,0.36942,0.00000,0.02904,0.99210,-0.08113,0.0
20.22760,-0.63000,0.08942,0.00000,0.03026,0.99198,-0.08113,0.0
20.22770,-2.88750,-0.57558,0.00000,0.02708,0.99564,-0.07210,0.0
20.22780,-1.66250,-0.45308,0.00000,0.02977,0.99454,-0.06295,0.0
20.22790,2.29250,0.28192,0.00000,0.03111,0.99528,-0.06649,0.0
20.22800,3.16750,0.50942,0.00000,0.03233,0.99491,-0.07857,0.0
20.22810,0.56000,0.17692,0.00000,0.02928,0.99467,-0.08101,0.0
20.22820,-2.60750,-0.47058,0.00000,0.02782,0.99418,-0.07393,0.0
20.22830,-1.69750,-0.24308,0.00000,0.03074,0.99540,-0.06466,0.0
20.22840,0.75250,-0.01558,0.00000,0.03099,0.99430,-0.06478,0.0
20.22850,2.25750,0.42192,0.00000,0.03001,0.99479,-0.07515,0.0
20.22860,0.70000,0.01942,0.00000,0.02940,0.99345,-0.08040,0.0
20.22870,-1.66250,-0.24308,0.00000,0.02965,0.99503,-0.07149,0.0
20.22880,-1.71500,-0.24308,0.00000,0.02940,0.99503,-0.07027,0.0
20.22890,0.64750,0.05442,0.00000,0.03062,0.99369,-0.06856,0.0
20.22900,1.96000,0.36942,0.00000,0.02952,0.99491,-0.07710,0.0
20.22910,0.57750,0.17692,0.00000,0.02977,0.99540,-0.08003,0.0
20.22920,-1.97750,-0.24308,0.00000,0.03026,0.99308,-0.07405,0.0
20.22930,-1.57500,-0.33058,0.00000,0.03160,0.99284,-0.06442,0.0
20.22940,0.98000,0.05442,0.00000,0.02989,0.99589,-0.06527,0.0
20.22950,2.97500,0.42192,0.00000,0.03050,0.99674,-0.08040,0.0
20.22960,0.24500,-0.08558,0.00000,0.02965,0.99540,-0.08040,0.0
20.22970,-2.60750,-0.57558,0.00000,0.02830,0.99503,-0.07576,0.0
20.22980,-2.08250,-0.34808,0.00000,0.03209,0.99296,-0.06234,0.0
20.22990,1.57500,0.26442,0.00000,0.02891,0.99515,-0.06417,0.0
20.23000,3.09750,0.61442,0.00000,0.02879,0.99650,-0.07332,0.0
20.23010,0.57750,0.12442,0.00000,0.02977,0.99601,-0.07991,0.0
20.23020,-2.83500,-0.34808,0.00000,0.02977,0.99418,-0.07235,0.0
20.23030,-1.62750,-0.10308,0.00000,0.03245,0.99515,-0.06503,0.0
20.23040,0.94500,0.29942,0.00000,0.03172,0.99491,-0.06368,0.0
20.23050,2.27500,0.22942,0.00000,0.02952,0.99430,-0.07686,0.0
20.23060,-0.15750,-0.10308,0.00000,0.03135,0.99564,-0.07906,0.0
20.23070,-1.87250,-0.27808,0.00000,0.02916,0.99589,-0.07332,0.0
20.23080,-1.34750,-0.24308,0.00000,0.02721,0.99284,-0.06710,0.0
20.23090,1.24250,0.19442,0.00000,0.03160,0.99515,-0.06856,0.0
20.23100,1.61000,0.05442,0.00000,0.02940,0.99625,-0.07235,0.0
20.23110,0.07000,0.14192,0.00000,0.03038,0.99454,-0.07442,0.0
20.23120,-1.19000,-0.24308,0.00000,0.03062,0.99589,-0.07271,0.0
20.23130,-1.17250,0.03692,0.00000,0.02769,0.99528,-0.06564,0.0
20.23140,0.63000,0.00192,0.00000,0.02965,0.99430,-0.06844,0.0
20.23150,1.66250,0.22942,0.00000,0.03221,0.99357,-0.07515,0.0
20.23160,0.00000,0.07192,0.00000,0.03038,0.99491,-0.07954,0.0
20.23170,-1.50500,-0.26058,0.00000,0.02952,0.99528,-0.07113,0.0
20.23180,-1.15500,-0.29558,0.00000,0.03355,0.99467,-0.06832,0.0
20.23190,0.87500,-0.15558,0.00000,0.03135,0.99552,-0.06625,0.0
20.23200,1.66250,0.22942,0.00000,0.03062,0.99759,-0.07296,0.0
20.23210,0.61250,0.07192,0.00000,0.03148,0.99674,-0.07625,0.0
20.23220,-1.57500,-0.27808,0.00000,0.02769,0.99454,-0.07210,0.0
20.23230,-0.96250,-0.38308,0.00000,0.03050,0.99576,-0.06698,0.0
20.23240,0.63000,0.12442,0.00000,0.02830,0.99393,-0.06783,0.0
20.23250,1.50500,0.35192,0.00000,0.02928,0.99491,-0.07344,0.0
20.23260,-0.17500,0.03692,0.00000,0.03013,0.99442,-0.07503,0.0
20.23270,-1.22500,-0.22558,0.00000,0.02928,0.99515,-0.06893,0.0
20.23280,-0.14000,-0.12058,0.00000,0.03184,0.99418,-0.07039,0.0
20.23290,1.26000,0.03692,0.00000,0.02989,0.99430,-0.07149,0.0
20.23300,0.71750,-0.03308,0.00000,0.03294,0.99369,-0.07601,0.0
20.23310,-0.89250,-0.34808,0.00000,0.03062,0.99320,-0.07540,0.0
20.23320,-1.10250,-0.27808,0.00000,0.03038,0.99515,-0.06747,0.0
20.23330,0.29750,-0.05058,0.00000,0.03026,0.99357,-0.06966,0.0
20.23340,1.50500,0.03692,0.00000,0.03221,0.99393,-0.07039,0.0
20.23350,0.54250,0.22942,0.00000,0.03038,0.99320,-0.07430,0.0
20.23360,-0.57750,-0.20808,0.00000,0.02952,0.99381,-0.07442,0.0
20.23370,-1.31250,-0.22558,0.00000,0.03026,0.99479,-0.06942,0.0
20.23380,0.00000,0.01942,0.00000,0.02855,0.99491,-0.06478,0.0
20.23390,1.59250,0.22942,0.00000,0.02916,0.99369,-0.06795,0.0
20.23400,0.94500,0.31692,0.00000,0.03087,0.99259,-0.07564,0.0
20.23410,-0.87500,-0.17308,0.00000,0.03013,0.99564,-0.07625,0.0
20.23420,-1.66250,-0.15558,0.00000,0.03184,0.99454,-0.06869,0.0
20.23430,-0.19250,-0.13808,0.00000,0.02904,0.99467,-0.06612,0.0
20.23440,1.50500,-0.03308,0.00000,0.02977,0.99223,-0.07149,0.0
20.23450,0.70000,0.22942,0.00000,0.03160,0.99454,-0.07430,0.0
20.23460,-0.73500,-0.12058,0.00000,0.03038,0.99479,-0.07491,0.0
20.23470,-1.20750,-0.24308,0.00000,0.02891,0.99393,-0.06625,0.0
20.23480,-0.12250,0.24692,0.00000,0.02940,0.99442,-0.06588,0.0
20.23490,1.40000,0.17692,0.00000,0.03087,0.99845,-0.07320,0.0
20.23500,0.64750,0.01942,0.00000,0.02965,0.99332,-0.07357,0.0
20.23510,-0.87500,0.15942,0.00000,0.02916,0.99308,-0.07332,0.0
20.23520,-0.98000,-0.27808,0.00000,0.03038,0.99491,-0.07039,0.0
20.23530,0.26250,0.00192,0.00000,0.03038,0.99430,-0.06917,0.0
20.23540,0.68250,0.33442,0.00000,0.03221,0.99345,-0.07222,0.0
20.23550,0.26250,0.10692,0.00000,0.03013,0.99430,-0.07442,0.0
20.23560,-0.40250,-0.03308,0.00000,0.02989,0.99674,-0.07381,0.0
20.23570,-0.64750,-0.08558,0.00000,0.03111,0.99271,-0.06905,0.0
20.23580,-0.08750,0.03692,0.00000,0.03172,0.99515,-0.06832,0.0
20.23590,0.40250,0.08942,0.00000,0.03062,0.99540,-0.07125,0.0
20.23600,0.61250,0.17692,0.00000,0.03148,0.99540,-0.07344,0.0
20.23610,-0.35000,0.12442,0.00000,0.03196,0.99284,-0.07137,0.0
20.23620,-0.66500,-0.31308,0.00000,0.02928,0.99723,-0.06856,0.0
20.23630,-0.22750,0.01942,0.00000,0.02684,0.99540,-0.06783,0.0
20.23640,0.64750,-0.05058,0.00000,0.03001,0.99430,-0.07064,0.0
20.23650,0.52500,-0.41808,0.00000,0.02977,0.99528,-0.07454,0.0
20.23660,-0.43750,-0.06808,0.00000,0.03294,0.99528,-0.07064,0.0
20.23670,-0.57750,-0.15558,0.00000,0.03111,0.99564,-0.06954,0.0
20.23680,0.12250,0.08942,0.00000,0.03123,0.99479,-0.06930,0.0
20.23690,0.59500,0.17692,0.00000,0.03038,0.99515,-0.07174,0.0
20.23700,0.22750,0.12442,0.00000,0.02965,0.99601,-0.07100,0.0
20.23710,-0.49000,-0.06808,0.00000,0.03221,0.99540,-0.07039,0.0
20.23720,-0.33250,-0.01558,0.00000,0.03160,0.99393,-0.06966,0.0
20.23730,0.42000,0.15942,0.00000,0.02965,0.99369,-0.07039,0.0
20.23740,0.45500,0.03692,0.00000,0.02916,0.99491,-0.07466,0.0
20.23750,-0.40250,-0.10308,0.00000,0.03001,0.99515,-0.07381,0.0
20.23760,-0.52500,-0.10308,0.00000,0.02977,0.99723,-0.06722,0.0
20.23770,0.15750,0.03692,0.00000,0.03184,0.99406,-0.06954,0.0
20.23780,0.45500,0.07192,0.00000,0.03050,0.99454,-0.07149,0.0
20.23790,0.12250,-0.10308,0.00000,0.03001,0.99430,-0.07320,0.0
20.23800,-0.43750,-0.31308,0.00000,0.03196,0.99381,-0.07283,0.0
20.23810,-0.17500,-0.05058,0.00000,0.03050,0.99467,-0.07052,0.0
20.23820,-0.08750,0.14192,0.00000,0.03209,0.99345,-0.06942,0.0
20.23830,0.45500,0.01942,0.00000,0.03026,0.99418,-0.07283,0.0
20.23840,0.31500,-0.06808,0.00000,0.03038,0.99381,-0.07393,0.0
20.23850,-0.07000,-0.24308,0.00000,0.03282,0.99320,-0.07405,0.0
20.23860,-0.21000,-0.17308,0.00000,0.02952,0.99454,-0.07039,0.0
20.23870,-0.22750,-0.13808,0.00000,0.02891,0.99467,-0.07186,0.0
20.23880,0.43750,0.15942,0.00000,0.02904,0.99528,-0.07222,0.0
20.23890,0.29750,0.07192,0.00000,0.03233,0.99271,-0.07308,0.0
20.23900,-0.17500,0.07192,0.00000,0.03184,0.99345,-0.07320,0.0
20.23910,-0.24500,-0.01558,0.00000,0.03074,0.99637,-0.06930,0.0
20.23920,0.08750,-0.17308,0.00000,0.03233,0.99223,-0.07125,0.0
20.23930,0.38500,0.12442,0.00000,0.03123,0.99271,-0.07161,0.0
20.23940,0.21000,-0.03308,0.00000,0.03026,0.99613,-0.07247,0.0
20.23950,-0.42000,0.21192,0.00000,0.03087,0.99467,-0.07222,0.0
20.23960,-0.19250,-0.01558,0.00000,0.02879,0.99357,-0.07186,0.0
20.23970,0.05250,0.14192,0.00000,0.03221,0.99101,-0.07357,0.0
20.23980,0.35000,0.00192,0.00000,0.03172,0.99528,-0.07357,0.0
20.23990,0.00000,-0.17308,0.00000,0.02867,0.99296,-0.07430,0.0
20.24000,-0.42000,-0.20808,0.00000,0.03123,0.99223,-0.07052,0.0
20.24010,-0.15750,-0.05058,0.00000,0.02916,0.99528,-0.06893,0.0
20.24020,0.22750,0.21192,0.00000,0.03123,0.99430,-0.07357,0.0
20.24030,0.19250,0.26442,0.00000,0.03148,0.99674,-0.07296,0.0
20.24040,-0.08750,0.14192,0.00000,0.03074,0.99430,-0.07283,0.0
20.24050,-0.24500,0.05442,0.00000,0.02952,0.99381,-0.07198,0.0
20.24060,0.03500,-0.03308,0.00000,0.03172,0.99308,-0.07296,0.0
20.24070,0.01750,0.10692,0.00000,0.03050,0.99381,-0.07332,0.0
20.24080,0.10500,-0.27808,0.00000,0.03074,0.99625,-0.07344,0.0
20.24090,-0.12250,-0.08558,0.00000,0.03038,0.99564,-0.07283,0.0
20.24100,-0.05250,-0.10308,0.00000,0.03184,0.99479,-0.07466,0.0
20.24110,-0.03500,-0.06808,0.00000,0.03160,0.99503,-0.07491,0.0
20.24120,0.17500,0.07192,0.00000,0.02977,0.99467,-0.07186,0.0
20.24130,0.19250,-0.03308,0.00000,0.02989,0.99320,-0.07369,0.0
20.24140,-0.01750,0.15942,0.00000,0.02830,0.99491,-0.07320,0.0
20.24150,-0.17500,-0.12058,0.00000,0.03245,0.99210,-0.07332,0.0
20.24160,-0.07000,-0.20808,0.00000,0.03062,0.99381,-0.07064,0.0
20.24170,0.12250,0.07192,0.00000,0.02965,0.99430,-0.07210,0.0
20.24180,0.22750,0.12442,0.00000,0.03111,0.99686,-0.07296,0.0
20.24190,-0.14000,0.15942,0.00000,0.03001,0.99101,-0.07479,0.0
20.24200,-0.07000,-0.03308,0.00000,0.02977,0.99247,-0.07259,0.0
20.24210,0.07000,-0.27808,0.00000,0.03160,0.99454,-0.07052,0.0
20.24220,0.38500,-0.05058,0.00000,0.02879,0.99406,-0.06966,0.0
20.24230,-0.22750,-0.01558,0.00000,0.03099,0.99759,-0.07357,0.0
20.24240,-0.14000,-0.10308,0.00000,0.03099,0.99406,-0.07125,0.0
20.24250,-0.08750,0.01942,0.00000,0.02952,0.99515,-0.06991,0.0
20.24260,0.40250,-0.05058,0.00000,0.03111,0.99479,-0.07100,0.0
20.24270,0.31500,0.15942,0.00000,0.03135,0.99503,-0.07296,0.0
20.24280,-0.19250,0.03692,0.00000,0.03050,0.99479,-0.07576,0.0
20.24290,-0.49000,-0.19058,0.00000,0.03123,0.99613,-0.07418,0.0
20.24300,0.14000,-0.03308,0.00000,0.02757,0.99381,-0.07210,0.0
20.24310,0.33250,0.00192,0.00000,0.03196,0.99576,-0.07222,0.0
20.24320,0.22750,0.01942,0.00000,0.03123,0.99491,-0.07479,0.0
20.24330,0.00000,-0.10308,0.00000,0.02977,0.99442,-0.07479,0.0
20.24340,-0.26250,-0.12058,0.00000,0.02891,0.99418,-0.07296,0.0
20.24350,0.10500,-0.01558,0.00000,0.03233,0.99552,-0.07503,0.0
20.24360,0.33250,0.01942,0.00000,0.03233,0.99479,-0.07174,0.0
20.24370,-0.03500,-0.03308,0.00000,0.03001,0.99479,-0.07405,0.0
20.24380,-0.29750,-0.12058,0.00000,0.03196,0.99589,-0.07247,0.0
20.24390,-0.14000,-0.10308,0.00000,0.03135,0.99308,-0.07308,0.0
20.24400,0.24500,0.07192,0.00000,0.03367,0.99540,-0.07247,0.0
20.24410,0.17500,0.15942,0.00000,0.03135,0.99369,-0.07564,0.0
20.24420,-0.24500,0.00192,0.00000,0.03013,0.99357,-0.07515,0.0
20.24430,-0.31500,0.14192,0.00000,0.02818,0.99247,-0.07344,0.0
20.24440,-0.17500,0.21192,0.00000,0.02916,0.99491,-0.07125,0.0
20.24450,0.26250,0.17692,0.00000,0.02977,0.99503,-0.07222,0.0
20.24460,0.26250,-0.03308,0.00000,0.03062,0.99540,-0.07320,0.0
20.24470,-0.33250,-0.10308,0.00000,0.03123,0.99576,-0.07552,0.0
20.24480,-0.31500,0.15942,0.00000,0.02952,0.99467,-0.07247,0.0
20.24490,0.15750,-0.24308,0.00000,0.03074,0.99576,-0.07283,0.0
20.24500,0.33250,0.08942,0.00000,0.03001,0.99393,-0.07198,0.0
20.24510,0.24500,-0.08558,0.00000,0.02965,0.99381,-0.07369,0.0
20.24520,0.01750,-0.03308,0.00000,0.02977,0.99491,-0.07332,0.0
20.24530,-0.19250,-0.03308,0.00000,0.02940,0.99223,-0.07235,0.0
20.24540,0.00000,-0.10308,0.00000,0.03172,0.99576,-0.07418,0.0
20.24550,0.35000,0.12442,0.00000,0.03062,0.99381,-0.07393,0.0
20.24560,0.17500,0.10692,0.00000,0.03038,0.99479,-0.07210,0.0
20.24570,-0.28000,0.24692,0.00000,0.03013,0.99381,-0.07332,0.0
20.24580,-0.36750,0.14192,0.00000,0.03196,0.99442,-0.07259,0.0
20.24590,-0.01750,0.07192,0.00000,0.03038,0.99528,-0.07186,0.0
20.24600,0.21000,-0.06808,0.00000,0.02989,0.99345,-0.07161,0.0
20.24610,0.14000,-0.01558,0.00000,0.03038,0.99601,-0.07479,0.0
20.24620,-0.10500,-0.27808,0.00000,0.02965,0.99345,-0.07381,0.0
20.24630,0.01750,-0.08558,0.00000,0.03001,0.99589,-0.07283,0.0
20.24640,-0.19250,0.19442,0.00000,0.03050,0.99271,-0.07296,0.0
20.24650,0.21000,0.01942,0.00000,0.03245,0.99442,-0.07125,0.0
20.24660,0.07000,-0.20808,0.00000,0.03050,0.99662,-0.07418,0.0
20.24670,-0.12250,0.17692,0.00000,0.02977,0.99418,-0.07283,0.0
20.24680,-0.01750,0.01942,0.00000,0.02879,0.99467,-0.07332,0.0
20.24690,0.08750,0.01942,0.00000,0.02952,0.99613,-0.07283,0.0
20.24700,0.24500,0.01942,0.00000,0.03184,0.99491,-0.07442,0.0
20.24710,0.08750,0.15942,0.00000,0.03245,0.99857,-0.07381,0.0
20.24720,0.07000,-0.24308,0.00000,0.02928,0.99369,-0.07454,0.0
20.24730,-0.14000,0.28192,0.00000,0.03148,0.99467,-0.07320,0.0
20.24740,0.10500,0.03692,0.00000,0.02769,0.99601,-0.07308,0.0
20.24750,-0.03500,-0.03308,0.00000,0.03111,0.99589,-0.07161,0.0
20.24760,-0.15750,0.17692,0.00000,0.02830,0.99393,-0.07503,0.0
20.24770,-0.22750,-0.06808,0.00000,0.02965,0.99247,-0.07271,0.0
20.24780,-0.14000,0.07192,0.00000,0.02928,0.99357,-0.07442,0.0
20.24790,0.05250,-0.13808,0.00000,0.02989,0.99552,-0.07405,0.0
20.24800,0.26250,0.10692,0.00000,0.03074,0.99528,-0.07344,0.0
20.24810,0.17500,0.07192,0.00000,0.02977,0.99406,-0.07491,0.0
20.24820,0.03500,-0.15558,0.00000,0.03221,0.99503,-0.07649,0.0
20.24830,-0.14000,0.08942,0.00000,0.03074,0.99576,-0.07454,0.0
20.24840,0.03500,0.05442,0.00000,0.02904,0.99418,-0.07308,0.0
20.24850,0.01750,-0.10308,0.00000,0.02989,0.99357,-0.07466,0.0
20.24860,0.19250,0.10692,0.00000,0.03111,0.99479,-0.07369,0.0
20.24870,-0.03500,0.31692,0.00000,0.03087,0.99442,-0.07247,0.0
20.24880,-0.15750,0.17692,0.00000,0.02867,0.99406,-0.07466,0.0
20.24890,-0.01750,0.14192,0.00000,0.03013,0.99332,-0.07161,0.0
20.24900,0.07000,0.07192,0.00000,0.02977,0.99540,-0.07259,0.0
20.24910,0.03500,-0.13808,0.00000,0.03001,0.99308,-0.07527,0.0
20.24920,-0.07000,-0.29558,0.00000,0.02977,0.99235,-0.07527,0.0
20.24930,-0.17500,0.14192,0.00000,0.03123,0.99259,-0.07259,0.0
20.24940,0.03500,-0.19058,0.00000,0.03172,0.99503,-0.07100,0.0
20.24950,0.26250,0.00192,0.00000,0.02928,0.99454,-0.07271,0.0
20.24960,0.12250,-0.06808,0.00000,0.03038,0.99613,-0.07149,0.0
20.24970,-0.22750,-0.01558,0.00000,0.02989,0.99747,-0.07320,0.0
20.24980,-0.14000,-0.05058,0.00000,0.03038,0.99454,-0.07210,0.0
20.24990,-0.07000,-0.06808,0.00000,0.03050,0.99576,-0.07344,0.0
20.25000,0.22750,0.15942,0.00000,0.03038,0.99393,-0.07442,0.0
20.25010,0.05250,0.21192,0.00000,0.03087,0.99369,-0.07552,0.0
20.25020,-0.35000,-0.01558,0.00000,0.03038,0.99479,-0.07332,0.0
20.25030,-0.35000,-0.03308,0.00000,0.02940,0.99369,-0.07308,0.0
20.25040,0.17500,0.05442,0.00000,0.03306,0.99259,-0.07210,0.0
20.25050,0.12250,0.26442,0.00000,0.02965,0.99357,-0.07418,0.0
20.25060,0.24500,-0.17308,0.00000,0.03013,0.99503,-0.07430,0.0
20.25070,-0.49000,0.05442,0.00000,0.02806,0.99442,-0.07235,0.0
20.25080,-0.14000,-0.01558,0.00000,0.03123,0.99454,-0.07125,0.0
20.25090,0.33250,-0.05058,0.00000,0.02843,0.99113,-0.07454,0.0
20.25100,0.26250,0.22942,0.00000,0.02806,0.99271,-0.07332,0.0
20.25110,0.10500,0.12442,0.00000,0.03001,0.99381,-0.07515,0.0
20.25120,-0.35000,0.12442,0.00000,0.02928,0.99723,-0.07271,0.0
20.25130,-0.07000,-0.13808,0.00000,0.03013,0.99418,-0.07296,0.0
20.25140,0.24500,-0.01558,0.00000,0.03087,0.99296,-0.07186,0.0
20.25150,0.24500,0.22942,0.00000,0.03013,0.99381,-0.07393,0.0
20.25160,0.03500,0.31692,0.00000,0.03087,0.99540,-0.07283,0.0
20.25170,-0.35000,-0.05058,0.00000,0.03184,0.99454,-0.07332,0.0
20.25180,-0.01750,0.00192,0.00000,0.03209,0.99259,-0.07027,0.0
20.25190,0.01750,0.19442,0.00000,0.03196,0.99564,-0.07222,0.0
20.25200,0.33250,0.33442,0.00000,0.03111,0.99454,-0.07430,0.0
20.25210,0.01750,0.05442,0.00000,0.02916,0.99540,-0.07161,0.0
20.25220,-0.43750,-0.10308,0.00000,0.03172,0.99259,-0.07332,0.0
20.25230,-0.38500,0.05442,0.00000,0.02989,0.99564,-0.07332,0.0
20.25240,0.26250,-0.29558,0.00000,0.02879,0.99320,-0.07198,0.0
20.25250,0.33250,-0.05058,0.00000,0.03087,0.99454,-0.07186,0.0
20.25260,0.26250,-0.01558,0.00000,0.03001,0.99552,-0.07344,0.0
20.25270,-0.26250,-0.06808,0.00000,0.03257,0.99198,-0.07259,0.0
20.25280,0.01750,-0.15558,0.00000,0.03099,0.99491,-0.07271,0.0
20.25290,0.17500,0.08942,0.00000,0.03111,0.99247,-0.07247,0.0
20.25300,0.26250,-0.15558,0.00000,0.02940,0.99479,-0.07369,0.0
20.25310,-0.14000,0.08942,0.00000,0.03074,0.99418,-0.07454,0.0
20.25320,-0.40250,0.00192,0.00000,0.02965,0.99369,-0.07247,0.0
20.25330,0.14000,0.08942,0.00000,0.03135,0.99540,-0.07003,0.0
20.25340,0.15750,-0.06808,0.00000,0.03074,0.99418,-0.07198,0.0
20.25350,0.24500,-0.31308,0.00000,0.03148,0.99393,-0.07247,0.0
20.25360,-0.21000,0.22942,0.00000,0.03196,0.99479,-0.07100,0.0
20.25370,-0.14000,-0.08558,0.00000,0.03221,0.99345,-0.07137,0.0
20.25380,-0.12250,0.07192,0.00000,0.03184,0.99528,-0.07283,0.0
20.25390,0.17500,0.03692,0.00000,0.02965,0.99418,-0.07283,0.0
20.25400,0.19250,-0.08558,0.00000,0.03233,0.99650,-0.07393,0.0
20.25410,0.01750,0.07192,0.00000,0.03038,0.99271,-0.07271,0.0
20.25420,0.01750,-0.03308,0.00000,0.03172,0.99308,-0.07222,0.0
20.25430,0.17500,-0.15558,0.00000,0.03074,0.99479,-0.07113,0.0
20.25440,0.31500,0.03692,0.00000,0.03013,0.99540,-0.06930,0.0
20.25450,0.05250,-0.13808,0.00000,0.02940,0.99271,-0.07430,0.0
20.25460,-0.15750,-0.06808,0.00000,0.02843,0.99320,-0.07296,0.0
20.25470,-0.01750,-0.05058,0.00000,0.03111,0.99515,-0.07088,0.0
20.25480,0.01750,-0.08558,0.00000,0.03062,0.99467,-0.06954,0.0
20.25490,0.36750,0.10692,0.00000,0.03099,0.99357,-0.07332,0.0
20.25500,0.19250,0.03692,0.00000,0.02855,0.99210,-0.07332,0.0
20.25510,-0.35000,0.10692,0.00000,0.03184,0.99515,-0.07210,0.0
20.25520,-0.19250,-0.17308,0.00000,0.03087,0.99247,-0.07235,0.0
20.25530,0.24500,-0.12058,0.00000,0.03087,0.99491,-0.07271,0.0
20.25540,0.33250,0.15942,0.00000,0.03001,0.99491,-0.07418,0.0
20.25550,0.21000,-0.13808,0.00000,0.02965,0.99674,-0.07576,0.0
20.25560,-0.28000,-0.15558,0.00000,0.02830,0.99467,-0.06966,0.0
20.25570,-0.21000,-0.08558,0.00000,0.02855,0.99491,-0.07357,0.0
20.25580,0.15750,-0.12058,0.00000,0.03050,0.99442,-0.07052,0.0
20.25590,0.40250,-0.06808,0.00000,0.02879,0.99357,-0.07320,0.0
20.25600,0.14000,-0.19058,0.00000,0.02989,0.99381,-0.07540,0.0
20.25610,-0.01750,0.05442,0.00000,0.02989,0.99479,-0.07418,0.0
20.25620,-0.07000,-0.06808,0.00000,0.02989,0.99247,-0.07320,0.0
20.25630,0.07000,0.08942,0.00000,0.02965,0.99393,-0.07381,0.0
20.25640,0.15750,0.14192,0.00000,0.02965,0.99210,-0.07405,0.0
20.25650,0.08750,0.17692,0.00000,0.02879,0.99576,-0.07369,0.0
20.25660,-0.28000,0.21192,0.00000,0.03148,0.99454,-0.07271,0.0
20.25670,-0.33250,-0.03308,0.00000,0.02843,0.99393,-0.07332,0.0
20.25680,0.28000,-0.10308,0.00000,0.03111,0.99381,-0.07210,0.0
20.25690,0.35000,0.10692,0.00000,0.03001,0.99467,-0.07479,0.0
20.25700,0.45500,-0.12058,0.00000,0.03026,0.99479,-0.07210,0.0
20.25710,-0.26250,-0.13808,0.00000,0.02867,0.99552,-0.07296,0.0
20.25720,-0.47250,-0.06808,0.00000,0.03184,0.99235,-0.07247,0.0
20.25730,-0.15750,0.08942,0.00000,0.03172,0.99332,-0.07052,0.0
20.25740,0.35000,-0.03308,0.00000,0.03013,0.99589,-0.07198,0.0
20.25750,0.35000,0.07192,0.00000,0.03233,0.99491,-0.07576,0.0
20.25760,-0.22750,-0.05058,0.00000,0.02904,0.99503,-0.07515,0.0
20.25770,-0.26250,-0.03308,0.00000,0.03099,0.99442,-0.07283,0.0
20.25780,0.07000,-0.24308,0.00000,0.03160,0.99320,-0.07052,0.0
20.25790,0.15750,0.10692,0.00000,0.03013,0.99637,-0.07283,0.0
20.25800,0.12250,-0.10308,0.00000,0.03196,0.99393,-0.07466,0.0
20.25810,-0.47250,-0.10308,0.00000,0.03160,0.99662,-0.07344,0.0
20.25820,-0.28000,0.08942,0.00000,0.03038,0.99552,-0.07027,0.0
20.25830,0.03500,0.15942,0.00000,0.03245,0.99369,-0.07259,0.0
20.25840,0.38500,0.10692,0.00000,0.03111,0.99479,-0.07296,0.0
20.25850,0.10500,-0.08558,0.00000,0.03062,0.99613,-0.07174,0.0
20.25860,-0.45500,-0.12058,0.00000,0.03099,0.99491,-0.07174,0.0
20.25870,-0.24500,-0.19058,0.00000,0.03184,0.99406,-0.07088,0.0
20.25880,0.22750,-0.01558,0.00000,0.02855,0.99515,-0.07015,0.0
20.25890,0.42000,-0.06808,0.00000,0.02867,0.99686,-0.07320,0.0
20.25900,0.10500,0.21192,0.00000,0.03062,0.99552,-0.07527,0.0
20.25910,-0.24500,-0.05058,0.00000,0.02843,0.99564,-0.07137,0.0
20.25920,-0.08750,-0.33058,0.00000,0.03087,0.99406,-0.07247,0.0
20.25930,0.14000,-0.06808,0.00000,0.03184,0.99454,-0.06930,0.0
20.25940,0.29750,0.19442,0.00000,0.03160,0.99430,-0.07161,0.0
20.25950,0.01750,0.19442,0.00000,0.03148,0.99650,-0.07503,0.0
20.25960,-0.17500,-0.08558,0.00000,0.02855,0.99381,-0.07405,0.0
20.25970,-0.10500,-0.15558,0.00000,0.02879,0.99454,-0.07222,0.0
20.25980,-0.03500,-0.03308,0.00000,0.03062,0.99515,-0.07222,0.0
20.25990,0.26250,0.07192,0.00000,0.02879,0.99369,-0.07454,0.0
20.26000,-0.05250,0.05442,0.00000,0.03062,0.99552,-0.07308,0.0
20.26010,-0.19250,-0.08558,0.00000,0.02879,0.99528,-0.06966,0.0
20.26020,0.01750,-0.06808,0.00000,0.03318,0.99345,-0.07222,0.0
20.26030,0.01750,0.15942,0.00000,0.02940,0.99674,-0.07088,0.0
20.26040,0.21000,0.12442,0.00000,0.02916,0.99576,-0.07332,0.0
20.26050,-0.08750,0.08942,0.00000,0.02977,0.99467,-0.07271,0.0
20.26060,-0.03500,-0.10308,0.00000,0.03038,0.99528,-0.07186,0.0
20.26070,-0.14000,-0.08558,0.00000,0.03050,0.99454,-0.07100,0.0
20.26080,0.12250,0.03692,0.00000,0.03453,0.99467,-0.07137,0.0
20.26090,0.28000,-0.12058,0.00000,0.03123,0.99418,-0.07381,0.0
20.26100,0.21000,-0.05058,0.00000,0.03013,0.99552,-0.07540,0.0
20.26110,-0.12250,-0.08558,0.00000,0.02818,0.99247,-0.07259,0.0
20.26120,-0.26250,-0.08558,0.00000,0.02806,0.99503,-0.07308,0.0
20.26130,0.12250,-0.01558,0.00000,0.02940,0.99357,-0.07137,0.0
20.26140,0.22750,-0.05058,0.00000,0.02830,0.99393,-0.07369,0.0
20.26150,0.26250,-0.08558,0.00000,0.03233,0.99284,-0.07357,0.0
20.26160,0.08750,0.01942,0.00000,0.03050,0.99418,-0.07186,0.0
20.26170,-0.24500,-0.12058,0.00000,0.03013,0.99637,-0.07247,0.0
20.26180,-0.14000,0.01942,0.00000,0.03135,0.99259,-0.07564,0.0
20.26190,0.17500,-0.06808,0.00000,0.03013,0.99601,-0.07235,0.0
20.26200,0.08750,0.15942,0.00000,0.03172,0.99723,-0.07637,0.0
20.26210,-0.14000,-0.08558,0.00000,0.03026,0.99479,-0.07393,0.0
20.26220,-0.31500,0.08942,0.00000,0.02794,0.99369,-0.07393,0.0
20.26230,0.08750,-0.10308,0.00000,0.03087,0.99540,-0.07210,0.0
20.26240,-0.05250,-0.05058,0.00000,0.02794,0.99467,-0.07320,0.0
20.26250,0.08750,0.10692,0.00000,0.03111,0.99357,-0.07576,0.0
20.26260,-0.15750,-0.03308,0.00000,0.03038,0.99454,-0.07588,0.0
20.26270,-0.05250,-0.29558,0.00000,0.02965,0.99528,-0.07064,0.0
20.26280,0.07000,0.14192,0.00000,0.02916,0.99467,-0.07076,0.0
20.26290,0.15750,0.08942,0.00000,0.03135,0.99332,-0.07198,0.0
20.26300,0.08750,0.14192,0.00000,0.03062,0.99369,-0.07259,0.0
20.26310,-0.10500,0.00192,0.00000,0.03038,0.99418,-0.07393,0.0
20.26320,-0.01750,-0.12058,0.00000,0.02940,0.99430,-0.07466,0.0
20.26330,0.05250,0.00192,0.00000,0.03050,0.99515,-0.07454,0.0
20.26340,-0.01750,0.28192,0.00000,0.03038,0.99515,-0.07418,0.0
20.26350,0.08750,-0.19058,0.00000,0.03209,0.99650,-0.07454,0.0
20.26360,-0.22750,0.24692,0.00000,0.02830,0.99698,-0.07393,0.0
20.26370,0.14000,0.21192,0.00000,0.03233,0.99552,-0.07076,0.0
20.26380,0.40250,0.01942,0.00000,0.03074,0.99296,-0.07491,0.0
20.26390,0.31500,-0.13808,0.00000,0.03111,0.99381,-0.07491,0.0
20.26400,-0.19250,0.10692,0.00000,0.02867,0.99467,-0.07332,0.0
20.26410,-0.08750,0.01942,0.00000,0.03062,0.99686,-0.07186,0.0
20.26420,-0.28000,0.05442,0.00000,0.03160,0.99552,-0.07296,0.0
20.26430,0.08750,0.24692,0.00000,0.03111,0.99442,-0.07479,0.0
20.26440,0.28000,-0.06808,0.00000,0.03026,0.99393,-0.07503,0.0
20.26450,0.08750,-0.03308,0.00000,0.02879,0.99454,-0.07405,0.0
20.26460,-0.03500,0.07192,0.00000,0.03026,0.99528,-0.07381,0.0
20.26470,0.00000,-0.01558,0.00000,0.02977,0.99503,-0.07259,0.0
20.26480,0.05250,-0.05058,0.00000,0.03062,0.99515,-0.07466,0.0
20.26490,0.19250,-0.13808,0.00000,0.02952,0.99357,-0.07515,0.0
20.26500,0.00000,-0.06808,0.00000,0.03001,0.99393,-0.07479,0.0
20.26510,-0.14000,-0.26058,0.00000,0.02830,0.99345,-0.07613,0.0
20.26520,0.05250,0.03692,0.00000,0.03209,0.99430,-0.07418,0.0
20.26530,0.00000,-0.12058,0.00000,0.02940,0.99503,-0.07466,0.0
20.26540,0.10500,-0.13808,0.00000,0.03148,0.99198,-0.07405,0.0
20.26550,-0.07000,-0.06808,0.00000,0.03087,0.99528,-0.07454,0.0
20.26560,0.00000,-0.29558,0.00000,0.03111,0.99528,-0.07174,0.0
20.26570,0.10500,-0.10308,0.00000,0.03196,0.99576,-0.07161,0.0
20.26580,0.21000,0.05442,0.00000,0.02965,0.99467,-0.07381,0.0
20.26590,-0.12250,0.08942,0.00000,0.03123,0.99528,-0.07283,0.0
20.26600,-0.22750,-0.05058,0.00000,0.03148,0.99625,-0.07332,0.0
20.26610,0.00000,-0.03308,0.00000,0.03062,0.99393,-0.07405,0.0
20.26620,0.08750,0.21192,0.00000,0.03099,0.99357,-0.07161,0.0
20.26630,0.15750,0.03692,0.00000,0.03160,0.99308,-0.07613,0.0
20.26640,-0.03500,-0.24308,0.00000,0.02965,0.99320,-0.07418,0.0
20.26650,0.03500,0.01942,0.00000,0.03001,0.99515,-0.07247,0.0
20.26660,-0.07000,-0.06808,0.00000,0.03233,0.99613,-0.07174,0.0
20.26670,0.10500,0.14192,0.00000,0.03135,0.99149,-0.07454,0.0
20.26680,-0.10500,0.14192,0.00000,0.03196,0.99357,-0.07369,0.0
20.26690,0.10500,-0.05058,0.00000,0.03062,0.99442,-0.07527,0.0
20.26700,-0.15750,0.15942,0.00000,0.03050,0.99662,-0.07357,0.0
20.26710,0.08750,0.14192,0.00000,0.02916,0.99528,-0.07405,0.0
20.26720,0.42000,0.22942,0.00000,0.03184,0.99467,-0.07601,0.0
20.26730,0.14000,0.01942,0.00000,0.03233,0.99296,-0.07405,0.0
20.26740,-0.05250,0.05442,0.00000,0.03135,0.99125,-0.07527,0.0
20.26750,-0.10500,-0.15558,0.00000,0.02867,0.99406,-0.07442,0.0
20.26760,0.08750,-0.12058,0.00000,0.03111,0.99564,-0.07296,0.0
20.26770,0.33250,0.15942,0.00000,0.02952,0.99467,-0.07540,0.0
20.26780,-0.12250,-0.10308,0.00000,0.03221,0.99528,-0.07503,0.0
20.26790,-0.45500,-0.15558,0.00000,0.02782,0.99589,-0.07454,0.0
20.26800,0.08750,-0.12058,0.00000,0.02769,0.99589,-0.07186,0.0
20.26810,0.19250,0.10692,0.00000,0.03160,0.99308,-0.07576,0.0
20.26820,-0.03500,-0.10308,0.00000,0.03087,0.99613,-0.07357,0.0
20.26830,-0.03500,0.01942,0.00000,0.02843,0.99503,-0.07271,0.0
20.26840,-0.03500,-0.22558,0.00000,0.02977,0.99625,-0.07503,0.0
20.26850,-0.03500,0.03692,0.00000,0.02904,0.99564,-0.07100,0.0
20.26860,0.26250,0.01942,0.00000,0.03062,0.99284,-0.07503,0.0
20.26870,0.05250,-0.03308,0.00000,0.02806,0.99174,-0.07357,0.0
20.26880,-0.05250,-0.13808,0.00000,0.03111,0.99393,-0.07540,0.0
20.26890,-0.14000,-0.17308,0.00000,0.02965,0.99528,-0.07137,0.0
20.26900,-0.05250,0.12442,0.00000,0.03148,0.99357,-0.07686,0.0
20.26910,0.12250,-0.15558,0.00000,0.03270,0.99430,-0.07222,0.0
20.26920,0.00000,-0.08558,0.00000,0.03087,0.99576,-0.07381,0.0
20.26930,0.10500,-0.03308,0.00000,0.02940,0.99613,-0.07430,0.0
20.26940,0.14000,0.07192,0.00000,0.03172,0.99576,-0.07405,0.0
20.26950,-0.03500,0.28192,0.00000,0.03050,0.99589,-0.07186,0.0
20.26960,0.36750,-0.12058,0.00000,0.03087,0.99637,-0.07442,0.0
20.26970,0.21000,-0.06808,0.00000,0.03001,0.99418,-0.07747,0.0
20.26980,-0.14000,0.26442,0.00000,0.02806,0.99418,-0.07320,0.0
20.26990,-0.28000,0.21192,0.00000,0.03111,0.99772,-0.07320,0.0
20.27000,-0.14000,0.22942,0.00000,0.03111,0.99467,-0.07198,0.0
20.27010,0.14000,-0.05058,0.00000,0.03001,0.99674,-0.07113,0.0
20.27020,0.05250,0.07192,0.00000,0.03001,0.99589,-0.07527,0.0
20.27030,0.01750,-0.01558,0.00000,0.02940,0.99540,-0.07576,0.0
20.27040,-0.21000,-0.10308,0.00000,0.03148,0.99223,-0.07442,0.0
20.27050,-0.03500,0.14192,0.00000,0.03050,0.99345,-0.07479,0.0
20.27060,0.14000,0.07192,0.00000,0.02977,0.99528,-0.07601,0.0
20.27070,0.14000,0.12442,0.00000,0.03001,0.99430,-0.07540,0.0
20.27080,0.00000,-0.27808,0.00000,0.02989,0.99296,-0.07710,0.0
20.27090,-0.08750,-0.01558,0.00000,0.03062,0.99662,-0.07442,0.0
20.27100,0.00000,-0.13808,0.00000,0.03196,0.99528,-0.07564,0.0
20.27110,0.01750,0.03692,0.00000,0.02977,0.99503,-0.07515,0.0
20.27120,0.42000,-0.19058,0.00000,0.03148,0.99369,-0.07637,0.0
20.27130,0.12250,-0.12058,0.00000,0.03013,0.99393,-0.07710,0.0
20.27140,-0.05250,-0.20808,0.00000,0.02940,0.99406,-0.07613,0.0
20.27150,0.01750,-0.06808,0.00000,0.03148,0.99369,-0.07747,0.0
20.27160,0.28000,-0.05058,0.00000,0.03062,0.99357,-0.07808,0.0
20.27170,0.22750,0.03692,0.00000,0.03221,0.99442,-0.07625,0.0
20.27180,-0.10500,0.10692,0.00000,0.03026,0.99467,-0.07808,0.0
20.27190,-0.19250,0.01942,0.00000,0.02818,0.99418,-0.07503,0.0
20.27200,0.10500,-0.01558,0.00000,0.02952,0.99454,-0.07442,0.0
20.27210,0.28000,0.28192,0.00000,0.03074,0.99467,-0.07296,0.0
20.27220,0.12250,-0.08558,0.00000,0.02830,0.99576,-0.07759,0.0
20.27230,-0.03500,-0.20808,0.00000,0.03111,0.99503,-0.07430,0.0
20.27240,-0.42000,0.10692,0.00000,0.03038,0.99479,-0.07491,0.0
20.27250,0.14000,-0.19058,0.00000,0.03038,0.99235,-0.07576,0.0
20.27260,0.26250,-0.13808,0.00000,0.03050,0.99503,-0.07674,0.0
20.27270,0.26250,0.00192,0.00000,0.02940,0.99515,-0.07845,0.0
20.27280,0.28000,0.05442,0.00000,0.03282,0.99284,-0.07735,0.0
20.27290,-0.01750,-0.15558,0.00000,0.03074,0.99613,-0.07515,0.0
20.27300,0.00000,0.12442,0.00000,0.02916,0.99284,-0.07515,0.0
20.27310,0.33250,0.01942,0.00000,0.03062,0.99552,-0.07332,0.0
20.27320,0.10500,-0.19058,0.00000,0.02794,0.99442,-0.07405,0.0
20.27330,0.00000,-0.31308,0.00000,0.02904,0.99235,-0.07601,0.0
20.27340,-0.03500,0.03692,0.00000,0.03062,0.99381,-0.07430,0.0
20.27350,0.21000,0.21192,0.00000,0.02940,0.99271,-0.07430,0.0
20.27360,0.28000,-0.15558,0.00000,0.02952,0.99540,-0.07430,0.0
20.27370,0.12250,0.07192,0.00000,0.02965,0.99613,-0.07540,0.0
20.27380,-0.33250,-0.22558,0.00000,0.03026,0.99223,-0.07308,0.0
20.27390,-0.24500,-0.15558,0.00000,0.02989,0.99540,-0.07503,0.0
20.27400,-0.17500,-0.06808,0.00000,0.03050,0.99137,-0.07503,0.0
20.27410,0.22750,0.00192,0.00000,0.03074,0.99320,-0.07503,0.0
20.27420,0.31500,-0.05058,0.00000,0.03074,0.99223,-0.07588,0.0
20.27430,0.08750,-0.03308,0.00000,0.03111,0.99503,-0.07491,0.0
20.27440,-0.33250,-0.22558,0.00000,0.03148,0.99430,-0.07454,0.0
20.27450,0.01750,-0.10308,0.00000,0.02989,0.99271,-0.07430,0.0
20.27460,0.14000,-0.10308,0.00000,0.03026,0.99369,-0.07442,0.0
20.27470,0.35000,-0.03308,0.00000,0.03038,0.99515,-0.07674,0.0
20.27480,0.07000,-0.15558,0.00000,0.02843,0.99381,-0.07466,0.0
20.27490,-0.12250,-0.20808,0.00000,0.03087,0.99418,-0.07466,0.0
20.27500,0.05250,-0.12058,0.00000,0.03233,0.99271,-0.07540,0.0
20.27510,0.22750,0.10692,0.00000,0.02928,0.99479,-0.07552,0.0
20.27520,0.38500,-0.01558,0.00000,0.03123,0.99406,-0.07723,0.0
20.27530,-0.15750,-0.08558,0.00000,0.02782,0.99515,-0.07588,0.0
20.27540,-0.19250,0.15942,0.00000,0.03062,0.99576,-0.07442,0.0
20.27550,-0.10500,0.08942,0.00000,0.03050,0.99235,-0.07466,0.0
20.27560,0.28000,0.01942,0.00000,0.03135,0.99393,-0.07759,0.0
20.27570,0.14000,0.00192,0.00000,0.03038,0.99503,-0.07698,0.0
20.27580,-0.28000,-0.06808,0.00000,0.02879,0.99393,-0.07832,0.0
20.27590,-0.33250,-0.06808,0.00000,0.02904,0.99491,-0.07710,0.0
20.27600,-0.07000,0.24692,0.00000,0.03221,0.99259,-0.07588,0.0
20.27610,0.29750,-0.05058,0.00000,0.03257,0.99540,-0.07723,0.0
20.27620,0.15750,-0.29558,0.00000,0.03111,0.99503,-0.07857,0.0
20.27630,-0.21000,-0.01558,0.00000,0.03087,0.99308,-0.07723,0.0
20.27640,-0.38500,-0.06808,0.00000,0.03306,0.99528,-0.07564,0.0
20.27650,0.12250,-0.05058,0.00000,0.03196,0.99503,-0.07564,0.0
20.27660,0.33250,-0.06808,0.00000,0.02916,0.99393,-0.07796,0.0
20.27670,0.26250,-0.15558,0.00000,0.03087,0.99393,-0.07637,0.0
20.27680,-0.21000,-0.05058,0.00000,0.03074,0.99503,-0.07625,0.0
20.27690,-0.22750,0.00192,0.00000,0.02672,0.99442,-0.07710,0.0
20.27700,0.03500,-0.01558,0.00000,0.02818,0.99247,-0.07710,0.0
20.27710,0.26250,-0.03308,0.00000,0.02904,0.99576,-0.07784,0.0
20.27720,0.08750,-0.01558,0.00000,0.03148,0.99369,-0.07723,0.0
20.27730,-0.19250,-0.05058,0.00000,0.03087,0.99479,-0.07991,0.0
20.27740,-0.07000,-0.13808,0.00000,0.03074,0.99357,-0.07540,0.0
20.27750,0.05250,0.00192,0.00000,0.03087,0.99467,-0.07759,0.0
20.27760,0.36750,0.00192,0.00000,0.03123,0.99137,-0.07820,0.0
20.27770,-0.05250,0.10692,0.00000,0.02782,0.99454,-0.07564,0.0
20.27780,-0.29750,0.21192,0.00000,0.03074,0.99552,-0.07796,0.0
20.27790,-0.26250,0.15942,0.00000,0.02940,0.99345,-0.07649,0.0
20.27800,0.08750,0.19442,0.00000,0.03257,0.99357,-0.07503,0.0
20.27810,0.31500,0.05442,0.00000,0.03111,0.99284,-0.07625,0.0
20.27820,0.08750,-0.05058,0.00000,0.03062,0.99369,-0.07723,0.0
20.27830,-0.15750,0.00192,0.00000,0.03026,0.99467,-0.07771,0.0
20.27840,-0.21000,-0.08558,0.00000,0.03160,0.99162,-0.07454,0.0
20.27850,0.21000,0.14192,0.00000,0.03050,0.99406,-0.07527,0.0
20.27860,0.36750,0.07192,0.00000,0.03233,0.99247,-0.07527,0.0
20.27870,0.21000,-0.20808,0.00000,0.03050,0.99357,-0.07759,0.0
20.27880,-0.28000,-0.17308,0.00000,0.03074,0.99540,-0.07613,0.0
20.27890,-0.15750,-0.01558,0.00000,0.03001,0.99308,-0.07771,0.0
20.27900,0.35000,0.10692,0.00000,0.03172,0.99540,-0.07588,0.0
20.27910,0.26250,0.17692,0.00000,0.02733,0.99564,-0.07869,0.0
20.27920,-0.14000,0.08942,0.00000,0.03184,0.99381,-0.08174,0.0
20.27930,-0.28000,0.12442,0.00000,0.03087,0.99223,-0.07759,0.0
20.27940,-0.12250,-0.27808,0.00000,0.03050,0.99528,-0.07527,0.0
20.27950,0.29750,0.10692,0.00000,0.03050,0.99296,-0.07674,0.0
20.27960,0.28000,0.05442,0.00000,0.03087,0.99271,-0.07845,0.0
20.27970,0.24500,-0.13808,0.00000,0.03026,0.99162,-0.07710,0.0
20.27980,-0.17500,0.01942,0.00000,0.03294,0.99564,-0.07893,0.0
20.27990,-0.19250,0.03692,0.00000,0.03099,0.99674,-0.07613,0.0
20.28000,-0.03500,-0.19058,0.00000,0.02830,0.99674,-0.07832,0.0
20.28010,-0.10500,0.12442,0.00000,0.03099,0.99491,-0.07686,0.0
20.28020,0.00000,-0.03308,0.00000,0.03172,0.99345,-0.07893,0.0
20.28030,0.03500,0.05442,0.00000,0.02989,0.99345,-0.07869,0.0
20.28040,0.08750,0.07192,0.00000,0.02965,0.99613,-0.07686,0.0
20.28050,-0.03500,-0.05058,0.00000,0.03062,0.99491,-0.07686,0.0
20.28060,-0.19250,-0.10308,0.00000,0.02916,0.99345,-0.07320,0.0
20.28070,-0.28000,-0.12058,0.00000,0.02904,0.99515,-0.07576,0.0
20.28080,-0.01750,0.10692,0.00000,0.02879,0.99528,-0.07479,0.0
20.28090,0.17500,0.07192,0.00000,0.03148,0.99540,-0.07527,0.0
20.28100,-0.03500,0.08942,0.00000,0.03209,0.99369,-0.07625,0.0
20.28110,-0.15750,0.01942,0.00000,0.03111,0.99284,-0.07674,0.0
20.28120,-0.07000,-0.05058,0.00000,0.03001,0.99393,-0.07491,0.0
20.28130,0.14000,-0.05058,0.00000,0.03209,0.99650,-0.07503,0.0
20.28140,0.01750,0.10692,0.00000,0.03099,0.99101,-0.07686,0.0
20.28150,0.05250,-0.03308,0.00000,0.03001,0.99430,-0.07393,0.0
20.28160,-0.14000,-0.12058,0.00000,0.03123,0.99259,-0.07613,0.0
20.28170,0.08750,-0.13808,0.00000,0.02952,0.99345,-0.07576,0.0
20.28180,0.17500,0.00192,0.00000,0.03026,0.99467,-0.07564,0.0
20.28190,0.05250,0.01942,0.00000,0.03172,0.99442,-0.07869,0.0
20.28200,-0.19250,0.15942,0.00000,0.02806,0.99357,-0.07479,0.0
20.28210,-0.07000,-0.13808,0.00000,0.03074,0.99650,-0.07381,0.0
20.28220,0.14000,0.14192,0.00000,0.03087,0.99454,-0.07552,0.0
20.28230,0.19250,0.45692,0.00000,0.03062,0.99076,-0.07771,0.0
20.28240,0.00000,-0.05058,0.00000,0.03172,0.99247,-0.07747,0.0
20.28250,-0.12250,0.22942,0.00000,0.03160,0.99540,-0.07747,0.0
20.28260,0.10500,-0.15558,0.00000,0.02965,0.99381,-0.07771,0.0
20.28270,0.31500,-0.08558,0.00000,0.03184,0.99552,-0.07649,0.0
20.28280,-0.12250,-0.13808,0.00000,0.03038,0.99613,-0.07503,0.0
20.28290,-0.08750,-0.24308,0.00000,0.03123,0.99345,-0.07552,0.0
20.28300,-0.01750,0.05442,0.00000,0.03013,0.99467,-0.07442,0.0
20.28310,0.19250,0.01942,0.00000,0.02928,0.99296,-0.07625,0.0
20.28320,0.08750,-0.29558,0.00000,0.03257,0.99430,-0.07466,0.0
20.28330,-0.22750,-0.12058,0.00000,0.03245,0.99418,-0.07527,0.0
20.28340,-0.05250,-0.15558,0.00000,0.03050,0.99625,-0.07564,0.0
20.28350,0.15750,-0.08558,0.00000,0.03099,0.99296,-0.07637,0.0
20.28360,0.10500,0.05442,0.00000,0.02989,0.99515,-0.07466,0.0
20.28370,-0.07000,0.22942,0.00000,0.02928,0.99406,-0.07576,0.0
20.28380,-0.07000,0.15942,0.00000,0.02977,0.99808,-0.07393,0.0
20.28390,-0.31500,0.14192,0.00000,0.03233,0.99406,-0.07540,0.0
20.28400,0.00000,0.01942,0.00000,0.03196,0.99210,-0.07601,0.0
20.28410,0.21000,0.07192,0.00000,0.02989,0.99052,-0.07381,0.0
20.28420,-0.07000,0.05442,0.00000,0.02989,0.99491,-0.07393,0.0
20.28430,-0.17500,-0.27808,0.00000,0.02965,0.99345,-0.07662,0.0
20.28440,-0.29750,0.01942,0.00000,0.02916,0.99418,-0.07332,0.0
20.28450,-0.01750,-0.19058,0.00000,0.03074,0.99650,-0.07381,0.0
20.28460,0.21000,-0.06808,0.00000,0.03160,0.99259,-0.07259,0.0
20.28470,0.10500,0.12442,0.00000,0.03294,0.99369,-0.07662,0.0
20.28480,-0.22750,-0.15558,0.00000,0.03111,0.99491,-0.07405,0.0
20.28490,-0.19250,0.05442,0.00000,0.03111,0.99418,-0.07161,0.0
20.28500,0.05250,0.05442,0.00000,0.03013,0.99564,-0.07320,0.0
20.28510,0.47250,-0.06808,0.00000,0.02830,0.99589,-0.07369,0.0
20.28520,-0.05250,0.15942,0.00000,0.02952,0.99271,-0.07625,0.0
20.28530,-0.03500,-0.20808,0.00000,0.03050,0.99650,-0.07442,0.0
20.28540,-0.22750,-0.03308,0.00000,0.02965,0.99296,-0.07259,0.0
20.28550,0.10500,0.17692,0.00000,0.03123,0.99540,-0.07381,0.0
20.28560,0.19250,-0.05058,0.00000,0.03318,0.99284,-0.07344,0.0
20.28570,0.08750,0.14192,0.00000,0.03038,0.99564,-0.07503,0.0
20.28580,-0.14000,-0.19058,0.00000,0.03062,0.99540,-0.07588,0.0
20.28590,-0.24500,-0.03308,0.00000,0.02965,0.99320,-0.07442,0.0
20.28600,-0.14000,0.12442,0.00000,0.03050,0.99454,-0.07564,0.0
20.28610,0.40250,0.29942,0.00000,0.03184,0.99528,-0.07527,0.0
20.28620,0.19250,-0.01558,0.00000,0.02952,0.99442,-0.07625,0.0
20.28630,-0.08750,-0.08558,0.00000,0.03196,0.99186,-0.07686,0.0
20.28640,-0.42000,-0.01558,0.00000,0.02965,0.99686,-0.07125,0.0
20.28650,0.00000,0.17692,0.00000,0.03160,0.99430,-0.07393,0.0
20.28660,0.21000,0.31692,0.00000,0.02952,0.99503,-0.07515,0.0
20.28670,0.17500,0.10692,0.00000,0.02916,0.99564,-0.07747,0.0
20.28680,-0.19250,0.05442,0.00000,0.03038,0.99418,-0.07540,0.0
20.28690,-0.24500,-0.01558,0.00000,0.02952,0.99320,-0.07344,0.0
20.28700,0.24500,-0.03308,0.00000,0.02977,0.99418,-0.07332,0.0
20.28710,0.26250,0.24692,0.00000,0.03013,0.99674,-0.07332,0.0
20.28720,0.07000,-0.20808,0.00000,0.03074,0.99540,-0.07540,0.0
20.28730,-0.14000,-0.13808,0.00000,0.03001,0.99552,-0.07503,0.0
20.28740,-0.05250,0.24692,0.00000,0.02879,0.99332,-0.07503,0.0
20.28750,0.10500,0.08942,0.00000,0.03087,0.99540,-0.07564,0.0
20.28760,0.00000,-0.12058,0.00000,0.02989,0.99576,-0.07308,0.0
20.28770,-0.03500,0.03692,0.00000,0.03074,0.99381,-0.07418,0.0
20.28780,-0.03500,0.00192,0.00000,0.02818,0.99503,-0.07332,0.0
20.28790,0.19250,0.08942,0.00000,0.03306,0.99454,-0.07466,0.0
20.28800,0.07000,0.08942,0.00000,0.03196,0.99393,-0.07540,0.0
20.28810,-0.22750,-0.01558,0.00000,0.02940,0.99442,-0.07405,0.0
20.28820,-0.12250,0.08942,0.00000,0.03123,0.99540,-0.07320,0.0
20.28830,-0.03500,0.05442,0.00000,0.03160,0.99125,-0.07613,0.0
20.28840,0.17500,0.19442,0.00000,0.03062,0.99515,-0.07466,0.0
20.28850,0.19250,-0.01558,0.00000,0.03087,0.99357,-0.07466,0.0
20.28860,-0.21000,0.24692,0.00000,0.02867,0.99381,-0.07393,0.0
20.28870,-0.17500,-0.15558,0.00000,0.02977,0.99552,-0.07137,0.0
20.28880,-0.14000,-0.01558,0.00000,0.02965,0.99320,-0.07222,0.0
20.28890,0.19250,0.12442,0.00000,0.02830,0.99381,-0.07320,0.0
20.28900,0.01750,-0.01558,0.00000,0.03074,0.99479,-0.07613,0.0
20.28910,-0.17500,0.19442,0.00000,0.03001,0.99454,-0.07479,0.0
20.28920,-0.26250,-0.10308,0.00000,0.03099,0.99613,-0.07259,0.0
20.28930,-0.01750,-0.03308,0.00000,0.03209,0.99418,-0.07235,0.0
20.28940,0.21000,0.01942,0.00000,0.02989,0.99296,-0.07283,0.0
20.28950,0.14000,0.08942,0.00000,0.03123,0.99540,-0.07674,0.0
20.28960,-0.31500,0.03692,0.00000,0.03062,0.99576,-0.07405,0.0
20.28970,-0.24500,-0.27808,0.00000,0.03026,0.99601,-0.07296,0.0
20.28980,0.21000,-0.12058,0.00000,0.02928,0.99515,-0.07174,0.0
20.28990,0.52500,0.03692,0.00000,0.02916,0.99345,-0.07454,0.0
20.29000,0.08750,0.12442,0.00000,0.03001,0.99113,-0.07515,0.0
20.29010,-0.36750,-0.12058,0.00000,0.03196,0.99442,-0.07235,0.0
20.29020,-0.42000,-0.03308,0.00000,0.03050,0.99210,-0.07442,0.0
20.29030,-0.05250,0.00192,0.00000,0.02916,0.99393,-0.07271,0.0
20.29040,0.26250,0.03692,0.00000,0.03001,0.99369,-0.07405,0.0
20.29050,0.35000,-0.13808,0.00000,0.02928,0.99345,-0.07601,0.0
20.29060,0.00000,0.03692,0.00000,0.02989,0.99345,-0.07405,0.0
20.29070,-0.45500,-0.10308,0.00000,0.03062,0.99515,-0.07418,0.0
20.29080,-0.19250,-0.19058,0.00000,0.03026,0.99369,-0.07369,0.0
20.29090,0.10500,-0.01558,0.00000,0.03026,0.99528,-0.07088,0.0
20.29100,0.29750,0.07192,0.00000,0.03221,0.99589,-0.07344,0.0
20.29110,0.00000,0.17692,0.00000,0.03087,0.99369,-0.07259,0.0
20.29120,-0.14000,-0.06808,0.00000,0.03209,0.99625,-0.07466,0.0
20.29130,-0.01750,-0.17308,0.00000,0.02904,0.99613,-0.07076,0.0
20.29140,-0.03500,0.07192,0.00000,0.03062,0.99320,-0.07308,0.0
20.29150,0.10500,-0.06808,0.00000,0.02952,0.99601,-0.07381,0.0
20.29160,-0.12250,-0.06808,0.00000,0.03111,0.99576,-0.07161,0.0
20.29170,-0.19250,0.07192,0.00000,0.02757,0.99430,-0.07296,0.0
20.29180,0.07000,-0.05058,0.00000,0.03050,0.99259,-0.07344,0.0
20.29190,0.19250,0.10692,0.00000,0.03111,0.99381,-0.07113,0.0
20.29200,0.15750,0.08942,0.00000,0.03184,0.99540,-0.07357,0.0
20.29210,0.05250,-0.33058,0.00000,0.02879,0.99381,-0.07003,0.0
20.29220,-0.26250,-0.01558,0.00000,0.03013,0.99406,-0.07381,0.0
20.29230,0.10500,-0.10308,0.00000,0.03062,0.99332,-0.07039,0.0
20.29240,0.05250,-0.01558,0.00000,0.03001,0.99393,-0.07332,0.0
20.29250,0.01750,0.00192,0.00000,0.03026,0.99576,-0.07222,0.0
20.29260,-0.19250,0.21192,0.00000,0.02879,0.99284,-0.07393,0.0
20.29270,-0.22750,0.31692,0.00000,0.03306,0.99503,-0.07235,0.0
20.29280,0.00000,-0.05058,0.00000,0.03160,0.99332,-0.07174,0.0
20.29290,0.01750,-0.01558,0.00000,0.03062,0.99467,-0.07198,0.0
20.29300,0.15750,-0.26058,0.00000,0.03135,0.99271,-0.07198,0.0
20.29310,-0.05250,-0.01558,0.00000,0.02794,0.99442,-0.07283,0.0
20.29320,0.05250,-0.03308,0.00000,0.02867,0.99442,-0.07259,0.0
20.29330,0.31500,0.01942,0.00000,0.02965,0.99503,-0.07393,0.0
20.29340,0.28000,0.12442,0.00000,0.02940,0.99393,-0.07210,0.0
20.29350,-0.21000,-0.10308,0.00000,0.03233,0.99601,-0.07381,0.0
20.29360,-0.19250,0.01942,0.00000,0.03111,0.99284,-0.07222,0.0
20.29370,-0.10500,-0.12058,0.00000,0.03294,0.99296,-0.07161,0.0
20.29380,0.10500,0.05442,0.00000,0.03038,0.99345,-0.07515,0.0
20.29390,0.38500,0.01942,0.00000,0.02940,0.99540,-0.07442,0.0
20.29400,-0.17500,0.05442,0.00000,0.03001,0.99528,-0.07442,0.0
20.29410,-0.31500,-0.08558,0.00000,0.03148,0.99491,-0.07283,0.0
20.29420,-0.36750,0.15942,0.00000,0.03087,0.99247,-0.07064,0.0
20.29430,0.36750,0.03692,0.00000,0.03148,0.99552,-0.07186,0.0
20.29440,0.28000,-0.10308,0.00000,0.03050,0.99735,-0.07393,0.0
20.29450,0.00000,0.07192,0.00000,0.03062,0.99320,-0.07540,0.0
20.29460,-0.42000,-0.10308,0.00000,0.03013,0.99442,-0.07210,0.0
20.29470,-0.15750,-0.19058,0.00000,0.02952,0.99491,-0.07174,0.0
20.29480,0.12250,0.00192,0.00000,0.03050,0.99576,-0.07308,0.0
20.29490,0.31500,0.00192,0.00000,0.03135,0.99406,-0.07540,0.0
20.29500,-0.03500,-0.13808,0.00000,0.03135,0.99406,-0.07174,0.0
20.29510,-0.15750,0.10692,0.00000,0.03038,0.99479,-0.07357,0.0
20.29520,-0.03500,-0.05058,0.00000,0.03038,0.99467,-0.07332,0.0
20.29530,0.15750,-0.03308,0.00000,0.03172,0.99454,-0.07296,0.0
20.29540,0.28000,0.00192,0.00000,0.02952,0.99491,-0.07418,0.0
20.29550,-0.03500,0.07192,0.00000,0.03160,0.99345,-0.07369,0.0
20.29560,0.03500,-0.05058,0.00000,0.03172,0.99393,-0.07222,0.0
20.29570,-0.10500,0.15942,0.00000,0.03111,0.99528,-0.07210,0.0
20.29580,0.24500,-0.08558,0.00000,0.02965,0.99564,-0.07222,0.0
20.29590,0.17500,-0.01558,0.00000,0.03013,0.99271,-0.07479,0.0
20.29600,0.01750,0.01942,0.00000,0.03099,0.99552,-0.07613,0.0
20.29610,0.01750,0.03692,0.00000,0.03026,0.99125,-0.07564,0.0
20.29620,-0.08750,-0.06808,0.00000,0.02928,0.99406,-0.07369,0.0
20.29630,0.10500,0.08942,0.00000,0.02757,0.99564,-0.07161,0.0
20.29640,0.17500,0.03692,0.00000,0.03282,0.99491,-0.07393,0.0
20.29650,0.15750,-0.03308,0.00000,0.03135,0.99259,-0.07393,0.0
20.29660,0.26250,-0.06808,0.00000,0.03074,0.99503,-0.07479,0.0
20.29670,-0.15750,0.08942,0.00000,0.02965,0.99528,-0.07320,0.0
20.29680,-0.08750,0.03692,0.00000,0.02891,0.99393,-0.07283,0.0
20.29690,-0.10500,0.03692,0.00000,0.03038,0.99454,-0.07393,0.0
20.29700,-0.10500,0.00192,0.00000,0.03038,0.99454,-0.07283,0.0
20.29710,0.10500,0.00192,0.00000,0.03221,0.99503,-0.07357,0.0
20.29720,0.05250,0.12442,0.00000,0.03428,0.99345,-0.07527,0.0
20.29730,0.36750,0.01942,0.00000,0.02916,0.99430,-0.07344,0.0
20.29740,-0.14000,-0.10308,0.00000,0.03221,0.99564,-0.07320,0.0
20.29750,-0.14000,-0.13808,0.00000,0.02977,0.99442,-0.07222,0.0
20.29760,0.15750,0.07192,0.00000,0.02940,0.99625,-0.07320,0.0
20.29770,0.08750,-0.08558,0.00000,0.02879,0.99515,-0.07393,0.0
20.29780,0.07000,0.01942,0.00000,0.02855,0.99503,-0.07442,0.0
20.29790,-0.33250,0.12442,0.00000,0.02977,0.99406,-0.07259,0.0
20.29800,-0.07000,0.10692,0.00000,0.03074,0.99503,-0.07039,0.0
20.29810,0.28000,-0.03308,0.00000,0.02891,0.99784,-0.07113,0.0
20.29820,0.31500,-0.08558,0.00000,0.02940,0.99467,-0.07222,0.0
20.29830,-0.17500,0.01942,0.00000,0.03074,0.99467,-0.07174,0.0
20.29840,-0.07000,-0.01558,0.00000,0.03123,0.99589,-0.07125,0.0
20.29850,-0.12250,-0.15558,0.00000,0.02904,0.99357,-0.07454,0.0
20.29860,0.29750,-0.10308,0.00000,0.03099,0.99259,-0.07357,0.0
20.29870,0.40250,0.07192,0.00000,0.03013,0.99442,-0.07418,0.0
20.29880,0.14000,0.05442,0.00000,0.03074,0.99381,-0.07698,0.0
20.29890,-0.26250,0.21192,0.00000,0.02977,0.99528,-0.07100,0.0
20.29900,-0.35000,0.03692,0.00000,0.02904,0.99540,-0.07076,0.0
20.29910,-0.15750,-0.17308,0.00000,0.03062,0.99479,-0.07064,0.0
20.29920,0.29750,-0.06808,0.00000,0.03184,0.99332,-0.07222,0.0
20.29930,0.26250,0.05442,0.00000,0.03001,0.99454,-0.07564,0.0
20.29940,0.07000,0.00192,0.00000,0.03062,0.99467,-0.07198,0.0
20.29950,-0.42000,0.15942,0.00000,0.03135,0.99113,-0.07296,0.0
20.29960,-0.26250,-0.05058,0.00000,0.02940,0.99491,-0.07381,0.0
20.29970,0.24500,-0.12058,0.00000,0.03123,0.99418,-0.07247,0.0
20.29980,0.14000,0.10692,0.00000,0.03209,0.99540,-0.07442,0.0
20.29990,0.01750,-0.20808,0.00000,0.03038,0.99406,-0.07430,0.0
20.30000,0.01750,0.01942,0.00000,0.02977,0.99650,-0.07442,0.0
20.30010,-0.07000,0.01942,0.00000,0.03135,0.99247,-0.07430,0.0
20.30020,0.12250,0.12442,0.00000,0.03123,0.99564,-0.07369,0.0
20.30030,0.08750,-0.08558,0.00000,0.02904,0.99393,-0.07479,0.0
20.30040,-0.24500,-0.03308,0.00000,0.02965,0.99467,-0.07503,0.0
20.30050,-0.24500,-0.01558,0.00000,0.02989,0.99393,-0.07039,0.0
20.30060,0.33250,-0.01558,0.00000,0.03099,0.99406,-0.07515,0.0
20.30070,0.49000,-0.03308,0.00000,0.02977,0.99393,-0.07527,0.0
20.30080,0.29750,0.00192,0.00000,0.03026,0.99454,-0.07381,0.0
20.30090,-0.14000,-0.17308,0.00000,0.03294,0.99345,-0.07552,0.0
20.30100,-0.12250,-0.17308,0.00000,0.02952,0.99393,-0.07332,0.0
20.30110,-0.01750,-0.13808,0.00000,0.02782,0.99259,-0.07430,0.0
20.30120,0.10500,0.14192,0.00000,0.02928,0.99650,-0.07405,0.0
20.30130,0.29750,0.10692,0.00000,0.03270,0.99674,-0.07527,0.0
20.30140,0.22750,0.24692,0.00000,0.03074,0.99235,-0.07540,0.0
20.30150,-0.29750,0.01942,0.00000,0.03123,0.99357,-0.07393,0.0
20.30160,-0.31500,-0.13808,0.00000,0.02867,0.99406,-0.07222,0.0
20.30170,0.12250,0.14192,0.00000,0.03074,0.99430,-0.07210,0.0
20.30180,0.22750,0.05442,0.00000,0.03001,0.99308,-0.07381,0.0
20.30190,0.10500,-0.05058,0.00000,0.03038,0.99491,-0.07235,0.0
20.30200,-0.36750,0.03692,0.00000,0.02940,0.99357,-0.07357,0.0
20.30210,0.12250,0.12442,0.00000,0.02879,0.99430,-0.07064,0.0
20.30220,0.26250,0.12442,0.00000,0.03184,0.98966,-0.07613,0.0
20.30230,0.01750,0.12442,0.00000,0.03135,0.99332,-0.07332,0.0
20.30240,-0.12250,-0.05058,0.00000,0.02916,0.99357,-0.07271,0.0
20.30250,-0.05250,-0.12058,0.00000,0.03245,0.99576,-0.07320,0.0
20.30260,0.07000,-0.08558,0.00000,0.02891,0.99284,-0.07466,0.0
20.30270,0.17500,0.29942,0.00000,0.02965,0.99479,-0.07271,0.0
20.30280,0.07000,0.07192,0.00000,0.03184,0.99613,-0.07308,0.0
20.30290,-0.21000,0.03692,0.00000,0.02965,0.99564,-0.07296,0.0
20.30300,-0.15750,-0.22558,0.00000,0.02952,0.99430,-0.07210,0.0
20.30310,0.14000,0.08942,0.00000,0.03038,0.99381,-0.07320,0.0
20.30320,0.15750,-0.06808,0.00000,0.03013,0.99467,-0.07113,0.0
20.30330,0.22750,0.07192,0.00000,0.02879,0.99369,-0.07405,0.0
20.30340,0.14000,0.00192,0.00000,0.03026,0.99198,-0.07149,0.0
20.30350,-0.17500,0.10692,0.00000,0.03087,0.99637,-0.07125,0.0
20.30360,-0.05250,-0.20808,0.00000,0.03099,0.99357,-0.07357,0.0
20.30370,0.17500,-0.06808,0.00000,0.02916,0.99479,-0.07198,0.0
20.30380,-0.01750,0.05442,0.00000,0.03099,0.99406,-0.07515,0.0
20.30390,-0.24500,-0.08558,0.00000,0.03160,0.99479,-0.07515,0.0
20.30400,-0.31500,0.19442,0.00000,0.03062,0.99064,-0.07003,0.0
20.30410,-0.26250,0.01942,0.00000,0.03087,0.99515,-0.07405,0.0
20.30420,0.01750,0.00192,0.00000,0.03294,0.99491,-0.07479,0.0
20.30430,-0.07000,0.07192,0.00000,0.03123,0.99210,-0.07649,0.0
20.30440,-0.15750,0.05442,0.00000,0.02904,0.99454,-0.07186,0.0
20.30450,-0.22750,0.12442,0.00000,0.03013,0.99357,-0.07430,0.0
20.30460,0.22750,0.08942,0.00000,0.03294,0.99235,-0.07576,0.0
20.30470,0.22750,0.07192,0.00000,0.03209,0.99357,-0.07564,0.0
20.30480,-0.05250,-0.19058,0.00000,0.03087,0.99088,-0.07479,0.0
20.30490,-0.22750,0.08942,0.00000,0.02989,0.99369,-0.07393,0.0
20.30500,-0.29750,-0.13808,0.00000,0.03099,0.99162,-0.07601,0.0
20.30510,0.24500,-0.05058,0.00000,0.02867,0.99454,-0.07442,0.0
20.30520,0.29750,-0.10308,0.00000,0.03026,0.99332,-0.07503,0.0
20.30530,0.05250,-0.06808,0.00000,0.02916,0.99564,-0.07296,0.0
20.30540,0.10500,-0.01558,0.00000,0.02891,0.99357,-0.07466,0.0
20.30550,-0.10500,0.03692,0.00000,0.03160,0.99442,-0.07296,0.0
20.30560,0.15750,-0.13808,0.00000,0.02928,0.99406,-0.07320,0.0
20.30570,0.26250,-0.01558,0.00000,0.02989,0.99381,-0.07405,0.0
20.30580,0.19250,0.00192,0.00000,0.02916,0.99284,-0.07527,0.0
20.30590,-0.36750,0.10692,0.00000,0.03026,0.99332,-0.07491,0.0
20.30600,-0.03500,-0.17308,0.00000,0.03074,0.99467,-0.07247,0.0
20.30610,0.05250,0.14192,0.00000,0.02940,0.99247,-0.07479,0.0
20.30620,0.42000,0.03692,0.00000,0.02708,0.99698,-0.07503,0.0
20.30630,0.03500,-0.08558,0.00000,0.03062,0.99528,-0.07723,0.0
20.30640,-0.29750,-0.12058,0.00000,0.03135,0.99418,-0.07296,0.0
20.30650,-0.24500,-0.05058,0.00000,0.03050,0.99406,-0.07637,0.0
20.30660,0.31500,0.07192,0.00000,0.03001,0.99528,-0.07491,0.0
20.30670,0.43750,0.12442,0.00000,0.03074,0.99393,-0.07796,0.0
20.30680,0.01750,0.17692,0.00000,0.02904,0.99308,-0.07942,0.0
20.30690,-0.35000,-0.10308,0.00000,0.03306,0.99332,-0.07686,0.0
20.30700,-0.05250,-0.13808,0.00000,0.03123,0.99454,-0.07418,0.0
20.30710,0.28000,0.08942,0.00000,0.03062,0.99369,-0.07564,0.0
20.30720,0.47250,-0.12058,0.00000,0.03282,0.99247,-0.07259,0.0
20.30730,-0.12250,0.12442,0.00000,0.02855,0.99467,-0.07588,0.0
20.30740,-0.21000,-0.06808,0.00000,0.03184,0.99442,-0.07357,0.0
20.30750,-0.19250,0.14192,0.00000,0.02977,0.99393,-0.07503,0.0
20.30760,0.24500,-0.13808,0.00000,0.02794,0.99503,-0.07430,0.0
20.30770,0.07000,0.29942,0.00000,0.02904,0.99442,-0.07491,0.0
20.30780,-0.17500,0.12442,0.00000,0.02782,0.99576,-0.07649,0.0
20.30790,-0.28000,-0.24308,0.00000,0.03038,0.99369,-0.07430,0.0
20.30800,-0.12250,-0.15558,0.00000,0.03050,0.99235,-0.07405,0.0
20.30810,0.36750,-0.08558,0.00000,0.02952,0.99637,-0.07466,0.0
20.30820,0.45500,-0.12058,0.00000,0.03148,0.99406,-0.07552,0.0
20.30830,0.00000,0.01942,0.00000,0.02867,0.99259,-0.07588,0.0
20.30840,-0.38500,0.05442,0.00000,0.02879,0.99625,-0.07405,0.0
20.30850,0.05250,-0.12058,0.00000,0.02916,0.99528,-0.07466,0.0
20.30860,0.07000,0.14192,0.00000,0.03111,0.99113,-0.07613,0.0
20.30870,0.17500,0.14192,0.00000,0.03038,0.99345,-0.07674,0.0
20.30880,-0.10500,0.12442,0.00000,0.03318,0.99479,-0.07552,0.0
20.30890,-0.29750,-0.26058,0.00000,0.03172,0.99503,-0.07588,0.0
20.30900,0.00000,-0.20808,0.00000,0.03001,0.99686,-0.07540,0.0
20.30910,0.10500,0.00192,0.00000,0.03416,0.99515,-0.07296,0.0
20.30920,0.15750,0.03692,0.00000,0.03172,0.99576,-0.07320,0.0
20.30930,-0.15750,-0.05058,0.00000,0.03172,0.99406,-0.07479,0.0
20.30940,-0.24500,-0.10308,0.00000,0.02952,0.99418,-0.07235,0.0
20.30950,0.31500,0.15942,0.00000,0.02928,0.99381,-0.07100,0.0
20.30960,0.49000,0.17692,0.00000,0.03099,0.99503,-0.07552,0.0
20.30970,0.15750,0.05442,0.00000,0.03318,0.99223,-0.07527,0.0
20.30980,-0.31500,0.00192,0.00000,0.03160,0.99345,-0.07198,0.0
20.30990,-0.33250,0.05442,0.00000,0.03160,0.99381,-0.07259,0.0
20.31000,0.24500,0.07192,0.00000,0.03050,0.99515,-0.07344,0.0
20.31010,0.42000,0.07192,0.00000,0.03026,0.99198,-0.07576,0.0
20.31020,0.07000,-0.19058,0.00000,0.03026,0.99308,-0.07491,0.0
20.31030,-0.45500,0.12442,0.00000,0.02928,0.99454,-0.07503,0.0
20.31040,-0.42000,0.01942,0.00000,0.03026,0.99515,-0.07015,0.0
20.31050,0.36750,0.22942,0.00000,0.03026,0.99650,-0.07296,0.0
20.31060,0.71750,0.14192,0.00000,0.03050,0.99479,-0.07430,0.0
20.31070,-0.01750,-0.08558,0.00000,0.03050,0.99296,-0.07527,0.0
20.31080,-0.57750,-0.10308,0.00000,0.02855,0.99442,-0.07344,0.0
20.31090,-0.40250,-0.05058,0.00000,0.02989,0.99686,-0.07235,0.0
20.31100,0.14000,0.10692,0.00000,0.02977,0.99357,-0.07527,0.0
20.31110,0.50750,0.05442,0.00000,0.03038,0.99637,-0.07454,0.0
20.31120,-0.14000,0.01942,0.00000,0.03074,0.99369,-0.07698,0.0
20.31130,-0.50750,-0.08558,0.00000,0.03160,0.99198,-0.07515,0.0
20.31140,-0.15750,-0.06808,0.00000,0.02916,0.99515,-0.07357,0.0
20.31150,0.35000,0.28192,0.00000,0.03087,0.99381,-0.07588,0.0
20.31160,0.36750,0.12442,0.00000,0.03099,0.99515,-0.07710,0.0
20.31170,-0.21000,-0.12058,0.00000,0.03111,0.99576,-0.07674,0.0
20.31180,-0.54250,-0.08558,0.00000,0.03074,0.99418,-0.07491,0.0
20.31190,-0.33250,-0.05058,0.00000,0.02916,0.99601,-0.07369,0.0
20.31200,0.56000,-0.03308,0.00000,0.03270,0.99247,-0.07491,0.0
20.31210,0.35000,-0.15558,0.00000,0.03099,0.99430,-0.07515,0.0
20.31220,-0.01750,-0.06808,0.00000,0.03099,0.99381,-0.07283,0.0
20.31230,-0.33250,-0.08558,0.00000,0.03062,0.99393,-0.07527,0.0
20.31240,0.08750,0.03692,0.00000,0.03111,0.99503,-0.07052,0.0
20.31250,0.54250,0.22942,0.00000,0.03257,0.99406,-0.07381,0.0
20.31260,0.07000,0.03692,0.00000,0.03270,0.99027,-0.07686,0.0
20.31270,-0.47250,0.12442,0.00000,0.03026,0.99650,-0.07552,0.0
20.31280,-0.29750,0.17692,0.00000,0.03221,0.99088,-0.07527,0.0
20.31290,0.22750,0.10692,0.00000,0.02891,0.99381,-0.07222,0.0
20.31300,0.59500,0.00192,0.00000,0.03087,0.99454,-0.07540,0.0
20.31310,-0.21000,0.21192,0.00000,0.02965,0.99259,-0.07613,0.0
20.31320,-0.49000,-0.22558,0.00000,0.03160,0.99589,-0.07479,0.0
20.31330,0.08750,0.08942,0.00000,0.03001,0.99259,-0.07088,0.0
20.31340,0.70000,0.07192,0.00000,0.03013,0.99418,-0.07210,0.0
20.31350,0.45500,0.12442,0.00000,0.03172,0.99576,-0.07662,0.0
20.31360,-0.33250,-0.10308,0.00000,0.03184,0.99418,-0.07393,0.0
20.31370,-0.40250,-0.03308,0.00000,0.02769,0.99540,-0.07003,0.0
20.31380,0.01750,-0.03308,0.00000,0.03184,0.99503,-0.07137,0.0
20.31390,0.54250,0.01942,0.00000,0.02965,0.99601,-0.07320,0.0
20.31400,0.59500,-0.05058,0.00000,0.03331,0.99576,-0.07637,0.0
20.31410,-0.33250,-0.03308,0.00000,0.03038,0.99503,-0.07369,0.0
20.31420,-0.68250,-0.12058,0.00000,0.03087,0.99406,-0.07174,0.0
20.31430,0.00000,0.08942,0.00000,0.02940,0.99369,-0.06881,0.0
20.31440,0.49000,0.21192,0.00000,0.02891,0.99332,-0.07283,0.0
20.31450,0.38500,0.12442,0.00000,0.03074,0.99662,-0.07430,0.0
20.31460,-0.45500,-0.01558,0.00000,0.03160,0.99284,-0.07588,0.0
20.31470,-0.45500,0.05442,0.00000,0.03050,0.99418,-0.07174,0.0
20.31480,0.15750,-0.06808,0.00000,0.03111,0.99491,-0.07283,0.0
20.31490,0.56000,-0.01558,0.00000,0.03123,0.99674,-0.07418,0.0
20.31500,0.31500,-0.12058,0.00000,0.03196,0.99540,-0.07466,0.0
20.31510,-0.31500,-0.01558,0.00000,0.03160,0.99284,-0.07564,0.0
20.31520,-0.54250,-0.05058,0.00000,0.03209,0.99284,-0.07222,0.0
20.31530,0.10500,0.14192,0.00000,0.03087,0.99515,-0.07235,0.0
20.31540,0.56000,-0.10308,0.00000,0.02940,0.99467,-0.07454,0.0
20.31550,0.05250,0.17692,0.00000,0.03099,0.99540,-0.07686,0.0
20.31560,-0.35000,-0.05058,0.00000,0.02818,0.99576,-0.07442,0.0
20.31570,-0.38500,0.08942,0.00000,0.03233,0.99393,-0.07222,0.0
20.31580,0.28000,0.08942,0.00000,0.03050,0.99296,-0.07344,0.0
20.31590,0.35000,-0.13808,0.00000,0.02806,0.99320,-0.07527,0.0
20.31600,-0.12250,0.22942,0.00000,0.03270,0.99503,-0.07674,0.0
20.31610,-0.54250,0.03692,0.00000,0.03038,0.99418,-0.07369,0.0
20.31620,-0.28000,-0.22558,0.00000,0.02830,0.99442,-0.07308,0.0
20.31630,0.21000,0.22942,0.00000,0.02843,0.99332,-0.07198,0.0
20.31640,0.50750,0.01942,0.00000,0.03270,0.99491,-0.07881,0.0
20.31650,0.03500,0.07192,0.00000,0.03306,0.99540,-0.07564,0.0
20.31660,-0.38500,-0.20808,0.00000,0.02830,0.99393,-0.07466,0.0
20.31670,-0.26250,-0.15558,0.00000,0.03160,0.99430,-0.07198,0.0
20.31680,0.42000,0.17692,0.00000,0.03050,0.99540,-0.07491,0.0
20.31690,0.28000,0.03692,0.00000,0.03196,0.99076,-0.07430,0.0
20.31700,0.05250,-0.08558,0.00000,0.02965,0.99393,-0.07479,0.0
20.31710,-0.45500,0.10692,0.00000,0.03111,0.99454,-0.07442,0.0
20.31720,-0.12250,-0.20808,0.00000,0.03087,0.99528,-0.07320,0.0
20.31730,0.17500,0.17692,0.00000,0.02904,0.99393,-0.07491,0.0
20.31740,0.28000,0.07192,0.00000,0.03087,0.99271,-0.07491,0.0
20.31750,-0.10500,-0.03308,0.00000,0.02916,0.99332,-0.07540,0.0
20.31760,-0.49000,0.07192,0.00000,0.02940,0.99296,-0.07576,0.0
20.31770,0.08750,-0.05058,0.00000,0.03111,0.99418,-0.07418,0.0
20.31780,0.35000,0.19442,0.00000,0.03050,0.99381,-0.07613,0.0
20.31790,0.12250,0.12442,0.00000,0.03074,0.99528,-0.07686,0.0
20.31800,-0.21000,-0.03308,0.00000,0.02940,0.99406,-0.07515,0.0
20.31810,-0.35000,0.00192,0.00000,0.03111,0.99162,-0.07466,0.0
20.31820,0.03500,0.01942,0.00000,0.03026,0.99345,-0.07393,0.0
20.31830,0.66500,0.00192,0.00000,0.03050,0.99357,-0.07405,0.0
20.31840,-0.08750,-0.17308,0.00000,0.03099,0.99393,-0.07625,0.0
20.31850,-0.49000,-0.03308,0.00000,0.02843,0.99284,-0.07515,0.0
20.31860,-0.26250,-0.01558,0.00000,0.02977,0.99393,-0.07369,0.0
20.31870,0.19250,0.03692,0.00000,0.02806,0.99369,-0.07552,0.0
20.31880,0.57750,0.00192,0.00000,0.02952,0.99540,-0.07418,0.0
20.31890,-0.07000,0.00192,0.00000,0.02989,0.99296,-0.07613,0.0
20.31900,-0.17500,-0.24308,0.00000,0.03196,0.99357,-0.07625,0.0
20.31910,-0.28000,-0.08558,0.00000,0.03001,0.99515,-0.07271,0.0
20.31920,0.33250,0.14192,0.00000,0.03001,0.99101,-0.07222,0.0
20.31930,0.42000,0.17692,0.00000,0.03184,0.99296,-0.07430,0.0
20.31940,0.19250,0.05442,0.00000,0.03111,0.99686,-0.07466,0.0
20.31950,-0.28000,-0.08558,0.00000,0.03038,0.99442,-0.07357,0.0
20.31960,-0.01750,-0.05058,0.00000,0.03221,0.99369,-0.07235,0.0
20.31970,0.05250,0.03692,0.00000,0.03111,0.99357,-0.07161,0.0
20.31980,0.26250,0.03692,0.00000,0.03001,0.99296,-0.07296,0.0
20.31990,-0.26250,-0.01558,0.00000,0.03026,0.99442,-0.07454,0.0
20.32000,-0.31500,0.01942,0.00000,0.03282,0.99491,-0.07271,0.0
20.32010,0.05250,-0.12058,0.00000,0.02806,0.99735,-0.07186,0.0
20.32020,0.22750,0.28192,0.00000,0.03001,0.99503,-0.07442,0.0
20.32030,0.43750,0.14192,0.00000,0.02989,0.99369,-0.07503,0.0
20.32040,-0.17500,-0.08558,0.00000,0.03099,0.99467,-0.07503,0.0
20.32050,-0.28000,0.01942,0.00000,0.02952,0.99515,-0.07308,0.0
20.32060,0.10500,-0.15558,0.00000,0.02769,0.99137,-0.07296,0.0
20.32070,0.40250,-0.06808,0.00000,0.02965,0.99442,-0.07576,0.0
20.32080,0.26250,0.10692,0.00000,0.03209,0.99345,-0.07625,0.0
20.32090,0.00000,-0.15558,0.00000,0.02977,0.99284,-0.07625,0.0
20.32100,-0.29750,-0.19058,0.00000,0.02879,0.99320,-0.07430,0.0
20.32110,0.07000,0.03692,0.00000,0.03111,0.99515,-0.07442,0.0
20.32120,0.31500,0.03692,0.00000,0.02928,0.99528,-0.07344,0.0
20.32130,0.08750,0.05442,0.00000,0.03074,0.99503,-0.07418,0.0
20.32140,-0.19250,0.08942,0.00000,0.03050,0.99332,-0.07466,0.0
20.32150,-0.03500,-0.05058,0.00000,0.03318,0.99357,-0.07405,0.0
20.32160,0.19250,-0.08558,0.00000,0.03074,0.99467,-0.07564,0.0
20.32170,0.07000,0.03692,0.00000,0.03038,0.99442,-0.07515,0.0
20.32180,0.00000,0.07192,0.00000,0.03111,0.99515,-0.07625,0.0
20.32190,0.00000,-0.22558,0.00000,0.03050,0.99406,-0.07381,0.0
20.32200,0.05250,0.10692,0.00000,0.03050,0.99406,-0.07662,0.0
20.32210,0.21000,-0.01558,0.00000,0.02965,0.99491,-0.07662,0.0
20.32220,0.17500,0.10692,0.00000,0.03062,0.99491,-0.07601,0.0
20.32230,0.15750,0.03692,0.00000,0.03099,0.99430,-0.07552,0.0
20.32240,-0.10500,0.17692,0.00000,0.03184,0.99528,-0.07357,0.0
20.32250,0.01750,-0.17308,0.00000,0.02928,0.99552,-0.07710,0.0
20.32260,-0.03500,0.00192,0.00000,0.03013,0.99540,-0.07515,0.0
20.32270,0.07000,-0.15558,0.00000,0.03111,0.99406,-0.07320,0.0
20.32280,0.10500,0.12442,0.00000,0.03221,0.99491,-0.07405,0.0
20.32290,0.03500,-0.03308,0.00000,0.03038,0.99381,-0.07588,0.0
20.32300,0.05250,-0.10308,0.00000,0.03074,0.99528,-0.07381,0.0
20.32310,-0.14000,-0.10308,0.00000,0.02977,0.99564,-0.07418,0.0
20.32320,0.12250,-0.08558,0.00000,0.03209,0.99503,-0.07210,0.0
20.32330,0.05250,-0.20808,0.00000,0.03026,0.99418,-0.07320,0.0
20.32340,0.03500,-0.06808,0.00000,0.03074,0.99564,-0.07442,0.0
20.32350,0.14000,0.00192,0.00000,0.02891,0.99467,-0.07259,0.0
20.32360,0.19250,-0.05058,0.00000,0.02684,0.99162,-0.07576,0.0
20.32370,-0.12250,-0.19058,0.00000,0.02965,0.99540,-0.07491,0.0
20.32380,-0.19250,0.01942,0.00000,0.03148,0.99515,-0.07491,0.0
20.32390,0.00000,-0.20808,0.00000,0.03111,0.99515,-0.07247,0.0
20.32400,0.24500,0.00192,0.00000,0.03148,0.99418,-0.07454,0.0
20.32410,0.19250,-0.08558,0.00000,0.03196,0.99369,-0.07393,0.0
20.32420,-0.01750,0.01942,0.00000,0.03306,0.99393,-0.07466,0.0
20.32430,-0.10500,0.05442,0.00000,0.03148,0.99137,-0.07381,0.0
20.32440,-0.19250,0.07192,0.00000,0.02879,0.99454,-0.07271,0.0
20.32450,-0.07000,0.07192,0.00000,0.02879,0.99284,-0.07393,0.0
20.32460,0.05250,-0.19058,0.00000,0.03196,0.99369,-0.07393,0.0
20.32470,0.12250,-0.12058,0.00000,0.03001,0.99296,-0.07625,0.0
20.32480,-0.12250,0.08942,0.00000,0.03123,0.99503,-0.07454,0.0
20.32490,-0.03500,0.05442,0.00000,0.02940,0.99686,-0.07442,0.0
20.32500,0.07000,-0.01558,0.00000,0.03148,0.99406,-0.07515,0.0
20.32510,-0.01750,-0.03308,0.00000,0.02928,0.99637,-0.07527,0.0
20.32520,0.19250,-0.06808,0.00000,0.03111,0.99430,-0.07491,0.0
20.32530,0.05250,0.01942,0.00000,0.02952,0.99259,-0.07466,0.0
20.32540,0.17500,-0.03308,0.00000,0.03123,0.99308,-0.07479,0.0
20.32550,0.14000,0.05442,0.00000,0.03172,0.99332,-0.07308,0.0
20.32560,0.12250,-0.01558,0.00000,0.03062,0.99589,-0.07405,0.0
20.32570,0.10500,-0.17308,0.00000,0.02989,0.99674,-0.07296,0.0
20.32580,-0.17500,0.12442,0.00000,0.03123,0.99393,-0.07344,0.0
20.32590,-0.10500,0.05442,0.00000,0.03050,0.99454,-0.07222,0.0
20.32600,0.19250,-0.03308,0.00000,0.02916,0.99418,-0.07418,0.0
20.32610,0.01750,0.05442,0.00000,0.02904,0.99723,-0.07247,0.0
20.32620,-0.05250,0.05442,0.00000,0.02952,0.99406,-0.07100,0.0
20.32630,-0.01750,0.05442,0.00000,0.03184,0.99210,-0.07369,0.0
20.32640,0.07000,-0.05058,0.00000,0.03087,0.99393,-0.07247,0.0
20.32650,0.12250,-0.13808,0.00000,0.02891,0.99418,-0.07259,0.0
20.32660,-0.19250,0.05442,0.00000,0.02928,0.99345,-0.07601,0.0
20.32670,0.00000,0.05442,0.00000,0.02891,0.99113,-0.07466,0.0
20.32680,0.26250,-0.03308,0.00000,0.02916,0.99686,-0.07418,0.0
20.32690,0.15750,-0.05058,0.00000,0.03013,0.99528,-0.07357,0.0
20.32700,-0.08750,-0.05058,0.00000,0.02928,0.99625,-0.07552,0.0
20.32710,-0.17500,-0.13808,0.00000,0.03282,0.99540,-0.07430,0.0
20.32720,-0.03500,0.14192,0.00000,0.02977,0.99528,-0.07283,0.0
20.32730,0.35000,0.07192,0.00000,0.03013,0.99320,-0.07247,0.0
20.32740,0.12250,-0.03308,0.00000,0.02952,0.99308,-0.07357,0.0
20.32750,0.14000,-0.08558,0.00000,0.02928,0.99442,-0.07503,0.0
20.32760,-0.14000,0.00192,0.00000,0.02965,0.99625,-0.07308,0.0
20.32770,0.01750,-0.05058,0.00000,0.03013,0.99345,-0.07344,0.0
20.32780,-0.05250,0.07192,0.00000,0.03294,0.99564,-0.07442,0.0
20.32790,0.10500,0.10692,0.00000,0.03062,0.99589,-0.07259,0.0
20.32800,0.08750,-0.03308,0.00000,0.03209,0.99406,-0.07613,0.0
20.32810,-0.03500,-0.05058,0.00000,0.03026,0.99540,-0.07369,0.0
20.32820,0.21000,-0.22558,0.00000,0.03001,0.99503,-0.07503,0.0
20.32830,0.03500,-0.08558,0.00000,0.03001,0.99430,-0.07515,0.0
20.32840,-0.10500,0.17692,0.00000,0.03074,0.99540,-0.07527,0.0
20.32850,-0.21000,-0.05058,0.00000,0.02928,0.99442,-0.07381,0.0
20.32860,-0.14000,-0.24308,0.00000,0.03087,0.99430,-0.07283,0.0
20.32870,0.05250,0.14192,0.00000,0.03160,0.99198,-0.07308,0.0
20.32880,0.28000,-0.05058,0.00000,0.03074,0.99296,-0.07564,0.0
20.32890,0.07000,0.14192,0.00000,0.03282,0.99674,-0.07454,0.0
20.32900,-0.15750,-0.06808,0.00000,0.02928,0.99393,-0.07418,0.0
20.32910,-0.12250,0.03692,0.00000,0.02843,0.99528,-0.07454,0.0
20.32920,0.19250,0.22942,0.00000,0.02867,0.99247,-0.07601,0.0
20.32930,0.15750,0.15942,0.00000,0.03318,0.99491,-0.07552,0.0
20.32940,0.26250,0.05442,0.00000,0.02867,0.99589,-0.07466,0.0
20.32950,0.36750,-0.12058,0.00000,0.03160,0.99332,-0.07735,0.0
20.32960,0.05250,-0.08558,0.00000,0.03062,0.99540,-0.07527,0.0
20.32970,-0.24500,-0.12058,0.00000,0.03013,0.99528,-0.07503,0.0
20.32980,0.03500,0.00192,0.00000,0.03123,0.99589,-0.07588,0.0
20.32990,-0.08750,0.12442,0.00000,0.03074,0.99186,-0.07393,0.0
20.33000,0.10500,-0.15558,0.00000,0.02940,0.99454,-0.07381,0.0
20.33010,0.12250,-0.06808,0.00000,0.02916,0.99454,-0.07515,0.0
20.33020,0.17500,-0.13808,0.00000,0.02952,0.99271,-0.07564,0.0
20.33030,-0.08750,0.24692,0.00000,0.03099,0.99576,-0.07430,0.0
20.33040,-0.15750,-0.08558,0.00000,0.02989,0.99345,-0.07540,0.0
20.33050,-0.10500,-0.01558,0.00000,0.02757,0.99381,-0.07405,0.0
20.33060,-0.21000,-0.24308,0.00000,0.02965,0.99235,-0.07442,0.0
20.33070,0.00000,-0.12058,0.00000,0.03123,0.99503,-0.07320,0.0
20.33080,0.14000,0.05442,0.00000,0.03038,0.99393,-0.07418,0.0
20.33090,0.19250,0.15942,0.00000,0.03148,0.99442,-0.07247,0.0
20.33100,0.17500,0.05442,0.00000,0.03013,0.99320,-0.07588,0.0
20.33110,0.08750,-0.15558,0.00000,0.03038,0.99540,-0.07357,0.0
20.33120,-0.03500,0.00192,0.00000,0.03074,0.99296,-0.07405,0.0
20.33130,-0.19250,-0.08558,0.00000,0.02904,0.99393,-0.07527,0.0
20.33140,-0.03500,0.28192,0.00000,0.03160,0.99503,-0.07308,0.0
20.33150,0.22750,0.01942,0.00000,0.03099,0.99467,-0.07540,0.0
20.33160,-0.03500,-0.05058,0.00000,0.03099,0.99430,-0.07466,0.0
20.33170,-0.19250,-0.13808,0.00000,0.03123,0.99564,-0.07418,0.0
20.33180,0.00000,0.15942,0.00000,0.02928,0.99589,-0.07588,0.0
20.33190,-0.07000,-0.03308,0.00000,0.02891,0.99332,-0.07564,0.0
20.33200,0.08750,-0.06808,0.00000,0.02891,0.99198,-0.07259,0.0
20.33210,0.00000,-0.10308,0.00000,0.02879,0.99393,-0.07381,0.0
20.33220,0.12250,0.03692,0.00000,0.03038,0.99430,-0.07369,0.0
20.33230,-0.01750,-0.12058,0.00000,0.02891,0.99552,-0.07369,0.0
20.33240,0.05250,-0.19058,0.00000,0.03123,0.99271,-0.07271,0.0
20.33250,-0.07000,0.12442,0.00000,0.03099,0.99332,-0.07503,0.0
20.33260,0.00000,-0.15558,0.00000,0.02794,0.99418,-0.07369,0.0
20.33270,0.17500,0.03692,0.00000,0.03013,0.99503,-0.07393,0.0
20.33280,0.12250,-0.20808,0.00000,0.03001,0.99442,-0.07479,0.0
20.33290,0.00000,0.17692,0.00000,0.03135,0.99625,-0.07552,0.0
20.33300,0.05250,0.05442,0.00000,0.03001,0.99552,-0.07320,0.0
20.33310,0.00000,0.12442,0.00000,0.03257,0.99418,-0.07588,0.0
20.33320,-0.33250,0.01942,0.00000,0.03209,0.99479,-0.07442,0.0
20.33330,-0.17500,0.12442,0.00000,0.02965,0.99259,-0.07515,0.0
20.33340,0.12250,-0.05058,0.00000,0.02867,0.99186,-0.07393,0.0
20.33350,0.35000,0.05442,0.00000,0.03087,0.99613,-0.07271,0.0
20.33360,0.08750,0.08942,0.00000,0.02965,0.99674,-0.07430,0.0
20.33370,0.07000,0.17692,0.00000,0.03062,0.99528,-0.07466,0.0
20.33380,-0.08750,-0.12058,0.00000,0.02806,0.99345,-0.07296,0.0
20.33390,-0.19250,-0.01558,0.00000,0.03099,0.99515,-0.07320,0.0
20.33400,0.05250,-0.01558,0.00000,0.03013,0.99381,-0.07064,0.0
20.33410,0.24500,-0.01558,0.00000,0.03099,0.99406,-0.07393,0.0
20.33420,0.08750,0.07192,0.00000,0.03062,0.99528,-0.07418,0.0
20.33430,-0.08750,0.14192,0.00000,0.03135,0.99515,-0.07344,0.0
20.33440,-0.01750,-0.05058,0.00000,0.03087,0.99491,-0.07198,0.0
20.33450,0.17500,-0.06808,0.00000,0.02928,0.99442,-0.07491,0.0
20.33460,0.28000,-0.12058,0.00000,0.02879,0.99747,-0.07479,0.0
20.33470,-0.10500,-0.01558,0.00000,0.03087,0.99467,-0.07296,0.0
20.33480,-0.07000,-0.05058,0.00000,0.02977,0.99491,-0.07076,0.0
20.33490,0.15750,-0.15558,0.00000,0.03148,0.99308,-0.07088,0.0
20.33500,0.24500,0.15942,0.00000,0.02989,0.99479,-0.07369,0.0
20.33510,0.00000,0.08942,0.00000,0.02977,0.99576,-0.07430,0.0
20.33520,-0.10500,-0.06808,0.00000,0.03001,0.99467,-0.07418,0.0
20.33530,-0.17500,-0.05058,0.00000,0.03038,0.99357,-0.07186,0.0
20.33540,0.03500,0.22942,0.00000,0.02989,0.99625,-0.07320,0.0
20.33550,0.33250,0.10692,0.00000,0.02782,0.99540,-0.07235,0.0
20.33560,0.28000,0.21192,0.00000,0.02879,0.99406,-0.07576,0.0
20.33570,-0.01750,-0.12058,0.00000,0.03013,0.99491,-0.07259,0.0
20.33580,-0.03500,-0.12058,0.00000,0.03062,0.99393,-0.07113,0.0
20.33590,0.07000,0.03692,0.00000,0.03062,0.99174,-0.07515,0.0
20.33600,0.19250,-0.10308,0.00000,0.03038,0.99320,-0.07418,0.0
20.33610,0.05250,0.00192,0.00000,0.03038,0.99381,-0.07515,0.0
20.33620,-0.08750,0.05442,0.00000,0.03099,0.99442,-0.07186,0.0
20.33630,0.07000,-0.05058,0.00000,0.02965,0.99637,-0.07174,0.0
20.33640,0.40250,-0.08558,0.00000,0.03074,0.99491,-0.07357,0.0
20.33650,0.07000,0.15942,0.00000,0.03135,0.99345,-0.07235,0.0
20.33660,-0.12250,-0.08558,0.00000,0.03026,0.99308,-0.07296,0.0
20.33670,-0.10500,0.07192,0.00000,0.03209,0.99503,-0.07454,0.0
20.33680,-0.22750,0.07192,0.00000,0.02891,0.99442,-0.07308,0.0
20.33690,0.29750,0.01942,0.00000,0.03087,0.99442,-0.07222,0.0
20.33700,0.22750,0.10692,0.00000,0.03062,0.99540,-0.07308,0.0
20.33710,-0.19250,0.21192,0.00000,0.03135,0.99381,-0.07405,0.0
20.33720,-0.17500,-0.05058,0.00000,0.03135,0.99528,-0.07405,0.0
20.33730,-0.24500,0.10692,0.00000,0.03123,0.99369,-0.07174,0.0
20.33740,0.47250,-0.01558,0.00000,0.03074,0.99491,-0.07271,0.0
20.33750,0.33250,0.07192,0.00000,0.03123,0.99503,-0.07320,0.0
20.33760,-0.03500,-0.12058,0.00000,0.03172,0.99564,-0.07210,0.0
20.33770,-0.35000,0.08942,0.00000,0.03160,0.99345,-0.07503,0.0
20.33780,-0.05250,0.00192,0.00000,0.02904,0.99345,-0.07198,0.0
20.33790,0.35000,-0.01558,0.00000,0.03221,0.99381,-0.07369,0.0
20.33800,0.17500,0.22942,0.00000,0.03074,0.99515,-0.07393,0.0
20.33810,-0.10500,0.19442,0.00000,0.03148,0.99381,-0.07296,0.0
20.33820,-0.19250,-0.10308,0.00000,0.03123,0.99296,-0.07186,0.0
20.33830,0.21000,0.12442,0.00000,0.03038,0.99625,-0.07186,0.0
20.33840,0.24500,0.08942,0.00000,0.03038,0.99515,-0.07308,0.0
20.33850,0.19250,0.26442,0.00000,0.03013,0.99467,-0.07381,0.0
20.33860,-0.12250,0.12442,0.00000,0.02989,0.99393,-0.07259,0.0
20.33870,-0.17500,-0.06808,0.00000,0.02940,0.99540,-0.07198,0.0
20.33880,-0.01750,0.17692,0.00000,0.02891,0.99345,-0.06978,0.0
20.33890,0.17500,0.12442,0.00000,0.03001,0.99503,-0.07113,0.0
20.33900,0.22750,-0.08558,0.00000,0.02782,0.99381,-0.07369,0.0
20.33910,0.01750,-0.10308,0.00000,0.03013,0.99345,-0.07491,0.0
20.33920,-0.21000,-0.06808,0.00000,0.03074,0.99540,-0.07198,0.0
20.33930,-0.19250,-0.03308,0.00000,0.03123,0.99503,-0.07235,0.0
20.33940,0.29750,-0.05058,0.00000,0.03282,0.99369,-0.07113,0.0
20.33950,0.12250,-0.24308,0.00000,0.03013,0.99540,-0.07100,0.0
20.33960,-0.22750,-0.24308,0.00000,0.02977,0.99491,-0.07601,0.0
20.33970,0.03500,-0.19058,0.00000,0.02989,0.99247,-0.07308,0.0
20.33980,0.12250,-0.27808,0.00000,0.03099,0.99503,-0.07247,0.0
20.33990,-0.05250,0.21192,0.00000,0.03074,0.99418,-0.07222,0.0
20.34000,-0.08750,-0.13808,0.00000,0.03184,0.99369,-0.07235,0.0
20.34010,-0.19250,-0.06808,0.00000,0.02782,0.99271,-0.07564,0.0
20.34020,-0.07000,0.01942,0.00000,0.02745,0.99320,-0.07247,0.0
20.34030,0.03500,0.07192,0.00000,0.03099,0.99418,-0.07113,0.0
20.34040,0.19250,0.15942,0.00000,0.03209,0.99357,-0.07174,0.0
20.34050,-0.07000,0.00192,0.00000,0.02904,0.99259,-0.07430,0.0
20.34060,-0.24500,-0.08558,0.00000,0.03099,0.99540,-0.07210,0.0
20.34070,-0.07000,0.21192,0.00000,0.02989,0.99308,-0.07235,0.0
20.34080,0.10500,-0.08558,0.00000,0.03038,0.99515,-0.07308,0.0
20.34090,0.38500,-0.12058,0.00000,0.03123,0.99430,-0.07418,0.0
20.34100,-0.05250,0.00192,0.00000,0.03294,0.99479,-0.07088,0.0
20.34110,-0.26250,-0.10308,0.00000,0.02672,0.99247,-0.07369,0.0
20.34120,-0.17500,-0.34808,0.00000,0.02977,0.99467,-0.07649,0.0
20.34130,0.26250,0.08942,0.00000,0.03111,0.99418,-0.07283,0.0
20.34140,0.36750,0.19442,0.00000,0.03087,0.99381,-0.07296,0.0
20.34150,0.17500,0.00192,0.00000,0.03001,0.99601,-0.07125,0.0
20.34160,-0.35000,0.24692,0.00000,0.03050,0.99235,-0.07259,0.0
20.34170,-0.05250,0.01942,0.00000,0.03209,0.99442,-0.07369,0.0
20.34180,0.21000,-0.12058,0.00000,0.02867,0.99479,-0.07198,0.0
20.34190,0.15750,0.07192,0.00000,0.03074,0.99357,-0.07137,0.0
20.34200,-0.15750,-0.01558,0.00000,0.03233,0.99393,-0.07588,0.0
20.34210,-0.05250,-0.20808,0.00000,0.03062,0.99467,-0.07125,0.0
20.34220,0.12250,-0.10308,0.00000,0.03123,0.99735,-0.07442,0.0
20.34230,0.31500,-0.12058,0.00000,0.02952,0.99515,-0.07527,0.0
20.34240,0.19250,-0.10308,0.00000,0.02843,0.99601,-0.07430,0.0
20.34250,-0.08750,-0.12058,0.00000,0.02977,0.99637,-0.07210,0.0
20.34260,-0.14000,-0.10308,0.00000,0.03062,0.99320,-0.07296,0.0
20.34270,0.12250,0.21192,0.00000,0.03123,0.99332,-0.07369,0.0
20.34280,0.38500,0.12442,0.00000,0.03172,0.99369,-0.07418,0.0
20.34290,0.05250,0.22942,0.00000,0.03074,0.99259,-0.07418,0.0
20.34300,-0.24500,0.12442,0.00000,0.03074,0.99369,-0.07271,0.0
20.34310,0.07000,-0.03308,0.00000,0.02928,0.99393,-0.07296,0.0
20.34320,0.31500,0.01942,0.00000,0.03270,0.99381,-0.07308,0.0
20.34330,0.28000,0.00192,0.00000,0.02989,0.99381,-0.07271,0.0
20.34340,-0.07000,-0.05058,0.00000,0.03026,0.99406,-0.07076,0.0
20.34350,-0.31500,-0.05058,0.00000,0.03038,0.99515,-0.07271,0.0
20.34360,0.08750,-0.10308,0.00000,0.03160,0.99345,-0.07198,0.0
20.34370,0.24500,0.10692,0.00000,0.03050,0.99479,-0.07271,0.0
20.34380,0.24500,0.03692,0.00000,0.03233,0.99406,-0.07222,0.0
20.34390,-0.24500,-0.03308,0.00000,0.03184,0.99418,-0.07320,0.0
20.34400,-0.45500,-0.03308,0.00000,0.03050,0.99613,-0.07247,0.0
20.34410,0.19250,0.10692,0.00000,0.03038,0.99479,-0.07076,0.0
20.34420,0.52500,0.05442,0.00000,0.02952,0.99576,-0.07296,0.0
20.34430,0.26250,0.07192,0.00000,0.03209,0.99174,-0.07613,0.0
20.34440,-0.15750,-0.19058,0.00000,0.03001,0.99454,-0.07442,0.0
20.34450,-0.36750,-0.10308,0.00000,0.03087,0.99503,-0.07125,0.0
20.34460,-0.12250,-0.03308,0.00000,0.03087,0.99625,-0.06905,0.0
20.34470,0.43750,0.03692,0.00000,0.02879,0.99418,-0.07271,0.0
20.34480,0.07000,0.15942,0.00000,0.03026,0.99515,-0.07381,0.0
20.34490,-0.38500,0.08942,0.00000,0.03196,0.99467,-0.07100,0.0
20.34500,-0.19250,0.03692,0.00000,0.03074,0.99491,-0.07186,0.0
20.34510,0.14000,0.14192,0.00000,0.03038,0.99357,-0.07039,0.0
20.34520,0.35000,0.05442,0.00000,0.03160,0.99406,-0.07198,0.0
20.34530,0.07000,-0.12058,0.00000,0.03062,0.99406,-0.07235,0.0
20.34540,-0.10500,-0.06808,0.00000,0.03038,0.99308,-0.07198,0.0
20.34550,-0.42000,-0.17308,0.00000,0.03026,0.99503,-0.07247,0.0
20.34560,0.12250,-0.03308,0.00000,0.03013,0.99442,-0.07247,0.0
20.34570,0.19250,-0.15558,0.00000,0.03196,0.99393,-0.07222,0.0
20.34580,0.10500,0.00192,0.00000,0.03099,0.99576,-0.07357,0.0
20.34590,-0.17500,-0.34808,0.00000,0.03062,0.99320,-0.07247,0.0
20.34600,-0.22750,-0.15558,0.00000,0.02928,0.99381,-0.07247,0.0
20.34610,0.08750,-0.15558,0.00000,0.02977,0.99406,-0.06966,0.0
20.34620,0.35000,0.17692,0.00000,0.03099,0.99381,-0.07235,0.0
20.34630,0.08750,0.03692,0.00000,0.03062,0.99454,-0.07027,0.0
20.34640,-0.22750,0.19442,0.00000,0.02843,0.99235,-0.07357,0.0
20.34650,-0.08750,-0.27808,0.00000,0.03038,0.99393,-0.07247,0.0
20.34660,0.17500,0.07192,0.00000,0.03013,0.99528,-0.07198,0.0
20.34670,0.49000,0.00192,0.00000,0.03184,0.99381,-0.07357,0.0
20.34680,0.08750,-0.01558,0.00000,0.02977,0.99381,-0.07430,0.0
20.34690,-0.22750,0.00192,0.00000,0.03013,0.99369,-0.07088,0.0
20.34700,-0.07000,0.05442,0.00000,0.02843,0.99479,-0.07003,0.0
20.34710,-0.08750,0.05442,0.00000,0.03074,0.99369,-0.07161,0.0
20.34720,0.28000,0.08942,0.00000,0.03074,0.99637,-0.07235,0.0
20.34730,0.05250,-0.06808,0.00000,0.03013,0.99674,-0.07198,0.0
20.34740,-0.31500,-0.10308,0.00000,0.03184,0.99564,-0.07344,0.0
20.34750,0.00000,-0.17308,0.00000,0.03087,0.99491,-0.07149,0.0
20.34760,0.28000,0.14192,0.00000,0.03062,0.99406,-0.07259,0.0
20.34770,0.15750,-0.01558,0.00000,0.02904,0.99442,-0.07222,0.0
20.34780,0.00000,0.03692,0.00000,0.03160,0.99296,-0.07283,0.0
20.34790,-0.26250,-0.12058,0.00000,0.03257,0.99430,-0.07100,0.0
20.34800,-0.36750,0.14192,0.00000,0.02684,0.99320,-0.06942,0.0
20.34810,0.07000,0.12442,0.00000,0.03013,0.99381,-0.07271,0.0
20.34820,0.26250,0.12442,0.00000,0.03087,0.99601,-0.06978,0.0
20.34830,-0.07000,0.08942,0.00000,0.03172,0.99369,-0.07161,0.0
20.34840,-0.21000,-0.05058,0.00000,0.03013,0.99345,-0.07161,0.0
20.34850,-0.17500,0.07192,0.00000,0.02830,0.99345,-0.07100,0.0
20.34860,0.21000,0.10692,0.00000,0.03074,0.99357,-0.07149,0.0
20.34870,0.15750,-0.10308,0.00000,0.02708,0.99418,-0.07198,0.0
20.34880,-0.14000,0.01942,0.00000,0.03172,0.99442,-0.07174,0.0
20.34890,-0.36750,-0.20808,0.00000,0.03038,0.99515,-0.06991,0.0
20.34900,0.12250,-0.10308,0.00000,0.03074,0.99320,-0.07259,0.0
20.34910,0.31500,0.31692,0.00000,0.03026,0.99259,-0.07454,0.0
20.34920,0.22750,0.05442,0.00000,0.02965,0.99430,-0.07174,0.0
20.34930,-0.22750,0.14192,0.00000,0.03062,0.99430,-0.07222,0.0
20.34940,-0.31500,0.08942,0.00000,0.02965,0.99625,-0.07137,0.0
20.34950,0.14000,-0.06808,0.00000,0.03074,0.99320,-0.07125,0.0
20.34960,0.35000,0.26442,0.00000,0.03233,0.99418,-0.07137,0.0
20.34970,0.24500,-0.15558,0.00000,0.03050,0.99589,-0.07039,0.0
20.34980,-0.38500,0.03692,0.00000,0.03062,0.99528,-0.07247,0.0
20.34990,-0.45500,-0.03308,0.00000,0.03172,0.99393,-0.07235,0.0
20.35000,-0.03500,0.05442,0.00000,0.02928,0.99393,-0.06991,0.0
20.35010,0.26250,0.08942,0.00000,0.03013,0.99332,-0.07271,0.0
20.35020,0.05250,0.29942,0.00000,0.03294,0.99381,-0.07198,0.0
20.35030,-0.28000,-0.06808,0.00000,0.03099,0.99589,-0.07320,0.0
20.35040,-0.14000,-0.01558,0.00000,0.03148,0.99418,-0.06991,0.0
20.35050,0.08750,-0.10308,0.00000,0.03050,0.99528,-0.07052,0.0
20.35060,0.26250,-0.01558,0.00000,0.03196,0.99467,-0.07320,0.0
20.35070,0.08750,-0.10308,0.00000,0.03074,0.99454,-0.07320,0.0
20.35080,-0.28000,-0.22558,0.00000,0.03026,0.99528,-0.07088,0.0
20.35090,-0.05250,0.00192,0.00000,0.03050,0.99369,-0.07320,0.0
20.35100,0.26250,-0.05058,0.00000,0.03074,0.99381,-0.07100,0.0
20.35110,0.22750,0.14192,0.00000,0.02891,0.99528,-0.07332,0.0
20.35120,-0.14000,-0.12058,0.00000,0.03062,0.99650,-0.07271,0.0
20.35130,-0.29750,-0.22558,0.00000,0.02818,0.99491,-0.06954,0.0
20.35140,0.05250,-0.20808,0.00000,0.03026,0.99406,-0.07137,0.0
20.35150,0.42000,-0.03308,0.00000,0.02904,0.99515,-0.07235,0.0
20.35160,0.28000,-0.08558,0.00000,0.03123,0.99503,-0.07442,0.0
20.35170,-0.26250,-0.01558,0.00000,0.02977,0.99271,-0.07296,0.0
20.35180,-0.33250,-0.08558,0.00000,0.02977,0.99528,-0.07198,0.0
20.35190,-0.07000,-0.08558,0.00000,0.02916,0.99308,-0.07100,0.0
20.35200,0.15750,0.10692,0.00000,0.03001,0.99454,-0.06991,0.0
20.35210,0.10500,0.10692,0.00000,0.02965,0.99454,-0.07332,0.0
20.35220,-0.12250,-0.05058,0.00000,0.03013,0.99296,-0.07418,0.0
20.35230,-0.26250,-0.06808,0.00000,0.03013,0.99430,-0.07161,0.0
20.35240,0.01750,0.08942,0.00000,0.03135,0.99332,-0.07271,0.0
20.35250,0.03500,0.08942,0.00000,0.03013,0.99393,-0.07015,0.0
20.35260,0.00000,0.03692,0.00000,0.02843,0.99540,-0.07344,0.0
20.35270,-0.10500,-0.08558,0.00000,0.02965,0.99113,-0.07222,0.0
20.35280,0.03500,-0.06808,0.00000,0.02965,0.99235,-0.07076,0.0
20.35290,0.15750,-0.06808,0.00000,0.03245,0.99406,-0.07161,0.0
20.35300,0.14000,-0.06808,0.00000,0.03196,0.99393,-0.07174,0.0
20.35310,-0.05250,-0.19058,0.00000,0.02757,0.99637,-0.07052,0.0
20.35320,-0.08750,-0.06808,0.00000,0.03050,0.99479,-0.07222,0.0
20.35330,-0.01750,0.26442,0.00000,0.02879,0.99479,-0.07149,0.0
20.35340,0.21000,0.15942,0.00000,0.03123,0.99503,-0.07186,0.0
20.35350,-0.01750,-0.03308,0.00000,0.03392,0.99467,-0.07100,0.0
20.35360,-0.19250,0.03692,0.00000,0.03233,0.99479,-0.07125,0.0
20.35370,-0.14000,0.01942,0.00000,0.03013,0.99442,-0.06954,0.0
20.35380,-0.05250,0.28192,0.00000,0.03026,0.99357,-0.07296,0.0
20.35390,-0.07000,-0.03308,0.00000,0.03196,0.99491,-0.07113,0.0
20.35400,0.10500,-0.17308,0.00000,0.03184,0.99381,-0.07210,0.0
20.35410,-0.24500,0.00192,0.00000,0.02965,0.99235,-0.07308,0.0
20.35420,0.08750,0.08942,0.00000,0.02940,0.99491,-0.06954,0.0
20.35430,0.05250,0.05442,0.00000,0.03026,0.99674,-0.07235,0.0
20.35440,-0.07000,-0.10308,0.00000,0.03062,0.99479,-0.07222,0.0
20.35450,-0.33250,-0.12058,0.00000,0.03099,0.99320,-0.07076,0.0
20.35460,0.01750,0.07192,0.00000,0.03062,0.99552,-0.07259,0.0
20.35470,-0.03500,-0.01558,0.00000,0.02977,0.99601,-0.07247,0.0
20.35480,-0.14000,0.15942,0.00000,0.02977,0.99442,-0.07320,0.0
20.35490,0.14000,-0.17308,0.00000,0.02879,0.99625,-0.07283,0.0
20.35500,0.00000,0.03692,0.00000,0.03026,0.99637,-0.07247,0.0
20.35510,0.14000,0.05442,0.00000,0.03245,0.99491,-0.07003,0.0
20.35520,-0.01750,0.19442,0.00000,0.03184,0.99430,-0.07064,0.0
20.35530,-0.05250,-0.06808,0.00000,0.03099,0.99503,-0.07100,0.0
20.35540,0.12250,-0.06808,0.00000,0.03074,0.99662,-0.07052,0.0
20.35550,0.12250,-0.15558,0.00000,0.02806,0.99442,-0.07296,0.0
20.35560,0.07000,-0.29558,0.00000,0.03123,0.99601,-0.07052,0.0
20.35570,-0.28000,-0.03308,0.00000,0.03074,0.99491,-0.07344,0.0
20.35580,-0.24500,0.05442,0.00000,0.02806,0.99491,-0.07344,0.0
20.35590,0.17500,-0.15558,0.00000,0.03087,0.99442,-0.06954,0.0
20.35600,0.07000,0.17692,0.00000,0.03001,0.99503,-0.07174,0.0
20.35610,0.10500,0.07192,0.00000,0.02989,0.99528,-0.07296,0.0
20.35620,0.19250,-0.19058,0.00000,0.02818,0.99503,-0.07296,0.0
20.35630,-0.07000,-0.01558,0.00000,0.03184,0.99479,-0.07186,0.0
20.35640,-0.12250,0.05442,0.00000,0.03001,0.99637,-0.07076,0.0
20.35650,0.10500,-0.06808,0.00000,0.03270,0.99296,-0.07113,0.0
20.35660,0.21000,-0.01558,0.00000,0.02952,0.99528,-0.07222,0.0
20.35670,-0.07000,-0.12058,0.00000,0.03013,0.99491,-0.07369,0.0
20.35680,-0.14000,-0.06808,0.00000,0.02904,0.99430,-0.07149,0.0
20.35690,-0.07000,-0.03308,0.00000,0.03111,0.99515,-0.06966,0.0
20.35700,0.15750,-0.12058,0.00000,0.03087,0.99601,-0.07210,0.0
20.35710,0.12250,-0.20808,0.00000,0.03099,0.99381,-0.07247,0.0
20.35720,0.10500,-0.19058,0.00000,0.03111,0.99430,-0.07100,0.0
20.35730,-0.01750,0.01942,0.00000,0.02940,0.99430,-0.07174,0.0
20.35740,0.17500,-0.06808,0.00000,0.02928,0.99723,-0.07149,0.0
20.35750,-0.03500,-0.01558,0.00000,0.02830,0.99418,-0.07100,0.0
20.35760,-0.05250,0.00192,0.00000,0.03087,0.99430,-0.07186,0.0
20.35770,0.08750,-0.10308,0.00000,0.03001,0.99503,-0.07088,0.0
20.35780,0.22750,0.05442,0.00000,0.03026,0.99308,-0.07149,0.0
20.35790,0.19250,0.05442,0.00000,0.03160,0.99491,-0.07222,0.0
20.35800,-0.17500,0.05442,0.00000,0.03135,0.99564,-0.07247,0.0
20.35810,-0.28000,0.03692,0.00000,0.02977,0.99345,-0.07003,0.0
20.35820,-0.05250,-0.15558,0.00000,0.03050,0.99247,-0.07076,0.0
20.35830,0.29750,0.10692,0.00000,0.03038,0.99393,-0.07259,0.0
20.35840,0.26250,0.00192,0.00000,0.02855,0.99332,-0.07015,0.0
20.35850,-0.01750,0.10692,0.00000,0.03184,0.99491,-0.07149,0.0
20.35860,-0.29750,-0.01558,0.00000,0.02928,0.99479,-0.07039,0.0
20.35870,0.07000,-0.22558,0.00000,0.02989,0.99454,-0.06917,0.0
20.35880,0.33250,0.24692,0.00000,0.03062,0.99284,-0.07003,0.0
20.35890,-0.03500,0.17692,0.00000,0.02965,0.99601,-0.07247,0.0
20.35900,-0.24500,-0.15558,0.00000,0.03099,0.99454,-0.07149,0.0
20.35910,-0.28000,0.12442,0.00000,0.03087,0.99357,-0.06649,0.0
20.35920,0.21000,0.12442,0.00000,0.03245,0.99345,-0.07174,0.0
20.35930,0.36750,0.24692,0.00000,0.03099,0.99528,-0.07113,0.0
20.35940,-0.14000,-0.01558,0.00000,0.02916,0.99515,-0.07393,0.0
20.35950,-0.33250,-0.10308,0.00000,0.02940,0.99491,-0.07027,0.0
20.35960,-0.22750,0.15942,0.00000,0.03099,0.99503,-0.07235,0.0
20.35970,0.22750,-0.13808,0.00000,0.03148,0.99723,-0.07052,0.0
20.35980,0.31500,0.00192,0.00000,0.03001,0.99503,-0.07296,0.0
20.35990,0.19250,-0.12058,0.00000,0.03282,0.99393,-0.07137,0.0
20.36000,-0.28000,0.14192,0.00000,0.02855,0.99430,-0.07161,0.0
20.36010,-0.07000,0.08942,0.00000,0.03123,0.99491,-0.06942,0.0
20.36020,0.29750,-0.06808,0.00000,0.03062,0.99357,-0.07027,0.0
20.36030,0.24500,0.03692,0.00000,0.03038,0.99345,-0.07100,0.0
20.36040,0.28000,-0.08558,0.00000,0.03001,0.99454,-0.07161,0.0
20.36050,-0.26250,0.01942,0.00000,0.03111,0.99515,-0.07113,0.0
20.36060,-0.10500,-0.10308,0.00000,0.03062,0.99198,-0.06978,0.0
20.36070,0.42000,-0.12058,0.00000,0.02965,0.99393,-0.07235,0.0
20.36080,0.31500,0.01942,0.00000,0.02965,0.99369,-0.07369,0.0
20.36090,-0.08750,-0.13808,0.00000,0.03099,0.99345,-0.07198,0.0
20.36100,-0.36750,0.08942,0.00000,0.03245,0.99284,-0.06869,0.0
20.36110,-0.10500,-0.05058,0.00000,0.03062,0.99613,-0.07015,0.0
20.36120,0.31500,0.10692,0.00000,0.03306,0.99564,-0.07052,0.0
20.36130,0.21000,-0.10308,0.00000,0.03050,0.99576,-0.07381,0.0
20.36140,-0.03500,-0.01558,0.00000,0.03160,0.99320,-0.07393,0.0
20.36150,-0.22750,-0.13808,0.00000,0.02928,0.99637,-0.07015,0.0
20.36160,-0.08750,-0.12058,0.00000,0.02891,0.99479,-0.07064,0.0
20.36170,0.47250,0.10692,0.00000,0.03074,0.99430,-0.06991,0.0
20.36180,0.21000,0.05442,0.00000,0.02830,0.99284,-0.07332,0.0
20.36190,-0.03500,-0.22558,0.00000,0.02965,0.99589,-0.07198,0.0
20.36200,-0.22750,0.17692,0.00000,0.03038,0.99406,-0.07027,0.0
20.36210,0.08750,-0.20808,0.00000,0.03148,0.99503,-0.06698,0.0
20.36220,0.33250,-0.12058,0.00000,0.02916,0.99491,-0.07271,0.0
20.36230,0.17500,-0.05058,0.00000,0.03087,0.99491,-0.07161,0.0
20.36240,-0.12250,-0.06808,0.00000,0.03123,0.99162,-0.07247,0.0
20.36250,-0.19250,0.07192,0.00000,0.02916,0.99345,-0.07222,0.0
20.36260,0.24500,0.05442,0.00000,0.03050,0.99442,-0.07174,0.0
20.36270,0.15750,0.17692,0.00000,0.03087,0.99454,-0.07149,0.0
20.36280,-0.29750,0.10692,0.00000,0.03196,0.99332,-0.07161,0.0
20.36290,-0.36750,-0.15558,0.00000,0.02830,0.99430,-0.06930,0.0
20.36300,0.03500,-0.05058,0.00000,0.02916,0.99564,-0.06881,0.0
20.36310,0.47250,0.12442,0.00000,0.02952,0.99686,-0.06844,0.0
20.36320,0.31500,0.08942,0.00000,0.02891,0.99418,-0.07271,0.0
20.36330,-0.45500,-0.05058,0.00000,0.03172,0.99552,-0.07174,0.0
20.36340,-0.31500,-0.15558,0.00000,0.03099,0.99589,-0.06905,0.0
20.36350,0.15750,-0.01558,0.00000,0.03038,0.99442,-0.07100,0.0
20.36360,0.40250,0.15942,0.00000,0.03074,0.99479,-0.07320,0.0
20.36370,0.22750,0.03692,0.00000,0.03050,0.99296,-0.07296,0.0
20.36380,-0.22750,-0.13808,0.00000,0.03343,0.99503,-0.07161,0.0
20.36390,-0.12250,-0.20808,0.00000,0.03196,0.99369,-0.07296,0.0
20.36400,-0.21000,-0.15558,0.00000,0.03160,0.99601,-0.07088,0.0
20.36410,0.24500,0.10692,0.00000,0.03087,0.99430,-0.07088,0.0
20.36420,0.14000,0.38692,0.00000,0.03074,0.99491,-0.07259,0.0
20.36430,-0.42000,0.05442,0.00000,0.02977,0.99223,-0.07039,0.0
20.36440,-0.19250,-0.13808,0.00000,0.03013,0.99381,-0.07137,0.0
20.36450,0.21000,-0.03308,0.00000,0.02867,0.99625,-0.06942,0.0
20.36460,0.47250,0.03692,0.00000,0.02867,0.99296,-0.07357,0.0
20.36470,0.14000,0.10692,0.00000,0.03038,0.99576,-0.07149,0.0
20.36480,-0.54250,-0.01558,0.00000,0.02916,0.99613,-0.07125,0.0
20.36490,-0.21000,-0.20808,0.00000,0.02928,0.99308,-0.07137,0.0
20.36500,0.10500,0.05442,0.00000,0.03111,0.99503,-0.06698,0.0
20.36510,0.56000,0.01942,0.00000,0.03038,0.99454,-0.07076,0.0
20.36520,0.14000,-0.10308,0.00000,0.03013,0.99406,-0.07393,0.0
20.36530,-0.24500,-0.20808,0.00000,0.02965,0.99491,-0.07064,0.0
20.36540,-0.03500,-0.08558,0.00000,0.03172,0.99430,-0.07039,0.0
20.36550,0.22750,-0.03308,0.00000,0.02928,0.99406,-0.07027,0.0
20.36560,-0.03500,0.03692,0.00000,0.03026,0.99491,-0.06942,0.0
20.36570,0.07000,0.05442,0.00000,0.03111,0.99271,-0.07088,0.0
20.36580,-0.01750,0.01942,0.00000,0.03196,0.99418,-0.07198,0.0
20.36590,0.05250,0.01942,0.00000,0.03196,0.99393,-0.07357,0.0
20.36600,-0.08750,-0.03308,0.00000,0.03026,0.99479,-0.07137,0.0
20.36610,0.05250,-0.01558,0.00000,0.03123,0.99601,-0.07296,0.0
20.36620,0.19250,-0.05058,0.00000,0.03001,0.99369,-0.07259,0.0
20.36630,0.01750,-0.13808,0.00000,0.03099,0.99369,-0.07125,0.0
20.36640,-0.15750,0.12442,0.00000,0.03099,0.99454,-0.07222,0.0
20.36650,-0.03500,0.08942,0.00000,0.03172,0.99515,-0.07247,0.0
20.36660,0.22750,-0.31308,0.00000,0.03050,0.99589,-0.07222,0.0
20.36670,0.12250,0.08942,0.00000,0.02977,0.99650,-0.07210,0.0
20.36680,0.10500,-0.26058,0.00000,0.02928,0.99686,-0.07113,0.0
20.36690,-0.17500,0.12442,0.00000,0.03013,0.99369,-0.06978,0.0
20.36700,-0.05250,0.05442,0.00000,0.03196,0.99271,-0.07235,0.0
20.36710,0.01750,0.21192,0.00000,0.02977,0.99381,-0.07052,0.0
20.36720,0.01750,0.14192,0.00000,0.02867,0.99418,-0.07198,0.0
20.36730,0.00000,-0.08558,0.00000,0.03087,0.99503,-0.07113,0.0
20.36740,0.14000,-0.15558,0.00000,0.03074,0.99479,-0.07161,0.0
20.36750,-0.03500,0.08942,0.00000,0.03038,0.99369,-0.07113,0.0
20.36760,-0.01750,-0.03308,0.00000,0.02904,0.99430,-0.07235,0.0
20.36770,-0.08750,0.07192,0.00000,0.03160,0.99442,-0.07210,0.0
20.36780,0.21000,0.07192,0.00000,0.03050,0.99332,-0.07137,0.0
20.36790,0.10500,0.08942,0.00000,0.02952,0.99125,-0.07283,0.0
20.36800,0.01750,0.10692,0.00000,0.03148,0.99503,-0.07344,0.0
20.36810,0.05250,-0.05058,0.00000,0.02928,0.99564,-0.07064,0.0
20.36820,0.03500,-0.17308,0.00000,0.02830,0.99235,-0.07210,0.0
20.36830,-0.10500,0.00192,0.00000,0.03111,0.99393,-0.07198,0.0
20.36840,-0.03500,0.10692,0.00000,0.02952,0.99503,-0.06978,0.0
20.36850,-0.14000,0.08942,0.00000,0.03038,0.99589,-0.06795,0.0
20.36860,0.05250,0.01942,0.00000,0.03099,0.99723,-0.07161,0.0
20.36870,0.29750,0.10692,0.00000,0.02965,0.99369,-0.07186,0.0
20.36880,-0.22750,-0.05058,0.00000,0.02916,0.99332,-0.07381,0.0
20.36890,-0.57750,-0.01558,0.00000,0.02928,0.99369,-0.07369,0.0
20.36900,-0.10500,0.05442,0.00000,0.03099,0.99467,-0.07222,0.0
20.36910,0.45500,-0.01558,0.00000,0.03074,0.99149,-0.07296,0.0
20.36920,0.47250,0.05442,0.00000,0.02952,0.99296,-0.07210,0.0
20.36930,-0.31500,0.10692,0.00000,0.03013,0.99454,-0.07247,0.0
20.36940,-0.14000,-0.08558,0.00000,0.02940,0.99528,-0.06930,0.0
20.36950,-0.19250,-0.01558,0.00000,0.02904,0.99345,-0.07088,0.0
20.36960,0.05250,0.19442,0.00000,0.03062,0.99345,-0.07198,0.0
20.36970,-0.07000,-0.15558,0.00000,0.03050,0.99503,-0.07259,0.0
20.36980,-0.10500,0.03692,0.00000,0.03026,0.99613,-0.07064,0.0
20.36990,0.28000,-0.36558,0.00000,0.03135,0.99137,-0.07137,0.0
20.37000,-0.05250,0.08942,0.00000,0.03196,0.99625,-0.07137,0.0
20.37010,-0.19250,-0.03308,0.00000,0.03050,0.99308,-0.07064,0.0
20.37020,-2.01250,-0.29558,0.00000,0.03148,0.99540,-0.08406,0.0
20.37030,-5.82750,-1.20558,0.00000,0.02879,0.99406,-0.07393,0.0
20.37040,-3.93750,-0.54058,0.00000,0.02989,0.99210,-0.05941,0.0
20.37050,-0.05250,0.00192,0.00000,0.02806,0.99589,-0.07259,0.0
20.37060,-2.92250,-0.45308,0.00000,0.03294,0.99454,-0.09272,0.0
20.37070,-12.49500,-1.95808,0.00000,0.02928,0.99552,-0.06820,0.0
20.37080,-11.48000,-1.85308,0.00000,0.02782,0.99210,-0.04892,0.0
20.37090,-3.99000,-0.26058,0.00000,0.02989,0.99393,-0.03623,0.0
20.37100,5.72250,0.77192,0.00000,0.02172,0.99198,-0.05307,0.0
20.37110,6.24750,0.98192,0.00000,0.02879,0.99467,-0.07259,0.0
20.37120,2.99250,0.63192,0.00000,0.04136,0.99869,-0.07674,0.0
20.37130,-0.10500,-0.08558,0.00000,0.03892,0.99650,-0.04965,0.0
20.37140,2.73000,0.66692,0.00000,0.03331,0.99576,-0.05173,0.0
20.37150,11.34000,1.05192,0.00000,0.02989,0.99528,-0.05697,0.0
20.37160,13.42250,2.45192,0.00000,0.03099,0.99442,-0.08455,0.0
20.37170,4.67250,1.03442,0.00000,0.03062,0.99674,-0.09882,0.0
20.37180,-6.79000,-1.13558,0.00000,0.03148,0.99503,-0.08150,0.0
20.37190,-6.24750,-1.04808,0.00000,0.02965,0.99381,-0.05344,0.0
20.37200,1.17250,0.14192,0.00000,0.02989,0.99137,-0.05075,0.0
20.37210,6.40500,1.17442,0.00000,0.02757,0.99564,-0.07564,0.0
20.37220,2.01250,0.24692,0.00000,0.02904,0.99674,-0.08467,0.0
20.37230,-2.94000,-0.43558,0.00000,0.02928,0.99552,-0.08052,0.0
20.37240,-3.58750,-0.69808,0.00000,0.03172,0.99540,-0.06259,0.0
20.37250,-0.24500,0.21192,0.00000,0.03062,0.99406,-0.06076,0.0
20.37260,3.04500,0.45692,0.00000,0.03013,0.99369,-0.06942,0.0
20.37270,1.66250,0.22942,0.00000,0.02806,0.99528,-0.07857,0.0
20.37280,-1.03250,-0.19058,0.00000,0.02855,0.99210,-0.07784,0.0
20.37290,-2.08250,-0.24308,0.00000,0.03111,0.99406,-0.06710,0.0
20.37300,-0.35000,0.14192,0.00000,0.03160,0.99345,-0.06320,0.0
20.37310,1.52250,0.12442,0.00000,0.03062,0.99491,-0.06917,0.0
20.37320,1.36500,0.22942,0.00000,0.03074,0.99393,-0.07442,0.0
20.37330,-0.42000,0.00192,0.00000,0.03294,0.99235,-0.07454,0.0
20.37340,-0.94500,-0.24308,0.00000,0.03013,0.99259,-0.07039,0.0
20.37350,-0.49000,0.03692,0.00000,0.02916,0.99381,-0.06686,0.0
20.37360,0.73500,0.15942,0.00000,0.02867,0.99345,-0.07076,0.0
20.37370,0.56000,0.24692,0.00000,0.03013,0.99662,-0.07381,0.0
20.37380,-0.31500,0.24692,0.00000,0.03087,0.99393,-0.07344,0.0
20.37390,-0.57750,-0.05058,0.00000,0.03135,0.99332,-0.06844,0.0
20.37400,0.31500,0.08942,0.00000,0.03038,0.99271,-0.06771,0.0
20.37410,0.63000,0.07192,0.00000,0.03148,0.99601,-0.07149,0.0
20.37420,0.36750,0.05442,0.00000,0.03270,0.99393,-0.07186,0.0
20.37430,-0.26250,-0.10308,0.00000,0.02965,0.99698,-0.07052,0.0
20.37440,-0.21000,-0.03308,0.00000,0.03135,0.99503,-0.06783,0.0
20.37450,-0.03500,-0.22558,0.00000,0.03050,0.99589,-0.06917,0.0
20.37460,0.26250,0.19442,0.00000,0.03050,0.99284,-0.07052,0.0
20.37470,0.12250,-0.03308,0.00000,0.03209,0.99430,-0.07210,0.0
20.37480,0.07000,-0.05058,0.00000,0.03172,0.99576,-0.07064,0.0
20.37490,-0.70000,-0.15558,0.00000,0.03196,0.99564,-0.06856,0.0
20.37500,-0.33250,0.05442,0.00000,0.03099,0.99467,-0.06808,0.0
20.37510,0.54250,0.08942,0.00000,0.02928,0.99503,-0.07064,0.0
20.37520,0.63000,0.05442,0.00000,0.03050,0.99345,-0.07186,0.0
20.37530,0.05250,0.07192,0.00000,0.02940,0.99503,-0.07271,0.0
20.37540,-0.49000,-0.08558,0.00000,0.03196,0.99442,-0.07113,0.0
20.37550,-0.36750,-0.24308,0.00000,0.03050,0.99357,-0.06917,0.0
20.37560,0.15750,-0.06808,0.00000,0.03038,0.99442,-0.07039,0.0
20.37570,0.50750,0.00192,0.00000,0.03282,0.99223,-0.07259,0.0
20.37580,0.52500,-0.19058,0.00000,0.03721,0.99479,-0.07686,0.0
20.37590,-0.31500,-0.08558,0.00000,0.03501,0.99296,-0.07357,0.0
20.37600,-0.22750,0.26442,0.00000,0.03123,0.99503,-0.06600,0.0
20.37610,0.49000,0.00192,0.00000,0.03123,0.99320,-0.06698,0.0
20.37620,0.36750,-0.08558,0.00000,0.03453,0.99784,-0.07479,0.0
20.37630,-0.54250,-0.27808,0.00000,0.03209,0.99503,-0.07222,0.0
20.37640,-0.64750,-0.15558,0.00000,0.02989,0.99613,-0.06905,0.0
20.37650,0.33250,0.07192,0.00000,0.03026,0.99442,-0.06539,0.0
20.37660,0.87500,0.10692,0.00000,0.02879,0.99235,-0.06978,0.0
20.37670,0.31500,0.14192,0.00000,0.03038,0.99552,-0.07540,0.0
20.37680,-0.28000,-0.10308,0.00000,0.02977,0.99540,-0.06966,0.0
20.37690,-0.77000,-0.19058,0.00000,0.02904,0.99479,-0.06881,0.0
20.37700,-0.03500,-0.06808,0.00000,0.03245,0.99296,-0.06893,0.0
20.37710,0.35000,0.24692,0.00000,0.03209,0.99198,-0.07076,0.0
20.37720,0.61250,-0.15558,0.00000,0.03172,0.99467,-0.07235,0.0
20.37730,0.05250,-0.19058,0.00000,0.03160,0.99442,-0.07125,0.0
20.37740,-0.19250,-0.19058,0.00000,0.03123,0.99357,-0.07088,0.0
20.37750,-0.19250,0.00192,0.00000,0.03257,0.99406,-0.07088,0.0
20.37760,0.28000,0.29942,0.00000,0.03196,0.99540,-0.07076,0.0
20.37770,0.52500,0.17692,0.00000,0.02855,0.99247,-0.07381,0.0
20.37780,0.10500,0.03692,0.00000,0.03221,0.99515,-0.07405,0.0
20.37790,-0.52500,-0.20808,0.00000,0.03026,0.99503,-0.07259,0.0
20.37800,-0.24500,-0.06808,0.00000,0.03270,0.99589,-0.06966,0.0
20.37810,0.43750,0.19442,0.00000,0.03099,0.99345,-0.07100,0.0
20.37820,0.49000,0.24692,0.00000,0.03074,0.99393,-0.07161,0.0
20.37830,-0.01750,-0.06808,0.00000,0.03135,0.99662,-0.07369,0.0
20.37840,-0.38500,-0.13808,0.00000,0.02904,0.99418,-0.07174,0.0
20.37850,0.08750,0.03692,0.00000,0.03099,0.99637,-0.06930,0.0
20.37860,0.57750,0.08942,0.00000,0.03001,0.99540,-0.07027,0.0
20.37870,0.45500,0.12442,0.00000,0.02891,0.99430,-0.07320,0.0
20.37880,-0.10500,0.07192,0.00000,0.03074,0.99589,-0.07271,0.0
20.37890,-0.15750,0.01942,0.00000,0.02940,0.99589,-0.06747,0.0
20.37900,0.05250,-0.10308,0.00000,0.03123,0.99491,-0.07271,0.0
20.37910,0.26250,-0.06808,0.00000,0.02977,0.99454,-0.07088,0.0
20.37920,0.26250,-0.03308,0.00000,0.03099,0.99552,-0.07149,0.0
20.37930,-0.15750,-0.15558,0.00000,0.02916,0.99491,-0.07039,0.0
20.37940,-0.19250,0.01942,0.00000,0.03355,0.99430,-0.07283,0.0
20.37950,-0.24500,0.05442,0.00000,0.02916,0.99454,-0.07052,0.0
20.37960,-0.08750,0.31692,0.00000,0.03013,0.99418,-0.06942,0.0
20.37970,0.40250,0.07192,0.00000,0.03062,0.99296,-0.07052,0.0
20.37980,0.35000,0.01942,0.00000,0.03184,0.99454,-0.07064,0.0
20.37990,-0.22750,0.03692,0.00000,0.02843,0.99418,-0.07186,0.0
20.38000,-0.12250,0.00192,0.00000,0.03087,0.99637,-0.07052,0.0
20.38010,-0.01750,-0.05058,0.00000,0.03026,0.99686,-0.06954,0.0
20.38020,0.05250,0.29942,0.00000,0.02904,0.99564,-0.06966,0.0
20.38030,0.05250,0.07192,0.00000,0.02989,0.99528,-0.06942,0.0
20.38040,0.01750,-0.05058,0.00000,0.03245,0.99564,-0.07015,0.0
20.38050,0.12250,-0.12058,0.00000,0.03172,0.99406,-0.07125,0.0
20.38060,0.14000,-0.08558,0.00000,0.03233,0.99503,-0.07052,0.0
20.38070,0.05250,0.12442,0.00000,0.03087,0.99515,-0.07247,0.0
20.38080,-0.15750,-0.15558,0.00000,0.03099,0.99271,-0.07222,0.0
20.38090,-0.21000,0.08942,0.00000,0.03172,0.99467,-0.07015,0.0
20.38100,0.10500,-0.05058,0.00000,0.03196,0.99369,-0.07003,0.0
20.38110,0.10500,0.05442,0.00000,0.03257,0.99503,-0.07052,0.0
20.38120,0.26250,0.05442,0.00000,0.03355,0.99430,-0.07003,0.0
20.38130,0.05250,-0.05058,0.00000,0.03148,0.99479,-0.07064,0.0
20.38140,0.00000,0.07192,0.00000,0.03013,0.99796,-0.07027,0.0
20.38150,-0.22750,-0.10308,0.00000,0.03087,0.99357,-0.06856,0.0
20.38160,0.07000,0.01942,0.00000,0.02940,0.99308,-0.07088,0.0
20.38170,0.12250,-0.08558,0.00000,0.02928,0.99491,-0.06966,0.0
20.38180,0.22750,-0.03308,0.00000,0.02806,0.99332,-0.07296,0.0
20.38190,-0.03500,-0.06808,0.00000,0.03050,0.99369,-0.07308,0.0
20.38200,-0.10500,-0.03308,0.00000,0.03123,0.99515,-0.06978,0.0
20.38210,0.15750,-0.05058,0.00000,0.03160,0.99650,-0.07174,0.0
20.38220,-0.03500,0.15942,0.00000,0.03233,0.99345,-0.07161,0.0
20.38230,0.00000,-0.13808,0.00000,0.03135,0.99503,-0.07027,0.0
20.38240,-0.19250,-0.03308,0.00000,0.02977,0.99662,-0.07222,0.0
20.38250,-0.15750,-0.24308,0.00000,0.02940,0.99625,-0.06747,0.0
20.38260,0.21000,-0.10308,0.00000,0.02916,0.99369,-0.07003,0.0
20.38270,0.33250,0.10692,0.00000,0.03001,0.99357,-0.07125,0.0
20.38280,0.21000,0.14192,0.00000,0.03062,0.99613,-0.07430,0.0
20.38290,-0.54250,-0.08558,0.00000,0.02989,0.99345,-0.07320,0.0
20.38300,-0.15750,-0.10308,0.00000,0.02952,0.99162,-0.06808,0.0
20.38310,0.10500,0.35192,0.00000,0.03001,0.99479,-0.06844,0.0
20.38320,0.75250,-0.03308,0.00000,0.03160,0.99552,-0.07283,0.0
20.38330,0.03500,0.01942,0.00000,0.03135,0.99479,-0.07430,0.0
20.38340,-0.45500,-0.10308,0.00000,0.03013,0.99296,-0.06978,0.0
20.38350,-0.43750,0.19442,0.00000,0.02843,0.99564,-0.07064,0.0
20.38360,0.36750,0.03692,0.00000,0.03062,0.99589,-0.07222,0.0
20.38370,0.57750,-0.06808,0.00000,0.03087,0.99552,-0.07357,0.0
20.38380,0.21000,-0.24308,0.00000,0.02891,0.99467,-0.07088,0.0
20.38390,-0.26250,-0.01558,0.00000,0.03001,0.99381,-0.07320,0.0
20.38400,-0.08750,-0.06808,0.00000,0.02928,0.99564,-0.06978,0.0
20.38410,0.12250,0.17692,0.00000,0.02843,0.99320,-0.06856,0.0
20.38420,0.64750,0.07192,0.00000,0.03294,0.99784,-0.07161,0.0
20.38430,0.08750,-0.17308,0.00000,0.02843,0.99650,-0.07344,0.0
20.38440,-0.64750,0.07192,0.00000,0.03135,0.99515,-0.07015,0.0
20.38450,-0.15750,0.03692,0.00000,0.02904,0.98857,-0.06612,0.0
20.38460,0.49000,0.21192,0.00000,0.02952,0.99442,-0.06625,0.0
20.38470,0.61250,-0.06808,0.00000,0.03099,0.99381,-0.07466,0.0
20.38480,-0.31500,-0.08558,0.00000,0.02904,0.99369,-0.07222,0.0
20.38490,-0.43750,-0.24308,0.00000,0.02940,0.99345,-0.07247,0.0
20.38500,-0.31500,0.10692,0.00000,0.03026,0.99674,-0.06905,0.0
20.38510,0.50750,-0.03308,0.00000,0.02891,0.99369,-0.06820,0.0
20.38520,0.75250,0.19442,0.00000,0.03172,0.99271,-0.07247,0.0
20.38530,0.07000,-0.15558,0.00000,0.03001,0.99515,-0.07210,0.0
20.38540,-0.47250,0.03692,0.00000,0.03209,0.99259,-0.07100,0.0
20.38550,-0.31500,-0.20808,0.00000,0.03099,0.99589,-0.07088,0.0
20.38560,0.29750,-0.13808,0.00000,0.03172,0.99528,-0.06954,0.0
20.38570,0.17500,0.14192,0.00000,0.03062,0.99540,-0.07296,0.0
20.38580,0.21000,-0.03308,0.00000,0.02977,0.99503,-0.06893,0.0
20.38590,-0.01750,-0.17308,0.00000,0.02769,0.99381,-0.07015,0.0
20.38600,0.01750,-0.13808,0.00000,0.02965,0.99576,-0.07161,0.0
20.38610,0.00000,0.10692,0.00000,0.03196,0.99589,-0.07100,0.0
20.38620,0.12250,-0.10308,0.00000,0.03074,0.99442,-0.07259,0.0
20.38630,0.01750,-0.12058,0.00000,0.03160,0.99589,-0.07149,0.0
20.38640,-0.07000,-0.12058,0.00000,0.03074,0.99576,-0.07076,0.0
20.38650,0.01750,0.07192,0.00000,0.03196,0.99467,-0.06978,0.0
20.38660,0.22750,0.07192,0.00000,0.03074,0.99442,-0.06978,0.0
20.38670,0.15750,-0.27808,0.00000,0.03013,0.99613,-0.07076,0.0
20.38680,0.19250,0.12442,0.00000,0.03209,0.99650,-0.07076,0.0
20.38690,-0.08750,0.01942,0.00000,0.03331,0.99369,-0.07039,0.0
20.38700,-0.15750,-0.19058,0.00000,0.03306,0.99345,-0.07064,0.0
20.38710,0.00000,0.05442,0.00000,0.03038,0.99528,-0.07100,0.0
20.38720,0.33250,-0.19058,0.00000,0.03209,0.99381,-0.06942,0.0
20.38730,0.17500,0.07192,0.00000,0.03050,0.99589,-0.07308,0.0
20.38740,-0.07000,0.10692,0.00000,0.02965,0.99369,-0.06771,0.0
20.38750,0.01750,-0.15558,0.00000,0.03233,0.99796,-0.07271,0.0
20.38760,-2.01250,-0.24308,0.00000,0.03416,0.99369,-0.08101,0.0
20.38770,-3.02750,-0.59308,0.00000,0.03087,0.99418,-0.06173,0.0
20.38780,0.21000,-0.10308,0.00000,0.03196,0.99235,-0.06649,0.0
20.38790,1.83750,0.21192,0.00000,0.03196,0.99467,-0.06722,0.0
20.38800,2.25750,0.43942,0.00000,0.03026,0.99662,-0.07442,0.0
20.38810,0.80500,0.03692,0.00000,0.02965,0.99223,-0.07625,0.0
20.38820,-1.01500,-0.08558,0.00000,0.03123,0.99686,-0.07283,0.0
20.38830,-1.26000,-0.13808,0.00000,0.02989,0.99674,-0.06893,0.0
20.38840,-0.63000,0.00192,0.00000,0.03135,0.99528,-0.06673,0.0
20.38850,0.99750,0.22942,0.00000,0.02904,0.99637,-0.06954,0.0
20.38860,1.52250,0.19442,0.00000,0.03270,0.99576,-0.07027,0.0
20.38870,1.05000,0.31692,0.00000,0.02916,0.99601,-0.07198,0.0
20.38880,0.07000,0.01942,0.00000,0.02928,0.99503,-0.07418,0.0
20.38890,0.00000,-0.08558,0.00000,0.03062,0.99564,-0.07174,0.0
20.38900,-0.85750,-0.15558,0.00000,0.03135,0.99345,-0.07381,0.0
20.38910,-0.77000,0.00192,0.00000,0.03062,0.99503,-0.06881,0.0
20.38920,-0.07000,-0.13808,0.00000,0.03135,0.99284,-0.06966,0.0
20.38930,-0.15750,-0.06808,0.00000,0.03099,0.99589,-0.07161,0.0
20.38940,-0.26250,-0.05058,0.00000,0.03367,0.99552,-0.06783,0.0
20.38950,-1.17250,-0.19058,0.00000,0.02867,0.99332,-0.07235,0.0
20.38960,-1.03250,-0.01558,0.00000,0.03026,0.99186,-0.07198,0.0
20.38970,-1.15500,-0.05058,0.00000,0.02940,0.99650,-0.07186,0.0
20.38980,-1.12000,-0.17308,0.00000,0.02891,0.99284,-0.06942,0.0
20.38990,-0.98000,-0.12058,0.00000,0.03074,0.99613,-0.07039,0.0
20.39000,-1.31250,-0.17308,0.00000,0.03038,0.99442,-0.07100,0.0
20.39010,-1.19000,-0.15558,0.00000,0.03001,0.99711,-0.06942,0.0
20.39020,-0.42000,-0.06808,0.00000,0.03013,0.99308,-0.06905,0.0
20.39030,-0.40250,0.08942,0.00000,0.02952,0.99357,-0.07113,0.0
20.39040,-0.77000,-0.17308,0.00000,0.02965,0.99662,-0.06856,0.0
20.39050,-0.52500,-0.36558,0.00000,0.02891,0.99454,-0.06966,0.0
20.39060,-0.85750,-0.24308,0.00000,0.02965,0.99540,-0.06844,0.0
20.39070,-0.15750,-0.22558,0.00000,0.03172,0.99515,-0.06771,0.0
20.39080,-0.40250,0.17692,0.00000,0.03392,0.99467,-0.07113,0.0
20.39090,-0.50750,-0.22558,0.00000,0.02928,0.99503,-0.06661,0.0
20.39100,-0.21000,0.12442,0.00000,0.03050,0.99308,-0.06600,0.0
20.39110,0.35000,0.03692,0.00000,0.03087,0.99345,-0.06759,0.0
20.39120,0.36750,0.07192,0.00000,0.02965,0.99650,-0.06820,0.0
20.39130,0.42000,0.00192,0.00000,0.03111,0.99271,-0.06954,0.0
20.39140,0.17500,0.01942,0.00000,0.03184,0.99540,-0.06869,0.0
20.39150,-0.12250,0.08942,0.00000,0.03135,0.99564,-0.06917,0.0
20.39160,0.03500,-0.05058,0.00000,0.02794,0.99369,-0.06893,0.0
20.39170,-0.05250,0.01942,0.00000,0.03294,0.99357,-0.06966,0.0
20.39180,0.24500,-0.10308,0.00000,0.03135,0.99223,-0.06917,0.0
20.39190,-0.22750,0.03692,0.00000,0.02989,0.99467,-0.07076,0.0
20.39200,-0.36750,-0.08558,0.00000,0.03209,0.99467,-0.06966,0.0
20.39210,-0.05250,-0.10308,0.00000,0.03026,0.99357,-0.06625,0.0
20.39220,0.31500,0.14192,0.00000,0.03160,0.99540,-0.06869,0.0
20.39230,0.29750,-0.26058,0.00000,0.03160,0.99454,-0.07039,0.0
20.39240,0.07000,0.05442,0.00000,0.02879,0.99564,-0.07113,0.0
20.39250,-0.29750,0.14192,0.00000,0.02952,0.99564,-0.06930,0.0
20.39260,-0.61250,-0.08558,0.00000,0.03013,0.99223,-0.07113,0.0
20.39270,-0.61250,-0.05058,0.00000,0.03013,0.99564,-0.06795,0.0
20.39280,-0.66500,-0.08558,0.00000,0.03087,0.99589,-0.06661,0.0
20.39290,-0.61250,0.01942,0.00000,0.03123,0.99674,-0.07015,0.0
20.39300,-0.47250,0.00192,0.00000,0.03135,0.99162,-0.07003,0.0
20.39310,0.08750,0.03692,0.00000,0.02879,0.99332,-0.06832,0.0
20.39320,0.77000,0.00192,0.00000,0.03160,0.99369,-0.06856,0.0
20.39330,0.45500,-0.01558,0.00000,0.03294,0.99564,-0.07113,0.0
20.39340,-0.03500,0.00192,0.00000,0.03026,0.99332,-0.06649,0.0
20.39350,0.50750,0.21192,0.00000,0.02867,0.99345,-0.06856,0.0
20.39360,0.50750,0.00192,0.00000,0.02916,0.99601,-0.06503,0.0
20.39370,0.61250,0.22942,0.00000,0.03111,0.99357,-0.06759,0.0
20.39380,0.71750,0.07192,0.00000,0.03160,0.99259,-0.07149,0.0
20.39390,0.56000,0.26442,0.00000,0.02965,0.99430,-0.07064,0.0
20.39400,0.35000,0.36942,0.00000,0.03184,0.99332,-0.07039,0.0
20.39410,0.52500,-0.26058,0.00000,0.03001,0.99308,-0.06686,0.0
20.39420,0.29750,0.12442,0.00000,0.02977,0.99515,-0.06905,0.0
20.39430,0.17500,-0.05058,0.00000,0.03099,0.99637,-0.07027,0.0
20.39440,0.08750,0.08942,0.00000,0.03099,0.99454,-0.06722,0.0
20.39450,0.00000,-0.20808,0.00000,0.03306,0.99503,-0.06930,0.0
20.39460,-0.19250,0.19442,0.00000,0.03172,0.99479,-0.06881,0.0
20.39470,0.01750,0.01942,0.00000,0.03013,0.99503,-0.06856,0.0
20.39480,0.05250,-0.10308,0.00000,0.03148,0.99528,-0.06820,0.0
20.39490,-0.05250,-0.19058,0.00000,0.03172,0.99235,-0.06917,0.0
20.39500,0.26250,0.01942,0.00000,0.03013,0.99589,-0.07015,0.0
20.39510,0.10500,0.01942,0.00000,0.02904,0.99711,-0.06978,0.0
20.39520,0.33250,-0.24308,0.00000,0.02940,0.99308,-0.06905,0.0
20.39530,0.07000,-0.01558,0.00000,0.03160,0.99515,-0.06966,0.0
20.39540,-0.12250,-0.10308,0.00000,0.03245,0.99357,-0.06856,0.0
20.39550,-0.07000,0.05442,0.00000,0.03038,0.99271,-0.07198,0.0
20.39560,0.21000,0.05442,0.00000,0.02916,0.99430,-0.06991,0.0
20.39570,0.17500,-0.13808,0.00000,0.02989,0.99393,-0.07015,0.0
20.39580,0.22750,0.10692,0.00000,0.02904,0.99576,-0.06905,0.0
20.39590,0.00000,-0.08558,0.00000,0.03038,0.99711,-0.06917,0.0
20.39600,0.10500,0.14192,0.00000,0.03099,0.99369,-0.06795,0.0
20.39610,0.35000,0.12442,0.00000,0.03062,0.99381,-0.06954,0.0
20.39620,0.63000,-0.01558,0.00000,0.03270,0.99369,-0.07003,0.0
20.39630,0.61250,0.10692,0.00000,0.02977,0.99552,-0.07003,0.0
20.39640,0.33250,-0.15558,0.00000,0.03148,0.99479,-0.07137,0.0
20.39650,0.22750,0.29942,0.00000,0.03111,0.99381,-0.07088,0.0
20.39660,-0.10500,0.28192,0.00000,0.03074,0.99552,-0.07210,0.0
20.39670,-0.07000,0.05442,0.00000,0.03013,0.99345,-0.07198,0.0
20.39680,0.14000,-0.20808,0.00000,0.02757,0.99393,-0.06991,0.0
20.39690,0.89250,0.36942,0.00000,0.03221,0.99528,-0.06844,0.0
20.39700,0.45500,0.21192,0.00000,0.02940,0.99515,-0.07405,0.0
20.39710,0.64750,-0.19058,0.00000,0.02891,0.99430,-0.06942,0.0
20.39720,0.35000,-0.01558,0.00000,0.03209,0.99430,-0.07149,0.0
20.39730,0.00000,0.15942,0.00000,0.02977,0.99393,-0.07003,0.0
20.39740,0.03500,0.00192,0.00000,0.02879,0.99430,-0.07259,0.0
20.39750,0.07000,0.01942,0.00000,0.03245,0.99308,-0.06991,0.0
20.39760,0.52500,0.07192,0.00000,0.03123,0.99625,-0.06954,0.0
20.39770,0.38500,0.01942,0.00000,0.03160,0.99467,-0.07442,0.0
20.39780,0.14000,0.17692,0.00000,0.03160,0.99345,-0.07210,0.0
20.39790,0.10500,0.08942,0.00000,0.03135,0.99393,-0.07393,0.0
20.39800,-0.05250,-0.05058,0.00000,0.02794,0.99296,-0.07137,0.0
20.39810,-0.24500,0.19442,0.00000,0.03050,0.99601,-0.06881,0.0
20.39820,-0.05250,0.00192,0.00000,0.03026,0.99393,-0.06722,0.0
20.39830,0.49000,-0.22558,0.00000,0.02843,0.99430,-0.06905,0.0
20.39840,0.40250,0.00192,0.00000,0.03209,0.99369,-0.07100,0.0
20.39850,-0.07000,0.12442,0.00000,0.02916,0.99369,-0.07137,0.0
20.39860,-0.22750,0.03692,0.00000,0.03050,0.99369,-0.07247,0.0
20.39870,-0.31500,-0.13808,0.00000,0.02952,0.99357,-0.07259,0.0
20.39880,0.42000,0.24692,0.00000,0.03062,0.99552,-0.06930,0.0
20.39890,0.70000,0.10692,0.00000,0.03148,0.99528,-0.06930,0.0
20.39900,0.61250,-0.06808,0.00000,0.03038,0.99223,-0.07198,0.0
20.39910,0.35000,-0.08558,0.00000,0.02806,0.99479,-0.07247,0.0
20.39920,-0.14000,0.07192,0.00000,0.03196,0.99601,-0.06881,0.0
20.39930,0.01750,-0.12058,0.00000,0.03099,0.99442,-0.07161,0.0
20.39940,-0.15750,-0.06808,0.00000,0.03160,0.99430,-0.07015,0.0
20.39950,0.07000,0.01942,0.00000,0.02989,0.99576,-0.07039,0.0
20.39960,0.28000,-0.24308,0.00000,0.03013,0.99589,-0.06978,0.0
20.39970,0.22750,0.08942,0.00000,0.03148,0.99296,-0.07442,0.0
20.39980,0.19250,-0.19058,0.00000,0.03257,0.99491,-0.07027,0.0
20.39990,0.00000,0.26442,0.00000,0.03245,0.99381,-0.07125,0.0
20.40000,-0.07000,0.03692,0.00000,0.03294,0.99564,-0.07088,0.0
20.40010,-0.15750,-0.08558,0.00000,0.03074,0.99235,-0.07137,0.0
20.40020,0.31500,0.03692,0.00000,0.03050,0.99454,-0.07283,0.0
20.40030,-0.14000,0.08942,0.00000,0.03087,0.99454,-0.07588,0.0
20.40040,0.00000,-0.05058,0.00000,0.03062,0.99564,-0.07064,0.0
20.40050,0.21000,-0.10308,0.00000,0.03196,0.99381,-0.07283,0.0
20.40060,0.07000,-0.08558,0.00000,0.03111,0.99406,-0.07247,0.0
20.40070,-0.21000,0.00192,0.00000,0.03221,0.99528,-0.07137,0.0
20.40080,-0.38500,0.03692,0.00000,0.03135,0.99467,-0.06966,0.0
20.40090,0.08750,0.08942,0.00000,0.03318,0.99345,-0.06930,0.0
20.40100,0.49000,0.05442,0.00000,0.03087,0.99418,-0.07125,0.0
20.40110,0.15750,-0.08558,0.00000,0.03270,0.99491,-0.07247,0.0
20.40120,0.26250,0.05442,0.00000,0.03013,0.99393,-0.07357,0.0
20.40130,0.14000,-0.01558,0.00000,0.03074,0.99430,-0.07149,0.0
20.40140,0.15750,-0.03308,0.00000,0.03074,0.99479,-0.07003,0.0
20.40150,0.07000,0.07192,0.00000,0.03099,0.99503,-0.07247,0.0
20.40160,-0.17500,0.01942,0.00000,0.03087,0.99442,-0.07405,0.0
20.40170,-0.17500,-0.15558,0.00000,0.03087,0.99418,-0.07271,0.0
20.40180,-0.12250,-0.22558,0.00000,0.03135,0.99601,-0.07113,0.0
20.40190,0.17500,-0.03308,0.00000,0.03087,0.99454,-0.07039,0.0
20.40200,0.10500,0.01942,0.00000,0.02855,0.99479,-0.06954,0.0
20.40210,0.22750,-0.06808,0.00000,0.02989,0.99393,-0.07235,0.0
20.40220,-0.03500,0.08942,0.00000,0.03196,0.99503,-0.07186,0.0
20.40230,-0.19250,-0.10308,0.00000,0.03196,0.99491,-0.07003,0.0
20.40240,0.21000,0.07192,0.00000,0.03196,0.99564,-0.07137,0.0
20.40250,0.22750,0.22942,0.00000,0.03135,0.99369,-0.07161,0.0
20.40260,0.12250,-0.06808,0.00000,0.02794,0.99259,-0.07442,0.0
20.40270,-0.14000,-0.20808,0.00000,0.03148,0.99418,-0.07210,0.0
20.40280,-0.31500,-0.06808,0.00000,0.03038,0.99625,-0.07283,0.0
20.40290,0.17500,-0.05058,0.00000,0.03074,0.99345,-0.07113,0.0
20.40300,0.17500,-0.05058,0.00000,0.03221,0.99650,-0.07259,0.0
20.40310,0.40250,-0.20808,0.00000,0.02965,0.99320,-0.07137,0.0
20.40320,0.10500,0.03692,0.00000,0.03148,0.99503,-0.07198,0.0
20.40330,-0.08750,0.00192,0.00000,0.03160,0.99515,-0.07027,0.0
20.40340,-0.03500,-0.19058,0.00000,0.03038,0.99576,-0.07235,0.0
20.40350,-0.12250,0.14192,0.00000,0.03001,0.99454,-0.07039,0.0
20.40360,0.03500,0.00192,0.00000,0.03160,0.99503,-0.06966,0.0
20.40370,0.01750,0.08942,0.00000,0.02989,0.99406,-0.07137,0.0
20.40380,-0.03500,0.03692,0.00000,0.03026,0.99552,-0.07405,0.0
20.40390,0.05250,0.07192,0.00000,0.02989,0.99747,-0.07222,0.0
20.40400,0.22750,-0.12058,0.00000,0.02952,0.99515,-0.06942,0.0
20.40410,-0.01750,-0.06808,0.00000,0.03026,0.99320,-0.07552,0.0
20.40420,-0.31500,0.15942,0.00000,0.03074,0.99393,-0.07222,0.0
20.40430,-0.01750,0.03692,0.00000,0.02977,0.99320,-0.07283,0.0
20.40440,0.49000,0.05442,0.00000,0.03001,0.99552,-0.07283,0.0
20.40450,-0.07000,0.24692,0.00000,0.03209,0.99406,-0.07076,0.0
20.40460,0.10500,0.10692,0.00000,0.02855,0.99601,-0.07344,0.0
20.40470,-0.24500,-0.03308,0.00000,0.02891,0.99747,-0.07271,0.0
20.40480,-0.05250,0.12442,0.00000,0.03355,0.99467,-0.07161,0.0
20.40490,0.07000,0.07192,0.00000,0.03355,0.99662,-0.07259,0.0
20.40500,0.14000,0.05442,0.00000,0.03062,0.99393,-0.07381,0.0
20.40510,-0.07000,-0.10308,0.00000,0.02989,0.99406,-0.07174,0.0
20.40520,-0.38500,-0.08558,0.00000,0.03026,0.99369,-0.07064,0.0
20.40530,-0.10500,0.08942,0.00000,0.02830,0.99589,-0.07113,0.0
20.40540,0.14000,-0.06808,0.00000,0.02940,0.99613,-0.07186,0.0
20.40550,0.14000,-0.03308,0.00000,0.03074,0.99332,-0.07418,0.0
20.40560,0.14000,-0.08558,0.00000,0.03038,0.99247,-0.07527,0.0
20.40570,-0.08750,-0.01558,0.00000,0.03233,0.99491,-0.07222,0.0
20.40580,-0.17500,0.15942,0.00000,0.03087,0.99442,-0.07210,0.0
20.40590,0.07000,-0.03308,0.00000,0.03257,0.99467,-0.07125,0.0
20.40600,0.35000,0.05442,0.00000,0.02965,0.99406,-0.07503,0.0
20.40610,0.10500,0.15942,0.00000,0.02794,0.99406,-0.07320,0.0
20.40620,-0.03500,-0.19058,0.00000,0.02965,0.99491,-0.07357,0.0
20.40630,-0.07000,0.08942,0.00000,0.03184,0.99552,-0.07235,0.0
20.40640,0.00000,0.07192,0.00000,0.02928,0.99345,-0.07271,0.0
20.40650,0.21000,0.15942,0.00000,0.03026,0.99528,-0.07198,0.0
20.40660,0.15750,-0.08558,0.00000,0.03099,0.99674,-0.07259,0.0
20.40670,-0.26250,-0.08558,0.00000,0.02977,0.99564,-0.07161,0.0
20.40680,-0.14000,0.00192,0.00000,0.03013,0.99503,-0.07259,0.0
20.40690,0.00000,-0.05058,0.00000,0.03135,0.99528,-0.07088,0.0
20.40700,0.28000,0.10692,0.00000,0.03111,0.99442,-0.07137,0.0
20.40710,0.43750,-0.01558,0.00000,0.03123,0.99479,-0.07296,0.0
20.40720,0.00000,-0.10308,0.00000,0.02989,0.99637,-0.07357,0.0
20.40730,-0.24500,0.00192,0.00000,0.03038,0.99467,-0.07222,0.0
20.40740,-0.28000,0.05442,0.00000,0.03074,0.99564,-0.07259,0.0
20.40750,0.14000,-0.15558,0.00000,0.03062,0.99589,-0.07222,0.0
20.40760,0.14000,0.08942,0.00000,0.03087,0.99357,-0.07076,0.0
20.40770,0.10500,0.01942,0.00000,0.03257,0.99345,-0.07296,0.0
20.40780,0.00000,0.17692,0.00000,0.03013,0.99625,-0.07430,0.0
