#2023/06/08 16:10:28
time,wx,wy,wz,ax,ay,az,yy,MM,dd,hh,mm,ss,ms
5.60810,3.13250,-4.72500,0.00000,0.03343,0.97539,-0.17788,2023,6,8,16,10,28,582
5.60820,2.88750,-4.76000,0.00000,0.03489,0.97868,-0.18105,2023,6,8,16,10,28,593
5.60830,3.02750,-4.58500,0.00000,0.03135,0.97722,-0.17824,2023,6,8,16,10,28,604
5.60840,3.16750,-4.81250,0.00000,0.03257,0.97746,-0.18117,2023,6,8,16,10,28,615
5.60850,3.11500,-4.72500,0.00000,0.03367,0.97661,-0.18105,2023,6,8,16,10,28,626
5.60860,3.02750,-4.62000,0.00000,0.03209,0.97478,-0.17897,2023,6,8,16,10,28,637
5.60870,2.94000,-4.74250,0.00000,0.03379,0.97637,-0.18105,2023,6,8,16,10,28,648
5.60880,2.94000,-4.74250,0.00000,0.03184,0.97576,-0.17995,2023,6,8,16,10,28,659
5.60890,2.97500,-4.53250,0.00000,0.03099,0.97393,-0.18166,2023,6,8,16,10,28,670
5.60900,2.76500,-4.53250,0.00000,0.03294,0.97746,-0.17958,2023,6,8,16,10,28,681
5.60910,2.97500,-4.56750,0.00000,0.03489,0.97881,-0.18044,2023,6,8,16,10,28,693
5.60920,2.95750,-4.60250,0.00000,0.03196,0.97673,-0.18117,2023,6,8,16,10,28,704
5.60930,2.88750,-4.70750,0.00000,0.03074,0.97661,-0.17983,2023,6,8,16,10,28,715
5.60940,3.04500,-4.67250,0.00000,0.03257,0.97563,-0.17958,2023,6,8,16,10,28,726
5.60950,2.94000,-4.65500,0.00000,0.03074,0.97734,-0.18056,2023,6,8,16,10,28,737
5.60960,2.97500,-4.56750,0.00000,0.03196,0.97661,-0.18166,2023,6,8,16,10,28,748
5.60970,2.90500,-4.67250,0.00000,0.03453,0.97844,-0.18117,2023,6,8,16,10,28,759
5.60980,2.76500,-4.65500,0.00000,0.03160,0.97795,-0.18190,2023,6,8,16,10,28,770
5.60990,2.87000,-4.44500,0.00000,0.03123,0.97710,-0.18276,2023,6,8,16,10,28,781
5.61000,2.81750,-4.69000,0.00000,0.03233,0.97649,-0.17971,2023,6,8,16,10,28,793
5.61010,3.04500,-4.65500,0.00000,0.03294,0.97795,-0.17983,2023,6,8,16,10,28,804
5.61020,2.92250,-4.86500,0.00000,0.03245,0.97698,-0.18007,2023,6,8,16,10,28,815
5.61030,3.18500,-4.67250,0.00000,0.03404,0.97746,-0.18178,2023,6,8,16,10,28,826
5.61040,3.09750,-4.84750,0.00000,0.03343,0.97478,-0.18202,2023,6,8,16,10,28,837
5.61050,2.88750,-4.53250,0.00000,0.03087,0.97783,-0.18032,2023,6,8,16,10,28,848
5.61060,2.95750,-4.65500,0.00000,0.03196,0.97539,-0.18044,2023,6,8,16,10,28,859
5.61070,2.97500,-4.77750,0.00000,0.03233,0.97527,-0.18141,2023,6,8,16,10,28,870
5.61080,2.97500,-4.67250,0.00000,0.03489,0.97576,-0.18032,2023,6,8,16,10,28,881
5.61090,2.99250,-4.62000,0.00000,0.03392,0.97588,-0.18044,2023,6,8,16,10,28,893
5.61100,3.06250,-4.67250,0.00000,0.03270,0.97990,-0.17971,2023,6,8,16,10,28,904
5.61110,2.97500,-4.55000,0.00000,0.03294,0.97673,-0.18141,2023,6,8,16,10,28,915
5.61120,2.97500,-4.74250,0.00000,0.03123,0.97710,-0.18117,2023,6,8,16,10,28,926
5.61130,2.85250,-4.46250,0.00000,0.03526,0.97868,-0.17958,2023,6,8,16,10,28,937
5.61140,2.95750,-4.46250,0.00000,0.03172,0.97722,-0.17751,2023,6,8,16,10,28,948
5.61150,3.08000,-4.56750,0.00000,0.03404,0.97515,-0.18080,2023,6,8,16,10,28,959
5.61160,3.08000,-4.81250,0.00000,0.03477,0.97807,-0.18178,2023,6,8,16,10,28,970
5.61170,3.16750,-4.74250,0.00000,0.03245,0.98076,-0.17800,2023,6,8,16,10,28,981
5.61180,2.97500,-4.58500,0.00000,0.03282,0.97929,-0.18019,2023,6,8,16,10,28,993
5.61190,3.04500,-4.76000,0.00000,0.03184,0.97917,-0.18080,2023,6,8,16,10,28,4
5.61200,2.87000,-4.51500,0.00000,0.03111,0.97722,-0.17897,2023,6,8,16,10,28,15
5.61210,3.01000,-4.65500,0.00000,0.03196,0.97600,-0.18032,2023,6,8,16,10,28,26
5.61220,3.01000,-4.34000,0.00000,0.03416,0.97929,-0.18129,2023,6,8,16,10,28,37
5.61230,2.87000,-4.53250,0.00000,0.03318,0.97588,-0.17849,2023,6,8,16,10,28,48
5.61240,2.94000,-4.63750,0.00000,0.03184,0.97612,-0.18032,2023,6,8,16,10,28,59
5.61250,3.02750,-4.60250,0.00000,0.03135,0.98039,-0.18044,2023,6,8,16,10,28,70
5.61260,3.06250,-4.46250,0.00000,0.03392,0.97551,-0.18007,2023,6,8,16,10,28,81
5.61270,3.08000,-4.70750,0.00000,0.03343,0.97612,-0.18032,2023,6,8,16,10,28,93
5.61280,2.87000,-4.49750,0.00000,0.02977,0.97698,-0.17910,2023,6,8,16,10,28,104
5.61290,2.95750,-4.62000,0.00000,0.03294,0.97990,-0.18227,2023,6,8,16,10,28,115
5.61300,3.04500,-4.58500,0.00000,0.03062,0.97832,-0.17922,2023,6,8,16,10,28,126
5.61310,2.94000,-4.63750,0.00000,0.03416,0.97807,-0.18129,2023,6,8,16,10,28,137
5.61320,2.97500,-4.76000,0.00000,0.03379,0.97624,-0.18129,2023,6,8,16,10,28,148
5.61330,3.01000,-4.49750,0.00000,0.03270,0.97844,-0.17885,2023,6,8,16,10,28,159
5.61340,2.97500,-4.83000,0.00000,0.03209,0.97551,-0.18154,2023,6,8,16,10,28,170
5.61350,2.88750,-4.53250,0.00000,0.03306,0.97673,-0.17873,2023,6,8,16,10,28,181
5.61360,2.95750,-4.77750,0.00000,0.03270,0.97661,-0.17788,2023,6,8,16,10,28,193
5.61370,2.92250,-4.53250,0.00000,0.03245,0.97844,-0.18141,2023,6,8,16,10,28,204
5.61380,2.88750,-4.67250,0.00000,0.03245,0.97624,-0.17763,2023,6,8,16,10,28,215
5.61390,2.94000,-4.63750,0.00000,0.03135,0.98015,-0.17824,2023,6,8,16,10,28,226
5.61400,3.13250,-4.74250,0.00000,0.03245,0.97661,-0.17885,2023,6,8,16,10,28,237
5.61410,2.87000,-4.62000,0.00000,0.03111,0.97624,-0.17897,2023,6,8,16,10,28,248
5.61420,3.08000,-4.69000,0.00000,0.03343,0.97844,-0.17958,2023,6,8,16,10,28,259
5.61430,2.97500,-4.53250,0.00000,0.03221,0.97441,-0.18093,2023,6,8,16,10,28,270
5.61440,3.01000,-4.72500,0.00000,0.03123,0.97820,-0.17910,2023,6,8,16,10,28,281
5.61450,3.02750,-4.62000,0.00000,0.03245,0.97905,-0.18080,2023,6,8,16,10,28,293
5.61460,3.02750,-4.74250,0.00000,0.03074,0.97600,-0.18019,2023,6,8,16,10,28,304
5.61470,2.97500,-4.46250,0.00000,0.03221,0.97478,-0.18202,2023,6,8,16,10,29,5
5.61480,2.99250,-4.70750,0.00000,0.03416,0.97661,-0.18263,2023,6,8,16,10,29,16
5.61490,2.94000,-4.77750,0.00000,0.03343,0.97856,-0.18178,2023,6,8,16,10,29,27
5.61500,3.02750,-4.63750,0.00000,0.03184,0.97478,-0.18068,2023,6,8,16,10,29,38
5.61510,3.11500,-4.83000,0.00000,0.03184,0.97795,-0.18129,2023,6,8,16,10,29,49
5.61520,2.99250,-4.62000,0.00000,0.03257,0.97722,-0.18093,2023,6,8,16,10,29,60
5.61530,2.99250,-4.39250,0.00000,0.03367,0.97661,-0.18129,2023,6,8,16,10,29,71
5.61540,2.90500,-4.62000,0.00000,0.03026,0.97917,-0.17995,2023,6,8,16,10,29,83
5.61550,3.09750,-4.74250,0.00000,0.03209,0.97844,-0.17958,2023,6,8,16,10,29,94
5.61560,2.95750,-4.67250,0.00000,0.03453,0.97612,-0.17910,2023,6,8,16,10,29,105
5.61570,3.01000,-4.69000,0.00000,0.03294,0.97710,-0.18251,2023,6,8,16,10,29,116
5.61580,3.08000,-4.88250,0.00000,0.03111,0.97649,-0.18093,2023,6,8,16,10,29,127
5.61590,2.94000,-4.67250,0.00000,0.03160,0.97649,-0.17946,2023,6,8,16,10,29,138
5.61600,2.95750,-4.67250,0.00000,0.03282,0.97710,-0.17934,2023,6,8,16,10,29,149
5.61610,2.92250,-4.67250,0.00000,0.03160,0.97673,-0.17934,2023,6,8,16,10,29,160
5.61620,3.01000,-4.72500,0.00000,0.03209,0.97868,-0.17971,2023,6,8,16,10,29,171
5.61630,2.95750,-4.69000,0.00000,0.03111,0.97734,-0.18044,2023,6,8,16,10,29,183
5.61640,2.97500,-4.56750,0.00000,0.03209,0.97881,-0.17995,2023,6,8,16,10,29,194
5.61650,3.01000,-4.63750,0.00000,0.03233,0.97795,-0.17946,2023,6,8,16,10,29,205
5.61660,2.97500,-4.88250,0.00000,0.03257,0.97942,-0.18215,2023,6,8,16,10,29,216
5.61670,3.09750,-4.72500,0.00000,0.03257,0.97685,-0.17885,2023,6,8,16,10,29,227
5.61680,3.01000,-4.67250,0.00000,0.03440,0.97637,-0.18007,2023,6,8,16,10,29,238
5.61690,2.90500,-4.62000,0.00000,0.03416,0.97929,-0.17788,2023,6,8,16,10,29,249
5.61700,3.13250,-4.69000,0.00000,0.03392,0.97698,-0.17861,2023,6,8,16,10,29,260
5.61710,2.95750,-4.51500,0.00000,0.03355,0.97783,-0.18044,2023,6,8,16,10,29,271
5.61720,2.94000,-4.37500,0.00000,0.03196,0.97637,-0.17958,2023,6,8,16,10,29,283
5.61730,2.81750,-4.56750,0.00000,0.03099,0.97734,-0.17946,2023,6,8,16,10,29,294
5.61740,2.90500,-4.84750,0.00000,0.03184,0.97673,-0.17946,2023,6,8,16,10,29,305
5.61750,3.08000,-4.56750,0.00000,0.03270,0.97698,-0.18093,2023,6,8,16,10,29,316
5.61760,3.06250,-4.60250,0.00000,0.03318,0.97685,-0.18166,2023,6,8,16,10,29,327
5.61770,2.81750,-4.58500,0.00000,0.03257,0.97807,-0.18068,2023,6,8,16,10,29,338
5.61780,2.88750,-4.62000,0.00000,0.03148,0.97722,-0.18019,2023,6,8,16,10,29,349
5.61790,2.87000,-4.56750,0.00000,0.03501,0.97746,-0.17910,2023,6,8,16,10,29,360
5.61800,2.95750,-4.77750,0.00000,0.03270,0.97856,-0.18190,2023,6,8,16,10,29,371
5.61810,3.15000,-4.70750,0.00000,0.03392,0.97734,-0.18154,2023,6,8,16,10,29,383
5.61820,2.95750,-4.70750,0.00000,0.02965,0.97685,-0.18154,2023,6,8,16,10,29,394
5.61830,2.85250,-4.42750,0.00000,0.03367,0.97637,-0.18080,2023,6,8,16,10,29,405
5.61840,2.74750,-4.32250,0.00000,0.02977,0.97942,-0.18019,2023,6,8,16,10,29,416
5.61850,3.01000,-4.58500,0.00000,0.03148,0.97942,-0.17946,2023,6,8,16,10,29,427
5.61860,2.87000,-4.58500,0.00000,0.03318,0.97893,-0.17836,2023,6,8,16,10,29,438
5.61870,3.04500,-4.90000,0.00000,0.03270,0.97807,-0.18105,2023,6,8,16,10,29,449
5.61880,2.87000,-4.72500,0.00000,0.03209,0.97942,-0.18202,2023,6,8,16,10,29,460
5.61890,2.97500,-4.46250,0.00000,0.03453,0.97673,-0.18202,2023,6,8,16,10,29,471
5.61900,3.04500,-4.93500,0.00000,0.03318,0.97868,-0.17849,2023,6,8,16,10,29,483
5.61910,2.92250,-4.62000,0.00000,0.03111,0.97649,-0.17922,2023,6,8,16,10,29,494
5.61920,2.90500,-4.77750,0.00000,0.03172,0.97710,-0.17824,2023,6,8,16,10,29,505
5.61930,3.11500,-4.60250,0.00000,0.03062,0.97929,-0.17971,2023,6,8,16,10,29,516
5.61940,3.01000,-4.42750,0.00000,0.03184,0.97405,-0.17812,2023,6,8,16,10,29,527
5.61950,3.04500,-4.60250,0.00000,0.03538,0.97588,-0.17885,2023,6,8,16,10,29,538
5.61960,3.02750,-4.65500,0.00000,0.03233,0.97685,-0.17983,2023,6,8,16,10,29,549
5.61970,3.01000,-4.69000,0.00000,0.03355,0.97698,-0.17971,2023,6,8,16,10,29,560
5.61980,2.81750,-4.72500,0.00000,0.03123,0.97685,-0.17958,2023,6,8,16,10,29,571
5.61990,2.95750,-4.67250,0.00000,0.03306,0.97527,-0.18019,2023,6,8,16,10,29,583
5.62000,2.97500,-4.88250,0.00000,0.03209,0.97502,-0.17885,2023,6,8,16,10,29,594
5.62010,2.97500,-4.69000,0.00000,0.03404,0.97673,-0.17861,2023,6,8,16,10,29,605
5.62020,3.02750,-4.55000,0.00000,0.03331,0.97673,-0.17946,2023,6,8,16,10,29,616
5.62030,2.92250,-4.67250,0.00000,0.03135,0.97685,-0.17861,2023,6,8,16,10,29,627
5.62040,2.81750,-4.44500,0.00000,0.03257,0.97771,-0.17971,2023,6,8,16,10,29,638
5.62050,3.15000,-4.60250,0.00000,0.03196,0.97795,-0.18007,2023,6,8,16,10,29,649
5.62060,2.99250,-4.53250,0.00000,0.03233,0.97722,-0.18032,2023,6,8,16,10,29,660
5.62070,2.97500,-4.90000,0.00000,0.03074,0.97539,-0.17971,2023,6,8,16,10,29,671
5.62080,2.97500,-4.48000,0.00000,0.03282,0.97722,-0.18141,2023,6,8,16,10,29,683
5.62090,2.97500,-4.67250,0.00000,0.03184,0.97783,-0.17946,2023,6,8,16,10,29,694
5.62100,2.87000,-4.79500,0.00000,0.03233,0.97807,-0.18093,2023,6,8,16,10,29,705
5.62110,3.01000,-4.65500,0.00000,0.03160,0.97746,-0.18019,2023,6,8,16,10,29,716
5.62120,2.94000,-4.60250,0.00000,0.03404,0.97698,-0.17751,2023,6,8,16,10,29,727
5.62130,2.99250,-4.53250,0.00000,0.03160,0.97405,-0.18154,2023,6,8,16,10,29,738
5.62140,2.92250,-4.81250,0.00000,0.03404,0.97759,-0.17971,2023,6,8,16,10,29,749
5.62150,2.85250,-4.63750,0.00000,0.03257,0.97868,-0.17995,2023,6,8,16,10,29,760
5.62160,2.88750,-4.56750,0.00000,0.03087,0.97734,-0.17849,2023,6,8,16,10,29,771
5.62170,2.90500,-4.65500,0.00000,0.03331,0.97722,-0.17958,2023,6,8,16,10,29,783
5.62180,2.95750,-4.46250,0.00000,0.03318,0.97868,-0.18019,2023,6,8,16,10,29,794
5.62190,2.95750,-4.84750,0.00000,0.03221,0.97673,-0.17946,2023,6,8,16,10,29,805
5.62200,2.87000,-4.76000,0.00000,0.03087,0.97600,-0.17775,2023,6,8,16,10,29,816
5.62210,2.88750,-4.69000,0.00000,0.03245,0.97673,-0.17849,2023,6,8,16,10,29,827
5.62220,2.92250,-4.56750,0.00000,0.03087,0.97649,-0.18068,2023,6,8,16,10,29,838
5.62230,2.90500,-4.69000,0.00000,0.03160,0.97649,-0.18019,2023,6,8,16,10,29,849
5.62240,2.94000,-4.63750,0.00000,0.03209,0.97795,-0.17897,2023,6,8,16,10,29,860
5.62250,3.01000,-4.65500,0.00000,0.03306,0.97771,-0.17775,2023,6,8,16,10,29,871
5.62260,3.02750,-4.58500,0.00000,0.03331,0.97649,-0.17922,2023,6,8,16,10,29,883
5.62270,2.88750,-4.62000,0.00000,0.02916,0.97637,-0.18032,2023,6,8,16,10,29,894
5.62280,3.06250,-4.76000,0.00000,0.03453,0.97673,-0.18154,2023,6,8,16,10,29,905
5.62290,3.01000,-4.60250,0.00000,0.03440,0.97856,-0.18080,2023,6,8,16,10,29,916
5.62300,3.01000,-4.62000,0.00000,0.03489,0.97539,-0.18032,2023,6,8,16,10,29,927
5.62310,3.09750,-4.62000,0.00000,0.02977,0.97649,-0.17922,2023,6,8,16,10,29,938
5.62320,2.83500,-4.49750,0.00000,0.03294,0.97710,-0.17873,2023,6,8,16,10,29,949
5.62330,2.90500,-4.72500,0.00000,0.03270,0.97405,-0.17922,2023,6,8,16,10,29,960
5.62340,3.02750,-4.79500,0.00000,0.03270,0.97600,-0.17922,2023,6,8,16,10,29,971
5.62350,2.97500,-4.67250,0.00000,0.03245,0.97661,-0.17836,2023,6,8,16,10,29,983
5.62360,3.02750,-5.02250,0.00000,0.03282,0.97624,-0.17690,2023,6,8,16,10,29,994
5.62370,2.87000,-4.69000,0.00000,0.03428,0.97954,-0.17800,2023,6,8,16,10,30,5
5.62380,2.90500,-4.70750,0.00000,0.03392,0.97539,-0.18032,2023,6,8,16,10,30,16
5.62390,2.95750,-4.76000,0.00000,0.03087,0.97600,-0.17910,2023,6,8,16,10,30,27
5.62400,2.83500,-4.70750,0.00000,0.03196,0.97759,-0.17653,2023,6,8,16,10,30,38
5.62410,3.04500,-4.86500,0.00000,0.03209,0.97954,-0.17824,2023,6,8,16,10,30,49
5.62420,2.90500,-4.67250,0.00000,0.03343,0.97710,-0.17946,2023,6,8,16,10,30,60
5.62430,3.04500,-4.77750,0.00000,0.03111,0.97966,-0.17995,2023,6,8,16,10,30,71
5.62440,2.88750,-4.51500,0.00000,0.03257,0.97698,-0.18056,2023,6,8,16,10,30,83
5.62450,3.01000,-4.44500,0.00000,0.03331,0.97868,-0.17812,2023,6,8,16,10,30,94
5.62460,2.83500,-4.48000,0.00000,0.03233,0.97881,-0.17849,2023,6,8,16,10,30,105
5.62470,3.08000,-4.65500,0.00000,0.03294,0.97942,-0.17775,2023,6,8,16,10,30,116
5.62480,3.04500,-4.70750,0.00000,0.03367,0.97698,-0.17885,2023,6,8,16,10,30,127
5.62490,3.09750,-4.84750,0.00000,0.03233,0.97844,-0.17971,2023,6,8,16,10,30,138
5.62500,3.06250,-4.72500,0.00000,0.03184,0.97905,-0.17983,2023,6,8,16,10,30,149
5.62510,2.97500,-4.62000,0.00000,0.03404,0.97649,-0.18105,2023,6,8,16,10,30,160
5.62520,2.88750,-4.37500,0.00000,0.03379,0.97795,-0.17885,2023,6,8,16,10,30,171
5.62530,3.09750,-4.65500,0.00000,0.03318,0.97868,-0.17824,2023,6,8,16,10,30,183
5.62540,2.94000,-4.69000,0.00000,0.03440,0.97551,-0.18093,2023,6,8,16,10,30,194
5.62550,2.80000,-4.60250,0.00000,0.03282,0.97759,-0.17958,2023,6,8,16,10,30,205
5.62560,2.94000,-4.58500,0.00000,0.03428,0.97637,-0.17983,2023,6,8,16,10,30,216
5.62570,2.76500,-4.56750,0.00000,0.03038,0.97637,-0.17983,2023,6,8,16,10,30,227
5.62580,2.78250,-4.63750,0.00000,0.03257,0.97673,-0.18105,2023,6,8,16,10,30,238
5.62590,3.11500,-4.70750,0.00000,0.03428,0.97698,-0.17971,2023,6,8,16,10,30,249
5.62600,3.02750,-4.41000,0.00000,0.03306,0.97722,-0.18007,2023,6,8,16,10,30,260
5.62610,2.88750,-4.53250,0.00000,0.03160,0.97856,-0.17922,2023,6,8,16,10,30,271
5.62620,2.88750,-4.46250,0.00000,0.03282,0.97868,-0.17873,2023,6,8,16,10,30,283
5.62630,3.01000,-4.84750,0.00000,0.03184,0.97539,-0.17873,2023,6,8,16,10,30,294
5.62640,2.90500,-4.56750,0.00000,0.03233,0.97783,-0.18032,2023,6,8,16,10,30,305
5.62650,3.02750,-4.63750,0.00000,0.03318,0.97612,-0.17910,2023,6,8,16,10,30,316
5.62660,2.94000,-4.86500,0.00000,0.03196,0.97746,-0.18044,2023,6,8,16,10,30,327
5.62670,2.90500,-4.81250,0.00000,0.03172,0.97685,-0.17824,2023,6,8,16,10,30,338
5.62680,2.94000,-4.55000,0.00000,0.03416,0.97576,-0.17861,2023,6,8,16,10,30,349
5.62690,2.94000,-4.62000,0.00000,0.03318,0.97820,-0.18093,2023,6,8,16,10,30,360
5.62700,2.88750,-4.62000,0.00000,0.03196,0.97637,-0.18068,2023,6,8,16,10,30,371
5.62710,2.97500,-4.56750,0.00000,0.03196,0.97734,-0.17934,2023,6,8,16,10,30,383
5.62720,2.95750,-4.65500,0.00000,0.03294,0.97856,-0.17849,2023,6,8,16,10,30,394
5.62730,2.95750,-4.60250,0.00000,0.03343,0.97649,-0.17910,2023,6,8,16,10,30,405
5.62740,2.88750,-4.63750,0.00000,0.03172,0.97661,-0.18044,2023,6,8,16,10,30,416
5.62750,3.16750,-4.56750,0.00000,0.03270,0.97502,-0.17995,2023,6,8,16,10,30,427
5.62760,2.94000,-4.62000,0.00000,0.03306,0.97820,-0.17922,2023,6,8,16,10,30,438
5.62770,3.04500,-4.74250,0.00000,0.03257,0.97563,-0.17885,2023,6,8,16,10,30,449
5.62780,2.94000,-4.72500,0.00000,0.03038,0.97710,-0.18032,2023,6,8,16,10,30,460
5.62790,3.22000,-4.48000,0.00000,0.03221,0.97685,-0.18007,2023,6,8,16,10,30,471
5.62800,3.09750,-4.72500,0.00000,0.03428,0.97722,-0.17617,2023,6,8,16,10,30,483
5.62810,3.16750,-4.79500,0.00000,0.03404,0.97624,-0.17775,2023,6,8,16,10,30,494
5.62820,2.87000,-4.72500,0.00000,0.02952,0.97917,-0.18044,2023,6,8,16,10,30,505
5.62830,3.08000,-4.83000,0.00000,0.03135,0.97624,-0.17873,2023,6,8,16,10,30,516
5.62840,2.87000,-4.58500,0.00000,0.03099,0.97783,-0.18019,2023,6,8,16,10,30,527
5.62850,3.18500,-4.81250,0.00000,0.03099,0.97795,-0.17958,2023,6,8,16,10,30,538
5.62860,2.94000,-4.62000,0.00000,0.03379,0.97710,-0.18080,2023,6,8,16,10,30,549
5.62870,2.76500,-4.48000,0.00000,0.03294,0.97661,-0.17995,2023,6,8,16,10,30,560
5.62880,3.08000,-4.60250,0.00000,0.02977,0.97685,-0.17922,2023,6,8,16,10,30,571
5.62890,2.97500,-4.65500,0.00000,0.03233,0.97783,-0.17958,2023,6,8,16,10,30,583
5.62900,2.87000,-4.72500,0.00000,0.03331,0.97942,-0.18129,2023,6,8,16,10,30,594
5.62910,3.06250,-4.79500,0.00000,0.03282,0.97820,-0.17897,2023,6,8,16,10,30,605
5.62920,2.97500,-4.77750,0.00000,0.03196,0.97661,-0.17958,2023,6,8,16,10,30,616
5.62930,2.80000,-4.76000,0.00000,0.03245,0.97539,-0.18227,2023,6,8,16,10,30,627
5.62940,2.95750,-4.46250,0.00000,0.03270,0.97661,-0.18068,2023,6,8,16,10,30,638
5.62950,3.04500,-4.69000,0.00000,0.03440,0.97881,-0.18190,2023,6,8,16,10,30,649
5.62960,2.92250,-4.58500,0.00000,0.03355,0.97832,-0.18044,2023,6,8,16,10,30,660
5.62970,2.97500,-4.48000,0.00000,0.03172,0.97771,-0.17958,2023,6,8,16,10,30,671
5.62980,3.06250,-4.60250,0.00000,0.03135,0.97807,-0.17775,2023,6,8,16,10,30,683
5.62990,3.02750,-4.63750,0.00000,0.03245,0.97551,-0.17934,2023,6,8,16,10,30,694
5.63000,2.99250,-4.70750,0.00000,0.03318,0.97734,-0.18080,2023,6,8,16,10,30,705
5.63010,3.01000,-4.62000,0.00000,0.03184,0.97429,-0.18105,2023,6,8,16,10,30,716
5.63020,2.99250,-4.56750,0.00000,0.03392,0.97710,-0.17971,2023,6,8,16,10,30,727
5.63030,3.06250,-4.76000,0.00000,0.03453,0.97710,-0.17958,2023,6,8,16,10,30,738
5.63040,2.90500,-4.65500,0.00000,0.03196,0.97502,-0.17849,2023,6,8,16,10,30,749
5.63050,2.99250,-4.69000,0.00000,0.03135,0.97563,-0.17983,2023,6,8,16,10,30,760
5.63060,3.01000,-4.58500,0.00000,0.03209,0.97698,-0.18105,2023,6,8,16,10,30,771
5.63070,2.81750,-4.74250,0.00000,0.03221,0.97624,-0.17897,2023,6,8,16,10,30,783
5.63080,2.88750,-4.65500,0.00000,0.03282,0.97893,-0.18007,2023,6,8,16,10,30,794
5.63090,2.73000,-4.60250,0.00000,0.03172,0.97820,-0.17958,2023,6,8,16,10,30,805
5.63100,2.94000,-4.72500,0.00000,0.03099,0.97734,-0.17727,2023,6,8,16,10,30,816
5.63110,3.11500,-4.86500,0.00000,0.03087,0.97649,-0.18129,2023,6,8,16,10,30,827
5.63120,3.08000,-4.67250,0.00000,0.03209,0.97807,-0.18227,2023,6,8,16,10,30,838
5.63130,2.99250,-4.88250,0.00000,0.03245,0.97673,-0.18080,2023,6,8,16,10,30,849
5.63140,3.06250,-4.95250,0.00000,0.03416,0.97905,-0.18044,2023,6,8,16,10,30,860
5.63150,2.94000,-4.77750,0.00000,0.03440,0.97820,-0.17775,2023,6,8,16,10,30,871
5.63160,3.08000,-4.67250,0.00000,0.03343,0.97515,-0.18044,2023,6,8,16,10,30,883
5.63170,2.87000,-4.41000,0.00000,0.03062,0.97783,-0.17958,2023,6,8,16,10,30,894
5.63180,2.95750,-4.72500,0.00000,0.03465,0.97527,-0.17910,2023,6,8,16,10,30,905
5.63190,2.90500,-4.76000,0.00000,0.03257,0.97893,-0.17971,2023,6,8,16,10,30,916
5.63200,2.85250,-4.69000,0.00000,0.03294,0.97795,-0.18117,2023,6,8,16,10,30,927
5.63210,2.99250,-4.76000,0.00000,0.03184,0.97783,-0.17971,2023,6,8,16,10,30,938
5.63220,3.06250,-4.90000,0.00000,0.03294,0.97563,-0.17958,2023,6,8,16,10,30,949
5.63230,2.90500,-4.62000,0.00000,0.03355,0.97685,-0.17946,2023,6,8,16,10,30,960
5.63240,3.04500,-4.46250,0.00000,0.03318,0.97515,-0.18129,2023,6,8,16,10,30,971
5.63250,2.85250,-4.79500,0.00000,0.03514,0.97868,-0.18007,2023,6,8,16,10,30,983
5.63260,2.94000,-4.41000,0.00000,0.03184,0.97746,-0.18032,2023,6,8,16,10,31,4
5.63270,3.01000,-4.53250,0.00000,0.03282,0.97734,-0.17897,2023,6,8,16,10,31,15
5.63280,2.97500,-4.81250,0.00000,0.03160,0.97966,-0.17934,2023,6,8,16,10,31,26
5.63290,2.92250,-4.58500,0.00000,0.03514,0.97746,-0.17971,2023,6,8,16,10,31,37
5.63300,2.90500,-4.44500,0.00000,0.03233,0.97637,-0.18080,2023,6,8,16,10,31,48
5.63310,2.97500,-4.69000,0.00000,0.03209,0.97868,-0.18068,2023,6,8,16,10,31,59
5.63320,3.06250,-4.83000,0.00000,0.03184,0.97966,-0.17861,2023,6,8,16,10,31,70
5.63330,2.97500,-4.49750,0.00000,0.03221,0.97661,-0.18105,2023,6,8,16,10,31,81
5.63340,2.81750,-4.76000,0.00000,0.03270,0.97722,-0.18032,2023,6,8,16,10,31,93
5.63350,3.02750,-4.72500,0.00000,0.03123,0.97368,-0.18068,2023,6,8,16,10,31,104
5.63360,3.11500,-4.65500,0.00000,0.03282,0.97649,-0.17971,2023,6,8,16,10,31,115
5.63370,2.95750,-4.74250,0.00000,0.03196,0.97722,-0.18093,2023,6,8,16,10,31,126
5.63380,3.09750,-4.86500,0.00000,0.03367,0.97759,-0.18251,2023,6,8,16,10,31,137
5.63390,3.20250,-4.53250,0.00000,0.03062,0.97893,-0.18178,2023,6,8,16,10,31,148
5.63400,3.16750,-4.72500,0.00000,0.03343,0.97734,-0.17775,2023,6,8,16,10,31,159
5.63410,3.02750,-4.51500,0.00000,0.03135,0.97710,-0.18093,2023,6,8,16,10,31,170
5.63420,2.95750,-4.62000,0.00000,0.03221,0.97600,-0.17983,2023,6,8,16,10,31,181
5.63430,3.08000,-4.60250,0.00000,0.03099,0.97795,-0.17922,2023,6,8,16,10,31,193
5.63440,3.04500,-4.53250,0.00000,0.03306,0.97820,-0.18117,2023,6,8,16,10,31,204
5.63450,3.20250,-4.67250,0.00000,0.03270,0.97673,-0.18056,2023,6,8,16,10,31,215
5.63460,2.94000,-4.63750,0.00000,0.03331,0.97844,-0.17812,2023,6,8,16,10,31,226
5.63470,3.15000,-4.65500,0.00000,0.03221,0.97527,-0.18166,2023,6,8,16,10,31,237
5.63480,2.92250,-4.67250,0.00000,0.03160,0.97807,-0.17910,2023,6,8,16,10,31,248
5.63490,3.01000,-4.62000,0.00000,0.03343,0.97637,-0.18178,2023,6,8,16,10,31,259
5.63500,3.15000,-4.74250,0.00000,0.03489,0.97624,-0.18080,2023,6,8,16,10,31,270
5.63510,2.85250,-4.46250,0.00000,0.03111,0.97685,-0.17934,2023,6,8,16,10,31,281
5.63520,3.13250,-4.46250,0.00000,0.03331,0.97612,-0.18044,2023,6,8,16,10,31,293
5.63530,2.94000,-4.46250,0.00000,0.03270,0.97771,-0.17824,2023,6,8,16,10,31,304
5.63540,3.04500,-4.77750,0.00000,0.02965,0.97698,-0.18068,2023,6,8,16,10,31,315
5.63550,2.99250,-4.72500,0.00000,0.03245,0.97759,-0.18129,2023,6,8,16,10,31,326
5.63560,2.92250,-4.72500,0.00000,0.03294,0.97832,-0.17751,2023,6,8,16,10,31,337
5.63570,3.01000,-4.65500,0.00000,0.03282,0.97759,-0.18190,2023,6,8,16,10,31,348
5.63580,3.06250,-4.62000,0.00000,0.03282,0.97661,-0.17983,2023,6,8,16,10,31,359
5.63590,2.95750,-4.79500,0.00000,0.03257,0.97698,-0.17849,2023,6,8,16,10,31,370
5.63600,3.06250,-4.62000,0.00000,0.03282,0.97612,-0.18190,2023,6,8,16,10,31,381
5.63610,3.08000,-4.62000,0.00000,0.03526,0.97466,-0.17946,2023,6,8,16,10,31,393
5.63620,3.06250,-4.74250,0.00000,0.03221,0.97673,-0.17934,2023,6,8,16,10,31,404
5.63630,3.11500,-4.48000,0.00000,0.03465,0.97649,-0.17946,2023,6,8,16,10,31,415
5.63640,3.04500,-4.42750,0.00000,0.03160,0.97466,-0.18068,2023,6,8,16,10,31,426
5.63650,3.18500,-4.63750,0.00000,0.03196,0.97759,-0.17885,2023,6,8,16,10,31,437
5.63660,3.02750,-4.63750,0.00000,0.03428,0.97624,-0.18105,2023,6,8,16,10,31,448
5.63670,2.80000,-4.65500,0.00000,0.03148,0.97746,-0.17873,2023,6,8,16,10,31,459
5.63680,2.95750,-4.62000,0.00000,0.03392,0.97685,-0.17653,2023,6,8,16,10,31,470
5.63690,3.08000,-4.74250,0.00000,0.03123,0.97661,-0.17934,2023,6,8,16,10,31,481
5.63700,3.02750,-4.70750,0.00000,0.03196,0.97673,-0.17922,2023,6,8,16,10,31,493
5.63710,3.09750,-4.69000,0.00000,0.03318,0.97576,-0.18032,2023,6,8,16,10,31,504
5.63720,2.85250,-4.51500,0.00000,0.03294,0.97905,-0.18019,2023,6,8,16,10,31,515
5.63730,3.08000,-4.69000,0.00000,0.03111,0.97746,-0.17922,2023,6,8,16,10,31,526
5.63740,2.97500,-4.58500,0.00000,0.03123,0.97881,-0.18117,2023,6,8,16,10,31,537
5.63750,2.95750,-4.62000,0.00000,0.03123,0.97539,-0.17971,2023,6,8,16,10,31,548
5.63760,2.85250,-4.53250,0.00000,0.03318,0.97600,-0.17922,2023,6,8,16,10,31,559
5.63770,2.83500,-4.60250,0.00000,0.03160,0.97710,-0.18227,2023,6,8,16,10,31,570
5.63780,3.02750,-4.63750,0.00000,0.03209,0.97698,-0.17958,2023,6,8,16,10,31,581
5.63790,3.04500,-4.72500,0.00000,0.03196,0.97612,-0.17812,2023,6,8,16,10,31,593
5.63800,2.94000,-4.60250,0.00000,0.03331,0.97905,-0.17824,2023,6,8,16,10,31,604
5.63810,3.09750,-4.81250,0.00000,0.03440,0.97649,-0.17910,2023,6,8,16,10,31,615
5.63820,2.90500,-4.56750,0.00000,0.03196,0.97600,-0.18178,2023,6,8,16,10,31,626
5.63830,2.87000,-4.49750,0.00000,0.03538,0.98112,-0.18056,2023,6,8,16,10,31,637
5.63840,2.90500,-4.53250,0.00000,0.03367,0.97893,-0.18117,2023,6,8,16,10,31,648
5.63850,2.90500,-4.46250,0.00000,0.03074,0.97624,-0.18105,2023,6,8,16,10,31,659
5.63860,3.08000,-4.70750,0.00000,0.03367,0.97807,-0.17934,2023,6,8,16,10,31,670
5.63870,3.18500,-4.84750,0.00000,0.03257,0.97844,-0.18044,2023,6,8,16,10,31,681
5.63880,2.87000,-4.65500,0.00000,0.03392,0.97881,-0.17983,2023,6,8,16,10,31,693
5.63890,3.08000,-4.70750,0.00000,0.03099,0.97710,-0.17775,2023,6,8,16,10,31,704
5.63900,3.01000,-4.55000,0.00000,0.03184,0.97942,-0.18129,2023,6,8,16,10,31,715
5.63910,2.97500,-4.83000,0.00000,0.03038,0.97673,-0.17836,2023,6,8,16,10,31,726
5.63920,2.95750,-4.62000,0.00000,0.03404,0.97771,-0.17885,2023,6,8,16,10,31,737
5.63930,2.83500,-4.67250,0.00000,0.03099,0.97844,-0.17934,2023,6,8,16,10,31,748
5.63940,2.88750,-4.51500,0.00000,0.03331,0.97795,-0.17861,2023,6,8,16,10,31,759
5.63950,3.04500,-4.49750,0.00000,0.03099,0.97868,-0.17922,2023,6,8,16,10,31,770
5.63960,2.97500,-4.76000,0.00000,0.03074,0.97698,-0.17983,2023,6,8,16,10,31,781
5.63970,3.04500,-4.79500,0.00000,0.03160,0.98003,-0.18032,2023,6,8,16,10,31,793
5.63980,2.81750,-4.55000,0.00000,0.03282,0.97722,-0.18044,2023,6,8,16,10,31,804
5.63990,3.04500,-4.70750,0.00000,0.03318,0.97649,-0.18080,2023,6,8,16,10,31,815
5.64000,3.08000,-4.46250,0.00000,0.03148,0.97673,-0.17934,2023,6,8,16,10,31,826
5.64010,3.06250,-4.69000,0.00000,0.03196,0.97795,-0.17775,2023,6,8,16,10,31,837
5.64020,2.99250,-4.91750,0.00000,0.03209,0.97795,-0.17873,2023,6,8,16,10,31,848
5.64030,2.95750,-4.56750,0.00000,0.03306,0.97807,-0.17922,2023,6,8,16,10,31,859
5.64040,3.09750,-4.74250,0.00000,0.03050,0.97783,-0.17885,2023,6,8,16,10,31,870
5.64050,2.88750,-4.49750,0.00000,0.03233,0.97673,-0.17946,2023,6,8,16,10,31,881
5.64060,3.11500,-4.60250,0.00000,0.03111,0.97820,-0.17690,2023,6,8,16,10,31,893
5.64070,3.20250,-4.93500,0.00000,0.03233,0.97588,-0.17910,2023,6,8,16,10,31,904
5.64080,2.90500,-4.74250,0.00000,0.03196,0.97637,-0.17763,2023,6,8,16,10,31,915
5.64090,2.97500,-4.65500,0.00000,0.03184,0.97624,-0.17653,2023,6,8,16,10,31,926
5.64100,2.94000,-4.51500,0.00000,0.03148,0.98003,-0.17946,2023,6,8,16,10,31,937
5.64110,3.06250,-4.72500,0.00000,0.03209,0.97661,-0.17934,2023,6,8,16,10,31,948
5.64120,2.87000,-4.69000,0.00000,0.03160,0.97844,-0.17727,2023,6,8,16,10,31,959
5.64130,3.04500,-4.63750,0.00000,0.03233,0.97783,-0.17910,2023,6,8,16,10,31,970
5.64140,3.16750,-4.70750,0.00000,0.03099,0.97868,-0.17873,2023,6,8,16,10,31,981
5.64150,2.94000,-4.55000,0.00000,0.03257,0.97515,-0.17946,2023,6,8,16,10,32,3
5.64160,3.08000,-4.84750,0.00000,0.03270,0.97844,-0.17861,2023,6,8,16,10,32,14
5.64170,3.16750,-4.86500,0.00000,0.03428,0.97685,-0.18032,2023,6,8,16,10,32,25
5.64180,2.81750,-4.65500,0.00000,0.03196,0.97661,-0.18019,2023,6,8,16,10,32,36
5.64190,3.01000,-4.58500,0.00000,0.03233,0.97673,-0.17910,2023,6,8,16,10,32,47
5.64200,3.02750,-4.56750,0.00000,0.03160,0.97490,-0.17958,2023,6,8,16,10,32,58
5.64210,3.02750,-4.70750,0.00000,0.03526,0.98039,-0.17861,2023,6,8,16,10,32,69
5.64220,3.09750,-4.84750,0.00000,0.03282,0.97807,-0.17946,2023,6,8,16,10,32,80
5.64230,2.94000,-4.58500,0.00000,0.03209,0.97734,-0.18044,2023,6,8,16,10,32,91
5.64240,3.13250,-4.81250,0.00000,0.03062,0.97759,-0.17910,2023,6,8,16,10,32,103
5.64250,2.90500,-4.56750,0.00000,0.03294,0.97795,-0.17800,2023,6,8,16,10,32,114
5.64260,2.83500,-4.39250,0.00000,0.03257,0.97612,-0.17897,2023,6,8,16,10,32,125
5.64270,3.09750,-4.81250,0.00000,0.03184,0.97698,-0.18007,2023,6,8,16,10,32,136
5.64280,2.99250,-4.83000,0.00000,0.03355,0.97783,-0.17849,2023,6,8,16,10,32,147
5.64290,2.90500,-4.44500,0.00000,0.03245,0.97807,-0.18093,2023,6,8,16,10,32,158
5.64300,2.99250,-4.70750,0.00000,0.03331,0.97954,-0.17922,2023,6,8,16,10,32,169
5.64310,2.95750,-4.70750,0.00000,0.03221,0.97807,-0.17958,2023,6,8,16,10,32,180
5.64320,3.06250,-4.60250,0.00000,0.03209,0.97868,-0.17958,2023,6,8,16,10,32,191
5.64330,2.92250,-4.58500,0.00000,0.03453,0.97673,-0.18117,2023,6,8,16,10,32,203
5.64340,3.04500,-4.83000,0.00000,0.03257,0.97807,-0.17971,2023,6,8,16,10,32,214
5.64350,3.02750,-4.81250,0.00000,0.03343,0.97673,-0.17861,2023,6,8,16,10,32,225
5.64360,2.88750,-4.63750,0.00000,0.03428,0.97600,-0.17788,2023,6,8,16,10,32,236
5.64370,2.97500,-4.69000,0.00000,0.03160,0.97722,-0.17946,2023,6,8,16,10,32,247
5.64380,3.01000,-4.67250,0.00000,0.03184,0.97673,-0.17800,2023,6,8,16,10,32,258
5.64390,2.92250,-4.48000,0.00000,0.03331,0.97600,-0.17800,2023,6,8,16,10,32,269
5.64400,2.85250,-4.72500,0.00000,0.03404,0.97783,-0.17849,2023,6,8,16,10,32,280
5.64410,2.83500,-4.67250,0.00000,0.03233,0.97795,-0.17849,2023,6,8,16,10,32,291
5.64420,3.02750,-4.67250,0.00000,0.03257,0.97771,-0.17873,2023,6,8,16,10,32,303
5.64430,2.99250,-4.67250,0.00000,0.03318,0.97637,-0.17824,2023,6,8,16,10,32,314
5.64440,2.83500,-4.63750,0.00000,0.03392,0.97759,-0.17995,2023,6,8,16,10,32,325
5.64450,2.85250,-4.86500,0.00000,0.03331,0.97490,-0.17934,2023,6,8,16,10,32,336
5.64460,2.95750,-4.58500,0.00000,0.03123,0.97746,-0.18032,2023,6,8,16,10,32,347
5.64470,3.04500,-4.60250,0.00000,0.03331,0.97600,-0.17934,2023,6,8,16,10,32,358
5.64480,3.06250,-4.62000,0.00000,0.02928,0.97783,-0.17836,2023,6,8,16,10,32,369
5.64490,2.99250,-4.72500,0.00000,0.03257,0.97783,-0.17812,2023,6,8,16,10,32,380
5.64500,2.99250,-4.49750,0.00000,0.03453,0.97844,-0.17995,2023,6,8,16,10,32,391
5.64510,2.92250,-4.67250,0.00000,0.03416,0.97893,-0.17836,2023,6,8,16,10,32,403
5.64520,3.23750,-4.77750,0.00000,0.03209,0.97820,-0.18019,2023,6,8,16,10,32,414
5.64530,3.06250,-4.60250,0.00000,0.03477,0.97832,-0.18019,2023,6,8,16,10,32,425
5.64540,2.69500,-4.51500,0.00000,0.03196,0.97771,-0.17873,2023,6,8,16,10,32,436
5.64550,2.88750,-4.51500,0.00000,0.03160,0.97893,-0.18007,2023,6,8,16,10,32,447
5.64560,3.04500,-4.70750,0.00000,0.03318,0.97612,-0.18068,2023,6,8,16,10,32,458
5.64570,2.97500,-4.79500,0.00000,0.03135,0.97710,-0.17995,2023,6,8,16,10,32,469
5.64580,3.08000,-4.69000,0.00000,0.03416,0.97649,-0.18032,2023,6,8,16,10,32,480
5.64590,3.01000,-4.49750,0.00000,0.03148,0.97783,-0.17885,2023,6,8,16,10,32,491
5.64600,2.81750,-4.35750,0.00000,0.03233,0.97966,-0.17922,2023,6,8,16,10,32,503
5.64610,2.97500,-4.46250,0.00000,0.03367,0.97783,-0.17727,2023,6,8,16,10,32,514
5.64620,3.08000,-4.62000,0.00000,0.03306,0.97881,-0.18178,2023,6,8,16,10,32,525
5.64630,3.02750,-4.65500,0.00000,0.03099,0.97722,-0.17775,2023,6,8,16,10,32,536
5.64640,2.90500,-4.74250,0.00000,0.03123,0.97502,-0.17934,2023,6,8,16,10,32,547
5.64650,2.88750,-4.62000,0.00000,0.03196,0.97685,-0.17971,2023,6,8,16,10,32,558
5.64660,3.23750,-4.70750,0.00000,0.03221,0.97771,-0.17910,2023,6,8,16,10,32,569
5.64670,2.97500,-4.70750,0.00000,0.03501,0.97649,-0.17958,2023,6,8,16,10,32,580
5.64680,3.02750,-4.67250,0.00000,0.03135,0.97722,-0.18105,2023,6,8,16,10,32,591
5.64690,3.04500,-4.65500,0.00000,0.03282,0.97673,-0.17666,2023,6,8,16,10,32,603
5.64700,2.97500,-4.44500,0.00000,0.03257,0.97576,-0.18239,2023,6,8,16,10,32,614
5.64710,3.13250,-4.56750,0.00000,0.03318,0.97685,-0.17958,2023,6,8,16,10,32,625
5.64720,3.09750,-4.56750,0.00000,0.03196,0.97795,-0.17934,2023,6,8,16,10,32,636
5.64730,3.01000,-4.53250,0.00000,0.03294,0.97929,-0.17922,2023,6,8,16,10,32,647
5.64740,2.95750,-4.74250,0.00000,0.03282,0.97649,-0.18019,2023,6,8,16,10,32,658
5.64750,3.04500,-4.63750,0.00000,0.03038,0.97698,-0.18105,2023,6,8,16,10,32,669
5.64760,2.99250,-4.55000,0.00000,0.03111,0.97746,-0.17849,2023,6,8,16,10,32,680
5.64770,2.95750,-4.49750,0.00000,0.03221,0.98051,-0.18056,2023,6,8,16,10,32,691
5.64780,2.83500,-4.32250,0.00000,0.03367,0.97759,-0.17910,2023,6,8,16,10,32,703
5.64790,2.97500,-4.72500,0.00000,0.03123,0.97844,-0.17995,2023,6,8,16,10,32,714
5.64800,2.88750,-4.34000,0.00000,0.03209,0.97600,-0.18007,2023,6,8,16,10,32,725
5.64810,3.20250,-4.60250,0.00000,0.03257,0.97722,-0.18032,2023,6,8,16,10,32,736
5.64820,3.04500,-4.65500,0.00000,0.03087,0.97588,-0.18068,2023,6,8,16,10,32,747
5.64830,3.08000,-4.86500,0.00000,0.03257,0.97698,-0.18032,2023,6,8,16,10,32,758
5.64840,2.99250,-4.62000,0.00000,0.03294,0.97807,-0.18141,2023,6,8,16,10,32,769
5.64850,3.08000,-4.56750,0.00000,0.03184,0.97759,-0.18019,2023,6,8,16,10,32,780
5.64860,3.13250,-4.70750,0.00000,0.03245,0.97649,-0.17995,2023,6,8,16,10,32,791
5.64870,3.09750,-4.58500,0.00000,0.03270,0.97746,-0.18032,2023,6,8,16,10,32,803
5.64880,2.78250,-4.72500,0.00000,0.03514,0.97624,-0.18032,2023,6,8,16,10,32,814
5.64890,2.87000,-4.58500,0.00000,0.03257,0.97771,-0.18117,2023,6,8,16,10,32,825
5.64900,2.94000,-4.56750,0.00000,0.03465,0.97685,-0.18032,2023,6,8,16,10,32,836
5.64910,3.25500,-4.77750,0.00000,0.03257,0.97637,-0.18105,2023,6,8,16,10,32,847
5.64920,2.81750,-4.77750,0.00000,0.03148,0.97588,-0.17983,2023,6,8,16,10,32,858
5.64930,2.83500,-4.65500,0.00000,0.03233,0.97807,-0.18080,2023,6,8,16,10,32,869
5.64940,2.81750,-4.65500,0.00000,0.03221,0.97844,-0.18117,2023,6,8,16,10,32,880
5.64950,3.08000,-4.77750,0.00000,0.03282,0.97868,-0.18068,2023,6,8,16,10,32,891
5.64960,2.88750,-4.60250,0.00000,0.03221,0.97807,-0.17934,2023,6,8,16,10,32,903
5.64970,3.04500,-4.58500,0.00000,0.03318,0.97832,-0.17885,2023,6,8,16,10,32,914
5.64980,2.97500,-4.58500,0.00000,0.03392,0.97722,-0.18007,2023,6,8,16,10,32,925
5.64990,2.99250,-4.46250,0.00000,0.03294,0.97734,-0.18007,2023,6,8,16,10,32,936
5.65000,3.13250,-4.67250,0.00000,0.03099,0.98027,-0.17861,2023,6,8,16,10,32,947
5.65010,2.90500,-4.77750,0.00000,0.03257,0.97795,-0.17971,2023,6,8,16,10,32,958
5.65020,2.97500,-4.55000,0.00000,0.03355,0.97612,-0.17995,2023,6,8,16,10,32,969
5.65030,2.97500,-4.56750,0.00000,0.03001,0.97490,-0.17836,2023,6,8,16,10,32,980
5.65040,3.04500,-4.65500,0.00000,0.03196,0.97746,-0.17910,2023,6,8,16,10,32,991
5.65050,3.04500,-4.79500,0.00000,0.03074,0.97881,-0.17934,2023,6,8,16,10,33,3
5.65060,2.88750,-4.56750,0.00000,0.03331,0.97612,-0.18007,2023,6,8,16,10,33,14
5.65070,3.01000,-4.69000,0.00000,0.03270,0.97588,-0.18044,2023,6,8,16,10,33,25
5.65080,2.94000,-4.58500,0.00000,0.03111,0.97734,-0.17995,2023,6,8,16,10,33,36
5.65090,3.02750,-4.84750,0.00000,0.03160,0.97868,-0.17812,2023,6,8,16,10,33,47
5.65100,2.97500,-4.63750,0.00000,0.03489,0.97820,-0.18154,2023,6,8,16,10,33,58
5.65110,3.13250,-4.86500,0.00000,0.03270,0.97637,-0.17983,2023,6,8,16,10,33,69
5.65120,2.97500,-4.62000,0.00000,0.03355,0.97783,-0.17702,2023,6,8,16,10,33,80
5.65130,2.87000,-4.65500,0.00000,0.03001,0.97881,-0.18080,2023,6,8,16,10,33,91
5.65140,2.92250,-4.65500,0.00000,0.03221,0.97771,-0.17702,2023,6,8,16,10,33,103
5.65150,3.02750,-4.55000,0.00000,0.02952,0.97832,-0.17873,2023,6,8,16,10,33,114
5.65160,2.99250,-4.76000,0.00000,0.03355,0.97856,-0.17788,2023,6,8,16,10,33,125
5.65170,3.04500,-4.56750,0.00000,0.03318,0.97893,-0.18044,2023,6,8,16,10,33,136
5.65180,2.99250,-4.62000,0.00000,0.03343,0.97734,-0.17946,2023,6,8,16,10,33,147
5.65190,2.83500,-4.51500,0.00000,0.03062,0.97710,-0.17836,2023,6,8,16,10,33,158
5.65200,2.99250,-4.67250,0.00000,0.03477,0.97673,-0.18129,2023,6,8,16,10,33,169
5.65210,3.06250,-4.46250,0.00000,0.03392,0.97820,-0.17910,2023,6,8,16,10,33,180
5.65220,3.09750,-4.83000,0.00000,0.03379,0.97795,-0.17836,2023,6,8,16,10,33,191
5.65230,2.92250,-4.58500,0.00000,0.03221,0.97844,-0.17812,2023,6,8,16,10,33,203
5.65240,2.83500,-4.53250,0.00000,0.03282,0.97722,-0.17763,2023,6,8,16,10,33,214
5.65250,2.88750,-4.53250,0.00000,0.03270,0.97612,-0.17727,2023,6,8,16,10,33,225
5.65260,2.81750,-4.74250,0.00000,0.03416,0.97820,-0.18093,2023,6,8,16,10,33,236
5.65270,2.92250,-4.63750,0.00000,0.03428,0.97807,-0.17824,2023,6,8,16,10,33,247
5.65280,2.88750,-4.74250,0.00000,0.03306,0.97734,-0.18227,2023,6,8,16,10,33,258
5.65290,2.95750,-4.37500,0.00000,0.03367,0.97807,-0.17678,2023,6,8,16,10,33,269
5.65300,2.88750,-4.56750,0.00000,0.03270,0.97759,-0.17824,2023,6,8,16,10,33,280
5.65310,3.30750,-4.90000,0.00000,0.03087,0.97795,-0.17934,2023,6,8,16,10,33,291
5.65320,2.97500,-4.55000,0.00000,0.03135,0.97600,-0.17824,2023,6,8,16,10,33,303
5.65330,2.94000,-4.74250,0.00000,0.03148,0.97954,-0.17812,2023,6,8,16,10,33,314
5.65340,3.08000,-4.81250,0.00000,0.03257,0.97734,-0.17946,2023,6,8,16,10,33,325
5.65350,3.22000,-4.77750,0.00000,0.03013,0.97759,-0.17800,2023,6,8,16,10,33,336
5.65360,2.97500,-4.90000,0.00000,0.03184,0.97698,-0.17739,2023,6,8,16,10,33,347
5.65370,2.92250,-4.55000,0.00000,0.03318,0.97771,-0.17995,2023,6,8,16,10,33,358
5.65380,2.78250,-4.62000,0.00000,0.03331,0.97783,-0.18056,2023,6,8,16,10,33,369
5.65390,2.99250,-4.56750,0.00000,0.03355,0.97673,-0.17958,2023,6,8,16,10,33,380
5.65400,2.87000,-4.53250,0.00000,0.03184,0.97795,-0.17739,2023,6,8,16,10,33,391
5.65410,3.01000,-4.91750,0.00000,0.03160,0.97722,-0.17836,2023,6,8,16,10,33,403
5.65420,3.15000,-4.67250,0.00000,0.03282,0.97966,-0.17824,2023,6,8,16,10,33,414
5.65430,2.88750,-4.63750,0.00000,0.03392,0.97942,-0.18263,2023,6,8,16,10,33,425
5.65440,2.88750,-4.70750,0.00000,0.03062,0.97759,-0.18239,2023,6,8,16,10,33,436
5.65450,3.20250,-4.65500,0.00000,0.03440,0.97734,-0.17861,2023,6,8,16,10,33,447
5.65460,3.04500,-4.53250,0.00000,0.03257,0.97759,-0.17995,2023,6,8,16,10,33,458
5.65470,2.97500,-4.44500,0.00000,0.03416,0.97661,-0.18093,2023,6,8,16,10,33,469
5.65480,3.01000,-4.49750,0.00000,0.03196,0.97734,-0.18093,2023,6,8,16,10,33,480
5.65490,2.80000,-4.51500,0.00000,0.03050,0.97881,-0.17971,2023,6,8,16,10,33,491
5.65500,3.06250,-4.77750,0.00000,0.03392,0.97795,-0.18007,2023,6,8,16,10,33,503
5.65510,2.74750,-4.81250,0.00000,0.03440,0.97722,-0.18190,2023,6,8,16,10,33,514
5.65520,2.99250,-4.72500,0.00000,0.03343,0.97771,-0.17763,2023,6,8,16,10,33,525
5.65530,3.01000,-4.49750,0.00000,0.03440,0.97746,-0.17983,2023,6,8,16,10,33,536
5.65540,3.06250,-4.63750,0.00000,0.03221,0.97685,-0.18068,2023,6,8,16,10,33,547
5.65550,2.83500,-4.67250,0.00000,0.03428,0.97685,-0.18154,2023,6,8,16,10,33,558
5.65560,3.06250,-4.63750,0.00000,0.03196,0.97893,-0.18068,2023,6,8,16,10,33,569
5.65570,2.76500,-4.65500,0.00000,0.03367,0.97795,-0.18093,2023,6,8,16,10,33,580
5.65580,3.01000,-4.70750,0.00000,0.03318,0.97820,-0.17995,2023,6,8,16,10,33,591
5.65590,3.04500,-4.60250,0.00000,0.03306,0.97832,-0.17946,2023,6,8,16,10,33,603
5.65600,2.92250,-4.63750,0.00000,0.03209,0.97649,-0.17983,2023,6,8,16,10,33,614
5.65610,3.06250,-4.69000,0.00000,0.03074,0.97795,-0.18032,2023,6,8,16,10,33,625
5.65620,2.94000,-4.72500,0.00000,0.03209,0.97685,-0.17995,2023,6,8,16,10,33,636
5.65630,3.13250,-4.83000,0.00000,0.03416,0.97820,-0.18190,2023,6,8,16,10,33,647
5.65640,2.97500,-4.69000,0.00000,0.03428,0.97600,-0.18019,2023,6,8,16,10,33,658
5.65650,2.97500,-4.56750,0.00000,0.03209,0.97539,-0.18032,2023,6,8,16,10,33,669
5.65660,2.94000,-4.65500,0.00000,0.03172,0.97734,-0.18129,2023,6,8,16,10,33,680
5.65670,2.83500,-4.34000,0.00000,0.03501,0.97759,-0.18032,2023,6,8,16,10,33,691
5.65680,2.92250,-4.72500,0.00000,0.03245,0.97515,-0.17934,2023,6,8,16,10,33,703
5.65690,2.85250,-4.67250,0.00000,0.03233,0.97710,-0.18093,2023,6,8,16,10,33,714
5.65700,2.97500,-4.55000,0.00000,0.03392,0.97868,-0.17800,2023,6,8,16,10,33,725
5.65710,3.13250,-4.76000,0.00000,0.03306,0.97905,-0.18202,2023,6,8,16,10,33,736
5.65720,3.06250,-4.46250,0.00000,0.03331,0.97795,-0.17958,2023,6,8,16,10,33,747
5.65730,3.04500,-4.60250,0.00000,0.03318,0.97820,-0.18007,2023,6,8,16,10,33,758
5.65740,2.94000,-4.77750,0.00000,0.03343,0.97612,-0.17849,2023,6,8,16,10,33,769
5.65750,3.04500,-4.70750,0.00000,0.03135,0.97685,-0.17861,2023,6,8,16,10,33,780
5.65760,3.04500,-4.58500,0.00000,0.03416,0.97698,-0.18056,2023,6,8,16,10,33,791
5.65770,2.90500,-4.48000,0.00000,0.03318,0.97710,-0.18093,2023,6,8,16,10,33,803
5.65780,2.85250,-4.69000,0.00000,0.03526,0.97612,-0.17934,2023,6,8,16,10,33,814
5.65790,2.85250,-4.74250,0.00000,0.03233,0.97783,-0.17946,2023,6,8,16,10,33,825
5.65800,3.02750,-4.58500,0.00000,0.03270,0.97673,-0.17946,2023,6,8,16,10,33,836
5.65810,3.02750,-4.72500,0.00000,0.03038,0.97600,-0.17958,2023,6,8,16,10,33,847
5.65820,3.01000,-4.84750,0.00000,0.03135,0.97917,-0.18019,2023,6,8,16,10,33,858
5.65830,3.09750,-4.70750,0.00000,0.03282,0.97649,-0.18239,2023,6,8,16,10,33,869
5.65840,3.01000,-4.83000,0.00000,0.03318,0.97929,-0.17971,2023,6,8,16,10,33,880
5.65850,2.90500,-4.49750,0.00000,0.03160,0.97429,-0.17934,2023,6,8,16,10,33,891
5.65860,2.95750,-4.67250,0.00000,0.03294,0.97771,-0.18056,2023,6,8,16,10,33,903
5.65870,3.09750,-4.60250,0.00000,0.03148,0.97832,-0.18276,2023,6,8,16,10,33,914
5.65880,3.09750,-4.70750,0.00000,0.03074,0.97600,-0.18154,2023,6,8,16,10,33,925
5.65890,2.87000,-4.48000,0.00000,0.03306,0.97722,-0.18044,2023,6,8,16,10,33,936
5.65900,2.90500,-4.62000,0.00000,0.03416,0.97820,-0.18080,2023,6,8,16,10,33,947
5.65910,3.04500,-4.63750,0.00000,0.03184,0.97746,-0.18166,2023,6,8,16,10,33,958
5.65920,2.92250,-4.41000,0.00000,0.03221,0.97893,-0.18166,2023,6,8,16,10,33,969
5.65930,3.06250,-4.56750,0.00000,0.03245,0.97746,-0.18459,2023,6,8,16,10,33,980
5.65940,2.99250,-4.65500,0.00000,0.03343,0.97588,-0.18227,2023,6,8,16,10,33,991
5.65950,2.83500,-4.65500,0.00000,0.03428,0.97624,-0.18190,2023,6,8,16,10,34,3
5.65960,3.06250,-4.53250,0.00000,0.03062,0.97795,-0.18032,2023,6,8,16,10,34,14
5.65970,2.85250,-4.70750,0.00000,0.02989,0.97868,-0.18117,2023,6,8,16,10,34,25
5.65980,3.11500,-4.63750,0.00000,0.03160,0.97698,-0.17971,2023,6,8,16,10,34,36
5.65990,2.99250,-4.58500,0.00000,0.03282,0.97734,-0.18056,2023,6,8,16,10,34,47
5.66000,3.08000,-4.72500,0.00000,0.03245,0.97454,-0.18263,2023,6,8,16,10,34,58
5.66010,3.08000,-4.69000,0.00000,0.03160,0.97734,-0.18361,2023,6,8,16,10,34,69
5.66020,2.83500,-4.67250,0.00000,0.03282,0.97820,-0.17946,2023,6,8,16,10,34,80
5.66030,2.95750,-4.72500,0.00000,0.03306,0.97771,-0.18117,2023,6,8,16,10,34,91
5.66040,2.90500,-4.65500,0.00000,0.03196,0.97722,-0.18190,2023,6,8,16,10,34,103
5.66050,2.95750,-4.74250,0.00000,0.03148,0.97746,-0.18117,2023,6,8,16,10,34,114
5.66060,3.09750,-4.63750,0.00000,0.02965,0.97759,-0.18068,2023,6,8,16,10,34,125
5.66070,2.74750,-4.70750,0.00000,0.03221,0.97624,-0.18117,2023,6,8,16,10,34,136
5.66080,2.94000,-4.70750,0.00000,0.03379,0.97478,-0.17971,2023,6,8,16,10,34,147
5.66090,2.97500,-4.48000,0.00000,0.03148,0.97490,-0.18032,2023,6,8,16,10,34,158
5.66100,2.92250,-4.76000,0.00000,0.03209,0.97734,-0.18166,2023,6,8,16,10,34,169
5.66110,3.02750,-4.67250,0.00000,0.03160,0.97734,-0.18056,2023,6,8,16,10,34,180
5.66120,3.20250,-4.53250,0.00000,0.03245,0.97905,-0.18276,2023,6,8,16,10,34,191
5.66130,2.88750,-4.76000,0.00000,0.03209,0.97746,-0.17934,2023,6,8,16,10,34,203
5.66140,2.87000,-4.58500,0.00000,0.03111,0.97673,-0.17897,2023,6,8,16,10,34,214
5.66150,2.95750,-4.58500,0.00000,0.03050,0.97820,-0.18093,2023,6,8,16,10,34,225
5.66160,2.99250,-4.70750,0.00000,0.03306,0.97649,-0.18178,2023,6,8,16,10,34,236
5.66170,2.99250,-4.65500,0.00000,0.03294,0.97795,-0.18080,2023,6,8,16,10,34,247
5.66180,2.92250,-4.62000,0.00000,0.03209,0.97649,-0.17958,2023,6,8,16,10,34,258
5.66190,3.22000,-4.83000,0.00000,0.03404,0.97917,-0.18080,2023,6,8,16,10,34,269
5.66200,3.11500,-4.70750,0.00000,0.03294,0.97466,-0.17971,2023,6,8,16,10,34,280
5.66210,2.90500,-4.76000,0.00000,0.03196,0.97710,-0.18068,2023,6,8,16,10,34,291
5.66220,3.01000,-4.55000,0.00000,0.03453,0.97685,-0.18056,2023,6,8,16,10,34,303
5.66230,3.02750,-4.63750,0.00000,0.03465,0.97990,-0.17849,2023,6,8,16,10,34,314
5.66240,2.92250,-4.48000,0.00000,0.03196,0.97600,-0.17946,2023,6,8,16,10,34,325
5.66250,2.81750,-4.60250,0.00000,0.03282,0.97490,-0.18007,2023,6,8,16,10,34,336
5.66260,3.09750,-4.48000,0.00000,0.03209,0.97832,-0.17824,2023,6,8,16,10,34,347
5.66270,2.83500,-4.58500,0.00000,0.03294,0.97527,-0.18129,2023,6,8,16,10,34,358
5.66280,3.04500,-4.63750,0.00000,0.03209,0.97881,-0.18154,2023,6,8,16,10,34,369
5.66290,3.01000,-4.56750,0.00000,0.03367,0.97722,-0.18202,2023,6,8,16,10,34,380
5.66300,2.88750,-4.60250,0.00000,0.03184,0.98015,-0.17897,2023,6,8,16,10,34,391
5.66310,2.97500,-4.70750,0.00000,0.03343,0.97759,-0.18141,2023,6,8,16,10,34,403
5.66320,2.95750,-4.48000,0.00000,0.03160,0.97698,-0.17971,2023,6,8,16,10,34,414
5.66330,3.01000,-4.65500,0.00000,0.03233,0.97820,-0.17885,2023,6,8,16,10,34,425
5.66340,2.94000,-4.72500,0.00000,0.03294,0.97832,-0.17885,2023,6,8,16,10,34,436
5.66350,2.83500,-4.67250,0.00000,0.03514,0.97612,-0.18007,2023,6,8,16,10,34,447
5.66360,2.88750,-4.56750,0.00000,0.03306,0.97661,-0.17885,2023,6,8,16,10,34,458
5.66370,2.92250,-4.69000,0.00000,0.03160,0.97734,-0.18056,2023,6,8,16,10,34,469
5.66380,2.99250,-4.88250,0.00000,0.03221,0.97868,-0.17995,2023,6,8,16,10,34,480
5.66390,3.09750,-4.53250,0.00000,0.03355,0.97722,-0.18080,2023,6,8,16,10,34,491
5.66400,2.90500,-4.44500,0.00000,0.03245,0.97661,-0.18068,2023,6,8,16,10,34,503
5.66410,2.99250,-4.53250,0.00000,0.03306,0.97710,-0.17812,2023,6,8,16,10,34,514
5.66420,3.08000,-4.67250,0.00000,0.03440,0.97734,-0.18044,2023,6,8,16,10,34,525
5.66430,3.13250,-4.60250,0.00000,0.03196,0.97990,-0.18166,2023,6,8,16,10,34,536
5.66440,2.99250,-4.62000,0.00000,0.03087,0.97551,-0.17885,2023,6,8,16,10,34,547
5.66450,2.99250,-4.62000,0.00000,0.03209,0.97978,-0.18044,2023,6,8,16,10,34,558
5.66460,2.97500,-4.34000,0.00000,0.03221,0.97868,-0.17824,2023,6,8,16,10,34,569
5.66470,2.95750,-4.60250,0.00000,0.03245,0.97454,-0.17897,2023,6,8,16,10,34,580
5.66480,2.83500,-4.70750,0.00000,0.03160,0.97722,-0.17995,2023,6,8,16,10,34,591
5.66490,2.95750,-4.67250,0.00000,0.03257,0.97746,-0.17946,2023,6,8,16,10,34,603
5.66500,2.95750,-4.63750,0.00000,0.03148,0.97807,-0.17983,2023,6,8,16,10,34,614
5.66510,3.13250,-4.69000,0.00000,0.03209,0.97673,-0.18190,2023,6,8,16,10,34,625
5.66520,2.97500,-4.79500,0.00000,0.03099,0.97807,-0.17775,2023,6,8,16,10,34,636
5.66530,3.08000,-4.83000,0.00000,0.03282,0.97563,-0.18080,2023,6,8,16,10,34,647
5.66540,2.94000,-4.53250,0.00000,0.03196,0.97966,-0.18007,2023,6,8,16,10,34,658
5.66550,3.01000,-4.60250,0.00000,0.03416,0.97673,-0.17910,2023,6,8,16,10,34,669
5.66560,2.94000,-4.62000,0.00000,0.03257,0.97856,-0.18105,2023,6,8,16,10,34,680
5.66570,3.16750,-4.41000,0.00000,0.03074,0.97722,-0.17910,2023,6,8,16,10,34,691
5.66580,2.81750,-4.62000,0.00000,0.03148,0.97917,-0.17788,2023,6,8,16,10,34,703
5.66590,2.85250,-4.55000,0.00000,0.03245,0.97722,-0.17812,2023,6,8,16,10,34,714
5.66600,2.85250,-4.60250,0.00000,0.03318,0.97807,-0.18190,2023,6,8,16,10,34,725
5.66610,2.85250,-4.48000,0.00000,0.03196,0.98027,-0.18032,2023,6,8,16,10,34,736
5.66620,3.18500,-4.90000,0.00000,0.03270,0.97795,-0.17812,2023,6,8,16,10,34,747
5.66630,3.01000,-4.58500,0.00000,0.03172,0.97966,-0.18044,2023,6,8,16,10,34,758
5.66640,3.22000,-4.72500,0.00000,0.03233,0.97661,-0.18007,2023,6,8,16,10,34,769
5.66650,3.01000,-4.63750,0.00000,0.03221,0.97600,-0.17885,2023,6,8,16,10,34,780
5.66660,2.67750,-4.53250,0.00000,0.03282,0.97722,-0.17836,2023,6,8,16,10,34,791
5.66670,2.92250,-4.69000,0.00000,0.03135,0.97722,-0.17983,2023,6,8,16,10,34,803
5.66680,2.95750,-4.72500,0.00000,0.03245,0.97698,-0.17983,2023,6,8,16,10,34,814
5.66690,2.95750,-4.55000,0.00000,0.03221,0.97612,-0.18105,2023,6,8,16,10,34,825
5.66700,2.81750,-4.53250,0.00000,0.03404,0.97685,-0.17897,2023,6,8,16,10,34,836
5.66710,2.97500,-4.60250,0.00000,0.03257,0.97783,-0.17775,2023,6,8,16,10,34,847
5.66720,3.01000,-4.65500,0.00000,0.03233,0.97527,-0.17824,2023,6,8,16,10,34,858
5.66730,3.13250,-4.84750,0.00000,0.03160,0.97759,-0.18068,2023,6,8,16,10,34,869
5.66740,3.01000,-4.56750,0.00000,0.03245,0.97673,-0.17836,2023,6,8,16,10,34,880
5.66750,3.01000,-4.44500,0.00000,0.03099,0.97612,-0.17995,2023,6,8,16,10,34,891
5.66760,2.88750,-4.44500,0.00000,0.03026,0.97588,-0.17824,2023,6,8,16,10,34,903
5.66770,3.09750,-4.63750,0.00000,0.03148,0.97942,-0.17714,2023,6,8,16,10,34,914
5.66780,2.94000,-4.77750,0.00000,0.03111,0.97624,-0.17824,2023,6,8,16,10,34,925
5.66790,2.88750,-4.65500,0.00000,0.03270,0.97783,-0.17836,2023,6,8,16,10,34,936
5.66800,2.88750,-4.53250,0.00000,0.03074,0.97856,-0.17824,2023,6,8,16,10,34,947
5.66810,3.06250,-4.67250,0.00000,0.03172,0.97637,-0.18032,2023,6,8,16,10,34,958
5.66820,2.81750,-4.56750,0.00000,0.03282,0.97856,-0.17861,2023,6,8,16,10,34,969
5.66830,2.85250,-4.58500,0.00000,0.03245,0.97746,-0.17983,2023,6,8,16,10,34,980
5.66840,2.97500,-4.77750,0.00000,0.03148,0.97600,-0.18019,2023,6,8,16,10,34,991
5.66850,2.97500,-4.60250,0.00000,0.03160,0.97807,-0.17849,2023,6,8,16,10,35,3
5.66860,2.90500,-4.56750,0.00000,0.03184,0.97868,-0.17800,2023,6,8,16,10,35,14
5.66870,2.97500,-4.74250,0.00000,0.03160,0.97966,-0.18093,2023,6,8,16,10,35,25
5.66880,3.20250,-4.77750,0.00000,0.03221,0.97759,-0.17946,2023,6,8,16,10,35,36
5.66890,3.04500,-4.69000,0.00000,0.03209,0.97637,-0.17861,2023,6,8,16,10,35,47
5.66900,2.99250,-4.56750,0.00000,0.03270,0.97612,-0.17873,2023,6,8,16,10,35,58
5.66910,2.97500,-4.70750,0.00000,0.03221,0.97893,-0.18032,2023,6,8,16,10,35,69
5.66920,2.90500,-4.67250,0.00000,0.03221,0.97832,-0.17714,2023,6,8,16,10,35,80
5.66930,2.94000,-4.70750,0.00000,0.03062,0.97685,-0.17910,2023,6,8,16,10,35,91
5.66940,2.88750,-4.70750,0.00000,0.03209,0.97856,-0.18068,2023,6,8,16,10,35,103
5.66950,2.94000,-4.49750,0.00000,0.03501,0.97576,-0.17812,2023,6,8,16,10,35,114
5.66960,2.95750,-4.67250,0.00000,0.03233,0.97710,-0.17995,2023,6,8,16,10,35,125
5.66970,3.15000,-4.60250,0.00000,0.03148,0.97942,-0.18117,2023,6,8,16,10,35,136
5.66980,2.94000,-4.79500,0.00000,0.03440,0.97624,-0.17763,2023,6,8,16,10,35,147
5.66990,2.94000,-4.67250,0.00000,0.03331,0.97661,-0.17934,2023,6,8,16,10,35,158
5.67000,3.22000,-4.69000,0.00000,0.03074,0.97759,-0.18129,2023,6,8,16,10,35,169
5.67010,2.90500,-4.63750,0.00000,0.03160,0.97624,-0.17836,2023,6,8,16,10,35,180
5.67020,3.06250,-4.42750,0.00000,0.03392,0.97661,-0.17946,2023,6,8,16,10,35,191
5.67030,2.94000,-4.83000,0.00000,0.03160,0.98076,-0.17946,2023,6,8,16,10,35,203
5.67040,2.95750,-4.56750,0.00000,0.03257,0.97734,-0.18178,2023,6,8,16,10,35,214
5.67050,3.06250,-4.70750,0.00000,0.03282,0.97454,-0.17849,2023,6,8,16,10,35,225
5.67060,3.09750,-4.56750,0.00000,0.03172,0.97917,-0.17885,2023,6,8,16,10,35,236
5.67070,3.18500,-4.44500,0.00000,0.03331,0.97685,-0.18032,2023,6,8,16,10,35,247
5.67080,2.83500,-4.58500,0.00000,0.03245,0.97734,-0.18056,2023,6,8,16,10,35,258
5.67090,2.88750,-4.83000,0.00000,0.03270,0.97734,-0.17910,2023,6,8,16,10,35,269
5.67100,3.08000,-4.69000,0.00000,0.03392,0.97673,-0.17824,2023,6,8,16,10,35,280
5.67110,2.99250,-4.65500,0.00000,0.03184,0.97698,-0.17714,2023,6,8,16,10,35,291
5.67120,3.04500,-4.90000,0.00000,0.03172,0.97771,-0.18056,2023,6,8,16,10,35,303
5.67130,2.85250,-4.62000,0.00000,0.03026,0.97807,-0.18044,2023,6,8,16,10,35,314
5.67140,2.81750,-4.44500,0.00000,0.03294,0.97722,-0.18178,2023,6,8,16,10,35,325
5.67150,3.06250,-4.53250,0.00000,0.03257,0.97551,-0.18129,2023,6,8,16,10,35,336
5.67160,2.97500,-4.62000,0.00000,0.03209,0.97978,-0.17788,2023,6,8,16,10,35,347
5.67170,2.95750,-4.69000,0.00000,0.03306,0.97466,-0.18044,2023,6,8,16,10,35,358
5.67180,2.99250,-4.79500,0.00000,0.02916,0.97649,-0.17995,2023,6,8,16,10,35,369
5.67190,3.08000,-4.70750,0.00000,0.03379,0.97795,-0.17922,2023,6,8,16,10,35,380
5.67200,3.01000,-4.55000,0.00000,0.03184,0.97527,-0.18105,2023,6,8,16,10,35,391
5.67210,2.97500,-4.63750,0.00000,0.03270,0.97905,-0.17885,2023,6,8,16,10,35,403
5.67220,2.99250,-4.62000,0.00000,0.03379,0.97722,-0.17836,2023,6,8,16,10,35,414
5.67230,3.09750,-4.65500,0.00000,0.03428,0.97893,-0.17714,2023,6,8,16,10,35,425
5.67240,3.02750,-4.74250,0.00000,0.03343,0.97673,-0.17763,2023,6,8,16,10,35,436
5.67250,2.94000,-4.67250,0.00000,0.03404,0.97856,-0.18105,2023,6,8,16,10,35,447
5.67260,2.92250,-4.74250,0.00000,0.03294,0.97868,-0.17666,2023,6,8,16,10,35,458
5.67270,3.13250,-4.74250,0.00000,0.03428,0.97893,-0.17824,2023,6,8,16,10,35,469
5.67280,3.20250,-4.86500,0.00000,0.03245,0.97490,-0.17922,2023,6,8,16,10,35,480
5.67290,3.02750,-4.76000,0.00000,0.03111,0.97576,-0.18007,2023,6,8,16,10,35,491
5.67300,3.09750,-4.55000,0.00000,0.03270,0.97881,-0.18117,2023,6,8,16,10,35,503
5.67310,2.99250,-4.72500,0.00000,0.03233,0.97685,-0.17836,2023,6,8,16,10,35,514
5.67320,2.94000,-4.70750,0.00000,0.03367,0.97673,-0.18007,2023,6,8,16,10,35,525
5.67330,3.08000,-4.83000,0.00000,0.03123,0.97795,-0.17873,2023,6,8,16,10,35,536
5.67340,3.01000,-4.70750,0.00000,0.03379,0.97551,-0.17946,2023,6,8,16,10,35,547
5.67350,2.95750,-4.56750,0.00000,0.03001,0.97746,-0.17934,2023,6,8,16,10,35,558
5.67360,3.01000,-4.76000,0.00000,0.03062,0.97722,-0.17861,2023,6,8,16,10,35,569
5.67370,2.74750,-4.58500,0.00000,0.03379,0.97844,-0.17934,2023,6,8,16,10,35,580
5.67380,2.76500,-4.60250,0.00000,0.03355,0.97966,-0.18129,2023,6,8,16,10,35,591
5.67390,2.90500,-4.79500,0.00000,0.03050,0.97673,-0.18019,2023,6,8,16,10,35,603
5.67400,2.74750,-4.76000,0.00000,0.03184,0.97478,-0.18032,2023,6,8,16,10,35,614
5.67410,2.81750,-4.53250,0.00000,0.03184,0.97710,-0.18093,2023,6,8,16,10,35,625
5.67420,2.78250,-4.69000,0.00000,0.03367,0.97649,-0.18129,2023,6,8,16,10,35,636
5.67430,2.97500,-4.46250,0.00000,0.03013,0.97917,-0.18105,2023,6,8,16,10,35,647
5.67440,2.87000,-4.44500,0.00000,0.03038,0.97637,-0.17934,2023,6,8,16,10,35,658
5.67450,2.88750,-4.76000,0.00000,0.03257,0.97624,-0.17885,2023,6,8,16,10,35,669
5.67460,3.15000,-4.88250,0.00000,0.03196,0.97734,-0.17678,2023,6,8,16,10,35,680
5.67470,3.04500,-4.53250,0.00000,0.03318,0.97637,-0.17958,2023,6,8,16,10,35,691
5.67480,2.87000,-4.56750,0.00000,0.03038,0.97624,-0.18129,2023,6,8,16,10,35,703
5.67490,3.04500,-4.83000,0.00000,0.03392,0.97844,-0.17995,2023,6,8,16,10,35,714
5.67500,2.92250,-4.56750,0.00000,0.03196,0.97771,-0.18019,2023,6,8,16,10,35,725
5.67510,3.01000,-4.70750,0.00000,0.03184,0.97600,-0.18032,2023,6,8,16,10,35,736
5.67520,3.06250,-4.65500,0.00000,0.03355,0.97588,-0.18093,2023,6,8,16,10,35,747
5.67530,3.23750,-4.83000,0.00000,0.03123,0.97649,-0.18019,2023,6,8,16,10,35,758
5.67540,2.95750,-4.39250,0.00000,0.03135,0.97576,-0.17971,2023,6,8,16,10,35,769
5.67550,2.88750,-4.58500,0.00000,0.03209,0.97722,-0.17971,2023,6,8,16,10,35,780
5.67560,2.92250,-4.56750,0.00000,0.03343,0.97868,-0.18141,2023,6,8,16,10,35,791
5.67570,3.15000,-4.72500,0.00000,0.03306,0.97637,-0.18154,2023,6,8,16,10,35,803
5.67580,2.97500,-4.60250,0.00000,0.03062,0.97929,-0.18044,2023,6,8,16,10,35,814
5.67590,2.99250,-4.69000,0.00000,0.03294,0.97832,-0.17824,2023,6,8,16,10,35,825
5.67600,3.04500,-4.65500,0.00000,0.03331,0.97759,-0.18129,2023,6,8,16,10,35,836
5.67610,2.97500,-4.67250,0.00000,0.03038,0.97661,-0.17971,2023,6,8,16,10,35,847
5.67620,2.95750,-4.74250,0.00000,0.03355,0.97832,-0.18080,2023,6,8,16,10,35,858
5.67630,3.08000,-4.72500,0.00000,0.03196,0.97856,-0.18007,2023,6,8,16,10,35,869
5.67640,2.73000,-4.53250,0.00000,0.03148,0.97905,-0.18032,2023,6,8,16,10,35,880
5.67650,3.04500,-4.67250,0.00000,0.03245,0.97588,-0.18019,2023,6,8,16,10,35,891
5.67660,3.11500,-4.63750,0.00000,0.03074,0.97807,-0.18056,2023,6,8,16,10,35,903
5.67670,3.20250,-4.70750,0.00000,0.03135,0.97637,-0.17983,2023,6,8,16,10,35,914
5.67680,3.06250,-4.70750,0.00000,0.03257,0.97637,-0.18129,2023,6,8,16,10,35,925
5.67690,2.94000,-4.62000,0.00000,0.03038,0.97624,-0.18105,2023,6,8,16,10,35,936
5.67700,3.09750,-4.48000,0.00000,0.03257,0.97722,-0.18032,2023,6,8,16,10,35,947
5.67710,3.18500,-4.83000,0.00000,0.03221,0.97637,-0.18080,2023,6,8,16,10,35,958
5.67720,2.95750,-4.65500,0.00000,0.03184,0.97649,-0.18178,2023,6,8,16,10,35,969
5.67730,2.90500,-4.72500,0.00000,0.03318,0.97685,-0.17983,2023,6,8,16,10,35,980
5.67740,2.88750,-4.58500,0.00000,0.03318,0.97771,-0.17995,2023,6,8,16,10,35,991
5.67750,3.09750,-4.86500,0.00000,0.03209,0.97624,-0.18190,2023,6,8,16,10,36,3
5.67760,3.18500,-4.70750,0.00000,0.03111,0.97673,-0.17958,2023,6,8,16,10,36,14
5.67770,2.97500,-4.63750,0.00000,0.03245,0.97771,-0.17934,2023,6,8,16,10,36,25
5.67780,2.94000,-4.42750,0.00000,0.03160,0.97673,-0.18093,2023,6,8,16,10,36,36
5.67790,3.11500,-4.48000,0.00000,0.03257,0.97649,-0.18227,2023,6,8,16,10,36,47
5.67800,3.06250,-4.63750,0.00000,0.03196,0.97771,-0.18019,2023,6,8,16,10,36,58
5.67810,2.95750,-4.56750,0.00000,0.03477,0.97710,-0.18227,2023,6,8,16,10,36,69
5.67820,2.87000,-4.76000,0.00000,0.03270,0.97685,-0.18117,2023,6,8,16,10,36,80
5.67830,3.04500,-4.42750,0.00000,0.03501,0.97893,-0.18044,2023,6,8,16,10,36,91
5.67840,2.71250,-4.60250,0.00000,0.03099,0.97698,-0.18093,2023,6,8,16,10,36,103
5.67850,2.85250,-4.62000,0.00000,0.03111,0.97759,-0.17934,2023,6,8,16,10,36,114
5.67860,3.01000,-4.67250,0.00000,0.03196,0.97868,-0.18251,2023,6,8,16,10,36,125
5.67870,2.87000,-4.53250,0.00000,0.03148,0.97795,-0.18178,2023,6,8,16,10,36,136
5.67880,3.01000,-4.74250,0.00000,0.03123,0.97588,-0.18288,2023,6,8,16,10,36,147
5.67890,2.99250,-4.77750,0.00000,0.03184,0.97429,-0.17873,2023,6,8,16,10,36,158
5.67900,2.85250,-4.58500,0.00000,0.03367,0.97490,-0.18056,2023,6,8,16,10,36,169
5.67910,2.97500,-4.65500,0.00000,0.03087,0.97600,-0.18032,2023,6,8,16,10,36,180
5.67920,2.95750,-4.69000,0.00000,0.03074,0.97832,-0.17897,2023,6,8,16,10,36,191
5.67930,2.88750,-4.72500,0.00000,0.03099,0.97868,-0.18068,2023,6,8,16,10,36,203
5.67940,3.18500,-4.93500,0.00000,0.03257,0.97832,-0.17910,2023,6,8,16,10,36,214
5.67950,3.02750,-4.60250,0.00000,0.03282,0.97844,-0.18337,2023,6,8,16,10,36,225
5.67960,2.80000,-4.70750,0.00000,0.03331,0.97710,-0.17800,2023,6,8,16,10,36,236
5.67970,2.90500,-4.49750,0.00000,0.03148,0.97563,-0.18007,2023,6,8,16,10,36,247
5.67980,3.11500,-4.70750,0.00000,0.03001,0.97893,-0.18202,2023,6,8,16,10,36,258
5.67990,3.18500,-4.58500,0.00000,0.03245,0.97795,-0.17934,2023,6,8,16,10,36,269
5.68000,2.94000,-4.63750,0.00000,0.03355,0.97612,-0.17910,2023,6,8,16,10,36,280
5.68010,3.04500,-4.56750,0.00000,0.03257,0.97612,-0.17910,2023,6,8,16,10,36,291
5.68020,2.99250,-4.86500,0.00000,0.03270,0.98015,-0.17873,2023,6,8,16,10,36,303
5.68030,2.83500,-4.67250,0.00000,0.03135,0.97783,-0.17971,2023,6,8,16,10,36,314
5.68040,3.04500,-4.62000,0.00000,0.03477,0.97966,-0.17824,2023,6,8,16,10,36,325
5.68050,2.99250,-4.56750,0.00000,0.03221,0.97637,-0.17910,2023,6,8,16,10,36,336
5.68060,2.97500,-4.72500,0.00000,0.03087,0.97673,-0.18141,2023,6,8,16,10,36,347
5.68070,2.97500,-4.77750,0.00000,0.03306,0.97844,-0.17775,2023,6,8,16,10,36,358
5.68080,2.80000,-4.77750,0.00000,0.03318,0.97917,-0.17836,2023,6,8,16,10,36,369
5.68090,3.09750,-4.65500,0.00000,0.03440,0.97759,-0.17910,2023,6,8,16,10,36,380
5.68100,2.99250,-4.60250,0.00000,0.03172,0.97698,-0.17849,2023,6,8,16,10,36,391
5.68110,3.13250,-4.65500,0.00000,0.03062,0.97795,-0.17983,2023,6,8,16,10,36,403
5.68120,2.88750,-4.63750,0.00000,0.03306,0.97881,-0.17910,2023,6,8,16,10,36,414
5.68130,2.97500,-4.56750,0.00000,0.03123,0.97624,-0.17995,2023,6,8,16,10,36,425
5.68140,3.11500,-4.70750,0.00000,0.03026,0.97905,-0.17836,2023,6,8,16,10,36,436
5.68150,3.04500,-4.79500,0.00000,0.03148,0.97795,-0.17812,2023,6,8,16,10,36,447
5.68160,3.02750,-4.83000,0.00000,0.03074,0.97795,-0.17836,2023,6,8,16,10,36,458
5.68170,3.11500,-4.56750,0.00000,0.03355,0.97661,-0.17958,2023,6,8,16,10,36,469
5.68180,3.02750,-4.49750,0.00000,0.03294,0.97612,-0.18105,2023,6,8,16,10,36,480
5.68190,2.92250,-4.55000,0.00000,0.03209,0.97588,-0.17702,2023,6,8,16,10,36,491
5.68200,3.01000,-4.58500,0.00000,0.03270,0.97612,-0.17861,2023,6,8,16,10,36,503
5.68210,2.81750,-4.69000,0.00000,0.03160,0.97734,-0.17971,2023,6,8,16,10,36,514
5.68220,2.92250,-4.60250,0.00000,0.03221,0.97710,-0.18093,2023,6,8,16,10,36,525
5.68230,2.85250,-4.53250,0.00000,0.03282,0.97661,-0.17812,2023,6,8,16,10,36,536
5.68240,2.94000,-4.48000,0.00000,0.03294,0.97746,-0.17812,2023,6,8,16,10,36,547
5.68250,2.80000,-4.56750,0.00000,0.03160,0.97673,-0.17849,2023,6,8,16,10,36,558
5.68260,2.94000,-4.69000,0.00000,0.03440,0.97722,-0.18093,2023,6,8,16,10,36,569
5.68270,2.95750,-4.67250,0.00000,0.03355,0.97795,-0.17812,2023,6,8,16,10,36,580
5.68280,2.95750,-4.76000,0.00000,0.03404,0.97661,-0.17885,2023,6,8,16,10,36,591
5.68290,2.81750,-4.65500,0.00000,0.03172,0.97673,-0.17885,2023,6,8,16,10,36,603
5.68300,2.99250,-4.48000,0.00000,0.03074,0.97783,-0.17995,2023,6,8,16,10,36,614
5.68310,2.83500,-4.55000,0.00000,0.03331,0.97990,-0.17763,2023,6,8,16,10,36,625
5.68320,3.15000,-4.69000,0.00000,0.03440,0.97746,-0.17812,2023,6,8,16,10,36,636
5.68330,2.90500,-4.55000,0.00000,0.03331,0.97710,-0.18032,2023,6,8,16,10,36,647
5.68340,3.13250,-4.86500,0.00000,0.03233,0.97771,-0.17934,2023,6,8,16,10,36,658
5.68350,2.81750,-4.42750,0.00000,0.03379,0.97673,-0.17873,2023,6,8,16,10,36,669
5.68360,2.97500,-4.58500,0.00000,0.03087,0.97637,-0.17910,2023,6,8,16,10,36,680
5.68370,3.04500,-4.69000,0.00000,0.03306,0.97844,-0.18032,2023,6,8,16,10,36,691
5.68380,3.02750,-4.60250,0.00000,0.03184,0.97771,-0.18056,2023,6,8,16,10,36,703
5.68390,3.06250,-4.44500,0.00000,0.03306,0.97649,-0.17739,2023,6,8,16,10,36,714
5.68400,3.18500,-4.86500,0.00000,0.03501,0.97612,-0.18044,2023,6,8,16,10,36,725
5.68410,2.87000,-4.42750,0.00000,0.03294,0.97868,-0.17861,2023,6,8,16,10,36,736
5.68420,2.95750,-4.65500,0.00000,0.03221,0.97661,-0.17788,2023,6,8,16,10,36,747
5.68430,2.97500,-4.60250,0.00000,0.03087,0.97820,-0.18007,2023,6,8,16,10,36,758
5.68440,3.01000,-4.65500,0.00000,0.03135,0.97807,-0.17922,2023,6,8,16,10,36,769
5.68450,3.06250,-4.79500,0.00000,0.03172,0.97637,-0.17983,2023,6,8,16,10,36,780
5.68460,3.18500,-4.77750,0.00000,0.03245,0.97588,-0.18105,2023,6,8,16,10,36,791
5.68470,3.04500,-4.63750,0.00000,0.03087,0.97929,-0.18129,2023,6,8,16,10,36,803
5.68480,3.23750,-4.67250,0.00000,0.03294,0.97917,-0.18385,2023,6,8,16,10,36,814
5.68490,2.92250,-4.74250,0.00000,0.03440,0.97746,-0.17824,2023,6,8,16,10,36,825
5.68500,2.88750,-4.55000,0.00000,0.03123,0.97576,-0.18105,2023,6,8,16,10,36,836
5.68510,2.92250,-4.69000,0.00000,0.03221,0.97893,-0.18019,2023,6,8,16,10,36,847
5.68520,2.99250,-4.74250,0.00000,0.03538,0.97710,-0.17958,2023,6,8,16,10,36,858
5.68530,2.88750,-4.69000,0.00000,0.03282,0.97624,-0.18080,2023,6,8,16,10,36,869
5.68540,2.81750,-4.79500,0.00000,0.03404,0.97478,-0.17922,2023,6,8,16,10,36,880
5.68550,2.92250,-4.60250,0.00000,0.03416,0.97771,-0.17934,2023,6,8,16,10,36,891
5.68560,3.08000,-4.60250,0.00000,0.03160,0.97661,-0.18068,2023,6,8,16,10,36,903
5.68570,3.02750,-4.65500,0.00000,0.03221,0.97637,-0.17885,2023,6,8,16,10,36,914
5.68580,3.06250,-4.63750,0.00000,0.03526,0.97783,-0.17897,2023,6,8,16,10,36,925
5.68590,2.88750,-4.56750,0.00000,0.03257,0.97637,-0.18105,2023,6,8,16,10,36,936
5.68600,3.04500,-4.83000,0.00000,0.03257,0.97673,-0.18166,2023,6,8,16,10,36,947
5.68610,2.78250,-4.51500,0.00000,0.03123,0.97722,-0.18080,2023,6,8,16,10,36,958
5.68620,2.92250,-4.62000,0.00000,0.03355,0.97844,-0.18105,2023,6,8,16,10,36,969
5.68630,3.04500,-4.65500,0.00000,0.03123,0.97954,-0.18129,2023,6,8,16,10,36,980
5.68640,2.95750,-4.51500,0.00000,0.03392,0.97807,-0.18202,2023,6,8,16,10,37,1
5.68650,2.92250,-4.60250,0.00000,0.03318,0.97771,-0.18080,2023,6,8,16,10,37,13
5.68660,3.13250,-4.62000,0.00000,0.03318,0.97917,-0.18190,2023,6,8,16,10,37,24
5.68670,2.78250,-4.56750,0.00000,0.03221,0.97734,-0.17910,2023,6,8,16,10,37,35
5.68680,2.88750,-4.63750,0.00000,0.03270,0.97844,-0.18166,2023,6,8,16,10,37,46
5.68690,2.90500,-4.72500,0.00000,0.03306,0.97832,-0.18178,2023,6,8,16,10,37,57
5.68700,2.88750,-4.46250,0.00000,0.03306,0.97795,-0.18154,2023,6,8,16,10,37,68
5.68710,3.18500,-4.83000,0.00000,0.03416,0.97612,-0.17995,2023,6,8,16,10,37,79
5.68720,3.16750,-4.67250,0.00000,0.03074,0.97429,-0.18263,2023,6,8,16,10,37,90
5.68730,2.97500,-4.79500,0.00000,0.03306,0.97722,-0.18324,2023,6,8,16,10,37,101
5.68740,2.94000,-4.62000,0.00000,0.03148,0.97856,-0.18178,2023,6,8,16,10,37,113
5.68750,3.08000,-4.44500,0.00000,0.03209,0.97710,-0.18239,2023,6,8,16,10,37,124
5.68760,2.95750,-4.53250,0.00000,0.03209,0.97722,-0.18227,2023,6,8,16,10,37,135
5.68770,3.11500,-4.55000,0.00000,0.03221,0.97563,-0.18215,2023,6,8,16,10,37,146
5.68780,3.06250,-4.67250,0.00000,0.03160,0.97905,-0.18227,2023,6,8,16,10,37,157
5.68790,2.90500,-4.44500,0.00000,0.03184,0.97807,-0.18166,2023,6,8,16,10,37,168
5.68800,2.97500,-4.65500,0.00000,0.03331,0.97734,-0.18056,2023,6,8,16,10,37,179
5.68810,2.94000,-4.58500,0.00000,0.03209,0.97771,-0.18263,2023,6,8,16,10,37,190
5.68820,2.88750,-4.65500,0.00000,0.03306,0.97600,-0.18190,2023,6,8,16,10,37,201
5.68830,2.90500,-4.77750,0.00000,0.03221,0.97600,-0.18093,2023,6,8,16,10,37,213
5.68840,2.80000,-4.48000,0.00000,0.03453,0.97856,-0.18129,2023,6,8,16,10,37,224
5.68850,3.13250,-4.91750,0.00000,0.03392,0.97734,-0.18239,2023,6,8,16,10,37,235
5.68860,3.20250,-4.72500,0.00000,0.03148,0.98027,-0.18105,2023,6,8,16,10,37,246
5.68870,2.85250,-4.44500,0.00000,0.03331,0.97637,-0.18178,2023,6,8,16,10,37,257
5.68880,3.08000,-4.60250,0.00000,0.03074,0.97649,-0.18276,2023,6,8,16,10,37,268
5.68890,3.01000,-4.76000,0.00000,0.03282,0.97624,-0.18239,2023,6,8,16,10,37,279
5.68900,3.13250,-4.69000,0.00000,0.03294,0.97661,-0.18263,2023,6,8,16,10,37,290
5.68910,2.95750,-4.51500,0.00000,0.03160,0.97685,-0.18105,2023,6,8,16,10,37,301
5.68920,3.13250,-4.70750,0.00000,0.03245,0.97600,-0.18166,2023,6,8,16,10,37,313
5.68930,2.97500,-4.72500,0.00000,0.03489,0.97685,-0.18166,2023,6,8,16,10,37,324
5.68940,3.02750,-4.79500,0.00000,0.03209,0.97771,-0.18288,2023,6,8,16,10,37,335
5.68950,3.06250,-4.53250,0.00000,0.03306,0.97624,-0.18093,2023,6,8,16,10,37,346
5.68960,3.02750,-4.76000,0.00000,0.03367,0.97637,-0.18215,2023,6,8,16,10,37,357
5.68970,2.92250,-4.58500,0.00000,0.03331,0.97698,-0.18239,2023,6,8,16,10,37,368
5.68980,2.95750,-4.69000,0.00000,0.03233,0.97551,-0.18154,2023,6,8,16,10,37,379
5.68990,2.92250,-4.46250,0.00000,0.03209,0.97588,-0.18129,2023,6,8,16,10,37,390
5.69000,2.97500,-4.56750,0.00000,0.03318,0.97795,-0.18215,2023,6,8,16,10,37,401
5.69010,3.01000,-4.60250,0.00000,0.03233,0.97844,-0.18239,2023,6,8,16,10,37,413
5.69020,2.95750,-4.56750,0.00000,0.03099,0.97612,-0.18056,2023,6,8,16,10,37,424
5.69030,2.83500,-4.84750,0.00000,0.03111,0.97990,-0.17849,2023,6,8,16,10,37,435
5.69040,3.11500,-4.60250,0.00000,0.03209,0.97844,-0.18056,2023,6,8,16,10,37,446
5.69050,2.94000,-4.58500,0.00000,0.03233,0.97502,-0.17983,2023,6,8,16,10,37,457
5.69060,2.80000,-4.76000,0.00000,0.03355,0.97820,-0.18227,2023,6,8,16,10,37,468
5.69070,3.23750,-4.49750,0.00000,0.03184,0.97759,-0.18105,2023,6,8,16,10,37,479
5.69080,2.80000,-4.63750,0.00000,0.03196,0.97771,-0.17946,2023,6,8,16,10,37,490
5.69090,2.87000,-4.72500,0.00000,0.03209,0.97576,-0.17971,2023,6,8,16,10,37,501
5.69100,3.13250,-4.74250,0.00000,0.03306,0.98003,-0.17873,2023,6,8,16,10,37,513
5.69110,2.97500,-4.62000,0.00000,0.03306,0.97685,-0.17958,2023,6,8,16,10,37,524
5.69120,3.13250,-4.72500,0.00000,0.03416,0.97746,-0.18032,2023,6,8,16,10,37,535
5.69130,2.95750,-4.62000,0.00000,0.03306,0.97649,-0.17983,2023,6,8,16,10,37,546
5.69140,2.94000,-4.60250,0.00000,0.03270,0.97661,-0.18105,2023,6,8,16,10,37,557
5.69150,3.01000,-4.67250,0.00000,0.03209,0.97637,-0.17995,2023,6,8,16,10,37,568
5.69160,3.04500,-4.86500,0.00000,0.03172,0.97795,-0.18019,2023,6,8,16,10,37,579
5.69170,2.64250,-4.60250,0.00000,0.03306,0.97698,-0.18263,2023,6,8,16,10,37,590
5.69180,3.06250,-4.70750,0.00000,0.03001,0.97661,-0.18166,2023,6,8,16,10,37,601
5.69190,2.95750,-4.81250,0.00000,0.03282,0.97490,-0.18032,2023,6,8,16,10,37,613
5.69200,3.02750,-4.67250,0.00000,0.03318,0.97820,-0.18093,2023,6,8,16,10,37,624
5.69210,3.08000,-4.56750,0.00000,0.03209,0.97820,-0.18019,2023,6,8,16,10,37,635
5.69220,2.83500,-4.72500,0.00000,0.03453,0.97783,-0.18190,2023,6,8,16,10,37,646
5.69230,2.83500,-4.62000,0.00000,0.03514,0.97759,-0.17885,2023,6,8,16,10,37,657
5.69240,2.83500,-4.56750,0.00000,0.03306,0.97844,-0.17934,2023,6,8,16,10,37,668
5.69250,2.99250,-4.46250,0.00000,0.03282,0.97832,-0.18129,2023,6,8,16,10,37,679
5.69260,2.99250,-4.84750,0.00000,0.03306,0.98039,-0.17934,2023,6,8,16,10,37,690
5.69270,3.22000,-4.81250,0.00000,0.03160,0.97551,-0.17946,2023,6,8,16,10,37,701
5.69280,2.92250,-4.63750,0.00000,0.03038,0.97612,-0.18190,2023,6,8,16,10,37,713
5.69290,2.92250,-4.62000,0.00000,0.03233,0.97673,-0.18093,2023,6,8,16,10,37,724
5.69300,2.92250,-4.55000,0.00000,0.03184,0.97783,-0.17934,2023,6,8,16,10,37,735
5.69310,3.02750,-4.60250,0.00000,0.03196,0.97673,-0.18007,2023,6,8,16,10,37,746
5.69320,3.09750,-4.81250,0.00000,0.03294,0.97661,-0.18032,2023,6,8,16,10,37,757
5.69330,3.13250,-4.76000,0.00000,0.03331,0.97820,-0.18251,2023,6,8,16,10,37,768
5.69340,3.06250,-4.53250,0.00000,0.03270,0.97673,-0.18032,2023,6,8,16,10,37,779
5.69350,2.94000,-4.65500,0.00000,0.03526,0.97698,-0.18190,2023,6,8,16,10,37,790
5.69360,3.06250,-4.67250,0.00000,0.03379,0.97783,-0.18129,2023,6,8,16,10,37,801
5.69370,3.01000,-4.79500,0.00000,0.03282,0.97710,-0.18190,2023,6,8,16,10,37,813
5.69380,2.95750,-4.65500,0.00000,0.03440,0.97405,-0.17995,2023,6,8,16,10,37,824
5.69390,2.92250,-4.88250,0.00000,0.03440,0.97612,-0.18141,2023,6,8,16,10,37,835
5.69400,2.81750,-4.41000,0.00000,0.03062,0.97990,-0.18154,2023,6,8,16,10,37,846
5.69410,2.87000,-4.67250,0.00000,0.03575,0.97759,-0.18178,2023,6,8,16,10,37,857
5.69420,3.09750,-4.44500,0.00000,0.03099,0.97649,-0.18068,2023,6,8,16,10,37,868
5.69430,3.01000,-4.58500,0.00000,0.03367,0.97783,-0.18141,2023,6,8,16,10,37,879
5.69440,2.94000,-4.63750,0.00000,0.03428,0.97698,-0.18105,2023,6,8,16,10,37,890
5.69450,3.09750,-4.44500,0.00000,0.03123,0.97734,-0.17934,2023,6,8,16,10,37,901
5.69460,2.85250,-4.56750,0.00000,0.02940,0.97612,-0.17983,2023,6,8,16,10,37,913
5.69470,2.87000,-4.77750,0.00000,0.03465,0.97698,-0.18056,2023,6,8,16,10,37,924
5.69480,3.08000,-4.56750,0.00000,0.03355,0.97722,-0.17897,2023,6,8,16,10,37,935
5.69490,3.09750,-4.46250,0.00000,0.03123,0.97661,-0.18080,2023,6,8,16,10,37,946
5.69500,2.81750,-4.46250,0.00000,0.03062,0.97673,-0.18129,2023,6,8,16,10,37,957
5.69510,3.08000,-4.63750,0.00000,0.03209,0.97844,-0.18166,2023,6,8,16,10,37,968
5.69520,2.99250,-4.58500,0.00000,0.03331,0.97722,-0.18093,2023,6,8,16,10,37,979
5.69530,2.94000,-4.58500,0.00000,0.03099,0.97771,-0.18324,2023,6,8,16,10,37,990
5.69540,2.97500,-4.84750,0.00000,0.03087,0.97820,-0.17995,2023,6,8,16,10,38,1
5.69550,2.95750,-4.53250,0.00000,0.03331,0.97734,-0.18215,2023,6,8,16,10,38,13
5.69560,3.04500,-4.56750,0.00000,0.03245,0.97612,-0.18337,2023,6,8,16,10,38,24
5.69570,2.94000,-4.63750,0.00000,0.03404,0.97600,-0.18105,2023,6,8,16,10,38,35
5.69580,3.04500,-4.63750,0.00000,0.03367,0.97832,-0.18288,2023,6,8,16,10,38,46
5.69590,2.95750,-4.44500,0.00000,0.03257,0.97746,-0.18166,2023,6,8,16,10,38,57
5.69600,3.11500,-4.72500,0.00000,0.03465,0.97612,-0.18007,2023,6,8,16,10,38,68
5.69610,2.92250,-4.60250,0.00000,0.03172,0.97637,-0.17995,2023,6,8,16,10,38,79
5.69620,3.13250,-4.76000,0.00000,0.03209,0.97917,-0.18178,2023,6,8,16,10,38,90
5.69630,3.11500,-4.72500,0.00000,0.03489,0.97685,-0.18202,2023,6,8,16,10,38,101
5.69640,2.90500,-4.74250,0.00000,0.03318,0.97759,-0.18093,2023,6,8,16,10,38,113
5.69650,2.90500,-4.56750,0.00000,0.03123,0.97685,-0.18166,2023,6,8,16,10,38,124
5.69660,2.95750,-4.67250,0.00000,0.03026,0.97856,-0.18056,2023,6,8,16,10,38,135
5.69670,3.09750,-4.88250,0.00000,0.03160,0.97539,-0.18227,2023,6,8,16,10,38,146
5.69680,2.85250,-4.62000,0.00000,0.03270,0.97649,-0.18019,2023,6,8,16,10,38,157
5.69690,2.92250,-4.60250,0.00000,0.03257,0.97576,-0.17971,2023,6,8,16,10,38,168
5.69700,3.01000,-4.48000,0.00000,0.03257,0.97539,-0.18154,2023,6,8,16,10,38,179
5.69710,3.02750,-4.67250,0.00000,0.03209,0.97527,-0.17958,2023,6,8,16,10,38,190
5.69720,3.06250,-4.60250,0.00000,0.03306,0.97881,-0.18178,2023,6,8,16,10,38,201
5.69730,2.83500,-4.56750,0.00000,0.03355,0.97844,-0.18251,2023,6,8,16,10,38,213
5.69740,2.81750,-4.79500,0.00000,0.03294,0.97844,-0.17983,2023,6,8,16,10,38,224
5.69750,3.18500,-4.88250,0.00000,0.03257,0.97795,-0.18215,2023,6,8,16,10,38,235
5.69760,3.06250,-4.55000,0.00000,0.03270,0.97856,-0.17971,2023,6,8,16,10,38,246
5.69770,2.94000,-4.79500,0.00000,0.03233,0.97746,-0.17958,2023,6,8,16,10,38,257
5.69780,3.20250,-4.83000,0.00000,0.03050,0.97624,-0.18276,2023,6,8,16,10,38,268
5.69790,2.99250,-4.81250,0.00000,0.03294,0.97527,-0.18178,2023,6,8,16,10,38,279
5.69800,3.13250,-4.84750,0.00000,0.03294,0.97820,-0.18251,2023,6,8,16,10,38,290
5.69810,2.97500,-4.56750,0.00000,0.03087,0.97832,-0.18239,2023,6,8,16,10,38,301
5.69820,3.04500,-4.48000,0.00000,0.03172,0.97563,-0.17958,2023,6,8,16,10,38,313
5.69830,3.09750,-4.67250,0.00000,0.03489,0.97807,-0.18239,2023,6,8,16,10,38,324
5.69840,2.99250,-4.72500,0.00000,0.03257,0.97588,-0.18080,2023,6,8,16,10,38,335
5.69850,2.97500,-4.69000,0.00000,0.03087,0.97783,-0.18263,2023,6,8,16,10,38,346
5.69860,2.99250,-4.55000,0.00000,0.03257,0.97734,-0.18129,2023,6,8,16,10,38,357
5.69870,2.88750,-4.58500,0.00000,0.03257,0.97881,-0.18459,2023,6,8,16,10,38,368
5.69880,2.90500,-4.83000,0.00000,0.03013,0.97881,-0.17666,2023,6,8,16,10,38,379
5.69890,3.06250,-4.60250,0.00000,0.03160,0.97551,-0.17910,2023,6,8,16,10,38,390
5.69900,3.06250,-4.63750,0.00000,0.03282,0.97771,-0.18068,2023,6,8,16,10,38,401
5.69910,2.95750,-4.49750,0.00000,0.03013,0.97844,-0.17995,2023,6,8,16,10,38,413
5.69920,2.94000,-4.58500,0.00000,0.03331,0.97515,-0.17885,2023,6,8,16,10,38,424
5.69930,2.90500,-4.76000,0.00000,0.03501,0.97722,-0.18117,2023,6,8,16,10,38,435
5.69940,2.90500,-4.58500,0.00000,0.03306,0.97527,-0.17995,2023,6,8,16,10,38,446
5.69950,3.15000,-4.91750,0.00000,0.03245,0.97576,-0.18032,2023,6,8,16,10,38,457
5.69960,2.94000,-4.74250,0.00000,0.03111,0.97771,-0.17885,2023,6,8,16,10,38,468
5.69970,2.90500,-4.79500,0.00000,0.03160,0.97734,-0.18044,2023,6,8,16,10,38,479
5.69980,2.85250,-4.74250,0.00000,0.03233,0.97563,-0.18044,2023,6,8,16,10,38,490
5.69990,3.06250,-4.60250,0.00000,0.02940,0.97832,-0.17995,2023,6,8,16,10,38,501
5.70000,2.97500,-4.42750,0.00000,0.03209,0.97673,-0.17763,2023,6,8,16,10,38,513
5.70010,2.92250,-4.60250,0.00000,0.03209,0.97454,-0.18080,2023,6,8,16,10,38,524
5.70020,3.02750,-4.76000,0.00000,0.03184,0.97551,-0.18007,2023,6,8,16,10,38,535
5.70030,2.76500,-4.60250,0.00000,0.03440,0.97722,-0.17873,2023,6,8,16,10,38,546
5.70040,3.04500,-4.72500,0.00000,0.03184,0.97856,-0.18068,2023,6,8,16,10,38,557
5.70050,3.18500,-4.77750,0.00000,0.03404,0.97624,-0.18019,2023,6,8,16,10,38,568
5.70060,3.04500,-4.56750,0.00000,0.03416,0.97820,-0.18056,2023,6,8,16,10,38,579
5.70070,2.99250,-4.77750,0.00000,0.03318,0.97893,-0.18154,2023,6,8,16,10,38,590
5.70080,3.02750,-4.60250,0.00000,0.03367,0.97563,-0.18154,2023,6,8,16,10,38,601
5.70090,2.99250,-4.70750,0.00000,0.03428,0.97710,-0.18019,2023,6,8,16,10,38,613
5.70100,2.99250,-4.67250,0.00000,0.03282,0.97807,-0.17812,2023,6,8,16,10,38,624
5.70110,3.06250,-4.48000,0.00000,0.03416,0.97734,-0.17946,2023,6,8,16,10,38,635
5.70120,2.99250,-4.41000,0.00000,0.03087,0.97698,-0.17836,2023,6,8,16,10,38,646
5.70130,3.20250,-4.65500,0.00000,0.03257,0.97929,-0.18007,2023,6,8,16,10,38,657
5.70140,3.09750,-4.76000,0.00000,0.02989,0.97844,-0.18202,2023,6,8,16,10,38,668
5.70150,2.88750,-4.44500,0.00000,0.03416,0.97759,-0.18324,2023,6,8,16,10,38,679
5.70160,2.83500,-4.74250,0.00000,0.03306,0.97685,-0.18129,2023,6,8,16,10,38,690
5.70170,3.02750,-4.62000,0.00000,0.03196,0.97832,-0.18093,2023,6,8,16,10,38,701
5.70180,2.99250,-4.65500,0.00000,0.03270,0.97441,-0.18080,2023,6,8,16,10,38,713
5.70190,2.83500,-4.56750,0.00000,0.03306,0.98003,-0.17690,2023,6,8,16,10,38,724
5.70200,3.08000,-4.63750,0.00000,0.03355,0.97685,-0.18129,2023,6,8,16,10,38,735
5.70210,3.13250,-4.74250,0.00000,0.03245,0.97881,-0.18324,2023,6,8,16,10,38,746
5.70220,3.04500,-4.65500,0.00000,0.03331,0.97661,-0.18080,2023,6,8,16,10,38,757
5.70230,3.11500,-4.95250,0.00000,0.03172,0.97454,-0.17910,2023,6,8,16,10,38,768
5.70240,2.88750,-4.74250,0.00000,0.03050,0.97844,-0.17983,2023,6,8,16,10,38,779
5.70250,3.23750,-4.70750,0.00000,0.03270,0.97844,-0.18019,2023,6,8,16,10,38,790
5.70260,3.01000,-4.88250,0.00000,0.03379,0.97795,-0.18019,2023,6,8,16,10,38,801
5.70270,2.85250,-4.70750,0.00000,0.03440,0.97563,-0.17958,2023,6,8,16,10,38,813
5.70280,3.02750,-4.70750,0.00000,0.03294,0.97710,-0.17934,2023,6,8,16,10,38,824
5.70290,3.01000,-4.58500,0.00000,0.03196,0.97588,-0.18154,2023,6,8,16,10,38,835
5.70300,2.99250,-4.53250,0.00000,0.03404,0.97673,-0.17849,2023,6,8,16,10,38,846
5.70310,2.88750,-4.70750,0.00000,0.03416,0.97917,-0.17897,2023,6,8,16,10,38,857
5.70320,3.06250,-4.69000,0.00000,0.03477,0.97929,-0.17922,2023,6,8,16,10,38,868
5.70330,2.87000,-4.53250,0.00000,0.03257,0.97844,-0.18007,2023,6,8,16,10,38,879
5.70340,3.18500,-4.77750,0.00000,0.03306,0.97661,-0.18019,2023,6,8,16,10,38,890
5.70350,3.08000,-4.79500,0.00000,0.03367,0.97661,-0.18105,2023,6,8,16,10,38,901
5.70360,2.95750,-4.79500,0.00000,0.03428,0.97649,-0.18032,2023,6,8,16,10,38,913
5.70370,3.08000,-4.77750,0.00000,0.03282,0.97881,-0.18080,2023,6,8,16,10,38,924
5.70380,2.97500,-4.69000,0.00000,0.03331,0.97637,-0.18141,2023,6,8,16,10,38,935
5.70390,3.02750,-4.58500,0.00000,0.03306,0.97710,-0.17958,2023,6,8,16,10,38,946
5.70400,2.90500,-4.83000,0.00000,0.03013,0.97795,-0.18202,2023,6,8,16,10,38,957
5.70410,3.18500,-4.83000,0.00000,0.03343,0.97673,-0.17983,2023,6,8,16,10,38,968
5.70420,2.92250,-4.95250,0.00000,0.03404,0.97685,-0.18166,2023,6,8,16,10,38,979
5.70430,3.01000,-4.67250,0.00000,0.03172,0.97759,-0.18056,2023,6,8,16,10,38,990
5.70440,2.80000,-4.49750,0.00000,0.03526,0.97832,-0.17995,2023,6,8,16,10,39,1
5.70450,2.95750,-4.69000,0.00000,0.03257,0.97759,-0.18007,2023,6,8,16,10,39,13
5.70460,3.04500,-4.70750,0.00000,0.02989,0.97539,-0.17995,2023,6,8,16,10,39,24
5.70470,2.94000,-4.58500,0.00000,0.03270,0.97539,-0.18227,2023,6,8,16,10,39,35
5.70480,3.01000,-4.63750,0.00000,0.03111,0.97563,-0.18007,2023,6,8,16,10,39,46
5.70490,2.97500,-4.49750,0.00000,0.03514,0.97649,-0.18154,2023,6,8,16,10,39,57
5.70500,3.01000,-4.62000,0.00000,0.03148,0.97966,-0.17897,2023,6,8,16,10,39,68
5.70510,3.06250,-4.77750,0.00000,0.03196,0.97783,-0.18056,2023,6,8,16,10,39,79
5.70520,2.88750,-4.62000,0.00000,0.03050,0.97637,-0.17983,2023,6,8,16,10,39,90
5.70530,3.13250,-4.67250,0.00000,0.03331,0.97929,-0.18044,2023,6,8,16,10,39,101
5.70540,2.97500,-4.60250,0.00000,0.03270,0.97844,-0.18154,2023,6,8,16,10,39,113
5.70550,3.08000,-4.74250,0.00000,0.03379,0.97734,-0.18032,2023,6,8,16,10,39,124
5.70560,2.88750,-4.62000,0.00000,0.03099,0.97637,-0.18166,2023,6,8,16,10,39,135
5.70570,2.94000,-4.53250,0.00000,0.03148,0.97771,-0.18007,2023,6,8,16,10,39,146
5.70580,2.94000,-4.60250,0.00000,0.03123,0.97710,-0.18044,2023,6,8,16,10,39,157
5.70590,2.97500,-4.56750,0.00000,0.03221,0.97722,-0.18251,2023,6,8,16,10,39,168
5.70600,2.71250,-4.62000,0.00000,0.03306,0.97734,-0.18141,2023,6,8,16,10,39,179
5.70610,3.09750,-4.62000,0.00000,0.03270,0.97734,-0.18117,2023,6,8,16,10,39,190
5.70620,2.62500,-4.65500,0.00000,0.03294,0.97759,-0.18337,2023,6,8,16,10,39,201
5.70630,2.87000,-4.62000,0.00000,0.03172,0.97673,-0.18410,2023,6,8,16,10,39,213
5.70640,3.06250,-4.86500,0.00000,0.03294,0.97868,-0.18385,2023,6,8,16,10,39,224
5.70650,2.87000,-4.83000,0.00000,0.03404,0.97710,-0.18215,2023,6,8,16,10,39,235
5.70660,3.09750,-4.81250,0.00000,0.03233,0.97746,-0.18263,2023,6,8,16,10,39,246
5.70670,3.11500,-4.77750,0.00000,0.03282,0.97710,-0.18080,2023,6,8,16,10,39,257
5.70680,3.02750,-4.60250,0.00000,0.03343,0.97734,-0.18105,2023,6,8,16,10,39,268
5.70690,2.90500,-4.48000,0.00000,0.03135,0.97783,-0.18093,2023,6,8,16,10,39,279
5.70700,2.83500,-4.58500,0.00000,0.03440,0.97624,-0.17983,2023,6,8,16,10,39,290
5.70710,3.25500,-4.72500,0.00000,0.03209,0.97466,-0.18007,2023,6,8,16,10,39,301
5.70720,2.95750,-4.74250,0.00000,0.03184,0.97832,-0.17971,2023,6,8,16,10,39,313
5.70730,3.06250,-4.55000,0.00000,0.03221,0.97661,-0.18373,2023,6,8,16,10,39,324
5.70740,3.09750,-4.56750,0.00000,0.03148,0.97795,-0.18117,2023,6,8,16,10,39,335
5.70750,2.88750,-4.70750,0.00000,0.03270,0.97905,-0.17897,2023,6,8,16,10,39,346
5.70760,3.01000,-4.58500,0.00000,0.03392,0.97942,-0.18032,2023,6,8,16,10,39,357
5.70770,2.99250,-4.63750,0.00000,0.03172,0.97746,-0.18251,2023,6,8,16,10,39,368
5.70780,3.08000,-4.76000,0.00000,0.03306,0.97576,-0.17946,2023,6,8,16,10,39,379
5.70790,2.95750,-4.65500,0.00000,0.03196,0.97600,-0.18007,2023,6,8,16,10,39,390
5.70800,2.78250,-4.42750,0.00000,0.03160,0.97722,-0.18190,2023,6,8,16,10,39,401
5.70810,2.97500,-4.62000,0.00000,0.03062,0.97685,-0.18080,2023,6,8,16,10,39,413
5.70820,2.94000,-4.51500,0.00000,0.03294,0.97661,-0.18141,2023,6,8,16,10,39,424
5.70830,2.99250,-4.79500,0.00000,0.03257,0.97637,-0.17958,2023,6,8,16,10,39,435
5.70840,2.85250,-4.63750,0.00000,0.03245,0.97600,-0.17849,2023,6,8,16,10,39,446
5.70850,3.04500,-4.63750,0.00000,0.03196,0.97795,-0.18227,2023,6,8,16,10,39,457
5.70860,3.04500,-4.77750,0.00000,0.03355,0.97917,-0.17995,2023,6,8,16,10,39,468
5.70870,2.97500,-4.62000,0.00000,0.03184,0.97527,-0.18093,2023,6,8,16,10,39,479
5.70880,2.95750,-4.74250,0.00000,0.03318,0.97722,-0.17971,2023,6,8,16,10,39,490
5.70890,2.95750,-4.58500,0.00000,0.03184,0.97759,-0.18080,2023,6,8,16,10,39,501
5.70900,3.02750,-4.74250,0.00000,0.03148,0.97624,-0.18056,2023,6,8,16,10,39,513
5.70910,2.97500,-4.83000,0.00000,0.03123,0.97746,-0.18166,2023,6,8,16,10,39,524
5.70920,2.90500,-4.46250,0.00000,0.03221,0.97734,-0.18044,2023,6,8,16,10,39,535
5.70930,2.97500,-4.63750,0.00000,0.03355,0.97771,-0.17873,2023,6,8,16,10,39,546
5.70940,2.83500,-4.79500,0.00000,0.03294,0.97820,-0.18056,2023,6,8,16,10,39,557
5.70950,3.16750,-4.76000,0.00000,0.03245,0.97746,-0.18056,2023,6,8,16,10,39,568
5.70960,2.85250,-4.69000,0.00000,0.03233,0.97783,-0.18166,2023,6,8,16,10,39,579
5.70970,2.85250,-4.55000,0.00000,0.03257,0.97600,-0.18178,2023,6,8,16,10,39,590
5.70980,2.92250,-4.81250,0.00000,0.03343,0.97563,-0.17849,2023,6,8,16,10,39,601
5.70990,2.81750,-4.74250,0.00000,0.03245,0.97771,-0.18178,2023,6,8,16,10,39,613
5.71000,2.71250,-4.32250,0.00000,0.03209,0.97661,-0.17800,2023,6,8,16,10,39,624
5.71010,2.87000,-4.60250,0.00000,0.03221,0.97563,-0.18178,2023,6,8,16,10,39,635
5.71020,3.04500,-4.69000,0.00000,0.03318,0.97929,-0.17897,2023,6,8,16,10,39,646
5.71030,3.06250,-4.63750,0.00000,0.03135,0.97685,-0.18227,2023,6,8,16,10,39,657
5.71040,2.95750,-4.70750,0.00000,0.03306,0.97710,-0.18105,2023,6,8,16,10,39,668
5.71050,3.06250,-4.91750,0.00000,0.03196,0.97844,-0.18019,2023,6,8,16,10,39,679
5.71060,2.94000,-4.83000,0.00000,0.03172,0.97417,-0.18227,2023,6,8,16,10,39,690
5.71070,3.09750,-4.76000,0.00000,0.03184,0.97673,-0.18190,2023,6,8,16,10,39,701
5.71080,3.09750,-4.67250,0.00000,0.03038,0.97759,-0.18007,2023,6,8,16,10,39,713
5.71090,2.94000,-4.60250,0.00000,0.03331,0.97856,-0.18227,2023,6,8,16,10,39,724
5.71100,3.01000,-4.69000,0.00000,0.03318,0.97637,-0.18324,2023,6,8,16,10,39,735
5.71110,2.99250,-4.58500,0.00000,0.03282,0.97990,-0.17971,2023,6,8,16,10,39,746
5.71120,2.85250,-4.65500,0.00000,0.03209,0.97954,-0.17946,2023,6,8,16,10,39,757
5.71130,3.06250,-4.63750,0.00000,0.03123,0.97563,-0.17983,2023,6,8,16,10,39,768
5.71140,3.04500,-4.76000,0.00000,0.03318,0.97746,-0.18105,2023,6,8,16,10,39,779
5.71150,3.01000,-4.51500,0.00000,0.03306,0.97710,-0.18080,2023,6,8,16,10,39,790
5.71160,3.18500,-4.67250,0.00000,0.03440,0.97588,-0.18019,2023,6,8,16,10,39,801
5.71170,2.87000,-4.74250,0.00000,0.03294,0.97771,-0.18105,2023,6,8,16,10,39,813
5.71180,3.08000,-4.53250,0.00000,0.03172,0.97576,-0.17836,2023,6,8,16,10,39,824
5.71190,3.16750,-4.81250,0.00000,0.03209,0.97698,-0.18019,2023,6,8,16,10,39,835
5.71200,3.04500,-4.60250,0.00000,0.03294,0.97722,-0.18166,2023,6,8,16,10,39,846
5.71210,3.06250,-4.74250,0.00000,0.03221,0.97649,-0.18007,2023,6,8,16,10,39,857
5.71220,3.06250,-4.83000,0.00000,0.03209,0.97783,-0.17995,2023,6,8,16,10,39,868
5.71230,3.13250,-4.77750,0.00000,0.03245,0.97624,-0.17971,2023,6,8,16,10,39,879
5.71240,2.88750,-4.60250,0.00000,0.03257,0.97600,-0.17958,2023,6,8,16,10,39,890
5.71250,2.99250,-4.95250,0.00000,0.03331,0.97600,-0.18129,2023,6,8,16,10,39,901
5.71260,3.18500,-4.79500,0.00000,0.03294,0.97612,-0.18129,2023,6,8,16,10,39,913
5.71270,2.92250,-4.70750,0.00000,0.03172,0.97868,-0.18141,2023,6,8,16,10,39,924
5.71280,2.92250,-4.81250,0.00000,0.03196,0.97856,-0.17861,2023,6,8,16,10,39,935
5.71290,2.90500,-4.63750,0.00000,0.03196,0.97783,-0.17971,2023,6,8,16,10,39,946
5.71300,2.88750,-4.62000,0.00000,0.03343,0.97954,-0.18239,2023,6,8,16,10,39,957
5.71310,3.01000,-4.76000,0.00000,0.03233,0.97820,-0.17995,2023,6,8,16,10,39,968
5.71320,2.97500,-4.63750,0.00000,0.03148,0.97966,-0.17995,2023,6,8,16,10,40,9
5.71330,3.01000,-4.62000,0.00000,0.03453,0.97612,-0.18190,2023,6,8,16,10,40,20
5.71340,3.01000,-4.42750,0.00000,0.03331,0.97917,-0.18239,2023,6,8,16,10,40,31
5.71350,2.95750,-4.49750,0.00000,0.03318,0.97759,-0.18227,2023,6,8,16,10,40,43
5.71360,3.08000,-4.56750,0.00000,0.03306,0.97881,-0.18068,2023,6,8,16,10,40,54
5.71370,3.11500,-4.77750,0.00000,0.03209,0.97441,-0.18410,2023,6,8,16,10,40,65
5.71380,2.97500,-4.69000,0.00000,0.03282,0.97795,-0.18117,2023,6,8,16,10,40,76
5.71390,2.95750,-4.76000,0.00000,0.03172,0.97649,-0.18202,2023,6,8,16,10,40,87
5.71400,3.01000,-4.63750,0.00000,0.03209,0.97490,-0.18154,2023,6,8,16,10,40,98
5.71410,2.81750,-4.79500,0.00000,0.03282,0.97868,-0.18105,2023,6,8,16,10,40,109
5.71420,2.87000,-4.58500,0.00000,0.03318,0.97649,-0.18166,2023,6,8,16,10,40,120
5.71430,2.99250,-4.65500,0.00000,0.03148,0.97661,-0.18459,2023,6,8,16,10,40,131
5.71440,3.02750,-4.81250,0.00000,0.03123,0.97563,-0.18349,2023,6,8,16,10,40,143
5.71450,2.95750,-4.77750,0.00000,0.03196,0.97881,-0.18154,2023,6,8,16,10,40,154
5.71460,3.01000,-4.74250,0.00000,0.03148,0.97490,-0.18178,2023,6,8,16,10,40,165
5.71470,3.06250,-4.86500,0.00000,0.03343,0.97807,-0.18190,2023,6,8,16,10,40,176
5.71480,3.13250,-4.49750,0.00000,0.03221,0.97600,-0.18166,2023,6,8,16,10,40,187
5.71490,3.13250,-4.70750,0.00000,0.03294,0.97820,-0.18166,2023,6,8,16,10,40,198
5.71500,2.90500,-4.62000,0.00000,0.03038,0.97795,-0.18105,2023,6,8,16,10,40,209
5.71510,3.04500,-4.44500,0.00000,0.03087,0.97685,-0.18056,2023,6,8,16,10,40,220
5.71520,2.90500,-4.67250,0.00000,0.03355,0.97393,-0.18129,2023,6,8,16,10,40,231
5.71530,2.88750,-4.74250,0.00000,0.03331,0.97734,-0.18202,2023,6,8,16,10,40,243
5.71540,3.08000,-4.55000,0.00000,0.03404,0.97673,-0.18056,2023,6,8,16,10,40,254
5.71550,2.83500,-4.69000,0.00000,0.03221,0.97820,-0.18044,2023,6,8,16,10,40,265
5.71560,2.92250,-4.65500,0.00000,0.03282,0.97759,-0.18178,2023,6,8,16,10,40,276
5.71570,3.08000,-4.72500,0.00000,0.03099,0.97551,-0.17983,2023,6,8,16,10,40,287
5.71580,2.73000,-4.56750,0.00000,0.03355,0.97722,-0.17995,2023,6,8,16,10,40,298
5.71590,3.09750,-4.49750,0.00000,0.03367,0.97722,-0.18141,2023,6,8,16,10,40,309
5.71600,3.01000,-4.63750,0.00000,0.03160,0.97844,-0.18080,2023,6,8,16,10,40,320
5.71610,2.95750,-4.60250,0.00000,0.03355,0.97612,-0.18141,2023,6,8,16,10,40,331
5.71620,2.76500,-4.51500,0.00000,0.03196,0.97710,-0.17897,2023,6,8,16,10,40,343
5.71630,2.88750,-4.81250,0.00000,0.03306,0.97649,-0.17958,2023,6,8,16,10,40,354
5.71640,2.80000,-4.63750,0.00000,0.03306,0.97685,-0.17946,2023,6,8,16,10,40,365
5.71650,3.08000,-4.76000,0.00000,0.03331,0.97649,-0.18068,2023,6,8,16,10,40,376
5.71660,2.99250,-4.83000,0.00000,0.03379,0.97795,-0.17873,2023,6,8,16,10,40,387
5.71670,2.87000,-4.79500,0.00000,0.03099,0.97820,-0.18105,2023,6,8,16,10,40,398
5.71680,2.88750,-4.79500,0.00000,0.02916,0.97515,-0.18007,2023,6,8,16,10,40,409
5.71690,3.04500,-4.53250,0.00000,0.03233,0.97771,-0.17885,2023,6,8,16,10,40,420
5.71700,2.83500,-4.62000,0.00000,0.03440,0.97978,-0.18215,2023,6,8,16,10,40,431
5.71710,2.94000,-4.72500,0.00000,0.03221,0.97746,-0.17934,2023,6,8,16,10,40,443
5.71720,2.99250,-4.69000,0.00000,0.03379,0.97905,-0.18068,2023,6,8,16,10,40,454
5.71730,2.87000,-4.56750,0.00000,0.03233,0.97844,-0.17983,2023,6,8,16,10,40,465
5.71740,2.85250,-4.84750,0.00000,0.03233,0.97649,-0.17897,2023,6,8,16,10,40,476
5.71750,2.94000,-4.63750,0.00000,0.03245,0.97771,-0.18093,2023,6,8,16,10,40,487
5.71760,2.99250,-4.65500,0.00000,0.03306,0.97734,-0.17897,2023,6,8,16,10,40,498
5.71770,2.97500,-4.65500,0.00000,0.03392,0.97771,-0.18032,2023,6,8,16,10,40,509
5.71780,3.09750,-4.63750,0.00000,0.03172,0.97771,-0.18215,2023,6,8,16,10,40,520
5.71790,2.95750,-4.76000,0.00000,0.03440,0.97795,-0.17873,2023,6,8,16,10,40,531
5.71800,3.08000,-4.51500,0.00000,0.03221,0.97856,-0.17958,2023,6,8,16,10,40,543
5.71810,3.08000,-4.70750,0.00000,0.03270,0.97942,-0.18166,2023,6,8,16,10,40,554
5.71820,3.16750,-4.60250,0.00000,0.03221,0.97795,-0.17983,2023,6,8,16,10,40,565
5.71830,2.99250,-4.46250,0.00000,0.03209,0.97905,-0.18190,2023,6,8,16,10,40,576
5.71840,2.90500,-4.53250,0.00000,0.03160,0.97600,-0.18032,2023,6,8,16,10,40,587
5.71850,2.95750,-4.72500,0.00000,0.03355,0.97588,-0.18117,2023,6,8,16,10,40,598
5.71860,2.95750,-4.81250,0.00000,0.03306,0.97734,-0.17971,2023,6,8,16,10,40,609
5.71870,3.08000,-4.79500,0.00000,0.03209,0.97661,-0.17995,2023,6,8,16,10,40,620
5.71880,2.94000,-4.65500,0.00000,0.03562,0.97771,-0.18129,2023,6,8,16,10,40,631
5.71890,2.99250,-4.67250,0.00000,0.03184,0.97417,-0.17983,2023,6,8,16,10,40,643
5.71900,2.97500,-4.62000,0.00000,0.03221,0.97771,-0.17861,2023,6,8,16,10,40,654
5.71910,3.11500,-4.51500,0.00000,0.03050,0.97746,-0.18154,2023,6,8,16,10,40,665
5.71920,2.92250,-4.69000,0.00000,0.03270,0.97795,-0.18129,2023,6,8,16,10,40,676
5.71930,3.01000,-4.70750,0.00000,0.03306,0.97795,-0.18141,2023,6,8,16,10,40,687
5.71940,2.99250,-4.67250,0.00000,0.03343,0.97637,-0.17958,2023,6,8,16,10,40,698
5.71950,3.04500,-4.91750,0.00000,0.03270,0.97832,-0.17971,2023,6,8,16,10,40,709
5.71960,2.88750,-4.63750,0.00000,0.03331,0.97673,-0.17873,2023,6,8,16,10,40,720
5.71970,2.99250,-4.62000,0.00000,0.03196,0.97881,-0.17836,2023,6,8,16,10,40,731
5.71980,2.94000,-4.86500,0.00000,0.03331,0.97746,-0.18105,2023,6,8,16,10,40,743
5.71990,2.88750,-4.70750,0.00000,0.03367,0.97795,-0.18007,2023,6,8,16,10,40,754
5.72000,2.81750,-4.62000,0.00000,0.03221,0.97746,-0.17812,2023,6,8,16,10,40,765
5.72010,2.94000,-4.49750,0.00000,0.03257,0.97661,-0.18068,2023,6,8,16,10,40,776
5.72020,2.92250,-4.56750,0.00000,0.03184,0.97624,-0.17861,2023,6,8,16,10,40,787
5.72030,2.92250,-4.65500,0.00000,0.03172,0.97563,-0.17934,2023,6,8,16,10,40,798
5.72040,3.08000,-4.72500,0.00000,0.03440,0.97893,-0.17836,2023,6,8,16,10,40,809
5.72050,2.87000,-4.48000,0.00000,0.03355,0.97466,-0.18019,2023,6,8,16,10,40,820
5.72060,3.01000,-4.79500,0.00000,0.03233,0.97698,-0.17861,2023,6,8,16,10,40,831
5.72070,2.95750,-4.56750,0.00000,0.03270,0.97893,-0.18056,2023,6,8,16,10,40,843
5.72080,3.02750,-4.58500,0.00000,0.03245,0.97820,-0.18032,2023,6,8,16,10,40,854
5.72090,2.85250,-4.58500,0.00000,0.03257,0.97600,-0.17812,2023,6,8,16,10,40,865
5.72100,2.83500,-4.55000,0.00000,0.03294,0.97612,-0.17885,2023,6,8,16,10,40,876
5.72110,2.78250,-4.72500,0.00000,0.03404,0.97771,-0.18093,2023,6,8,16,10,40,887
5.72120,3.16750,-4.70750,0.00000,0.03453,0.97771,-0.18141,2023,6,8,16,10,40,898
5.72130,3.11500,-4.76000,0.00000,0.03257,0.97661,-0.18190,2023,6,8,16,10,40,909
5.72140,3.09750,-4.74250,0.00000,0.03270,0.97710,-0.18227,2023,6,8,16,10,40,920
5.72150,3.04500,-4.79500,0.00000,0.03111,0.97417,-0.18154,2023,6,8,16,10,40,931
5.72160,3.08000,-4.69000,0.00000,0.03306,0.97429,-0.18105,2023,6,8,16,10,40,943
5.72170,2.92250,-4.74250,0.00000,0.03465,0.97978,-0.18019,2023,6,8,16,10,40,954
5.72180,2.97500,-4.74250,0.00000,0.03148,0.97795,-0.18007,2023,6,8,16,10,40,965
5.72190,2.90500,-4.74250,0.00000,0.03343,0.97515,-0.17824,2023,6,8,16,10,40,976
5.72200,3.01000,-4.65500,0.00000,0.03209,0.97795,-0.17812,2023,6,8,16,10,40,987
5.72210,2.97500,-4.74250,0.00000,0.03489,0.97624,-0.18117,2023,6,8,16,10,41,8
5.72220,3.11500,-4.60250,0.00000,0.03148,0.97832,-0.17983,2023,6,8,16,10,41,19
5.72230,2.95750,-4.65500,0.00000,0.03245,0.97649,-0.17983,2023,6,8,16,10,41,30
5.72240,2.97500,-4.63750,0.00000,0.03257,0.97783,-0.17836,2023,6,8,16,10,41,41
5.72250,2.97500,-4.79500,0.00000,0.03233,0.97527,-0.18105,2023,6,8,16,10,41,53
5.72260,3.15000,-4.74250,0.00000,0.03184,0.97600,-0.17971,2023,6,8,16,10,41,64
5.72270,3.01000,-4.48000,0.00000,0.03233,0.97515,-0.18080,2023,6,8,16,10,41,75
5.72280,2.97500,-4.60250,0.00000,0.03245,0.97746,-0.18105,2023,6,8,16,10,41,86
5.72290,2.94000,-4.72500,0.00000,0.03306,0.97637,-0.18141,2023,6,8,16,10,41,97
5.72300,3.15000,-4.76000,0.00000,0.03001,0.97637,-0.17678,2023,6,8,16,10,41,108
5.72310,3.06250,-4.63750,0.00000,0.03172,0.97783,-0.18154,2023,6,8,16,10,41,119
5.72320,3.08000,-4.55000,0.00000,0.03318,0.97588,-0.17824,2023,6,8,16,10,41,130
5.72330,2.94000,-4.51500,0.00000,0.03245,0.97771,-0.18154,2023,6,8,16,10,41,141
5.72340,2.95750,-4.62000,0.00000,0.03282,0.97746,-0.17958,2023,6,8,16,10,41,153
5.72350,2.88750,-4.69000,0.00000,0.03160,0.97502,-0.17897,2023,6,8,16,10,41,164
5.72360,2.90500,-4.56750,0.00000,0.02952,0.97881,-0.18105,2023,6,8,16,10,41,175
5.72370,3.01000,-4.83000,0.00000,0.03428,0.97832,-0.18056,2023,6,8,16,10,41,186
5.72380,3.04500,-4.76000,0.00000,0.03209,0.97698,-0.18032,2023,6,8,16,10,41,197
5.72390,2.94000,-4.69000,0.00000,0.03318,0.97710,-0.17788,2023,6,8,16,10,41,208
5.72400,3.02750,-4.49750,0.00000,0.03172,0.97698,-0.18129,2023,6,8,16,10,41,219
5.72410,2.95750,-4.35750,0.00000,0.03294,0.97685,-0.18263,2023,6,8,16,10,41,230
5.72420,2.94000,-4.70750,0.00000,0.03135,0.97649,-0.17934,2023,6,8,16,10,41,241
5.72430,2.81750,-4.69000,0.00000,0.03489,0.97612,-0.17995,2023,6,8,16,10,41,253
5.72440,2.99250,-4.49750,0.00000,0.03270,0.97637,-0.18178,2023,6,8,16,10,41,264
5.72450,3.04500,-4.69000,0.00000,0.03245,0.97759,-0.17861,2023,6,8,16,10,41,275
5.72460,3.04500,-4.56750,0.00000,0.03331,0.97551,-0.17910,2023,6,8,16,10,41,286
5.72470,2.92250,-4.62000,0.00000,0.03209,0.97698,-0.18105,2023,6,8,16,10,41,297
5.72480,3.04500,-4.74250,0.00000,0.03282,0.97771,-0.17983,2023,6,8,16,10,41,308
5.72490,2.81750,-4.56750,0.00000,0.03343,0.97673,-0.17910,2023,6,8,16,10,41,319
5.72500,2.90500,-4.55000,0.00000,0.03392,0.97893,-0.18007,2023,6,8,16,10,41,330
5.72510,2.94000,-4.70750,0.00000,0.03318,0.97551,-0.17873,2023,6,8,16,10,41,341
5.72520,3.02750,-4.56750,0.00000,0.03050,0.97807,-0.17971,2023,6,8,16,10,41,353
5.72530,3.06250,-4.81250,0.00000,0.03318,0.97685,-0.18056,2023,6,8,16,10,41,364
5.72540,2.92250,-4.74250,0.00000,0.03013,0.97917,-0.17922,2023,6,8,16,10,41,375
5.72550,3.04500,-4.60250,0.00000,0.03404,0.97771,-0.18007,2023,6,8,16,10,41,386
5.72560,2.97500,-4.67250,0.00000,0.02977,0.97588,-0.17788,2023,6,8,16,10,41,397
5.72570,2.81750,-4.70750,0.00000,0.03355,0.97710,-0.17958,2023,6,8,16,10,41,408
5.72580,2.85250,-4.60250,0.00000,0.03294,0.97820,-0.17922,2023,6,8,16,10,41,419
5.72590,2.90500,-4.69000,0.00000,0.03270,0.97795,-0.17995,2023,6,8,16,10,41,430
5.72600,2.88750,-4.67250,0.00000,0.03209,0.97820,-0.17995,2023,6,8,16,10,41,441
5.72610,2.95750,-4.70750,0.00000,0.03270,0.97698,-0.17873,2023,6,8,16,10,41,453
5.72620,2.87000,-4.70750,0.00000,0.03355,0.97905,-0.17824,2023,6,8,16,10,41,464
5.72630,2.94000,-4.51500,0.00000,0.03306,0.97783,-0.17946,2023,6,8,16,10,41,475
5.72640,3.06250,-4.49750,0.00000,0.03184,0.97624,-0.18019,2023,6,8,16,10,41,486
5.72650,2.92250,-4.67250,0.00000,0.03233,0.97710,-0.17971,2023,6,8,16,10,41,497
5.72660,3.11500,-4.83000,0.00000,0.03233,0.97685,-0.18227,2023,6,8,16,10,41,508
5.72670,3.06250,-4.60250,0.00000,0.03343,0.97563,-0.18154,2023,6,8,16,10,41,519
5.72680,3.02750,-4.62000,0.00000,0.03343,0.97807,-0.17910,2023,6,8,16,10,41,530
5.72690,2.94000,-4.60250,0.00000,0.03379,0.97990,-0.18105,2023,6,8,16,10,41,541
5.72700,3.09750,-4.62000,0.00000,0.03257,0.97624,-0.18141,2023,6,8,16,10,41,553
5.72710,3.09750,-4.63750,0.00000,0.03404,0.97795,-0.18093,2023,6,8,16,10,41,564
5.72720,2.85250,-4.55000,0.00000,0.03135,0.97600,-0.18276,2023,6,8,16,10,41,575
5.72730,3.15000,-4.46250,0.00000,0.03355,0.97881,-0.17983,2023,6,8,16,10,41,586
5.72740,2.90500,-4.56750,0.00000,0.03379,0.97685,-0.18007,2023,6,8,16,10,41,597
5.72750,2.99250,-4.72500,0.00000,0.03196,0.97612,-0.18166,2023,6,8,16,10,41,608
5.72760,2.85250,-4.62000,0.00000,0.03184,0.97844,-0.17861,2023,6,8,16,10,41,619
5.72770,2.95750,-4.48000,0.00000,0.03379,0.97612,-0.18178,2023,6,8,16,10,41,630
5.72780,2.95750,-4.48000,0.00000,0.03355,0.97710,-0.18129,2023,6,8,16,10,41,641
5.72790,3.02750,-4.55000,0.00000,0.03404,0.97820,-0.17958,2023,6,8,16,10,41,653
5.72800,2.97500,-4.76000,0.00000,0.03111,0.97466,-0.18019,2023,6,8,16,10,41,664
5.72810,2.95750,-4.55000,0.00000,0.03404,0.97832,-0.17946,2023,6,8,16,10,41,675
5.72820,3.04500,-4.63750,0.00000,0.03379,0.97673,-0.17910,2023,6,8,16,10,41,686
5.72830,2.94000,-4.67250,0.00000,0.03233,0.97795,-0.18288,2023,6,8,16,10,41,697
5.72840,2.85250,-4.69000,0.00000,0.03587,0.97722,-0.18276,2023,6,8,16,10,41,708
5.72850,3.11500,-4.72500,0.00000,0.03209,0.97698,-0.18056,2023,6,8,16,10,41,719
5.72860,3.16750,-4.62000,0.00000,0.03209,0.98039,-0.18141,2023,6,8,16,10,41,730
5.72870,2.85250,-4.74250,0.00000,0.03087,0.97807,-0.18068,2023,6,8,16,10,41,741
5.72880,2.97500,-4.81250,0.00000,0.03270,0.97832,-0.18080,2023,6,8,16,10,41,753
5.72890,3.08000,-4.37500,0.00000,0.03331,0.97905,-0.18044,2023,6,8,16,10,41,764
5.72900,3.06250,-4.60250,0.00000,0.03111,0.97563,-0.18007,2023,6,8,16,10,41,775
5.72910,3.01000,-4.77750,0.00000,0.03270,0.97685,-0.17946,2023,6,8,16,10,41,786
5.72920,3.08000,-4.83000,0.00000,0.03209,0.97734,-0.17812,2023,6,8,16,10,41,797
5.72930,3.16750,-4.56750,0.00000,0.03221,0.97807,-0.18032,2023,6,8,16,10,41,808
5.72940,2.92250,-4.63750,0.00000,0.03221,0.97820,-0.17897,2023,6,8,16,10,41,819
5.72950,3.15000,-4.83000,0.00000,0.03196,0.97734,-0.17983,2023,6,8,16,10,41,830
5.72960,3.04500,-4.48000,0.00000,0.03111,0.97539,-0.18007,2023,6,8,16,10,41,841
5.72970,2.99250,-4.67250,0.00000,0.03270,0.97856,-0.18202,2023,6,8,16,10,41,853
5.72980,3.02750,-4.67250,0.00000,0.03233,0.97771,-0.18080,2023,6,8,16,10,41,864
5.72990,2.95750,-4.72500,0.00000,0.03367,0.97868,-0.17800,2023,6,8,16,10,41,875
5.73000,3.06250,-4.72500,0.00000,0.03355,0.97649,-0.18300,2023,6,8,16,10,41,886
5.73010,2.78250,-4.58500,0.00000,0.03233,0.97368,-0.17971,2023,6,8,16,10,41,897
5.73020,3.04500,-4.63750,0.00000,0.03221,0.97576,-0.18044,2023,6,8,16,10,41,908
5.73030,3.01000,-4.56750,0.00000,0.03306,0.97698,-0.18141,2023,6,8,16,10,41,919
5.73040,2.90500,-4.42750,0.00000,0.03294,0.97637,-0.17763,2023,6,8,16,10,41,930
5.73050,3.18500,-4.83000,0.00000,0.03270,0.97649,-0.18373,2023,6,8,16,10,41,941
5.73060,2.97500,-4.56750,0.00000,0.03367,0.97978,-0.17739,2023,6,8,16,10,41,953
5.73070,2.88750,-4.60250,0.00000,0.03123,0.97588,-0.17958,2023,6,8,16,10,41,964
5.73080,2.90500,-4.51500,0.00000,0.03050,0.97441,-0.18019,2023,6,8,16,10,41,975
5.73090,3.09750,-4.58500,0.00000,0.03318,0.97820,-0.18154,2023,6,8,16,10,41,986
5.73100,2.67750,-4.72500,0.00000,0.03038,0.97661,-0.17946,2023,6,8,16,10,41,997
5.73110,3.09750,-4.83000,0.00000,0.03331,0.97722,-0.18056,2023,6,8,16,10,42,8
5.73120,2.92250,-4.60250,0.00000,0.03257,0.97868,-0.17897,2023,6,8,16,10,42,19
5.73130,2.97500,-4.53250,0.00000,0.03245,0.97685,-0.18288,2023,6,8,16,10,42,30
5.73140,2.97500,-4.69000,0.00000,0.03148,0.97807,-0.18227,2023,6,8,16,10,42,41
5.73150,2.90500,-4.51500,0.00000,0.03477,0.97978,-0.18251,2023,6,8,16,10,42,53
5.73160,2.99250,-4.62000,0.00000,0.03294,0.97820,-0.18044,2023,6,8,16,10,42,64
5.73170,2.92250,-4.81250,0.00000,0.03392,0.97734,-0.17971,2023,6,8,16,10,42,75
5.73180,2.95750,-4.49750,0.00000,0.03111,0.97685,-0.18093,2023,6,8,16,10,42,86
5.73190,2.94000,-4.55000,0.00000,0.03233,0.97576,-0.17995,2023,6,8,16,10,42,97
5.73200,2.85250,-4.46250,0.00000,0.03135,0.97722,-0.18117,2023,6,8,16,10,42,108
5.73210,2.78250,-4.65500,0.00000,0.03477,0.97539,-0.17800,2023,6,8,16,10,42,119
5.73220,3.20250,-4.63750,0.00000,0.03184,0.97527,-0.17995,2023,6,8,16,10,42,130
5.73230,2.95750,-4.69000,0.00000,0.03209,0.97807,-0.18117,2023,6,8,16,10,42,141
5.73240,2.87000,-4.72500,0.00000,0.03099,0.97795,-0.17800,2023,6,8,16,10,42,153
5.73250,3.08000,-4.81250,0.00000,0.03233,0.97990,-0.17788,2023,6,8,16,10,42,164
5.73260,3.18500,-4.95250,0.00000,0.03270,0.97588,-0.18141,2023,6,8,16,10,42,175
5.73270,3.22000,-4.74250,0.00000,0.03318,0.97515,-0.17873,2023,6,8,16,10,42,186
5.73280,2.87000,-4.65500,0.00000,0.03343,0.97917,-0.18129,2023,6,8,16,10,42,197
5.73290,2.92250,-4.62000,0.00000,0.03282,0.97710,-0.17690,2023,6,8,16,10,42,208
5.73300,2.85250,-4.53250,0.00000,0.03306,0.97380,-0.17971,2023,6,8,16,10,42,219
5.73310,2.97500,-4.44500,0.00000,0.03123,0.97844,-0.18141,2023,6,8,16,10,42,230
5.73320,2.80000,-4.53250,0.00000,0.03318,0.97783,-0.18056,2023,6,8,16,10,42,241
5.73330,2.88750,-4.77750,0.00000,0.03318,0.97624,-0.17995,2023,6,8,16,10,42,253
5.73340,3.11500,-4.84750,0.00000,0.03477,0.97759,-0.17873,2023,6,8,16,10,42,264
5.73350,3.13250,-4.77750,0.00000,0.03233,0.97893,-0.17836,2023,6,8,16,10,42,275
5.73360,2.90500,-4.86500,0.00000,0.03318,0.97710,-0.17849,2023,6,8,16,10,42,286
5.73370,2.95750,-4.62000,0.00000,0.03148,0.97637,-0.18044,2023,6,8,16,10,42,297
5.73380,3.16750,-4.51500,0.00000,0.03282,0.97563,-0.17849,2023,6,8,16,10,42,308
5.73390,2.90500,-4.69000,0.00000,0.02916,0.97820,-0.17910,2023,6,8,16,10,42,319
5.73400,3.02750,-4.93500,0.00000,0.03343,0.97881,-0.17885,2023,6,8,16,10,42,330
5.73410,3.15000,-4.60250,0.00000,0.03465,0.97795,-0.17922,2023,6,8,16,10,42,341
5.73420,3.02750,-4.56750,0.00000,0.03392,0.97673,-0.17934,2023,6,8,16,10,42,353
5.73430,3.04500,-4.70750,0.00000,0.03209,0.97624,-0.17897,2023,6,8,16,10,42,364
5.73440,3.11500,-4.72500,0.00000,0.03343,0.97795,-0.17983,2023,6,8,16,10,42,375
5.73450,2.95750,-4.67250,0.00000,0.03477,0.97759,-0.18166,2023,6,8,16,10,42,386
5.73460,2.88750,-4.76000,0.00000,0.03367,0.97807,-0.17739,2023,6,8,16,10,42,397
5.73470,2.90500,-4.41000,0.00000,0.03465,0.97917,-0.17800,2023,6,8,16,10,42,408
5.73480,2.95750,-4.65500,0.00000,0.03294,0.97588,-0.17983,2023,6,8,16,10,42,419
5.73490,3.08000,-4.77750,0.00000,0.03318,0.97515,-0.18239,2023,6,8,16,10,42,430
5.73500,2.90500,-4.76000,0.00000,0.03148,0.97539,-0.18093,2023,6,8,16,10,42,441
5.73510,2.99250,-4.81250,0.00000,0.03355,0.97649,-0.17922,2023,6,8,16,10,42,453
5.73520,3.01000,-4.67250,0.00000,0.03343,0.97905,-0.17739,2023,6,8,16,10,42,464
5.73530,3.04500,-4.56750,0.00000,0.03270,0.97844,-0.18093,2023,6,8,16,10,42,475
5.73540,2.81750,-4.56750,0.00000,0.03257,0.97771,-0.17922,2023,6,8,16,10,42,486
5.73550,2.97500,-4.56750,0.00000,0.03318,0.97771,-0.17812,2023,6,8,16,10,42,497
5.73560,3.15000,-4.65500,0.00000,0.03428,0.97698,-0.17971,2023,6,8,16,10,42,508
5.73570,3.15000,-4.70750,0.00000,0.03123,0.97685,-0.17971,2023,6,8,16,10,42,519
5.73580,2.94000,-4.70750,0.00000,0.03257,0.97942,-0.18007,2023,6,8,16,10,42,530
5.73590,2.94000,-4.53250,0.00000,0.03514,0.97637,-0.17861,2023,6,8,16,10,42,541
5.73600,2.83500,-4.74250,0.00000,0.03440,0.97624,-0.18093,2023,6,8,16,10,42,553
5.73610,3.18500,-4.81250,0.00000,0.03453,0.97795,-0.17946,2023,6,8,16,10,42,564
5.73620,2.85250,-4.70750,0.00000,0.03087,0.97807,-0.18056,2023,6,8,16,10,42,575
5.73630,2.97500,-4.55000,0.00000,0.03233,0.97551,-0.18032,2023,6,8,16,10,42,586
5.73640,3.18500,-4.63750,0.00000,0.03416,0.97832,-0.17580,2023,6,8,16,10,42,597
5.73650,3.01000,-4.77750,0.00000,0.03184,0.97698,-0.17812,2023,6,8,16,10,42,608
5.73660,3.11500,-4.69000,0.00000,0.03209,0.97905,-0.17983,2023,6,8,16,10,42,619
5.73670,2.95750,-4.49750,0.00000,0.03074,0.97710,-0.18080,2023,6,8,16,10,42,630
5.73680,2.99250,-4.49750,0.00000,0.03038,0.97624,-0.17995,2023,6,8,16,10,42,641
5.73690,2.85250,-4.70750,0.00000,0.03392,0.97795,-0.17897,2023,6,8,16,10,42,653
5.73700,2.95750,-4.60250,0.00000,0.03294,0.97868,-0.17678,2023,6,8,16,10,42,664
5.73710,2.90500,-4.41000,0.00000,0.03221,0.97539,-0.17873,2023,6,8,16,10,42,675
5.73720,2.73000,-4.58500,0.00000,0.03318,0.97844,-0.17934,2023,6,8,16,10,42,686
5.73730,3.04500,-4.81250,0.00000,0.03221,0.97807,-0.18080,2023,6,8,16,10,42,697
5.73740,3.27250,-4.76000,0.00000,0.03331,0.97685,-0.17983,2023,6,8,16,10,42,708
5.73750,2.95750,-4.67250,0.00000,0.03282,0.97759,-0.17861,2023,6,8,16,10,42,719
5.73760,3.08000,-4.69000,0.00000,0.03318,0.97563,-0.17934,2023,6,8,16,10,42,730
5.73770,2.92250,-4.62000,0.00000,0.03074,0.97820,-0.17861,2023,6,8,16,10,42,741
5.73780,2.90500,-4.53250,0.00000,0.03209,0.97746,-0.17763,2023,6,8,16,10,42,753
5.73790,3.02750,-4.84750,0.00000,0.03111,0.97807,-0.17971,2023,6,8,16,10,42,764
5.73800,2.88750,-4.56750,0.00000,0.03306,0.97844,-0.17983,2023,6,8,16,10,42,775
5.73810,2.78250,-4.72500,0.00000,0.03026,0.97746,-0.17775,2023,6,8,16,10,42,786
5.73820,2.95750,-4.67250,0.00000,0.03184,0.97893,-0.17605,2023,6,8,16,10,42,797
5.73830,2.94000,-4.53250,0.00000,0.03306,0.97576,-0.17910,2023,6,8,16,10,42,808
5.73840,3.04500,-4.86500,0.00000,0.03355,0.97685,-0.17641,2023,6,8,16,10,42,819
5.73850,2.95750,-4.72500,0.00000,0.03501,0.97856,-0.17702,2023,6,8,16,10,42,830
5.73860,2.85250,-4.46250,0.00000,0.03343,0.97795,-0.17751,2023,6,8,16,10,42,841
5.73870,2.90500,-4.58500,0.00000,0.03233,0.97771,-0.17824,2023,6,8,16,10,42,853
5.73880,2.90500,-4.65500,0.00000,0.03050,0.97917,-0.17666,2023,6,8,16,10,42,864
5.73890,3.20250,-4.76000,0.00000,0.03233,0.98039,-0.18068,2023,6,8,16,10,42,875
5.73900,2.87000,-4.72500,0.00000,0.03416,0.97698,-0.17995,2023,6,8,16,10,42,886
5.73910,3.13250,-4.79500,0.00000,0.03270,0.97661,-0.17836,2023,6,8,16,10,42,897
5.73920,2.87000,-4.42750,0.00000,0.03465,0.97576,-0.17958,2023,6,8,16,10,42,908
5.73930,3.09750,-4.39250,0.00000,0.03001,0.97759,-0.17910,2023,6,8,16,10,42,919
5.73940,3.01000,-4.65500,0.00000,0.03526,0.97527,-0.17800,2023,6,8,16,10,42,930
5.73950,3.02750,-4.77750,0.00000,0.03123,0.97478,-0.17910,2023,6,8,16,10,42,941
5.73960,2.83500,-4.62000,0.00000,0.03355,0.97490,-0.17751,2023,6,8,16,10,42,953
5.73970,3.18500,-4.84750,0.00000,0.03270,0.97722,-0.17885,2023,6,8,16,10,42,964
5.73980,3.01000,-4.56750,0.00000,0.03099,0.97661,-0.17836,2023,6,8,16,10,42,975
5.73990,2.87000,-4.69000,0.00000,0.03440,0.97783,-0.17714,2023,6,8,16,10,42,986
5.74000,2.99250,-4.70750,0.00000,0.03331,0.97759,-0.17897,2023,6,8,16,10,42,997
5.74010,2.83500,-4.53250,0.00000,0.03416,0.97795,-0.18007,2023,6,8,16,10,43,8
5.74020,3.06250,-4.84750,0.00000,0.03160,0.97966,-0.17910,2023,6,8,16,10,43,19
5.74030,2.88750,-4.58500,0.00000,0.03123,0.97673,-0.17849,2023,6,8,16,10,43,30
5.74040,2.97500,-4.81250,0.00000,0.03245,0.97734,-0.17946,2023,6,8,16,10,43,41
5.74050,2.90500,-4.74250,0.00000,0.03221,0.97759,-0.17800,2023,6,8,16,10,43,53
5.74060,2.99250,-4.65500,0.00000,0.03196,0.97795,-0.17849,2023,6,8,16,10,43,64
5.74070,2.95750,-4.62000,0.00000,0.03367,0.97881,-0.18129,2023,6,8,16,10,43,75
5.74080,3.15000,-4.67250,0.00000,0.03148,0.97722,-0.17458,2023,6,8,16,10,43,86
5.74090,2.85250,-4.55000,0.00000,0.03270,0.97600,-0.17824,2023,6,8,16,10,43,97
5.74100,3.08000,-4.83000,0.00000,0.03172,0.97612,-0.17873,2023,6,8,16,10,43,108
5.74110,2.94000,-4.77750,0.00000,0.03245,0.97588,-0.17800,2023,6,8,16,10,43,119
5.74120,3.09750,-4.56750,0.00000,0.03379,0.97734,-0.17714,2023,6,8,16,10,43,130
5.74130,2.88750,-4.46250,0.00000,0.03209,0.97454,-0.17983,2023,6,8,16,10,43,141
5.74140,2.88750,-4.65500,0.00000,0.03245,0.97698,-0.17702,2023,6,8,16,10,43,153
5.74150,3.04500,-4.51500,0.00000,0.03245,0.97490,-0.17922,2023,6,8,16,10,43,164
5.74160,2.87000,-4.55000,0.00000,0.03306,0.97856,-0.17788,2023,6,8,16,10,43,175
5.74170,2.88750,-4.81250,0.00000,0.03135,0.97734,-0.17861,2023,6,8,16,10,43,186
5.74180,3.04500,-4.53250,0.00000,0.03331,0.97612,-0.17922,2023,6,8,16,10,43,197
5.74190,3.13250,-4.81250,0.00000,0.03367,0.97661,-0.18080,2023,6,8,16,10,43,208
5.74200,3.06250,-4.60250,0.00000,0.03392,0.97868,-0.17641,2023,6,8,16,10,43,219
5.74210,2.90500,-4.86500,0.00000,0.03135,0.97759,-0.17861,2023,6,8,16,10,43,230
5.74220,3.02750,-4.58500,0.00000,0.03306,0.97893,-0.17836,2023,6,8,16,10,43,241
5.74230,2.99250,-4.63750,0.00000,0.03343,0.97881,-0.17910,2023,6,8,16,10,43,253
5.74240,3.04500,-4.60250,0.00000,0.03148,0.97698,-0.17629,2023,6,8,16,10,43,264
5.74250,2.88750,-4.48000,0.00000,0.03343,0.98039,-0.17702,2023,6,8,16,10,43,275
5.74260,3.09750,-4.60250,0.00000,0.03099,0.97319,-0.17983,2023,6,8,16,10,43,286
5.74270,2.88750,-4.65500,0.00000,0.03221,0.97856,-0.17910,2023,6,8,16,10,43,297
5.74280,2.88750,-4.81250,0.00000,0.03367,0.97563,-0.17922,2023,6,8,16,10,43,308
5.74290,2.87000,-4.55000,0.00000,0.03282,0.97673,-0.18044,2023,6,8,16,10,43,319
5.74300,3.01000,-4.55000,0.00000,0.03062,0.97722,-0.17751,2023,6,8,16,10,43,330
5.74310,2.90500,-4.62000,0.00000,0.03209,0.97893,-0.17800,2023,6,8,16,10,43,341
5.74320,2.99250,-4.69000,0.00000,0.03318,0.97820,-0.17995,2023,6,8,16,10,43,353
5.74330,2.99250,-4.65500,0.00000,0.03233,0.97807,-0.17958,2023,6,8,16,10,43,364
5.74340,2.80000,-4.72500,0.00000,0.03209,0.97734,-0.17800,2023,6,8,16,10,43,375
5.74350,3.08000,-4.70750,0.00000,0.03148,0.97783,-0.17958,2023,6,8,16,10,43,386
5.74360,2.97500,-4.55000,0.00000,0.03306,0.97673,-0.17849,2023,6,8,16,10,43,397
5.74370,3.08000,-4.53250,0.00000,0.03099,0.97698,-0.18044,2023,6,8,16,10,43,408
5.74380,3.04500,-4.69000,0.00000,0.03270,0.97612,-0.17995,2023,6,8,16,10,43,419
5.74390,3.02750,-4.41000,0.00000,0.03392,0.97734,-0.17763,2023,6,8,16,10,43,430
5.74400,2.95750,-4.72500,0.00000,0.03038,0.97673,-0.17751,2023,6,8,16,10,43,441
5.74410,2.94000,-4.63750,0.00000,0.03245,0.97588,-0.17861,2023,6,8,16,10,43,453
5.74420,3.09750,-4.63750,0.00000,0.03160,0.97649,-0.17800,2023,6,8,16,10,43,464
5.74430,2.94000,-4.60250,0.00000,0.03245,0.97795,-0.17824,2023,6,8,16,10,43,475
5.74440,2.80000,-4.46250,0.00000,0.03318,0.97868,-0.17971,2023,6,8,16,10,43,486
5.74450,3.01000,-4.65500,0.00000,0.03392,0.97771,-0.18007,2023,6,8,16,10,43,497
5.74460,2.94000,-4.81250,0.00000,0.03294,0.97600,-0.18080,2023,6,8,16,10,43,508
5.74470,2.90500,-4.60250,0.00000,0.03416,0.97820,-0.18215,2023,6,8,16,10,43,519
5.74480,3.11500,-4.81250,0.00000,0.03257,0.97807,-0.18093,2023,6,8,16,10,43,530
5.74490,2.88750,-4.60250,0.00000,0.03172,0.97734,-0.17812,2023,6,8,16,10,43,541
5.74500,3.09750,-4.70750,0.00000,0.03392,0.97832,-0.17751,2023,6,8,16,10,43,553
5.74510,2.97500,-4.65500,0.00000,0.03184,0.97722,-0.17910,2023,6,8,16,10,43,564
5.74520,3.06250,-4.55000,0.00000,0.03233,0.97856,-0.17739,2023,6,8,16,10,43,575
5.74530,3.06250,-4.62000,0.00000,0.03099,0.97612,-0.18056,2023,6,8,16,10,43,586
5.74540,2.90500,-4.48000,0.00000,0.03160,0.97783,-0.17800,2023,6,8,16,10,43,597
5.74550,2.87000,-4.56750,0.00000,0.03123,0.97978,-0.17958,2023,6,8,16,10,43,608
5.74560,3.08000,-4.53250,0.00000,0.03575,0.97661,-0.17946,2023,6,8,16,10,43,619
5.74570,2.95750,-4.49750,0.00000,0.03404,0.97832,-0.17788,2023,6,8,16,10,43,630
5.74580,2.88750,-4.60250,0.00000,0.03001,0.97637,-0.18080,2023,6,8,16,10,43,641
5.74590,3.11500,-4.55000,0.00000,0.03440,0.97698,-0.17897,2023,6,8,16,10,43,653
5.74600,2.80000,-4.35750,0.00000,0.03294,0.97856,-0.17788,2023,6,8,16,10,43,664
5.74610,2.94000,-4.49750,0.00000,0.03306,0.97783,-0.18032,2023,6,8,16,10,43,675
5.74620,2.99250,-4.44500,0.00000,0.03428,0.97612,-0.17946,2023,6,8,16,10,43,686
5.74630,3.13250,-4.60250,0.00000,0.03196,0.97673,-0.17971,2023,6,8,16,10,43,697
5.74640,2.99250,-4.65500,0.00000,0.03343,0.97649,-0.17958,2023,6,8,16,10,43,708
5.74650,3.02750,-4.83000,0.00000,0.03196,0.97588,-0.17812,2023,6,8,16,10,43,719
5.74660,2.94000,-4.48000,0.00000,0.03343,0.97649,-0.17873,2023,6,8,16,10,43,730
5.74670,3.11500,-4.53250,0.00000,0.03294,0.97990,-0.17946,2023,6,8,16,10,43,741
5.74680,2.88750,-4.74250,0.00000,0.03355,0.97759,-0.17958,2023,6,8,16,10,43,753
5.74690,2.81750,-4.69000,0.00000,0.03318,0.97466,-0.17910,2023,6,8,16,10,43,764
5.74700,3.15000,-4.60250,0.00000,0.03123,0.97759,-0.17641,2023,6,8,16,10,43,775
5.74710,2.81750,-4.58500,0.00000,0.03160,0.97917,-0.17897,2023,6,8,16,10,43,786
5.74720,2.90500,-4.44500,0.00000,0.03172,0.97905,-0.17788,2023,6,8,16,10,43,797
5.74730,2.99250,-4.63750,0.00000,0.03489,0.97929,-0.17739,2023,6,8,16,10,43,808
5.74740,2.87000,-4.56750,0.00000,0.03038,0.97844,-0.17775,2023,6,8,16,10,43,819
5.74750,3.04500,-4.60250,0.00000,0.03233,0.97673,-0.17702,2023,6,8,16,10,43,830
5.74760,2.88750,-4.48000,0.00000,0.03184,0.97771,-0.17641,2023,6,8,16,10,43,841
5.74770,3.08000,-4.51500,0.00000,0.03392,0.97685,-0.17873,2023,6,8,16,10,43,853
5.74780,3.06250,-4.62000,0.00000,0.03331,0.97832,-0.17775,2023,6,8,16,10,43,864
5.74790,3.15000,-4.63750,0.00000,0.03233,0.97661,-0.17934,2023,6,8,16,10,43,875
5.74800,2.97500,-4.67250,0.00000,0.03111,0.97685,-0.17885,2023,6,8,16,10,43,886
5.74810,2.90500,-4.67250,0.00000,0.03501,0.97820,-0.17763,2023,6,8,16,10,43,897
5.74820,2.94000,-4.28750,0.00000,0.03123,0.97588,-0.17946,2023,6,8,16,10,43,908
5.74830,2.90500,-4.76000,0.00000,0.03013,0.97771,-0.17971,2023,6,8,16,10,43,919
5.74840,3.20250,-4.76000,0.00000,0.03221,0.97722,-0.17922,2023,6,8,16,10,43,930
5.74850,2.94000,-4.60250,0.00000,0.03392,0.97698,-0.17885,2023,6,8,16,10,43,941
5.74860,3.15000,-4.42750,0.00000,0.03318,0.97490,-0.17873,2023,6,8,16,10,43,953
5.74870,2.88750,-4.42750,0.00000,0.03135,0.97783,-0.17934,2023,6,8,16,10,43,964
5.74880,3.11500,-4.88250,0.00000,0.03282,0.97722,-0.17775,2023,6,8,16,10,43,975
5.74890,3.06250,-4.74250,0.00000,0.03343,0.97539,-0.17861,2023,6,8,16,10,43,986
5.74900,2.92250,-4.60250,0.00000,0.03453,0.97807,-0.17788,2023,6,8,16,10,43,997
5.74910,3.04500,-4.72500,0.00000,0.03343,0.97612,-0.17897,2023,6,8,16,10,43,8
5.74920,2.81750,-4.76000,0.00000,0.03355,0.97856,-0.17800,2023,6,8,16,10,44,9
5.74930,3.01000,-4.30500,0.00000,0.03184,0.97551,-0.17763,2023,6,8,16,10,44,20
5.74940,2.95750,-4.70750,0.00000,0.03404,0.97820,-0.17946,2023,6,8,16,10,44,31
5.74950,3.15000,-4.69000,0.00000,0.03343,0.97844,-0.17727,2023,6,8,16,10,44,43
5.74960,2.95750,-4.53250,0.00000,0.03233,0.97539,-0.17836,2023,6,8,16,10,44,54
5.74970,3.02750,-4.60250,0.00000,0.03209,0.97612,-0.17849,2023,6,8,16,10,44,65
5.74980,3.09750,-4.70750,0.00000,0.03282,0.97551,-0.17885,2023,6,8,16,10,44,76
5.74990,2.90500,-4.65500,0.00000,0.03367,0.97783,-0.17812,2023,6,8,16,10,44,87
5.75000,2.94000,-4.84750,0.00000,0.03270,0.97515,-0.17788,2023,6,8,16,10,44,98
5.75010,2.76500,-4.53250,0.00000,0.03367,0.97905,-0.17775,2023,6,8,16,10,44,109
5.75020,3.01000,-4.79500,0.00000,0.03245,0.97624,-0.17897,2023,6,8,16,10,44,120
5.75030,2.92250,-4.69000,0.00000,0.03465,0.97734,-0.17775,2023,6,8,16,10,44,131
5.75040,3.01000,-4.51500,0.00000,0.03453,0.97527,-0.17836,2023,6,8,16,10,44,143
5.75050,2.94000,-4.49750,0.00000,0.03306,0.97710,-0.17849,2023,6,8,16,10,44,154
5.75060,3.01000,-4.65500,0.00000,0.03392,0.97807,-0.17861,2023,6,8,16,10,44,165
5.75070,3.11500,-4.83000,0.00000,0.03245,0.97783,-0.17897,2023,6,8,16,10,44,176
5.75080,2.92250,-4.60250,0.00000,0.03257,0.97868,-0.17763,2023,6,8,16,10,44,187
5.75090,2.94000,-4.65500,0.00000,0.03209,0.97783,-0.17800,2023,6,8,16,10,44,198
5.75100,2.94000,-4.53250,0.00000,0.03233,0.97673,-0.17897,2023,6,8,16,10,44,209
5.75110,2.95750,-4.53250,0.00000,0.03209,0.97576,-0.17910,2023,6,8,16,10,44,220
5.75120,2.99250,-4.70750,0.00000,0.03306,0.97490,-0.17751,2023,6,8,16,10,44,231
5.75130,2.95750,-4.93500,0.00000,0.03465,0.97868,-0.17775,2023,6,8,16,10,44,243
5.75140,2.92250,-4.55000,0.00000,0.03123,0.97868,-0.17556,2023,6,8,16,10,44,254
5.75150,3.16750,-4.62000,0.00000,0.03087,0.97661,-0.17751,2023,6,8,16,10,44,265
5.75160,2.92250,-4.53250,0.00000,0.03367,0.97795,-0.17824,2023,6,8,16,10,44,276
5.75170,2.92250,-4.76000,0.00000,0.03453,0.97685,-0.17922,2023,6,8,16,10,44,287
5.75180,2.85250,-4.63750,0.00000,0.03282,0.97515,-0.17983,2023,6,8,16,10,44,298
5.75190,2.94000,-4.46250,0.00000,0.03440,0.97795,-0.17788,2023,6,8,16,10,44,309
5.75200,3.04500,-4.53250,0.00000,0.03245,0.97600,-0.17812,2023,6,8,16,10,44,320
5.75210,2.90500,-4.65500,0.00000,0.03257,0.97624,-0.17934,2023,6,8,16,10,44,331
5.75220,2.71250,-4.62000,0.00000,0.02977,0.97881,-0.17958,2023,6,8,16,10,44,343
5.75230,2.88750,-4.81250,0.00000,0.03416,0.97710,-0.17580,2023,6,8,16,10,44,354
5.75240,3.09750,-4.63750,0.00000,0.03379,0.97710,-0.17714,2023,6,8,16,10,44,365
5.75250,3.13250,-4.83000,0.00000,0.03233,0.97868,-0.17971,2023,6,8,16,10,44,376
5.75260,3.09750,-4.49750,0.00000,0.03440,0.97807,-0.18178,2023,6,8,16,10,44,387
5.75270,2.92250,-4.72500,0.00000,0.03270,0.97795,-0.17714,2023,6,8,16,10,44,398
5.75280,3.04500,-4.70750,0.00000,0.03318,0.97551,-0.17861,2023,6,8,16,10,44,409
5.75290,2.99250,-4.70750,0.00000,0.03257,0.97637,-0.17946,2023,6,8,16,10,44,420
5.75300,2.99250,-4.67250,0.00000,0.03221,0.97685,-0.17897,2023,6,8,16,10,44,431
5.75310,2.90500,-4.56750,0.00000,0.03477,0.97832,-0.17775,2023,6,8,16,10,44,443
5.75320,2.85250,-4.58500,0.00000,0.03257,0.97624,-0.17897,2023,6,8,16,10,44,454
5.75330,2.94000,-4.42750,0.00000,0.03331,0.97710,-0.17775,2023,6,8,16,10,44,465
5.75340,2.87000,-4.56750,0.00000,0.03343,0.97673,-0.17775,2023,6,8,16,10,44,476
5.75350,2.99250,-4.65500,0.00000,0.03270,0.97917,-0.17812,2023,6,8,16,10,44,487
5.75360,2.87000,-4.37500,0.00000,0.03379,0.98015,-0.17812,2023,6,8,16,10,44,498
5.75370,2.87000,-4.60250,0.00000,0.03245,0.97710,-0.17873,2023,6,8,16,10,44,509
5.75380,3.16750,-4.65500,0.00000,0.03270,0.97563,-0.17873,2023,6,8,16,10,44,520
5.75390,3.09750,-4.65500,0.00000,0.03318,0.97637,-0.17897,2023,6,8,16,10,44,531
5.75400,2.92250,-4.55000,0.00000,0.03038,0.97771,-0.17788,2023,6,8,16,10,44,543
5.75410,3.08000,-4.67250,0.00000,0.03270,0.97771,-0.17946,2023,6,8,16,10,44,554
5.75420,2.81750,-4.60250,0.00000,0.03355,0.97832,-0.18056,2023,6,8,16,10,44,565
5.75430,2.81750,-4.41000,0.00000,0.03453,0.97832,-0.17727,2023,6,8,16,10,44,576
5.75440,3.16750,-4.63750,0.00000,0.03099,0.97795,-0.18019,2023,6,8,16,10,44,587
5.75450,3.01000,-4.39250,0.00000,0.03355,0.97527,-0.17910,2023,6,8,16,10,44,598
5.75460,3.01000,-4.62000,0.00000,0.03038,0.97624,-0.17702,2023,6,8,16,10,44,609
5.75470,2.97500,-4.77750,0.00000,0.03306,0.97868,-0.17775,2023,6,8,16,10,44,620
5.75480,3.09750,-4.65500,0.00000,0.03135,0.97649,-0.17788,2023,6,8,16,10,44,631
5.75490,2.81750,-4.65500,0.00000,0.03355,0.97771,-0.18093,2023,6,8,16,10,44,643
5.75500,3.06250,-4.65500,0.00000,0.03306,0.97673,-0.17873,2023,6,8,16,10,44,654
5.75510,3.01000,-4.63750,0.00000,0.03135,0.97820,-0.17910,2023,6,8,16,10,44,665
5.75520,3.08000,-4.62000,0.00000,0.03172,0.97746,-0.17788,2023,6,8,16,10,44,676
5.75530,3.01000,-4.70750,0.00000,0.03184,0.97637,-0.17763,2023,6,8,16,10,44,687
5.75540,2.88750,-4.49750,0.00000,0.03270,0.97527,-0.18056,2023,6,8,16,10,44,698
5.75550,2.90500,-4.76000,0.00000,0.03221,0.97795,-0.17824,2023,6,8,16,10,44,709
5.75560,2.71250,-4.51500,0.00000,0.03196,0.97588,-0.18007,2023,6,8,16,10,44,720
5.75570,3.15000,-4.65500,0.00000,0.03148,0.97868,-0.17641,2023,6,8,16,10,44,731
5.75580,2.95750,-4.55000,0.00000,0.03306,0.97563,-0.17897,2023,6,8,16,10,44,743
5.75590,2.97500,-4.67250,0.00000,0.03294,0.97807,-0.18007,2023,6,8,16,10,44,754
5.75600,3.01000,-4.90000,0.00000,0.03233,0.97515,-0.17824,2023,6,8,16,10,44,765
5.75610,3.09750,-4.72500,0.00000,0.03379,0.97746,-0.17983,2023,6,8,16,10,44,776
5.75620,3.06250,-4.69000,0.00000,0.03257,0.97746,-0.17897,2023,6,8,16,10,44,787
5.75630,3.01000,-4.62000,0.00000,0.03318,0.97820,-0.17946,2023,6,8,16,10,44,798
5.75640,2.94000,-4.67250,0.00000,0.03367,0.97832,-0.17666,2023,6,8,16,10,44,809
5.75650,2.90500,-4.65500,0.00000,0.03270,0.97795,-0.17958,2023,6,8,16,10,44,820
5.75660,3.06250,-4.60250,0.00000,0.03184,0.97502,-0.17836,2023,6,8,16,10,44,831
5.75670,3.02750,-4.58500,0.00000,0.03379,0.97978,-0.18044,2023,6,8,16,10,44,843
5.75680,2.90500,-4.69000,0.00000,0.03123,0.97771,-0.17910,2023,6,8,16,10,44,854
5.75690,2.99250,-4.67250,0.00000,0.03306,0.97698,-0.18129,2023,6,8,16,10,44,865
5.75700,3.08000,-4.72500,0.00000,0.03123,0.97515,-0.17983,2023,6,8,16,10,44,876
5.75710,2.92250,-4.56750,0.00000,0.03294,0.97917,-0.17836,2023,6,8,16,10,44,887
5.75720,3.02750,-4.84750,0.00000,0.03184,0.97783,-0.18068,2023,6,8,16,10,44,898
5.75730,3.04500,-4.58500,0.00000,0.03026,0.97771,-0.18032,2023,6,8,16,10,44,909
5.75740,2.94000,-4.51500,0.00000,0.03538,0.97734,-0.17897,2023,6,8,16,10,44,920
5.75750,3.01000,-4.86500,0.00000,0.03282,0.97783,-0.18044,2023,6,8,16,10,44,931
5.75760,2.99250,-4.53250,0.00000,0.03294,0.97722,-0.17812,2023,6,8,16,10,44,943
5.75770,3.06250,-4.65500,0.00000,0.03306,0.97807,-0.17873,2023,6,8,16,10,44,954
5.75780,2.97500,-4.77750,0.00000,0.03477,0.97795,-0.17800,2023,6,8,16,10,44,965
5.75790,3.02750,-4.65500,0.00000,0.03404,0.97759,-0.18019,2023,6,8,16,10,44,976
5.75800,2.97500,-4.60250,0.00000,0.03392,0.97637,-0.17800,2023,6,8,16,10,44,987
5.75810,3.01000,-4.72500,0.00000,0.03257,0.97820,-0.17836,2023,6,8,16,10,44,998
