#2023/06/08 14:33:32
time,wx,wy,wz,ax,ay,az,yy,MM,dd,hh,mm,ss,ms
4.26940,-0.13370,0.02957,0.00000,0.03148,0.97685,-0.17836,2023,6,8,14,33,32,567
4.26950,0.05880,0.02957,0.00000,0.03257,0.97966,-0.17934,2023,6,8,14,33,32,578
4.26960,-0.08120,0.18707,0.00000,0.03074,0.97868,-0.17910,2023,6,8,14,33,32,589
4.26970,0.04130,0.06457,0.00000,0.03343,0.97795,-0.17812,2023,6,8,14,33,32,600
4.26980,-0.08120,-0.00543,0.00000,0.03038,0.97844,-0.18032,2023,6,8,14,33,32,611
4.26990,-0.13370,0.20457,0.00000,0.03135,0.97637,-0.17897,2023,6,8,14,33,32,622
4.27000,-0.01120,0.22207,0.00000,0.03428,0.97600,-0.17751,2023,6,8,14,33,32,633
4.27010,0.04130,0.08207,0.00000,0.03050,0.97771,-0.17934,2023,6,8,14,33,32,644
4.27020,-0.08120,-0.04043,0.00000,0.03245,0.97832,-0.17836,2023,6,8,14,33,32,655
4.27030,-0.22120,0.04707,0.00000,0.03477,0.97820,-0.17763,2023,6,8,14,33,32,667
4.27040,0.09380,0.02957,0.00000,0.03501,0.97637,-0.17727,2023,6,8,14,33,32,678
4.27050,0.02380,0.02957,0.00000,0.03221,0.97734,-0.17580,2023,6,8,14,33,32,689
4.27060,-0.11620,0.06457,0.00000,0.03257,0.97673,-0.17812,2023,6,8,14,33,32,700
4.27070,0.12880,-0.07543,0.00000,0.03245,0.97868,-0.17788,2023,6,8,14,33,32,711
4.27080,0.04130,-0.11043,0.00000,0.03294,0.97832,-0.18141,2023,6,8,14,33,32,722
4.27090,-0.02870,-0.09293,0.00000,0.03221,0.97612,-0.17995,2023,6,8,14,33,32,733
4.27100,0.05880,0.13457,0.00000,0.03160,0.97624,-0.17934,2023,6,8,14,33,32,744
4.27110,-0.13370,0.18707,0.00000,0.03294,0.97588,-0.18044,2023,6,8,14,33,32,755
4.27120,-0.02870,-0.04043,0.00000,0.03245,0.97637,-0.17629,2023,6,8,14,33,32,767
4.27130,0.12880,0.16957,0.00000,0.03392,0.97905,-0.17861,2023,6,8,14,33,32,778
4.27140,0.00630,-0.05793,0.00000,0.03306,0.97637,-0.17971,2023,6,8,14,33,32,789
4.27150,0.04130,-0.00543,0.00000,0.03209,0.97771,-0.18117,2023,6,8,14,33,32,800
4.27160,-0.08120,0.13457,0.00000,0.03221,0.97746,-0.17690,2023,6,8,14,33,32,811
4.27170,0.02380,-0.02293,0.00000,0.03318,0.97795,-0.17922,2023,6,8,14,33,32,822
4.27180,-0.02870,-0.21543,0.00000,0.03148,0.97795,-0.17775,2023,6,8,14,33,32,833
4.27190,-0.20370,0.15207,0.00000,0.03306,0.97759,-0.17690,2023,6,8,14,33,32,844
4.27200,0.14630,-0.16293,0.00000,0.03538,0.97478,-0.17971,2023,6,8,14,33,32,855
4.27210,0.07630,-0.04043,0.00000,0.03282,0.97844,-0.17775,2023,6,8,14,33,32,867
4.27220,0.05880,0.02957,0.00000,0.03501,0.97820,-0.17897,2023,6,8,14,33,32,878
4.27230,-0.04620,0.08207,0.00000,0.03270,0.97746,-0.17836,2023,6,8,14,33,32,889
4.27240,-0.09870,0.22207,0.00000,0.03367,0.97661,-0.17788,2023,6,8,14,33,32,900
4.27250,0.14630,-0.18043,0.00000,0.03257,0.97624,-0.17812,2023,6,8,14,33,32,911
4.27260,-0.09870,-0.00543,0.00000,0.03221,0.97759,-0.17971,2023,6,8,14,33,32,922
4.27270,-0.09870,0.02957,0.00000,0.03282,0.98027,-0.17983,2023,6,8,14,33,32,933
4.27280,-0.09870,0.11707,0.00000,0.03306,0.97515,-0.17751,2023,6,8,14,33,32,944
4.27290,-0.13370,-0.19793,0.00000,0.03209,0.97905,-0.17934,2023,6,8,14,33,32,955
4.27300,-0.01120,-0.09293,0.00000,0.03392,0.97527,-0.18068,2023,6,8,14,33,32,967
4.27310,-0.01120,-0.05793,0.00000,0.03184,0.97649,-0.18019,2023,6,8,14,33,32,978
4.27320,0.05880,0.08207,0.00000,0.03196,0.97820,-0.18007,2023,6,8,14,33,32,989
4.27330,0.11130,-0.02293,0.00000,0.03294,0.97820,-0.17763,2023,6,8,14,33,32,0
4.27340,-0.02870,-0.00543,0.00000,0.03331,0.97685,-0.17922,2023,6,8,14,33,32,11
4.27350,0.04130,0.01207,0.00000,0.03294,0.97661,-0.17849,2023,6,8,14,33,32,22
4.27360,-0.04620,0.34457,0.00000,0.03501,0.97820,-0.17812,2023,6,8,14,33,32,33
4.27370,0.07630,0.15207,0.00000,0.03392,0.97795,-0.17873,2023,6,8,14,33,32,44
4.27380,0.16380,-0.18043,0.00000,0.03306,0.97673,-0.17885,2023,6,8,14,33,32,55
4.27390,-0.08120,0.02957,0.00000,0.03135,0.97807,-0.17934,2023,6,8,14,33,32,67
4.27400,0.09380,-0.02293,0.00000,0.03318,0.97685,-0.17836,2023,6,8,14,33,32,78
4.27410,-0.04620,-0.05793,0.00000,0.03453,0.97771,-0.18019,2023,6,8,14,33,32,89
4.27420,0.11130,0.15207,0.00000,0.03257,0.97771,-0.17910,2023,6,8,14,33,32,100
4.27430,0.09380,-0.12793,0.00000,0.03184,0.97844,-0.17922,2023,6,8,14,33,32,111
4.27440,-0.09870,0.08207,0.00000,0.03099,0.97698,-0.18056,2023,6,8,14,33,32,122
4.27450,0.09380,0.02957,0.00000,0.03355,0.97759,-0.17666,2023,6,8,14,33,32,133
4.27460,-0.02870,-0.16293,0.00000,0.03489,0.97661,-0.17910,2023,6,8,14,33,32,144
4.27470,0.02380,-0.14543,0.00000,0.03428,0.97759,-0.17897,2023,6,8,14,33,32,155
4.27480,0.12880,-0.09293,0.00000,0.03221,0.97807,-0.17897,2023,6,8,14,33,32,167
4.27490,-0.20370,0.06457,0.00000,0.03331,0.97539,-0.17824,2023,6,8,14,33,32,178
4.27500,0.09380,0.08207,0.00000,0.03355,0.97685,-0.17873,2023,6,8,14,33,32,189
4.27510,0.12880,-0.07543,0.00000,0.03306,0.97710,-0.17751,2023,6,8,14,33,32,200
4.27520,0.18130,-0.07543,0.00000,0.03440,0.97685,-0.18044,2023,6,8,14,33,32,211
4.27530,0.04130,-0.16293,0.00000,0.03282,0.97539,-0.17922,2023,6,8,14,33,32,222
4.27540,0.07630,-0.09293,0.00000,0.03282,0.97649,-0.17934,2023,6,8,14,33,32,233
4.27550,0.02380,0.01207,0.00000,0.03465,0.97624,-0.17934,2023,6,8,14,33,32,244
4.27560,-0.04620,0.06457,0.00000,0.03501,0.97624,-0.17824,2023,6,8,14,33,32,255
4.27570,0.07630,0.09957,0.00000,0.03331,0.97563,-0.17824,2023,6,8,14,33,32,267
4.27580,-0.02870,0.06457,0.00000,0.03306,0.97490,-0.17702,2023,6,8,14,33,32,278
4.27590,0.02380,0.18707,0.00000,0.03440,0.97722,-0.18056,2023,6,8,14,33,32,289
4.27600,-0.04620,0.08207,0.00000,0.03196,0.97624,-0.17800,2023,6,8,14,33,32,300
4.27610,0.14630,0.04707,0.00000,0.03221,0.97844,-0.18019,2023,6,8,14,33,32,311
4.27620,0.19880,-0.07543,0.00000,0.03343,0.97649,-0.17568,2023,6,8,14,33,32,322
4.27630,0.04130,-0.00543,0.00000,0.03050,0.97990,-0.17995,2023,6,8,14,33,32,333
4.27640,0.04130,0.09957,0.00000,0.03306,0.97893,-0.17751,2023,6,8,14,33,32,344
4.27650,-0.06370,0.01207,0.00000,0.03099,0.97454,-0.17934,2023,6,8,14,33,32,355
4.27660,-0.18620,-0.00543,0.00000,0.03318,0.97832,-0.17983,2023,6,8,14,33,32,367
4.27670,0.11130,-0.09293,0.00000,0.03428,0.97771,-0.17934,2023,6,8,14,33,32,378
4.27680,-0.01120,0.08207,0.00000,0.03416,0.97990,-0.17836,2023,6,8,14,33,32,389
4.27690,0.04130,-0.11043,0.00000,0.03294,0.97954,-0.17824,2023,6,8,14,33,32,400
4.27700,-0.08120,-0.11043,0.00000,0.03428,0.97844,-0.17885,2023,6,8,14,33,32,411
4.27710,0.05880,0.01207,0.00000,0.03343,0.97807,-0.17788,2023,6,8,14,33,32,422
4.27720,0.07630,0.11707,0.00000,0.03282,0.97588,-0.17739,2023,6,8,14,33,32,433
4.27730,0.23380,0.02957,0.00000,0.03306,0.97905,-0.17751,2023,6,8,14,33,33,4
4.27740,0.04130,-0.18043,0.00000,0.03355,0.97795,-0.17885,2023,6,8,14,33,33,15
4.27750,0.05880,-0.09293,0.00000,0.03282,0.97673,-0.17897,2023,6,8,14,33,33,27
4.27760,-0.04620,0.02957,0.00000,0.03233,0.97832,-0.17861,2023,6,8,14,33,33,38
4.27770,0.07630,-0.04043,0.00000,0.03196,0.97807,-0.17849,2023,6,8,14,33,33,49
4.27780,0.05880,0.09957,0.00000,0.03221,0.97637,-0.17775,2023,6,8,14,33,33,60
4.27790,0.18130,0.08207,0.00000,0.03392,0.97978,-0.17958,2023,6,8,14,33,33,71
4.27800,0.05880,-0.18043,0.00000,0.03343,0.97722,-0.17605,2023,6,8,14,33,33,82
4.27810,0.09380,0.23957,0.00000,0.03318,0.97624,-0.18105,2023,6,8,14,33,33,93
4.27820,-0.11620,0.13457,0.00000,0.03355,0.97551,-0.17934,2023,6,8,14,33,33,104
4.27830,0.04130,0.06457,0.00000,0.03294,0.97856,-0.17788,2023,6,8,14,33,33,115
4.27840,-0.16870,0.18707,0.00000,0.03221,0.97868,-0.18080,2023,6,8,14,33,33,127
4.27850,0.05880,0.16957,0.00000,0.03148,0.97746,-0.17849,2023,6,8,14,33,33,138
4.27860,0.25130,-0.07543,0.00000,0.03123,0.97600,-0.17910,2023,6,8,14,33,33,149
4.27870,0.02380,-0.16293,0.00000,0.03184,0.97746,-0.17531,2023,6,8,14,33,33,160
4.27880,0.04130,-0.02293,0.00000,0.03343,0.97820,-0.17763,2023,6,8,14,33,33,171
4.27890,-0.06370,0.01207,0.00000,0.03209,0.97600,-0.17812,2023,6,8,14,33,33,182
4.27900,-0.08120,0.13457,0.00000,0.03428,0.97807,-0.17849,2023,6,8,14,33,33,193
4.27910,0.19880,-0.00543,0.00000,0.03209,0.97722,-0.17946,2023,6,8,14,33,33,204
4.27920,0.16380,-0.16293,0.00000,0.03379,0.97746,-0.17934,2023,6,8,14,33,33,215
4.27930,-0.01120,-0.07543,0.00000,0.03318,0.97881,-0.17910,2023,6,8,14,33,33,227
4.27940,-0.02870,0.15207,0.00000,0.03245,0.97673,-0.17910,2023,6,8,14,33,33,238
4.27950,-0.04620,-0.02293,0.00000,0.03440,0.97783,-0.17666,2023,6,8,14,33,33,249
4.27960,-0.06370,0.23957,0.00000,0.03379,0.97893,-0.17812,2023,6,8,14,33,33,260
4.27970,0.07630,0.04707,0.00000,0.03257,0.97771,-0.17861,2023,6,8,14,33,33,271
4.27980,0.05880,0.09957,0.00000,0.03026,0.97576,-0.17897,2023,6,8,14,33,33,282
4.27990,-0.13370,-0.05793,0.00000,0.03343,0.97576,-0.17910,2023,6,8,14,33,33,293
4.28000,-0.06370,0.02957,0.00000,0.03050,0.97710,-0.17910,2023,6,8,14,33,33,304
4.28010,-0.04620,0.01207,0.00000,0.03282,0.97746,-0.17836,2023,6,8,14,33,33,315
4.28020,0.00630,-0.02293,0.00000,0.03489,0.97771,-0.17861,2023,6,8,14,33,33,327
4.28030,0.09380,0.01207,0.00000,0.03355,0.97698,-0.18032,2023,6,8,14,33,33,338
4.28040,0.19880,-0.18043,0.00000,0.03148,0.97807,-0.17763,2023,6,8,14,33,33,349
4.28050,-0.11620,0.02957,0.00000,0.03306,0.97734,-0.17483,2023,6,8,14,33,33,360
4.28060,0.02380,0.06457,0.00000,0.03331,0.97868,-0.17885,2023,6,8,14,33,33,371
4.28070,-0.01120,0.13457,0.00000,0.03440,0.97661,-0.18178,2023,6,8,14,33,33,382
4.28080,-0.04620,0.02957,0.00000,0.03172,0.97673,-0.17849,2023,6,8,14,33,33,393
4.28090,0.05880,0.09957,0.00000,0.03294,0.97832,-0.17690,2023,6,8,14,33,33,404
4.28100,-0.11620,0.11707,0.00000,0.03318,0.97905,-0.17775,2023,6,8,14,33,33,415
4.28110,0.05880,-0.14543,0.00000,0.03282,0.97612,-0.17775,2023,6,8,14,33,33,427
4.28120,-0.01120,-0.19793,0.00000,0.03318,0.97759,-0.17910,2023,6,8,14,33,33,438
4.28130,0.05880,0.16957,0.00000,0.03343,0.97893,-0.17824,2023,6,8,14,33,33,449
4.28140,-0.08120,0.01207,0.00000,0.03087,0.97905,-0.17788,2023,6,8,14,33,33,460
4.28150,0.04130,-0.14543,0.00000,0.03379,0.97637,-0.17897,2023,6,8,14,33,33,471
4.28160,0.02380,-0.05793,0.00000,0.03209,0.97807,-0.18007,2023,6,8,14,33,33,482
4.28170,0.07630,0.01207,0.00000,0.03440,0.97771,-0.17800,2023,6,8,14,33,33,493
4.28180,0.09380,-0.14543,0.00000,0.03148,0.97795,-0.17897,2023,6,8,14,33,33,504
4.28190,-0.01120,0.01207,0.00000,0.03184,0.97661,-0.17690,2023,6,8,14,33,33,515
4.28200,0.04130,-0.00543,0.00000,0.03428,0.97576,-0.17788,2023,6,8,14,33,33,527
4.28210,-0.11620,-0.02293,0.00000,0.03453,0.97746,-0.17763,2023,6,8,14,33,33,538
4.28220,0.21630,-0.16293,0.00000,0.03416,0.97917,-0.17800,2023,6,8,14,33,33,549
4.28230,0.19880,-0.02293,0.00000,0.03099,0.97795,-0.17739,2023,6,8,14,33,33,560
4.28240,0.11130,-0.12793,0.00000,0.03184,0.97649,-0.17666,2023,6,8,14,33,33,571
4.28250,-0.20370,0.02957,0.00000,0.03135,0.97905,-0.17775,2023,6,8,14,33,33,582
4.28260,0.09380,0.01207,0.00000,0.03221,0.97649,-0.17873,2023,6,8,14,33,33,593
4.28270,-0.11620,-0.09293,0.00000,0.03160,0.97722,-0.17678,2023,6,8,14,33,33,604
4.28280,-0.09870,0.02957,0.00000,0.03111,0.97759,-0.17995,2023,6,8,14,33,33,615
4.28290,0.14630,-0.11043,0.00000,0.03538,0.97685,-0.17800,2023,6,8,14,33,33,627
4.28300,0.11130,-0.00543,0.00000,0.03245,0.97624,-0.17971,2023,6,8,14,33,33,638
4.28310,-0.02870,0.16957,0.00000,0.03355,0.97966,-0.17775,2023,6,8,14,33,33,649
4.28320,-0.02870,-0.21543,0.00000,0.03538,0.97698,-0.17922,2023,6,8,14,33,33,660
4.28330,0.11130,0.18707,0.00000,0.03245,0.97710,-0.18068,2023,6,8,14,33,33,671
4.28340,-0.02870,-0.07543,0.00000,0.03465,0.97722,-0.17751,2023,6,8,14,33,33,682
4.28350,0.09380,0.09957,0.00000,0.03392,0.97624,-0.18007,2023,6,8,14,33,33,693
4.28360,-0.09870,-0.04043,0.00000,0.03172,0.97759,-0.17739,2023,6,8,14,33,33,704
4.28370,-0.08120,0.01207,0.00000,0.02867,0.97966,-0.18044,2023,6,8,14,33,33,715
4.28380,-0.01120,0.01207,0.00000,0.03233,0.97661,-0.18068,2023,6,8,14,33,33,727
4.28390,0.04130,0.18707,0.00000,0.03282,0.97661,-0.17946,2023,6,8,14,33,33,738
4.28400,0.04130,0.16957,0.00000,0.03331,0.97661,-0.17897,2023,6,8,14,33,33,749
4.28410,-0.02870,-0.25043,0.00000,0.03318,0.97624,-0.17922,2023,6,8,14,33,33,760
4.28420,-0.04620,0.09957,0.00000,0.03331,0.98015,-0.17641,2023,6,8,14,33,33,771
4.28430,-0.01120,-0.09293,0.00000,0.03294,0.97807,-0.17873,2023,6,8,14,33,33,782
4.28440,0.02380,0.22207,0.00000,0.03257,0.97722,-0.17788,2023,6,8,14,33,33,793
4.28450,0.00630,0.08207,0.00000,0.03087,0.97771,-0.17958,2023,6,8,14,33,33,804
4.28460,-0.15120,0.11707,0.00000,0.03440,0.97649,-0.17861,2023,6,8,14,33,33,815
4.28470,0.05880,0.25707,0.00000,0.03233,0.97563,-0.18093,2023,6,8,14,33,33,827
4.28480,-0.08120,0.15207,0.00000,0.03135,0.97637,-0.17922,2023,6,8,14,33,33,838
4.28490,-0.06370,-0.07543,0.00000,0.03196,0.97771,-0.17958,2023,6,8,14,33,33,849
4.28500,-0.04620,0.30957,0.00000,0.03331,0.97661,-0.18080,2023,6,8,14,33,33,860
4.28510,0.18130,0.09957,0.00000,0.03392,0.97332,-0.17910,2023,6,8,14,33,33,871
4.28520,-0.02870,0.15207,0.00000,0.03343,0.97893,-0.17690,2023,6,8,14,33,33,882
4.28530,0.07630,0.02957,0.00000,0.03367,0.97771,-0.17751,2023,6,8,14,33,33,893
4.28540,0.11130,0.04707,0.00000,0.03379,0.97563,-0.17690,2023,6,8,14,33,33,904
4.28550,-0.18620,0.22207,0.00000,0.03282,0.97637,-0.18019,2023,6,8,14,33,33,915
4.28560,0.00630,-0.05793,0.00000,0.03172,0.97600,-0.18044,2023,6,8,14,33,33,927
4.28570,-0.27370,0.02957,0.00000,0.03331,0.97942,-0.17836,2023,6,8,14,33,33,938
4.28580,-0.08120,0.16957,0.00000,0.03160,0.97551,-0.18141,2023,6,8,14,33,33,949
4.28590,-0.15120,-0.02293,0.00000,0.03331,0.97698,-0.17983,2023,6,8,14,33,33,960
4.28600,0.11130,-0.11043,0.00000,0.03343,0.97978,-0.18056,2023,6,8,14,33,33,971
4.28610,-0.04620,0.01207,0.00000,0.03416,0.97710,-0.17885,2023,6,8,14,33,33,982
4.28620,0.00630,-0.00543,0.00000,0.03294,0.97807,-0.18190,2023,6,8,14,33,33,993
4.28630,0.05880,0.11707,0.00000,0.03123,0.97746,-0.18129,2023,6,8,14,33,33,4
4.28640,0.04130,0.02957,0.00000,0.02904,0.97771,-0.17958,2023,6,8,14,33,33,15
4.28650,-0.08120,0.04707,0.00000,0.03221,0.97734,-0.17824,2023,6,8,14,33,33,27
4.28660,0.09380,0.01207,0.00000,0.03392,0.97807,-0.18007,2023,6,8,14,33,33,38
4.28670,-0.08120,-0.02293,0.00000,0.02916,0.97771,-0.17971,2023,6,8,14,33,33,49
4.28680,-0.02870,0.01207,0.00000,0.03282,0.97771,-0.17751,2023,6,8,14,33,33,60
4.28690,-0.02870,-0.14543,0.00000,0.03428,0.97685,-0.18166,2023,6,8,14,33,33,71
4.28700,0.05880,0.01207,0.00000,0.03257,0.97954,-0.18044,2023,6,8,14,33,33,82
4.28710,0.16380,0.11707,0.00000,0.03428,0.97832,-0.17958,2023,6,8,14,33,33,93
4.28720,-0.13370,0.22207,0.00000,0.03392,0.97746,-0.18166,2023,6,8,14,33,33,104
4.28730,-0.02870,-0.00543,0.00000,0.03221,0.97820,-0.17946,2023,6,8,14,33,33,115
4.28740,0.28630,-0.23293,0.00000,0.03135,0.97893,-0.17788,2023,6,8,14,33,33,127
4.28750,-0.11620,0.06457,0.00000,0.03501,0.97771,-0.18056,2023,6,8,14,33,33,138
4.28760,-0.04620,0.06457,0.00000,0.03343,0.97881,-0.18032,2023,6,8,14,33,33,149
4.28770,0.11130,-0.07543,0.00000,0.03343,0.97795,-0.17812,2023,6,8,14,33,33,160
4.28780,-0.02870,-0.09293,0.00000,0.03416,0.97966,-0.17934,2023,6,8,14,33,33,171
4.28790,-0.02870,0.27457,0.00000,0.03294,0.97807,-0.17897,2023,6,8,14,33,33,182
4.28800,-0.01120,0.11707,0.00000,0.03233,0.97746,-0.17763,2023,6,8,14,33,33,193
4.28810,0.00630,-0.09293,0.00000,0.03245,0.97722,-0.17873,2023,6,8,14,33,33,204
4.28820,0.12880,-0.12793,0.00000,0.03404,0.97673,-0.17873,2023,6,8,14,33,33,215
4.28830,0.16380,0.08207,0.00000,0.03392,0.97649,-0.17897,2023,6,8,14,33,33,227
4.28840,0.04130,0.02957,0.00000,0.03245,0.97966,-0.18068,2023,6,8,14,33,33,238
4.28850,-0.02870,0.08207,0.00000,0.03453,0.97917,-0.18019,2023,6,8,14,33,33,249
4.28860,-0.04620,0.15207,0.00000,0.03611,0.97698,-0.18019,2023,6,8,14,33,33,260
4.28870,-0.02870,-0.00543,0.00000,0.03221,0.97917,-0.17983,2023,6,8,14,33,33,271
4.28880,-0.08120,0.13457,0.00000,0.03282,0.97563,-0.18007,2023,6,8,14,33,33,282
4.28890,0.16380,-0.07543,0.00000,0.03440,0.97807,-0.17922,2023,6,8,14,33,33,293
4.28900,-0.01120,0.09957,0.00000,0.03282,0.97905,-0.18117,2023,6,8,14,33,33,304
4.28910,0.21630,0.11707,0.00000,0.03257,0.97881,-0.17958,2023,6,8,14,33,33,315
4.28920,0.18130,-0.05793,0.00000,0.03123,0.97881,-0.17678,2023,6,8,14,33,33,327
4.28930,0.07630,0.15207,0.00000,0.03343,0.97698,-0.18068,2023,6,8,14,33,33,338
4.28940,0.11130,-0.11043,0.00000,0.03270,0.97771,-0.17727,2023,6,8,14,33,33,349
4.28950,0.12880,-0.05793,0.00000,0.03331,0.97698,-0.18105,2023,6,8,14,33,33,360
4.28960,0.02380,0.01207,0.00000,0.03233,0.97600,-0.17873,2023,6,8,14,33,33,371
4.28970,-0.06370,0.08207,0.00000,0.03099,0.97856,-0.17836,2023,6,8,14,33,33,382
4.28980,-0.08120,-0.11043,0.00000,0.03221,0.97905,-0.18080,2023,6,8,14,33,33,393
4.28990,-0.11620,0.04707,0.00000,0.03355,0.97759,-0.17971,2023,6,8,14,33,33,404
4.29000,0.00630,-0.18043,0.00000,0.03282,0.97673,-0.17812,2023,6,8,14,33,33,415
4.29010,0.09380,0.01207,0.00000,0.03367,0.97515,-0.18007,2023,6,8,14,33,33,427
4.29020,-0.09870,0.18707,0.00000,0.03209,0.97746,-0.18093,2023,6,8,14,33,33,438
4.29030,0.05880,0.01207,0.00000,0.03257,0.97734,-0.17934,2023,6,8,14,33,33,449
4.29040,0.02380,0.13457,0.00000,0.03367,0.97795,-0.17958,2023,6,8,14,33,33,460
4.29050,0.05880,-0.12793,0.00000,0.03172,0.97698,-0.18044,2023,6,8,14,33,33,471
4.29060,0.00630,-0.04043,0.00000,0.03306,0.97771,-0.17983,2023,6,8,14,33,33,482
4.29070,0.04130,-0.09293,0.00000,0.03367,0.97563,-0.18117,2023,6,8,14,33,33,493
4.29080,0.16380,-0.19793,0.00000,0.03501,0.97600,-0.18080,2023,6,8,14,33,33,504
4.29090,0.18130,0.06457,0.00000,0.03026,0.97954,-0.17910,2023,6,8,14,33,33,515
4.29100,0.07630,0.08207,0.00000,0.03099,0.97917,-0.18056,2023,6,8,14,33,33,527
4.29110,0.12880,0.18707,0.00000,0.03209,0.97637,-0.17897,2023,6,8,14,33,33,538
4.29120,-0.02870,0.22207,0.00000,0.03123,0.97795,-0.18080,2023,6,8,14,33,33,549
4.29130,0.05880,-0.05793,0.00000,0.03428,0.97649,-0.17910,2023,6,8,14,33,33,560
4.29140,-0.13370,-0.18043,0.00000,0.03428,0.97917,-0.18068,2023,6,8,14,33,33,571
4.29150,0.05880,0.09957,0.00000,0.03306,0.97771,-0.17983,2023,6,8,14,33,33,582
4.29160,0.02380,0.06457,0.00000,0.03245,0.97893,-0.17836,2023,6,8,14,33,33,593
4.29170,-0.02870,-0.16293,0.00000,0.02952,0.97685,-0.17934,2023,6,8,14,33,33,604
4.29180,0.12880,-0.00543,0.00000,0.03331,0.98015,-0.17995,2023,6,8,14,33,33,615
4.29190,0.04130,-0.05793,0.00000,0.03416,0.97649,-0.17983,2023,6,8,14,33,33,627
4.29200,-0.13370,-0.02293,0.00000,0.03282,0.97759,-0.18093,2023,6,8,14,33,33,638
4.29210,0.07630,0.04707,0.00000,0.03379,0.97868,-0.18056,2023,6,8,14,33,33,649
4.29220,0.09380,0.01207,0.00000,0.03233,0.97868,-0.18044,2023,6,8,14,33,33,660
4.29230,0.02380,0.18707,0.00000,0.03135,0.97673,-0.18044,2023,6,8,14,33,33,671
4.29240,-0.16870,0.09957,0.00000,0.03172,0.97698,-0.18093,2023,6,8,14,33,33,682
4.29250,-0.01120,-0.00543,0.00000,0.03379,0.97576,-0.18068,2023,6,8,14,33,33,693
4.29260,0.19880,-0.11043,0.00000,0.03270,0.97539,-0.18056,2023,6,8,14,33,33,704
4.29270,0.02380,0.02957,0.00000,0.03428,0.97759,-0.18154,2023,6,8,14,33,33,715
4.29280,-0.18620,0.04707,0.00000,0.03392,0.97881,-0.17946,2023,6,8,14,33,33,727
4.29290,-0.01120,0.06457,0.00000,0.03233,0.97685,-0.18044,2023,6,8,14,33,33,738
4.29300,-0.01120,-0.00543,0.00000,0.03245,0.97734,-0.17995,2023,6,8,14,33,33,749
4.29310,-0.06370,0.16957,0.00000,0.03440,0.97551,-0.17922,2023,6,8,14,33,33,760
4.29320,0.11130,-0.02293,0.00000,0.03074,0.97710,-0.18019,2023,6,8,14,33,33,771
4.29330,0.09380,0.08207,0.00000,0.03367,0.97539,-0.17922,2023,6,8,14,33,33,782
4.29340,0.02380,-0.00543,0.00000,0.03318,0.97734,-0.17824,2023,6,8,14,33,33,793
4.29350,-0.02870,0.08207,0.00000,0.03355,0.97807,-0.17983,2023,6,8,14,33,33,804
4.29360,0.18130,-0.07543,0.00000,0.03172,0.97661,-0.17824,2023,6,8,14,33,33,815
4.29370,0.16380,-0.11043,0.00000,0.03404,0.97649,-0.17946,2023,6,8,14,33,33,827
4.29380,0.14630,0.08207,0.00000,0.03416,0.97807,-0.17958,2023,6,8,14,33,33,838
4.29390,-0.06370,0.06457,0.00000,0.03392,0.97698,-0.17885,2023,6,8,14,33,33,849
4.29400,0.00630,0.13457,0.00000,0.03257,0.97807,-0.17922,2023,6,8,14,33,33,860
4.29410,-0.08120,0.15207,0.00000,0.03282,0.97637,-0.17861,2023,6,8,14,33,33,871
4.29420,-0.08120,-0.05793,0.00000,0.03416,0.97685,-0.17971,2023,6,8,14,33,33,882
4.29430,0.12880,0.06457,0.00000,0.03209,0.97795,-0.17836,2023,6,8,14,33,33,893
4.29440,-0.09870,-0.12793,0.00000,0.03294,0.97527,-0.17800,2023,6,8,14,33,33,904
4.29450,-0.20370,0.23957,0.00000,0.03404,0.97734,-0.18032,2023,6,8,14,33,33,915
4.29460,0.04130,0.11707,0.00000,0.03270,0.97795,-0.17995,2023,6,8,14,33,33,927
4.29470,0.14630,0.02957,0.00000,0.03196,0.97698,-0.17788,2023,6,8,14,33,33,938
4.29480,0.05880,-0.11043,0.00000,0.03392,0.97612,-0.17788,2023,6,8,14,33,33,949
4.29490,-0.01120,0.04707,0.00000,0.03306,0.97795,-0.17751,2023,6,8,14,33,33,960
4.29500,0.02380,0.02957,0.00000,0.03416,0.97868,-0.17763,2023,6,8,14,33,33,971
4.29510,0.12880,-0.04043,0.00000,0.03282,0.97673,-0.18056,2023,6,8,14,33,33,982
4.29520,0.05880,-0.02293,0.00000,0.03233,0.97710,-0.17849,2023,6,8,14,33,33,993
4.29530,0.25130,0.04707,0.00000,0.03282,0.97820,-0.17885,2023,6,8,14,33,33,4
4.29540,-0.08120,-0.04043,0.00000,0.03123,0.97673,-0.17983,2023,6,8,14,33,33,15
4.29550,0.05880,-0.00543,0.00000,0.03355,0.97844,-0.18007,2023,6,8,14,33,33,27
4.29560,0.07630,0.01207,0.00000,0.03209,0.97551,-0.17922,2023,6,8,14,33,33,38
4.29570,0.12880,-0.04043,0.00000,0.03367,0.97795,-0.17934,2023,6,8,14,33,33,49
4.29580,-0.04620,0.08207,0.00000,0.03221,0.97771,-0.17983,2023,6,8,14,33,33,60
4.29590,-0.11620,0.08207,0.00000,0.03343,0.97600,-0.18178,2023,6,8,14,33,33,71
4.29600,-0.06370,0.16957,0.00000,0.03331,0.97478,-0.17946,2023,6,8,14,33,33,82
4.29610,-0.15120,0.18707,0.00000,0.03331,0.97856,-0.18032,2023,6,8,14,33,33,93
4.29620,-0.13370,-0.14543,0.00000,0.03343,0.97563,-0.18056,2023,6,8,14,33,33,104
4.29630,-0.08120,0.09957,0.00000,0.03367,0.97832,-0.17873,2023,6,8,14,33,33,115
4.29640,0.02380,-0.02293,0.00000,0.03135,0.97771,-0.17983,2023,6,8,14,33,33,127
4.29650,0.05880,0.02957,0.00000,0.03416,0.97576,-0.17666,2023,6,8,14,33,33,138
4.29660,-0.11620,0.04707,0.00000,0.03465,0.97966,-0.17714,2023,6,8,14,33,33,149
4.29670,0.04130,0.04707,0.00000,0.03184,0.97746,-0.18032,2023,6,8,14,33,33,160
4.29680,-0.06370,0.04707,0.00000,0.03172,0.97917,-0.17788,2023,6,8,14,33,33,171
4.29690,0.11130,-0.04043,0.00000,0.03343,0.97722,-0.18105,2023,6,8,14,33,33,182
4.29700,0.19880,-0.16293,0.00000,0.03343,0.97698,-0.17897,2023,6,8,14,33,33,193
4.29710,-0.09870,0.16957,0.00000,0.03379,0.97734,-0.18044,2023,6,8,14,33,33,204
4.29720,0.04130,0.22207,0.00000,0.03172,0.97868,-0.17629,2023,6,8,14,33,33,215
4.29730,-0.06370,-0.09293,0.00000,0.03257,0.97637,-0.17910,2023,6,8,14,33,33,227
4.29740,0.09380,-0.09293,0.00000,0.03343,0.97722,-0.17934,2023,6,8,14,33,33,238
4.29750,0.14630,-0.02293,0.00000,0.03209,0.97807,-0.17873,2023,6,8,14,33,33,249
4.29760,-0.02870,-0.04043,0.00000,0.03404,0.97807,-0.17775,2023,6,8,14,33,33,260
4.29770,0.05880,-0.00543,0.00000,0.03087,0.97637,-0.17910,2023,6,8,14,33,33,271
4.29780,0.05880,-0.19793,0.00000,0.03343,0.97722,-0.17922,2023,6,8,14,33,33,282
4.29790,-0.02870,0.13457,0.00000,0.03306,0.97844,-0.17812,2023,6,8,14,33,33,293
4.29800,-0.16870,0.30957,0.00000,0.03233,0.97637,-0.17885,2023,6,8,14,33,33,304
4.29810,0.16380,0.04707,0.00000,0.03233,0.97649,-0.17873,2023,6,8,14,33,33,315
4.29820,0.09380,0.01207,0.00000,0.03221,0.97637,-0.17983,2023,6,8,14,33,33,327
4.29830,0.09380,0.04707,0.00000,0.03221,0.97759,-0.17836,2023,6,8,14,33,33,338
4.29840,-0.18620,0.09957,0.00000,0.03306,0.97783,-0.17971,2023,6,8,14,33,33,349
4.29850,-0.04620,0.13457,0.00000,0.03245,0.97710,-0.17934,2023,6,8,14,33,33,360
4.29860,-0.01120,-0.12793,0.00000,0.03123,0.97746,-0.17885,2023,6,8,14,33,33,371
4.29870,-0.01120,-0.07543,0.00000,0.03282,0.97783,-0.17812,2023,6,8,14,33,33,382
4.29880,0.02380,-0.21543,0.00000,0.03245,0.97722,-0.18056,2023,6,8,14,33,33,393
4.29890,0.07630,0.04707,0.00000,0.03392,0.97673,-0.17714,2023,6,8,14,33,33,404
4.29900,0.00630,0.02957,0.00000,0.03392,0.97649,-0.18007,2023,6,8,14,33,33,415
4.29910,-0.04620,0.11707,0.00000,0.03331,0.97710,-0.17763,2023,6,8,14,33,33,427
4.29920,0.14630,0.01207,0.00000,0.03294,0.97563,-0.17812,2023,6,8,14,33,33,438
4.29930,-0.13370,0.06457,0.00000,0.03453,0.97893,-0.17861,2023,6,8,14,33,33,449
4.29940,0.04130,0.06457,0.00000,0.03355,0.97624,-0.17946,2023,6,8,14,33,33,460
4.29950,-0.11620,0.09957,0.00000,0.03294,0.97734,-0.17897,2023,6,8,14,33,33,471
4.29960,-0.08120,-0.07543,0.00000,0.03209,0.97698,-0.17739,2023,6,8,14,33,33,482
4.29970,0.04130,-0.14543,0.00000,0.03294,0.97722,-0.18044,2023,6,8,14,33,33,493
4.29980,0.09380,0.06457,0.00000,0.03392,0.97746,-0.17800,2023,6,8,14,33,33,504
4.29990,-0.18620,0.04707,0.00000,0.03123,0.98015,-0.17934,2023,6,8,14,33,33,515
4.30000,0.02380,-0.07543,0.00000,0.03477,0.97624,-0.17873,2023,6,8,14,33,33,527
4.30010,-0.09870,-0.09293,0.00000,0.03294,0.97832,-0.18044,2023,6,8,14,33,33,538
4.30020,0.28630,-0.19793,0.00000,0.03331,0.97698,-0.17836,2023,6,8,14,33,33,549
4.30030,0.05880,-0.07543,0.00000,0.03367,0.97624,-0.17946,2023,6,8,14,33,33,560
4.30040,0.02380,0.06457,0.00000,0.02989,0.97734,-0.17910,2023,6,8,14,33,33,571
4.30050,-0.01120,0.02957,0.00000,0.03331,0.97673,-0.17739,2023,6,8,14,33,33,582
4.30060,0.02380,0.09957,0.00000,0.03318,0.97746,-0.17739,2023,6,8,14,33,33,593
4.30070,0.04130,-0.14543,0.00000,0.03111,0.97746,-0.17958,2023,6,8,14,33,33,604
4.30080,0.00630,0.01207,0.00000,0.03331,0.97783,-0.17934,2023,6,8,14,33,33,615
4.30090,0.07630,0.41457,0.00000,0.03196,0.97685,-0.17739,2023,6,8,14,33,33,627
4.30100,0.04130,0.15207,0.00000,0.03367,0.97832,-0.17861,2023,6,8,14,33,33,638
4.30110,0.14630,0.02957,0.00000,0.03221,0.97795,-0.17836,2023,6,8,14,33,33,649
4.30120,-0.09870,-0.09293,0.00000,0.03233,0.97832,-0.17666,2023,6,8,14,33,33,660
4.30130,0.05880,-0.02293,0.00000,0.03294,0.97527,-0.17910,2023,6,8,14,33,33,671
4.30140,0.04130,0.02957,0.00000,0.03123,0.97515,-0.17629,2023,6,8,14,33,33,682
4.30150,-0.06370,-0.00543,0.00000,0.03013,0.97698,-0.17958,2023,6,8,14,33,34,3
4.30160,0.07630,-0.00543,0.00000,0.03343,0.97856,-0.17678,2023,6,8,14,33,34,14
4.30170,-0.16870,-0.11043,0.00000,0.03111,0.97807,-0.18068,2023,6,8,14,33,34,25
4.30180,0.00630,0.06457,0.00000,0.03318,0.97661,-0.17727,2023,6,8,14,33,34,37
4.30190,-0.01120,0.29207,0.00000,0.03367,0.97820,-0.17702,2023,6,8,14,33,34,48
4.30200,0.05880,0.02957,0.00000,0.03245,0.97722,-0.17910,2023,6,8,14,33,34,59
4.30210,-0.04620,0.16957,0.00000,0.03282,0.97698,-0.17714,2023,6,8,14,33,34,70
4.30220,0.05880,0.22207,0.00000,0.03379,0.97576,-0.17751,2023,6,8,14,33,34,81
4.30230,0.00630,-0.11043,0.00000,0.03257,0.97771,-0.17971,2023,6,8,14,33,34,92
4.30240,-0.02870,0.06457,0.00000,0.03148,0.97844,-0.17763,2023,6,8,14,33,34,103
4.30250,-0.11620,0.20457,0.00000,0.03221,0.97746,-0.17946,2023,6,8,14,33,34,114
4.30260,-0.08120,0.08207,0.00000,0.03294,0.97734,-0.17751,2023,6,8,14,33,34,125
4.30270,0.02380,0.06457,0.00000,0.03282,0.97868,-0.18007,2023,6,8,14,33,34,137
4.30280,0.00630,-0.14543,0.00000,0.03318,0.97685,-0.17885,2023,6,8,14,33,34,148
4.30290,0.14630,-0.05793,0.00000,0.03099,0.97844,-0.17751,2023,6,8,14,33,34,159
4.30300,0.04130,-0.28543,0.00000,0.03453,0.97844,-0.17702,2023,6,8,14,33,34,170
4.30310,-0.01120,-0.05793,0.00000,0.03343,0.97588,-0.17812,2023,6,8,14,33,34,181
4.30320,-0.01120,0.02957,0.00000,0.03440,0.97966,-0.17727,2023,6,8,14,33,34,192
4.30330,-0.08120,0.11707,0.00000,0.03148,0.97820,-0.17775,2023,6,8,14,33,34,203
4.30340,0.21630,0.02957,0.00000,0.03257,0.97820,-0.17971,2023,6,8,14,33,34,214
4.30350,0.05880,0.11707,0.00000,0.03355,0.97710,-0.17873,2023,6,8,14,33,34,225
4.30360,-0.02870,-0.18043,0.00000,0.03306,0.97783,-0.17922,2023,6,8,14,33,34,237
4.30370,-0.01120,0.08207,0.00000,0.03233,0.97759,-0.17897,2023,6,8,14,33,34,248
4.30380,0.21630,-0.02293,0.00000,0.03233,0.97942,-0.17836,2023,6,8,14,33,34,259
4.30390,-0.18620,0.27457,0.00000,0.03294,0.97795,-0.18154,2023,6,8,14,33,34,270
4.30400,0.21630,-0.18043,0.00000,0.03233,0.97649,-0.17800,2023,6,8,14,33,34,281
4.30410,0.12880,-0.02293,0.00000,0.03514,0.97734,-0.17751,2023,6,8,14,33,34,292
4.30420,-0.02870,0.08207,0.00000,0.03221,0.97905,-0.17751,2023,6,8,14,33,34,303
4.30430,0.02380,0.23957,0.00000,0.03489,0.97746,-0.18056,2023,6,8,14,33,34,314
4.30440,0.02380,0.01207,0.00000,0.03148,0.97795,-0.17958,2023,6,8,14,33,34,325
4.30450,-0.02870,-0.04043,0.00000,0.03245,0.97722,-0.17568,2023,6,8,14,33,34,337
4.30460,0.02380,0.04707,0.00000,0.03245,0.97698,-0.17873,2023,6,8,14,33,34,348
4.30470,0.09380,0.02957,0.00000,0.03306,0.97746,-0.18044,2023,6,8,14,33,34,359
4.30480,0.04130,-0.11043,0.00000,0.03233,0.97759,-0.17824,2023,6,8,14,33,34,370
4.30490,0.19880,-0.21543,0.00000,0.03282,0.97685,-0.17739,2023,6,8,14,33,34,381
4.30500,0.07630,0.15207,0.00000,0.03440,0.98003,-0.17824,2023,6,8,14,33,34,392
4.30510,-0.11620,-0.04043,0.00000,0.03306,0.97661,-0.17922,2023,6,8,14,33,34,403
4.30520,-0.08120,-0.05793,0.00000,0.03270,0.97624,-0.17641,2023,6,8,14,33,34,414
4.30530,0.07630,-0.02293,0.00000,0.03331,0.97649,-0.18019,2023,6,8,14,33,34,425
4.30540,-0.01120,-0.12793,0.00000,0.03575,0.97905,-0.17836,2023,6,8,14,33,34,437
4.30550,-0.11620,-0.07543,0.00000,0.03318,0.98015,-0.17714,2023,6,8,14,33,34,448
4.30560,-0.08120,0.06457,0.00000,0.03282,0.97624,-0.17739,2023,6,8,14,33,34,459
4.30570,0.09380,-0.00543,0.00000,0.03294,0.97954,-0.17958,2023,6,8,14,33,34,470
4.30580,-0.13370,0.25707,0.00000,0.03331,0.97917,-0.17849,2023,6,8,14,33,34,481
4.30590,0.04130,0.15207,0.00000,0.03184,0.97722,-0.17934,2023,6,8,14,33,34,492
4.30600,0.09380,0.06457,0.00000,0.03233,0.97746,-0.18068,2023,6,8,14,33,34,503
4.30610,-0.06370,0.01207,0.00000,0.03306,0.97478,-0.17983,2023,6,8,14,33,34,514
4.30620,-0.22120,0.18707,0.00000,0.03379,0.97685,-0.17690,2023,6,8,14,33,34,525
4.30630,0.00630,0.02957,0.00000,0.03392,0.97685,-0.17653,2023,6,8,14,33,34,537
4.30640,0.11130,0.13457,0.00000,0.03111,0.97929,-0.17885,2023,6,8,14,33,34,548
4.30650,-0.08120,0.15207,0.00000,0.03331,0.97807,-0.18080,2023,6,8,14,33,34,559
4.30660,0.07630,0.09957,0.00000,0.03148,0.97551,-0.17824,2023,6,8,14,33,34,570
4.30670,-0.06370,0.13457,0.00000,0.03270,0.97734,-0.17788,2023,6,8,14,33,34,581
4.30680,-0.02870,0.25707,0.00000,0.03087,0.97490,-0.17800,2023,6,8,14,33,34,592
4.30690,0.05880,0.02957,0.00000,0.03209,0.97868,-0.17873,2023,6,8,14,33,34,603
4.30700,-0.16870,-0.09293,0.00000,0.03074,0.97881,-0.17958,2023,6,8,14,33,34,614
4.30710,0.16380,0.11707,0.00000,0.03294,0.97612,-0.18007,2023,6,8,14,33,34,625
4.30720,0.11130,0.13457,0.00000,0.03392,0.97917,-0.17751,2023,6,8,14,33,34,637
4.30730,0.14630,-0.14543,0.00000,0.03257,0.97893,-0.17995,2023,6,8,14,33,34,648
4.30740,0.19880,-0.04043,0.00000,0.03355,0.97868,-0.17690,2023,6,8,14,33,34,659
4.30750,0.09380,-0.05793,0.00000,0.03172,0.97759,-0.17946,2023,6,8,14,33,34,670
4.30760,0.05880,0.04707,0.00000,0.03355,0.97929,-0.17849,2023,6,8,14,33,34,681
4.30770,-0.15120,0.30957,0.00000,0.03172,0.97685,-0.17727,2023,6,8,14,33,34,692
4.30780,-0.08120,-0.04043,0.00000,0.03526,0.97624,-0.17971,2023,6,8,14,33,34,703
4.30790,0.07630,0.06457,0.00000,0.03160,0.97881,-0.17824,2023,6,8,14,33,34,714
4.30800,-0.13370,-0.09293,0.00000,0.03257,0.97734,-0.17836,2023,6,8,14,33,34,725
4.30810,-0.04620,0.15207,0.00000,0.03343,0.97637,-0.17836,2023,6,8,14,33,34,737
4.30820,0.02380,0.04707,0.00000,0.03270,0.97612,-0.17812,2023,6,8,14,33,34,748
4.30830,0.07630,-0.11043,0.00000,0.03270,0.97868,-0.17922,2023,6,8,14,33,34,759
4.30840,-0.01120,0.09957,0.00000,0.03318,0.97783,-0.17788,2023,6,8,14,33,34,770
4.30850,0.02380,-0.05793,0.00000,0.03477,0.97734,-0.17836,2023,6,8,14,33,34,781
4.30860,0.05880,-0.04043,0.00000,0.03221,0.97637,-0.18044,2023,6,8,14,33,34,792
4.30870,0.12880,0.09957,0.00000,0.03294,0.97685,-0.17922,2023,6,8,14,33,34,803
4.30880,-0.09870,-0.02293,0.00000,0.03184,0.97673,-0.17812,2023,6,8,14,33,34,814
4.30890,-0.01120,-0.00543,0.00000,0.03331,0.97624,-0.17873,2023,6,8,14,33,34,825
4.30900,-0.04620,0.01207,0.00000,0.03416,0.97722,-0.17946,2023,6,8,14,33,34,837
4.30910,0.02380,-0.00543,0.00000,0.03343,0.97844,-0.17812,2023,6,8,14,33,34,848
4.30920,0.12880,0.06457,0.00000,0.03306,0.97746,-0.17690,2023,6,8,14,33,34,859
4.30930,-0.04620,-0.09293,0.00000,0.03428,0.97795,-0.17971,2023,6,8,14,33,34,870
4.30940,0.19880,-0.07543,0.00000,0.03282,0.97624,-0.18056,2023,6,8,14,33,34,881
4.30950,-0.01120,0.15207,0.00000,0.03465,0.97844,-0.17934,2023,6,8,14,33,34,892
4.30960,0.07630,-0.07543,0.00000,0.03318,0.98015,-0.17971,2023,6,8,14,33,34,903
4.30970,0.07630,-0.09293,0.00000,0.03074,0.97588,-0.18007,2023,6,8,14,33,34,914
4.30980,-0.20370,0.08207,0.00000,0.03221,0.97783,-0.17983,2023,6,8,14,33,34,925
4.30990,-0.02870,0.23957,0.00000,0.03367,0.97844,-0.17788,2023,6,8,14,33,34,937
4.31000,0.04130,0.09957,0.00000,0.03306,0.97551,-0.17971,2023,6,8,14,33,34,948
4.31010,0.02380,-0.02293,0.00000,0.03221,0.97795,-0.17788,2023,6,8,14,33,34,959
4.31020,0.04130,0.02957,0.00000,0.03257,0.97722,-0.18032,2023,6,8,14,33,34,970
4.31030,-0.06370,0.11707,0.00000,0.03257,0.97832,-0.17983,2023,6,8,14,33,34,981
4.31040,-0.18620,0.16957,0.00000,0.03111,0.97734,-0.17849,2023,6,8,14,33,34,992
4.31050,0.09380,0.11707,0.00000,0.03111,0.97600,-0.18007,2023,6,8,14,33,35,3
4.31060,-0.13370,0.13457,0.00000,0.03135,0.97734,-0.17934,2023,6,8,14,33,35,14
4.31070,0.04130,0.01207,0.00000,0.03318,0.97917,-0.18007,2023,6,8,14,33,35,25
4.31080,-0.04620,-0.00543,0.00000,0.03221,0.97551,-0.18166,2023,6,8,14,33,35,37
4.31090,0.09380,-0.00543,0.00000,0.03392,0.97746,-0.17897,2023,6,8,14,33,35,48
4.31100,0.11130,-0.07543,0.00000,0.03184,0.97844,-0.17922,2023,6,8,14,33,35,59
4.31110,-0.09870,0.36207,0.00000,0.03233,0.97954,-0.17910,2023,6,8,14,33,35,70
4.31120,-0.08120,0.22207,0.00000,0.03099,0.97685,-0.17995,2023,6,8,14,33,35,81
4.31130,-0.13370,0.06457,0.00000,0.03099,0.97759,-0.18056,2023,6,8,14,33,35,92
4.31140,0.12880,-0.23293,0.00000,0.03367,0.97734,-0.18007,2023,6,8,14,33,35,103
4.31150,-0.08120,-0.02293,0.00000,0.03294,0.97832,-0.18154,2023,6,8,14,33,35,114
4.31160,-0.01120,0.08207,0.00000,0.03111,0.97881,-0.18056,2023,6,8,14,33,35,125
4.31170,-0.01120,-0.12793,0.00000,0.03196,0.97734,-0.17946,2023,6,8,14,33,35,137
4.31180,-0.02870,0.15207,0.00000,0.03209,0.97795,-0.17910,2023,6,8,14,33,35,148
4.31190,-0.04620,0.18707,0.00000,0.03184,0.97624,-0.17788,2023,6,8,14,33,35,159
4.31200,-0.13370,0.13457,0.00000,0.03160,0.97673,-0.17971,2023,6,8,14,33,35,170
4.31210,-0.02870,0.01207,0.00000,0.03270,0.97966,-0.18190,2023,6,8,14,33,35,181
4.31220,0.02380,-0.18043,0.00000,0.03257,0.97844,-0.17946,2023,6,8,14,33,35,192
4.31230,-0.13370,0.13457,0.00000,0.03148,0.97539,-0.17910,2023,6,8,14,33,35,203
4.31240,0.05880,-0.04043,0.00000,0.03318,0.97783,-0.17971,2023,6,8,14,33,35,214
4.31250,0.12880,0.01207,0.00000,0.03184,0.97856,-0.17958,2023,6,8,14,33,35,225
4.31260,-0.06370,0.04707,0.00000,0.03184,0.97759,-0.18093,2023,6,8,14,33,35,237
4.31270,0.07630,-0.04043,0.00000,0.03355,0.97844,-0.17800,2023,6,8,14,33,35,248
4.31280,0.09380,0.09957,0.00000,0.03404,0.97649,-0.17788,2023,6,8,14,33,35,259
4.31290,0.09380,0.13457,0.00000,0.03184,0.97673,-0.17922,2023,6,8,14,33,35,270
4.31300,-0.08120,-0.00543,0.00000,0.03184,0.97490,-0.17946,2023,6,8,14,33,35,281
4.31310,0.07630,-0.12793,0.00000,0.03428,0.97734,-0.17861,2023,6,8,14,33,35,292
4.31320,0.04130,-0.00543,0.00000,0.03416,0.97783,-0.18117,2023,6,8,14,33,35,303
4.31330,-0.06370,0.16957,0.00000,0.03514,0.97856,-0.17983,2023,6,8,14,33,35,314
4.31340,0.09380,-0.25043,0.00000,0.03367,0.97478,-0.17897,2023,6,8,14,33,35,325
4.31350,0.02380,0.11707,0.00000,0.03477,0.98051,-0.17885,2023,6,8,14,33,35,337
4.31360,-0.01120,0.13457,0.00000,0.03318,0.97673,-0.17922,2023,6,8,14,33,35,348
4.31370,-0.04620,0.01207,0.00000,0.03367,0.97807,-0.18202,2023,6,8,14,33,35,359
4.31380,0.00630,-0.07543,0.00000,0.03343,0.97771,-0.18129,2023,6,8,14,33,35,370
4.31390,0.16380,0.01207,0.00000,0.03062,0.97698,-0.18080,2023,6,8,14,33,35,381
4.31400,0.12880,0.06457,0.00000,0.03331,0.97734,-0.18215,2023,6,8,14,33,35,392
4.31410,-0.15120,0.15207,0.00000,0.03001,0.97783,-0.18215,2023,6,8,14,33,35,403
4.31420,0.05880,0.09957,0.00000,0.03294,0.97515,-0.18227,2023,6,8,14,33,35,414
4.31430,-0.08120,0.20457,0.00000,0.03440,0.97868,-0.17946,2023,6,8,14,33,35,425
4.31440,-0.15120,-0.02293,0.00000,0.03318,0.97698,-0.17885,2023,6,8,14,33,35,437
4.31450,-0.08120,0.04707,0.00000,0.03184,0.97649,-0.17983,2023,6,8,14,33,35,448
4.31460,0.02380,-0.02293,0.00000,0.03404,0.97624,-0.18190,2023,6,8,14,33,35,459
4.31470,0.09380,-0.05793,0.00000,0.03379,0.97929,-0.17922,2023,6,8,14,33,35,470
4.31480,0.02380,-0.16293,0.00000,0.03392,0.97929,-0.18154,2023,6,8,14,33,35,481
4.31490,-0.02870,-0.02293,0.00000,0.03257,0.97929,-0.18068,2023,6,8,14,33,35,492
4.31500,0.02380,0.13457,0.00000,0.03209,0.97502,-0.18349,2023,6,8,14,33,35,503
4.31510,-0.06370,0.04707,0.00000,0.03221,0.97624,-0.18032,2023,6,8,14,33,35,514
4.31520,-0.04620,-0.07543,0.00000,0.03221,0.97539,-0.18190,2023,6,8,14,33,35,525
4.31530,-0.08120,0.15207,0.00000,0.03453,0.97722,-0.18093,2023,6,8,14,33,35,537
4.31540,0.16380,0.02957,0.00000,0.03233,0.97942,-0.18141,2023,6,8,14,33,35,548
4.31550,-0.02870,-0.07543,0.00000,0.03196,0.98027,-0.18166,2023,6,8,14,33,35,559
4.31560,0.00630,0.04707,0.00000,0.03367,0.97783,-0.18068,2023,6,8,14,33,35,570
4.31570,-0.02870,0.02957,0.00000,0.03453,0.97734,-0.18056,2023,6,8,14,33,35,581
4.31580,0.07630,0.06457,0.00000,0.03013,0.97783,-0.17971,2023,6,8,14,33,35,592
4.31590,-0.02870,-0.11043,0.00000,0.03331,0.97746,-0.18154,2023,6,8,14,33,35,603
4.31600,0.09380,-0.21543,0.00000,0.03343,0.97905,-0.17995,2023,6,8,14,33,35,614
4.31610,-0.22120,0.23957,0.00000,0.03428,0.97673,-0.18056,2023,6,8,14,33,35,625
4.31620,0.23380,-0.16293,0.00000,0.03306,0.97856,-0.18044,2023,6,8,14,33,35,637
4.31630,0.09380,-0.16293,0.00000,0.03221,0.97759,-0.18215,2023,6,8,14,33,35,648
4.31640,-0.01120,0.20457,0.00000,0.03233,0.98003,-0.17983,2023,6,8,14,33,35,659
4.31650,0.12880,-0.02293,0.00000,0.03148,0.97478,-0.18007,2023,6,8,14,33,35,670
4.31660,-0.06370,0.15207,0.00000,0.03343,0.97576,-0.18068,2023,6,8,14,33,35,681
4.31670,0.00630,-0.11043,0.00000,0.03123,0.97710,-0.17849,2023,6,8,14,33,35,692
4.31680,0.04130,-0.09293,0.00000,0.03245,0.97856,-0.18068,2023,6,8,14,33,35,703
4.31690,0.00630,0.15207,0.00000,0.03135,0.97893,-0.18044,2023,6,8,14,33,35,714
4.31700,-0.01120,-0.04043,0.00000,0.03416,0.97868,-0.17971,2023,6,8,14,33,35,725
4.31710,-0.06370,0.01207,0.00000,0.03257,0.97722,-0.17995,2023,6,8,14,33,35,737
4.31720,-0.04620,0.15207,0.00000,0.03270,0.97600,-0.18044,2023,6,8,14,33,35,748
4.31730,0.11130,0.20457,0.00000,0.03062,0.97576,-0.17910,2023,6,8,14,33,35,759
4.31740,0.05880,0.06457,0.00000,0.03636,0.97454,-0.18349,2023,6,8,14,33,35,770
4.31750,0.11130,-0.12793,0.00000,0.03294,0.98015,-0.18239,2023,6,8,14,33,35,781
4.31760,-0.08120,-0.07543,0.00000,0.03416,0.97917,-0.17946,2023,6,8,14,33,35,792
4.31770,-0.15120,0.01207,0.00000,0.03160,0.97698,-0.18288,2023,6,8,14,33,35,803
4.31780,0.11130,0.16957,0.00000,0.03233,0.97624,-0.18129,2023,6,8,14,33,35,814
4.31790,0.09380,0.06457,0.00000,0.03270,0.97771,-0.18190,2023,6,8,14,33,35,825
4.31800,-0.15120,0.02957,0.00000,0.03318,0.97490,-0.18093,2023,6,8,14,33,35,837
4.31810,-0.09870,0.20457,0.00000,0.03294,0.97881,-0.17922,2023,6,8,14,33,35,848
4.31820,-0.15120,0.11707,0.00000,0.03209,0.97612,-0.17910,2023,6,8,14,33,35,859
4.31830,0.11130,-0.02293,0.00000,0.03282,0.97746,-0.17946,2023,6,8,14,33,35,870
4.31840,-0.08120,-0.19793,0.00000,0.03160,0.97551,-0.18251,2023,6,8,14,33,35,881
4.31850,-0.01120,0.04707,0.00000,0.03050,0.97637,-0.17836,2023,6,8,14,33,35,892
4.31860,0.18130,0.06457,0.00000,0.03172,0.97710,-0.18141,2023,6,8,14,33,35,903
4.31870,-0.08120,-0.04043,0.00000,0.03099,0.97588,-0.17836,2023,6,8,14,33,35,914
4.31880,-0.13370,0.15207,0.00000,0.03501,0.97746,-0.17946,2023,6,8,14,33,35,925
4.31890,-0.11620,-0.00543,0.00000,0.03282,0.97868,-0.17861,2023,6,8,14,33,35,937
4.31900,-0.01120,0.09957,0.00000,0.03318,0.97673,-0.18166,2023,6,8,14,33,35,948
4.31910,-0.16870,0.06457,0.00000,0.03453,0.97637,-0.18044,2023,6,8,14,33,35,959
4.31920,0.11130,0.16957,0.00000,0.03294,0.97844,-0.17946,2023,6,8,14,33,35,970
4.31930,0.04130,0.15207,0.00000,0.03306,0.97905,-0.18032,2023,6,8,14,33,35,981
4.31940,-0.04620,-0.02293,0.00000,0.03416,0.97734,-0.17775,2023,6,8,14,33,35,992
4.31950,-0.11620,0.06457,0.00000,0.03196,0.97783,-0.17910,2023,6,8,14,33,36,3
4.31960,0.05880,-0.02293,0.00000,0.03343,0.97759,-0.18032,2023,6,8,14,33,36,14
4.31970,0.00630,0.04707,0.00000,0.03221,0.97612,-0.17946,2023,6,8,14,33,36,25
4.31980,0.18130,-0.04043,0.00000,0.03392,0.97612,-0.18056,2023,6,8,14,33,36,37
4.31990,0.00630,-0.05793,0.00000,0.03416,0.97734,-0.17836,2023,6,8,14,33,36,48
4.32000,0.09380,0.01207,0.00000,0.03306,0.97746,-0.17763,2023,6,8,14,33,36,59
4.32010,-0.11620,0.11707,0.00000,0.03392,0.97661,-0.18227,2023,6,8,14,33,36,70
4.32020,0.16380,-0.12793,0.00000,0.03087,0.97624,-0.17983,2023,6,8,14,33,36,81
4.32030,-0.06370,0.06457,0.00000,0.03367,0.97917,-0.17922,2023,6,8,14,33,36,92
4.32040,-0.08120,0.08207,0.00000,0.03087,0.97820,-0.18056,2023,6,8,14,33,36,103
4.32050,0.21630,-0.00543,0.00000,0.03306,0.97612,-0.17971,2023,6,8,14,33,36,114
4.32060,-0.09870,-0.11043,0.00000,0.03123,0.97917,-0.17983,2023,6,8,14,33,36,125
4.32070,-0.04620,0.08207,0.00000,0.03453,0.97771,-0.17897,2023,6,8,14,33,36,137
4.32080,0.00630,0.20457,0.00000,0.02989,0.97746,-0.17910,2023,6,8,14,33,36,148
4.32090,0.00630,0.01207,0.00000,0.03318,0.97917,-0.17836,2023,6,8,14,33,36,159
4.32100,-0.04620,0.15207,0.00000,0.03331,0.97868,-0.17983,2023,6,8,14,33,36,170
4.32110,0.14630,0.06457,0.00000,0.03343,0.97478,-0.18068,2023,6,8,14,33,36,181
4.32120,0.00630,-0.04043,0.00000,0.03050,0.98027,-0.17897,2023,6,8,14,33,36,192
4.32130,-0.01120,0.15207,0.00000,0.03379,0.97649,-0.17922,2023,6,8,14,33,36,203
4.32140,0.12880,0.02957,0.00000,0.03099,0.97942,-0.17946,2023,6,8,14,33,36,214
4.32150,0.09380,-0.02293,0.00000,0.03526,0.97588,-0.18202,2023,6,8,14,33,36,225
4.32160,0.14630,-0.00543,0.00000,0.03270,0.97746,-0.18044,2023,6,8,14,33,36,237
4.32170,0.14630,0.06457,0.00000,0.03099,0.97820,-0.17824,2023,6,8,14,33,36,248
4.32180,0.05880,-0.04043,0.00000,0.03111,0.97661,-0.18007,2023,6,8,14,33,36,259
4.32190,0.00630,0.02957,0.00000,0.03135,0.97820,-0.18056,2023,6,8,14,33,36,270
4.32200,-0.22120,0.04707,0.00000,0.03172,0.97917,-0.17958,2023,6,8,14,33,36,281
4.32210,0.12880,0.01207,0.00000,0.03355,0.97698,-0.18032,2023,6,8,14,33,36,292
4.32220,0.14630,0.16957,0.00000,0.03318,0.97734,-0.18044,2023,6,8,14,33,36,303
4.32230,-0.01120,0.20457,0.00000,0.03331,0.97759,-0.18044,2023,6,8,14,33,36,314
4.32240,-0.06370,-0.00543,0.00000,0.03233,0.97551,-0.17812,2023,6,8,14,33,36,325
4.32250,0.04130,0.13457,0.00000,0.03099,0.97698,-0.17897,2023,6,8,14,33,36,337
4.32260,-0.08120,0.15207,0.00000,0.03501,0.97685,-0.17922,2023,6,8,14,33,36,348
4.32270,-0.04620,0.02957,0.00000,0.03306,0.97722,-0.17958,2023,6,8,14,33,36,359
4.32280,0.12880,0.11707,0.00000,0.03282,0.97734,-0.17983,2023,6,8,14,33,36,370
4.32290,0.02380,0.01207,0.00000,0.03367,0.97698,-0.17934,2023,6,8,14,33,36,381
4.32300,-0.13370,0.27457,0.00000,0.03160,0.97917,-0.17763,2023,6,8,14,33,36,392
4.32310,-0.01120,-0.05793,0.00000,0.03196,0.97746,-0.18056,2023,6,8,14,33,36,403
4.32320,-0.04620,-0.11043,0.00000,0.03331,0.97576,-0.17775,2023,6,8,14,33,36,414
4.32330,0.00630,-0.02293,0.00000,0.03331,0.97624,-0.17910,2023,6,8,14,33,36,425
4.32340,0.07630,0.23957,0.00000,0.03184,0.98003,-0.17983,2023,6,8,14,33,36,437
4.32350,0.21630,-0.21543,0.00000,0.03392,0.97868,-0.17897,2023,6,8,14,33,36,448
4.32360,0.02380,0.13457,0.00000,0.03282,0.97685,-0.17983,2023,6,8,14,33,36,459
4.32370,0.05880,0.06457,0.00000,0.03221,0.97698,-0.17849,2023,6,8,14,33,36,470
4.32380,0.16380,-0.00543,0.00000,0.03135,0.97698,-0.18166,2023,6,8,14,33,36,481
4.32390,0.05880,0.04707,0.00000,0.03355,0.97783,-0.18117,2023,6,8,14,33,36,492
4.32400,-0.08120,0.11707,0.00000,0.03355,0.97527,-0.17971,2023,6,8,14,33,36,503
4.32410,0.00630,0.08207,0.00000,0.03367,0.97685,-0.17934,2023,6,8,14,33,36,514
4.32420,0.21630,-0.12793,0.00000,0.03148,0.97844,-0.17995,2023,6,8,14,33,36,525
4.32430,0.07630,-0.00543,0.00000,0.03270,0.97698,-0.18105,2023,6,8,14,33,36,537
4.32440,0.04130,-0.18043,0.00000,0.03343,0.97576,-0.17934,2023,6,8,14,33,36,548
4.32450,-0.09870,-0.00543,0.00000,0.03282,0.97771,-0.17971,2023,6,8,14,33,36,559
4.32460,0.02380,-0.00543,0.00000,0.03257,0.97746,-0.17946,2023,6,8,14,33,36,570
4.32470,0.07630,0.06457,0.00000,0.03257,0.97734,-0.18044,2023,6,8,14,33,36,581
4.32480,0.02380,0.02957,0.00000,0.03318,0.97734,-0.17739,2023,6,8,14,33,36,592
4.32490,0.12880,0.20457,0.00000,0.03355,0.97673,-0.17946,2023,6,8,14,33,36,603
4.32500,-0.01120,0.11707,0.00000,0.03038,0.97734,-0.17617,2023,6,8,14,33,36,614
4.32510,-0.11620,-0.14543,0.00000,0.03392,0.97893,-0.17958,2023,6,8,14,33,36,625
4.32520,-0.04620,0.06457,0.00000,0.03257,0.97759,-0.17641,2023,6,8,14,33,36,637
4.32530,0.11130,0.13457,0.00000,0.03135,0.97734,-0.17934,2023,6,8,14,33,36,648
4.32540,-0.01120,-0.12793,0.00000,0.03135,0.97820,-0.17971,2023,6,8,14,33,36,659
4.32550,-0.06370,0.13457,0.00000,0.03087,0.97624,-0.18032,2023,6,8,14,33,36,670
4.32560,0.05880,-0.05793,0.00000,0.03331,0.97856,-0.17958,2023,6,8,14,33,36,681
4.32570,0.09380,-0.21543,0.00000,0.03514,0.97624,-0.17836,2023,6,8,14,33,36,692
4.32580,-0.02870,-0.04043,0.00000,0.03416,0.97759,-0.17751,2023,6,8,14,33,36,703
4.32590,-0.06370,0.01207,0.00000,0.03123,0.97661,-0.17910,2023,6,8,14,33,36,714
4.32600,0.02380,0.13457,0.00000,0.03209,0.97515,-0.17885,2023,6,8,14,33,36,725
4.32610,-0.16870,0.09957,0.00000,0.03404,0.97807,-0.17934,2023,6,8,14,33,36,737
4.32620,-0.04620,0.04707,0.00000,0.03428,0.97685,-0.17836,2023,6,8,14,33,36,748
4.32630,-0.09870,0.01207,0.00000,0.03184,0.97783,-0.17971,2023,6,8,14,33,36,759
4.32640,-0.01120,-0.07543,0.00000,0.03294,0.97734,-0.18044,2023,6,8,14,33,36,770
4.32650,0.04130,0.06457,0.00000,0.03209,0.97771,-0.18032,2023,6,8,14,33,36,781
4.32660,0.25130,0.01207,0.00000,0.03099,0.97527,-0.17983,2023,6,8,14,33,36,792
4.32670,-0.06370,0.22207,0.00000,0.03245,0.97612,-0.17873,2023,6,8,14,33,36,803
4.32680,0.05880,0.08207,0.00000,0.03367,0.97746,-0.17885,2023,6,8,14,33,36,814
4.32690,-0.01120,0.02957,0.00000,0.03270,0.97759,-0.17946,2023,6,8,14,33,36,825
4.32700,0.25130,-0.19793,0.00000,0.03331,0.97673,-0.18007,2023,6,8,14,33,36,837
4.32710,0.07630,-0.04043,0.00000,0.03404,0.97746,-0.18019,2023,6,8,14,33,36,848
4.32720,-0.02870,0.13457,0.00000,0.03331,0.97954,-0.17910,2023,6,8,14,33,36,859
4.32730,0.00630,0.16957,0.00000,0.03209,0.97856,-0.17958,2023,6,8,14,33,36,870
4.32740,-0.04620,0.06457,0.00000,0.03477,0.97637,-0.17934,2023,6,8,14,33,36,881
4.32750,0.04130,0.01207,0.00000,0.03282,0.97624,-0.17836,2023,6,8,14,33,36,892
4.32760,-0.02870,-0.00543,0.00000,0.03074,0.97868,-0.18044,2023,6,8,14,33,36,903
4.32770,-0.16870,0.09957,0.00000,0.03477,0.97649,-0.17910,2023,6,8,14,33,36,914
4.32780,0.14630,0.08207,0.00000,0.03135,0.97807,-0.17934,2023,6,8,14,33,36,925
4.32790,0.05880,0.08207,0.00000,0.03160,0.97722,-0.18032,2023,6,8,14,33,36,937
4.32800,-0.06370,-0.09293,0.00000,0.03123,0.97795,-0.17897,2023,6,8,14,33,36,948
4.32810,-0.01120,0.15207,0.00000,0.03257,0.97771,-0.17629,2023,6,8,14,33,36,959
4.32820,-0.11620,0.02957,0.00000,0.03318,0.97868,-0.17958,2023,6,8,14,33,36,970
4.32830,-0.04620,0.09957,0.00000,0.03270,0.97759,-0.17958,2023,6,8,14,33,36,981
4.32840,0.04130,-0.05793,0.00000,0.03245,0.97856,-0.18141,2023,6,8,14,33,36,992
4.32850,0.16380,-0.11043,0.00000,0.03294,0.97868,-0.17873,2023,6,8,14,33,37,3
4.32860,0.07630,0.09957,0.00000,0.03355,0.97710,-0.17971,2023,6,8,14,33,37,14
4.32870,0.04130,-0.04043,0.00000,0.03428,0.97685,-0.17849,2023,6,8,14,33,37,25
4.32880,-0.11620,0.02957,0.00000,0.03343,0.97771,-0.18068,2023,6,8,14,33,37,37
4.32890,-0.09870,-0.02293,0.00000,0.03135,0.97807,-0.17885,2023,6,8,14,33,37,48
4.32900,-0.08120,0.27457,0.00000,0.03282,0.97612,-0.18105,2023,6,8,14,33,37,59
4.32910,-0.08120,0.11707,0.00000,0.03331,0.97832,-0.18080,2023,6,8,14,33,37,70
4.32920,-0.06370,-0.05793,0.00000,0.03489,0.97868,-0.18007,2023,6,8,14,33,37,81
4.32930,0.02380,-0.02293,0.00000,0.03270,0.97685,-0.18093,2023,6,8,14,33,37,92
4.32940,-0.01120,0.01207,0.00000,0.03026,0.97685,-0.18129,2023,6,8,14,33,37,103
4.32950,0.02380,-0.00543,0.00000,0.03501,0.97844,-0.17958,2023,6,8,14,33,37,114
4.32960,0.02380,0.09957,0.00000,0.03160,0.97783,-0.18105,2023,6,8,14,33,37,125
4.32970,0.02380,-0.05793,0.00000,0.03209,0.97612,-0.18129,2023,6,8,14,33,37,137
4.32980,0.21630,-0.11043,0.00000,0.03257,0.97966,-0.17946,2023,6,8,14,33,37,148
4.32990,0.00630,0.06457,0.00000,0.03416,0.97868,-0.18154,2023,6,8,14,33,37,159
4.33000,0.00630,0.13457,0.00000,0.03294,0.97734,-0.18373,2023,6,8,14,33,37,170
4.33010,0.04130,0.02957,0.00000,0.03184,0.97637,-0.18202,2023,6,8,14,33,37,181
4.33020,0.11130,-0.02293,0.00000,0.03172,0.97502,-0.18093,2023,6,8,14,33,37,192
4.33030,0.28630,-0.12793,0.00000,0.03428,0.98064,-0.18288,2023,6,8,14,33,37,203
4.33040,0.19880,-0.18043,0.00000,0.03099,0.97576,-0.18373,2023,6,8,14,33,37,214
4.33050,0.12880,-0.00543,0.00000,0.03160,0.97844,-0.18312,2023,6,8,14,33,37,225
4.33060,-0.02870,-0.23293,0.00000,0.03257,0.97771,-0.18312,2023,6,8,14,33,37,237
4.33070,-0.02870,0.04707,0.00000,0.03343,0.97637,-0.18141,2023,6,8,14,33,37,248
4.33080,0.00630,0.22207,0.00000,0.03257,0.97746,-0.18178,2023,6,8,14,33,37,259
4.33090,-0.09870,0.22207,0.00000,0.03367,0.97783,-0.18141,2023,6,8,14,33,37,270
4.33100,-0.09870,-0.12793,0.00000,0.03294,0.97893,-0.18117,2023,6,8,14,33,37,281
4.33110,0.00630,-0.11043,0.00000,0.03294,0.97685,-0.18044,2023,6,8,14,33,37,292
4.33120,0.05880,0.18707,0.00000,0.03160,0.97917,-0.18166,2023,6,8,14,33,37,303
4.33130,0.11130,0.06457,0.00000,0.03148,0.97771,-0.18422,2023,6,8,14,33,37,314
4.33140,-0.15120,0.25707,0.00000,0.03367,0.97734,-0.18251,2023,6,8,14,33,37,325
4.33150,-0.09870,0.01207,0.00000,0.03392,0.97771,-0.18129,2023,6,8,14,33,37,337
4.33160,-0.02870,0.02957,0.00000,0.03343,0.97502,-0.18080,2023,6,8,14,33,37,348
4.33170,0.07630,-0.11043,0.00000,0.03160,0.97929,-0.18032,2023,6,8,14,33,37,359
4.33180,0.18130,-0.25043,0.00000,0.03257,0.97478,-0.18056,2023,6,8,14,33,37,370
4.33190,-0.01120,0.11707,0.00000,0.03050,0.97783,-0.18129,2023,6,8,14,33,37,381
4.33200,-0.20370,0.09957,0.00000,0.03148,0.97661,-0.18251,2023,6,8,14,33,37,392
4.33210,0.04130,0.04707,0.00000,0.03428,0.97685,-0.18056,2023,6,8,14,33,37,403
4.33220,0.05880,-0.23293,0.00000,0.03221,0.97673,-0.18117,2023,6,8,14,33,37,414
4.33230,-0.16870,0.29207,0.00000,0.03294,0.97905,-0.17922,2023,6,8,14,33,37,425
4.33240,0.07630,-0.16293,0.00000,0.03221,0.97698,-0.18080,2023,6,8,14,33,37,437
4.33250,0.18130,0.04707,0.00000,0.03160,0.97710,-0.18227,2023,6,8,14,33,37,448
4.33260,-0.02870,-0.00543,0.00000,0.03160,0.97929,-0.18080,2023,6,8,14,33,37,459
4.33270,0.09380,-0.18043,0.00000,0.03306,0.97783,-0.18080,2023,6,8,14,33,37,470
4.33280,-0.09870,0.02957,0.00000,0.03550,0.97624,-0.18093,2023,6,8,14,33,37,481
4.33290,-0.01120,0.06457,0.00000,0.03123,0.97942,-0.18166,2023,6,8,14,33,37,492
4.33300,0.26880,-0.16293,0.00000,0.03257,0.97612,-0.17946,2023,6,8,14,33,37,503
4.33310,0.02380,-0.09293,0.00000,0.03160,0.97637,-0.18056,2023,6,8,14,33,37,514
4.33320,-0.02870,-0.05793,0.00000,0.03160,0.97783,-0.18093,2023,6,8,14,33,37,525
4.33330,0.02380,0.32707,0.00000,0.03477,0.97844,-0.18068,2023,6,8,14,33,37,537
4.33340,-0.11620,0.01207,0.00000,0.03135,0.97685,-0.18202,2023,6,8,14,33,37,548
4.33350,0.00630,0.04707,0.00000,0.03209,0.97807,-0.18093,2023,6,8,14,33,37,559
4.33360,0.05880,-0.07543,0.00000,0.03196,0.97661,-0.17958,2023,6,8,14,33,37,570
4.33370,0.04130,-0.05793,0.00000,0.03135,0.97820,-0.18068,2023,6,8,14,33,37,581
4.33380,0.12880,0.11707,0.00000,0.03294,0.97661,-0.17971,2023,6,8,14,33,37,592
4.33390,0.02380,0.04707,0.00000,0.03209,0.97685,-0.17812,2023,6,8,14,33,37,603
4.33400,0.00630,-0.00543,0.00000,0.03318,0.97551,-0.17983,2023,6,8,14,33,37,614
4.33410,0.16380,-0.04043,0.00000,0.03379,0.97734,-0.17849,2023,6,8,14,33,37,625
4.33420,0.00630,0.02957,0.00000,0.03209,0.97515,-0.18251,2023,6,8,14,33,37,637
4.33430,0.02380,-0.09293,0.00000,0.03331,0.97624,-0.17775,2023,6,8,14,33,37,648
4.33440,-0.04620,-0.02293,0.00000,0.03404,0.97710,-0.18056,2023,6,8,14,33,37,659
4.33450,0.00630,0.02957,0.00000,0.03111,0.97795,-0.17763,2023,6,8,14,33,37,670
4.33460,-0.08120,0.08207,0.00000,0.03282,0.97698,-0.17678,2023,6,8,14,33,37,681
4.33470,-0.25620,0.06457,0.00000,0.03270,0.97832,-0.17849,2023,6,8,14,33,37,692
4.33480,-0.13370,-0.00543,0.00000,0.03355,0.97868,-0.17836,2023,6,8,14,33,37,703
4.33490,0.19880,0.08207,0.00000,0.03392,0.97868,-0.17775,2023,6,8,14,33,37,714
4.33500,0.09380,-0.09293,0.00000,0.03270,0.97893,-0.17690,2023,6,8,14,33,37,725
4.33510,-0.08120,0.04707,0.00000,0.03221,0.97710,-0.18044,2023,6,8,14,33,37,737
4.33520,-0.08120,0.15207,0.00000,0.03270,0.97807,-0.18007,2023,6,8,14,33,37,748
4.33530,0.11130,0.13457,0.00000,0.03184,0.97759,-0.17934,2023,6,8,14,33,37,759
4.33540,0.05880,0.11707,0.00000,0.03245,0.97966,-0.17885,2023,6,8,14,33,37,770
4.33550,-0.18620,0.04707,0.00000,0.03270,0.97820,-0.17873,2023,6,8,14,33,37,781
4.33560,0.00630,0.16957,0.00000,0.03318,0.97807,-0.18056,2023,6,8,14,33,37,792
4.33570,-0.04620,0.06457,0.00000,0.03331,0.97868,-0.17934,2023,6,8,14,33,37,803
4.33580,0.09380,0.09957,0.00000,0.03196,0.97722,-0.17849,2023,6,8,14,33,37,814
4.33590,0.02380,0.11707,0.00000,0.03123,0.97551,-0.17910,2023,6,8,14,33,37,825
4.33600,0.00630,-0.00543,0.00000,0.03318,0.97624,-0.17971,2023,6,8,14,33,37,837
4.33610,0.04130,0.04707,0.00000,0.03196,0.97966,-0.17788,2023,6,8,14,33,37,848
4.33620,-0.08120,-0.16293,0.00000,0.03245,0.97685,-0.17995,2023,6,8,14,33,37,859
4.33630,-0.01120,-0.11043,0.00000,0.03599,0.97795,-0.17934,2023,6,8,14,33,37,870
4.33640,-0.01120,-0.09293,0.00000,0.03355,0.97771,-0.17946,2023,6,8,14,33,37,881
4.33650,0.00630,0.09957,0.00000,0.03160,0.97539,-0.17702,2023,6,8,14,33,37,892
4.33660,0.07630,-0.04043,0.00000,0.03209,0.97771,-0.17958,2023,6,8,14,33,37,903
4.33670,-0.11620,0.15207,0.00000,0.03245,0.97722,-0.17702,2023,6,8,14,33,37,914
4.33680,0.07630,-0.12793,0.00000,0.03123,0.97698,-0.17983,2023,6,8,14,33,37,925
4.33690,0.11130,0.01207,0.00000,0.03392,0.97612,-0.18019,2023,6,8,14,33,37,937
4.33700,-0.13370,0.16957,0.00000,0.03404,0.98027,-0.17861,2023,6,8,14,33,37,948
4.33710,-0.01120,0.06457,0.00000,0.03355,0.97759,-0.18007,2023,6,8,14,33,37,959
4.33720,-0.16870,0.09957,0.00000,0.03209,0.97502,-0.17885,2023,6,8,14,33,37,970
4.33730,0.02380,0.08207,0.00000,0.03221,0.97722,-0.17849,2023,6,8,14,33,37,981
4.33740,-0.02870,-0.00543,0.00000,0.02977,0.98039,-0.17849,2023,6,8,14,33,37,992
4.33750,-0.15120,0.02957,0.00000,0.03148,0.97807,-0.17995,2023,6,8,14,33,37,3
4.33760,0.02380,0.01207,0.00000,0.03404,0.97868,-0.17788,2023,6,8,14,33,38,4
4.33770,0.07630,0.01207,0.00000,0.03196,0.97624,-0.17763,2023,6,8,14,33,38,15
4.33780,0.09380,-0.09293,0.00000,0.03172,0.97966,-0.17739,2023,6,8,14,33,38,27
4.33790,-0.06370,0.09957,0.00000,0.03062,0.97966,-0.17958,2023,6,8,14,33,38,38
4.33800,-0.04620,0.04707,0.00000,0.03367,0.97661,-0.17666,2023,6,8,14,33,38,49
4.33810,-0.02870,0.06457,0.00000,0.03135,0.97698,-0.17568,2023,6,8,14,33,38,60
4.33820,0.02380,-0.00543,0.00000,0.03160,0.97722,-0.17666,2023,6,8,14,33,38,71
4.33830,0.16380,-0.00543,0.00000,0.03440,0.97673,-0.17727,2023,6,8,14,33,38,82
4.33840,0.07630,0.04707,0.00000,0.03379,0.97624,-0.17678,2023,6,8,14,33,38,93
4.33850,-0.04620,-0.16293,0.00000,0.03087,0.97832,-0.17568,2023,6,8,14,33,38,104
4.33860,0.09380,-0.04043,0.00000,0.03221,0.97722,-0.17922,2023,6,8,14,33,38,115
4.33870,-0.01120,0.13457,0.00000,0.03306,0.97990,-0.17739,2023,6,8,14,33,38,127
4.33880,0.02380,-0.00543,0.00000,0.03343,0.97746,-0.17861,2023,6,8,14,33,38,138
4.33890,-0.01120,0.08207,0.00000,0.03233,0.97722,-0.17519,2023,6,8,14,33,38,149
4.33900,0.18130,0.01207,0.00000,0.03282,0.97844,-0.17580,2023,6,8,14,33,38,160
4.33910,-0.08120,-0.04043,0.00000,0.03123,0.97649,-0.18032,2023,6,8,14,33,38,171
4.33920,-0.13370,0.18707,0.00000,0.03245,0.97893,-0.17775,2023,6,8,14,33,38,182
4.33930,-0.09870,-0.00543,0.00000,0.03306,0.97673,-0.17788,2023,6,8,14,33,38,193
4.33940,0.04130,0.01207,0.00000,0.03257,0.97698,-0.17812,2023,6,8,14,33,38,204
4.33950,0.19880,-0.05793,0.00000,0.03343,0.97917,-0.17824,2023,6,8,14,33,38,215
4.33960,-0.01120,-0.00543,0.00000,0.03294,0.97795,-0.17922,2023,6,8,14,33,38,227
4.33970,-0.02870,0.08207,0.00000,0.03221,0.97905,-0.17751,2023,6,8,14,33,38,238
4.33980,-0.23870,0.01207,0.00000,0.03087,0.97771,-0.17702,2023,6,8,14,33,38,249
4.33990,0.12880,0.06457,0.00000,0.03404,0.97771,-0.17849,2023,6,8,14,33,38,260
4.34000,-0.16870,0.13457,0.00000,0.03343,0.97868,-0.17873,2023,6,8,14,33,38,271
4.34010,-0.09870,0.20457,0.00000,0.03379,0.97807,-0.17751,2023,6,8,14,33,38,282
4.34020,-0.09870,0.27457,0.00000,0.03306,0.97820,-0.18019,2023,6,8,14,33,38,293
4.34030,-0.16870,0.13457,0.00000,0.03062,0.97612,-0.17971,2023,6,8,14,33,38,304
4.34040,-0.04620,0.27457,0.00000,0.03038,0.97502,-0.17824,2023,6,8,14,33,38,315
4.34050,-0.08120,0.08207,0.00000,0.02977,0.97649,-0.17678,2023,6,8,14,33,38,327
4.34060,0.00630,-0.02293,0.00000,0.03477,0.97856,-0.17824,2023,6,8,14,33,38,338
4.34070,0.09380,0.04707,0.00000,0.03294,0.97783,-0.17800,2023,6,8,14,33,38,349
4.34080,0.19880,-0.16293,0.00000,0.03099,0.97966,-0.17690,2023,6,8,14,33,38,360
4.34090,-0.18620,0.01207,0.00000,0.03270,0.97649,-0.17739,2023,6,8,14,33,38,371
4.34100,0.14630,0.11707,0.00000,0.03355,0.97588,-0.17751,2023,6,8,14,33,38,382
4.34110,0.04130,0.02957,0.00000,0.03270,0.97685,-0.17836,2023,6,8,14,33,38,393
4.34120,0.14630,0.09957,0.00000,0.03135,0.97673,-0.17666,2023,6,8,14,33,38,404
4.34130,0.09380,-0.00543,0.00000,0.03245,0.97722,-0.17544,2023,6,8,14,33,38,415
4.34140,0.04130,-0.00543,0.00000,0.03221,0.97746,-0.18276,2023,6,8,14,33,38,427
4.34150,-0.06370,0.01207,0.00000,0.03184,0.97649,-0.18056,2023,6,8,14,33,38,438
4.34160,-0.09870,0.25707,0.00000,0.03367,0.97832,-0.17946,2023,6,8,14,33,38,449
4.34170,0.09380,-0.04043,0.00000,0.03294,0.97990,-0.17836,2023,6,8,14,33,38,460
4.34180,-0.04620,0.20457,0.00000,0.03318,0.97771,-0.18141,2023,6,8,14,33,38,471
4.34190,-0.06370,0.18707,0.00000,0.03367,0.97624,-0.17958,2023,6,8,14,33,38,482
4.34200,-0.16870,0.01207,0.00000,0.03306,0.97978,-0.17934,2023,6,8,14,33,38,493
4.34210,0.12880,-0.46043,0.00000,0.03257,0.97966,-0.17800,2023,6,8,14,33,38,504
4.34220,-0.06370,-0.02293,0.00000,0.03074,0.97759,-0.17958,2023,6,8,14,33,38,515
4.34230,0.05880,-0.12793,0.00000,0.03331,0.97820,-0.17788,2023,6,8,14,33,38,527
4.34240,0.05880,-0.11043,0.00000,0.03355,0.97600,-0.17934,2023,6,8,14,33,38,538
4.34250,-0.09870,0.13457,0.00000,0.03282,0.97771,-0.17788,2023,6,8,14,33,38,549
4.34260,-0.11620,-0.18043,0.00000,0.03221,0.97454,-0.18044,2023,6,8,14,33,38,560
4.34270,0.05880,-0.00543,0.00000,0.03294,0.97685,-0.17763,2023,6,8,14,33,38,571
4.34280,0.02380,-0.00543,0.00000,0.03453,0.97832,-0.17910,2023,6,8,14,33,38,582
4.34290,-0.09870,0.11707,0.00000,0.03233,0.97576,-0.17910,2023,6,8,14,33,38,593
4.34300,0.19880,0.04707,0.00000,0.03294,0.97698,-0.18044,2023,6,8,14,33,38,604
4.34310,0.00630,-0.05793,0.00000,0.03318,0.97917,-0.17983,2023,6,8,14,33,38,615
4.34320,0.05880,-0.04043,0.00000,0.03099,0.97771,-0.18044,2023,6,8,14,33,38,627
4.34330,-0.02870,0.06457,0.00000,0.03184,0.97685,-0.17934,2023,6,8,14,33,38,638
4.34340,0.00630,0.15207,0.00000,0.03282,0.97600,-0.17800,2023,6,8,14,33,38,649
4.34350,-0.02870,0.08207,0.00000,0.03306,0.97942,-0.18019,2023,6,8,14,33,38,660
4.34360,0.02380,0.11707,0.00000,0.03343,0.97746,-0.18056,2023,6,8,14,33,38,671
4.34370,-0.09870,-0.04043,0.00000,0.03550,0.97942,-0.17983,2023,6,8,14,33,38,682
4.34380,0.00630,0.15207,0.00000,0.03306,0.97759,-0.18141,2023,6,8,14,33,38,693
4.34390,-0.13370,-0.21543,0.00000,0.03221,0.97759,-0.17958,2023,6,8,14,33,38,704
4.34400,0.00630,-0.02293,0.00000,0.03233,0.97783,-0.17788,2023,6,8,14,33,38,715
4.34410,0.00630,-0.05793,0.00000,0.03257,0.97795,-0.17910,2023,6,8,14,33,38,727
4.34420,-0.18620,0.04707,0.00000,0.03233,0.97746,-0.17983,2023,6,8,14,33,38,738
4.34430,0.04130,-0.02293,0.00000,0.03282,0.97673,-0.18093,2023,6,8,14,33,38,749
4.34440,0.09380,-0.07543,0.00000,0.03221,0.97661,-0.17922,2023,6,8,14,33,38,760
4.34450,-0.02870,0.15207,0.00000,0.03392,0.97698,-0.17946,2023,6,8,14,33,38,771
4.34460,-0.08120,0.23957,0.00000,0.03318,0.97832,-0.17983,2023,6,8,14,33,38,782
4.34470,-0.04620,0.13457,0.00000,0.03087,0.97722,-0.17775,2023,6,8,14,33,38,793
4.34480,-0.04620,0.25707,0.00000,0.03416,0.97881,-0.17922,2023,6,8,14,33,38,804
4.34490,0.05880,-0.11043,0.00000,0.03282,0.97661,-0.18080,2023,6,8,14,33,38,815
4.34500,-0.09870,0.29207,0.00000,0.02977,0.97673,-0.18019,2023,6,8,14,33,38,827
4.34510,0.18130,-0.02293,0.00000,0.03379,0.97893,-0.17739,2023,6,8,14,33,38,838
4.34520,0.00630,-0.07543,0.00000,0.03221,0.97734,-0.17690,2023,6,8,14,33,38,849
4.34530,-0.15120,-0.04043,0.00000,0.03257,0.97722,-0.17861,2023,6,8,14,33,38,860
4.34540,0.04130,0.09957,0.00000,0.03160,0.97771,-0.17775,2023,6,8,14,33,38,871
4.34550,-0.01120,-0.02293,0.00000,0.03160,0.97539,-0.17861,2023,6,8,14,33,38,882
4.34560,0.11130,-0.02293,0.00000,0.03355,0.97807,-0.18080,2023,6,8,14,33,38,893
4.34570,-0.11620,-0.05793,0.00000,0.03318,0.97637,-0.17873,2023,6,8,14,33,38,904
4.34580,0.02380,0.11707,0.00000,0.03172,0.97844,-0.17824,2023,6,8,14,33,38,915
4.34590,-0.06370,0.04707,0.00000,0.03221,0.97746,-0.17824,2023,6,8,14,33,38,927
4.34600,0.02380,-0.04043,0.00000,0.03367,0.97881,-0.17995,2023,6,8,14,33,38,938
4.34610,0.19880,-0.09293,0.00000,0.03367,0.97820,-0.17836,2023,6,8,14,33,38,949
4.34620,0.02380,-0.11043,0.00000,0.03282,0.97637,-0.17897,2023,6,8,14,33,38,960
4.34630,0.02380,-0.02293,0.00000,0.03453,0.97710,-0.17714,2023,6,8,14,33,38,971
4.34640,0.11130,-0.12793,0.00000,0.03013,0.97734,-0.17897,2023,6,8,14,33,38,982
4.34650,0.14630,-0.00543,0.00000,0.03148,0.97576,-0.17873,2023,6,8,14,33,38,993
4.34660,-0.08120,0.09957,0.00000,0.03148,0.97783,-0.17824,2023,6,8,14,33,39,4
4.34670,-0.08120,0.13457,0.00000,0.03209,0.97637,-0.17873,2023,6,8,14,33,39,15
4.34680,0.07630,0.02957,0.00000,0.03221,0.97685,-0.17971,2023,6,8,14,33,39,27
4.34690,-0.02870,-0.14543,0.00000,0.03379,0.97881,-0.18019,2023,6,8,14,33,39,38
4.34700,-0.18620,0.11707,0.00000,0.03331,0.97844,-0.17897,2023,6,8,14,33,39,49
4.34710,-0.11620,0.08207,0.00000,0.03184,0.97673,-0.18056,2023,6,8,14,33,39,60
4.34720,-0.04620,0.18707,0.00000,0.02989,0.97698,-0.17873,2023,6,8,14,33,39,71
4.34730,-0.02870,0.20457,0.00000,0.03379,0.97917,-0.17873,2023,6,8,14,33,39,82
4.34740,0.05880,0.06457,0.00000,0.03367,0.97649,-0.17971,2023,6,8,14,33,39,93
4.34750,0.12880,-0.18043,0.00000,0.03245,0.97612,-0.17922,2023,6,8,14,33,39,104
4.34760,-0.08120,-0.04043,0.00000,0.03331,0.97710,-0.17666,2023,6,8,14,33,39,115
4.34770,-0.02870,-0.02293,0.00000,0.03270,0.97746,-0.17605,2023,6,8,14,33,39,127
4.34780,-0.01120,0.13457,0.00000,0.03306,0.97746,-0.17971,2023,6,8,14,33,39,138
4.34790,-0.02870,0.16957,0.00000,0.03245,0.97685,-0.17824,2023,6,8,14,33,39,149
4.34800,0.07630,0.09957,0.00000,0.03331,0.97771,-0.17849,2023,6,8,14,33,39,160
4.34810,0.05880,-0.05793,0.00000,0.03343,0.97929,-0.18007,2023,6,8,14,33,39,171
4.34820,-0.01120,0.01207,0.00000,0.03306,0.97490,-0.17824,2023,6,8,14,33,39,182
4.34830,0.00630,0.02957,0.00000,0.03196,0.97588,-0.17666,2023,6,8,14,33,39,193
4.34840,-0.01120,-0.02293,0.00000,0.03245,0.97600,-0.17788,2023,6,8,14,33,39,204
4.34850,0.26880,-0.00543,0.00000,0.03172,0.97661,-0.17946,2023,6,8,14,33,39,215
4.34860,0.11130,0.04707,0.00000,0.03172,0.97917,-0.17824,2023,6,8,14,33,39,227
4.34870,0.04130,-0.07543,0.00000,0.03379,0.97783,-0.18202,2023,6,8,14,33,39,238
4.34880,0.12880,0.02957,0.00000,0.03172,0.97820,-0.18044,2023,6,8,14,33,39,249
4.34890,-0.08120,0.01207,0.00000,0.03123,0.97746,-0.17861,2023,6,8,14,33,39,260
4.34900,0.11130,-0.02293,0.00000,0.03160,0.97771,-0.18019,2023,6,8,14,33,39,271
4.34910,0.00630,0.04707,0.00000,0.03294,0.97783,-0.17836,2023,6,8,14,33,39,282
4.34920,0.09380,0.15207,0.00000,0.03257,0.97478,-0.17775,2023,6,8,14,33,39,293
4.34930,-0.08120,0.06457,0.00000,0.03282,0.97893,-0.17775,2023,6,8,14,33,39,304
4.34940,0.21630,0.13457,0.00000,0.03355,0.97612,-0.18032,2023,6,8,14,33,39,315
4.34950,-0.02870,0.04707,0.00000,0.02977,0.97881,-0.17617,2023,6,8,14,33,39,327
4.34960,-0.20370,0.27457,0.00000,0.03270,0.97759,-0.17910,2023,6,8,14,33,39,338
4.34970,0.05880,0.04707,0.00000,0.03233,0.97795,-0.17861,2023,6,8,14,33,39,349
4.34980,-0.06370,0.15207,0.00000,0.03221,0.97515,-0.17775,2023,6,8,14,33,39,360
4.34990,0.00630,-0.09293,0.00000,0.03013,0.97905,-0.17739,2023,6,8,14,33,39,371
4.35000,-0.02870,0.16957,0.00000,0.03221,0.97771,-0.17849,2023,6,8,14,33,39,382
4.35010,0.12880,-0.14543,0.00000,0.03294,0.97722,-0.17690,2023,6,8,14,33,39,393
4.35020,0.07630,-0.00543,0.00000,0.03135,0.97844,-0.17800,2023,6,8,14,33,39,404
4.35030,0.16380,0.16957,0.00000,0.03123,0.97624,-0.17897,2023,6,8,14,33,39,415
4.35040,-0.13370,0.11707,0.00000,0.03392,0.97734,-0.17946,2023,6,8,14,33,39,427
4.35050,-0.01120,-0.00543,0.00000,0.03440,0.97551,-0.17824,2023,6,8,14,33,39,438
4.35060,0.12880,0.11707,0.00000,0.03331,0.97551,-0.17788,2023,6,8,14,33,39,449
4.35070,0.04130,-0.07543,0.00000,0.03013,0.97917,-0.17922,2023,6,8,14,33,39,460
4.35080,0.04130,-0.00543,0.00000,0.03221,0.97905,-0.17763,2023,6,8,14,33,39,471
4.35090,0.07630,-0.05793,0.00000,0.03404,0.97807,-0.17763,2023,6,8,14,33,39,482
4.35100,-0.04620,0.18707,0.00000,0.03087,0.97795,-0.17788,2023,6,8,14,33,39,493
4.35110,-0.02870,-0.04043,0.00000,0.03465,0.97588,-0.18117,2023,6,8,14,33,39,504
4.35120,0.11130,0.13457,0.00000,0.03379,0.97673,-0.17763,2023,6,8,14,33,39,515
4.35130,-0.04620,0.08207,0.00000,0.03416,0.97698,-0.17666,2023,6,8,14,33,39,527
4.35140,-0.02870,0.13457,0.00000,0.03343,0.97673,-0.18129,2023,6,8,14,33,39,538
4.35150,-0.06370,-0.07543,0.00000,0.03233,0.97563,-0.18007,2023,6,8,14,33,39,549
4.35160,0.11130,-0.07543,0.00000,0.03245,0.97649,-0.17873,2023,6,8,14,33,39,560
4.35170,0.02380,-0.04043,0.00000,0.03355,0.97576,-0.17910,2023,6,8,14,33,39,571
4.35180,0.04130,-0.12793,0.00000,0.03416,0.97832,-0.17727,2023,6,8,14,33,39,582
4.35190,0.04130,-0.11043,0.00000,0.03221,0.97734,-0.17763,2023,6,8,14,33,39,593
4.35200,0.04130,0.22207,0.00000,0.03428,0.97905,-0.17824,2023,6,8,14,33,39,604
4.35210,0.00630,-0.09293,0.00000,0.03428,0.97612,-0.17775,2023,6,8,14,33,39,615
4.35220,0.23380,-0.09293,0.00000,0.03257,0.97795,-0.17995,2023,6,8,14,33,39,627
4.35230,0.19880,-0.05793,0.00000,0.03038,0.97807,-0.17873,2023,6,8,14,33,39,638
4.35240,0.25130,0.08207,0.00000,0.03184,0.97783,-0.17885,2023,6,8,14,33,39,649
4.35250,0.05880,0.18707,0.00000,0.03379,0.97771,-0.18044,2023,6,8,14,33,39,660
4.35260,0.23380,0.02957,0.00000,0.03428,0.97820,-0.17641,2023,6,8,14,33,39,671
4.35270,-0.09870,0.08207,0.00000,0.03184,0.97539,-0.18117,2023,6,8,14,33,39,682
4.35280,-0.13370,-0.07543,0.00000,0.03440,0.97722,-0.17934,2023,6,8,14,33,39,693
4.35290,0.16380,0.01207,0.00000,0.03538,0.97637,-0.17849,2023,6,8,14,33,39,704
4.35300,0.09380,0.06457,0.00000,0.03306,0.97612,-0.17714,2023,6,8,14,33,39,715
4.35310,-0.06370,-0.05793,0.00000,0.03172,0.97844,-0.17983,2023,6,8,14,33,39,727
4.35320,0.04130,-0.18043,0.00000,0.03270,0.97856,-0.17690,2023,6,8,14,33,39,738
4.35330,-0.09870,0.23957,0.00000,0.03135,0.97783,-0.17812,2023,6,8,14,33,39,749
4.35340,-0.04620,0.15207,0.00000,0.03160,0.98015,-0.17714,2023,6,8,14,33,39,760
4.35350,-0.11620,0.01207,0.00000,0.03209,0.97771,-0.17763,2023,6,8,14,33,39,771
4.35360,-0.01120,-0.02293,0.00000,0.03306,0.97905,-0.17922,2023,6,8,14,33,39,782
4.35370,0.00630,-0.14543,0.00000,0.03270,0.97978,-0.17702,2023,6,8,14,33,39,793
4.35380,-0.09870,0.13457,0.00000,0.03282,0.97759,-0.17702,2023,6,8,14,33,39,804
4.35390,0.00630,-0.05793,0.00000,0.03514,0.97734,-0.17751,2023,6,8,14,33,39,815
4.35400,-0.02870,0.06457,0.00000,0.03294,0.97612,-0.17885,2023,6,8,14,33,39,827
4.35410,0.05880,-0.09293,0.00000,0.03318,0.97563,-0.17897,2023,6,8,14,33,39,838
4.35420,0.07630,0.06457,0.00000,0.03148,0.97673,-0.17580,2023,6,8,14,33,39,849
4.35430,0.00630,0.20457,0.00000,0.03245,0.97820,-0.17910,2023,6,8,14,33,39,860
4.35440,0.09380,0.16957,0.00000,0.03282,0.97478,-0.17861,2023,6,8,14,33,39,871
4.35450,0.07630,-0.09293,0.00000,0.03294,0.97539,-0.17897,2023,6,8,14,33,39,882
4.35460,-0.11620,0.01207,0.00000,0.03331,0.97722,-0.17800,2023,6,8,14,33,39,893
4.35470,0.16380,0.09957,0.00000,0.03087,0.97759,-0.17885,2023,6,8,14,33,39,904
4.35480,0.05880,0.08207,0.00000,0.03318,0.97929,-0.17739,2023,6,8,14,33,39,915
4.35490,0.21630,-0.14543,0.00000,0.03099,0.97868,-0.17873,2023,6,8,14,33,39,927
4.35500,0.02380,-0.14543,0.00000,0.03233,0.97710,-0.17714,2023,6,8,14,33,39,938
4.35510,0.04130,-0.07543,0.00000,0.03453,0.97783,-0.18068,2023,6,8,14,33,39,949
4.35520,-0.02870,0.18707,0.00000,0.03416,0.97624,-0.17775,2023,6,8,14,33,39,960
4.35530,-0.01120,0.02957,0.00000,0.03379,0.97722,-0.17971,2023,6,8,14,33,39,971
4.35540,-0.01120,0.11707,0.00000,0.03294,0.98027,-0.17678,2023,6,8,14,33,39,982
4.35550,0.07630,-0.02293,0.00000,0.03160,0.98003,-0.17971,2023,6,8,14,33,39,993
4.35560,0.04130,0.11707,0.00000,0.03416,0.97929,-0.17983,2023,6,8,14,33,39,4
4.35570,0.04130,-0.09293,0.00000,0.03172,0.97710,-0.17897,2023,6,8,14,33,40,5
4.35580,0.04130,0.04707,0.00000,0.03318,0.97637,-0.17763,2023,6,8,14,33,40,17
4.35590,0.16380,-0.30293,0.00000,0.03172,0.97759,-0.17934,2023,6,8,14,33,40,28
4.35600,-0.08120,0.04707,0.00000,0.03331,0.97673,-0.17775,2023,6,8,14,33,40,39
4.35610,0.04130,-0.02293,0.00000,0.03245,0.97844,-0.17910,2023,6,8,14,33,40,50
4.35620,0.12880,0.02957,0.00000,0.03233,0.97881,-0.17873,2023,6,8,14,33,40,61
4.35630,0.00630,0.13457,0.00000,0.03379,0.97612,-0.17995,2023,6,8,14,33,40,72
4.35640,-0.25620,-0.04043,0.00000,0.03257,0.97759,-0.17922,2023,6,8,14,33,40,83
4.35650,-0.04620,0.01207,0.00000,0.03245,0.97783,-0.18068,2023,6,8,14,33,40,94
4.35660,-0.13370,-0.05793,0.00000,0.03196,0.97844,-0.18068,2023,6,8,14,33,40,105
4.35670,-0.09870,0.08207,0.00000,0.03209,0.97856,-0.18093,2023,6,8,14,33,40,117
4.35680,0.04130,0.15207,0.00000,0.03355,0.97893,-0.17800,2023,6,8,14,33,40,128
4.35690,0.00630,-0.14543,0.00000,0.03160,0.97759,-0.17958,2023,6,8,14,33,40,139
4.35700,0.02380,-0.02293,0.00000,0.03404,0.97588,-0.17751,2023,6,8,14,33,40,150
4.35710,0.12880,0.15207,0.00000,0.03367,0.97612,-0.17800,2023,6,8,14,33,40,161
4.35720,-0.08120,0.16957,0.00000,0.03404,0.97649,-0.17934,2023,6,8,14,33,40,172
4.35730,-0.18620,-0.04043,0.00000,0.03099,0.97734,-0.18068,2023,6,8,14,33,40,183
4.35740,-0.22120,0.13457,0.00000,0.03404,0.97722,-0.17727,2023,6,8,14,33,40,194
4.35750,0.04130,-0.23293,0.00000,0.03257,0.97746,-0.17812,2023,6,8,14,33,40,205
4.35760,-0.01120,0.06457,0.00000,0.03477,0.97905,-0.17983,2023,6,8,14,33,40,217
4.35770,0.28630,-0.26793,0.00000,0.03404,0.97576,-0.17763,2023,6,8,14,33,40,228
4.35780,-0.13370,0.04707,0.00000,0.03074,0.97844,-0.17714,2023,6,8,14,33,40,239
4.35790,-0.04620,0.25707,0.00000,0.03221,0.97710,-0.17836,2023,6,8,14,33,40,250
4.35800,0.21630,-0.05793,0.00000,0.03257,0.97893,-0.17995,2023,6,8,14,33,40,261
4.35810,-0.18620,0.30957,0.00000,0.03367,0.97661,-0.17897,2023,6,8,14,33,40,272
4.35820,-0.08120,0.06457,0.00000,0.03587,0.97917,-0.17788,2023,6,8,14,33,40,283
4.35830,0.09380,0.06457,0.00000,0.03392,0.97490,-0.17751,2023,6,8,14,33,40,294
4.35840,-0.08120,-0.14543,0.00000,0.03233,0.97868,-0.17897,2023,6,8,14,33,40,305
4.35850,0.07630,0.02957,0.00000,0.03148,0.97344,-0.17751,2023,6,8,14,33,40,317
4.35860,-0.06370,0.11707,0.00000,0.03184,0.97551,-0.17727,2023,6,8,14,33,40,328
4.35870,-0.04620,0.01207,0.00000,0.03257,0.97771,-0.17788,2023,6,8,14,33,40,339
4.35880,0.19880,0.01207,0.00000,0.03245,0.97673,-0.17629,2023,6,8,14,33,40,350
4.35890,-0.15120,0.20457,0.00000,0.03257,0.97978,-0.18007,2023,6,8,14,33,40,361
4.35900,0.04130,0.02957,0.00000,0.02879,0.97502,-0.17727,2023,6,8,14,33,40,372
4.35910,-0.11620,-0.07543,0.00000,0.03184,0.97868,-0.17727,2023,6,8,14,33,40,383
4.35920,-0.09870,0.09957,0.00000,0.03318,0.97710,-0.17946,2023,6,8,14,33,40,394
4.35930,-0.01120,-0.18043,0.00000,0.03465,0.97783,-0.17702,2023,6,8,14,33,40,405
4.35940,-0.13370,-0.09293,0.00000,0.03196,0.98112,-0.17775,2023,6,8,14,33,40,417
4.35950,-0.09870,0.01207,0.00000,0.03343,0.97771,-0.17568,2023,6,8,14,33,40,428
4.35960,-0.02870,0.09957,0.00000,0.03331,0.97722,-0.17824,2023,6,8,14,33,40,439
4.35970,-0.01120,-0.14543,0.00000,0.03562,0.97942,-0.17946,2023,6,8,14,33,40,450
4.35980,0.26880,-0.14543,0.00000,0.03257,0.97673,-0.17873,2023,6,8,14,33,40,461
4.35990,0.14630,-0.00543,0.00000,0.03233,0.97868,-0.17861,2023,6,8,14,33,40,472
4.36000,-0.06370,0.04707,0.00000,0.03343,0.97881,-0.17849,2023,6,8,14,33,40,483
4.36010,0.07630,0.15207,0.00000,0.03221,0.97515,-0.17983,2023,6,8,14,33,40,494
4.36020,-0.09870,-0.00543,0.00000,0.03221,0.97539,-0.17763,2023,6,8,14,33,40,505
4.36030,0.12880,0.02957,0.00000,0.03392,0.97746,-0.17702,2023,6,8,14,33,40,517
4.36040,-0.20370,0.08207,0.00000,0.03270,0.97624,-0.17849,2023,6,8,14,33,40,528
4.36050,-0.13370,0.06457,0.00000,0.03465,0.97942,-0.17873,2023,6,8,14,33,40,539
4.36060,-0.01120,-0.09293,0.00000,0.03477,0.97856,-0.17861,2023,6,8,14,33,40,550
4.36070,-0.08120,0.11707,0.00000,0.03282,0.97990,-0.17788,2023,6,8,14,33,40,561
4.36080,-0.09870,0.20457,0.00000,0.03379,0.97710,-0.18080,2023,6,8,14,33,40,572
4.36090,-0.11620,0.09957,0.00000,0.03453,0.98027,-0.17836,2023,6,8,14,33,40,583
4.36100,-0.02870,-0.05793,0.00000,0.03123,0.97856,-0.17605,2023,6,8,14,33,40,594
4.36110,-0.16870,0.06457,0.00000,0.03196,0.97624,-0.17824,2023,6,8,14,33,40,605
4.36120,0.11130,0.06457,0.00000,0.03160,0.97649,-0.17995,2023,6,8,14,33,40,617
4.36130,0.09380,-0.11043,0.00000,0.03331,0.97978,-0.17849,2023,6,8,14,33,40,628
4.36140,-0.06370,0.04707,0.00000,0.03245,0.97868,-0.17958,2023,6,8,14,33,40,639
4.36150,0.11130,0.15207,0.00000,0.03331,0.97868,-0.17788,2023,6,8,14,33,40,650
4.36160,0.11130,-0.04043,0.00000,0.03196,0.97588,-0.17763,2023,6,8,14,33,40,661
4.36170,0.05880,-0.11043,0.00000,0.03282,0.97795,-0.17800,2023,6,8,14,33,40,672
4.36180,0.02380,-0.02293,0.00000,0.03331,0.97637,-0.17958,2023,6,8,14,33,40,683
4.36190,0.14630,-0.07543,0.00000,0.03270,0.97868,-0.17958,2023,6,8,14,33,40,694
4.36200,0.09380,0.15207,0.00000,0.03233,0.97905,-0.17861,2023,6,8,14,33,40,705
4.36210,0.19880,0.09957,0.00000,0.03026,0.97917,-0.17824,2023,6,8,14,33,40,717
4.36220,0.02380,-0.18043,0.00000,0.03367,0.97807,-0.17690,2023,6,8,14,33,40,728
4.36230,-0.02870,-0.04043,0.00000,0.03233,0.97551,-0.17812,2023,6,8,14,33,40,739
4.36240,0.21630,-0.09293,0.00000,0.03209,0.98100,-0.17873,2023,6,8,14,33,40,750
4.36250,0.02380,-0.09293,0.00000,0.03477,0.97759,-0.17836,2023,6,8,14,33,40,761
4.36260,-0.15120,0.02957,0.00000,0.03294,0.97905,-0.17836,2023,6,8,14,33,40,772
4.36270,0.11130,-0.32043,0.00000,0.03038,0.97710,-0.18019,2023,6,8,14,33,40,783
4.36280,0.11130,0.13457,0.00000,0.03245,0.97771,-0.17775,2023,6,8,14,33,40,794
4.36290,0.00630,-0.07543,0.00000,0.03282,0.97881,-0.17702,2023,6,8,14,33,40,805
4.36300,0.12880,0.11707,0.00000,0.03257,0.97673,-0.17873,2023,6,8,14,33,40,817
4.36310,-0.06370,0.08207,0.00000,0.03477,0.97673,-0.17800,2023,6,8,14,33,40,828
4.36320,0.51380,0.18707,0.00000,0.02745,0.96746,-0.17788,2023,6,8,14,33,40,839
4.36330,0.14630,-0.12793,0.00000,0.03233,0.99040,-0.18263,2023,6,8,14,33,40,850
4.36340,0.30380,-0.14543,0.00000,0.03209,0.97624,-0.17653,2023,6,8,14,33,40,861
4.36350,0.05880,-0.19793,0.00000,0.03196,0.97588,-0.17824,2023,6,8,14,33,40,872
4.36360,-0.13370,0.16957,0.00000,0.03379,0.98625,-0.17812,2023,6,8,14,33,40,883
4.36370,0.12880,0.20457,0.00000,0.03233,0.96941,-0.17568,2023,6,8,14,33,40,894
4.36380,0.02380,0.11707,0.00000,0.03245,0.98881,-0.17922,2023,6,8,14,33,40,905
4.36390,0.32130,-0.12793,0.00000,0.03233,0.97234,-0.17397,2023,6,8,14,33,40,917
4.36400,0.12880,0.16957,0.00000,0.03599,0.97600,-0.17690,2023,6,8,14,33,40,928
4.36410,0.09380,0.11707,0.00000,0.03257,0.98100,-0.17861,2023,6,8,14,33,40,939
4.36420,0.00630,-0.05793,0.00000,0.03416,0.97820,-0.17873,2023,6,8,14,33,40,950
4.36430,0.28630,-0.11043,0.00000,0.03550,0.97271,-0.17763,2023,6,8,14,33,40,961
4.36440,0.19880,0.01207,0.00000,0.02891,0.98320,-0.17995,2023,6,8,14,33,40,972
4.36450,-0.06370,0.15207,0.00000,0.03257,0.97332,-0.17800,2023,6,8,14,33,40,983
4.36460,-0.08120,0.04707,0.00000,0.03221,0.98186,-0.17739,2023,6,8,14,33,40,994
4.36470,0.11130,-0.12793,0.00000,0.03245,0.97795,-0.17934,2023,6,8,14,33,41,5
4.36480,-0.06370,-0.11043,0.00000,0.03489,0.97478,-0.17739,2023,6,8,14,33,41,17
4.36490,0.05880,0.11707,0.00000,0.03257,0.97734,-0.17885,2023,6,8,14,33,41,28
4.36500,0.00630,-0.02293,0.00000,0.03160,0.97734,-0.17897,2023,6,8,14,33,41,39
4.36510,0.05880,0.08207,0.00000,0.03160,0.97734,-0.17653,2023,6,8,14,33,41,50
4.36520,0.16380,-0.09293,0.00000,0.03257,0.97722,-0.17800,2023,6,8,14,33,41,61
4.36530,0.07630,0.13457,0.00000,0.03013,0.97393,-0.17922,2023,6,8,14,33,41,72
4.36540,0.07630,0.01207,0.00000,0.03099,0.97685,-0.17666,2023,6,8,14,33,41,83
4.36550,-0.08120,0.25707,0.00000,0.03172,0.97698,-0.17641,2023,6,8,14,33,41,94
4.36560,0.09380,0.11707,0.00000,0.03196,0.97698,-0.17849,2023,6,8,14,33,41,105
4.36570,0.18130,-0.19793,0.00000,0.03245,0.97649,-0.17775,2023,6,8,14,33,41,117
4.36580,0.02380,-0.04043,0.00000,0.03392,0.97576,-0.17849,2023,6,8,14,33,41,128
4.36590,-0.18620,0.02957,0.00000,0.02989,0.97515,-0.17788,2023,6,8,14,33,41,139
4.36600,-0.02870,0.08207,0.00000,0.03172,0.97661,-0.17897,2023,6,8,14,33,41,150
4.36610,-0.06370,0.23957,0.00000,0.03233,0.97478,-0.17690,2023,6,8,14,33,41,161
4.36620,-0.06370,-0.00543,0.00000,0.03379,0.97783,-0.17714,2023,6,8,14,33,41,172
4.36630,0.07630,0.01207,0.00000,0.03245,0.97710,-0.17873,2023,6,8,14,33,41,183
4.36640,0.14630,0.02957,0.00000,0.02928,0.97820,-0.17922,2023,6,8,14,33,41,194
4.36650,-0.09870,0.04707,0.00000,0.03257,0.97624,-0.17702,2023,6,8,14,33,41,205
4.36660,0.04130,-0.23293,0.00000,0.03355,0.97893,-0.17824,2023,6,8,14,33,41,217
4.36670,0.05880,-0.05793,0.00000,0.03233,0.97771,-0.17775,2023,6,8,14,33,41,228
4.36680,0.05880,0.11707,0.00000,0.03062,0.97588,-0.17763,2023,6,8,14,33,41,239
4.36690,0.14630,-0.12793,0.00000,0.03233,0.97673,-0.17592,2023,6,8,14,33,41,250
4.36700,-0.16870,-0.05793,0.00000,0.03221,0.97624,-0.17849,2023,6,8,14,33,41,261
4.36710,-0.04620,0.01207,0.00000,0.03465,0.97795,-0.17727,2023,6,8,14,33,41,272
4.36720,-0.02870,0.15207,0.00000,0.03404,0.97722,-0.17849,2023,6,8,14,33,41,283
4.36730,0.14630,0.11707,0.00000,0.02952,0.97466,-0.17702,2023,6,8,14,33,41,294
4.36740,-0.15120,0.16957,0.00000,0.02904,0.97588,-0.17605,2023,6,8,14,33,41,305
4.36750,-0.06370,-0.04043,0.00000,0.03221,0.97856,-0.17751,2023,6,8,14,33,41,317
4.36760,0.00630,-0.16293,0.00000,0.03270,0.97637,-0.17483,2023,6,8,14,33,41,328
4.36770,-0.01120,0.13457,0.00000,0.03135,0.97746,-0.17544,2023,6,8,14,33,41,339
4.36780,0.00630,-0.09293,0.00000,0.03343,0.97844,-0.17714,2023,6,8,14,33,41,350
4.36790,-0.02870,-0.04043,0.00000,0.03148,0.97734,-0.17714,2023,6,8,14,33,41,361
4.36800,0.09380,0.04707,0.00000,0.03209,0.97637,-0.17727,2023,6,8,14,33,41,372
4.36810,0.00630,0.08207,0.00000,0.03209,0.97929,-0.17788,2023,6,8,14,33,41,383
4.36820,0.09380,-0.14543,0.00000,0.03245,0.97576,-0.17836,2023,6,8,14,33,41,394
4.36830,0.12880,-0.12793,0.00000,0.03245,0.97563,-0.17885,2023,6,8,14,33,41,405
4.36840,0.11130,0.18707,0.00000,0.03257,0.97710,-0.17653,2023,6,8,14,33,41,417
4.36850,0.07630,-0.02293,0.00000,0.03160,0.97771,-0.17531,2023,6,8,14,33,41,428
4.36860,-0.15120,0.11707,0.00000,0.03416,0.97783,-0.17739,2023,6,8,14,33,41,439
4.36870,0.00630,0.16957,0.00000,0.03123,0.97905,-0.17666,2023,6,8,14,33,41,450
4.36880,0.11130,0.09957,0.00000,0.03062,0.97637,-0.17861,2023,6,8,14,33,41,461
4.36890,0.11130,-0.07543,0.00000,0.03050,0.97820,-0.17629,2023,6,8,14,33,41,472
4.36900,0.14630,-0.07543,0.00000,0.03233,0.97820,-0.17727,2023,6,8,14,33,41,483
4.36910,-0.04620,0.15207,0.00000,0.03209,0.97515,-0.17592,2023,6,8,14,33,41,494
4.36920,-0.04620,0.04707,0.00000,0.03209,0.97917,-0.17653,2023,6,8,14,33,41,505
4.36930,-0.09870,0.11707,0.00000,0.03367,0.97844,-0.17739,2023,6,8,14,33,41,517
4.36940,0.33880,-0.04043,0.00000,0.03416,0.97685,-0.17763,2023,6,8,14,33,41,528
4.36950,-0.11620,-0.11043,0.00000,0.03599,0.97746,-0.17653,2023,6,8,14,33,41,539
4.36960,0.00630,-0.19793,0.00000,0.03294,0.97844,-0.17714,2023,6,8,14,33,41,550
4.36970,0.07630,-0.09293,0.00000,0.03099,0.97771,-0.17446,2023,6,8,14,33,41,561
4.36980,0.05880,-0.11043,0.00000,0.03623,0.97881,-0.17727,2023,6,8,14,33,41,572
4.36990,-0.15120,0.06457,0.00000,0.03270,0.97661,-0.17544,2023,6,8,14,33,41,583
4.37000,0.26880,0.06457,0.00000,0.03196,0.97832,-0.17617,2023,6,8,14,33,41,594
4.37010,-0.02870,-0.19793,0.00000,0.03306,0.97807,-0.17775,2023,6,8,14,33,41,605
4.37020,-0.04620,0.11707,0.00000,0.03209,0.97539,-0.17800,2023,6,8,14,33,41,617
4.37030,-0.11620,0.02957,0.00000,0.03331,0.97515,-0.17934,2023,6,8,14,33,41,628
4.37040,-0.04620,0.01207,0.00000,0.03379,0.97783,-0.17812,2023,6,8,14,33,41,639
4.37050,-0.22120,0.25707,0.00000,0.03160,0.97795,-0.17751,2023,6,8,14,33,41,650
4.37060,-0.01120,0.23957,0.00000,0.03270,0.97856,-0.17714,2023,6,8,14,33,41,661
4.37070,-0.08120,0.04707,0.00000,0.03233,0.97759,-0.17739,2023,6,8,14,33,41,672
4.37080,-0.02870,0.16957,0.00000,0.03196,0.97795,-0.17544,2023,6,8,14,33,41,683
4.37090,0.04130,0.09957,0.00000,0.03282,0.97881,-0.17763,2023,6,8,14,33,41,694
4.37100,0.11130,-0.04043,0.00000,0.03318,0.97734,-0.17763,2023,6,8,14,33,41,705
4.37110,-0.20370,0.08207,0.00000,0.03379,0.97637,-0.17934,2023,6,8,14,33,41,717
4.37120,0.02380,0.04707,0.00000,0.03318,0.97771,-0.17788,2023,6,8,14,33,41,728
4.37130,-0.01120,-0.12793,0.00000,0.03209,0.97551,-0.17666,2023,6,8,14,33,41,739
4.37140,0.09380,-0.04043,0.00000,0.03087,0.97820,-0.17800,2023,6,8,14,33,41,750
4.37150,0.05880,-0.07543,0.00000,0.03062,0.97637,-0.17568,2023,6,8,14,33,41,761
4.37160,0.04130,-0.04043,0.00000,0.03184,0.97551,-0.17617,2023,6,8,14,33,41,772
4.37170,0.23380,0.11707,0.00000,0.03331,0.97966,-0.17983,2023,6,8,14,33,41,783
4.37180,-0.02870,-0.11043,0.00000,0.03404,0.97820,-0.17763,2023,6,8,14,33,41,794
4.37190,-0.01120,0.20457,0.00000,0.03087,0.97685,-0.17617,2023,6,8,14,33,41,805
4.37200,-0.18620,0.22207,0.00000,0.03477,0.97881,-0.17458,2023,6,8,14,33,41,817
4.37210,0.09380,0.02957,0.00000,0.03465,0.97771,-0.17507,2023,6,8,14,33,41,828
4.37220,-0.15120,-0.16293,0.00000,0.03209,0.97734,-0.17812,2023,6,8,14,33,41,839
4.37230,0.05880,0.01207,0.00000,0.03440,0.97612,-0.17702,2023,6,8,14,33,41,850
4.37240,0.09380,0.06457,0.00000,0.03221,0.97539,-0.17971,2023,6,8,14,33,41,861
4.37250,-0.11620,-0.00543,0.00000,0.03221,0.97673,-0.17702,2023,6,8,14,33,41,872
4.37260,0.07630,0.22207,0.00000,0.03355,0.97795,-0.17556,2023,6,8,14,33,41,883
4.37270,-0.02870,0.13457,0.00000,0.03404,0.97685,-0.17653,2023,6,8,14,33,41,894
4.37280,-0.02870,-0.00543,0.00000,0.03453,0.97820,-0.17641,2023,6,8,14,33,41,905
4.37290,0.04130,-0.04043,0.00000,0.03306,0.97942,-0.17678,2023,6,8,14,33,41,917
4.37300,0.04130,-0.04043,0.00000,0.03013,0.97649,-0.17910,2023,6,8,14,33,41,928
4.37310,0.00630,0.09957,0.00000,0.03172,0.97759,-0.17702,2023,6,8,14,33,41,939
4.37320,0.00630,0.13457,0.00000,0.03196,0.97515,-0.17580,2023,6,8,14,33,41,950
4.37330,0.05880,-0.12793,0.00000,0.03196,0.97624,-0.17605,2023,6,8,14,33,41,961
4.37340,-0.08120,0.02957,0.00000,0.03306,0.97661,-0.17702,2023,6,8,14,33,41,972
4.37350,0.02380,0.18707,0.00000,0.03440,0.97783,-0.17775,2023,6,8,14,33,41,983
4.37360,-0.04620,-0.00543,0.00000,0.03245,0.97502,-0.17507,2023,6,8,14,33,41,994
4.37370,0.05880,-0.00543,0.00000,0.03160,0.97844,-0.17885,2023,6,8,14,33,42,5
4.37380,0.07630,-0.11043,0.00000,0.03221,0.98003,-0.17605,2023,6,8,14,33,42,17
4.37390,-0.06370,-0.04043,0.00000,0.03257,0.97551,-0.17653,2023,6,8,14,33,42,28
4.37400,0.11130,-0.00543,0.00000,0.03209,0.97685,-0.17824,2023,6,8,14,33,42,39
4.37410,-0.08120,0.08207,0.00000,0.03392,0.97698,-0.17727,2023,6,8,14,33,42,50
4.37420,0.09380,-0.00543,0.00000,0.03135,0.97588,-0.17653,2023,6,8,14,33,42,61
4.37430,0.12880,0.09957,0.00000,0.03306,0.97856,-0.17690,2023,6,8,14,33,42,72
4.37440,-0.08120,0.23957,0.00000,0.03233,0.97685,-0.17678,2023,6,8,14,33,42,83
4.37450,0.05880,-0.07543,0.00000,0.03318,0.97929,-0.17751,2023,6,8,14,33,42,94
4.37460,-0.22120,0.16957,0.00000,0.03416,0.97576,-0.17653,2023,6,8,14,33,42,105
4.37470,0.16380,0.11707,0.00000,0.03416,0.97722,-0.17678,2023,6,8,14,33,42,117
4.37480,-0.06370,0.04707,0.00000,0.03270,0.97624,-0.17653,2023,6,8,14,33,42,128
4.37490,0.02380,-0.00543,0.00000,0.03270,0.97893,-0.17946,2023,6,8,14,33,42,139
4.37500,0.02380,0.11707,0.00000,0.03355,0.97515,-0.17800,2023,6,8,14,33,42,150
4.37510,-0.01120,0.04707,0.00000,0.03318,0.97783,-0.17592,2023,6,8,14,33,42,161
4.37520,-0.06370,0.08207,0.00000,0.03245,0.97795,-0.17495,2023,6,8,14,33,42,172
4.37530,0.02380,0.13457,0.00000,0.03257,0.97710,-0.18129,2023,6,8,14,33,42,183
4.37540,-0.09870,-0.11043,0.00000,0.03318,0.97893,-0.17812,2023,6,8,14,33,42,194
4.37550,0.04130,-0.02293,0.00000,0.03221,0.97637,-0.17556,2023,6,8,14,33,42,205
4.37560,-0.02870,0.16957,0.00000,0.03428,0.97588,-0.17751,2023,6,8,14,33,42,217
4.37570,0.05880,-0.02293,0.00000,0.03428,0.97820,-0.17824,2023,6,8,14,33,42,228
4.37580,-0.09870,0.13457,0.00000,0.03440,0.97539,-0.17922,2023,6,8,14,33,42,239
4.37590,0.16380,-0.09293,0.00000,0.03416,0.97978,-0.17873,2023,6,8,14,33,42,250
4.37600,0.19880,-0.02293,0.00000,0.03270,0.97722,-0.17592,2023,6,8,14,33,42,261
4.37610,0.02380,0.15207,0.00000,0.03343,0.97759,-0.17568,2023,6,8,14,33,42,272
4.37620,-0.08120,0.13457,0.00000,0.03148,0.97722,-0.17556,2023,6,8,14,33,42,283
4.37630,0.00630,-0.16293,0.00000,0.03477,0.97795,-0.17727,2023,6,8,14,33,42,294
4.37640,0.04130,-0.19793,0.00000,0.03099,0.97893,-0.17495,2023,6,8,14,33,42,305
4.37650,0.18130,-0.07543,0.00000,0.03245,0.97563,-0.17702,2023,6,8,14,33,42,317
4.37660,-0.18620,-0.00543,0.00000,0.03172,0.97661,-0.17836,2023,6,8,14,33,42,328
4.37670,0.02380,-0.02293,0.00000,0.03245,0.97685,-0.17629,2023,6,8,14,33,42,339
4.37680,-0.02870,-0.00543,0.00000,0.03318,0.97539,-0.17849,2023,6,8,14,33,42,350
4.37690,0.07630,-0.00543,0.00000,0.03306,0.97771,-0.17617,2023,6,8,14,33,42,361
4.37700,0.05880,-0.04043,0.00000,0.03135,0.97637,-0.17788,2023,6,8,14,33,42,372
4.37710,-0.01120,0.22207,0.00000,0.03270,0.97710,-0.17775,2023,6,8,14,33,42,383
4.37720,-0.11620,-0.07543,0.00000,0.03221,0.97893,-0.17800,2023,6,8,14,33,42,394
4.37730,-0.08120,-0.18043,0.00000,0.03416,0.97698,-0.17763,2023,6,8,14,33,42,405
4.37740,-0.11620,0.18707,0.00000,0.03343,0.97637,-0.17641,2023,6,8,14,33,42,417
4.37750,0.00630,0.11707,0.00000,0.03148,0.97649,-0.17568,2023,6,8,14,33,42,428
4.37760,0.12880,-0.07543,0.00000,0.03184,0.97771,-0.17678,2023,6,8,14,33,42,439
4.37770,-0.16870,0.09957,0.00000,0.03367,0.98076,-0.17751,2023,6,8,14,33,42,450
4.37780,-0.01120,0.11707,0.00000,0.03160,0.97466,-0.17592,2023,6,8,14,33,42,461
4.37790,0.07630,-0.11043,0.00000,0.03196,0.97722,-0.17592,2023,6,8,14,33,42,472
4.37800,-0.02870,0.15207,0.00000,0.03270,0.97637,-0.17556,2023,6,8,14,33,42,483
4.37810,0.05880,-0.00543,0.00000,0.03221,0.97942,-0.17763,2023,6,8,14,33,42,494
4.37820,0.14630,-0.19793,0.00000,0.03282,0.97844,-0.17690,2023,6,8,14,33,42,505
4.37830,-0.18620,0.23957,0.00000,0.03111,0.98039,-0.17568,2023,6,8,14,33,42,517
4.37840,-0.13370,0.04707,0.00000,0.03196,0.97990,-0.17519,2023,6,8,14,33,42,528
4.37850,0.04130,-0.04043,0.00000,0.03270,0.97820,-0.17873,2023,6,8,14,33,42,539
4.37860,-0.16870,0.04707,0.00000,0.03172,0.97661,-0.17788,2023,6,8,14,33,42,550
4.37870,0.00630,0.16957,0.00000,0.02904,0.97807,-0.17580,2023,6,8,14,33,42,561
4.37880,-0.02870,-0.02293,0.00000,0.03331,0.97539,-0.17824,2023,6,8,14,33,42,572
4.37890,0.02380,0.04707,0.00000,0.03404,0.97698,-0.17873,2023,6,8,14,33,42,583
4.37900,0.05880,-0.09293,0.00000,0.03221,0.97795,-0.17800,2023,6,8,14,33,42,594
4.37910,0.11130,0.15207,0.00000,0.03270,0.97600,-0.17983,2023,6,8,14,33,42,605
4.37920,0.00630,0.06457,0.00000,0.03538,0.97637,-0.18019,2023,6,8,14,33,42,617
4.37930,0.00630,0.02957,0.00000,0.03294,0.97820,-0.17812,2023,6,8,14,33,42,628
4.37940,0.09380,0.02957,0.00000,0.03257,0.97746,-0.17727,2023,6,8,14,33,42,639
4.37950,0.09380,-0.00543,0.00000,0.03099,0.97624,-0.17763,2023,6,8,14,33,42,650
4.37960,0.02380,-0.05793,0.00000,0.03184,0.97807,-0.17775,2023,6,8,14,33,42,661
4.37970,0.00630,0.08207,0.00000,0.03087,0.97929,-0.17922,2023,6,8,14,33,42,672
4.37980,0.11130,-0.07543,0.00000,0.03465,0.97881,-0.17653,2023,6,8,14,33,42,683
4.37990,0.21630,0.06457,0.00000,0.03221,0.97881,-0.17702,2023,6,8,14,33,42,694
4.38000,0.11130,0.20457,0.00000,0.03465,0.97612,-0.17727,2023,6,8,14,33,42,705
4.38010,0.05880,-0.09293,0.00000,0.03282,0.97612,-0.17812,2023,6,8,14,33,42,717
4.38020,-0.18620,0.25707,0.00000,0.03148,0.97600,-0.17617,2023,6,8,14,33,42,728
4.38030,-0.06370,0.22207,0.00000,0.03135,0.97649,-0.17641,2023,6,8,14,33,42,739
4.38040,-0.02870,0.09957,0.00000,0.03355,0.97905,-0.17849,2023,6,8,14,33,42,750
4.38050,-0.02870,0.08207,0.00000,0.03148,0.97807,-0.17983,2023,6,8,14,33,42,761
4.38060,0.18130,0.08207,0.00000,0.03392,0.97576,-0.17775,2023,6,8,14,33,42,772
4.38070,-0.01120,0.02957,0.00000,0.03221,0.97771,-0.17788,2023,6,8,14,33,42,783
4.38080,-0.13370,0.09957,0.00000,0.03221,0.97698,-0.17544,2023,6,8,14,33,42,794
4.38090,0.05880,0.20457,0.00000,0.03050,0.97624,-0.17446,2023,6,8,14,33,42,805
4.38100,0.11130,-0.16293,0.00000,0.03355,0.97746,-0.17727,2023,6,8,14,33,42,817
4.38110,-0.02870,-0.09293,0.00000,0.03111,0.97576,-0.17812,2023,6,8,14,33,42,828
4.38120,0.12880,0.11707,0.00000,0.03306,0.97576,-0.17653,2023,6,8,14,33,42,839
4.38130,0.16380,0.01207,0.00000,0.03355,0.97746,-0.17556,2023,6,8,14,33,42,850
4.38140,0.07630,-0.05793,0.00000,0.03453,0.97844,-0.17934,2023,6,8,14,33,42,861
4.38150,-0.02870,0.06457,0.00000,0.03453,0.97685,-0.17873,2023,6,8,14,33,42,872
4.38160,0.02380,0.13457,0.00000,0.03135,0.97734,-0.17836,2023,6,8,14,33,42,883
4.38170,0.05880,0.04707,0.00000,0.03245,0.97759,-0.17739,2023,6,8,14,33,42,894
4.38180,0.05880,0.11707,0.00000,0.02965,0.97771,-0.17739,2023,6,8,14,33,42,905
4.38190,0.12880,0.04707,0.00000,0.03416,0.97698,-0.17690,2023,6,8,14,33,42,917
4.38200,-0.01120,0.02957,0.00000,0.03221,0.97783,-0.17812,2023,6,8,14,33,42,928
4.38210,0.00630,0.04707,0.00000,0.03306,0.97868,-0.17678,2023,6,8,14,33,42,939
4.38220,0.00630,0.20457,0.00000,0.03306,0.97759,-0.17714,2023,6,8,14,33,42,950
4.38230,0.11130,0.04707,0.00000,0.03367,0.97624,-0.17714,2023,6,8,14,33,42,961
4.38240,-0.18620,-0.04043,0.00000,0.03379,0.97515,-0.17824,2023,6,8,14,33,42,972
4.38250,-0.11620,0.06457,0.00000,0.03050,0.97746,-0.17739,2023,6,8,14,33,42,983
4.38260,0.02380,-0.00543,0.00000,0.03294,0.97722,-0.17836,2023,6,8,14,33,42,994
4.38270,0.07630,0.18707,0.00000,0.03233,0.97942,-0.17873,2023,6,8,14,33,43,5
4.38280,0.11130,0.02957,0.00000,0.03257,0.97807,-0.17690,2023,6,8,14,33,43,17
4.38290,-0.18620,0.18707,0.00000,0.03172,0.97832,-0.17714,2023,6,8,14,33,43,28
4.38300,0.07630,0.06457,0.00000,0.03416,0.97429,-0.17995,2023,6,8,14,33,43,39
4.38310,0.04130,-0.16293,0.00000,0.03013,0.97868,-0.17788,2023,6,8,14,33,43,50
4.38320,-0.01120,0.15207,0.00000,0.03477,0.97771,-0.17702,2023,6,8,14,33,43,61
4.38330,-0.01120,0.06457,0.00000,0.03477,0.97917,-0.17946,2023,6,8,14,33,43,72
4.38340,-0.02870,0.13457,0.00000,0.03245,0.97746,-0.17653,2023,6,8,14,33,43,83
4.38350,0.05880,-0.25043,0.00000,0.03245,0.97893,-0.17714,2023,6,8,14,33,43,94
4.38360,-0.01120,0.13457,0.00000,0.03343,0.97746,-0.17666,2023,6,8,14,33,43,105
4.38370,-0.11620,0.01207,0.00000,0.03148,0.97661,-0.17702,2023,6,8,14,33,43,117
4.38380,0.00630,0.06457,0.00000,0.03294,0.97710,-0.17922,2023,6,8,14,33,43,128
4.38390,0.05880,-0.07543,0.00000,0.03160,0.97734,-0.17739,2023,6,8,14,33,43,139
4.38400,-0.09870,-0.09293,0.00000,0.03160,0.97771,-0.17629,2023,6,8,14,33,43,150
4.38410,-0.01120,-0.02293,0.00000,0.03233,0.98015,-0.17873,2023,6,8,14,33,43,161
4.38420,0.07630,0.30957,0.00000,0.03148,0.97783,-0.17751,2023,6,8,14,33,43,172
4.38430,-0.01120,0.02957,0.00000,0.03184,0.97771,-0.17531,2023,6,8,14,33,43,183
4.38440,0.00630,0.01207,0.00000,0.03038,0.97771,-0.17775,2023,6,8,14,33,43,194
4.38450,0.00630,0.18707,0.00000,0.03257,0.97673,-0.17885,2023,6,8,14,33,43,205
4.38460,-0.11620,0.09957,0.00000,0.03355,0.97502,-0.17605,2023,6,8,14,33,43,217
4.38470,0.07630,0.01207,0.00000,0.03306,0.97698,-0.17958,2023,6,8,14,33,43,228
4.38480,-0.02870,-0.02293,0.00000,0.03221,0.97771,-0.17763,2023,6,8,14,33,43,239
4.38490,-0.11620,0.04707,0.00000,0.03062,0.97722,-0.17690,2023,6,8,14,33,43,250
4.38500,0.05880,0.02957,0.00000,0.03245,0.97429,-0.17775,2023,6,8,14,33,43,261
4.38510,0.26880,-0.00543,0.00000,0.03331,0.97685,-0.17873,2023,6,8,14,33,43,272
4.38520,0.07630,0.15207,0.00000,0.03221,0.97759,-0.17861,2023,6,8,14,33,43,283
4.38530,0.02380,-0.07543,0.00000,0.03233,0.97844,-0.17714,2023,6,8,14,33,43,294
4.38540,-0.11620,0.08207,0.00000,0.03428,0.97820,-0.17666,2023,6,8,14,33,43,305
4.38550,0.05880,-0.18043,0.00000,0.03404,0.97795,-0.17556,2023,6,8,14,33,43,317
4.38560,-0.06370,0.13457,0.00000,0.03550,0.97649,-0.17653,2023,6,8,14,33,43,328
4.38570,0.00630,0.16957,0.00000,0.03318,0.97673,-0.17727,2023,6,8,14,33,43,339
4.38580,-0.01120,0.13457,0.00000,0.03392,0.97539,-0.17751,2023,6,8,14,33,43,350
4.38590,-0.13370,0.08207,0.00000,0.03257,0.97673,-0.17666,2023,6,8,14,33,43,361
4.38600,0.04130,0.15207,0.00000,0.03416,0.97734,-0.17714,2023,6,8,14,33,43,372
4.38610,-0.04620,0.20457,0.00000,0.03221,0.97820,-0.17568,2023,6,8,14,33,43,383
4.38620,-0.08120,-0.05793,0.00000,0.03172,0.97929,-0.17422,2023,6,8,14,33,43,394
4.38630,0.04130,-0.07543,0.00000,0.03489,0.97673,-0.17824,2023,6,8,14,33,43,405
4.38640,0.02380,0.02957,0.00000,0.03172,0.97515,-0.17727,2023,6,8,14,33,43,417
4.38650,0.02380,-0.07543,0.00000,0.03270,0.97527,-0.17653,2023,6,8,14,33,43,428
4.38660,0.02380,-0.11043,0.00000,0.03343,0.97881,-0.17629,2023,6,8,14,33,43,439
4.38670,-0.18620,0.04707,0.00000,0.03306,0.97783,-0.17653,2023,6,8,14,33,43,450
4.38680,0.04130,0.23957,0.00000,0.03233,0.97637,-0.17873,2023,6,8,14,33,43,461
4.38690,0.02380,0.02957,0.00000,0.03294,0.97637,-0.17739,2023,6,8,14,33,43,472
4.38700,-0.08120,-0.00543,0.00000,0.03184,0.98088,-0.17739,2023,6,8,14,33,43,483
4.38710,-0.16870,-0.09293,0.00000,0.03245,0.97661,-0.17446,2023,6,8,14,33,43,494
4.38720,0.18130,0.04707,0.00000,0.03440,0.97856,-0.17788,2023,6,8,14,33,43,505
4.38730,-0.04620,0.09957,0.00000,0.03245,0.97563,-0.17812,2023,6,8,14,33,43,517
4.38740,-0.13370,0.06457,0.00000,0.03184,0.97661,-0.17653,2023,6,8,14,33,43,528
4.38750,-0.15120,0.18707,0.00000,0.03196,0.97759,-0.17702,2023,6,8,14,33,43,539
4.38760,0.12880,0.08207,0.00000,0.03184,0.97624,-0.17763,2023,6,8,14,33,43,550
4.38770,-0.08120,0.02957,0.00000,0.03270,0.97783,-0.17812,2023,6,8,14,33,43,561
4.38780,-0.06370,0.23957,0.00000,0.03331,0.97893,-0.17714,2023,6,8,14,33,43,572
4.38790,-0.08120,0.01207,0.00000,0.03123,0.97795,-0.17653,2023,6,8,14,33,43,583
4.38800,-0.01120,0.02957,0.00000,0.03392,0.97832,-0.17751,2023,6,8,14,33,43,594
4.38810,0.14630,-0.09293,0.00000,0.03196,0.97868,-0.17568,2023,6,8,14,33,43,605
4.38820,-0.08120,-0.02293,0.00000,0.03062,0.97673,-0.17580,2023,6,8,14,33,43,617
4.38830,0.04130,0.15207,0.00000,0.03257,0.97893,-0.17751,2023,6,8,14,33,43,628
4.38840,-0.02870,0.11707,0.00000,0.03416,0.97673,-0.17531,2023,6,8,14,33,43,639
4.38850,0.05880,0.08207,0.00000,0.03294,0.97771,-0.17800,2023,6,8,14,33,43,650
4.38860,-0.06370,0.23957,0.00000,0.02965,0.97942,-0.17556,2023,6,8,14,33,43,661
4.38870,-0.08120,0.04707,0.00000,0.03135,0.97637,-0.17836,2023,6,8,14,33,43,672
4.38880,-0.02870,-0.16293,0.00000,0.03343,0.97649,-0.17812,2023,6,8,14,33,43,683
4.38890,0.11130,-0.05793,0.00000,0.03355,0.97942,-0.17641,2023,6,8,14,33,43,694
4.38900,0.19880,0.04707,0.00000,0.03306,0.97807,-0.17568,2023,6,8,14,33,43,705
4.38910,-0.02870,0.06457,0.00000,0.03111,0.97893,-0.17568,2023,6,8,14,33,43,717
4.38920,-0.11620,-0.16293,0.00000,0.03172,0.97954,-0.17763,2023,6,8,14,33,43,728
4.38930,0.05880,0.04707,0.00000,0.03148,0.97820,-0.17714,2023,6,8,14,33,43,739
4.38940,-0.11620,0.16957,0.00000,0.03282,0.97856,-0.17775,2023,6,8,14,33,43,750
4.38950,-0.02870,0.43207,0.00000,0.03270,0.97685,-0.17678,2023,6,8,14,33,43,761
4.38960,0.11130,-0.14543,0.00000,0.03148,0.97746,-0.17824,2023,6,8,14,33,43,772
4.38970,-0.08120,0.08207,0.00000,0.03270,0.97649,-0.17641,2023,6,8,14,33,43,783
4.38980,-0.01120,0.11707,0.00000,0.03148,0.97795,-0.17483,2023,6,8,14,33,43,794
4.38990,0.14630,0.18707,0.00000,0.03318,0.97868,-0.17897,2023,6,8,14,33,43,805
4.39000,0.09380,-0.05793,0.00000,0.03367,0.97783,-0.17922,2023,6,8,14,33,43,817
4.39010,0.09380,0.06457,0.00000,0.03379,0.97734,-0.17763,2023,6,8,14,33,43,828
4.39020,0.23380,-0.05793,0.00000,0.03282,0.97807,-0.17617,2023,6,8,14,33,43,839
4.39030,-0.06370,0.09957,0.00000,0.03453,0.97637,-0.17678,2023,6,8,14,33,43,850
4.39040,0.09380,0.04707,0.00000,0.03257,0.97490,-0.17788,2023,6,8,14,33,43,861
4.39050,0.23380,-0.19793,0.00000,0.03270,0.97942,-0.17739,2023,6,8,14,33,43,872
4.39060,0.11130,0.01207,0.00000,0.03294,0.97771,-0.17836,2023,6,8,14,33,43,883
4.39070,-0.06370,-0.09293,0.00000,0.03196,0.97673,-0.17556,2023,6,8,14,33,43,894
4.39080,0.00630,-0.04043,0.00000,0.02952,0.97783,-0.17739,2023,6,8,14,33,43,905
4.39090,0.00630,-0.07543,0.00000,0.03233,0.97783,-0.17897,2023,6,8,14,33,43,917
4.39100,-0.06370,0.13457,0.00000,0.03172,0.97673,-0.17751,2023,6,8,14,33,43,928
4.39110,-0.01120,0.11707,0.00000,0.03416,0.97783,-0.17836,2023,6,8,14,33,43,939
4.39120,0.02380,-0.02293,0.00000,0.03306,0.97637,-0.17861,2023,6,8,14,33,43,950
4.39130,-0.06370,0.06457,0.00000,0.03282,0.97734,-0.17629,2023,6,8,14,33,43,961
4.39140,0.09380,-0.04043,0.00000,0.02965,0.97893,-0.17849,2023,6,8,14,33,43,972
4.39150,0.12880,0.16957,0.00000,0.03343,0.97893,-0.17629,2023,6,8,14,33,43,983
4.39160,-0.02870,-0.00543,0.00000,0.03318,0.97807,-0.17702,2023,6,8,14,33,43,994
4.39170,0.16380,-0.02293,0.00000,0.03404,0.97759,-0.17556,2023,6,8,14,33,44,5
4.39180,-0.01120,0.04707,0.00000,0.03465,0.97929,-0.17727,2023,6,8,14,33,44,17
4.39190,-0.01120,0.23957,0.00000,0.03416,0.97685,-0.17788,2023,6,8,14,33,44,28
4.39200,-0.08120,-0.07543,0.00000,0.03282,0.97649,-0.17788,2023,6,8,14,33,44,39
4.39210,-0.04620,-0.12793,0.00000,0.03160,0.97661,-0.17836,2023,6,8,14,33,44,50
4.39220,0.02380,0.01207,0.00000,0.03026,0.97905,-0.17629,2023,6,8,14,33,44,61
4.39230,-0.06370,0.02957,0.00000,0.03282,0.97734,-0.17836,2023,6,8,14,33,44,72
4.39240,-0.06370,-0.04043,0.00000,0.03453,0.97502,-0.17592,2023,6,8,14,33,44,83
4.39250,-0.01120,-0.05793,0.00000,0.03257,0.97759,-0.17800,2023,6,8,14,33,44,94
4.39260,0.02380,0.08207,0.00000,0.03245,0.97759,-0.17714,2023,6,8,14,33,44,105
4.39270,0.00630,0.08207,0.00000,0.03355,0.97466,-0.17800,2023,6,8,14,33,44,117
4.39280,-0.09870,-0.02293,0.00000,0.03209,0.97881,-0.17702,2023,6,8,14,33,44,128
4.39290,0.05880,-0.11043,0.00000,0.03282,0.97893,-0.17653,2023,6,8,14,33,44,139
4.39300,0.00630,-0.07543,0.00000,0.03111,0.97746,-0.17641,2023,6,8,14,33,44,150
4.39310,0.14630,-0.07543,0.00000,0.03209,0.97722,-0.17763,2023,6,8,14,33,44,161
4.39320,-0.11620,0.27457,0.00000,0.03245,0.97710,-0.17580,2023,6,8,14,33,44,172
4.39330,0.25130,0.08207,0.00000,0.03172,0.97795,-0.17800,2023,6,8,14,33,44,183
4.39340,0.02380,-0.02293,0.00000,0.03257,0.97868,-0.17568,2023,6,8,14,33,44,194
4.39350,0.05880,0.08207,0.00000,0.03062,0.97759,-0.17800,2023,6,8,14,33,44,205
4.39360,0.05880,0.01207,0.00000,0.03367,0.97649,-0.17836,2023,6,8,14,33,44,217
4.39370,0.18130,0.02957,0.00000,0.03148,0.97783,-0.17714,2023,6,8,14,33,44,228
4.39380,0.02380,0.01207,0.00000,0.03196,0.97698,-0.17775,2023,6,8,14,33,44,239
4.39390,-0.11620,0.27457,0.00000,0.03318,0.97783,-0.17690,2023,6,8,14,33,44,250
4.39400,0.04130,-0.09293,0.00000,0.03233,0.97624,-0.17714,2023,6,8,14,33,44,261
4.39410,0.21630,-0.09293,0.00000,0.03148,0.97624,-0.17678,2023,6,8,14,33,44,272
4.39420,-0.08120,-0.02293,0.00000,0.03257,0.97917,-0.17714,2023,6,8,14,33,44,283
4.39430,0.19880,-0.11043,0.00000,0.03331,0.97588,-0.17653,2023,6,8,14,33,44,294
4.39440,0.00630,-0.12793,0.00000,0.03355,0.97820,-0.17739,2023,6,8,14,33,44,305
4.39450,-0.04620,0.18707,0.00000,0.03221,0.98003,-0.17690,2023,6,8,14,33,44,317
4.39460,-0.04620,0.18707,0.00000,0.03148,0.97966,-0.17702,2023,6,8,14,33,44,328
4.39470,0.16380,-0.14543,0.00000,0.03270,0.97881,-0.17678,2023,6,8,14,33,44,339
4.39480,-0.15120,0.27457,0.00000,0.03282,0.97698,-0.17788,2023,6,8,14,33,44,350
4.39490,0.09380,-0.25043,0.00000,0.03209,0.97661,-0.17800,2023,6,8,14,33,44,361
4.39500,0.04130,0.11707,0.00000,0.03135,0.97746,-0.17605,2023,6,8,14,33,44,372
4.39510,0.21630,-0.11043,0.00000,0.03453,0.97563,-0.17983,2023,6,8,14,33,44,383
4.39520,-0.11620,0.08207,0.00000,0.03160,0.97771,-0.17763,2023,6,8,14,33,44,394
4.39530,-0.13370,0.16957,0.00000,0.03514,0.97661,-0.17678,2023,6,8,14,33,44,405
4.39540,-0.01120,0.04707,0.00000,0.03343,0.97783,-0.17739,2023,6,8,14,33,44,417
4.39550,0.05880,0.02957,0.00000,0.03209,0.97881,-0.17800,2023,6,8,14,33,44,428
4.39560,0.00630,-0.00543,0.00000,0.03184,0.97515,-0.17775,2023,6,8,14,33,44,439
4.39570,0.00630,-0.12793,0.00000,0.03318,0.97612,-0.17910,2023,6,8,14,33,44,450
4.39580,-0.22120,0.09957,0.00000,0.03123,0.97893,-0.17958,2023,6,8,14,33,44,461
4.39590,-0.16870,0.09957,0.00000,0.03477,0.97600,-0.18068,2023,6,8,14,33,44,472
4.39600,0.09380,0.09957,0.00000,0.03318,0.97576,-0.17812,2023,6,8,14,33,44,483
4.39610,-0.15120,0.16957,0.00000,0.03404,0.97722,-0.17873,2023,6,8,14,33,44,494
4.39620,-0.08120,-0.00543,0.00000,0.03257,0.97771,-0.17910,2023,6,8,14,33,44,505
4.39630,0.00630,0.06457,0.00000,0.03367,0.97759,-0.17739,2023,6,8,14,33,44,517
4.39640,0.05880,0.06457,0.00000,0.03318,0.97759,-0.17910,2023,6,8,14,33,44,528
4.39650,0.16380,0.01207,0.00000,0.03123,0.97612,-0.17873,2023,6,8,14,33,44,539
4.39660,-0.01120,0.30957,0.00000,0.03245,0.97722,-0.17958,2023,6,8,14,33,44,550
4.39670,-0.11620,0.27457,0.00000,0.03233,0.97515,-0.17910,2023,6,8,14,33,44,561
4.39680,0.00630,-0.04043,0.00000,0.03135,0.97966,-0.17946,2023,6,8,14,33,44,572
4.39690,0.05880,0.13457,0.00000,0.03416,0.97624,-0.17861,2023,6,8,14,33,44,583
4.39700,-0.23870,0.22207,0.00000,0.03148,0.97844,-0.18019,2023,6,8,14,33,44,594
4.39710,-0.06370,0.30957,0.00000,0.03209,0.97710,-0.18007,2023,6,8,14,33,44,605
4.39720,-0.09870,0.11707,0.00000,0.03184,0.97673,-0.18178,2023,6,8,14,33,44,617
4.39730,-0.06370,0.01207,0.00000,0.03074,0.97649,-0.18105,2023,6,8,14,33,44,628
4.39740,0.09380,-0.00543,0.00000,0.03233,0.97929,-0.17958,2023,6,8,14,33,44,639
4.39750,0.12880,-0.09293,0.00000,0.03355,0.97563,-0.18190,2023,6,8,14,33,44,650
4.39760,0.07630,0.15207,0.00000,0.03062,0.97746,-0.18032,2023,6,8,14,33,44,661
4.39770,0.02380,0.18707,0.00000,0.03392,0.97722,-0.18056,2023,6,8,14,33,44,672
4.39780,-0.15120,0.04707,0.00000,0.03221,0.97881,-0.18056,2023,6,8,14,33,44,683
4.39790,-0.02870,0.08207,0.00000,0.03367,0.97844,-0.18019,2023,6,8,14,33,44,694
4.39800,0.12880,-0.09293,0.00000,0.03245,0.97685,-0.17971,2023,6,8,14,33,44,705
4.39810,0.07630,-0.04043,0.00000,0.03355,0.97942,-0.18117,2023,6,8,14,33,44,717
4.39820,0.05880,0.11707,0.00000,0.03245,0.97795,-0.17910,2023,6,8,14,33,44,728
4.39830,0.18130,-0.14543,0.00000,0.03062,0.97795,-0.17934,2023,6,8,14,33,44,739
4.39840,0.07630,0.09957,0.00000,0.03270,0.97832,-0.18105,2023,6,8,14,33,44,750
4.39850,0.25130,-0.16293,0.00000,0.03318,0.97905,-0.17836,2023,6,8,14,33,44,761
4.39860,0.04130,0.16957,0.00000,0.03160,0.97368,-0.18105,2023,6,8,14,33,44,772
4.39870,-0.15120,0.16957,0.00000,0.03123,0.97722,-0.18141,2023,6,8,14,33,44,783
4.39880,0.19880,-0.09293,0.00000,0.03148,0.97661,-0.17836,2023,6,8,14,33,44,794
4.39890,0.00630,-0.04043,0.00000,0.03282,0.97783,-0.18044,2023,6,8,14,33,44,805
4.39900,-0.02870,0.25707,0.00000,0.03123,0.97795,-0.18044,2023,6,8,14,33,44,817
4.39910,0.05880,0.04707,0.00000,0.02977,0.97844,-0.18105,2023,6,8,14,33,44,828
4.39920,-0.04620,0.25707,0.00000,0.03404,0.97551,-0.18129,2023,6,8,14,33,44,839
4.39930,0.02380,-0.12793,0.00000,0.03038,0.97685,-0.17995,2023,6,8,14,33,44,850
4.39940,0.05880,0.09957,0.00000,0.03257,0.97783,-0.17971,2023,6,8,14,33,44,861
4.39950,0.07630,-0.09293,0.00000,0.03184,0.97917,-0.18056,2023,6,8,14,33,44,872
4.39960,-0.02870,0.13457,0.00000,0.03233,0.97868,-0.17983,2023,6,8,14,33,44,883
4.39970,0.04130,-0.05793,0.00000,0.03367,0.97807,-0.18068,2023,6,8,14,33,44,894
4.39980,0.14630,0.01207,0.00000,0.03416,0.97868,-0.17702,2023,6,8,14,33,44,905
4.39990,-0.01120,0.27457,0.00000,0.03318,0.97649,-0.18129,2023,6,8,14,33,44,917
4.40000,-0.13370,0.01207,0.00000,0.03135,0.97795,-0.18080,2023,6,8,14,33,44,928
4.40010,-0.09870,0.16957,0.00000,0.03196,0.97795,-0.18056,2023,6,8,14,33,44,939
4.40020,-0.04620,0.11707,0.00000,0.03160,0.97759,-0.18080,2023,6,8,14,33,44,950
4.40030,-0.15120,0.09957,0.00000,0.03245,0.97771,-0.17958,2023,6,8,14,33,44,961
4.40040,0.09380,0.08207,0.00000,0.03245,0.97563,-0.17971,2023,6,8,14,33,44,972
4.40050,-0.13370,-0.00543,0.00000,0.03270,0.97698,-0.18068,2023,6,8,14,33,44,983
4.40060,-0.11620,-0.12793,0.00000,0.03062,0.97759,-0.17934,2023,6,8,14,33,44,994
4.40070,0.07630,-0.05793,0.00000,0.03209,0.97929,-0.17824,2023,6,8,14,33,45,5
4.40080,-0.04620,-0.09293,0.00000,0.03172,0.97673,-0.17910,2023,6,8,14,33,45,17
4.40090,0.00630,-0.18043,0.00000,0.03135,0.97868,-0.17897,2023,6,8,14,33,45,28
4.40100,-0.15120,-0.12793,0.00000,0.03001,0.97527,-0.18068,2023,6,8,14,33,45,39
4.40110,-0.06370,0.11707,0.00000,0.03172,0.97881,-0.18032,2023,6,8,14,33,45,50
4.40120,-0.01120,-0.00543,0.00000,0.03367,0.97722,-0.18056,2023,6,8,14,33,45,61
4.40130,-0.06370,-0.02293,0.00000,0.03160,0.97771,-0.17824,2023,6,8,14,33,45,72
4.40140,0.02380,0.06457,0.00000,0.03587,0.97588,-0.17897,2023,6,8,14,33,45,83
4.40150,-0.04620,0.16957,0.00000,0.03196,0.97771,-0.17751,2023,6,8,14,33,45,94
4.40160,-0.02870,-0.07543,0.00000,0.03343,0.97563,-0.17910,2023,6,8,14,33,45,105
4.40170,0.00630,0.20457,0.00000,0.03221,0.97759,-0.17727,2023,6,8,14,33,45,117
4.40180,-0.09870,-0.21543,0.00000,0.03209,0.97746,-0.18129,2023,6,8,14,33,45,128
4.40190,-0.11620,0.13457,0.00000,0.03416,0.97832,-0.18056,2023,6,8,14,33,45,139
4.40200,0.18130,0.04707,0.00000,0.03282,0.97746,-0.17995,2023,6,8,14,33,45,150
4.40210,0.16380,-0.02293,0.00000,0.03221,0.97515,-0.17739,2023,6,8,14,33,45,161
4.40220,-0.06370,-0.00543,0.00000,0.03221,0.97685,-0.18068,2023,6,8,14,33,45,172
4.40230,-0.02870,0.04707,0.00000,0.03184,0.97600,-0.18080,2023,6,8,14,33,45,183
4.40240,-0.09870,0.15207,0.00000,0.03270,0.97771,-0.18019,2023,6,8,14,33,45,194
4.40250,-0.02870,-0.04043,0.00000,0.03294,0.97722,-0.18019,2023,6,8,14,33,45,205
4.40260,0.11130,0.02957,0.00000,0.03367,0.97868,-0.18007,2023,6,8,14,33,45,217
4.40270,-0.18620,0.01207,0.00000,0.03392,0.97795,-0.17763,2023,6,8,14,33,45,228
4.40280,-0.02870,-0.05793,0.00000,0.03294,0.98003,-0.18166,2023,6,8,14,33,45,239
4.40290,-0.04620,0.11707,0.00000,0.03392,0.97649,-0.18056,2023,6,8,14,33,45,250
4.40300,0.11130,0.15207,0.00000,0.03355,0.97783,-0.18044,2023,6,8,14,33,45,261
4.40310,-0.16870,0.04707,0.00000,0.03148,0.97722,-0.18129,2023,6,8,14,33,45,272
4.40320,0.11130,-0.02293,0.00000,0.03221,0.97685,-0.18093,2023,6,8,14,33,45,283
4.40330,0.07630,-0.04043,0.00000,0.03221,0.97722,-0.18263,2023,6,8,14,33,45,294
4.40340,-0.20370,-0.09293,0.00000,0.03172,0.97649,-0.17861,2023,6,8,14,33,45,305
4.40350,-0.04620,0.02957,0.00000,0.03087,0.97783,-0.17812,2023,6,8,14,33,45,317
4.40360,0.19880,0.11707,0.00000,0.03135,0.97795,-0.17946,2023,6,8,14,33,45,328
4.40370,-0.06370,-0.04043,0.00000,0.03416,0.97624,-0.17922,2023,6,8,14,33,45,339
4.40380,0.00630,0.16957,0.00000,0.03038,0.97649,-0.18105,2023,6,8,14,33,45,350
4.40390,0.04130,-0.04043,0.00000,0.03379,0.97807,-0.17727,2023,6,8,14,33,45,361
4.40400,0.00630,0.06457,0.00000,0.03282,0.97820,-0.17958,2023,6,8,14,33,45,372
4.40410,-0.04620,-0.16293,0.00000,0.03355,0.97637,-0.17873,2023,6,8,14,33,45,383
4.40420,0.00630,0.11707,0.00000,0.03111,0.97893,-0.17934,2023,6,8,14,33,45,394
4.40430,-0.01120,0.01207,0.00000,0.03245,0.97722,-0.18032,2023,6,8,14,33,45,405
4.40440,0.02380,0.22207,0.00000,0.03221,0.97929,-0.18032,2023,6,8,14,33,45,417
4.40450,0.00630,0.22207,0.00000,0.03318,0.97746,-0.18166,2023,6,8,14,33,45,428
4.40460,0.07630,-0.07543,0.00000,0.03367,0.97759,-0.17958,2023,6,8,14,33,45,439
4.40470,-0.01120,-0.19793,0.00000,0.03196,0.97563,-0.17861,2023,6,8,14,33,45,450
4.40480,0.07630,0.16957,0.00000,0.03294,0.97722,-0.17934,2023,6,8,14,33,45,461
4.40490,-0.08120,0.01207,0.00000,0.03111,0.97722,-0.18068,2023,6,8,14,33,45,472
4.40500,0.09380,-0.18043,0.00000,0.03392,0.97722,-0.17922,2023,6,8,14,33,45,483
4.40510,-0.11620,-0.07543,0.00000,0.03257,0.97600,-0.17995,2023,6,8,14,33,45,494
4.40520,-0.01120,0.02957,0.00000,0.03343,0.97490,-0.17861,2023,6,8,14,33,45,505
4.40530,-0.09870,0.09957,0.00000,0.03099,0.97746,-0.17922,2023,6,8,14,33,45,517
4.40540,0.16380,0.06457,0.00000,0.03379,0.97722,-0.17934,2023,6,8,14,33,45,528
4.40550,-0.08120,-0.02293,0.00000,0.03355,0.97673,-0.17934,2023,6,8,14,33,45,539
4.40560,0.21630,-0.07543,0.00000,0.03172,0.97881,-0.17910,2023,6,8,14,33,45,550
4.40570,-0.06370,0.20457,0.00000,0.03294,0.97637,-0.17666,2023,6,8,14,33,45,561
4.40580,0.09380,0.09957,0.00000,0.03196,0.97807,-0.17885,2023,6,8,14,33,45,572
4.40590,-0.04620,0.15207,0.00000,0.03367,0.97856,-0.18166,2023,6,8,14,33,45,583
4.40600,-0.04620,0.01207,0.00000,0.03111,0.97661,-0.17995,2023,6,8,14,33,45,594
4.40610,0.02380,0.23957,0.00000,0.03318,0.97929,-0.18007,2023,6,8,14,33,45,605
4.40620,0.19880,-0.04043,0.00000,0.03379,0.97795,-0.17971,2023,6,8,14,33,45,617
4.40630,0.04130,0.13457,0.00000,0.03306,0.97844,-0.17971,2023,6,8,14,33,45,628
4.40640,-0.06370,-0.11043,0.00000,0.03001,0.97881,-0.18019,2023,6,8,14,33,45,639
4.40650,0.12880,0.01207,0.00000,0.03257,0.97563,-0.17971,2023,6,8,14,33,45,650
4.40660,0.02380,0.06457,0.00000,0.03318,0.97734,-0.17995,2023,6,8,14,33,45,661
4.40670,0.07630,-0.02293,0.00000,0.03209,0.97612,-0.18032,2023,6,8,14,33,45,672
4.40680,0.07630,-0.07543,0.00000,0.03148,0.97624,-0.17922,2023,6,8,14,33,45,683
4.40690,-0.08120,0.02957,0.00000,0.03074,0.97746,-0.17995,2023,6,8,14,33,45,694
4.40700,-0.02870,0.11707,0.00000,0.03087,0.97746,-0.17824,2023,6,8,14,33,45,705
4.40710,-0.15120,0.04707,0.00000,0.03233,0.97734,-0.17751,2023,6,8,14,33,45,717
4.40720,-0.04620,0.09957,0.00000,0.03294,0.97612,-0.17836,2023,6,8,14,33,45,728
4.40730,0.04130,0.06457,0.00000,0.03087,0.97759,-0.17788,2023,6,8,14,33,45,739
4.40740,0.07630,-0.04043,0.00000,0.03355,0.98027,-0.17983,2023,6,8,14,33,45,750
4.40750,0.32130,0.04707,0.00000,0.03282,0.97698,-0.18117,2023,6,8,14,33,45,761
4.40760,-0.06370,0.25707,0.00000,0.03184,0.97759,-0.17861,2023,6,8,14,33,45,772
4.40770,-0.11620,0.01207,0.00000,0.03050,0.97710,-0.18007,2023,6,8,14,33,45,783
4.40780,0.23380,-0.07543,0.00000,0.03294,0.97539,-0.18007,2023,6,8,14,33,45,794
4.40790,-0.08120,0.09957,0.00000,0.03148,0.97649,-0.17836,2023,6,8,14,33,45,805
4.40800,-0.02870,0.15207,0.00000,0.03196,0.97612,-0.17897,2023,6,8,14,33,45,817
4.40810,0.12880,0.11707,0.00000,0.03221,0.97771,-0.18178,2023,6,8,14,33,45,828
4.40820,0.11130,-0.00543,0.00000,0.03318,0.97649,-0.17861,2023,6,8,14,33,45,839
4.40830,0.02380,-0.00543,0.00000,0.03343,0.97966,-0.17946,2023,6,8,14,33,45,850
4.40840,0.00630,0.18707,0.00000,0.03257,0.97881,-0.18044,2023,6,8,14,33,45,861
4.40850,-0.01120,0.02957,0.00000,0.03245,0.97600,-0.17995,2023,6,8,14,33,45,872
4.40860,-0.06370,0.13457,0.00000,0.03233,0.97795,-0.17763,2023,6,8,14,33,45,883
4.40870,0.05880,0.15207,0.00000,0.03343,0.97710,-0.17897,2023,6,8,14,33,45,894
4.40880,0.05880,0.20457,0.00000,0.03209,0.97917,-0.18056,2023,6,8,14,33,45,905
4.40890,0.02380,-0.23293,0.00000,0.02989,0.97868,-0.17544,2023,6,8,14,33,45,917
4.40900,0.07630,0.04707,0.00000,0.03562,0.97893,-0.17824,2023,6,8,14,33,45,928
4.40910,-0.08120,0.08207,0.00000,0.03172,0.97722,-0.17897,2023,6,8,14,33,45,939
4.40920,0.12880,0.15207,0.00000,0.03099,0.97661,-0.17812,2023,6,8,14,33,45,950
4.40930,0.00630,-0.11043,0.00000,0.03428,0.97795,-0.18068,2023,6,8,14,33,45,961
4.40940,-0.16870,0.20457,0.00000,0.03392,0.97807,-0.17958,2023,6,8,14,33,45,972
4.40950,-0.06370,-0.12793,0.00000,0.03318,0.97844,-0.17751,2023,6,8,14,33,45,983
4.40960,0.09380,-0.04043,0.00000,0.03404,0.97734,-0.18141,2023,6,8,14,33,45,994
4.40970,0.09380,-0.04043,0.00000,0.03404,0.97539,-0.17836,2023,6,8,14,33,46,5
4.40980,-0.01120,-0.00543,0.00000,0.03270,0.97649,-0.17873,2023,6,8,14,33,46,17
4.40990,0.04130,-0.09293,0.00000,0.03160,0.97612,-0.17788,2023,6,8,14,33,46,28
4.41000,0.11130,-0.18043,0.00000,0.03221,0.97661,-0.17958,2023,6,8,14,33,46,39
4.41010,-0.16870,0.08207,0.00000,0.03087,0.97746,-0.17897,2023,6,8,14,33,46,50
4.41020,0.05880,0.02957,0.00000,0.03611,0.97600,-0.17763,2023,6,8,14,33,46,61
4.41030,0.04130,-0.04043,0.00000,0.03477,0.97771,-0.17800,2023,6,8,14,33,46,72
4.41040,-0.04620,-0.00543,0.00000,0.03221,0.97820,-0.17800,2023,6,8,14,33,46,83
4.41050,-0.13370,0.08207,0.00000,0.03257,0.97771,-0.17763,2023,6,8,14,33,46,94
4.41060,-0.01120,0.11707,0.00000,0.03379,0.97905,-0.17934,2023,6,8,14,33,46,105
4.41070,-0.02870,0.16957,0.00000,0.03221,0.98003,-0.17958,2023,6,8,14,33,46,117
4.41080,0.14630,-0.14543,0.00000,0.03233,0.97698,-0.17885,2023,6,8,14,33,46,128
4.41090,0.00630,-0.07543,0.00000,0.03282,0.97759,-0.17849,2023,6,8,14,33,46,139
4.41100,0.00630,0.01207,0.00000,0.03245,0.97637,-0.17824,2023,6,8,14,33,46,150
4.41110,0.09380,0.04707,0.00000,0.03001,0.97527,-0.17958,2023,6,8,14,33,46,161
4.41120,0.11130,-0.12793,0.00000,0.03135,0.97771,-0.17739,2023,6,8,14,33,46,172
4.41130,-0.01120,-0.14543,0.00000,0.03331,0.97722,-0.17897,2023,6,8,14,33,46,183
4.41140,0.11130,0.08207,0.00000,0.03099,0.97624,-0.17861,2023,6,8,14,33,46,194
4.41150,0.04130,-0.07543,0.00000,0.03501,0.97710,-0.17971,2023,6,8,14,33,46,205
4.41160,0.05880,-0.05793,0.00000,0.03440,0.97856,-0.17812,2023,6,8,14,33,46,217
4.41170,0.07630,-0.05793,0.00000,0.03270,0.97832,-0.17958,2023,6,8,14,33,46,228
4.41180,-0.08120,0.06457,0.00000,0.03270,0.97746,-0.17873,2023,6,8,14,33,46,239
4.41190,0.04130,0.20457,0.00000,0.03282,0.97807,-0.17958,2023,6,8,14,33,46,250
4.41200,-0.09870,0.01207,0.00000,0.03245,0.97881,-0.17873,2023,6,8,14,33,46,261
4.41210,0.09380,-0.11043,0.00000,0.03331,0.97600,-0.17873,2023,6,8,14,33,46,272
4.41220,0.05880,-0.04043,0.00000,0.03050,0.97746,-0.17946,2023,6,8,14,33,46,283
4.41230,-0.02870,0.02957,0.00000,0.03135,0.97734,-0.17727,2023,6,8,14,33,46,294
4.41240,0.07630,0.04707,0.00000,0.03355,0.97637,-0.17873,2023,6,8,14,33,46,305
4.41250,-0.04620,0.04707,0.00000,0.03367,0.97783,-0.17934,2023,6,8,14,33,46,317
4.41260,0.12880,0.22207,0.00000,0.03538,0.97612,-0.17849,2023,6,8,14,33,46,328
4.41270,0.07630,0.22207,0.00000,0.03123,0.97783,-0.17910,2023,6,8,14,33,46,339
4.41280,-0.09870,0.25707,0.00000,0.03111,0.97990,-0.17751,2023,6,8,14,33,46,350
4.41290,-0.06370,0.27457,0.00000,0.03294,0.97893,-0.17775,2023,6,8,14,33,46,361
4.41300,0.07630,-0.04043,0.00000,0.03404,0.97820,-0.17861,2023,6,8,14,33,46,372
4.41310,0.02380,-0.00543,0.00000,0.03245,0.97673,-0.17690,2023,6,8,14,33,46,383
4.41320,0.09380,0.04707,0.00000,0.03343,0.97820,-0.17690,2023,6,8,14,33,46,394
4.41330,-0.13370,0.04707,0.00000,0.03184,0.97710,-0.18007,2023,6,8,14,33,46,405
4.41340,-0.02870,0.04707,0.00000,0.03489,0.97807,-0.17836,2023,6,8,14,33,46,417
4.41350,-0.09870,0.25707,0.00000,0.03343,0.97820,-0.17885,2023,6,8,14,33,46,428
4.41360,-0.11620,-0.14543,0.00000,0.03148,0.97771,-0.17897,2023,6,8,14,33,46,439
4.41370,-0.16870,0.22207,0.00000,0.03209,0.97722,-0.17812,2023,6,8,14,33,46,450
4.41380,0.11130,0.11707,0.00000,0.03257,0.97710,-0.17971,2023,6,8,14,33,46,461
4.41390,0.04130,-0.09293,0.00000,0.03282,0.97710,-0.17812,2023,6,8,14,33,46,472
4.41400,-0.15120,0.08207,0.00000,0.03245,0.97698,-0.17812,2023,6,8,14,33,46,483
4.41410,-0.02870,0.15207,0.00000,0.03196,0.97710,-0.17922,2023,6,8,14,33,46,494
4.41420,0.07630,0.15207,0.00000,0.03148,0.97515,-0.17934,2023,6,8,14,33,46,505
4.41430,-0.01120,-0.12793,0.00000,0.03135,0.97807,-0.17897,2023,6,8,14,33,46,517
4.41440,0.04130,0.11707,0.00000,0.03270,0.97722,-0.18093,2023,6,8,14,33,46,528
4.41450,-0.02870,-0.02293,0.00000,0.03038,0.97820,-0.17836,2023,6,8,14,33,46,539
4.41460,0.12880,0.16957,0.00000,0.03148,0.97807,-0.17788,2023,6,8,14,33,46,550
4.41470,0.07630,-0.05793,0.00000,0.03465,0.97722,-0.17763,2023,6,8,14,33,46,561
4.41480,-0.04620,0.08207,0.00000,0.03135,0.97759,-0.17727,2023,6,8,14,33,46,572
4.41490,-0.01120,0.06457,0.00000,0.03270,0.97905,-0.17946,2023,6,8,14,33,46,583
4.41500,0.02380,0.25707,0.00000,0.03318,0.97746,-0.17958,2023,6,8,14,33,46,594
4.41510,0.00630,0.06457,0.00000,0.03404,0.97929,-0.17763,2023,6,8,14,33,46,605
4.41520,-0.01120,-0.14543,0.00000,0.03270,0.97698,-0.17958,2023,6,8,14,33,46,617
4.41530,0.07630,-0.09293,0.00000,0.03306,0.97820,-0.17727,2023,6,8,14,33,46,628
4.41540,0.09380,-0.02293,0.00000,0.03050,0.97856,-0.17605,2023,6,8,14,33,46,639
4.41550,-0.15120,0.08207,0.00000,0.03111,0.97844,-0.17946,2023,6,8,14,33,46,650
4.41560,0.05880,0.11707,0.00000,0.03209,0.97881,-0.17849,2023,6,8,14,33,46,661
4.41570,0.05880,0.04707,0.00000,0.03111,0.97612,-0.17983,2023,6,8,14,33,46,672
4.41580,-0.01120,0.01207,0.00000,0.03087,0.97563,-0.17836,2023,6,8,14,33,46,683
4.41590,-0.06370,0.08207,0.00000,0.03343,0.97893,-0.17934,2023,6,8,14,33,46,694
4.41600,0.05880,-0.02293,0.00000,0.03257,0.97856,-0.18007,2023,6,8,14,33,46,705
4.41610,-0.15120,-0.26793,0.00000,0.03026,0.97551,-0.17946,2023,6,8,14,33,46,717
4.41620,0.05880,-0.11043,0.00000,0.03038,0.98466,-0.18019,2023,6,8,14,33,46,728
4.41630,-0.11620,0.06457,0.00000,0.03148,0.97624,-0.17812,2023,6,8,14,33,46,739
4.41640,0.00630,-0.14543,0.00000,0.03245,0.97685,-0.17849,2023,6,8,14,33,46,750
4.41650,-0.15120,0.15207,0.00000,0.03257,0.97673,-0.18190,2023,6,8,14,33,46,761
4.41660,-0.04620,0.11707,0.00000,0.03318,0.97734,-0.18141,2023,6,8,14,33,46,772
4.41670,-0.08120,0.01207,0.00000,0.03062,0.97722,-0.17861,2023,6,8,14,33,46,783
4.41680,-0.11620,0.02957,0.00000,0.03294,0.97868,-0.17922,2023,6,8,14,33,46,794
4.41690,-0.20370,0.02957,0.00000,0.03135,0.97759,-0.17922,2023,6,8,14,33,46,805
4.41700,0.18130,-0.12793,0.00000,0.03209,0.97795,-0.18019,2023,6,8,14,33,46,817
4.41710,0.05880,-0.04043,0.00000,0.03257,0.97710,-0.18068,2023,6,8,14,33,46,828
4.41720,0.05880,-0.11043,0.00000,0.03404,0.97746,-0.18044,2023,6,8,14,33,46,839
4.41730,-0.02870,-0.12793,0.00000,0.03379,0.97588,-0.17751,2023,6,8,14,33,46,850
4.41740,0.04130,0.06457,0.00000,0.03221,0.97722,-0.17971,2023,6,8,14,33,46,861
4.41750,0.04130,0.06457,0.00000,0.03160,0.97868,-0.17800,2023,6,8,14,33,46,872
4.41760,-0.08120,0.02957,0.00000,0.03379,0.97734,-0.17800,2023,6,8,14,33,46,883
4.41770,-0.08120,-0.19793,0.00000,0.03355,0.97673,-0.17653,2023,6,8,14,33,46,894
4.41780,-0.02870,0.02957,0.00000,0.03196,0.97685,-0.17958,2023,6,8,14,33,46,905
4.41790,-0.06370,0.16957,0.00000,0.03404,0.97600,-0.17861,2023,6,8,14,33,46,917
4.41800,-0.01120,-0.05793,0.00000,0.03099,0.97734,-0.17946,2023,6,8,14,33,46,928
4.41810,0.07630,-0.11043,0.00000,0.03282,0.97734,-0.17897,2023,6,8,14,33,46,939
4.41820,-0.08120,0.25707,0.00000,0.03306,0.97698,-0.17775,2023,6,8,14,33,46,950
4.41830,0.04130,-0.07543,0.00000,0.03221,0.97966,-0.18056,2023,6,8,14,33,46,961
4.41840,-0.01120,0.01207,0.00000,0.03111,0.97734,-0.17617,2023,6,8,14,33,46,972
4.41850,0.05880,0.01207,0.00000,0.03160,0.97759,-0.17739,2023,6,8,14,33,46,983
4.41860,0.04130,0.06457,0.00000,0.03184,0.97820,-0.17849,2023,6,8,14,33,46,994
4.41870,0.11130,0.11707,0.00000,0.03148,0.97624,-0.17983,2023,6,8,14,33,46,5
4.41880,-0.22120,0.23957,0.00000,0.03282,0.97820,-0.17861,2023,6,8,14,33,47,7
4.41890,-0.01120,0.01207,0.00000,0.03245,0.97856,-0.17727,2023,6,8,14,33,47,18
4.41900,0.11130,0.11707,0.00000,0.03209,0.97466,-0.17934,2023,6,8,14,33,47,29
4.41910,0.14630,0.01207,0.00000,0.03111,0.97478,-0.18019,2023,6,8,14,33,47,40
4.41920,-0.15120,0.08207,0.00000,0.03184,0.97795,-0.18215,2023,6,8,14,33,47,51
4.41930,-0.11620,-0.18043,0.00000,0.03416,0.97527,-0.18117,2023,6,8,14,33,47,62
4.41940,-0.02870,0.22207,0.00000,0.03135,0.97832,-0.17885,2023,6,8,14,33,47,73
4.41950,0.04130,0.04707,0.00000,0.03221,0.97649,-0.17922,2023,6,8,14,33,47,84
4.41960,-0.11620,0.04707,0.00000,0.03489,0.97807,-0.18019,2023,6,8,14,33,47,95
4.41970,-0.01120,0.09957,0.00000,0.03270,0.97746,-0.17922,2023,6,8,14,33,47,107
