#2023/06/08 14:57:11
time,wx,wy,wz,ax,ay,az,yy,MM,dd,hh,mm,ss,ms
5.03820,-0.04252,0.06055,0.00000,0.03270,0.97832,-0.18044,2023,6,8,14,57,11,131
5.03830,0.09747,-0.02695,0.00000,0.03148,0.97893,-0.17934,2023,6,8,14,57,11,142
5.03840,-0.11253,0.00805,0.00000,0.03318,0.97685,-0.18019,2023,6,8,14,57,11,153
5.03850,0.13247,-0.07945,0.00000,0.03270,0.97661,-0.18007,2023,6,8,14,57,11,164
5.03860,0.06248,0.04305,0.00000,0.03453,0.97576,-0.18056,2023,6,8,14,57,11,175
5.03870,0.02747,0.04305,0.00000,0.03318,0.97881,-0.17788,2023,6,8,14,57,11,186
5.03880,-0.06002,-0.06195,0.00000,0.03221,0.97771,-0.17971,2023,6,8,14,57,11,197
5.03890,-0.06002,-0.11445,0.00000,0.03355,0.97820,-0.17812,2023,6,8,14,57,11,208
5.03900,-0.00753,-0.04445,0.00000,0.03331,0.97551,-0.17885,2023,6,8,14,57,11,219
5.03910,0.06248,-0.00945,0.00000,0.03404,0.97734,-0.17861,2023,6,8,14,57,11,231
5.03920,0.21997,0.00805,0.00000,0.03343,0.97771,-0.17824,2023,6,8,14,57,11,242
5.03930,0.14997,-0.35945,0.00000,0.03270,0.97954,-0.17897,2023,6,8,14,57,11,253
5.03940,-0.07753,0.00805,0.00000,0.03123,0.97734,-0.18019,2023,6,8,14,57,11,264
5.03950,-0.00753,0.06055,0.00000,0.03184,0.97649,-0.17983,2023,6,8,14,57,11,275
5.03960,0.21997,-0.07945,0.00000,0.03172,0.98039,-0.17861,2023,6,8,14,57,11,286
5.03970,0.04497,-0.13195,0.00000,0.03294,0.97576,-0.17885,2023,6,8,14,57,11,297
5.03980,0.13247,0.04305,0.00000,0.03379,0.97929,-0.17946,2023,6,8,14,57,12,8
5.03990,-0.06002,-0.11445,0.00000,0.03465,0.97734,-0.17617,2023,6,8,14,57,12,19
5.04000,0.16748,-0.13195,0.00000,0.03257,0.97759,-0.17812,2023,6,8,14,57,12,31
5.04010,-0.20003,0.18305,0.00000,0.03270,0.97978,-0.17763,2023,6,8,14,57,12,42
5.04020,-0.09503,0.04305,0.00000,0.03416,0.97795,-0.17946,2023,6,8,14,57,12,53
5.04030,0.14997,-0.06195,0.00000,0.03294,0.97563,-0.17727,2023,6,8,14,57,12,64
5.04040,0.00997,-0.20195,0.00000,0.03270,0.97710,-0.17763,2023,6,8,14,57,12,75
5.04050,0.00997,-0.07945,0.00000,0.03343,0.97954,-0.17897,2023,6,8,14,57,12,86
5.04060,0.16748,-0.13195,0.00000,0.03514,0.97795,-0.17836,2023,6,8,14,57,12,97
5.04070,0.02747,-0.00945,0.00000,0.03196,0.97868,-0.17556,2023,6,8,14,57,12,108
5.04080,0.20247,-0.16695,0.00000,0.03282,0.97759,-0.17714,2023,6,8,14,57,12,119
5.04090,0.11497,-0.11445,0.00000,0.03196,0.97673,-0.17580,2023,6,8,14,57,12,131
5.04100,0.04497,-0.04445,0.00000,0.03184,0.97868,-0.17531,2023,6,8,14,57,12,142
5.04110,0.13247,-0.02695,0.00000,0.03355,0.97783,-0.17751,2023,6,8,14,57,12,153
5.04120,-0.06002,-0.06195,0.00000,0.03050,0.97881,-0.17897,2023,6,8,14,57,12,164
5.04130,0.11497,0.16555,0.00000,0.03318,0.97576,-0.17763,2023,6,8,14,57,12,175
5.04140,-0.06002,0.09555,0.00000,0.03318,0.97661,-0.17958,2023,6,8,14,57,12,186
5.04150,-0.11253,0.02555,0.00000,0.03001,0.97722,-0.17800,2023,6,8,14,57,12,197
5.04160,0.06248,-0.02695,0.00000,0.03257,0.97820,-0.17934,2023,6,8,14,57,12,208
5.04170,0.00997,-0.06195,0.00000,0.03355,0.97832,-0.18056,2023,6,8,14,57,12,219
5.04180,-0.02503,0.20055,0.00000,0.03379,0.97746,-0.17690,2023,6,8,14,57,12,231
5.04190,-0.16502,-0.00945,0.00000,0.03355,0.97807,-0.17873,2023,6,8,14,57,12,242
5.04200,0.13247,-0.09695,0.00000,0.03245,0.97746,-0.17788,2023,6,8,14,57,12,253
5.04210,-0.04252,0.04305,0.00000,0.03416,0.97783,-0.18019,2023,6,8,14,57,12,264
5.04220,-0.09503,-0.09695,0.00000,0.03453,0.97856,-0.17849,2023,6,8,14,57,12,275
5.04230,0.16748,-0.09695,0.00000,0.03477,0.97978,-0.17849,2023,6,8,14,57,12,286
5.04240,-0.07753,-0.11445,0.00000,0.03379,0.97820,-0.17629,2023,6,8,14,57,12,297
5.04250,-0.04252,0.18305,0.00000,0.03392,0.97624,-0.17824,2023,6,8,14,57,12,308
5.04260,0.25497,-0.06195,0.00000,0.03392,0.97673,-0.17763,2023,6,8,14,57,12,319
5.04270,-0.11253,0.14805,0.00000,0.03270,0.97856,-0.17580,2023,6,8,14,57,12,331
5.04280,-0.14752,0.16555,0.00000,0.03294,0.97844,-0.17702,2023,6,8,14,57,12,342
5.04290,0.06248,0.06055,0.00000,0.03160,0.97771,-0.18056,2023,6,8,14,57,12,353
5.04300,0.18498,-0.02695,0.00000,0.03331,0.97856,-0.17702,2023,6,8,14,57,12,364
5.04310,-0.11253,-0.16695,0.00000,0.03184,0.97893,-0.17702,2023,6,8,14,57,12,375
5.04320,-0.06002,-0.21945,0.00000,0.03074,0.97698,-0.17812,2023,6,8,14,57,12,386
5.04330,-0.04252,-0.09695,0.00000,0.03477,0.97917,-0.17824,2023,6,8,14,57,12,397
5.04340,-0.14752,0.04305,0.00000,0.03404,0.98088,-0.17702,2023,6,8,14,57,12,408
5.04350,0.04497,0.00805,0.00000,0.03184,0.97624,-0.17690,2023,6,8,14,57,12,419
5.04360,-0.04252,-0.02695,0.00000,0.03087,0.97844,-0.17897,2023,6,8,14,57,12,431
5.04370,0.07997,0.21805,0.00000,0.03270,0.97722,-0.17641,2023,6,8,14,57,12,442
5.04380,-0.06002,-0.09695,0.00000,0.03623,0.97624,-0.17812,2023,6,8,14,57,12,453
5.04390,-0.13003,0.04305,0.00000,0.03367,0.97710,-0.17897,2023,6,8,14,57,12,464
5.04400,0.11497,0.07805,0.00000,0.03367,0.97734,-0.17763,2023,6,8,14,57,12,475
5.04410,-0.04252,0.13055,0.00000,0.03245,0.97807,-0.17714,2023,6,8,14,57,12,486
5.04420,-0.04252,-0.23695,0.00000,0.03343,0.97990,-0.17836,2023,6,8,14,57,12,497
5.04430,-0.02503,-0.02695,0.00000,0.03196,0.97685,-0.17897,2023,6,8,14,57,12,508
5.04440,-0.07753,0.04305,0.00000,0.02940,0.97649,-0.17788,2023,6,8,14,57,12,519
5.04450,-0.02503,0.04305,0.00000,0.03184,0.97746,-0.17775,2023,6,8,14,57,12,531
5.04460,0.02747,-0.02695,0.00000,0.03416,0.97807,-0.17958,2023,6,8,14,57,12,542
5.04470,-0.09503,-0.06195,0.00000,0.03270,0.97576,-0.17739,2023,6,8,14,57,12,553
5.04480,0.11497,-0.21945,0.00000,0.03538,0.97820,-0.17775,2023,6,8,14,57,12,564
5.04490,0.02747,0.28805,0.00000,0.03416,0.97966,-0.17812,2023,6,8,14,57,12,575
5.04500,0.13247,-0.25445,0.00000,0.03465,0.97661,-0.17946,2023,6,8,14,57,12,586
5.04510,-0.21753,-0.00945,0.00000,0.03453,0.97844,-0.17836,2023,6,8,14,57,12,597
5.04520,0.11497,-0.07945,0.00000,0.03196,0.97551,-0.17824,2023,6,8,14,57,12,608
5.04530,-0.04252,0.11305,0.00000,0.03306,0.97905,-0.17922,2023,6,8,14,57,12,619
5.04540,-0.20003,-0.13195,0.00000,0.03135,0.97698,-0.17727,2023,6,8,14,57,12,631
5.04550,0.13247,-0.11445,0.00000,0.03538,0.97832,-0.17885,2023,6,8,14,57,12,642
5.04560,-0.06002,0.02555,0.00000,0.03404,0.97612,-0.18019,2023,6,8,14,57,12,653
5.04570,-0.00753,0.14805,0.00000,0.03477,0.97990,-0.17727,2023,6,8,14,57,12,664
5.04580,-0.07753,-0.02695,0.00000,0.03526,0.97832,-0.17727,2023,6,8,14,57,12,675
5.04590,0.00997,-0.02695,0.00000,0.03270,0.97612,-0.17739,2023,6,8,14,57,12,686
5.04600,-0.13003,0.13055,0.00000,0.03257,0.97588,-0.17861,2023,6,8,14,57,12,697
5.04610,-0.21753,-0.02695,0.00000,0.03135,0.97820,-0.17946,2023,6,8,14,57,12,708
5.04620,0.07997,-0.02695,0.00000,0.03221,0.97807,-0.17946,2023,6,8,14,57,12,719
5.04630,0.00997,-0.18445,0.00000,0.03379,0.97893,-0.17788,2023,6,8,14,57,12,731
5.04640,-0.07753,-0.09695,0.00000,0.03379,0.97722,-0.17873,2023,6,8,14,57,12,742
5.04650,0.13247,0.11305,0.00000,0.03257,0.97759,-0.17702,2023,6,8,14,57,12,753
5.04660,0.06248,0.14805,0.00000,0.03245,0.97917,-0.17910,2023,6,8,14,57,12,764
5.04670,0.09747,-0.09695,0.00000,0.03453,0.97551,-0.17775,2023,6,8,14,57,12,775
5.04680,-0.14752,-0.00945,0.00000,0.03148,0.97759,-0.17678,2023,6,8,14,57,12,786
5.04690,0.00997,0.04305,0.00000,0.03282,0.97502,-0.17836,2023,6,8,14,57,12,797
5.04700,-0.14752,0.18305,0.00000,0.03123,0.97722,-0.17861,2023,6,8,14,57,12,808
5.04710,-0.13003,-0.02695,0.00000,0.03355,0.97746,-0.17629,2023,6,8,14,57,12,819
5.04720,0.09747,-0.02695,0.00000,0.03257,0.97673,-0.17751,2023,6,8,14,57,12,831
5.04730,0.04497,0.16555,0.00000,0.03355,0.97722,-0.18019,2023,6,8,14,57,12,842
5.04740,0.00997,-0.09695,0.00000,0.03196,0.97820,-0.17958,2023,6,8,14,57,12,853
5.04750,0.16748,0.11305,0.00000,0.03233,0.97868,-0.17995,2023,6,8,14,57,12,864
5.04760,0.06248,-0.02695,0.00000,0.03306,0.97734,-0.17849,2023,6,8,14,57,12,875
5.04770,-0.14752,-0.11445,0.00000,0.03282,0.97807,-0.17788,2023,6,8,14,57,12,886
5.04780,-0.09503,-0.00945,0.00000,0.03428,0.97637,-0.17861,2023,6,8,14,57,12,897
5.04790,0.06248,-0.18445,0.00000,0.03111,0.97759,-0.17849,2023,6,8,14,57,12,908
5.04800,0.07997,-0.14945,0.00000,0.03172,0.97746,-0.17958,2023,6,8,14,57,12,919
5.04810,0.14997,0.06055,0.00000,0.03331,0.97746,-0.17910,2023,6,8,14,57,12,931
5.04820,0.27248,-0.06195,0.00000,0.03209,0.97832,-0.17934,2023,6,8,14,57,12,942
5.04830,0.14997,-0.21945,0.00000,0.03123,0.97844,-0.17836,2023,6,8,14,57,12,953
5.04840,-0.04252,0.14805,0.00000,0.03331,0.97881,-0.17800,2023,6,8,14,57,12,964
5.04850,-0.07753,-0.04445,0.00000,0.03331,0.97698,-0.17763,2023,6,8,14,57,12,975
5.04860,0.27248,-0.14945,0.00000,0.03404,0.97832,-0.17800,2023,6,8,14,57,12,986
5.04870,0.20247,-0.14945,0.00000,0.03331,0.97710,-0.17800,2023,6,8,14,57,12,997
5.04880,0.02747,-0.04445,0.00000,0.03392,0.97807,-0.17910,2023,6,8,14,57,13,8
5.04890,0.02747,0.11305,0.00000,0.03440,0.97856,-0.17873,2023,6,8,14,57,13,19
5.04900,0.02747,0.04305,0.00000,0.03453,0.97942,-0.17910,2023,6,8,14,57,13,31
5.04910,0.06248,0.06055,0.00000,0.03282,0.97893,-0.17946,2023,6,8,14,57,13,42
5.04920,-0.09503,-0.02695,0.00000,0.03294,0.97661,-0.17983,2023,6,8,14,57,13,53
5.04930,-0.04252,0.00805,0.00000,0.03233,0.97820,-0.18105,2023,6,8,14,57,13,64
5.04940,0.06248,0.02555,0.00000,0.03135,0.97710,-0.17775,2023,6,8,14,57,13,75
5.04950,-0.00753,-0.06195,0.00000,0.03160,0.97685,-0.17946,2023,6,8,14,57,13,86
5.04960,0.13247,-0.06195,0.00000,0.03160,0.97807,-0.18068,2023,6,8,14,57,13,97
5.04970,0.13247,0.00805,0.00000,0.03343,0.97942,-0.17702,2023,6,8,14,57,13,108
5.04980,0.13247,-0.14945,0.00000,0.03355,0.97612,-0.17958,2023,6,8,14,57,13,119
5.04990,-0.00753,0.07805,0.00000,0.03318,0.97746,-0.17934,2023,6,8,14,57,13,131
5.05000,0.18498,-0.09695,0.00000,0.03331,0.97759,-0.17934,2023,6,8,14,57,13,142
5.05010,0.07997,-0.07945,0.00000,0.03355,0.97710,-0.17983,2023,6,8,14,57,13,153
5.05020,0.16748,0.14805,0.00000,0.03465,0.97527,-0.17946,2023,6,8,14,57,13,164
5.05030,0.06248,-0.02695,0.00000,0.03306,0.97929,-0.17666,2023,6,8,14,57,13,175
5.05040,0.04497,-0.09695,0.00000,0.03416,0.97966,-0.17849,2023,6,8,14,57,13,186
5.05050,-0.09503,0.02555,0.00000,0.03294,0.97905,-0.17922,2023,6,8,14,57,13,197
5.05060,0.04497,0.06055,0.00000,0.03221,0.97746,-0.17763,2023,6,8,14,57,13,208
5.05070,0.14997,0.20055,0.00000,0.03221,0.97661,-0.17958,2023,6,8,14,57,13,219
5.05080,0.07997,-0.14945,0.00000,0.03148,0.97673,-0.17958,2023,6,8,14,57,13,231
5.05090,0.02747,0.02555,0.00000,0.03062,0.97661,-0.17836,2023,6,8,14,57,13,242
5.05100,-0.00753,0.07805,0.00000,0.03440,0.97698,-0.17885,2023,6,8,14,57,13,253
5.05110,0.02747,-0.13195,0.00000,0.03184,0.97893,-0.18056,2023,6,8,14,57,13,264
5.05120,-0.07753,-0.02695,0.00000,0.03294,0.97832,-0.17910,2023,6,8,14,57,13,275
5.05130,-0.07753,-0.00945,0.00000,0.03392,0.97698,-0.17751,2023,6,8,14,57,13,286
5.05140,0.16748,-0.25445,0.00000,0.03257,0.97978,-0.18007,2023,6,8,14,57,13,297
5.05150,-0.11253,0.04305,0.00000,0.03160,0.97502,-0.17861,2023,6,8,14,57,13,308
5.05160,0.09747,0.04305,0.00000,0.03355,0.97893,-0.17739,2023,6,8,14,57,13,319
5.05170,-0.04252,0.09555,0.00000,0.03404,0.97649,-0.17910,2023,6,8,14,57,13,331
5.05180,-0.00753,0.13055,0.00000,0.03148,0.97942,-0.17812,2023,6,8,14,57,13,342
5.05190,0.18498,-0.00945,0.00000,0.03355,0.97661,-0.17873,2023,6,8,14,57,13,353
5.05200,-0.04252,0.00805,0.00000,0.03148,0.97759,-0.17897,2023,6,8,14,57,13,364
5.05210,0.06248,-0.14945,0.00000,0.03343,0.97771,-0.17934,2023,6,8,14,57,13,375
5.05220,-0.04252,0.11305,0.00000,0.03160,0.97576,-0.17824,2023,6,8,14,57,13,386
5.05230,0.06248,0.07805,0.00000,0.03306,0.97551,-0.17702,2023,6,8,14,57,13,397
5.05240,-0.04252,-0.00945,0.00000,0.03270,0.97893,-0.17849,2023,6,8,14,57,13,408
5.05250,0.04497,-0.00945,0.00000,0.03087,0.97649,-0.17897,2023,6,8,14,57,13,419
5.05260,-0.00753,-0.23695,0.00000,0.03282,0.97783,-0.17775,2023,6,8,14,57,13,431
5.05270,-0.11253,-0.00945,0.00000,0.03184,0.97820,-0.17800,2023,6,8,14,57,13,442
5.05280,0.00997,0.11305,0.00000,0.03404,0.97771,-0.17934,2023,6,8,14,57,13,453
5.05290,0.07997,-0.13195,0.00000,0.03257,0.97624,-0.17824,2023,6,8,14,57,13,464
5.05300,0.18498,-0.18445,0.00000,0.03050,0.97515,-0.17653,2023,6,8,14,57,13,475
5.05310,-0.11253,-0.13195,0.00000,0.03367,0.97844,-0.17812,2023,6,8,14,57,13,486
5.05320,0.00997,-0.04445,0.00000,0.03160,0.97698,-0.17922,2023,6,8,14,57,13,497
5.05330,-0.02503,0.14805,0.00000,0.03123,0.97917,-0.17861,2023,6,8,14,57,13,508
5.05340,0.04497,-0.02695,0.00000,0.03306,0.97649,-0.17873,2023,6,8,14,57,13,519
5.05350,0.04497,-0.06195,0.00000,0.03038,0.97673,-0.17788,2023,6,8,14,57,13,531
5.05360,0.16748,-0.02695,0.00000,0.03245,0.97771,-0.17958,2023,6,8,14,57,13,542
5.05370,0.00997,0.02555,0.00000,0.03233,0.97795,-0.18141,2023,6,8,14,57,13,553
5.05380,-0.07753,0.23555,0.00000,0.03489,0.97429,-0.17727,2023,6,8,14,57,13,564
5.05390,0.04497,0.06055,0.00000,0.03245,0.97722,-0.17861,2023,6,8,14,57,13,575
5.05400,-0.00753,0.07805,0.00000,0.03135,0.97746,-0.18178,2023,6,8,14,57,13,586
5.05410,-0.06002,0.04305,0.00000,0.03123,0.97734,-0.17934,2023,6,8,14,57,13,597
5.05420,0.04497,-0.11445,0.00000,0.03379,0.97771,-0.17580,2023,6,8,14,57,13,608
5.05430,-0.11253,0.11305,0.00000,0.03172,0.97868,-0.17702,2023,6,8,14,57,13,619
5.05440,-0.06002,0.00805,0.00000,0.03209,0.97710,-0.17885,2023,6,8,14,57,13,631
5.05450,-0.18253,0.30555,0.00000,0.03270,0.97722,-0.17910,2023,6,8,14,57,13,642
5.05460,-0.13003,0.07805,0.00000,0.03440,0.97454,-0.17849,2023,6,8,14,57,13,653
5.05470,-0.06002,0.02555,0.00000,0.03148,0.97722,-0.17653,2023,6,8,14,57,13,664
5.05480,-0.11253,0.06055,0.00000,0.03343,0.97722,-0.17849,2023,6,8,14,57,13,675
5.05490,-0.00753,0.02555,0.00000,0.03196,0.97759,-0.17629,2023,6,8,14,57,13,686
5.05500,0.00997,0.07805,0.00000,0.03257,0.97710,-0.17849,2023,6,8,14,57,13,697
5.05510,0.20247,-0.27195,0.00000,0.03318,0.97710,-0.17897,2023,6,8,14,57,13,708
5.05520,-0.21753,0.25305,0.00000,0.03392,0.97844,-0.17763,2023,6,8,14,57,13,719
5.05530,0.18498,0.00805,0.00000,0.03331,0.97795,-0.17824,2023,6,8,14,57,13,731
5.05540,0.07997,-0.09695,0.00000,0.03196,0.97563,-0.18105,2023,6,8,14,57,13,742
5.05550,-0.06002,0.16555,0.00000,0.03392,0.97624,-0.17971,2023,6,8,14,57,13,753
5.05560,0.23747,-0.18445,0.00000,0.03355,0.98088,-0.17775,2023,6,8,14,57,13,764
5.05570,-0.13003,0.09555,0.00000,0.03172,0.97539,-0.18007,2023,6,8,14,57,13,775
5.05580,-0.00753,-0.00945,0.00000,0.03331,0.97722,-0.17849,2023,6,8,14,57,13,786
5.05590,-0.16502,0.06055,0.00000,0.03306,0.97746,-0.17751,2023,6,8,14,57,13,797
5.05600,-0.07753,-0.09695,0.00000,0.03257,0.97759,-0.17873,2023,6,8,14,57,13,808
5.05610,-0.07753,-0.02695,0.00000,0.03245,0.97783,-0.17897,2023,6,8,14,57,13,819
5.05620,0.04497,0.06055,0.00000,0.03392,0.97905,-0.17922,2023,6,8,14,57,13,831
5.05630,-0.14752,-0.14945,0.00000,0.03489,0.97966,-0.17995,2023,6,8,14,57,13,842
5.05640,0.06248,-0.00945,0.00000,0.03318,0.97844,-0.17836,2023,6,8,14,57,13,853
5.05650,-0.07753,0.07805,0.00000,0.03233,0.97795,-0.18068,2023,6,8,14,57,13,864
5.05660,-0.06002,0.06055,0.00000,0.03270,0.97563,-0.17861,2023,6,8,14,57,13,875
5.05670,-0.04252,0.09555,0.00000,0.03123,0.97746,-0.17849,2023,6,8,14,57,13,886
5.05680,0.02747,-0.04445,0.00000,0.03428,0.97551,-0.17958,2023,6,8,14,57,13,897
5.05690,0.16748,0.07805,0.00000,0.03172,0.97698,-0.17934,2023,6,8,14,57,13,908
5.05700,0.02747,-0.09695,0.00000,0.03367,0.97722,-0.17885,2023,6,8,14,57,13,919
5.05710,-0.21753,0.02555,0.00000,0.03184,0.97820,-0.17873,2023,6,8,14,57,13,931
5.05720,0.02747,0.02555,0.00000,0.03245,0.97990,-0.17824,2023,6,8,14,57,13,942
5.05730,-0.16502,0.02555,0.00000,0.03306,0.97917,-0.17788,2023,6,8,14,57,13,953
5.05740,-0.13003,0.16555,0.00000,0.03148,0.97612,-0.17849,2023,6,8,14,57,13,964
5.05750,-0.09503,0.13055,0.00000,0.03257,0.97771,-0.17800,2023,6,8,14,57,13,975
5.05760,-0.07753,0.00805,0.00000,0.03270,0.97832,-0.17751,2023,6,8,14,57,13,986
5.05770,0.02747,-0.02695,0.00000,0.03074,0.97771,-0.17800,2023,6,8,14,57,14,7
5.05780,-0.07753,0.00805,0.00000,0.03270,0.97832,-0.17824,2023,6,8,14,57,14,18
5.05790,-0.13003,0.04305,0.00000,0.03172,0.97710,-0.17885,2023,6,8,14,57,14,29
5.05800,-0.00753,-0.04445,0.00000,0.03331,0.97502,-0.17873,2023,6,8,14,57,14,41
5.05810,-0.07753,0.04305,0.00000,0.03245,0.97783,-0.17958,2023,6,8,14,57,14,52
5.05820,-0.07753,-0.02695,0.00000,0.03428,0.97820,-0.18019,2023,6,8,14,57,14,63
5.05830,-0.13003,0.34055,0.00000,0.03209,0.97710,-0.17812,2023,6,8,14,57,14,74
5.05840,0.13247,0.11305,0.00000,0.03257,0.97807,-0.17861,2023,6,8,14,57,14,85
5.05850,0.11497,-0.04445,0.00000,0.03135,0.97710,-0.17641,2023,6,8,14,57,14,96
5.05860,-0.00753,0.02555,0.00000,0.03209,0.97527,-0.18068,2023,6,8,14,57,14,107
5.05870,0.09747,-0.04445,0.00000,0.03148,0.97539,-0.17727,2023,6,8,14,57,14,118
5.05880,0.09747,-0.14945,0.00000,0.03465,0.97795,-0.17897,2023,6,8,14,57,14,129
5.05890,-0.04252,0.07805,0.00000,0.03392,0.97698,-0.17910,2023,6,8,14,57,14,141
5.05900,0.07997,0.07805,0.00000,0.03526,0.97685,-0.17934,2023,6,8,14,57,14,152
5.05910,-0.00753,0.06055,0.00000,0.03514,0.97881,-0.17775,2023,6,8,14,57,14,163
5.05920,0.11497,-0.13195,0.00000,0.03282,0.98076,-0.17824,2023,6,8,14,57,14,174
5.05930,0.06248,-0.04445,0.00000,0.03135,0.98064,-0.17690,2023,6,8,14,57,14,185
5.05940,0.11497,-0.09695,0.00000,0.03355,0.97783,-0.17861,2023,6,8,14,57,14,196
5.05950,-0.04252,-0.07945,0.00000,0.03367,0.97685,-0.17897,2023,6,8,14,57,14,207
5.05960,0.00997,0.07805,0.00000,0.03477,0.97807,-0.17861,2023,6,8,14,57,14,218
5.05970,0.16748,0.04305,0.00000,0.03001,0.97624,-0.17751,2023,6,8,14,57,14,229
5.05980,0.04497,0.04305,0.00000,0.03379,0.97807,-0.17849,2023,6,8,14,57,14,241
5.05990,-0.14752,0.13055,0.00000,0.03331,0.97759,-0.17910,2023,6,8,14,57,14,252
5.06000,0.00997,0.09555,0.00000,0.03489,0.97649,-0.17556,2023,6,8,14,57,14,263
5.06010,0.02747,0.07805,0.00000,0.03270,0.97868,-0.17934,2023,6,8,14,57,14,274
5.06020,-0.07753,0.00805,0.00000,0.03367,0.97734,-0.17934,2023,6,8,14,57,14,285
5.06030,0.07997,-0.00945,0.00000,0.03062,0.97771,-0.17873,2023,6,8,14,57,14,296
5.06040,0.09747,0.23555,0.00000,0.03404,0.97563,-0.17983,2023,6,8,14,57,14,307
5.06050,0.06248,-0.16695,0.00000,0.03209,0.97820,-0.18007,2023,6,8,14,57,14,318
5.06060,-0.00753,-0.09695,0.00000,0.03367,0.97600,-0.17922,2023,6,8,14,57,14,329
5.06070,0.11497,-0.11445,0.00000,0.03282,0.97820,-0.17751,2023,6,8,14,57,14,341
5.06080,-0.07753,-0.06195,0.00000,0.03343,0.97966,-0.17775,2023,6,8,14,57,14,352
5.06090,0.04497,0.09555,0.00000,0.03257,0.97759,-0.17788,2023,6,8,14,57,14,363
5.06100,0.14997,-0.09695,0.00000,0.03257,0.97637,-0.17800,2023,6,8,14,57,14,374
5.06110,-0.02503,0.09555,0.00000,0.02843,0.97807,-0.17751,2023,6,8,14,57,14,385
5.06120,0.02747,0.02555,0.00000,0.03221,0.97490,-0.17885,2023,6,8,14,57,14,396
5.06130,-0.23503,0.18305,0.00000,0.03111,0.97807,-0.17922,2023,6,8,14,57,14,407
5.06140,-0.09503,-0.00945,0.00000,0.03367,0.97710,-0.17849,2023,6,8,14,57,14,418
5.06150,0.07997,-0.02695,0.00000,0.03196,0.97698,-0.17775,2023,6,8,14,57,14,429
5.06160,0.00997,0.09555,0.00000,0.03416,0.97612,-0.17812,2023,6,8,14,57,14,441
5.06170,0.02747,-0.00945,0.00000,0.03160,0.97832,-0.17824,2023,6,8,14,57,14,452
5.06180,-0.06002,-0.11445,0.00000,0.03074,0.97624,-0.17605,2023,6,8,14,57,14,463
5.06190,-0.04252,-0.07945,0.00000,0.03160,0.98027,-0.18019,2023,6,8,14,57,14,474
5.06200,0.11497,-0.07945,0.00000,0.03526,0.97612,-0.17983,2023,6,8,14,57,14,485
5.06210,0.00997,0.02555,0.00000,0.03428,0.97722,-0.17922,2023,6,8,14,57,14,496
5.06220,0.07997,0.02555,0.00000,0.03233,0.97844,-0.18068,2023,6,8,14,57,14,507
5.06230,-0.09503,0.11305,0.00000,0.03270,0.97917,-0.17775,2023,6,8,14,57,14,518
5.06240,0.02747,-0.23695,0.00000,0.03428,0.97624,-0.17763,2023,6,8,14,57,14,529
5.06250,-0.04252,-0.07945,0.00000,0.03087,0.97722,-0.17653,2023,6,8,14,57,14,541
5.06260,0.06248,-0.02695,0.00000,0.03404,0.97661,-0.18019,2023,6,8,14,57,14,552
5.06270,0.04497,-0.09695,0.00000,0.03294,0.97685,-0.18178,2023,6,8,14,57,14,563
5.06280,-0.00753,-0.09695,0.00000,0.03270,0.97612,-0.17946,2023,6,8,14,57,14,574
5.06290,-0.09503,0.11305,0.00000,0.03404,0.97807,-0.17897,2023,6,8,14,57,14,585
5.06300,0.02747,-0.20195,0.00000,0.03404,0.97734,-0.17910,2023,6,8,14,57,14,596
5.06310,0.02747,0.04305,0.00000,0.03148,0.97722,-0.17666,2023,6,8,14,57,14,607
5.06320,-0.00753,-0.00945,0.00000,0.03343,0.97844,-0.17922,2023,6,8,14,57,14,618
5.06330,-0.00753,0.09555,0.00000,0.03196,0.97844,-0.17714,2023,6,8,14,57,14,629
5.06340,0.06248,-0.02695,0.00000,0.03489,0.97868,-0.17800,2023,6,8,14,57,14,641
5.06350,0.06248,-0.09695,0.00000,0.03233,0.97722,-0.17800,2023,6,8,14,57,14,652
5.06360,0.04497,0.07805,0.00000,0.03172,0.97759,-0.17775,2023,6,8,14,57,14,663
5.06370,-0.02503,0.09555,0.00000,0.03233,0.97844,-0.17775,2023,6,8,14,57,14,674
5.06380,0.04497,0.00805,0.00000,0.03257,0.97783,-0.17861,2023,6,8,14,57,14,685
5.06390,0.18498,-0.07945,0.00000,0.03294,0.97771,-0.17910,2023,6,8,14,57,14,696
5.06400,-0.00753,0.18305,0.00000,0.03209,0.97661,-0.17824,2023,6,8,14,57,14,707
5.06410,-0.18253,0.16555,0.00000,0.03294,0.97868,-0.17678,2023,6,8,14,57,14,718
5.06420,0.04497,-0.07945,0.00000,0.03209,0.97844,-0.18044,2023,6,8,14,57,14,729
5.06430,0.13247,0.21805,0.00000,0.03477,0.97576,-0.17873,2023,6,8,14,57,14,741
5.06440,-0.00753,0.06055,0.00000,0.03404,0.97624,-0.17775,2023,6,8,14,57,14,752
5.06450,-0.09503,-0.04445,0.00000,0.03184,0.97515,-0.17836,2023,6,8,14,57,14,763
5.06460,-0.04252,0.00805,0.00000,0.03367,0.97917,-0.17702,2023,6,8,14,57,14,774
5.06470,0.07997,-0.14945,0.00000,0.03160,0.97649,-0.17751,2023,6,8,14,57,14,785
5.06480,0.07997,0.02555,0.00000,0.03343,0.97893,-0.17678,2023,6,8,14,57,14,796
5.06490,0.06248,0.06055,0.00000,0.03148,0.97722,-0.17836,2023,6,8,14,57,14,807
5.06500,0.13247,-0.14945,0.00000,0.03367,0.97893,-0.17897,2023,6,8,14,57,14,818
5.06510,-0.02503,-0.06195,0.00000,0.03245,0.97795,-0.17861,2023,6,8,14,57,14,829
5.06520,-0.18253,0.02555,0.00000,0.03257,0.97502,-0.17849,2023,6,8,14,57,14,841
5.06530,0.06248,-0.20195,0.00000,0.03184,0.97832,-0.18080,2023,6,8,14,57,14,852
5.06540,-0.09503,-0.00945,0.00000,0.03306,0.97588,-0.18007,2023,6,8,14,57,14,863
5.06550,-0.02503,0.09555,0.00000,0.03196,0.97771,-0.17812,2023,6,8,14,57,14,874
5.06560,-0.02503,-0.18445,0.00000,0.03172,0.97795,-0.17824,2023,6,8,14,57,14,885
5.06570,-0.13003,0.04305,0.00000,0.03318,0.97515,-0.17910,2023,6,8,14,57,14,896
5.06580,-0.06002,0.02555,0.00000,0.03221,0.97661,-0.17995,2023,6,8,14,57,14,907
5.06590,0.09747,0.04305,0.00000,0.03270,0.97600,-0.17861,2023,6,8,14,57,14,918
5.06600,-0.02503,-0.16695,0.00000,0.03233,0.97637,-0.17910,2023,6,8,14,57,14,929
5.06610,-0.00753,0.14805,0.00000,0.03282,0.97929,-0.17873,2023,6,8,14,57,14,941
5.06620,-0.14752,0.04305,0.00000,0.03355,0.97783,-0.17727,2023,6,8,14,57,14,952
5.06630,-0.20003,0.39305,0.00000,0.03160,0.97795,-0.18044,2023,6,8,14,57,14,963
5.06640,0.21997,-0.07945,0.00000,0.03282,0.97905,-0.17690,2023,6,8,14,57,14,974
5.06650,-0.07753,0.11305,0.00000,0.03026,0.97539,-0.17946,2023,6,8,14,57,14,985
5.06660,0.06248,0.18305,0.00000,0.03209,0.97844,-0.18044,2023,6,8,14,57,14,996
5.06670,0.07997,0.09555,0.00000,0.03233,0.97771,-0.18044,2023,6,8,14,57,14,7
5.06680,-0.13003,-0.06195,0.00000,0.03294,0.97905,-0.17934,2023,6,8,14,57,14,18
5.06690,0.21997,0.02555,0.00000,0.03282,0.97868,-0.17434,2023,6,8,14,57,15,9
5.06700,0.07997,-0.07945,0.00000,0.03245,0.98039,-0.17800,2023,6,8,14,57,15,21
5.06710,-0.02503,-0.07945,0.00000,0.03428,0.97624,-0.18019,2023,6,8,14,57,15,32
5.06720,0.18498,-0.16695,0.00000,0.03209,0.97771,-0.17800,2023,6,8,14,57,15,43
5.06730,-0.13003,0.00805,0.00000,0.03392,0.97893,-0.17739,2023,6,8,14,57,15,54
5.06740,0.02747,-0.09695,0.00000,0.03270,0.97881,-0.17775,2023,6,8,14,57,15,65
5.06750,0.02747,0.00805,0.00000,0.03428,0.97929,-0.17812,2023,6,8,14,57,15,76
5.06760,-0.07753,0.04305,0.00000,0.03245,0.97820,-0.17812,2023,6,8,14,57,15,87
5.06770,0.11497,-0.07945,0.00000,0.03392,0.97929,-0.17873,2023,6,8,14,57,15,98
5.06780,0.13247,0.02555,0.00000,0.03318,0.97783,-0.17934,2023,6,8,14,57,15,109
5.06790,0.00997,-0.00945,0.00000,0.03282,0.97990,-0.17690,2023,6,8,14,57,15,121
5.06800,-0.13003,0.04305,0.00000,0.03282,0.97734,-0.17885,2023,6,8,14,57,15,132
5.06810,0.11497,0.02555,0.00000,0.03550,0.97807,-0.17678,2023,6,8,14,57,15,143
5.06820,0.13247,0.02555,0.00000,0.03355,0.97771,-0.17861,2023,6,8,14,57,15,154
5.06830,-0.16502,0.00805,0.00000,0.03148,0.97832,-0.18056,2023,6,8,14,57,15,165
5.06840,0.13247,0.14805,0.00000,0.03379,0.97685,-0.17788,2023,6,8,14,57,15,176
5.06850,-0.18253,0.39305,0.00000,0.03306,0.97868,-0.17946,2023,6,8,14,57,15,187
5.06860,0.07997,0.02555,0.00000,0.03379,0.97783,-0.17824,2023,6,8,14,57,15,198
5.06870,-0.11253,-0.09695,0.00000,0.03318,0.97868,-0.17812,2023,6,8,14,57,15,209
5.06880,-0.20003,-0.06195,0.00000,0.03233,0.97649,-0.17971,2023,6,8,14,57,15,221
5.06890,-0.11253,0.14805,0.00000,0.03392,0.97698,-0.17873,2023,6,8,14,57,15,232
5.06900,-0.16502,0.13055,0.00000,0.03318,0.97795,-0.17739,2023,6,8,14,57,15,243
5.06910,-0.16502,0.18305,0.00000,0.03148,0.97649,-0.17873,2023,6,8,14,57,15,254
5.06920,-0.13003,-0.07945,0.00000,0.03294,0.97734,-0.17873,2023,6,8,14,57,15,265
5.06930,0.07997,-0.00945,0.00000,0.03514,0.97893,-0.17922,2023,6,8,14,57,15,276
5.06940,-0.02503,0.13055,0.00000,0.03562,0.97685,-0.17824,2023,6,8,14,57,15,287
5.06950,0.07997,0.07805,0.00000,0.03062,0.97771,-0.17971,2023,6,8,14,57,15,298
5.06960,0.00997,0.00805,0.00000,0.03355,0.97905,-0.17763,2023,6,8,14,57,15,309
5.06970,0.09747,-0.23695,0.00000,0.03099,0.97759,-0.18093,2023,6,8,14,57,15,321
5.06980,0.07997,-0.00945,0.00000,0.03172,0.97771,-0.17885,2023,6,8,14,57,15,332
5.06990,0.09747,-0.07945,0.00000,0.03331,0.97588,-0.17861,2023,6,8,14,57,15,343
5.07000,0.09747,0.23555,0.00000,0.03196,0.97710,-0.17714,2023,6,8,14,57,15,354
5.07010,0.04497,-0.11445,0.00000,0.03440,0.97661,-0.17775,2023,6,8,14,57,15,365
5.07020,-0.02503,0.11305,0.00000,0.03257,0.97746,-0.17800,2023,6,8,14,57,15,376
5.07030,-0.11253,-0.07945,0.00000,0.03282,0.97551,-0.17873,2023,6,8,14,57,15,387
5.07040,-0.18253,0.13055,0.00000,0.03440,0.97868,-0.17702,2023,6,8,14,57,15,398
5.07050,-0.21753,0.20055,0.00000,0.03209,0.97539,-0.17922,2023,6,8,14,57,15,409
5.07060,-0.07753,0.13055,0.00000,0.03172,0.97746,-0.18044,2023,6,8,14,57,15,421
5.07070,0.02747,-0.06195,0.00000,0.03282,0.97637,-0.17910,2023,6,8,14,57,15,432
5.07080,0.07997,0.04305,0.00000,0.03184,0.97795,-0.17958,2023,6,8,14,57,15,443
5.07090,-0.07753,-0.07945,0.00000,0.02989,0.97710,-0.17690,2023,6,8,14,57,15,454
5.07100,-0.14752,-0.06195,0.00000,0.03392,0.97856,-0.17751,2023,6,8,14,57,15,465
5.07110,-0.07753,0.16555,0.00000,0.03294,0.97722,-0.17934,2023,6,8,14,57,15,476
5.07120,-0.13003,0.14805,0.00000,0.03062,0.97893,-0.17788,2023,6,8,14,57,15,487
5.07130,0.11497,-0.18445,0.00000,0.03331,0.97746,-0.17666,2023,6,8,14,57,15,498
5.07140,0.11497,-0.09695,0.00000,0.03245,0.97893,-0.17678,2023,6,8,14,57,15,509
5.07150,-0.02503,-0.07945,0.00000,0.03355,0.97600,-0.17885,2023,6,8,14,57,15,521
5.07160,0.04497,-0.04445,0.00000,0.03245,0.98015,-0.17641,2023,6,8,14,57,15,532
5.07170,-0.06002,-0.09695,0.00000,0.03294,0.97710,-0.17727,2023,6,8,14,57,15,543
5.07180,-0.13003,0.11305,0.00000,0.03135,0.98027,-0.17910,2023,6,8,14,57,15,554
5.07190,-0.02503,-0.13195,0.00000,0.03379,0.97820,-0.18080,2023,6,8,14,57,15,565
5.07200,0.06248,-0.13195,0.00000,0.03355,0.97698,-0.17580,2023,6,8,14,57,15,576
5.07210,-0.09503,0.07805,0.00000,0.03026,0.97637,-0.17788,2023,6,8,14,57,15,587
5.07220,0.06248,0.02555,0.00000,0.03404,0.97490,-0.17836,2023,6,8,14,57,15,598
5.07230,-0.04252,0.13055,0.00000,0.03404,0.97783,-0.17751,2023,6,8,14,57,15,609
5.07240,0.13247,-0.20195,0.00000,0.03257,0.97917,-0.17934,2023,6,8,14,57,15,621
5.07250,-0.02503,-0.13195,0.00000,0.03257,0.97637,-0.17836,2023,6,8,14,57,15,632
5.07260,0.11497,-0.07945,0.00000,0.03428,0.97685,-0.17849,2023,6,8,14,57,15,643
5.07270,0.04497,-0.13195,0.00000,0.03428,0.97710,-0.18007,2023,6,8,14,57,15,654
5.07280,0.16748,-0.07945,0.00000,0.03209,0.97783,-0.17727,2023,6,8,14,57,15,665
5.07290,0.02747,0.13055,0.00000,0.03245,0.97551,-0.18019,2023,6,8,14,57,15,676
5.07300,0.16748,-0.21945,0.00000,0.03111,0.97795,-0.17861,2023,6,8,14,57,15,687
5.07310,0.07997,0.11305,0.00000,0.03392,0.97881,-0.17751,2023,6,8,14,57,15,698
5.07320,-0.00753,-0.04445,0.00000,0.03331,0.97746,-0.17861,2023,6,8,14,57,15,709
5.07330,-0.18253,0.25305,0.00000,0.03526,0.97722,-0.17727,2023,6,8,14,57,15,721
5.07340,-0.13003,-0.07945,0.00000,0.03111,0.97868,-0.17861,2023,6,8,14,57,15,732
5.07350,0.11497,0.16555,0.00000,0.03111,0.97624,-0.17885,2023,6,8,14,57,15,743
5.07360,-0.06002,0.11305,0.00000,0.03172,0.97978,-0.17946,2023,6,8,14,57,15,754
5.07370,-0.28753,0.16555,0.00000,0.03270,0.97820,-0.17836,2023,6,8,14,57,15,765
5.07380,-0.07753,0.25305,0.00000,0.03282,0.97807,-0.17702,2023,6,8,14,57,15,776
5.07390,0.16748,-0.02695,0.00000,0.03196,0.97746,-0.17775,2023,6,8,14,57,15,787
5.07400,0.00997,0.09555,0.00000,0.03282,0.97807,-0.17836,2023,6,8,14,57,15,798
5.07410,0.04497,0.02555,0.00000,0.03294,0.97856,-0.17605,2023,6,8,14,57,15,809
5.07420,-0.13003,-0.00945,0.00000,0.03184,0.97539,-0.17653,2023,6,8,14,57,15,821
5.07430,0.13247,-0.02695,0.00000,0.03111,0.97673,-0.17861,2023,6,8,14,57,15,832
5.07440,-0.04252,-0.02695,0.00000,0.03209,0.98003,-0.17739,2023,6,8,14,57,15,843
5.07450,0.04497,-0.11445,0.00000,0.03282,0.97893,-0.17666,2023,6,8,14,57,15,854
5.07460,0.23747,-0.30695,0.00000,0.03355,0.97759,-0.17727,2023,6,8,14,57,15,865
5.07470,0.11497,-0.13195,0.00000,0.03440,0.97807,-0.17775,2023,6,8,14,57,15,876
5.07480,0.09747,-0.00945,0.00000,0.03099,0.97624,-0.17824,2023,6,8,14,57,15,887
5.07490,-0.13003,0.23555,0.00000,0.03331,0.97795,-0.17751,2023,6,8,14,57,15,898
5.07500,0.09747,-0.06195,0.00000,0.03318,0.97795,-0.17897,2023,6,8,14,57,15,909
5.07510,-0.04252,-0.23695,0.00000,0.03160,0.97966,-0.17544,2023,6,8,14,57,15,921
5.07520,-0.07753,0.04305,0.00000,0.03343,0.97649,-0.17861,2023,6,8,14,57,15,932
5.07530,-0.09503,-0.16695,0.00000,0.03514,0.97832,-0.17763,2023,6,8,14,57,15,943
5.07540,-0.11253,-0.02695,0.00000,0.03257,0.97576,-0.17641,2023,6,8,14,57,15,954
5.07550,-0.02503,-0.09695,0.00000,0.03282,0.97759,-0.17836,2023,6,8,14,57,15,965
5.07560,-0.04252,0.00805,0.00000,0.03282,0.97600,-0.17946,2023,6,8,14,57,15,976
5.07570,-0.07753,0.09555,0.00000,0.03111,0.97771,-0.17751,2023,6,8,14,57,15,987
5.07580,0.00997,-0.07945,0.00000,0.03489,0.97710,-0.17788,2023,6,8,14,57,15,998
5.07590,0.13247,-0.14945,0.00000,0.03196,0.97856,-0.17800,2023,6,8,14,57,16,9
5.07600,-0.32253,0.04305,0.00000,0.03257,0.97685,-0.17971,2023,6,8,14,57,16,21
5.07610,0.02747,0.09555,0.00000,0.03172,0.97734,-0.17641,2023,6,8,14,57,16,32
5.07620,-0.00753,0.07805,0.00000,0.03355,0.97832,-0.17800,2023,6,8,14,57,16,43
5.07630,0.06248,-0.09695,0.00000,0.03343,0.97832,-0.17910,2023,6,8,14,57,16,54
5.07640,0.09747,0.06055,0.00000,0.03392,0.97576,-0.17775,2023,6,8,14,57,16,65
5.07650,0.02747,-0.13195,0.00000,0.03074,0.97563,-0.17934,2023,6,8,14,57,16,76
5.07660,0.07997,-0.00945,0.00000,0.03489,0.97710,-0.17751,2023,6,8,14,57,16,87
5.07670,-0.14752,0.14805,0.00000,0.03270,0.97661,-0.17873,2023,6,8,14,57,16,98
5.07680,-0.04252,0.02555,0.00000,0.03099,0.97746,-0.18032,2023,6,8,14,57,16,109
5.07690,0.13247,-0.11445,0.00000,0.03318,0.97844,-0.17934,2023,6,8,14,57,16,121
5.07700,0.23747,0.00805,0.00000,0.03282,0.97661,-0.18032,2023,6,8,14,57,16,132
5.07710,-0.07753,0.04305,0.00000,0.03123,0.97868,-0.17739,2023,6,8,14,57,16,143
5.07720,-0.00753,-0.02695,0.00000,0.03233,0.97844,-0.17653,2023,6,8,14,57,16,154
5.07730,-0.06002,-0.28945,0.00000,0.03306,0.97795,-0.17751,2023,6,8,14,57,16,165
5.07740,-0.06002,0.06055,0.00000,0.03135,0.97832,-0.17910,2023,6,8,14,57,16,176
5.07750,-0.07753,-0.23695,0.00000,0.03270,0.97820,-0.17641,2023,6,8,14,57,16,187
5.07760,-0.06002,0.06055,0.00000,0.03343,0.97563,-0.17666,2023,6,8,14,57,16,198
5.07770,-0.00753,-0.09695,0.00000,0.03148,0.97893,-0.18056,2023,6,8,14,57,16,209
5.07780,0.00997,0.14805,0.00000,0.03123,0.97661,-0.17836,2023,6,8,14,57,16,221
5.07790,-0.13003,0.00805,0.00000,0.03245,0.97698,-0.17788,2023,6,8,14,57,16,232
5.07800,-0.20003,0.07805,0.00000,0.03209,0.97881,-0.17910,2023,6,8,14,57,16,243
5.07810,0.00997,0.06055,0.00000,0.03294,0.97551,-0.17727,2023,6,8,14,57,16,254
5.07820,0.07997,-0.04445,0.00000,0.03294,0.97771,-0.17666,2023,6,8,14,57,16,265
5.07830,0.06248,0.00805,0.00000,0.03050,0.97746,-0.17678,2023,6,8,14,57,16,276
5.07840,-0.04252,0.13055,0.00000,0.03221,0.97710,-0.17861,2023,6,8,14,57,16,287
5.07850,0.04497,-0.00945,0.00000,0.03160,0.97820,-0.17861,2023,6,8,14,57,16,298
5.07860,0.06248,-0.09695,0.00000,0.03221,0.97551,-0.17812,2023,6,8,14,57,16,309
5.07870,-0.04252,0.13055,0.00000,0.03038,0.97759,-0.17592,2023,6,8,14,57,16,321
5.07880,-0.04252,-0.00945,0.00000,0.03355,0.97783,-0.17751,2023,6,8,14,57,16,332
5.07890,-0.09503,-0.13195,0.00000,0.03367,0.97856,-0.17824,2023,6,8,14,57,16,343
5.07900,0.20247,-0.25445,0.00000,0.03233,0.97698,-0.18068,2023,6,8,14,57,16,354
5.07910,-0.02503,-0.00945,0.00000,0.03306,0.97746,-0.17910,2023,6,8,14,57,16,365
5.07920,0.07997,-0.21945,0.00000,0.02989,0.97673,-0.17849,2023,6,8,14,57,16,376
5.07930,0.06248,0.20055,0.00000,0.03404,0.97905,-0.17788,2023,6,8,14,57,16,387
5.07940,0.09747,-0.14945,0.00000,0.03257,0.97929,-0.17910,2023,6,8,14,57,16,398
5.07950,-0.16502,-0.00945,0.00000,0.03270,0.97563,-0.17836,2023,6,8,14,57,16,409
5.07960,-0.07753,0.06055,0.00000,0.03038,0.97563,-0.17861,2023,6,8,14,57,16,421
5.07970,-0.16502,0.06055,0.00000,0.03392,0.97698,-0.17678,2023,6,8,14,57,16,432
5.07980,0.09747,-0.06195,0.00000,0.03343,0.97746,-0.17763,2023,6,8,14,57,16,443
5.07990,0.00997,0.02555,0.00000,0.03221,0.97759,-0.17836,2023,6,8,14,57,16,454
5.08000,-0.02503,0.02555,0.00000,0.03318,0.97795,-0.17666,2023,6,8,14,57,16,465
5.08010,0.07997,-0.06195,0.00000,0.03245,0.97698,-0.17702,2023,6,8,14,57,16,476
5.08020,-0.13003,0.02555,0.00000,0.03428,0.97832,-0.17385,2023,6,8,14,57,16,487
5.08030,0.00997,0.04305,0.00000,0.03209,0.97551,-0.17836,2023,6,8,14,57,16,498
5.08040,-0.04252,0.00805,0.00000,0.03270,0.97515,-0.18019,2023,6,8,14,57,16,509
5.08050,0.04497,-0.21945,0.00000,0.03392,0.97771,-0.17873,2023,6,8,14,57,16,521
5.08060,0.09747,0.13055,0.00000,0.03440,0.97844,-0.17849,2023,6,8,14,57,16,532
5.08070,0.18498,-0.13195,0.00000,0.03270,0.97856,-0.17739,2023,6,8,14,57,16,543
5.08080,0.02747,-0.06195,0.00000,0.03184,0.97576,-0.17971,2023,6,8,14,57,16,554
5.08090,0.11497,0.16555,0.00000,0.03477,0.97929,-0.17934,2023,6,8,14,57,16,565
5.08100,0.00997,0.02555,0.00000,0.03318,0.97685,-0.17727,2023,6,8,14,57,16,576
5.08110,-0.00753,-0.02695,0.00000,0.03221,0.97820,-0.17910,2023,6,8,14,57,16,587
5.08120,-0.13003,-0.04445,0.00000,0.03196,0.97600,-0.17629,2023,6,8,14,57,16,598
5.08130,-0.02503,0.21805,0.00000,0.03172,0.97795,-0.17946,2023,6,8,14,57,16,609
5.08140,-0.00753,-0.00945,0.00000,0.03160,0.97661,-0.17885,2023,6,8,14,57,16,621
5.08150,-0.14752,0.06055,0.00000,0.03245,0.97832,-0.17739,2023,6,8,14,57,16,632
5.08160,-0.00753,0.02555,0.00000,0.03367,0.97795,-0.17922,2023,6,8,14,57,16,643
5.08170,0.00997,0.16555,0.00000,0.03294,0.97746,-0.17666,2023,6,8,14,57,16,654
5.08180,0.14997,-0.11445,0.00000,0.03392,0.97868,-0.17727,2023,6,8,14,57,16,665
5.08190,0.06248,0.07805,0.00000,0.03294,0.97734,-0.17653,2023,6,8,14,57,16,676
5.08200,0.11497,-0.02695,0.00000,0.03318,0.97771,-0.17666,2023,6,8,14,57,16,687
5.08210,-0.02503,0.00805,0.00000,0.03135,0.97685,-0.17812,2023,6,8,14,57,16,698
5.08220,-0.11253,-0.11445,0.00000,0.03233,0.97893,-0.17775,2023,6,8,14,57,16,709
5.08230,0.21997,-0.21945,0.00000,0.03196,0.97685,-0.17641,2023,6,8,14,57,16,721
5.08240,-0.20003,0.16555,0.00000,0.03379,0.97832,-0.17641,2023,6,8,14,57,16,732
5.08250,0.00997,-0.00945,0.00000,0.03465,0.97637,-0.17727,2023,6,8,14,57,16,743
5.08260,0.06248,-0.14945,0.00000,0.03477,0.97429,-0.17775,2023,6,8,14,57,16,754
5.08270,0.02747,0.16555,0.00000,0.03489,0.97820,-0.17836,2023,6,8,14,57,16,765
5.08280,-0.04252,0.11305,0.00000,0.03331,0.97978,-0.17653,2023,6,8,14,57,16,776
5.08290,0.00997,0.13055,0.00000,0.03221,0.97771,-0.17824,2023,6,8,14,57,16,787
5.08300,0.02747,0.16555,0.00000,0.03209,0.97685,-0.17971,2023,6,8,14,57,16,798
5.08310,0.06248,0.11305,0.00000,0.03318,0.97868,-0.17897,2023,6,8,14,57,16,809
5.08320,0.09747,-0.13195,0.00000,0.03184,0.97783,-0.17897,2023,6,8,14,57,16,821
5.08330,0.11497,-0.00945,0.00000,0.03392,0.97929,-0.17739,2023,6,8,14,57,16,832
5.08340,-0.04252,-0.04445,0.00000,0.03135,0.97771,-0.17568,2023,6,8,14,57,16,843
5.08350,-0.13003,0.07805,0.00000,0.03160,0.97563,-0.17568,2023,6,8,14,57,16,854
5.08360,0.09747,0.14805,0.00000,0.02965,0.97551,-0.17910,2023,6,8,14,57,16,865
5.08370,0.09747,0.20055,0.00000,0.03282,0.97832,-0.17690,2023,6,8,14,57,16,876
5.08380,0.02747,0.02555,0.00000,0.03257,0.97844,-0.17885,2023,6,8,14,57,16,887
5.08390,-0.02503,0.00805,0.00000,0.03209,0.97710,-0.17739,2023,6,8,14,57,16,898
5.08400,-0.06002,0.11305,0.00000,0.03184,0.97856,-0.17849,2023,6,8,14,57,16,909
5.08410,-0.11253,0.07805,0.00000,0.03294,0.97820,-0.17653,2023,6,8,14,57,16,921
5.08420,-0.14752,-0.00945,0.00000,0.03209,0.97795,-0.17958,2023,6,8,14,57,16,932
5.08430,-0.04252,-0.06195,0.00000,0.03221,0.97795,-0.17556,2023,6,8,14,57,16,943
5.08440,-0.07753,-0.04445,0.00000,0.03343,0.97698,-0.17739,2023,6,8,14,57,16,954
5.08450,0.13247,0.13055,0.00000,0.03550,0.97917,-0.18141,2023,6,8,14,57,16,965
5.08460,-0.20003,0.23555,0.00000,0.03233,0.97783,-0.17812,2023,6,8,14,57,16,976
5.08470,0.04497,-0.06195,0.00000,0.03282,0.97795,-0.17617,2023,6,8,14,57,16,987
5.08480,0.02747,0.14805,0.00000,0.03099,0.97771,-0.17946,2023,6,8,14,57,17,8
5.08490,-0.07753,0.02555,0.00000,0.03282,0.97600,-0.17836,2023,6,8,14,57,17,19
5.08500,-0.06002,-0.00945,0.00000,0.03245,0.97893,-0.17922,2023,6,8,14,57,17,31
5.08510,0.04497,-0.14945,0.00000,0.03233,0.97698,-0.17702,2023,6,8,14,57,17,42
5.08520,0.09747,-0.11445,0.00000,0.03013,0.97734,-0.17666,2023,6,8,14,57,17,53
5.08530,-0.21753,0.02555,0.00000,0.03257,0.97612,-0.17983,2023,6,8,14,57,17,64
5.08540,0.13247,-0.20195,0.00000,0.03184,0.97722,-0.17824,2023,6,8,14,57,17,75
5.08550,-0.04252,-0.07945,0.00000,0.03233,0.97759,-0.17910,2023,6,8,14,57,17,86
5.08560,0.16748,-0.27195,0.00000,0.03257,0.97673,-0.17800,2023,6,8,14,57,17,97
5.08570,-0.02503,-0.07945,0.00000,0.03172,0.97710,-0.17666,2023,6,8,14,57,17,108
5.08580,-0.04252,-0.13195,0.00000,0.03489,0.97746,-0.17739,2023,6,8,14,57,17,119
5.08590,0.04497,-0.14945,0.00000,0.03404,0.97856,-0.17958,2023,6,8,14,57,17,131
5.08600,-0.00753,0.18305,0.00000,0.03392,0.97771,-0.17739,2023,6,8,14,57,17,142
5.08610,-0.07753,-0.02695,0.00000,0.03245,0.97673,-0.17727,2023,6,8,14,57,17,153
5.08620,-0.11253,0.00805,0.00000,0.03282,0.97807,-0.17775,2023,6,8,14,57,17,164
5.08630,0.16748,0.09555,0.00000,0.03233,0.97795,-0.17958,2023,6,8,14,57,17,175
5.08640,0.07997,0.20055,0.00000,0.03294,0.97807,-0.17751,2023,6,8,14,57,17,186
5.08650,-0.13003,0.09555,0.00000,0.03514,0.97820,-0.18007,2023,6,8,14,57,17,197
5.08660,0.06248,0.11305,0.00000,0.03331,0.97685,-0.17690,2023,6,8,14,57,17,208
5.08670,0.14997,-0.20195,0.00000,0.03160,0.98039,-0.17763,2023,6,8,14,57,17,219
5.08680,-0.07753,0.06055,0.00000,0.03306,0.97588,-0.17873,2023,6,8,14,57,17,231
5.08690,-0.00753,0.13055,0.00000,0.03050,0.97820,-0.17812,2023,6,8,14,57,17,242
5.08700,0.09747,0.23555,0.00000,0.03135,0.97820,-0.17788,2023,6,8,14,57,17,253
5.08710,0.00997,-0.13195,0.00000,0.03209,0.97832,-0.17873,2023,6,8,14,57,17,264
5.08720,0.02747,0.09555,0.00000,0.03367,0.97795,-0.17885,2023,6,8,14,57,17,275
5.08730,0.09747,-0.02695,0.00000,0.03379,0.97771,-0.17946,2023,6,8,14,57,17,286
5.08740,-0.04252,-0.02695,0.00000,0.03148,0.97759,-0.17714,2023,6,8,14,57,17,297
5.08750,0.00997,0.20055,0.00000,0.03392,0.97759,-0.17824,2023,6,8,14,57,17,308
5.08760,-0.00753,-0.11445,0.00000,0.03270,0.97466,-0.17763,2023,6,8,14,57,17,319
5.08770,-0.02503,0.28805,0.00000,0.03392,0.97649,-0.17873,2023,6,8,14,57,17,331
5.08780,0.00997,0.07805,0.00000,0.03367,0.97856,-0.17861,2023,6,8,14,57,17,342
5.08790,0.13247,-0.00945,0.00000,0.03270,0.97929,-0.17849,2023,6,8,14,57,17,353
5.08800,-0.04252,-0.16695,0.00000,0.03392,0.97783,-0.17800,2023,6,8,14,57,17,364
5.08810,0.00997,0.04305,0.00000,0.03294,0.97978,-0.17836,2023,6,8,14,57,17,375
5.08820,0.00997,0.02555,0.00000,0.03331,0.97893,-0.17800,2023,6,8,14,57,17,386
5.08830,-0.09503,0.14805,0.00000,0.03355,0.97832,-0.17739,2023,6,8,14,57,17,397
5.08840,-0.04252,0.04305,0.00000,0.03318,0.97698,-0.17788,2023,6,8,14,57,17,408
5.08850,-0.00753,0.09555,0.00000,0.03440,0.97807,-0.17934,2023,6,8,14,57,17,419
5.08860,0.07997,-0.06195,0.00000,0.03294,0.97527,-0.18068,2023,6,8,14,57,17,431
5.08870,0.04497,-0.04445,0.00000,0.03221,0.97698,-0.17739,2023,6,8,14,57,17,442
5.08880,0.07997,0.00805,0.00000,0.03294,0.97698,-0.17861,2023,6,8,14,57,17,453
5.08890,-0.00753,-0.07945,0.00000,0.03636,0.97734,-0.17788,2023,6,8,14,57,17,464
5.08900,-0.00753,0.00805,0.00000,0.03428,0.97661,-0.17934,2023,6,8,14,57,17,475
5.08910,0.00997,0.04305,0.00000,0.03270,0.97722,-0.17775,2023,6,8,14,57,17,486
5.08920,-0.11253,-0.20195,0.00000,0.03245,0.97820,-0.17678,2023,6,8,14,57,17,497
5.08930,-0.13003,0.11305,0.00000,0.03123,0.97771,-0.17690,2023,6,8,14,57,17,508
5.08940,-0.00753,0.44555,0.00000,0.03355,0.97759,-0.17751,2023,6,8,14,57,17,519
5.08950,0.02747,-0.07945,0.00000,0.03257,0.97685,-0.17995,2023,6,8,14,57,17,531
5.08960,0.09747,-0.02695,0.00000,0.03221,0.97722,-0.17507,2023,6,8,14,57,17,542
5.08970,-0.16502,-0.09695,0.00000,0.03440,0.97710,-0.17885,2023,6,8,14,57,17,553
5.08980,0.02747,0.06055,0.00000,0.03135,0.97759,-0.17873,2023,6,8,14,57,17,564
5.08990,-0.02503,0.11305,0.00000,0.03489,0.97783,-0.17775,2023,6,8,14,57,17,575
5.09000,-0.07753,0.00805,0.00000,0.03343,0.97661,-0.17897,2023,6,8,14,57,17,586
5.09010,-0.09503,0.00805,0.00000,0.03440,0.97673,-0.17824,2023,6,8,14,57,17,597
5.09020,-0.07753,0.20055,0.00000,0.03062,0.97673,-0.17885,2023,6,8,14,57,17,608
5.09030,0.02747,-0.00945,0.00000,0.03514,0.97807,-0.17800,2023,6,8,14,57,17,619
5.09040,0.00997,-0.07945,0.00000,0.03318,0.97698,-0.17885,2023,6,8,14,57,17,631
5.09050,0.04497,0.06055,0.00000,0.03318,0.97844,-0.17775,2023,6,8,14,57,17,642
5.09060,-0.00753,0.14805,0.00000,0.03355,0.97746,-0.17763,2023,6,8,14,57,17,653
5.09070,-0.04252,-0.23695,0.00000,0.03184,0.97759,-0.17800,2023,6,8,14,57,17,664
5.09080,0.16748,-0.21945,0.00000,0.03440,0.97954,-0.18202,2023,6,8,14,57,17,675
5.09090,0.02747,-0.04445,0.00000,0.03245,0.97771,-0.17836,2023,6,8,14,57,17,686
5.09100,0.14997,-0.11445,0.00000,0.03318,0.97624,-0.17983,2023,6,8,14,57,17,697
5.09110,0.02747,0.13055,0.00000,0.03379,0.97905,-0.18019,2023,6,8,14,57,17,708
5.09120,-0.02503,0.07805,0.00000,0.03392,0.97710,-0.17971,2023,6,8,14,57,17,719
5.09130,0.04497,-0.02695,0.00000,0.03074,0.97820,-0.17873,2023,6,8,14,57,17,731
5.09140,0.06248,0.16555,0.00000,0.03221,0.97832,-0.17812,2023,6,8,14,57,17,742
5.09150,0.07997,0.04305,0.00000,0.03331,0.97844,-0.17556,2023,6,8,14,57,17,753
5.09160,0.23747,-0.00945,0.00000,0.03233,0.97478,-0.17873,2023,6,8,14,57,17,764
5.09170,0.07997,-0.02695,0.00000,0.03318,0.97624,-0.17788,2023,6,8,14,57,17,775
5.09180,0.13247,-0.02695,0.00000,0.03318,0.97807,-0.17836,2023,6,8,14,57,17,786
5.09190,0.06248,0.25305,0.00000,0.03270,0.97563,-0.17971,2023,6,8,14,57,17,797
5.09200,0.13247,-0.00945,0.00000,0.03306,0.97771,-0.17641,2023,6,8,14,57,17,808
5.09210,-0.04252,-0.00945,0.00000,0.03294,0.97734,-0.17922,2023,6,8,14,57,17,819
5.09220,0.00997,0.09555,0.00000,0.03233,0.97722,-0.17836,2023,6,8,14,57,17,831
5.09230,0.14997,-0.04445,0.00000,0.03123,0.97807,-0.17922,2023,6,8,14,57,17,842
5.09240,-0.09503,0.13055,0.00000,0.03209,0.97563,-0.17910,2023,6,8,14,57,17,853
5.09250,-0.00753,-0.09695,0.00000,0.03270,0.97466,-0.17922,2023,6,8,14,57,17,864
5.09260,0.00997,0.13055,0.00000,0.03257,0.97783,-0.17824,2023,6,8,14,57,17,875
5.09270,-0.20003,0.00805,0.00000,0.03550,0.97515,-0.17751,2023,6,8,14,57,17,886
5.09280,0.09747,-0.07945,0.00000,0.03392,0.97807,-0.17763,2023,6,8,14,57,17,897
5.09290,-0.02503,0.02555,0.00000,0.03392,0.97820,-0.17714,2023,6,8,14,57,17,908
5.09300,0.04497,-0.04445,0.00000,0.03477,0.97905,-0.17910,2023,6,8,14,57,17,919
5.09310,-0.13003,0.18305,0.00000,0.03233,0.97881,-0.17849,2023,6,8,14,57,17,931
5.09320,0.04497,0.11305,0.00000,0.03160,0.97685,-0.17690,2023,6,8,14,57,17,942
5.09330,-0.06002,-0.02695,0.00000,0.03404,0.97649,-0.17873,2023,6,8,14,57,17,953
5.09340,0.02747,0.00805,0.00000,0.03416,0.97795,-0.18007,2023,6,8,14,57,17,964
5.09350,0.02747,-0.04445,0.00000,0.03245,0.97624,-0.17958,2023,6,8,14,57,17,975
5.09360,-0.06002,0.25305,0.00000,0.03172,0.97820,-0.17873,2023,6,8,14,57,17,986
5.09370,0.11497,-0.13195,0.00000,0.03477,0.97795,-0.17922,2023,6,8,14,57,17,997
5.09380,0.04497,0.04305,0.00000,0.03294,0.97685,-0.17739,2023,6,8,14,57,17,8
5.09390,0.11497,-0.02695,0.00000,0.03074,0.98173,-0.17824,2023,6,8,14,57,18,9
5.09400,0.00997,-0.11445,0.00000,0.03562,0.97612,-0.17788,2023,6,8,14,57,18,21
5.09410,-0.07753,0.00805,0.00000,0.03245,0.98039,-0.17897,2023,6,8,14,57,18,32
5.09420,-0.14752,0.25305,0.00000,0.03038,0.97624,-0.17910,2023,6,8,14,57,18,43
5.09430,0.07997,0.00805,0.00000,0.03196,0.97710,-0.18141,2023,6,8,14,57,18,54
5.09440,0.00997,-0.25445,0.00000,0.03355,0.97771,-0.17934,2023,6,8,14,57,18,65
5.09450,-0.00753,-0.02695,0.00000,0.03416,0.97759,-0.17788,2023,6,8,14,57,18,76
5.09460,0.07997,0.07805,0.00000,0.03331,0.97917,-0.17934,2023,6,8,14,57,18,87
5.09470,-0.00753,0.04305,0.00000,0.03428,0.97881,-0.17653,2023,6,8,14,57,18,98
5.09480,-0.11253,-0.02695,0.00000,0.03074,0.97649,-0.17922,2023,6,8,14,57,18,109
5.09490,0.02747,-0.13195,0.00000,0.03367,0.97856,-0.17946,2023,6,8,14,57,18,121
5.09500,0.09747,0.00805,0.00000,0.03318,0.98015,-0.17678,2023,6,8,14,57,18,132
5.09510,0.04497,0.34055,0.00000,0.03221,0.97698,-0.17836,2023,6,8,14,57,18,143
5.09520,0.11497,-0.07945,0.00000,0.03245,0.97954,-0.17958,2023,6,8,14,57,18,154
5.09530,-0.13003,0.11305,0.00000,0.03062,0.97685,-0.17836,2023,6,8,14,57,18,165
5.09540,0.07997,-0.13195,0.00000,0.03050,0.97844,-0.17873,2023,6,8,14,57,18,176
5.09550,0.18498,-0.09695,0.00000,0.03221,0.97771,-0.17836,2023,6,8,14,57,18,187
5.09560,-0.11253,0.06055,0.00000,0.03318,0.97929,-0.18019,2023,6,8,14,57,18,198
5.09570,-0.07753,-0.11445,0.00000,0.03367,0.97759,-0.17885,2023,6,8,14,57,18,209
5.09580,0.02747,-0.18445,0.00000,0.03440,0.97771,-0.18019,2023,6,8,14,57,18,221
5.09590,-0.00753,-0.04445,0.00000,0.03172,0.97856,-0.17788,2023,6,8,14,57,18,232
5.09600,-0.06002,-0.07945,0.00000,0.03294,0.97685,-0.18019,2023,6,8,14,57,18,243
5.09610,-0.04252,0.04305,0.00000,0.03062,0.97624,-0.17690,2023,6,8,14,57,18,254
5.09620,0.00997,-0.02695,0.00000,0.03416,0.97588,-0.17946,2023,6,8,14,57,18,265
5.09630,0.07997,-0.07945,0.00000,0.03306,0.97649,-0.17751,2023,6,8,14,57,18,276
5.09640,0.04497,-0.11445,0.00000,0.03318,0.97783,-0.17873,2023,6,8,14,57,18,287
5.09650,0.07997,-0.02695,0.00000,0.03465,0.97746,-0.17885,2023,6,8,14,57,18,298
5.09660,-0.02503,0.14805,0.00000,0.03160,0.97612,-0.18019,2023,6,8,14,57,18,309
5.09670,-0.00753,0.00805,0.00000,0.03270,0.97746,-0.17922,2023,6,8,14,57,18,321
5.09680,-0.14752,-0.09695,0.00000,0.03331,0.97868,-0.17934,2023,6,8,14,57,18,332
5.09690,0.04497,-0.04445,0.00000,0.03233,0.98003,-0.17763,2023,6,8,14,57,18,343
5.09700,-0.02503,0.06055,0.00000,0.03392,0.97624,-0.17739,2023,6,8,14,57,18,354
5.09710,-0.09503,0.13055,0.00000,0.03099,0.98112,-0.17727,2023,6,8,14,57,18,365
5.09720,0.14997,-0.11445,0.00000,0.03184,0.97673,-0.17922,2023,6,8,14,57,18,376
5.09730,-0.11253,0.07805,0.00000,0.03087,0.97881,-0.17849,2023,6,8,14,57,18,387
5.09740,-0.07753,-0.16695,0.00000,0.03331,0.97685,-0.17971,2023,6,8,14,57,18,398
5.09750,-0.11253,-0.09695,0.00000,0.03599,0.97759,-0.17873,2023,6,8,14,57,18,409
5.09760,-0.06002,-0.02695,0.00000,0.03355,0.97905,-0.17702,2023,6,8,14,57,18,421
5.09770,-0.00753,0.00805,0.00000,0.03379,0.97759,-0.17775,2023,6,8,14,57,18,432
5.09780,0.09747,-0.04445,0.00000,0.03245,0.97807,-0.17885,2023,6,8,14,57,18,443
5.09790,0.18498,-0.13195,0.00000,0.03270,0.98003,-0.17861,2023,6,8,14,57,18,454
5.09800,-0.07753,-0.00945,0.00000,0.02928,0.97698,-0.17580,2023,6,8,14,57,18,465
5.09810,0.06248,-0.02695,0.00000,0.03245,0.97868,-0.18080,2023,6,8,14,57,18,476
5.09820,-0.13003,0.16555,0.00000,0.03160,0.97856,-0.17897,2023,6,8,14,57,18,487
5.09830,0.13247,-0.14945,0.00000,0.03306,0.97673,-0.17751,2023,6,8,14,57,18,498
5.09840,-0.00753,0.09555,0.00000,0.03050,0.97868,-0.17617,2023,6,8,14,57,18,509
5.09850,0.02747,-0.11445,0.00000,0.03465,0.97734,-0.18068,2023,6,8,14,57,18,521
5.09860,0.09747,0.00805,0.00000,0.03148,0.97734,-0.17836,2023,6,8,14,57,18,532
5.09870,0.09747,-0.04445,0.00000,0.03294,0.97832,-0.17800,2023,6,8,14,57,18,543
5.09880,0.06248,-0.00945,0.00000,0.03221,0.97856,-0.17727,2023,6,8,14,57,18,554
5.09890,-0.09503,-0.07945,0.00000,0.03196,0.97661,-0.17775,2023,6,8,14,57,18,565
5.09900,0.25497,0.09555,0.00000,0.03404,0.97844,-0.17800,2023,6,8,14,57,18,576
5.09910,-0.00753,-0.00945,0.00000,0.03404,0.97746,-0.17775,2023,6,8,14,57,18,587
5.09920,-0.02503,0.07805,0.00000,0.03306,0.97856,-0.17812,2023,6,8,14,57,18,598
5.09930,-0.07753,-0.02695,0.00000,0.03428,0.97673,-0.17849,2023,6,8,14,57,18,609
5.09940,-0.09503,-0.00945,0.00000,0.03270,0.97844,-0.17727,2023,6,8,14,57,18,621
5.09950,-0.16502,0.13055,0.00000,0.03074,0.97734,-0.17519,2023,6,8,14,57,18,632
5.09960,-0.04252,-0.02695,0.00000,0.03416,0.97942,-0.17641,2023,6,8,14,57,18,643
5.09970,0.07997,-0.37695,0.00000,0.03428,0.97771,-0.17836,2023,6,8,14,57,18,654
5.09980,0.00997,-0.04445,0.00000,0.03257,0.97722,-0.17849,2023,6,8,14,57,18,665
5.09990,0.09747,0.13055,0.00000,0.03294,0.97807,-0.17800,2023,6,8,14,57,18,676
5.10000,-0.18253,0.09555,0.00000,0.03440,0.97771,-0.17775,2023,6,8,14,57,18,687
5.10010,0.06248,0.14805,0.00000,0.03123,0.97844,-0.17592,2023,6,8,14,57,18,698
5.10020,-0.13003,-0.13195,0.00000,0.03172,0.97856,-0.17922,2023,6,8,14,57,18,709
5.10030,0.06248,-0.13195,0.00000,0.03257,0.97771,-0.17531,2023,6,8,14,57,18,721
5.10040,0.06248,-0.14945,0.00000,0.03270,0.97710,-0.17714,2023,6,8,14,57,18,732
5.10050,0.18498,-0.02695,0.00000,0.03404,0.97722,-0.17910,2023,6,8,14,57,18,743
5.10060,0.14997,0.06055,0.00000,0.03453,0.97795,-0.17885,2023,6,8,14,57,18,754
5.10070,-0.02503,-0.04445,0.00000,0.03477,0.97844,-0.17702,2023,6,8,14,57,18,765
5.10080,-0.14752,0.18305,0.00000,0.03294,0.97868,-0.17580,2023,6,8,14,57,18,776
5.10090,0.14997,0.13055,0.00000,0.03135,0.97759,-0.17812,2023,6,8,14,57,18,787
5.10100,-0.00753,0.06055,0.00000,0.03245,0.97649,-0.18007,2023,6,8,14,57,18,798
5.10110,0.07997,-0.02695,0.00000,0.03196,0.97685,-0.17788,2023,6,8,14,57,18,809
5.10120,0.04497,-0.14945,0.00000,0.03257,0.97917,-0.17788,2023,6,8,14,57,18,821
5.10130,0.07997,-0.11445,0.00000,0.03013,0.97783,-0.17653,2023,6,8,14,57,18,832
5.10140,0.00997,0.09555,0.00000,0.03184,0.97990,-0.17946,2023,6,8,14,57,18,843
5.10150,0.14997,0.23555,0.00000,0.03282,0.98015,-0.17763,2023,6,8,14,57,18,854
5.10160,0.04497,-0.14945,0.00000,0.03331,0.97783,-0.17995,2023,6,8,14,57,18,865
5.10170,-0.09503,-0.04445,0.00000,0.03160,0.97820,-0.17922,2023,6,8,14,57,18,876
5.10180,-0.00753,0.13055,0.00000,0.03477,0.97734,-0.17910,2023,6,8,14,57,18,887
5.10190,-0.06002,0.11305,0.00000,0.03209,0.97807,-0.17812,2023,6,8,14,57,18,898
5.10200,0.06248,0.16555,0.00000,0.03282,0.97698,-0.17739,2023,6,8,14,57,18,909
5.10210,0.13247,0.00805,0.00000,0.03257,0.98027,-0.17971,2023,6,8,14,57,18,921
5.10220,-0.09503,-0.16695,0.00000,0.03331,0.97917,-0.17824,2023,6,8,14,57,18,932
5.10230,0.06248,-0.06195,0.00000,0.03294,0.97954,-0.17836,2023,6,8,14,57,18,943
5.10240,0.30747,-0.04445,0.00000,0.03404,0.97661,-0.17861,2023,6,8,14,57,18,954
5.10250,-0.14752,0.18305,0.00000,0.03294,0.97746,-0.17873,2023,6,8,14,57,18,965
5.10260,-0.18253,0.04305,0.00000,0.03245,0.98003,-0.17690,2023,6,8,14,57,18,976
5.10270,0.11497,-0.04445,0.00000,0.03233,0.97893,-0.17861,2023,6,8,14,57,18,987
5.10280,-0.11253,-0.07945,0.00000,0.03343,0.97832,-0.18117,2023,6,8,14,57,18,998
5.10290,0.02747,-0.07945,0.00000,0.03331,0.97734,-0.17727,2023,6,8,14,57,19,9
5.10300,-0.09503,0.14805,0.00000,0.03245,0.97539,-0.17861,2023,6,8,14,57,19,21
5.10310,-0.00753,-0.21945,0.00000,0.03221,0.97685,-0.17702,2023,6,8,14,57,19,32
5.10320,-0.02503,0.14805,0.00000,0.03184,0.97710,-0.17800,2023,6,8,14,57,19,43
5.10330,-0.06002,0.00805,0.00000,0.03367,0.98015,-0.17812,2023,6,8,14,57,19,54
5.10340,-0.04252,-0.04445,0.00000,0.03331,0.97783,-0.17800,2023,6,8,14,57,19,65
5.10350,0.16748,0.02555,0.00000,0.03331,0.97746,-0.17836,2023,6,8,14,57,19,76
5.10360,-0.16502,-0.02695,0.00000,0.03270,0.97685,-0.17775,2023,6,8,14,57,19,87
5.10370,0.11497,0.09555,0.00000,0.03221,0.97746,-0.17873,2023,6,8,14,57,19,98
5.10380,0.11497,0.04305,0.00000,0.03270,0.97942,-0.17971,2023,6,8,14,57,19,109
5.10390,0.06248,0.00805,0.00000,0.03453,0.97832,-0.17751,2023,6,8,14,57,19,121
5.10400,-0.04252,-0.06195,0.00000,0.03355,0.97771,-0.17763,2023,6,8,14,57,19,132
5.10410,0.04497,0.07805,0.00000,0.03367,0.97710,-0.17849,2023,6,8,14,57,19,143
5.10420,0.11497,-0.09695,0.00000,0.03270,0.97771,-0.18105,2023,6,8,14,57,19,154
5.10430,-0.07753,0.11305,0.00000,0.03184,0.97661,-0.17995,2023,6,8,14,57,19,165
5.10440,0.13247,-0.04445,0.00000,0.03367,0.97893,-0.17702,2023,6,8,14,57,19,176
5.10450,0.06248,-0.06195,0.00000,0.03379,0.97722,-0.17983,2023,6,8,14,57,19,187
5.10460,0.04497,-0.16695,0.00000,0.03428,0.97832,-0.17910,2023,6,8,14,57,19,198
5.10470,0.11497,0.07805,0.00000,0.03233,0.97490,-0.17751,2023,6,8,14,57,19,209
5.10480,-0.07753,-0.06195,0.00000,0.03062,0.97734,-0.17824,2023,6,8,14,57,19,221
5.10490,-0.02503,0.09555,0.00000,0.03099,0.97734,-0.17812,2023,6,8,14,57,19,232
5.10500,0.04497,-0.00945,0.00000,0.03428,0.97600,-0.17897,2023,6,8,14,57,19,243
5.10510,0.13247,-0.16695,0.00000,0.03562,0.97856,-0.18068,2023,6,8,14,57,19,254
5.10520,0.06248,-0.04445,0.00000,0.03306,0.97759,-0.17580,2023,6,8,14,57,19,265
5.10530,0.02747,-0.00945,0.00000,0.02989,0.97710,-0.17897,2023,6,8,14,57,19,276
5.10540,0.04497,-0.18445,0.00000,0.03148,0.97771,-0.17788,2023,6,8,14,57,19,287
5.10550,-0.06002,-0.20195,0.00000,0.03392,0.97722,-0.17531,2023,6,8,14,57,19,298
5.10560,-0.06002,-0.13195,0.00000,0.03440,0.97820,-0.18019,2023,6,8,14,57,19,309
5.10570,-0.02503,-0.18445,0.00000,0.03306,0.97600,-0.17641,2023,6,8,14,57,19,321
5.10580,0.07997,-0.07945,0.00000,0.03270,0.97698,-0.17763,2023,6,8,14,57,19,332
5.10590,-0.04252,0.00805,0.00000,0.03245,0.97807,-0.17861,2023,6,8,14,57,19,343
5.10600,0.06248,-0.06195,0.00000,0.03160,0.97637,-0.18032,2023,6,8,14,57,19,354
5.10610,0.20247,0.06055,0.00000,0.03294,0.97820,-0.17690,2023,6,8,14,57,19,365
5.10620,0.11497,-0.18445,0.00000,0.03245,0.97746,-0.18056,2023,6,8,14,57,19,376
5.10630,0.02747,0.00805,0.00000,0.03270,0.97649,-0.17605,2023,6,8,14,57,19,387
5.10640,-0.04252,-0.02695,0.00000,0.03196,0.97624,-0.18019,2023,6,8,14,57,19,398
5.10650,0.13247,-0.13195,0.00000,0.03282,0.97661,-0.17739,2023,6,8,14,57,19,409
5.10660,-0.02503,0.30555,0.00000,0.03160,0.97759,-0.17873,2023,6,8,14,57,19,421
5.10670,0.07997,-0.20195,0.00000,0.03221,0.97917,-0.18154,2023,6,8,14,57,19,432
5.10680,0.09747,0.02555,0.00000,0.03221,0.97734,-0.17653,2023,6,8,14,57,19,443
5.10690,-0.04252,-0.13195,0.00000,0.03440,0.97746,-0.17775,2023,6,8,14,57,19,454
5.10700,-0.14752,-0.07945,0.00000,0.03306,0.97771,-0.17714,2023,6,8,14,57,19,465
5.10710,-0.00753,0.06055,0.00000,0.03196,0.97820,-0.17971,2023,6,8,14,57,19,476
5.10720,0.23747,-0.04445,0.00000,0.03184,0.97844,-0.17910,2023,6,8,14,57,19,487
5.10730,0.02747,0.14805,0.00000,0.03343,0.97929,-0.17958,2023,6,8,14,57,19,498
5.10740,-0.06002,-0.09695,0.00000,0.03294,0.97698,-0.17836,2023,6,8,14,57,19,509
5.10750,-0.07753,-0.00945,0.00000,0.03221,0.97917,-0.18093,2023,6,8,14,57,19,521
5.10760,0.02747,-0.21945,0.00000,0.03209,0.97649,-0.18007,2023,6,8,14,57,19,532
5.10770,0.11497,0.13055,0.00000,0.03184,0.97807,-0.17885,2023,6,8,14,57,19,543
5.10780,0.06248,0.09555,0.00000,0.03489,0.97698,-0.17849,2023,6,8,14,57,19,554
5.10790,0.07997,-0.07945,0.00000,0.03392,0.97795,-0.17788,2023,6,8,14,57,19,565
5.10800,0.02747,-0.00945,0.00000,0.03209,0.97661,-0.17897,2023,6,8,14,57,19,576
5.10810,-0.04252,-0.11445,0.00000,0.03306,0.97539,-0.18068,2023,6,8,14,57,19,587
5.10820,0.11497,-0.30695,0.00000,0.03196,0.97917,-0.17995,2023,6,8,14,57,19,598
5.10830,0.07997,-0.16695,0.00000,0.03318,0.97954,-0.17653,2023,6,8,14,57,19,609
5.10840,0.16748,0.14805,0.00000,0.03318,0.98076,-0.18056,2023,6,8,14,57,19,621
5.10850,-0.00753,-0.11445,0.00000,0.03257,0.97771,-0.17800,2023,6,8,14,57,19,632
5.10860,-0.06002,-0.11445,0.00000,0.03074,0.97783,-0.17910,2023,6,8,14,57,19,643
5.10870,0.04497,-0.00945,0.00000,0.03221,0.97868,-0.18032,2023,6,8,14,57,19,654
5.10880,0.14997,-0.11445,0.00000,0.03428,0.97685,-0.18032,2023,6,8,14,57,19,665
5.10890,0.04497,-0.25445,0.00000,0.03172,0.97759,-0.17775,2023,6,8,14,57,19,676
5.10900,0.14997,-0.00945,0.00000,0.03477,0.97868,-0.17788,2023,6,8,14,57,19,687
5.10910,0.02747,0.21805,0.00000,0.03123,0.97685,-0.17958,2023,6,8,14,57,19,698
5.10920,0.21997,-0.06195,0.00000,0.03257,0.97856,-0.17897,2023,6,8,14,57,19,709
5.10930,0.04497,-0.06195,0.00000,0.03123,0.97978,-0.17958,2023,6,8,14,57,19,721
5.10940,-0.16502,-0.11445,0.00000,0.03392,0.98003,-0.17836,2023,6,8,14,57,19,732
5.10950,-0.02503,0.00805,0.00000,0.03453,0.97393,-0.17983,2023,6,8,14,57,19,743
5.10960,-0.09503,0.02555,0.00000,0.03257,0.97539,-0.17751,2023,6,8,14,57,19,754
5.10970,0.04497,-0.07945,0.00000,0.03160,0.97929,-0.17934,2023,6,8,14,57,19,765
5.10980,0.07997,-0.13195,0.00000,0.03282,0.97710,-0.17861,2023,6,8,14,57,19,776
5.10990,0.06248,0.04305,0.00000,0.03514,0.97868,-0.17849,2023,6,8,14,57,19,787
5.11000,0.06248,-0.09695,0.00000,0.03355,0.97832,-0.18105,2023,6,8,14,57,19,798
5.11010,0.02747,-0.02695,0.00000,0.03245,0.97844,-0.18056,2023,6,8,14,57,19,809
5.11020,-0.11253,0.00805,0.00000,0.03282,0.97783,-0.17885,2023,6,8,14,57,19,821
5.11030,-0.25252,0.07805,0.00000,0.03270,0.97795,-0.17824,2023,6,8,14,57,19,832
5.11040,-0.00753,0.07805,0.00000,0.03123,0.97429,-0.17983,2023,6,8,14,57,19,843
5.11050,0.21997,-0.06195,0.00000,0.03465,0.97844,-0.17824,2023,6,8,14,57,19,854
5.11060,-0.00753,-0.13195,0.00000,0.03343,0.97502,-0.17910,2023,6,8,14,57,19,865
5.11070,0.07997,0.23555,0.00000,0.03477,0.97637,-0.17934,2023,6,8,14,57,19,876
5.11080,0.09747,0.00805,0.00000,0.03221,0.97807,-0.18044,2023,6,8,14,57,19,887
5.11090,-0.11253,-0.06195,0.00000,0.03453,0.97844,-0.18056,2023,6,8,14,57,19,898
5.11100,-0.00753,-0.09695,0.00000,0.03318,0.97600,-0.18093,2023,6,8,14,57,19,909
5.11110,-0.06002,-0.04445,0.00000,0.03160,0.97637,-0.17995,2023,6,8,14,57,19,921
5.11120,0.18498,-0.02695,0.00000,0.03355,0.97576,-0.17934,2023,6,8,14,57,19,932
5.11130,0.11497,-0.18445,0.00000,0.03148,0.97698,-0.17861,2023,6,8,14,57,19,943
5.11140,0.00997,-0.14945,0.00000,0.03099,0.97710,-0.18032,2023,6,8,14,57,19,954
5.11150,0.09747,0.02555,0.00000,0.03099,0.97710,-0.17958,2023,6,8,14,57,19,965
5.11160,-0.04252,-0.04445,0.00000,0.03294,0.97759,-0.18202,2023,6,8,14,57,19,976
5.11170,0.21997,-0.20195,0.00000,0.03550,0.97795,-0.18093,2023,6,8,14,57,19,987
5.11180,0.07997,-0.07945,0.00000,0.03209,0.97795,-0.17775,2023,6,8,14,57,20,8
5.11190,0.13247,0.18305,0.00000,0.03209,0.97771,-0.17873,2023,6,8,14,57,20,19
5.11200,0.18498,-0.13195,0.00000,0.03306,0.97832,-0.18007,2023,6,8,14,57,20,31
5.11210,-0.02503,-0.07945,0.00000,0.03489,0.97893,-0.17800,2023,6,8,14,57,20,42
5.11220,-0.13003,0.06055,0.00000,0.03270,0.97832,-0.17946,2023,6,8,14,57,20,53
5.11230,0.09747,-0.04445,0.00000,0.03233,0.97710,-0.17885,2023,6,8,14,57,20,64
5.11240,0.07997,-0.14945,0.00000,0.03562,0.97795,-0.17836,2023,6,8,14,57,20,75
5.11250,0.06248,-0.11445,0.00000,0.03294,0.97954,-0.17910,2023,6,8,14,57,20,86
5.11260,0.09747,-0.04445,0.00000,0.03367,0.97856,-0.18019,2023,6,8,14,57,20,97
5.11270,0.09747,-0.04445,0.00000,0.03282,0.97637,-0.17885,2023,6,8,14,57,20,108
5.11280,0.04497,0.02555,0.00000,0.03331,0.97820,-0.18105,2023,6,8,14,57,20,119
5.11290,-0.06002,0.02555,0.00000,0.03379,0.98076,-0.17629,2023,6,8,14,57,20,131
5.11300,0.00997,-0.02695,0.00000,0.03050,0.97905,-0.17983,2023,6,8,14,57,20,142
5.11310,-0.06002,-0.02695,0.00000,0.03392,0.97722,-0.17775,2023,6,8,14,57,20,153
5.11320,0.14997,-0.21945,0.00000,0.03184,0.97527,-0.18044,2023,6,8,14,57,20,164
5.11330,-0.23503,-0.20195,0.00000,0.03404,0.97893,-0.18007,2023,6,8,14,57,20,175
5.11340,0.14997,-0.09695,0.00000,0.03221,0.97868,-0.17983,2023,6,8,14,57,20,186
5.11350,0.07997,-0.00945,0.00000,0.03489,0.97942,-0.18105,2023,6,8,14,57,20,197
5.11360,0.21997,-0.27195,0.00000,0.03221,0.97612,-0.17739,2023,6,8,14,57,20,208
5.11370,-0.00753,-0.09695,0.00000,0.03550,0.97881,-0.17714,2023,6,8,14,57,20,219
5.11380,0.06248,-0.04445,0.00000,0.03111,0.97722,-0.17958,2023,6,8,14,57,20,231
5.11390,0.07997,0.14805,0.00000,0.03392,0.97795,-0.18202,2023,6,8,14,57,20,242
5.11400,-0.02503,-0.00945,0.00000,0.03111,0.97759,-0.17751,2023,6,8,14,57,20,253
5.11410,0.07997,-0.09695,0.00000,0.03282,0.97637,-0.17897,2023,6,8,14,57,20,264
5.11420,-0.11253,-0.02695,0.00000,0.03331,0.97661,-0.17995,2023,6,8,14,57,20,275
5.11430,-0.07753,0.00805,0.00000,0.03331,0.97685,-0.17849,2023,6,8,14,57,20,286
5.11440,-0.11253,0.11305,0.00000,0.03355,0.97759,-0.17922,2023,6,8,14,57,20,297
5.11450,0.06248,0.04305,0.00000,0.03331,0.97673,-0.18007,2023,6,8,14,57,20,308
5.11460,0.09747,-0.23695,0.00000,0.03367,0.97856,-0.17958,2023,6,8,14,57,20,319
5.11470,-0.06002,-0.02695,0.00000,0.03221,0.97795,-0.17922,2023,6,8,14,57,20,331
5.11480,0.02747,0.02555,0.00000,0.03148,0.97661,-0.17849,2023,6,8,14,57,20,342
5.11490,-0.09503,-0.02695,0.00000,0.03233,0.97820,-0.18117,2023,6,8,14,57,20,353
5.11500,0.06248,-0.13195,0.00000,0.03099,0.97429,-0.18044,2023,6,8,14,57,20,364
5.11510,-0.00753,-0.02695,0.00000,0.03428,0.97759,-0.17849,2023,6,8,14,57,20,375
5.11520,0.04497,0.06055,0.00000,0.03172,0.97893,-0.17934,2023,6,8,14,57,20,386
5.11530,-0.04252,0.04305,0.00000,0.03233,0.98039,-0.18105,2023,6,8,14,57,20,397
5.11540,-0.06002,0.02555,0.00000,0.03172,0.97734,-0.17812,2023,6,8,14,57,20,408
5.11550,-0.14752,-0.16695,0.00000,0.03123,0.97698,-0.17910,2023,6,8,14,57,20,419
5.11560,0.06248,0.00805,0.00000,0.03392,0.97966,-0.17849,2023,6,8,14,57,20,431
5.11570,0.09747,0.06055,0.00000,0.03489,0.97710,-0.17885,2023,6,8,14,57,20,442
5.11580,-0.04252,-0.09695,0.00000,0.03111,0.97698,-0.17946,2023,6,8,14,57,20,453
5.11590,0.00997,0.11305,0.00000,0.03270,0.97820,-0.17702,2023,6,8,14,57,20,464
5.11600,-0.06002,0.16555,0.00000,0.03367,0.97795,-0.17763,2023,6,8,14,57,20,475
5.11610,0.18498,-0.00945,0.00000,0.03196,0.97893,-0.17897,2023,6,8,14,57,20,486
5.11620,0.14997,-0.02695,0.00000,0.03233,0.97771,-0.17836,2023,6,8,14,57,20,497
5.11630,-0.04252,0.18305,0.00000,0.03209,0.97637,-0.17824,2023,6,8,14,57,20,508
5.11640,-0.09503,0.02555,0.00000,0.03453,0.97990,-0.17934,2023,6,8,14,57,20,519
5.11650,0.04497,-0.07945,0.00000,0.03379,0.97698,-0.17946,2023,6,8,14,57,20,531
5.11660,-0.09503,0.07805,0.00000,0.03282,0.97893,-0.18007,2023,6,8,14,57,20,542
5.11670,-0.20003,0.11305,0.00000,0.03355,0.97783,-0.17922,2023,6,8,14,57,20,553
5.11680,0.06248,-0.00945,0.00000,0.03355,0.97649,-0.17836,2023,6,8,14,57,20,564
5.11690,0.06248,0.04305,0.00000,0.03257,0.97771,-0.17678,2023,6,8,14,57,20,575
5.11700,-0.09503,0.09555,0.00000,0.03392,0.97868,-0.17605,2023,6,8,14,57,20,586
5.11710,-0.09503,0.20055,0.00000,0.03123,0.97624,-0.17946,2023,6,8,14,57,20,597
5.11720,-0.06002,0.07805,0.00000,0.03379,0.97698,-0.17861,2023,6,8,14,57,20,608
5.11730,0.06248,0.16555,0.00000,0.03453,0.97832,-0.17873,2023,6,8,14,57,20,619
5.11740,-0.04252,-0.13195,0.00000,0.03221,0.97832,-0.17946,2023,6,8,14,57,20,631
5.11750,0.11497,-0.02695,0.00000,0.03404,0.97856,-0.17897,2023,6,8,14,57,20,642
5.11760,-0.09503,0.21805,0.00000,0.03245,0.97759,-0.17763,2023,6,8,14,57,20,653
5.11770,-0.18253,0.11305,0.00000,0.03148,0.97954,-0.18105,2023,6,8,14,57,20,664
5.11780,0.04497,0.02555,0.00000,0.03318,0.97539,-0.17824,2023,6,8,14,57,20,675
5.11790,0.20247,-0.09695,0.00000,0.03526,0.97807,-0.17775,2023,6,8,14,57,20,686
5.11800,0.06248,0.21805,0.00000,0.03514,0.97844,-0.17763,2023,6,8,14,57,20,697
5.11810,-0.06002,0.06055,0.00000,0.03355,0.97820,-0.17910,2023,6,8,14,57,20,708
5.11820,-0.11253,-0.04445,0.00000,0.03367,0.97978,-0.17812,2023,6,8,14,57,20,719
5.11830,0.30747,-0.02695,0.00000,0.03257,0.97893,-0.17690,2023,6,8,14,57,20,731
5.11840,-0.09503,0.30555,0.00000,0.03501,0.97710,-0.17861,2023,6,8,14,57,20,742
5.11850,-0.07753,0.13055,0.00000,0.03087,0.97771,-0.17849,2023,6,8,14,57,20,753
5.11860,0.06248,-0.21945,0.00000,0.03245,0.97905,-0.17678,2023,6,8,14,57,20,764
5.11870,0.00997,0.23555,0.00000,0.03257,0.97844,-0.17946,2023,6,8,14,57,20,775
5.11880,0.23747,0.04305,0.00000,0.03257,0.97722,-0.17751,2023,6,8,14,57,20,786
5.11890,0.13247,0.00805,0.00000,0.03367,0.97929,-0.17897,2023,6,8,14,57,20,797
5.11900,0.11497,0.13055,0.00000,0.03074,0.97734,-0.17873,2023,6,8,14,57,20,808
5.11910,-0.02503,0.14805,0.00000,0.03233,0.97649,-0.17653,2023,6,8,14,57,20,819
5.11920,0.04497,-0.00945,0.00000,0.03416,0.97637,-0.17861,2023,6,8,14,57,20,831
5.11930,0.07997,0.07805,0.00000,0.03416,0.97649,-0.17580,2023,6,8,14,57,20,842
5.11940,0.07997,0.13055,0.00000,0.03501,0.97783,-0.17714,2023,6,8,14,57,20,853
5.11950,-0.11253,-0.02695,0.00000,0.03160,0.97820,-0.17727,2023,6,8,14,57,20,864
5.11960,-0.04252,0.16555,0.00000,0.03233,0.97832,-0.17836,2023,6,8,14,57,20,875
5.11970,0.00997,0.07805,0.00000,0.03306,0.97942,-0.17666,2023,6,8,14,57,20,886
5.11980,-0.11253,-0.06195,0.00000,0.03367,0.97807,-0.17727,2023,6,8,14,57,20,897
5.11990,0.00997,0.09555,0.00000,0.03318,0.97673,-0.17788,2023,6,8,14,57,20,908
5.12000,0.02747,-0.13195,0.00000,0.03196,0.97917,-0.18056,2023,6,8,14,57,20,919
5.12010,0.02747,0.14805,0.00000,0.03196,0.97734,-0.17824,2023,6,8,14,57,20,931
5.12020,0.02747,-0.27195,0.00000,0.03148,0.97698,-0.17617,2023,6,8,14,57,20,942
5.12030,0.09747,-0.04445,0.00000,0.03428,0.98100,-0.17666,2023,6,8,14,57,20,953
5.12040,-0.00753,-0.07945,0.00000,0.03270,0.97917,-0.17727,2023,6,8,14,57,20,964
5.12050,-0.06002,-0.00945,0.00000,0.03282,0.97661,-0.17727,2023,6,8,14,57,20,975
5.12060,0.20247,0.06055,0.00000,0.03501,0.97637,-0.17580,2023,6,8,14,57,20,986
5.12070,0.27248,-0.07945,0.00000,0.03343,0.97746,-0.17800,2023,6,8,14,57,20,997
5.12080,0.02747,0.00805,0.00000,0.03282,0.97698,-0.17763,2023,6,8,14,57,20,8
5.12090,0.14997,-0.21945,0.00000,0.03257,0.97637,-0.17775,2023,6,8,14,57,21,9
5.12100,0.18498,-0.00945,0.00000,0.03331,0.97820,-0.17678,2023,6,8,14,57,21,21
5.12110,-0.04252,-0.00945,0.00000,0.03379,0.97710,-0.17910,2023,6,8,14,57,21,32
5.12120,-0.02503,-0.04445,0.00000,0.03257,0.97795,-0.17788,2023,6,8,14,57,21,43
5.12130,-0.18253,0.14805,0.00000,0.03135,0.97868,-0.17971,2023,6,8,14,57,21,54
5.12140,-0.14752,-0.02695,0.00000,0.03318,0.97783,-0.17605,2023,6,8,14,57,21,65
5.12150,0.13247,-0.06195,0.00000,0.02977,0.97771,-0.17971,2023,6,8,14,57,21,76
5.12160,0.09747,-0.04445,0.00000,0.03123,0.97710,-0.17849,2023,6,8,14,57,21,87
5.12170,-0.07753,-0.09695,0.00000,0.03209,0.97978,-0.17739,2023,6,8,14,57,21,98
5.12180,0.18498,0.02555,0.00000,0.03404,0.97722,-0.17788,2023,6,8,14,57,21,109
5.12190,0.07997,-0.07945,0.00000,0.03440,0.97807,-0.17727,2023,6,8,14,57,21,121
5.12200,0.16748,-0.07945,0.00000,0.03416,0.97563,-0.17727,2023,6,8,14,57,21,132
5.12210,-0.14752,-0.11445,0.00000,0.03160,0.97441,-0.17641,2023,6,8,14,57,21,143
5.12220,-0.04252,0.16555,0.00000,0.03306,0.97856,-0.17836,2023,6,8,14,57,21,154
5.12230,-0.09503,0.00805,0.00000,0.03172,0.97661,-0.18032,2023,6,8,14,57,21,165
5.12240,0.02747,0.07805,0.00000,0.03074,0.97990,-0.18093,2023,6,8,14,57,21,176
5.12250,-0.14752,0.00805,0.00000,0.03123,0.97612,-0.17641,2023,6,8,14,57,21,187
5.12260,0.02747,-0.02695,0.00000,0.03196,0.97771,-0.17861,2023,6,8,14,57,21,198
5.12270,0.04497,-0.20195,0.00000,0.03270,0.97832,-0.17739,2023,6,8,14,57,21,209
5.12280,0.02747,-0.27195,0.00000,0.03306,0.97771,-0.17714,2023,6,8,14,57,21,221
5.12290,0.00997,0.02555,0.00000,0.03221,0.97673,-0.17775,2023,6,8,14,57,21,232
5.12300,0.13247,-0.07945,0.00000,0.03282,0.97759,-0.17763,2023,6,8,14,57,21,243
5.12310,-0.09503,-0.04445,0.00000,0.03440,0.97990,-0.17836,2023,6,8,14,57,21,254
5.12320,-0.04252,0.00805,0.00000,0.03026,0.97722,-0.17836,2023,6,8,14,57,21,265
5.12330,0.11497,0.16555,0.00000,0.03367,0.97807,-0.17922,2023,6,8,14,57,21,276
5.12340,0.09747,-0.16695,0.00000,0.03282,0.97698,-0.17605,2023,6,8,14,57,21,287
5.12350,-0.02503,0.13055,0.00000,0.03379,0.97783,-0.17922,2023,6,8,14,57,21,298
5.12360,0.04497,0.09555,0.00000,0.03453,0.97551,-0.17690,2023,6,8,14,57,21,309
5.12370,0.04497,-0.20195,0.00000,0.03026,0.97990,-0.17690,2023,6,8,14,57,21,321
5.12380,-0.02503,0.18305,0.00000,0.03453,0.97881,-0.17910,2023,6,8,14,57,21,332
5.12390,-0.04252,0.06055,0.00000,0.03355,0.97759,-0.17812,2023,6,8,14,57,21,343
5.12400,-0.02503,0.09555,0.00000,0.03392,0.97856,-0.17605,2023,6,8,14,57,21,354
5.12410,0.07997,0.04305,0.00000,0.03526,0.97722,-0.17873,2023,6,8,14,57,21,365
5.12420,-0.23503,0.07805,0.00000,0.03196,0.97576,-0.18019,2023,6,8,14,57,21,376
5.12430,0.09747,-0.06195,0.00000,0.03209,0.97881,-0.17751,2023,6,8,14,57,21,387
5.12440,-0.02503,0.06055,0.00000,0.03270,0.97868,-0.17873,2023,6,8,14,57,21,398
5.12450,-0.07753,0.16555,0.00000,0.03294,0.98015,-0.17885,2023,6,8,14,57,21,409
5.12460,-0.00753,-0.06195,0.00000,0.03367,0.98125,-0.17971,2023,6,8,14,57,21,421
5.12470,-0.13003,-0.13195,0.00000,0.03270,0.97783,-0.17727,2023,6,8,14,57,21,432
5.12480,0.14997,0.04305,0.00000,0.03233,0.97844,-0.17653,2023,6,8,14,57,21,443
5.12490,0.09747,-0.07945,0.00000,0.03038,0.97771,-0.17666,2023,6,8,14,57,21,454
5.12500,-0.11253,0.23555,0.00000,0.03294,0.97576,-0.17763,2023,6,8,14,57,21,465
5.12510,0.00997,-0.11445,0.00000,0.03111,0.97917,-0.18007,2023,6,8,14,57,21,476
5.12520,-0.13003,0.11305,0.00000,0.03587,0.97978,-0.17580,2023,6,8,14,57,21,487
5.12530,0.28998,-0.16695,0.00000,0.03270,0.97673,-0.17690,2023,6,8,14,57,21,498
5.12540,0.00997,0.11305,0.00000,0.03245,0.97746,-0.17873,2023,6,8,14,57,21,509
5.12550,-0.11253,-0.02695,0.00000,0.03172,0.97746,-0.18019,2023,6,8,14,57,21,521
5.12560,-0.13003,0.02555,0.00000,0.03209,0.97722,-0.18007,2023,6,8,14,57,21,532
5.12570,0.00997,0.07805,0.00000,0.03392,0.97783,-0.17849,2023,6,8,14,57,21,543
5.12580,0.14997,-0.00945,0.00000,0.03148,0.97685,-0.17983,2023,6,8,14,57,21,554
5.12590,-0.00753,0.07805,0.00000,0.03209,0.97868,-0.17800,2023,6,8,14,57,21,565
5.12600,0.09747,0.09555,0.00000,0.03209,0.97795,-0.17897,2023,6,8,14,57,21,576
5.12610,-0.13003,0.21805,0.00000,0.03440,0.97612,-0.17629,2023,6,8,14,57,21,587
5.12620,-0.09503,0.00805,0.00000,0.03282,0.97502,-0.17971,2023,6,8,14,57,21,598
5.12630,0.06248,-0.28945,0.00000,0.03343,0.97832,-0.17812,2023,6,8,14,57,21,609
5.12640,0.13247,-0.21945,0.00000,0.03148,0.97771,-0.17751,2023,6,8,14,57,21,621
5.12650,0.06248,0.09555,0.00000,0.03428,0.97893,-0.17788,2023,6,8,14,57,21,632
5.12660,-0.00753,-0.00945,0.00000,0.03160,0.97759,-0.17897,2023,6,8,14,57,21,643
5.12670,-0.14752,0.00805,0.00000,0.03245,0.97710,-0.17763,2023,6,8,14,57,21,654
5.12680,0.00997,-0.07945,0.00000,0.03257,0.97978,-0.17922,2023,6,8,14,57,21,665
5.12690,0.16748,-0.18445,0.00000,0.03148,0.97637,-0.17788,2023,6,8,14,57,21,676
5.12700,-0.09503,0.07805,0.00000,0.03318,0.97722,-0.17958,2023,6,8,14,57,21,687
5.12710,-0.00753,-0.16695,0.00000,0.03148,0.97795,-0.17788,2023,6,8,14,57,21,698
5.12720,0.13247,0.04305,0.00000,0.03318,0.97759,-0.17873,2023,6,8,14,57,21,709
5.12730,-0.06002,0.14805,0.00000,0.03209,0.97722,-0.17824,2023,6,8,14,57,21,721
5.12740,-0.06002,0.07805,0.00000,0.03123,0.97600,-0.17946,2023,6,8,14,57,21,732
5.12750,-0.14752,0.07805,0.00000,0.03294,0.97807,-0.18007,2023,6,8,14,57,21,743
5.12760,-0.00753,0.20055,0.00000,0.03440,0.97795,-0.17788,2023,6,8,14,57,21,754
5.12770,0.06248,-0.02695,0.00000,0.03221,0.97783,-0.17739,2023,6,8,14,57,21,765
5.12780,-0.04252,-0.00945,0.00000,0.03270,0.97759,-0.17873,2023,6,8,14,57,21,776
5.12790,0.07997,0.06055,0.00000,0.03587,0.97661,-0.17861,2023,6,8,14,57,21,787
5.12800,0.07997,-0.06195,0.00000,0.03184,0.97649,-0.17690,2023,6,8,14,57,21,798
5.12810,0.02747,0.04305,0.00000,0.03355,0.97783,-0.17922,2023,6,8,14,57,21,809
5.12820,-0.04252,-0.02695,0.00000,0.03233,0.97771,-0.17885,2023,6,8,14,57,21,821
5.12830,0.11497,0.02555,0.00000,0.03233,0.97759,-0.17897,2023,6,8,14,57,21,832
5.12840,-0.04252,-0.13195,0.00000,0.03160,0.97832,-0.17653,2023,6,8,14,57,21,843
5.12850,0.18498,-0.00945,0.00000,0.03135,0.97649,-0.17763,2023,6,8,14,57,21,854
5.12860,-0.04252,-0.23695,0.00000,0.03343,0.97832,-0.17946,2023,6,8,14,57,21,865
5.12870,-0.04252,0.02555,0.00000,0.03148,0.97466,-0.17983,2023,6,8,14,57,21,876
5.12880,-0.20003,0.02555,0.00000,0.03440,0.97734,-0.17849,2023,6,8,14,57,21,887
5.12890,0.20247,0.14805,0.00000,0.03270,0.97673,-0.17727,2023,6,8,14,57,21,898
5.12900,0.04497,0.07805,0.00000,0.03233,0.97893,-0.17885,2023,6,8,14,57,21,909
5.12910,0.04497,0.02555,0.00000,0.03062,0.97783,-0.17824,2023,6,8,14,57,21,921
5.12920,0.11497,-0.13195,0.00000,0.03282,0.97832,-0.17873,2023,6,8,14,57,21,932
5.12930,-0.02503,-0.07945,0.00000,0.03135,0.97820,-0.17922,2023,6,8,14,57,21,943
5.12940,0.04497,-0.04445,0.00000,0.03282,0.97624,-0.17739,2023,6,8,14,57,21,954
5.12950,0.11497,-0.02695,0.00000,0.03465,0.97600,-0.17910,2023,6,8,14,57,21,965
5.12960,0.04497,-0.07945,0.00000,0.03160,0.97649,-0.18068,2023,6,8,14,57,21,976
5.12970,0.04497,-0.04445,0.00000,0.03355,0.97783,-0.17995,2023,6,8,14,57,21,987
5.12980,0.00997,0.07805,0.00000,0.03196,0.97759,-0.18044,2023,6,8,14,57,22,8
5.12990,0.02747,0.18305,0.00000,0.03221,0.97820,-0.17873,2023,6,8,14,57,22,19
5.13000,0.00997,0.00805,0.00000,0.03184,0.97685,-0.17971,2023,6,8,14,57,22,31
5.13010,0.02747,0.11305,0.00000,0.03074,0.97759,-0.18032,2023,6,8,14,57,22,42
5.13020,-0.06002,0.00805,0.00000,0.03270,0.97771,-0.18068,2023,6,8,14,57,22,53
5.13030,0.18498,-0.11445,0.00000,0.03184,0.97637,-0.17824,2023,6,8,14,57,22,64
5.13040,0.14997,0.00805,0.00000,0.03404,0.97649,-0.17897,2023,6,8,14,57,22,75
5.13050,0.00997,0.11305,0.00000,0.03135,0.97783,-0.17812,2023,6,8,14,57,22,86
5.13060,-0.04252,-0.23695,0.00000,0.03306,0.97820,-0.17751,2023,6,8,14,57,22,97
5.13070,-0.02503,-0.23695,0.00000,0.03257,0.97759,-0.17910,2023,6,8,14,57,22,108
5.13080,0.04497,0.09555,0.00000,0.03196,0.97551,-0.17861,2023,6,8,14,57,22,119
5.13090,-0.00753,-0.11445,0.00000,0.03160,0.97649,-0.17873,2023,6,8,14,57,22,131
5.13100,-0.09503,0.11305,0.00000,0.03318,0.97783,-0.17617,2023,6,8,14,57,22,142
5.13110,0.04497,-0.18445,0.00000,0.03282,0.97893,-0.17751,2023,6,8,14,57,22,153
5.13120,0.04497,-0.02695,0.00000,0.03562,0.97698,-0.17763,2023,6,8,14,57,22,164
5.13130,-0.20003,0.14805,0.00000,0.03294,0.97612,-0.17873,2023,6,8,14,57,22,175
5.13140,-0.06002,0.07805,0.00000,0.03257,0.97844,-0.17910,2023,6,8,14,57,22,186
5.13150,-0.00753,0.20055,0.00000,0.03233,0.97576,-0.17751,2023,6,8,14,57,22,197
5.13160,0.09747,0.02555,0.00000,0.03172,0.97673,-0.17727,2023,6,8,14,57,22,208
5.13170,-0.00753,0.11305,0.00000,0.03148,0.97698,-0.17812,2023,6,8,14,57,22,219
5.13180,-0.18253,0.09555,0.00000,0.03306,0.97893,-0.17775,2023,6,8,14,57,22,231
5.13190,-0.07753,0.21805,0.00000,0.03318,0.97624,-0.17824,2023,6,8,14,57,22,242
5.13200,0.11497,-0.09695,0.00000,0.03245,0.97698,-0.17861,2023,6,8,14,57,22,253
5.13210,-0.09503,0.11305,0.00000,0.03160,0.97771,-0.17836,2023,6,8,14,57,22,264
5.13220,-0.00753,0.07805,0.00000,0.03477,0.98051,-0.18019,2023,6,8,14,57,22,275
5.13230,-0.04252,-0.07945,0.00000,0.03123,0.97624,-0.18032,2023,6,8,14,57,22,286
5.13240,0.02747,0.11305,0.00000,0.03257,0.97759,-0.17861,2023,6,8,14,57,22,297
5.13250,-0.06002,0.02555,0.00000,0.03416,0.97600,-0.17861,2023,6,8,14,57,22,308
5.13260,-0.02503,0.20055,0.00000,0.03221,0.98112,-0.17946,2023,6,8,14,57,22,319
5.13270,-0.04252,0.11305,0.00000,0.03306,0.97551,-0.17641,2023,6,8,14,57,22,331
5.13280,0.04497,0.07805,0.00000,0.03196,0.97673,-0.18019,2023,6,8,14,57,22,342
5.13290,-0.06002,-0.02695,0.00000,0.03172,0.97844,-0.17775,2023,6,8,14,57,22,353
5.13300,-0.00753,-0.06195,0.00000,0.03160,0.97624,-0.17470,2023,6,8,14,57,22,364
5.13310,-0.04252,-0.11445,0.00000,0.03440,0.97856,-0.17775,2023,6,8,14,57,22,375
5.13320,0.11497,-0.06195,0.00000,0.03379,0.97820,-0.17605,2023,6,8,14,57,22,386
5.13330,0.09747,-0.04445,0.00000,0.03233,0.97759,-0.17800,2023,6,8,14,57,22,397
5.13340,0.20247,-0.14945,0.00000,0.03270,0.97710,-0.17751,2023,6,8,14,57,22,408
5.13350,0.11497,-0.07945,0.00000,0.03196,0.97698,-0.17507,2023,6,8,14,57,22,419
5.13360,-0.04252,-0.11445,0.00000,0.03184,0.97612,-0.17910,2023,6,8,14,57,22,431
5.13370,-0.13003,-0.00945,0.00000,0.03367,0.98039,-0.17897,2023,6,8,14,57,22,442
5.13380,-0.02503,0.04305,0.00000,0.03489,0.97966,-0.17885,2023,6,8,14,57,22,453
5.13390,0.06248,-0.14945,0.00000,0.03172,0.97771,-0.17690,2023,6,8,14,57,22,464
5.13400,-0.09503,0.00805,0.00000,0.03233,0.97917,-0.17727,2023,6,8,14,57,22,475
5.13410,0.20247,-0.02695,0.00000,0.03245,0.97734,-0.17714,2023,6,8,14,57,22,486
5.13420,-0.07753,0.09555,0.00000,0.03209,0.97710,-0.17519,2023,6,8,14,57,22,497
5.13430,0.02747,-0.06195,0.00000,0.03404,0.97795,-0.17702,2023,6,8,14,57,22,508
5.13440,-0.14752,-0.06195,0.00000,0.03514,0.97783,-0.17763,2023,6,8,14,57,22,519
5.13450,-0.11253,0.11305,0.00000,0.03501,0.97807,-0.17824,2023,6,8,14,57,22,531
5.13460,0.07997,0.07805,0.00000,0.03172,0.97563,-0.18068,2023,6,8,14,57,22,542
5.13470,0.07997,-0.00945,0.00000,0.03209,0.97673,-0.17983,2023,6,8,14,57,22,553
5.13480,-0.06002,0.11305,0.00000,0.03172,0.97820,-0.17653,2023,6,8,14,57,22,564
5.13490,0.21997,-0.06195,0.00000,0.03257,0.97868,-0.17629,2023,6,8,14,57,22,575
5.13500,0.16748,0.00805,0.00000,0.03099,0.97673,-0.17824,2023,6,8,14,57,22,586
5.13510,0.00997,0.04305,0.00000,0.03270,0.97990,-0.17617,2023,6,8,14,57,22,597
5.13520,-0.14752,0.07805,0.00000,0.03184,0.97820,-0.18032,2023,6,8,14,57,22,608
5.13530,-0.09503,0.14805,0.00000,0.03245,0.97551,-0.17629,2023,6,8,14,57,22,619
5.13540,0.00997,0.04305,0.00000,0.03465,0.97624,-0.17788,2023,6,8,14,57,22,631
5.13550,0.14997,0.04305,0.00000,0.03331,0.97795,-0.17836,2023,6,8,14,57,22,642
5.13560,0.00997,0.07805,0.00000,0.03306,0.97807,-0.17824,2023,6,8,14,57,22,653
5.13570,0.20247,-0.11445,0.00000,0.03184,0.97771,-0.17934,2023,6,8,14,57,22,664
5.13580,0.04497,0.16555,0.00000,0.03428,0.97917,-0.17556,2023,6,8,14,57,22,675
5.13590,0.30747,0.06055,0.00000,0.03257,0.97698,-0.17946,2023,6,8,14,57,22,686
5.13600,-0.04252,0.02555,0.00000,0.03160,0.97759,-0.17775,2023,6,8,14,57,22,697
5.13610,0.04497,0.00805,0.00000,0.03196,0.97881,-0.17971,2023,6,8,14,57,22,708
5.13620,0.06248,0.16555,0.00000,0.03331,0.97722,-0.17910,2023,6,8,14,57,22,719
5.13630,0.00997,-0.21945,0.00000,0.03392,0.97820,-0.17971,2023,6,8,14,57,22,731
5.13640,0.11497,-0.07945,0.00000,0.03392,0.97942,-0.17885,2023,6,8,14,57,22,742
5.13650,0.06248,0.06055,0.00000,0.03184,0.97722,-0.17775,2023,6,8,14,57,22,753
5.13660,-0.06002,-0.13195,0.00000,0.03282,0.97771,-0.17922,2023,6,8,14,57,22,764
5.13670,0.23747,-0.09695,0.00000,0.03465,0.97539,-0.17910,2023,6,8,14,57,22,775
5.13680,0.02747,0.07805,0.00000,0.03196,0.97637,-0.17897,2023,6,8,14,57,22,786
5.13690,0.14997,-0.04445,0.00000,0.03440,0.97746,-0.17739,2023,6,8,14,57,22,797
5.13700,-0.06002,0.02555,0.00000,0.03343,0.97820,-0.17910,2023,6,8,14,57,22,808
5.13710,-0.18253,0.06055,0.00000,0.03379,0.97685,-0.17727,2023,6,8,14,57,22,819
5.13720,0.06248,-0.06195,0.00000,0.03306,0.97807,-0.17861,2023,6,8,14,57,22,831
5.13730,0.09747,0.14805,0.00000,0.03318,0.97795,-0.17861,2023,6,8,14,57,22,842
5.13740,-0.18253,0.02555,0.00000,0.03074,0.97734,-0.17751,2023,6,8,14,57,22,853
5.13750,0.11497,0.09555,0.00000,0.03367,0.97759,-0.17812,2023,6,8,14,57,22,864
5.13760,0.13247,0.00805,0.00000,0.03196,0.97637,-0.17922,2023,6,8,14,57,22,875
5.13770,0.06248,0.02555,0.00000,0.03148,0.97673,-0.17849,2023,6,8,14,57,22,886
5.13780,-0.07753,0.09555,0.00000,0.03306,0.97917,-0.18068,2023,6,8,14,57,22,897
5.13790,-0.00753,-0.16695,0.00000,0.03148,0.97881,-0.17971,2023,6,8,14,57,22,908
5.13800,0.04497,0.02555,0.00000,0.03160,0.97649,-0.18032,2023,6,8,14,57,22,919
5.13810,0.00997,0.13055,0.00000,0.03355,0.97600,-0.17873,2023,6,8,14,57,22,931
5.13820,0.00997,0.02555,0.00000,0.03282,0.97746,-0.18141,2023,6,8,14,57,22,942
5.13830,0.07997,0.13055,0.00000,0.03416,0.97746,-0.17775,2023,6,8,14,57,22,953
5.13840,0.18498,-0.04445,0.00000,0.03343,0.97661,-0.17983,2023,6,8,14,57,22,964
5.13850,-0.18253,-0.00945,0.00000,0.03282,0.97771,-0.17800,2023,6,8,14,57,22,975
5.13860,-0.11253,0.04305,0.00000,0.03282,0.97722,-0.17763,2023,6,8,14,57,22,986
5.13870,-0.02503,-0.07945,0.00000,0.03526,0.97990,-0.17934,2023,6,8,14,57,22,997
5.13880,0.00997,-0.00945,0.00000,0.03416,0.97685,-0.17714,2023,6,8,14,57,23,8
5.13890,0.14997,-0.00945,0.00000,0.03392,0.97990,-0.18178,2023,6,8,14,57,23,19
5.13900,0.06248,0.06055,0.00000,0.03111,0.97905,-0.18166,2023,6,8,14,57,23,31
5.13910,-0.06002,0.06055,0.00000,0.03209,0.97759,-0.17873,2023,6,8,14,57,23,42
5.13920,0.13247,-0.02695,0.00000,0.03526,0.97710,-0.17775,2023,6,8,14,57,23,53
5.13930,-0.02503,-0.13195,0.00000,0.03196,0.97917,-0.17678,2023,6,8,14,57,23,64
5.13940,-0.09503,0.18305,0.00000,0.03160,0.97868,-0.17617,2023,6,8,14,57,23,75
5.13950,0.07997,0.04305,0.00000,0.03428,0.97722,-0.17690,2023,6,8,14,57,23,86
5.13960,-0.06002,0.07805,0.00000,0.03318,0.97759,-0.17678,2023,6,8,14,57,23,97
5.13970,-0.00753,-0.04445,0.00000,0.03465,0.97978,-0.17983,2023,6,8,14,57,23,108
5.13980,-0.18253,0.07805,0.00000,0.03209,0.97673,-0.17946,2023,6,8,14,57,23,119
5.13990,0.14997,-0.11445,0.00000,0.03306,0.97856,-0.17958,2023,6,8,14,57,23,131
5.14000,0.00997,0.06055,0.00000,0.03257,0.97759,-0.18056,2023,6,8,14,57,23,142
5.14010,0.07997,-0.09695,0.00000,0.03294,0.97820,-0.17873,2023,6,8,14,57,23,153
5.14020,-0.13003,0.18305,0.00000,0.03209,0.97771,-0.17885,2023,6,8,14,57,23,164
5.14030,-0.14752,0.02555,0.00000,0.03196,0.97844,-0.17751,2023,6,8,14,57,23,175
5.14040,0.13247,-0.04445,0.00000,0.03172,0.97710,-0.17897,2023,6,8,14,57,23,186
5.14050,-0.09503,-0.28945,0.00000,0.03099,0.97637,-0.17836,2023,6,8,14,57,23,197
5.14060,-0.13003,0.11305,0.00000,0.03428,0.97673,-0.18190,2023,6,8,14,57,23,208
5.14070,0.00997,0.00805,0.00000,0.03245,0.97673,-0.18007,2023,6,8,14,57,23,219
5.14080,0.27248,0.11305,0.00000,0.03550,0.98003,-0.17849,2023,6,8,14,57,23,231
5.14090,0.14997,-0.11445,0.00000,0.03257,0.97759,-0.17629,2023,6,8,14,57,23,242
5.14100,0.14997,-0.04445,0.00000,0.03245,0.97746,-0.17812,2023,6,8,14,57,23,253
5.14110,0.27248,-0.16695,0.00000,0.02782,0.97624,-0.17873,2023,6,8,14,57,23,264
5.14120,-0.02503,-0.11445,0.00000,0.03111,0.97844,-0.17885,2023,6,8,14,57,23,275
5.14130,0.07997,-0.11445,0.00000,0.03343,0.97551,-0.17617,2023,6,8,14,57,23,286
5.14140,-0.07753,-0.13195,0.00000,0.03562,0.97990,-0.17641,2023,6,8,14,57,23,297
5.14150,0.13247,-0.09695,0.00000,0.03209,0.97783,-0.17873,2023,6,8,14,57,23,308
5.14160,-0.07753,-0.11445,0.00000,0.03038,0.97649,-0.17983,2023,6,8,14,57,23,319
5.14170,0.23747,0.11305,0.00000,0.03257,0.97612,-0.17800,2023,6,8,14,57,23,331
5.14180,-0.09503,-0.09695,0.00000,0.03233,0.97771,-0.17824,2023,6,8,14,57,23,342
5.14190,0.11497,-0.07945,0.00000,0.03221,0.97771,-0.17861,2023,6,8,14,57,23,353
5.14200,-0.13003,-0.11445,0.00000,0.03099,0.98003,-0.17629,2023,6,8,14,57,23,364
5.14210,0.09747,0.00805,0.00000,0.03135,0.97832,-0.17763,2023,6,8,14,57,23,375
5.14220,0.04497,-0.07945,0.00000,0.03087,0.97527,-0.17727,2023,6,8,14,57,23,386
5.14230,0.16748,-0.18445,0.00000,0.03404,0.97734,-0.18300,2023,6,8,14,57,23,397
5.14240,0.18498,-0.07945,0.00000,0.03196,0.97734,-0.17812,2023,6,8,14,57,23,408
5.14250,-0.06002,-0.14945,0.00000,0.03465,0.97893,-0.17641,2023,6,8,14,57,23,419
5.14260,-0.09503,0.04305,0.00000,0.03221,0.97844,-0.17690,2023,6,8,14,57,23,431
5.14270,-0.02503,0.06055,0.00000,0.03257,0.97661,-0.17739,2023,6,8,14,57,23,442
5.14280,0.02747,-0.09695,0.00000,0.03196,0.97795,-0.17849,2023,6,8,14,57,23,453
5.14290,-0.09503,0.02555,0.00000,0.03367,0.97746,-0.18202,2023,6,8,14,57,23,464
5.14300,0.09747,-0.04445,0.00000,0.03440,0.97820,-0.17897,2023,6,8,14,57,23,475
5.14310,0.04497,0.02555,0.00000,0.03526,0.97832,-0.17873,2023,6,8,14,57,23,486
5.14320,-0.02503,-0.20195,0.00000,0.03233,0.97868,-0.17873,2023,6,8,14,57,23,497
5.14330,-0.04252,-0.28945,0.00000,0.03367,0.97563,-0.17910,2023,6,8,14,57,23,508
5.14340,-0.02503,-0.06195,0.00000,0.03367,0.97685,-0.17897,2023,6,8,14,57,23,519
5.14350,0.06248,-0.00945,0.00000,0.03233,0.97624,-0.17800,2023,6,8,14,57,23,531
5.14360,0.07997,-0.09695,0.00000,0.03135,0.97990,-0.17605,2023,6,8,14,57,23,542
5.14370,0.06248,0.04305,0.00000,0.03318,0.97746,-0.17666,2023,6,8,14,57,23,553
5.14380,0.02747,0.09555,0.00000,0.03367,0.97759,-0.17836,2023,6,8,14,57,23,564
5.14390,-0.00753,0.11305,0.00000,0.03331,0.97881,-0.17836,2023,6,8,14,57,23,575
5.14400,-0.00753,-0.14945,0.00000,0.03184,0.97710,-0.18044,2023,6,8,14,57,23,586
5.14410,-0.06002,0.04305,0.00000,0.03440,0.97637,-0.17861,2023,6,8,14,57,23,597
5.14420,-0.04252,0.20055,0.00000,0.03209,0.97661,-0.17690,2023,6,8,14,57,23,608
5.14430,0.11497,0.20055,0.00000,0.03123,0.97576,-0.17861,2023,6,8,14,57,23,619
5.14440,-0.00753,0.11305,0.00000,0.03209,0.97685,-0.17641,2023,6,8,14,57,23,631
5.14450,0.13247,-0.14945,0.00000,0.03294,0.97710,-0.17873,2023,6,8,14,57,23,642
5.14460,-0.11253,0.00805,0.00000,0.03294,0.97844,-0.18007,2023,6,8,14,57,23,653
5.14470,-0.00753,-0.04445,0.00000,0.03514,0.97856,-0.17739,2023,6,8,14,57,23,664
5.14480,-0.09503,0.06055,0.00000,0.03282,0.97710,-0.17836,2023,6,8,14,57,23,675
5.14490,-0.14752,-0.07945,0.00000,0.03343,0.97795,-0.17653,2023,6,8,14,57,23,686
5.14500,0.04497,-0.02695,0.00000,0.03562,0.97771,-0.17580,2023,6,8,14,57,23,697
5.14510,0.02747,0.07805,0.00000,0.03331,0.97710,-0.17897,2023,6,8,14,57,23,708
5.14520,0.09747,-0.16695,0.00000,0.03160,0.97820,-0.17995,2023,6,8,14,57,23,719
5.14530,-0.06002,0.02555,0.00000,0.03196,0.97832,-0.17751,2023,6,8,14,57,23,731
5.14540,0.06248,-0.23695,0.00000,0.03465,0.97771,-0.17763,2023,6,8,14,57,23,742
5.14550,-0.16502,0.20055,0.00000,0.03245,0.97783,-0.17958,2023,6,8,14,57,23,753
5.14560,0.04497,0.14805,0.00000,0.03270,0.97466,-0.17727,2023,6,8,14,57,23,764
5.14570,0.06248,-0.02695,0.00000,0.03379,0.97673,-0.17934,2023,6,8,14,57,23,775
5.14580,0.00997,0.02555,0.00000,0.03318,0.97685,-0.17702,2023,6,8,14,57,23,786
5.14590,-0.00753,-0.06195,0.00000,0.03306,0.97722,-0.17714,2023,6,8,14,57,23,797
5.14600,-0.02503,0.02555,0.00000,0.03343,0.97746,-0.17812,2023,6,8,14,57,23,808
5.14610,0.11497,-0.06195,0.00000,0.03196,0.97734,-0.17775,2023,6,8,14,57,23,819
5.14620,0.18498,0.09555,0.00000,0.03465,0.97929,-0.17824,2023,6,8,14,57,23,831
5.14630,-0.07753,0.00805,0.00000,0.03428,0.97759,-0.17824,2023,6,8,14,57,23,842
5.14640,0.04497,0.09555,0.00000,0.03453,0.97795,-0.17910,2023,6,8,14,57,23,853
5.14650,0.09747,-0.09695,0.00000,0.03477,0.97832,-0.18044,2023,6,8,14,57,23,864
5.14660,-0.04252,-0.11445,0.00000,0.03465,0.97966,-0.17849,2023,6,8,14,57,23,875
5.14670,0.06248,-0.14945,0.00000,0.03453,0.97710,-0.17958,2023,6,8,14,57,23,886
5.14680,-0.09503,0.16555,0.00000,0.03148,0.97527,-0.17897,2023,6,8,14,57,23,897
5.14690,0.16748,0.07805,0.00000,0.03282,0.97734,-0.17775,2023,6,8,14,57,23,908
5.14700,0.07997,0.14805,0.00000,0.03074,0.97710,-0.17788,2023,6,8,14,57,23,919
5.14710,-0.04252,-0.06195,0.00000,0.03306,0.97588,-0.17739,2023,6,8,14,57,23,931
5.14720,-0.04252,0.07805,0.00000,0.03209,0.98088,-0.17580,2023,6,8,14,57,23,942
5.14730,-0.14752,0.16555,0.00000,0.03318,0.97759,-0.17666,2023,6,8,14,57,23,953
5.14740,-0.06002,-0.20195,0.00000,0.03343,0.97783,-0.17800,2023,6,8,14,57,23,964
5.14750,0.00997,-0.07945,0.00000,0.03282,0.97783,-0.17739,2023,6,8,14,57,23,975
5.14760,0.09747,-0.13195,0.00000,0.03331,0.97771,-0.17922,2023,6,8,14,57,23,986
5.14770,-0.02503,-0.09695,0.00000,0.03087,0.97844,-0.17751,2023,6,8,14,57,23,997
5.14780,-0.13003,0.16555,0.00000,0.03257,0.97917,-0.17958,2023,6,8,14,57,24,8
5.14790,0.02747,0.11305,0.00000,0.03392,0.97807,-0.17775,2023,6,8,14,57,24,19
5.14800,-0.16502,-0.00945,0.00000,0.03172,0.97710,-0.17763,2023,6,8,14,57,24,31
5.14810,0.00997,-0.04445,0.00000,0.03160,0.97820,-0.17775,2023,6,8,14,57,24,42
5.14820,0.06248,-0.06195,0.00000,0.03392,0.97344,-0.17763,2023,6,8,14,57,24,53
5.14830,-0.11253,-0.00945,0.00000,0.03099,0.97868,-0.17544,2023,6,8,14,57,24,64
5.14840,-0.07753,-0.02695,0.00000,0.03379,0.97893,-0.17788,2023,6,8,14,57,24,75
5.14850,0.13247,0.04305,0.00000,0.03160,0.97478,-0.17690,2023,6,8,14,57,24,86
5.14860,0.09747,0.02555,0.00000,0.03245,0.97881,-0.17483,2023,6,8,14,57,24,97
5.14870,0.11497,0.02555,0.00000,0.03270,0.97624,-0.17910,2023,6,8,14,57,24,108
5.14880,0.00997,0.13055,0.00000,0.03038,0.97673,-0.17702,2023,6,8,14,57,24,119
5.14890,0.00997,0.06055,0.00000,0.03257,0.97710,-0.17751,2023,6,8,14,57,24,131
5.14900,0.09747,-0.11445,0.00000,0.03233,0.97515,-0.17568,2023,6,8,14,57,24,142
5.14910,-0.00753,0.00805,0.00000,0.03257,0.97673,-0.17678,2023,6,8,14,57,24,153
5.14920,0.14997,-0.11445,0.00000,0.03099,0.97698,-0.17812,2023,6,8,14,57,24,164
5.14930,0.00997,-0.02695,0.00000,0.03416,0.97673,-0.17836,2023,6,8,14,57,24,175
5.14940,-0.14752,-0.13195,0.00000,0.03135,0.97710,-0.17788,2023,6,8,14,57,24,186
5.14950,0.09747,0.04305,0.00000,0.03123,0.97917,-0.17690,2023,6,8,14,57,24,197
5.14960,0.06248,-0.06195,0.00000,0.03282,0.97990,-0.17653,2023,6,8,14,57,24,208
5.14970,-0.02503,-0.11445,0.00000,0.03306,0.97978,-0.17861,2023,6,8,14,57,24,219
5.14980,-0.11253,-0.09695,0.00000,0.03587,0.97966,-0.17983,2023,6,8,14,57,24,231
5.14990,-0.06002,0.04305,0.00000,0.03209,0.97759,-0.17568,2023,6,8,14,57,24,242
5.15000,0.00997,0.06055,0.00000,0.03172,0.97685,-0.17629,2023,6,8,14,57,24,253
5.15010,-0.07753,0.09555,0.00000,0.03416,0.97783,-0.17812,2023,6,8,14,57,24,264
5.15020,0.09747,-0.04445,0.00000,0.03026,0.97771,-0.17873,2023,6,8,14,57,24,275
5.15030,-0.02503,-0.07945,0.00000,0.03355,0.97820,-0.17910,2023,6,8,14,57,24,286
5.15040,-0.14752,-0.14945,0.00000,0.03282,0.97600,-0.17861,2023,6,8,14,57,24,297
5.15050,-0.00753,-0.06195,0.00000,0.03148,0.97856,-0.17922,2023,6,8,14,57,24,308
5.15060,0.07997,-0.14945,0.00000,0.03221,0.97661,-0.17788,2023,6,8,14,57,24,319
5.15070,-0.11253,0.11305,0.00000,0.03355,0.97551,-0.17605,2023,6,8,14,57,24,331
5.15080,0.09747,0.00805,0.00000,0.03257,0.97856,-0.17958,2023,6,8,14,57,24,342
5.15090,-0.18253,0.18305,0.00000,0.03367,0.97856,-0.18068,2023,6,8,14,57,24,353
5.15100,0.02747,0.06055,0.00000,0.03367,0.97612,-0.17714,2023,6,8,14,57,24,364
5.15110,0.04497,-0.02695,0.00000,0.03184,0.97771,-0.17983,2023,6,8,14,57,24,375
5.15120,-0.06002,0.09555,0.00000,0.03404,0.97612,-0.17885,2023,6,8,14,57,24,386
5.15130,-0.07753,-0.00945,0.00000,0.03331,0.97685,-0.17910,2023,6,8,14,57,24,397
5.15140,-0.04252,-0.07945,0.00000,0.03367,0.97673,-0.17775,2023,6,8,14,57,24,408
5.15150,0.00997,0.04305,0.00000,0.03501,0.97698,-0.17690,2023,6,8,14,57,24,419
5.15160,0.13247,-0.14945,0.00000,0.03038,0.97783,-0.17763,2023,6,8,14,57,24,431
5.15170,0.09747,0.07805,0.00000,0.03184,0.97649,-0.17812,2023,6,8,14,57,24,442
5.15180,-0.06002,0.06055,0.00000,0.03282,0.97734,-0.17678,2023,6,8,14,57,24,453
5.15190,-0.07753,0.14805,0.00000,0.03379,0.97783,-0.17946,2023,6,8,14,57,24,464
5.15200,0.06248,-0.14945,0.00000,0.03233,0.98003,-0.17800,2023,6,8,14,57,24,475
5.15210,0.02747,-0.02695,0.00000,0.03440,0.97539,-0.17812,2023,6,8,14,57,24,486
5.15220,0.13247,-0.02695,0.00000,0.03184,0.97795,-0.17873,2023,6,8,14,57,24,497
5.15230,-0.02503,0.07805,0.00000,0.03160,0.97466,-0.17812,2023,6,8,14,57,24,508
5.15240,0.04497,-0.11445,0.00000,0.03257,0.97612,-0.17690,2023,6,8,14,57,24,519
5.15250,-0.14752,0.00805,0.00000,0.03282,0.97856,-0.17763,2023,6,8,14,57,24,531
5.15260,0.09747,-0.02695,0.00000,0.03428,0.97795,-0.17983,2023,6,8,14,57,24,542
5.15270,0.02747,-0.09695,0.00000,0.03416,0.97698,-0.17739,2023,6,8,14,57,24,553
5.15280,-0.02503,-0.11445,0.00000,0.03367,0.97771,-0.17873,2023,6,8,14,57,24,564
5.15290,-0.13003,0.09555,0.00000,0.03074,0.97466,-0.18019,2023,6,8,14,57,24,575
5.15300,0.07997,0.20055,0.00000,0.03294,0.97734,-0.17885,2023,6,8,14,57,24,586
5.15310,0.04497,0.11305,0.00000,0.03367,0.97868,-0.18019,2023,6,8,14,57,24,597
5.15320,-0.06002,0.04305,0.00000,0.03538,0.97881,-0.17861,2023,6,8,14,57,24,608
5.15330,0.00997,0.09555,0.00000,0.03172,0.97515,-0.17873,2023,6,8,14,57,24,619
5.15340,0.04497,-0.06195,0.00000,0.03221,0.97649,-0.17849,2023,6,8,14,57,24,631
5.15350,0.13247,0.04305,0.00000,0.03306,0.97661,-0.17873,2023,6,8,14,57,24,642
5.15360,0.04497,0.07805,0.00000,0.03306,0.97685,-0.17739,2023,6,8,14,57,24,653
5.15370,0.11497,-0.07945,0.00000,0.03306,0.97649,-0.17946,2023,6,8,14,57,24,664
5.15380,-0.18253,-0.06195,0.00000,0.03428,0.97551,-0.17910,2023,6,8,14,57,24,675
5.15390,-0.07753,0.06055,0.00000,0.03270,0.97881,-0.17897,2023,6,8,14,57,24,686
5.15400,0.11497,-0.00945,0.00000,0.03404,0.97502,-0.17727,2023,6,8,14,57,24,697
5.15410,0.02747,0.21805,0.00000,0.03294,0.97563,-0.17495,2023,6,8,14,57,24,708
5.15420,-0.11253,0.07805,0.00000,0.03135,0.97990,-0.17751,2023,6,8,14,57,24,719
5.15430,-0.06002,0.13055,0.00000,0.03453,0.97637,-0.17751,2023,6,8,14,57,24,731
5.15440,0.07997,-0.06195,0.00000,0.03172,0.97649,-0.17653,2023,6,8,14,57,24,742
5.15450,-0.07753,0.07805,0.00000,0.03367,0.97673,-0.17641,2023,6,8,14,57,24,753
5.15460,0.11497,-0.27195,0.00000,0.03343,0.97673,-0.17763,2023,6,8,14,57,24,764
5.15470,0.14997,0.07805,0.00000,0.03221,0.98015,-0.17678,2023,6,8,14,57,24,775
5.15480,-0.00753,0.04305,0.00000,0.03282,0.97759,-0.17788,2023,6,8,14,57,24,786
5.15490,0.04497,0.11305,0.00000,0.03184,0.97820,-0.17836,2023,6,8,14,57,24,797
5.15500,0.09747,-0.11445,0.00000,0.03477,0.97954,-0.17788,2023,6,8,14,57,24,808
5.15510,0.30747,0.00805,0.00000,0.03245,0.97722,-0.18056,2023,6,8,14,57,24,819
5.15520,0.07997,-0.11445,0.00000,0.03282,0.97685,-0.17971,2023,6,8,14,57,24,831
5.15530,-0.00753,-0.21945,0.00000,0.03367,0.97734,-0.17934,2023,6,8,14,57,24,842
5.15540,-0.16502,0.13055,0.00000,0.03245,0.97637,-0.17483,2023,6,8,14,57,24,853
5.15550,0.04497,0.00805,0.00000,0.03404,0.97771,-0.17812,2023,6,8,14,57,24,864
5.15560,0.02747,0.07805,0.00000,0.03392,0.97856,-0.17824,2023,6,8,14,57,24,875
5.15570,-0.04252,-0.04445,0.00000,0.03062,0.97783,-0.17971,2023,6,8,14,57,24,886
5.15580,0.02747,0.09555,0.00000,0.03428,0.97759,-0.17775,2023,6,8,14,57,24,897
5.15590,-0.00753,0.14805,0.00000,0.03257,0.97637,-0.17751,2023,6,8,14,57,24,908
5.15600,-0.13003,0.02555,0.00000,0.03160,0.97759,-0.17812,2023,6,8,14,57,24,919
5.15610,0.06248,-0.20195,0.00000,0.03379,0.97820,-0.17836,2023,6,8,14,57,24,931
5.15620,-0.00753,0.04305,0.00000,0.03416,0.98064,-0.17824,2023,6,8,14,57,24,942
5.15630,-0.06002,-0.11445,0.00000,0.03148,0.97685,-0.17995,2023,6,8,14,57,24,953
5.15640,-0.16502,-0.06195,0.00000,0.03611,0.97685,-0.17897,2023,6,8,14,57,24,964
5.15650,0.04497,-0.06195,0.00000,0.03257,0.97868,-0.17788,2023,6,8,14,57,24,975
5.15660,0.09747,-0.00945,0.00000,0.03355,0.97673,-0.17751,2023,6,8,14,57,24,986
5.15670,-0.06002,0.14805,0.00000,0.03294,0.97832,-0.17788,2023,6,8,14,57,24,997
5.15680,0.21997,-0.07945,0.00000,0.03367,0.97868,-0.17885,2023,6,8,14,57,25,8
5.15690,0.18498,-0.04445,0.00000,0.03184,0.97820,-0.17702,2023,6,8,14,57,25,19
5.15700,-0.00753,0.11305,0.00000,0.03343,0.97771,-0.17641,2023,6,8,14,57,25,31
5.15710,-0.04252,-0.16695,0.00000,0.03209,0.97832,-0.17922,2023,6,8,14,57,25,42
5.15720,0.20247,0.07805,0.00000,0.03404,0.97685,-0.17751,2023,6,8,14,57,25,53
5.15730,0.06248,-0.11445,0.00000,0.03221,0.97807,-0.17739,2023,6,8,14,57,25,64
5.15740,0.07997,-0.11445,0.00000,0.03245,0.97673,-0.17690,2023,6,8,14,57,25,75
5.15750,0.16748,-0.14945,0.00000,0.03453,0.97673,-0.17592,2023,6,8,14,57,25,86
5.15760,-0.07753,0.02555,0.00000,0.03392,0.97893,-0.17824,2023,6,8,14,57,25,97
5.15770,0.14997,0.09555,0.00000,0.03196,0.97563,-0.17897,2023,6,8,14,57,25,108
5.15780,0.06248,0.18305,0.00000,0.03489,0.97820,-0.17873,2023,6,8,14,57,25,119
5.15790,0.02747,-0.14945,0.00000,0.03221,0.97783,-0.17849,2023,6,8,14,57,25,131
5.15800,-0.07753,0.11305,0.00000,0.03148,0.97637,-0.17751,2023,6,8,14,57,25,142
5.15810,0.00997,-0.23695,0.00000,0.03160,0.97515,-0.17702,2023,6,8,14,57,25,153
5.15820,-0.00753,-0.18445,0.00000,0.03331,0.97807,-0.17946,2023,6,8,14,57,25,164
5.15830,-0.16502,0.02555,0.00000,0.03440,0.97698,-0.17727,2023,6,8,14,57,25,175
5.15840,-0.04252,-0.20195,0.00000,0.03196,0.97807,-0.18019,2023,6,8,14,57,25,186
5.15850,0.13247,-0.13195,0.00000,0.03306,0.97966,-0.17824,2023,6,8,14,57,25,197
5.15860,-0.04252,-0.02695,0.00000,0.03440,0.97966,-0.17727,2023,6,8,14,57,25,208
5.15870,0.23747,-0.07945,0.00000,0.03172,0.97771,-0.17873,2023,6,8,14,57,25,219
5.15880,0.02747,0.07805,0.00000,0.03331,0.98234,-0.18105,2023,6,8,14,57,25,231
5.15890,-0.23503,-0.00945,0.00000,0.03392,0.97868,-0.17812,2023,6,8,14,57,25,242
5.15900,-0.07753,-0.04445,0.00000,0.03257,0.97832,-0.17763,2023,6,8,14,57,25,253
5.15910,-0.13003,0.02555,0.00000,0.03221,0.97588,-0.17897,2023,6,8,14,57,25,264
5.15920,-0.02503,-0.02695,0.00000,0.03379,0.97807,-0.17849,2023,6,8,14,57,25,275
5.15930,-0.06002,0.02555,0.00000,0.03148,0.97820,-0.17922,2023,6,8,14,57,25,286
5.15940,0.04497,-0.25445,0.00000,0.03489,0.97868,-0.17702,2023,6,8,14,57,25,297
5.15950,-0.06002,-0.14945,0.00000,0.03379,0.97893,-0.17739,2023,6,8,14,57,25,308
5.15960,0.06248,-0.21945,0.00000,0.03111,0.97820,-0.17922,2023,6,8,14,57,25,319
5.15970,-0.04252,0.09555,0.00000,0.03379,0.97771,-0.17666,2023,6,8,14,57,25,331
5.15980,0.13247,-0.04445,0.00000,0.03160,0.97844,-0.17946,2023,6,8,14,57,25,342
5.15990,-0.06002,0.14805,0.00000,0.03196,0.97783,-0.17885,2023,6,8,14,57,25,353
5.16000,0.02747,0.04305,0.00000,0.03148,0.97734,-0.17873,2023,6,8,14,57,25,364
5.16010,0.11497,-0.00945,0.00000,0.03282,0.97746,-0.17690,2023,6,8,14,57,25,375
5.16020,0.00997,-0.09695,0.00000,0.03416,0.97710,-0.17763,2023,6,8,14,57,25,386
5.16030,-0.02503,0.00805,0.00000,0.03331,0.98003,-0.17897,2023,6,8,14,57,25,397
5.16040,0.07997,-0.07945,0.00000,0.03599,0.98076,-0.17775,2023,6,8,14,57,25,408
5.16050,0.18498,-0.07945,0.00000,0.03245,0.97954,-0.17922,2023,6,8,14,57,25,419
5.16060,0.09747,0.02555,0.00000,0.03355,0.97856,-0.17751,2023,6,8,14,57,25,431
5.16070,-0.04252,-0.00945,0.00000,0.03416,0.97820,-0.17763,2023,6,8,14,57,25,442
5.16080,0.16748,-0.07945,0.00000,0.03135,0.97624,-0.18019,2023,6,8,14,57,25,453
5.16090,0.13247,-0.14945,0.00000,0.03294,0.97771,-0.17775,2023,6,8,14,57,25,464
5.16100,0.02747,-0.11445,0.00000,0.03416,0.97917,-0.17788,2023,6,8,14,57,25,475
5.16110,0.07997,0.18305,0.00000,0.03172,0.97868,-0.17617,2023,6,8,14,57,25,486
5.16120,0.21997,-0.11445,0.00000,0.03440,0.98039,-0.17910,2023,6,8,14,57,25,497
5.16130,0.11497,-0.13195,0.00000,0.03343,0.97746,-0.17727,2023,6,8,14,57,25,508
5.16140,-0.00753,-0.07945,0.00000,0.03282,0.97807,-0.17897,2023,6,8,14,57,25,519
5.16150,0.06248,-0.09695,0.00000,0.03135,0.97661,-0.17788,2023,6,8,14,57,25,531
5.16160,-0.02503,0.02555,0.00000,0.03257,0.97746,-0.17727,2023,6,8,14,57,25,542
5.16170,-0.02503,0.16555,0.00000,0.03062,0.97990,-0.17580,2023,6,8,14,57,25,553
5.16180,0.02747,-0.02695,0.00000,0.03379,0.97844,-0.17788,2023,6,8,14,57,25,564
5.16190,0.00997,-0.00945,0.00000,0.03343,0.97783,-0.17849,2023,6,8,14,57,25,575
5.16200,-0.06002,-0.14945,0.00000,0.03367,0.97746,-0.17897,2023,6,8,14,57,25,586
5.16210,-0.00753,-0.00945,0.00000,0.03343,0.97881,-0.17824,2023,6,8,14,57,25,597
5.16220,0.02747,0.02555,0.00000,0.03135,0.97746,-0.17885,2023,6,8,14,57,25,608
5.16230,-0.02503,-0.04445,0.00000,0.03245,0.97795,-0.17653,2023,6,8,14,57,25,619
5.16240,0.11497,0.21805,0.00000,0.03123,0.97917,-0.17873,2023,6,8,14,57,25,631
5.16250,-0.11253,0.02555,0.00000,0.03221,0.97624,-0.17751,2023,6,8,14,57,25,642
5.16260,-0.16502,0.02555,0.00000,0.03343,0.97929,-0.17812,2023,6,8,14,57,25,653
5.16270,-0.07753,-0.02695,0.00000,0.03196,0.97820,-0.18032,2023,6,8,14,57,25,664
5.16280,0.04497,0.11305,0.00000,0.03245,0.97942,-0.17727,2023,6,8,14,57,25,675
5.16290,-0.06002,-0.23695,0.00000,0.03453,0.97966,-0.17714,2023,6,8,14,57,25,686
5.16300,0.04497,0.07805,0.00000,0.03099,0.97868,-0.17641,2023,6,8,14,57,25,697
5.16310,-0.00753,-0.07945,0.00000,0.03440,0.97612,-0.17885,2023,6,8,14,57,25,708
5.16320,-0.00753,-0.06195,0.00000,0.03331,0.97905,-0.17788,2023,6,8,14,57,25,719
5.16330,-0.32253,0.06055,0.00000,0.03294,0.97868,-0.17910,2023,6,8,14,57,25,731
5.16340,-0.00753,-0.07945,0.00000,0.03257,0.97844,-0.17934,2023,6,8,14,57,25,742
5.16350,0.11497,-0.14945,0.00000,0.03135,0.97844,-0.17861,2023,6,8,14,57,25,753
5.16360,-0.07753,-0.09695,0.00000,0.03489,0.97807,-0.17800,2023,6,8,14,57,25,764
5.16370,0.06248,0.06055,0.00000,0.03306,0.97771,-0.17751,2023,6,8,14,57,25,775
5.16380,-0.09503,0.02555,0.00000,0.03318,0.97759,-0.17788,2023,6,8,14,57,25,786
5.16390,-0.00753,-0.09695,0.00000,0.03160,0.97807,-0.17836,2023,6,8,14,57,25,797
5.16400,0.11497,0.06055,0.00000,0.03440,0.97942,-0.17812,2023,6,8,14,57,25,808
5.16410,-0.02503,-0.04445,0.00000,0.03270,0.97637,-0.17812,2023,6,8,14,57,25,819
5.16420,0.11497,-0.14945,0.00000,0.03233,0.97917,-0.17763,2023,6,8,14,57,25,831
5.16430,0.18498,-0.20195,0.00000,0.03270,0.97844,-0.17873,2023,6,8,14,57,25,842
5.16440,-0.02503,-0.13195,0.00000,0.03526,0.97868,-0.17849,2023,6,8,14,57,25,853
5.16450,-0.00753,0.02555,0.00000,0.03331,0.97868,-0.17812,2023,6,8,14,57,25,864
5.16460,0.09747,-0.06195,0.00000,0.03172,0.97685,-0.17690,2023,6,8,14,57,25,875
5.16470,-0.16502,0.14805,0.00000,0.03233,0.97710,-0.17495,2023,6,8,14,57,25,886
5.16480,0.07997,-0.13195,0.00000,0.03465,0.97856,-0.17397,2023,6,8,14,57,25,897
5.16490,0.06248,-0.06195,0.00000,0.03233,0.97893,-0.17934,2023,6,8,14,57,25,908
5.16500,-0.14752,0.09555,0.00000,0.03160,0.97710,-0.17714,2023,6,8,14,57,25,919
5.16510,0.09747,-0.02695,0.00000,0.03257,0.97807,-0.17775,2023,6,8,14,57,25,931
5.16520,0.00997,-0.11445,0.00000,0.03318,0.97759,-0.17885,2023,6,8,14,57,25,942
5.16530,0.14997,-0.04445,0.00000,0.03318,0.97795,-0.17897,2023,6,8,14,57,25,953
5.16540,-0.00753,0.18305,0.00000,0.03318,0.97746,-0.17739,2023,6,8,14,57,25,964
5.16550,0.02747,-0.14945,0.00000,0.03306,0.97954,-0.17934,2023,6,8,14,57,25,975
5.16560,-0.07753,0.11305,0.00000,0.03221,0.97576,-0.17763,2023,6,8,14,57,25,986
5.16570,-0.04252,-0.00945,0.00000,0.03404,0.97844,-0.17824,2023,6,8,14,57,25,997
5.16580,-0.20003,-0.09695,0.00000,0.03026,0.97649,-0.18007,2023,6,8,14,57,25,8
5.16590,0.04497,-0.30695,0.00000,0.03587,0.97820,-0.17702,2023,6,8,14,57,26,9
5.16600,-0.04252,0.04305,0.00000,0.03270,0.97466,-0.17971,2023,6,8,14,57,26,21
5.16610,0.00997,-0.00945,0.00000,0.03209,0.97734,-0.17775,2023,6,8,14,57,26,32
5.16620,0.20247,-0.06195,0.00000,0.03306,0.97734,-0.17824,2023,6,8,14,57,26,43
5.16630,-0.02503,-0.09695,0.00000,0.03257,0.97832,-0.17605,2023,6,8,14,57,26,54
5.16640,-0.04252,0.13055,0.00000,0.03282,0.97685,-0.17897,2023,6,8,14,57,26,65
5.16650,0.02747,-0.09695,0.00000,0.03135,0.98039,-0.17873,2023,6,8,14,57,26,76
5.16660,-0.04252,0.02555,0.00000,0.03465,0.97905,-0.17836,2023,6,8,14,57,26,87
5.16670,0.07997,0.02555,0.00000,0.03123,0.97856,-0.17885,2023,6,8,14,57,26,98
5.16680,0.04497,0.13055,0.00000,0.03501,0.97637,-0.17690,2023,6,8,14,57,26,109
5.16690,0.02747,-0.00945,0.00000,0.03355,0.97746,-0.17678,2023,6,8,14,57,26,121
5.16700,0.02747,0.02555,0.00000,0.03074,0.97832,-0.17702,2023,6,8,14,57,26,132
5.16710,0.14997,-0.13195,0.00000,0.03611,0.97807,-0.17641,2023,6,8,14,57,26,143
5.16720,0.18498,-0.09695,0.00000,0.03331,0.97746,-0.17800,2023,6,8,14,57,26,154
5.16730,-0.02503,0.07805,0.00000,0.03099,0.97868,-0.17995,2023,6,8,14,57,26,165
5.16740,-0.09503,0.04305,0.00000,0.03282,0.97734,-0.17995,2023,6,8,14,57,26,176
5.16750,0.11497,0.14805,0.00000,0.03282,0.97771,-0.17788,2023,6,8,14,57,26,187
5.16760,0.02747,0.02555,0.00000,0.03392,0.97746,-0.17556,2023,6,8,14,57,26,198
5.16770,0.13247,-0.04445,0.00000,0.03428,0.97698,-0.17958,2023,6,8,14,57,26,209
5.16780,0.06248,0.00805,0.00000,0.03245,0.97783,-0.18044,2023,6,8,14,57,26,221
5.16790,0.16748,0.06055,0.00000,0.03355,0.97563,-0.17958,2023,6,8,14,57,26,232
5.16800,0.02747,-0.20195,0.00000,0.03245,0.97588,-0.17739,2023,6,8,14,57,26,243
5.16810,0.11497,0.04305,0.00000,0.03160,0.97612,-0.18080,2023,6,8,14,57,26,254
5.16820,-0.04252,-0.04445,0.00000,0.03477,0.97746,-0.17763,2023,6,8,14,57,26,265
5.16830,-0.09503,0.00805,0.00000,0.03392,0.97722,-0.17812,2023,6,8,14,57,26,276
5.16840,0.11497,-0.07945,0.00000,0.03184,0.97795,-0.17690,2023,6,8,14,57,26,287
5.16850,-0.00753,0.06055,0.00000,0.03245,0.97734,-0.17727,2023,6,8,14,57,26,298
5.16860,-0.13003,-0.16695,0.00000,0.03062,0.97954,-0.17641,2023,6,8,14,57,26,309
5.16870,0.07997,-0.07945,0.00000,0.03270,0.97746,-0.17836,2023,6,8,14,57,26,321
5.16880,-0.02503,0.02555,0.00000,0.03428,0.97759,-0.17885,2023,6,8,14,57,26,332
5.16890,-0.02503,0.13055,0.00000,0.03453,0.97637,-0.17836,2023,6,8,14,57,26,343
5.16900,-0.07753,0.06055,0.00000,0.03111,0.97820,-0.17824,2023,6,8,14,57,26,354
5.16910,-0.11253,0.09555,0.00000,0.03233,0.97820,-0.17873,2023,6,8,14,57,26,365
5.16920,-0.00753,-0.11445,0.00000,0.03550,0.97856,-0.17873,2023,6,8,14,57,26,376
5.16930,-0.11253,0.41055,0.00000,0.03392,0.97722,-0.17666,2023,6,8,14,57,26,387
5.16940,0.02747,0.06055,0.00000,0.03196,0.97783,-0.17861,2023,6,8,14,57,26,398
5.16950,-0.04252,-0.07945,0.00000,0.03306,0.97929,-0.17702,2023,6,8,14,57,26,409
5.16960,0.00997,-0.00945,0.00000,0.03172,0.97771,-0.17934,2023,6,8,14,57,26,421
5.16970,0.16748,-0.09695,0.00000,0.03489,0.97698,-0.18044,2023,6,8,14,57,26,432
5.16980,0.06248,0.13055,0.00000,0.03209,0.97783,-0.17824,2023,6,8,14,57,26,443
5.16990,-0.07753,-0.06195,0.00000,0.03062,0.97868,-0.17824,2023,6,8,14,57,26,454
5.17000,-0.07753,0.06055,0.00000,0.03306,0.97832,-0.18044,2023,6,8,14,57,26,465
5.17010,-0.04252,-0.16695,0.00000,0.03379,0.97783,-0.17641,2023,6,8,14,57,26,476
5.17020,0.00997,0.07805,0.00000,0.03184,0.97624,-0.17885,2023,6,8,14,57,26,487
5.17030,0.11497,0.06055,0.00000,0.03501,0.97807,-0.17946,2023,6,8,14,57,26,498
5.17040,-0.04252,0.09555,0.00000,0.03428,0.97710,-0.17995,2023,6,8,14,57,26,509
5.17050,0.07997,-0.14945,0.00000,0.03306,0.97649,-0.17678,2023,6,8,14,57,26,521
5.17060,-0.04252,0.09555,0.00000,0.03318,0.97612,-0.17971,2023,6,8,14,57,26,532
5.17070,-0.11253,0.04305,0.00000,0.03001,0.97673,-0.17702,2023,6,8,14,57,26,543
5.17080,-0.00753,0.02555,0.00000,0.03196,0.97685,-0.17775,2023,6,8,14,57,26,554
5.17090,-0.07753,0.11305,0.00000,0.03270,0.97734,-0.17922,2023,6,8,14,57,26,565
5.17100,0.09747,0.14805,0.00000,0.03440,0.97795,-0.17861,2023,6,8,14,57,26,576
5.17110,-0.07753,0.02555,0.00000,0.03074,0.97624,-0.17788,2023,6,8,14,57,26,587
5.17120,-0.00753,-0.04445,0.00000,0.03087,0.97881,-0.17690,2023,6,8,14,57,26,598
5.17130,0.18498,-0.16695,0.00000,0.03404,0.97734,-0.17824,2023,6,8,14,57,26,609
5.17140,0.07997,-0.21945,0.00000,0.03099,0.97771,-0.18117,2023,6,8,14,57,26,621
5.17150,-0.11253,0.02555,0.00000,0.03245,0.97881,-0.18044,2023,6,8,14,57,26,632
5.17160,-0.06002,0.00805,0.00000,0.03416,0.97832,-0.17775,2023,6,8,14,57,26,643
5.17170,0.04497,-0.07945,0.00000,0.03282,0.97771,-0.17812,2023,6,8,14,57,26,654
5.17180,-0.21753,0.04305,0.00000,0.03257,0.97746,-0.17800,2023,6,8,14,57,26,665
5.17190,0.20247,-0.13195,0.00000,0.03196,0.97783,-0.18056,2023,6,8,14,57,26,676
5.17200,-0.09503,-0.27195,0.00000,0.03282,0.97734,-0.18032,2023,6,8,14,57,26,687
5.17210,-0.06002,-0.00945,0.00000,0.03575,0.97942,-0.17824,2023,6,8,14,57,26,698
5.17220,0.00997,-0.07945,0.00000,0.03233,0.97966,-0.17763,2023,6,8,14,57,26,709
5.17230,-0.00753,-0.04445,0.00000,0.03257,0.97698,-0.17775,2023,6,8,14,57,26,721
5.17240,-0.16502,0.02555,0.00000,0.03282,0.98051,-0.17946,2023,6,8,14,57,26,732
5.17250,-0.21753,0.09555,0.00000,0.03355,0.97502,-0.17873,2023,6,8,14,57,26,743
5.17260,-0.09503,-0.04445,0.00000,0.03257,0.97954,-0.17983,2023,6,8,14,57,26,754
5.17270,-0.00753,-0.06195,0.00000,0.03196,0.97856,-0.18032,2023,6,8,14,57,26,765
5.17280,0.20247,-0.04445,0.00000,0.03367,0.97588,-0.17971,2023,6,8,14,57,26,776
5.17290,0.11497,0.09555,0.00000,0.03367,0.97807,-0.17800,2023,6,8,14,57,26,787
5.17300,-0.18253,-0.04445,0.00000,0.03501,0.97685,-0.17751,2023,6,8,14,57,26,798
5.17310,0.02747,-0.18445,0.00000,0.03550,0.97795,-0.18080,2023,6,8,14,57,26,809
5.17320,0.09747,-0.09695,0.00000,0.03209,0.97759,-0.17910,2023,6,8,14,57,26,821
5.17330,0.25497,0.04305,0.00000,0.03062,0.97624,-0.17763,2023,6,8,14,57,26,832
5.17340,0.13247,0.20055,0.00000,0.03001,0.97893,-0.18080,2023,6,8,14,57,26,843
5.17350,0.07997,0.07805,0.00000,0.03465,0.97771,-0.17702,2023,6,8,14,57,26,854
5.17360,-0.04252,-0.14945,0.00000,0.03526,0.97905,-0.18154,2023,6,8,14,57,26,865
5.17370,0.00997,-0.13195,0.00000,0.03465,0.97807,-0.17861,2023,6,8,14,57,26,876
5.17380,0.02747,0.00805,0.00000,0.03306,0.97710,-0.17849,2023,6,8,14,57,26,887
5.17390,-0.09503,0.06055,0.00000,0.03343,0.97795,-0.17885,2023,6,8,14,57,26,898
5.17400,-0.06002,0.02555,0.00000,0.03184,0.97527,-0.18007,2023,6,8,14,57,26,909
5.17410,-0.14752,0.02555,0.00000,0.03221,0.97588,-0.17958,2023,6,8,14,57,26,921
5.17420,-0.07753,0.02555,0.00000,0.03392,0.97820,-0.17836,2023,6,8,14,57,26,932
5.17430,-0.07753,-0.04445,0.00000,0.03099,0.97783,-0.17483,2023,6,8,14,57,26,943
5.17440,-0.04252,-0.13195,0.00000,0.03392,0.97393,-0.17678,2023,6,8,14,57,26,954
5.17450,0.02747,-0.06195,0.00000,0.03489,0.97783,-0.17897,2023,6,8,14,57,26,965
5.17460,0.11497,-0.13195,0.00000,0.03099,0.97490,-0.17897,2023,6,8,14,57,26,976
5.17470,-0.07753,0.13055,0.00000,0.03294,0.97649,-0.17861,2023,6,8,14,57,26,987
5.17480,0.06248,-0.16695,0.00000,0.03172,0.97783,-0.17849,2023,6,8,14,57,26,998
5.17490,0.20247,-0.16695,0.00000,0.03282,0.97722,-0.17922,2023,6,8,14,57,27,9
5.17500,0.07997,-0.13195,0.00000,0.03172,0.97710,-0.17873,2023,6,8,14,57,27,21
5.17510,0.04497,-0.00945,0.00000,0.03306,0.97844,-0.17629,2023,6,8,14,57,27,32
5.17520,-0.02503,0.06055,0.00000,0.03245,0.97624,-0.17995,2023,6,8,14,57,27,43
5.17530,-0.00753,0.14805,0.00000,0.03294,0.97698,-0.18141,2023,6,8,14,57,27,54
5.17540,0.02747,-0.07945,0.00000,0.03404,0.97966,-0.18007,2023,6,8,14,57,27,65
5.17550,0.16748,-0.13195,0.00000,0.03196,0.97466,-0.17739,2023,6,8,14,57,27,76
5.17560,-0.02503,0.04305,0.00000,0.03270,0.97649,-0.17946,2023,6,8,14,57,27,87
5.17570,-0.37502,-0.00945,0.00000,0.03196,0.97734,-0.17946,2023,6,8,14,57,27,98
5.17580,-0.13003,-0.13195,0.00000,0.03050,0.97917,-0.17885,2023,6,8,14,57,27,109
5.17590,-0.06002,0.00805,0.00000,0.03184,0.97966,-0.18032,2023,6,8,14,57,27,121
5.17600,0.11497,-0.02695,0.00000,0.03135,0.97588,-0.17861,2023,6,8,14,57,27,132
5.17610,-0.09503,0.13055,0.00000,0.03477,0.97807,-0.17849,2023,6,8,14,57,27,143
5.17620,0.14997,-0.16695,0.00000,0.03209,0.97844,-0.17836,2023,6,8,14,57,27,154
5.17630,0.06248,-0.18445,0.00000,0.03477,0.97710,-0.17824,2023,6,8,14,57,27,165
5.17640,-0.11253,-0.11445,0.00000,0.03465,0.97685,-0.18019,2023,6,8,14,57,27,176
5.17650,0.09747,0.09555,0.00000,0.03184,0.97942,-0.18166,2023,6,8,14,57,27,187
5.17660,0.02747,-0.09695,0.00000,0.03111,0.97612,-0.17836,2023,6,8,14,57,27,198
5.17670,-0.06002,-0.07945,0.00000,0.03123,0.97832,-0.17800,2023,6,8,14,57,27,209
5.17680,-0.13003,0.11305,0.00000,0.03306,0.97917,-0.17910,2023,6,8,14,57,27,221
5.17690,-0.02503,0.09555,0.00000,0.03331,0.97771,-0.18190,2023,6,8,14,57,27,232
5.17700,0.16748,-0.00945,0.00000,0.03123,0.97612,-0.17885,2023,6,8,14,57,27,243
5.17710,0.02747,0.02555,0.00000,0.03294,0.97624,-0.17629,2023,6,8,14,57,27,254
5.17720,-0.07753,0.14805,0.00000,0.03111,0.97771,-0.18032,2023,6,8,14,57,27,265
5.17730,-0.04252,-0.02695,0.00000,0.03245,0.97820,-0.17934,2023,6,8,14,57,27,276
5.17740,-0.06002,-0.07945,0.00000,0.03233,0.97978,-0.18044,2023,6,8,14,57,27,287
5.17750,-0.06002,-0.13195,0.00000,0.03050,0.97661,-0.17995,2023,6,8,14,57,27,298
5.17760,-0.00753,0.02555,0.00000,0.03233,0.97539,-0.17971,2023,6,8,14,57,27,309
5.17770,-0.02503,0.06055,0.00000,0.03428,0.97734,-0.18068,2023,6,8,14,57,27,321
5.17780,0.07997,0.07805,0.00000,0.03282,0.97807,-0.17849,2023,6,8,14,57,27,332
5.17790,-0.06002,0.06055,0.00000,0.03367,0.97515,-0.17958,2023,6,8,14,57,27,343
5.17800,0.04497,-0.07945,0.00000,0.03245,0.97685,-0.18215,2023,6,8,14,57,27,354
5.17810,-0.16502,0.09555,0.00000,0.03221,0.97722,-0.18019,2023,6,8,14,57,27,365
5.17820,0.04497,0.16555,0.00000,0.03135,0.97551,-0.18129,2023,6,8,14,57,27,376
5.17830,0.13247,0.21805,0.00000,0.03379,0.97844,-0.18019,2023,6,8,14,57,27,387
5.17840,0.00997,-0.16695,0.00000,0.03355,0.97917,-0.18105,2023,6,8,14,57,27,398
5.17850,0.00997,-0.00945,0.00000,0.03392,0.97722,-0.17836,2023,6,8,14,57,27,409
5.17860,0.11497,-0.14945,0.00000,0.03172,0.97783,-0.17983,2023,6,8,14,57,27,421
5.17870,-0.14752,-0.00945,0.00000,0.03318,0.97978,-0.18117,2023,6,8,14,57,27,432
5.17880,0.04497,-0.18445,0.00000,0.03282,0.97624,-0.18141,2023,6,8,14,57,27,443
5.17890,0.02747,-0.14945,0.00000,0.03306,0.97685,-0.18044,2023,6,8,14,57,27,454
5.17900,0.02747,-0.02695,0.00000,0.03318,0.97868,-0.18251,2023,6,8,14,57,27,465
5.17910,-0.07753,0.02555,0.00000,0.03392,0.97698,-0.18141,2023,6,8,14,57,27,476
5.17920,-0.02503,-0.07945,0.00000,0.03343,0.97868,-0.18190,2023,6,8,14,57,27,487
5.17930,0.07997,-0.09695,0.00000,0.03099,0.98051,-0.18093,2023,6,8,14,57,27,498
5.17940,-0.07753,0.07805,0.00000,0.03087,0.97893,-0.17958,2023,6,8,14,57,27,509
5.17950,-0.06002,0.02555,0.00000,0.03379,0.97820,-0.18129,2023,6,8,14,57,27,521
5.17960,-0.04252,-0.25445,0.00000,0.03343,0.97807,-0.18032,2023,6,8,14,57,27,532
5.17970,0.04497,0.14805,0.00000,0.03062,0.97685,-0.17910,2023,6,8,14,57,27,543
5.17980,-0.07753,0.09555,0.00000,0.03245,0.97624,-0.17958,2023,6,8,14,57,27,554
5.17990,0.37748,-0.09695,0.00000,0.03404,0.97563,-0.18044,2023,6,8,14,57,27,565
5.18000,-0.02503,-0.02695,0.00000,0.03282,0.97807,-0.18056,2023,6,8,14,57,27,576
5.18010,0.18498,-0.13195,0.00000,0.03172,0.97783,-0.18324,2023,6,8,14,57,27,587
5.18020,0.13247,-0.09695,0.00000,0.03379,0.97783,-0.18068,2023,6,8,14,57,27,598
5.18030,0.00997,-0.04445,0.00000,0.03087,0.97832,-0.18068,2023,6,8,14,57,27,609
5.18040,0.02747,0.07805,0.00000,0.03465,0.97710,-0.17739,2023,6,8,14,57,27,621
5.18050,-0.06002,0.04305,0.00000,0.03343,0.97624,-0.18105,2023,6,8,14,57,27,632
5.18060,0.07997,0.09555,0.00000,0.03172,0.97868,-0.17983,2023,6,8,14,57,27,643
5.18070,0.04497,0.21805,0.00000,0.03062,0.97868,-0.18056,2023,6,8,14,57,27,654
5.18080,-0.00753,0.21805,0.00000,0.03221,0.97698,-0.18007,2023,6,8,14,57,27,665
5.18090,0.04497,0.11305,0.00000,0.03148,0.97734,-0.18190,2023,6,8,14,57,27,676
5.18100,-0.23503,0.06055,0.00000,0.03318,0.97673,-0.18117,2023,6,8,14,57,27,687
5.18110,-0.14752,-0.00945,0.00000,0.03306,0.97698,-0.17897,2023,6,8,14,57,27,698
5.18120,0.11497,0.20055,0.00000,0.03233,0.97795,-0.17934,2023,6,8,14,57,27,709
5.18130,0.00997,0.20055,0.00000,0.03221,0.97490,-0.18068,2023,6,8,14,57,27,721
5.18140,-0.21753,0.00805,0.00000,0.03355,0.97734,-0.17995,2023,6,8,14,57,27,732
5.18150,0.16748,0.20055,0.00000,0.03245,0.97905,-0.17873,2023,6,8,14,57,27,743
5.18160,-0.06002,0.20055,0.00000,0.03306,0.97807,-0.17849,2023,6,8,14,57,27,754
5.18170,-0.04252,0.18305,0.00000,0.03221,0.97661,-0.17800,2023,6,8,14,57,27,765
5.18180,0.02747,-0.13195,0.00000,0.03465,0.98198,-0.18044,2023,6,8,14,57,27,776
5.18190,-0.04252,-0.07945,0.00000,0.03355,0.97734,-0.18007,2023,6,8,14,57,27,787
5.18200,0.02747,-0.00945,0.00000,0.03257,0.97722,-0.17971,2023,6,8,14,57,27,798
5.18210,-0.13003,-0.11445,0.00000,0.03306,0.97771,-0.17897,2023,6,8,14,57,27,809
5.18220,0.02747,0.11305,0.00000,0.03184,0.97661,-0.17946,2023,6,8,14,57,27,821
5.18230,0.18498,-0.04445,0.00000,0.03453,0.97966,-0.17958,2023,6,8,14,57,27,832
5.18240,-0.07753,0.09555,0.00000,0.03270,0.97942,-0.18080,2023,6,8,14,57,27,843
5.18250,0.06248,-0.25445,0.00000,0.03489,0.97490,-0.17873,2023,6,8,14,57,27,854
5.18260,-0.14752,-0.02695,0.00000,0.03294,0.97832,-0.17763,2023,6,8,14,57,27,865
5.18270,0.00997,-0.18445,0.00000,0.03209,0.97771,-0.17983,2023,6,8,14,57,27,876
5.18280,0.11497,-0.07945,0.00000,0.03270,0.97759,-0.17861,2023,6,8,14,57,27,887
5.18290,0.07997,0.02555,0.00000,0.03318,0.97844,-0.18166,2023,6,8,14,57,27,898
5.18300,-0.04252,-0.04445,0.00000,0.03501,0.97783,-0.18080,2023,6,8,14,57,27,909
5.18310,0.07997,0.11305,0.00000,0.03440,0.98015,-0.18007,2023,6,8,14,57,27,921
5.18320,-0.20003,0.00805,0.00000,0.03184,0.97893,-0.17958,2023,6,8,14,57,27,932
5.18330,-0.09503,0.28805,0.00000,0.03416,0.97576,-0.18019,2023,6,8,14,57,27,943
5.18340,-0.06002,-0.06195,0.00000,0.03331,0.97734,-0.18044,2023,6,8,14,57,27,954
5.18350,0.13247,-0.11445,0.00000,0.03331,0.97978,-0.18044,2023,6,8,14,57,27,965
5.18360,0.07997,-0.18445,0.00000,0.03428,0.97771,-0.17873,2023,6,8,14,57,27,976
5.18370,0.16748,-0.14945,0.00000,0.03233,0.97868,-0.18141,2023,6,8,14,57,27,987
5.18380,0.14997,-0.07945,0.00000,0.03123,0.97454,-0.17958,2023,6,8,14,57,27,998
5.18390,0.09747,-0.13195,0.00000,0.03245,0.97649,-0.18007,2023,6,8,14,57,27,9
5.18400,0.00997,-0.28945,0.00000,0.03440,0.97783,-0.18129,2023,6,8,14,57,27,21
5.18410,0.09747,0.09555,0.00000,0.03209,0.97917,-0.17873,2023,6,8,14,57,28,2
5.18420,0.02747,-0.13195,0.00000,0.03318,0.97685,-0.18032,2023,6,8,14,57,28,13
5.18430,0.04497,0.18305,0.00000,0.03172,0.97759,-0.17836,2023,6,8,14,57,28,24
5.18440,0.00997,-0.07945,0.00000,0.03099,0.97759,-0.17995,2023,6,8,14,57,28,35
5.18450,-0.02503,0.14805,0.00000,0.03294,0.97771,-0.18129,2023,6,8,14,57,28,46
5.18460,-0.00753,-0.13195,0.00000,0.03440,0.97759,-0.18032,2023,6,8,14,57,28,57
5.18470,0.00997,0.02555,0.00000,0.03672,0.97832,-0.17995,2023,6,8,14,57,28,68
5.18480,0.13247,0.02555,0.00000,0.03270,0.97759,-0.17934,2023,6,8,14,57,28,79
5.18490,-0.11253,-0.18445,0.00000,0.03160,0.97795,-0.17983,2023,6,8,14,57,28,91
5.18500,0.00997,0.07805,0.00000,0.03184,0.97893,-0.17971,2023,6,8,14,57,28,102
5.18510,-0.00753,-0.00945,0.00000,0.03184,0.97966,-0.18068,2023,6,8,14,57,28,113
5.18520,-0.11253,0.13055,0.00000,0.03355,0.97710,-0.17812,2023,6,8,14,57,28,124
5.18530,0.16748,-0.14945,0.00000,0.03428,0.97624,-0.17849,2023,6,8,14,57,28,135
5.18540,0.02747,0.16555,0.00000,0.03355,0.97722,-0.17812,2023,6,8,14,57,28,146
5.18550,0.07997,-0.07945,0.00000,0.03379,0.97893,-0.18239,2023,6,8,14,57,28,157
5.18560,0.14997,0.13055,0.00000,0.03172,0.97868,-0.18178,2023,6,8,14,57,28,168
5.18570,-0.27002,0.09555,0.00000,0.03306,0.97929,-0.17910,2023,6,8,14,57,28,179
5.18580,0.00997,0.00805,0.00000,0.03233,0.97710,-0.17922,2023,6,8,14,57,28,191
5.18590,0.14997,-0.18445,0.00000,0.03440,0.97637,-0.17824,2023,6,8,14,57,28,202
5.18600,0.09747,0.07805,0.00000,0.03355,0.97893,-0.18007,2023,6,8,14,57,28,213
5.18610,0.11497,0.13055,0.00000,0.03282,0.97710,-0.17922,2023,6,8,14,57,28,224
5.18620,0.13247,0.02555,0.00000,0.03221,0.97881,-0.18007,2023,6,8,14,57,28,235
5.18630,-0.02503,-0.02695,0.00000,0.03172,0.97624,-0.17934,2023,6,8,14,57,28,246
5.18640,0.07997,0.04305,0.00000,0.03196,0.97795,-0.17958,2023,6,8,14,57,28,257
5.18650,-0.07753,0.16555,0.00000,0.03111,0.97832,-0.18019,2023,6,8,14,57,28,268
5.18660,0.27248,-0.07945,0.00000,0.03270,0.98015,-0.17971,2023,6,8,14,57,28,279
5.18670,-0.07753,-0.02695,0.00000,0.03270,0.97990,-0.17836,2023,6,8,14,57,28,291
5.18680,-0.04252,-0.00945,0.00000,0.03428,0.97502,-0.17836,2023,6,8,14,57,28,302
5.18690,-0.07753,0.09555,0.00000,0.03416,0.97844,-0.17958,2023,6,8,14,57,28,313
5.18700,0.14997,0.00805,0.00000,0.03123,0.97881,-0.17971,2023,6,8,14,57,28,324
5.18710,0.11497,-0.18445,0.00000,0.03221,0.97942,-0.18141,2023,6,8,14,57,28,335
5.18720,0.11497,0.02555,0.00000,0.03367,0.97771,-0.17849,2023,6,8,14,57,28,346
5.18730,-0.02503,-0.02695,0.00000,0.03367,0.97783,-0.17958,2023,6,8,14,57,28,357
5.18740,0.02747,0.09555,0.00000,0.03294,0.97539,-0.18068,2023,6,8,14,57,28,368
5.18750,-0.04252,0.04305,0.00000,0.03318,0.97759,-0.17849,2023,6,8,14,57,28,379
5.18760,-0.04252,0.04305,0.00000,0.02989,0.97807,-0.17788,2023,6,8,14,57,28,391
5.18770,0.13247,0.04305,0.00000,0.03331,0.97710,-0.17824,2023,6,8,14,57,28,402
5.18780,0.06248,-0.14945,0.00000,0.03318,0.97685,-0.17824,2023,6,8,14,57,28,413
5.18790,0.21997,0.04305,0.00000,0.03404,0.97734,-0.18080,2023,6,8,14,57,28,424
5.18800,0.11497,-0.18445,0.00000,0.03331,0.97990,-0.18129,2023,6,8,14,57,28,435
5.18810,-0.06002,-0.06195,0.00000,0.03062,0.97783,-0.17922,2023,6,8,14,57,28,446
5.18820,0.09747,-0.14945,0.00000,0.03148,0.97539,-0.17897,2023,6,8,14,57,28,457
