#2023/06/08 16:20:24
time,wx,wy,wz,ax,ay,az,yy,MM,dd,hh,mm,ss,ms
5.95700,3.06250,-4.63750,0.00000,0.03123,0.97649,-0.17861,2023,6,8,16,20,42,267
5.95710,3.01000,-4.58500,0.00000,0.03184,0.97722,-0.17946,2023,6,8,16,20,44,8
5.95720,3.02750,-4.72500,0.00000,0.03343,0.97795,-0.17861,2023,6,8,16,20,50,9
5.95730,3.06250,-4.55000,0.00000,0.03221,0.97563,-0.17934,2023,6,8,16,20,53,0
5.95740,2.88750,-4.41000,0.00000,0.03184,0.97685,-0.17897,2023,6,8,16,20,54,1
5.95750,3.11500,-4.65500,0.00000,0.03209,0.97624,-0.17775,2023,6,8,16,20,58,2
5.95760,3.13250,-4.42750,0.00000,0.03160,0.97746,-0.17873,2023,6,8,16,20,59,3
5.95770,2.92250,-4.62000,0.00000,0.03172,0.97759,-0.17788,2023,6,8,16,20,59,14
5.95780,3.01000,-4.76000,0.00000,0.03074,0.97551,-0.17971,2023,6,8,16,21,0,5
5.95790,3.09750,-4.74250,0.00000,0.03123,0.97868,-0.17836,2023,6,8,16,21,1,6
5.95800,3.04500,-4.58500,0.00000,0.03111,0.97771,-0.17861,2023,6,8,16,21,1,18
5.95810,3.22000,-4.70750,0.00000,0.03440,0.97624,-0.17849,2023,6,8,16,21,2,9
5.95820,3.09750,-4.51500,0.00000,0.03294,0.97820,-0.18032,2023,6,8,16,21,2,20
5.95830,3.18500,-4.60250,0.00000,0.03294,0.97661,-0.17824,2023,6,8,16,21,5,1
5.95840,3.11500,-4.67250,0.00000,0.03172,0.97746,-0.17702,2023,6,8,16,21,5,12
5.95850,2.88750,-4.62000,0.00000,0.03294,0.97844,-0.17897,2023,6,8,16,21,5,23
5.95860,3.08000,-4.72500,0.00000,0.03099,0.97807,-0.18215,2023,6,8,16,21,5,34
5.95870,2.88750,-4.53250,0.00000,0.03355,0.97612,-0.17714,2023,6,8,16,21,5,45
5.95880,2.99250,-4.79500,0.00000,0.03306,0.97868,-0.18068,2023,6,8,16,21,5,56
5.95890,3.06250,-4.72500,0.00000,0.03282,0.97881,-0.17934,2023,6,8,16,21,5,68
5.95900,3.08000,-4.62000,0.00000,0.03233,0.97771,-0.17763,2023,6,8,16,21,5,79
5.95910,3.01000,-4.67250,0.00000,0.03050,0.97515,-0.17934,2023,6,8,16,21,5,90
5.95920,2.88750,-4.72500,0.00000,0.03087,0.97771,-0.17934,2023,6,8,16,21,5,101
5.95930,3.09750,-4.51500,0.00000,0.03355,0.97746,-0.18044,2023,6,8,16,21,5,112
5.95940,3.01000,-4.69000,0.00000,0.03135,0.97905,-0.17751,2023,6,8,16,21,5,123
5.95950,2.92250,-4.63750,0.00000,0.03270,0.97527,-0.17739,2023,6,8,16,21,5,134
5.95960,2.80000,-4.65500,0.00000,0.02940,0.97429,-0.17775,2023,6,8,16,21,5,145
5.95970,2.80000,-4.72500,0.00000,0.02965,0.97588,-0.17714,2023,6,8,16,21,5,157
5.95980,3.01000,-4.93500,0.00000,0.03074,0.97698,-0.17812,2023,6,8,16,21,5,168
5.95990,2.92250,-4.79500,0.00000,0.03087,0.97649,-0.17897,2023,6,8,16,21,5,179
5.96000,2.99250,-4.63750,0.00000,0.03282,0.97795,-0.17605,2023,6,8,16,21,5,190
5.96010,2.99250,-4.53250,0.00000,0.03209,0.97576,-0.17885,2023,6,8,16,21,5,201
5.96020,3.11500,-4.63750,0.00000,0.03209,0.97746,-0.17690,2023,6,8,16,21,5,212
5.96030,3.06250,-4.51500,0.00000,0.03270,0.97698,-0.17702,2023,6,8,16,21,5,223
5.96040,3.09750,-4.90000,0.00000,0.03355,0.97478,-0.17775,2023,6,8,16,21,5,234
5.96050,3.09750,-4.58500,0.00000,0.03392,0.97673,-0.17739,2023,6,8,16,21,5,245
5.96060,3.09750,-4.60250,0.00000,0.03074,0.97624,-0.18007,2023,6,8,16,21,5,257
5.96070,2.81750,-4.69000,0.00000,0.03148,0.97807,-0.17971,2023,6,8,16,21,5,268
5.96080,2.92250,-4.67250,0.00000,0.03318,0.97368,-0.17690,2023,6,8,16,21,5,279
5.96090,2.81750,-4.58500,0.00000,0.03538,0.97563,-0.17727,2023,6,8,16,21,5,290
5.96100,2.80000,-4.48000,0.00000,0.03404,0.97929,-0.17836,2023,6,8,16,21,5,301
5.96110,3.16750,-4.69000,0.00000,0.03379,0.97722,-0.17788,2023,6,8,16,21,5,312
5.96120,3.04500,-4.77750,0.00000,0.03245,0.97527,-0.17800,2023,6,8,16,21,5,323
5.96130,2.94000,-4.53250,0.00000,0.03087,0.97685,-0.17641,2023,6,8,16,21,5,334
5.96140,2.90500,-4.74250,0.00000,0.03282,0.97576,-0.17775,2023,6,8,16,21,5,345
5.96150,3.02750,-4.58500,0.00000,0.03282,0.97844,-0.18056,2023,6,8,16,21,5,356
5.96160,2.99250,-4.67250,0.00000,0.03111,0.97783,-0.17702,2023,6,8,16,21,5,368
5.96170,2.90500,-4.63750,0.00000,0.03196,0.97954,-0.17727,2023,6,8,16,21,5,379
5.96180,3.08000,-4.49750,0.00000,0.03233,0.97624,-0.17812,2023,6,8,16,21,5,390
5.96190,2.90500,-4.76000,0.00000,0.03196,0.97417,-0.17849,2023,6,8,16,21,5,401
5.96200,2.97500,-4.83000,0.00000,0.03306,0.97844,-0.17580,2023,6,8,16,21,5,412
5.96210,2.80000,-4.58500,0.00000,0.03160,0.97746,-0.17788,2023,6,8,16,21,5,423
5.96220,3.06250,-4.62000,0.00000,0.03270,0.97393,-0.17739,2023,6,8,16,21,5,434
5.96230,2.94000,-4.63750,0.00000,0.03038,0.97624,-0.17775,2023,6,8,16,21,5,445
5.96240,3.13250,-4.67250,0.00000,0.03160,0.97929,-0.17873,2023,6,8,16,21,5,456
5.96250,2.99250,-4.49750,0.00000,0.03209,0.97588,-0.17666,2023,6,8,16,21,5,468
5.96260,3.08000,-4.74250,0.00000,0.03148,0.97649,-0.18007,2023,6,8,16,21,5,479
5.96270,3.02750,-4.41000,0.00000,0.03270,0.97942,-0.17727,2023,6,8,16,21,5,490
5.96280,2.90500,-4.77750,0.00000,0.03343,0.97844,-0.17605,2023,6,8,16,21,5,501
5.96290,3.08000,-4.48000,0.00000,0.03465,0.97698,-0.17824,2023,6,8,16,21,5,512
5.96300,2.94000,-4.70750,0.00000,0.03099,0.97661,-0.17849,2023,6,8,16,21,5,523
5.96310,3.08000,-4.62000,0.00000,0.03172,0.97844,-0.17849,2023,6,8,16,21,5,534
5.96320,3.01000,-4.60250,0.00000,0.03221,0.97624,-0.17775,2023,6,8,16,21,5,545
5.96330,2.83500,-4.49750,0.00000,0.03355,0.98064,-0.17666,2023,6,8,16,21,5,556
5.96340,3.08000,-4.76000,0.00000,0.03379,0.97759,-0.17763,2023,6,8,16,21,5,568
5.96350,3.09750,-4.67250,0.00000,0.03270,0.97746,-0.17971,2023,6,8,16,21,5,579
5.96360,2.90500,-4.55000,0.00000,0.03074,0.97820,-0.17995,2023,6,8,16,21,5,590
5.96370,3.02750,-4.51500,0.00000,0.03379,0.98125,-0.17897,2023,6,8,16,21,5,601
5.96380,3.09750,-4.69000,0.00000,0.03074,0.97881,-0.17666,2023,6,8,16,21,5,612
5.96390,2.97500,-4.42750,0.00000,0.03196,0.97673,-0.17678,2023,6,8,16,21,5,623
5.96400,3.01000,-4.72500,0.00000,0.03282,0.97746,-0.17702,2023,6,8,16,21,5,634
5.96410,3.04500,-4.44500,0.00000,0.03038,0.97881,-0.17812,2023,6,8,16,21,5,645
5.96420,2.87000,-4.65500,0.00000,0.03294,0.97856,-0.17678,2023,6,8,16,21,5,656
5.96430,3.04500,-4.76000,0.00000,0.03282,0.97710,-0.17946,2023,6,8,16,21,5,668
5.96440,3.09750,-4.76000,0.00000,0.03550,0.97673,-0.17983,2023,6,8,16,21,5,679
5.96450,2.90500,-4.69000,0.00000,0.03245,0.97612,-0.17775,2023,6,8,16,21,5,690
5.96460,2.99250,-4.58500,0.00000,0.03074,0.97868,-0.17519,2023,6,8,16,21,5,701
5.96470,3.09750,-4.69000,0.00000,0.03172,0.97856,-0.17751,2023,6,8,16,21,5,712
5.96480,3.20250,-4.77750,0.00000,0.03209,0.97624,-0.18019,2023,6,8,16,21,5,723
5.96490,3.04500,-4.79500,0.00000,0.03209,0.97844,-0.17666,2023,6,8,16,21,5,734
5.96500,2.94000,-4.51500,0.00000,0.03184,0.97490,-0.17873,2023,6,8,16,21,5,745
5.96510,2.95750,-4.63750,0.00000,0.03087,0.97685,-0.17836,2023,6,8,16,21,5,756
5.96520,3.16750,-4.60250,0.00000,0.03050,0.97893,-0.17739,2023,6,8,16,21,5,768
5.96530,2.94000,-4.48000,0.00000,0.03099,0.97832,-0.17739,2023,6,8,16,21,5,779
5.96540,2.94000,-4.46250,0.00000,0.03392,0.97868,-0.17861,2023,6,8,16,21,5,790
5.96550,2.97500,-4.53250,0.00000,0.03099,0.97600,-0.17934,2023,6,8,16,21,5,801
5.96560,3.15000,-4.51500,0.00000,0.03148,0.97478,-0.17885,2023,6,8,16,21,5,812
5.96570,3.29000,-4.58500,0.00000,0.03379,0.97966,-0.17800,2023,6,8,16,21,5,823
5.96580,3.08000,-4.79500,0.00000,0.03294,0.97612,-0.17934,2023,6,8,16,21,5,834
5.96590,3.06250,-4.46250,0.00000,0.03233,0.97795,-0.17885,2023,6,8,16,21,5,845
5.96600,2.92250,-4.34000,0.00000,0.03270,0.97576,-0.17958,2023,6,8,16,21,5,856
5.96610,3.04500,-4.77750,0.00000,0.03221,0.97624,-0.17849,2023,6,8,16,21,5,868
5.96620,2.83500,-4.62000,0.00000,0.03379,0.97698,-0.17763,2023,6,8,16,21,5,879
5.96630,3.16750,-4.46250,0.00000,0.03209,0.97698,-0.18202,2023,6,8,16,21,5,890
5.96640,3.06250,-4.83000,0.00000,0.03440,0.97832,-0.17885,2023,6,8,16,21,5,901
5.96650,3.02750,-4.42750,0.00000,0.03013,0.97685,-0.17995,2023,6,8,16,21,5,912
5.96660,2.83500,-4.32250,0.00000,0.03123,0.97588,-0.18056,2023,6,8,16,21,5,923
5.96670,2.97500,-4.65500,0.00000,0.02879,0.97612,-0.17824,2023,6,8,16,21,5,934
5.96680,2.92250,-4.74250,0.00000,0.03343,0.97942,-0.17800,2023,6,8,16,21,5,945
5.96690,2.88750,-4.58500,0.00000,0.03282,0.97771,-0.17922,2023,6,8,16,21,5,956
5.96700,3.04500,-4.65500,0.00000,0.03257,0.97893,-0.17800,2023,6,8,16,21,5,968
5.96710,3.09750,-4.70750,0.00000,0.03233,0.97576,-0.18044,2023,6,8,16,21,5,979
5.96720,3.11500,-4.70750,0.00000,0.03148,0.97576,-0.17958,2023,6,8,16,21,5,990
5.96730,3.16750,-4.62000,0.00000,0.03135,0.97478,-0.17849,2023,6,8,16,21,5,1
5.96740,3.01000,-4.62000,0.00000,0.03233,0.97685,-0.17861,2023,6,8,16,21,5,12
5.96750,3.04500,-4.67250,0.00000,0.03257,0.97673,-0.17934,2023,6,8,16,21,5,23
5.96760,3.06250,-4.70750,0.00000,0.03233,0.97771,-0.17861,2023,6,8,16,21,5,34
5.96770,3.02750,-4.58500,0.00000,0.03367,0.97820,-0.18215,2023,6,8,16,21,5,45
5.96780,2.99250,-4.62000,0.00000,0.03379,0.97624,-0.17885,2023,6,8,16,21,5,56
5.96790,3.06250,-4.62000,0.00000,0.03135,0.97856,-0.17800,2023,6,8,16,21,5,68
5.96800,2.97500,-4.70750,0.00000,0.03233,0.97759,-0.17861,2023,6,8,16,21,5,79
5.96810,2.97500,-4.77750,0.00000,0.03404,0.97844,-0.18117,2023,6,8,16,21,5,90
5.96820,2.88750,-4.53250,0.00000,0.03148,0.97759,-0.17995,2023,6,8,16,21,5,101
5.96830,2.90500,-4.69000,0.00000,0.03026,0.97637,-0.17861,2023,6,8,16,21,5,112
5.96840,2.92250,-4.46250,0.00000,0.03257,0.97637,-0.17849,2023,6,8,16,21,5,123
5.96850,2.92250,-4.67250,0.00000,0.03196,0.97771,-0.17910,2023,6,8,16,21,5,134
5.96860,3.02750,-4.65500,0.00000,0.03245,0.97661,-0.18019,2023,6,8,16,21,5,145
5.96870,3.16750,-4.60250,0.00000,0.03196,0.97624,-0.17873,2023,6,8,16,21,5,156
5.96880,2.97500,-4.60250,0.00000,0.03233,0.97795,-0.17995,2023,6,8,16,21,5,168
5.96890,2.88750,-4.56750,0.00000,0.03184,0.97563,-0.17836,2023,6,8,16,21,5,179
5.96900,3.04500,-4.88250,0.00000,0.03184,0.97954,-0.17995,2023,6,8,16,21,5,190
5.96910,3.11500,-4.70750,0.00000,0.03477,0.97600,-0.17885,2023,6,8,16,21,5,201
5.96920,3.01000,-4.67250,0.00000,0.03196,0.97746,-0.17812,2023,6,8,16,21,5,212
5.96930,2.94000,-4.51500,0.00000,0.03233,0.97685,-0.17897,2023,6,8,16,21,5,223
5.96940,3.09750,-4.67250,0.00000,0.03123,0.97734,-0.17849,2023,6,8,16,21,5,234
5.96950,2.97500,-4.70750,0.00000,0.03184,0.97820,-0.18032,2023,6,8,16,21,5,245
5.96960,2.83500,-4.60250,0.00000,0.03404,0.97942,-0.18056,2023,6,8,16,21,5,256
5.96970,2.99250,-4.63750,0.00000,0.03404,0.97661,-0.17885,2023,6,8,16,21,5,268
5.96980,3.01000,-4.69000,0.00000,0.03135,0.97807,-0.17775,2023,6,8,16,21,5,279
5.96990,2.99250,-4.76000,0.00000,0.03294,0.97795,-0.18032,2023,6,8,16,21,5,290
5.97000,3.01000,-4.76000,0.00000,0.03440,0.97734,-0.17910,2023,6,8,16,21,5,301
5.97010,3.13250,-4.58500,0.00000,0.03331,0.97820,-0.17849,2023,6,8,16,21,6,2
5.97020,3.06250,-4.62000,0.00000,0.03001,0.97746,-0.18154,2023,6,8,16,21,6,13
5.97030,3.02750,-4.62000,0.00000,0.03270,0.97917,-0.17971,2023,6,8,16,21,6,24
5.97040,2.97500,-4.76000,0.00000,0.03294,0.97649,-0.17910,2023,6,8,16,21,6,35
5.97050,2.85250,-4.51500,0.00000,0.03294,0.97698,-0.17836,2023,6,8,16,21,6,46
5.97060,2.88750,-4.49750,0.00000,0.03196,0.97624,-0.17983,2023,6,8,16,21,6,58
5.97070,2.97500,-4.42750,0.00000,0.03184,0.97746,-0.17995,2023,6,8,16,21,6,69
5.97080,3.04500,-4.49750,0.00000,0.03038,0.98088,-0.17958,2023,6,8,16,21,6,80
5.97090,2.99250,-4.77750,0.00000,0.02989,0.97807,-0.17934,2023,6,8,16,21,6,91
5.97100,2.97500,-4.74250,0.00000,0.03013,0.97673,-0.17983,2023,6,8,16,21,6,102
5.97110,3.13250,-4.70750,0.00000,0.03184,0.97722,-0.17885,2023,6,8,16,21,6,113
5.97120,3.04500,-4.77750,0.00000,0.03087,0.97710,-0.17885,2023,6,8,16,21,6,124
5.97130,3.09750,-4.69000,0.00000,0.03587,0.97527,-0.17751,2023,6,8,16,21,6,135
5.97140,2.85250,-4.70750,0.00000,0.03257,0.97698,-0.17910,2023,6,8,16,21,6,146
5.97150,3.08000,-4.53250,0.00000,0.03355,0.97612,-0.17714,2023,6,8,16,21,6,158
5.97160,2.94000,-4.70750,0.00000,0.03318,0.97746,-0.17836,2023,6,8,16,21,6,169
5.97170,3.06250,-4.60250,0.00000,0.03038,0.97746,-0.17763,2023,6,8,16,21,6,180
5.97180,3.18500,-4.67250,0.00000,0.03160,0.97917,-0.17934,2023,6,8,16,21,6,191
5.97190,2.94000,-4.72500,0.00000,0.03306,0.97563,-0.17934,2023,6,8,16,21,6,202
5.97200,2.97500,-4.76000,0.00000,0.03318,0.97954,-0.17824,2023,6,8,16,21,6,213
5.97210,2.90500,-4.69000,0.00000,0.03209,0.97539,-0.17812,2023,6,8,16,21,6,224
5.97220,3.06250,-4.69000,0.00000,0.03087,0.97844,-0.18080,2023,6,8,16,21,6,235
5.97230,2.90500,-4.62000,0.00000,0.03428,0.98015,-0.17946,2023,6,8,16,21,6,246
5.97240,2.97500,-4.62000,0.00000,0.03209,0.97893,-0.17739,2023,6,8,16,21,6,258
5.97250,3.09750,-4.81250,0.00000,0.03257,0.97649,-0.17971,2023,6,8,16,21,6,269
5.97260,3.09750,-4.48000,0.00000,0.03172,0.97624,-0.17922,2023,6,8,16,21,6,280
5.97270,3.20250,-4.77750,0.00000,0.03209,0.97844,-0.17946,2023,6,8,16,21,6,291
5.97280,3.08000,-4.65500,0.00000,0.03404,0.97759,-0.18068,2023,6,8,16,21,6,302
5.97290,3.01000,-4.74250,0.00000,0.03355,0.97795,-0.17641,2023,6,8,16,21,6,313
5.97300,2.99250,-4.70750,0.00000,0.03379,0.97734,-0.17800,2023,6,8,16,21,6,324
5.97310,2.90500,-4.51500,0.00000,0.03245,0.97759,-0.17885,2023,6,8,16,21,6,335
5.97320,3.04500,-4.63750,0.00000,0.03306,0.97624,-0.17690,2023,6,8,16,21,6,346
5.97330,2.92250,-4.86500,0.00000,0.03526,0.97856,-0.17983,2023,6,8,16,21,6,358
5.97340,2.94000,-4.76000,0.00000,0.02916,0.97600,-0.17836,2023,6,8,16,21,6,369
5.97350,2.80000,-4.51500,0.00000,0.03184,0.97795,-0.17946,2023,6,8,16,21,6,380
5.97360,2.92250,-4.56750,0.00000,0.03099,0.97661,-0.17849,2023,6,8,16,21,6,391
5.97370,2.74750,-4.60250,0.00000,0.03062,0.97710,-0.17897,2023,6,8,16,21,6,402
5.97380,3.01000,-4.70750,0.00000,0.03196,0.97673,-0.17971,2023,6,8,16,21,6,413
5.97390,3.04500,-4.55000,0.00000,0.03270,0.97576,-0.17812,2023,6,8,16,21,6,424
5.97400,3.02750,-4.60250,0.00000,0.03306,0.97771,-0.17910,2023,6,8,16,21,6,435
5.97410,3.09750,-4.74250,0.00000,0.03294,0.97637,-0.17861,2023,6,8,16,21,6,446
5.97420,2.92250,-4.69000,0.00000,0.03209,0.97771,-0.17714,2023,6,8,16,21,6,458
5.97430,2.95750,-4.91750,0.00000,0.03209,0.97783,-0.17922,2023,6,8,16,21,6,469
5.97440,2.99250,-4.72500,0.00000,0.03172,0.97771,-0.17849,2023,6,8,16,21,6,480
5.97450,2.97500,-4.51500,0.00000,0.03270,0.97710,-0.18007,2023,6,8,16,21,6,491
5.97460,3.01000,-4.69000,0.00000,0.03501,0.97600,-0.17861,2023,6,8,16,21,6,502
5.97470,2.87000,-4.79500,0.00000,0.03257,0.97576,-0.17897,2023,6,8,16,21,6,513
5.97480,3.01000,-4.72500,0.00000,0.03270,0.97576,-0.17763,2023,6,8,16,21,6,524
5.97490,2.92250,-4.46250,0.00000,0.03257,0.97612,-0.18068,2023,6,8,16,21,6,535
5.97500,2.90500,-4.53250,0.00000,0.02965,0.97710,-0.18056,2023,6,8,16,21,6,546
5.97510,3.11500,-4.86500,0.00000,0.02977,0.97698,-0.18019,2023,6,8,16,21,6,558
5.97520,2.94000,-4.69000,0.00000,0.03160,0.97624,-0.17983,2023,6,8,16,21,6,569
5.97530,3.04500,-4.62000,0.00000,0.03148,0.97466,-0.18202,2023,6,8,16,21,6,580
5.97540,3.18500,-4.62000,0.00000,0.03343,0.97759,-0.17849,2023,6,8,16,21,6,591
5.97550,3.01000,-4.74250,0.00000,0.03867,0.97344,-0.18093,2023,6,8,16,21,6,602
5.97560,2.78250,-4.39250,0.00000,0.03428,0.97990,-0.17824,2023,6,8,16,21,6,613
5.97570,2.99250,-4.67250,0.00000,0.03135,0.97844,-0.18117,2023,6,8,16,21,6,624
5.97580,2.99250,-4.83000,0.00000,0.03270,0.97624,-0.17934,2023,6,8,16,21,6,635
5.97590,2.87000,-4.48000,0.00000,0.03306,0.97722,-0.17922,2023,6,8,16,21,6,646
5.97600,2.99250,-4.90000,0.00000,0.03318,0.97893,-0.18007,2023,6,8,16,21,6,658
5.97610,3.15000,-4.72500,0.00000,0.03233,0.97807,-0.18276,2023,6,8,16,21,6,669
5.97620,3.11500,-4.74250,0.00000,0.03160,0.97600,-0.17983,2023,6,8,16,21,6,680
5.97630,2.92250,-4.79500,0.00000,0.03074,0.97649,-0.18105,2023,6,8,16,21,6,691
5.97640,3.04500,-4.74250,0.00000,0.03367,0.97588,-0.17946,2023,6,8,16,21,6,702
5.97650,3.02750,-4.42750,0.00000,0.02867,0.97722,-0.18032,2023,6,8,16,21,6,713
5.97660,2.94000,-4.56750,0.00000,0.03135,0.98003,-0.18007,2023,6,8,16,21,6,724
5.97670,3.04500,-4.46250,0.00000,0.03318,0.97942,-0.18117,2023,6,8,16,21,6,735
5.97680,3.01000,-4.65500,0.00000,0.03050,0.97283,-0.18007,2023,6,8,16,21,6,746
5.97690,2.80000,-4.41000,0.00000,0.03611,0.97222,-0.17592,2023,6,8,16,21,6,758
5.97700,3.09750,-4.67250,0.00000,0.03245,0.98271,-0.18117,2023,6,8,16,21,6,769
5.97710,2.83500,-4.55000,0.00000,0.03367,0.97576,-0.18215,2023,6,8,16,21,6,780
5.97720,3.04500,-4.72500,0.00000,0.03404,0.97978,-0.18263,2023,6,8,16,21,6,791
5.97730,2.90500,-4.51500,0.00000,0.03233,0.97661,-0.18093,2023,6,8,16,21,6,802
5.97740,3.08000,-4.65500,0.00000,0.03257,0.97637,-0.18178,2023,6,8,16,21,6,813
5.97750,2.99250,-4.79500,0.00000,0.02989,0.98100,-0.18068,2023,6,8,16,21,6,824
5.97760,3.01000,-4.74250,0.00000,0.03123,0.97685,-0.17910,2023,6,8,16,21,6,835
5.97770,3.13250,-4.74250,0.00000,0.03148,0.97454,-0.18032,2023,6,8,16,21,6,846
5.97780,2.95750,-4.60250,0.00000,0.03416,0.97600,-0.18044,2023,6,8,16,21,6,858
5.97790,3.02750,-4.67250,0.00000,0.03270,0.97685,-0.18190,2023,6,8,16,21,6,869
5.97800,3.04500,-4.70750,0.00000,0.03221,0.97685,-0.17995,2023,6,8,16,21,6,880
5.97810,3.02750,-4.49750,0.00000,0.03306,0.97673,-0.18019,2023,6,8,16,21,6,891
5.97820,3.02750,-4.81250,0.00000,0.03221,0.97771,-0.17971,2023,6,8,16,21,6,902
5.97830,2.87000,-4.65500,0.00000,0.03209,0.97661,-0.17971,2023,6,8,16,21,6,913
5.97840,2.85250,-4.74250,0.00000,0.03074,0.97734,-0.17995,2023,6,8,16,21,6,924
5.97850,2.88750,-4.69000,0.00000,0.03331,0.97722,-0.17897,2023,6,8,16,21,6,935
5.97860,2.90500,-4.77750,0.00000,0.03111,0.97856,-0.18019,2023,6,8,16,21,6,946
5.97870,2.94000,-4.79500,0.00000,0.03233,0.97795,-0.18093,2023,6,8,16,21,6,958
5.97880,2.78250,-4.48000,0.00000,0.03306,0.97417,-0.17800,2023,6,8,16,21,6,969
5.97890,3.08000,-4.76000,0.00000,0.03172,0.97539,-0.18044,2023,6,8,16,21,6,980
5.97900,3.11500,-4.65500,0.00000,0.03233,0.97612,-0.17971,2023,6,8,16,21,6,991
5.97910,2.92250,-4.55000,0.00000,0.03196,0.97905,-0.17861,2023,6,8,16,21,6,2
5.97920,3.01000,-4.60250,0.00000,0.03331,0.97612,-0.18019,2023,6,8,16,21,6,13
5.97930,2.94000,-4.62000,0.00000,0.03331,0.97868,-0.17983,2023,6,8,16,21,6,24
5.97940,2.99250,-4.53250,0.00000,0.03270,0.97673,-0.17824,2023,6,8,16,21,6,35
5.97950,3.09750,-4.72500,0.00000,0.03026,0.97917,-0.18007,2023,6,8,16,21,6,46
5.97960,3.09750,-4.63750,0.00000,0.03135,0.97673,-0.18032,2023,6,8,16,21,6,58
5.97970,2.95750,-4.65500,0.00000,0.03306,0.97868,-0.18044,2023,6,8,16,21,6,69
5.97980,2.83500,-4.74250,0.00000,0.03355,0.97649,-0.18068,2023,6,8,16,21,6,80
5.97990,2.97500,-4.65500,0.00000,0.03209,0.97502,-0.17849,2023,6,8,16,21,6,91
5.98000,3.08000,-4.72500,0.00000,0.03099,0.97868,-0.17788,2023,6,8,16,21,6,102
5.98010,3.04500,-4.67250,0.00000,0.03062,0.97771,-0.17934,2023,6,8,16,21,6,113
5.98020,3.08000,-4.49750,0.00000,0.03148,0.97783,-0.17934,2023,6,8,16,21,6,124
5.98030,2.78250,-4.42750,0.00000,0.03294,0.97771,-0.17971,2023,6,8,16,21,6,135
5.98040,3.06250,-4.65500,0.00000,0.03245,0.97820,-0.18019,2023,6,8,16,21,6,146
5.98050,3.08000,-4.65500,0.00000,0.03306,0.97649,-0.18032,2023,6,8,16,21,6,158
5.98060,3.02750,-4.69000,0.00000,0.03038,0.97624,-0.18141,2023,6,8,16,21,6,169
5.98070,2.94000,-4.70750,0.00000,0.03428,0.97759,-0.18019,2023,6,8,16,21,6,180
5.98080,3.11500,-4.81250,0.00000,0.03074,0.97710,-0.17971,2023,6,8,16,21,6,191
5.98090,3.13250,-4.56750,0.00000,0.02952,0.97624,-0.17824,2023,6,8,16,21,6,202
5.98100,3.04500,-4.56750,0.00000,0.03343,0.97832,-0.17946,2023,6,8,16,21,6,213
5.98110,2.97500,-4.76000,0.00000,0.03111,0.97746,-0.17885,2023,6,8,16,21,6,224
5.98120,2.90500,-4.56750,0.00000,0.03306,0.97551,-0.18141,2023,6,8,16,21,6,235
5.98130,3.09750,-4.84750,0.00000,0.03233,0.97759,-0.17824,2023,6,8,16,21,6,246
5.98140,3.08000,-4.70750,0.00000,0.03160,0.97771,-0.18141,2023,6,8,16,21,6,258
5.98150,3.04500,-4.97000,0.00000,0.03416,0.97783,-0.18032,2023,6,8,16,21,6,269
5.98160,2.95750,-4.65500,0.00000,0.03160,0.97795,-0.18007,2023,6,8,16,21,6,280
5.98170,2.88750,-4.63750,0.00000,0.03099,0.97759,-0.17971,2023,6,8,16,21,6,291
5.98180,3.04500,-4.62000,0.00000,0.03514,0.97820,-0.17958,2023,6,8,16,21,6,302
5.98190,3.11500,-4.60250,0.00000,0.03209,0.97771,-0.17983,2023,6,8,16,21,6,313
5.98200,2.92250,-4.77750,0.00000,0.03343,0.97722,-0.17922,2023,6,8,16,21,6,324
5.98210,2.83500,-4.53250,0.00000,0.03221,0.97429,-0.18056,2023,6,8,16,21,6,335
5.98220,2.97500,-4.81250,0.00000,0.03233,0.97637,-0.17958,2023,6,8,16,21,6,346
5.98230,3.13250,-4.67250,0.00000,0.03367,0.97746,-0.17812,2023,6,8,16,21,6,358
5.98240,3.08000,-4.53250,0.00000,0.03379,0.97783,-0.18044,2023,6,8,16,21,6,369
5.98250,2.97500,-4.65500,0.00000,0.03196,0.97807,-0.17775,2023,6,8,16,21,6,380
5.98260,3.11500,-4.60250,0.00000,0.02904,0.97746,-0.18068,2023,6,8,16,21,6,391
5.98270,2.88750,-4.58500,0.00000,0.03416,0.97551,-0.18068,2023,6,8,16,21,6,402
5.98280,2.95750,-4.65500,0.00000,0.03111,0.98003,-0.18007,2023,6,8,16,21,6,413
5.98290,2.95750,-4.58500,0.00000,0.03172,0.97588,-0.17751,2023,6,8,16,21,6,424
5.98300,2.92250,-4.60250,0.00000,0.03160,0.97807,-0.17849,2023,6,8,16,21,6,435
5.98310,2.83500,-4.48000,0.00000,0.03233,0.97649,-0.18019,2023,6,8,16,21,6,446
5.98320,3.09750,-4.60250,0.00000,0.03013,0.97771,-0.17971,2023,6,8,16,21,6,458
5.98330,3.02750,-4.77750,0.00000,0.03196,0.97698,-0.17873,2023,6,8,16,21,6,469
5.98340,3.01000,-4.72500,0.00000,0.03355,0.97844,-0.17800,2023,6,8,16,21,6,480
5.98350,2.92250,-4.67250,0.00000,0.03172,0.97771,-0.17971,2023,6,8,16,21,6,491
5.98360,2.97500,-4.91750,0.00000,0.03233,0.97685,-0.17885,2023,6,8,16,21,6,502
5.98370,3.13250,-4.63750,0.00000,0.03172,0.97807,-0.17824,2023,6,8,16,21,6,513
5.98380,2.94000,-4.51500,0.00000,0.03257,0.97649,-0.17934,2023,6,8,16,21,6,524
5.98390,2.94000,-4.77750,0.00000,0.03050,0.97515,-0.18117,2023,6,8,16,21,6,535
5.98400,3.06250,-4.46250,0.00000,0.03331,0.97722,-0.17800,2023,6,8,16,21,6,546
5.98410,3.15000,-4.58500,0.00000,0.03379,0.97673,-0.17653,2023,6,8,16,21,6,558
5.98420,2.94000,-4.77750,0.00000,0.03489,0.97637,-0.17800,2023,6,8,16,21,6,569
5.98430,3.23750,-4.69000,0.00000,0.03172,0.97661,-0.18007,2023,6,8,16,21,6,580
5.98440,3.04500,-4.74250,0.00000,0.03233,0.97771,-0.17751,2023,6,8,16,21,6,591
5.98450,2.71250,-4.53250,0.00000,0.03318,0.97710,-0.18056,2023,6,8,16,21,6,602
5.98460,3.18500,-4.83000,0.00000,0.03099,0.97612,-0.17958,2023,6,8,16,21,6,613
5.98470,3.02750,-4.62000,0.00000,0.02916,0.97649,-0.17958,2023,6,8,16,21,6,624
5.98480,3.04500,-4.65500,0.00000,0.03343,0.97673,-0.17727,2023,6,8,16,21,6,635
5.98490,3.15000,-4.39250,0.00000,0.03331,0.97624,-0.17946,2023,6,8,16,21,6,646
5.98500,2.94000,-4.55000,0.00000,0.03294,0.97868,-0.17873,2023,6,8,16,21,6,658
5.98510,2.90500,-4.56750,0.00000,0.03209,0.97795,-0.17885,2023,6,8,16,21,6,669
5.98520,2.97500,-4.58500,0.00000,0.03050,0.97576,-0.17983,2023,6,8,16,21,6,680
5.98530,3.11500,-4.48000,0.00000,0.03367,0.98003,-0.17775,2023,6,8,16,21,6,691
5.98540,2.85250,-4.42750,0.00000,0.03221,0.97685,-0.17995,2023,6,8,16,21,6,702
5.98550,3.01000,-4.79500,0.00000,0.03343,0.97563,-0.17775,2023,6,8,16,21,6,713
5.98560,3.01000,-4.58500,0.00000,0.03465,0.97820,-0.17739,2023,6,8,16,21,6,724
5.98570,3.08000,-4.62000,0.00000,0.03270,0.97649,-0.17824,2023,6,8,16,21,6,735
5.98580,3.02750,-4.55000,0.00000,0.03355,0.97637,-0.17897,2023,6,8,16,21,6,746
5.98590,2.99250,-4.56750,0.00000,0.03379,0.97783,-0.17812,2023,6,8,16,21,6,758
5.98600,2.94000,-4.63750,0.00000,0.03294,0.97807,-0.17861,2023,6,8,16,21,6,769
5.98610,3.01000,-4.51500,0.00000,0.03184,0.97844,-0.17629,2023,6,8,16,21,6,780
5.98620,2.95750,-4.70750,0.00000,0.03404,0.97722,-0.17775,2023,6,8,16,21,6,791
5.98630,2.95750,-4.95250,0.00000,0.03123,0.97673,-0.18044,2023,6,8,16,21,6,802
5.98640,2.95750,-4.77750,0.00000,0.03184,0.97637,-0.17946,2023,6,8,16,21,6,813
5.98650,2.88750,-4.67250,0.00000,0.03135,0.97637,-0.18117,2023,6,8,16,21,6,824
5.98660,3.01000,-4.77750,0.00000,0.03160,0.97563,-0.17946,2023,6,8,16,21,6,835
5.98670,3.13250,-4.77750,0.00000,0.03209,0.97734,-0.17739,2023,6,8,16,21,6,846
5.98680,2.90500,-4.55000,0.00000,0.03123,0.97698,-0.17946,2023,6,8,16,21,6,858
5.98690,3.04500,-4.46250,0.00000,0.03282,0.97673,-0.17885,2023,6,8,16,21,6,869
5.98700,2.80000,-4.51500,0.00000,0.03184,0.97771,-0.18032,2023,6,8,16,21,6,880
5.98710,2.95750,-4.44500,0.00000,0.03111,0.97917,-0.18007,2023,6,8,16,21,6,891
5.98720,3.01000,-4.72500,0.00000,0.02916,0.97502,-0.18105,2023,6,8,16,21,6,902
5.98730,3.15000,-4.69000,0.00000,0.03172,0.97966,-0.18007,2023,6,8,16,21,6,913
5.98740,2.95750,-4.51500,0.00000,0.03379,0.97661,-0.17824,2023,6,8,16,21,6,924
5.98750,3.08000,-4.65500,0.00000,0.03233,0.97624,-0.17922,2023,6,8,16,21,6,935
5.98760,2.92250,-4.41000,0.00000,0.02916,0.97478,-0.17849,2023,6,8,16,21,6,946
5.98770,3.06250,-4.67250,0.00000,0.03245,0.97637,-0.17861,2023,6,8,16,21,6,958
5.98780,2.85250,-4.42750,0.00000,0.03038,0.97673,-0.17788,2023,6,8,16,21,6,969
5.98790,3.09750,-4.49750,0.00000,0.03123,0.97868,-0.18019,2023,6,8,16,21,6,980
5.98800,2.81750,-4.35750,0.00000,0.03245,0.97624,-0.17788,2023,6,8,16,21,6,991
5.98810,3.08000,-4.65500,0.00000,0.03233,0.97746,-0.18129,2023,6,8,16,21,6,2
5.98820,2.87000,-4.44500,0.00000,0.03087,0.97795,-0.17897,2023,6,8,16,21,6,13
5.98830,3.02750,-4.67250,0.00000,0.03050,0.97795,-0.17690,2023,6,8,16,21,6,24
5.98840,2.99250,-4.60250,0.00000,0.03209,0.97637,-0.17946,2023,6,8,16,21,6,35
5.98850,3.08000,-4.62000,0.00000,0.03453,0.97624,-0.18093,2023,6,8,16,21,6,46
5.98860,2.95750,-4.90000,0.00000,0.03257,0.97502,-0.18056,2023,6,8,16,21,6,58
5.98870,2.90500,-4.65500,0.00000,0.03087,0.97600,-0.17971,2023,6,8,16,21,6,69
5.98880,2.92250,-4.56750,0.00000,0.03209,0.97685,-0.17788,2023,6,8,16,21,6,80
5.98890,3.08000,-4.74250,0.00000,0.03184,0.97478,-0.17812,2023,6,8,16,21,6,91
5.98900,3.22000,-4.67250,0.00000,0.03221,0.97905,-0.17763,2023,6,8,16,21,6,102
5.98910,2.94000,-4.55000,0.00000,0.02952,0.97661,-0.17910,2023,6,8,16,21,6,113
5.98920,3.09750,-4.51500,0.00000,0.03282,0.97746,-0.18080,2023,6,8,16,21,6,124
5.98930,2.88750,-4.53250,0.00000,0.03477,0.97734,-0.17910,2023,6,8,16,21,6,135
5.98940,2.94000,-4.60250,0.00000,0.03404,0.97624,-0.17873,2023,6,8,16,21,6,146
5.98950,2.99250,-4.60250,0.00000,0.03148,0.97844,-0.17629,2023,6,8,16,21,6,158
5.98960,3.06250,-4.58500,0.00000,0.03184,0.97746,-0.17836,2023,6,8,16,21,6,169
5.98970,3.15000,-4.83000,0.00000,0.03135,0.97917,-0.17885,2023,6,8,16,21,6,180
5.98980,3.01000,-4.49750,0.00000,0.03184,0.97832,-0.17800,2023,6,8,16,21,6,191
5.98990,2.87000,-4.48000,0.00000,0.03270,0.97637,-0.17617,2023,6,8,16,21,6,202
5.99000,2.88750,-4.37500,0.00000,0.03257,0.97820,-0.17922,2023,6,8,16,21,6,213
5.99010,2.94000,-4.55000,0.00000,0.03343,0.97771,-0.18129,2023,6,8,16,21,6,224
5.99020,2.87000,-4.77750,0.00000,0.03270,0.97685,-0.17775,2023,6,8,16,21,6,235
5.99030,2.85250,-4.58500,0.00000,0.03221,0.97746,-0.17971,2023,6,8,16,21,6,246
5.99040,3.01000,-4.76000,0.00000,0.03233,0.97685,-0.17946,2023,6,8,16,21,6,258
5.99050,3.06250,-4.63750,0.00000,0.03221,0.97783,-0.18007,2023,6,8,16,21,6,269
5.99060,3.04500,-4.60250,0.00000,0.03196,0.97685,-0.17897,2023,6,8,16,21,6,280
5.99070,3.11500,-4.72500,0.00000,0.03209,0.97563,-0.17910,2023,6,8,16,21,6,291
5.99080,3.09750,-4.62000,0.00000,0.03123,0.97771,-0.18019,2023,6,8,16,21,6,302
5.99090,2.90500,-4.69000,0.00000,0.03184,0.97722,-0.17946,2023,6,8,16,21,6,313
5.99100,2.94000,-4.56750,0.00000,0.03184,0.97661,-0.18044,2023,6,8,16,21,6,324
5.99110,3.23750,-4.72500,0.00000,0.03209,0.97637,-0.17922,2023,6,8,16,21,6,335
5.99120,3.13250,-4.76000,0.00000,0.03379,0.97807,-0.18019,2023,6,8,16,21,6,346
5.99130,3.01000,-4.72500,0.00000,0.03135,0.97612,-0.17714,2023,6,8,16,21,6,358
5.99140,3.08000,-4.65500,0.00000,0.03087,0.97600,-0.17910,2023,6,8,16,21,6,369
5.99150,3.01000,-4.63750,0.00000,0.03501,0.97771,-0.17861,2023,6,8,16,21,6,380
5.99160,3.13250,-4.76000,0.00000,0.03148,0.97698,-0.18093,2023,6,8,16,21,6,391
5.99170,2.99250,-4.55000,0.00000,0.03135,0.97942,-0.18068,2023,6,8,16,21,6,402
5.99180,3.18500,-4.62000,0.00000,0.03184,0.97893,-0.17824,2023,6,8,16,21,6,413
5.99190,3.09750,-4.48000,0.00000,0.03270,0.97832,-0.17995,2023,6,8,16,21,6,424
5.99200,2.95750,-4.55000,0.00000,0.02952,0.97698,-0.17788,2023,6,8,16,21,6,435
5.99210,3.13250,-4.48000,0.00000,0.03343,0.97917,-0.17922,2023,6,8,16,21,6,446
5.99220,3.04500,-4.49750,0.00000,0.03062,0.97783,-0.17995,2023,6,8,16,21,6,458
5.99230,3.08000,-4.93500,0.00000,0.03172,0.97637,-0.17690,2023,6,8,16,21,6,469
5.99240,3.11500,-4.83000,0.00000,0.03318,0.97685,-0.17836,2023,6,8,16,21,6,480
5.99250,3.04500,-4.76000,0.00000,0.03196,0.97698,-0.17873,2023,6,8,16,21,6,491
5.99260,2.88750,-4.79500,0.00000,0.03282,0.97771,-0.17763,2023,6,8,16,21,6,502
5.99270,3.04500,-4.58500,0.00000,0.03135,0.97722,-0.17702,2023,6,8,16,21,6,513
5.99280,3.06250,-4.77750,0.00000,0.03148,0.97746,-0.17885,2023,6,8,16,21,6,524
5.99290,3.06250,-4.93500,0.00000,0.03392,0.97563,-0.17897,2023,6,8,16,21,6,535
5.99300,2.92250,-4.62000,0.00000,0.03148,0.97710,-0.17849,2023,6,8,16,21,6,546
5.99310,2.94000,-4.60250,0.00000,0.03221,0.97588,-0.18007,2023,6,8,16,21,6,558
5.99320,3.11500,-4.72500,0.00000,0.03172,0.97661,-0.17666,2023,6,8,16,21,6,569
5.99330,2.95750,-4.44500,0.00000,0.03172,0.97722,-0.17910,2023,6,8,16,21,6,580
5.99340,2.94000,-4.55000,0.00000,0.03209,0.97685,-0.17910,2023,6,8,16,21,6,591
5.99350,3.11500,-4.60250,0.00000,0.03038,0.97539,-0.17910,2023,6,8,16,21,6,602
5.99360,3.08000,-4.69000,0.00000,0.03294,0.97795,-0.17812,2023,6,8,16,21,6,613
5.99370,3.01000,-4.58500,0.00000,0.03209,0.97673,-0.17885,2023,6,8,16,21,6,624
5.99380,2.97500,-4.70750,0.00000,0.03257,0.97710,-0.17836,2023,6,8,16,21,6,635
5.99390,2.88750,-4.53250,0.00000,0.03355,0.97759,-0.17812,2023,6,8,16,21,6,646
5.99400,3.02750,-4.69000,0.00000,0.03282,0.97502,-0.18190,2023,6,8,16,21,6,658
5.99410,2.94000,-4.44500,0.00000,0.03306,0.97612,-0.17885,2023,6,8,16,21,6,669
5.99420,2.95750,-4.46250,0.00000,0.03294,0.97844,-0.17934,2023,6,8,16,21,6,680
5.99430,3.06250,-4.76000,0.00000,0.03306,0.97722,-0.17861,2023,6,8,16,21,6,691
5.99440,3.09750,-4.53250,0.00000,0.02952,0.97685,-0.17934,2023,6,8,16,21,6,702
5.99450,3.11500,-4.83000,0.00000,0.03135,0.97710,-0.18007,2023,6,8,16,21,6,713
5.99460,3.09750,-4.65500,0.00000,0.03135,0.97612,-0.18093,2023,6,8,16,21,6,724
5.99470,3.06250,-4.72500,0.00000,0.03221,0.97868,-0.17910,2023,6,8,16,21,6,735
5.99480,3.16750,-4.60250,0.00000,0.03099,0.97966,-0.17995,2023,6,8,16,21,6,746
5.99490,3.02750,-4.60250,0.00000,0.03196,0.97661,-0.17946,2023,6,8,16,21,6,758
5.99500,3.01000,-4.72500,0.00000,0.03209,0.97698,-0.17885,2023,6,8,16,21,6,769
5.99510,3.01000,-4.72500,0.00000,0.02916,0.97820,-0.17824,2023,6,8,16,21,6,780
5.99520,2.92250,-4.60250,0.00000,0.03294,0.98039,-0.17714,2023,6,8,16,21,6,791
5.99530,2.94000,-4.63750,0.00000,0.03099,0.97722,-0.17678,2023,6,8,16,21,6,802
5.99540,3.02750,-4.70750,0.00000,0.03184,0.97478,-0.17910,2023,6,8,16,21,6,813
5.99550,2.97500,-4.67250,0.00000,0.03062,0.97771,-0.17849,2023,6,8,16,21,6,824
5.99560,2.97500,-4.70750,0.00000,0.03160,0.97783,-0.17885,2023,6,8,16,21,6,835
5.99570,2.87000,-4.70750,0.00000,0.03270,0.97844,-0.17861,2023,6,8,16,21,6,846
5.99580,2.92250,-4.55000,0.00000,0.03148,0.97600,-0.17788,2023,6,8,16,21,6,858
5.99590,2.99250,-4.51500,0.00000,0.03294,0.97490,-0.17897,2023,6,8,16,21,6,869
5.99600,3.02750,-4.77750,0.00000,0.03074,0.97820,-0.17922,2023,6,8,16,21,6,880
5.99610,2.87000,-4.58500,0.00000,0.03306,0.97637,-0.17849,2023,6,8,16,21,6,891
5.99620,2.92250,-4.60250,0.00000,0.03196,0.97807,-0.17946,2023,6,8,16,21,6,902
5.99630,3.09750,-4.58500,0.00000,0.03355,0.97954,-0.17836,2023,6,8,16,21,6,913
5.99640,3.16750,-4.79500,0.00000,0.03087,0.97698,-0.17910,2023,6,8,16,21,6,924
5.99650,2.83500,-4.39250,0.00000,0.03026,0.97856,-0.17812,2023,6,8,16,21,6,935
5.99660,3.04500,-4.79500,0.00000,0.03538,0.97844,-0.17800,2023,6,8,16,21,6,946
5.99670,3.09750,-4.53250,0.00000,0.03367,0.97685,-0.17836,2023,6,8,16,21,6,958
5.99680,2.87000,-4.51500,0.00000,0.02952,0.97759,-0.17873,2023,6,8,16,21,6,969
5.99690,2.97500,-4.72500,0.00000,0.03416,0.97783,-0.17678,2023,6,8,16,21,6,980
5.99700,3.08000,-4.76000,0.00000,0.03160,0.97832,-0.17873,2023,6,8,16,21,6,991
5.99710,2.97500,-4.83000,0.00000,0.03123,0.97868,-0.18056,2023,6,8,16,21,6,2
5.99720,2.99250,-4.69000,0.00000,0.03306,0.97966,-0.18032,2023,6,8,16,21,6,13
5.99730,2.97500,-4.65500,0.00000,0.03209,0.97710,-0.17910,2023,6,8,16,21,6,24
5.99740,2.99250,-4.62000,0.00000,0.03172,0.97661,-0.17775,2023,6,8,16,21,6,35
5.99750,2.94000,-4.84750,0.00000,0.03172,0.97759,-0.17861,2023,6,8,16,21,6,46
5.99760,3.06250,-4.72500,0.00000,0.03221,0.97820,-0.17812,2023,6,8,16,21,6,58
5.99770,3.22000,-4.58500,0.00000,0.03318,0.97917,-0.17849,2023,6,8,16,21,6,69
5.99780,3.08000,-4.67250,0.00000,0.03196,0.97624,-0.17958,2023,6,8,16,21,6,80
5.99790,3.01000,-4.53250,0.00000,0.03318,0.97563,-0.17788,2023,6,8,16,21,6,91
5.99800,2.99250,-4.56750,0.00000,0.03355,0.97490,-0.17824,2023,6,8,16,21,6,102
5.99810,2.95750,-4.86500,0.00000,0.03233,0.97942,-0.17617,2023,6,8,16,21,6,113
5.99820,3.09750,-4.74250,0.00000,0.03294,0.97746,-0.18032,2023,6,8,16,21,6,124
5.99830,3.06250,-4.65500,0.00000,0.03355,0.97759,-0.17946,2023,6,8,16,21,6,135
5.99840,2.97500,-4.67250,0.00000,0.03123,0.97978,-0.17934,2023,6,8,16,21,6,146
5.99850,2.83500,-4.53250,0.00000,0.03233,0.97515,-0.17849,2023,6,8,16,21,6,158
5.99860,2.85250,-4.83000,0.00000,0.03123,0.97551,-0.17946,2023,6,8,16,21,6,169
5.99870,2.97500,-4.53250,0.00000,0.03184,0.97990,-0.17751,2023,6,8,16,21,6,180
5.99880,2.88750,-4.63750,0.00000,0.03355,0.97612,-0.17861,2023,6,8,16,21,6,191
5.99890,2.90500,-4.58500,0.00000,0.03245,0.97466,-0.17885,2023,6,8,16,21,6,202
5.99900,3.04500,-4.81250,0.00000,0.03209,0.97661,-0.17836,2023,6,8,16,21,6,213
5.99910,3.04500,-4.34000,0.00000,0.03196,0.97795,-0.17727,2023,6,8,16,21,6,224
5.99920,2.97500,-4.67250,0.00000,0.03160,0.97698,-0.17849,2023,6,8,16,21,6,235
5.99930,2.92250,-4.74250,0.00000,0.03233,0.97624,-0.17702,2023,6,8,16,21,6,246
5.99940,3.01000,-4.72500,0.00000,0.03245,0.97844,-0.17714,2023,6,8,16,21,6,258
5.99950,3.02750,-4.56750,0.00000,0.03196,0.97929,-0.17714,2023,6,8,16,21,6,269
5.99960,2.99250,-4.72500,0.00000,0.03282,0.97673,-0.17824,2023,6,8,16,21,6,280
5.99970,3.13250,-4.70750,0.00000,0.03331,0.97881,-0.17824,2023,6,8,16,21,6,291
5.99980,3.01000,-4.51500,0.00000,0.03209,0.97844,-0.17763,2023,6,8,16,21,6,302
5.99990,2.88750,-4.65500,0.00000,0.03245,0.97649,-0.17897,2023,6,8,16,21,6,313
6.00000,3.01000,-4.69000,0.00000,0.03111,0.97746,-0.17775,2023,6,8,16,21,6,324
6.00010,2.95750,-4.69000,0.00000,0.03306,0.97612,-0.17897,2023,6,8,16,21,6,335
6.00020,3.02750,-4.53250,0.00000,0.03135,0.97832,-0.17971,2023,6,8,16,21,6,346
6.00030,3.02750,-4.48000,0.00000,0.03172,0.97807,-0.17849,2023,6,8,16,21,6,358
6.00040,2.99250,-4.81250,0.00000,0.03111,0.97881,-0.17897,2023,6,8,16,21,6,369
6.00050,2.95750,-4.51500,0.00000,0.03294,0.97563,-0.17788,2023,6,8,16,21,6,380
6.00060,3.20250,-4.72500,0.00000,0.03099,0.97710,-0.17617,2023,6,8,16,21,6,391
6.00070,3.06250,-4.53250,0.00000,0.03306,0.97844,-0.17873,2023,6,8,16,21,6,402
6.00080,2.97500,-4.65500,0.00000,0.03209,0.97783,-0.17861,2023,6,8,16,21,6,413
6.00090,3.08000,-4.48000,0.00000,0.03294,0.97551,-0.17958,2023,6,8,16,21,6,424
6.00100,3.08000,-4.67250,0.00000,0.03172,0.97637,-0.17836,2023,6,8,16,21,6,435
6.00110,3.02750,-4.55000,0.00000,0.03172,0.97795,-0.17800,2023,6,8,16,21,6,446
6.00120,2.95750,-4.46250,0.00000,0.02965,0.97893,-0.17849,2023,6,8,16,21,6,458
6.00130,3.11500,-4.62000,0.00000,0.03221,0.97649,-0.17800,2023,6,8,16,21,6,469
6.00140,2.90500,-4.67250,0.00000,0.03355,0.97722,-0.17824,2023,6,8,16,21,6,480
6.00150,3.01000,-4.70750,0.00000,0.03172,0.97710,-0.17788,2023,6,8,16,21,6,491
6.00160,3.11500,-4.63750,0.00000,0.03221,0.97356,-0.17788,2023,6,8,16,21,6,502
6.00170,3.02750,-4.48000,0.00000,0.03367,0.97795,-0.17934,2023,6,8,16,21,6,513
6.00180,2.97500,-4.74250,0.00000,0.03099,0.97868,-0.17666,2023,6,8,16,21,6,524
6.00190,3.08000,-4.79500,0.00000,0.03331,0.97746,-0.17800,2023,6,8,16,21,6,535
6.00200,2.94000,-4.55000,0.00000,0.03184,0.97441,-0.17885,2023,6,8,16,21,6,546
6.00210,2.94000,-4.60250,0.00000,0.03172,0.97881,-0.17885,2023,6,8,16,21,6,558
6.00220,2.90500,-4.62000,0.00000,0.03355,0.97795,-0.17739,2023,6,8,16,21,6,569
6.00230,3.11500,-4.49750,0.00000,0.03233,0.97685,-0.17910,2023,6,8,16,21,6,580
6.00240,2.90500,-4.69000,0.00000,0.03489,0.97576,-0.17812,2023,6,8,16,21,6,591
6.00250,2.95750,-4.67250,0.00000,0.03404,0.97844,-0.17836,2023,6,8,16,21,6,602
6.00260,2.95750,-4.70750,0.00000,0.03087,0.97649,-0.17519,2023,6,8,16,21,6,613
6.00270,2.95750,-4.53250,0.00000,0.03135,0.97661,-0.17751,2023,6,8,16,21,6,624
6.00280,3.13250,-4.83000,0.00000,0.03257,0.97612,-0.17678,2023,6,8,16,21,6,635
6.00290,2.94000,-4.63750,0.00000,0.03367,0.97576,-0.17873,2023,6,8,16,21,6,646
6.00300,2.81750,-4.67250,0.00000,0.03160,0.97966,-0.17751,2023,6,8,16,21,6,658
6.00310,3.08000,-4.79500,0.00000,0.03172,0.97917,-0.17775,2023,6,8,16,21,6,669
6.00320,2.92250,-4.63750,0.00000,0.03270,0.97685,-0.17897,2023,6,8,16,21,6,680
6.00330,2.94000,-4.63750,0.00000,0.03270,0.97759,-0.17714,2023,6,8,16,21,6,691
6.00340,2.94000,-4.51500,0.00000,0.03172,0.97844,-0.17653,2023,6,8,16,21,6,702
6.00350,2.95750,-4.76000,0.00000,0.03282,0.97661,-0.17824,2023,6,8,16,21,6,713
6.00360,3.11500,-4.74250,0.00000,0.03123,0.97710,-0.18154,2023,6,8,16,21,6,724
6.00370,3.06250,-4.81250,0.00000,0.03270,0.97990,-0.17678,2023,6,8,16,21,6,735
6.00380,3.09750,-4.83000,0.00000,0.03233,0.97661,-0.17873,2023,6,8,16,21,6,746
6.00390,2.90500,-4.55000,0.00000,0.03209,0.97759,-0.17544,2023,6,8,16,21,6,758
6.00400,2.85250,-4.49750,0.00000,0.03318,0.97563,-0.17885,2023,6,8,16,21,6,769
6.00410,2.88750,-4.67250,0.00000,0.03233,0.97576,-0.17702,2023,6,8,16,21,6,780
6.00420,3.13250,-4.77750,0.00000,0.03404,0.97795,-0.17995,2023,6,8,16,21,6,791
6.00430,2.87000,-4.62000,0.00000,0.03306,0.97905,-0.17897,2023,6,8,16,21,6,802
6.00440,3.01000,-4.62000,0.00000,0.03306,0.97771,-0.17605,2023,6,8,16,21,6,813
6.00450,3.04500,-4.48000,0.00000,0.03282,0.98015,-0.17714,2023,6,8,16,21,6,824
6.00460,3.02750,-4.49750,0.00000,0.03331,0.97746,-0.17775,2023,6,8,16,21,6,835
6.00470,3.13250,-4.67250,0.00000,0.03367,0.97759,-0.17788,2023,6,8,16,21,6,846
6.00480,2.94000,-4.37500,0.00000,0.03123,0.98125,-0.18007,2023,6,8,16,21,6,858
6.00490,2.88750,-4.76000,0.00000,0.03428,0.97502,-0.17873,2023,6,8,16,21,6,869
6.00500,2.99250,-4.62000,0.00000,0.03392,0.97759,-0.17727,2023,6,8,16,21,6,880
6.00510,3.15000,-4.69000,0.00000,0.03013,0.97527,-0.17922,2023,6,8,16,21,6,891
6.00520,2.99250,-4.74250,0.00000,0.03111,0.97600,-0.17775,2023,6,8,16,21,6,902
6.00530,3.18500,-4.76000,0.00000,0.03026,0.97722,-0.18032,2023,6,8,16,21,6,913
6.00540,3.06250,-4.91750,0.00000,0.03221,0.97807,-0.18007,2023,6,8,16,21,6,924
6.00550,3.11500,-4.74250,0.00000,0.03172,0.97661,-0.17751,2023,6,8,16,21,6,935
6.00560,3.02750,-4.90000,0.00000,0.03123,0.97600,-0.17958,2023,6,8,16,21,6,946
6.00570,3.08000,-4.51500,0.00000,0.03209,0.97759,-0.17714,2023,6,8,16,21,6,958
6.00580,2.97500,-4.56750,0.00000,0.03233,0.97722,-0.17836,2023,6,8,16,21,6,969
6.00590,3.13250,-4.53250,0.00000,0.03148,0.97734,-0.18019,2023,6,8,16,21,6,980
6.00600,3.04500,-4.76000,0.00000,0.03184,0.97710,-0.17971,2023,6,8,16,21,6,991
6.00610,2.87000,-4.58500,0.00000,0.03172,0.97759,-0.18007,2023,6,8,16,21,6,2
6.00620,2.99250,-4.51500,0.00000,0.03331,0.97868,-0.17739,2023,6,8,16,21,6,13
6.00630,3.01000,-4.67250,0.00000,0.03221,0.97734,-0.17836,2023,6,8,16,21,6,24
6.00640,2.90500,-4.74250,0.00000,0.03355,0.97710,-0.17824,2023,6,8,16,21,6,35
6.00650,3.01000,-4.72500,0.00000,0.03355,0.97820,-0.17763,2023,6,8,16,21,6,46
6.00660,3.06250,-4.56750,0.00000,0.03367,0.97807,-0.17653,2023,6,8,16,21,6,58
6.00670,2.95750,-4.48000,0.00000,0.03184,0.97527,-0.17897,2023,6,8,16,21,6,69
6.00680,2.92250,-4.65500,0.00000,0.03184,0.97783,-0.17653,2023,6,8,16,21,6,80
6.00690,3.02750,-4.56750,0.00000,0.03282,0.97771,-0.17775,2023,6,8,16,21,6,91
6.00700,2.88750,-4.56750,0.00000,0.03099,0.97685,-0.17934,2023,6,8,16,21,6,102
6.00710,3.01000,-4.41000,0.00000,0.03062,0.97661,-0.17922,2023,6,8,16,21,6,113
6.00720,2.94000,-4.53250,0.00000,0.03221,0.97868,-0.17690,2023,6,8,16,21,6,124
6.00730,2.83500,-4.63750,0.00000,0.03209,0.97917,-0.17922,2023,6,8,16,21,6,135
6.00740,2.85250,-4.46250,0.00000,0.03233,0.97429,-0.17885,2023,6,8,16,21,6,146
6.00750,3.01000,-4.67250,0.00000,0.03294,0.97710,-0.18019,2023,6,8,16,21,6,158
6.00760,2.94000,-4.55000,0.00000,0.03282,0.97881,-0.18007,2023,6,8,16,21,6,169
6.00770,3.02750,-4.81250,0.00000,0.03355,0.97612,-0.17885,2023,6,8,16,21,6,180
6.00780,3.15000,-4.79500,0.00000,0.03221,0.97771,-0.17836,2023,6,8,16,21,6,191
6.00790,3.25500,-4.72500,0.00000,0.03050,0.97746,-0.17922,2023,6,8,16,21,6,202
6.00800,3.13250,-4.79500,0.00000,0.03233,0.97515,-0.17897,2023,6,8,16,21,6,213
6.00810,2.90500,-4.56750,0.00000,0.03074,0.97820,-0.17885,2023,6,8,16,21,6,224
6.00820,2.83500,-4.55000,0.00000,0.03074,0.97844,-0.17763,2023,6,8,16,21,6,235
6.00830,3.16750,-4.74250,0.00000,0.03331,0.97661,-0.17739,2023,6,8,16,21,6,246
6.00840,3.01000,-4.51500,0.00000,0.03306,0.97759,-0.17995,2023,6,8,16,21,6,258
6.00850,3.04500,-4.60250,0.00000,0.03184,0.97783,-0.17934,2023,6,8,16,21,6,269
6.00860,3.04500,-4.76000,0.00000,0.03294,0.97820,-0.17727,2023,6,8,16,21,6,280
6.00870,2.88750,-4.56750,0.00000,0.03209,0.97722,-0.17653,2023,6,8,16,21,6,291
6.00880,2.92250,-4.65500,0.00000,0.03172,0.97722,-0.18032,2023,6,8,16,21,6,302
6.00890,2.97500,-4.49750,0.00000,0.03270,0.97698,-0.17836,2023,6,8,16,21,6,313
6.00900,2.92250,-4.62000,0.00000,0.03196,0.97929,-0.18019,2023,6,8,16,21,6,324
6.00910,3.29000,-4.90000,0.00000,0.03245,0.97917,-0.17873,2023,6,8,16,21,6,335
6.00920,3.11500,-4.79500,0.00000,0.03111,0.97820,-0.17971,2023,6,8,16,21,6,346
6.00930,3.18500,-4.69000,0.00000,0.03062,0.97771,-0.18032,2023,6,8,16,21,6,358
6.00940,2.99250,-4.42750,0.00000,0.03087,0.97783,-0.17922,2023,6,8,16,21,6,369
6.00950,3.08000,-4.60250,0.00000,0.03026,0.97673,-0.17666,2023,6,8,16,21,6,380
6.00960,2.99250,-4.62000,0.00000,0.03392,0.97612,-0.17788,2023,6,8,16,21,6,391
6.00970,2.94000,-4.55000,0.00000,0.03282,0.97807,-0.18154,2023,6,8,16,21,6,402
6.00980,3.09750,-4.74250,0.00000,0.03355,0.97502,-0.17800,2023,6,8,16,21,6,413
6.00990,2.90500,-4.60250,0.00000,0.03209,0.97454,-0.17873,2023,6,8,16,21,6,424
6.01000,3.01000,-4.62000,0.00000,0.03282,0.97612,-0.17800,2023,6,8,16,21,6,435
6.01010,2.92250,-4.34000,0.00000,0.03270,0.97624,-0.17849,2023,6,8,16,21,6,446
6.01020,3.01000,-4.72500,0.00000,0.03367,0.97856,-0.17824,2023,6,8,16,21,6,458
6.01030,3.04500,-4.56750,0.00000,0.03172,0.97698,-0.17580,2023,6,8,16,21,6,469
6.01040,3.06250,-4.69000,0.00000,0.03282,0.97649,-0.17849,2023,6,8,16,21,6,480
6.01050,3.08000,-4.74250,0.00000,0.03026,0.97490,-0.17934,2023,6,8,16,21,6,491
6.01060,2.99250,-4.90000,0.00000,0.03172,0.97795,-0.18093,2023,6,8,16,21,6,502
6.01070,2.99250,-4.53250,0.00000,0.03233,0.97710,-0.17849,2023,6,8,16,21,6,513
6.01080,2.92250,-4.39250,0.00000,0.03294,0.97380,-0.17946,2023,6,8,16,21,6,524
6.01090,2.95750,-4.65500,0.00000,0.03196,0.97563,-0.17788,2023,6,8,16,21,6,535
6.01100,3.08000,-4.55000,0.00000,0.03160,0.97710,-0.17861,2023,6,8,16,21,6,546
6.01110,2.99250,-4.63750,0.00000,0.03221,0.97795,-0.17861,2023,6,8,16,21,6,558
6.01120,2.88750,-4.58500,0.00000,0.03257,0.97685,-0.17910,2023,6,8,16,21,6,569
6.01130,3.09750,-4.81250,0.00000,0.03245,0.97600,-0.17849,2023,6,8,16,21,6,580
6.01140,3.04500,-4.77750,0.00000,0.03087,0.97795,-0.17885,2023,6,8,16,21,6,591
6.01150,3.08000,-4.53250,0.00000,0.03172,0.97637,-0.17629,2023,6,8,16,21,6,602
6.01160,2.90500,-4.51500,0.00000,0.03404,0.97759,-0.17934,2023,6,8,16,21,6,613
6.01170,2.92250,-4.88250,0.00000,0.03465,0.97734,-0.17983,2023,6,8,16,21,6,624
6.01180,3.09750,-4.48000,0.00000,0.03416,0.97685,-0.17910,2023,6,8,16,21,6,635
6.01190,3.08000,-4.76000,0.00000,0.03355,0.97807,-0.18032,2023,6,8,16,21,6,646
6.01200,2.87000,-4.74250,0.00000,0.03416,0.97771,-0.17714,2023,6,8,16,21,7,8
6.01210,2.99250,-4.79500,0.00000,0.03270,0.97771,-0.17702,2023,6,8,16,21,7,19
6.01220,2.97500,-4.49750,0.00000,0.03221,0.97881,-0.17836,2023,6,8,16,21,7,30
6.01230,2.99250,-4.55000,0.00000,0.03148,0.97746,-0.17873,2023,6,8,16,21,7,41
6.01240,3.15000,-4.70750,0.00000,0.03123,0.97661,-0.17910,2023,6,8,16,21,7,52
6.01250,2.95750,-4.65500,0.00000,0.03245,0.97807,-0.17934,2023,6,8,16,21,7,63
6.01260,2.97500,-4.58500,0.00000,0.03526,0.97710,-0.17934,2023,6,8,16,21,7,74
6.01270,2.92250,-4.60250,0.00000,0.03184,0.97844,-0.17702,2023,6,8,16,21,7,85
6.01280,3.27250,-4.74250,0.00000,0.03318,0.97844,-0.17849,2023,6,8,16,21,7,96
6.01290,2.80000,-4.60250,0.00000,0.03392,0.97929,-0.17568,2023,6,8,16,21,7,108
6.01300,3.06250,-4.67250,0.00000,0.03306,0.97905,-0.17995,2023,6,8,16,21,7,119
6.01310,2.80000,-4.46250,0.00000,0.03245,0.97722,-0.18080,2023,6,8,16,21,7,130
6.01320,2.92250,-4.69000,0.00000,0.03111,0.97734,-0.17775,2023,6,8,16,21,7,141
6.01330,3.01000,-4.69000,0.00000,0.03294,0.97539,-0.17812,2023,6,8,16,21,7,152
6.01340,2.92250,-4.56750,0.00000,0.03123,0.97929,-0.17897,2023,6,8,16,21,7,163
6.01350,2.97500,-4.44500,0.00000,0.03196,0.97881,-0.17690,2023,6,8,16,21,7,174
6.01360,2.80000,-4.49750,0.00000,0.03392,0.97759,-0.17678,2023,6,8,16,21,7,185
6.01370,3.08000,-4.67250,0.00000,0.03209,0.97624,-0.17971,2023,6,8,16,21,7,196
6.01380,3.06250,-4.46250,0.00000,0.03294,0.97722,-0.17897,2023,6,8,16,21,7,208
6.01390,3.09750,-4.74250,0.00000,0.03148,0.97588,-0.17763,2023,6,8,16,21,7,219
6.01400,2.85250,-4.49750,0.00000,0.03318,0.97734,-0.17714,2023,6,8,16,21,7,230
6.01410,2.85250,-4.42750,0.00000,0.03367,0.97868,-0.18007,2023,6,8,16,21,7,241
6.01420,3.06250,-4.72500,0.00000,0.03270,0.97734,-0.17836,2023,6,8,16,21,7,252
6.01430,2.92250,-4.42750,0.00000,0.03172,0.97771,-0.17910,2023,6,8,16,21,7,263
6.01440,2.88750,-4.67250,0.00000,0.03087,0.97563,-0.17958,2023,6,8,16,21,7,274
6.01450,2.97500,-4.55000,0.00000,0.03245,0.97820,-0.17946,2023,6,8,16,21,7,285
6.01460,2.88750,-4.62000,0.00000,0.03221,0.97710,-0.17751,2023,6,8,16,21,7,296
6.01470,2.74750,-4.56750,0.00000,0.03160,0.97722,-0.17897,2023,6,8,16,21,7,308
6.01480,3.20250,-4.69000,0.00000,0.03257,0.97661,-0.17824,2023,6,8,16,21,7,319
6.01490,2.85250,-4.49750,0.00000,0.03379,0.97710,-0.17971,2023,6,8,16,21,7,330
6.01500,2.90500,-4.69000,0.00000,0.03050,0.97722,-0.18129,2023,6,8,16,21,7,341
6.01510,3.02750,-4.79500,0.00000,0.03123,0.97649,-0.17861,2023,6,8,16,21,7,352
6.01520,2.95750,-4.65500,0.00000,0.03379,0.97710,-0.17702,2023,6,8,16,21,7,363
6.01530,2.88750,-4.42750,0.00000,0.03196,0.97820,-0.17897,2023,6,8,16,21,7,374
6.01540,2.92250,-4.67250,0.00000,0.03172,0.97868,-0.17849,2023,6,8,16,21,7,385
6.01550,3.01000,-4.86500,0.00000,0.03221,0.97649,-0.17873,2023,6,8,16,21,7,396
6.01560,2.97500,-4.62000,0.00000,0.03196,0.97478,-0.17910,2023,6,8,16,21,7,408
6.01570,2.94000,-4.53250,0.00000,0.03074,0.97710,-0.17983,2023,6,8,16,21,7,419
6.01580,2.99250,-4.65500,0.00000,0.03209,0.97612,-0.17836,2023,6,8,16,21,7,430
6.01590,3.08000,-4.83000,0.00000,0.02928,0.97759,-0.17995,2023,6,8,16,21,7,441
6.01600,3.11500,-4.76000,0.00000,0.03379,0.97868,-0.18068,2023,6,8,16,21,7,452
6.01610,3.06250,-4.77750,0.00000,0.03257,0.97649,-0.17983,2023,6,8,16,21,7,463
6.01620,2.88750,-4.65500,0.00000,0.03184,0.97710,-0.18080,2023,6,8,16,21,7,474
6.01630,3.02750,-4.79500,0.00000,0.03135,0.97734,-0.18044,2023,6,8,16,21,7,485
6.01640,2.99250,-4.60250,0.00000,0.03160,0.97600,-0.17971,2023,6,8,16,21,7,496
6.01650,2.87000,-4.69000,0.00000,0.03196,0.97685,-0.18202,2023,6,8,16,21,7,508
6.01660,2.97500,-4.60250,0.00000,0.03245,0.97771,-0.18032,2023,6,8,16,21,7,519
6.01670,2.97500,-4.67250,0.00000,0.03257,0.97637,-0.17824,2023,6,8,16,21,7,530
6.01680,2.78250,-4.41000,0.00000,0.03367,0.97734,-0.17873,2023,6,8,16,21,7,541
6.01690,3.09750,-4.56750,0.00000,0.03270,0.97673,-0.18056,2023,6,8,16,21,7,552
6.01700,2.99250,-4.63750,0.00000,0.03160,0.97515,-0.18105,2023,6,8,16,21,7,563
6.01710,2.94000,-4.72500,0.00000,0.03074,0.97685,-0.17958,2023,6,8,16,21,7,574
6.01720,3.08000,-4.67250,0.00000,0.03294,0.98015,-0.18093,2023,6,8,16,21,7,585
6.01730,3.01000,-4.48000,0.00000,0.03209,0.97624,-0.18056,2023,6,8,16,21,7,596
6.01740,3.29000,-4.76000,0.00000,0.03074,0.97600,-0.17983,2023,6,8,16,21,7,608
6.01750,3.02750,-4.76000,0.00000,0.03282,0.97393,-0.18068,2023,6,8,16,21,7,619
6.01760,3.01000,-4.58500,0.00000,0.03453,0.97832,-0.18178,2023,6,8,16,21,7,630
6.01770,2.94000,-4.51500,0.00000,0.03245,0.97588,-0.18129,2023,6,8,16,21,7,641
6.01780,3.23750,-4.72500,0.00000,0.03282,0.98003,-0.18166,2023,6,8,16,21,7,652
6.01790,2.92250,-4.51500,0.00000,0.03233,0.97807,-0.18117,2023,6,8,16,21,7,663
6.01800,2.88750,-4.42750,0.00000,0.03172,0.97746,-0.18044,2023,6,8,16,21,7,674
6.01810,2.87000,-4.67250,0.00000,0.03221,0.97746,-0.18129,2023,6,8,16,21,7,685
6.01820,3.08000,-4.70750,0.00000,0.03184,0.97783,-0.18044,2023,6,8,16,21,7,696
6.01830,3.01000,-4.88250,0.00000,0.03257,0.97649,-0.18117,2023,6,8,16,21,7,708
6.01840,2.90500,-4.55000,0.00000,0.03038,0.97710,-0.18288,2023,6,8,16,21,7,719
6.01850,3.18500,-4.58500,0.00000,0.03087,0.97649,-0.17995,2023,6,8,16,21,7,730
6.01860,2.99250,-4.30500,0.00000,0.03355,0.97637,-0.18044,2023,6,8,16,21,7,741
6.01870,2.94000,-4.69000,0.00000,0.03209,0.97600,-0.18154,2023,6,8,16,21,7,752
6.01880,3.11500,-4.65500,0.00000,0.03196,0.97624,-0.18019,2023,6,8,16,21,7,763
6.01890,2.90500,-4.51500,0.00000,0.03038,0.97527,-0.18129,2023,6,8,16,21,7,774
6.01900,3.29000,-4.67250,0.00000,0.03196,0.97820,-0.17922,2023,6,8,16,21,7,785
6.01910,3.11500,-4.58500,0.00000,0.03233,0.97637,-0.18044,2023,6,8,16,21,7,796
6.01920,3.20250,-4.63750,0.00000,0.03221,0.97637,-0.18178,2023,6,8,16,21,7,808
6.01930,3.15000,-4.67250,0.00000,0.03148,0.97990,-0.18032,2023,6,8,16,21,7,819
6.01940,3.01000,-4.67250,0.00000,0.03123,0.97624,-0.17958,2023,6,8,16,21,7,830
6.01950,3.15000,-4.58500,0.00000,0.03318,0.97429,-0.18227,2023,6,8,16,21,7,841
6.01960,3.01000,-4.83000,0.00000,0.03148,0.97698,-0.18068,2023,6,8,16,21,7,852
6.01970,2.94000,-4.63750,0.00000,0.03099,0.97856,-0.18032,2023,6,8,16,21,7,863
6.01980,2.94000,-4.74250,0.00000,0.03379,0.97698,-0.18141,2023,6,8,16,21,7,874
6.01990,2.85250,-4.60250,0.00000,0.03160,0.97795,-0.18044,2023,6,8,16,21,7,885
6.02000,3.09750,-4.70750,0.00000,0.03416,0.97759,-0.17812,2023,6,8,16,21,7,896
6.02010,3.13250,-4.56750,0.00000,0.03245,0.97722,-0.17873,2023,6,8,16,21,7,908
6.02020,3.15000,-4.95250,0.00000,0.03111,0.97698,-0.17922,2023,6,8,16,21,7,919
6.02030,2.94000,-4.48000,0.00000,0.03257,0.97661,-0.17922,2023,6,8,16,21,7,930
6.02040,2.90500,-4.74250,0.00000,0.03026,0.97649,-0.18044,2023,6,8,16,21,7,941
6.02050,3.09750,-4.62000,0.00000,0.03343,0.97783,-0.17885,2023,6,8,16,21,7,952
6.02060,2.94000,-4.58500,0.00000,0.03087,0.97893,-0.17971,2023,6,8,16,21,7,963
6.02070,3.06250,-4.69000,0.00000,0.03294,0.97893,-0.18117,2023,6,8,16,21,7,974
6.02080,3.04500,-4.67250,0.00000,0.03135,0.97820,-0.17995,2023,6,8,16,21,7,985
6.02090,2.95750,-4.70750,0.00000,0.03172,0.97454,-0.17873,2023,6,8,16,21,7,996
6.02100,3.01000,-4.58500,0.00000,0.03233,0.97734,-0.18251,2023,6,8,16,21,7,8
6.02110,2.95750,-4.49750,0.00000,0.03453,0.97710,-0.18044,2023,6,8,16,21,7,19
6.02120,3.11500,-4.76000,0.00000,0.03026,0.97673,-0.17971,2023,6,8,16,21,7,30
6.02130,2.92250,-4.55000,0.00000,0.03233,0.97612,-0.17995,2023,6,8,16,21,7,41
6.02140,3.04500,-4.65500,0.00000,0.03233,0.97685,-0.17824,2023,6,8,16,21,7,52
6.02150,3.11500,-4.53250,0.00000,0.03123,0.97698,-0.17812,2023,6,8,16,21,7,63
6.02160,2.97500,-4.69000,0.00000,0.03209,0.97771,-0.18093,2023,6,8,16,21,7,74
6.02170,2.87000,-4.69000,0.00000,0.03111,0.97942,-0.17641,2023,6,8,16,21,7,85
6.02180,3.04500,-4.55000,0.00000,0.03074,0.97661,-0.17800,2023,6,8,16,21,7,96
6.02190,3.01000,-4.41000,0.00000,0.03318,0.97490,-0.17885,2023,6,8,16,21,7,108
6.02200,2.94000,-4.58500,0.00000,0.03270,0.97588,-0.17910,2023,6,8,16,21,7,119
6.02210,3.02750,-4.76000,0.00000,0.03257,0.97734,-0.17922,2023,6,8,16,21,7,130
6.02220,3.11500,-4.70750,0.00000,0.03087,0.97539,-0.18068,2023,6,8,16,21,7,141
6.02230,2.83500,-4.69000,0.00000,0.03196,0.97685,-0.17958,2023,6,8,16,21,7,152
6.02240,3.04500,-4.63750,0.00000,0.03209,0.97746,-0.17727,2023,6,8,16,21,7,163
6.02250,3.09750,-4.69000,0.00000,0.03111,0.97942,-0.17800,2023,6,8,16,21,7,174
6.02260,3.04500,-4.69000,0.00000,0.03343,0.97746,-0.17812,2023,6,8,16,21,7,185
6.02270,3.09750,-4.72500,0.00000,0.03404,0.97576,-0.17775,2023,6,8,16,21,7,196
6.02280,2.92250,-4.48000,0.00000,0.03270,0.97905,-0.17971,2023,6,8,16,21,7,208
6.02290,2.81750,-4.76000,0.00000,0.03233,0.97612,-0.17922,2023,6,8,16,21,7,219
6.02300,3.18500,-4.69000,0.00000,0.03306,0.97624,-0.17739,2023,6,8,16,21,7,230
6.02310,2.76500,-4.60250,0.00000,0.03160,0.97759,-0.17739,2023,6,8,16,21,7,241
6.02320,2.85250,-4.53250,0.00000,0.03221,0.97881,-0.17641,2023,6,8,16,21,7,252
6.02330,3.11500,-4.63750,0.00000,0.03099,0.97698,-0.17800,2023,6,8,16,21,7,263
6.02340,3.04500,-4.67250,0.00000,0.03318,0.97624,-0.17971,2023,6,8,16,21,7,274
6.02350,3.08000,-4.84750,0.00000,0.03196,0.97868,-0.17800,2023,6,8,16,21,7,285
6.02360,2.78250,-4.76000,0.00000,0.03343,0.97734,-0.17861,2023,6,8,16,21,7,296
6.02370,3.09750,-4.42750,0.00000,0.03331,0.97942,-0.17812,2023,6,8,16,21,7,308
6.02380,3.11500,-4.60250,0.00000,0.03099,0.97710,-0.17690,2023,6,8,16,21,7,319
6.02390,2.83500,-4.42750,0.00000,0.03074,0.97356,-0.17775,2023,6,8,16,21,7,330
6.02400,3.09750,-4.72500,0.00000,0.03062,0.97649,-0.17751,2023,6,8,16,21,7,341
6.02410,2.90500,-4.49750,0.00000,0.03184,0.97661,-0.18154,2023,6,8,16,21,7,352
6.02420,3.01000,-4.83000,0.00000,0.03526,0.97710,-0.17775,2023,6,8,16,21,7,363
6.02430,3.11500,-4.76000,0.00000,0.03416,0.97673,-0.17800,2023,6,8,16,21,7,374
6.02440,2.83500,-4.58500,0.00000,0.03355,0.97612,-0.17605,2023,6,8,16,21,7,385
6.02450,2.97500,-4.72500,0.00000,0.03221,0.97856,-0.17775,2023,6,8,16,21,7,396
6.02460,3.04500,-4.69000,0.00000,0.03172,0.97649,-0.17641,2023,6,8,16,21,7,408
6.02470,2.85250,-4.39250,0.00000,0.03343,0.97795,-0.17897,2023,6,8,16,21,7,419
6.02480,2.90500,-4.67250,0.00000,0.03087,0.97807,-0.17788,2023,6,8,16,21,7,430
6.02490,3.15000,-4.56750,0.00000,0.03379,0.97698,-0.17739,2023,6,8,16,21,7,441
6.02500,3.04500,-4.60250,0.00000,0.03160,0.97539,-0.17971,2023,6,8,16,21,7,452
6.02510,2.95750,-4.65500,0.00000,0.03428,0.97905,-0.17873,2023,6,8,16,21,7,463
6.02520,3.20250,-4.65500,0.00000,0.03160,0.97746,-0.18007,2023,6,8,16,21,7,474
6.02530,3.16750,-4.72500,0.00000,0.03379,0.97600,-0.17861,2023,6,8,16,21,7,485
6.02540,2.99250,-4.48000,0.00000,0.03282,0.97759,-0.17800,2023,6,8,16,21,7,496
6.02550,2.97500,-4.48000,0.00000,0.03270,0.97746,-0.17885,2023,6,8,16,21,7,508
6.02560,3.04500,-4.58500,0.00000,0.03123,0.97771,-0.17775,2023,6,8,16,21,7,519
6.02570,3.01000,-4.63750,0.00000,0.03172,0.97588,-0.17763,2023,6,8,16,21,7,530
6.02580,2.85250,-4.62000,0.00000,0.03404,0.97893,-0.17800,2023,6,8,16,21,7,541
6.02590,2.83500,-4.67250,0.00000,0.03245,0.97759,-0.17934,2023,6,8,16,21,7,552
6.02600,2.99250,-4.72500,0.00000,0.03184,0.97954,-0.17958,2023,6,8,16,21,7,563
6.02610,2.87000,-4.51500,0.00000,0.03172,0.97661,-0.17824,2023,6,8,16,21,7,574
6.02620,2.90500,-4.48000,0.00000,0.03306,0.97868,-0.17885,2023,6,8,16,21,7,585
6.02630,2.85250,-4.49750,0.00000,0.02952,0.97820,-0.18032,2023,6,8,16,21,7,596
6.02640,2.88750,-4.46250,0.00000,0.03367,0.97637,-0.17824,2023,6,8,16,21,7,608
6.02650,3.08000,-4.46250,0.00000,0.03074,0.97881,-0.17922,2023,6,8,16,21,7,619
6.02660,2.97500,-4.48000,0.00000,0.03404,0.97820,-0.17824,2023,6,8,16,21,7,630
6.02670,3.20250,-4.74250,0.00000,0.03379,0.97783,-0.17922,2023,6,8,16,21,7,641
6.02680,2.94000,-4.62000,0.00000,0.03196,0.97576,-0.17861,2023,6,8,16,21,7,652
6.02690,3.02750,-4.67250,0.00000,0.03184,0.97563,-0.17849,2023,6,8,16,21,7,663
6.02700,3.11500,-4.53250,0.00000,0.03038,0.97783,-0.17751,2023,6,8,16,21,7,674
6.02710,2.94000,-4.62000,0.00000,0.03270,0.97722,-0.17849,2023,6,8,16,21,7,685
6.02720,2.88750,-4.60250,0.00000,0.03282,0.97685,-0.17849,2023,6,8,16,21,7,696
6.02730,3.04500,-4.51500,0.00000,0.03355,0.97881,-0.17983,2023,6,8,16,21,7,708
6.02740,3.11500,-4.77750,0.00000,0.03367,0.97820,-0.17897,2023,6,8,16,21,7,719
6.02750,3.13250,-4.72500,0.00000,0.03196,0.97734,-0.17885,2023,6,8,16,21,7,730
6.02760,2.90500,-4.62000,0.00000,0.03221,0.97490,-0.17812,2023,6,8,16,21,7,741
6.02770,3.04500,-4.70750,0.00000,0.03233,0.98064,-0.17958,2023,6,8,16,21,7,752
6.02780,3.23750,-4.53250,0.00000,0.03160,0.97795,-0.17861,2023,6,8,16,21,7,763
6.02790,3.04500,-4.70750,0.00000,0.03318,0.97844,-0.17666,2023,6,8,16,21,7,774
6.02800,2.80000,-4.60250,0.00000,0.03148,0.97783,-0.18117,2023,6,8,16,21,7,785
6.02810,2.99250,-4.77750,0.00000,0.03294,0.97832,-0.17800,2023,6,8,16,21,7,796
6.02820,2.97500,-4.60250,0.00000,0.03343,0.98015,-0.17836,2023,6,8,16,21,7,808
6.02830,3.09750,-4.62000,0.00000,0.03367,0.97502,-0.18007,2023,6,8,16,21,7,819
6.02840,2.94000,-4.46250,0.00000,0.03087,0.97734,-0.17995,2023,6,8,16,21,7,830
6.02850,2.97500,-4.86500,0.00000,0.03087,0.97759,-0.17958,2023,6,8,16,21,7,841
6.02860,3.16750,-4.77750,0.00000,0.03282,0.97746,-0.17775,2023,6,8,16,21,7,852
6.02870,2.95750,-4.48000,0.00000,0.03135,0.97759,-0.17727,2023,6,8,16,21,7,863
6.02880,2.87000,-4.56750,0.00000,0.03306,0.97856,-0.17922,2023,6,8,16,21,7,874
6.02890,2.90500,-4.39250,0.00000,0.03355,0.97502,-0.17910,2023,6,8,16,21,7,885
6.02900,3.15000,-4.55000,0.00000,0.03428,0.97563,-0.17836,2023,6,8,16,21,7,896
6.02910,3.04500,-4.65500,0.00000,0.03306,0.97893,-0.17727,2023,6,8,16,21,7,908
6.02920,3.06250,-4.60250,0.00000,0.03294,0.97856,-0.17946,2023,6,8,16,21,7,919
6.02930,2.90500,-4.69000,0.00000,0.03209,0.97685,-0.17910,2023,6,8,16,21,7,930
6.02940,3.01000,-4.55000,0.00000,0.03172,0.97563,-0.17885,2023,6,8,16,21,7,941
6.02950,3.08000,-4.51500,0.00000,0.03196,0.97637,-0.17788,2023,6,8,16,21,7,952
6.02960,2.99250,-4.74250,0.00000,0.03135,0.97685,-0.17751,2023,6,8,16,21,7,963
6.02970,2.97500,-4.69000,0.00000,0.03282,0.97685,-0.17836,2023,6,8,16,21,7,974
6.02980,2.99250,-4.74250,0.00000,0.03148,0.97624,-0.17934,2023,6,8,16,21,7,985
6.02990,3.06250,-4.70750,0.00000,0.03526,0.97905,-0.17751,2023,6,8,16,21,7,996
6.03000,2.95750,-4.56750,0.00000,0.03416,0.97527,-0.17983,2023,6,8,16,21,7,8
6.03010,2.95750,-4.72500,0.00000,0.03257,0.97576,-0.17824,2023,6,8,16,21,7,19
6.03020,3.08000,-4.74250,0.00000,0.03245,0.97698,-0.17702,2023,6,8,16,21,7,30
6.03030,3.15000,-4.65500,0.00000,0.03111,0.97710,-0.18007,2023,6,8,16,21,7,41
6.03040,2.95750,-4.44500,0.00000,0.03196,0.97734,-0.17763,2023,6,8,16,21,7,52
6.03050,2.88750,-4.58500,0.00000,0.03245,0.97856,-0.17922,2023,6,8,16,21,7,63
6.03060,2.85250,-4.34000,0.00000,0.03087,0.97820,-0.17641,2023,6,8,16,21,7,74
6.03070,2.94000,-4.63750,0.00000,0.03184,0.97637,-0.17531,2023,6,8,16,21,7,85
6.03080,2.90500,-4.58500,0.00000,0.03087,0.97698,-0.17739,2023,6,8,16,21,7,96
6.03090,2.73000,-4.58500,0.00000,0.03257,0.97710,-0.17824,2023,6,8,16,21,7,108
6.03100,3.11500,-4.67250,0.00000,0.03379,0.97698,-0.17763,2023,6,8,16,21,7,119
6.03110,3.04500,-4.86500,0.00000,0.03477,0.97917,-0.17714,2023,6,8,16,21,7,130
6.03120,3.09750,-4.51500,0.00000,0.03355,0.97612,-0.18007,2023,6,8,16,21,7,141
6.03130,2.92250,-4.60250,0.00000,0.03282,0.97734,-0.17885,2023,6,8,16,21,7,152
6.03140,3.20250,-4.86500,0.00000,0.03331,0.97868,-0.17971,2023,6,8,16,21,7,163
6.03150,3.16750,-4.70750,0.00000,0.03306,0.97722,-0.17739,2023,6,8,16,21,7,174
6.03160,3.23750,-4.72500,0.00000,0.03331,0.97771,-0.17812,2023,6,8,16,21,7,185
6.03170,2.85250,-4.48000,0.00000,0.02977,0.97588,-0.17983,2023,6,8,16,21,7,196
6.03180,2.92250,-4.48000,0.00000,0.03013,0.97759,-0.17775,2023,6,8,16,21,7,208
6.03190,3.09750,-4.69000,0.00000,0.03184,0.97722,-0.17983,2023,6,8,16,21,7,219
6.03200,2.99250,-4.63750,0.00000,0.03160,0.97759,-0.17873,2023,6,8,16,21,7,230
6.03210,3.01000,-4.70750,0.00000,0.03209,0.97771,-0.17873,2023,6,8,16,21,7,241
6.03220,2.80000,-4.69000,0.00000,0.03294,0.97905,-0.17885,2023,6,8,16,21,7,252
6.03230,3.08000,-4.42750,0.00000,0.03209,0.97612,-0.17788,2023,6,8,16,21,7,263
6.03240,3.02750,-4.70750,0.00000,0.03392,0.97722,-0.17824,2023,6,8,16,21,7,274
6.03250,2.92250,-4.63750,0.00000,0.03209,0.97771,-0.17653,2023,6,8,16,21,7,285
6.03260,2.94000,-4.74250,0.00000,0.03343,0.97722,-0.17873,2023,6,8,16,21,7,296
6.03270,3.01000,-4.90000,0.00000,0.03270,0.97832,-0.17995,2023,6,8,16,21,7,308
6.03280,2.90500,-4.74250,0.00000,0.03270,0.97722,-0.17861,2023,6,8,16,21,7,319
6.03290,2.90500,-4.60250,0.00000,0.03233,0.97807,-0.17910,2023,6,8,16,21,7,330
6.03300,2.94000,-4.74250,0.00000,0.03306,0.97515,-0.17775,2023,6,8,16,21,7,341
6.03310,3.09750,-4.62000,0.00000,0.03282,0.97942,-0.17727,2023,6,8,16,21,7,352
6.03320,3.08000,-4.55000,0.00000,0.03331,0.97746,-0.17849,2023,6,8,16,21,7,363
6.03330,3.08000,-4.83000,0.00000,0.03074,0.97685,-0.17934,2023,6,8,16,21,7,374
6.03340,3.09750,-4.56750,0.00000,0.03184,0.97856,-0.17873,2023,6,8,16,21,7,385
6.03350,3.15000,-4.58500,0.00000,0.03245,0.97832,-0.17690,2023,6,8,16,21,7,396
6.03360,3.01000,-4.60250,0.00000,0.03306,0.97661,-0.17666,2023,6,8,16,21,7,408
6.03370,2.95750,-4.72500,0.00000,0.03196,0.97637,-0.17873,2023,6,8,16,21,7,419
6.03380,2.95750,-4.77750,0.00000,0.03245,0.97795,-0.17702,2023,6,8,16,21,7,430
6.03390,2.78250,-4.81250,0.00000,0.03282,0.97868,-0.17861,2023,6,8,16,21,7,441
6.03400,2.94000,-4.55000,0.00000,0.03343,0.97807,-0.17995,2023,6,8,16,21,7,452
6.03410,3.08000,-4.84750,0.00000,0.03245,0.97893,-0.17605,2023,6,8,16,21,7,463
6.03420,2.85250,-4.56750,0.00000,0.03331,0.97734,-0.17946,2023,6,8,16,21,7,474
6.03430,3.04500,-4.56750,0.00000,0.03209,0.97502,-0.17690,2023,6,8,16,21,7,485
6.03440,3.18500,-4.70750,0.00000,0.03611,0.97563,-0.17922,2023,6,8,16,21,7,496
6.03450,3.13250,-4.51500,0.00000,0.03416,0.97722,-0.17873,2023,6,8,16,21,7,508
6.03460,2.95750,-4.74250,0.00000,0.03233,0.97771,-0.17995,2023,6,8,16,21,7,519
6.03470,2.99250,-4.44500,0.00000,0.03245,0.97576,-0.17678,2023,6,8,16,21,7,530
6.03480,3.01000,-4.67250,0.00000,0.03135,0.97600,-0.17861,2023,6,8,16,21,7,541
6.03490,3.13250,-4.62000,0.00000,0.03148,0.97588,-0.17995,2023,6,8,16,21,7,552
6.03500,2.90500,-4.81250,0.00000,0.03099,0.97685,-0.17531,2023,6,8,16,21,7,563
6.03510,3.02750,-4.90000,0.00000,0.03428,0.97698,-0.17763,2023,6,8,16,21,7,574
6.03520,3.09750,-4.65500,0.00000,0.03148,0.97881,-0.17849,2023,6,8,16,21,7,585
6.03530,2.87000,-4.74250,0.00000,0.03233,0.97795,-0.17861,2023,6,8,16,21,7,596
6.03540,3.02750,-4.72500,0.00000,0.03050,0.97820,-0.17836,2023,6,8,16,21,7,608
6.03550,3.04500,-4.42750,0.00000,0.03148,0.97710,-0.17824,2023,6,8,16,21,7,619
6.03560,3.11500,-4.81250,0.00000,0.03221,0.97722,-0.17714,2023,6,8,16,21,7,630
6.03570,3.09750,-4.63750,0.00000,0.03111,0.97771,-0.17751,2023,6,8,16,21,7,641
6.03580,3.02750,-4.65500,0.00000,0.03245,0.97710,-0.17739,2023,6,8,16,21,7,652
6.03590,3.13250,-4.72500,0.00000,0.03221,0.97539,-0.17836,2023,6,8,16,21,7,663
6.03600,2.99250,-4.69000,0.00000,0.03209,0.97807,-0.18056,2023,6,8,16,21,7,674
6.03610,2.85250,-4.74250,0.00000,0.03379,0.97612,-0.17812,2023,6,8,16,21,7,685
6.03620,3.04500,-4.60250,0.00000,0.03160,0.97624,-0.18007,2023,6,8,16,21,7,696
6.03630,2.97500,-4.69000,0.00000,0.03209,0.97868,-0.17873,2023,6,8,16,21,7,708
6.03640,2.95750,-4.65500,0.00000,0.03257,0.97527,-0.17714,2023,6,8,16,21,7,719
6.03650,3.13250,-4.49750,0.00000,0.03221,0.97563,-0.17751,2023,6,8,16,21,7,730
6.03660,2.90500,-4.86500,0.00000,0.03135,0.97820,-0.18019,2023,6,8,16,21,7,741
6.03670,2.99250,-4.74250,0.00000,0.03270,0.97710,-0.17678,2023,6,8,16,21,7,752
6.03680,2.94000,-4.70750,0.00000,0.03221,0.97576,-0.18080,2023,6,8,16,21,7,763
6.03690,2.80000,-4.56750,0.00000,0.03111,0.97917,-0.17897,2023,6,8,16,21,7,774
6.03700,2.81750,-4.62000,0.00000,0.03209,0.97746,-0.17849,2023,6,8,16,21,7,785
6.03710,3.11500,-4.69000,0.00000,0.03184,0.97807,-0.17678,2023,6,8,16,21,7,796
6.03720,3.01000,-4.39250,0.00000,0.03306,0.97612,-0.17910,2023,6,8,16,21,7,808
6.03730,2.95750,-4.70750,0.00000,0.03282,0.97868,-0.17751,2023,6,8,16,21,7,819
6.03740,2.87000,-4.42750,0.00000,0.03367,0.97722,-0.17727,2023,6,8,16,21,7,830
6.03750,2.85250,-4.67250,0.00000,0.03245,0.97978,-0.18056,2023,6,8,16,21,7,841
6.03760,3.04500,-4.67250,0.00000,0.03135,0.97832,-0.17763,2023,6,8,16,21,7,852
6.03770,2.95750,-4.70750,0.00000,0.03245,0.97624,-0.18007,2023,6,8,16,21,7,863
6.03780,3.04500,-4.70750,0.00000,0.03233,0.97710,-0.17849,2023,6,8,16,21,7,874
6.03790,2.97500,-4.56750,0.00000,0.03343,0.97612,-0.17873,2023,6,8,16,21,7,885
6.03800,2.92250,-4.81250,0.00000,0.03245,0.97771,-0.17836,2023,6,8,16,21,7,896
6.03810,2.95750,-4.70750,0.00000,0.03087,0.97722,-0.17971,2023,6,8,16,21,7,908
6.03820,2.99250,-4.55000,0.00000,0.03282,0.97527,-0.17836,2023,6,8,16,21,7,919
6.03830,3.23750,-4.65500,0.00000,0.03135,0.97771,-0.17885,2023,6,8,16,21,7,930
6.03840,2.94000,-4.35750,0.00000,0.03477,0.97637,-0.17727,2023,6,8,16,21,7,941
6.03850,3.09750,-4.58500,0.00000,0.03392,0.97527,-0.17995,2023,6,8,16,21,7,952
6.03860,3.09750,-4.72500,0.00000,0.03160,0.97856,-0.17995,2023,6,8,16,21,7,963
6.03870,2.97500,-4.84750,0.00000,0.03270,0.97795,-0.17849,2023,6,8,16,21,7,974
6.03880,3.06250,-4.88250,0.00000,0.03184,0.97917,-0.17812,2023,6,8,16,21,7,985
6.03890,2.74750,-4.41000,0.00000,0.03294,0.97966,-0.17800,2023,6,8,16,21,7,996
6.03900,2.95750,-4.60250,0.00000,0.03111,0.97844,-0.18056,2023,6,8,16,21,7,8
6.03910,3.13250,-4.81250,0.00000,0.03257,0.97539,-0.17824,2023,6,8,16,21,7,19
6.03920,3.02750,-4.55000,0.00000,0.03184,0.97454,-0.18105,2023,6,8,16,21,7,30
6.03930,3.08000,-4.70750,0.00000,0.03099,0.98076,-0.17763,2023,6,8,16,21,7,41
6.03940,3.23750,-4.77750,0.00000,0.03196,0.97881,-0.17885,2023,6,8,16,21,7,52
6.03950,2.87000,-4.48000,0.00000,0.03062,0.97734,-0.17946,2023,6,8,16,21,7,63
6.03960,2.90500,-4.58500,0.00000,0.03392,0.97771,-0.17958,2023,6,8,16,21,7,74
6.03970,3.01000,-4.67250,0.00000,0.03343,0.97722,-0.18032,2023,6,8,16,21,7,85
6.03980,2.95750,-4.53250,0.00000,0.03172,0.97527,-0.17922,2023,6,8,16,21,7,96
6.03990,2.80000,-4.46250,0.00000,0.03221,0.97917,-0.17714,2023,6,8,16,21,7,108
6.04000,3.04500,-4.74250,0.00000,0.03050,0.97844,-0.17922,2023,6,8,16,21,7,119
6.04010,3.16750,-4.65500,0.00000,0.03221,0.97795,-0.17897,2023,6,8,16,21,7,130
6.04020,2.88750,-4.51500,0.00000,0.03257,0.97868,-0.17775,2023,6,8,16,21,7,141
6.04030,3.13250,-4.69000,0.00000,0.03294,0.97759,-0.17751,2023,6,8,16,21,7,152
6.04040,3.02750,-4.55000,0.00000,0.03209,0.97722,-0.17641,2023,6,8,16,21,7,163
6.04050,2.85250,-4.62000,0.00000,0.03160,0.97954,-0.17934,2023,6,8,16,21,7,174
6.04060,2.95750,-4.53250,0.00000,0.03111,0.97893,-0.17934,2023,6,8,16,21,7,185
6.04070,2.99250,-4.55000,0.00000,0.03099,0.97685,-0.17873,2023,6,8,16,21,7,196
6.04080,3.25500,-4.76000,0.00000,0.03306,0.97563,-0.17812,2023,6,8,16,21,7,208
6.04090,3.16750,-4.46250,0.00000,0.03111,0.97820,-0.17910,2023,6,8,16,21,7,219
6.04100,2.83500,-4.69000,0.00000,0.03184,0.97746,-0.17922,2023,6,8,16,21,7,230
6.04110,2.87000,-4.60250,0.00000,0.03038,0.97661,-0.17861,2023,6,8,16,21,7,241
6.04120,3.09750,-4.65500,0.00000,0.03270,0.97588,-0.17775,2023,6,8,16,21,7,252
6.04130,2.92250,-4.86500,0.00000,0.03172,0.97807,-0.17946,2023,6,8,16,21,7,263
6.04140,3.18500,-4.58500,0.00000,0.03306,0.97795,-0.17873,2023,6,8,16,21,7,274
6.04150,2.99250,-4.48000,0.00000,0.03001,0.97551,-0.17861,2023,6,8,16,21,7,285
6.04160,2.94000,-4.58500,0.00000,0.03135,0.97600,-0.18044,2023,6,8,16,21,7,296
6.04170,2.94000,-4.79500,0.00000,0.03294,0.97600,-0.17861,2023,6,8,16,21,7,308
6.04180,3.23750,-4.53250,0.00000,0.03001,0.97649,-0.17751,2023,6,8,16,21,7,319
6.04190,2.67750,-4.48000,0.00000,0.03416,0.97661,-0.17861,2023,6,8,16,21,7,330
6.04200,3.04500,-4.74250,0.00000,0.03257,0.97759,-0.17910,2023,6,8,16,21,7,341
6.04210,2.88750,-4.48000,0.00000,0.03099,0.97515,-0.18019,2023,6,8,16,21,7,352
6.04220,2.95750,-4.76000,0.00000,0.03379,0.97942,-0.17702,2023,6,8,16,21,7,363
6.04230,3.02750,-4.53250,0.00000,0.03257,0.97405,-0.17958,2023,6,8,16,21,7,374
6.04240,3.02750,-4.58500,0.00000,0.03184,0.97868,-0.17824,2023,6,8,16,21,7,385
6.04250,2.97500,-4.55000,0.00000,0.03282,0.97588,-0.18032,2023,6,8,16,21,7,396
6.04260,3.08000,-4.79500,0.00000,0.03343,0.97515,-0.17775,2023,6,8,16,21,7,408
6.04270,2.92250,-4.77750,0.00000,0.03209,0.97722,-0.17849,2023,6,8,16,21,7,419
6.04280,3.11500,-4.63750,0.00000,0.03257,0.97759,-0.17800,2023,6,8,16,21,7,430
6.04290,3.09750,-4.62000,0.00000,0.03428,0.97612,-0.17873,2023,6,8,16,21,7,441
6.04300,2.90500,-4.55000,0.00000,0.03135,0.97624,-0.17788,2023,6,8,16,21,7,452
6.04310,2.95750,-4.60250,0.00000,0.02965,0.97893,-0.17849,2023,6,8,16,21,7,463
6.04320,3.06250,-4.70750,0.00000,0.03440,0.97576,-0.18202,2023,6,8,16,21,7,474
6.04330,3.01000,-4.56750,0.00000,0.03221,0.97515,-0.17800,2023,6,8,16,21,7,485
6.04340,3.02750,-4.63750,0.00000,0.03050,0.97783,-0.17544,2023,6,8,16,21,7,496
6.04350,3.11500,-4.76000,0.00000,0.03221,0.97820,-0.17812,2023,6,8,16,21,7,508
6.04360,2.90500,-4.63750,0.00000,0.03257,0.97710,-0.17824,2023,6,8,16,21,7,519
6.04370,3.02750,-4.74250,0.00000,0.03148,0.98015,-0.17653,2023,6,8,16,21,7,530
6.04380,2.88750,-4.42750,0.00000,0.03318,0.97600,-0.17800,2023,6,8,16,21,7,541
6.04390,3.01000,-4.56750,0.00000,0.03221,0.97380,-0.17775,2023,6,8,16,21,7,552
6.04400,3.16750,-4.46250,0.00000,0.03355,0.97807,-0.17958,2023,6,8,16,21,7,563
6.04410,2.99250,-4.41000,0.00000,0.03172,0.97710,-0.17641,2023,6,8,16,21,7,574
6.04420,2.99250,-4.77750,0.00000,0.03099,0.97746,-0.17800,2023,6,8,16,21,7,585
6.04430,3.11500,-4.39250,0.00000,0.03135,0.97685,-0.17836,2023,6,8,16,21,7,596
6.04440,2.99250,-4.39250,0.00000,0.02940,0.97734,-0.17605,2023,6,8,16,21,7,608
6.04450,3.02750,-4.63750,0.00000,0.03245,0.97563,-0.17800,2023,6,8,16,21,7,619
6.04460,2.87000,-4.44500,0.00000,0.03306,0.97759,-0.17958,2023,6,8,16,21,7,630
6.04470,2.87000,-4.72500,0.00000,0.03172,0.97698,-0.17788,2023,6,8,16,21,7,641
6.04480,2.97500,-4.79500,0.00000,0.03209,0.97563,-0.17849,2023,6,8,16,21,7,652
6.04490,2.73000,-4.44500,0.00000,0.03123,0.97722,-0.17751,2023,6,8,16,21,7,663
6.04500,3.04500,-4.44500,0.00000,0.03343,0.97771,-0.17653,2023,6,8,16,21,7,674
6.04510,3.04500,-4.63750,0.00000,0.03355,0.97515,-0.17849,2023,6,8,16,21,7,685
6.04520,3.13250,-4.83000,0.00000,0.03087,0.97905,-0.17861,2023,6,8,16,21,7,696
6.04530,3.04500,-4.48000,0.00000,0.03209,0.97771,-0.17995,2023,6,8,16,21,7,708
6.04540,2.95750,-4.51500,0.00000,0.03318,0.97990,-0.17861,2023,6,8,16,21,7,719
6.04550,3.08000,-4.60250,0.00000,0.03306,0.97515,-0.17666,2023,6,8,16,21,7,730
6.04560,3.06250,-4.51500,0.00000,0.03233,0.97673,-0.17824,2023,6,8,16,21,7,741
6.04570,2.99250,-4.51500,0.00000,0.03196,0.98039,-0.17861,2023,6,8,16,21,7,752
6.04580,2.99250,-4.49750,0.00000,0.03160,0.97929,-0.17714,2023,6,8,16,21,7,763
6.04590,2.95750,-4.84750,0.00000,0.03123,0.97502,-0.17788,2023,6,8,16,21,7,774
6.04600,2.92250,-4.60250,0.00000,0.03343,0.97978,-0.17910,2023,6,8,16,21,7,785
6.04610,2.85250,-4.56750,0.00000,0.03111,0.97917,-0.17495,2023,6,8,16,21,7,796
6.04620,2.94000,-4.55000,0.00000,0.03245,0.97771,-0.17629,2023,6,8,16,21,7,808
6.04630,2.99250,-4.65500,0.00000,0.03184,0.97783,-0.17812,2023,6,8,16,21,7,819
6.04640,3.11500,-4.83000,0.00000,0.03355,0.97661,-0.17763,2023,6,8,16,21,7,830
6.04650,3.08000,-4.81250,0.00000,0.03416,0.97844,-0.17678,2023,6,8,16,21,7,841
6.04660,2.90500,-4.53250,0.00000,0.03257,0.97515,-0.17775,2023,6,8,16,21,7,852
6.04670,2.88750,-4.62000,0.00000,0.03196,0.97600,-0.17666,2023,6,8,16,21,7,863
6.04680,3.18500,-4.70750,0.00000,0.03245,0.97588,-0.17714,2023,6,8,16,21,7,874
6.04690,2.95750,-4.39250,0.00000,0.03233,0.97832,-0.17714,2023,6,8,16,21,7,885
6.04700,2.88750,-4.41000,0.00000,0.03123,0.97698,-0.17836,2023,6,8,16,21,7,896
6.04710,3.15000,-4.72500,0.00000,0.03099,0.97490,-0.17824,2023,6,8,16,21,7,908
6.04720,2.94000,-4.69000,0.00000,0.03050,0.97807,-0.17897,2023,6,8,16,21,7,919
6.04730,3.01000,-4.70750,0.00000,0.03135,0.97807,-0.17629,2023,6,8,16,21,7,930
6.04740,3.09750,-4.46250,0.00000,0.03196,0.97685,-0.17678,2023,6,8,16,21,7,941
6.04750,2.97500,-4.67250,0.00000,0.03306,0.97673,-0.17800,2023,6,8,16,21,7,952
6.04760,3.06250,-4.65500,0.00000,0.03404,0.97771,-0.17617,2023,6,8,16,21,7,963
6.04770,2.78250,-4.67250,0.00000,0.03209,0.97868,-0.17690,2023,6,8,16,21,7,974
6.04780,3.01000,-4.58500,0.00000,0.03123,0.97856,-0.17641,2023,6,8,16,21,7,985
6.04790,2.95750,-4.69000,0.00000,0.03257,0.98088,-0.17556,2023,6,8,16,21,7,996
6.04800,3.04500,-4.55000,0.00000,0.02879,0.97722,-0.17666,2023,6,8,16,21,7,8
6.04810,2.92250,-4.67250,0.00000,0.03379,0.98100,-0.17812,2023,6,8,16,21,7,19
6.04820,2.87000,-4.55000,0.00000,0.03184,0.97868,-0.17751,2023,6,8,16,21,7,30
6.04830,3.04500,-4.56750,0.00000,0.03209,0.97673,-0.17995,2023,6,8,16,21,7,41
6.04840,3.04500,-4.65500,0.00000,0.03148,0.97820,-0.17739,2023,6,8,16,21,7,52
6.04850,2.80000,-4.53250,0.00000,0.03172,0.97917,-0.17605,2023,6,8,16,21,7,63
6.04860,3.11500,-4.55000,0.00000,0.03233,0.97637,-0.17983,2023,6,8,16,21,7,74
6.04870,3.20250,-4.79500,0.00000,0.03148,0.97722,-0.17751,2023,6,8,16,21,7,85
6.04880,3.13250,-4.74250,0.00000,0.03026,0.97759,-0.18105,2023,6,8,16,21,7,96
6.04890,2.94000,-4.55000,0.00000,0.03038,0.97722,-0.17995,2023,6,8,16,21,7,108
6.04900,3.02750,-4.48000,0.00000,0.03038,0.97661,-0.17739,2023,6,8,16,21,7,119
6.04910,3.04500,-4.70750,0.00000,0.03233,0.97576,-0.17824,2023,6,8,16,21,7,130
6.04920,2.95750,-4.70750,0.00000,0.03123,0.97710,-0.17775,2023,6,8,16,21,7,141
6.04930,3.04500,-4.77750,0.00000,0.03245,0.97795,-0.18007,2023,6,8,16,21,7,152
6.04940,3.13250,-4.70750,0.00000,0.03404,0.97661,-0.17775,2023,6,8,16,21,7,163
6.04950,2.87000,-4.74250,0.00000,0.02965,0.97466,-0.17836,2023,6,8,16,21,7,174
6.04960,2.90500,-4.74250,0.00000,0.03038,0.97685,-0.18093,2023,6,8,16,21,7,185
6.04970,2.99250,-4.67250,0.00000,0.03148,0.97710,-0.17678,2023,6,8,16,21,7,196
6.04980,3.09750,-4.60250,0.00000,0.03135,0.97868,-0.17983,2023,6,8,16,21,7,208
6.04990,2.97500,-4.53250,0.00000,0.03196,0.97673,-0.17849,2023,6,8,16,21,7,219
6.05000,3.13250,-4.55000,0.00000,0.03184,0.97966,-0.17775,2023,6,8,16,21,7,230
6.05010,3.11500,-4.63750,0.00000,0.03135,0.97795,-0.17910,2023,6,8,16,21,7,241
6.05020,3.13250,-4.65500,0.00000,0.03306,0.97917,-0.17775,2023,6,8,16,21,7,252
6.05030,3.02750,-4.62000,0.00000,0.03148,0.97710,-0.17690,2023,6,8,16,21,7,263
6.05040,3.06250,-4.76000,0.00000,0.03172,0.97673,-0.17946,2023,6,8,16,21,7,274
6.05050,2.76500,-4.37500,0.00000,0.03416,0.97832,-0.18019,2023,6,8,16,21,7,285
6.05060,3.02750,-4.46250,0.00000,0.03392,0.97612,-0.18044,2023,6,8,16,21,7,296
6.05070,3.06250,-4.77750,0.00000,0.03026,0.97624,-0.17983,2023,6,8,16,21,7,308
6.05080,2.88750,-4.76000,0.00000,0.03270,0.97759,-0.17946,2023,6,8,16,21,7,319
6.05090,2.94000,-4.69000,0.00000,0.03221,0.97515,-0.17910,2023,6,8,16,21,7,330
6.05100,2.88750,-4.74250,0.00000,0.03270,0.97490,-0.17958,2023,6,8,16,21,7,341
6.05110,3.04500,-4.67250,0.00000,0.03160,0.97649,-0.17873,2023,6,8,16,21,7,352
6.05120,3.15000,-4.72500,0.00000,0.03404,0.97478,-0.17775,2023,6,8,16,21,7,363
6.05130,3.09750,-4.42750,0.00000,0.03270,0.97759,-0.18093,2023,6,8,16,21,7,374
6.05140,3.08000,-4.79500,0.00000,0.03099,0.97734,-0.17849,2023,6,8,16,21,7,385
6.05150,3.18500,-4.86500,0.00000,0.03392,0.97807,-0.17971,2023,6,8,16,21,7,396
6.05160,2.95750,-4.70750,0.00000,0.03318,0.97759,-0.17995,2023,6,8,16,21,7,408
6.05170,2.97500,-4.67250,0.00000,0.03209,0.97978,-0.17946,2023,6,8,16,21,7,419
6.05180,3.15000,-4.77750,0.00000,0.03392,0.97673,-0.17788,2023,6,8,16,21,7,430
6.05190,2.80000,-4.55000,0.00000,0.03343,0.97698,-0.17983,2023,6,8,16,21,7,441
6.05200,3.04500,-4.62000,0.00000,0.03245,0.97563,-0.18215,2023,6,8,16,21,7,452
6.05210,3.08000,-4.81250,0.00000,0.03282,0.97771,-0.17727,2023,6,8,16,21,7,463
6.05220,3.08000,-4.79500,0.00000,0.03453,0.97368,-0.17751,2023,6,8,16,21,7,474
6.05230,2.80000,-4.60250,0.00000,0.03428,0.97734,-0.17751,2023,6,8,16,21,7,485
6.05240,2.92250,-4.76000,0.00000,0.03318,0.97637,-0.17836,2023,6,8,16,21,7,496
6.05250,2.99250,-4.51500,0.00000,0.03099,0.97795,-0.17971,2023,6,8,16,21,7,508
6.05260,2.94000,-4.72500,0.00000,0.03257,0.97881,-0.17751,2023,6,8,16,21,7,519
6.05270,3.08000,-4.72500,0.00000,0.03367,0.97490,-0.17922,2023,6,8,16,21,7,530
6.05280,2.85250,-4.63750,0.00000,0.03184,0.97710,-0.17983,2023,6,8,16,21,7,541
6.05290,3.11500,-4.60250,0.00000,0.03148,0.97649,-0.17971,2023,6,8,16,21,7,552
6.05300,3.15000,-4.81250,0.00000,0.03245,0.97649,-0.18068,2023,6,8,16,21,7,563
6.05310,3.27250,-4.77750,0.00000,0.03355,0.97929,-0.17824,2023,6,8,16,21,7,574
6.05320,3.09750,-4.84750,0.00000,0.03306,0.97734,-0.17946,2023,6,8,16,21,7,585
6.05330,3.06250,-4.63750,0.00000,0.03099,0.97954,-0.17910,2023,6,8,16,21,7,596
6.05340,3.09750,-4.76000,0.00000,0.03294,0.97722,-0.17983,2023,6,8,16,21,7,608
6.05350,3.18500,-4.41000,0.00000,0.03367,0.97710,-0.18068,2023,6,8,16,21,7,619
6.05360,3.04500,-4.58500,0.00000,0.03453,0.97576,-0.18007,2023,6,8,16,21,7,630
6.05370,2.73000,-4.39250,0.00000,0.03074,0.97746,-0.17958,2023,6,8,16,21,7,641
6.05380,3.11500,-4.76000,0.00000,0.03221,0.97966,-0.18032,2023,6,8,16,21,7,652
6.05390,3.13250,-4.69000,0.00000,0.03294,0.97990,-0.17922,2023,6,8,16,21,7,663
6.05400,3.09750,-4.72500,0.00000,0.03306,0.97588,-0.18105,2023,6,8,16,21,7,674
6.05410,2.92250,-4.77750,0.00000,0.03245,0.97722,-0.17922,2023,6,8,16,21,7,685
6.05420,2.95750,-4.69000,0.00000,0.03196,0.97551,-0.17702,2023,6,8,16,21,7,696
6.05430,3.16750,-4.63750,0.00000,0.03038,0.97710,-0.17861,2023,6,8,16,21,7,708
6.05440,3.20250,-4.79500,0.00000,0.03404,0.97710,-0.18019,2023,6,8,16,21,7,719
6.05450,3.09750,-4.63750,0.00000,0.03257,0.98088,-0.18068,2023,6,8,16,21,7,730
6.05460,3.02750,-4.79500,0.00000,0.03245,0.97917,-0.18032,2023,6,8,16,21,8,1
6.05470,3.06250,-4.60250,0.00000,0.03148,0.97551,-0.17934,2023,6,8,16,21,8,12
6.05480,2.80000,-4.83000,0.00000,0.03233,0.97612,-0.17946,2023,6,8,16,21,8,23
6.05490,2.88750,-4.60250,0.00000,0.03184,0.97539,-0.17934,2023,6,8,16,21,8,34
6.05500,3.06250,-4.63750,0.00000,0.03257,0.97661,-0.17666,2023,6,8,16,21,8,45
6.05510,3.13250,-4.69000,0.00000,0.03184,0.97722,-0.17885,2023,6,8,16,21,8,56
6.05520,3.04500,-4.76000,0.00000,0.03123,0.97685,-0.18019,2023,6,8,16,21,8,68
6.05530,2.99250,-4.60250,0.00000,0.03172,0.97698,-0.17861,2023,6,8,16,21,8,79
6.05540,2.97500,-4.63750,0.00000,0.03099,0.97759,-0.17836,2023,6,8,16,21,8,90
6.05550,2.97500,-4.69000,0.00000,0.03196,0.97637,-0.17836,2023,6,8,16,21,8,101
6.05560,3.06250,-4.81250,0.00000,0.03245,0.97966,-0.17946,2023,6,8,16,21,8,112
6.05570,2.95750,-4.62000,0.00000,0.03074,0.97710,-0.17800,2023,6,8,16,21,8,123
6.05580,2.99250,-4.74250,0.00000,0.03282,0.97807,-0.17922,2023,6,8,16,21,8,134
6.05590,3.01000,-4.65500,0.00000,0.03282,0.98039,-0.17605,2023,6,8,16,21,8,145
6.05600,3.06250,-4.74250,0.00000,0.03294,0.97771,-0.17800,2023,6,8,16,21,8,156
6.05610,2.88750,-4.41000,0.00000,0.03367,0.97856,-0.17885,2023,6,8,16,21,8,168
6.05620,3.13250,-4.70750,0.00000,0.03294,0.97905,-0.17849,2023,6,8,16,21,8,179
6.05630,3.01000,-4.58500,0.00000,0.03331,0.97685,-0.17836,2023,6,8,16,21,8,190
6.05640,3.13250,-4.70750,0.00000,0.03233,0.97795,-0.17702,2023,6,8,16,21,8,201
6.05650,2.99250,-4.70750,0.00000,0.03196,0.97612,-0.17812,2023,6,8,16,21,8,212
6.05660,2.97500,-4.48000,0.00000,0.03270,0.97710,-0.17812,2023,6,8,16,21,8,223
6.05670,2.92250,-4.51500,0.00000,0.03233,0.97698,-0.17922,2023,6,8,16,21,8,234
6.05680,2.83500,-4.67250,0.00000,0.02989,0.97502,-0.17897,2023,6,8,16,21,8,245
6.05690,2.94000,-4.72500,0.00000,0.03184,0.97771,-0.17836,2023,6,8,16,21,8,256
6.05700,2.97500,-4.70750,0.00000,0.03245,0.97600,-0.17763,2023,6,8,16,21,8,268
6.05710,2.92250,-4.65500,0.00000,0.03465,0.97746,-0.17958,2023,6,8,16,21,8,279
6.05720,2.94000,-4.60250,0.00000,0.03270,0.97637,-0.17983,2023,6,8,16,21,8,290
6.05730,3.08000,-4.62000,0.00000,0.03367,0.97368,-0.17763,2023,6,8,16,21,8,301
6.05740,3.08000,-4.67250,0.00000,0.03306,0.97722,-0.17702,2023,6,8,16,21,8,312
6.05750,2.99250,-4.48000,0.00000,0.03343,0.97746,-0.17800,2023,6,8,16,21,8,323
6.05760,2.94000,-4.42750,0.00000,0.03184,0.97588,-0.17605,2023,6,8,16,21,8,334
6.05770,2.92250,-4.69000,0.00000,0.03392,0.97746,-0.18044,2023,6,8,16,21,8,345
6.05780,2.94000,-4.83000,0.00000,0.03294,0.97600,-0.17641,2023,6,8,16,21,8,356
6.05790,2.90500,-4.55000,0.00000,0.03257,0.97661,-0.17751,2023,6,8,16,21,8,368
6.05800,2.81750,-4.51500,0.00000,0.03196,0.98027,-0.17885,2023,6,8,16,21,8,379
6.05810,3.11500,-4.62000,0.00000,0.03184,0.97698,-0.17861,2023,6,8,16,21,8,390
6.05820,3.02750,-4.46250,0.00000,0.03270,0.97771,-0.17934,2023,6,8,16,21,8,401
6.05830,3.08000,-4.53250,0.00000,0.03343,0.97954,-0.17910,2023,6,8,16,21,8,412
6.05840,3.01000,-4.79500,0.00000,0.03257,0.97771,-0.18019,2023,6,8,16,21,8,423
6.05850,2.97500,-4.77750,0.00000,0.03477,0.97624,-0.17861,2023,6,8,16,21,8,434
6.05860,2.99250,-4.76000,0.00000,0.03270,0.98039,-0.17897,2023,6,8,16,21,8,445
6.05870,2.99250,-4.46250,0.00000,0.03331,0.97637,-0.18117,2023,6,8,16,21,8,456
6.05880,3.08000,-4.63750,0.00000,0.03172,0.97698,-0.17922,2023,6,8,16,21,8,468
6.05890,3.01000,-4.41000,0.00000,0.03160,0.97563,-0.17775,2023,6,8,16,21,8,479
6.05900,3.20250,-4.63750,0.00000,0.02965,0.97929,-0.17983,2023,6,8,16,21,8,490
6.05910,2.85250,-4.56750,0.00000,0.03221,0.97722,-0.17885,2023,6,8,16,21,8,501
6.05920,2.97500,-4.65500,0.00000,0.03233,0.97722,-0.17788,2023,6,8,16,21,8,512
6.05930,3.01000,-4.58500,0.00000,0.03318,0.97624,-0.17678,2023,6,8,16,21,8,523
6.05940,2.90500,-4.72500,0.00000,0.03331,0.97551,-0.17861,2023,6,8,16,21,8,534
6.05950,3.16750,-4.55000,0.00000,0.03355,0.97734,-0.17592,2023,6,8,16,21,8,545
6.05960,3.23750,-4.69000,0.00000,0.03184,0.97685,-0.17800,2023,6,8,16,21,8,556
6.05970,3.06250,-4.51500,0.00000,0.03099,0.97624,-0.17714,2023,6,8,16,21,8,568
6.05980,3.16750,-4.77750,0.00000,0.03331,0.97710,-0.17605,2023,6,8,16,21,8,579
6.05990,2.92250,-4.56750,0.00000,0.03428,0.97661,-0.17849,2023,6,8,16,21,8,590
6.06000,3.06250,-4.56750,0.00000,0.03282,0.97661,-0.17800,2023,6,8,16,21,8,601
6.06010,2.81750,-4.60250,0.00000,0.03123,0.97661,-0.17946,2023,6,8,16,21,8,612
6.06020,2.90500,-4.76000,0.00000,0.03245,0.97551,-0.17775,2023,6,8,16,21,8,623
6.06030,2.81750,-4.42750,0.00000,0.03367,0.97576,-0.17897,2023,6,8,16,21,8,634
6.06040,3.06250,-4.63750,0.00000,0.03331,0.97734,-0.17629,2023,6,8,16,21,8,645
6.06050,2.90500,-4.56750,0.00000,0.03282,0.97710,-0.17885,2023,6,8,16,21,8,656
6.06060,3.15000,-4.62000,0.00000,0.03038,0.97612,-0.17690,2023,6,8,16,21,8,668
6.06070,2.92250,-4.55000,0.00000,0.03489,0.97576,-0.17800,2023,6,8,16,21,8,679
6.06080,2.85250,-4.53250,0.00000,0.03270,0.97734,-0.17751,2023,6,8,16,21,8,690
6.06090,2.74750,-4.44500,0.00000,0.03026,0.97685,-0.17922,2023,6,8,16,21,8,701
6.06100,2.87000,-4.56750,0.00000,0.03270,0.97954,-0.17580,2023,6,8,16,21,8,712
6.06110,2.80000,-4.49750,0.00000,0.03074,0.97600,-0.17812,2023,6,8,16,21,8,723
6.06120,2.85250,-4.60250,0.00000,0.03196,0.97856,-0.17605,2023,6,8,16,21,8,734
6.06130,3.20250,-4.69000,0.00000,0.03428,0.97771,-0.17897,2023,6,8,16,21,8,745
6.06140,2.94000,-4.60250,0.00000,0.03172,0.97759,-0.17763,2023,6,8,16,21,8,756
6.06150,2.94000,-4.77750,0.00000,0.03331,0.97722,-0.17714,2023,6,8,16,21,8,768
6.06160,2.95750,-4.74250,0.00000,0.03318,0.97746,-0.17727,2023,6,8,16,21,8,779
6.06170,3.01000,-4.67250,0.00000,0.03111,0.97551,-0.17885,2023,6,8,16,21,8,790
6.06180,3.25500,-4.58500,0.00000,0.03172,0.97551,-0.17824,2023,6,8,16,21,8,801
6.06190,3.04500,-4.74250,0.00000,0.03318,0.97624,-0.17763,2023,6,8,16,21,8,812
6.06200,2.81750,-4.58500,0.00000,0.03306,0.97832,-0.17775,2023,6,8,16,21,8,823
6.06210,3.15000,-4.60250,0.00000,0.03087,0.97722,-0.18032,2023,6,8,16,21,8,834
6.06220,2.99250,-4.67250,0.00000,0.03343,0.97698,-0.17812,2023,6,8,16,21,8,845
6.06230,2.94000,-4.51500,0.00000,0.03196,0.97759,-0.17678,2023,6,8,16,21,8,856
6.06240,3.02750,-4.72500,0.00000,0.03184,0.97600,-0.17812,2023,6,8,16,21,8,868
6.06250,2.92250,-4.58500,0.00000,0.03318,0.97929,-0.17836,2023,6,8,16,21,8,879
6.06260,2.83500,-4.53250,0.00000,0.03123,0.97710,-0.17641,2023,6,8,16,21,8,890
6.06270,2.92250,-4.70750,0.00000,0.03318,0.97759,-0.17727,2023,6,8,16,21,8,901
6.06280,3.08000,-4.62000,0.00000,0.03221,0.97856,-0.17946,2023,6,8,16,21,8,912
6.06290,2.94000,-4.84750,0.00000,0.03233,0.97917,-0.17836,2023,6,8,16,21,8,923
6.06300,2.90500,-4.58500,0.00000,0.03379,0.97868,-0.17897,2023,6,8,16,21,8,934
6.06310,3.06250,-4.56750,0.00000,0.03074,0.97881,-0.17836,2023,6,8,16,21,8,945
6.06320,3.08000,-4.65500,0.00000,0.03221,0.97905,-0.17666,2023,6,8,16,21,8,956
6.06330,2.90500,-4.77750,0.00000,0.03196,0.97698,-0.17714,2023,6,8,16,21,8,968
6.06340,2.88750,-4.56750,0.00000,0.03282,0.97771,-0.17983,2023,6,8,16,21,8,979
6.06350,3.02750,-4.62000,0.00000,0.03221,0.97612,-0.17824,2023,6,8,16,21,8,990
6.06360,3.11500,-4.62000,0.00000,0.03148,0.97746,-0.17861,2023,6,8,16,21,8,1
6.06370,3.09750,-4.74250,0.00000,0.03233,0.97673,-0.17873,2023,6,8,16,21,8,12
6.06380,2.97500,-4.79500,0.00000,0.03160,0.97685,-0.17995,2023,6,8,16,21,8,23
6.06390,3.08000,-4.62000,0.00000,0.03270,0.97515,-0.17861,2023,6,8,16,21,8,34
6.06400,3.09750,-4.65500,0.00000,0.03209,0.97990,-0.17714,2023,6,8,16,21,8,45
6.06410,3.04500,-4.77750,0.00000,0.03306,0.97698,-0.17714,2023,6,8,16,21,8,56
6.06420,3.15000,-4.48000,0.00000,0.03184,0.97612,-0.17678,2023,6,8,16,21,8,68
6.06430,2.99250,-4.77750,0.00000,0.03135,0.97661,-0.17885,2023,6,8,16,21,8,79
6.06440,2.83500,-4.51500,0.00000,0.03160,0.97881,-0.18068,2023,6,8,16,21,8,90
6.06450,3.02750,-4.56750,0.00000,0.03221,0.97649,-0.17812,2023,6,8,16,21,8,101
6.06460,2.85250,-4.79500,0.00000,0.03038,0.97710,-0.17775,2023,6,8,16,21,8,112
6.06470,2.81750,-4.62000,0.00000,0.03184,0.97539,-0.17800,2023,6,8,16,21,8,123
6.06480,3.04500,-4.67250,0.00000,0.03184,0.97588,-0.17739,2023,6,8,16,21,8,134
6.06490,3.08000,-4.74250,0.00000,0.03453,0.97637,-0.18239,2023,6,8,16,21,8,145
6.06500,3.02750,-4.55000,0.00000,0.03294,0.97771,-0.17885,2023,6,8,16,21,8,156
6.06510,3.06250,-4.77750,0.00000,0.03270,0.97722,-0.17763,2023,6,8,16,21,8,168
6.06520,2.90500,-4.62000,0.00000,0.03087,0.97685,-0.17995,2023,6,8,16,21,8,179
6.06530,2.88750,-4.79500,0.00000,0.03026,0.97661,-0.17946,2023,6,8,16,21,8,190
6.06540,2.83500,-4.70750,0.00000,0.03331,0.97612,-0.17836,2023,6,8,16,21,8,201
6.06550,2.90500,-4.72500,0.00000,0.03221,0.97734,-0.17812,2023,6,8,16,21,8,212
6.06560,3.01000,-4.67250,0.00000,0.03257,0.97746,-0.17763,2023,6,8,16,21,8,223
6.06570,2.88750,-4.91750,0.00000,0.03160,0.97624,-0.17775,2023,6,8,16,21,8,234
6.06580,2.99250,-4.72500,0.00000,0.03123,0.97783,-0.17714,2023,6,8,16,21,8,245
6.06590,2.94000,-4.76000,0.00000,0.03172,0.97856,-0.17910,2023,6,8,16,21,8,256
6.06600,3.01000,-4.60250,0.00000,0.03209,0.97893,-0.17739,2023,6,8,16,21,8,268
6.06610,3.22000,-4.63750,0.00000,0.03135,0.97856,-0.17775,2023,6,8,16,21,8,279
6.06620,2.90500,-4.67250,0.00000,0.03306,0.97515,-0.17849,2023,6,8,16,21,8,290
6.06630,2.95750,-4.76000,0.00000,0.03099,0.97685,-0.17934,2023,6,8,16,21,8,301
6.06640,2.87000,-4.65500,0.00000,0.03270,0.97588,-0.17897,2023,6,8,16,21,8,312
6.06650,2.99250,-4.48000,0.00000,0.03331,0.97722,-0.17800,2023,6,8,16,21,8,323
6.06660,3.01000,-4.86500,0.00000,0.03282,0.97600,-0.17849,2023,6,8,16,21,8,334
6.06670,3.08000,-4.79500,0.00000,0.03379,0.97844,-0.17885,2023,6,8,16,21,8,345
6.06680,2.95750,-4.56750,0.00000,0.03160,0.97820,-0.17983,2023,6,8,16,21,8,356
6.06690,2.87000,-4.69000,0.00000,0.03233,0.97795,-0.18032,2023,6,8,16,21,8,368
6.06700,2.97500,-4.67250,0.00000,0.03233,0.97759,-0.17800,2023,6,8,16,21,8,379
6.06710,3.09750,-4.60250,0.00000,0.03001,0.97929,-0.17714,2023,6,8,16,21,8,390
6.06720,2.99250,-4.51500,0.00000,0.03367,0.97771,-0.17751,2023,6,8,16,21,8,401
6.06730,2.85250,-4.58500,0.00000,0.03074,0.97929,-0.18117,2023,6,8,16,21,8,412
6.06740,2.97500,-4.58500,0.00000,0.03196,0.97698,-0.17861,2023,6,8,16,21,8,423
6.06750,2.80000,-4.67250,0.00000,0.03453,0.97612,-0.17983,2023,6,8,16,21,8,434
6.06760,2.95750,-4.55000,0.00000,0.03245,0.97551,-0.18019,2023,6,8,16,21,8,445
6.06770,2.87000,-4.49750,0.00000,0.03184,0.97734,-0.17885,2023,6,8,16,21,8,456
6.06780,2.88750,-4.53250,0.00000,0.03367,0.97820,-0.17922,2023,6,8,16,21,8,468
6.06790,3.04500,-4.83000,0.00000,0.03209,0.97820,-0.17910,2023,6,8,16,21,8,479
6.06800,2.95750,-4.62000,0.00000,0.03257,0.97624,-0.17666,2023,6,8,16,21,8,490
6.06810,3.04500,-4.70750,0.00000,0.03343,0.97746,-0.17873,2023,6,8,16,21,8,501
6.06820,3.20250,-4.51500,0.00000,0.03306,0.97722,-0.17983,2023,6,8,16,21,8,512
6.06830,2.95750,-4.65500,0.00000,0.03270,0.97673,-0.17885,2023,6,8,16,21,8,523
6.06840,2.92250,-4.72500,0.00000,0.03184,0.97600,-0.18068,2023,6,8,16,21,8,534
6.06850,2.99250,-4.55000,0.00000,0.03160,0.97673,-0.17812,2023,6,8,16,21,8,545
6.06860,3.08000,-4.63750,0.00000,0.03026,0.97746,-0.17971,2023,6,8,16,21,8,556
6.06870,3.15000,-4.41000,0.00000,0.03209,0.97746,-0.17824,2023,6,8,16,21,8,568
6.06880,2.88750,-4.60250,0.00000,0.03270,0.97759,-0.17885,2023,6,8,16,21,8,579
6.06890,3.01000,-4.69000,0.00000,0.03074,0.97795,-0.17812,2023,6,8,16,21,8,590
6.06900,2.90500,-4.51500,0.00000,0.03172,0.97551,-0.18117,2023,6,8,16,21,8,601
6.06910,2.94000,-4.42750,0.00000,0.03233,0.97698,-0.18154,2023,6,8,16,21,8,612
6.06920,2.90500,-4.32250,0.00000,0.03245,0.97795,-0.17849,2023,6,8,16,21,8,623
6.06930,2.85250,-4.55000,0.00000,0.03245,0.97698,-0.18056,2023,6,8,16,21,8,634
6.06940,3.06250,-4.83000,0.00000,0.02904,0.97576,-0.17934,2023,6,8,16,21,8,645
6.06950,3.08000,-4.76000,0.00000,0.03123,0.98003,-0.17812,2023,6,8,16,21,8,656
6.06960,3.09750,-4.83000,0.00000,0.03306,0.97612,-0.17873,2023,6,8,16,21,8,668
6.06970,3.09750,-4.69000,0.00000,0.03209,0.97539,-0.17727,2023,6,8,16,21,8,679
6.06980,2.94000,-4.62000,0.00000,0.03050,0.97612,-0.18019,2023,6,8,16,21,8,690
6.06990,3.18500,-4.56750,0.00000,0.03331,0.97795,-0.17897,2023,6,8,16,21,8,701
6.07000,3.09750,-4.74250,0.00000,0.03318,0.97563,-0.17641,2023,6,8,16,21,8,712
6.07010,3.06250,-4.69000,0.00000,0.03184,0.97990,-0.17812,2023,6,8,16,21,8,723
6.07020,3.01000,-4.55000,0.00000,0.03318,0.97759,-0.18044,2023,6,8,16,21,8,734
6.07030,3.02750,-4.65500,0.00000,0.03184,0.97698,-0.17934,2023,6,8,16,21,8,745
6.07040,2.94000,-4.56750,0.00000,0.03038,0.97624,-0.17934,2023,6,8,16,21,8,756
6.07050,3.15000,-4.35750,0.00000,0.03489,0.97905,-0.17788,2023,6,8,16,21,8,768
6.07060,3.02750,-4.44500,0.00000,0.03416,0.97759,-0.17849,2023,6,8,16,21,8,779
6.07070,2.94000,-4.53250,0.00000,0.03245,0.97954,-0.17836,2023,6,8,16,21,8,790
6.07080,2.97500,-4.70750,0.00000,0.03099,0.97795,-0.18007,2023,6,8,16,21,8,801
6.07090,3.04500,-4.62000,0.00000,0.03257,0.97612,-0.17934,2023,6,8,16,21,8,812
6.07100,3.08000,-4.88250,0.00000,0.03257,0.97710,-0.17666,2023,6,8,16,21,8,823
6.07110,2.95750,-4.69000,0.00000,0.03257,0.97771,-0.17678,2023,6,8,16,21,8,834
6.07120,3.02750,-4.62000,0.00000,0.03050,0.97734,-0.17861,2023,6,8,16,21,8,845
6.07130,3.06250,-4.58500,0.00000,0.03062,0.97783,-0.17739,2023,6,8,16,21,8,856
6.07140,3.09750,-4.60250,0.00000,0.03160,0.97624,-0.17775,2023,6,8,16,21,8,868
6.07150,3.09750,-4.77750,0.00000,0.03099,0.97722,-0.17788,2023,6,8,16,21,8,879
6.07160,2.99250,-4.58500,0.00000,0.03282,0.97856,-0.17727,2023,6,8,16,21,8,890
6.07170,2.97500,-4.55000,0.00000,0.03245,0.97612,-0.18007,2023,6,8,16,21,8,901
6.07180,3.18500,-4.70750,0.00000,0.03404,0.97710,-0.18007,2023,6,8,16,21,8,912
6.07190,3.15000,-4.55000,0.00000,0.03196,0.97685,-0.18007,2023,6,8,16,21,8,923
6.07200,3.13250,-4.79500,0.00000,0.03038,0.97807,-0.17885,2023,6,8,16,21,8,934
6.07210,3.13250,-4.55000,0.00000,0.03172,0.97551,-0.17971,2023,6,8,16,21,8,945
6.07220,2.90500,-4.65500,0.00000,0.03196,0.97783,-0.18044,2023,6,8,16,21,8,956
6.07230,3.04500,-4.62000,0.00000,0.03148,0.97807,-0.17824,2023,6,8,16,21,8,968
6.07240,2.97500,-4.79500,0.00000,0.03184,0.97856,-0.17836,2023,6,8,16,21,8,979
6.07250,2.97500,-4.72500,0.00000,0.03099,0.97759,-0.18032,2023,6,8,16,21,8,990
6.07260,3.06250,-4.63750,0.00000,0.03416,0.97698,-0.17910,2023,6,8,16,21,8,1
6.07270,3.02750,-4.51500,0.00000,0.03440,0.97978,-0.17946,2023,6,8,16,21,8,12
6.07280,2.95750,-4.74250,0.00000,0.03050,0.97649,-0.17885,2023,6,8,16,21,8,23
6.07290,2.94000,-4.60250,0.00000,0.03209,0.97771,-0.17800,2023,6,8,16,21,8,34
6.07300,2.99250,-4.60250,0.00000,0.03282,0.97807,-0.17873,2023,6,8,16,21,8,45
6.07310,3.08000,-4.53250,0.00000,0.03257,0.97624,-0.17885,2023,6,8,16,21,8,56
6.07320,3.15000,-4.53250,0.00000,0.03123,0.97856,-0.17897,2023,6,8,16,21,8,68
6.07330,3.02750,-4.49750,0.00000,0.03477,0.97710,-0.17775,2023,6,8,16,21,8,79
6.07340,2.87000,-4.63750,0.00000,0.03013,0.97722,-0.17849,2023,6,8,16,21,8,90
6.07350,3.01000,-4.65500,0.00000,0.03172,0.97698,-0.17922,2023,6,8,16,21,8,101
6.07360,3.06250,-4.81250,0.00000,0.03416,0.97881,-0.17739,2023,6,8,16,21,8,112
6.07370,3.20250,-4.62000,0.00000,0.03111,0.97624,-0.17800,2023,6,8,16,21,8,123
6.07380,3.08000,-4.83000,0.00000,0.03318,0.97966,-0.17666,2023,6,8,16,21,8,134
6.07390,3.06250,-4.76000,0.00000,0.03184,0.97856,-0.17946,2023,6,8,16,21,8,145
6.07400,3.02750,-4.69000,0.00000,0.02989,0.97661,-0.17934,2023,6,8,16,21,8,156
6.07410,2.99250,-4.67250,0.00000,0.03270,0.97917,-0.17714,2023,6,8,16,21,8,168
6.07420,2.97500,-4.48000,0.00000,0.03123,0.97576,-0.17922,2023,6,8,16,21,8,179
6.07430,3.13250,-4.72500,0.00000,0.03282,0.97917,-0.17824,2023,6,8,16,21,8,190
6.07440,2.83500,-4.77750,0.00000,0.03123,0.97917,-0.17836,2023,6,8,16,21,8,201
6.07450,3.06250,-4.62000,0.00000,0.03257,0.97734,-0.17934,2023,6,8,16,21,8,212
6.07460,2.88750,-4.60250,0.00000,0.03148,0.97685,-0.17824,2023,6,8,16,21,8,223
6.07470,3.11500,-4.58500,0.00000,0.03453,0.97673,-0.17946,2023,6,8,16,21,8,234
6.07480,3.15000,-4.83000,0.00000,0.03245,0.97551,-0.17861,2023,6,8,16,21,8,245
6.07490,3.15000,-4.77750,0.00000,0.03099,0.97539,-0.17788,2023,6,8,16,21,8,256
6.07500,3.09750,-4.58500,0.00000,0.03282,0.97929,-0.17775,2023,6,8,16,21,8,268
6.07510,3.04500,-4.63750,0.00000,0.03306,0.97515,-0.17849,2023,6,8,16,21,8,279
6.07520,3.06250,-4.62000,0.00000,0.03050,0.97820,-0.17897,2023,6,8,16,21,8,290
6.07530,2.97500,-4.56750,0.00000,0.03245,0.97673,-0.17690,2023,6,8,16,21,8,301
6.07540,3.09750,-4.56750,0.00000,0.03233,0.97795,-0.18019,2023,6,8,16,21,8,312
6.07550,2.95750,-4.63750,0.00000,0.03148,0.97576,-0.17666,2023,6,8,16,21,8,323
6.07560,2.92250,-4.70750,0.00000,0.03392,0.97771,-0.17897,2023,6,8,16,21,8,334
6.07570,3.01000,-4.70750,0.00000,0.03209,0.97637,-0.17922,2023,6,8,16,21,8,345
6.07580,2.95750,-4.53250,0.00000,0.03026,0.97759,-0.17897,2023,6,8,16,21,8,356
6.07590,2.99250,-4.83000,0.00000,0.03196,0.97539,-0.17873,2023,6,8,16,21,8,368
6.07600,2.92250,-4.77750,0.00000,0.03184,0.97527,-0.17836,2023,6,8,16,21,8,379
6.07610,2.94000,-4.48000,0.00000,0.03453,0.97502,-0.17763,2023,6,8,16,21,8,390
6.07620,3.13250,-4.74250,0.00000,0.03148,0.97649,-0.17971,2023,6,8,16,21,8,401
6.07630,3.04500,-4.62000,0.00000,0.03331,0.97710,-0.17824,2023,6,8,16,21,8,412
6.07640,2.92250,-4.63750,0.00000,0.02989,0.97783,-0.18007,2023,6,8,16,21,8,423
6.07650,3.11500,-4.63750,0.00000,0.03623,0.97820,-0.17849,2023,6,8,16,21,8,434
6.07660,3.01000,-4.76000,0.00000,0.03428,0.97807,-0.17897,2023,6,8,16,21,8,445
6.07670,2.94000,-4.53250,0.00000,0.03209,0.97502,-0.17934,2023,6,8,16,21,8,456
6.07680,3.11500,-4.44500,0.00000,0.03257,0.97832,-0.17958,2023,6,8,16,21,8,468
6.07690,3.08000,-4.70750,0.00000,0.03209,0.97612,-0.17995,2023,6,8,16,21,8,479
6.07700,3.02750,-4.44500,0.00000,0.03392,0.97759,-0.17922,2023,6,8,16,21,8,490
6.07710,2.99250,-4.62000,0.00000,0.03111,0.97515,-0.17824,2023,6,8,16,21,8,501
6.07720,2.92250,-4.51500,0.00000,0.03148,0.97515,-0.17763,2023,6,8,16,21,8,512
6.07730,3.08000,-4.55000,0.00000,0.03306,0.97990,-0.17910,2023,6,8,16,21,8,523
6.07740,3.06250,-4.74250,0.00000,0.03404,0.97881,-0.17727,2023,6,8,16,21,8,534
6.07750,3.08000,-4.63750,0.00000,0.03050,0.97502,-0.18068,2023,6,8,16,21,8,545
6.07760,2.92250,-4.42750,0.00000,0.03331,0.97820,-0.17861,2023,6,8,16,21,8,556
6.07770,2.92250,-4.63750,0.00000,0.03038,0.97820,-0.17507,2023,6,8,16,21,8,568
6.07780,2.90500,-4.56750,0.00000,0.03318,0.97759,-0.17812,2023,6,8,16,21,8,579
6.07790,2.85250,-4.67250,0.00000,0.03294,0.97685,-0.17849,2023,6,8,16,21,8,590
6.07800,2.97500,-4.46250,0.00000,0.03489,0.97783,-0.17885,2023,6,8,16,21,8,601
6.07810,3.08000,-4.62000,0.00000,0.03111,0.97624,-0.17983,2023,6,8,16,21,8,612
6.07820,2.99250,-4.72500,0.00000,0.03196,0.97710,-0.17861,2023,6,8,16,21,8,623
6.07830,2.99250,-4.63750,0.00000,0.03111,0.97905,-0.17934,2023,6,8,16,21,8,634
6.07840,2.97500,-4.58500,0.00000,0.03111,0.97478,-0.17714,2023,6,8,16,21,8,645
6.07850,2.94000,-4.69000,0.00000,0.03209,0.97527,-0.17958,2023,6,8,16,21,8,656
6.07860,3.09750,-4.83000,0.00000,0.03184,0.97649,-0.17788,2023,6,8,16,21,8,668
6.07870,3.06250,-4.74250,0.00000,0.03233,0.97856,-0.17922,2023,6,8,16,21,8,679
6.07880,3.11500,-4.62000,0.00000,0.03245,0.97685,-0.17690,2023,6,8,16,21,8,690
6.07890,3.01000,-4.69000,0.00000,0.03221,0.97380,-0.17861,2023,6,8,16,21,8,701
6.07900,2.88750,-4.56750,0.00000,0.03318,0.97624,-0.18019,2023,6,8,16,21,8,712
6.07910,2.85250,-4.51500,0.00000,0.03331,0.97893,-0.17861,2023,6,8,16,21,8,723
6.07920,3.02750,-4.56750,0.00000,0.03233,0.97576,-0.17922,2023,6,8,16,21,8,734
6.07930,2.92250,-4.65500,0.00000,0.03099,0.97759,-0.17568,2023,6,8,16,21,8,745
6.07940,3.01000,-4.67250,0.00000,0.03355,0.97685,-0.17849,2023,6,8,16,21,8,756
6.07950,2.87000,-4.56750,0.00000,0.03331,0.97539,-0.17971,2023,6,8,16,21,8,768
6.07960,3.02750,-4.60250,0.00000,0.03306,0.97929,-0.17824,2023,6,8,16,21,8,779
6.07970,3.15000,-4.62000,0.00000,0.03294,0.97856,-0.17836,2023,6,8,16,21,8,790
6.07980,2.95750,-4.84750,0.00000,0.03074,0.97612,-0.17605,2023,6,8,16,21,8,801
6.07990,2.92250,-4.63750,0.00000,0.03172,0.97759,-0.17861,2023,6,8,16,21,8,812
6.08000,3.02750,-4.70750,0.00000,0.03123,0.97539,-0.17714,2023,6,8,16,21,8,823
6.08010,3.08000,-4.81250,0.00000,0.03245,0.97673,-0.17678,2023,6,8,16,21,8,834
6.08020,2.88750,-4.60250,0.00000,0.02965,0.97637,-0.17885,2023,6,8,16,21,8,845
6.08030,3.16750,-4.74250,0.00000,0.03184,0.97722,-0.17812,2023,6,8,16,21,8,856
6.08040,2.99250,-4.76000,0.00000,0.03404,0.97588,-0.18068,2023,6,8,16,21,8,868
6.08050,3.01000,-4.60250,0.00000,0.03428,0.97807,-0.17714,2023,6,8,16,21,8,879
6.08060,3.06250,-4.58500,0.00000,0.03099,0.97600,-0.17824,2023,6,8,16,21,8,890
6.08070,3.06250,-4.79500,0.00000,0.03209,0.97771,-0.17714,2023,6,8,16,21,8,901
6.08080,2.94000,-4.62000,0.00000,0.03245,0.97734,-0.17666,2023,6,8,16,21,8,912
6.08090,2.99250,-4.72500,0.00000,0.03440,0.97661,-0.17873,2023,6,8,16,21,8,923
6.08100,3.02750,-4.60250,0.00000,0.03282,0.97576,-0.17849,2023,6,8,16,21,8,934
6.08110,3.13250,-4.74250,0.00000,0.03245,0.98003,-0.17958,2023,6,8,16,21,8,945
6.08120,3.04500,-4.53250,0.00000,0.03221,0.97698,-0.17836,2023,6,8,16,21,8,956
6.08130,3.01000,-4.48000,0.00000,0.03148,0.97685,-0.17849,2023,6,8,16,21,8,968
6.08140,2.97500,-4.58500,0.00000,0.03123,0.97649,-0.17849,2023,6,8,16,21,8,979
6.08150,3.13250,-4.49750,0.00000,0.03355,0.97673,-0.17971,2023,6,8,16,21,8,990
6.08160,3.13250,-4.86500,0.00000,0.03135,0.97783,-0.17690,2023,6,8,16,21,8,1
6.08170,3.02750,-4.51500,0.00000,0.03196,0.97844,-0.17763,2023,6,8,16,21,8,12
6.08180,3.02750,-4.63750,0.00000,0.03026,0.97685,-0.17946,2023,6,8,16,21,8,23
6.08190,3.06250,-4.74250,0.00000,0.03294,0.97661,-0.17666,2023,6,8,16,21,8,34
6.08200,2.83500,-4.53250,0.00000,0.03282,0.97624,-0.17885,2023,6,8,16,21,8,45
6.08210,3.09750,-4.65500,0.00000,0.03453,0.97966,-0.17788,2023,6,8,16,21,8,56
6.08220,2.92250,-4.63750,0.00000,0.03245,0.97576,-0.17568,2023,6,8,16,21,8,68
6.08230,2.88750,-4.56750,0.00000,0.03196,0.97868,-0.17666,2023,6,8,16,21,8,79
6.08240,3.09750,-4.76000,0.00000,0.03270,0.97698,-0.17775,2023,6,8,16,21,8,90
6.08250,3.01000,-4.56750,0.00000,0.03245,0.97685,-0.17897,2023,6,8,16,21,8,101
6.08260,2.88750,-4.63750,0.00000,0.03294,0.97722,-0.17739,2023,6,8,16,21,8,112
6.08270,3.02750,-4.62000,0.00000,0.03343,0.97661,-0.17812,2023,6,8,16,21,8,123
6.08280,2.85250,-4.55000,0.00000,0.03148,0.97624,-0.17800,2023,6,8,16,21,8,134
6.08290,3.02750,-4.69000,0.00000,0.03111,0.97734,-0.17727,2023,6,8,16,21,8,145
6.08300,2.97500,-4.42750,0.00000,0.03331,0.97990,-0.17934,2023,6,8,16,21,8,156
6.08310,2.88750,-4.48000,0.00000,0.03392,0.97539,-0.17800,2023,6,8,16,21,8,168
6.08320,2.83500,-4.48000,0.00000,0.03148,0.97807,-0.17971,2023,6,8,16,21,8,179
6.08330,3.09750,-4.70750,0.00000,0.03343,0.97832,-0.17800,2023,6,8,16,21,8,190
6.08340,3.06250,-4.74250,0.00000,0.03184,0.97820,-0.17910,2023,6,8,16,21,8,201
6.08350,3.11500,-4.86500,0.00000,0.03196,0.97515,-0.17983,2023,6,8,16,21,8,212
6.08360,2.94000,-4.69000,0.00000,0.03562,0.97783,-0.17849,2023,6,8,16,21,8,223
6.08370,3.08000,-4.74250,0.00000,0.03318,0.97649,-0.17653,2023,6,8,16,21,8,234
6.08380,2.88750,-4.53250,0.00000,0.03270,0.97783,-0.17934,2023,6,8,16,21,8,245
6.08390,3.04500,-4.39250,0.00000,0.03367,0.97820,-0.17702,2023,6,8,16,21,8,256
6.08400,3.09750,-4.77750,0.00000,0.03087,0.97868,-0.17983,2023,6,8,16,21,8,268
6.08410,2.95750,-4.88250,0.00000,0.03331,0.98015,-0.17873,2023,6,8,16,21,8,279
6.08420,2.97500,-4.84750,0.00000,0.03184,0.97685,-0.17849,2023,6,8,16,21,8,290
6.08430,3.18500,-4.39250,0.00000,0.03392,0.97466,-0.17739,2023,6,8,16,21,8,301
6.08440,3.15000,-4.65500,0.00000,0.03135,0.97612,-0.17995,2023,6,8,16,21,8,312
6.08450,2.99250,-4.79500,0.00000,0.03416,0.97661,-0.18068,2023,6,8,16,21,8,323
6.08460,2.99250,-4.83000,0.00000,0.03404,0.97881,-0.17897,2023,6,8,16,21,8,334
6.08470,2.92250,-4.69000,0.00000,0.03221,0.97612,-0.17836,2023,6,8,16,21,8,345
6.08480,3.08000,-4.72500,0.00000,0.02989,0.97746,-0.17873,2023,6,8,16,21,8,356
6.08490,3.04500,-4.74250,0.00000,0.03160,0.97490,-0.17983,2023,6,8,16,21,8,368
6.08500,2.97500,-4.56750,0.00000,0.03221,0.98027,-0.17824,2023,6,8,16,21,8,379
6.08510,2.90500,-4.60250,0.00000,0.03111,0.97820,-0.17824,2023,6,8,16,21,8,390
6.08520,3.04500,-4.74250,0.00000,0.03294,0.97612,-0.17580,2023,6,8,16,21,8,401
6.08530,2.94000,-4.62000,0.00000,0.02965,0.97844,-0.17836,2023,6,8,16,21,8,412
6.08540,3.06250,-4.56750,0.00000,0.03123,0.97734,-0.17971,2023,6,8,16,21,8,423
6.08550,2.83500,-4.51500,0.00000,0.03331,0.97771,-0.17775,2023,6,8,16,21,8,434
6.08560,2.97500,-4.70750,0.00000,0.03209,0.97881,-0.17690,2023,6,8,16,21,8,445
6.08570,2.95750,-4.70750,0.00000,0.03148,0.97588,-0.18032,2023,6,8,16,21,8,456
6.08580,2.85250,-4.49750,0.00000,0.03416,0.97759,-0.17751,2023,6,8,16,21,8,468
6.08590,2.94000,-4.65500,0.00000,0.03318,0.97478,-0.17824,2023,6,8,16,21,8,479
6.08600,3.11500,-4.58500,0.00000,0.03233,0.97698,-0.17800,2023,6,8,16,21,8,490
6.08610,3.09750,-4.44500,0.00000,0.03111,0.97722,-0.17788,2023,6,8,16,21,8,501
6.08620,3.11500,-4.81250,0.00000,0.03087,0.97612,-0.17763,2023,6,8,16,21,8,512
6.08630,3.23750,-4.72500,0.00000,0.03209,0.97515,-0.17751,2023,6,8,16,21,8,523
6.08640,2.94000,-4.63750,0.00000,0.03294,0.97649,-0.17751,2023,6,8,16,21,8,534
6.08650,2.99250,-4.62000,0.00000,0.03355,0.97771,-0.18019,2023,6,8,16,21,8,545
6.08660,2.87000,-4.51500,0.00000,0.03209,0.97539,-0.17971,2023,6,8,16,21,8,556
6.08670,3.01000,-4.49750,0.00000,0.03099,0.97576,-0.17751,2023,6,8,16,21,8,568
6.08680,3.01000,-4.72500,0.00000,0.02989,0.97795,-0.17946,2023,6,8,16,21,8,579
6.08690,2.97500,-4.60250,0.00000,0.03184,0.97588,-0.17751,2023,6,8,16,21,8,590
6.08700,2.97500,-4.86500,0.00000,0.03318,0.97966,-0.17836,2023,6,8,16,21,8,601
6.08710,3.06250,-4.62000,0.00000,0.03379,0.98003,-0.17666,2023,6,8,16,21,8,612
6.08720,3.06250,-4.39250,0.00000,0.03318,0.97832,-0.17873,2023,6,8,16,21,8,623
6.08730,3.13250,-4.83000,0.00000,0.03087,0.97466,-0.17727,2023,6,8,16,21,8,634
6.08740,3.16750,-4.67250,0.00000,0.03355,0.97649,-0.17873,2023,6,8,16,21,8,645
6.08750,2.94000,-4.62000,0.00000,0.03111,0.97710,-0.17861,2023,6,8,16,21,8,656
6.08760,2.94000,-4.62000,0.00000,0.03221,0.97734,-0.17836,2023,6,8,16,21,8,668
6.08770,3.02750,-4.77750,0.00000,0.03135,0.97624,-0.17971,2023,6,8,16,21,8,679
6.08780,3.01000,-4.72500,0.00000,0.03306,0.97612,-0.17800,2023,6,8,16,21,8,690
6.08790,2.92250,-4.55000,0.00000,0.03148,0.97637,-0.17617,2023,6,8,16,21,8,701
6.08800,3.06250,-4.76000,0.00000,0.03245,0.97734,-0.18068,2023,6,8,16,21,8,712
6.08810,2.92250,-4.62000,0.00000,0.03270,0.97698,-0.17910,2023,6,8,16,21,8,723
6.08820,2.99250,-4.37500,0.00000,0.03196,0.97746,-0.17983,2023,6,8,16,21,8,734
6.08830,3.01000,-4.63750,0.00000,0.03123,0.97515,-0.17775,2023,6,8,16,21,8,745
6.08840,3.06250,-4.81250,0.00000,0.03148,0.97673,-0.17800,2023,6,8,16,21,8,756
6.08850,2.99250,-4.69000,0.00000,0.03257,0.97698,-0.17812,2023,6,8,16,21,8,768
6.08860,3.08000,-4.65500,0.00000,0.03148,0.97807,-0.18032,2023,6,8,16,21,8,779
6.08870,2.92250,-4.49750,0.00000,0.03343,0.97783,-0.17824,2023,6,8,16,21,8,790
6.08880,2.92250,-4.60250,0.00000,0.03355,0.97563,-0.18007,2023,6,8,16,21,8,801
6.08890,2.88750,-4.48000,0.00000,0.03123,0.97515,-0.17934,2023,6,8,16,21,8,812
6.08900,3.02750,-4.74250,0.00000,0.03062,0.97832,-0.17922,2023,6,8,16,21,8,823
6.08910,2.92250,-4.55000,0.00000,0.02904,0.97759,-0.17995,2023,6,8,16,21,8,834
6.08920,3.09750,-4.76000,0.00000,0.03135,0.97649,-0.17824,2023,6,8,16,21,8,845
6.08930,3.06250,-4.65500,0.00000,0.02904,0.97685,-0.17849,2023,6,8,16,21,8,856
6.08940,3.01000,-4.46250,0.00000,0.03245,0.97685,-0.17971,2023,6,8,16,21,8,868
6.08950,2.92250,-4.63750,0.00000,0.03367,0.97698,-0.18007,2023,6,8,16,21,8,879
6.08960,3.08000,-4.67250,0.00000,0.03160,0.97942,-0.17836,2023,6,8,16,21,8,890
6.08970,3.02750,-4.70750,0.00000,0.03379,0.97698,-0.17946,2023,6,8,16,21,8,901
6.08980,3.09750,-4.65500,0.00000,0.03343,0.97698,-0.17946,2023,6,8,16,21,8,912
6.08990,3.06250,-4.51500,0.00000,0.03282,0.97624,-0.18129,2023,6,8,16,21,8,923
6.09000,2.87000,-4.48000,0.00000,0.03184,0.97710,-0.17824,2023,6,8,16,21,8,934
6.09010,2.99250,-4.58500,0.00000,0.03257,0.98100,-0.17995,2023,6,8,16,21,8,945
6.09020,3.04500,-4.76000,0.00000,0.03440,0.97551,-0.17922,2023,6,8,16,21,8,956
6.09030,3.02750,-4.55000,0.00000,0.03306,0.97698,-0.17934,2023,6,8,16,21,8,968
6.09040,3.22000,-4.65500,0.00000,0.03087,0.97844,-0.17568,2023,6,8,16,21,8,979
6.09050,2.94000,-4.65500,0.00000,0.03111,0.97783,-0.17763,2023,6,8,16,21,8,990
6.09060,3.06250,-4.44500,0.00000,0.03404,0.97746,-0.18129,2023,6,8,16,21,8,1
6.09070,3.09750,-4.53250,0.00000,0.03282,0.97832,-0.17800,2023,6,8,16,21,8,12
6.09080,2.94000,-4.72500,0.00000,0.03050,0.97539,-0.17812,2023,6,8,16,21,8,23
6.09090,2.90500,-4.60250,0.00000,0.03062,0.97649,-0.17751,2023,6,8,16,21,8,34
6.09100,3.18500,-4.84750,0.00000,0.03099,0.97624,-0.18056,2023,6,8,16,21,8,45
6.09110,2.99250,-4.60250,0.00000,0.03050,0.97844,-0.17946,2023,6,8,16,21,8,56
6.09120,3.01000,-4.62000,0.00000,0.03379,0.97795,-0.17983,2023,6,8,16,21,8,68
6.09130,3.01000,-4.74250,0.00000,0.03294,0.97527,-0.17812,2023,6,8,16,21,8,79
6.09140,2.95750,-4.56750,0.00000,0.02916,0.97685,-0.17897,2023,6,8,16,21,8,90
6.09150,2.92250,-4.77750,0.00000,0.03257,0.97673,-0.18007,2023,6,8,16,21,8,101
6.09160,3.02750,-4.76000,0.00000,0.03160,0.97661,-0.18202,2023,6,8,16,21,8,112
6.09170,2.88750,-4.56750,0.00000,0.03050,0.98064,-0.18019,2023,6,8,16,21,8,123
6.09180,2.92250,-4.48000,0.00000,0.03050,0.97856,-0.17971,2023,6,8,16,21,8,134
6.09190,2.90500,-4.72500,0.00000,0.03209,0.97637,-0.17775,2023,6,8,16,21,8,145
6.09200,3.09750,-4.93500,0.00000,0.03172,0.97624,-0.18080,2023,6,8,16,21,8,156
6.09210,3.22000,-4.77750,0.00000,0.03392,0.97942,-0.18019,2023,6,8,16,21,8,168
6.09220,3.06250,-4.62000,0.00000,0.03196,0.97844,-0.17946,2023,6,8,16,21,8,179
6.09230,3.06250,-4.58500,0.00000,0.03184,0.97624,-0.17885,2023,6,8,16,21,8,190
6.09240,2.76500,-4.60250,0.00000,0.03306,0.97820,-0.17897,2023,6,8,16,21,8,201
6.09250,2.97500,-4.76000,0.00000,0.03245,0.97783,-0.17653,2023,6,8,16,21,8,212
6.09260,3.02750,-4.62000,0.00000,0.03465,0.97722,-0.17934,2023,6,8,16,21,8,223
6.09270,3.25500,-4.84750,0.00000,0.03099,0.97722,-0.17885,2023,6,8,16,21,8,234
6.09280,2.97500,-4.39250,0.00000,0.03355,0.97759,-0.17958,2023,6,8,16,21,8,245
6.09290,3.04500,-4.62000,0.00000,0.03196,0.97576,-0.17958,2023,6,8,16,21,8,256
6.09300,2.92250,-4.72500,0.00000,0.03245,0.97600,-0.17861,2023,6,8,16,21,8,268
6.09310,3.06250,-4.63750,0.00000,0.03148,0.97685,-0.17861,2023,6,8,16,21,8,279
6.09320,3.08000,-4.74250,0.00000,0.03331,0.97722,-0.17934,2023,6,8,16,21,8,290
6.09330,3.13250,-4.84750,0.00000,0.03343,0.97685,-0.18019,2023,6,8,16,21,8,301
6.09340,3.08000,-4.76000,0.00000,0.03050,0.97588,-0.17885,2023,6,8,16,21,8,312
6.09350,3.09750,-4.56750,0.00000,0.03209,0.97612,-0.17800,2023,6,8,16,21,8,323
6.09360,3.09750,-4.63750,0.00000,0.03233,0.97649,-0.17873,2023,6,8,16,21,8,334
6.09370,2.83500,-4.65500,0.00000,0.03331,0.97771,-0.18227,2023,6,8,16,21,8,345
6.09380,2.95750,-4.69000,0.00000,0.03245,0.97734,-0.17922,2023,6,8,16,21,8,356
6.09390,2.94000,-4.67250,0.00000,0.03257,0.97698,-0.17897,2023,6,8,16,21,8,368
6.09400,3.25500,-4.86500,0.00000,0.03404,0.97624,-0.17580,2023,6,8,16,21,8,379
6.09410,3.08000,-4.55000,0.00000,0.03282,0.97929,-0.17922,2023,6,8,16,21,8,390
6.09420,3.06250,-4.77750,0.00000,0.03087,0.97759,-0.17824,2023,6,8,16,21,8,401
6.09430,3.15000,-4.72500,0.00000,0.03257,0.97868,-0.18032,2023,6,8,16,21,8,412
6.09440,3.02750,-4.42750,0.00000,0.03331,0.97746,-0.17788,2023,6,8,16,21,8,423
6.09450,3.04500,-4.95250,0.00000,0.03257,0.97649,-0.17873,2023,6,8,16,21,8,434
6.09460,3.11500,-4.67250,0.00000,0.03306,0.97685,-0.17775,2023,6,8,16,21,8,445
6.09470,2.92250,-4.69000,0.00000,0.02977,0.97832,-0.17763,2023,6,8,16,21,8,456
6.09480,2.87000,-4.55000,0.00000,0.03135,0.97820,-0.17812,2023,6,8,16,21,8,468
6.09490,3.04500,-4.93500,0.00000,0.03306,0.97673,-0.17983,2023,6,8,16,21,8,479
6.09500,3.04500,-4.74250,0.00000,0.03111,0.97563,-0.17861,2023,6,8,16,21,8,490
6.09510,3.09750,-4.60250,0.00000,0.03257,0.97746,-0.17922,2023,6,8,16,21,8,501
6.09520,3.02750,-4.56750,0.00000,0.03233,0.97685,-0.18117,2023,6,8,16,21,8,512
6.09530,3.18500,-4.70750,0.00000,0.03379,0.97746,-0.17971,2023,6,8,16,21,8,523
6.09540,3.04500,-4.58500,0.00000,0.03050,0.97600,-0.18044,2023,6,8,16,21,8,534
6.09550,3.01000,-4.70750,0.00000,0.03099,0.97661,-0.17739,2023,6,8,16,21,8,545
6.09560,2.92250,-4.63750,0.00000,0.03489,0.97441,-0.17946,2023,6,8,16,21,8,556
6.09570,3.15000,-4.74250,0.00000,0.03270,0.97673,-0.17922,2023,6,8,16,21,8,568
6.09580,3.08000,-4.72500,0.00000,0.03453,0.97990,-0.17629,2023,6,8,16,21,8,579
6.09590,2.97500,-4.63750,0.00000,0.03379,0.97710,-0.17934,2023,6,8,16,21,8,590
6.09600,2.87000,-4.86500,0.00000,0.03087,0.97637,-0.17812,2023,6,8,16,21,8,601
6.09610,3.18500,-4.28750,0.00000,0.03318,0.97954,-0.17885,2023,6,8,16,21,8,612
6.09620,2.81750,-4.60250,0.00000,0.03148,0.97490,-0.18044,2023,6,8,16,21,8,623
6.09630,3.06250,-4.55000,0.00000,0.03294,0.97710,-0.17934,2023,6,8,16,21,8,634
6.09640,2.87000,-4.55000,0.00000,0.03221,0.97759,-0.17861,2023,6,8,16,21,8,645
6.09650,3.09750,-4.79500,0.00000,0.02977,0.97673,-0.17641,2023,6,8,16,21,8,656
6.09660,2.88750,-4.62000,0.00000,0.03221,0.97527,-0.17946,2023,6,8,16,21,8,668
6.09670,3.13250,-4.58500,0.00000,0.03087,0.97942,-0.17873,2023,6,8,16,21,8,679
6.09680,3.08000,-4.55000,0.00000,0.03294,0.97490,-0.17836,2023,6,8,16,21,8,690
6.09690,2.90500,-4.39250,0.00000,0.03416,0.97673,-0.17849,2023,6,8,16,21,8,701
6.09700,2.67750,-4.58500,0.00000,0.03245,0.97783,-0.17763,2023,6,8,16,21,8,712
6.09710,3.01000,-4.76000,0.00000,0.03184,0.97881,-0.17958,2023,6,8,16,21,8,723
6.09720,2.97500,-4.70750,0.00000,0.03087,0.97759,-0.18019,2023,6,8,16,21,8,734
6.09730,3.16750,-4.65500,0.00000,0.03099,0.97685,-0.17751,2023,6,8,16,21,8,745
6.09740,3.13250,-4.90000,0.00000,0.03453,0.97661,-0.17910,2023,6,8,16,21,8,756
6.09750,2.95750,-4.65500,0.00000,0.03257,0.97759,-0.17885,2023,6,8,16,21,8,768
6.09760,3.02750,-4.77750,0.00000,0.03440,0.97844,-0.17751,2023,6,8,16,21,8,779
6.09770,2.99250,-4.69000,0.00000,0.03416,0.97637,-0.17812,2023,6,8,16,21,8,790
6.09780,2.95750,-4.56750,0.00000,0.03379,0.97722,-0.17873,2023,6,8,16,21,8,801
6.09790,2.99250,-4.70750,0.00000,0.03148,0.97539,-0.17958,2023,6,8,16,21,8,812
6.09800,2.94000,-4.67250,0.00000,0.03135,0.97746,-0.17836,2023,6,8,16,21,8,823
6.09810,3.04500,-4.60250,0.00000,0.03306,0.97746,-0.17800,2023,6,8,16,21,8,834
6.09820,2.90500,-4.83000,0.00000,0.03465,0.97734,-0.18007,2023,6,8,16,21,8,845
6.09830,3.04500,-4.77750,0.00000,0.03111,0.97612,-0.18093,2023,6,8,16,21,8,856
6.09840,2.88750,-4.53250,0.00000,0.03367,0.97466,-0.17861,2023,6,8,16,21,8,868
6.09850,2.92250,-4.69000,0.00000,0.03257,0.97795,-0.17812,2023,6,8,16,21,8,879
6.09860,3.15000,-4.70750,0.00000,0.03245,0.97759,-0.17714,2023,6,8,16,21,8,890
6.09870,3.11500,-4.62000,0.00000,0.02928,0.97881,-0.18056,2023,6,8,16,21,8,901
6.09880,2.90500,-4.70750,0.00000,0.03184,0.97637,-0.18007,2023,6,8,16,21,8,912
6.09890,2.94000,-4.51500,0.00000,0.03123,0.97576,-0.17812,2023,6,8,16,21,8,923
6.09900,2.94000,-4.70750,0.00000,0.03184,0.97685,-0.17836,2023,6,8,16,21,9,4
6.09910,3.01000,-4.63750,0.00000,0.03318,0.97978,-0.17873,2023,6,8,16,21,9,15
6.09920,2.81750,-4.76000,0.00000,0.03355,0.97698,-0.17995,2023,6,8,16,21,9,26
6.09930,2.87000,-4.67250,0.00000,0.03379,0.98076,-0.18007,2023,6,8,16,21,9,38
6.09940,2.88750,-4.51500,0.00000,0.03526,0.97649,-0.17922,2023,6,8,16,21,9,49
6.09950,2.99250,-4.72500,0.00000,0.03306,0.97612,-0.17714,2023,6,8,16,21,9,60
6.09960,3.22000,-4.60250,0.00000,0.03160,0.97454,-0.17897,2023,6,8,16,21,9,71
6.09970,2.97500,-4.46250,0.00000,0.03184,0.97380,-0.18080,2023,6,8,16,21,9,82
6.09980,2.83500,-4.76000,0.00000,0.03270,0.97612,-0.17910,2023,6,8,16,21,9,93
6.09990,3.09750,-4.67250,0.00000,0.03074,0.97612,-0.17788,2023,6,8,16,21,9,104
6.10000,3.01000,-4.74250,0.00000,0.03221,0.98100,-0.18068,2023,6,8,16,21,9,115
6.10010,3.13250,-4.53250,0.00000,0.03343,0.97600,-0.18068,2023,6,8,16,21,9,126
6.10020,2.85250,-4.62000,0.00000,0.03038,0.97929,-0.17763,2023,6,8,16,21,9,138
6.10030,3.06250,-4.44500,0.00000,0.03477,0.97820,-0.17788,2023,6,8,16,21,9,149
6.10040,3.06250,-4.69000,0.00000,0.03331,0.97771,-0.17861,2023,6,8,16,21,9,160
6.10050,3.13250,-4.83000,0.00000,0.03050,0.97624,-0.17873,2023,6,8,16,21,9,171
6.10060,3.04500,-4.74250,0.00000,0.03123,0.97771,-0.17910,2023,6,8,16,21,9,182
6.10070,2.90500,-4.69000,0.00000,0.03123,0.97600,-0.17849,2023,6,8,16,21,9,193
6.10080,2.99250,-4.67250,0.00000,0.03306,0.97722,-0.18007,2023,6,8,16,21,9,204
6.10090,2.90500,-4.63750,0.00000,0.03282,0.97868,-0.17958,2023,6,8,16,21,9,215
6.10100,3.18500,-4.63750,0.00000,0.03282,0.97649,-0.18032,2023,6,8,16,21,9,226
6.10110,2.94000,-4.56750,0.00000,0.03294,0.97746,-0.17971,2023,6,8,16,21,9,238
6.10120,2.94000,-4.70750,0.00000,0.03196,0.97893,-0.17812,2023,6,8,16,21,9,249
6.10130,3.06250,-4.77750,0.00000,0.03184,0.97649,-0.17897,2023,6,8,16,21,9,260
6.10140,3.08000,-4.51500,0.00000,0.03074,0.97673,-0.18007,2023,6,8,16,21,9,271
6.10150,3.06250,-4.65500,0.00000,0.03343,0.97685,-0.17922,2023,6,8,16,21,9,282
6.10160,2.99250,-4.67250,0.00000,0.03026,0.97698,-0.17897,2023,6,8,16,21,9,293
6.10170,2.99250,-4.67250,0.00000,0.03135,0.97539,-0.17885,2023,6,8,16,21,9,304
6.10180,3.01000,-4.70750,0.00000,0.03148,0.97673,-0.17666,2023,6,8,16,21,9,315
6.10190,3.06250,-4.55000,0.00000,0.03074,0.97795,-0.17788,2023,6,8,16,21,9,326
6.10200,2.99250,-4.62000,0.00000,0.03209,0.97746,-0.17910,2023,6,8,16,21,9,338
6.10210,2.97500,-4.49750,0.00000,0.03123,0.97661,-0.17836,2023,6,8,16,21,9,349
6.10220,2.95750,-4.60250,0.00000,0.03257,0.97393,-0.18019,2023,6,8,16,21,9,360
6.10230,3.09750,-4.44500,0.00000,0.03233,0.97722,-0.18056,2023,6,8,16,21,9,371
6.10240,2.94000,-4.58500,0.00000,0.03367,0.97783,-0.17861,2023,6,8,16,21,9,382
6.10250,3.11500,-4.58500,0.00000,0.03294,0.97685,-0.17836,2023,6,8,16,21,9,393
6.10260,2.99250,-4.65500,0.00000,0.03184,0.97844,-0.17861,2023,6,8,16,21,9,404
6.10270,3.04500,-4.65500,0.00000,0.03306,0.97600,-0.18093,2023,6,8,16,21,9,415
6.10280,3.15000,-4.97000,0.00000,0.03343,0.97929,-0.17995,2023,6,8,16,21,9,426
6.10290,3.09750,-4.56750,0.00000,0.03160,0.97783,-0.17861,2023,6,8,16,21,9,438
6.10300,3.08000,-4.55000,0.00000,0.03221,0.97600,-0.17897,2023,6,8,16,21,9,449
6.10310,3.04500,-4.55000,0.00000,0.03233,0.97746,-0.17885,2023,6,8,16,21,9,460
6.10320,2.99250,-4.62000,0.00000,0.03306,0.97673,-0.17653,2023,6,8,16,21,9,471
6.10330,2.94000,-4.51500,0.00000,0.03318,0.97673,-0.17775,2023,6,8,16,21,9,482
6.10340,3.04500,-4.70750,0.00000,0.03306,0.97722,-0.18129,2023,6,8,16,21,9,493
6.10350,3.01000,-4.55000,0.00000,0.03087,0.97673,-0.18129,2023,6,8,16,21,9,504
6.10360,3.09750,-4.83000,0.00000,0.03318,0.97783,-0.17958,2023,6,8,16,21,9,515
6.10370,3.04500,-4.58500,0.00000,0.03465,0.97783,-0.17946,2023,6,8,16,21,9,526
6.10380,3.15000,-4.72500,0.00000,0.03294,0.97600,-0.18044,2023,6,8,16,21,9,538
6.10390,2.94000,-4.67250,0.00000,0.03172,0.97832,-0.17702,2023,6,8,16,21,9,549
6.10400,3.02750,-4.72500,0.00000,0.03184,0.97661,-0.17873,2023,6,8,16,21,9,560
6.10410,3.13250,-4.55000,0.00000,0.03294,0.97881,-0.18154,2023,6,8,16,21,9,571
6.10420,2.99250,-4.56750,0.00000,0.03123,0.97600,-0.17739,2023,6,8,16,21,9,582
6.10430,3.11500,-4.51500,0.00000,0.03245,0.97795,-0.17910,2023,6,8,16,21,9,593
6.10440,2.90500,-4.56750,0.00000,0.03318,0.97624,-0.17763,2023,6,8,16,21,9,604
6.10450,2.99250,-4.65500,0.00000,0.03196,0.97746,-0.18019,2023,6,8,16,21,9,615
6.10460,2.92250,-4.55000,0.00000,0.03111,0.97905,-0.18032,2023,6,8,16,21,9,626
6.10470,3.09750,-4.69000,0.00000,0.03184,0.97661,-0.17836,2023,6,8,16,21,9,638
6.10480,3.06250,-4.62000,0.00000,0.03257,0.97783,-0.17727,2023,6,8,16,21,9,649
6.10490,2.99250,-4.63750,0.00000,0.03221,0.97319,-0.17885,2023,6,8,16,21,9,660
6.10500,3.11500,-4.49750,0.00000,0.03257,0.97844,-0.17922,2023,6,8,16,21,9,671
6.10510,2.97500,-4.53250,0.00000,0.03209,0.97698,-0.17897,2023,6,8,16,21,9,682
6.10520,2.99250,-4.69000,0.00000,0.03209,0.97759,-0.17934,2023,6,8,16,21,9,693
6.10530,3.08000,-4.65500,0.00000,0.03318,0.97746,-0.18080,2023,6,8,16,21,9,704
6.10540,3.01000,-4.58500,0.00000,0.03538,0.97759,-0.17885,2023,6,8,16,21,9,715
6.10550,2.85250,-4.51500,0.00000,0.03318,0.97832,-0.18117,2023,6,8,16,21,9,726
6.10560,3.09750,-4.62000,0.00000,0.03233,0.97478,-0.17922,2023,6,8,16,21,9,738
6.10570,3.04500,-4.60250,0.00000,0.03172,0.97820,-0.17873,2023,6,8,16,21,9,749
6.10580,3.11500,-4.58500,0.00000,0.02977,0.97612,-0.18032,2023,6,8,16,21,9,760
6.10590,3.22000,-4.76000,0.00000,0.03331,0.97990,-0.17861,2023,6,8,16,21,9,771
6.10600,3.08000,-4.56750,0.00000,0.03257,0.97588,-0.18056,2023,6,8,16,21,9,782
6.10610,2.76500,-4.70750,0.00000,0.03221,0.97771,-0.18032,2023,6,8,16,21,9,793
6.10620,3.02750,-4.63750,0.00000,0.03379,0.97588,-0.17617,2023,6,8,16,21,9,804
6.10630,2.92250,-4.58500,0.00000,0.03343,0.97637,-0.17836,2023,6,8,16,21,9,815
6.10640,3.01000,-4.48000,0.00000,0.03294,0.97844,-0.17714,2023,6,8,16,21,9,826
6.10650,2.99250,-4.55000,0.00000,0.03233,0.97807,-0.17861,2023,6,8,16,21,9,838
6.10660,2.97500,-4.74250,0.00000,0.03209,0.97722,-0.17934,2023,6,8,16,21,9,849
6.10670,2.97500,-4.42750,0.00000,0.03233,0.97624,-0.17885,2023,6,8,16,21,9,860
6.10680,3.11500,-4.72500,0.00000,0.03026,0.97795,-0.17763,2023,6,8,16,21,9,871
6.10690,2.90500,-4.49750,0.00000,0.03172,0.97783,-0.17788,2023,6,8,16,21,9,882
6.10700,3.09750,-4.77750,0.00000,0.03587,0.97783,-0.17922,2023,6,8,16,21,9,893
6.10710,2.94000,-4.58500,0.00000,0.03184,0.97734,-0.17897,2023,6,8,16,21,9,904
6.10720,3.04500,-4.79500,0.00000,0.03087,0.97710,-0.17934,2023,6,8,16,21,9,915
6.10730,2.87000,-4.58500,0.00000,0.03135,0.97685,-0.17946,2023,6,8,16,21,9,926
6.10740,3.06250,-4.90000,0.00000,0.03270,0.97734,-0.17751,2023,6,8,16,21,9,938
6.10750,3.23750,-4.62000,0.00000,0.03379,0.97515,-0.17934,2023,6,8,16,21,9,949
6.10760,2.94000,-4.77750,0.00000,0.03440,0.97661,-0.18068,2023,6,8,16,21,9,960
6.10770,3.06250,-4.60250,0.00000,0.03282,0.97673,-0.17910,2023,6,8,16,21,9,971
6.10780,3.08000,-4.48000,0.00000,0.03257,0.97734,-0.17800,2023,6,8,16,21,9,982
6.10790,2.88750,-4.65500,0.00000,0.03172,0.97820,-0.17739,2023,6,8,16,21,9,993
6.10800,2.95750,-4.84750,0.00000,0.03160,0.97954,-0.17727,2023,6,8,16,21,9,4
6.10810,2.97500,-4.55000,0.00000,0.03331,0.97881,-0.17739,2023,6,8,16,21,9,15
6.10820,2.87000,-4.55000,0.00000,0.03148,0.97734,-0.17629,2023,6,8,16,21,9,26
6.10830,2.90500,-4.65500,0.00000,0.03196,0.97759,-0.18007,2023,6,8,16,21,9,38
6.10840,2.81750,-4.69000,0.00000,0.03270,0.97832,-0.17727,2023,6,8,16,21,9,49
6.10850,2.94000,-4.37500,0.00000,0.03367,0.97820,-0.17910,2023,6,8,16,21,9,60
6.10860,2.92250,-4.56750,0.00000,0.03209,0.97563,-0.17666,2023,6,8,16,21,9,71
6.10870,3.11500,-4.65500,0.00000,0.03416,0.97710,-0.17727,2023,6,8,16,21,9,82
6.10880,3.01000,-4.70750,0.00000,0.02977,0.97832,-0.17800,2023,6,8,16,21,9,93
6.10890,3.04500,-4.83000,0.00000,0.03111,0.97746,-0.17983,2023,6,8,16,21,9,104
