#2023/06/08 14:17:42
time,wx,wy,wz,ax,ay,az,yy,MM,dd,hh,mm,ss,ms
2.29280,-0.44152,-0.16678,0.00000,0.02623,0.97661,-0.17422,0.0,2023,6,8,14,17,43,196
2.29290,0.20598,-0.11428,0.00000,0.02342,0.97649,-0.17507,0.0,2023,6,8,14,17,43,207
2.29300,0.67848,0.04322,0.00000,0.02806,0.97734,-0.17641,0.0,2023,6,8,14,17,43,218
2.29310,0.29348,-0.06177,0.00000,0.02416,0.97795,-0.17995,0.0,2023,6,8,14,17,43,229
2.29320,-0.33652,-0.06177,0.00000,0.02525,0.97881,-0.17763,0.0,2023,6,8,14,17,43,240
2.29330,-0.73902,0.07822,0.00000,0.02208,0.97783,-0.17702,0.0,2023,6,8,14,17,43,251
2.29340,-0.23152,0.11322,0.00000,0.02196,0.97795,-0.17544,0.0,2023,6,8,14,17,43,262
2.29350,0.34598,0.18322,0.00000,0.02342,0.97807,-0.17531,0.0,2023,6,8,14,17,43,273
2.29360,0.64348,-0.13178,0.00000,0.02501,0.97844,-0.17995,0.0,2023,6,8,14,17,43,284
2.29370,0.15348,-0.07927,0.00000,0.02538,0.97649,-0.17836,0.0,2023,6,8,14,17,43,296
2.29380,-0.51152,0.00822,0.00000,0.02379,0.97759,-0.17727,0.0,2023,6,8,14,17,43,307
2.29390,-0.28402,-0.18428,0.00000,0.02428,0.97856,-0.17605,0.0,2023,6,8,14,17,43,318
2.29400,0.01348,0.06072,0.00000,0.02184,0.97685,-0.17348,0.0,2023,6,8,14,17,43,329
2.29410,0.59098,0.02572,0.00000,0.02562,0.97515,-0.17641,0.0,2023,6,8,14,17,43,340
2.29420,0.36348,-0.00928,0.00000,0.02245,0.97710,-0.18105,0.0,2023,6,8,14,17,43,351
2.29430,0.17098,-0.20178,0.00000,0.02281,0.97551,-0.17958,0.0,2023,6,8,14,17,43,362
2.29440,-0.52902,0.13072,0.00000,0.02550,0.97795,-0.17702,0.0,2023,6,8,14,17,43,373
2.29450,-0.38902,-0.00928,0.00000,0.02355,0.98003,-0.17592,0.0,2023,6,8,14,17,43,384
2.29460,-0.03902,-0.07927,0.00000,0.02367,0.97881,-0.17507,0.0,2023,6,8,14,17,43,396
2.29470,0.53848,-0.06177,0.00000,0.02379,0.97905,-0.17690,0.0,2023,6,8,14,17,43,407
2.29480,0.59098,-0.04428,0.00000,0.02403,0.97734,-0.17592,0.0,2023,6,8,14,17,43,418
2.29490,-0.09152,0.02572,0.00000,0.02440,0.97832,-0.17812,0.0,2023,6,8,14,17,43,429
2.29500,-0.40652,-0.14928,0.00000,0.02525,0.97563,-0.17617,0.0,2023,6,8,14,17,43,440
2.29510,-0.52902,-0.02678,0.00000,0.02525,0.97722,-0.17458,0.0,2023,6,8,14,17,43,451
2.29520,-0.02152,-0.02678,0.00000,0.02562,0.97539,-0.17605,0.0,2023,6,8,14,17,43,462
2.29530,0.53848,-0.18428,0.00000,0.02489,0.98015,-0.17568,0.0,2023,6,8,14,17,43,473
2.29540,0.34598,0.04322,0.00000,0.02367,0.97917,-0.17775,0.0,2023,6,8,14,17,43,484
2.29550,-0.12652,0.13072,0.00000,0.02416,0.97539,-0.17702,0.0,2023,6,8,14,17,43,496
2.29560,-0.37152,0.04322,0.00000,0.02672,0.97795,-0.17580,0.0,2023,6,8,14,17,43,507
2.29570,-0.12652,-0.09678,0.00000,0.02391,0.97905,-0.17849,0.0,2023,6,8,14,17,43,518
2.29580,0.22348,-0.06177,0.00000,0.02391,0.97710,-0.17629,0.0,2023,6,8,14,17,43,529
2.29590,0.24098,0.21822,0.00000,0.02355,0.97685,-0.17653,0.0,2023,6,8,14,17,43,540
2.29600,0.11848,-0.09678,0.00000,0.02513,0.97685,-0.17580,0.0,2023,6,8,14,17,43,551
2.29610,-0.19652,-0.02678,0.00000,0.02538,0.97746,-0.17775,0.0,2023,6,8,14,17,43,562
2.29620,-0.42402,-0.00928,0.00000,0.02611,0.97527,-0.17531,0.0,2023,6,8,14,17,43,573
2.29630,-0.09152,-0.11428,0.00000,0.02391,0.97807,-0.17446,0.0,2023,6,8,14,17,43,584
2.29640,0.25848,-0.23678,0.00000,0.02464,0.97673,-0.17678,0.0,2023,6,8,14,17,43,596
2.29650,0.27598,0.00822,0.00000,0.02501,0.97881,-0.17714,0.0,2023,6,8,14,17,43,607
2.29660,-0.00402,-0.11428,0.00000,0.02416,0.97807,-0.17702,0.0,2023,6,8,14,17,43,618
2.29670,-0.66902,0.07822,0.00000,0.02184,0.97698,-0.17507,0.0,2023,6,8,14,17,43,629
2.29680,-0.28402,0.02572,0.00000,0.02403,0.97856,-0.17629,0.0,2023,6,8,14,17,43,640
2.29690,0.03098,-0.04428,0.00000,0.02440,0.97881,-0.17629,0.0,2023,6,8,14,17,43,651
2.29700,0.43348,-0.23678,0.00000,0.02306,0.97783,-0.17666,0.0,2023,6,8,14,17,43,662
2.29710,0.36348,-0.04428,0.00000,0.02611,0.97868,-0.17910,0.0,2023,6,8,14,17,43,673
2.29720,0.11848,-0.20178,0.00000,0.02428,0.97942,-0.17568,0.0,2023,6,8,14,17,43,684
2.29730,-0.09152,0.04322,0.00000,0.02403,0.97820,-0.17666,0.0,2023,6,8,14,17,43,696
2.29740,-0.14402,0.04322,0.00000,0.02477,0.97539,-0.17495,0.0,2023,6,8,14,17,43,707
2.29750,0.03098,-0.04428,0.00000,0.02440,0.97661,-0.17727,0.0,2023,6,8,14,17,43,718
2.29760,0.27598,-0.11428,0.00000,0.02440,0.97698,-0.17397,0.0,2023,6,8,14,17,43,729
2.29770,0.18848,0.09572,0.00000,0.02513,0.97673,-0.17800,0.0,2023,6,8,14,17,43,740
2.29780,-0.14402,0.00822,0.00000,0.02477,0.97807,-0.17641,0.0,2023,6,8,14,17,43,751
2.29790,-0.45902,0.14823,0.00000,0.02367,0.97795,-0.17605,0.0,2023,6,8,14,17,43,762
2.29800,-0.16152,-0.02678,0.00000,0.02391,0.97612,-0.17397,0.0,2023,6,8,14,17,43,773
2.29810,0.04848,0.06072,0.00000,0.02208,0.97820,-0.17519,0.0,2023,6,8,14,17,43,784
2.29820,0.17098,0.16572,0.00000,0.02306,0.97807,-0.17568,0.0,2023,6,8,14,17,43,796
2.29830,-0.02152,0.06072,0.00000,0.02306,0.97942,-0.17434,0.0,2023,6,8,14,17,43,807
2.29840,0.13598,0.00822,0.00000,0.02660,0.97637,-0.17580,0.0,2023,6,8,14,17,43,818
2.29850,-0.19652,0.04322,0.00000,0.02452,0.98003,-0.17653,0.0,2023,6,8,14,17,43,829
2.29860,-0.33652,-0.16678,0.00000,0.02623,0.97795,-0.17836,0.0,2023,6,8,14,17,43,840
2.29870,0.01348,-0.27178,0.00000,0.02196,0.97673,-0.17495,0.0,2023,6,8,14,17,43,851
2.29880,0.18848,-0.14928,0.00000,0.02440,0.97832,-0.17666,0.0,2023,6,8,14,17,43,862
2.29890,0.10098,0.02572,0.00000,0.02574,0.97746,-0.17629,0.0,2023,6,8,14,17,43,873
2.29900,0.27598,0.13072,0.00000,0.02355,0.97673,-0.17592,0.0,2023,6,8,14,17,43,884
2.29910,-0.12652,-0.18428,0.00000,0.02525,0.97868,-0.17922,0.0,2023,6,8,14,17,43,896
2.29920,-0.09152,-0.04428,0.00000,0.02379,0.98064,-0.17727,0.0,2023,6,8,14,17,43,907
2.29930,-0.21402,-0.06177,0.00000,0.02525,0.97710,-0.17605,0.0,2023,6,8,14,17,43,918
2.29940,0.11848,0.06072,0.00000,0.02464,0.97600,-0.17519,0.0,2023,6,8,14,17,43,929
2.29950,0.36348,0.02572,0.00000,0.02355,0.97942,-0.17483,0.0,2023,6,8,14,17,43,940
2.29960,0.20598,-0.02678,0.00000,0.02294,0.97820,-0.17739,0.0,2023,6,8,14,17,43,951
2.29970,0.03098,0.16572,0.00000,0.02452,0.97722,-0.17653,0.0,2023,6,8,14,17,43,962
2.29980,-0.44152,-0.04428,0.00000,0.02269,0.97795,-0.17849,0.0,2023,6,8,14,17,43,973
2.29990,-0.40652,-0.07927,0.00000,0.02172,0.97942,-0.17531,0.0,2023,6,8,14,17,43,984
2.30000,0.10098,0.23572,0.00000,0.02330,0.97807,-0.17653,0.0,2023,6,8,14,17,44,6
2.30010,0.66098,-0.09678,0.00000,0.02196,0.97466,-0.17727,0.0,2023,6,8,14,17,44,17
2.30020,0.34598,0.16572,0.00000,0.02355,0.97905,-0.17824,0.0,2023,6,8,14,17,44,28
2.30030,-0.26652,0.09572,0.00000,0.02342,0.97929,-0.17641,0.0,2023,6,8,14,17,44,39
2.30040,-0.21402,-0.16678,0.00000,0.02184,0.97722,-0.17422,0.0,2023,6,8,14,17,44,50
2.30050,0.03098,-0.07927,0.00000,0.02269,0.97746,-0.17397,0.0,2023,6,8,14,17,44,61
2.30060,0.08348,-0.02678,0.00000,0.02525,0.97734,-0.17446,0.0,2023,6,8,14,17,44,72
2.30070,0.13598,-0.21928,0.00000,0.02623,0.97868,-0.17446,0.0,2023,6,8,14,17,44,83
2.30080,-0.07402,-0.06177,0.00000,0.02355,0.97685,-0.17629,0.0,2023,6,8,14,17,44,94
2.30090,0.06598,-0.00928,0.00000,0.02294,0.97954,-0.17519,0.0,2023,6,8,14,17,44,106
2.30100,0.06598,-0.14928,0.00000,0.02416,0.97783,-0.17483,0.0,2023,6,8,14,17,44,117
2.30110,0.17098,0.25322,0.00000,0.02416,0.97539,-0.17653,0.0,2023,6,8,14,17,44,128
2.30120,0.11848,0.02572,0.00000,0.02416,0.97795,-0.17739,0.0,2023,6,8,14,17,44,139
2.30130,-0.03902,-0.02678,0.00000,0.02428,0.97637,-0.17666,0.0,2023,6,8,14,17,44,150
2.30140,-0.12652,-0.14928,0.00000,0.02318,0.97539,-0.17763,0.0,2023,6,8,14,17,44,161
2.30150,-0.26652,0.09572,0.00000,0.02342,0.97710,-0.17678,0.0,2023,6,8,14,17,44,172
2.30160,0.10098,-0.14928,0.00000,0.02477,0.97563,-0.17666,0.0,2023,6,8,14,17,44,183
2.30170,0.03098,0.00822,0.00000,0.02513,0.97771,-0.17617,0.0,2023,6,8,14,17,44,194
2.30180,-0.03902,-0.06177,0.00000,0.02379,0.97734,-0.17666,0.0,2023,6,8,14,17,44,206
2.30190,0.04848,0.16572,0.00000,0.02391,0.97649,-0.17409,0.0,2023,6,8,14,17,44,217
2.30200,0.03098,-0.18428,0.00000,0.02318,0.97685,-0.17470,0.0,2023,6,8,14,17,44,228
2.30210,-0.09152,-0.02678,0.00000,0.02330,0.97917,-0.17824,0.0,2023,6,8,14,17,44,239
2.30220,-0.07402,-0.02678,0.00000,0.02477,0.97832,-0.17580,0.0,2023,6,8,14,17,44,250
2.30230,-0.14402,0.16572,0.00000,0.02269,0.97551,-0.17641,0.0,2023,6,8,14,17,44,261
2.30240,0.06598,0.09572,0.00000,0.02696,0.97759,-0.17690,0.0,2023,6,8,14,17,44,272
2.30250,-0.05652,-0.11428,0.00000,0.02623,0.98015,-0.17544,0.0,2023,6,8,14,17,44,283
2.30260,0.04848,-0.00928,0.00000,0.02416,0.97698,-0.17702,0.0,2023,6,8,14,17,44,294
2.30270,-0.17902,0.07822,0.00000,0.02416,0.97746,-0.17495,0.0,2023,6,8,14,17,44,306
2.30280,0.13598,-0.18428,0.00000,0.02355,0.98076,-0.17763,0.0,2023,6,8,14,17,44,317
2.30290,0.10098,0.14823,0.00000,0.02416,0.97637,-0.17653,0.0,2023,6,8,14,17,44,328
2.30300,0.01348,-0.02678,0.00000,0.02245,0.97795,-0.17592,0.0,2023,6,8,14,17,44,339
2.30310,-0.05652,0.04322,0.00000,0.02172,0.97795,-0.17727,0.0,2023,6,8,14,17,44,350
2.30320,0.06598,0.14823,0.00000,0.02428,0.97893,-0.17690,0.0,2023,6,8,14,17,44,361
2.30330,0.08348,0.21822,0.00000,0.02416,0.97710,-0.17592,0.0,2023,6,8,14,17,44,372
2.30340,0.10098,-0.02678,0.00000,0.02391,0.97673,-0.17422,0.0,2023,6,8,14,17,44,383
2.30350,0.17098,-0.23678,0.00000,0.02318,0.97795,-0.17788,0.0,2023,6,8,14,17,44,394
2.30360,-0.09152,0.09572,0.00000,0.02489,0.97637,-0.17800,0.0,2023,6,8,14,17,44,406
2.30370,-0.05652,0.00822,0.00000,0.02379,0.97722,-0.17714,0.0,2023,6,8,14,17,44,417
2.30380,0.13598,-0.06177,0.00000,0.02416,0.97551,-0.17531,0.0,2023,6,8,14,17,44,428
2.30390,0.03098,-0.06177,0.00000,0.02416,0.97783,-0.17519,0.0,2023,6,8,14,17,44,439
2.30400,-0.21402,-0.06177,0.00000,0.02489,0.97624,-0.17714,0.0,2023,6,8,14,17,44,450
2.30410,-0.33652,-0.04428,0.00000,0.02635,0.97746,-0.17592,0.0,2023,6,8,14,17,44,461
2.30420,-0.14402,0.00822,0.00000,0.02379,0.97734,-0.17666,0.0,2023,6,8,14,17,44,472
2.30430,0.24098,-0.09678,0.00000,0.02416,0.97685,-0.17507,0.0,2023,6,8,14,17,44,483
2.30440,0.10098,-0.25428,0.00000,0.02525,0.97917,-0.17617,0.0,2023,6,8,14,17,44,494
2.30450,0.06598,-0.02678,0.00000,0.02379,0.97637,-0.17641,0.0,2023,6,8,14,17,44,506
2.30460,-0.03902,-0.02678,0.00000,0.02233,0.97783,-0.17653,0.0,2023,6,8,14,17,44,517
2.30470,-0.07402,0.00822,0.00000,0.02525,0.97807,-0.17751,0.0,2023,6,8,14,17,44,528
2.30480,-0.00402,0.04322,0.00000,0.02452,0.97637,-0.17397,0.0,2023,6,8,14,17,44,539
2.30490,0.08348,-0.04428,0.00000,0.02306,0.97771,-0.17629,0.0,2023,6,8,14,17,44,550
2.30500,0.06598,0.11322,0.00000,0.02452,0.97759,-0.17714,0.0,2023,6,8,14,17,44,561
2.30510,0.17098,-0.21928,0.00000,0.02391,0.97844,-0.17531,0.0,2023,6,8,14,17,44,572
2.30520,-0.12652,-0.09678,0.00000,0.02294,0.97685,-0.17629,0.0,2023,6,8,14,17,44,583
2.30530,-0.16152,0.06072,0.00000,0.02501,0.97783,-0.17702,0.0,2023,6,8,14,17,44,594
2.30540,0.22348,-0.07927,0.00000,0.02403,0.97820,-0.17556,0.0,2023,6,8,14,17,44,606
2.30550,0.20598,0.02572,0.00000,0.02159,0.97856,-0.17617,0.0,2023,6,8,14,17,44,617
2.30560,-0.40652,0.11322,0.00000,0.02428,0.97868,-0.17544,0.0,2023,6,8,14,17,44,628
2.30570,-0.09152,-0.11428,0.00000,0.02477,0.97893,-0.17458,0.0,2023,6,8,14,17,44,639
2.30580,0.20598,-0.14928,0.00000,0.02403,0.97576,-0.17617,0.0,2023,6,8,14,17,44,650
2.30590,0.43348,0.04322,0.00000,0.02562,0.97917,-0.17568,0.0,2023,6,8,14,17,44,661
2.30600,0.20598,-0.18428,0.00000,0.02525,0.97698,-0.17580,0.0,2023,6,8,14,17,44,672
2.30610,0.04848,0.02572,0.00000,0.02550,0.97868,-0.17763,0.0,2023,6,8,14,17,44,683
2.30620,-0.16152,-0.13178,0.00000,0.02525,0.97722,-0.17739,0.0,2023,6,8,14,17,44,694
2.30630,-0.37152,-0.06177,0.00000,0.02660,0.97673,-0.17409,0.0,2023,6,8,14,17,44,706
2.30640,-0.09152,-0.09678,0.00000,0.02538,0.97649,-0.17519,0.0,2023,6,8,14,17,44,717
2.30650,0.15348,-0.02678,0.00000,0.02281,0.97966,-0.17470,0.0,2023,6,8,14,17,44,728
2.30660,0.15348,-0.00928,0.00000,0.02525,0.97673,-0.17727,0.0,2023,6,8,14,17,44,739
2.30670,0.10098,0.06072,0.00000,0.02428,0.97832,-0.17458,0.0,2023,6,8,14,17,44,750
2.30680,-0.14402,-0.04428,0.00000,0.02525,0.97637,-0.17910,0.0,2023,6,8,14,17,44,761
2.30690,-0.23152,0.02572,0.00000,0.02428,0.97795,-0.17507,0.0,2023,6,8,14,17,44,772
2.30700,-0.33652,-0.04428,0.00000,0.02318,0.97490,-0.17556,0.0,2023,6,8,14,17,44,783
2.30710,0.11848,-0.11428,0.00000,0.02403,0.98088,-0.17483,0.0,2023,6,8,14,17,44,794
2.30720,0.32848,-0.13178,0.00000,0.02342,0.97624,-0.17629,0.0,2023,6,8,14,17,44,806
2.30730,0.10098,-0.04428,0.00000,0.02550,0.97966,-0.17873,0.0,2023,6,8,14,17,44,817
2.30740,-0.03902,0.02572,0.00000,0.02538,0.97807,-0.17763,0.0,2023,6,8,14,17,44,828
2.30750,-0.10902,0.21822,0.00000,0.02660,0.97771,-0.17690,0.0,2023,6,8,14,17,44,839
2.30760,-0.03902,-0.25428,0.00000,0.02501,0.97612,-0.17544,0.0,2023,6,8,14,17,44,850
2.30770,0.15348,-0.04428,0.00000,0.02611,0.97637,-0.17544,0.0,2023,6,8,14,17,44,861
2.30780,0.18848,0.14823,0.00000,0.02318,0.97966,-0.17788,0.0,2023,6,8,14,17,44,872
2.30790,0.06598,-0.09678,0.00000,0.02684,0.97746,-0.17788,0.0,2023,6,8,14,17,44,883
2.30800,-0.17902,-0.06177,0.00000,0.02452,0.97759,-0.17592,0.0,2023,6,8,14,17,44,894
2.30810,0.01348,0.23572,0.00000,0.02464,0.97710,-0.17714,0.0,2023,6,8,14,17,44,906
2.30820,0.01348,-0.02678,0.00000,0.02196,0.97722,-0.17568,0.0,2023,6,8,14,17,44,917
2.30830,0.32848,-0.04428,0.00000,0.02318,0.97722,-0.17629,0.0,2023,6,8,14,17,44,928
2.30840,0.01348,-0.02678,0.00000,0.02355,0.97942,-0.17531,0.0,2023,6,8,14,17,44,939
2.30850,-0.30152,-0.16678,0.00000,0.02306,0.97673,-0.17714,0.0,2023,6,8,14,17,44,950
2.30860,-0.16152,-0.28927,0.00000,0.02464,0.97710,-0.17556,0.0,2023,6,8,14,17,44,961
2.30870,-0.02152,0.09572,0.00000,0.02672,0.97612,-0.17214,0.0,2023,6,8,14,17,44,972
2.30880,0.41598,-0.16678,0.00000,0.02342,0.97954,-0.17409,0.0,2023,6,8,14,17,44,983
2.30890,0.27598,-0.13178,0.00000,0.02623,0.97954,-0.17885,0.0,2023,6,8,14,17,44,994
2.30900,0.06598,-0.02678,0.00000,0.02416,0.97612,-0.17690,0.0,2023,6,8,14,17,45,6
2.30910,-0.23152,0.04322,0.00000,0.02403,0.97454,-0.17800,0.0,2023,6,8,14,17,45,17
2.30920,-0.44152,0.18322,0.00000,0.02513,0.98015,-0.17373,0.0,2023,6,8,14,17,45,28
2.30930,-0.02152,-0.09678,0.00000,0.02245,0.97759,-0.17507,0.0,2023,6,8,14,17,45,39
2.30940,0.45098,0.23572,0.00000,0.02355,0.97820,-0.17727,0.0,2023,6,8,14,17,45,50
2.30950,0.29348,0.06072,0.00000,0.02184,0.97905,-0.17641,0.0,2023,6,8,14,17,45,61
2.30960,-0.07402,-0.06177,0.00000,0.02208,0.97515,-0.17592,0.0,2023,6,8,14,17,45,72
2.30970,-0.44152,-0.02678,0.00000,0.02452,0.97783,-0.17629,0.0,2023,6,8,14,17,45,83
2.30980,-0.40652,0.06072,0.00000,0.02342,0.97734,-0.17519,0.0,2023,6,8,14,17,45,94
2.30990,0.38098,-0.18428,0.00000,0.02562,0.97661,-0.17568,0.0,2023,6,8,14,17,45,106
2.31000,0.31098,0.13072,0.00000,0.02257,0.97771,-0.17958,0.0,2023,6,8,14,17,45,117
2.31010,0.15348,0.21822,0.00000,0.02452,0.97966,-0.17836,0.0,2023,6,8,14,17,45,128
2.31020,-0.37152,0.02572,0.00000,0.02525,0.97624,-0.17727,0.0,2023,6,8,14,17,45,139
2.31030,-0.19652,-0.11428,0.00000,0.02257,0.97637,-0.17690,0.0,2023,6,8,14,17,45,150
2.31040,-0.17902,0.09572,0.00000,0.02501,0.97734,-0.17592,0.0,2023,6,8,14,17,45,161
2.31050,0.43348,-0.09678,0.00000,0.02562,0.97783,-0.17666,0.0,2023,6,8,14,17,45,172
2.31060,0.64348,-0.11428,0.00000,0.02172,0.97710,-0.17653,0.0,2023,6,8,14,17,45,183
2.31070,0.27598,-0.16678,0.00000,0.02355,0.97637,-0.17690,0.0,2023,6,8,14,17,45,194
2.31080,-0.38902,0.02572,0.00000,0.02428,0.97746,-0.17678,0.0,2023,6,8,14,17,45,206
2.31090,-0.40652,-0.11428,0.00000,0.02428,0.97685,-0.17666,0.0,2023,6,8,14,17,45,217
2.31100,-0.19652,-0.23678,0.00000,0.02525,0.97771,-0.17336,0.0,2023,6,8,14,17,45,228
2.31110,0.55598,-0.02678,0.00000,0.02538,0.97600,-0.17568,0.0,2023,6,8,14,17,45,239
2.31120,0.71348,0.11322,0.00000,0.02562,0.97673,-0.17861,0.0,2023,6,8,14,17,45,250
2.31130,0.20598,-0.11428,0.00000,0.02513,0.97710,-0.18300,0.0,2023,6,8,14,17,45,261
2.31140,-0.38902,0.00822,0.00000,0.02452,0.97673,-0.17739,0.0,2023,6,8,14,17,45,272
2.31150,-0.42402,-0.13178,0.00000,0.02330,0.97515,-0.17678,0.0,2023,6,8,14,17,45,283
2.31160,-0.23152,0.07822,0.00000,0.02281,0.97624,-0.17495,0.0,2023,6,8,14,17,45,294
2.31170,0.41598,0.20072,0.00000,0.02428,0.97649,-0.17531,0.0,2023,6,8,14,17,45,306
2.31180,0.39848,0.04322,0.00000,0.02367,0.98039,-0.17934,0.0,2023,6,8,14,17,45,317
2.31190,0.20598,0.04322,0.00000,0.02379,0.97783,-0.17678,0.0,2023,6,8,14,17,45,328
2.31200,-0.40652,0.20072,0.00000,0.02220,0.97527,-0.17800,0.0,2023,6,8,14,17,45,339
2.31210,-0.58152,0.02572,0.00000,0.02440,0.97759,-0.17775,0.0,2023,6,8,14,17,45,350
2.31220,0.20598,0.23572,0.00000,0.02318,0.97893,-0.17641,0.0,2023,6,8,14,17,45,361
2.31230,0.53848,0.11322,0.00000,0.02135,0.97710,-0.17641,0.0,2023,6,8,14,17,45,372
2.31240,0.41598,-0.09678,0.00000,0.02599,0.97759,-0.17800,0.0,2023,6,8,14,17,45,383
2.31250,-0.19652,0.06072,0.00000,0.02294,0.97893,-0.17897,0.0,2023,6,8,14,17,45,394
2.31260,-0.26652,-0.14928,0.00000,0.02391,0.97856,-0.17507,0.0,2023,6,8,14,17,45,406
2.31270,-0.23152,0.09572,0.00000,0.02538,0.97844,-0.17653,0.0,2023,6,8,14,17,45,417
2.31280,0.38098,0.20072,0.00000,0.02574,0.97637,-0.17751,0.0,2023,6,8,14,17,45,428
2.31290,0.34598,0.14823,0.00000,0.02440,0.97795,-0.17714,0.0,2023,6,8,14,17,45,439
2.31300,0.06598,0.00822,0.00000,0.02416,0.97746,-0.17714,0.0,2023,6,8,14,17,45,450
2.31310,-0.19652,-0.02678,0.00000,0.02464,0.97722,-0.17763,0.0,2023,6,8,14,17,45,461
2.31320,-0.00402,0.18322,0.00000,0.02416,0.97588,-0.17824,0.0,2023,6,8,14,17,45,472
2.31330,0.04848,0.06072,0.00000,0.02489,0.97795,-0.17800,0.0,2023,6,8,14,17,45,483
2.31340,0.27598,0.11322,0.00000,0.02220,0.97576,-0.17678,0.0,2023,6,8,14,17,45,494
2.31350,0.08348,0.21822,0.00000,0.02489,0.97698,-0.18044,0.0,2023,6,8,14,17,45,506
2.31360,-0.05652,-0.11428,0.00000,0.02379,0.97832,-0.17666,0.0,2023,6,8,14,17,45,517
2.31370,-0.33652,-0.07927,0.00000,0.02147,0.97881,-0.17507,0.0,2023,6,8,14,17,45,528
2.31380,-0.14402,0.14823,0.00000,0.02489,0.97612,-0.17641,0.0,2023,6,8,14,17,45,539
2.31390,0.08348,-0.04428,0.00000,0.02428,0.97600,-0.17836,0.0,2023,6,8,14,17,45,550
2.31400,0.25848,-0.07927,0.00000,0.02403,0.97795,-0.17897,0.0,2023,6,8,14,17,45,561
2.31410,0.10098,0.13072,0.00000,0.02391,0.97673,-0.17544,0.0,2023,6,8,14,17,45,572
2.31420,-0.05652,-0.11428,0.00000,0.02330,0.97710,-0.17836,0.0,2023,6,8,14,17,45,583
2.31430,-0.23152,-0.04428,0.00000,0.02477,0.97917,-0.17678,0.0,2023,6,8,14,17,45,594
2.31440,-0.03902,-0.02678,0.00000,0.02623,0.97734,-0.17678,0.0,2023,6,8,14,17,45,606
2.31450,-0.14402,-0.07927,0.00000,0.02501,0.97637,-0.17653,0.0,2023,6,8,14,17,45,617
2.31460,0.03098,0.20072,0.00000,0.02416,0.97673,-0.17885,0.0,2023,6,8,14,17,45,628
2.31470,0.15348,-0.16678,0.00000,0.02525,0.97868,-0.17666,0.0,2023,6,8,14,17,45,639
2.31480,0.03098,-0.07927,0.00000,0.02294,0.97881,-0.17519,0.0,2023,6,8,14,17,45,650
2.31490,0.08348,-0.18428,0.00000,0.02355,0.97734,-0.17702,0.0,2023,6,8,14,17,45,661
2.31500,0.06598,0.18322,0.00000,0.02342,0.97832,-0.17788,0.0,2023,6,8,14,17,45,672
2.31510,-0.12652,-0.09678,0.00000,0.02342,0.97759,-0.17763,0.0,2023,6,8,14,17,45,683
2.31520,-0.12652,-0.02678,0.00000,0.02452,0.97783,-0.17751,0.0,2023,6,8,14,17,45,694
2.31530,-0.00402,0.09572,0.00000,0.02464,0.97673,-0.17800,0.0,2023,6,8,14,17,45,706
2.31540,0.13598,0.09572,0.00000,0.02196,0.97746,-0.17653,0.0,2023,6,8,14,17,45,717
2.31550,-0.00402,0.06072,0.00000,0.02269,0.97795,-0.18178,0.0,2023,6,8,14,17,45,728
2.31560,-0.00402,-0.09678,0.00000,0.02403,0.97795,-0.17849,0.0,2023,6,8,14,17,45,739
2.31570,-0.09152,0.04322,0.00000,0.02525,0.97771,-0.17666,0.0,2023,6,8,14,17,45,750
2.31580,-0.17902,-0.09678,0.00000,0.02733,0.97771,-0.17763,0.0,2023,6,8,14,17,45,761
2.31590,0.22348,-0.09678,0.00000,0.02440,0.97539,-0.17910,0.0,2023,6,8,14,17,45,772
2.31600,0.27598,-0.11428,0.00000,0.02489,0.97649,-0.17897,0.0,2023,6,8,14,17,45,783
2.31610,0.15348,-0.09678,0.00000,0.02428,0.97722,-0.18032,0.0,2023,6,8,14,17,45,794
2.31620,-0.19652,-0.20178,0.00000,0.02513,0.97856,-0.17824,0.0,2023,6,8,14,17,45,806
2.31630,-0.23152,-0.09678,0.00000,0.02440,0.97649,-0.17666,0.0,2023,6,8,14,17,45,817
2.31640,-0.09152,-0.00928,0.00000,0.02550,0.97795,-0.17605,0.0,2023,6,8,14,17,45,828
2.31650,0.25848,-0.04428,0.00000,0.02318,0.97698,-0.17519,0.0,2023,6,8,14,17,45,839
2.31660,0.34598,-0.02678,0.00000,0.02477,0.97551,-0.17971,0.0,2023,6,8,14,17,45,850
2.31670,0.15348,-0.02678,0.00000,0.02403,0.97795,-0.17714,0.0,2023,6,8,14,17,45,861
2.31680,-0.31902,-0.23678,0.00000,0.02513,0.97771,-0.17812,0.0,2023,6,8,14,17,45,872
2.31690,-0.17902,0.11322,0.00000,0.02428,0.97429,-0.17531,0.0,2023,6,8,14,17,45,883
2.31700,0.18848,-0.04428,0.00000,0.02599,0.97600,-0.17666,0.0,2023,6,8,14,17,45,894
2.31710,0.39848,0.13072,0.00000,0.02538,0.97795,-0.17653,0.0,2023,6,8,14,17,45,906
2.31720,0.20598,-0.06177,0.00000,0.02367,0.97698,-0.17849,0.0,2023,6,8,14,17,45,917
2.31730,-0.05652,-0.02678,0.00000,0.02586,0.97771,-0.17922,0.0,2023,6,8,14,17,45,928
2.31740,-0.33652,-0.09678,0.00000,0.02586,0.97868,-0.17641,0.0,2023,6,8,14,17,45,939
2.31750,-0.26652,-0.04428,0.00000,0.02550,0.97795,-0.17641,0.0,2023,6,8,14,17,45,950
2.31760,0.17098,0.00822,0.00000,0.02208,0.97746,-0.17629,0.0,2023,6,8,14,17,45,961
2.31770,0.25848,0.07822,0.00000,0.02477,0.97600,-0.17873,0.0,2023,6,8,14,17,45,972
2.31780,0.17098,0.11322,0.00000,0.02294,0.97576,-0.17751,0.0,2023,6,8,14,17,45,983
2.31790,-0.02152,0.07822,0.00000,0.02477,0.97710,-0.18056,0.0,2023,6,8,14,17,45,994
2.31800,-0.16152,-0.00928,0.00000,0.02574,0.97527,-0.17727,0.0,2023,6,8,14,17,46,6
2.31810,-0.12652,0.00822,0.00000,0.02464,0.97576,-0.17800,0.0,2023,6,8,14,17,46,17
2.31820,-0.09152,-0.18428,0.00000,0.02416,0.97954,-0.17897,0.0,2023,6,8,14,17,46,28
2.31830,0.01348,0.02572,0.00000,0.02306,0.97722,-0.17824,0.0,2023,6,8,14,17,46,39
2.31840,0.11848,-0.06177,0.00000,0.02306,0.97734,-0.17788,0.0,2023,6,8,14,17,46,50
2.31850,0.20598,-0.02678,0.00000,0.02391,0.97820,-0.17946,0.0,2023,6,8,14,17,46,61
2.31860,-0.07402,0.00822,0.00000,0.02440,0.97807,-0.18080,0.0,2023,6,8,14,17,46,72
2.31870,-0.10902,-0.07927,0.00000,0.02623,0.97832,-0.17739,0.0,2023,6,8,14,17,46,83
2.31880,-0.23152,0.00822,0.00000,0.02330,0.97783,-0.17934,0.0,2023,6,8,14,17,46,94
2.31890,-0.09152,-0.07927,0.00000,0.02538,0.97759,-0.17763,0.0,2023,6,8,14,17,46,106
2.31900,-0.23152,0.11322,0.00000,0.02599,0.97893,-0.17861,0.0,2023,6,8,14,17,46,117
2.31910,-0.03902,-0.06177,0.00000,0.02513,0.97576,-0.17971,0.0,2023,6,8,14,17,46,128
2.31920,0.01348,0.07822,0.00000,0.02403,0.97820,-0.17739,0.0,2023,6,8,14,17,46,139
2.31930,-0.00402,0.06072,0.00000,0.02501,0.97978,-0.17678,0.0,2023,6,8,14,17,46,150
2.31940,-0.00402,0.18322,0.00000,0.02111,0.97527,-0.17958,0.0,2023,6,8,14,17,46,161
2.31950,0.04848,-0.02678,0.00000,0.02513,0.97856,-0.17775,0.0,2023,6,8,14,17,46,172
2.31960,0.29348,0.00822,0.00000,0.02452,0.97612,-0.17666,0.0,2023,6,8,14,17,46,183
2.31970,0.24098,-0.06177,0.00000,0.02342,0.97698,-0.17836,0.0,2023,6,8,14,17,46,194
2.31980,-0.14402,-0.04428,0.00000,0.02464,0.97783,-0.17873,0.0,2023,6,8,14,17,46,206
2.31990,-0.14402,-0.13178,0.00000,0.02294,0.97795,-0.17800,0.0,2023,6,8,14,17,46,217
2.32000,-0.19652,-0.00928,0.00000,0.02391,0.97759,-0.17702,0.0,2023,6,8,14,17,46,228
2.32010,0.06598,0.09572,0.00000,0.02330,0.97722,-0.17751,0.0,2023,6,8,14,17,46,239
2.32020,0.04848,0.02572,0.00000,0.02318,0.97649,-0.18044,0.0,2023,6,8,14,17,46,250
2.32030,0.03098,-0.14928,0.00000,0.02513,0.97783,-0.17800,0.0,2023,6,8,14,17,46,261
2.32040,-0.09152,-0.07927,0.00000,0.02623,0.97832,-0.17873,0.0,2023,6,8,14,17,46,272
2.32050,-0.30152,0.07822,0.00000,0.02416,0.97893,-0.17641,0.0,2023,6,8,14,17,46,283
2.32060,0.03098,0.00822,0.00000,0.02623,0.97807,-0.17873,0.0,2023,6,8,14,17,46,294
2.32070,0.17098,-0.07927,0.00000,0.02477,0.97734,-0.17714,0.0,2023,6,8,14,17,46,306
2.32080,0.11848,0.14823,0.00000,0.02464,0.97893,-0.17763,0.0,2023,6,8,14,17,46,317
2.32090,0.08348,0.18322,0.00000,0.02623,0.97722,-0.17995,0.0,2023,6,8,14,17,46,328
2.32100,-0.05652,-0.13178,0.00000,0.02452,0.97868,-0.17812,0.0,2023,6,8,14,17,46,339
2.32110,-0.35402,0.13072,0.00000,0.02379,0.97954,-0.17897,0.0,2023,6,8,14,17,46,350
2.32120,0.10098,-0.23678,0.00000,0.02562,0.97685,-0.17714,0.0,2023,6,8,14,17,46,361
2.32130,0.20598,0.02572,0.00000,0.02525,0.97966,-0.17629,0.0,2023,6,8,14,17,46,372
2.32140,0.03098,0.28822,0.00000,0.02562,0.97661,-0.17714,0.0,2023,6,8,14,17,46,383
2.32150,0.08348,-0.00928,0.00000,0.02318,0.97795,-0.17568,0.0,2023,6,8,14,17,46,394
2.32160,-0.16152,-0.18428,0.00000,0.02489,0.97624,-0.17885,0.0,2023,6,8,14,17,46,406
2.32170,-0.16152,0.02572,0.00000,0.02342,0.97820,-0.17495,0.0,2023,6,8,14,17,46,417
2.32180,0.13598,0.13072,0.00000,0.02147,0.98015,-0.17629,0.0,2023,6,8,14,17,46,428
2.32190,0.15348,-0.00928,0.00000,0.02403,0.97881,-0.17751,0.0,2023,6,8,14,17,46,439
2.32200,0.18848,-0.07927,0.00000,0.02367,0.97893,-0.17824,0.0,2023,6,8,14,17,46,450
2.32210,-0.03902,-0.07927,0.00000,0.02452,0.97722,-0.17763,0.0,2023,6,8,14,17,46,461
2.32220,-0.05652,-0.00928,0.00000,0.02513,0.97746,-0.17995,0.0,2023,6,8,14,17,46,472
2.32230,0.13598,0.07822,0.00000,0.02550,0.97746,-0.17775,0.0,2023,6,8,14,17,46,483
2.32240,-0.02152,0.16572,0.00000,0.02245,0.97759,-0.17971,0.0,2023,6,8,14,17,46,494
2.32250,-0.09152,-0.02678,0.00000,0.02623,0.97783,-0.17617,0.0,2023,6,8,14,17,46,506
2.32260,-0.09152,-0.11428,0.00000,0.02489,0.97820,-0.17678,0.0,2023,6,8,14,17,46,517
2.32270,-0.00402,0.02572,0.00000,0.02477,0.97759,-0.17922,0.0,2023,6,8,14,17,46,528
2.32280,0.45098,-0.27178,0.00000,0.02562,0.97588,-0.17678,0.0,2023,6,8,14,17,46,539
2.32290,0.15348,-0.21928,0.00000,0.02538,0.97661,-0.18032,0.0,2023,6,8,14,17,46,550
2.32300,-0.09152,-0.23678,0.00000,0.02257,0.97649,-0.17934,0.0,2023,6,8,14,17,46,561
2.32310,-0.23152,0.02572,0.00000,0.02538,0.97698,-0.17666,0.0,2023,6,8,14,17,46,572
2.32320,-0.10902,-0.14928,0.00000,0.02489,0.97734,-0.17910,0.0,2023,6,8,14,17,46,583
2.32330,0.17098,0.11322,0.00000,0.02294,0.97527,-0.17836,0.0,2023,6,8,14,17,46,594
2.32340,0.22348,0.06072,0.00000,0.02513,0.97576,-0.17849,0.0,2023,6,8,14,17,46,606
2.32350,0.17098,0.06072,0.00000,0.02184,0.97637,-0.17861,0.0,2023,6,8,14,17,46,617
2.32360,-0.24902,-0.11428,0.00000,0.02269,0.97832,-0.17873,0.0,2023,6,8,14,17,46,628
2.32370,-0.07402,-0.14928,0.00000,0.02306,0.97710,-0.17836,0.0,2023,6,8,14,17,46,639
2.32380,-0.05652,0.04322,0.00000,0.02489,0.97612,-0.17702,0.0,2023,6,8,14,17,46,650
2.32390,0.18848,0.14823,0.00000,0.02342,0.97612,-0.17897,0.0,2023,6,8,14,17,46,661
2.32400,0.36348,0.07822,0.00000,0.02233,0.97893,-0.17678,0.0,2023,6,8,14,17,46,672
2.32410,0.20598,-0.09678,0.00000,0.02294,0.97954,-0.17849,0.0,2023,6,8,14,17,46,683
2.32420,0.10098,-0.14928,0.00000,0.02477,0.97905,-0.17922,0.0,2023,6,8,14,17,46,694
2.32430,-0.28402,-0.11428,0.00000,0.02379,0.97929,-0.17531,0.0,2023,6,8,14,17,46,706
2.32440,-0.07402,0.06072,0.00000,0.02379,0.97820,-0.17727,0.0,2023,6,8,14,17,46,717
2.32450,0.29348,-0.00928,0.00000,0.02330,0.98064,-0.17556,0.0,2023,6,8,14,17,46,728
2.32460,0.20598,0.37573,0.00000,0.02477,0.97795,-0.17812,0.0,2023,6,8,14,17,46,739
2.32470,-0.24902,0.00822,0.00000,0.02525,0.97832,-0.17873,0.0,2023,6,8,14,17,46,750
2.32480,-0.12652,-0.06177,0.00000,0.02550,0.97612,-0.17751,0.0,2023,6,8,14,17,46,761
2.32490,-0.17902,-0.14928,0.00000,0.02538,0.97539,-0.17702,0.0,2023,6,8,14,17,46,772
2.32500,-0.02152,0.02572,0.00000,0.02635,0.97624,-0.17800,0.0,2023,6,8,14,17,46,783
2.32510,0.25848,-0.25428,0.00000,0.02440,0.97759,-0.17727,0.0,2023,6,8,14,17,46,794
2.32520,0.06598,-0.09678,0.00000,0.02318,0.97673,-0.17861,0.0,2023,6,8,14,17,46,806
2.32530,0.27598,-0.11428,0.00000,0.02367,0.97661,-0.17800,0.0,2023,6,8,14,17,46,817
2.32540,-0.24902,0.09572,0.00000,0.02562,0.97722,-0.17836,0.0,2023,6,8,14,17,46,828
2.32550,0.01348,-0.21928,0.00000,0.02403,0.97661,-0.17507,0.0,2023,6,8,14,17,46,839
2.32560,-0.07402,0.00822,0.00000,0.02501,0.97807,-0.17800,0.0,2023,6,8,14,17,46,850
2.32570,-0.05652,-0.04428,0.00000,0.02330,0.97893,-0.17702,0.0,2023,6,8,14,17,46,861
2.32580,-0.02152,0.04322,0.00000,0.02403,0.97868,-0.17775,0.0,2023,6,8,14,17,46,872
2.32590,0.10098,0.09572,0.00000,0.02269,0.97783,-0.17849,0.0,2023,6,8,14,17,46,883
2.32600,-0.03902,-0.11428,0.00000,0.02452,0.97673,-0.17483,0.0,2023,6,8,14,17,46,894
2.32610,-0.21402,0.02572,0.00000,0.02306,0.97661,-0.17544,0.0,2023,6,8,14,17,46,906
2.32620,0.10098,-0.18428,0.00000,0.02367,0.97661,-0.17739,0.0,2023,6,8,14,17,46,917
2.32630,0.01348,0.14823,0.00000,0.02196,0.97868,-0.17446,0.0,2023,6,8,14,17,46,928
2.32640,0.22348,0.02572,0.00000,0.02550,0.97759,-0.17727,0.0,2023,6,8,14,17,46,939
2.32650,-0.02152,-0.07927,0.00000,0.02391,0.97807,-0.17666,0.0,2023,6,8,14,17,46,950
2.32660,-0.23152,0.06072,0.00000,0.02330,0.97637,-0.17751,0.0,2023,6,8,14,17,46,961
2.32670,-0.19652,0.18322,0.00000,0.02477,0.97624,-0.17788,0.0,2023,6,8,14,17,46,972
2.32680,0.11848,-0.06177,0.00000,0.02147,0.97795,-0.17422,0.0,2023,6,8,14,17,46,983
2.32690,0.06598,0.20072,0.00000,0.02489,0.97881,-0.17775,0.0,2023,6,8,14,17,46,994
2.32700,0.13598,0.14823,0.00000,0.02294,0.97771,-0.17849,0.0,2023,6,8,14,17,47,6
2.32710,-0.16152,0.11322,0.00000,0.02440,0.97576,-0.17971,0.0,2023,6,8,14,17,47,17
2.32720,-0.23152,-0.13178,0.00000,0.02318,0.97612,-0.17751,0.0,2023,6,8,14,17,47,28
2.32730,-0.03902,-0.27178,0.00000,0.02477,0.97881,-0.17727,0.0,2023,6,8,14,17,47,39
2.32740,0.01348,0.07822,0.00000,0.02440,0.97905,-0.17605,0.0,2023,6,8,14,17,47,50
2.32750,0.48598,0.02572,0.00000,0.02403,0.97942,-0.17763,0.0,2023,6,8,14,17,47,61
2.32760,0.17098,0.04322,0.00000,0.02538,0.97844,-0.17702,0.0,2023,6,8,14,17,47,72
2.32770,-0.10902,-0.21928,0.00000,0.02550,0.97990,-0.17666,0.0,2023,6,8,14,17,47,83
2.32780,-0.44152,-0.00928,0.00000,0.02342,0.97929,-0.17714,0.0,2023,6,8,14,17,47,94
2.32790,-0.16152,-0.18428,0.00000,0.02489,0.97856,-0.17470,0.0,2023,6,8,14,17,47,106
2.32800,0.24098,-0.02678,0.00000,0.02525,0.97637,-0.17580,0.0,2023,6,8,14,17,47,117
2.32810,0.41598,-0.06177,0.00000,0.02586,0.97612,-0.17739,0.0,2023,6,8,14,17,47,128
2.32820,0.34598,-0.04428,0.00000,0.02672,0.97954,-0.17775,0.0,2023,6,8,14,17,47,139
2.32830,-0.17902,0.04322,0.00000,0.02745,0.97673,-0.17873,0.0,2023,6,8,14,17,47,150
2.32840,-0.47652,0.02572,0.00000,0.02525,0.97746,-0.17373,0.0,2023,6,8,14,17,47,161
2.32850,-0.17902,-0.28927,0.00000,0.02355,0.97783,-0.17763,0.0,2023,6,8,14,17,47,172
2.32860,0.43348,0.04322,0.00000,0.02403,0.97649,-0.17568,0.0,2023,6,8,14,17,47,183
2.32870,0.55598,0.00822,0.00000,0.02562,0.97551,-0.17702,0.0,2023,6,8,14,17,47,194
2.32880,0.27598,0.11322,0.00000,0.02379,0.97734,-0.17958,0.0,2023,6,8,14,17,47,206
2.32890,-0.14402,-0.13178,0.00000,0.02489,0.97807,-0.17946,0.0,2023,6,8,14,17,47,217
2.32900,-0.26652,-0.34178,0.00000,0.02586,0.97698,-0.17617,0.0,2023,6,8,14,17,47,228
2.32910,-0.19652,-0.00928,0.00000,0.02538,0.97698,-0.17690,0.0,2023,6,8,14,17,47,239
2.32920,0.17098,-0.11428,0.00000,0.02403,0.97661,-0.17446,0.0,2023,6,8,14,17,47,250
2.32930,0.34598,-0.16678,0.00000,0.02391,0.97673,-0.17739,0.0,2023,6,8,14,17,47,261
2.32940,0.24098,0.21822,0.00000,0.02367,0.97698,-0.17824,0.0,2023,6,8,14,17,47,272
2.32950,-0.05652,0.27072,0.00000,0.02574,0.97734,-0.17873,0.0,2023,6,8,14,17,47,283
2.32960,-0.10902,0.00822,0.00000,0.02562,0.97746,-0.17861,0.0,2023,6,8,14,17,47,294
2.32970,-0.24902,-0.04428,0.00000,0.02477,0.97698,-0.17617,0.0,2023,6,8,14,17,47,306
2.32980,-0.07402,-0.20178,0.00000,0.02513,0.97722,-0.17824,0.0,2023,6,8,14,17,47,317
2.32990,0.10098,0.06072,0.00000,0.02464,0.97771,-0.17556,0.0,2023,6,8,14,17,47,328
2.33000,0.25848,-0.00928,0.00000,0.02330,0.97807,-0.17690,0.0,2023,6,8,14,17,47,339
2.33010,0.18848,-0.00928,0.00000,0.02452,0.98100,-0.17836,0.0,2023,6,8,14,17,47,350
2.33020,0.11848,-0.04428,0.00000,0.02318,0.97673,-0.17739,0.0,2023,6,8,14,17,47,361
2.33030,-0.28402,0.16572,0.00000,0.02123,0.97698,-0.17824,0.0,2023,6,8,14,17,47,372
2.33040,-0.37152,0.13072,0.00000,0.02342,0.97722,-0.17861,0.0,2023,6,8,14,17,47,383
2.33050,0.01348,-0.14928,0.00000,0.02367,0.97771,-0.17763,0.0,2023,6,8,14,17,47,394
2.33060,0.06598,-0.09678,0.00000,0.02489,0.97661,-0.18032,0.0,2023,6,8,14,17,47,406
2.33070,0.04848,0.18322,0.00000,0.02355,0.97649,-0.17544,0.0,2023,6,8,14,17,47,417
2.33080,-0.05652,-0.02678,0.00000,0.02489,0.97807,-0.17897,0.0,2023,6,8,14,17,47,428
2.33090,-0.16152,-0.11428,0.00000,0.02391,0.97551,-0.17800,0.0,2023,6,8,14,17,47,439
2.33100,0.04848,-0.13178,0.00000,0.02416,0.97710,-0.17824,0.0,2023,6,8,14,17,47,450
2.33110,-0.07402,0.02572,0.00000,0.02379,0.97539,-0.17849,0.0,2023,6,8,14,17,47,461
2.33120,0.24098,-0.28927,0.00000,0.02342,0.97771,-0.17897,0.0,2023,6,8,14,17,47,472
2.33130,0.22348,-0.21928,0.00000,0.02550,0.97649,-0.17812,0.0,2023,6,8,14,17,47,483
2.33140,0.15348,0.06072,0.00000,0.02196,0.97685,-0.17751,0.0,2023,6,8,14,17,47,494
2.33150,0.01348,0.04322,0.00000,0.02464,0.97673,-0.17568,0.0,2023,6,8,14,17,47,506
2.33160,-0.17902,-0.13178,0.00000,0.02379,0.97807,-0.17507,0.0,2023,6,8,14,17,47,517
2.33170,-0.16152,0.00822,0.00000,0.02379,0.97649,-0.17653,0.0,2023,6,8,14,17,47,528
2.33180,0.39848,-0.09678,0.00000,0.02294,0.97807,-0.17629,0.0,2023,6,8,14,17,47,539
2.33190,0.27598,-0.06177,0.00000,0.02257,0.97844,-0.17519,0.0,2023,6,8,14,17,47,550
2.33200,0.06598,-0.09678,0.00000,0.02196,0.97942,-0.17641,0.0,2023,6,8,14,17,47,561
2.33210,-0.28402,0.13072,0.00000,0.02489,0.97844,-0.17739,0.0,2023,6,8,14,17,47,572
2.33220,-0.10902,-0.23678,0.00000,0.02464,0.97832,-0.17531,0.0,2023,6,8,14,17,47,583
2.33230,0.36348,0.09572,0.00000,0.02330,0.97856,-0.17690,0.0,2023,6,8,14,17,47,594
2.33240,0.39848,-0.30678,0.00000,0.02208,0.97893,-0.17714,0.0,2023,6,8,14,17,47,606
2.33250,-0.10902,0.04322,0.00000,0.02452,0.97612,-0.17812,0.0,2023,6,8,14,17,47,617
2.33260,-0.10902,-0.13178,0.00000,0.02330,0.97917,-0.17775,0.0,2023,6,8,14,17,47,628
2.33270,-0.10902,0.02572,0.00000,0.02489,0.97612,-0.17702,0.0,2023,6,8,14,17,47,639
2.33280,0.01348,0.04322,0.00000,0.02696,0.97673,-0.17788,0.0,2023,6,8,14,17,47,650
2.33290,0.18848,0.07822,0.00000,0.02269,0.97820,-0.17641,0.0,2023,6,8,14,17,47,661
2.33300,0.34598,0.11322,0.00000,0.02233,0.97502,-0.17739,0.0,2023,6,8,14,17,47,672
2.33310,0.25848,-0.21928,0.00000,0.02355,0.97868,-0.17653,0.0,2023,6,8,14,17,47,683
2.33320,-0.17902,0.02572,0.00000,0.02501,0.97868,-0.17800,0.0,2023,6,8,14,17,47,694
2.33330,-0.52902,0.07822,0.00000,0.02489,0.97832,-0.17434,0.0,2023,6,8,14,17,47,706
2.33340,-0.40652,0.18322,0.00000,0.02391,0.97771,-0.17580,0.0,2023,6,8,14,17,47,717
2.33350,0.36348,0.25322,0.00000,0.02281,0.97527,-0.17922,0.0,2023,6,8,14,17,47,728
2.33360,0.31098,0.21822,0.00000,0.02550,0.97661,-0.17995,0.0,2023,6,8,14,17,47,739
2.33370,0.11848,-0.16678,0.00000,0.02464,0.97588,-0.17775,0.0,2023,6,8,14,17,47,750
2.33380,-0.63402,-0.06177,0.00000,0.02318,0.97844,-0.17592,0.0,2023,6,8,14,17,47,761
2.33390,-0.31902,-0.04428,0.00000,0.02586,0.97722,-0.17690,0.0,2023,6,8,14,17,47,772
2.33400,0.11848,-0.06177,0.00000,0.02513,0.97893,-0.17653,0.0,2023,6,8,14,17,47,783
2.33410,0.17098,0.00822,0.00000,0.02428,0.97905,-0.17617,0.0,2023,6,8,14,17,47,794
2.33420,0.20598,0.06072,0.00000,0.02513,0.97881,-0.17690,0.0,2023,6,8,14,17,47,806
2.33430,-0.05652,0.00822,0.00000,0.02611,0.97771,-0.17788,0.0,2023,6,8,14,17,47,817
2.33440,-0.30152,-0.21928,0.00000,0.02342,0.97734,-0.17775,0.0,2023,6,8,14,17,47,828
2.33450,-0.30152,-0.02678,0.00000,0.02257,0.97746,-0.17568,0.0,2023,6,8,14,17,47,839
2.33460,0.17098,-0.00928,0.00000,0.02538,0.97795,-0.17849,0.0,2023,6,8,14,17,47,850
2.33470,0.22348,-0.09678,0.00000,0.02452,0.97637,-0.17629,0.0,2023,6,8,14,17,47,861
2.33480,0.29348,0.09572,0.00000,0.02306,0.97893,-0.18239,0.0,2023,6,8,14,17,47,872
2.33490,-0.14402,-0.16678,0.00000,0.02257,0.97881,-0.17641,0.0,2023,6,8,14,17,47,883
2.33500,-0.37152,0.02572,0.00000,0.02513,0.97759,-0.17678,0.0,2023,6,8,14,17,47,894
2.33510,-0.23152,0.04322,0.00000,0.02489,0.97893,-0.17641,0.0,2023,6,8,14,17,47,906
2.33520,0.29348,-0.04428,0.00000,0.02355,0.97771,-0.17580,0.0,2023,6,8,14,17,47,917
2.33530,0.25848,0.18322,0.00000,0.02306,0.97490,-0.17812,0.0,2023,6,8,14,17,47,928
2.33540,0.06598,0.04322,0.00000,0.02586,0.97893,-0.17751,0.0,2023,6,8,14,17,47,939
2.33550,-0.16152,-0.20178,0.00000,0.02550,0.97917,-0.17763,0.0,2023,6,8,14,17,47,950
2.33560,-0.16152,-0.09678,0.00000,0.02696,0.97795,-0.17519,0.0,2023,6,8,14,17,47,961
2.33570,0.22348,-0.20178,0.00000,0.02220,0.97807,-0.17739,0.0,2023,6,8,14,17,47,972
2.33580,0.17098,0.06072,0.00000,0.02367,0.97722,-0.17531,0.0,2023,6,8,14,17,47,983
2.33590,0.18848,-0.14928,0.00000,0.02330,0.97917,-0.17666,0.0,2023,6,8,14,17,47,994
2.33600,-0.16152,0.02572,0.00000,0.02452,0.97746,-0.17727,0.0,2023,6,8,14,17,48,6
2.33610,-0.38902,-0.06177,0.00000,0.02513,0.97673,-0.17763,0.0,2023,6,8,14,17,48,17
2.33620,-0.09152,0.00822,0.00000,0.02391,0.97722,-0.17556,0.0,2023,6,8,14,17,48,28
2.33630,0.08348,0.16572,0.00000,0.02294,0.97844,-0.17605,0.0,2023,6,8,14,17,48,39
2.33640,0.32848,-0.23678,0.00000,0.02330,0.97734,-0.17885,0.0,2023,6,8,14,17,48,50
2.33650,0.27598,-0.13178,0.00000,0.02184,0.97893,-0.17739,0.0,2023,6,8,14,17,48,61
2.33660,-0.23152,0.13072,0.00000,0.02464,0.97698,-0.17849,0.0,2023,6,8,14,17,48,72
2.33670,-0.16152,-0.23678,0.00000,0.02403,0.97759,-0.17519,0.0,2023,6,8,14,17,48,83
2.33680,-0.23152,0.06072,0.00000,0.02440,0.97746,-0.17617,0.0,2023,6,8,14,17,48,94
2.33690,0.22348,0.21822,0.00000,0.02586,0.97673,-0.17641,0.0,2023,6,8,14,17,48,106
2.33700,0.27598,-0.02678,0.00000,0.02599,0.97600,-0.17702,0.0,2023,6,8,14,17,48,117
2.33710,0.27598,0.11322,0.00000,0.02269,0.97637,-0.17519,0.0,2023,6,8,14,17,48,128
2.33720,0.08348,-0.06177,0.00000,0.02342,0.97929,-0.17861,0.0,2023,6,8,14,17,48,139
2.33730,-0.38902,-0.00928,0.00000,0.02525,0.97637,-0.17568,0.0,2023,6,8,14,17,48,150
2.33740,-0.21402,0.16572,0.00000,0.02806,0.97746,-0.17531,0.0,2023,6,8,14,17,48,161
2.33750,-0.03902,-0.13178,0.00000,0.02562,0.97734,-0.17495,0.0,2023,6,8,14,17,48,172
2.33760,0.46848,-0.21928,0.00000,0.02269,0.97820,-0.17531,0.0,2023,6,8,14,17,48,183
2.33770,0.25848,0.00822,0.00000,0.02611,0.97881,-0.17739,0.0,2023,6,8,14,17,48,194
2.33780,0.13598,0.04322,0.00000,0.02477,0.97661,-0.17580,0.0,2023,6,8,14,17,48,206
2.33790,-0.24902,-0.00928,0.00000,0.02464,0.97734,-0.17727,0.0,2023,6,8,14,17,48,217
2.33800,-0.12652,-0.02678,0.00000,0.02416,0.97893,-0.17727,0.0,2023,6,8,14,17,48,228
2.33810,-0.03902,-0.11428,0.00000,0.02196,0.97759,-0.17605,0.0,2023,6,8,14,17,48,239
2.33820,0.17098,-0.18428,0.00000,0.02220,0.97844,-0.17653,0.0,2023,6,8,14,17,48,250
2.33830,0.08348,0.00822,0.00000,0.02330,0.97759,-0.17812,0.0,2023,6,8,14,17,48,261
2.33840,-0.17902,0.14823,0.00000,0.02489,0.97868,-0.17849,0.0,2023,6,8,14,17,48,272
2.33850,-0.02152,-0.02678,0.00000,0.02135,0.97942,-0.17727,0.0,2023,6,8,14,17,48,283
2.33860,0.06598,0.07822,0.00000,0.02416,0.97661,-0.17544,0.0,2023,6,8,14,17,48,294
2.33870,0.10098,-0.07927,0.00000,0.02599,0.97685,-0.17702,0.0,2023,6,8,14,17,48,306
2.33880,-0.02152,-0.00928,0.00000,0.02355,0.97807,-0.17531,0.0,2023,6,8,14,17,48,317
2.33890,0.13598,-0.06177,0.00000,0.02403,0.97795,-0.17336,0.0,2023,6,8,14,17,48,328
2.33900,0.24098,0.00822,0.00000,0.02489,0.97795,-0.17617,0.0,2023,6,8,14,17,48,339
2.33910,0.15348,-0.14928,0.00000,0.02269,0.97832,-0.17580,0.0,2023,6,8,14,17,48,350
2.33920,-0.26652,-0.02678,0.00000,0.02428,0.97942,-0.17568,0.0,2023,6,8,14,17,48,361
2.33930,-0.07402,0.06072,0.00000,0.02562,0.97710,-0.17446,0.0,2023,6,8,14,17,48,372
2.33940,-0.07402,0.16572,0.00000,0.02379,0.97807,-0.17361,0.0,2023,6,8,14,17,48,383
2.33950,0.29348,-0.06177,0.00000,0.02440,0.97759,-0.17641,0.0,2023,6,8,14,17,48,394
2.33960,0.08348,0.00822,0.00000,0.02501,0.97917,-0.17629,0.0,2023,6,8,14,17,48,406
2.33970,-0.31902,0.07822,0.00000,0.02586,0.97661,-0.17568,0.0,2023,6,8,14,17,48,417
2.33980,-0.24902,-0.13178,0.00000,0.02403,0.97710,-0.17580,0.0,2023,6,8,14,17,48,428
2.33990,-0.10902,0.02572,0.00000,0.02330,0.97746,-0.17568,0.0,2023,6,8,14,17,48,439
2.34000,0.20598,0.09572,0.00000,0.02318,0.98027,-0.17470,0.0,2023,6,8,14,17,48,450
2.34010,0.34598,-0.09678,0.00000,0.02403,0.97588,-0.17422,0.0,2023,6,8,14,17,48,461
2.34020,0.27598,0.23572,0.00000,0.02403,0.97893,-0.17751,0.0,2023,6,8,14,17,48,472
2.34030,-0.12652,0.04322,0.00000,0.02452,0.97612,-0.17605,0.0,2023,6,8,14,17,48,483
2.34040,-0.61652,0.02572,0.00000,0.02355,0.97771,-0.17519,0.0,2023,6,8,14,17,48,494
2.34050,-0.19652,0.11322,0.00000,0.02306,0.97576,-0.17605,0.0,2023,6,8,14,17,48,506
2.34060,0.34598,0.02572,0.00000,0.02281,0.97600,-0.17568,0.0,2023,6,8,14,17,48,517
2.34070,0.27598,0.16572,0.00000,0.02416,0.97832,-0.17751,0.0,2023,6,8,14,17,48,528
2.34080,0.04848,0.07822,0.00000,0.02233,0.97710,-0.17678,0.0,2023,6,8,14,17,48,539
2.34090,-0.42402,-0.11428,0.00000,0.02257,0.97820,-0.17788,0.0,2023,6,8,14,17,48,550
2.34100,-0.12652,-0.11428,0.00000,0.02403,0.97820,-0.17653,0.0,2023,6,8,14,17,48,561
2.34110,-0.09152,0.04322,0.00000,0.02452,0.97624,-0.17470,0.0,2023,6,8,14,17,48,572
2.34120,0.38098,-0.04428,0.00000,0.02599,0.97722,-0.17568,0.0,2023,6,8,14,17,48,583
2.34130,0.24098,-0.07927,0.00000,0.02647,0.97783,-0.17653,0.0,2023,6,8,14,17,48,594
2.34140,-0.02152,0.13072,0.00000,0.02440,0.97783,-0.17666,0.0,2023,6,8,14,17,48,606
2.34150,-0.38902,0.21822,0.00000,0.02196,0.97856,-0.17519,0.0,2023,6,8,14,17,48,617
2.34160,-0.40652,-0.00928,0.00000,0.02721,0.97929,-0.17446,0.0,2023,6,8,14,17,48,628
2.34170,0.17098,-0.04428,0.00000,0.02391,0.97807,-0.17531,0.0,2023,6,8,14,17,48,639
2.34180,0.43348,-0.07927,0.00000,0.02477,0.97710,-0.17678,0.0,2023,6,8,14,17,48,650
2.34190,0.27598,-0.06177,0.00000,0.02342,0.97868,-0.17617,0.0,2023,6,8,14,17,48,661
2.34200,-0.17902,-0.06177,0.00000,0.02477,0.97624,-0.17751,0.0,2023,6,8,14,17,48,672
2.34210,-0.38902,-0.16678,0.00000,0.02440,0.98125,-0.17397,0.0,2023,6,8,14,17,48,683
2.34220,-0.30152,-0.07927,0.00000,0.02416,0.97429,-0.17348,0.0,2023,6,8,14,17,48,694
2.34230,0.03098,0.11322,0.00000,0.02440,0.97759,-0.17495,0.0,2023,6,8,14,17,48,706
2.34240,0.41598,-0.11428,0.00000,0.02489,0.97661,-0.17629,0.0,2023,6,8,14,17,48,717
2.34250,0.18848,-0.00928,0.00000,0.02294,0.97856,-0.17775,0.0,2023,6,8,14,17,48,728
2.34260,-0.42402,0.11322,0.00000,0.02281,0.97868,-0.17519,0.0,2023,6,8,14,17,48,739
2.34270,-0.31902,-0.21928,0.00000,0.02220,0.97722,-0.17544,0.0,2023,6,8,14,17,48,750
2.34280,-0.12652,-0.00928,0.00000,0.02416,0.97917,-0.17361,0.0,2023,6,8,14,17,48,761
2.34290,0.41598,0.04322,0.00000,0.02611,0.97807,-0.17568,0.0,2023,6,8,14,17,48,772
2.34300,0.39848,0.09572,0.00000,0.02538,0.97734,-0.17605,0.0,2023,6,8,14,17,48,783
2.34310,0.04848,-0.04428,0.00000,0.02355,0.97637,-0.17751,0.0,2023,6,8,14,17,48,794
2.34320,-0.35402,0.11322,0.00000,0.02379,0.97771,-0.17714,0.0,2023,6,8,14,17,48,806
2.34330,-0.47652,-0.07927,0.00000,0.02428,0.97612,-0.17507,0.0,2023,6,8,14,17,48,817
2.34340,0.01348,0.13072,0.00000,0.02257,0.97832,-0.17812,0.0,2023,6,8,14,17,48,828
2.34350,0.60848,-0.00928,0.00000,0.02367,0.97942,-0.17641,0.0,2023,6,8,14,17,48,839
2.34360,0.11848,0.14823,0.00000,0.02379,0.98015,-0.17653,0.0,2023,6,8,14,17,48,850
2.34370,-0.26652,-0.14928,0.00000,0.02696,0.97795,-0.17531,0.0,2023,6,8,14,17,48,861
2.34380,-0.30152,-0.14928,0.00000,0.02330,0.97649,-0.17495,0.0,2023,6,8,14,17,48,872
2.34390,0.22348,-0.13178,0.00000,0.02367,0.97795,-0.17483,0.0,2023,6,8,14,17,48,883
2.34400,0.31098,-0.00928,0.00000,0.02318,0.97783,-0.17629,0.0,2023,6,8,14,17,48,894
2.34410,0.27598,0.04322,0.00000,0.02440,0.97710,-0.17836,0.0,2023,6,8,14,17,48,906
2.34420,-0.31902,0.07822,0.00000,0.02477,0.97673,-0.17727,0.0,2023,6,8,14,17,48,917
2.34430,-0.21402,-0.00928,0.00000,0.02513,0.97576,-0.17678,0.0,2023,6,8,14,17,48,928
2.34440,-0.16152,-0.11428,0.00000,0.02513,0.97685,-0.17556,0.0,2023,6,8,14,17,48,939
2.34450,0.31098,-0.13178,0.00000,0.02428,0.97759,-0.17446,0.0,2023,6,8,14,17,48,950
2.34460,0.45098,0.04322,0.00000,0.02623,0.97722,-0.17470,0.0,2023,6,8,14,17,48,961
2.34470,-0.03902,0.04322,0.00000,0.02477,0.97637,-0.17763,0.0,2023,6,8,14,17,48,972
2.34480,-0.35402,-0.13178,0.00000,0.02464,0.97698,-0.17653,0.0,2023,6,8,14,17,48,983
2.34490,-0.44152,0.02572,0.00000,0.02489,0.97600,-0.17702,0.0,2023,6,8,14,17,48,994
2.34500,0.13598,-0.06177,0.00000,0.02330,0.97868,-0.17629,0.0,2023,6,8,14,17,48,6
2.34510,0.60848,0.02572,0.00000,0.02367,0.97624,-0.17739,0.0,2023,6,8,14,17,49,7
2.34520,0.32848,0.02572,0.00000,0.02550,0.97807,-0.17849,0.0,2023,6,8,14,17,49,18
2.34530,-0.16152,0.02572,0.00000,0.02464,0.97722,-0.17568,0.0,2023,6,8,14,17,49,29
2.34540,-0.40652,-0.02678,0.00000,0.02342,0.97807,-0.17788,0.0,2023,6,8,14,17,49,40
2.34550,-0.21402,-0.02678,0.00000,0.02330,0.97844,-0.17422,0.0,2023,6,8,14,17,49,51
2.34560,0.13598,0.18322,0.00000,0.02318,0.97441,-0.17678,0.0,2023,6,8,14,17,49,62
2.34570,0.36348,0.23572,0.00000,0.02611,0.97734,-0.17800,0.0,2023,6,8,14,17,49,73
2.34580,0.01348,0.14823,0.00000,0.02306,0.97820,-0.17544,0.0,2023,6,8,14,17,49,84
2.34590,-0.35402,-0.11428,0.00000,0.02428,0.97893,-0.17702,0.0,2023,6,8,14,17,49,96
2.34600,-0.52902,-0.04428,0.00000,0.02525,0.97759,-0.17458,0.0,2023,6,8,14,17,49,107
2.34610,-0.14402,-0.06177,0.00000,0.02745,0.97624,-0.17470,0.0,2023,6,8,14,17,49,118
2.34620,0.25848,-0.14928,0.00000,0.02452,0.97722,-0.17714,0.0,2023,6,8,14,17,49,129
2.34630,0.64348,-0.13178,0.00000,0.02355,0.97759,-0.17763,0.0,2023,6,8,14,17,49,140
2.34640,0.20598,0.02572,0.00000,0.02257,0.97820,-0.17861,0.0,2023,6,8,14,17,49,151
2.34650,-0.49402,-0.02678,0.00000,0.02525,0.97856,-0.17592,0.0,2023,6,8,14,17,49,162
2.34660,-0.37152,0.11322,0.00000,0.02330,0.97710,-0.17544,0.0,2023,6,8,14,17,49,173
2.34670,0.15348,-0.09678,0.00000,0.02489,0.98003,-0.17714,0.0,2023,6,8,14,17,49,184
2.34680,0.13598,-0.04428,0.00000,0.02452,0.97929,-0.17507,0.0,2023,6,8,14,17,49,196
2.34690,0.10098,0.07822,0.00000,0.02550,0.97893,-0.17653,0.0,2023,6,8,14,17,49,207
2.34700,-0.00402,0.09572,0.00000,0.02367,0.97734,-0.17617,0.0,2023,6,8,14,17,49,218
2.34710,-0.14402,0.04322,0.00000,0.02379,0.98039,-0.17788,0.0,2023,6,8,14,17,49,229
2.34720,-0.07402,-0.00928,0.00000,0.02562,0.97807,-0.17629,0.0,2023,6,8,14,17,49,240
2.34730,-0.10902,0.06072,0.00000,0.02440,0.97942,-0.17544,0.0,2023,6,8,14,17,49,251
2.34740,-0.21402,-0.09678,0.00000,0.02220,0.97832,-0.17519,0.0,2023,6,8,14,17,49,262
2.34750,0.17098,0.09572,0.00000,0.02342,0.97624,-0.17629,0.0,2023,6,8,14,17,49,273
2.34760,0.31098,0.13072,0.00000,0.02574,0.97771,-0.17592,0.0,2023,6,8,14,17,49,284
2.34770,0.01348,-0.04428,0.00000,0.02428,0.97698,-0.17568,0.0,2023,6,8,14,17,49,296
2.34780,-0.09152,-0.04428,0.00000,0.02379,0.97856,-0.17580,0.0,2023,6,8,14,17,49,307
2.34790,-0.10902,-0.07927,0.00000,0.02330,0.97771,-0.17470,0.0,2023,6,8,14,17,49,318
2.34800,-0.16152,-0.07927,0.00000,0.02342,0.97844,-0.17641,0.0,2023,6,8,14,17,49,329
2.34810,0.15348,0.16572,0.00000,0.02440,0.97771,-0.17617,0.0,2023,6,8,14,17,49,340
2.34820,0.04848,-0.14928,0.00000,0.02538,0.97844,-0.17519,0.0,2023,6,8,14,17,49,351
2.34830,0.48598,-0.13178,0.00000,0.02379,0.97905,-0.17617,0.0,2023,6,8,14,17,49,362
2.34840,-0.10902,0.04322,0.00000,0.02330,0.97734,-0.17885,0.0,2023,6,8,14,17,49,373
2.34850,-0.16152,-0.06177,0.00000,0.02586,0.97722,-0.17739,0.0,2023,6,8,14,17,49,384
2.34860,0.10098,0.06072,0.00000,0.02562,0.97966,-0.17824,0.0,2023,6,8,14,17,49,396
2.34870,0.03098,-0.07927,0.00000,0.02550,0.97588,-0.17763,0.0,2023,6,8,14,17,49,407
2.34880,0.01348,0.06072,0.00000,0.02184,0.97771,-0.17727,0.0,2023,6,8,14,17,49,418
2.34890,0.11848,0.20072,0.00000,0.02428,0.97624,-0.17568,0.0,2023,6,8,14,17,49,429
2.34900,-0.07402,-0.16678,0.00000,0.02318,0.97710,-0.17800,0.0,2023,6,8,14,17,49,440
2.34910,-0.28402,-0.13178,0.00000,0.02269,0.97685,-0.17678,0.0,2023,6,8,14,17,49,451
2.34920,-0.19652,-0.04428,0.00000,0.02416,0.97978,-0.17409,0.0,2023,6,8,14,17,49,462
2.34930,-0.09152,0.13072,0.00000,0.02318,0.97649,-0.17666,0.0,2023,6,8,14,17,49,473
2.34940,0.15348,0.00822,0.00000,0.02525,0.97893,-0.17568,0.0,2023,6,8,14,17,49,484
2.34950,0.13598,0.14823,0.00000,0.02647,0.97966,-0.17641,0.0,2023,6,8,14,17,49,496
2.34960,0.11848,-0.06177,0.00000,0.02574,0.97759,-0.17727,0.0,2023,6,8,14,17,49,507
2.34970,-0.56402,0.06072,0.00000,0.02464,0.97649,-0.17568,0.0,2023,6,8,14,17,49,518
2.34980,-0.14402,0.02572,0.00000,0.02501,0.97746,-0.17556,0.0,2023,6,8,14,17,49,529
2.34990,0.11848,-0.06177,0.00000,0.02306,0.97832,-0.17714,0.0,2023,6,8,14,17,49,540
2.35000,0.41598,0.06072,0.00000,0.02355,0.97685,-0.17641,0.0,2023,6,8,14,17,49,551
2.35010,0.27598,0.11322,0.00000,0.02306,0.97795,-0.17702,0.0,2023,6,8,14,17,49,562
2.35020,-0.24902,0.16572,0.00000,0.02367,0.97807,-0.17678,0.0,2023,6,8,14,17,49,573
2.35030,-0.33652,0.04322,0.00000,0.02233,0.97990,-0.17458,0.0,2023,6,8,14,17,49,584
2.35040,-0.26652,0.00822,0.00000,0.02623,0.97734,-0.17434,0.0,2023,6,8,14,17,49,596
2.35050,0.10098,0.11322,0.00000,0.02452,0.97539,-0.17568,0.0,2023,6,8,14,17,49,607
2.35060,0.55598,-0.02678,0.00000,0.02501,0.97942,-0.17629,0.0,2023,6,8,14,17,49,618
2.35070,0.50348,-0.04428,0.00000,0.02403,0.97515,-0.17653,0.0,2023,6,8,14,17,49,629
2.35080,-0.19652,-0.02678,0.00000,0.02281,0.97783,-0.17836,0.0,2023,6,8,14,17,49,640
2.35090,-0.30152,-0.14928,0.00000,0.02464,0.97820,-0.17507,0.0,2023,6,8,14,17,49,651
2.35100,-0.21402,-0.20178,0.00000,0.02464,0.97490,-0.17470,0.0,2023,6,8,14,17,49,662
2.35110,0.29348,0.07822,0.00000,0.02342,0.97759,-0.17446,0.0,2023,6,8,14,17,49,673
2.35120,0.41598,0.18322,0.00000,0.02550,0.97868,-0.17605,0.0,2023,6,8,14,17,49,684
2.35130,0.15348,0.09572,0.00000,0.02330,0.97588,-0.17702,0.0,2023,6,8,14,17,49,696
2.35140,-0.12652,-0.16678,0.00000,0.02379,0.97600,-0.17751,0.0,2023,6,8,14,17,49,707
2.35150,-0.49402,0.00822,0.00000,0.02220,0.97685,-0.17544,0.0,2023,6,8,14,17,49,718
2.35160,-0.23152,-0.06177,0.00000,0.02391,0.97649,-0.17287,0.0,2023,6,8,14,17,49,729
2.35170,0.15348,0.11322,0.00000,0.02269,0.97759,-0.17617,0.0,2023,6,8,14,17,49,740
2.35180,0.46848,0.00822,0.00000,0.02391,0.97685,-0.17714,0.0,2023,6,8,14,17,49,751
2.35190,0.04848,-0.06177,0.00000,0.02586,0.97612,-0.17531,0.0,2023,6,8,14,17,49,762
2.35200,-0.26652,0.02572,0.00000,0.02281,0.97746,-0.17702,0.0,2023,6,8,14,17,49,773
2.35210,-0.09152,-0.13178,0.00000,0.02306,0.97746,-0.17641,0.0,2023,6,8,14,17,49,784
2.35220,-0.03902,-0.06177,0.00000,0.02452,0.97807,-0.17641,0.0,2023,6,8,14,17,49,796
2.35230,-0.19652,0.07822,0.00000,0.02428,0.97771,-0.17507,0.0,2023,6,8,14,17,49,807
2.35240,0.18848,0.02572,0.00000,0.02428,0.97893,-0.17556,0.0,2023,6,8,14,17,49,818
2.35250,0.06598,0.20072,0.00000,0.02452,0.97637,-0.17653,0.0,2023,6,8,14,17,49,829
2.35260,-0.05652,-0.18428,0.00000,0.02477,0.98149,-0.17666,0.0,2023,6,8,14,17,49,840
2.35270,-0.30152,-0.14928,0.00000,0.02562,0.97710,-0.17446,0.0,2023,6,8,14,17,49,851
2.35280,-0.09152,0.04322,0.00000,0.02306,0.97771,-0.17531,0.0,2023,6,8,14,17,49,862
2.35290,0.08348,-0.06177,0.00000,0.02440,0.97734,-0.17556,0.0,2023,6,8,14,17,49,873
2.35300,0.01348,-0.04428,0.00000,0.02355,0.97795,-0.17605,0.0,2023,6,8,14,17,49,884
2.35310,-0.05652,0.06072,0.00000,0.02391,0.97820,-0.17580,0.0,2023,6,8,14,17,49,896
2.35320,0.08348,-0.11428,0.00000,0.02416,0.97746,-0.17714,0.0,2023,6,8,14,17,49,907
2.35330,0.13598,-0.09678,0.00000,0.02318,0.97661,-0.17727,0.0,2023,6,8,14,17,49,918
2.35340,0.06598,-0.06177,0.00000,0.02342,0.97795,-0.17556,0.0,2023,6,8,14,17,49,929
2.35350,0.01348,0.04322,0.00000,0.02489,0.97734,-0.17568,0.0,2023,6,8,14,17,49,940
2.35360,-0.17902,-0.02678,0.00000,0.02355,0.97832,-0.17641,0.0,2023,6,8,14,17,49,951
2.35370,-0.23152,-0.11428,0.00000,0.02550,0.97698,-0.17531,0.0,2023,6,8,14,17,49,962
2.35380,-0.02152,-0.18428,0.00000,0.02355,0.97868,-0.17690,0.0,2023,6,8,14,17,49,973
2.35390,0.10098,0.00822,0.00000,0.02586,0.97685,-0.17519,0.0,2023,6,8,14,17,49,984
2.35400,0.24098,0.02572,0.00000,0.02233,0.97893,-0.17690,0.0,2023,6,8,14,17,49,996
2.35410,0.25848,-0.32428,0.00000,0.02477,0.97710,-0.17800,0.0,2023,6,8,14,17,49,7
2.35420,-0.09152,-0.07927,0.00000,0.02440,0.97673,-0.17617,0.0,2023,6,8,14,17,50,8
2.35430,-0.35402,0.06072,0.00000,0.02428,0.97722,-0.17458,0.0,2023,6,8,14,17,50,19
2.35440,-0.17902,-0.06177,0.00000,0.02367,0.98186,-0.17470,0.0,2023,6,8,14,17,50,30
2.35450,0.25848,0.07822,0.00000,0.02355,0.97759,-0.17568,0.0,2023,6,8,14,17,50,41
2.35460,0.38098,-0.02678,0.00000,0.02440,0.97783,-0.17702,0.0,2023,6,8,14,17,50,52
2.35470,0.08348,-0.20178,0.00000,0.02501,0.97466,-0.17763,0.0,2023,6,8,14,17,50,63
2.35480,-0.12652,0.07822,0.00000,0.02355,0.97673,-0.17812,0.0,2023,6,8,14,17,50,74
2.35490,-0.28402,0.07822,0.00000,0.02184,0.97783,-0.17666,0.0,2023,6,8,14,17,50,86
2.35500,0.10098,0.00822,0.00000,0.02501,0.97844,-0.17605,0.0,2023,6,8,14,17,50,97
2.35510,0.08348,0.04322,0.00000,0.02525,0.97966,-0.17568,0.0,2023,6,8,14,17,50,108
2.35520,0.11848,0.07822,0.00000,0.02281,0.97746,-0.17678,0.0,2023,6,8,14,17,50,119
2.35530,-0.10902,-0.00928,0.00000,0.02367,0.97795,-0.17629,0.0,2023,6,8,14,17,50,130
2.35540,-0.07402,0.00822,0.00000,0.02525,0.97624,-0.17653,0.0,2023,6,8,14,17,50,141
2.35550,0.04848,-0.06177,0.00000,0.02391,0.97954,-0.17495,0.0,2023,6,8,14,17,50,152
2.35560,0.24098,-0.09678,0.00000,0.02611,0.97881,-0.17751,0.0,2023,6,8,14,17,50,163
2.35570,0.41598,0.00822,0.00000,0.02538,0.97624,-0.17507,0.0,2023,6,8,14,17,50,174
2.35580,-0.07402,-0.00928,0.00000,0.02464,0.97771,-0.17678,0.0,2023,6,8,14,17,50,186
2.35590,-0.40652,0.11322,0.00000,0.02452,0.97685,-0.17592,0.0,2023,6,8,14,17,50,197
2.35600,-0.28402,-0.04428,0.00000,0.02416,0.97722,-0.17556,0.0,2023,6,8,14,17,50,208
2.35610,0.13598,-0.04428,0.00000,0.02501,0.97673,-0.17446,0.0,2023,6,8,14,17,50,219
2.35620,0.22348,-0.25428,0.00000,0.02416,0.97795,-0.17653,0.0,2023,6,8,14,17,50,230
2.35630,0.27598,0.06072,0.00000,0.02403,0.97832,-0.17739,0.0,2023,6,8,14,17,50,241
2.35640,-0.03902,-0.06177,0.00000,0.02599,0.97759,-0.17556,0.0,2023,6,8,14,17,50,252
2.35650,-0.12652,-0.16678,0.00000,0.02269,0.97783,-0.17690,0.0,2023,6,8,14,17,50,263
2.35660,-0.10902,0.13072,0.00000,0.02660,0.97466,-0.17519,0.0,2023,6,8,14,17,50,274
2.35670,-0.02152,0.00822,0.00000,0.02513,0.97795,-0.17434,0.0,2023,6,8,14,17,50,286
2.35680,0.25848,-0.00928,0.00000,0.02428,0.97649,-0.17702,0.0,2023,6,8,14,17,50,297
2.35690,0.25848,-0.02678,0.00000,0.02440,0.97734,-0.17666,0.0,2023,6,8,14,17,50,308
2.35700,0.11848,0.16572,0.00000,0.02562,0.97722,-0.17946,0.0,2023,6,8,14,17,50,319
2.35710,-0.12652,-0.04428,0.00000,0.02342,0.97746,-0.17788,0.0,2023,6,8,14,17,50,330
2.35720,-0.03902,0.00822,0.00000,0.02330,0.97783,-0.17702,0.0,2023,6,8,14,17,50,341
2.35730,-0.21402,0.02572,0.00000,0.02574,0.98125,-0.17702,0.0,2023,6,8,14,17,50,352
2.35740,0.18848,-0.23678,0.00000,0.02330,0.97942,-0.17507,0.0,2023,6,8,14,17,50,363
2.35750,0.01348,0.18322,0.00000,0.02391,0.97637,-0.17605,0.0,2023,6,8,14,17,50,374
2.35760,-0.07402,0.00822,0.00000,0.02635,0.97734,-0.17544,0.0,2023,6,8,14,17,50,386
2.35770,-0.05652,-0.11428,0.00000,0.02367,0.97393,-0.17641,0.0,2023,6,8,14,17,50,397
2.35780,0.29348,-0.00928,0.00000,0.02416,0.97807,-0.17617,0.0,2023,6,8,14,17,50,408
2.35790,0.04848,0.16572,0.00000,0.02379,0.97942,-0.17788,0.0,2023,6,8,14,17,50,419
2.35800,-0.03902,-0.06177,0.00000,0.02464,0.97612,-0.17714,0.0,2023,6,8,14,17,50,430
2.35810,0.11848,-0.02678,0.00000,0.02330,0.97746,-0.17507,0.0,2023,6,8,14,17,50,441
2.35820,-0.07402,-0.00928,0.00000,0.02208,0.97637,-0.17397,0.0,2023,6,8,14,17,50,452
2.35830,-0.10902,-0.07927,0.00000,0.02281,0.97942,-0.17775,0.0,2023,6,8,14,17,50,463
2.35840,0.06598,-0.00928,0.00000,0.02489,0.97807,-0.17605,0.0,2023,6,8,14,17,50,474
2.35850,0.08348,-0.09678,0.00000,0.02416,0.97929,-0.17519,0.0,2023,6,8,14,17,50,486
2.35860,0.15348,0.04322,0.00000,0.02599,0.97722,-0.17605,0.0,2023,6,8,14,17,50,497
2.35870,0.01348,-0.13178,0.00000,0.02501,0.97759,-0.17470,0.0,2023,6,8,14,17,50,508
2.35880,-0.31902,0.13072,0.00000,0.02513,0.97771,-0.17605,0.0,2023,6,8,14,17,50,519
2.35890,0.17098,0.14823,0.00000,0.02464,0.97539,-0.17434,0.0,2023,6,8,14,17,50,530
2.35900,0.18848,0.04322,0.00000,0.02257,0.97929,-0.17727,0.0,2023,6,8,14,17,50,541
2.35910,0.13598,-0.00928,0.00000,0.02245,0.97917,-0.17580,0.0,2023,6,8,14,17,50,552
2.35920,-0.21402,0.09572,0.00000,0.02379,0.97820,-0.17568,0.0,2023,6,8,14,17,50,563
2.35930,-0.23152,-0.14928,0.00000,0.02281,0.97990,-0.17556,0.0,2023,6,8,14,17,50,574
2.35940,0.03098,-0.16678,0.00000,0.02477,0.97929,-0.17556,0.0,2023,6,8,14,17,50,586
2.35950,-0.03902,0.02572,0.00000,0.02525,0.97698,-0.17519,0.0,2023,6,8,14,17,50,597
2.35960,0.08348,0.00822,0.00000,0.02599,0.97563,-0.17653,0.0,2023,6,8,14,17,50,608
2.35970,0.04848,-0.02678,0.00000,0.02330,0.97807,-0.17592,0.0,2023,6,8,14,17,50,619
2.35980,-0.07402,-0.04428,0.00000,0.02525,0.97771,-0.17775,0.0,2023,6,8,14,17,50,630
2.35990,-0.10902,-0.00928,0.00000,0.02538,0.97734,-0.17519,0.0,2023,6,8,14,17,50,641
2.36000,-0.07402,-0.02678,0.00000,0.02220,0.97759,-0.17714,0.0,2023,6,8,14,17,50,652
2.36010,-0.02152,0.27072,0.00000,0.02294,0.97783,-0.17678,0.0,2023,6,8,14,17,50,663
2.36020,0.22348,-0.06177,0.00000,0.02586,0.97893,-0.17617,0.0,2023,6,8,14,17,50,674
2.36030,0.03098,0.04322,0.00000,0.02586,0.97844,-0.17519,0.0,2023,6,8,14,17,50,686
2.36040,-0.24902,0.02572,0.00000,0.02501,0.97454,-0.17324,0.0,2023,6,8,14,17,50,697
2.36050,-0.03902,-0.20178,0.00000,0.02257,0.97673,-0.17202,0.0,2023,6,8,14,17,50,708
2.36060,-0.07402,-0.13178,0.00000,0.02220,0.97722,-0.17470,0.0,2023,6,8,14,17,50,719
2.36070,0.36348,0.13072,0.00000,0.02294,0.97893,-0.17653,0.0,2023,6,8,14,17,50,730
2.36080,0.24098,-0.07927,0.00000,0.02550,0.97673,-0.17641,0.0,2023,6,8,14,17,50,741
2.36090,-0.05652,-0.07927,0.00000,0.02367,0.97746,-0.17605,0.0,2023,6,8,14,17,50,752
2.36100,-0.42402,-0.02678,0.00000,0.02403,0.97807,-0.17556,0.0,2023,6,8,14,17,50,763
2.36110,-0.19652,-0.02678,0.00000,0.02379,0.97710,-0.17483,0.0,2023,6,8,14,17,50,774
2.36120,-0.02152,0.02572,0.00000,0.02440,0.97856,-0.17556,0.0,2023,6,8,14,17,50,786
2.36130,0.34598,0.14823,0.00000,0.02281,0.97576,-0.17617,0.0,2023,6,8,14,17,50,797
2.36140,0.13598,-0.13178,0.00000,0.02391,0.97710,-0.17653,0.0,2023,6,8,14,17,50,808
2.36150,-0.07402,0.00822,0.00000,0.02062,0.97795,-0.17653,0.0,2023,6,8,14,17,50,819
2.36160,-0.38902,0.02572,0.00000,0.02574,0.97637,-0.17653,0.0,2023,6,8,14,17,50,830
2.36170,-0.45902,0.00822,0.00000,0.02538,0.97832,-0.17361,0.0,2023,6,8,14,17,50,841
2.36180,0.15348,0.06072,0.00000,0.02245,0.97795,-0.17580,0.0,2023,6,8,14,17,50,852
2.36190,0.39848,0.14823,0.00000,0.02367,0.97515,-0.17690,0.0,2023,6,8,14,17,50,863
2.36200,0.11848,0.14823,0.00000,0.02330,0.97820,-0.17580,0.0,2023,6,8,14,17,50,874
2.36210,-0.31902,0.11322,0.00000,0.02525,0.97698,-0.17568,0.0,2023,6,8,14,17,50,886
2.36220,-0.65152,-0.02678,0.00000,0.02538,0.97673,-0.17653,0.0,2023,6,8,14,17,50,897
2.36230,-0.31902,0.02572,0.00000,0.02330,0.97734,-0.17422,0.0,2023,6,8,14,17,50,908
2.36240,0.08348,0.20072,0.00000,0.02586,0.97722,-0.17470,0.0,2023,6,8,14,17,50,919
2.36250,0.64348,0.00822,0.00000,0.02538,0.97868,-0.17629,0.0,2023,6,8,14,17,50,930
2.36260,0.50348,-0.11428,0.00000,0.02306,0.97893,-0.17678,0.0,2023,6,8,14,17,50,941
2.36270,-0.19652,0.04322,0.00000,0.02318,0.97722,-0.17617,0.0,2023,6,8,14,17,50,952
2.36280,-0.31902,-0.06177,0.00000,0.02574,0.97832,-0.17507,0.0,2023,6,8,14,17,50,963
2.36290,-0.16152,-0.18428,0.00000,0.02062,0.97954,-0.17666,0.0,2023,6,8,14,17,50,974
2.36300,0.22348,-0.02678,0.00000,0.02330,0.97771,-0.17104,0.0,2023,6,8,14,17,50,986
2.36310,0.32848,0.02572,0.00000,0.02403,0.97698,-0.17568,0.0,2023,6,8,14,17,50,997
2.36320,0.32848,-0.20178,0.00000,0.02501,0.97844,-0.17702,0.0,2023,6,8,14,17,51,8
2.36330,-0.14402,-0.07927,0.00000,0.02245,0.97807,-0.17605,0.0,2023,6,8,14,17,51,19
2.36340,-0.31902,0.16572,0.00000,0.02477,0.97771,-0.17629,0.0,2023,6,8,14,17,51,30
2.36350,-0.40652,-0.04428,0.00000,0.02452,0.97795,-0.17556,0.0,2023,6,8,14,17,51,41
2.36360,0.18848,-0.11428,0.00000,0.02489,0.97722,-0.17495,0.0,2023,6,8,14,17,51,52
2.36370,0.45098,-0.16678,0.00000,0.02477,0.97600,-0.17666,0.0,2023,6,8,14,17,51,63
2.36380,0.36348,-0.00928,0.00000,0.02623,0.97759,-0.17666,0.0,2023,6,8,14,17,51,74
2.36390,-0.31902,0.07822,0.00000,0.02489,0.97893,-0.17458,0.0,2023,6,8,14,17,51,86
2.36400,-0.30152,-0.09678,0.00000,0.02403,0.97637,-0.17580,0.0,2023,6,8,14,17,51,97
2.36410,-0.12652,0.11322,0.00000,0.02269,0.97734,-0.17361,0.0,2023,6,8,14,17,51,108
2.36420,0.24098,0.06072,0.00000,0.02306,0.97734,-0.17556,0.0,2023,6,8,14,17,51,119
2.36430,0.36348,0.13072,0.00000,0.02342,0.97685,-0.17775,0.0,2023,6,8,14,17,51,130
2.36440,0.11848,0.00822,0.00000,0.02379,0.97966,-0.17739,0.0,2023,6,8,14,17,51,141
2.36450,-0.12652,-0.25428,0.00000,0.02428,0.97771,-0.17641,0.0,2023,6,8,14,17,51,152
2.36460,-0.31902,-0.07927,0.00000,0.02538,0.97661,-0.17495,0.0,2023,6,8,14,17,51,163
2.36470,0.01348,0.07822,0.00000,0.02403,0.97624,-0.17495,0.0,2023,6,8,14,17,51,174
2.36480,0.27598,0.21822,0.00000,0.02342,0.97844,-0.17507,0.0,2023,6,8,14,17,51,186
2.36490,0.24098,-0.25428,0.00000,0.02318,0.97820,-0.17641,0.0,2023,6,8,14,17,51,197
2.36500,-0.02152,-0.13178,0.00000,0.02281,0.97698,-0.17788,0.0,2023,6,8,14,17,51,208
2.36510,-0.40652,-0.13178,0.00000,0.02403,0.97722,-0.17324,0.0,2023,6,8,14,17,51,219
2.36520,-0.21402,-0.21928,0.00000,0.02440,0.97771,-0.17727,0.0,2023,6,8,14,17,51,230
2.36530,0.11848,-0.25428,0.00000,0.02391,0.97698,-0.17446,0.0,2023,6,8,14,17,51,241
2.36540,0.20598,-0.16678,0.00000,0.02513,0.97612,-0.17849,0.0,2023,6,8,14,17,51,252
2.36550,0.13598,0.09572,0.00000,0.02574,0.97685,-0.17666,0.0,2023,6,8,14,17,51,263
2.36560,-0.02152,0.06072,0.00000,0.02452,0.97502,-0.17678,0.0,2023,6,8,14,17,51,274
2.36570,-0.42402,0.18322,0.00000,0.02428,0.97783,-0.17361,0.0,2023,6,8,14,17,51,286
2.36580,-0.24902,-0.18428,0.00000,0.02574,0.97624,-0.17483,0.0,2023,6,8,14,17,51,297
2.36590,0.20598,-0.20178,0.00000,0.02391,0.97929,-0.17531,0.0,2023,6,8,14,17,51,308
2.36600,0.22348,0.02572,0.00000,0.02501,0.97893,-0.17653,0.0,2023,6,8,14,17,51,319
2.36610,0.04848,0.13072,0.00000,0.02501,0.97673,-0.17617,0.0,2023,6,8,14,17,51,330
2.36620,0.01348,-0.00928,0.00000,0.02525,0.97771,-0.17629,0.0,2023,6,8,14,17,51,341
2.36630,-0.19652,0.00822,0.00000,0.02294,0.97929,-0.17861,0.0,2023,6,8,14,17,51,352
2.36640,-0.16152,-0.20178,0.00000,0.02452,0.97868,-0.17519,0.0,2023,6,8,14,17,51,363
2.36650,0.04848,0.02572,0.00000,0.02367,0.97771,-0.17422,0.0,2023,6,8,14,17,51,374
2.36660,0.04848,0.09572,0.00000,0.02294,0.97917,-0.17580,0.0,2023,6,8,14,17,51,386
2.36670,0.04848,0.13072,0.00000,0.02416,0.97759,-0.17641,0.0,2023,6,8,14,17,51,397
2.36680,-0.00402,-0.16678,0.00000,0.02403,0.97893,-0.17617,0.0,2023,6,8,14,17,51,408
2.36690,-0.03902,0.04322,0.00000,0.02403,0.97661,-0.17629,0.0,2023,6,8,14,17,51,419
2.36700,0.11848,0.06072,0.00000,0.02525,0.97734,-0.17519,0.0,2023,6,8,14,17,51,430
2.36710,0.22348,-0.20178,0.00000,0.02501,0.97917,-0.17556,0.0,2023,6,8,14,17,51,441
2.36720,-0.14402,0.00822,0.00000,0.02550,0.97673,-0.17556,0.0,2023,6,8,14,17,51,452
2.36730,-0.24902,0.07822,0.00000,0.02208,0.97661,-0.17666,0.0,2023,6,8,14,17,51,463
2.36740,0.04848,-0.14928,0.00000,0.02342,0.97929,-0.17470,0.0,2023,6,8,14,17,51,474
2.36750,0.20598,-0.02678,0.00000,0.02403,0.97624,-0.17653,0.0,2023,6,8,14,17,51,486
2.36760,0.06598,0.02572,0.00000,0.02318,0.97771,-0.17739,0.0,2023,6,8,14,17,51,497
2.36770,-0.31902,-0.11428,0.00000,0.02501,0.97454,-0.17739,0.0,2023,6,8,14,17,51,508
2.36780,-0.30152,-0.18428,0.00000,0.02342,0.97600,-0.17824,0.0,2023,6,8,14,17,51,519
2.36790,-0.16152,0.00822,0.00000,0.02464,0.97576,-0.17385,0.0,2023,6,8,14,17,51,530
2.36800,0.22348,-0.07927,0.00000,0.02513,0.97844,-0.17458,0.0,2023,6,8,14,17,51,541
2.36810,0.38098,-0.20178,0.00000,0.02403,0.97881,-0.17775,0.0,2023,6,8,14,17,51,552
2.36820,0.24098,-0.00928,0.00000,0.02330,0.97893,-0.17788,0.0,2023,6,8,14,17,51,563
2.36830,-0.23152,-0.14928,0.00000,0.02403,0.97588,-0.17641,0.0,2023,6,8,14,17,51,574
2.36840,-0.65152,-0.07927,0.00000,0.02330,0.97551,-0.17751,0.0,2023,6,8,14,17,51,586
2.36850,-0.10902,-0.04428,0.00000,0.02257,0.97917,-0.17495,0.0,2023,6,8,14,17,51,597
2.36860,0.20598,0.21822,0.00000,0.02135,0.97881,-0.17483,0.0,2023,6,8,14,17,51,608
2.36870,0.29348,0.00822,0.00000,0.02464,0.97710,-0.17702,0.0,2023,6,8,14,17,51,619
2.36880,0.25848,0.07822,0.00000,0.02623,0.97783,-0.17690,0.0,2023,6,8,14,17,51,630
2.36890,-0.47652,-0.11428,0.00000,0.02513,0.97722,-0.17629,0.0,2023,6,8,14,17,51,641
2.36900,-0.42402,-0.21928,0.00000,0.02391,0.97734,-0.17483,0.0,2023,6,8,14,17,51,652
2.36910,-0.02152,-0.09678,0.00000,0.02574,0.97929,-0.17483,0.0,2023,6,8,14,17,51,663
2.36920,0.18848,-0.13178,0.00000,0.02306,0.97685,-0.17605,0.0,2023,6,8,14,17,51,674
2.36930,0.31098,0.21822,0.00000,0.02294,0.97881,-0.17739,0.0,2023,6,8,14,17,51,686
2.36940,-0.03902,0.14823,0.00000,0.02428,0.97539,-0.17800,0.0,2023,6,8,14,17,51,697
2.36950,-0.31902,-0.09678,0.00000,0.02452,0.97771,-0.17763,0.0,2023,6,8,14,17,51,708
2.36960,-0.09152,-0.20178,0.00000,0.02538,0.97868,-0.17458,0.0,2023,6,8,14,17,51,719
2.36970,-0.02152,-0.00928,0.00000,0.02477,0.97698,-0.17739,0.0,2023,6,8,14,17,51,730
2.36980,0.18848,0.09572,0.00000,0.02257,0.97771,-0.17397,0.0,2023,6,8,14,17,51,741
2.36990,0.13598,0.02572,0.00000,0.02367,0.97734,-0.17641,0.0,2023,6,8,14,17,51,752
2.37000,-0.10902,-0.00928,0.00000,0.02330,0.97783,-0.17580,0.0,2023,6,8,14,17,51,763
2.37010,-0.10902,0.07822,0.00000,0.02550,0.98027,-0.17678,0.0,2023,6,8,14,17,51,774
2.37020,-0.07402,0.06072,0.00000,0.02306,0.97868,-0.17629,0.0,2023,6,8,14,17,51,786
2.37030,0.22348,-0.06177,0.00000,0.02403,0.97746,-0.17629,0.0,2023,6,8,14,17,51,797
2.37040,0.29348,-0.02678,0.00000,0.02806,0.97612,-0.17836,0.0,2023,6,8,14,17,51,808
2.37050,0.08348,0.13072,0.00000,0.02574,0.97515,-0.17556,0.0,2023,6,8,14,17,51,819
2.37060,-0.14402,0.02572,0.00000,0.02294,0.97685,-0.17617,0.0,2023,6,8,14,17,51,830
2.37070,-0.21402,0.00822,0.00000,0.02281,0.97795,-0.17641,0.0,2023,6,8,14,17,51,841
2.37080,-0.00402,0.13072,0.00000,0.02574,0.97783,-0.17653,0.0,2023,6,8,14,17,51,852
2.37090,0.08348,0.07822,0.00000,0.02403,0.97685,-0.17373,0.0,2023,6,8,14,17,51,863
2.37100,0.15348,0.14823,0.00000,0.02379,0.97966,-0.17483,0.0,2023,6,8,14,17,51,874
2.37110,-0.00402,-0.00928,0.00000,0.02586,0.97783,-0.17714,0.0,2023,6,8,14,17,51,886
2.37120,-0.07402,-0.02678,0.00000,0.02428,0.97905,-0.17690,0.0,2023,6,8,14,17,51,897
2.37130,-0.10902,0.07822,0.00000,0.02660,0.97917,-0.17836,0.0,2023,6,8,14,17,51,908
2.37140,-0.05652,0.04322,0.00000,0.02172,0.97832,-0.17483,0.0,2023,6,8,14,17,51,919
2.37150,0.25848,-0.23678,0.00000,0.02330,0.97771,-0.17544,0.0,2023,6,8,14,17,51,930
2.37160,-0.00402,-0.14928,0.00000,0.02440,0.97649,-0.17678,0.0,2023,6,8,14,17,51,941
2.37170,-0.09152,0.09572,0.00000,0.02428,0.97710,-0.17531,0.0,2023,6,8,14,17,51,952
2.37180,0.06598,-0.04428,0.00000,0.02306,0.97759,-0.17617,0.0,2023,6,8,14,17,51,963
2.37190,-0.07402,0.00822,0.00000,0.02452,0.97600,-0.17824,0.0,2023,6,8,14,17,51,974
2.37200,-0.02152,0.00822,0.00000,0.02501,0.97771,-0.17739,0.0,2023,6,8,14,17,51,986
2.37210,0.01348,0.20072,0.00000,0.02599,0.97771,-0.17678,0.0,2023,6,8,14,17,51,997
2.37220,0.08348,-0.06177,0.00000,0.02684,0.97942,-0.17580,0.0,2023,6,8,14,17,51,8
2.37230,0.08348,0.27072,0.00000,0.02367,0.97783,-0.17714,0.0,2023,6,8,14,17,52,9
2.37240,0.03098,-0.11428,0.00000,0.02464,0.97698,-0.17592,0.0,2023,6,8,14,17,52,20
2.37250,-0.00402,-0.20178,0.00000,0.02464,0.97868,-0.17641,0.0,2023,6,8,14,17,52,31
2.37260,-0.12652,0.14823,0.00000,0.02208,0.97954,-0.17739,0.0,2023,6,8,14,17,52,42
2.37270,-0.10902,-0.11428,0.00000,0.02623,0.97637,-0.17507,0.0,2023,6,8,14,17,52,53
2.37280,0.03098,-0.02678,0.00000,0.02391,0.97600,-0.17678,0.0,2023,6,8,14,17,52,64
2.37290,0.18848,-0.14928,0.00000,0.02416,0.97856,-0.17470,0.0,2023,6,8,14,17,52,76
2.37300,0.04848,0.07822,0.00000,0.02562,0.97661,-0.17519,0.0,2023,6,8,14,17,52,87
2.37310,0.08348,-0.04428,0.00000,0.02233,0.97820,-0.17690,0.0,2023,6,8,14,17,52,98
2.37320,-0.12652,0.21822,0.00000,0.02562,0.97856,-0.17519,0.0,2023,6,8,14,17,52,109
2.37330,0.04848,0.07822,0.00000,0.02501,0.97771,-0.17788,0.0,2023,6,8,14,17,52,120
2.37340,-0.00402,-0.11428,0.00000,0.02525,0.97820,-0.17483,0.0,2023,6,8,14,17,52,131
2.37350,0.25848,0.06072,0.00000,0.02245,0.97771,-0.17617,0.0,2023,6,8,14,17,52,142
2.37360,0.10098,0.13072,0.00000,0.02318,0.97771,-0.17739,0.0,2023,6,8,14,17,52,153
2.37370,0.18848,-0.04428,0.00000,0.02562,0.97759,-0.17702,0.0,2023,6,8,14,17,52,164
2.37380,-0.00402,-0.07927,0.00000,0.02477,0.97929,-0.17580,0.0,2023,6,8,14,17,52,176
2.37390,0.04848,0.02572,0.00000,0.02562,0.97795,-0.17592,0.0,2023,6,8,14,17,52,187
2.37400,0.01348,-0.06177,0.00000,0.02220,0.97795,-0.17507,0.0,2023,6,8,14,17,52,198
2.37410,-0.00402,-0.09678,0.00000,0.02501,0.97600,-0.17714,0.0,2023,6,8,14,17,52,209
2.37420,-0.09152,0.06072,0.00000,0.02586,0.97661,-0.17800,0.0,2023,6,8,14,17,52,220
2.37430,0.11848,-0.16678,0.00000,0.02501,0.97734,-0.17788,0.0,2023,6,8,14,17,52,231
2.37440,-0.10902,0.09572,0.00000,0.02342,0.97759,-0.17617,0.0,2023,6,8,14,17,52,242
2.37450,-0.19652,0.00822,0.00000,0.02477,0.97685,-0.17629,0.0,2023,6,8,14,17,52,253
2.37460,-0.14402,0.04322,0.00000,0.02623,0.97661,-0.17580,0.0,2023,6,8,14,17,52,264
2.37470,0.11848,-0.09678,0.00000,0.02355,0.97771,-0.17580,0.0,2023,6,8,14,17,52,276
2.37480,0.29348,-0.11428,0.00000,0.02599,0.97746,-0.17788,0.0,2023,6,8,14,17,52,287
2.37490,0.11848,-0.02678,0.00000,0.02464,0.97722,-0.17678,0.0,2023,6,8,14,17,52,298
2.37500,-0.14402,-0.02678,0.00000,0.02550,0.97820,-0.17617,0.0,2023,6,8,14,17,52,309
2.37510,-0.24902,-0.02678,0.00000,0.02342,0.97881,-0.17409,0.0,2023,6,8,14,17,52,320
2.37520,-0.00402,-0.16678,0.00000,0.02379,0.97661,-0.17507,0.0,2023,6,8,14,17,52,331
2.37530,0.04848,0.20072,0.00000,0.02245,0.97722,-0.17458,0.0,2023,6,8,14,17,52,342
2.37540,0.04848,0.09572,0.00000,0.02379,0.97710,-0.17775,0.0,2023,6,8,14,17,52,353
2.37550,0.15348,0.02572,0.00000,0.02440,0.97515,-0.17739,0.0,2023,6,8,14,17,52,364
2.37560,-0.07402,-0.00928,0.00000,0.02330,0.97637,-0.17617,0.0,2023,6,8,14,17,52,376
2.37570,-0.07402,-0.13178,0.00000,0.02342,0.97759,-0.17531,0.0,2023,6,8,14,17,52,387
2.37580,-0.07402,-0.20178,0.00000,0.02269,0.97832,-0.17568,0.0,2023,6,8,14,17,52,398
2.37590,0.27598,0.06072,0.00000,0.02464,0.97795,-0.17495,0.0,2023,6,8,14,17,52,409
2.37600,0.27598,-0.13178,0.00000,0.02342,0.97917,-0.17580,0.0,2023,6,8,14,17,52,420
2.37610,-0.12652,0.28822,0.00000,0.02538,0.97856,-0.17812,0.0,2023,6,8,14,17,52,431
2.37620,-0.16152,0.07822,0.00000,0.02416,0.97722,-0.17434,0.0,2023,6,8,14,17,52,442
2.37630,-0.03902,0.00822,0.00000,0.02562,0.97673,-0.17556,0.0,2023,6,8,14,17,52,453
2.37640,0.08348,-0.09678,0.00000,0.02391,0.97759,-0.17348,0.0,2023,6,8,14,17,52,464
2.37650,0.17098,0.02572,0.00000,0.02330,0.97929,-0.17605,0.0,2023,6,8,14,17,52,476
2.37660,0.43348,-0.04428,0.00000,0.02342,0.97685,-0.17483,0.0,2023,6,8,14,17,52,487
2.37670,-0.17902,0.09572,0.00000,0.02489,0.97868,-0.17739,0.0,2023,6,8,14,17,52,498
2.37680,-0.28402,0.04322,0.00000,0.02538,0.97795,-0.17629,0.0,2023,6,8,14,17,52,509
2.37690,-0.12652,0.00822,0.00000,0.02159,0.97612,-0.17361,0.0,2023,6,8,14,17,52,520
2.37700,0.27598,0.27072,0.00000,0.02233,0.97600,-0.17592,0.0,2023,6,8,14,17,52,531
2.37710,0.24098,0.23572,0.00000,0.02525,0.97759,-0.17678,0.0,2023,6,8,14,17,52,542
2.37720,0.25848,0.07822,0.00000,0.02269,0.97698,-0.17519,0.0,2023,6,8,14,17,52,553
2.37730,0.10098,0.23572,0.00000,0.02281,0.97698,-0.17531,0.0,2023,6,8,14,17,52,564
2.37740,-0.23152,-0.04428,0.00000,0.02306,0.97637,-0.17592,0.0,2023,6,8,14,17,52,576
2.37750,-0.00402,-0.04428,0.00000,0.02477,0.97673,-0.17544,0.0,2023,6,8,14,17,52,587
2.37760,-0.05652,-0.18428,0.00000,0.02440,0.97868,-0.17446,0.0,2023,6,8,14,17,52,598
2.37770,0.18848,-0.09678,0.00000,0.02538,0.97807,-0.17507,0.0,2023,6,8,14,17,52,609
2.37780,0.13598,-0.04428,0.00000,0.02403,0.97783,-0.17629,0.0,2023,6,8,14,17,52,620
2.37790,0.01348,-0.06177,0.00000,0.02501,0.98064,-0.17702,0.0,2023,6,8,14,17,52,631
2.37800,-0.26652,0.04322,0.00000,0.02355,0.97807,-0.17556,0.0,2023,6,8,14,17,52,642
2.37810,-0.14402,-0.11428,0.00000,0.02245,0.97612,-0.17666,0.0,2023,6,8,14,17,52,653
2.37820,0.03098,0.09572,0.00000,0.02220,0.97624,-0.17739,0.0,2023,6,8,14,17,52,664
2.37830,0.15348,0.20072,0.00000,0.02623,0.97624,-0.17653,0.0,2023,6,8,14,17,52,676
2.37840,0.17098,-0.14928,0.00000,0.02379,0.97673,-0.17544,0.0,2023,6,8,14,17,52,687
2.37850,-0.21402,0.21822,0.00000,0.02525,0.97844,-0.17605,0.0,2023,6,8,14,17,52,698
2.37860,-0.05652,-0.09678,0.00000,0.02330,0.97417,-0.17568,0.0,2023,6,8,14,17,52,709
2.37870,-0.26652,-0.09678,0.00000,0.02342,0.97795,-0.17666,0.0,2023,6,8,14,17,52,720
2.37880,0.11848,0.00822,0.00000,0.02416,0.97771,-0.17666,0.0,2023,6,8,14,17,52,731
2.37890,0.15348,-0.21928,0.00000,0.02574,0.97856,-0.17702,0.0,2023,6,8,14,17,52,742
2.37900,-0.10902,0.16572,0.00000,0.02245,0.97966,-0.17592,0.0,2023,6,8,14,17,52,753
2.37910,-0.10902,-0.23678,0.00000,0.02294,0.97746,-0.17714,0.0,2023,6,8,14,17,52,764
2.37920,-0.09152,-0.04428,0.00000,0.02525,0.97844,-0.17641,0.0,2023,6,8,14,17,52,776
2.37930,-0.02152,0.02572,0.00000,0.02428,0.97905,-0.17666,0.0,2023,6,8,14,17,52,787
2.37940,0.18848,-0.13178,0.00000,0.02623,0.97673,-0.17544,0.0,2023,6,8,14,17,52,798
2.37950,0.08348,-0.09678,0.00000,0.02489,0.97807,-0.17458,0.0,2023,6,8,14,17,52,809
2.37960,-0.00402,-0.02678,0.00000,0.02586,0.97710,-0.17617,0.0,2023,6,8,14,17,52,820
2.37970,-0.17902,0.11322,0.00000,0.02611,0.97734,-0.17714,0.0,2023,6,8,14,17,52,831
2.37980,-0.09152,-0.09678,0.00000,0.02562,0.97868,-0.17483,0.0,2023,6,8,14,17,52,842
2.37990,-0.02152,0.14823,0.00000,0.02464,0.97868,-0.17836,0.0,2023,6,8,14,17,52,853
2.38000,0.18848,-0.21928,0.00000,0.02391,0.97734,-0.17531,0.0,2023,6,8,14,17,52,864
2.38010,-0.03902,0.13072,0.00000,0.02391,0.97649,-0.17678,0.0,2023,6,8,14,17,52,876
2.38020,0.03098,0.14823,0.00000,0.02489,0.97502,-0.17800,0.0,2023,6,8,14,17,52,887
2.38030,0.11848,-0.30678,0.00000,0.02428,0.97893,-0.17666,0.0,2023,6,8,14,17,52,898
2.38040,0.10098,-0.13178,0.00000,0.02599,0.97710,-0.17373,0.0,2023,6,8,14,17,52,909
2.38050,0.11848,-0.00928,0.00000,0.02269,0.97820,-0.18007,0.0,2023,6,8,14,17,52,920
2.38060,-0.05652,0.34072,0.00000,0.02477,0.97673,-0.17556,0.0,2023,6,8,14,17,52,931
2.38070,-0.05652,0.04322,0.00000,0.02355,0.97771,-0.17763,0.0,2023,6,8,14,17,52,942
2.38080,-0.21402,0.00822,0.00000,0.02391,0.97698,-0.17702,0.0,2023,6,8,14,17,52,953
2.38090,-0.05652,0.14823,0.00000,0.02403,0.97746,-0.17653,0.0,2023,6,8,14,17,52,964
2.38100,-0.03902,0.09572,0.00000,0.02452,0.97759,-0.17836,0.0,2023,6,8,14,17,52,976
2.38110,-0.14402,0.11322,0.00000,0.02489,0.97698,-0.17861,0.0,2023,6,8,14,17,52,987
2.38120,-0.10902,-0.14928,0.00000,0.02538,0.97868,-0.17812,0.0,2023,6,8,14,17,53,8
2.38130,-0.05652,-0.06177,0.00000,0.02306,0.97832,-0.17531,0.0,2023,6,8,14,17,53,19
2.38140,-0.16152,0.04322,0.00000,0.02257,0.97759,-0.17910,0.0,2023,6,8,14,17,53,30
2.38150,0.08348,0.07822,0.00000,0.02464,0.97600,-0.17873,0.0,2023,6,8,14,17,53,41
2.38160,0.11848,-0.09678,0.00000,0.02525,0.97832,-0.17531,0.0,2023,6,8,14,17,53,52
2.38170,-0.07402,0.00822,0.00000,0.02513,0.97588,-0.17775,0.0,2023,6,8,14,17,53,63
2.38180,-0.12652,-0.16678,0.00000,0.02769,0.97783,-0.17605,0.0,2023,6,8,14,17,53,74
2.38190,0.03098,-0.37678,0.00000,0.02452,0.97685,-0.17446,0.0,2023,6,8,14,17,53,86
2.38200,0.01348,0.04322,0.00000,0.02355,0.97576,-0.17751,0.0,2023,6,8,14,17,53,97
2.38210,-0.07402,-0.04428,0.00000,0.02416,0.97637,-0.17568,0.0,2023,6,8,14,17,53,108
2.38220,0.08348,-0.02678,0.00000,0.02464,0.97551,-0.17580,0.0,2023,6,8,14,17,53,119
2.38230,-0.03902,0.02572,0.00000,0.02391,0.97649,-0.17556,0.0,2023,6,8,14,17,53,130
2.38240,-0.14402,0.06072,0.00000,0.02538,0.97795,-0.17617,0.0,2023,6,8,14,17,53,141
2.38250,-0.09152,0.04322,0.00000,0.02464,0.97807,-0.17641,0.0,2023,6,8,14,17,53,152
2.38260,-0.03902,-0.13178,0.00000,0.02367,0.97478,-0.17592,0.0,2023,6,8,14,17,53,163
2.38270,0.01348,0.04322,0.00000,0.02428,0.97771,-0.17702,0.0,2023,6,8,14,17,53,174
2.38280,-0.05652,0.06072,0.00000,0.02306,0.97820,-0.17641,0.0,2023,6,8,14,17,53,186
2.38290,0.01348,0.09572,0.00000,0.02367,0.97698,-0.17690,0.0,2023,6,8,14,17,53,197
2.38300,0.04848,0.07822,0.00000,0.02391,0.97820,-0.17678,0.0,2023,6,8,14,17,53,208
2.38310,-0.03902,0.11322,0.00000,0.02477,0.97588,-0.17666,0.0,2023,6,8,14,17,53,219
2.38320,0.10098,-0.13178,0.00000,0.02501,0.97710,-0.17470,0.0,2023,6,8,14,17,53,230
2.38330,0.10098,0.11322,0.00000,0.02074,0.97844,-0.17617,0.0,2023,6,8,14,17,53,241
2.38340,0.17098,0.06072,0.00000,0.02318,0.97661,-0.17751,0.0,2023,6,8,14,17,53,252
2.38350,0.06598,0.09572,0.00000,0.02342,0.97795,-0.17544,0.0,2023,6,8,14,17,53,263
2.38360,-0.17902,0.06072,0.00000,0.02562,0.97783,-0.17653,0.0,2023,6,8,14,17,53,274
2.38370,0.13598,0.00822,0.00000,0.02355,0.97978,-0.17324,0.0,2023,6,8,14,17,53,286
2.38380,0.20598,0.02572,0.00000,0.02452,0.97746,-0.17788,0.0,2023,6,8,14,17,53,297
2.38390,0.03098,0.14823,0.00000,0.02318,0.97746,-0.17714,0.0,2023,6,8,14,17,53,308
2.38400,-0.07402,-0.07927,0.00000,0.02452,0.97698,-0.17641,0.0,2023,6,8,14,17,53,319
2.38410,-0.30152,-0.00928,0.00000,0.02367,0.97832,-0.17885,0.0,2023,6,8,14,17,53,330
2.38420,-0.37152,0.07822,0.00000,0.02464,0.97783,-0.17556,0.0,2023,6,8,14,17,53,341
2.38430,0.11848,0.14823,0.00000,0.02403,0.97893,-0.17446,0.0,2023,6,8,14,17,53,352
2.38440,0.15348,0.02572,0.00000,0.02550,0.97600,-0.17702,0.0,2023,6,8,14,17,53,363
2.38450,0.18848,-0.21928,0.00000,0.02416,0.97685,-0.17849,0.0,2023,6,8,14,17,53,374
2.38460,0.06598,0.21822,0.00000,0.02428,0.97795,-0.17653,0.0,2023,6,8,14,17,53,386
2.38470,-0.16152,0.02572,0.00000,0.02440,0.97637,-0.17446,0.0,2023,6,8,14,17,53,397
2.38480,-0.26652,0.07822,0.00000,0.02513,0.97588,-0.17605,0.0,2023,6,8,14,17,53,408
2.38490,0.04848,0.09572,0.00000,0.02330,0.97844,-0.17446,0.0,2023,6,8,14,17,53,419
2.38500,0.11848,-0.00928,0.00000,0.02342,0.97856,-0.17531,0.0,2023,6,8,14,17,53,430
2.38510,0.22348,0.13072,0.00000,0.02220,0.97710,-0.17483,0.0,2023,6,8,14,17,53,441
2.38520,-0.21402,0.06072,0.00000,0.02269,0.97698,-0.17653,0.0,2023,6,8,14,17,53,452
2.38530,-0.35402,0.18322,0.00000,0.02635,0.97832,-0.17568,0.0,2023,6,8,14,17,53,463
2.38540,-0.14402,-0.14928,0.00000,0.02330,0.97478,-0.17702,0.0,2023,6,8,14,17,53,474
2.38550,0.18848,-0.00928,0.00000,0.02538,0.97600,-0.17641,0.0,2023,6,8,14,17,53,486
2.38560,0.39848,0.09572,0.00000,0.02489,0.97698,-0.17470,0.0,2023,6,8,14,17,53,497
2.38570,0.10098,-0.09678,0.00000,0.02599,0.97844,-0.17666,0.0,2023,6,8,14,17,53,508
2.38580,-0.12652,-0.28927,0.00000,0.02489,0.97783,-0.17580,0.0,2023,6,8,14,17,53,519
2.38590,-0.42402,-0.14928,0.00000,0.02647,0.97466,-0.17641,0.0,2023,6,8,14,17,53,530
2.38600,-0.17902,0.00822,0.00000,0.02342,0.97795,-0.17385,0.0,2023,6,8,14,17,53,541
2.38610,0.11848,-0.04428,0.00000,0.02257,0.97771,-0.17531,0.0,2023,6,8,14,17,53,552
2.38620,0.48598,-0.00928,0.00000,0.02599,0.97966,-0.17617,0.0,2023,6,8,14,17,53,563
2.38630,0.20598,0.09572,0.00000,0.02586,0.97954,-0.17751,0.0,2023,6,8,14,17,53,574
2.38640,-0.35402,0.14823,0.00000,0.02196,0.97698,-0.17568,0.0,2023,6,8,14,17,53,586
2.38650,-0.38902,-0.07927,0.00000,0.02294,0.97807,-0.17629,0.0,2023,6,8,14,17,53,597
2.38660,-0.09152,-0.06177,0.00000,0.02513,0.97746,-0.17666,0.0,2023,6,8,14,17,53,608
2.38670,0.15348,0.35823,0.00000,0.02269,0.97624,-0.17507,0.0,2023,6,8,14,17,53,619
2.38680,0.74848,-0.14928,0.00000,0.02403,0.97710,-0.17641,0.0,2023,6,8,14,17,53,630
2.38690,0.24098,0.16572,0.00000,0.02574,0.97588,-0.17873,0.0,2023,6,8,14,17,53,641
2.38700,-0.31902,-0.11428,0.00000,0.02586,0.97661,-0.17653,0.0,2023,6,8,14,17,53,652
2.38710,-0.35402,0.00822,0.00000,0.02452,0.97539,-0.17592,0.0,2023,6,8,14,17,53,663
2.38720,-0.14402,0.06072,0.00000,0.02257,0.97783,-0.17617,0.0,2023,6,8,14,17,53,674
2.38730,0.38098,0.00822,0.00000,0.02257,0.97881,-0.17690,0.0,2023,6,8,14,17,53,686
2.38740,0.32848,0.14823,0.00000,0.02294,0.97637,-0.17641,0.0,2023,6,8,14,17,53,697
2.38750,0.18848,-0.06177,0.00000,0.02306,0.97856,-0.17751,0.0,2023,6,8,14,17,53,708
2.38760,-0.05652,-0.11428,0.00000,0.02367,0.97942,-0.17544,0.0,2023,6,8,14,17,53,719
2.38770,-0.24902,-0.06177,0.00000,0.02501,0.97795,-0.17605,0.0,2023,6,8,14,17,53,730
2.38780,-0.03902,-0.23678,0.00000,0.02233,0.97661,-0.17531,0.0,2023,6,8,14,17,53,741
2.38790,0.20598,0.32322,0.00000,0.02489,0.97698,-0.17739,0.0,2023,6,8,14,17,53,752
2.38800,0.32848,-0.00928,0.00000,0.02550,0.97832,-0.17727,0.0,2023,6,8,14,17,53,763
2.38810,-0.09152,-0.06177,0.00000,0.02416,0.97710,-0.17666,0.0,2023,6,8,14,17,53,774
2.38820,-0.23152,-0.16678,0.00000,0.02440,0.97868,-0.17556,0.0,2023,6,8,14,17,53,786
2.38830,-0.19652,-0.21928,0.00000,0.02379,0.97856,-0.17495,0.0,2023,6,8,14,17,53,797
2.38840,0.18848,-0.07927,0.00000,0.02257,0.97771,-0.17446,0.0,2023,6,8,14,17,53,808
2.38850,0.34598,0.04322,0.00000,0.02550,0.97722,-0.17702,0.0,2023,6,8,14,17,53,819
2.38860,0.45098,0.00822,0.00000,0.02501,0.97771,-0.17507,0.0,2023,6,8,14,17,53,830
2.38870,-0.21402,-0.06177,0.00000,0.02525,0.97722,-0.17714,0.0,2023,6,8,14,17,53,841
2.38880,-0.35402,0.18322,0.00000,0.02599,0.97637,-0.17544,0.0,2023,6,8,14,17,53,852
2.38890,-0.12652,-0.16678,0.00000,0.02318,0.97612,-0.17592,0.0,2023,6,8,14,17,53,863
2.38900,0.04848,-0.06177,0.00000,0.02208,0.97673,-0.17531,0.0,2023,6,8,14,17,53,874
2.38910,0.22348,-0.02678,0.00000,0.02257,0.97698,-0.17531,0.0,2023,6,8,14,17,53,886
2.38920,0.18848,0.07822,0.00000,0.02318,0.97990,-0.17702,0.0,2023,6,8,14,17,53,897
2.38930,-0.07402,-0.14928,0.00000,0.02208,0.97844,-0.17751,0.0,2023,6,8,14,17,53,908
2.38940,-0.23152,0.07822,0.00000,0.02721,0.97661,-0.17519,0.0,2023,6,8,14,17,53,919
2.38950,-0.33652,0.18322,0.00000,0.02489,0.97649,-0.17397,0.0,2023,6,8,14,17,53,930
2.38960,0.38098,-0.06177,0.00000,0.02550,0.97807,-0.17592,0.0,2023,6,8,14,17,53,941
2.38970,0.22348,0.23572,0.00000,0.02330,0.97612,-0.17641,0.0,2023,6,8,14,17,53,952
2.38980,0.27598,-0.18428,0.00000,0.02342,0.97917,-0.17824,0.0,2023,6,8,14,17,53,963
2.38990,-0.24902,-0.21928,0.00000,0.02367,0.97917,-0.17641,0.0,2023,6,8,14,17,53,974
2.39000,-0.21402,0.14823,0.00000,0.02403,0.97722,-0.17519,0.0,2023,6,8,14,17,53,986
2.39010,-0.02152,-0.13178,0.00000,0.02403,0.97905,-0.17568,0.0,2023,6,8,14,17,53,997
2.39020,0.03098,0.11322,0.00000,0.02611,0.97795,-0.17556,0.0,2023,6,8,14,17,54,8
2.39030,0.32848,0.00822,0.00000,0.02428,0.97746,-0.17714,0.0,2023,6,8,14,17,54,19
2.39040,-0.02152,0.13072,0.00000,0.02660,0.97795,-0.17702,0.0,2023,6,8,14,17,54,30
2.39050,-0.12652,-0.07927,0.00000,0.02403,0.97746,-0.17775,0.0,2023,6,8,14,17,54,41
2.39060,-0.09152,0.00822,0.00000,0.02562,0.97856,-0.17849,0.0,2023,6,8,14,17,54,52
2.39070,-0.00402,0.09572,0.00000,0.02220,0.97685,-0.17592,0.0,2023,6,8,14,17,54,63
2.39080,0.06598,-0.09678,0.00000,0.02269,0.97612,-0.17556,0.0,2023,6,8,14,17,54,74
2.39090,0.34598,-0.30678,0.00000,0.02306,0.97649,-0.17690,0.0,2023,6,8,14,17,54,86
2.39100,0.11848,0.13072,0.00000,0.02355,0.97820,-0.17580,0.0,2023,6,8,14,17,54,97
2.39110,-0.10902,-0.09678,0.00000,0.02489,0.97612,-0.17812,0.0,2023,6,8,14,17,54,108
2.39120,-0.14402,-0.00928,0.00000,0.02721,0.97661,-0.17531,0.0,2023,6,8,14,17,54,119
2.39130,-0.07402,0.04322,0.00000,0.02562,0.97759,-0.17605,0.0,2023,6,8,14,17,54,130
2.39140,0.24098,0.18322,0.00000,0.02342,0.97893,-0.17836,0.0,2023,6,8,14,17,54,141
2.39150,0.22348,0.25322,0.00000,0.02342,0.97905,-0.17922,0.0,2023,6,8,14,17,54,152
2.39160,0.01348,0.16572,0.00000,0.02452,0.97795,-0.17983,0.0,2023,6,8,14,17,54,163
2.39170,-0.12652,-0.09678,0.00000,0.02660,0.97722,-0.17922,0.0,2023,6,8,14,17,54,174
2.39180,-0.40652,0.11322,0.00000,0.02550,0.97673,-0.17763,0.0,2023,6,8,14,17,54,186
2.39190,-0.00402,-0.27178,0.00000,0.02416,0.97929,-0.17751,0.0,2023,6,8,14,17,54,197
2.39200,0.29348,-0.02678,0.00000,0.02550,0.97624,-0.17556,0.0,2023,6,8,14,17,54,208
2.39210,0.32848,0.16572,0.00000,0.02477,0.97820,-0.17788,0.0,2023,6,8,14,17,54,219
2.39220,0.13598,0.00822,0.00000,0.02464,0.97698,-0.17629,0.0,2023,6,8,14,17,54,230
2.39230,-0.10902,-0.14928,0.00000,0.02452,0.97966,-0.17653,0.0,2023,6,8,14,17,54,241
2.39240,-0.24902,-0.09678,0.00000,0.02403,0.97929,-0.17568,0.0,2023,6,8,14,17,54,252
2.39250,-0.07402,-0.11428,0.00000,0.02416,0.97771,-0.17714,0.0,2023,6,8,14,17,54,263
2.39260,0.24098,-0.11428,0.00000,0.02172,0.97722,-0.17897,0.0,2023,6,8,14,17,54,274
2.39270,0.27598,-0.04428,0.00000,0.02452,0.97624,-0.17714,0.0,2023,6,8,14,17,54,286
2.39280,-0.03902,0.04322,0.00000,0.02562,0.97734,-0.17666,0.0,2023,6,8,14,17,54,297
2.39290,-0.28402,0.00822,0.00000,0.02489,0.97771,-0.17714,0.0,2023,6,8,14,17,54,308
2.39300,0.20598,-0.00928,0.00000,0.02416,0.97685,-0.17788,0.0,2023,6,8,14,17,54,319
2.39310,0.36348,-0.02678,0.00000,0.02428,0.97917,-0.17897,0.0,2023,6,8,14,17,54,330
2.39320,0.25848,0.11322,0.00000,0.02477,0.97637,-0.17971,0.0,2023,6,8,14,17,54,341
2.39330,-0.02152,-0.07927,0.00000,0.02501,0.97722,-0.17885,0.0,2023,6,8,14,17,54,352
2.39340,-0.35402,0.25322,0.00000,0.02635,0.97942,-0.17922,0.0,2023,6,8,14,17,54,363
2.39350,-0.42402,-0.09678,0.00000,0.02208,0.97990,-0.17690,0.0,2023,6,8,14,17,54,374
2.39360,0.04848,0.16572,0.00000,0.02696,0.97661,-0.17727,0.0,2023,6,8,14,17,54,386
2.39370,0.38098,-0.07927,0.00000,0.02538,0.97783,-0.17617,0.0,2023,6,8,14,17,54,397
2.39380,0.52098,0.04322,0.00000,0.02647,0.97734,-0.17800,0.0,2023,6,8,14,17,54,408
2.39390,-0.14402,-0.00928,0.00000,0.02452,0.97515,-0.18056,0.0,2023,6,8,14,17,54,419
2.39400,-0.49402,-0.16678,0.00000,0.02416,0.97710,-0.17763,0.0,2023,6,8,14,17,54,430
2.39410,-0.84402,0.14823,0.00000,0.02342,0.97856,-0.17702,0.0,2023,6,8,14,17,54,441
2.39420,0.13598,0.00822,0.00000,0.02477,0.97917,-0.17434,0.0,2023,6,8,14,17,54,452
2.39430,0.71348,-0.07927,0.00000,0.02367,0.97868,-0.17690,0.0,2023,6,8,14,17,54,463
2.39440,0.52098,0.00822,0.00000,0.02306,0.97722,-0.17605,0.0,2023,6,8,14,17,54,474
2.39450,-0.24902,0.06072,0.00000,0.02611,0.97795,-0.17666,0.0,2023,6,8,14,17,54,486
2.39460,-0.47652,-0.09678,0.00000,0.02452,0.97881,-0.17812,0.0,2023,6,8,14,17,54,497
2.39470,-0.16152,-0.00928,0.00000,0.02220,0.97661,-0.17690,0.0,2023,6,8,14,17,54,508
2.39480,0.25848,-0.04428,0.00000,0.02416,0.97722,-0.17666,0.0,2023,6,8,14,17,54,519
2.39490,0.46848,0.11322,0.00000,0.02220,0.97673,-0.17824,0.0,2023,6,8,14,17,54,530
2.39500,0.06598,-0.09678,0.00000,0.02159,0.97698,-0.18068,0.0,2023,6,8,14,17,54,541
2.39510,-0.23152,0.11322,0.00000,0.02318,0.97795,-0.17836,0.0,2023,6,8,14,17,54,552
2.39520,-0.45902,-0.04428,0.00000,0.02086,0.98027,-0.17910,0.0,2023,6,8,14,17,54,563
2.39530,-0.10902,0.06072,0.00000,0.02403,0.97820,-0.17812,0.0,2023,6,8,14,17,54,574
2.39540,0.27598,0.14823,0.00000,0.02464,0.97771,-0.18044,0.0,2023,6,8,14,17,54,586
2.39550,0.32848,-0.04428,0.00000,0.02647,0.97527,-0.17910,0.0,2023,6,8,14,17,54,597
2.39560,-0.17902,0.00822,0.00000,0.02513,0.97637,-0.17800,0.0,2023,6,8,14,17,54,608
2.39570,-0.44152,0.04322,0.00000,0.02440,0.97576,-0.17861,0.0,2023,6,8,14,17,54,619
2.39580,-0.26652,0.02572,0.00000,0.02452,0.97807,-0.17775,0.0,2023,6,8,14,17,54,630
2.39590,0.22348,-0.04428,0.00000,0.02220,0.97710,-0.17592,0.0,2023,6,8,14,17,54,641
2.39600,0.55598,-0.13178,0.00000,0.02464,0.97710,-0.17885,0.0,2023,6,8,14,17,54,652
2.39610,0.25848,-0.14928,0.00000,0.02245,0.97942,-0.17910,0.0,2023,6,8,14,17,54,663
2.39620,-0.02152,0.04322,0.00000,0.02355,0.97527,-0.17946,0.0,2023,6,8,14,17,54,674
2.39630,-0.16152,-0.04428,0.00000,0.02391,0.97551,-0.17934,0.0,2023,6,8,14,17,54,686
2.39640,-0.02152,-0.00928,0.00000,0.02623,0.97954,-0.17629,0.0,2023,6,8,14,17,54,697
2.39650,0.24098,0.00822,0.00000,0.02391,0.98051,-0.17775,0.0,2023,6,8,14,17,54,708
2.39660,0.36348,-0.00928,0.00000,0.02464,0.97868,-0.17861,0.0,2023,6,8,14,17,54,719
2.39670,-0.07402,-0.00928,0.00000,0.02464,0.97661,-0.17836,0.0,2023,6,8,14,17,54,730
2.39680,-0.17902,-0.00928,0.00000,0.02599,0.97612,-0.17775,0.0,2023,6,8,14,17,54,741
2.39690,-0.28402,-0.02678,0.00000,0.02513,0.97673,-0.17763,0.0,2023,6,8,14,17,54,752
2.39700,0.46848,-0.16678,0.00000,0.02172,0.97820,-0.17800,0.0,2023,6,8,14,17,54,763
2.39710,0.45098,-0.04428,0.00000,0.02525,0.97722,-0.18019,0.0,2023,6,8,14,17,54,774
2.39720,0.36348,0.23572,0.00000,0.02367,0.97795,-0.17873,0.0,2023,6,8,14,17,54,786
2.39730,-0.12652,-0.21928,0.00000,0.02416,0.97795,-0.17727,0.0,2023,6,8,14,17,54,797
2.39740,-0.47652,0.13072,0.00000,0.02318,0.97722,-0.17714,0.0,2023,6,8,14,17,54,808
2.39750,-0.33652,-0.00928,0.00000,0.02452,0.97746,-0.17824,0.0,2023,6,8,14,17,54,819
2.39760,0.13598,-0.11428,0.00000,0.02550,0.97661,-0.17946,0.0,2023,6,8,14,17,54,830
2.39770,0.41598,0.07822,0.00000,0.02538,0.97710,-0.17946,0.0,2023,6,8,14,17,54,841
2.39780,0.36348,-0.04428,0.00000,0.02416,0.97820,-0.18007,0.0,2023,6,8,14,17,54,852
2.39790,-0.19652,-0.06177,0.00000,0.02525,0.97673,-0.17885,0.0,2023,6,8,14,17,54,863
2.39800,-0.51152,0.02572,0.00000,0.02513,0.97832,-0.17763,0.0,2023,6,8,14,17,54,874
2.39810,-0.14402,0.02572,0.00000,0.02318,0.97490,-0.17605,0.0,2023,6,8,14,17,54,886
2.39820,0.11848,0.18322,0.00000,0.02464,0.98039,-0.17336,0.0,2023,6,8,14,17,54,897
2.39830,0.45098,-0.02678,0.00000,0.02294,0.97783,-0.17995,0.0,2023,6,8,14,17,54,908
2.39840,0.13598,0.07822,0.00000,0.02452,0.97942,-0.17995,0.0,2023,6,8,14,17,54,919
2.39850,-0.42402,-0.18428,0.00000,0.02489,0.97539,-0.17910,0.0,2023,6,8,14,17,54,930
2.39860,-0.44152,0.06072,0.00000,0.02452,0.97783,-0.17751,0.0,2023,6,8,14,17,54,941
2.39870,0.03098,-0.14928,0.00000,0.02489,0.97588,-0.17751,0.0,2023,6,8,14,17,54,952
2.39880,0.39848,-0.04428,0.00000,0.02525,0.97832,-0.17702,0.0,2023,6,8,14,17,54,963
2.39890,0.13598,0.09572,0.00000,0.02306,0.97978,-0.18007,0.0,2023,6,8,14,17,54,974
2.39900,0.08348,0.23572,0.00000,0.02342,0.97637,-0.18032,0.0,2023,6,8,14,17,54,986
2.39910,-0.19652,-0.04428,0.00000,0.02428,0.98173,-0.17885,0.0,2023,6,8,14,17,54,997
2.39920,-0.51152,-0.04428,0.00000,0.02355,0.97844,-0.17507,0.0,2023,6,8,14,17,54,8
2.39930,-0.23152,-0.09678,0.00000,0.02233,0.97905,-0.17592,0.0,2023,6,8,14,17,55,9
2.39940,0.27598,0.20072,0.00000,0.02281,0.97881,-0.17690,0.0,2023,6,8,14,17,55,20
2.39950,0.43348,0.25322,0.00000,0.02355,0.97710,-0.17836,0.0,2023,6,8,14,17,55,31
2.39960,0.15348,-0.07927,0.00000,0.02489,0.97783,-0.17824,0.0,2023,6,8,14,17,55,42
2.39970,-0.51152,-0.04428,0.00000,0.02440,0.97734,-0.17727,0.0,2023,6,8,14,17,55,53
2.39980,-0.17902,0.04322,0.00000,0.02477,0.97807,-0.17702,0.0,2023,6,8,14,17,55,64
2.39990,0.27598,-0.04428,0.00000,0.02477,0.97844,-0.17544,0.0,2023,6,8,14,17,55,76
2.40000,0.41598,-0.00928,0.00000,0.02428,0.97783,-0.17958,0.0,2023,6,8,14,17,55,87
2.40010,0.38098,-0.06177,0.00000,0.02489,0.97685,-0.18093,0.0,2023,6,8,14,17,55,98
2.40020,-0.16152,0.02572,0.00000,0.02391,0.97783,-0.17641,0.0,2023,6,8,14,17,55,109
2.40030,-0.24902,0.04322,0.00000,0.02294,0.97734,-0.17690,0.0,2023,6,8,14,17,55,120
2.40040,-0.07402,0.02572,0.00000,0.02318,0.97478,-0.17580,0.0,2023,6,8,14,17,55,131
2.40050,0.32848,0.02572,0.00000,0.02330,0.97954,-0.17800,0.0,2023,6,8,14,17,55,142
2.40060,0.13598,-0.00928,0.00000,0.02184,0.97795,-0.17714,0.0,2023,6,8,14,17,55,153
2.40070,-0.26652,0.11322,0.00000,0.02428,0.97710,-0.17507,0.0,2023,6,8,14,17,55,164
2.40080,-0.23152,-0.18428,0.00000,0.02416,0.97600,-0.17605,0.0,2023,6,8,14,17,55,176
2.40090,0.17098,-0.16678,0.00000,0.02306,0.97722,-0.17483,0.0,2023,6,8,14,17,55,187
2.40100,0.41598,0.14823,0.00000,0.02403,0.97844,-0.17617,0.0,2023,6,8,14,17,55,198
2.40110,0.20598,0.11322,0.00000,0.02464,0.97844,-0.17422,0.0,2023,6,8,14,17,55,209
2.40120,0.06598,-0.14928,0.00000,0.02477,0.97722,-0.17690,0.0,2023,6,8,14,17,55,220
2.40130,-0.31902,0.16572,0.00000,0.02330,0.97576,-0.17714,0.0,2023,6,8,14,17,55,231
2.40140,-0.33652,-0.16678,0.00000,0.02428,0.97759,-0.17690,0.0,2023,6,8,14,17,55,242
2.40150,0.15348,-0.14928,0.00000,0.02355,0.97820,-0.17568,0.0,2023,6,8,14,17,55,253
2.40160,0.29348,0.13072,0.00000,0.02452,0.97734,-0.17653,0.0,2023,6,8,14,17,55,264
2.40170,0.17098,0.09572,0.00000,0.02611,0.97942,-0.17544,0.0,2023,6,8,14,17,55,276
2.40180,0.04848,-0.06177,0.00000,0.02440,0.97795,-0.17470,0.0,2023,6,8,14,17,55,287
2.40190,0.01348,-0.16678,0.00000,0.02489,0.97649,-0.17690,0.0,2023,6,8,14,17,55,298
2.40200,-0.09152,0.06072,0.00000,0.02184,0.97966,-0.17605,0.0,2023,6,8,14,17,55,309
2.40210,-0.19652,0.13072,0.00000,0.02574,0.97844,-0.17409,0.0,2023,6,8,14,17,55,320
2.40220,0.03098,0.21822,0.00000,0.02379,0.97722,-0.17605,0.0,2023,6,8,14,17,55,331
2.40230,0.15348,-0.13178,0.00000,0.02428,0.97624,-0.17544,0.0,2023,6,8,14,17,55,342
2.40240,-0.03902,-0.07927,0.00000,0.02416,0.97954,-0.17568,0.0,2023,6,8,14,17,55,353
2.40250,-0.16152,0.09572,0.00000,0.02550,0.97698,-0.17629,0.0,2023,6,8,14,17,55,364
2.40260,0.08348,-0.02678,0.00000,0.02440,0.97746,-0.17580,0.0,2023,6,8,14,17,55,376
2.40270,-0.00402,0.02572,0.00000,0.02562,0.97722,-0.17629,0.0,2023,6,8,14,17,55,387
2.40280,-0.21402,0.13072,0.00000,0.02477,0.97990,-0.17519,0.0,2023,6,8,14,17,55,398
2.40290,-0.05652,-0.00928,0.00000,0.02428,0.97795,-0.17568,0.0,2023,6,8,14,17,55,409
2.40300,0.20598,-0.02678,0.00000,0.02489,0.97783,-0.17544,0.0,2023,6,8,14,17,55,420
2.40310,0.31098,-0.11428,0.00000,0.02525,0.97795,-0.17666,0.0,2023,6,8,14,17,55,431
2.40320,0.29348,-0.06177,0.00000,0.02318,0.97820,-0.17666,0.0,2023,6,8,14,17,55,442
2.40330,-0.31902,-0.04428,0.00000,0.02355,0.97746,-0.17568,0.0,2023,6,8,14,17,55,453
2.40340,-0.28402,-0.04428,0.00000,0.02306,0.97746,-0.17812,0.0,2023,6,8,14,17,55,464
2.40350,-0.02152,-0.06177,0.00000,0.02452,0.97588,-0.17666,0.0,2023,6,8,14,17,55,476
2.40360,0.34598,-0.04428,0.00000,0.02330,0.97746,-0.17727,0.0,2023,6,8,14,17,55,487
2.40370,0.17098,0.04322,0.00000,0.02379,0.97771,-0.17605,0.0,2023,6,8,14,17,55,498
2.40380,0.18848,-0.20178,0.00000,0.02562,0.97685,-0.17702,0.0,2023,6,8,14,17,55,509
2.40390,-0.23152,0.04322,0.00000,0.02513,0.98003,-0.17958,0.0,2023,6,8,14,17,55,520
2.40400,-0.26652,-0.14928,0.00000,0.02355,0.97722,-0.17788,0.0,2023,6,8,14,17,55,531
2.40410,-0.19652,-0.21928,0.00000,0.02477,0.97441,-0.17617,0.0,2023,6,8,14,17,55,542
2.40420,0.20598,0.30572,0.00000,0.02391,0.97685,-0.17422,0.0,2023,6,8,14,17,55,553
2.40430,0.50348,-0.09678,0.00000,0.02416,0.97795,-0.17519,0.0,2023,6,8,14,17,55,564
2.40440,0.24098,0.00822,0.00000,0.02306,0.97576,-0.17763,0.0,2023,6,8,14,17,55,576
2.40450,-0.23152,-0.06177,0.00000,0.02562,0.97856,-0.17946,0.0,2023,6,8,14,17,55,587
2.40460,-0.40652,0.13072,0.00000,0.02525,0.97576,-0.17666,0.0,2023,6,8,14,17,55,598
2.40470,0.04848,0.04322,0.00000,0.02318,0.97746,-0.17483,0.0,2023,6,8,14,17,55,609
2.40480,0.38098,0.14823,0.00000,0.02330,0.97746,-0.17666,0.0,2023,6,8,14,17,55,620
2.40490,0.18848,-0.18428,0.00000,0.02550,0.97771,-0.17775,0.0,2023,6,8,14,17,55,631
2.40500,0.10098,0.16572,0.00000,0.02294,0.97746,-0.17958,0.0,2023,6,8,14,17,55,642
2.40510,-0.24902,0.02572,0.00000,0.02233,0.97637,-0.17568,0.0,2023,6,8,14,17,55,653
2.40520,-0.26652,0.00822,0.00000,0.02525,0.97661,-0.17483,0.0,2023,6,8,14,17,55,664
2.40530,-0.09152,-0.13178,0.00000,0.02269,0.97868,-0.17592,0.0,2023,6,8,14,17,55,676
2.40540,0.39848,-0.09678,0.00000,0.02525,0.97746,-0.17458,0.0,2023,6,8,14,17,55,687
2.40550,0.55598,0.04322,0.00000,0.02379,0.97588,-0.17641,0.0,2023,6,8,14,17,55,698
2.40560,0.29348,-0.02678,0.00000,0.02611,0.97917,-0.17934,0.0,2023,6,8,14,17,55,709
2.40570,-0.31902,-0.14928,0.00000,0.02416,0.97759,-0.17507,0.0,2023,6,8,14,17,55,720
2.40580,-0.52902,0.11322,0.00000,0.02501,0.97722,-0.17470,0.0,2023,6,8,14,17,55,731
2.40590,0.08348,-0.09678,0.00000,0.02074,0.97978,-0.17446,0.0,2023,6,8,14,17,55,742
2.40600,0.25848,0.06072,0.00000,0.02660,0.97624,-0.17678,0.0,2023,6,8,14,17,55,753
2.40610,0.45098,0.14823,0.00000,0.02318,0.97917,-0.17739,0.0,2023,6,8,14,17,55,764
2.40620,-0.02152,-0.09678,0.00000,0.02440,0.97844,-0.17751,0.0,2023,6,8,14,17,55,776
2.40630,-0.42402,0.02572,0.00000,0.02623,0.97820,-0.17544,0.0,2023,6,8,14,17,55,787
2.40640,-0.16152,-0.00928,0.00000,0.02367,0.97783,-0.17495,0.0,2023,6,8,14,17,55,798
2.40650,0.10098,-0.04428,0.00000,0.02647,0.97893,-0.17641,0.0,2023,6,8,14,17,55,809
2.40660,0.17098,-0.06177,0.00000,0.02416,0.97868,-0.17727,0.0,2023,6,8,14,17,55,820
2.40670,-0.03902,-0.04428,0.00000,0.02208,0.97710,-0.17678,0.0,2023,6,8,14,17,55,831
2.40680,0.01348,0.09572,0.00000,0.02416,0.97588,-0.17873,0.0,2023,6,8,14,17,55,842
2.40690,-0.33652,-0.21928,0.00000,0.02428,0.97527,-0.17861,0.0,2023,6,8,14,17,55,853
2.40700,-0.12652,-0.02678,0.00000,0.02379,0.97868,-0.17531,0.0,2023,6,8,14,17,55,864
2.40710,-0.03902,0.00822,0.00000,0.02452,0.97673,-0.17507,0.0,2023,6,8,14,17,55,876
2.40720,0.48598,0.18322,0.00000,0.02513,0.97600,-0.17580,0.0,2023,6,8,14,17,55,887
2.40730,0.39848,-0.02678,0.00000,0.02440,0.97698,-0.17775,0.0,2023,6,8,14,17,55,898
2.40740,-0.12652,-0.37678,0.00000,0.02660,0.97795,-0.17641,0.0,2023,6,8,14,17,55,909
2.40750,-0.58152,0.14823,0.00000,0.02318,0.97832,-0.17544,0.0,2023,6,8,14,17,55,920
2.40760,-0.33652,-0.02678,0.00000,0.02233,0.97710,-0.17519,0.0,2023,6,8,14,17,55,931
2.40770,0.38098,-0.02678,0.00000,0.02574,0.97661,-0.17592,0.0,2023,6,8,14,17,55,942
2.40780,0.71348,-0.07927,0.00000,0.02452,0.97710,-0.17605,0.0,2023,6,8,14,17,55,953
2.40790,0.46848,-0.07927,0.00000,0.02525,0.97929,-0.17763,0.0,2023,6,8,14,17,55,964
2.40800,-0.16152,0.25322,0.00000,0.02355,0.97820,-0.17812,0.0,2023,6,8,14,17,55,976
2.40810,-0.31902,-0.11428,0.00000,0.02477,0.97624,-0.17470,0.0,2023,6,8,14,17,55,987
2.40820,-0.63402,-0.02678,0.00000,0.02379,0.97734,-0.17446,0.0,2023,6,8,14,17,55,998
2.40830,0.20598,0.06072,0.00000,0.02342,0.97612,-0.17348,0.0,2023,6,8,14,17,56,9
2.40840,0.48598,-0.02678,0.00000,0.02257,0.97539,-0.17495,0.0,2023,6,8,14,17,56,20
2.40850,0.48598,-0.07927,0.00000,0.02611,0.97746,-0.17592,0.0,2023,6,8,14,17,56,31
2.40860,-0.17902,0.00822,0.00000,0.02306,0.97673,-0.17849,0.0,2023,6,8,14,17,56,42
2.40870,-0.38902,0.06072,0.00000,0.02403,0.97759,-0.17690,0.0,2023,6,8,14,17,56,53
2.40880,-0.35402,-0.00928,0.00000,0.02525,0.97807,-0.17666,0.0,2023,6,8,14,17,56,64
2.40890,0.10098,0.04322,0.00000,0.02428,0.97527,-0.17470,0.0,2023,6,8,14,17,56,76
2.40900,0.24098,0.00822,0.00000,0.02574,0.97661,-0.17751,0.0,2023,6,8,14,17,56,87
2.40910,0.20598,0.04322,0.00000,0.02355,0.97942,-0.17836,0.0,2023,6,8,14,17,56,98
2.40920,-0.21402,-0.06177,0.00000,0.02281,0.97844,-0.17666,0.0,2023,6,8,14,17,56,109
2.40930,-0.35402,0.13072,0.00000,0.02208,0.97588,-0.17666,0.0,2023,6,8,14,17,56,120
2.40940,-0.05652,0.16572,0.00000,0.02477,0.97856,-0.17483,0.0,2023,6,8,14,17,56,131
2.40950,0.06598,0.06072,0.00000,0.02269,0.97661,-0.17775,0.0,2023,6,8,14,17,56,142
2.40960,-0.10902,0.23572,0.00000,0.02525,0.97698,-0.17788,0.0,2023,6,8,14,17,56,153
2.40970,0.01348,-0.06177,0.00000,0.02525,0.97698,-0.17605,0.0,2023,6,8,14,17,56,164
2.40980,-0.05652,-0.06177,0.00000,0.02440,0.97856,-0.17763,0.0,2023,6,8,14,17,56,176
2.40990,0.13598,-0.02678,0.00000,0.02611,0.97893,-0.17446,0.0,2023,6,8,14,17,56,187
2.41000,0.08348,0.02572,0.00000,0.02306,0.97990,-0.17434,0.0,2023,6,8,14,17,56,198
2.41010,0.06598,-0.02678,0.00000,0.02379,0.97820,-0.17885,0.0,2023,6,8,14,17,56,209
2.41020,-0.09152,-0.04428,0.00000,0.02538,0.97929,-0.17702,0.0,2023,6,8,14,17,56,220
2.41030,-0.17902,0.07822,0.00000,0.02379,0.97685,-0.17678,0.0,2023,6,8,14,17,56,231
2.41040,0.27598,-0.13178,0.00000,0.02428,0.97942,-0.17580,0.0,2023,6,8,14,17,56,242
2.41050,0.27598,0.04322,0.00000,0.02501,0.97539,-0.17861,0.0,2023,6,8,14,17,56,253
2.41060,0.01348,0.06072,0.00000,0.02525,0.97698,-0.17641,0.0,2023,6,8,14,17,56,264
2.41070,-0.19652,0.06072,0.00000,0.02184,0.97820,-0.17568,0.0,2023,6,8,14,17,56,276
2.41080,-0.03902,-0.16678,0.00000,0.02318,0.97698,-0.17446,0.0,2023,6,8,14,17,56,287
2.41090,0.22348,0.09572,0.00000,0.02330,0.97820,-0.17714,0.0,2023,6,8,14,17,56,298
2.41100,0.29348,0.14823,0.00000,0.02416,0.97600,-0.17653,0.0,2023,6,8,14,17,56,309
2.41110,0.03098,-0.00928,0.00000,0.02464,0.97673,-0.17800,0.0,2023,6,8,14,17,56,320
2.41120,-0.16152,0.07822,0.00000,0.02574,0.97710,-0.17653,0.0,2023,6,8,14,17,56,331
2.41130,-0.21402,-0.00928,0.00000,0.02611,0.97868,-0.17605,0.0,2023,6,8,14,17,56,342
2.41140,-0.19652,-0.06177,0.00000,0.02440,0.97868,-0.17312,0.0,2023,6,8,14,17,56,353
2.41150,0.04848,0.27072,0.00000,0.02660,0.97661,-0.17605,0.0,2023,6,8,14,17,56,364
2.41160,0.39848,-0.27178,0.00000,0.02513,0.97795,-0.17800,0.0,2023,6,8,14,17,56,376
2.41170,0.20598,-0.04428,0.00000,0.02123,0.97856,-0.17702,0.0,2023,6,8,14,17,56,387
2.41180,-0.37152,0.06072,0.00000,0.02647,0.97759,-0.17678,0.0,2023,6,8,14,17,56,398
2.41190,-0.35402,0.00822,0.00000,0.02342,0.97685,-0.17544,0.0,2023,6,8,14,17,56,409
2.41200,0.03098,0.04322,0.00000,0.02330,0.97856,-0.17592,0.0,2023,6,8,14,17,56,420
2.41210,0.60848,0.13072,0.00000,0.02391,0.98003,-0.17739,0.0,2023,6,8,14,17,56,431
2.41220,0.31098,-0.07927,0.00000,0.02269,0.97722,-0.17751,0.0,2023,6,8,14,17,56,442
2.41230,-0.19652,-0.16678,0.00000,0.02513,0.97820,-0.17653,0.0,2023,6,8,14,17,56,453
2.41240,-0.24902,-0.11428,0.00000,0.02355,0.97673,-0.17824,0.0,2023,6,8,14,17,56,464
2.41250,-0.16152,-0.02678,0.00000,0.02391,0.97563,-0.17348,0.0,2023,6,8,14,17,56,476
2.41260,0.15348,0.07822,0.00000,0.02416,0.97868,-0.17568,0.0,2023,6,8,14,17,56,487
2.41270,0.34598,0.07822,0.00000,0.02416,0.97881,-0.17617,0.0,2023,6,8,14,17,56,498
2.41280,0.10098,0.42822,0.00000,0.02257,0.97673,-0.17775,0.0,2023,6,8,14,17,56,509
2.41290,-0.14402,0.14823,0.00000,0.02306,0.97771,-0.17690,0.0,2023,6,8,14,17,56,520
2.41300,-0.24902,-0.07927,0.00000,0.02025,0.97698,-0.17592,0.0,2023,6,8,14,17,56,531
2.41310,-0.26652,0.16572,0.00000,0.02477,0.97685,-0.17605,0.0,2023,6,8,14,17,56,542
2.41320,-0.09152,-0.06177,0.00000,0.02550,0.97624,-0.17470,0.0,2023,6,8,14,17,56,553
2.41330,0.32848,0.11322,0.00000,0.02342,0.97722,-0.17531,0.0,2023,6,8,14,17,56,564
2.41340,0.31098,-0.04428,0.00000,0.02574,0.97673,-0.17580,0.0,2023,6,8,14,17,56,576
2.41350,0.01348,-0.00928,0.00000,0.02562,0.97807,-0.17678,0.0,2023,6,8,14,17,56,587
2.41360,-0.17902,0.00822,0.00000,0.02428,0.97795,-0.17897,0.0,2023,6,8,14,17,56,598
2.41370,-0.35402,-0.14928,0.00000,0.02391,0.97807,-0.17812,0.0,2023,6,8,14,17,56,609
2.41380,0.11848,-0.39428,0.00000,0.02233,0.97746,-0.17495,0.0,2023,6,8,14,17,56,620
2.41390,0.31098,-0.07927,0.00000,0.02257,0.97710,-0.17727,0.0,2023,6,8,14,17,56,631
2.41400,0.25848,0.14823,0.00000,0.02245,0.97881,-0.17605,0.0,2023,6,8,14,17,56,642
2.41410,0.10098,0.06072,0.00000,0.02220,0.97917,-0.17702,0.0,2023,6,8,14,17,56,653
2.41420,-0.40652,0.11322,0.00000,0.02599,0.97673,-0.17519,0.0,2023,6,8,14,17,56,664
2.41430,-0.51152,0.09572,0.00000,0.02623,0.97844,-0.17483,0.0,2023,6,8,14,17,56,676
2.41440,-0.09152,0.16572,0.00000,0.02489,0.97966,-0.17507,0.0,2023,6,8,14,17,56,687
2.41450,0.50348,-0.18428,0.00000,0.02538,0.97917,-0.17483,0.0,2023,6,8,14,17,56,698
2.41460,0.59098,-0.09678,0.00000,0.02330,0.97527,-0.17763,0.0,2023,6,8,14,17,56,709
2.41470,0.11848,-0.18428,0.00000,0.02574,0.97771,-0.17495,0.0,2023,6,8,14,17,56,720
2.41480,-0.35402,-0.09678,0.00000,0.02294,0.97832,-0.17458,0.0,2023,6,8,14,17,56,731
2.41490,-0.52902,0.13072,0.00000,0.02379,0.97820,-0.17251,0.0,2023,6,8,14,17,56,742
2.41500,-0.00402,-0.06177,0.00000,0.02245,0.97759,-0.17300,0.0,2023,6,8,14,17,56,753
2.41510,0.53848,0.06072,0.00000,0.02464,0.97990,-0.17617,0.0,2023,6,8,14,17,56,764
2.41520,0.22348,0.00822,0.00000,0.02489,0.97771,-0.17690,0.0,2023,6,8,14,17,56,776
2.41530,-0.02152,-0.02678,0.00000,0.02489,0.97954,-0.17666,0.0,2023,6,8,14,17,56,787
2.41540,-0.35402,0.04322,0.00000,0.02428,0.97759,-0.17714,0.0,2023,6,8,14,17,56,798
2.41550,-0.14402,0.02572,0.00000,0.02123,0.97881,-0.17495,0.0,2023,6,8,14,17,56,809
2.41560,0.20598,0.02572,0.00000,0.02464,0.97844,-0.17531,0.0,2023,6,8,14,17,56,820
2.41570,0.27598,-0.00928,0.00000,0.02452,0.97624,-0.17739,0.0,2023,6,8,14,17,56,831
2.41580,0.13598,-0.06177,0.00000,0.02379,0.97539,-0.17629,0.0,2023,6,8,14,17,56,842
2.41590,-0.38902,0.00822,0.00000,0.02281,0.97905,-0.17556,0.0,2023,6,8,14,17,56,853
2.41600,-0.44152,0.02572,0.00000,0.02440,0.97685,-0.17556,0.0,2023,6,8,14,17,56,864
2.41610,-0.21402,0.14823,0.00000,0.02501,0.97844,-0.17629,0.0,2023,6,8,14,17,56,876
2.41620,0.17098,0.04322,0.00000,0.02562,0.97698,-0.17751,0.0,2023,6,8,14,17,56,887
2.41630,0.46848,-0.07927,0.00000,0.02477,0.97905,-0.17678,0.0,2023,6,8,14,17,56,898
2.41640,0.15348,-0.07927,0.00000,0.02391,0.97746,-0.17702,0.0,2023,6,8,14,17,56,909
2.41650,-0.35402,0.14823,0.00000,0.02416,0.97942,-0.17727,0.0,2023,6,8,14,17,56,920
2.41660,-0.49402,0.04322,0.00000,0.02416,0.97783,-0.17556,0.0,2023,6,8,14,17,56,931
2.41670,0.03098,0.02572,0.00000,0.02306,0.97722,-0.17556,0.0,2023,6,8,14,17,56,942
2.41680,0.11848,-0.11428,0.00000,0.02525,0.97710,-0.17751,0.0,2023,6,8,14,17,56,953
2.41690,0.20598,0.06072,0.00000,0.02403,0.97917,-0.17361,0.0,2023,6,8,14,17,56,964
2.41700,0.13598,-0.06177,0.00000,0.02416,0.97966,-0.17641,0.0,2023,6,8,14,17,56,976
2.41710,-0.03902,-0.14928,0.00000,0.02464,0.97612,-0.17617,0.0,2023,6,8,14,17,56,987
2.41720,-0.10902,0.11322,0.00000,0.02513,0.97673,-0.17544,0.0,2023,6,8,14,17,56,998
2.41730,0.03098,-0.13178,0.00000,0.02403,0.97844,-0.17458,0.0,2023,6,8,14,17,56,9
2.41740,0.11848,0.09572,0.00000,0.02562,0.97990,-0.17495,0.0,2023,6,8,14,17,57,0
2.41750,0.32848,0.02572,0.00000,0.02367,0.97771,-0.17641,0.0,2023,6,8,14,17,57,11
2.41760,0.04848,-0.04428,0.00000,0.02586,0.97746,-0.17690,0.0,2023,6,8,14,17,57,22
2.41770,0.04848,-0.21928,0.00000,0.02294,0.97722,-0.17714,0.0,2023,6,8,14,17,57,33
2.41780,-0.24902,0.18322,0.00000,0.02477,0.97820,-0.17666,0.0,2023,6,8,14,17,57,44
2.41790,0.01348,0.23572,0.00000,0.02489,0.97612,-0.17690,0.0,2023,6,8,14,17,57,56
2.41800,0.13598,-0.30678,0.00000,0.02342,0.97612,-0.17348,0.0,2023,6,8,14,17,57,67
2.41810,0.24098,0.00822,0.00000,0.02525,0.98015,-0.17617,0.0,2023,6,8,14,17,57,78
2.41820,-0.02152,-0.04428,0.00000,0.02330,0.97710,-0.17653,0.0,2023,6,8,14,17,57,89
2.41830,-0.02152,0.13072,0.00000,0.02452,0.97710,-0.17519,0.0,2023,6,8,14,17,57,100
2.41840,-0.16152,0.02572,0.00000,0.02525,0.97722,-0.17580,0.0,2023,6,8,14,17,57,111
2.41850,0.01348,0.04322,0.00000,0.02281,0.98125,-0.17507,0.0,2023,6,8,14,17,57,122
2.41860,0.06598,-0.06177,0.00000,0.02172,0.97673,-0.17629,0.0,2023,6,8,14,17,57,133
2.41870,0.08348,0.04322,0.00000,0.02294,0.97759,-0.17751,0.0,2023,6,8,14,17,57,144
2.41880,-0.10902,-0.02678,0.00000,0.02330,0.97893,-0.17519,0.0,2023,6,8,14,17,57,156
2.41890,-0.35402,0.04322,0.00000,0.02464,0.97795,-0.17666,0.0,2023,6,8,14,17,57,167
2.41900,0.03098,-0.02678,0.00000,0.02513,0.97746,-0.17239,0.0,2023,6,8,14,17,57,178
2.41910,0.10098,-0.02678,0.00000,0.02477,0.97795,-0.17422,0.0,2023,6,8,14,17,57,189
2.41920,0.39848,-0.13178,0.00000,0.02525,0.97759,-0.17861,0.0,2023,6,8,14,17,57,200
2.41930,0.04848,-0.06177,0.00000,0.02416,0.97698,-0.17507,0.0,2023,6,8,14,17,57,211
2.41940,-0.19652,0.14823,0.00000,0.02306,0.97929,-0.17544,0.0,2023,6,8,14,17,57,222
2.41950,0.03098,-0.20178,0.00000,0.02245,0.97905,-0.17592,0.0,2023,6,8,14,17,57,233
2.41960,0.01348,-0.07927,0.00000,0.02355,0.97612,-0.17617,0.0,2023,6,8,14,17,57,244
2.41970,0.36348,-0.06177,0.00000,0.02428,0.97661,-0.17422,0.0,2023,6,8,14,17,57,256
2.41980,0.34598,0.13072,0.00000,0.02318,0.97795,-0.17653,0.0,2023,6,8,14,17,57,267
2.41990,-0.14402,0.02572,0.00000,0.02355,0.97795,-0.17531,0.0,2023,6,8,14,17,57,278
2.42000,-0.24902,-0.04428,0.00000,0.02477,0.97746,-0.17568,0.0,2023,6,8,14,17,57,289
2.42010,-0.02152,-0.00928,0.00000,0.02416,0.97722,-0.17641,0.0,2023,6,8,14,17,57,300
2.42020,0.04848,0.07822,0.00000,0.02501,0.97820,-0.17592,0.0,2023,6,8,14,17,57,311
2.42030,0.31098,0.00822,0.00000,0.02184,0.97502,-0.17702,0.0,2023,6,8,14,17,57,322
2.42040,0.11848,0.07822,0.00000,0.02440,0.97771,-0.17653,0.0,2023,6,8,14,17,57,333
2.42050,-0.16152,-0.04428,0.00000,0.02233,0.97832,-0.17653,0.0,2023,6,8,14,17,57,344
2.42060,-0.45902,0.07822,0.00000,0.02403,0.97807,-0.17592,0.0,2023,6,8,14,17,57,356
2.42070,0.11848,-0.00928,0.00000,0.02647,0.97795,-0.17458,0.0,2023,6,8,14,17,57,367
2.42080,0.38098,0.07822,0.00000,0.02525,0.97820,-0.17397,0.0,2023,6,8,14,17,57,378
2.42090,0.32848,0.14823,0.00000,0.02379,0.97929,-0.17861,0.0,2023,6,8,14,17,57,389
2.42100,0.22348,-0.04428,0.00000,0.02464,0.97905,-0.17873,0.0,2023,6,8,14,17,57,400
2.42110,-0.30152,-0.11428,0.00000,0.02330,0.97917,-0.17495,0.0,2023,6,8,14,17,57,411
2.42120,-0.28402,-0.20178,0.00000,0.02391,0.97502,-0.17727,0.0,2023,6,8,14,17,57,422
2.42130,0.22348,-0.11428,0.00000,0.02562,0.97454,-0.17519,0.0,2023,6,8,14,17,57,433
2.42140,0.67848,-0.11428,0.00000,0.02367,0.97771,-0.17629,0.0,2023,6,8,14,17,57,444
2.42150,0.24098,-0.11428,0.00000,0.02391,0.97637,-0.17666,0.0,2023,6,8,14,17,57,456
2.42160,-0.10902,-0.06177,0.00000,0.02257,0.97807,-0.17580,0.0,2023,6,8,14,17,57,467
2.42170,-0.42402,-0.11428,0.00000,0.02428,0.97856,-0.17568,0.0,2023,6,8,14,17,57,478
2.42180,-0.02152,0.02572,0.00000,0.02489,0.97942,-0.17678,0.0,2023,6,8,14,17,57,489
2.42190,0.59098,0.11322,0.00000,0.02489,0.97710,-0.17544,0.0,2023,6,8,14,17,57,500
2.42200,0.41598,-0.07927,0.00000,0.02452,0.97734,-0.17751,0.0,2023,6,8,14,17,57,511
2.42210,0.15348,-0.00928,0.00000,0.02355,0.97685,-0.17519,0.0,2023,6,8,14,17,57,522
2.42220,-0.45902,-0.27178,0.00000,0.02440,0.97673,-0.17470,0.0,2023,6,8,14,17,57,533
2.42230,-0.17902,-0.23678,0.00000,0.02403,0.97576,-0.17409,0.0,2023,6,8,14,17,57,544
2.42240,-0.07402,0.27072,0.00000,0.02599,0.97637,-0.17568,0.0,2023,6,8,14,17,57,556
2.42250,0.62598,0.00822,0.00000,0.02416,0.97856,-0.17531,0.0,2023,6,8,14,17,57,567
2.42260,0.34598,-0.09678,0.00000,0.02257,0.97795,-0.17812,0.0,2023,6,8,14,17,57,578
2.42270,-0.09152,-0.14928,0.00000,0.02294,0.97844,-0.17800,0.0,2023,6,8,14,17,57,589
2.42280,-0.72152,0.02572,0.00000,0.02355,0.97563,-0.17470,0.0,2023,6,8,14,17,57,600
2.42290,-0.30152,-0.06177,0.00000,0.02464,0.97832,-0.17544,0.0,2023,6,8,14,17,57,611
2.42300,0.64348,0.00822,0.00000,0.02489,0.97515,-0.17617,0.0,2023,6,8,14,17,57,622
2.42310,0.62598,0.04322,0.00000,0.02440,0.97722,-0.17946,0.0,2023,6,8,14,17,57,633
2.42320,0.29348,-0.07927,0.00000,0.02464,0.97746,-0.17714,0.0,2023,6,8,14,17,57,644
2.42330,-0.40652,-0.21928,0.00000,0.02623,0.97661,-0.17568,0.0,2023,6,8,14,17,57,656
2.42340,-0.70402,-0.04428,0.00000,0.02342,0.97661,-0.17507,0.0,2023,6,8,14,17,57,667
2.42350,-0.31902,0.04322,0.00000,0.02647,0.97807,-0.17458,0.0,2023,6,8,14,17,57,678
2.42360,0.59098,-0.06177,0.00000,0.02367,0.97661,-0.17397,0.0,2023,6,8,14,17,57,689
2.42370,0.55598,0.06072,0.00000,0.02306,0.97942,-0.17617,0.0,2023,6,8,14,17,57,700
2.42380,0.22348,-0.07927,0.00000,0.02464,0.97673,-0.17666,0.0,2023,6,8,14,17,57,711
2.42390,-0.31902,0.00822,0.00000,0.02452,0.97685,-0.17714,0.0,2023,6,8,14,17,57,722
2.42400,-0.58152,-0.11428,0.00000,0.02489,0.97637,-0.17544,0.0,2023,6,8,14,17,57,733
2.42410,0.03098,-0.09678,0.00000,0.02391,0.97771,-0.17458,0.0,2023,6,8,14,17,57,744
2.42420,0.24098,0.16572,0.00000,0.02440,0.97759,-0.17568,0.0,2023,6,8,14,17,57,756
2.42430,0.41598,0.20072,0.00000,0.02586,0.97807,-0.17751,0.0,2023,6,8,14,17,57,767
2.42440,0.25848,-0.13178,0.00000,0.02562,0.97698,-0.17592,0.0,2023,6,8,14,17,57,778
2.42450,-0.14402,-0.07927,0.00000,0.02391,0.97917,-0.17763,0.0,2023,6,8,14,17,57,789
2.42460,-0.35402,-0.21928,0.00000,0.02318,0.97710,-0.17580,0.0,2023,6,8,14,17,57,800
2.42470,-0.12652,-0.06177,0.00000,0.02416,0.97698,-0.17556,0.0,2023,6,8,14,17,57,811
2.42480,0.06598,-0.02678,0.00000,0.02318,0.97807,-0.17617,0.0,2023,6,8,14,17,57,822
2.42490,0.10098,-0.04428,0.00000,0.02477,0.97783,-0.17373,0.0,2023,6,8,14,17,57,833
2.42500,0.36348,-0.07927,0.00000,0.02513,0.97698,-0.17800,0.0,2023,6,8,14,17,57,844
2.42510,0.17098,0.02572,0.00000,0.02586,0.97527,-0.17946,0.0,2023,6,8,14,17,57,856
2.42520,-0.31902,-0.07927,0.00000,0.02391,0.97551,-0.17580,0.0,2023,6,8,14,17,57,867
2.42530,-0.44152,-0.09678,0.00000,0.02391,0.98027,-0.17495,0.0,2023,6,8,14,17,57,878
2.42540,-0.17902,0.11322,0.00000,0.02233,0.97844,-0.17653,0.0,2023,6,8,14,17,57,889
2.42550,0.20598,-0.14928,0.00000,0.02599,0.97698,-0.17483,0.0,2023,6,8,14,17,57,900
2.42560,0.38098,0.04322,0.00000,0.02489,0.97783,-0.17910,0.0,2023,6,8,14,17,57,911
2.42570,0.06598,-0.09678,0.00000,0.02452,0.97832,-0.17568,0.0,2023,6,8,14,17,57,922
2.42580,-0.26652,-0.09678,0.00000,0.02416,0.97807,-0.17507,0.0,2023,6,8,14,17,57,933
2.42590,-0.21402,-0.14928,0.00000,0.02416,0.97844,-0.17373,0.0,2023,6,8,14,17,57,944
2.42600,0.17098,-0.06177,0.00000,0.02367,0.98003,-0.17568,0.0,2023,6,8,14,17,57,956
2.42610,0.38098,-0.11428,0.00000,0.02367,0.97649,-0.17483,0.0,2023,6,8,14,17,57,967
2.42620,0.38098,-0.02678,0.00000,0.02294,0.97673,-0.18019,0.0,2023,6,8,14,17,57,978
2.42630,-0.12652,-0.02678,0.00000,0.02477,0.97771,-0.17763,0.0,2023,6,8,14,17,57,989
2.42640,-0.61652,-0.11428,0.00000,0.02428,0.97954,-0.17641,0.0,2023,6,8,14,17,57,0
2.42650,-0.23152,-0.07927,0.00000,0.02464,0.97832,-0.17629,0.0,2023,6,8,14,17,58,1
2.42660,0.50348,-0.21928,0.00000,0.02562,0.97807,-0.17678,0.0,2023,6,8,14,17,58,12
2.42670,0.62598,0.21822,0.00000,0.02501,0.97698,-0.17861,0.0,2023,6,8,14,17,58,23
2.42680,0.45098,0.11322,0.00000,0.02538,0.97868,-0.17800,0.0,2023,6,8,14,17,58,34
2.42690,-0.38902,0.00822,0.00000,0.02440,0.97759,-0.17824,0.0,2023,6,8,14,17,58,46
2.42700,-0.65152,0.06072,0.00000,0.02172,0.97795,-0.17727,0.0,2023,6,8,14,17,58,57
2.42710,-0.14402,-0.07927,0.00000,0.02538,0.97673,-0.17617,0.0,2023,6,8,14,17,58,68
2.42720,0.66098,-0.34178,0.00000,0.02696,0.97942,-0.17800,0.0,2023,6,8,14,17,58,79
2.42730,0.90598,0.00822,0.00000,0.02342,0.97942,-0.17849,0.0,2023,6,8,14,17,58,90
2.42740,0.32848,-0.23678,0.00000,0.02489,0.97820,-0.18129,0.0,2023,6,8,14,17,58,101
2.42750,-0.44152,0.11322,0.00000,0.02379,0.97588,-0.18178,0.0,2023,6,8,14,17,58,112
2.42760,-0.68652,-0.13178,0.00000,0.02550,0.97454,-0.17751,0.0,2023,6,8,14,17,58,123
2.42770,-0.37152,0.23572,0.00000,0.02367,0.97917,-0.17373,0.0,2023,6,8,14,17,58,134
2.42780,0.39848,-0.21928,0.00000,0.02294,0.97795,-0.17653,0.0,2023,6,8,14,17,58,146
2.42790,0.45098,0.11322,0.00000,0.02269,0.97929,-0.17788,0.0,2023,6,8,14,17,58,157
2.42800,0.15348,-0.07927,0.00000,0.02672,0.97734,-0.18056,0.0,2023,6,8,14,17,58,168
2.42810,-0.28402,-0.09678,0.00000,0.02403,0.97710,-0.18056,0.0,2023,6,8,14,17,58,179
2.42820,-0.37152,0.07822,0.00000,0.02452,0.97820,-0.17824,0.0,2023,6,8,14,17,58,190
2.42830,-0.12652,-0.06177,0.00000,0.02501,0.97710,-0.17775,0.0,2023,6,8,14,17,58,201
2.42840,0.03098,-0.21928,0.00000,0.02489,0.97868,-0.17690,0.0,2023,6,8,14,17,58,212
2.42850,0.38098,-0.06177,0.00000,0.02318,0.97929,-0.17897,0.0,2023,6,8,14,17,58,223
2.42860,0.25848,-0.16678,0.00000,0.02184,0.97771,-0.17836,0.0,2023,6,8,14,17,58,234
2.42870,0.18848,-0.02678,0.00000,0.02220,0.97893,-0.17995,0.0,2023,6,8,14,17,58,246
2.42880,-0.35402,0.00822,0.00000,0.02355,0.97734,-0.17946,0.0,2023,6,8,14,17,58,257
2.42890,-0.19652,0.13072,0.00000,0.02257,0.97966,-0.17605,0.0,2023,6,8,14,17,58,268
2.42900,-0.10902,0.07822,0.00000,0.02452,0.97942,-0.17775,0.0,2023,6,8,14,17,58,279
2.42910,0.46848,-0.11428,0.00000,0.02660,0.97624,-0.17995,0.0,2023,6,8,14,17,58,290
2.42920,0.17098,0.07822,0.00000,0.02342,0.97637,-0.17849,0.0,2023,6,8,14,17,58,301
2.42930,0.01348,-0.00928,0.00000,0.02696,0.97807,-0.18105,0.0,2023,6,8,14,17,58,312
2.42940,-0.24902,-0.18428,0.00000,0.02355,0.97929,-0.17800,0.0,2023,6,8,14,17,58,323
2.42950,-0.30152,0.09572,0.00000,0.02525,0.97856,-0.17629,0.0,2023,6,8,14,17,58,334
2.42960,0.06598,-0.23678,0.00000,0.02513,0.97685,-0.17836,0.0,2023,6,8,14,17,58,346
2.42970,0.36348,0.04322,0.00000,0.02403,0.97759,-0.17934,0.0,2023,6,8,14,17,58,357
2.42980,0.24098,-0.04428,0.00000,0.02562,0.97710,-0.17958,0.0,2023,6,8,14,17,58,368
2.42990,-0.09152,-0.11428,0.00000,0.02599,0.97893,-0.17849,0.0,2023,6,8,14,17,58,379
2.43000,-0.52902,0.02572,0.00000,0.02550,0.97515,-0.17885,0.0,2023,6,8,14,17,58,390
2.43010,-0.35402,0.02572,0.00000,0.02477,0.97624,-0.17629,0.0,2023,6,8,14,17,58,401
2.43020,0.27598,-0.02678,0.00000,0.02452,0.97417,-0.17788,0.0,2023,6,8,14,17,58,412
2.43030,0.71348,-0.11428,0.00000,0.02428,0.97685,-0.17690,0.0,2023,6,8,14,17,58,423
2.43040,0.50348,0.16572,0.00000,0.02245,0.97710,-0.18056,0.0,2023,6,8,14,17,58,434
2.43050,-0.28402,-0.07927,0.00000,0.02233,0.97588,-0.18324,0.0,2023,6,8,14,17,58,446
2.43060,-0.79152,-0.09678,0.00000,0.02379,0.97661,-0.17788,0.0,2023,6,8,14,17,58,457
2.43070,-0.45902,-0.23678,0.00000,0.02477,0.97588,-0.17739,0.0,2023,6,8,14,17,58,468
2.43080,0.15348,0.16572,0.00000,0.02294,0.97820,-0.17617,0.0,2023,6,8,14,17,58,479
2.43090,0.50348,0.07822,0.00000,0.02586,0.97722,-0.17934,0.0,2023,6,8,14,17,58,490
2.43100,0.46848,0.06072,0.00000,0.02464,0.97807,-0.18129,0.0,2023,6,8,14,17,58,501
2.43110,-0.03902,0.11322,0.00000,0.02440,0.97698,-0.18215,0.0,2023,6,8,14,17,58,512
2.43120,-0.28402,-0.16678,0.00000,0.02257,0.97844,-0.17751,0.0,2023,6,8,14,17,58,523
2.43130,-0.72152,-0.13178,0.00000,0.02501,0.97685,-0.18007,0.0,2023,6,8,14,17,58,534
2.43140,-0.16152,-0.11428,0.00000,0.02208,0.97807,-0.17458,0.0,2023,6,8,14,17,58,546
2.43150,0.45098,-0.02678,0.00000,0.02562,0.97807,-0.17788,0.0,2023,6,8,14,17,58,557
2.43160,0.64348,0.27072,0.00000,0.02355,0.97966,-0.17849,0.0,2023,6,8,14,17,58,568
2.43170,0.17098,0.00822,0.00000,0.02501,0.97673,-0.17946,0.0,2023,6,8,14,17,58,579
2.43180,-0.56402,0.14823,0.00000,0.02416,0.97820,-0.17922,0.0,2023,6,8,14,17,58,590
2.43190,-0.59902,-0.13178,0.00000,0.02342,0.97820,-0.17812,0.0,2023,6,8,14,17,58,601
2.43200,0.04848,-0.16678,0.00000,0.02281,0.97929,-0.17653,0.0,2023,6,8,14,17,58,612
2.43210,0.64348,-0.04428,0.00000,0.02233,0.97868,-0.17678,0.0,2023,6,8,14,17,58,623
2.43220,0.52098,-0.28927,0.00000,0.02355,0.97820,-0.18093,0.0,2023,6,8,14,17,58,634
2.43230,-0.52902,-0.02678,0.00000,0.02403,0.97917,-0.17873,0.0,2023,6,8,14,17,58,646
2.43240,-0.98402,0.13072,0.00000,0.02586,0.97539,-0.17788,0.0,2023,6,8,14,17,58,657
2.43250,-0.42402,0.16572,0.00000,0.02501,0.97612,-0.17568,0.0,2023,6,8,14,17,58,668
2.43260,0.76598,0.07822,0.00000,0.02477,0.97807,-0.17714,0.0,2023,6,8,14,17,58,679
2.43270,1.04598,0.07822,0.00000,0.02416,0.97710,-0.17763,0.0,2023,6,8,14,17,58,690
2.43280,0.27598,0.11322,0.00000,0.02294,0.97685,-0.17824,0.0,2023,6,8,14,17,58,701
2.43290,-0.77402,-0.28927,0.00000,0.02220,0.97966,-0.17836,0.0,2023,6,8,14,17,58,712
2.43300,-0.94902,-0.30678,0.00000,0.02513,0.97576,-0.17312,0.0,2023,6,8,14,17,58,723
2.43310,-0.00402,0.04322,0.00000,0.02403,0.97771,-0.17617,0.0,2023,6,8,14,17,58,734
2.43320,0.97598,0.14823,0.00000,0.02660,0.97551,-0.17653,0.0,2023,6,8,14,17,58,746
2.43330,0.87098,0.06072,0.00000,0.02428,0.97551,-0.17922,0.0,2023,6,8,14,17,58,757
2.43340,0.11848,0.00822,0.00000,0.02220,0.97905,-0.18080,0.0,2023,6,8,14,17,58,768
2.43350,-0.72152,-0.28927,0.00000,0.02440,0.97881,-0.17653,0.0,2023,6,8,14,17,58,779
2.43360,-0.87902,0.02572,0.00000,0.02318,0.97759,-0.17568,0.0,2023,6,8,14,17,58,790
2.43370,0.04848,-0.21928,0.00000,0.02257,0.97759,-0.17092,0.0,2023,6,8,14,17,58,801
2.43380,0.80098,-0.00928,0.00000,0.02379,0.97856,-0.17568,0.0,2023,6,8,14,17,58,812
2.43390,0.92348,0.11322,0.00000,0.02513,0.97734,-0.18032,0.0,2023,6,8,14,17,58,823
2.43400,-0.14402,0.00822,0.00000,0.02623,0.97856,-0.18019,0.0,2023,6,8,14,17,58,834
2.43410,-0.72152,-0.21928,0.00000,0.02538,0.97649,-0.17873,0.0,2023,6,8,14,17,58,846
2.43420,-0.54652,-0.14928,0.00000,0.02440,0.97771,-0.17592,0.0,2023,6,8,14,17,58,857
2.43430,-0.09152,0.11322,0.00000,0.02452,0.97893,-0.17580,0.0,2023,6,8,14,17,58,868
2.43440,0.67848,-0.04428,0.00000,0.02538,0.97905,-0.17519,0.0,2023,6,8,14,17,58,879
2.43450,0.60848,0.16572,0.00000,0.02294,0.97612,-0.17727,0.0,2023,6,8,14,17,58,890
2.43460,-0.00402,0.11322,0.00000,0.02367,0.97722,-0.17788,0.0,2023,6,8,14,17,58,901
2.43470,-0.54652,-0.30678,0.00000,0.02306,0.97807,-0.17666,0.0,2023,6,8,14,17,58,912
2.43480,-0.70402,-0.16678,0.00000,0.02440,0.97734,-0.17361,0.0,2023,6,8,14,17,58,923
2.43490,0.45098,-0.25428,0.00000,0.02196,0.97539,-0.17544,0.0,2023,6,8,14,17,58,934
2.43500,0.69598,0.13072,0.00000,0.02501,0.97759,-0.17788,0.0,2023,6,8,14,17,58,946
2.43510,0.73098,-0.02678,0.00000,0.02318,0.97966,-0.17666,0.0,2023,6,8,14,17,58,957
2.43520,-0.37152,0.06072,0.00000,0.02294,0.97905,-0.17800,0.0,2023,6,8,14,17,58,968
2.43530,-0.66902,-0.27178,0.00000,0.02367,0.97881,-0.17531,0.0,2023,6,8,14,17,58,979
2.43540,-0.44152,-0.09678,0.00000,0.02562,0.97466,-0.17434,0.0,2023,6,8,14,17,58,990
2.43550,0.29348,0.14823,0.00000,0.02550,0.97734,-0.17580,0.0,2023,6,8,14,17,58,1
2.43560,0.74848,-0.02678,0.00000,0.02111,0.97820,-0.17605,0.0,2023,6,8,14,17,59,2
