#2023/06/08 14:16:22
time,wx,wy,wz,ax,ay,az,yy,MM,dd,hh,mm,ss,ms
2.16190,-0.21192,-0.07525,0.00000,0.02403,0.97942,-0.17434,2023,6,8,14,16,23,65
2.16200,0.36558,-0.00525,0.00000,0.02440,0.97685,-0.17385,2023,6,8,14,16,23,76
2.16210,0.33058,0.08225,0.00000,0.02330,0.97624,-0.17592,2023,6,8,14,16,23,87
2.16220,-0.05442,-0.19775,0.00000,0.02416,0.97844,-0.17788,2023,6,8,14,16,23,98
2.16230,-0.43942,0.09975,0.00000,0.02416,0.97637,-0.17653,2023,6,8,14,16,23,109
2.16240,-0.38692,0.16975,0.00000,0.02550,0.97563,-0.17483,2023,6,8,14,16,23,120
2.16250,0.03308,0.08225,0.00000,0.02367,0.97661,-0.17348,2023,6,8,14,16,23,131
2.16260,0.47058,0.13475,0.00000,0.02501,0.97893,-0.17434,2023,6,8,14,16,23,142
2.16270,0.36558,0.22225,0.00000,0.02074,0.97600,-0.17788,2023,6,8,14,16,23,153
2.16280,0.01558,-0.00525,0.00000,0.02501,0.97734,-0.17739,2023,6,8,14,16,23,165
2.16290,-0.49192,-0.07525,0.00000,0.02403,0.97600,-0.17641,2023,6,8,14,16,23,176
2.16300,-0.21192,0.09975,0.00000,0.02416,0.97856,-0.17409,2023,6,8,14,16,23,187
2.16310,0.05058,0.11725,0.00000,0.02391,0.97893,-0.17495,2023,6,8,14,16,23,198
2.16320,0.55808,-0.19775,0.00000,0.02208,0.97563,-0.17812,2023,6,8,14,16,23,209
2.16330,-0.10692,-0.11025,0.00000,0.02440,0.97685,-0.17763,2023,6,8,14,16,23,220
2.16340,-0.31692,-0.04025,0.00000,0.02379,0.97795,-0.17568,2023,6,8,14,16,23,231
2.16350,-0.21192,0.04725,0.00000,0.02306,0.97795,-0.17617,2023,6,8,14,16,23,242
2.16360,0.19058,0.09975,0.00000,0.02294,0.98039,-0.17690,2023,6,8,14,16,23,253
2.16370,0.27808,0.16975,0.00000,0.02330,0.97685,-0.17763,2023,6,8,14,16,23,265
2.16380,0.24308,-0.16275,0.00000,0.02318,0.97844,-0.17690,2023,6,8,14,16,24,6
2.16390,-0.24692,-0.07525,0.00000,0.02599,0.97637,-0.17812,2023,6,8,14,16,24,17
2.16400,-0.43942,-0.09275,0.00000,0.02403,0.97441,-0.17556,2023,6,8,14,16,24,28
2.16410,-0.14192,-0.05775,0.00000,0.02586,0.97917,-0.17385,2023,6,8,14,16,24,39
2.16420,0.06808,0.06475,0.00000,0.02574,0.97978,-0.17678,2023,6,8,14,16,24,50
2.16430,0.45308,-0.05775,0.00000,0.02416,0.97673,-0.17751,2023,6,8,14,16,24,61
2.16440,0.22558,-0.09275,0.00000,0.02574,0.97698,-0.17507,2023,6,8,14,16,24,72
2.16450,-0.31692,-0.16275,0.00000,0.02184,0.97844,-0.17629,2023,6,8,14,16,24,83
2.16460,-0.29942,-0.11025,0.00000,0.02440,0.97844,-0.17605,2023,6,8,14,16,24,95
2.16470,0.08558,-0.09275,0.00000,0.02379,0.97844,-0.17336,2023,6,8,14,16,24,106
2.16480,0.22558,-0.04025,0.00000,0.02501,0.97685,-0.17361,2023,6,8,14,16,24,117
2.16490,0.24308,0.08225,0.00000,0.02464,0.97978,-0.17666,2023,6,8,14,16,24,128
2.16500,-0.03692,0.02975,0.00000,0.02355,0.97661,-0.17836,2023,6,8,14,16,24,139
2.16510,-0.19442,-0.18025,0.00000,0.02342,0.98137,-0.17434,2023,6,8,14,16,24,150
2.16520,-0.14192,-0.14525,0.00000,0.02330,0.97881,-0.17495,2023,6,8,14,16,24,161
2.16530,0.13808,-0.18025,0.00000,0.02269,0.97881,-0.17556,2023,6,8,14,16,24,172
2.16540,0.34808,-0.14525,0.00000,0.02599,0.97990,-0.17653,2023,6,8,14,16,24,183
2.16550,0.26058,0.04725,0.00000,0.02440,0.97868,-0.17483,2023,6,8,14,16,24,195
2.16560,0.24308,-0.19775,0.00000,0.02257,0.97966,-0.17629,2023,6,8,14,16,24,206
2.16570,-0.05442,-0.18025,0.00000,0.02281,0.97722,-0.17629,2023,6,8,14,16,24,217
2.16580,-0.26442,0.01225,0.00000,0.02318,0.97673,-0.17641,2023,6,8,14,16,24,228
2.16590,-0.08942,0.13475,0.00000,0.02647,0.98003,-0.17653,2023,6,8,14,16,24,239
2.16600,0.31308,0.01225,0.00000,0.02074,0.97990,-0.17629,2023,6,8,14,16,24,250
2.16610,-0.03692,-0.25025,0.00000,0.02342,0.97881,-0.17592,2023,6,8,14,16,24,261
2.16620,-0.19442,-0.00525,0.00000,0.02342,0.97868,-0.17641,2023,6,8,14,16,24,272
2.16630,-0.19442,-0.02275,0.00000,0.02367,0.98039,-0.17531,2023,6,8,14,16,24,283
2.16640,0.13808,0.01225,0.00000,0.02367,0.97844,-0.17434,2023,6,8,14,16,24,295
2.16650,0.31308,-0.14525,0.00000,0.02525,0.97515,-0.17556,2023,6,8,14,16,24,306
2.16660,0.19058,-0.11025,0.00000,0.02440,0.97807,-0.17678,2023,6,8,14,16,24,317
2.16670,0.13808,-0.02275,0.00000,0.02513,0.97929,-0.17446,2023,6,8,14,16,24,328
2.16680,-0.28192,-0.02275,0.00000,0.02330,0.97600,-0.17617,2023,6,8,14,16,24,339
2.16690,-0.14192,-0.07525,0.00000,0.02196,0.97893,-0.17324,2023,6,8,14,16,24,350
2.16700,0.03308,0.16975,0.00000,0.02403,0.97698,-0.17544,2023,6,8,14,16,24,361
2.16710,0.13808,-0.16275,0.00000,0.02196,0.97637,-0.17605,2023,6,8,14,16,24,372
2.16720,0.01558,0.06475,0.00000,0.02269,0.97649,-0.17568,2023,6,8,14,16,24,383
2.16730,-0.24692,-0.11025,0.00000,0.02172,0.97868,-0.17531,2023,6,8,14,16,24,395
2.16740,-0.10692,0.06475,0.00000,0.02416,0.97673,-0.17580,2023,6,8,14,16,24,406
2.16750,-0.10692,0.04725,0.00000,0.02635,0.97905,-0.17470,2023,6,8,14,16,24,417
2.16760,0.38308,-0.04025,0.00000,0.02367,0.97637,-0.17336,2023,6,8,14,16,24,428
2.16770,0.15558,-0.11025,0.00000,0.02318,0.97844,-0.17458,2023,6,8,14,16,24,439
2.16780,-0.10692,0.01225,0.00000,0.02611,0.97771,-0.17629,2023,6,8,14,16,24,450
2.16790,-0.24692,0.02975,0.00000,0.02428,0.97844,-0.17483,2023,6,8,14,16,24,461
2.16800,-0.00192,-0.28525,0.00000,0.02379,0.97990,-0.17653,2023,6,8,14,16,24,472
2.16810,0.29558,0.16975,0.00000,0.02245,0.97759,-0.17568,2023,6,8,14,16,24,483
2.16820,-0.14192,0.06475,0.00000,0.02538,0.97734,-0.17446,2023,6,8,14,16,24,495
2.16830,-0.15942,-0.07525,0.00000,0.02220,0.97868,-0.17653,2023,6,8,14,16,24,506
2.16840,-0.15942,-0.07525,0.00000,0.02355,0.97966,-0.17556,2023,6,8,14,16,24,517
2.16850,0.01558,-0.25025,0.00000,0.02428,0.97759,-0.17544,2023,6,8,14,16,24,528
2.16860,0.24308,-0.09275,0.00000,0.02464,0.97795,-0.17470,2023,6,8,14,16,24,539
2.16870,0.12058,-0.16275,0.00000,0.02440,0.97844,-0.17617,2023,6,8,14,16,24,550
2.16880,-0.05442,-0.14525,0.00000,0.02355,0.97759,-0.17446,2023,6,8,14,16,24,561
2.16890,0.17308,-0.05775,0.00000,0.02355,0.97832,-0.17495,2023,6,8,14,16,24,572
2.16900,-0.26442,0.06475,0.00000,0.02464,0.97795,-0.17409,2023,6,8,14,16,24,583
2.16910,-0.03692,-0.04025,0.00000,0.02525,0.97746,-0.17483,2023,6,8,14,16,24,595
2.16920,0.08558,0.06475,0.00000,0.02574,0.97759,-0.17385,2023,6,8,14,16,24,606
2.16930,-0.21192,0.06475,0.00000,0.02342,0.97844,-0.17483,2023,6,8,14,16,24,617
2.16940,0.03308,-0.12775,0.00000,0.02672,0.97698,-0.17385,2023,6,8,14,16,24,628
2.16950,-0.08942,-0.25025,0.00000,0.02464,0.98161,-0.17629,2023,6,8,14,16,24,639
2.16960,-0.17692,-0.02275,0.00000,0.02391,0.97820,-0.17470,2023,6,8,14,16,24,650
2.16970,-0.07192,-0.05775,0.00000,0.02403,0.97649,-0.17434,2023,6,8,14,16,24,661
2.16980,0.22558,0.02975,0.00000,0.02501,0.97759,-0.17483,2023,6,8,14,16,24,672
2.16990,-0.03692,0.06475,0.00000,0.02220,0.97624,-0.17483,2023,6,8,14,16,24,683
2.17000,-0.05442,-0.02275,0.00000,0.02501,0.97637,-0.17470,2023,6,8,14,16,24,695
2.17010,-0.24692,-0.04025,0.00000,0.02464,0.97746,-0.17239,2023,6,8,14,16,24,706
2.17020,-0.19442,-0.02275,0.00000,0.02428,0.97868,-0.17397,2023,6,8,14,16,24,717
2.17030,0.15558,-0.18025,0.00000,0.02379,0.97685,-0.17568,2023,6,8,14,16,24,728
2.17040,0.33058,-0.16275,0.00000,0.02464,0.97844,-0.17617,2023,6,8,14,16,24,739
2.17050,0.01558,0.13475,0.00000,0.02477,0.97759,-0.17458,2023,6,8,14,16,24,750
2.17060,-0.10692,-0.14525,0.00000,0.02489,0.97795,-0.17373,2023,6,8,14,16,24,761
2.17070,-0.28192,0.01225,0.00000,0.02269,0.97612,-0.17580,2023,6,8,14,16,24,772
2.17080,-0.00192,-0.09275,0.00000,0.02233,0.98003,-0.17385,2023,6,8,14,16,24,783
2.17090,0.41808,-0.05775,0.00000,0.02452,0.97649,-0.17544,2023,6,8,14,16,24,795
2.17100,0.29558,-0.04025,0.00000,0.02440,0.98003,-0.17470,2023,6,8,14,16,24,806
2.17110,0.01558,-0.07525,0.00000,0.02525,0.97832,-0.17397,2023,6,8,14,16,24,817
2.17120,-0.08942,-0.11025,0.00000,0.02464,0.97637,-0.17690,2023,6,8,14,16,24,828
2.17130,-0.17692,0.13475,0.00000,0.02281,0.97954,-0.17397,2023,6,8,14,16,24,839
2.17140,0.03308,0.04725,0.00000,0.02684,0.98003,-0.17470,2023,6,8,14,16,24,850
2.17150,0.12058,0.06475,0.00000,0.02379,0.97820,-0.17409,2023,6,8,14,16,24,861
2.17160,0.33058,-0.11025,0.00000,0.02379,0.97661,-0.17653,2023,6,8,14,16,24,872
2.17170,0.17308,-0.09275,0.00000,0.02464,0.97734,-0.17727,2023,6,8,14,16,24,883
2.17180,-0.03692,-0.09275,0.00000,0.02489,0.97771,-0.17495,2023,6,8,14,16,24,895
2.17190,-0.21192,0.09975,0.00000,0.02391,0.97649,-0.17580,2023,6,8,14,16,24,906
2.17200,0.08558,0.04725,0.00000,0.02416,0.97746,-0.17592,2023,6,8,14,16,24,917
2.17210,0.17308,-0.14525,0.00000,0.02513,0.97881,-0.17617,2023,6,8,14,16,24,928
2.17220,0.19058,-0.07525,0.00000,0.02367,0.97710,-0.17287,2023,6,8,14,16,24,939
2.17230,-0.12442,-0.05775,0.00000,0.02233,0.97685,-0.17653,2023,6,8,14,16,24,950
2.17240,-0.22942,0.01225,0.00000,0.02379,0.98015,-0.17531,2023,6,8,14,16,24,961
2.17250,0.06808,0.15225,0.00000,0.02306,0.97722,-0.17361,2023,6,8,14,16,24,972
2.17260,0.10308,-0.16275,0.00000,0.02294,0.97783,-0.17507,2023,6,8,14,16,24,983
2.17270,0.15558,-0.07525,0.00000,0.02428,0.97624,-0.17470,2023,6,8,14,16,24,995
2.17280,0.06808,0.06475,0.00000,0.02281,0.97844,-0.17653,2023,6,8,14,16,25,6
2.17290,-0.14192,0.02975,0.00000,0.02257,0.97746,-0.17434,2023,6,8,14,16,25,17
2.17300,-0.17692,0.11725,0.00000,0.02501,0.97832,-0.17495,2023,6,8,14,16,25,28
2.17310,0.24308,0.01225,0.00000,0.02501,0.97600,-0.17690,2023,6,8,14,16,25,39
2.17320,0.29558,0.11725,0.00000,0.02623,0.97929,-0.17531,2023,6,8,14,16,25,50
2.17330,-0.01942,-0.11025,0.00000,0.02257,0.97832,-0.17544,2023,6,8,14,16,25,61
2.17340,0.01558,-0.00525,0.00000,0.02379,0.97832,-0.17605,2023,6,8,14,16,25,72
2.17350,-0.15942,0.09975,0.00000,0.02245,0.98015,-0.17300,2023,6,8,14,16,25,83
2.17360,-0.01942,0.01225,0.00000,0.02416,0.97820,-0.17470,2023,6,8,14,16,25,95
2.17370,0.08558,-0.07525,0.00000,0.02452,0.97832,-0.17507,2023,6,8,14,16,25,106
2.17380,0.13808,-0.09275,0.00000,0.02403,0.97746,-0.17556,2023,6,8,14,16,25,117
2.17390,0.13808,0.04725,0.00000,0.02525,0.97722,-0.17666,2023,6,8,14,16,25,128
2.17400,0.06808,-0.02275,0.00000,0.02403,0.97734,-0.17641,2023,6,8,14,16,25,139
2.17410,-0.19442,-0.09275,0.00000,0.02513,0.97588,-0.17739,2023,6,8,14,16,25,150
2.17420,-0.10692,0.04725,0.00000,0.02477,0.98003,-0.17568,2023,6,8,14,16,25,161
2.17430,-0.00192,-0.09275,0.00000,0.02403,0.97929,-0.17592,2023,6,8,14,16,25,172
2.17440,-0.00192,-0.00525,0.00000,0.02220,0.97783,-0.17666,2023,6,8,14,16,25,183
2.17450,0.01558,-0.04025,0.00000,0.02355,0.97771,-0.17727,2023,6,8,14,16,25,195
2.17460,0.05058,-0.04025,0.00000,0.02306,0.97661,-0.17483,2023,6,8,14,16,25,206
2.17470,-0.10692,-0.00525,0.00000,0.02342,0.97734,-0.17483,2023,6,8,14,16,25,217
2.17480,-0.08942,0.16975,0.00000,0.02330,0.97942,-0.17568,2023,6,8,14,16,25,228
2.17490,0.05058,-0.00525,0.00000,0.02623,0.97807,-0.17556,2023,6,8,14,16,25,239
2.17500,-0.07192,0.08225,0.00000,0.02440,0.97637,-0.17690,2023,6,8,14,16,25,250
2.17510,0.03308,-0.02275,0.00000,0.02342,0.97856,-0.17678,2023,6,8,14,16,25,261
2.17520,0.03308,0.04725,0.00000,0.02159,0.97661,-0.17751,2023,6,8,14,16,25,272
2.17530,-0.19442,-0.14525,0.00000,0.02245,0.97771,-0.17666,2023,6,8,14,16,25,283
2.17540,0.19058,-0.18025,0.00000,0.02318,0.97893,-0.17495,2023,6,8,14,16,25,295
2.17550,0.10308,0.01225,0.00000,0.02367,0.97722,-0.17629,2023,6,8,14,16,25,306
2.17560,0.05058,0.06475,0.00000,0.02489,0.97722,-0.17519,2023,6,8,14,16,25,317
2.17570,0.03308,-0.04025,0.00000,0.02550,0.97649,-0.17544,2023,6,8,14,16,25,328
2.17580,-0.08942,0.04725,0.00000,0.02172,0.97771,-0.17690,2023,6,8,14,16,25,339
2.17590,-0.07192,-0.00525,0.00000,0.02538,0.97576,-0.17336,2023,6,8,14,16,25,350
2.17600,-0.00192,-0.14525,0.00000,0.02452,0.97966,-0.17470,2023,6,8,14,16,25,361
2.17610,0.13808,-0.11025,0.00000,0.02330,0.97759,-0.17409,2023,6,8,14,16,25,372
2.17620,0.01558,0.04725,0.00000,0.02391,0.97759,-0.17690,2023,6,8,14,16,25,383
2.17630,0.08558,-0.11025,0.00000,0.02574,0.97734,-0.17605,2023,6,8,14,16,25,395
2.17640,0.19058,-0.09275,0.00000,0.02367,0.97698,-0.17629,2023,6,8,14,16,25,406
2.17650,-0.07192,0.09975,0.00000,0.02403,0.97612,-0.17385,2023,6,8,14,16,25,417
2.17660,0.08558,-0.02275,0.00000,0.02208,0.97929,-0.17544,2023,6,8,14,16,25,428
2.17670,-0.05442,-0.07525,0.00000,0.02647,0.97844,-0.17653,2023,6,8,14,16,25,439
2.17680,0.05058,0.02975,0.00000,0.02440,0.97783,-0.17348,2023,6,8,14,16,25,450
2.17690,0.15558,0.08225,0.00000,0.02501,0.97576,-0.17690,2023,6,8,14,16,25,461
2.17700,-0.15942,0.09975,0.00000,0.02440,0.97600,-0.17678,2023,6,8,14,16,25,472
2.17710,-0.14192,-0.00525,0.00000,0.02196,0.97868,-0.17519,2023,6,8,14,16,25,483
2.17720,-0.01942,-0.04025,0.00000,0.02440,0.97600,-0.17434,2023,6,8,14,16,25,495
2.17730,0.05058,0.15225,0.00000,0.02367,0.97734,-0.17422,2023,6,8,14,16,25,506
2.17740,0.26058,0.04725,0.00000,0.02391,0.97661,-0.17568,2023,6,8,14,16,25,517
2.17750,0.31308,-0.16275,0.00000,0.02318,0.97661,-0.17690,2023,6,8,14,16,25,528
2.17760,0.08558,-0.11025,0.00000,0.02294,0.97929,-0.17617,2023,6,8,14,16,25,539
2.17770,-0.14192,0.09975,0.00000,0.02452,0.97807,-0.17666,2023,6,8,14,16,25,550
2.17780,0.05058,-0.12775,0.00000,0.02477,0.97710,-0.17458,2023,6,8,14,16,25,561
2.17790,0.12058,-0.14525,0.00000,0.02599,0.97722,-0.17251,2023,6,8,14,16,25,572
2.17800,0.31308,-0.18025,0.00000,0.02233,0.97722,-0.17885,2023,6,8,14,16,25,583
2.17810,0.08558,-0.18025,0.00000,0.02306,0.97893,-0.17763,2023,6,8,14,16,25,595
2.17820,-0.05442,-0.04025,0.00000,0.02342,0.97576,-0.17641,2023,6,8,14,16,25,606
2.17830,-0.28192,0.16975,0.00000,0.02379,0.97624,-0.17397,2023,6,8,14,16,25,617
2.17840,-0.03692,-0.07525,0.00000,0.02281,0.97868,-0.17446,2023,6,8,14,16,25,628
2.17850,0.13808,-0.12775,0.00000,0.02672,0.97698,-0.17629,2023,6,8,14,16,25,639
2.17860,0.17308,0.15225,0.00000,0.02403,0.97661,-0.17531,2023,6,8,14,16,25,650
2.17870,-0.00192,-0.02275,0.00000,0.02428,0.97710,-0.17727,2023,6,8,14,16,25,661
2.17880,-0.26442,0.29225,0.00000,0.02355,0.97539,-0.17458,2023,6,8,14,16,25,672
2.17890,-0.17692,0.01225,0.00000,0.02257,0.97917,-0.17385,2023,6,8,14,16,25,683
2.17900,0.24308,-0.11025,0.00000,0.02501,0.97746,-0.17483,2023,6,8,14,16,25,695
2.17910,0.38308,0.08225,0.00000,0.02379,0.97685,-0.17653,2023,6,8,14,16,25,706
2.17920,0.10308,0.09975,0.00000,0.02684,0.97905,-0.17580,2023,6,8,14,16,25,717
2.17930,0.10308,-0.00525,0.00000,0.02464,0.97698,-0.17727,2023,6,8,14,16,25,728
2.17940,-0.22942,0.04725,0.00000,0.02623,0.97929,-0.17678,2023,6,8,14,16,25,739
2.17950,-0.08942,0.13475,0.00000,0.02416,0.97661,-0.17531,2023,6,8,14,16,25,750
2.17960,0.13808,-0.07525,0.00000,0.02391,0.97929,-0.17702,2023,6,8,14,16,25,761
2.17970,0.10308,-0.07525,0.00000,0.02257,0.97966,-0.17507,2023,6,8,14,16,25,772
2.17980,-0.26442,0.06475,0.00000,0.02525,0.97746,-0.17751,2023,6,8,14,16,25,783
2.17990,-0.03692,-0.07525,0.00000,0.02355,0.97685,-0.17678,2023,6,8,14,16,25,795
2.18000,-0.12442,-0.09275,0.00000,0.02525,0.97576,-0.17629,2023,6,8,14,16,25,806
2.18010,0.13808,0.02975,0.00000,0.02452,0.97710,-0.17422,2023,6,8,14,16,25,817
2.18020,0.08558,-0.02275,0.00000,0.02550,0.97868,-0.17641,2023,6,8,14,16,25,828
2.18030,0.01558,-0.05775,0.00000,0.02452,0.97673,-0.17580,2023,6,8,14,16,25,839
2.18040,-0.01942,-0.07525,0.00000,0.02477,0.97807,-0.17788,2023,6,8,14,16,25,850
2.18050,-0.08942,0.15225,0.00000,0.02330,0.97722,-0.17592,2023,6,8,14,16,25,861
2.18060,-0.22942,0.01225,0.00000,0.02574,0.98003,-0.17397,2023,6,8,14,16,25,872
2.18070,0.05058,-0.07525,0.00000,0.02672,0.97966,-0.17409,2023,6,8,14,16,25,883
2.18080,0.12058,-0.09275,0.00000,0.02416,0.97734,-0.17568,2023,6,8,14,16,25,895
2.18090,0.17308,-0.18025,0.00000,0.02513,0.97685,-0.17446,2023,6,8,14,16,25,906
2.18100,0.19058,-0.02275,0.00000,0.02513,0.97942,-0.17617,2023,6,8,14,16,25,917
2.18110,-0.15942,0.23975,0.00000,0.02208,0.97771,-0.17653,2023,6,8,14,16,25,928
2.18120,-0.03692,0.13475,0.00000,0.02416,0.97905,-0.17617,2023,6,8,14,16,25,939
2.18130,-0.03692,-0.07525,0.00000,0.02708,0.97868,-0.17739,2023,6,8,14,16,25,950
2.18140,-0.00192,-0.00525,0.00000,0.02367,0.97832,-0.17361,2023,6,8,14,16,25,961
2.18150,0.24308,-0.16275,0.00000,0.02391,0.97905,-0.17629,2023,6,8,14,16,25,972
2.18160,0.03308,-0.11025,0.00000,0.02416,0.97722,-0.17824,2023,6,8,14,16,25,983
2.18170,-0.17692,0.13475,0.00000,0.02342,0.97539,-0.17568,2023,6,8,14,16,25,995
2.18180,-0.00192,-0.19775,0.00000,0.02428,0.97612,-0.17678,2023,6,8,14,16,26,6
2.18190,0.01558,-0.07525,0.00000,0.02294,0.97685,-0.17470,2023,6,8,14,16,26,17
2.18200,0.22558,0.18725,0.00000,0.02233,0.97844,-0.17653,2023,6,8,14,16,26,28
2.18210,0.33058,-0.25025,0.00000,0.02440,0.97661,-0.17580,2023,6,8,14,16,26,39
2.18220,-0.17692,0.15225,0.00000,0.02599,0.97710,-0.17519,2023,6,8,14,16,26,50
2.18230,-0.15942,-0.23275,0.00000,0.02403,0.97612,-0.17409,2023,6,8,14,16,26,61
2.18240,-0.00192,0.18725,0.00000,0.02391,0.97710,-0.17446,2023,6,8,14,16,26,72
2.18250,-0.07192,0.08225,0.00000,0.02489,0.97795,-0.17385,2023,6,8,14,16,26,83
2.18260,0.10308,-0.11025,0.00000,0.02647,0.97637,-0.17775,2023,6,8,14,16,26,95
2.18270,0.10308,0.06475,0.00000,0.02403,0.97563,-0.17617,2023,6,8,14,16,26,106
2.18280,0.15558,-0.04025,0.00000,0.02586,0.97527,-0.17873,2023,6,8,14,16,26,117
2.18290,-0.29942,0.16975,0.00000,0.02464,0.97771,-0.17336,2023,6,8,14,16,26,128
2.18300,-0.21192,0.06475,0.00000,0.02403,0.97734,-0.17385,2023,6,8,14,16,26,139
2.18310,-0.08942,0.01225,0.00000,0.02452,0.97734,-0.17434,2023,6,8,14,16,26,150
2.18320,0.19058,-0.21525,0.00000,0.02220,0.97746,-0.17287,2023,6,8,14,16,26,161
2.18330,0.12058,-0.14525,0.00000,0.02416,0.97917,-0.17580,2023,6,8,14,16,26,172
2.18340,-0.10692,-0.00525,0.00000,0.02355,0.97661,-0.17556,2023,6,8,14,16,26,183
2.18350,-0.05442,-0.12775,0.00000,0.02355,0.97576,-0.17495,2023,6,8,14,16,26,195
2.18360,0.01558,-0.18025,0.00000,0.02672,0.97807,-0.17592,2023,6,8,14,16,26,206
2.18370,-0.03692,-0.11025,0.00000,0.02257,0.97746,-0.17263,2023,6,8,14,16,26,217
2.18380,0.19058,-0.05775,0.00000,0.02538,0.98027,-0.17605,2023,6,8,14,16,26,228
2.18390,0.13808,-0.14525,0.00000,0.02355,0.97771,-0.17714,2023,6,8,14,16,26,239
2.18400,-0.12442,0.06475,0.00000,0.02306,0.97954,-0.17666,2023,6,8,14,16,26,250
2.18410,-0.05442,-0.14525,0.00000,0.02428,0.97759,-0.17800,2023,6,8,14,16,26,261
2.18420,-0.14192,0.01225,0.00000,0.02440,0.97649,-0.17507,2023,6,8,14,16,26,272
2.18430,-0.10692,-0.07525,0.00000,0.02599,0.97759,-0.17422,2023,6,8,14,16,26,283
2.18440,0.24308,0.11725,0.00000,0.02501,0.97722,-0.17641,2023,6,8,14,16,26,295
2.18450,0.20808,0.06475,0.00000,0.02721,0.97759,-0.17495,2023,6,8,14,16,26,306
2.18460,-0.28192,-0.18025,0.00000,0.02477,0.97893,-0.17544,2023,6,8,14,16,26,317
2.18470,-0.01942,-0.18025,0.00000,0.02623,0.97624,-0.17446,2023,6,8,14,16,26,328
2.18480,0.05058,0.02975,0.00000,0.02403,0.97832,-0.17519,2023,6,8,14,16,26,339
2.18490,0.33058,0.08225,0.00000,0.02489,0.97881,-0.17324,2023,6,8,14,16,26,350
2.18500,0.33058,0.08225,0.00000,0.02294,0.97612,-0.17666,2023,6,8,14,16,26,361
2.18510,-0.26442,-0.19775,0.00000,0.02525,0.97746,-0.17580,2023,6,8,14,16,26,372
2.18520,-0.33442,0.01225,0.00000,0.02184,0.97844,-0.17275,2023,6,8,14,16,26,383
2.18530,0.15558,-0.18025,0.00000,0.02428,0.97441,-0.17470,2023,6,8,14,16,26,395
2.18540,0.36558,-0.05775,0.00000,0.02269,0.97576,-0.17641,2023,6,8,14,16,26,406
2.18550,0.33058,0.01225,0.00000,0.02428,0.97820,-0.17617,2023,6,8,14,16,26,417
2.18560,0.10308,-0.07525,0.00000,0.02342,0.97673,-0.17495,2023,6,8,14,16,26,428
2.18570,-0.26442,-0.39025,0.00000,0.02464,0.97673,-0.17409,2023,6,8,14,16,26,439
2.18580,-0.08942,-0.09275,0.00000,0.02416,0.97893,-0.17275,2023,6,8,14,16,26,450
2.18590,0.05058,0.01225,0.00000,0.02367,0.97673,-0.17519,2023,6,8,14,16,26,461
2.18600,0.29558,-0.12775,0.00000,0.02403,0.97881,-0.17592,2023,6,8,14,16,26,472
2.18610,0.05058,0.18725,0.00000,0.02550,0.97893,-0.17592,2023,6,8,14,16,26,483
2.18620,-0.15942,0.09975,0.00000,0.02257,0.97698,-0.17568,2023,6,8,14,16,26,495
2.18630,-0.15942,0.01225,0.00000,0.02318,0.97698,-0.17361,2023,6,8,14,16,26,506
2.18640,0.05058,0.20475,0.00000,0.02525,0.97746,-0.17507,2023,6,8,14,16,26,517
2.18650,0.22558,0.11725,0.00000,0.02379,0.97783,-0.17446,2023,6,8,14,16,26,528
2.18660,0.17308,-0.02275,0.00000,0.02330,0.97710,-0.17641,2023,6,8,14,16,26,539
2.18670,-0.14192,-0.07525,0.00000,0.02367,0.97966,-0.17507,2023,6,8,14,16,26,550
2.18680,-0.36942,0.06475,0.00000,0.02599,0.97881,-0.17153,2023,6,8,14,16,26,561
2.18690,-0.10692,0.11725,0.00000,0.02220,0.97868,-0.17544,2023,6,8,14,16,26,572
2.18700,0.34808,0.04725,0.00000,0.02550,0.97832,-0.17629,2023,6,8,14,16,26,583
2.18710,0.13808,-0.14525,0.00000,0.02440,0.97710,-0.17592,2023,6,8,14,16,26,595
2.18720,-0.05442,-0.14525,0.00000,0.02501,0.97698,-0.17519,2023,6,8,14,16,26,606
2.18730,-0.24692,0.08225,0.00000,0.02513,0.97856,-0.17519,2023,6,8,14,16,26,617
2.18740,-0.12442,0.08225,0.00000,0.02269,0.98003,-0.17348,2023,6,8,14,16,26,628
2.18750,-0.07192,-0.07525,0.00000,0.02269,0.97844,-0.17385,2023,6,8,14,16,26,639
2.18760,0.06808,0.08225,0.00000,0.02477,0.97722,-0.17385,2023,6,8,14,16,26,650
2.18770,0.29558,-0.14525,0.00000,0.02269,0.97637,-0.17568,2023,6,8,14,16,26,661
2.18780,0.12058,-0.18025,0.00000,0.02403,0.97551,-0.17544,2023,6,8,14,16,26,672
2.18790,-0.19442,-0.19775,0.00000,0.02574,0.97905,-0.17519,2023,6,8,14,16,26,683
2.18800,-0.05442,-0.11025,0.00000,0.02184,0.97917,-0.17470,2023,6,8,14,16,26,695
2.18810,-0.14192,-0.09275,0.00000,0.02342,0.97685,-0.17226,2023,6,8,14,16,26,706
2.18820,0.05058,-0.02275,0.00000,0.02525,0.97893,-0.17251,2023,6,8,14,16,26,717
2.18830,0.12058,-0.04025,0.00000,0.02318,0.97722,-0.17507,2023,6,8,14,16,26,728
2.18840,0.10308,0.01225,0.00000,0.02623,0.97576,-0.17531,2023,6,8,14,16,26,739
2.18850,-0.21192,0.08225,0.00000,0.02513,0.97624,-0.17568,2023,6,8,14,16,26,750
2.18860,-0.26442,-0.04025,0.00000,0.02245,0.97820,-0.17617,2023,6,8,14,16,26,761
2.18870,0.03308,0.08225,0.00000,0.02623,0.97942,-0.17446,2023,6,8,14,16,26,772
2.18880,0.01558,0.18725,0.00000,0.02379,0.97783,-0.17385,2023,6,8,14,16,26,783
2.18890,0.26058,0.06475,0.00000,0.02379,0.97698,-0.17495,2023,6,8,14,16,26,795
2.18900,0.03308,-0.14525,0.00000,0.02464,0.97637,-0.17519,2023,6,8,14,16,26,806
2.18910,-0.22942,-0.05775,0.00000,0.02355,0.97661,-0.17568,2023,6,8,14,16,26,817
2.18920,-0.49192,-0.07525,0.00000,0.02220,0.97637,-0.17617,2023,6,8,14,16,26,828
2.18930,-0.08942,0.01225,0.00000,0.02245,0.97759,-0.17422,2023,6,8,14,16,26,839
2.18940,0.52308,0.01225,0.00000,0.02318,0.97771,-0.17275,2023,6,8,14,16,26,850
2.18950,0.36558,-0.00525,0.00000,0.02525,0.97698,-0.17483,2023,6,8,14,16,26,861
2.18960,-0.12442,-0.02275,0.00000,0.02611,0.97844,-0.17690,2023,6,8,14,16,26,872
2.18970,-0.71942,-0.11025,0.00000,0.02416,0.97673,-0.17287,2023,6,8,14,16,26,883
2.18980,-0.29942,-0.09275,0.00000,0.02245,0.97905,-0.17300,2023,6,8,14,16,26,895
2.18990,0.08558,-0.05775,0.00000,0.02599,0.97685,-0.17592,2023,6,8,14,16,26,906
2.19000,0.43558,0.16975,0.00000,0.02355,0.97771,-0.17446,2023,6,8,14,16,26,917
2.19010,0.43558,0.01225,0.00000,0.02452,0.97881,-0.17727,2023,6,8,14,16,26,928
2.19020,-0.14192,-0.05775,0.00000,0.02367,0.97661,-0.17556,2023,6,8,14,16,26,939
2.19030,-0.63192,-0.05775,0.00000,0.02464,0.97844,-0.17531,2023,6,8,14,16,26,950
2.19040,-0.28192,-0.14525,0.00000,0.02428,0.97734,-0.17287,2023,6,8,14,16,26,961
2.19050,0.10308,0.23975,0.00000,0.02257,0.97868,-0.17544,2023,6,8,14,16,26,972
2.19060,0.57558,0.16975,0.00000,0.02452,0.97832,-0.17605,2023,6,8,14,16,26,983
2.19070,0.52308,-0.16275,0.00000,0.02379,0.97771,-0.17678,2023,6,8,14,16,26,995
2.19080,-0.28192,0.20475,0.00000,0.02269,0.97795,-0.17678,2023,6,8,14,16,27,6
2.19090,-0.24692,0.04725,0.00000,0.02147,0.98015,-0.17690,2023,6,8,14,16,27,17
2.19100,-0.29942,0.02975,0.00000,0.02379,0.97966,-0.17434,2023,6,8,14,16,27,28
2.19110,0.33058,0.02975,0.00000,0.02464,0.97942,-0.17531,2023,6,8,14,16,27,39
2.19120,0.34808,0.02975,0.00000,0.02477,0.97868,-0.17519,2023,6,8,14,16,27,50
2.19130,0.10308,-0.05775,0.00000,0.02586,0.97771,-0.17641,2023,6,8,14,16,27,61
2.19140,-0.12442,-0.04025,0.00000,0.02391,0.97954,-0.17409,2023,6,8,14,16,27,72
2.19150,-0.33442,-0.21525,0.00000,0.02318,0.97661,-0.17580,2023,6,8,14,16,27,83
2.19160,-0.03692,-0.21525,0.00000,0.02318,0.97795,-0.17556,2023,6,8,14,16,27,95
2.19170,-0.17692,0.09975,0.00000,0.02623,0.97832,-0.17544,2023,6,8,14,16,27,106
2.19180,0.29558,0.11725,0.00000,0.02501,0.97673,-0.17653,2023,6,8,14,16,27,117
2.19190,0.08558,-0.04025,0.00000,0.02379,0.97807,-0.17592,2023,6,8,14,16,27,128
2.19200,0.06808,-0.02275,0.00000,0.02391,0.97624,-0.17592,2023,6,8,14,16,27,139
2.19210,-0.00192,-0.26775,0.00000,0.02403,0.97807,-0.17544,2023,6,8,14,16,27,150
2.19220,-0.19442,-0.12775,0.00000,0.02281,0.97441,-0.17629,2023,6,8,14,16,27,161
2.19230,0.31308,0.02975,0.00000,0.02416,0.97746,-0.17483,2023,6,8,14,16,27,172
2.19240,0.22558,0.02975,0.00000,0.02245,0.97917,-0.17483,2023,6,8,14,16,27,183
2.19250,-0.17692,0.01225,0.00000,0.02452,0.97844,-0.17641,2023,6,8,14,16,27,195
2.19260,-0.29942,-0.05775,0.00000,0.02464,0.97637,-0.17605,2023,6,8,14,16,27,206
2.19270,-0.01942,0.04725,0.00000,0.02318,0.97917,-0.17397,2023,6,8,14,16,27,217
2.19280,0.13808,0.15225,0.00000,0.02428,0.97576,-0.17519,2023,6,8,14,16,27,228
2.19290,0.34808,0.15225,0.00000,0.02367,0.97673,-0.17470,2023,6,8,14,16,27,239
2.19300,0.03308,0.02975,0.00000,0.02562,0.97698,-0.17531,2023,6,8,14,16,27,250
2.19310,-0.19442,-0.00525,0.00000,0.02245,0.97795,-0.17666,2023,6,8,14,16,27,261
2.19320,-0.00192,-0.09275,0.00000,0.02379,0.97588,-0.17605,2023,6,8,14,16,27,272
2.19330,-0.17692,0.04725,0.00000,0.02452,0.97539,-0.17385,2023,6,8,14,16,27,283
2.19340,-0.00192,0.20475,0.00000,0.02403,0.97759,-0.17629,2023,6,8,14,16,27,295
2.19350,0.15558,0.11725,0.00000,0.02208,0.97746,-0.17629,2023,6,8,14,16,27,306
2.19360,0.01558,0.01225,0.00000,0.02403,0.97539,-0.17605,2023,6,8,14,16,27,317
2.19370,-0.17692,-0.14525,0.00000,0.02269,0.97929,-0.17568,2023,6,8,14,16,27,328
2.19380,-0.07192,0.04725,0.00000,0.02477,0.97624,-0.17422,2023,6,8,14,16,27,339
2.19390,-0.01942,0.06475,0.00000,0.02342,0.97868,-0.17495,2023,6,8,14,16,27,350
2.19400,0.19058,0.27475,0.00000,0.02306,0.97722,-0.17727,2023,6,8,14,16,27,361
2.19410,-0.05442,-0.05775,0.00000,0.02562,0.97807,-0.17653,2023,6,8,14,16,27,372
2.19420,0.10308,-0.04025,0.00000,0.02306,0.97868,-0.17544,2023,6,8,14,16,27,383
2.19430,-0.01942,-0.19775,0.00000,0.02464,0.97759,-0.17544,2023,6,8,14,16,27,395
2.19440,-0.07192,-0.00525,0.00000,0.02355,0.97746,-0.17483,2023,6,8,14,16,27,406
2.19450,0.10308,0.08225,0.00000,0.02599,0.97966,-0.17495,2023,6,8,14,16,27,417
2.19460,-0.15942,0.23975,0.00000,0.02306,0.97746,-0.17373,2023,6,8,14,16,27,428
2.19470,-0.10692,-0.21525,0.00000,0.02355,0.97795,-0.17556,2023,6,8,14,16,27,439
2.19480,-0.17692,0.02975,0.00000,0.02647,0.97929,-0.17397,2023,6,8,14,16,27,450
2.19490,0.24308,-0.11025,0.00000,0.02440,0.97685,-0.17458,2023,6,8,14,16,27,461
2.19500,0.24308,-0.28525,0.00000,0.02403,0.97612,-0.17544,2023,6,8,14,16,27,472
2.19510,0.17308,0.11725,0.00000,0.02501,0.97807,-0.17678,2023,6,8,14,16,27,483
2.19520,0.03308,-0.12775,0.00000,0.02379,0.97698,-0.17702,2023,6,8,14,16,27,495
2.19530,-0.21192,0.02975,0.00000,0.02379,0.97807,-0.17422,2023,6,8,14,16,27,506
2.19540,-0.21192,0.01225,0.00000,0.02318,0.97856,-0.17458,2023,6,8,14,16,27,517
2.19550,0.05058,0.08225,0.00000,0.02342,0.97820,-0.17361,2023,6,8,14,16,27,528
2.19560,0.27808,-0.19775,0.00000,0.02391,0.97588,-0.17324,2023,6,8,14,16,27,539
2.19570,0.20808,0.11725,0.00000,0.02611,0.97905,-0.17678,2023,6,8,14,16,27,550
2.19580,-0.01942,0.04725,0.00000,0.02611,0.97588,-0.17666,2023,6,8,14,16,27,561
2.19590,-0.28192,0.15225,0.00000,0.02330,0.97783,-0.17458,2023,6,8,14,16,27,572
2.19600,-0.29942,-0.11025,0.00000,0.02330,0.97795,-0.17690,2023,6,8,14,16,27,583
2.19610,0.15558,-0.07525,0.00000,0.02318,0.97771,-0.17324,2023,6,8,14,16,27,595
2.19620,0.01558,0.08225,0.00000,0.02464,0.97868,-0.17495,2023,6,8,14,16,27,606
2.19630,0.05058,-0.05775,0.00000,0.02477,0.97673,-0.17580,2023,6,8,14,16,27,617
2.19640,-0.01942,0.09975,0.00000,0.02477,0.98100,-0.17702,2023,6,8,14,16,27,628
2.19650,0.20808,-0.11025,0.00000,0.02245,0.97868,-0.17568,2023,6,8,14,16,27,639
2.19660,-0.00192,-0.00525,0.00000,0.02403,0.97905,-0.17544,2023,6,8,14,16,27,650
2.19670,-0.24692,-0.00525,0.00000,0.02220,0.98015,-0.17653,2023,6,8,14,16,27,661
2.19680,0.01558,-0.07525,0.00000,0.02355,0.97722,-0.17544,2023,6,8,14,16,27,672
2.19690,0.17308,-0.16275,0.00000,0.02342,0.97868,-0.17678,2023,6,8,14,16,27,683
2.19700,0.26058,-0.05775,0.00000,0.02281,0.97588,-0.17446,2023,6,8,14,16,27,695
2.19710,-0.08942,0.04725,0.00000,0.02452,0.97661,-0.17751,2023,6,8,14,16,27,706
2.19720,-0.12442,0.02975,0.00000,0.02464,0.97820,-0.17544,2023,6,8,14,16,27,717
2.19730,-0.28192,0.08225,0.00000,0.02489,0.97795,-0.17312,2023,6,8,14,16,27,728
2.19740,0.03308,0.04725,0.00000,0.02269,0.97759,-0.17324,2023,6,8,14,16,27,739
2.19750,0.17308,-0.14525,0.00000,0.02245,0.97795,-0.17763,2023,6,8,14,16,27,750
2.19760,0.27808,-0.07525,0.00000,0.02294,0.97881,-0.17702,2023,6,8,14,16,27,761
2.19770,0.08558,0.02975,0.00000,0.02464,0.98064,-0.17495,2023,6,8,14,16,27,772
2.19780,-0.14192,0.04725,0.00000,0.02452,0.97807,-0.17629,2023,6,8,14,16,27,783
2.19790,-0.15942,0.15225,0.00000,0.02562,0.97954,-0.17592,2023,6,8,14,16,27,795
2.19800,-0.21192,-0.04025,0.00000,0.02355,0.97893,-0.17641,2023,6,8,14,16,27,806
2.19810,0.15558,-0.00525,0.00000,0.02501,0.97673,-0.17592,2023,6,8,14,16,27,817
2.19820,0.22558,-0.05775,0.00000,0.02513,0.97820,-0.17580,2023,6,8,14,16,27,828
2.19830,0.10308,-0.18025,0.00000,0.02538,0.97771,-0.17373,2023,6,8,14,16,27,839
2.19840,-0.22942,-0.07525,0.00000,0.02330,0.97698,-0.17495,2023,6,8,14,16,27,850
2.19850,-0.26442,-0.04025,0.00000,0.02525,0.98051,-0.17446,2023,6,8,14,16,27,861
2.19860,-0.15942,0.01225,0.00000,0.02489,0.97698,-0.17483,2023,6,8,14,16,27,872
2.19870,0.06808,0.20475,0.00000,0.02367,0.97490,-0.17348,2023,6,8,14,16,27,883
2.19880,0.24308,-0.16275,0.00000,0.02513,0.97844,-0.17409,2023,6,8,14,16,27,895
2.19890,0.19058,-0.09275,0.00000,0.02403,0.97783,-0.17580,2023,6,8,14,16,27,906
2.19900,-0.14192,-0.16275,0.00000,0.02501,0.97807,-0.17812,2023,6,8,14,16,27,917
2.19910,-0.29942,0.25725,0.00000,0.02586,0.97990,-0.17544,2023,6,8,14,16,27,928
2.19920,-0.00192,-0.00525,0.00000,0.02635,0.97661,-0.17495,2023,6,8,14,16,27,939
2.19930,0.27808,-0.05775,0.00000,0.02416,0.97673,-0.17422,2023,6,8,14,16,27,950
2.19940,0.29558,-0.11025,0.00000,0.02355,0.97807,-0.17287,2023,6,8,14,16,27,961
2.19950,0.06808,0.01225,0.00000,0.02233,0.97807,-0.17556,2023,6,8,14,16,27,972
2.19960,-0.35192,-0.18025,0.00000,0.02269,0.97795,-0.17348,2023,6,8,14,16,27,983
2.19970,-0.14192,0.01225,0.00000,0.02477,0.97807,-0.17458,2023,6,8,14,16,27,995
2.19980,0.19058,-0.09275,0.00000,0.02403,0.98015,-0.17409,2023,6,8,14,16,28,6
2.19990,0.36558,-0.05775,0.00000,0.02440,0.97820,-0.17617,2023,6,8,14,16,28,17
2.20000,-0.15942,-0.02275,0.00000,0.02464,0.97905,-0.17690,2023,6,8,14,16,28,28
2.20010,-0.15942,-0.18025,0.00000,0.02538,0.97929,-0.17263,2023,6,8,14,16,28,39
2.20020,-0.24692,-0.05775,0.00000,0.02355,0.97710,-0.17507,2023,6,8,14,16,28,50
2.20030,0.01558,-0.05775,0.00000,0.02574,0.97515,-0.17214,2023,6,8,14,16,28,61
2.20040,0.10308,0.04725,0.00000,0.02135,0.97868,-0.17544,2023,6,8,14,16,28,72
2.20050,0.08558,0.02975,0.00000,0.02489,0.97771,-0.17483,2023,6,8,14,16,28,83
2.20060,0.10308,-0.16275,0.00000,0.02269,0.97685,-0.17397,2023,6,8,14,16,28,95
2.20070,-0.19442,0.01225,0.00000,0.02464,0.97966,-0.17397,2023,6,8,14,16,28,106
2.20080,-0.05442,0.16975,0.00000,0.02403,0.97661,-0.17556,2023,6,8,14,16,28,117
2.20090,0.26058,-0.21525,0.00000,0.02623,0.97673,-0.17556,2023,6,8,14,16,28,128
2.20100,0.08558,-0.05775,0.00000,0.02355,0.97698,-0.17129,2023,6,8,14,16,28,139
2.20110,-0.05442,0.04725,0.00000,0.02513,0.97612,-0.17592,2023,6,8,14,16,28,150
2.20120,-0.12442,-0.05775,0.00000,0.02464,0.97832,-0.17763,2023,6,8,14,16,28,161
2.20130,-0.00192,-0.05775,0.00000,0.02257,0.98039,-0.17336,2023,6,8,14,16,28,172
2.20140,-0.05442,0.11725,0.00000,0.02501,0.98027,-0.17727,2023,6,8,14,16,28,183
2.20150,-0.08942,0.16975,0.00000,0.02550,0.97637,-0.17495,2023,6,8,14,16,28,195
2.20160,0.10308,-0.05775,0.00000,0.02501,0.97685,-0.17519,2023,6,8,14,16,28,206
2.20170,-0.00192,0.20475,0.00000,0.02562,0.97734,-0.17592,2023,6,8,14,16,28,217
2.20180,0.19058,-0.19775,0.00000,0.02391,0.97734,-0.17373,2023,6,8,14,16,28,228
2.20190,0.33058,-0.02275,0.00000,0.02269,0.97795,-0.17483,2023,6,8,14,16,28,239
2.20200,-0.10692,-0.18025,0.00000,0.02416,0.97502,-0.17641,2023,6,8,14,16,28,250
2.20210,-0.21192,0.27475,0.00000,0.02416,0.97539,-0.17641,2023,6,8,14,16,28,261
2.20220,-0.36942,-0.18025,0.00000,0.02525,0.97917,-0.17373,2023,6,8,14,16,28,272
2.20230,-0.03692,-0.18025,0.00000,0.02464,0.97661,-0.17397,2023,6,8,14,16,28,283
2.20240,0.05058,-0.05775,0.00000,0.02538,0.97868,-0.17348,2023,6,8,14,16,28,295
2.20250,0.29558,0.04725,0.00000,0.02367,0.97649,-0.17519,2023,6,8,14,16,28,306
2.20260,-0.10692,-0.05775,0.00000,0.02257,0.97698,-0.17592,2023,6,8,14,16,28,317
2.20270,-0.36942,-0.05775,0.00000,0.02330,0.97502,-0.17653,2023,6,8,14,16,28,328
2.20280,-0.08942,0.01225,0.00000,0.02440,0.97624,-0.17397,2023,6,8,14,16,28,339
2.20290,0.24308,0.06475,0.00000,0.02220,0.97868,-0.17446,2023,6,8,14,16,28,350
2.20300,0.22558,-0.30275,0.00000,0.02525,0.97759,-0.17470,2023,6,8,14,16,28,361
2.20310,0.17308,-0.09275,0.00000,0.02196,0.97917,-0.17666,2023,6,8,14,16,28,372
2.20320,-0.14192,-0.25025,0.00000,0.02367,0.97893,-0.17385,2023,6,8,14,16,28,383
2.20330,-0.29942,0.15225,0.00000,0.02245,0.97978,-0.17397,2023,6,8,14,16,28,395
2.20340,-0.08942,-0.16275,0.00000,0.02684,0.97759,-0.17507,2023,6,8,14,16,28,406
2.20350,0.17308,0.11725,0.00000,0.02672,0.97502,-0.17617,2023,6,8,14,16,28,417
2.20360,0.24308,0.04725,0.00000,0.02367,0.97893,-0.17592,2023,6,8,14,16,28,428
2.20370,-0.29942,0.15225,0.00000,0.02269,0.97990,-0.17678,2023,6,8,14,16,28,439
2.20380,-0.28192,-0.11025,0.00000,0.02647,0.97868,-0.17300,2023,6,8,14,16,28,450
2.20390,-0.21192,0.04725,0.00000,0.02440,0.97917,-0.17568,2023,6,8,14,16,28,461
2.20400,0.06808,0.09975,0.00000,0.02513,0.97673,-0.17312,2023,6,8,14,16,28,472
2.20410,0.50558,0.04725,0.00000,0.02403,0.97624,-0.17470,2023,6,8,14,16,28,483
2.20420,0.20808,-0.04025,0.00000,0.02342,0.97771,-0.17763,2023,6,8,14,16,28,495
2.20430,-0.47442,-0.11025,0.00000,0.02489,0.97929,-0.17287,2023,6,8,14,16,28,506
2.20440,-0.40442,-0.09275,0.00000,0.02599,0.98027,-0.17312,2023,6,8,14,16,28,517
2.20450,-0.22942,-0.11025,0.00000,0.02464,0.97807,-0.17312,2023,6,8,14,16,28,528
2.20460,0.24308,0.20475,0.00000,0.02708,0.97685,-0.17336,2023,6,8,14,16,28,539
2.20470,0.71558,-0.05775,0.00000,0.02440,0.97783,-0.17531,2023,6,8,14,16,28,550
2.20480,0.34808,-0.21525,0.00000,0.02440,0.97551,-0.17678,2023,6,8,14,16,28,561
2.20490,-0.33442,0.11725,0.00000,0.02428,0.97868,-0.17714,2023,6,8,14,16,28,572
2.20500,-0.68442,-0.09275,0.00000,0.02562,0.97722,-0.17422,2023,6,8,14,16,28,583
2.20510,-0.31692,-0.18025,0.00000,0.02464,0.97612,-0.17446,2023,6,8,14,16,28,595
2.20520,0.20808,0.22225,0.00000,0.02489,0.97807,-0.17556,2023,6,8,14,16,28,606
2.20530,0.57558,0.16975,0.00000,0.02599,0.97868,-0.17544,2023,6,8,14,16,28,617
2.20540,0.47058,-0.05775,0.00000,0.02477,0.97649,-0.17641,2023,6,8,14,16,28,628
2.20550,-0.26442,-0.11025,0.00000,0.02281,0.97844,-0.17678,2023,6,8,14,16,28,639
2.20560,-0.64942,-0.12775,0.00000,0.02684,0.97893,-0.17592,2023,6,8,14,16,28,650
2.20570,-0.33442,0.13475,0.00000,0.02501,0.97844,-0.17336,2023,6,8,14,16,28,661
2.20580,0.08558,0.01225,0.00000,0.02452,0.97576,-0.17434,2023,6,8,14,16,28,672
2.20590,0.24308,0.15225,0.00000,0.02538,0.97893,-0.17409,2023,6,8,14,16,28,683
2.20600,0.59308,-0.12775,0.00000,0.02355,0.97820,-0.17446,2023,6,8,14,16,28,695
2.20610,0.20808,-0.11025,0.00000,0.02489,0.97624,-0.17678,2023,6,8,14,16,28,706
2.20620,-0.47442,-0.04025,0.00000,0.02562,0.97795,-0.17714,2023,6,8,14,16,28,717
2.20630,-0.42192,-0.09275,0.00000,0.02416,0.97710,-0.17434,2023,6,8,14,16,28,728
2.20640,-0.15942,0.11725,0.00000,0.02538,0.97722,-0.17153,2023,6,8,14,16,28,739
2.20650,0.43558,0.08225,0.00000,0.02196,0.97856,-0.17678,2023,6,8,14,16,28,750
2.20660,0.41808,-0.19775,0.00000,0.02428,0.97771,-0.17495,2023,6,8,14,16,28,761
2.20670,-0.31692,0.08225,0.00000,0.02477,0.97771,-0.17483,2023,6,8,14,16,28,772
2.20680,-0.43942,0.08225,0.00000,0.02367,0.97832,-0.17275,2023,6,8,14,16,28,783
2.20690,-0.10692,-0.07525,0.00000,0.02281,0.97795,-0.17495,2023,6,8,14,16,28,795
2.20700,0.15558,0.02975,0.00000,0.02257,0.97856,-0.17495,2023,6,8,14,16,28,806
2.20710,0.20808,0.16975,0.00000,0.02574,0.97759,-0.17385,2023,6,8,14,16,28,817
2.20720,-0.00192,-0.18025,0.00000,0.02257,0.97710,-0.17141,2023,6,8,14,16,28,828
2.20730,0.05058,-0.16275,0.00000,0.02660,0.97515,-0.17458,2023,6,8,14,16,28,839
2.20740,-0.05442,-0.18025,0.00000,0.02391,0.97771,-0.17605,2023,6,8,14,16,28,850
2.20750,-0.12442,0.08225,0.00000,0.02355,0.97954,-0.17605,2023,6,8,14,16,28,861
2.20760,0.01558,-0.19775,0.00000,0.02428,0.97722,-0.17629,2023,6,8,14,16,28,872
2.20770,0.19058,-0.11025,0.00000,0.02538,0.97734,-0.17287,2023,6,8,14,16,28,883
2.20780,-0.12442,-0.19775,0.00000,0.02196,0.97649,-0.17751,2023,6,8,14,16,28,895
2.20790,-0.33442,0.18725,0.00000,0.02416,0.97807,-0.17397,2023,6,8,14,16,28,906
2.20800,-0.14192,0.04725,0.00000,0.02367,0.97856,-0.17446,2023,6,8,14,16,28,917
2.20810,0.52308,0.09975,0.00000,0.02416,0.97795,-0.17434,2023,6,8,14,16,28,928
2.20820,0.20808,-0.04025,0.00000,0.02416,0.97966,-0.17544,2023,6,8,14,16,28,939
2.20830,-0.33442,0.11725,0.00000,0.02220,0.97807,-0.17690,2023,6,8,14,16,28,950
2.20840,-0.24692,-0.12775,0.00000,0.02330,0.97734,-0.17605,2023,6,8,14,16,28,961
2.20850,0.06808,0.09975,0.00000,0.02428,0.97759,-0.17617,2023,6,8,14,16,28,972
2.20860,0.19058,0.13475,0.00000,0.02513,0.97612,-0.17507,2023,6,8,14,16,28,983
2.20870,0.20808,0.09975,0.00000,0.02416,0.97734,-0.17531,2023,6,8,14,16,28,995
2.20880,-0.17692,-0.09275,0.00000,0.02379,0.98003,-0.17690,2023,6,8,14,16,28,6
2.20890,-0.17692,0.13475,0.00000,0.02428,0.97820,-0.17458,2023,6,8,14,16,29,7
2.20900,-0.07192,-0.26775,0.00000,0.02330,0.97661,-0.17666,2023,6,8,14,16,29,18
2.20910,0.06808,0.13475,0.00000,0.02452,0.97966,-0.17653,2023,6,8,14,16,29,29
2.20920,-0.03692,-0.05775,0.00000,0.02513,0.97832,-0.17653,2023,6,8,14,16,29,40
2.20930,0.03308,0.01225,0.00000,0.02367,0.97893,-0.17470,2023,6,8,14,16,29,51
2.20940,-0.15942,-0.11025,0.00000,0.02477,0.97563,-0.17470,2023,6,8,14,16,29,62
2.20950,-0.31692,0.23975,0.00000,0.02586,0.97807,-0.17458,2023,6,8,14,16,29,73
2.20960,0.08558,-0.04025,0.00000,0.02477,0.97746,-0.17605,2023,6,8,14,16,29,85
2.20970,0.29558,0.16975,0.00000,0.02428,0.97710,-0.17446,2023,6,8,14,16,29,96
2.20980,-0.00192,0.01225,0.00000,0.02550,0.97746,-0.17165,2023,6,8,14,16,29,107
2.20990,-0.08942,-0.04025,0.00000,0.02574,0.97685,-0.17788,2023,6,8,14,16,29,118
2.21000,-0.45692,0.22225,0.00000,0.02477,0.97820,-0.17409,2023,6,8,14,16,29,129
2.21010,-0.03692,-0.05775,0.00000,0.02050,0.97832,-0.17312,2023,6,8,14,16,29,140
2.21020,0.31308,-0.09275,0.00000,0.02708,0.97966,-0.17702,2023,6,8,14,16,29,151
2.21030,0.36558,-0.19775,0.00000,0.02318,0.97576,-0.17592,2023,6,8,14,16,29,162
2.21040,-0.01942,-0.02275,0.00000,0.02599,0.97856,-0.17629,2023,6,8,14,16,29,173
2.21050,-0.19442,-0.12775,0.00000,0.02428,0.97722,-0.17556,2023,6,8,14,16,29,185
2.21060,0.08558,-0.04025,0.00000,0.02477,0.97881,-0.17373,2023,6,8,14,16,29,196
2.21070,-0.12442,0.18725,0.00000,0.02379,0.97820,-0.17422,2023,6,8,14,16,29,207
2.21080,0.26058,-0.00525,0.00000,0.02586,0.97734,-0.17446,2023,6,8,14,16,29,218
2.21090,0.05058,0.01225,0.00000,0.02623,0.97795,-0.17495,2023,6,8,14,16,29,229
2.21100,0.03308,0.08225,0.00000,0.02501,0.97893,-0.17666,2023,6,8,14,16,29,240
2.21110,-0.12442,0.01225,0.00000,0.02525,0.97820,-0.17605,2023,6,8,14,16,29,251
2.21120,-0.05442,0.06475,0.00000,0.02623,0.97844,-0.17653,2023,6,8,14,16,29,262
2.21130,-0.03692,0.09975,0.00000,0.02440,0.97710,-0.17495,2023,6,8,14,16,29,273
2.21140,0.15558,-0.00525,0.00000,0.02428,0.97698,-0.17458,2023,6,8,14,16,29,285
2.21150,-0.03692,0.01225,0.00000,0.02464,0.97698,-0.17446,2023,6,8,14,16,29,296
2.21160,-0.00192,-0.12775,0.00000,0.02428,0.97966,-0.17422,2023,6,8,14,16,29,307
2.21170,-0.03692,0.06475,0.00000,0.02464,0.97746,-0.17495,2023,6,8,14,16,29,318
2.21180,0.06808,0.02975,0.00000,0.02416,0.97746,-0.17592,2023,6,8,14,16,29,329
2.21190,0.24308,-0.04025,0.00000,0.02464,0.97600,-0.17397,2023,6,8,14,16,29,340
2.21200,-0.10692,0.06475,0.00000,0.02245,0.97856,-0.17702,2023,6,8,14,16,29,351
2.21210,-0.07192,0.02975,0.00000,0.02318,0.97905,-0.17385,2023,6,8,14,16,29,362
2.21220,-0.19442,0.04725,0.00000,0.02245,0.97856,-0.17568,2023,6,8,14,16,29,373
2.21230,-0.15942,0.09975,0.00000,0.02501,0.97637,-0.17544,2023,6,8,14,16,29,385
2.21240,-0.19442,-0.26775,0.00000,0.02342,0.97661,-0.17678,2023,6,8,14,16,29,396
2.21250,0.05058,-0.09275,0.00000,0.02269,0.97722,-0.17629,2023,6,8,14,16,29,407
2.21260,0.08558,0.02975,0.00000,0.02245,0.97539,-0.17592,2023,6,8,14,16,29,418
2.21270,0.10308,0.18725,0.00000,0.02599,0.97734,-0.17580,2023,6,8,14,16,29,429
2.21280,-0.00192,0.08225,0.00000,0.02233,0.97722,-0.17568,2023,6,8,14,16,29,440
2.21290,-0.07192,-0.04025,0.00000,0.02355,0.97832,-0.17556,2023,6,8,14,16,29,451
2.21300,0.03308,0.11725,0.00000,0.02318,0.97905,-0.17348,2023,6,8,14,16,29,462
2.21310,0.06808,-0.04025,0.00000,0.02318,0.97966,-0.17556,2023,6,8,14,16,29,473
2.21320,0.01558,-0.02275,0.00000,0.02391,0.97637,-0.17580,2023,6,8,14,16,29,485
2.21330,-0.29942,0.15225,0.00000,0.02294,0.97795,-0.17519,2023,6,8,14,16,29,496
2.21340,-0.00192,-0.04025,0.00000,0.02342,0.97881,-0.17263,2023,6,8,14,16,29,507
2.21350,0.05058,0.06475,0.00000,0.02233,0.97502,-0.17312,2023,6,8,14,16,29,518
2.21360,0.17308,-0.18025,0.00000,0.02611,0.97893,-0.17507,2023,6,8,14,16,29,529
2.21370,0.19058,-0.37275,0.00000,0.02257,0.97844,-0.17580,2023,6,8,14,16,29,540
2.21380,-0.26442,0.01225,0.00000,0.02342,0.97905,-0.17422,2023,6,8,14,16,29,551
2.21390,-0.17692,-0.12775,0.00000,0.02452,0.97759,-0.17275,2023,6,8,14,16,29,562
2.21400,0.22558,-0.16275,0.00000,0.02538,0.97978,-0.17251,2023,6,8,14,16,29,573
2.21410,0.33058,0.13475,0.00000,0.02403,0.97637,-0.17458,2023,6,8,14,16,29,585
2.21420,0.15558,-0.21525,0.00000,0.02623,0.97551,-0.17812,2023,6,8,14,16,29,596
2.21430,-0.08942,-0.12775,0.00000,0.02403,0.98003,-0.17605,2023,6,8,14,16,29,607
2.21440,-0.47442,-0.05775,0.00000,0.02269,0.97746,-0.17580,2023,6,8,14,16,29,618
2.21450,-0.00192,-0.09275,0.00000,0.02599,0.97661,-0.17434,2023,6,8,14,16,29,629
2.21460,0.22558,-0.16275,0.00000,0.02550,0.97844,-0.17422,2023,6,8,14,16,29,640
2.21470,0.22558,0.09975,0.00000,0.02513,0.97820,-0.17666,2023,6,8,14,16,29,651
2.21480,0.03308,-0.05775,0.00000,0.02306,0.97893,-0.17739,2023,6,8,14,16,29,662
2.21490,-0.33442,-0.07525,0.00000,0.02440,0.97954,-0.17739,2023,6,8,14,16,29,673
2.21500,-0.26442,0.08225,0.00000,0.02306,0.97917,-0.17422,2023,6,8,14,16,29,685
2.21510,0.08558,0.11725,0.00000,0.02245,0.97795,-0.17507,2023,6,8,14,16,29,696
2.21520,0.05058,0.06475,0.00000,0.02574,0.97685,-0.17592,2023,6,8,14,16,29,707
2.21530,0.13808,-0.00525,0.00000,0.02391,0.97868,-0.17409,2023,6,8,14,16,29,718
2.21540,-0.08942,-0.11025,0.00000,0.02489,0.97515,-0.17470,2023,6,8,14,16,29,729
2.21550,-0.14192,-0.05775,0.00000,0.02550,0.97868,-0.17580,2023,6,8,14,16,29,740
2.21560,-0.00192,-0.16275,0.00000,0.02489,0.97795,-0.17397,2023,6,8,14,16,29,751
2.21570,0.29558,-0.00525,0.00000,0.02489,0.97942,-0.17458,2023,6,8,14,16,29,762
2.21580,0.38308,0.04725,0.00000,0.02294,0.97673,-0.17678,2023,6,8,14,16,29,773
2.21590,0.06808,-0.02275,0.00000,0.02477,0.97624,-0.17507,2023,6,8,14,16,29,785
2.21600,-0.50942,0.06475,0.00000,0.02330,0.97771,-0.17519,2023,6,8,14,16,29,796
2.21610,-0.29942,-0.11025,0.00000,0.02574,0.97832,-0.17251,2023,6,8,14,16,29,807
2.21620,-0.05442,-0.21525,0.00000,0.02550,0.97807,-0.17568,2023,6,8,14,16,29,818
2.21630,0.20808,0.11725,0.00000,0.02416,0.97893,-0.17617,2023,6,8,14,16,29,829
2.21640,0.29558,-0.07525,0.00000,0.02416,0.97856,-0.17434,2023,6,8,14,16,29,840
2.21650,0.19058,-0.09275,0.00000,0.02464,0.97868,-0.17519,2023,6,8,14,16,29,851
2.21660,-0.33442,0.13475,0.00000,0.02489,0.97795,-0.17531,2023,6,8,14,16,29,862
2.21670,-0.17692,-0.05775,0.00000,0.02538,0.97856,-0.17275,2023,6,8,14,16,29,873
2.21680,0.01558,0.11725,0.00000,0.02623,0.97661,-0.17373,2023,6,8,14,16,29,885
2.21690,0.45308,-0.05775,0.00000,0.02647,0.97856,-0.17531,2023,6,8,14,16,29,896
2.21700,0.10308,-0.02275,0.00000,0.02379,0.97844,-0.17519,2023,6,8,14,16,29,907
2.21710,0.03308,0.04725,0.00000,0.02452,0.97807,-0.17641,2023,6,8,14,16,29,918
2.21720,-0.31692,0.04725,0.00000,0.02452,0.97881,-0.17519,2023,6,8,14,16,29,929
2.21730,-0.35192,-0.19775,0.00000,0.02586,0.97905,-0.17226,2023,6,8,14,16,29,940
2.21740,-0.08942,0.01225,0.00000,0.02281,0.97905,-0.17422,2023,6,8,14,16,29,951
2.21750,0.22558,-0.04025,0.00000,0.02452,0.97832,-0.17544,2023,6,8,14,16,29,962
2.21760,0.27808,-0.02275,0.00000,0.02440,0.97759,-0.17361,2023,6,8,14,16,29,973
2.21770,-0.07192,-0.05775,0.00000,0.02501,0.97893,-0.17849,2023,6,8,14,16,29,985
2.21780,-0.26442,0.23975,0.00000,0.02428,0.97905,-0.17458,2023,6,8,14,16,29,996
2.21790,-0.14192,0.09975,0.00000,0.02428,0.97795,-0.17617,2023,6,8,14,16,30,7
2.21800,0.03308,-0.02275,0.00000,0.02318,0.97832,-0.17483,2023,6,8,14,16,30,18
2.21810,0.03308,0.01225,0.00000,0.02489,0.97990,-0.17361,2023,6,8,14,16,30,29
2.21820,-0.07192,-0.00525,0.00000,0.02391,0.97722,-0.17519,2023,6,8,14,16,30,40
2.21830,-0.17692,0.01225,0.00000,0.02452,0.97539,-0.17409,2023,6,8,14,16,30,51
2.21840,0.08558,0.02975,0.00000,0.02428,0.97673,-0.17336,2023,6,8,14,16,30,62
2.21850,0.17308,-0.00525,0.00000,0.02513,0.97734,-0.17483,2023,6,8,14,16,30,73
2.21860,0.15558,-0.02275,0.00000,0.02391,0.97685,-0.17714,2023,6,8,14,16,30,85
2.21870,0.08558,-0.04025,0.00000,0.02538,0.97771,-0.17373,2023,6,8,14,16,30,96
2.21880,0.08558,-0.26775,0.00000,0.02233,0.97795,-0.17483,2023,6,8,14,16,30,107
2.21890,-0.22942,-0.05775,0.00000,0.02501,0.97734,-0.17446,2023,6,8,14,16,30,118
2.21900,-0.05442,0.04725,0.00000,0.02440,0.97637,-0.17409,2023,6,8,14,16,30,129
2.21910,0.41808,-0.18025,0.00000,0.02391,0.97698,-0.17287,2023,6,8,14,16,30,140
2.21920,0.15558,0.06475,0.00000,0.02330,0.97905,-0.17678,2023,6,8,14,16,30,151
2.21930,-0.15942,-0.14525,0.00000,0.02440,0.97893,-0.17580,2023,6,8,14,16,30,162
2.21940,-0.26442,0.11725,0.00000,0.02306,0.97734,-0.17434,2023,6,8,14,16,30,173
2.21950,0.06808,0.16975,0.00000,0.02196,0.97771,-0.17446,2023,6,8,14,16,30,185
2.21960,0.05058,-0.18025,0.00000,0.02269,0.97771,-0.17556,2023,6,8,14,16,30,196
2.21970,-0.03692,-0.00525,0.00000,0.02294,0.97868,-0.17812,2023,6,8,14,16,30,207
2.21980,-0.08942,-0.04025,0.00000,0.02452,0.97673,-0.17556,2023,6,8,14,16,30,218
2.21990,0.08558,-0.18025,0.00000,0.02428,0.97722,-0.17397,2023,6,8,14,16,30,229
2.22000,0.05058,0.09975,0.00000,0.02367,0.97673,-0.17422,2023,6,8,14,16,30,240
2.22010,0.15558,-0.18025,0.00000,0.02489,0.97820,-0.17556,2023,6,8,14,16,30,251
2.22020,0.15558,-0.14525,0.00000,0.02428,0.97832,-0.17641,2023,6,8,14,16,30,262
2.22030,-0.19442,0.16975,0.00000,0.02513,0.97929,-0.17653,2023,6,8,14,16,30,273
2.22040,-0.03692,-0.14525,0.00000,0.02111,0.97820,-0.17458,2023,6,8,14,16,30,285
2.22050,0.05058,0.01225,0.00000,0.02318,0.97661,-0.17361,2023,6,8,14,16,30,296
2.22060,0.17308,0.06475,0.00000,0.02440,0.97600,-0.17422,2023,6,8,14,16,30,307
2.22070,0.03308,-0.11025,0.00000,0.02318,0.97807,-0.17397,2023,6,8,14,16,30,318
2.22080,-0.19442,0.20475,0.00000,0.02538,0.97624,-0.17653,2023,6,8,14,16,30,329
2.22090,-0.05442,0.08225,0.00000,0.02355,0.97734,-0.17605,2023,6,8,14,16,30,340
2.22100,0.05058,-0.21525,0.00000,0.02391,0.97734,-0.17409,2023,6,8,14,16,30,351
2.22110,0.08558,0.02975,0.00000,0.02257,0.97661,-0.17385,2023,6,8,14,16,30,362
2.22120,0.10308,-0.12775,0.00000,0.02355,0.97771,-0.17568,2023,6,8,14,16,30,373
2.22130,-0.00192,-0.07525,0.00000,0.02294,0.97661,-0.17568,2023,6,8,14,16,30,385
2.22140,-0.21192,0.08225,0.00000,0.02367,0.97771,-0.17336,2023,6,8,14,16,30,396
2.22150,-0.05442,-0.21525,0.00000,0.02464,0.97710,-0.17580,2023,6,8,14,16,30,407
2.22160,0.22558,-0.09275,0.00000,0.02367,0.97624,-0.17434,2023,6,8,14,16,30,418
2.22170,0.10308,0.08225,0.00000,0.02416,0.97795,-0.17751,2023,6,8,14,16,30,429
2.22180,-0.19442,0.11725,0.00000,0.02501,0.97820,-0.17531,2023,6,8,14,16,30,440
2.22190,-0.29942,0.04725,0.00000,0.02269,0.97942,-0.17422,2023,6,8,14,16,30,451
2.22200,-0.05442,0.15225,0.00000,0.02355,0.97868,-0.17275,2023,6,8,14,16,30,462
2.22210,0.26058,-0.11025,0.00000,0.02635,0.97856,-0.17324,2023,6,8,14,16,30,473
2.22220,0.38308,-0.16275,0.00000,0.02428,0.97832,-0.17385,2023,6,8,14,16,30,485
2.22230,0.29558,0.01225,0.00000,0.02342,0.97856,-0.17531,2023,6,8,14,16,30,496
2.22240,-0.26442,0.08225,0.00000,0.02391,0.97722,-0.17605,2023,6,8,14,16,30,507
2.22250,-0.24692,-0.07525,0.00000,0.02489,0.97954,-0.17641,2023,6,8,14,16,30,518
2.22260,-0.17692,-0.12775,0.00000,0.02379,0.97917,-0.17629,2023,6,8,14,16,30,529
2.22270,-0.01942,-0.04025,0.00000,0.02281,0.98003,-0.17434,2023,6,8,14,16,30,540
2.22280,0.41808,0.02975,0.00000,0.02574,0.97759,-0.17641,2023,6,8,14,16,30,551
2.22290,0.26058,-0.04025,0.00000,0.02342,0.97832,-0.17544,2023,6,8,14,16,30,562
2.22300,-0.08942,-0.02275,0.00000,0.02269,0.97893,-0.17653,2023,6,8,14,16,30,573
2.22310,-0.40442,0.11725,0.00000,0.02342,0.97612,-0.17361,2023,6,8,14,16,30,585
2.22320,-0.03692,0.11725,0.00000,0.02525,0.97722,-0.17324,2023,6,8,14,16,30,596
2.22330,0.13808,0.11725,0.00000,0.02391,0.97868,-0.17495,2023,6,8,14,16,30,607
2.22340,0.12058,0.15225,0.00000,0.02355,0.97990,-0.17507,2023,6,8,14,16,30,618
2.22350,-0.07192,0.18725,0.00000,0.02452,0.97807,-0.17568,2023,6,8,14,16,30,629
2.22360,-0.07192,-0.16275,0.00000,0.02428,0.97600,-0.17812,2023,6,8,14,16,30,640
2.22370,-0.45692,0.11725,0.00000,0.02330,0.97954,-0.17568,2023,6,8,14,16,30,651
2.22380,-0.08942,0.02975,0.00000,0.02403,0.97783,-0.17373,2023,6,8,14,16,30,662
2.22390,0.13808,-0.23275,0.00000,0.02464,0.97661,-0.17544,2023,6,8,14,16,30,673
2.22400,0.26058,-0.09275,0.00000,0.02428,0.97771,-0.17653,2023,6,8,14,16,30,685
2.22410,0.20808,-0.04025,0.00000,0.02428,0.97649,-0.17483,2023,6,8,14,16,30,696
2.22420,-0.01942,-0.04025,0.00000,0.02525,0.97844,-0.17678,2023,6,8,14,16,30,707
2.22430,-0.33442,-0.14525,0.00000,0.02428,0.97856,-0.17470,2023,6,8,14,16,30,718
2.22440,0.13808,-0.16275,0.00000,0.02464,0.97942,-0.17629,2023,6,8,14,16,30,729
2.22450,0.17308,0.09975,0.00000,0.02550,0.97698,-0.17446,2023,6,8,14,16,30,740
2.22460,0.05058,0.02975,0.00000,0.02696,0.97710,-0.17556,2023,6,8,14,16,30,751
2.22470,-0.08942,0.08225,0.00000,0.02257,0.97698,-0.17666,2023,6,8,14,16,30,762
2.22480,-0.08942,-0.02275,0.00000,0.02477,0.97795,-0.17800,2023,6,8,14,16,30,773
2.22490,-0.07192,0.02975,0.00000,0.02562,0.97734,-0.17739,2023,6,8,14,16,30,785
2.22500,0.34808,-0.09275,0.00000,0.02245,0.97746,-0.17568,2023,6,8,14,16,30,796
2.22510,0.06808,0.08225,0.00000,0.02391,0.97807,-0.17678,2023,6,8,14,16,30,807
2.22520,0.15558,0.18725,0.00000,0.02550,0.97807,-0.17629,2023,6,8,14,16,30,818
2.22530,-0.22942,-0.02275,0.00000,0.02428,0.97893,-0.17629,2023,6,8,14,16,30,829
2.22540,-0.21192,0.16975,0.00000,0.02428,0.97990,-0.17458,2023,6,8,14,16,30,840
2.22550,-0.21192,-0.07525,0.00000,0.02635,0.97759,-0.17409,2023,6,8,14,16,30,851
2.22560,0.08558,-0.07525,0.00000,0.02611,0.97807,-0.17422,2023,6,8,14,16,30,862
2.22570,0.13808,0.20475,0.00000,0.02513,0.97795,-0.17800,2023,6,8,14,16,30,873
2.22580,0.13808,0.08225,0.00000,0.02306,0.97478,-0.17678,2023,6,8,14,16,30,885
2.22590,-0.07192,0.04725,0.00000,0.02403,0.97795,-0.17824,2023,6,8,14,16,30,896
2.22600,-0.33442,0.04725,0.00000,0.02440,0.97820,-0.17605,2023,6,8,14,16,30,907
2.22610,-0.07192,0.01225,0.00000,0.02391,0.97661,-0.17605,2023,6,8,14,16,30,918
2.22620,0.08558,0.08225,0.00000,0.02611,0.97881,-0.17678,2023,6,8,14,16,30,929
2.22630,0.17308,-0.19775,0.00000,0.02367,0.97905,-0.17678,2023,6,8,14,16,30,940
2.22640,0.29558,-0.11025,0.00000,0.02367,0.97734,-0.17629,2023,6,8,14,16,30,951
2.22650,-0.00192,-0.23275,0.00000,0.02233,0.97905,-0.17617,2023,6,8,14,16,30,962
2.22660,-0.28192,0.08225,0.00000,0.02355,0.97868,-0.17653,2023,6,8,14,16,30,973
2.22670,-0.08942,-0.02275,0.00000,0.02586,0.97588,-0.17544,2023,6,8,14,16,30,985
2.22680,0.06808,0.11725,0.00000,0.02477,0.97966,-0.17385,2023,6,8,14,16,30,996
2.22690,0.33058,0.01225,0.00000,0.02342,0.97612,-0.17714,2023,6,8,14,16,31,7
2.22700,0.10308,0.13475,0.00000,0.02342,0.97881,-0.17580,2023,6,8,14,16,31,18
2.22710,0.10308,-0.11025,0.00000,0.02391,0.97722,-0.17666,2023,6,8,14,16,31,29
2.22720,0.22558,-0.14525,0.00000,0.02464,0.97759,-0.17812,2023,6,8,14,16,31,40
2.22730,-0.22942,0.11725,0.00000,0.02684,0.97576,-0.17702,2023,6,8,14,16,31,51
2.22740,-0.12442,0.01225,0.00000,0.02501,0.97795,-0.17702,2023,6,8,14,16,31,62
2.22750,0.08558,-0.00525,0.00000,0.02330,0.97844,-0.17434,2023,6,8,14,16,31,73
2.22760,0.17308,-0.11025,0.00000,0.02391,0.98003,-0.17800,2023,6,8,14,16,31,85
2.22770,0.26058,-0.00525,0.00000,0.02513,0.97844,-0.17397,2023,6,8,14,16,31,96
2.22780,0.05058,0.02975,0.00000,0.02257,0.97527,-0.17544,2023,6,8,14,16,31,107
2.22790,0.08558,-0.14525,0.00000,0.02550,0.97734,-0.17605,2023,6,8,14,16,31,118
2.22800,-0.28192,-0.05775,0.00000,0.02574,0.97722,-0.17580,2023,6,8,14,16,31,129
2.22810,-0.15942,-0.14525,0.00000,0.02257,0.97649,-0.17836,2023,6,8,14,16,31,140
2.22820,0.15558,-0.04025,0.00000,0.02330,0.97698,-0.17739,2023,6,8,14,16,31,151
2.22830,0.15558,0.04725,0.00000,0.02318,0.97881,-0.17568,2023,6,8,14,16,31,162
2.22840,0.12058,0.01225,0.00000,0.02403,0.97563,-0.17678,2023,6,8,14,16,31,173
2.22850,-0.07192,0.08225,0.00000,0.02281,0.98039,-0.17873,2023,6,8,14,16,31,185
2.22860,-0.24692,-0.00525,0.00000,0.02660,0.97868,-0.17507,2023,6,8,14,16,31,196
2.22870,-0.07192,0.01225,0.00000,0.02294,0.97954,-0.17739,2023,6,8,14,16,31,207
2.22880,0.17308,-0.14525,0.00000,0.02379,0.97759,-0.17580,2023,6,8,14,16,31,218
2.22890,0.13808,-0.02275,0.00000,0.02269,0.97661,-0.17739,2023,6,8,14,16,31,229
2.22900,0.05058,-0.14525,0.00000,0.02403,0.97746,-0.17690,2023,6,8,14,16,31,240
2.22910,-0.19442,0.13475,0.00000,0.02623,0.97698,-0.17641,2023,6,8,14,16,31,251
2.22920,-0.14192,0.01225,0.00000,0.02452,0.97734,-0.17666,2023,6,8,14,16,31,262
2.22930,0.12058,0.02975,0.00000,0.02428,0.97966,-0.17714,2023,6,8,14,16,31,273
2.22940,0.15558,-0.07525,0.00000,0.02440,0.97966,-0.17788,2023,6,8,14,16,31,285
2.22950,0.13808,0.11725,0.00000,0.02123,0.97917,-0.17824,2023,6,8,14,16,31,296
2.22960,-0.05442,-0.26775,0.00000,0.02355,0.97759,-0.17800,2023,6,8,14,16,31,307
2.22970,-0.15942,-0.23275,0.00000,0.02525,0.97685,-0.17531,2023,6,8,14,16,31,318
2.22980,-0.35192,0.11725,0.00000,0.02501,0.97881,-0.17702,2023,6,8,14,16,31,329
2.22990,0.34808,0.04725,0.00000,0.02184,0.97734,-0.17641,2023,6,8,14,16,31,340
2.23000,0.43558,-0.09275,0.00000,0.02586,0.97515,-0.17775,2023,6,8,14,16,31,351
2.23010,0.36558,-0.14525,0.00000,0.02355,0.97893,-0.17666,2023,6,8,14,16,31,362
2.23020,-0.17692,0.02975,0.00000,0.02342,0.97795,-0.17690,2023,6,8,14,16,31,373
2.23030,-0.26442,-0.32025,0.00000,0.02611,0.97844,-0.17714,2023,6,8,14,16,31,385
2.23040,-0.15942,-0.04025,0.00000,0.02550,0.97783,-0.17556,2023,6,8,14,16,31,396
2.23050,0.20808,-0.12775,0.00000,0.02416,0.98003,-0.17605,2023,6,8,14,16,31,407
2.23060,0.52308,0.02975,0.00000,0.02501,0.97649,-0.17836,2023,6,8,14,16,31,418
2.23070,0.27808,-0.09275,0.00000,0.02367,0.97771,-0.17727,2023,6,8,14,16,31,429
2.23080,-0.38692,-0.00525,0.00000,0.02428,0.97771,-0.17946,2023,6,8,14,16,31,440
2.23090,-0.42192,-0.16275,0.00000,0.02416,0.97868,-0.17483,2023,6,8,14,16,31,451
2.23100,-0.10692,-0.04025,0.00000,0.02367,0.98003,-0.17568,2023,6,8,14,16,31,462
2.23110,0.38308,-0.09275,0.00000,0.02684,0.97649,-0.17629,2023,6,8,14,16,31,473
2.23120,0.36558,0.20475,0.00000,0.02562,0.97698,-0.17812,2023,6,8,14,16,31,485
2.23130,0.08558,0.16975,0.00000,0.02367,0.97759,-0.17983,2023,6,8,14,16,31,496
2.23140,-0.33442,0.01225,0.00000,0.02403,0.97795,-0.17580,2023,6,8,14,16,31,507
2.23150,-0.45692,-0.09275,0.00000,0.02599,0.97746,-0.17702,2023,6,8,14,16,31,518
2.23160,-0.00192,-0.00525,0.00000,0.02294,0.97624,-0.17519,2023,6,8,14,16,31,529
2.23170,0.34808,0.36225,0.00000,0.02428,0.97734,-0.17666,2023,6,8,14,16,31,540
2.23180,0.20808,0.06475,0.00000,0.02196,0.97795,-0.17592,2023,6,8,14,16,31,551
2.23190,-0.00192,0.15225,0.00000,0.02623,0.97844,-0.17824,2023,6,8,14,16,31,562
2.23200,-0.28192,-0.04025,0.00000,0.02391,0.97356,-0.17580,2023,6,8,14,16,31,573
2.23210,-0.08942,-0.18025,0.00000,0.02233,0.97795,-0.17849,2023,6,8,14,16,31,585
2.23220,0.06808,-0.02275,0.00000,0.02574,0.97624,-0.17885,2023,6,8,14,16,31,596
2.23230,0.36558,-0.25025,0.00000,0.02306,0.97502,-0.18019,2023,6,8,14,16,31,607
2.23240,0.27808,0.08225,0.00000,0.02355,0.97917,-0.17788,2023,6,8,14,16,31,618
2.23250,-0.12442,-0.02275,0.00000,0.02489,0.97539,-0.17897,2023,6,8,14,16,31,629
2.23260,-0.31692,-0.21525,0.00000,0.02403,0.97661,-0.17629,2023,6,8,14,16,31,640
2.23270,-0.31692,-0.04025,0.00000,0.02416,0.97722,-0.17409,2023,6,8,14,16,31,651
2.23280,0.15558,0.15225,0.00000,0.02281,0.98003,-0.17617,2023,6,8,14,16,31,662
2.23290,0.62808,-0.04025,0.00000,0.02501,0.97624,-0.17629,2023,6,8,14,16,31,673
2.23300,0.13808,-0.04025,0.00000,0.02794,0.97893,-0.17836,2023,6,8,14,16,31,685
2.23310,-0.12442,-0.19775,0.00000,0.02477,0.97673,-0.17775,2023,6,8,14,16,31,696
2.23320,-0.49192,-0.04025,0.00000,0.02550,0.97844,-0.17531,2023,6,8,14,16,31,707
2.23330,-0.28192,-0.04025,0.00000,0.02403,0.97637,-0.17422,2023,6,8,14,16,31,718
2.23340,0.26058,-0.09275,0.00000,0.02525,0.97905,-0.17544,2023,6,8,14,16,31,729
2.23350,0.33058,0.02975,0.00000,0.02355,0.97783,-0.17580,2023,6,8,14,16,31,740
2.23360,0.20808,0.13475,0.00000,0.02501,0.97929,-0.17592,2023,6,8,14,16,31,751
2.23370,-0.29942,-0.04025,0.00000,0.02538,0.97807,-0.17690,2023,6,8,14,16,31,762
2.23380,-0.33442,-0.05775,0.00000,0.02550,0.97807,-0.17690,2023,6,8,14,16,31,773
2.23390,0.03308,-0.05775,0.00000,0.02281,0.97881,-0.17617,2023,6,8,14,16,31,785
2.23400,0.10308,0.09975,0.00000,0.02513,0.97759,-0.17580,2023,6,8,14,16,31,796
2.23410,0.27808,-0.04025,0.00000,0.02367,0.97722,-0.17897,2023,6,8,14,16,31,807
2.23420,0.15558,-0.07525,0.00000,0.02574,0.97844,-0.17544,2023,6,8,14,16,31,818
2.23430,-0.15942,-0.14525,0.00000,0.02245,0.97722,-0.17666,2023,6,8,14,16,31,829
2.23440,-0.08942,0.11725,0.00000,0.02586,0.97807,-0.17751,2023,6,8,14,16,31,840
2.23450,0.13808,-0.05775,0.00000,0.02538,0.97844,-0.17483,2023,6,8,14,16,31,851
2.23460,0.10308,-0.00525,0.00000,0.02452,0.97795,-0.17641,2023,6,8,14,16,31,862
2.23470,0.15558,-0.12775,0.00000,0.02452,0.97734,-0.17666,2023,6,8,14,16,31,873
2.23480,-0.05442,-0.04025,0.00000,0.02440,0.97868,-0.17763,2023,6,8,14,16,31,885
2.23490,-0.35192,-0.02275,0.00000,0.02379,0.97771,-0.17336,2023,6,8,14,16,31,896
2.23500,-0.00192,-0.07525,0.00000,0.02391,0.97820,-0.17666,2023,6,8,14,16,31,907
2.23510,0.05058,-0.00525,0.00000,0.02525,0.97734,-0.17446,2023,6,8,14,16,31,918
2.23520,0.05058,0.02975,0.00000,0.02355,0.97856,-0.17397,2023,6,8,14,16,31,929
2.23530,0.20808,-0.18025,0.00000,0.02233,0.97807,-0.17568,2023,6,8,14,16,31,940
2.23540,-0.19442,0.08225,0.00000,0.02379,0.98161,-0.17617,2023,6,8,14,16,31,951
2.23550,0.01558,-0.05775,0.00000,0.02379,0.97685,-0.17483,2023,6,8,14,16,31,962
2.23560,0.27808,0.11725,0.00000,0.02269,0.97551,-0.17629,2023,6,8,14,16,31,973
2.23570,0.34808,-0.09275,0.00000,0.02489,0.97942,-0.17531,2023,6,8,14,16,31,985
2.23580,-0.14192,0.13475,0.00000,0.02233,0.97771,-0.17617,2023,6,8,14,16,31,996
2.23590,-0.28192,0.08225,0.00000,0.02196,0.97649,-0.17727,2023,6,8,14,16,32,7
2.23600,-0.15942,-0.04025,0.00000,0.02318,0.97710,-0.17495,2023,6,8,14,16,32,18
2.23610,0.13808,-0.00525,0.00000,0.02599,0.97856,-0.17470,2023,6,8,14,16,32,29
2.23620,0.41808,0.08225,0.00000,0.02586,0.97771,-0.17653,2023,6,8,14,16,32,40
2.23630,0.24308,-0.04025,0.00000,0.02745,0.97624,-0.17653,2023,6,8,14,16,32,51
2.23640,-0.00192,-0.07525,0.00000,0.02367,0.97905,-0.17714,2023,6,8,14,16,32,62
2.23650,-0.19442,-0.02275,0.00000,0.02440,0.97734,-0.17678,2023,6,8,14,16,32,73
2.23660,-0.24692,-0.12775,0.00000,0.02086,0.97661,-0.17617,2023,6,8,14,16,32,85
2.23670,0.12058,0.13475,0.00000,0.02416,0.97710,-0.17592,2023,6,8,14,16,32,96
2.23680,0.48808,-0.16275,0.00000,0.02294,0.97954,-0.17690,2023,6,8,14,16,32,107
2.23690,0.19058,0.01225,0.00000,0.02330,0.97978,-0.17617,2023,6,8,14,16,32,118
2.23700,-0.31692,-0.04025,0.00000,0.02330,0.97856,-0.17641,2023,6,8,14,16,32,129
2.23710,-0.47442,0.02975,0.00000,0.02477,0.97698,-0.17422,2023,6,8,14,16,32,140
2.23720,-0.33442,0.09975,0.00000,0.02306,0.97502,-0.17727,2023,6,8,14,16,32,151
2.23730,0.36558,0.16975,0.00000,0.02440,0.97710,-0.17653,2023,6,8,14,16,32,162
2.23740,0.59308,0.01225,0.00000,0.02403,0.97820,-0.17666,2023,6,8,14,16,32,173
2.23750,0.01558,0.09975,0.00000,0.02281,0.97795,-0.17666,2023,6,8,14,16,32,185
2.23760,-0.49192,0.02975,0.00000,0.02391,0.97722,-0.17641,2023,6,8,14,16,32,196
2.23770,-0.15942,-0.23275,0.00000,0.02196,0.97771,-0.17592,2023,6,8,14,16,32,207
2.23780,0.40058,0.11725,0.00000,0.02330,0.97820,-0.17885,2023,6,8,14,16,32,218
2.23790,0.73308,-0.04025,0.00000,0.02525,0.97539,-0.17788,2023,6,8,14,16,32,229
2.23800,0.24308,-0.09275,0.00000,0.02367,0.97942,-0.17922,2023,6,8,14,16,32,240
2.23810,-0.52692,-0.12775,0.00000,0.02428,0.97710,-0.17861,2023,6,8,14,16,32,251
2.23820,-0.68442,0.02975,0.00000,0.02464,0.97661,-0.17666,2023,6,8,14,16,32,262
2.23830,-0.19442,-0.04025,0.00000,0.02391,0.97746,-0.17458,2023,6,8,14,16,32,273
2.23840,0.47058,-0.05775,0.00000,0.02525,0.97771,-0.17617,2023,6,8,14,16,32,285
2.23850,0.71558,0.06475,0.00000,0.02513,0.97771,-0.17751,2023,6,8,14,16,32,296
2.23860,0.05058,0.16975,0.00000,0.02489,0.97966,-0.17800,2023,6,8,14,16,32,307
2.23870,-0.59692,-0.04025,0.00000,0.02489,0.97710,-0.17666,2023,6,8,14,16,32,318
2.23880,-0.94692,-0.07525,0.00000,0.02306,0.97807,-0.17446,2023,6,8,14,16,32,329
2.23890,0.12058,-0.11025,0.00000,0.02440,0.97588,-0.17605,2023,6,8,14,16,32,340
2.23900,0.75058,0.02975,0.00000,0.02403,0.97710,-0.17544,2023,6,8,14,16,32,351
2.23910,0.76808,0.23975,0.00000,0.02269,0.97759,-0.17800,2023,6,8,14,16,32,362
2.23920,-0.15942,-0.02275,0.00000,0.02245,0.97795,-0.17788,2023,6,8,14,16,32,373
2.23930,-0.66692,-0.16275,0.00000,0.02525,0.97807,-0.17666,2023,6,8,14,16,32,385
2.23940,-0.73692,0.16975,0.00000,0.02379,0.97502,-0.17605,2023,6,8,14,16,32,396
2.23950,0.27808,0.15225,0.00000,0.02379,0.97600,-0.17507,2023,6,8,14,16,32,407
2.23960,0.83808,-0.09275,0.00000,0.02342,0.97856,-0.17483,2023,6,8,14,16,32,418
2.23970,0.54058,-0.07525,0.00000,0.02428,0.97771,-0.17958,2023,6,8,14,16,32,429
2.23980,-0.50942,-0.00525,0.00000,0.02416,0.97795,-0.17983,2023,6,8,14,16,32,440
2.23990,-0.54442,0.06475,0.00000,0.02440,0.97673,-0.17446,2023,6,8,14,16,32,451
2.24000,-0.21192,-0.07525,0.00000,0.02440,0.97576,-0.17385,2023,6,8,14,16,32,462
2.24010,0.50558,0.16975,0.00000,0.02233,0.97746,-0.17531,2023,6,8,14,16,32,473
2.24020,0.69808,-0.21525,0.00000,0.02660,0.97771,-0.17739,2023,6,8,14,16,32,485
2.24030,0.26058,-0.30275,0.00000,0.02550,0.97783,-0.17653,2023,6,8,14,16,32,496
2.24040,-0.47442,0.15225,0.00000,0.02440,0.97771,-0.17641,2023,6,8,14,16,32,507
2.24050,-0.26442,-0.07525,0.00000,0.02489,0.97820,-0.17458,2023,6,8,14,16,32,518
2.24060,0.10308,0.13475,0.00000,0.02159,0.97807,-0.17629,2023,6,8,14,16,32,529
2.24070,0.57558,-0.12775,0.00000,0.02367,0.97868,-0.17483,2023,6,8,14,16,32,540
2.24080,0.15558,-0.00525,0.00000,0.02672,0.97588,-0.17800,2023,6,8,14,16,32,551
2.24090,-0.31692,-0.14525,0.00000,0.02220,0.97881,-0.17739,2023,6,8,14,16,32,562
2.24100,-0.42192,-0.21525,0.00000,0.02306,0.98051,-0.17702,2023,6,8,14,16,32,573
2.24110,-0.35192,0.15225,0.00000,0.02403,0.97832,-0.17678,2023,6,8,14,16,32,585
2.24120,0.19058,0.02975,0.00000,0.02233,0.97771,-0.17592,2023,6,8,14,16,32,596
2.24130,0.34808,-0.04025,0.00000,0.02318,0.97746,-0.17641,2023,6,8,14,16,32,607
2.24140,0.03308,-0.16275,0.00000,0.02355,0.97722,-0.17678,2023,6,8,14,16,32,618
2.24150,-0.24692,0.15225,0.00000,0.02257,0.97917,-0.17629,2023,6,8,14,16,32,629
2.24160,-0.31692,-0.00525,0.00000,0.02391,0.97710,-0.17458,2023,6,8,14,16,32,640
2.24170,0.01558,0.09975,0.00000,0.02477,0.97637,-0.17653,2023,6,8,14,16,32,651
2.24180,0.24308,-0.00525,0.00000,0.02281,0.97637,-0.17849,2023,6,8,14,16,32,662
2.24190,-0.03692,0.16975,0.00000,0.02501,0.97783,-0.17836,2023,6,8,14,16,32,673
2.24200,-0.14192,-0.05775,0.00000,0.02294,0.97832,-0.17507,2023,6,8,14,16,32,685
2.24210,-0.26442,-0.16275,0.00000,0.02367,0.97722,-0.17690,2023,6,8,14,16,32,696
2.24220,-0.01942,-0.11025,0.00000,0.02379,0.97881,-0.17519,2023,6,8,14,16,32,707
2.24230,0.01558,0.01225,0.00000,0.02391,0.97893,-0.17556,2023,6,8,14,16,32,718
2.24240,0.33058,-0.07525,0.00000,0.02611,0.97710,-0.17739,2023,6,8,14,16,32,729
2.24250,0.03308,0.04725,0.00000,0.02416,0.97685,-0.17556,2023,6,8,14,16,32,740
2.24260,-0.28192,0.18725,0.00000,0.02342,0.97759,-0.17483,2023,6,8,14,16,32,751
2.24270,-0.03692,0.04725,0.00000,0.02440,0.97868,-0.17861,2023,6,8,14,16,32,762
2.24280,0.05058,0.16975,0.00000,0.02501,0.97759,-0.17556,2023,6,8,14,16,32,773
2.24290,0.13808,0.02975,0.00000,0.02391,0.97661,-0.17605,2023,6,8,14,16,32,785
2.24300,-0.05442,-0.05775,0.00000,0.02306,0.97734,-0.17617,2023,6,8,14,16,32,796
2.24310,-0.21192,0.06475,0.00000,0.02464,0.97844,-0.17568,2023,6,8,14,16,32,807
2.24320,-0.35192,0.09975,0.00000,0.02696,0.97722,-0.17531,2023,6,8,14,16,32,818
2.24330,-0.12442,-0.07525,0.00000,0.02403,0.97783,-0.17458,2023,6,8,14,16,32,829
2.24340,0.08558,0.09975,0.00000,0.02452,0.97710,-0.17544,2023,6,8,14,16,32,840
2.24350,0.20808,0.02975,0.00000,0.02367,0.97661,-0.17556,2023,6,8,14,16,32,851
2.24360,0.26058,-0.11025,0.00000,0.02696,0.98003,-0.17483,2023,6,8,14,16,32,862
2.24370,-0.19442,-0.00525,0.00000,0.02379,0.97624,-0.17751,2023,6,8,14,16,32,873
2.24380,-0.08942,0.01225,0.00000,0.02318,0.97600,-0.17544,2023,6,8,14,16,32,885
2.24390,-0.21192,-0.02275,0.00000,0.02306,0.97917,-0.17617,2023,6,8,14,16,32,896
2.24400,-0.00192,0.11725,0.00000,0.02220,0.97734,-0.17519,2023,6,8,14,16,32,907
2.24410,0.13808,0.09975,0.00000,0.02379,0.97893,-0.17678,2023,6,8,14,16,32,918
2.24420,-0.29942,0.01225,0.00000,0.02489,0.97832,-0.17605,2023,6,8,14,16,32,929
2.24430,-0.08942,0.06475,0.00000,0.02391,0.97795,-0.17434,2023,6,8,14,16,32,940
2.24440,0.13808,-0.04025,0.00000,0.02538,0.97710,-0.17580,2023,6,8,14,16,32,951
2.24450,0.22558,-0.11025,0.00000,0.02538,0.97551,-0.17519,2023,6,8,14,16,32,962
2.24460,0.06808,-0.09275,0.00000,0.02696,0.97771,-0.17653,2023,6,8,14,16,32,973
2.24470,-0.03692,-0.26775,0.00000,0.02501,0.97820,-0.17666,2023,6,8,14,16,32,985
2.24480,-0.03692,-0.16275,0.00000,0.02501,0.97710,-0.17544,2023,6,8,14,16,32,996
2.24490,0.15558,-0.04025,0.00000,0.02501,0.97588,-0.17544,2023,6,8,14,16,33,7
2.24500,0.01558,0.08225,0.00000,0.02355,0.97881,-0.17470,2023,6,8,14,16,33,18
2.24510,0.19058,0.01225,0.00000,0.02550,0.97637,-0.17495,2023,6,8,14,16,33,29
2.24520,-0.05442,0.13475,0.00000,0.02403,0.97771,-0.17751,2023,6,8,14,16,33,40
2.24530,-0.31692,0.08225,0.00000,0.02233,0.97759,-0.17605,2023,6,8,14,16,33,51
2.24540,-0.19442,-0.09275,0.00000,0.02416,0.97905,-0.17373,2023,6,8,14,16,33,62
2.24550,0.15558,-0.09275,0.00000,0.02342,0.97917,-0.17409,2023,6,8,14,16,33,73
2.24560,0.27808,-0.09275,0.00000,0.02367,0.97929,-0.17629,2023,6,8,14,16,33,85
2.24570,0.08558,0.02975,0.00000,0.02208,0.97978,-0.17556,2023,6,8,14,16,33,96
2.24580,-0.15942,-0.00525,0.00000,0.02477,0.97783,-0.17470,2023,6,8,14,16,33,107
2.24590,-0.14192,-0.09275,0.00000,0.02269,0.97929,-0.17397,2023,6,8,14,16,33,118
2.24600,-0.01942,0.15225,0.00000,0.02501,0.97917,-0.17251,2023,6,8,14,16,33,129
2.24610,0.12058,-0.02275,0.00000,0.02782,0.97710,-0.17336,2023,6,8,14,16,33,140
2.24620,0.15558,0.11725,0.00000,0.02489,0.97771,-0.17409,2023,6,8,14,16,33,151
2.24630,0.13808,-0.00525,0.00000,0.02391,0.97881,-0.17483,2023,6,8,14,16,33,162
2.24640,-0.01942,0.01225,0.00000,0.02538,0.97795,-0.17568,2023,6,8,14,16,33,173
2.24650,0.13808,0.25725,0.00000,0.02367,0.97600,-0.17300,2023,6,8,14,16,33,185
2.24660,0.01558,0.06475,0.00000,0.02367,0.97844,-0.17617,2023,6,8,14,16,33,196
2.24670,0.17308,-0.18025,0.00000,0.02330,0.97759,-0.17495,2023,6,8,14,16,33,207
2.24680,0.15558,0.09975,0.00000,0.02513,0.97820,-0.17580,2023,6,8,14,16,33,218
2.24690,-0.07192,-0.07525,0.00000,0.02403,0.97820,-0.17568,2023,6,8,14,16,33,229
2.24700,-0.07192,0.04725,0.00000,0.02513,0.97868,-0.17580,2023,6,8,14,16,33,240
2.24710,0.03308,-0.00525,0.00000,0.02416,0.97881,-0.17470,2023,6,8,14,16,33,251
2.24720,0.12058,-0.12775,0.00000,0.02379,0.97722,-0.17324,2023,6,8,14,16,33,262
2.24730,0.08558,0.04725,0.00000,0.02294,0.97942,-0.17653,2023,6,8,14,16,33,273
2.24740,0.13808,-0.00525,0.00000,0.02452,0.97661,-0.17507,2023,6,8,14,16,33,285
2.24750,-0.12442,0.08225,0.00000,0.02464,0.97942,-0.17592,2023,6,8,14,16,33,296
2.24760,-0.28192,-0.04025,0.00000,0.02355,0.97881,-0.17519,2023,6,8,14,16,33,307
2.24770,-0.12442,-0.09275,0.00000,0.02489,0.97856,-0.17483,2023,6,8,14,16,33,318
2.24780,0.26058,-0.02275,0.00000,0.02428,0.97893,-0.17507,2023,6,8,14,16,33,329
2.24790,0.06808,-0.00525,0.00000,0.02367,0.97832,-0.17519,2023,6,8,14,16,33,340
2.24800,0.12058,-0.16275,0.00000,0.02416,0.97637,-0.17580,2023,6,8,14,16,33,351
2.24810,-0.08942,0.02975,0.00000,0.02428,0.97624,-0.17666,2023,6,8,14,16,33,362
2.24820,-0.43942,0.02975,0.00000,0.02574,0.97795,-0.17531,2023,6,8,14,16,33,373
2.24830,0.24308,-0.21525,0.00000,0.02538,0.97783,-0.17348,2023,6,8,14,16,33,385
2.24840,0.27808,-0.02275,0.00000,0.02416,0.97661,-0.17714,2023,6,8,14,16,33,396
2.24850,0.38308,-0.04025,0.00000,0.02257,0.98015,-0.17714,2023,6,8,14,16,33,407
2.24860,-0.19442,-0.11025,0.00000,0.02391,0.97746,-0.17605,2023,6,8,14,16,33,418
2.24870,-0.47442,0.02975,0.00000,0.02489,0.97661,-0.17580,2023,6,8,14,16,33,429
2.24880,-0.35192,0.11725,0.00000,0.02367,0.97881,-0.17422,2023,6,8,14,16,33,440
2.24890,0.48808,-0.05775,0.00000,0.02403,0.97515,-0.17653,2023,6,8,14,16,33,451
2.24900,0.33058,-0.16275,0.00000,0.02513,0.97881,-0.17653,2023,6,8,14,16,33,462
2.24910,-0.07192,-0.04025,0.00000,0.02330,0.97722,-0.17641,2023,6,8,14,16,33,473
2.24920,-0.40442,0.08225,0.00000,0.02428,0.97917,-0.17483,2023,6,8,14,16,33,485
2.24930,-0.07192,-0.18025,0.00000,0.02574,0.97893,-0.17446,2023,6,8,14,16,33,496
2.24940,0.03308,0.11725,0.00000,0.02306,0.97820,-0.17580,2023,6,8,14,16,33,507
2.24950,0.27808,-0.05775,0.00000,0.02550,0.97685,-0.17446,2023,6,8,14,16,33,518
2.24960,0.22558,0.09975,0.00000,0.02477,0.97722,-0.17556,2023,6,8,14,16,33,529
2.24970,-0.52692,0.04725,0.00000,0.02660,0.97807,-0.17580,2023,6,8,14,16,33,540
2.24980,-0.64942,-0.16275,0.00000,0.02501,0.97637,-0.17495,2023,6,8,14,16,33,551
2.24990,-0.17692,-0.07525,0.00000,0.02489,0.97734,-0.17470,2023,6,8,14,16,33,562
2.25000,0.76808,0.01225,0.00000,0.02355,0.98039,-0.17385,2023,6,8,14,16,33,573
2.25010,0.73308,0.15225,0.00000,0.02525,0.97746,-0.17727,2023,6,8,14,16,33,585
2.25020,0.12058,-0.05775,0.00000,0.02623,0.97710,-0.17544,2023,6,8,14,16,33,596
2.25030,-0.73692,0.01225,0.00000,0.02428,0.98064,-0.17348,2023,6,8,14,16,33,607
2.25040,-0.73692,-0.05775,0.00000,0.02586,0.97722,-0.17263,2023,6,8,14,16,33,618
2.25050,0.10308,-0.09275,0.00000,0.02647,0.97795,-0.17190,2023,6,8,14,16,33,629
2.25060,0.64558,0.08225,0.00000,0.02501,0.97685,-0.17580,2023,6,8,14,16,33,640
2.25070,0.73308,0.02975,0.00000,0.02416,0.97746,-0.17788,2023,6,8,14,16,33,651
2.25080,0.20808,-0.21525,0.00000,0.02416,0.97807,-0.17910,2023,6,8,14,16,33,662
2.25090,-0.87692,-0.12775,0.00000,0.02330,0.97844,-0.17641,2023,6,8,14,16,33,673
2.25100,-1.01692,0.22225,0.00000,0.02098,0.97893,-0.17690,2023,6,8,14,16,33,685
2.25110,0.01558,0.01225,0.00000,0.02440,0.97820,-0.17348,2023,6,8,14,16,33,696
2.25120,1.03058,-0.21525,0.00000,0.02428,0.97698,-0.17458,2023,6,8,14,16,33,707
2.25130,0.99558,0.32725,0.00000,0.02257,0.97905,-0.17727,2023,6,8,14,16,33,718
2.25140,-0.00192,0.11725,0.00000,0.02477,0.97722,-0.17617,2023,6,8,14,16,33,729
2.25150,-1.24442,-0.11025,0.00000,0.02403,0.97783,-0.17629,2023,6,8,14,16,33,740
2.25160,-0.85942,-0.02275,0.00000,0.02452,0.97624,-0.17275,2023,6,8,14,16,33,751
2.25170,0.40058,-0.07525,0.00000,0.02342,0.97734,-0.17300,2023,6,8,14,16,33,762
2.25180,1.08308,0.08225,0.00000,0.02635,0.97868,-0.17544,2023,6,8,14,16,33,773
2.25190,0.66308,0.11725,0.00000,0.02489,0.97661,-0.17775,2023,6,8,14,16,33,785
2.25200,-0.50942,-0.12775,0.00000,0.02611,0.97807,-0.17702,2023,6,8,14,16,33,796
2.25210,-1.06942,-0.14525,0.00000,0.02184,0.97771,-0.17580,2023,6,8,14,16,33,807
2.25220,-0.75442,-0.16275,0.00000,0.02599,0.98015,-0.17092,2023,6,8,14,16,33,818
2.25230,0.48808,-0.00525,0.00000,0.02464,0.97978,-0.17592,2023,6,8,14,16,33,829
2.25240,1.10058,0.09975,0.00000,0.02367,0.97746,-0.17556,2023,6,8,14,16,33,840
2.25250,0.59308,0.16975,0.00000,0.02342,0.97807,-0.17897,2023,6,8,14,16,33,851
2.25260,-0.56192,-0.30275,0.00000,0.02440,0.97722,-0.17910,2023,6,8,14,16,33,862
2.25270,-1.13942,-0.09275,0.00000,0.02281,0.97710,-0.17348,2023,6,8,14,16,33,873
2.25280,-0.33442,-0.09275,0.00000,0.02611,0.97478,-0.17239,2023,6,8,14,16,33,885
2.25290,0.89058,-0.02275,0.00000,0.02586,0.97698,-0.17336,2023,6,8,14,16,33,896
2.25300,1.15308,0.02975,0.00000,0.02440,0.97795,-0.17641,2023,6,8,14,16,33,907
2.25310,0.10308,-0.19775,0.00000,0.02538,0.97905,-0.17861,2023,6,8,14,16,33,918
2.25320,-0.96442,-0.19775,0.00000,0.02464,0.97820,-0.17580,2023,6,8,14,16,33,929
2.25330,-1.01692,0.13475,0.00000,0.02440,0.97746,-0.17519,2023,6,8,14,16,33,940
2.25340,-0.01942,0.02975,0.00000,0.02477,0.97783,-0.17300,2023,6,8,14,16,33,951
2.25350,0.94308,0.06475,0.00000,0.02440,0.97661,-0.17544,2023,6,8,14,16,33,962
2.25360,0.80308,0.06475,0.00000,0.02599,0.97783,-0.17751,2023,6,8,14,16,33,973
2.25370,-0.12442,0.08225,0.00000,0.02245,0.97734,-0.17763,2023,6,8,14,16,33,985
2.25380,-0.96442,-0.16275,0.00000,0.02367,0.97624,-0.17763,2023,6,8,14,16,33,996
2.25390,-0.70192,-0.00525,0.00000,0.02452,0.97710,-0.17312,2023,6,8,14,16,34,7
2.25400,0.47058,-0.02275,0.00000,0.02379,0.97698,-0.17458,2023,6,8,14,16,34,18
2.25410,0.68058,0.15225,0.00000,0.02501,0.97795,-0.17653,2023,6,8,14,16,34,29
2.25420,0.73308,0.08225,0.00000,0.02318,0.97832,-0.17958,2023,6,8,14,16,34,40
2.25430,-0.26442,-0.14525,0.00000,0.02489,0.97661,-0.17763,2023,6,8,14,16,34,51
2.25440,-0.70192,0.02975,0.00000,0.02440,0.97637,-0.17605,2023,6,8,14,16,34,62
2.25450,-0.10692,0.23975,0.00000,0.02391,0.97783,-0.17470,2023,6,8,14,16,34,73
2.25460,0.41808,0.15225,0.00000,0.02330,0.97734,-0.17775,2023,6,8,14,16,34,85
2.25470,0.68058,-0.07525,0.00000,0.02672,0.97832,-0.17702,2023,6,8,14,16,34,96
2.25480,0.10308,-0.09275,0.00000,0.02452,0.97917,-0.17763,2023,6,8,14,16,34,107
2.25490,-0.42192,-0.12775,0.00000,0.02342,0.97807,-0.17678,2023,6,8,14,16,34,118
2.25500,-0.45692,-0.05775,0.00000,0.02245,0.97637,-0.17458,2023,6,8,14,16,34,129
2.25510,-0.21192,-0.02275,0.00000,0.02281,0.97917,-0.17495,2023,6,8,14,16,34,140
2.25520,-0.10692,0.15225,0.00000,0.02269,0.97637,-0.17544,2023,6,8,14,16,34,151
2.25530,0.34808,0.04725,0.00000,0.02355,0.97832,-0.17629,2023,6,8,14,16,34,162
2.25540,0.06808,-0.09275,0.00000,0.02599,0.97905,-0.17727,2023,6,8,14,16,34,173
2.25550,-0.00192,-0.19775,0.00000,0.02513,0.97905,-0.17568,2023,6,8,14,16,34,185
2.25560,-0.10692,-0.12775,0.00000,0.02562,0.97868,-0.17775,2023,6,8,14,16,34,196
2.25570,0.12058,0.02975,0.00000,0.02233,0.97746,-0.17531,2023,6,8,14,16,34,207
2.25580,-0.01942,-0.02275,0.00000,0.02294,0.97783,-0.17592,2023,6,8,14,16,34,218
2.25590,0.05058,-0.04025,0.00000,0.02489,0.97746,-0.17361,2023,6,8,14,16,34,229
2.25600,0.06808,-0.18025,0.00000,0.02440,0.97673,-0.17702,2023,6,8,14,16,34,240
2.25610,0.27808,0.13475,0.00000,0.02489,0.97624,-0.17836,2023,6,8,14,16,34,251
2.25620,0.26058,-0.18025,0.00000,0.02367,0.97771,-0.17629,2023,6,8,14,16,34,262
2.25630,-0.15942,-0.00525,0.00000,0.02257,0.97832,-0.17666,2023,6,8,14,16,34,273
2.25640,-0.35192,-0.16275,0.00000,0.02440,0.97783,-0.17458,2023,6,8,14,16,34,285
2.25650,-0.17692,-0.16275,0.00000,0.02477,0.97942,-0.17556,2023,6,8,14,16,34,296
2.25660,0.38308,0.08225,0.00000,0.02330,0.97746,-0.17556,2023,6,8,14,16,34,307
2.25670,0.19058,-0.02275,0.00000,0.02367,0.97710,-0.17666,2023,6,8,14,16,34,318
2.25680,-0.01942,-0.09275,0.00000,0.02525,0.97771,-0.17666,2023,6,8,14,16,34,329
2.25690,0.05058,-0.14525,0.00000,0.02245,0.97698,-0.17409,2023,6,8,14,16,34,340
2.25700,-0.00192,0.04725,0.00000,0.02464,0.97539,-0.17495,2023,6,8,14,16,34,351
2.25710,0.45308,-0.18025,0.00000,0.02233,0.97563,-0.17666,2023,6,8,14,16,34,362
2.25720,-0.03692,0.01225,0.00000,0.02342,0.97942,-0.17678,2023,6,8,14,16,34,373
2.25730,0.05058,-0.18025,0.00000,0.02330,0.97881,-0.17556,2023,6,8,14,16,34,385
2.25740,0.06808,0.09975,0.00000,0.02452,0.97624,-0.17556,2023,6,8,14,16,34,396
2.25750,0.10308,-0.00525,0.00000,0.02416,0.97685,-0.17763,2023,6,8,14,16,34,407
2.25760,-0.05442,-0.04025,0.00000,0.02355,0.97917,-0.17800,2023,6,8,14,16,34,418
2.25770,-0.08942,-0.09275,0.00000,0.02574,0.98039,-0.17702,2023,6,8,14,16,34,429
2.25780,-0.19442,0.04725,0.00000,0.02586,0.97832,-0.17361,2023,6,8,14,16,34,440
2.25790,0.10308,0.09975,0.00000,0.02708,0.97746,-0.17568,2023,6,8,14,16,34,451
2.25800,-0.01942,0.09975,0.00000,0.02611,0.97649,-0.17629,2023,6,8,14,16,34,462
2.25810,0.40058,0.22225,0.00000,0.02306,0.97881,-0.17519,2023,6,8,14,16,34,473
2.25820,-0.14192,0.09975,0.00000,0.02318,0.97807,-0.17800,2023,6,8,14,16,34,485
2.25830,-0.05442,-0.11025,0.00000,0.02367,0.97734,-0.17458,2023,6,8,14,16,34,496
2.25840,-0.49192,-0.02275,0.00000,0.02440,0.97746,-0.17568,2023,6,8,14,16,34,507
2.25850,0.01558,-0.19775,0.00000,0.02403,0.97624,-0.17629,2023,6,8,14,16,34,518
2.25860,0.24308,-0.04025,0.00000,0.02391,0.97881,-0.17568,2023,6,8,14,16,34,529
2.25870,0.29558,0.06475,0.00000,0.02428,0.97661,-0.17788,2023,6,8,14,16,34,540
2.25880,-0.14192,-0.05775,0.00000,0.02586,0.97624,-0.17678,2023,6,8,14,16,34,551
2.25890,-0.61442,-0.12775,0.00000,0.02745,0.97820,-0.17653,2023,6,8,14,16,34,562
2.25900,-0.26442,-0.07525,0.00000,0.02306,0.97515,-0.17361,2023,6,8,14,16,34,573
2.25910,0.17308,0.13475,0.00000,0.02477,0.98003,-0.17690,2023,6,8,14,16,34,585
2.25920,0.34808,0.01225,0.00000,0.02391,0.97637,-0.17458,2023,6,8,14,16,34,596
2.25930,0.22558,-0.30275,0.00000,0.02355,0.97832,-0.17727,2023,6,8,14,16,34,607
2.25940,-0.33442,0.08225,0.00000,0.02416,0.97661,-0.17775,2023,6,8,14,16,34,618
2.25950,-0.36942,0.08225,0.00000,0.02611,0.97710,-0.17568,2023,6,8,14,16,34,629
2.25960,-0.21192,-0.12775,0.00000,0.02416,0.97551,-0.17434,2023,6,8,14,16,34,640
2.25970,0.24308,0.01225,0.00000,0.02464,0.97942,-0.17739,2023,6,8,14,16,34,651
2.25980,0.36558,-0.04025,0.00000,0.02538,0.97795,-0.17763,2023,6,8,14,16,34,662
2.25990,-0.03692,-0.19775,0.00000,0.02367,0.97759,-0.17641,2023,6,8,14,16,34,673
2.26000,-0.22942,-0.05775,0.00000,0.02477,0.97807,-0.17605,2023,6,8,14,16,34,685
2.26010,-0.31692,0.09975,0.00000,0.02477,0.97746,-0.17507,2023,6,8,14,16,34,696
2.26020,0.17308,0.22225,0.00000,0.02355,0.97929,-0.17507,2023,6,8,14,16,34,707
2.26030,0.48808,-0.04025,0.00000,0.02647,0.97673,-0.17397,2023,6,8,14,16,34,718
2.26040,0.27808,0.08225,0.00000,0.02403,0.97820,-0.17690,2023,6,8,14,16,34,729
2.26050,-0.19442,-0.04025,0.00000,0.02355,0.97832,-0.17653,2023,6,8,14,16,34,740
2.26060,-0.24692,-0.05775,0.00000,0.02574,0.97771,-0.17495,2023,6,8,14,16,34,751
2.26070,-0.08942,-0.09275,0.00000,0.02379,0.97807,-0.17641,2023,6,8,14,16,34,762
2.26080,0.31308,-0.09275,0.00000,0.02355,0.97698,-0.17519,2023,6,8,14,16,34,773
2.26090,0.36558,-0.04025,0.00000,0.02306,0.97783,-0.17580,2023,6,8,14,16,34,785
2.26100,0.22558,0.16975,0.00000,0.02464,0.97795,-0.17727,2023,6,8,14,16,34,796
2.26110,-0.36942,-0.05775,0.00000,0.02342,0.97881,-0.17458,2023,6,8,14,16,34,807
2.26120,-0.36942,-0.00525,0.00000,0.02257,0.97746,-0.17544,2023,6,8,14,16,34,818
2.26130,-0.14192,0.04725,0.00000,0.02586,0.97722,-0.17263,2023,6,8,14,16,34,829
2.26140,0.29558,0.02975,0.00000,0.02330,0.97710,-0.17385,2023,6,8,14,16,34,840
2.26150,0.29558,-0.00525,0.00000,0.02391,0.97820,-0.17666,2023,6,8,14,16,34,851
2.26160,0.06808,-0.02275,0.00000,0.02318,0.97966,-0.17556,2023,6,8,14,16,34,862
2.26170,-0.10692,-0.02275,0.00000,0.02513,0.97881,-0.17336,2023,6,8,14,16,34,873
2.26180,-0.22942,0.06475,0.00000,0.02538,0.97710,-0.17617,2023,6,8,14,16,34,885
2.26190,-0.03692,-0.04025,0.00000,0.02611,0.97624,-0.17788,2023,6,8,14,16,34,896
2.26200,0.22558,-0.04025,0.00000,0.02562,0.97868,-0.17385,2023,6,8,14,16,34,907
2.26210,-0.00192,0.02975,0.00000,0.02245,0.98003,-0.17422,2023,6,8,14,16,34,918
2.26220,-0.15942,-0.16275,0.00000,0.02281,0.97746,-0.17519,2023,6,8,14,16,34,929
2.26230,-0.03692,0.08225,0.00000,0.02330,0.97978,-0.17434,2023,6,8,14,16,34,940
2.26240,0.19058,0.18725,0.00000,0.02489,0.98027,-0.17641,2023,6,8,14,16,34,951
2.26250,0.01558,0.23975,0.00000,0.02330,0.97734,-0.17617,2023,6,8,14,16,34,962
2.26260,-0.21192,-0.12775,0.00000,0.02367,0.97820,-0.17373,2023,6,8,14,16,34,973
2.26270,-0.45692,0.22225,0.00000,0.02379,0.97795,-0.17446,2023,6,8,14,16,34,985
2.26280,-0.03692,-0.00525,0.00000,0.02306,0.97539,-0.17483,2023,6,8,14,16,34,996
2.26290,0.27808,0.02975,0.00000,0.02525,0.97807,-0.17641,2023,6,8,14,16,35,7
2.26300,0.24308,0.16975,0.00000,0.02355,0.97844,-0.17544,2023,6,8,14,16,35,18
2.26310,0.05058,-0.14525,0.00000,0.02123,0.97942,-0.17690,2023,6,8,14,16,35,29
2.26320,-0.19442,0.13475,0.00000,0.02355,0.97807,-0.17519,2023,6,8,14,16,35,40
2.26330,-0.21192,-0.04025,0.00000,0.02257,0.97673,-0.17458,2023,6,8,14,16,35,51
2.26340,0.03308,-0.12775,0.00000,0.02416,0.97661,-0.17605,2023,6,8,14,16,35,62
2.26350,0.43558,-0.00525,0.00000,0.02233,0.97868,-0.17556,2023,6,8,14,16,35,73
2.26360,0.20808,-0.00525,0.00000,0.02245,0.97844,-0.17336,2023,6,8,14,16,35,85
2.26370,-0.08942,0.08225,0.00000,0.02403,0.97820,-0.17483,2023,6,8,14,16,35,96
2.26380,-0.19442,0.02975,0.00000,0.02428,0.97637,-0.17446,2023,6,8,14,16,35,107
2.26390,-0.12442,0.13475,0.00000,0.02550,0.97746,-0.17446,2023,6,8,14,16,35,118
2.26400,0.15558,0.37975,0.00000,0.02489,0.97746,-0.17556,2023,6,8,14,16,35,129
2.26410,0.17308,0.04725,0.00000,0.02281,0.97429,-0.17629,2023,6,8,14,16,35,140
2.26420,-0.07192,-0.07525,0.00000,0.02318,0.97759,-0.17519,2023,6,8,14,16,35,151
2.26430,-0.28192,0.08225,0.00000,0.02452,0.97600,-0.17458,2023,6,8,14,16,35,162
2.26440,-0.00192,-0.02275,0.00000,0.02306,0.97624,-0.17470,2023,6,8,14,16,35,173
2.26450,0.15558,0.11725,0.00000,0.02306,0.97417,-0.17373,2023,6,8,14,16,35,185
2.26460,0.36558,0.02975,0.00000,0.02538,0.97734,-0.17641,2023,6,8,14,16,35,196
2.26470,-0.00192,0.01225,0.00000,0.02330,0.97832,-0.17470,2023,6,8,14,16,35,207
2.26480,-0.22942,0.04725,0.00000,0.02538,0.97893,-0.17483,2023,6,8,14,16,35,218
2.26490,0.06808,0.08225,0.00000,0.02318,0.97612,-0.17483,2023,6,8,14,16,35,229
2.26500,0.08558,-0.00525,0.00000,0.02525,0.97685,-0.17556,2023,6,8,14,16,35,240
2.26510,0.03308,0.20475,0.00000,0.02489,0.97954,-0.17763,2023,6,8,14,16,35,251
2.26520,-0.19442,-0.05775,0.00000,0.02477,0.97759,-0.17373,2023,6,8,14,16,35,262
2.26530,-0.03692,0.34475,0.00000,0.02440,0.97795,-0.17324,2023,6,8,14,16,35,273
2.26540,-0.00192,0.01225,0.00000,0.02367,0.97832,-0.17544,2023,6,8,14,16,35,285
2.26550,0.26058,-0.09275,0.00000,0.02306,0.97673,-0.17458,2023,6,8,14,16,35,296
2.26560,0.20808,-0.09275,0.00000,0.02294,0.97563,-0.17361,2023,6,8,14,16,35,307
2.26570,0.08558,-0.04025,0.00000,0.02440,0.97759,-0.17446,2023,6,8,14,16,35,318
2.26580,0.13808,-0.05775,0.00000,0.02391,0.97710,-0.17336,2023,6,8,14,16,35,329
2.26590,0.03308,0.01225,0.00000,0.02611,0.97637,-0.17531,2023,6,8,14,16,35,340
2.26600,0.20808,-0.21525,0.00000,0.02550,0.97746,-0.17592,2023,6,8,14,16,35,351
2.26610,-0.03692,0.08225,0.00000,0.02306,0.97954,-0.17470,2023,6,8,14,16,35,362
2.26620,-0.01942,-0.00525,0.00000,0.02306,0.97795,-0.17580,2023,6,8,14,16,35,373
2.26630,-0.10692,0.22225,0.00000,0.02501,0.97710,-0.17739,2023,6,8,14,16,35,385
2.26640,0.01558,-0.02275,0.00000,0.02501,0.97795,-0.17483,2023,6,8,14,16,35,396
2.26650,-0.17692,-0.21525,0.00000,0.02355,0.97868,-0.17690,2023,6,8,14,16,35,407
2.26660,0.26058,0.08225,0.00000,0.02464,0.97893,-0.17580,2023,6,8,14,16,35,418
2.26670,0.08558,0.13475,0.00000,0.02452,0.97710,-0.17641,2023,6,8,14,16,35,429
2.26680,-0.22942,0.20475,0.00000,0.02513,0.97673,-0.17592,2023,6,8,14,16,35,440
2.26690,-0.21192,-0.16275,0.00000,0.02330,0.97661,-0.17409,2023,6,8,14,16,35,451
2.26700,-0.22942,0.18725,0.00000,0.02281,0.97942,-0.17300,2023,6,8,14,16,35,462
2.26710,0.10308,-0.07525,0.00000,0.02538,0.97954,-0.17385,2023,6,8,14,16,35,473
2.26720,0.10308,0.13475,0.00000,0.02403,0.97612,-0.17727,2023,6,8,14,16,35,485
2.26730,0.12058,0.02975,0.00000,0.02550,0.97710,-0.17714,2023,6,8,14,16,35,496
2.26740,-0.21192,0.22225,0.00000,0.02184,0.97649,-0.17507,2023,6,8,14,16,35,507
2.26750,0.03308,0.01225,0.00000,0.02586,0.97710,-0.17446,2023,6,8,14,16,35,518
2.26760,-0.05442,-0.02275,0.00000,0.02367,0.97929,-0.17641,2023,6,8,14,16,35,529
2.26770,0.06808,0.11725,0.00000,0.02342,0.97734,-0.17775,2023,6,8,14,16,35,540
2.26780,-0.05442,0.18725,0.00000,0.02257,0.97649,-0.17409,2023,6,8,14,16,35,551
2.26790,-0.03692,0.18725,0.00000,0.02196,0.97905,-0.17495,2023,6,8,14,16,35,562
2.26800,-0.00192,-0.18025,0.00000,0.02464,0.97673,-0.17348,2023,6,8,14,16,35,573
2.26810,-0.12442,-0.04025,0.00000,0.02220,0.98027,-0.17495,2023,6,8,14,16,35,585
2.26820,-0.01942,0.20475,0.00000,0.02538,0.97734,-0.17568,2023,6,8,14,16,35,596
2.26830,-0.00192,0.01225,0.00000,0.02342,0.97478,-0.17556,2023,6,8,14,16,35,607
2.26840,-0.00192,-0.12775,0.00000,0.02367,0.97661,-0.17385,2023,6,8,14,16,35,618
2.26850,0.06808,-0.14525,0.00000,0.02391,0.97734,-0.17629,2023,6,8,14,16,35,629
2.26860,0.08558,-0.09275,0.00000,0.02464,0.97832,-0.17483,2023,6,8,14,16,35,640
2.26870,0.20808,-0.23275,0.00000,0.02245,0.97795,-0.17434,2023,6,8,14,16,35,651
2.26880,0.10308,0.30975,0.00000,0.02538,0.97673,-0.17531,2023,6,8,14,16,35,662
2.26890,0.08558,0.06475,0.00000,0.02440,0.97954,-0.17385,2023,6,8,14,16,35,673
2.26900,-0.01942,0.13475,0.00000,0.02233,0.97929,-0.17422,2023,6,8,14,16,35,685
2.26910,-0.14192,0.09975,0.00000,0.02489,0.97795,-0.17592,2023,6,8,14,16,35,696
2.26920,-0.22942,-0.14525,0.00000,0.02586,0.97661,-0.17458,2023,6,8,14,16,35,707
2.26930,0.06808,0.16975,0.00000,0.02403,0.97649,-0.17495,2023,6,8,14,16,35,718
2.26940,-0.01942,-0.00525,0.00000,0.02428,0.97490,-0.17592,2023,6,8,14,16,35,729
2.26950,0.06808,0.11725,0.00000,0.02306,0.97881,-0.17397,2023,6,8,14,16,35,740
2.26960,-0.17692,0.01225,0.00000,0.02574,0.97698,-0.17580,2023,6,8,14,16,35,751
2.26970,-0.05442,-0.07525,0.00000,0.02538,0.97844,-0.17507,2023,6,8,14,16,35,762
2.26980,0.19058,0.02975,0.00000,0.02660,0.97600,-0.17397,2023,6,8,14,16,35,773
2.26990,0.15558,0.09975,0.00000,0.02330,0.97905,-0.17507,2023,6,8,14,16,35,785
2.27000,0.10308,0.01225,0.00000,0.02538,0.97685,-0.17653,2023,6,8,14,16,35,796
2.27010,-0.12442,0.11725,0.00000,0.02489,0.97807,-0.17519,2023,6,8,14,16,35,807
2.27020,-0.21192,0.08225,0.00000,0.02452,0.97466,-0.17446,2023,6,8,14,16,35,818
2.27030,-0.01942,-0.25025,0.00000,0.02330,0.97820,-0.17422,2023,6,8,14,16,35,829
2.27040,-0.10692,-0.05775,0.00000,0.02367,0.97868,-0.17397,2023,6,8,14,16,35,840
2.27050,0.22558,-0.18025,0.00000,0.02660,0.97868,-0.17483,2023,6,8,14,16,35,851
2.27060,0.05058,-0.12775,0.00000,0.02550,0.97771,-0.17519,2023,6,8,14,16,35,862
2.27070,0.12058,0.16975,0.00000,0.02355,0.97807,-0.17409,2023,6,8,14,16,35,873
2.27080,0.20808,0.06475,0.00000,0.02403,0.97685,-0.17702,2023,6,8,14,16,35,885
2.27090,0.20808,0.09975,0.00000,0.02538,0.97966,-0.17324,2023,6,8,14,16,35,896
2.27100,0.01558,0.04725,0.00000,0.02403,0.97807,-0.17483,2023,6,8,14,16,35,907
2.27110,-0.07192,-0.14525,0.00000,0.02403,0.97783,-0.17117,2023,6,8,14,16,35,918
2.27120,0.29558,-0.35525,0.00000,0.02379,0.97685,-0.17458,2023,6,8,14,16,35,929
2.27130,0.13808,0.08225,0.00000,0.02330,0.97929,-0.17592,2023,6,8,14,16,35,940
2.27140,0.06808,-0.04025,0.00000,0.02477,0.97820,-0.17507,2023,6,8,14,16,35,951
2.27150,-0.10692,-0.21525,0.00000,0.02367,0.97600,-0.17605,2023,6,8,14,16,35,962
2.27160,-0.03692,0.15225,0.00000,0.02245,0.97783,-0.17361,2023,6,8,14,16,35,973
2.27170,0.26058,-0.07525,0.00000,0.02477,0.97807,-0.17251,2023,6,8,14,16,35,985
2.27180,0.29558,0.06475,0.00000,0.02379,0.97783,-0.17531,2023,6,8,14,16,35,996
2.27190,-0.10692,-0.04025,0.00000,0.02123,0.98027,-0.17348,2023,6,8,14,16,35,7
2.27200,0.01558,0.01225,0.00000,0.02599,0.97832,-0.17373,2023,6,8,14,16,36,8
2.27210,-0.36942,0.11725,0.00000,0.02330,0.97710,-0.17239,2023,6,8,14,16,36,19
2.27220,-0.19442,0.02975,0.00000,0.02306,0.97917,-0.17495,2023,6,8,14,16,36,30
2.27230,0.19058,0.11725,0.00000,0.02611,0.97722,-0.17653,2023,6,8,14,16,36,41
2.27240,0.10308,0.30975,0.00000,0.02428,0.97844,-0.17495,2023,6,8,14,16,36,52
2.27250,-0.14192,0.15225,0.00000,0.02440,0.97795,-0.17678,2023,6,8,14,16,36,63
2.27260,0.03308,-0.11025,0.00000,0.02379,0.97734,-0.17605,2023,6,8,14,16,36,75
2.27270,-0.17692,0.20475,0.00000,0.02489,0.97881,-0.17556,2023,6,8,14,16,36,86
2.27280,0.13808,-0.05775,0.00000,0.02208,0.97649,-0.17629,2023,6,8,14,16,36,97
2.27290,0.31308,0.02975,0.00000,0.02599,0.97820,-0.17336,2023,6,8,14,16,36,108
2.27300,0.03308,-0.07525,0.00000,0.02428,0.97637,-0.17519,2023,6,8,14,16,36,119
2.27310,-0.14192,0.06475,0.00000,0.02220,0.97978,-0.17592,2023,6,8,14,16,36,130
2.27320,-0.28192,-0.07525,0.00000,0.02330,0.97624,-0.17446,2023,6,8,14,16,36,141
2.27330,0.20808,0.02975,0.00000,0.02501,0.97820,-0.17483,2023,6,8,14,16,36,152
2.27340,0.47058,-0.09275,0.00000,0.02416,0.97734,-0.17385,2023,6,8,14,16,36,163
2.27350,0.22558,-0.00525,0.00000,0.02489,0.97893,-0.17519,2023,6,8,14,16,36,175
2.27360,-0.24692,-0.04025,0.00000,0.02403,0.97734,-0.17556,2023,6,8,14,16,36,186
2.27370,-0.52692,-0.04025,0.00000,0.02452,0.97771,-0.17507,2023,6,8,14,16,36,197
2.27380,-0.33442,0.04725,0.00000,0.02428,0.97844,-0.17190,2023,6,8,14,16,36,208
2.27390,0.31308,-0.23275,0.00000,0.02196,0.97515,-0.17605,2023,6,8,14,16,36,219
2.27400,0.33058,0.09975,0.00000,0.02525,0.97881,-0.17409,2023,6,8,14,16,36,230
2.27410,0.27808,0.11725,0.00000,0.02269,0.97942,-0.17544,2023,6,8,14,16,36,241
2.27420,-0.24692,0.09975,0.00000,0.02355,0.97673,-0.17434,2023,6,8,14,16,36,252
2.27430,-0.42192,0.09975,0.00000,0.02342,0.97588,-0.17531,2023,6,8,14,16,36,263
2.27440,-0.33442,0.18725,0.00000,0.02464,0.97954,-0.17409,2023,6,8,14,16,36,275
2.27450,0.12058,-0.09275,0.00000,0.02464,0.97795,-0.17043,2023,6,8,14,16,36,286
2.27460,0.47058,0.01225,0.00000,0.02306,0.97820,-0.17519,2023,6,8,14,16,36,297
2.27470,0.31308,-0.00525,0.00000,0.02635,0.97795,-0.17702,2023,6,8,14,16,36,308
2.27480,-0.14192,-0.09275,0.00000,0.02538,0.97844,-0.17739,2023,6,8,14,16,36,319
2.27490,-0.29942,-0.07525,0.00000,0.02391,0.97746,-0.17617,2023,6,8,14,16,36,330
2.27500,-0.49192,0.08225,0.00000,0.02464,0.97771,-0.17605,2023,6,8,14,16,36,341
2.27510,0.05058,-0.12775,0.00000,0.02391,0.97515,-0.17324,2023,6,8,14,16,36,352
2.27520,0.40058,-0.07525,0.00000,0.02403,0.97905,-0.17409,2023,6,8,14,16,36,363
2.27530,0.12058,-0.16275,0.00000,0.02428,0.97868,-0.17507,2023,6,8,14,16,36,375
2.27540,-0.33442,-0.05775,0.00000,0.02599,0.97832,-0.17788,2023,6,8,14,16,36,386
2.27550,-0.50942,-0.04025,0.00000,0.02550,0.97624,-0.17434,2023,6,8,14,16,36,397
2.27560,0.19058,-0.04025,0.00000,0.02574,0.97612,-0.17422,2023,6,8,14,16,36,408
2.27570,0.41808,-0.02275,0.00000,0.02501,0.97820,-0.17629,2023,6,8,14,16,36,419
2.27580,0.29558,0.09975,0.00000,0.02318,0.97966,-0.17617,2023,6,8,14,16,36,430
2.27590,0.08558,0.20475,0.00000,0.02123,0.97832,-0.17605,2023,6,8,14,16,36,441
2.27600,-0.42192,-0.19775,0.00000,0.02245,0.97600,-0.17580,2023,6,8,14,16,36,452
2.27610,-0.28192,-0.07525,0.00000,0.02440,0.97783,-0.17300,2023,6,8,14,16,36,463
2.27620,0.01558,0.08225,0.00000,0.02330,0.97820,-0.17592,2023,6,8,14,16,36,475
2.27630,0.50558,0.08225,0.00000,0.02538,0.97673,-0.17507,2023,6,8,14,16,36,486
2.27640,0.29558,0.13475,0.00000,0.02525,0.97978,-0.17641,2023,6,8,14,16,36,497
2.27650,-0.40442,-0.04025,0.00000,0.02501,0.97856,-0.17666,2023,6,8,14,16,36,508
2.27660,-0.47442,-0.23275,0.00000,0.02562,0.98015,-0.17751,2023,6,8,14,16,36,519
2.27670,0.01558,-0.21525,0.00000,0.02330,0.97734,-0.17446,2023,6,8,14,16,36,530
2.27680,0.31308,-0.00525,0.00000,0.02477,0.97868,-0.17592,2023,6,8,14,16,36,541
2.27690,0.69808,-0.14525,0.00000,0.02208,0.97844,-0.17531,2023,6,8,14,16,36,552
2.27700,0.06808,0.04725,0.00000,0.02330,0.97832,-0.17727,2023,6,8,14,16,36,563
2.27710,-0.29942,0.02975,0.00000,0.02416,0.97783,-0.17739,2023,6,8,14,16,36,575
2.27720,-0.38692,-0.21525,0.00000,0.02440,0.97685,-0.17275,2023,6,8,14,16,36,586
2.27730,-0.26442,0.11725,0.00000,0.02147,0.98076,-0.17531,2023,6,8,14,16,36,597
2.27740,0.33058,0.08225,0.00000,0.02574,0.97734,-0.17617,2023,6,8,14,16,36,608
2.27750,0.31308,0.09975,0.00000,0.02403,0.97661,-0.17690,2023,6,8,14,16,36,619
2.27760,-0.03692,0.01225,0.00000,0.02440,0.97856,-0.17580,2023,6,8,14,16,36,630
2.27770,-0.31692,-0.05775,0.00000,0.02379,0.97710,-0.17446,2023,6,8,14,16,36,641
2.27780,-0.24692,0.01225,0.00000,0.02098,0.97734,-0.17287,2023,6,8,14,16,36,652
2.27790,0.13808,-0.04025,0.00000,0.02660,0.97710,-0.17495,2023,6,8,14,16,36,663
2.27800,0.45308,0.16975,0.00000,0.02257,0.98064,-0.17629,2023,6,8,14,16,36,675
2.27810,0.24308,0.09975,0.00000,0.02538,0.97588,-0.17434,2023,6,8,14,16,36,686
2.27820,-0.07192,-0.23275,0.00000,0.02599,0.97661,-0.17641,2023,6,8,14,16,36,697
2.27830,-0.35192,-0.12775,0.00000,0.02306,0.97942,-0.17385,2023,6,8,14,16,36,708
2.27840,-0.03692,-0.14525,0.00000,0.02257,0.97868,-0.17544,2023,6,8,14,16,36,719
2.27850,0.17308,-0.11025,0.00000,0.02294,0.97783,-0.17507,2023,6,8,14,16,36,730
2.27860,0.27808,-0.04025,0.00000,0.02367,0.97624,-0.17568,2023,6,8,14,16,36,741
2.27870,0.24308,0.18725,0.00000,0.02623,0.97759,-0.17666,2023,6,8,14,16,36,752
2.27880,0.03308,0.11725,0.00000,0.02440,0.97917,-0.17812,2023,6,8,14,16,36,763
2.27890,-0.29942,0.01225,0.00000,0.02294,0.98051,-0.17470,2023,6,8,14,16,36,775
2.27900,-0.10692,0.08225,0.00000,0.02306,0.97820,-0.17580,2023,6,8,14,16,36,786
2.27910,0.05058,-0.12775,0.00000,0.02538,0.97759,-0.17348,2023,6,8,14,16,36,797
2.27920,0.13808,-0.02275,0.00000,0.02525,0.97722,-0.17446,2023,6,8,14,16,36,808
2.27930,0.29558,0.09975,0.00000,0.02440,0.97783,-0.17531,2023,6,8,14,16,36,819
2.27940,0.01558,-0.00525,0.00000,0.02342,0.97612,-0.17446,2023,6,8,14,16,36,830
2.27950,-0.28192,-0.05775,0.00000,0.02501,0.97746,-0.17739,2023,6,8,14,16,36,841
2.27960,-0.17692,-0.02275,0.00000,0.02538,0.97685,-0.17519,2023,6,8,14,16,36,852
2.27970,-0.24692,0.02975,0.00000,0.02464,0.97771,-0.17434,2023,6,8,14,16,36,863
2.27980,-0.08942,-0.02275,0.00000,0.02306,0.97893,-0.17446,2023,6,8,14,16,36,875
2.27990,0.10308,0.13475,0.00000,0.02513,0.97722,-0.17300,2023,6,8,14,16,36,886
2.28000,0.10308,0.02975,0.00000,0.02440,0.97698,-0.17312,2023,6,8,14,16,36,897
2.28010,-0.03692,0.18725,0.00000,0.02342,0.97893,-0.17397,2023,6,8,14,16,36,908
2.28020,-0.15942,0.04725,0.00000,0.02599,0.97929,-0.17239,2023,6,8,14,16,36,919
2.28030,-0.24692,0.13475,0.00000,0.02391,0.97771,-0.17397,2023,6,8,14,16,36,930
2.28040,0.15558,-0.05775,0.00000,0.02428,0.97771,-0.17507,2023,6,8,14,16,36,941
2.28050,0.03308,0.06475,0.00000,0.02379,0.97929,-0.17385,2023,6,8,14,16,36,952
2.28060,0.19058,-0.32025,0.00000,0.02489,0.97588,-0.17580,2023,6,8,14,16,36,963
2.28070,0.36558,0.27475,0.00000,0.02379,0.97746,-0.17580,2023,6,8,14,16,36,975
2.28080,-0.00192,-0.04025,0.00000,0.02489,0.97783,-0.17617,2023,6,8,14,16,36,986
#2023/06/08 14:16:37
